t,x,y,z,vx,vy,vz,roll_deg,pitch_deg,yaw_deg,gyro_x,gyro_y,gyro_z,acc_x,acc_y,acc_z,a_res_x,a_res_y,a_res_z,tau_x,tau_y,tau_z,alp_x,alp_y,alp_z,rnn_pred_x,rnn_pred_y,rnn_pred_z,rnn_clamped,ctrltarget_x,ctrltarget_y,ctrltarget_z,motor_m1,motor_m2,motor_m3,motor_m4,e_r_x,e_r_y,e_r_z,e_r_norm
-0.1000,-0.003153,0.823749,1.186142,0.010115,-0.040249,0.014227,0.469105,0.096809,0.022444,-6.039402,-6.748330,-0.273935,-0.008104,-0.002516,1.007123,0.000000,0.000000,0.000000,0.000405,-0.000029,-0.000011,1.873672,1.498016,0.292572,0.000000,0.000000,0.000000,0.000000,-0.000000,0.799990,1.650010,49461.000000,52157.000000,52074.000000,56565.000000,-0.011303,0.000003,-0.000056,0.011303
-0.0980,-0.003053,0.823342,1.186286,0.009949,-0.041054,0.014509,0.422482,0.173579,0.018179,-6.424679,-6.526755,-0.598241,-0.007929,-0.001792,1.008053,0.000000,0.000000,0.000000,0.000405,-0.000029,-0.000011,1.873672,1.498016,0.292572,0.000000,0.000000,0.000000,0.000000,-0.000000,0.799990,1.650010,49294.000000,52257.000000,51986.000000,56664.000000,-0.011303,0.000003,-0.000056,0.011303
-0.0960,-0.003053,0.823342,1.186286,0.009949,-0.041054,0.014509,0.422482,0.173579,0.018179,-6.910218,-6.445327,-0.626983,-0.008249,-0.000962,1.008175,0.000000,0.000000,0.000000,0.000405,-0.000029,-0.000011,1.873672,1.498016,0.292572,0.000000,0.000000,0.000000,0.000000,-0.000000,0.799990,1.650010,49265.000000,52244.000000,51993.000000,56691.000000,-0.011303,0.000003,-0.000056,0.011303
-0.0940,-0.003053,0.823342,1.186286,0.009949,-0.041054,0.014509,0.422482,0.173579,0.018179,-7.629778,-6.595976,-0.511045,-0.009087,-0.000263,1.007720,0.000000,0.000000,0.000000,0.000405,-0.000029,-0.000011,1.873672,1.498016,0.292572,0.000000,0.000000,0.000000,0.000000,-0.000000,0.799990,1.650010,49269.000000,52182.000000,52067.000000,56677.000000,-0.011303,0.000003,-0.000056,0.011303
-0.0921,-0.003053,0.823342,1.186286,0.009949,-0.041054,0.014509,0.422482,0.173579,0.018179,-8.250133,-6.476315,-0.510195,-0.010466,0.000130,1.006572,0.000000,0.000000,0.000000,0.000405,-0.000029,-0.000011,1.873672,1.498016,0.292572,0.000000,0.000000,0.000000,0.000000,-0.000000,0.799990,1.650010,49247.000000,52153.000000,52088.000000,56701.000000,-0.011303,0.000003,-0.000056,0.011303
-0.0901,-0.003053,0.823342,1.186286,0.009949,-0.041054,0.014509,0.422482,0.173579,0.018179,-8.484385,-6.221381,-0.469620,-0.011717,0.000333,1.005971,0.000000,0.000000,0.000000,0.000405,-0.000029,-0.000011,1.873672,1.498016,0.292572,0.000000,0.000000,0.000000,0.000000,-0.000000,0.799990,1.650010,49264.000000,52120.000000,52100.000000,56705.000000,-0.011303,0.000003,-0.000056,0.011303
-0.0881,-0.002955,0.822928,1.186434,0.009649,-0.041782,0.015243,0.350744,0.238880,0.012548,-8.719227,-6.058561,-0.526617,-0.012371,0.000814,1.005614,0.000000,0.000000,0.000000,0.000405,-0.000029,-0.000011,1.873672,1.498016,0.292572,0.000000,0.000000,0.000000,0.000000,-0.000000,0.799990,1.650010,49190.000000,52128.000000,52097.000000,56729.000000,-0.011303,0.000003,-0.000056,0.011303
-0.0861,-0.002989,0.822983,1.186599,0.009492,-0.041533,0.015131,0.350744,0.238880,0.012548,-8.925232,-5.859920,-0.776562,-0.013120,0.001002,1.005738,0.000000,0.000000,0.000000,0.000405,-0.000029,-0.000011,1.873672,1.498016,0.292572,0.000000,0.000000,0.000000,0.000000,-0.000000,0.799990,1.650010,49091.000000,52195.000000,52015.000000,56810.000000,-0.011303,0.000003,-0.000056,0.011303
-0.0841,-0.002989,0.822983,1.186599,0.009492,-0.041533,0.015131,0.350744,0.238880,0.012548,-9.477567,-5.296021,-0.746043,-0.013278,0.001131,1.005857,0.000000,0.000000,0.000000,0.000405,-0.000029,-0.000011,1.873672,1.498016,0.292572,0.000000,0.000000,0.000000,0.000000,-0.000000,0.799990,1.650010,49104.000000,52139.000000,52024.000000,56838.000000,-0.011303,0.000003,-0.000056,0.011303
-0.0822,-0.002989,0.822983,1.186599,0.009492,-0.041533,0.015131,0.350744,0.238880,0.012548,-9.623045,-4.296221,-0.368285,-0.013152,0.001275,1.005678,0.000000,0.000000,0.000000,0.000405,-0.000029,-0.000011,1.873672,1.498016,0.292572,0.000000,0.000000,0.000000,0.000000,-0.000000,0.799990,1.650010,49288.000000,51966.000000,52115.000000,56772.000000,-0.011303,0.000003,-0.000056,0.011303
-0.0802,-0.002989,0.822983,1.186599,0.009492,-0.041533,0.015131,0.350744,0.238880,0.012548,-9.461996,-3.633044,0.014190,-0.012992,0.001350,1.005015,0.000000,0.000000,0.000000,0.000405,-0.000029,-0.000011,1.873672,1.498016,0.292572,0.000000,0.000000,0.000000,0.000000,-0.000000,0.799990,1.650010,49472.000000,51816.000000,52208.000000,56683.000000,-0.011303,0.000003,-0.000056,0.011303
-0.0783,-0.002950,0.822788,1.186880,0.008910,-0.041422,0.016157,0.259797,0.293033,0.006721,-9.613203,-3.555859,0.014279,-0.012610,0.001684,1.004457,0.000000,0.000000,0.000000,0.000405,-0.000029,-0.000011,1.873672,1.498016,0.292572,0.000000,0.000000,0.000000,0.000000,-0.000000,0.799990,1.650010,49404.000000,51798.000000,52230.000000,56691.000000,-0.011303,0.000003,-0.000056,0.011303
-0.0762,-0.002950,0.822788,1.186880,0.008910,-0.041422,0.016157,0.259797,0.293033,0.006721,-9.925604,-3.802850,-0.032613,-0.011836,0.001681,1.003823,0.000000,0.000000,0.000000,0.000405,-0.000029,-0.000011,1.873672,1.498016,0.292572,0.000000,0.000000,0.000000,0.000000,-0.000000,0.799990,1.650010,49361.000000,51812.000000,52237.000000,56706.000000,-0.011303,0.000003,-0.000056,0.011303
-0.0742,-0.002950,0.822788,1.186880,0.008910,-0.041422,0.016157,0.259797,0.293033,0.006721,-10.161045,-3.939209,0.124435,-0.010501,0.000901,1.004447,0.000000,0.000000,0.000000,0.000405,-0.000029,-0.000011,1.873672,1.498016,0.292572,0.000000,0.000000,0.000000,0.000000,-0.000000,0.799990,1.650010,49403.000000,51755.000000,52305.000000,56665.000000,-0.011303,0.000003,-0.000056,0.011303
-0.0723,-0.002950,0.822788,1.186880,0.008910,-0.041422,0.016157,0.259797,0.293033,0.006721,-10.463195,-3.811395,-0.018753,-0.009057,-0.000212,1.004046,0.000000,0.000000,0.000000,0.000405,-0.000029,-0.000011,1.873672,1.498016,0.292572,0.000000,0.000000,0.000000,0.000000,-0.000000,0.799990,1.650010,49341.000000,51787.000000,52264.000000,56718.000000,-0.011303,0.000003,-0.000056,0.011303
-0.0703,-0.002950,0.822788,1.186880,0.008910,-0.041422,0.016157,0.259797,0.293033,0.006721,-10.821652,-3.793204,-0.593542,-0.007309,-0.001241,1.003471,0.000000,0.000000,0.000000,0.000405,-0.000029,-0.000011,1.873672,1.498016,0.292572,0.000000,0.000000,0.000000,0.000000,-0.000000,0.799990,1.650010,49107.000000,51967.000000,52086.000000,56888.000000,-0.011303,0.000003,-0.000056,0.011303
-0.0684,-0.002863,0.822371,1.187044,0.008406,-0.041868,0.016575,0.159907,0.330585,0.006605,-11.137858,-3.186412,-1.220229,-0.005544,-0.002466,1.001960,0.000000,0.000000,0.000000,0.000405,-0.000029,-0.000011,1.873672,1.498016,0.292572,0.000000,0.000000,0.000000,0.000000,-0.000000,0.799990,1.650010,48838.000000,52126.000000,51888.000000,57093.000000,-0.011303,0.000003,-0.000056,0.011303
-0.0663,-0.002933,0.822181,1.187021,0.008164,-0.042523,0.016489,0.159907,0.330585,0.006605,-11.205910,-2.360743,-1.522119,-0.004375,-0.002946,1.000637,0.000000,0.000000,0.000000,0.000405,-0.000029,-0.000011,1.873672,1.498016,0.292572,0.000000,0.000000,0.000000,0.000000,-0.000000,0.799990,1.650010,48762.000000,52198.000000,51752.000000,57200.000000,-0.011303,0.000003,-0.000056,0.011303
-0.0644,-0.002933,0.822181,1.187021,0.008164,-0.042523,0.016489,0.159907,0.330585,0.006605,-11.138539,-1.685948,-1.573122,-0.004118,-0.003036,1.000359,0.000000,0.000000,0.000000,0.000405,-0.000029,-0.000011,1.873672,1.498016,0.292572,0.000000,0.000000,0.000000,0.000000,-0.000000,0.799990,1.650010,48777.000000,52191.000000,51703.000000,57233.000000,-0.011303,0.000003,-0.000056,0.011303
-0.0624,-0.002933,0.822181,1.187021,0.008164,-0.042523,0.016489,0.159907,0.330585,0.006605,-10.996830,-1.074655,-1.431792,-0.004782,-0.001767,1.001264,0.000000,0.000000,0.000000,0.000405,-0.000029,-0.000011,1.873672,1.498016,0.292572,0.000000,0.000000,0.000000,0.000000,-0.000000,0.799990,1.650010,48868.000000,52125.000000,51720.000000,57209.000000,-0.011303,0.000003,-0.000056,0.011303
-0.0605,-0.002933,0.822181,1.187021,0.008164,-0.042523,0.016489,0.159907,0.330585,0.006605,-10.545788,-0.540085,-1.142430,-0.006035,-0.000056,1.001413,0.000000,0.000000,0.000000,0.000405,-0.000029,-0.000011,1.873672,1.498016,0.292572,0.000000,0.000000,0.000000,0.000000,-0.000000,0.799990,1.650010,49025.000000,52026.000000,51777.000000,57133.000000,-0.011303,0.000003,-0.000056,0.011303
-0.0585,-0.002854,0.821754,1.187187,0.007597,-0.042797,0.016628,0.049415,0.353170,-0.006506,-9.952607,0.030079,-0.886002,-0.007155,0.001048,1.000957,0.000000,0.000000,0.000000,0.000405,-0.000029,-0.000011,1.873672,1.498016,0.292572,0.000000,0.000000,0.000000,0.000000,-0.000000,0.799990,1.650010,49119.000000,51941.000000,51826.000000,57086.000000,-0.011303,0.000003,-0.000056,0.011303
-0.0565,-0.002929,0.821880,1.187091,0.007331,-0.042347,0.016227,0.049415,0.353170,-0.006506,-9.845365,0.259584,-0.604858,-0.007523,0.001627,1.000061,0.000000,0.000000,0.000000,0.000405,-0.000029,-0.000011,1.873672,1.498016,0.292572,0.000000,0.000000,0.000000,0.000000,-0.000000,0.799990,1.650010,49240.000000,51844.000000,51917.000000,57018.000000,-0.011303,0.000003,-0.000056,0.011303
-0.0545,-0.002929,0.821880,1.187091,0.007331,-0.042347,0.016227,0.049415,0.353170,-0.006506,-9.707891,0.676787,-0.196544,-0.006482,0.001367,0.999624,0.000000,0.000000,0.000000,0.000405,-0.000029,-0.000011,1.873672,1.498016,0.292572,0.000000,0.000000,0.000000,0.000000,-0.000000,0.799990,1.650010,49420.000000,51695.000000,52031.000000,56915.000000,-0.011303,0.000003,-0.000056,0.011303
-0.0526,-0.002929,0.821880,1.187091,0.007331,-0.042347,0.016227,0.049415,0.353170,-0.006506,-9.373942,0.992017,0.151419,-0.005665,0.000445,0.999710,0.000000,0.000000,0.000000,0.000405,-0.000029,-0.000011,1.873672,1.498016,0.292572,0.000000,0.000000,0.000000,0.000000,-0.000000,0.799990,1.650010,49580.000000,51578.000000,52122.000000,56818.000000,-0.011303,0.000003,-0.000056,0.011303
-0.0506,-0.002929,0.821880,1.187091,0.007331,-0.042347,0.016227,0.049415,0.353170,-0.006506,-9.232813,1.517652,0.250454,-0.005174,-0.000755,1.000208,0.000000,0.000000,0.000000,0.000405,-0.000029,-0.000011,1.873672,1.498016,0.292572,0.000000,0.000000,0.000000,0.000000,-0.000000,0.799990,1.650010,49648.000000,51528.000000,52128.000000,56803.000000,-0.011303,0.000003,-0.000056,0.011303
-0.0486,-0.002931,0.821736,1.187122,0.006463,-0.041417,0.015706,-0.055921,0.351220,-0.010826,-8.659404,2.527887,0.388204,-0.004893,-0.001234,1.000486,0.000000,0.000000,0.000000,0.000405,-0.000029,-0.000011,1.873672,1.498016,0.292572,0.000000,0.000000,0.000000,0.000000,-0.000000,0.799990,1.650010,49731.000000,51446.000000,52139.000000,56809.000000,-0.011303,0.000003,-0.000056,0.011303
-0.0466,-0.002931,0.821736,1.187122,0.006463,-0.041417,0.015706,-0.055921,0.351220,-0.010826,-8.073741,2.806007,0.350613,-0.005526,-0.001282,1.001090,0.000000,0.000000,0.000000,0.000405,-0.000029,-0.000011,1.873672,1.498016,0.292572,0.000000,0.000000,0.000000,0.000000,-0.000000,0.799990,1.650010,49756.000000,51473.000000,52092.000000,56808.000000,-0.011303,0.000003,-0.000056,0.011303
-0.0446,-0.002931,0.821736,1.187122,0.006463,-0.041417,0.015706,-0.055921,0.351220,-0.010826,-7.709932,3.064207,-0.058697,-0.005926,-0.000203,1.000425,0.000000,0.000000,0.000000,0.000405,-0.000029,-0.000011,1.873672,1.498016,0.292572,0.000000,0.000000,0.000000,0.000000,-0.000000,0.799990,1.650010,49632.000000,51619.000000,51928.000000,56916.000000,-0.011303,0.000003,-0.000056,0.011303
-0.0427,-0.002931,0.821736,1.187122,0.006463,-0.041417,0.015706,-0.055921,0.351220,-0.010826,-7.701090,3.520153,-0.425078,-0.005614,0.001427,1.000364,0.000000,0.000000,0.000000,0.000405,-0.000029,-0.000011,1.873672,1.498016,0.292572,0.000000,0.000000,0.000000,0.000000,-0.000000,0.799990,1.650010,49515.000000,51726.000000,51785.000000,57031.000000,-0.011303,0.000003,-0.000056,0.011303
-0.0407,-0.002931,0.821736,1.187122,0.006463,-0.041417,0.015706,-0.055921,0.351220,-0.010826,-7.766925,3.627780,-0.609078,-0.005789,0.002540,1.000650,0.000000,0.000000,0.000000,0.000405,-0.000029,-0.000011,1.873672,1.498016,0.292572,0.000000,0.000000,0.000000,0.000000,-0.000000,0.799990,1.650010,49447.000000,51783.000000,51721.000000,57087.000000,-0.011303,0.000003,-0.000056,0.011303
-0.0387,-0.002870,0.821322,1.187280,0.005861,-0.041321,0.015757,-0.137906,0.323154,-0.010287,-7.434870,3.694598,-0.457668,-0.005842,0.003316,1.000439,0.000000,0.000000,0.000000,0.000405,-0.000029,-0.000011,1.873672,1.498016,0.292572,0.000000,0.000000,0.000000,0.000000,-0.000000,0.799990,1.650010,49504.000000,51717.000000,51768.000000,57052.000000,-0.011303,0.000003,-0.000056,0.011303
-0.0367,-0.002937,0.821157,1.187135,0.005616,-0.041925,0.015149,-0.137906,0.323154,-0.010287,-6.867031,4.107405,-0.180256,-0.006017,0.003848,1.000356,0.000000,0.000000,0.000000,0.000405,-0.000029,-0.000011,1.873672,1.498016,0.292572,0.000000,0.000000,0.000000,0.000000,-0.000000,0.799990,1.650010,49662.000000,51642.000000,51826.000000,56972.000000,-0.011303,0.000003,-0.000056,0.011303
-0.0347,-0.002937,0.821157,1.187135,0.005616,-0.041925,0.015149,-0.137906,0.323154,-0.010287,-6.410076,4.657751,-0.057779,-0.005694,0.004091,1.001136,0.000000,0.000000,0.000000,0.000405,-0.000029,-0.000011,1.873672,1.498016,0.292572,0.000000,0.000000,0.000000,0.000000,-0.000000,0.799990,1.650010,49753.000000,51596.000000,51826.000000,56941.000000,-0.011303,0.000003,-0.000056,0.011303
-0.0328,-0.002937,0.821157,1.187135,0.005616,-0.041925,0.015149,-0.137906,0.323154,-0.010287,-5.752078,5.554821,-0.131827,-0.005304,0.004226,1.002297,0.000000,0.000000,0.000000,0.000405,-0.000029,-0.000011,1.873672,1.498016,0.292572,0.000000,0.000000,0.000000,0.000000,-0.000000,0.799990,1.650010,49796.000000,51612.000000,51736.000000,56969.000000,-0.011303,0.000003,-0.000056,0.011303
-0.0308,-0.002937,0.821157,1.187135,0.005616,-0.041925,0.015149,-0.137906,0.323154,-0.010287,-5.433768,5.806062,-0.623410,-0.005787,0.004615,1.003426,0.000000,0.000000,0.000000,0.000405,-0.000029,-0.000011,1.873672,1.498016,0.292572,0.000000,0.000000,0.000000,0.000000,-0.000000,0.799990,1.650010,49639.000000,51784.000000,51544.000000,57101.000000,-0.011303,0.000003,-0.000056,0.011303
-0.0288,-0.002943,0.820873,1.187139,0.004843,-0.041195,0.014622,-0.205180,0.278789,-0.013239,-5.480848,5.608976,-1.111468,-0.006547,0.004991,1.003886,0.000000,0.000000,0.000000,0.000405,-0.000029,-0.000011,1.873672,1.498016,0.292572,0.000000,0.000000,0.000000,0.000000,-0.000000,0.799990,1.650010,49432.000000,51938.000000,51398.000000,57255.000000,-0.011303,0.000003,-0.000056,0.011303
-0.0268,-0.002943,0.820873,1.187139,0.004843,-0.041195,0.014622,-0.205180,0.278789,-0.013239,-5.204123,5.323664,-1.154585,-0.007378,0.005159,1.003596,0.000000,0.000000,0.000000,0.000405,-0.000029,-0.000011,1.873672,1.498016,0.292572,0.000000,0.000000,0.000000,0.000000,-0.000000,0.799990,1.650010,49414.000000,51976.000000,51385.000000,57248.000000,-0.011303,0.000003,-0.000056,0.011303
-0.0248,-0.002943,0.820873,1.187139,0.004843,-0.041195,0.014622,-0.205180,0.278789,-0.013239,-4.833842,4.969622,-0.790359,-0.008036,0.005345,1.002527,0.000000,0.000000,0.000000,0.000405,-0.000029,-0.000011,1.873672,1.498016,0.292572,0.000000,0.000000,0.000000,0.000000,-0.000000,0.799990,1.650010,49551.000000,51884.000000,51510.000000,57125.000000,-0.011303,0.000003,-0.000056,0.011303
-0.0229,-0.002943,0.820873,1.187139,0.004843,-0.041195,0.014622,-0.205180,0.278789,-0.013239,-4.606367,5.186367,-0.249070,-0.008846,0.005561,1.000877,0.000000,0.000000,0.000000,0.000405,-0.000029,-0.000011,1.873672,1.498016,0.292572,0.000000,0.000000,0.000000,0.000000,-0.000000,0.799990,1.650010,49771.000000,51701.000000,51678.000000,56977.000000,-0.011303,0.000003,-0.000056,0.011303
-0.0209,-0.002943,0.820873,1.187139,0.004843,-0.041195,0.014622,-0.205180,0.278789,-0.013239,-3.728085,6.275287,0.089194,-0.009687,0.005486,1.000004,0.000000,0.000000,0.000000,0.000405,-0.000029,-0.000011,1.873672,1.498016,0.292572,0.000000,0.000000,0.000000,0.000000,-0.000000,0.799990,1.650010,49985.000000,51577.000000,51711.000000,56891.000000,-0.011303,0.000003,-0.000056,0.011303
-0.0189,-0.002950,0.820739,1.187139,0.004170,-0.039823,0.014256,-0.262799,0.226368,-0.020897,-2.888854,7.086927,-0.022384,-0.009793,0.005609,0.999594,0.000000,0.000000,0.000000,0.000405,-0.000029,-0.000011,1.873672,1.498016,0.292572,0.000000,0.000000,0.000000,0.000000,-0.000000,0.799990,1.650010,49999.000000,51600.000000,51606.000000,56956.000000,-0.011303,0.000003,-0.000056,0.011303
-0.0169,-0.002950,0.820739,1.187139,0.004170,-0.039823,0.014256,-0.262799,0.226368,-0.020897,-2.785888,7.309211,-0.334216,-0.010117,0.006500,0.999093,0.000000,0.000000,0.000000,0.000405,-0.000029,-0.000011,1.873672,1.498016,0.292572,0.000000,0.000000,0.000000,0.000000,-0.000000,0.799990,1.650010,49899.000000,51702.000000,51487.000000,57046.000000,-0.011303,0.000003,-0.000056,0.011303
-0.0149,-0.002950,0.820739,1.187139,0.004170,-0.039823,0.014256,-0.262799,0.226368,-0.020897,-2.895384,7.236063,-0.465096,-0.010446,0.006837,0.998780,0.000000,0.000000,0.000000,0.000405,-0.000029,-0.000011,1.873672,1.498016,0.292572,0.000000,0.000000,0.000000,0.000000,-0.000000,0.799990,1.650010,49842.000000,51748.000000,51451.000000,57085.000000,-0.011303,0.000003,-0.000056,0.011303
-0.0130,-0.002950,0.820739,1.187139,0.004170,-0.039823,0.014256,-0.262799,0.226368,-0.020897,-2.593327,7.125293,-0.244303,-0.010446,0.006472,0.998849,0.000000,0.000000,0.000000,0.000405,-0.000029,-0.000011,1.873672,1.498016,0.292572,0.000000,0.000000,0.000000,0.000000,-0.000000,0.799990,1.650010,49932.000000,51692.000000,51522.000000,57012.000000,-0.011303,0.000003,-0.000056,0.011303
-0.0110,-0.002950,0.820739,1.187139,0.004170,-0.039823,0.014256,-0.262799,0.226368,-0.020897,-2.242117,6.791304,0.092907,-0.010195,0.006145,0.998731,0.000000,0.000000,0.000000,0.000405,-0.000029,-0.000011,1.873672,1.498016,0.292572,0.000000,0.000000,0.000000,0.000000,-0.000000,0.799990,1.650010,50057.000000,51607.000000,51639.000000,56899.000000,-0.011303,0.000003,-0.000056,0.011303
-0.0090,-0.002910,0.820343,1.187281,0.003783,-0.039373,0.014175,-0.291722,0.155863,-0.023205,-1.739351,6.691835,0.319519,-0.009922,0.006337,0.999005,0.000000,0.000000,0.000000,0.000405,-0.000029,-0.000011,1.873672,1.498016,0.292572,0.000000,0.000000,0.000000,0.000000,-0.000000,0.799990,1.650010,50166.000000,51535.000000,51687.000000,56838.000000,-0.011303,0.000003,-0.000056,0.011303
-0.0070,-0.002956,0.820167,1.187136,0.003613,-0.040023,0.013561,-0.291722,0.155863,-0.023205,-0.861763,7.272188,0.520296,-0.009463,0.006624,0.999480,0.000000,0.000000,0.000000,0.000405,-0.000029,-0.000011,1.873672,1.498016,0.292572,0.000000,0.000000,0.000000,0.000000,-0.000000,0.799990,1.650010,50315.000000,51492.000000,51699.000000,56776.000000,-0.011303,0.000003,-0.000056,0.011303
-0.0050,-0.002956,0.820167,1.187136,0.003613,-0.040023,0.013561,-0.291722,0.155863,-0.023205,-0.112462,7.874808,0.594077,-0.008698,0.006500,1.000517,0.000000,0.000000,0.000000,0.000405,-0.000029,-0.000011,1.873672,1.498016,0.292572,0.000000,0.000000,0.000000,0.000000,-0.000000,0.799990,1.650010,50402.000000,51475.000000,51670.000000,56752.000000,-0.011303,0.000003,-0.000056,0.011303
-0.0031,-0.002956,0.820167,1.187136,0.003613,-0.040023,0.013561,-0.291722,0.155863,-0.023205,0.095726,7.987267,0.458252,-0.007797,0.006019,1.000406,0.000000,0.000000,0.000000,0.000405,-0.000029,-0.000011,1.873672,1.498016,0.292572,0.000000,0.000000,0.000000,0.000000,-0.000000,0.799990,1.650010,50367.000000,51527.000000,51612.000000,56788.000000,-0.011303,0.000003,-0.000056,0.011303
-0.0011,-0.002956,0.820167,1.187136,0.003613,-0.040023,0.013561,-0.291722,0.155863,-0.023205,0.374498,7.943401,0.264593,-0.007248,0.005146,0.999215,0.000000,0.000000,0.000000,0.000405,-0.000029,-0.000011,1.873672,1.498016,0.292572,0.000000,0.000000,0.000000,0.000000,-0.000000,0.799990,1.650010,50308.000000,51609.000000,51537.000000,56832.000000,-0.011303,0.000003,-0.000056,0.011303
0.0008,-0.002922,0.819769,1.187271,0.003346,-0.039523,0.013527,-0.300165,0.082069,-0.019460,1.103766,7.770878,-0.077504,-0.006958,0.003645,0.998300,0.000000,0.000000,0.000000,0.000405,-0.000029,-0.000011,1.873672,1.498016,0.292572,0.000000,0.000000,0.000000,0.000000,-0.000000,0.799990,1.650010,50231.000000,51739.000000,51384.000000,56907.000000,-0.011303,0.000003,-0.000056,0.011303
0.0029,-0.002962,0.819888,1.187131,0.003198,-0.039085,0.012928,-0.300165,0.082069,-0.019460,1.665612,7.087493,-0.417822,-0.007185,0.002789,0.997371,0.000000,0.000000,0.000000,0.000405,-0.000029,-0.000011,1.873672,1.498016,0.292572,0.000000,0.000000,0.000000,0.000000,-0.000000,0.799990,1.650010,50104.000000,51913.000000,51283.000000,56966.000000,-0.011303,0.000003,-0.000056,0.011303
0.0048,-0.002962,0.819888,1.187131,0.003198,-0.039085,0.012928,-0.300165,0.082069,-0.019460,1.499562,6.098119,-0.387726,-0.007601,0.002871,0.996233,0.000000,0.000000,0.000000,0.000405,-0.000029,-0.000011,1.873672,1.498016,0.292572,0.000000,0.000000,0.000000,0.000000,-0.000000,0.799990,1.650010,50061.000000,51936.000000,51344.000000,56930.000000,-0.011303,0.000003,-0.000056,0.011303
0.0068,-0.002962,0.819888,1.187131,0.003198,-0.039085,0.012928,-0.300165,0.082069,-0.019460,1.334469,5.802746,-0.073660,-0.008296,0.003757,0.995687,0.000000,0.000000,0.000000,0.000405,-0.000029,-0.000011,1.873672,1.498016,0.292572,0.000000,0.000000,0.000000,0.000000,-0.000000,0.799990,1.650010,50154.000000,51835.000000,51472.000000,56839.000000,-0.011303,0.000003,-0.000056,0.011303
0.0087,-0.002962,0.819888,1.187131,0.003198,-0.039085,0.012928,-0.300165,0.082069,-0.019460,1.814320,6.369543,0.257388,-0.009580,0.004492,0.995135,0.000000,0.000000,0.000000,0.000405,-0.000029,-0.000011,1.873672,1.498016,0.292572,0.000000,0.000000,0.000000,0.000000,-0.000000,0.799990,1.650010,50320.000000,51718.000000,51542.000000,56751.000000,-0.011303,0.000003,-0.000056,0.011303
0.0107,-0.002931,0.819499,1.187259,0.003058,-0.038572,0.012647,-0.287497,0.013538,-0.021278,2.222219,6.634589,0.507449,-0.010555,0.004945,0.995004,0.000000,0.000000,0.000000,0.000405,-0.000029,-0.000011,1.873672,1.498016,0.292572,0.000000,0.000000,0.000000,0.000000,-0.000000,0.799990,1.650010,50461.000000,51628.000000,51576.000000,56690.000000,-0.011303,0.000003,-0.000056,0.011303
0.0128,-0.002966,0.819757,1.187125,0.002926,-0.037621,0.012077,-0.294268,0.014480,-0.021263,2.488565,6.347139,0.541734,-0.010891,0.005468,0.995751,0.000000,0.000000,0.000000,0.000405,-0.000029,-0.000011,1.873672,1.498016,0.292572,0.000000,0.000000,0.000000,0.000000,-0.000000,0.799990,1.650010,50468.000000,51638.000000,51605.000000,56672.000000,-0.011303,0.000003,-0.000056,0.011303
0.0147,-0.002966,0.819757,1.187125,0.002926,-0.037621,0.012077,-0.294268,0.014480,-0.021263,3.115259,6.417719,0.779887,-0.010387,0.005732,0.996633,0.000000,0.000000,0.000000,0.000405,-0.000029,-0.000011,1.873672,1.498016,0.292572,0.000000,0.000000,0.000000,0.000000,-0.000000,0.799990,1.650010,50584.000000,51581.000000,51658.000000,56590.000000,-0.011303,0.000003,-0.000056,0.011303
0.0167,-0.002966,0.819757,1.187125,0.002926,-0.037621,0.012077,-0.294268,0.014480,-0.021263,4.148685,6.609398,1.044319,-0.009841,0.006105,0.997291,0.000000,0.000000,0.000000,0.000405,-0.000029,-0.000011,1.873672,1.498016,0.292572,0.000000,0.000000,0.000000,0.000000,-0.000000,0.799990,1.650010,50734.000000,51527.000000,51699.000000,56489.000000,-0.011303,0.000003,-0.000056,0.011303
0.0186,-0.002966,0.819757,1.187125,0.002926,-0.037621,0.012077,-0.294268,0.014480,-0.021263,4.951813,6.387148,1.016988,-0.009311,0.005934,0.997119,0.000000,0.000000,0.000000,0.000405,-0.000029,-0.000011,1.873672,1.498016,0.292572,0.000000,0.000000,0.000000,0.000000,-0.000000,0.799990,1.650010,50749.000000,51581.000000,51667.000000,56463.000000,-0.011303,0.000003,-0.000056,0.011303
0.0206,-0.002937,0.819383,1.187244,0.002901,-0.037119,0.011689,-0.265106,-0.050470,-0.014883,4.985282,5.493126,0.675955,-0.008631,0.005926,0.996833,0.000000,0.000000,0.000000,0.000405,-0.000029,-0.000011,1.873672,1.498016,0.292572,0.000000,0.000000,0.000000,0.000000,-0.000000,0.799990,1.650010,50628.000000,51722.000000,51573.000000,56529.000000,-0.011303,0.000003,-0.000056,0.011303
0.0226,-0.002969,0.819700,1.187118,0.002782,-0.035946,0.011151,-0.273458,-0.049616,-0.014911,4.690436,4.557244,0.126541,-0.008022,0.005868,0.995952,0.000000,0.000000,0.000000,0.000405,-0.000029,-0.000011,1.873672,1.498016,0.292572,0.000000,0.000000,0.000000,0.000000,-0.000000,0.799990,1.650010,50370.000000,51934.000000,51455.000000,56674.000000,-0.011303,0.000003,-0.000056,0.011303
0.0246,-0.002969,0.819700,1.187118,0.002782,-0.035946,0.011151,-0.273458,-0.049616,-0.014911,4.863089,4.336419,-0.296700,-0.007031,0.005118,0.995048,0.000000,0.000000,0.000000,0.000405,-0.000029,-0.000011,1.873672,1.498016,0.292572,0.000000,0.000000,0.000000,0.000000,-0.000000,0.799990,1.650010,50213.000000,52092.000000,51310.000000,56777.000000,-0.011303,0.000003,-0.000056,0.011303
0.0266,-0.002969,0.819700,1.187118,0.002782,-0.035946,0.011151,-0.273458,-0.049616,-0.014911,5.165398,4.429979,-0.602116,-0.006059,0.003947,0.994113,0.000000,0.000000,0.000000,0.000405,-0.000029,-0.000011,1.873672,1.498016,0.292572,0.000000,0.000000,0.000000,0.000000,-0.000000,0.799990,1.650010,50118.000000,52203.000000,51187.000000,56854.000000,-0.011303,0.000003,-0.000056,0.011303
0.0285,-0.002969,0.819700,1.187118,0.002782,-0.035946,0.011151,-0.273458,-0.049616,-0.014911,4.998579,4.416585,-0.703593,-0.005162,0.003044,0.993462,0.000000,0.000000,0.000000,0.000405,-0.000029,-0.000011,1.873672,1.498016,0.292572,0.000000,0.000000,0.000000,0.000000,-0.000000,0.799990,1.650010,50072.000000,52229.000000,51159.000000,56888.000000,-0.011303,0.000003,-0.000056,0.011303
0.0305,-0.002941,0.819343,1.187227,0.002866,-0.035480,0.010722,-0.224020,-0.098974,-0.014173,4.749756,4.631745,-0.458811,-0.004763,0.002027,0.993295,0.000000,0.000000,0.000000,0.000405,-0.000029,-0.000011,1.873672,1.498016,0.292572,0.000000,0.000000,0.000000,0.000000,-0.000000,0.799990,1.650010,50191.000000,52128.000000,51222.000000,56837.000000,-0.011303,0.000003,-0.000056,0.011303
0.0325,-0.002971,0.819167,1.187626,0.002754,-0.036131,0.012426,-0.224020,-0.098974,-0.014173,5.008125,4.991409,0.035670,-0.005115,0.001720,0.993208,0.000000,0.000000,0.000000,0.000405,-0.000029,-0.000011,1.873672,1.498016,0.292572,0.000000,0.000000,0.000000,0.000000,-0.000000,0.799990,1.650010,50382.000000,51944.000000,51345.000000,56686.000000,-0.011303,0.000003,-0.000056,0.011303
0.0345,-0.002971,0.819167,1.187626,0.002754,-0.036131,0.012426,-0.224020,-0.098974,-0.014173,5.327924,4.739759,0.363127,-0.005793,0.002033,0.993691,0.000000,0.000000,0.000000,0.000405,-0.000029,-0.000011,1.873672,1.498016,0.292572,0.000000,0.000000,0.000000,0.000000,-0.000000,0.799990,1.650010,50504.000000,51858.000000,51457.000000,56577.000000,-0.011303,0.000003,-0.000056,0.011303
0.0364,-0.002971,0.819167,1.187626,0.002754,-0.036131,0.012426,-0.224020,-0.098974,-0.014173,5.128472,3.628704,0.387999,-0.006798,0.002080,0.994767,0.000000,0.000000,0.000000,0.000405,-0.000029,-0.000011,1.873672,1.498016,0.292572,0.000000,0.000000,0.000000,0.000000,-0.000000,0.799990,1.650010,50456.000000,51888.000000,51523.000000,56540.000000,-0.011303,0.000003,-0.000056,0.011303
0.0384,-0.002971,0.819167,1.187626,0.002754,-0.036131,0.012426,-0.224020,-0.098974,-0.014173,4.998375,2.761249,0.298599,-0.007876,0.002271,0.995688,0.000000,0.000000,0.000000,0.000405,-0.000029,-0.000011,1.873672,1.498016,0.292572,0.000000,0.000000,0.000000,0.000000,-0.000000,0.799990,1.650010,50379.000000,51950.000000,51535.000000,56541.000000,-0.011303,0.000003,-0.000056,0.011303
0.0404,-0.002972,0.818906,1.187362,0.002814,-0.035383,0.010167,-0.173661,-0.143015,-0.014544,5.264800,2.511078,0.119636,-0.007999,0.002236,0.996309,0.000000,0.000000,0.000000,0.000405,-0.000029,-0.000011,1.873672,1.498016,0.292572,0.000000,0.000000,0.000000,0.000000,-0.000000,0.799990,1.650010,50363.000000,52055.000000,51472.000000,56593.000000,-0.011303,0.000003,-0.000056,0.011303
0.0424,-0.002972,0.818906,1.187362,0.002814,-0.035383,0.010167,-0.173661,-0.143015,-0.014544,5.433962,2.221838,0.092164,-0.007637,0.001989,0.996349,0.000000,0.000000,0.000000,0.000405,-0.000029,-0.000011,1.873672,1.498016,0.292572,0.000000,0.000000,0.000000,0.000000,-0.000000,0.799990,1.650010,50349.000000,52084.000000,51469.000000,56587.000000,-0.011303,0.000003,-0.000056,0.011303
0.0444,-0.002972,0.818906,1.187362,0.002814,-0.035383,0.010167,-0.173661,-0.143015,-0.014544,5.261420,1.970237,0.555511,-0.007005,0.001721,0.996643,0.000000,0.000000,0.000000,0.000405,-0.000029,-0.000011,1.873672,1.498016,0.292572,0.000000,0.000000,0.000000,0.000000,-0.000000,0.799990,1.650010,50498.000000,51931.000000,51647.000000,56457.000000,-0.011303,0.000003,-0.000056,0.011303
0.0463,-0.002972,0.818906,1.187362,0.002814,-0.035383,0.010167,-0.173661,-0.143015,-0.014544,5.283136,1.957969,0.930009,-0.006273,0.002087,0.997055,0.000000,0.000000,0.000000,0.000405,-0.000029,-0.000011,1.873672,1.498016,0.292572,0.000000,0.000000,0.000000,0.000000,-0.000000,0.799990,1.650010,50634.000000,51807.000000,51776.000000,56353.000000,-0.011303,0.000003,-0.000056,0.011303
0.0483,-0.002972,0.818906,1.187362,0.002814,-0.035383,0.010167,-0.173661,-0.143015,-0.014544,5.661515,1.841488,0.871439,-0.005802,0.002569,0.997302,0.000000,0.000000,0.000000,0.000405,-0.000029,-0.000011,1.873672,1.498016,0.292572,0.000000,0.000000,0.000000,0.000000,-0.000000,0.799990,1.650010,50625.000000,51848.000000,51746.000000,56353.000000,-0.011303,0.000003,-0.000056,0.011303
0.0503,-0.002972,0.818783,1.187223,0.002950,-0.034238,0.008808,-0.126894,-0.164605,-0.010328,5.823817,1.526007,0.836963,-0.005292,0.002295,0.997736,0.000000,0.000000,0.000000,0.000405,-0.000029,-0.000011,1.873672,1.498016,0.292572,0.000000,0.000000,0.000000,0.000000,-0.000000,0.799990,1.650010,50641.000000,51889.000000,51746.000000,56352.000000,-0.011303,0.000003,-0.000056,0.011303
0.0523,-0.002972,0.818783,1.187223,0.002950,-0.034238,0.008808,-0.126894,-0.164605,-0.010328,5.877478,1.305826,0.929641,-0.005440,0.001818,0.997893,0.000000,0.000000,0.000000,0.000405,-0.000029,-0.000011,1.873672,1.498016,0.292572,0.000000,0.000000,0.000000,0.000000,-0.000000,0.799990,1.650010,50668.000000,51870.000000,51785.000000,56318.000000,-0.011303,0.000003,-0.000056,0.011303
0.0543,-0.002972,0.818783,1.187223,0.002950,-0.034238,0.008808,-0.126894,-0.164605,-0.010328,6.189510,1.019771,0.987514,-0.005801,0.001014,0.997164,0.000000,0.000000,0.000000,0.000405,-0.000029,-0.000011,1.873672,1.498016,0.292572,0.000000,0.000000,0.000000,0.000000,-0.000000,0.799990,1.650010,50691.000000,51876.000000,51805.000000,56283.000000,-0.011303,0.000003,-0.000056,0.011303
0.0562,-0.002972,0.818783,1.187223,0.002950,-0.034238,0.008808,-0.126894,-0.164605,-0.010328,6.164927,0.513929,0.874696,-0.005277,0.000334,0.996049,0.000000,0.000000,0.000000,0.000405,-0.000029,-0.000011,1.873672,1.498016,0.292572,0.000000,0.000000,0.000000,0.000000,-0.000000,0.799990,1.650010,50627.000000,51935.000000,51789.000000,56299.000000,-0.011303,0.000003,-0.000056,0.011303
0.0582,-0.002972,0.818783,1.187223,0.002950,-0.034238,0.008808,-0.126894,-0.164605,-0.010328,5.565424,-0.181695,0.669229,-0.004695,-0.000388,0.995429,0.000000,0.000000,0.000000,0.000405,-0.000029,-0.000011,1.873672,1.498016,0.292572,0.000000,0.000000,0.000000,0.000000,-0.000000,0.799990,1.650010,50497.000000,52009.000000,51775.000000,56355.000000,-0.011303,0.000003,-0.000056,0.011303
0.0602,-0.002941,0.818442,1.187310,0.003231,-0.034021,0.008527,-0.067387,-0.176060,-0.001429,5.446528,-0.436953,0.606066,-0.005222,-0.001053,0.995320,0.000000,0.000000,0.000000,0.000405,-0.000029,-0.000011,1.873672,1.498016,0.292572,0.000000,0.000000,0.000000,0.000000,-0.000000,0.799990,1.650010,50495.000000,52038.000000,51762.000000,56351.000000,-0.011303,0.000003,-0.000056,0.011303
0.0622,-0.002972,0.818215,1.187150,0.003119,-0.034862,0.007845,-0.061396,-0.175264,-0.001254,5.275341,-0.787220,0.756023,-0.006202,-0.001160,0.995330,0.000000,0.000000,0.000000,0.000405,-0.000029,-0.000011,1.873672,1.498016,0.292572,0.000000,0.000000,0.000000,0.000000,-0.000000,0.799990,1.650010,50542.000000,52010.000000,51837.000000,56303.000000,-0.011303,0.000003,-0.000056,0.011303
0.0642,-0.002972,0.818215,1.187150,0.003119,-0.034862,0.007845,-0.061396,-0.175264,-0.001254,5.142330,-1.297942,0.667718,-0.007267,-0.000919,0.995644,0.000000,0.000000,0.000000,0.000405,-0.000029,-0.000011,1.873672,1.498016,0.292572,0.000000,0.000000,0.000000,0.000000,-0.000000,0.799990,1.650010,50483.000000,52056.000000,51834.000000,56316.000000,-0.011303,0.000003,-0.000056,0.011303
0.0661,-0.002972,0.818215,1.187150,0.003119,-0.034862,0.007845,-0.061396,-0.175264,-0.001254,5.098387,-1.755192,0.522999,-0.008139,-0.000996,0.996144,0.000000,0.000000,0.000000,0.000405,-0.000029,-0.000011,1.873672,1.498016,0.292572,0.000000,0.000000,0.000000,0.000000,-0.000000,0.799990,1.650010,50409.000000,52123.000000,51807.000000,56343.000000,-0.011303,0.000003,-0.000056,0.011303
0.0681,-0.002972,0.818215,1.187150,0.003119,-0.034862,0.007845,-0.061396,-0.175264,-0.001254,4.920753,-2.042872,0.411572,-0.009269,-0.000869,0.996659,0.000000,0.000000,0.000000,0.000405,-0.000029,-0.000011,1.873672,1.498016,0.292572,0.000000,0.000000,0.000000,0.000000,-0.000000,0.799990,1.650010,50349.000000,52166.000000,51789.000000,56372.000000,-0.011303,0.000003,-0.000056,0.011303
0.0701,-0.002456,0.817935,1.187109,0.005204,-0.034503,0.006918,-0.010482,-0.178070,0.003803,4.688591,-2.197861,0.247580,-0.009976,-0.000445,0.996208,0.000000,0.000000,0.000000,0.000405,-0.000029,-0.000011,1.873672,1.498016,0.292572,0.000000,0.000000,0.000000,0.000000,-0.000000,0.799990,1.650010,50319.000000,52218.000000,51736.000000,56423.000000,-0.011303,0.000003,-0.000056,0.011303
0.0721,-0.002456,0.817935,1.187109,0.005204,-0.034503,0.006918,-0.010482,-0.178070,0.003803,4.423413,-2.647411,0.230652,-0.010022,-0.000202,0.996236,0.000000,0.000000,0.000000,0.000405,-0.000029,-0.000011,1.873672,1.498016,0.292572,0.000000,0.000000,0.000000,0.000000,-0.000000,0.799990,1.650010,50282.000000,52232.000000,51761.000000,56423.000000,-0.011303,0.000003,-0.000056,0.011303
0.0741,-0.002456,0.817935,1.187109,0.005204,-0.034503,0.006918,-0.010482,-0.178070,0.003803,4.189490,-3.101685,0.266832,-0.009271,-0.000051,0.996499,0.000000,0.000000,0.000000,0.000405,-0.000029,-0.000011,1.873672,1.498016,0.292572,0.000000,0.000000,0.000000,0.000000,-0.000000,0.799990,1.650010,50266.000000,52230.000000,51803.000000,56406.000000,-0.011303,0.000003,-0.000056,0.011303
0.0760,-0.002456,0.817935,1.187109,0.005204,-0.034503,0.006918,-0.010482,-0.178070,0.003803,3.741800,-3.785498,0.171556,-0.008144,0.000434,0.996507,0.000000,0.000000,0.000000,0.000405,-0.000029,-0.000011,1.873672,1.498016,0.292572,0.000000,0.000000,0.000000,0.000000,-0.000000,0.799990,1.650010,50182.000000,52272.000000,51818.000000,56426.000000,-0.011303,0.000003,-0.000056,0.011303
0.0780,-0.002456,0.817935,1.187109,0.005204,-0.034503,0.006918,-0.010482,-0.178070,0.003803,3.074155,-4.075525,0.138773,-0.007511,0.000870,0.996727,0.000000,0.000000,0.000000,0.000405,-0.000029,-0.000011,1.873672,1.498016,0.292572,0.000000,0.000000,0.000000,0.000000,-0.000000,0.799990,1.650010,50128.000000,52267.000000,51848.000000,56449.000000,-0.011303,0.000003,-0.000056,0.011303
0.0799,-0.002196,0.817801,1.187086,0.006274,-0.033707,0.006173,0.032570,-0.149483,0.006297,2.743475,-3.965625,-0.082878,-0.006629,0.000538,0.998053,0.000000,0.000000,0.000000,0.000405,-0.000029,-0.000011,1.873672,1.498016,0.292572,0.000000,0.000000,0.000000,0.000000,-0.000000,0.799990,1.650010,50056.000000,52335.000000,51784.000000,56522.000000,-0.011303,0.000003,-0.000056,0.011303
0.0820,-0.002196,0.817801,1.187086,0.006274,-0.033707,0.006173,0.032570,-0.149483,0.006297,2.535456,-4.003126,-0.101318,-0.005923,0.000282,0.998760,0.000000,0.000000,0.000000,0.000405,-0.000029,-0.000011,1.873672,1.498016,0.292572,0.000000,0.000000,0.000000,0.000000,-0.000000,0.799990,1.650010,50040.000000,52335.000000,51788.000000,56535.000000,-0.011303,0.000003,-0.000056,0.011303
0.0839,-0.002196,0.817801,1.187086,0.006274,-0.033707,0.006173,0.032570,-0.149483,0.006297,2.360477,-3.729588,0.169599,-0.006279,0.000491,0.998672,0.000000,0.000000,0.000000,0.000405,-0.000029,-0.000011,1.873672,1.498016,0.292572,0.000000,0.000000,0.000000,0.000000,-0.000000,0.799990,1.650010,50146.000000,52226.000000,51876.000000,56475.000000,-0.011303,0.000003,-0.000056,0.011303
0.0859,-0.002196,0.817801,1.187086,0.006274,-0.033707,0.006173,0.032570,-0.149483,0.006297,2.348048,-3.319442,0.133620,-0.007854,0.000557,0.998757,0.000000,0.000000,0.000000,0.000405,-0.000029,-0.000011,1.873672,1.498016,0.292572,0.000000,0.000000,0.000000,0.000000,-0.000000,0.799990,1.650010,50152.000000,52221.000000,51847.000000,56501.000000,-0.011303,0.000003,-0.000056,0.011303
0.0878,-0.002196,0.817801,1.187086,0.006274,-0.033707,0.006173,0.032570,-0.149483,0.006297,1.939485,-3.649316,0.076344,-0.009627,0.000507,0.999398,0.000000,0.000000,0.000000,0.000405,-0.000029,-0.000011,1.873672,1.498016,0.292572,0.000000,0.000000,0.000000,0.000000,-0.000000,0.799990,1.650010,50099.000000,52237.000000,51859.000000,56520.000000,-0.011303,0.000003,-0.000056,0.011303
0.0898,-0.002132,0.817464,1.187147,0.006529,-0.033762,0.006010,0.058159,-0.111582,0.006717,1.115099,-3.727477,0.167751,-0.010919,0.000121,0.999657,0.000000,0.000000,0.000000,0.000405,-0.000029,-0.000011,1.873672,1.498016,0.292572,0.000000,0.000000,0.000000,0.000000,-0.000000,0.799990,1.650010,50095.000000,52194.000000,51928.000000,56507.000000,-0.011303,0.000003,-0.000056,0.011303
0.0919,-0.002064,0.817739,1.187071,0.006780,-0.032742,0.005688,0.050904,-0.113365,0.006613,0.621518,-3.279790,0.114308,-0.011624,-0.000152,0.999914,0.000000,0.000000,0.000000,0.000405,-0.000029,-0.000011,1.873672,1.498016,0.292572,0.000000,0.000000,0.000000,0.000000,-0.000000,0.799990,1.650010,50071.000000,52166.000000,51922.000000,56567.000000,-0.011303,0.000003,-0.000056,0.011303
0.0938,-0.002064,0.817739,1.187071,0.006780,-0.032742,0.005688,0.050904,-0.113365,0.006613,0.376819,-3.395969,0.203848,-0.011805,0.000295,0.999649,0.000000,0.000000,0.000000,0.000405,-0.000029,-0.000011,1.873672,1.498016,0.292572,0.000000,0.000000,0.000000,0.000000,-0.000000,0.799990,1.650010,50089.000000,52131.000000,51967.000000,56547.000000,-0.011303,0.000003,-0.000056,0.011303
0.0958,-0.002064,0.817739,1.187071,0.006780,-0.032742,0.005688,0.050904,-0.113365,0.006613,0.060957,-3.657275,0.525364,-0.011935,0.000754,0.999917,0.000000,0.000000,0.000000,0.000405,-0.000029,-0.000011,1.873672,1.498016,0.292572,0.000000,0.000000,0.000000,0.000000,-0.000000,0.799990,1.650010,50182.000000,52021.000000,52100.000000,56460.000000,-0.011303,0.000003,-0.000056,0.011303
0.0977,-0.002064,0.817739,1.187071,0.006780,-0.032742,0.005688,0.050904,-0.113365,0.006613,-0.526922,-3.146249,0.542179,-0.011967,0.001702,0.999829,0.000000,0.000000,0.000000,0.000405,-0.000029,-0.000011,1.873672,1.498016,0.292572,0.000000,0.000000,0.000000,0.000000,-0.000000,0.799990,1.650010,50186.000000,51970.000000,52109.000000,56494.000000,-0.011303,0.000003,-0.000056,0.011303
0.0997,-0.001998,0.817200,1.187062,0.006965,-0.033611,0.005385,0.057898,-0.078021,0.009016,-1.139677,-2.473606,0.376435,-0.012050,0.002558,0.999587,0.000000,0.000000,0.000000,0.000405,-0.000029,-0.000011,1.873672,1.498016,0.292572,0.000000,0.000000,0.000000,0.000000,-0.000000,0.799990,1.650010,50138.000000,51990.000000,52054.000000,56571.000000,-0.011303,0.000003,-0.000056,0.011303
0.1017,-0.001998,0.817200,1.187062,0.006965,-0.033611,0.005385,0.057898,-0.078021,0.009016,-1.721059,-2.544751,0.331562,-0.011898,0.003114,0.999029,0.000000,0.000000,0.000000,0.000405,-0.000029,-0.000011,1.873672,1.498016,0.292572,0.000000,0.000000,0.000000,0.000000,-0.000000,0.799990,1.650010,50093.000000,51984.000000,52067.000000,56601.000000,-0.011303,0.000003,-0.000056,0.011303
0.1037,-0.001998,0.817200,1.187062,0.006965,-0.033611,0.005385,0.057898,-0.078021,0.009016,-2.622328,-2.722785,0.126399,-0.011298,0.003645,0.998457,0.000000,0.000000,0.000000,0.000405,-0.000029,-0.000011,1.873672,1.498016,0.292572,0.000000,0.000000,0.000000,0.000000,-0.000000,0.799990,1.650010,49970.000000,52024.000000,52042.000000,56684.000000,-0.011303,0.000003,-0.000056,0.011303
0.1056,-0.001998,0.817200,1.187062,0.006965,-0.033611,0.005385,0.057898,-0.078021,0.009016,-2.990156,-2.156386,-0.389726,-0.010770,0.003615,0.997997,0.000000,0.000000,0.000000,0.000405,-0.000029,-0.000011,1.873672,1.498016,0.292572,0.000000,0.000000,0.000000,0.000000,-0.000000,0.799990,1.650010,49789.000000,52159.000000,51859.000000,56859.000000,-0.011303,0.000003,-0.000056,0.011303
0.1076,-0.001998,0.817200,1.187062,0.006965,-0.033611,0.005385,0.057898,-0.078021,0.009016,-2.779362,-1.935108,-0.758528,-0.010414,0.003165,0.996478,0.000000,0.000000,0.000000,0.000405,-0.000029,-0.000011,1.873672,1.498016,0.292572,0.000000,0.000000,0.000000,0.000000,-0.000000,0.799990,1.650010,49674.000000,52282.000000,51716.000000,56961.000000,-0.011303,0.000003,-0.000056,0.011303
0.1096,-0.001965,0.816934,1.187056,0.006960,-0.033451,0.005016,0.038661,-0.052705,0.010335,-2.823490,-2.949990,-0.967453,-0.009649,0.002919,0.994526,0.000000,0.000000,0.000000,0.000405,-0.000029,-0.000011,1.873672,1.498016,0.292572,0.000000,0.000000,0.000000,0.000000,-0.000000,0.799990,1.650010,49542.000000,52396.000000,51704.000000,56985.000000,-0.011303,0.000003,-0.000056,0.011303
0.1116,-0.001965,0.816934,1.187056,0.006960,-0.033451,0.005016,0.038661,-0.052705,0.010335,-3.407398,-3.755091,-1.081169,-0.009159,0.002592,0.993124,0.000000,0.000000,0.000000,0.000405,-0.000029,-0.000011,1.873672,1.498016,0.292572,0.000000,0.000000,0.000000,0.000000,-0.000000,0.799990,1.650010,49435.000000,52443.000000,51724.000000,57010.000000,-0.011303,0.000003,-0.000056,0.011303
0.1136,-0.001965,0.816934,1.187056,0.006960,-0.033451,0.005016,0.038661,-0.052705,0.010335,-3.736766,-3.282763,-0.937506,-0.009504,0.001970,0.993001,0.000000,0.000000,0.000000,0.000405,-0.000029,-0.000011,1.873672,1.498016,0.292572,0.000000,0.000000,0.000000,0.000000,-0.000000,0.799990,1.650010,49497.000000,52363.000000,51767.000000,56998.000000,-0.011303,0.000003,-0.000056,0.011303
0.1155,-0.001965,0.816934,1.187056,0.006960,-0.033451,0.005016,0.038661,-0.052705,0.010335,-3.742295,-2.805810,-0.544912,-0.009711,0.001928,0.992378,0.000000,0.000000,0.000000,0.000405,-0.000029,-0.000011,1.873672,1.498016,0.292572,0.000000,0.000000,0.000000,0.000000,-0.000000,0.799990,1.650010,49667.000000,52213.000000,51881.000000,56907.000000,-0.011303,0.000003,-0.000056,0.011303
0.1175,-0.001965,0.816934,1.187056,0.006960,-0.033451,0.005016,0.038661,-0.052705,0.010335,-3.851948,-3.022393,-0.152444,-0.010491,0.002168,0.991623,0.000000,0.000000,0.000000,0.000405,-0.000029,-0.000011,1.873672,1.498016,0.292572,0.000000,0.000000,0.000000,0.000000,-0.000000,0.799990,1.650010,49800.000000,52085.000000,52028.000000,56795.000000,-0.011303,0.000003,-0.000056,0.011303
0.1195,-0.001949,0.816805,1.187050,0.006850,-0.032754,0.004162,0.005197,-0.022665,0.001997,-3.972543,-2.513077,0.119569,-0.011721,0.002313,0.991549,0.000000,0.000000,0.000000,0.000405,-0.000029,-0.000011,1.873672,1.498016,0.292572,0.000000,0.000000,0.000000,0.000000,-0.000000,0.799990,1.650010,49894.000000,51983.000000,52118.000000,56759.000000,-0.011303,0.000003,-0.000056,0.011303
0.1215,-0.001949,0.816805,1.187050,0.006850,-0.032754,0.004162,0.005197,-0.022665,0.001997,-3.932782,-1.270133,0.326551,-0.012778,0.002493,0.991411,0.000000,0.000000,0.000000,0.000405,-0.000029,-0.000011,1.873672,1.498016,0.292572,0.000000,0.000000,0.000000,0.000000,-0.000000,0.799990,1.650010,50030.000000,51863.000000,52134.000000,56744.000000,-0.011303,0.000003,-0.000056,0.011303
0.1235,-0.001949,0.816805,1.187050,0.006850,-0.032754,0.004162,0.005197,-0.022665,0.001997,-4.310192,-0.833256,0.425054,-0.013895,0.002357,0.992333,0.000000,0.000000,0.000000,0.000405,-0.000029,-0.000011,1.873672,1.498016,0.292572,0.000000,0.000000,0.000000,0.000000,-0.000000,0.799990,1.650010,50070.000000,51796.000000,52165.000000,56745.000000,-0.011303,0.000003,-0.000056,0.011303
0.1254,-0.001949,0.816805,1.187050,0.006850,-0.032754,0.004162,0.005197,-0.022665,0.001997,-4.978645,-0.956855,0.410087,-0.014605,0.002168,0.993471,0.000000,0.000000,0.000000,0.000405,-0.000029,-0.000011,1.873672,1.498016,0.292572,0.000000,0.000000,0.000000,0.000000,-0.000000,0.799990,1.650010,50029.000000,51778.000000,52193.000000,56768.000000,-0.011303,0.000003,-0.000056,0.011303
0.1274,-0.001949,0.816805,1.187050,0.006850,-0.032754,0.004162,0.005197,-0.022665,0.001997,-5.159927,-1.020188,-0.025616,-0.015057,0.002093,0.994217,0.000000,0.000000,0.000000,0.000405,-0.000029,-0.000011,1.873672,1.498016,0.292572,0.000000,0.000000,0.000000,0.000000,-0.000000,0.799990,1.650010,49858.000000,51922.000000,52057.000000,56893.000000,-0.011303,0.000003,-0.000056,0.011303
0.1294,-0.001942,0.816746,1.187042,0.006660,-0.031769,0.003204,-0.044640,-0.004873,0.004731,-5.029197,-1.272851,-0.302474,-0.015206,0.001804,0.995125,0.000000,0.000000,0.000000,0.000405,-0.000029,-0.000011,1.873672,1.498016,0.292572,0.000000,0.000000,0.000000,0.000000,-0.000000,0.799990,1.650010,49739.000000,52025.000000,52002.000000,56969.000000,-0.011303,0.000003,-0.000056,0.011303
0.1314,-0.001942,0.816746,1.187042,0.006660,-0.031769,0.003204,-0.044640,-0.004873,0.004731,-4.766358,-1.083712,0.026627,-0.014853,0.001236,0.995574,0.000000,0.000000,0.000000,0.000405,-0.000029,-0.000011,1.873672,1.498016,0.292572,0.000000,0.000000,0.000000,0.000000,-0.000000,0.799990,1.650010,49882.000000,51917.000000,52095.000000,56876.000000,-0.011303,0.000003,-0.000056,0.011303
0.1334,-0.001942,0.816746,1.187042,0.006660,-0.031769,0.003204,-0.044640,-0.004873,0.004731,-4.540175,-0.391493,0.232672,-0.014295,0.001016,0.996063,0.000000,0.000000,0.000000,0.000405,-0.000029,-0.000011,1.873672,1.498016,0.292572,0.000000,0.000000,0.000000,0.000000,-0.000000,0.799990,1.650010,50001.000000,51827.000000,52126.000000,56836.000000,-0.011303,0.000003,-0.000056,0.011303
0.1353,-0.001942,0.816746,1.187042,0.006660,-0.031769,0.003204,-0.044640,-0.004873,0.004731,-4.731317,-0.224517,-0.005777,-0.013616,0.001350,0.995947,0.000000,0.000000,0.000000,0.000405,-0.000029,-0.000011,1.873672,1.498016,0.292572,0.000000,0.000000,0.000000,0.000000,-0.000000,0.799990,1.650010,49912.000000,51894.000000,52047.000000,56915.000000,-0.011303,0.000003,-0.000056,0.011303
0.1373,-0.001942,0.816746,1.187042,0.006660,-0.031769,0.003204,-0.044640,-0.004873,0.004731,-5.187780,-0.077778,-0.158817,-0.012275,0.001744,0.996261,0.000000,0.000000,0.000000,0.000405,-0.000029,-0.000011,1.873672,1.498016,0.292572,0.000000,0.000000,0.000000,0.000000,-0.000000,0.799990,1.650010,49842.000000,51921.000000,52009.000000,56978.000000,-0.011303,0.000003,-0.000056,0.011303
0.1393,-0.001939,0.816208,1.187035,0.006431,-0.032509,0.002603,-0.087276,0.004405,0.004495,-5.493655,0.436409,-0.152525,-0.010534,0.002058,0.997019,0.000000,0.000000,0.000000,0.000405,-0.000029,-0.000011,1.873672,1.498016,0.292572,0.000000,0.000000,0.000000,0.000000,-0.000000,0.799990,1.650010,49852.000000,51890.000000,52014.000000,57009.000000,-0.011303,0.000003,-0.000056,0.011303
0.1413,-0.001939,0.816208,1.187035,0.006431,-0.032509,0.002603,-0.087276,0.004405,0.004495,-5.621801,0.588772,0.096258,-0.009240,0.001050,0.997542,0.000000,0.000000,0.000000,0.000405,-0.000029,-0.000011,1.873672,1.498016,0.292572,0.000000,0.000000,0.000000,0.000000,-0.000000,0.799990,1.650010,49946.000000,51793.000000,52097.000000,56950.000000,-0.011303,0.000003,-0.000056,0.011303
0.1433,-0.001939,0.816208,1.187035,0.006431,-0.032509,0.002603,-0.087276,0.004405,0.004495,-5.218183,0.692445,0.612036,-0.008296,-0.000281,0.997671,0.000000,0.000000,0.000000,0.000405,-0.000029,-0.000011,1.873672,1.498016,0.292572,0.000000,0.000000,0.000000,0.000000,-0.000000,0.799990,1.650010,50159.000000,51629.000000,52250.000000,56799.000000,-0.011303,0.000003,-0.000056,0.011303
0.1452,-0.001939,0.816208,1.187035,0.006431,-0.032509,0.002603,-0.087276,0.004405,0.004495,-5.014721,0.698448,0.824801,-0.007798,-0.001022,0.997156,0.000000,0.000000,0.000000,0.000405,-0.000029,-0.000011,1.873672,1.498016,0.292572,0.000000,0.000000,0.000000,0.000000,-0.000000,0.799990,1.650010,50247.000000,51565.000000,52312.000000,56733.000000,-0.011303,0.000003,-0.000056,0.011303
0.1472,-0.001939,0.816208,1.187035,0.006431,-0.032509,0.002603,-0.087276,0.004405,0.004495,-5.258329,0.828613,0.232100,-0.008158,-0.001479,0.997622,0.000000,0.000000,0.000000,0.000405,-0.000029,-0.000011,1.873672,1.498016,0.292572,0.000000,0.000000,0.000000,0.000000,-0.000000,0.799990,1.650010,50025.000000,51753.000000,52119.000000,56910.000000,-0.011303,0.000003,-0.000056,0.011303
0.1491,-0.001939,0.815944,1.187029,0.006186,-0.032139,0.002196,-0.140397,-0.000754,0.007227,-5.554443,0.938010,-0.743538,-0.009385,-0.001134,0.998213,0.000000,0.000000,0.000000,0.000405,-0.000029,-0.000011,1.873672,1.498016,0.292572,0.000000,0.000000,0.000000,0.000000,-0.000000,0.799990,1.650010,49648.000000,52053.000000,51817.000000,57202.000000,-0.011303,0.000003,-0.000056,0.011303
0.1512,-0.001939,0.815944,1.187029,0.006186,-0.032139,0.002196,-0.140397,-0.000754,0.007227,-5.490444,0.892958,-1.114614,-0.011728,-0.000375,0.998575,0.000000,0.000000,0.000000,0.000405,-0.000029,-0.000011,1.873672,1.498016,0.292572,0.000000,0.000000,0.000000,0.000000,-0.000000,0.799990,1.650010,49510.000000,52182.000000,51690.000000,57299.000000,-0.011303,0.000003,-0.000056,0.011303
0.1531,-0.001939,0.815944,1.187029,0.006186,-0.032139,0.002196,-0.140397,-0.000754,0.007227,-4.712413,1.406393,-0.660758,-0.013779,0.000435,0.998909,0.000000,0.000000,0.000000,0.000405,-0.000029,-0.000011,1.873672,1.498016,0.292572,0.000000,0.000000,0.000000,0.000000,-0.000000,0.799990,1.650010,49741.000000,52041.000000,51790.000000,57168.000000,-0.011303,0.000003,-0.000056,0.011303
0.1551,-0.001939,0.815944,1.187029,0.006186,-0.032139,0.002196,-0.140397,-0.000754,0.007227,-3.964802,2.200841,-0.114926,-0.014516,0.000955,0.998537,0.000000,0.000000,0.000000,0.000405,-0.000029,-0.000011,1.873672,1.498016,0.292572,0.000000,0.000000,0.000000,0.000000,-0.000000,0.799990,1.650010,50014.000000,51854.000000,51912.000000,57021.000000,-0.011303,0.000003,-0.000056,0.011303
0.1570,-0.001939,0.815944,1.187029,0.006186,-0.032139,0.002196,-0.140397,-0.000754,0.007227,-3.526132,2.771842,0.179291,-0.014204,0.001681,0.997977,0.000000,0.000000,0.000000,0.000405,-0.000029,-0.000011,1.873672,1.498016,0.292572,0.000000,0.000000,0.000000,0.000000,-0.000000,0.799990,1.650010,50168.000000,51748.000000,51970.000000,56945.000000,-0.011303,0.000003,-0.000056,0.011303
0.1590,-0.001877,0.815623,1.187050,0.006187,-0.031899,0.002039,-0.189579,-0.014238,0.002199,-3.298752,2.634651,0.280805,-0.012812,0.001973,0.998321,0.000000,0.000000,0.000000,0.000405,-0.000029,-0.000011,1.873672,1.498016,0.292572,0.000000,0.000000,0.000000,0.000000,-0.000000,0.799990,1.650010,50196.000000,51721.000000,52002.000000,56924.000000,-0.011303,0.000003,-0.000056,0.011303
0.1611,-0.001940,0.815817,1.187024,0.005954,-0.031183,0.001925,-0.189579,-0.014238,0.002199,-3.465363,2.253641,0.255488,-0.011829,0.001635,0.998860,0.000000,0.000000,0.000000,0.000405,-0.000029,-0.000011,1.873672,1.498016,0.292572,0.000000,0.000000,0.000000,0.000000,-0.000000,0.799990,1.650010,50156.000000,51737.000000,52024.000000,56928.000000,-0.011303,0.000003,-0.000056,0.011303
0.1630,-0.001940,0.815817,1.187024,0.005954,-0.031183,0.001925,-0.189579,-0.014238,0.002199,-3.234322,2.447210,0.229972,-0.012151,0.001612,0.999702,0.000000,0.000000,0.000000,0.000405,-0.000029,-0.000011,1.873672,1.498016,0.292572,0.000000,0.000000,0.000000,0.000000,-0.000000,0.799990,1.650010,50166.000000,51747.000000,51998.000000,56935.000000,-0.011303,0.000003,-0.000056,0.011303
0.1650,-0.001940,0.815817,1.187024,0.005954,-0.031183,0.001925,-0.189579,-0.014238,0.002199,-2.697393,2.802195,0.056304,-0.013178,0.001989,0.999859,0.000000,0.000000,0.000000,0.000405,-0.000029,-0.000011,1.873672,1.498016,0.292572,0.000000,0.000000,0.000000,0.000000,-0.000000,0.799990,1.650010,50143.000000,51814.000000,51903.000000,56976.000000,-0.011303,0.000003,-0.000056,0.011303
0.1669,-0.001940,0.815817,1.187024,0.005954,-0.031183,0.001925,-0.189579,-0.014238,0.002199,-2.585930,2.560755,-0.181358,-0.014548,0.002367,0.998789,0.000000,0.000000,0.000000,0.000405,-0.000029,-0.000011,1.873672,1.498016,0.292572,0.000000,0.000000,0.000000,0.000000,-0.000000,0.799990,1.650010,50050.000000,51910.000000,51828.000000,57030.000000,-0.011303,0.000003,-0.000056,0.011303
0.1689,-0.001881,0.815507,1.187043,0.005978,-0.030859,0.001827,-0.221479,-0.040036,0.003978,-2.500215,2.472178,-0.079621,-0.015146,0.002636,0.997592,0.000000,0.000000,0.000000,0.000405,-0.000029,-0.000011,1.873672,1.498016,0.292572,0.000000,0.000000,0.000000,0.000000,-0.000000,0.799990,1.650010,50091.000000,51866.000000,51867.000000,57007.000000,-0.011303,0.000003,-0.000056,0.011303
0.1710,-0.001942,0.815760,1.187021,0.005751,-0.029921,0.001732,-0.228123,-0.038431,0.004197,-1.872577,3.197876,0.547049,-0.015381,0.002498,0.997097,0.000000,0.000000,0.000000,0.000405,-0.000029,-0.000011,1.873672,1.498016,0.292572,0.000000,0.000000,0.000000,0.000000,-0.000000,0.799990,1.650010,50372.000000,51642.000000,52034.000000,56845.000000,-0.011303,0.000003,-0.000056,0.011303
0.1729,-0.001942,0.815760,1.187021,0.005751,-0.029921,0.001732,-0.228123,-0.038431,0.004197,-1.186663,3.655127,0.970928,-0.015221,0.001327,0.997311,0.000000,0.000000,0.000000,0.000405,-0.000029,-0.000011,1.873672,1.498016,0.292572,0.000000,0.000000,0.000000,0.000000,-0.000000,0.799990,1.650010,50576.000000,51505.000000,52130.000000,56720.000000,-0.011303,0.000003,-0.000056,0.011303
0.1748,-0.001942,0.815760,1.187021,0.005751,-0.029921,0.001732,-0.228123,-0.038431,0.004197,-1.080845,3.060949,0.977040,-0.014453,0.000531,0.997399,0.000000,0.000000,0.000000,0.000405,-0.000029,-0.000011,1.873672,1.498016,0.292572,0.000000,0.000000,0.000000,0.000000,-0.000000,0.799990,1.650010,50556.000000,51532.000000,52153.000000,56695.000000,-0.011303,0.000003,-0.000056,0.011303
0.1768,-0.001942,0.815760,1.187021,0.005751,-0.029921,0.001732,-0.228123,-0.038431,0.004197,-1.085226,2.333443,0.712783,-0.013712,0.000818,0.997993,0.000000,0.000000,0.000000,0.000405,-0.000029,-0.000011,1.873672,1.498016,0.292572,0.000000,0.000000,0.000000,0.000000,-0.000000,0.799990,1.650010,50428.000000,51654.000000,52095.000000,56745.000000,-0.011303,0.000003,-0.000056,0.011303
0.1788,-0.001944,0.815225,1.187018,0.005596,-0.030412,0.001412,-0.239610,-0.066674,0.009080,-0.604635,2.323331,0.429809,-0.013111,0.001298,0.999156,0.000000,0.000000,0.000000,0.000405,-0.000029,-0.000011,1.873672,1.498016,0.292572,0.000000,0.000000,0.000000,0.000000,-0.000000,0.799990,1.650010,50368.000000,51763.000000,51979.000000,56806.000000,-0.011303,0.000003,-0.000056,0.011303
0.1808,-0.001944,0.815225,1.187018,0.005596,-0.030412,0.001412,-0.239610,-0.066674,0.009080,-0.182790,2.798008,0.069809,-0.012695,0.002725,0.999872,0.000000,0.000000,0.000000,0.000405,-0.000029,-0.000011,1.873672,1.498016,0.292572,0.000000,0.000000,0.000000,0.000000,-0.000000,0.799990,1.650010,50277.000000,51884.000000,51820.000000,56908.000000,-0.011303,0.000003,-0.000056,0.011303
0.1828,-0.001944,0.815225,1.187018,0.005596,-0.030412,0.001412,-0.239610,-0.066674,0.009080,-0.205810,3.244967,0.038603,-0.012313,0.003919,1.001207,0.000000,0.000000,0.000000,0.000405,-0.000029,-0.000011,1.873672,1.498016,0.292572,0.000000,0.000000,0.000000,0.000000,-0.000000,0.799990,1.650010,50285.000000,51874.000000,51792.000000,56933.000000,-0.011303,0.000003,-0.000056,0.011303
0.1847,-0.001944,0.815225,1.187018,0.005596,-0.030412,0.001412,-0.239610,-0.066674,0.009080,0.358613,3.650162,0.789097,-0.012183,0.004682,1.002259,0.000000,0.000000,0.000000,0.000405,-0.000029,-0.000011,1.873672,1.498016,0.292572,0.000000,0.000000,0.000000,0.000000,-0.000000,0.799990,1.650010,50600.000000,51624.000000,52007.000000,56721.000000,-0.011303,0.000003,-0.000056,0.011303
0.1867,-0.001944,0.815225,1.187018,0.005596,-0.030412,0.001412,-0.239610,-0.066674,0.009080,1.922186,3.992220,1.686815,-0.012208,0.005546,1.003126,0.000000,0.000000,0.000000,0.000405,-0.000029,-0.000011,1.873672,1.498016,0.292572,0.000000,0.000000,0.000000,0.000000,-0.000000,0.799990,1.650010,51004.000000,51365.000000,52230.000000,56429.000000,-0.011303,0.000003,-0.000056,0.011303
0.1887,-0.001945,0.814963,1.187016,0.005496,-0.029855,0.001375,-0.241738,-0.096147,0.013413,3.302818,3.857066,1.808014,-0.011884,0.006219,1.003280,0.000000,0.000000,0.000000,0.000405,-0.000029,-0.000011,1.873672,1.498016,0.292572,0.000000,0.000000,0.000000,0.000000,-0.000000,0.799990,1.650010,51114.000000,51373.000000,52220.000000,56345.000000,-0.011303,0.000003,-0.000056,0.011303
0.1907,-0.001945,0.814963,1.187016,0.005496,-0.029855,0.001375,-0.241738,-0.096147,0.013413,3.480705,3.124870,1.291255,-0.011703,0.005807,1.002767,0.000000,0.000000,0.000000,0.000405,-0.000029,-0.000011,1.873672,1.498016,0.292572,0.000000,0.000000,0.000000,0.000000,-0.000000,0.799990,1.650010,50908.000000,51590.000000,52069.000000,56459.000000,-0.011303,0.000003,-0.000056,0.011303
0.1927,-0.001945,0.814963,1.187016,0.005496,-0.029855,0.001375,-0.241738,-0.096147,0.013413,3.101738,2.476714,0.901648,-0.011495,0.004325,1.002231,0.000000,0.000000,0.000000,0.000405,-0.000029,-0.000011,1.873672,1.498016,0.292572,0.000000,0.000000,0.000000,0.000000,-0.000000,0.799990,1.650010,50724.000000,51735.000000,51981.000000,56559.000000,-0.011303,0.000003,-0.000056,0.011303
0.1946,-0.001945,0.814963,1.187016,0.005496,-0.029855,0.001375,-0.241738,-0.096147,0.013413,3.388337,2.363286,0.814261,-0.011364,0.003255,1.001858,0.000000,0.000000,0.000000,0.000405,-0.000029,-0.000011,1.873672,1.498016,0.292572,0.000000,0.000000,0.000000,0.000000,-0.000000,0.799990,1.650010,50701.000000,51782.000000,51945.000000,56571.000000,-0.011303,0.000003,-0.000056,0.011303
0.1966,-0.001945,0.814963,1.187016,0.005496,-0.029855,0.001375,-0.241738,-0.096147,0.013413,4.586736,2.899629,0.787634,-0.011180,0.001999,1.002472,0.000000,0.000000,0.000000,0.000405,-0.000029,-0.000011,1.873672,1.498016,0.292572,0.000000,0.000000,0.000000,0.000000,-0.000000,0.799990,1.650010,50768.000000,51818.000000,51863.000000,56556.000000,-0.011303,0.000003,-0.000056,0.011303
0.1986,-0.001946,0.814838,1.187015,0.005450,-0.028805,0.001561,-0.209951,-0.127221,0.025923,5.617017,3.259544,0.750222,-0.010400,0.001095,1.002983,0.000000,0.000000,0.000000,0.000405,-0.000029,-0.000011,1.873672,1.498016,0.292572,0.000000,0.000000,0.000000,0.000000,-0.000000,0.799990,1.650010,50846.000000,51836.000000,51796.000000,56531.000000,-0.011303,0.000003,-0.000056,0.011303
0.2006,-0.001946,0.814838,1.187015,0.005450,-0.028805,0.001561,-0.209951,-0.127221,0.025923,5.706468,2.706299,0.529874,-0.009530,0.000531,1.002864,0.000000,0.000000,0.000000,0.000405,-0.000029,-0.000011,1.873672,1.498016,0.292572,0.000000,0.000000,0.000000,0.000000,-0.000000,0.799990,1.650010,50747.000000,51937.000000,51741.000000,56572.000000,-0.011303,0.000003,-0.000056,0.011303
0.2026,-0.001946,0.814838,1.187015,0.005450,-0.028805,0.001561,-0.209951,-0.127221,0.025923,5.478994,1.817882,0.404302,-0.008849,0.000153,1.003359,0.000000,0.000000,0.000000,0.000405,-0.000029,-0.000011,1.873672,1.498016,0.292572,0.000000,0.000000,0.000000,0.000000,-0.000000,0.799990,1.650010,50653.000000,52007.000000,51745.000000,56584.000000,-0.011303,0.000003,-0.000056,0.011303
0.2045,-0.001946,0.814838,1.187015,0.005450,-0.028805,0.001561,-0.209951,-0.127221,0.025923,5.711578,1.409022,0.457511,-0.008735,-0.000396,1.003153,0.000000,0.000000,0.000000,0.000405,-0.000029,-0.000011,1.873672,1.498016,0.292572,0.000000,0.000000,0.000000,0.000000,-0.000000,0.799990,1.650010,50665.000000,52015.000000,51772.000000,56548.000000,-0.011303,0.000003,-0.000056,0.011303
0.2065,-0.001946,0.814838,1.187015,0.005450,-0.028805,0.001561,-0.209951,-0.127221,0.025923,6.687642,1.348661,0.398593,-0.009264,-0.000628,1.002709,0.000000,0.000000,0.000000,0.000405,-0.000029,-0.000011,1.873672,1.498016,0.292572,0.000000,0.000000,0.000000,0.000000,-0.000000,0.799990,1.650010,50685.000000,52077.000000,51713.000000,56529.000000,-0.011303,0.000003,-0.000056,0.011303
0.2085,-0.001947,0.814782,1.186499,0.005460,-0.027592,-0.000415,-0.160699,-0.149272,0.031674,7.722514,1.297275,0.252182,-0.009561,-0.000348,1.002220,0.000000,0.000000,0.000000,0.000405,-0.000029,-0.000011,1.873672,1.498016,0.292572,0.000000,0.000000,0.000000,0.000000,-0.000000,0.799990,1.650010,50723.000000,52188.000000,51639.000000,56544.000000,-0.011303,0.000003,-0.000056,0.011303
0.2105,-0.001947,0.814782,1.186499,0.005460,-0.027592,-0.000415,-0.160699,-0.149272,0.031674,7.931472,1.029485,0.048936,-0.009476,0.000624,1.002004,0.000000,0.000000,0.000000,0.000405,-0.000029,-0.000011,1.873672,1.498016,0.292572,0.000000,0.000000,0.000000,0.000000,-0.000000,0.799990,1.650010,50648.000000,52275.000000,51572.000000,56585.000000,-0.011303,0.000003,-0.000056,0.011303
0.2125,-0.001947,0.814782,1.186499,0.005460,-0.027592,-0.000415,-0.160699,-0.149272,0.031674,7.531088,0.679854,-0.032524,-0.009664,0.001630,1.002459,0.000000,0.000000,0.000000,0.000405,-0.000029,-0.000011,1.873672,1.498016,0.292572,0.000000,0.000000,0.000000,0.000000,-0.000000,0.799990,1.650010,50587.000000,52299.000000,51576.000000,56610.000000,-0.011303,0.000003,-0.000056,0.011303
0.2144,-0.001947,0.814782,1.186499,0.005460,-0.027592,-0.000415,-0.160699,-0.149272,0.031674,7.711602,0.677650,0.045708,-0.009723,0.002068,1.002531,0.000000,0.000000,0.000000,0.000405,-0.000029,-0.000011,1.873672,1.498016,0.292572,0.000000,0.000000,0.000000,0.000000,-0.000000,0.799990,1.650010,50623.000000,52280.000000,51596.000000,56582.000000,-0.011303,0.000003,-0.000056,0.011303
0.2164,-0.001947,0.814782,1.186499,0.005460,-0.027592,-0.000415,-0.160699,-0.149272,0.031674,8.683905,0.958400,0.101711,-0.010090,0.002736,1.002933,0.000000,0.000000,0.000000,0.000405,-0.000029,-0.000011,1.873672,1.498016,0.292572,0.000000,0.000000,0.000000,0.000000,-0.000000,0.799990,1.650010,50700.000000,52289.000000,51562.000000,56543.000000,-0.011303,0.000003,-0.000056,0.011303
0.2184,-0.001947,0.814247,1.186240,0.005509,-0.028282,-0.001274,-0.077686,-0.157662,0.033031,9.061217,0.639496,0.054212,-0.010812,0.002832,1.003824,0.000000,0.000000,0.000000,0.000405,-0.000029,-0.000011,1.873672,1.498016,0.292572,0.000000,0.000000,0.000000,0.000000,-0.000000,0.799990,1.650010,50731.000000,52367.000000,51525.000000,56518.000000,-0.011303,0.000003,-0.000056,0.011303
0.2204,-0.001947,0.814247,1.186240,0.005509,-0.028282,-0.001274,-0.077686,-0.157662,0.033031,8.624455,-0.238033,0.073959,-0.011359,0.002686,1.004562,0.000000,0.000000,0.000000,0.000405,-0.000029,-0.000011,1.873672,1.498016,0.292572,0.000000,0.000000,0.000000,0.000000,-0.000000,0.799990,1.650010,50681.000000,52378.000000,51587.000000,56498.000000,-0.011303,0.000003,-0.000056,0.011303
0.2224,-0.001947,0.814247,1.186240,0.005509,-0.028282,-0.001274,-0.077686,-0.157662,0.033031,8.758490,-0.539206,0.299319,-0.011708,0.002715,1.005269,0.000000,0.000000,0.000000,0.000405,-0.000029,-0.000011,1.873672,1.498016,0.292572,0.000000,0.000000,0.000000,0.000000,-0.000000,0.799990,1.650010,50755.000000,52320.000000,51672.000000,56420.000000,-0.011303,0.000003,-0.000056,0.011303
0.2243,-0.001947,0.814247,1.186240,0.005509,-0.028282,-0.001274,-0.077686,-0.157662,0.033031,9.647627,-0.211758,0.525191,-0.012128,0.002729,1.005174,0.000000,0.000000,0.000000,0.000405,-0.000029,-0.000011,1.873672,1.498016,0.292572,0.000000,0.000000,0.000000,0.000000,-0.000000,0.799990,1.650010,50890.000000,52267.000000,51698.000000,56337.000000,-0.011303,0.000003,-0.000056,0.011303
0.2263,-0.001947,0.814247,1.186240,0.005509,-0.028282,-0.001274,-0.077686,-0.157662,0.033031,10.038459,-0.276230,0.538390,-0.012428,0.003313,1.005042,0.000000,0.000000,0.000000,0.000405,-0.000029,-0.000011,1.873672,1.498016,0.292572,0.000000,0.000000,0.000000,0.000000,-0.000000,0.799990,1.650010,50910.000000,52281.000000,51689.000000,56318.000000,-0.011303,0.000003,-0.000056,0.011303
0.2282,-0.001947,0.813983,1.186111,0.005572,-0.028082,-0.001340,0.012698,-0.158355,0.035368,9.542441,-1.099338,0.554893,-0.011920,0.003435,1.004804,0.000000,0.000000,0.000000,0.000405,-0.000029,-0.000011,1.873672,1.498016,0.292572,0.000000,0.000000,0.000000,0.000000,-0.000000,0.799990,1.650010,50890.000000,52311.000000,51731.000000,56281.000000,-0.011303,0.000003,-0.000056,0.011303
0.2303,-0.001947,0.813983,1.186111,0.005572,-0.028082,-0.001340,0.012698,-0.158355,0.035368,9.155236,-1.654272,0.689809,-0.011170,0.003477,1.004901,0.000000,0.000000,0.000000,0.000405,-0.000029,-0.000011,1.873672,1.498016,0.292572,0.000000,0.000000,0.000000,0.000000,-0.000000,0.799990,1.650010,50898.000000,52273.000000,51817.000000,56238.000000,-0.011303,0.000003,-0.000056,0.011303
0.2323,-0.001947,0.813983,1.186111,0.005572,-0.028082,-0.001340,0.012698,-0.158355,0.035368,9.633546,-1.215014,0.856504,-0.010224,0.003405,1.005239,0.000000,0.000000,0.000000,0.000405,-0.000029,-0.000011,1.873672,1.498016,0.292572,0.000000,0.000000,0.000000,0.000000,-0.000000,0.799990,1.650010,50999.000000,52218.000000,51835.000000,56189.000000,-0.011303,0.000003,-0.000056,0.011303
0.2342,-0.001947,0.813983,1.186111,0.005572,-0.028082,-0.001340,0.012698,-0.158355,0.035368,10.312622,-0.753593,0.926886,-0.008387,0.002809,1.004745,0.000000,0.000000,0.000000,0.000405,-0.000029,-0.000011,1.873672,1.498016,0.292572,0.000000,0.000000,0.000000,0.000000,-0.000000,0.799990,1.650010,51075.000000,52203.000000,51810.000000,56161.000000,-0.011303,0.000003,-0.000056,0.011303
0.2362,-0.001947,0.813983,1.186111,0.005572,-0.028082,-0.001340,0.012698,-0.158355,0.035368,10.104544,-1.369427,0.764958,-0.006959,0.002167,1.004257,0.000000,0.000000,0.000000,0.000405,-0.000029,-0.000011,1.873672,1.498016,0.292572,0.000000,0.000000,0.000000,0.000000,-0.000000,0.799990,1.650010,50983.000000,52274.000000,51790.000000,56193.000000,-0.011303,0.000003,-0.000056,0.011303
0.2381,-0.001946,0.813855,1.186048,0.005634,-0.027537,-0.001080,0.110187,-0.147869,0.042628,9.265638,-2.250297,0.534712,-0.006316,0.001379,1.003731,0.000000,0.000000,0.000000,0.000405,-0.000029,-0.000011,1.873672,1.498016,0.292572,0.000000,0.000000,0.000000,0.000000,-0.000000,0.799990,1.650010,50857.000000,52366.000000,51771.000000,56226.000000,-0.011303,0.000003,-0.000056,0.011303
0.2402,-0.001946,0.813855,1.186048,0.005634,-0.027537,-0.001080,0.110187,-0.147869,0.042628,8.674413,-2.654735,0.214000,-0.006349,0.000446,1.003296,0.000000,0.000000,0.000000,0.000405,-0.000029,-0.000011,1.873672,1.498016,0.292572,0.000000,0.000000,0.000000,0.000000,-0.000000,0.799990,1.650010,50700.000000,52465.000000,51703.000000,56323.000000,-0.011303,0.000003,-0.000056,0.011303
0.2421,-0.001946,0.813855,1.186048,0.005634,-0.027537,-0.001080,0.110187,-0.147869,0.042628,8.595303,-2.962291,-0.128333,-0.006652,-0.000284,1.003612,0.000000,0.000000,0.000000,0.000405,-0.000029,-0.000011,1.873672,1.498016,0.292572,0.000000,0.000000,0.000000,0.000000,-0.000000,0.799990,1.650010,50562.000000,52588.000000,51602.000000,56411.000000,-0.011303,0.000003,-0.000056,0.011303
0.2441,-0.001946,0.813855,1.186048,0.005634,-0.027537,-0.001080,0.110187,-0.147869,0.042628,8.468914,-3.060084,-0.175518,-0.006800,-0.000975,1.003561,0.000000,0.000000,0.000000,0.000405,-0.000029,-0.000011,1.873672,1.498016,0.292572,0.000000,0.000000,0.000000,0.000000,-0.000000,0.799990,1.650010,50536.000000,52602.000000,51595.000000,56425.000000,-0.011303,0.000003,-0.000056,0.011303
0.2460,-0.001946,0.813855,1.186048,0.005634,-0.027537,-0.001080,0.110187,-0.147869,0.042628,8.254588,-2.880091,-0.160926,-0.007047,-0.000984,1.003120,0.000000,0.000000,0.000000,0.000405,-0.000029,-0.000011,1.873672,1.498016,0.292572,0.000000,0.000000,0.000000,0.000000,-0.000000,0.799990,1.650010,50542.000000,52581.000000,51601.000000,56435.000000,-0.011303,0.000003,-0.000056,0.011303
0.2480,-0.001946,0.813795,1.186019,0.005677,-0.026926,-0.000813,0.199416,-0.122366,0.044486,7.903984,-2.876878,-0.294592,-0.007338,-0.000621,1.002570,0.000000,0.000000,0.000000,0.000405,-0.000029,-0.000011,1.873672,1.498016,0.292572,0.000000,0.000000,0.000000,0.000000,-0.000000,0.799990,1.650010,50495.000000,52632.000000,51556.000000,56459.000000,-0.011303,0.000003,-0.000056,0.011303
0.2501,-0.001946,0.813795,1.186019,0.005677,-0.026926,-0.000813,0.199416,-0.122366,0.044486,7.189872,-3.300550,-0.329143,-0.007759,0.000373,1.002830,0.000000,0.000000,0.000000,0.000405,-0.000029,-0.000011,1.873672,1.498016,0.292572,0.000000,0.000000,0.000000,0.000000,-0.000000,0.799990,1.650010,50433.000000,52631.000000,51592.000000,56478.000000,-0.011303,0.000003,-0.000056,0.011303
0.2520,-0.001946,0.813795,1.186019,0.005677,-0.026926,-0.000813,0.199416,-0.122366,0.044486,6.656357,-3.806614,-0.248703,-0.008167,0.001617,1.002463,0.000000,0.000000,0.000000,0.000405,-0.000029,-0.000011,1.873672,1.498016,0.292572,0.000000,0.000000,0.000000,0.000000,-0.000000,0.799990,1.650010,50418.000000,52604.000000,51664.000000,56456.000000,-0.011303,0.000003,-0.000056,0.011303
0.2539,-0.001946,0.813795,1.186019,0.005677,-0.026926,-0.000813,0.199416,-0.122366,0.044486,6.124943,-4.475418,-0.290546,-0.007866,0.002940,1.001323,0.000000,0.000000,0.000000,0.000405,-0.000029,-0.000011,1.873672,1.498016,0.292572,0.000000,0.000000,0.000000,0.000000,-0.000000,0.799990,1.650010,50350.000000,52623.000000,51700.000000,56463.000000,-0.011303,0.000003,-0.000056,0.011303
0.2559,-0.001946,0.813795,1.186019,0.005677,-0.026926,-0.000813,0.199416,-0.122366,0.044486,5.492446,-4.889051,-0.426507,-0.007208,0.003653,1.000413,0.000000,0.000000,0.000000,0.000405,-0.000029,-0.000011,1.873672,1.498016,0.292572,0.000000,0.000000,0.000000,0.000000,-0.000000,0.799990,1.650010,50255.000000,52659.000000,51697.000000,56508.000000,-0.011303,0.000003,-0.000056,0.011303
0.2579,-0.001888,0.813524,1.186012,0.005887,-0.027268,-0.000587,0.270304,-0.086712,0.041546,5.327622,-4.614679,-0.396559,-0.006049,0.003254,0.999803,0.000000,0.000000,0.000000,0.000405,-0.000029,-0.000011,1.873672,1.498016,0.292572,0.000000,0.000000,0.000000,0.000000,-0.000000,0.799990,1.650010,50281.000000,52662.000000,51682.000000,56492.000000,-0.011303,0.000003,-0.000056,0.011303
0.2599,-0.001432,0.813255,1.186006,0.007576,-0.028266,-0.000613,0.277326,-0.098596,0.040700,4.969090,-4.174490,-0.226154,-0.005146,0.002798,0.998983,0.000000,0.000000,0.000000,0.000405,-0.000029,-0.000011,1.873672,1.498016,0.292572,0.000000,0.000000,0.000000,0.000000,-0.000000,0.799990,1.650010,50372.000000,52569.000000,51712.000000,56477.000000,-0.011303,0.000003,-0.000056,0.011303
0.2619,-0.001432,0.813255,1.186006,0.007576,-0.028266,-0.000613,0.277326,-0.098596,0.040700,4.696085,-3.773661,-0.178415,-0.004504,0.002330,0.999210,0.000000,0.000000,0.000000,0.000405,-0.000029,-0.000011,1.873672,1.498016,0.292572,0.000000,0.000000,0.000000,0.000000,-0.000000,0.799990,1.650010,50397.000000,52526.000000,51723.000000,56487.000000,-0.011303,0.000003,-0.000056,0.011303
0.2638,-0.001432,0.813255,1.186006,0.007576,-0.028266,-0.000613,0.277326,-0.098596,0.040700,4.279621,-4.090863,-0.206093,-0.003588,0.001598,0.999356,0.000000,0.000000,0.000000,0.000405,-0.000029,-0.000011,1.873672,1.498016,0.292572,0.000000,0.000000,0.000000,0.000000,-0.000000,0.799990,1.650010,50355.000000,52531.000000,51744.000000,56497.000000,-0.011303,0.000003,-0.000056,0.011303
0.2658,-0.001432,0.813255,1.186006,0.007576,-0.028266,-0.000613,0.277326,-0.098596,0.040700,3.797445,-4.371588,-0.109092,-0.003398,0.001084,0.999700,0.000000,0.000000,0.000000,0.000405,-0.000029,-0.000011,1.873672,1.498016,0.292572,0.000000,0.000000,0.000000,0.000000,-0.000000,0.799990,1.650010,50358.000000,52491.000000,51808.000000,56476.000000,-0.011303,0.000003,-0.000056,0.011303
0.2678,-0.001173,0.812985,1.186000,0.008420,-0.028683,-0.000660,0.326000,-0.055781,0.037753,3.230975,-4.498578,-0.285702,-0.003559,0.000038,0.999890,0.000000,0.000000,0.000000,0.000405,-0.000029,-0.000011,1.873672,1.498016,0.292572,0.000000,0.000000,0.000000,0.000000,-0.000000,0.799990,1.650010,50273.000000,52557.000000,51761.000000,56527.000000,-0.011303,0.000003,-0.000056,0.011303
0.2698,-0.001173,0.812985,1.186000,0.008420,-0.028683,-0.000660,0.326000,-0.055781,0.037753,2.374825,-4.738571,-0.561438,-0.002936,-0.000567,0.999837,0.000000,0.000000,0.000000,0.000405,-0.000029,-0.000011,1.873672,1.498016,0.292572,0.000000,0.000000,0.000000,0.000000,-0.000000,0.799990,1.650010,50124.000000,52623.000000,51713.000000,56624.000000,-0.011303,0.000003,-0.000056,0.011303
0.2718,-0.001173,0.812985,1.186000,0.008420,-0.028683,-0.000660,0.326000,-0.055781,0.037753,1.713941,-4.899804,-0.738808,-0.002436,-0.000742,0.998959,0.000000,0.000000,0.000000,0.000405,-0.000029,-0.000011,1.873672,1.498016,0.292572,0.000000,0.000000,0.000000,0.000000,-0.000000,0.799990,1.650010,50024.000000,52662.000000,51685.000000,56690.000000,-0.011303,0.000003,-0.000056,0.011303
0.2737,-0.001173,0.812985,1.186000,0.008420,-0.028683,-0.000660,0.326000,-0.055781,0.037753,1.007492,-5.402721,-0.731338,-0.002169,-0.001313,0.997712,0.000000,0.000000,0.000000,0.000405,-0.000029,-0.000011,1.873672,1.498016,0.292572,0.000000,0.000000,0.000000,0.000000,-0.000000,0.799990,1.650010,49973.000000,52651.000000,51738.000000,56694.000000,-0.011303,0.000003,-0.000056,0.011303
0.2757,-0.001173,0.812985,1.186000,0.008420,-0.028683,-0.000660,0.326000,-0.055781,0.037753,0.322519,-5.507583,-0.598675,-0.002566,-0.002594,0.997190,0.000000,0.000000,0.000000,0.000405,-0.000029,-0.000011,1.873672,1.498016,0.292572,0.000000,0.000000,0.000000,0.000000,-0.000000,0.799990,1.650010,49988.000000,52584.000000,51817.000000,56677.000000,-0.011303,0.000003,-0.000056,0.011303
0.2777,-0.001043,0.812852,1.185996,0.008683,-0.028661,-0.000737,0.348538,-0.007387,0.032357,-0.285888,-5.298158,-0.478797,-0.003520,-0.004129,0.997821,0.000000,0.000000,0.000000,0.000405,-0.000029,-0.000011,1.873672,1.498016,0.292572,0.000000,0.000000,0.000000,0.000000,-0.000000,0.799990,1.650010,50005.000000,52536.000000,51870.000000,56663.000000,-0.011303,0.000003,-0.000056,0.011303
0.2797,-0.001043,0.812852,1.185996,0.008683,-0.028661,-0.000737,0.348538,-0.007387,0.032357,-0.775617,-4.941725,-0.267853,-0.004268,-0.005220,0.999010,0.000000,0.000000,0.000000,0.000405,-0.000029,-0.000011,1.873672,1.498016,0.292572,0.000000,0.000000,0.000000,0.000000,-0.000000,0.799990,1.650010,50079.000000,52432.000000,51947.000000,56633.000000,-0.011303,0.000003,-0.000056,0.011303
0.2817,-0.001043,0.812852,1.185996,0.008683,-0.028661,-0.000737,0.348538,-0.007387,0.032357,-1.200014,-4.405948,-0.173955,-0.005080,-0.005148,1.001609,0.000000,0.000000,0.000000,0.000405,-0.000029,-0.000011,1.873672,1.498016,0.292572,0.000000,0.000000,0.000000,0.000000,-0.000000,0.799990,1.650010,50120.000000,52361.000000,51973.000000,56639.000000,-0.011303,0.000003,-0.000056,0.011303
0.2836,-0.001043,0.812852,1.185996,0.008683,-0.028661,-0.000737,0.348538,-0.007387,0.032357,-1.511929,-3.987057,-0.099931,-0.006147,-0.004144,1.004187,0.000000,0.000000,0.000000,0.000405,-0.000029,-0.000011,1.873672,1.498016,0.292572,0.000000,0.000000,0.000000,0.000000,-0.000000,0.799990,1.650010,50154.000000,52307.000000,51993.000000,56643.000000,-0.011303,0.000003,-0.000056,0.011303
0.2856,-0.001043,0.812852,1.185996,0.008683,-0.028661,-0.000737,0.348538,-0.007387,0.032357,-1.910034,-3.695225,-0.120609,-0.007227,-0.003227,1.006050,0.000000,0.000000,0.000000,0.000405,-0.000029,-0.000011,1.873672,1.498016,0.292572,0.000000,0.000000,0.000000,0.000000,-0.000000,0.799990,1.650010,50143.000000,52286.000000,51989.000000,56672.000000,-0.011303,0.000003,-0.000056,0.011303
0.2876,-0.000956,0.812563,1.185989,0.008696,-0.029258,-0.000700,0.340486,0.039976,0.029124,-2.094575,-3.529682,-0.326587,-0.007549,-0.002736,1.005685,0.000000,0.000000,0.000000,0.000405,-0.000029,-0.000011,1.873672,1.498016,0.292572,0.000000,0.000000,0.000000,0.000000,-0.000000,0.799990,1.650010,50054.000000,52359.000000,51923.000000,56732.000000,-0.011303,0.000003,-0.000056,0.011303
0.2896,-0.000979,0.812787,1.185995,0.008612,-0.028427,-0.000677,0.334643,0.040564,0.029303,-2.455957,-3.876159,-0.491181,-0.007376,-0.002401,1.004974,0.000000,0.000000,0.000000,0.000405,-0.000029,-0.000011,1.873672,1.498016,0.292572,0.000000,0.000000,0.000000,0.000000,-0.000000,0.799990,1.650010,49955.000000,52407.000000,51904.000000,56782.000000,-0.011303,0.000003,-0.000056,0.011303
0.2916,-0.000979,0.812787,1.185995,0.008612,-0.028427,-0.000677,0.334643,0.040564,0.029303,-3.294127,-4.085746,-0.844640,-0.007536,-0.002690,1.003977,0.000000,0.000000,0.000000,0.000405,-0.000029,-0.000011,1.873672,1.498016,0.292572,0.000000,0.000000,0.000000,0.000000,-0.000000,0.799990,1.650010,49777.000000,52499.000000,51827.000000,56900.000000,-0.011303,0.000003,-0.000056,0.011303
0.2935,-0.000979,0.812787,1.185995,0.008612,-0.028427,-0.000677,0.334643,0.040564,0.029303,-4.252190,-4.078654,-1.092892,-0.006902,-0.002564,1.002393,0.000000,0.000000,0.000000,0.000405,-0.000029,-0.000011,1.873672,1.498016,0.292572,0.000000,0.000000,0.000000,0.000000,-0.000000,0.799990,1.650010,49642.000000,52542.000000,51781.000000,57001.000000,-0.011303,0.000003,-0.000056,0.011303
0.2955,-0.000979,0.812787,1.185995,0.008612,-0.028427,-0.000677,0.334643,0.040564,0.029303,-5.417591,-4.238384,-1.024700,-0.005934,-0.002008,1.001594,0.000000,0.000000,0.000000,0.000405,-0.000029,-0.000011,1.873672,1.498016,0.292572,0.000000,0.000000,0.000000,0.000000,-0.000000,0.799990,1.650010,49608.000000,52479.000000,51860.000000,57015.000000,-0.011303,0.000003,-0.000056,0.011303
0.2975,-0.000948,0.812243,1.185479,0.008338,-0.029952,-0.002422,0.311685,0.080703,0.022742,-6.175337,-3.874157,-0.929010,-0.005181,-0.001979,1.001373,0.000000,0.000000,0.000000,0.000405,-0.000029,-0.000011,1.873672,1.498016,0.292572,0.000000,0.000000,0.000000,0.000000,-0.000000,0.799990,1.650010,49634.000000,52447.000000,51927.000000,57037.000000,-0.011303,0.000003,-0.000056,0.011303
0.2995,-0.000948,0.812243,1.185479,0.008338,-0.029952,-0.002422,0.311685,0.080703,0.022742,-6.437306,-3.540062,-0.697695,-0.005186,-0.002192,1.001706,0.000000,0.000000,0.000000,0.000405,-0.000029,-0.000011,1.873672,1.498016,0.292572,0.000000,0.000000,0.000000,0.000000,-0.000000,0.799990,1.650010,49725.000000,52346.000000,52001.000000,56993.000000,-0.011303,0.000003,-0.000056,0.011303
0.3015,-0.000948,0.812243,1.185479,0.008338,-0.029952,-0.002422,0.311685,0.080703,0.022742,-6.436059,-3.059500,-0.314341,-0.006326,-0.002299,1.001896,0.000000,0.000000,0.000000,0.000405,-0.000029,-0.000011,1.873672,1.498016,0.292572,0.000000,0.000000,0.000000,0.000000,-0.000000,0.799990,1.650010,49892.000000,52199.000000,52109.000000,56903.000000,-0.011303,0.000003,-0.000056,0.011303
0.3034,-0.000948,0.812243,1.185479,0.008338,-0.029952,-0.002422,0.311685,0.080703,0.022742,-6.075271,-2.350273,-0.091850,-0.007440,-0.002322,1.002378,0.000000,0.000000,0.000000,0.000405,-0.000029,-0.000011,1.873672,1.498016,0.292572,0.000000,0.000000,0.000000,0.000000,-0.000000,0.799990,1.650010,50024.000000,52111.000000,52139.000000,56852.000000,-0.011303,0.000003,-0.000056,0.011303
0.3054,-0.000974,0.812122,1.185239,0.008288,-0.030183,-0.002948,0.311685,0.080703,0.022742,-6.069493,-2.276665,0.086965,-0.008660,-0.001678,1.003620,0.000000,0.000000,0.000000,0.000405,-0.000029,-0.000011,1.873672,1.498016,0.292572,0.000000,0.000000,0.000000,0.000000,-0.000000,0.799990,1.650010,50104.000000,52058.000000,52201.000000,56809.000000,-0.011303,0.000003,-0.000056,0.011303
0.3073,-0.000892,0.811817,1.185211,0.008150,-0.030718,-0.002765,0.250160,0.113785,0.017008,-6.196178,-2.320310,0.230696,-0.009135,-0.000294,1.004160,0.000000,0.000000,0.000000,0.000405,-0.000029,-0.000011,1.873672,1.498016,0.292572,0.000000,0.000000,0.000000,0.000000,-0.000000,0.799990,1.650010,50121.000000,52011.000000,52266.000000,56778.000000,-0.011303,0.000003,-0.000056,0.011303
0.3094,-0.000892,0.811817,1.185211,0.008150,-0.030718,-0.002765,0.250160,0.113785,0.017008,-6.582046,-2.376235,0.176244,-0.009249,0.000689,1.004529,0.000000,0.000000,0.000000,0.000405,-0.000029,-0.000011,1.873672,1.498016,0.292572,0.000000,0.000000,0.000000,0.000000,-0.000000,0.799990,1.650010,50082.000000,52017.000000,52265.000000,56804.000000,-0.011303,0.000003,-0.000056,0.011303
0.3113,-0.000892,0.811817,1.185211,0.008150,-0.030718,-0.002765,0.250160,0.113785,0.017008,-7.180131,-2.372215,-0.026901,-0.008838,0.001253,1.005220,0.000000,0.000000,0.000000,0.000405,-0.000029,-0.000011,1.873672,1.498016,0.292572,0.000000,0.000000,0.000000,0.000000,-0.000000,0.799990,1.650010,49982.000000,52061.000000,52221.000000,56880.000000,-0.011303,0.000003,-0.000056,0.011303
0.3133,-0.000892,0.811817,1.185211,0.008150,-0.030718,-0.002765,0.250160,0.113785,0.017008,-7.929896,-2.304229,-0.279479,-0.008437,0.001799,1.006112,0.000000,0.000000,0.000000,0.000405,-0.000029,-0.000011,1.873672,1.498016,0.292572,0.000000,0.000000,0.000000,0.000000,-0.000000,0.799990,1.650010,49858.000000,52113.000000,52164.000000,56976.000000,-0.011303,0.000003,-0.000056,0.011303
0.3153,-0.000892,0.811817,1.185211,0.008150,-0.030718,-0.002765,0.250160,0.113785,0.017008,-8.745805,-2.270841,-0.414240,-0.008779,0.002216,1.007514,0.000000,0.000000,0.000000,0.000405,-0.000029,-0.000011,1.873672,1.498016,0.292572,0.000000,0.000000,0.000000,0.000000,-0.000000,0.799990,1.650010,49773.000000,52124.000000,52151.000000,57041.000000,-0.011303,0.000003,-0.000056,0.011303
0.3172,-0.000911,0.811767,1.185087,0.007508,-0.029983,-0.002791,0.172826,0.140225,0.017387,-9.170572,-2.127387,-0.489726,-0.008787,0.002127,1.007736,0.000000,0.000000,0.000000,0.000405,-0.000029,-0.000011,1.873672,1.498016,0.292572,0.000000,0.000000,0.000000,0.000000,-0.000000,0.799990,1.650010,49700.000000,52115.000000,52172.000000,57092.000000,-0.011303,0.000003,-0.000056,0.011303
0.3193,-0.000911,0.811767,1.185087,0.007508,-0.029983,-0.002791,0.172826,0.140225,0.017387,-9.070510,-1.704586,-0.219225,-0.008085,0.001534,1.007143,0.000000,0.000000,0.000000,0.000405,-0.000029,-0.000011,1.873672,1.498016,0.292572,0.000000,0.000000,0.000000,0.000000,-0.000000,0.799990,1.650010,49826.000000,52011.000000,52240.000000,57028.000000,-0.011303,0.000003,-0.000056,0.011303
0.3212,-0.000911,0.811767,1.185087,0.007508,-0.029983,-0.002791,0.172826,0.140225,0.017387,-8.708196,-0.964444,0.274901,-0.007095,0.000729,1.006404,0.000000,0.000000,0.000000,0.000405,-0.000029,-0.000011,1.873672,1.498016,0.292572,0.000000,0.000000,0.000000,0.000000,-0.000000,0.799990,1.650010,50060.000000,51828.000000,52360.000000,56904.000000,-0.011303,0.000003,-0.000056,0.011303
0.3232,-0.000911,0.811767,1.185087,0.007508,-0.029983,-0.002791,0.172826,0.140225,0.017387,-8.674674,-0.762406,0.292442,-0.005818,0.000180,1.005571,0.000000,0.000000,0.000000,0.000405,-0.000029,-0.000011,1.873672,1.498016,0.292572,0.000000,0.000000,0.000000,0.000000,-0.000000,0.799990,1.650010,50078.000000,51816.000000,52355.000000,56905.000000,-0.011303,0.000003,-0.000056,0.011303
0.3251,-0.000911,0.811767,1.185087,0.007508,-0.029983,-0.002791,0.172826,0.140225,0.017387,-9.168271,-0.835603,-0.463401,-0.004591,-0.000369,1.005033,0.000000,0.000000,0.000000,0.000405,-0.000029,-0.000011,1.873672,1.498016,0.292572,0.000000,0.000000,0.000000,0.000000,-0.000000,0.799990,1.650010,49774.000000,52055.000000,52125.000000,57126.000000,-0.011303,0.000003,-0.000056,0.011303
0.3271,-0.000921,0.811742,1.185030,0.006919,-0.029145,-0.002281,0.075944,0.157573,0.016563,-9.878308,-0.859238,-1.118263,-0.003628,-0.000368,1.004659,0.000000,0.000000,0.000000,0.000405,-0.000029,-0.000011,1.873672,1.498016,0.292572,0.000000,0.000000,0.000000,0.000000,-0.000000,0.799990,1.650010,49451.000000,52224.000000,51966.000000,57341.000000,-0.011303,0.000003,-0.000056,0.011303
0.3291,-0.000921,0.811742,1.185030,0.006919,-0.029145,-0.002281,0.075944,0.157573,0.016563,-10.205183,-0.621636,-0.904578,-0.002920,0.000567,1.003755,0.000000,0.000000,0.000000,0.000405,-0.000029,-0.000011,1.873672,1.498016,0.292572,0.000000,0.000000,0.000000,0.000000,-0.000000,0.799990,1.650010,49528.000000,52130.000000,52041.000000,57302.000000,-0.011303,0.000003,-0.000056,0.011303
0.3311,-0.000921,0.811742,1.185030,0.006919,-0.029145,-0.002281,0.075944,0.157573,0.016563,-9.893053,-0.437501,-0.379978,-0.003059,0.001622,1.002752,0.000000,0.000000,0.000000,0.000405,-0.000029,-0.000011,1.873672,1.498016,0.292572,0.000000,0.000000,0.000000,0.000000,-0.000000,0.799990,1.650010,49750.000000,51960.000000,52199.000000,57156.000000,-0.011303,0.000003,-0.000056,0.011303
0.3330,-0.000921,0.811742,1.185030,0.006919,-0.029145,-0.002281,0.075944,0.157573,0.016563,-9.587382,-0.583394,-0.351347,-0.003682,0.002490,1.001343,0.000000,0.000000,0.000000,0.000405,-0.000029,-0.000011,1.873672,1.498016,0.292572,0.000000,0.000000,0.000000,0.000000,-0.000000,0.799990,1.650010,49770.000000,51971.000000,52203.000000,57134.000000,-0.011303,0.000003,-0.000056,0.011303
0.3350,-0.000921,0.811742,1.185030,0.006919,-0.029145,-0.002281,0.075944,0.157573,0.016563,-9.614358,-0.392998,-0.629969,-0.004370,0.003297,0.999740,0.000000,0.000000,0.000000,0.000405,-0.000029,-0.000011,1.873672,1.498016,0.292572,0.000000,0.000000,0.000000,0.000000,-0.000000,0.799990,1.650010,49675.000000,52058.000000,52104.000000,57219.000000,-0.011303,0.000003,-0.000056,0.011303
0.3370,-0.000929,0.811218,1.185004,0.006355,-0.030176,-0.001981,-0.015508,0.166145,0.009915,-9.870924,0.007236,-0.722949,-0.005361,0.003934,0.998871,0.000000,0.000000,0.000000,0.000405,-0.000029,-0.000011,1.873672,1.498016,0.292572,0.000000,0.000000,0.000000,0.000000,-0.000000,0.799990,1.650010,49615.000000,52062.000000,52076.000000,57281.000000,-0.011303,0.000003,-0.000056,0.011303
0.3390,-0.000929,0.811218,1.185004,0.006355,-0.030176,-0.001981,-0.015508,0.166145,0.009915,-10.254528,0.439718,-0.374784,-0.006364,0.004217,0.998692,0.000000,0.000000,0.000000,0.000405,-0.000029,-0.000011,1.873672,1.498016,0.292572,0.000000,0.000000,0.000000,0.000000,-0.000000,0.799990,1.650010,49750.000000,51912.000000,52193.000000,57215.000000,-0.011303,0.000003,-0.000056,0.011303
0.3410,-0.000929,0.811218,1.185004,0.006355,-0.030176,-0.001981,-0.015508,0.166145,0.009915,-10.289803,0.840915,0.129792,-0.007276,0.004203,0.998949,0.000000,0.000000,0.000000,0.000405,-0.000029,-0.000011,1.873672,1.498016,0.292572,0.000000,0.000000,0.000000,0.000000,-0.000000,0.799990,1.650010,49954.000000,51721.000000,52347.000000,57091.000000,-0.011303,0.000003,-0.000056,0.011303
0.3429,-0.000929,0.811218,1.185004,0.006355,-0.030176,-0.001981,-0.015508,0.166145,0.009915,-9.816953,1.045427,0.283441,-0.008007,0.004175,0.999082,0.000000,0.000000,0.000000,0.000405,-0.000029,-0.000011,1.873672,1.498016,0.292572,0.000000,0.000000,0.000000,0.000000,-0.000000,0.799990,1.650010,50042.000000,51680.000000,52370.000000,57039.000000,-0.011303,0.000003,-0.000056,0.011303
0.3449,-0.000929,0.811218,1.185004,0.006355,-0.030176,-0.001981,-0.015508,0.166145,0.009915,-9.281150,0.733500,0.062109,-0.008886,0.004193,0.998990,0.000000,0.000000,0.000000,0.000405,-0.000029,-0.000011,1.873672,1.498016,0.292572,0.000000,0.000000,0.000000,0.000000,-0.000000,0.799990,1.650010,49971.000000,51792.000000,52287.000000,57071.000000,-0.011303,0.000003,-0.000056,0.011303
0.3469,-0.000935,0.810959,1.184992,0.005812,-0.029987,-0.002043,-0.115071,0.161596,0.007629,-9.188225,0.275001,-0.110564,-0.009576,0.004587,0.999118,0.000000,0.000000,0.000000,0.000405,-0.000029,-0.000011,1.873672,1.498016,0.292572,0.000000,0.000000,0.000000,0.000000,-0.000000,0.799990,1.650010,49859.000000,51856.000000,52267.000000,57120.000000,-0.011303,0.000003,-0.000056,0.011303
0.3489,-0.000935,0.810959,1.184992,0.005812,-0.029987,-0.002043,-0.115071,0.161596,0.007629,-9.180817,0.361573,-0.146648,-0.009871,0.005399,0.999141,0.000000,0.000000,0.000000,0.000405,-0.000029,-0.000011,1.873672,1.498016,0.292572,0.000000,0.000000,0.000000,0.000000,-0.000000,0.799990,1.650010,49850.000000,51865.000000,52251.000000,57133.000000,-0.011303,0.000003,-0.000056,0.011303
0.3509,-0.000935,0.810959,1.184992,0.005812,-0.029987,-0.002043,-0.115071,0.161596,0.007629,-9.344712,0.405683,-0.064144,-0.009804,0.006300,0.999835,0.000000,0.000000,0.000000,0.000405,-0.000029,-0.000011,1.873672,1.498016,0.292572,0.000000,0.000000,0.000000,0.000000,-0.000000,0.799990,1.650010,49876.000000,51828.000000,52283.000000,57117.000000,-0.011303,0.000003,-0.000056,0.011303
0.3528,-0.000935,0.810959,1.184992,0.005812,-0.029987,-0.002043,-0.115071,0.161596,0.007629,-9.412619,-0.130203,-0.123216,-0.009352,0.007171,1.000135,0.000000,0.000000,0.000000,0.000405,-0.000029,-0.000011,1.873672,1.498016,0.292572,0.000000,0.000000,0.000000,0.000000,-0.000000,0.799990,1.650010,49825.000000,51869.000000,52289.000000,57116.000000,-0.011303,0.000003,-0.000056,0.011303
0.3548,-0.000935,0.810959,1.184992,0.005812,-0.029987,-0.002043,-0.115071,0.161596,0.007629,-9.045095,-0.397128,-0.463722,-0.008643,0.007656,1.000739,0.000000,0.000000,0.000000,0.000405,-0.000029,-0.000011,1.873672,1.498016,0.292572,0.000000,0.000000,0.000000,0.000000,-0.000000,0.799990,1.650010,49703.000000,52011.000000,52170.000000,57188.000000,-0.011303,0.000003,-0.000056,0.011303
0.3568,-0.000941,0.810835,1.184986,0.005303,-0.029142,-0.002031,-0.207786,0.158953,0.006624,-8.832182,-0.087477,-0.757155,-0.007547,0.007281,1.001833,0.000000,0.000000,0.000000,0.000405,-0.000029,-0.000011,1.873672,1.498016,0.292572,0.000000,0.000000,0.000000,0.000000,-0.000000,0.799990,1.650010,49584.000000,52083.000000,52076.000000,57291.000000,-0.011303,0.000003,-0.000056,0.011303
0.3588,-0.000941,0.810835,1.184986,0.005303,-0.029142,-0.002031,-0.207786,0.158953,0.006624,-8.911877,0.506138,-0.568236,-0.006810,0.006489,1.002383,0.000000,0.000000,0.000000,0.000405,-0.000029,-0.000011,1.873672,1.498016,0.292572,0.000000,0.000000,0.000000,0.000000,-0.000000,0.799990,1.650010,49679.000000,51991.000000,52119.000000,57262.000000,-0.011303,0.000003,-0.000056,0.011303
0.3608,-0.000941,0.810835,1.184986,0.005303,-0.029142,-0.002031,-0.207786,0.158953,0.006624,-8.544247,1.583111,0.011175,-0.006270,0.005816,1.002138,0.000000,0.000000,0.000000,0.000405,-0.000029,-0.000011,1.873672,1.498016,0.292572,0.000000,0.000000,0.000000,0.000000,-0.000000,0.799990,1.650010,49962.000000,51765.000000,52256.000000,57130.000000,-0.011303,0.000003,-0.000056,0.011303
0.3627,-0.000941,0.810835,1.184986,0.005303,-0.029142,-0.002031,-0.207786,0.158953,0.006624,-7.700750,2.441857,0.557966,-0.005317,0.005012,1.001338,0.000000,0.000000,0.000000,0.000405,-0.000029,-0.000011,1.873672,1.498016,0.292572,0.000000,0.000000,0.000000,0.000000,-0.000000,0.799990,1.650010,50242.000000,51578.000000,52370.000000,56982.000000,-0.011303,0.000003,-0.000056,0.011303
0.3647,-0.000941,0.810835,1.184986,0.005303,-0.029142,-0.002031,-0.207786,0.158953,0.006624,-6.947678,2.234325,0.570631,-0.005000,0.004769,1.001230,0.000000,0.000000,0.000000,0.000405,-0.000029,-0.000011,1.873672,1.498016,0.292572,0.000000,0.000000,0.000000,0.000000,-0.000000,0.799990,1.650010,50272.000000,51617.000000,52353.000000,56947.000000,-0.011303,0.000003,-0.000056,0.011303
0.3667,-0.000946,0.810779,1.184984,0.004821,-0.027924,-0.001791,-0.298811,0.150897,0.004726,-6.966484,1.221513,0.201641,-0.004950,0.004523,1.000949,0.000000,0.000000,0.000000,0.000405,-0.000029,-0.000011,1.873672,1.498016,0.292572,0.000000,0.000000,0.000000,0.000000,-0.000000,0.799990,1.650010,50055.000000,51758.000000,52298.000000,57040.000000,-0.011303,0.000003,-0.000056,0.011303
0.3687,-0.000946,0.810779,1.184984,0.004821,-0.027924,-0.001791,-0.298811,0.150897,0.004726,-7.229434,0.526096,0.042009,-0.005243,0.004305,1.001053,0.000000,0.000000,0.000000,0.000405,-0.000029,-0.000011,1.873672,1.498016,0.292572,0.000000,0.000000,0.000000,0.000000,-0.000000,0.799990,1.650010,49954.000000,51833.000000,52286.000000,57071.000000,-0.011303,0.000003,-0.000056,0.011303
0.3707,-0.000946,0.810779,1.184984,0.004821,-0.027924,-0.001791,-0.298811,0.150897,0.004726,-7.141172,0.576430,-0.048909,-0.005502,0.004459,1.000901,0.000000,0.000000,0.000000,0.000405,-0.000029,-0.000011,1.873672,1.498016,0.292572,0.000000,0.000000,0.000000,0.000000,-0.000000,0.799990,1.650010,49927.000000,51866.000000,52252.000000,57096.000000,-0.011303,0.000003,-0.000056,0.011303
0.3726,-0.000946,0.810779,1.184984,0.004821,-0.027924,-0.001791,-0.298811,0.150897,0.004726,-6.859302,0.946784,-0.118412,-0.005446,0.004811,1.000258,0.000000,0.000000,0.000000,0.000405,-0.000029,-0.000011,1.873672,1.498016,0.292572,0.000000,0.000000,0.000000,0.000000,-0.000000,0.799990,1.650010,49932.000000,51888.000000,52203.000000,57119.000000,-0.011303,0.000003,-0.000056,0.011303
0.3746,-0.000946,0.810779,1.184984,0.004821,-0.027924,-0.001791,-0.298811,0.150897,0.004726,-6.157571,1.492587,-0.160602,-0.005882,0.004854,0.999647,0.000000,0.000000,0.000000,0.000405,-0.000029,-0.000011,1.873672,1.498016,0.292572,0.000000,0.000000,0.000000,0.000000,-0.000000,0.799990,1.650010,49974.000000,51910.000000,52139.000000,57127.000000,-0.011303,0.000003,-0.000056,0.011303
0.3765,-0.000951,0.810244,1.184984,0.004372,-0.028360,-0.001641,-0.362159,0.141736,0.005592,-5.128871,1.797935,-0.050441,-0.006301,0.004979,0.999260,0.000000,0.000000,0.000000,0.000405,-0.000029,-0.000011,1.873672,1.498016,0.292572,0.000000,0.000000,0.000000,0.000000,-0.000000,0.799990,1.650010,50065.000000,51891.000000,52132.000000,57081.000000,-0.011303,0.000003,-0.000056,0.011303
0.3786,-0.000951,0.810244,1.184984,0.004372,-0.028360,-0.001641,-0.362159,0.141736,0.005592,-4.549969,1.488994,0.081226,-0.006808,0.004342,0.999253,0.000000,0.000000,0.000000,0.000405,-0.000029,-0.000011,1.873672,1.498016,0.292572,0.000000,0.000000,0.000000,0.000000,-0.000000,0.799990,1.650010,50127.000000,51885.000000,52167.000000,57016.000000,-0.011303,0.000003,-0.000056,0.011303
0.3806,-0.000951,0.810244,1.184984,0.004372,-0.028360,-0.001641,-0.362159,0.141736,0.005592,-4.563175,1.191581,0.281197,-0.006820,0.002894,0.999604,0.000000,0.000000,0.000000,0.000405,-0.000029,-0.000011,1.873672,1.498016,0.292572,0.000000,0.000000,0.000000,0.000000,-0.000000,0.799990,1.650010,50187.000000,51829.000000,52249.000000,56952.000000,-0.011303,0.000003,-0.000056,0.011303
0.3825,-0.000951,0.810244,1.184984,0.004372,-0.028360,-0.001641,-0.362159,0.141736,0.005592,-4.768601,1.198826,0.551832,-0.006898,0.001500,0.999728,0.000000,0.000000,0.000000,0.000405,-0.000029,-0.000011,1.873672,1.498016,0.292572,0.000000,0.000000,0.000000,0.000000,-0.000000,0.799990,1.650010,50277.000000,51729.000000,52350.000000,56887.000000,-0.011303,0.000003,-0.000056,0.011303
0.3845,-0.000951,0.810244,1.184984,0.004372,-0.028360,-0.001641,-0.362159,0.141736,0.005592,-4.120649,1.133096,0.585373,-0.006959,0.000294,0.999628,0.000000,0.000000,0.000000,0.000405,-0.000029,-0.000011,1.873672,1.498016,0.292572,0.000000,0.000000,0.000000,0.000000,-0.000000,0.799990,1.650010,50316.000000,51748.000000,52339.000000,56854.000000,-0.011303,0.000003,-0.000056,0.011303
0.3864,-0.000909,0.809964,1.184967,0.004129,-0.027741,-0.001693,-0.411501,0.127480,0.007287,-3.078600,1.142215,0.239061,-0.006504,-0.001087,1.000061,0.000000,0.000000,0.000000,0.000405,-0.000029,-0.000011,1.873672,1.498016,0.292572,0.000000,0.000000,0.000000,0.000000,-0.000000,0.799990,1.650010,50230.000000,51893.000000,52194.000000,56928.000000,-0.011303,0.000003,-0.000056,0.011303
0.3885,-0.000956,0.809982,1.184984,0.003957,-0.027672,-0.001621,-0.411501,0.127480,0.007287,-2.538659,1.241917,-0.373817,-0.005945,-0.002159,1.000872,0.000000,0.000000,0.000000,0.000405,-0.000029,-0.000011,1.873672,1.498016,0.292572,0.000000,0.000000,0.000000,0.000000,-0.000000,0.799990,1.650010,50032.000000,52120.000000,51963.000000,57082.000000,-0.011303,0.000003,-0.000056,0.011303
0.3904,-0.000956,0.809982,1.184984,0.003957,-0.027672,-0.001621,-0.411501,0.127480,0.007287,-2.320055,1.396834,-0.698657,-0.006012,-0.002544,1.001058,0.000000,0.000000,0.000000,0.000405,-0.000029,-0.000011,1.873672,1.498016,0.292572,0.000000,0.000000,0.000000,0.000000,-0.000000,0.799990,1.650010,49929.000000,52233.000000,51838.000000,57170.000000,-0.011303,0.000003,-0.000056,0.011303
0.3924,-0.000956,0.809982,1.184984,0.003957,-0.027672,-0.001621,-0.411501,0.127480,0.007287,-2.396574,1.571806,-0.685042,-0.005751,-0.002602,1.002484,0.000000,0.000000,0.000000,0.000405,-0.000029,-0.000011,1.873672,1.498016,0.292572,0.000000,0.000000,0.000000,0.000000,-0.000000,0.799990,1.650010,49939.000000,52219.000000,51841.000000,57176.000000,-0.011303,0.000003,-0.000056,0.011303
0.3943,-0.000956,0.809982,1.184984,0.003957,-0.027672,-0.001621,-0.411501,0.127480,0.007287,-2.600152,1.738705,-0.361444,-0.005654,-0.001897,1.003562,0.000000,0.000000,0.000000,0.000405,-0.000029,-0.000011,1.873672,1.498016,0.292572,0.000000,0.000000,0.000000,0.000000,-0.000000,0.799990,1.650010,50057.000000,52095.000000,51954.000000,57101.000000,-0.011303,0.000003,-0.000056,0.011303
0.3963,-0.000960,0.809859,1.184985,0.003582,-0.026420,-0.001459,-0.439493,0.114272,0.004760,-2.204761,2.008421,0.344286,-0.006232,-0.001362,1.004782,0.000000,0.000000,0.000000,0.000405,-0.000029,-0.000011,1.873672,1.498016,0.292572,0.000000,0.000000,0.000000,0.000000,-0.000000,0.799990,1.650010,50330.000000,51849.000000,52173.000000,56917.000000,-0.011303,0.000003,-0.000056,0.011303
0.3984,-0.000960,0.809859,1.184985,0.003582,-0.026420,-0.001459,-0.439493,0.114272,0.004760,-0.925857,2.388805,0.813078,-0.007468,-0.000853,1.006379,0.000000,0.000000,0.000000,0.000405,-0.000029,-0.000011,1.873672,1.498016,0.292572,0.000000,0.000000,0.000000,0.000000,-0.000000,0.799990,1.650010,50574.000000,51727.000000,52263.000000,56758.000000,-0.011303,0.000003,-0.000056,0.011303
0.4003,-0.000960,0.809859,1.184985,0.003582,-0.026420,-0.001459,-0.439493,0.114272,0.004760,0.454783,2.792328,0.925756,-0.009093,0.000305,1.007756,0.000000,0.000000,0.000000,0.000405,-0.000029,-0.000011,1.873672,1.498016,0.292572,0.000000,0.000000,0.000000,0.000000,-0.000000,0.799990,1.650010,50695.000000,51731.000000,52229.000000,56694.000000,-0.011303,0.000003,-0.000056,0.011303
0.4023,-0.000960,0.809859,1.184985,0.003582,-0.026420,-0.001459,-0.439493,0.114272,0.004760,1.276919,2.774160,0.927005,-0.010378,0.001589,1.008283,0.000000,0.000000,0.000000,0.000405,-0.000029,-0.000011,1.873672,1.498016,0.292572,0.000000,0.000000,0.000000,0.000000,-0.000000,0.799990,1.650010,50731.000000,51767.000000,52198.000000,56666.000000,-0.011303,0.000003,-0.000056,0.011303
0.4042,-0.000960,0.809859,1.184985,0.003582,-0.026420,-0.001459,-0.439493,0.114272,0.004760,1.443041,2.300883,0.636767,-0.011246,0.003033,1.008893,0.000000,0.000000,0.000000,0.000405,-0.000029,-0.000011,1.873672,1.498016,0.292572,0.000000,0.000000,0.000000,0.000000,-0.000000,0.799990,1.650010,50613.000000,51893.000000,52114.000000,56727.000000,-0.011303,0.000003,-0.000056,0.011303
0.4062,-0.000963,0.809805,1.184987,0.003244,-0.024906,-0.000775,-0.445468,0.090444,0.010518,1.023282,1.613374,0.115382,-0.011080,0.004246,1.009059,0.000000,0.000000,0.000000,0.000405,-0.000029,-0.000011,1.873672,1.498016,0.292572,0.000000,0.000000,0.000000,0.000000,-0.000000,0.799990,1.650010,50374.000000,52056.000000,51992.000000,56862.000000,-0.011303,0.000003,-0.000056,0.011303
0.4082,-0.000963,0.809805,1.184987,0.003244,-0.024906,-0.000775,-0.445468,0.090444,0.010518,0.392899,0.826700,-0.122500,-0.010066,0.004841,1.007987,0.000000,0.000000,0.000000,0.000405,-0.000029,-0.000011,1.873672,1.498016,0.292572,0.000000,0.000000,0.000000,0.000000,-0.000000,0.799990,1.650010,50223.000000,52143.000000,51972.000000,56924.000000,-0.011303,0.000003,-0.000056,0.011303
0.4102,-0.000963,0.809805,1.184987,0.003244,-0.024906,-0.000775,-0.445468,0.090444,0.010518,0.412310,0.598270,0.003385,-0.009193,0.004784,1.007079,0.000000,0.000000,0.000000,0.000405,-0.000029,-0.000011,1.873672,1.498016,0.292572,0.000000,0.000000,0.000000,0.000000,-0.000000,0.799990,1.650010,50260.000000,52111.000000,52025.000000,56882.000000,-0.011303,0.000003,-0.000056,0.011303
0.4121,-0.000963,0.809805,1.184987,0.003244,-0.024906,-0.000775,-0.445468,0.090444,0.010518,1.104452,1.181386,0.181857,-0.008739,0.004595,1.006467,0.000000,0.000000,0.000000,0.000405,-0.000029,-0.000011,1.873672,1.498016,0.292572,0.000000,0.000000,0.000000,0.000000,-0.000000,0.799990,1.650010,50383.000000,52056.000000,52035.000000,56831.000000,-0.011303,0.000003,-0.000056,0.011303
0.4141,-0.000963,0.809805,1.184987,0.003244,-0.024906,-0.000775,-0.445468,0.090444,0.010518,1.600090,1.908654,0.332872,-0.008547,0.004075,1.005745,0.000000,0.000000,0.000000,0.000405,-0.000029,-0.000011,1.873672,1.498016,0.292572,0.000000,0.000000,0.000000,0.000000,-0.000000,0.799990,1.650010,50493.000000,51995.000000,52036.000000,56798.000000,-0.011303,0.000003,-0.000056,0.011303
0.4161,-0.000932,0.809559,1.184983,0.003088,-0.024138,-0.000018,-0.436701,0.077738,0.011840,2.132766,2.206895,0.223194,-0.007516,0.003376,1.005351,0.000000,0.000000,0.000000,0.000405,-0.000029,-0.000011,1.873672,1.498016,0.292572,0.000000,0.000000,0.000000,0.000000,-0.000000,0.799990,1.650010,50490.000000,52033.000000,51958.000000,56817.000000,-0.011303,0.000003,-0.000056,0.011303
0.4181,-0.000967,0.809786,1.184992,0.002960,-0.023308,0.000019,-0.442477,0.078631,0.011805,2.964541,1.868787,-0.138387,-0.006382,0.002917,1.005858,0.000000,0.000000,0.000000,0.000405,-0.000029,-0.000011,1.873672,1.498016,0.292572,0.000000,0.000000,0.000000,0.000000,-0.000000,0.799990,1.650010,50371.000000,52197.000000,51824.000000,56883.000000,-0.011303,0.000003,-0.000056,0.011303
0.4201,-0.000967,0.809786,1.184992,0.002960,-0.023308,0.000019,-0.442477,0.078631,0.011805,3.624704,1.395314,-0.510140,-0.005699,0.002520,1.005774,0.000000,0.000000,0.000000,0.000405,-0.000029,-0.000011,1.873672,1.498016,0.292572,0.000000,0.000000,0.000000,0.000000,-0.000000,0.799990,1.650010,50244.000000,52369.000000,51690.000000,56948.000000,-0.011303,0.000003,-0.000056,0.011303
0.4220,-0.000967,0.809786,1.184992,0.002960,-0.023308,0.000019,-0.442477,0.078631,0.011805,3.461108,0.831359,-0.638060,-0.004959,0.001840,1.004750,0.000000,0.000000,0.000000,0.000405,-0.000029,-0.000011,1.873672,1.498016,0.292572,0.000000,0.000000,0.000000,0.000000,-0.000000,0.799990,1.650010,50164.000000,52428.000000,51679.000000,56971.000000,-0.011303,0.000003,-0.000056,0.011303
0.4240,-0.000967,0.809786,1.184992,0.002960,-0.023308,0.000019,-0.442477,0.078631,0.011805,3.084473,0.349434,-0.340449,-0.004741,0.001388,1.003484,0.000000,0.000000,0.000000,0.000405,-0.000029,-0.000011,1.873672,1.498016,0.292572,0.000000,0.000000,0.000000,0.000000,-0.000000,0.799990,1.650010,50234.000000,52333.000000,51819.000000,56887.000000,-0.011303,0.000003,-0.000056,0.011303
0.4260,-0.000938,0.809557,1.184995,0.002825,-0.022547,0.000545,-0.414115,0.062892,0.009825,3.446267,0.351048,0.111156,-0.005436,0.001086,1.003070,0.000000,0.000000,0.000000,0.000405,-0.000029,-0.000011,1.873672,1.498016,0.292572,0.000000,0.000000,0.000000,0.000000,-0.000000,0.799990,1.650010,50418.000000,52197.000000,51943.000000,56747.000000,-0.011303,0.000003,-0.000056,0.011303
0.4280,-0.000970,0.809271,1.184481,0.002708,-0.023595,-0.001627,-0.406821,0.063713,0.009970,4.038409,0.680080,0.111643,-0.006338,0.000772,1.002628,0.000000,0.000000,0.000000,0.000405,-0.000029,-0.000011,1.873672,1.498016,0.292572,0.000000,0.000000,0.000000,0.000000,-0.000000,0.799990,1.650010,50494.000000,52242.000000,51923.000000,56751.000000,-0.011303,0.000003,-0.000056,0.011303
0.4300,-0.000970,0.809271,1.184481,0.002708,-0.023595,-0.001627,-0.406821,0.063713,0.009970,4.442814,0.716908,-0.393332,-0.007112,0.000673,1.002692,0.000000,0.000000,0.000000,0.000405,-0.000029,-0.000011,1.873672,1.498016,0.292572,0.000000,0.000000,0.000000,0.000000,-0.000000,0.799990,1.650010,50331.000000,52426.000000,51733.000000,56880.000000,-0.011303,0.000003,-0.000056,0.011303
0.4319,-0.000970,0.809271,1.184481,0.002708,-0.023595,-0.001627,-0.406821,0.063713,0.009970,4.931444,0.569381,-0.627756,-0.007296,0.001128,1.003767,0.000000,0.000000,0.000000,0.000405,-0.000029,-0.000011,1.873672,1.498016,0.292572,0.000000,0.000000,0.000000,0.000000,-0.000000,0.799990,1.650010,50260.000000,52531.000000,51639.000000,56924.000000,-0.011303,0.000003,-0.000056,0.011303
0.4339,-0.000970,0.809271,1.184481,0.002708,-0.023595,-0.001627,-0.406821,0.063713,0.009970,5.161988,0.640673,-0.227950,-0.006945,0.002005,1.004337,0.000000,0.000000,0.000000,0.000405,-0.000029,-0.000011,1.873672,1.498016,0.292572,0.000000,0.000000,0.000000,0.000000,-0.000000,0.799990,1.650010,50420.000000,52404.000000,51766.000000,56809.000000,-0.011303,0.000003,-0.000056,0.011303
0.4359,-0.000972,0.809019,1.184226,0.002492,-0.022969,-0.002338,-0.365911,0.058306,0.007694,5.112124,0.686273,0.200168,-0.006009,0.002770,1.004607,0.000000,0.000000,0.000000,0.000405,-0.000029,-0.000011,1.873672,1.498016,0.292572,0.000000,0.000000,0.000000,0.000000,-0.000000,0.799990,1.650010,50592.000000,52278.000000,51910.000000,56697.000000,-0.011303,0.000003,-0.000056,0.011303
0.4379,-0.000972,0.809019,1.184226,0.002492,-0.022969,-0.002338,-0.365911,0.058306,0.007694,4.757961,0.126853,0.174337,-0.004708,0.002829,1.004998,0.000000,0.000000,0.000000,0.000405,-0.000029,-0.000011,1.873672,1.498016,0.292572,0.000000,0.000000,0.000000,0.000000,-0.000000,0.799990,1.650010,50542.000000,52296.000000,51941.000000,56698.000000,-0.011303,0.000003,-0.000056,0.011303
0.4399,-0.000972,0.809019,1.184226,0.002492,-0.022969,-0.002338,-0.365911,0.058306,0.007694,4.648538,-0.318670,-0.076727,-0.004195,0.001785,1.006452,0.000000,0.000000,0.000000,0.000405,-0.000029,-0.000011,1.873672,1.498016,0.292572,0.000000,0.000000,0.000000,0.000000,-0.000000,0.799990,1.650010,50426.000000,52394.000000,51880.000000,56757.000000,-0.011303,0.000003,-0.000056,0.011303
0.4418,-0.000972,0.809019,1.184226,0.002492,-0.022969,-0.002338,-0.365911,0.058306,0.007694,5.282852,0.203203,0.146145,-0.004335,0.000176,1.007652,0.000000,0.000000,0.000000,0.000405,-0.000029,-0.000011,1.873672,1.498016,0.292572,0.000000,0.000000,0.000000,0.000000,-0.000000,0.799990,1.650010,50559.000000,52324.000000,51909.000000,56692.000000,-0.011303,0.000003,-0.000056,0.011303
0.4438,-0.000972,0.809019,1.184226,0.002492,-0.022969,-0.002338,-0.365911,0.058306,0.007694,6.120732,0.742053,0.409327,-0.004770,-0.000362,1.007449,0.000000,0.000000,0.000000,0.000405,-0.000029,-0.000011,1.873672,1.498016,0.292572,0.000000,0.000000,0.000000,0.000000,-0.000000,0.799990,1.650010,50715.000000,52248.000000,51942.000000,56610.000000,-0.011303,0.000003,-0.000056,0.011303
0.4458,-0.000461,0.808899,1.184099,0.004176,-0.021948,-0.002222,-0.318296,0.043166,0.007876,6.319865,0.396760,0.301829,-0.005135,-0.000900,1.006647,0.000000,0.000000,0.000000,0.000405,-0.000029,-0.000011,1.873672,1.498016,0.292572,0.000000,0.000000,0.000000,0.000000,-0.000000,0.799990,1.650010,50697.000000,52300.000000,51890.000000,56628.000000,-0.011303,0.000003,-0.000056,0.011303
0.4478,-0.000461,0.808899,1.184099,0.004176,-0.021948,-0.002222,-0.318296,0.043166,0.007876,5.786422,-0.344700,0.000721,-0.004895,-0.001475,1.006494,0.000000,0.000000,0.000000,0.000405,-0.000029,-0.000011,1.873672,1.498016,0.292572,0.000000,0.000000,0.000000,0.000000,-0.000000,0.799990,1.650010,50532.000000,52410.000000,51842.000000,56706.000000,-0.011303,0.000003,-0.000056,0.011303
0.4498,-0.000461,0.808899,1.184099,0.004176,-0.021948,-0.002222,-0.318296,0.043166,0.007876,5.452251,-0.673340,-0.020922,-0.004947,-0.002030,1.006351,0.000000,0.000000,0.000000,0.000405,-0.000029,-0.000011,1.873672,1.498016,0.292572,0.000000,0.000000,0.000000,0.000000,-0.000000,0.799991,1.650010,50495.000000,52417.000000,51864.000000,56713.000000,-0.011303,0.000003,-0.000056,0.011303
0.4517,-0.000461,0.808899,1.184099,0.004176,-0.021948,-0.002222,-0.318296,0.043166,0.007876,6.052094,-0.606316,0.276124,-0.005243,-0.002084,1.006496,0.000000,0.000000,0.000000,0.000405,-0.000029,-0.000011,1.873672,1.498016,0.292572,0.000000,0.000000,0.000000,0.000000,-0.000000,0.799991,1.650010,50632.000000,52340.000000,51938.000000,56613.000000,-0.011303,0.000003,-0.000056,0.011303
0.4537,-0.000461,0.808899,1.184099,0.004176,-0.021948,-0.002222,-0.318296,0.043166,0.007876,6.369997,-0.514830,0.352023,-0.005775,-0.002483,1.006814,0.000000,0.000000,0.000000,0.000405,-0.000029,-0.000011,1.873672,1.498016,0.292572,0.000000,0.000000,0.000000,0.000000,-0.000000,0.799991,1.650010,50677.000000,52324.000000,51948.000000,56585.000000,-0.011303,0.000003,-0.000056,0.011303
0.4556,-0.000204,0.808846,1.184039,0.004892,-0.020802,-0.001748,-0.258617,0.044773,0.009810,6.039308,0.119966,0.294853,-0.006652,-0.002353,1.007099,0.000000,0.000000,0.000000,0.000405,-0.000029,-0.000011,1.873672,1.498016,0.292572,0.000000,0.000000,0.000000,0.000000,-0.000000,0.799991,1.650010,50687.000000,52303.000000,51901.000000,56625.000000,-0.011303,0.000003,-0.000056,0.011303
0.4577,-0.000204,0.808846,1.184039,0.004892,-0.020802,-0.001748,-0.258617,0.044773,0.009810,5.630597,1.036929,0.383693,-0.008325,-0.002227,1.007464,0.000000,0.000000,0.000000,0.000405,-0.000029,-0.000011,1.873672,1.498016,0.292572,0.000000,0.000000,0.000000,0.000000,-0.000000,0.799991,1.650010,50742.000000,52218.000000,51910.000000,56647.000000,-0.011303,0.000003,-0.000056,0.011303
0.4597,-0.000204,0.808846,1.184039,0.004892,-0.020802,-0.001748,-0.258617,0.044773,0.009810,5.529452,0.826262,0.248543,-0.010366,-0.001955,1.007751,0.000000,0.000000,0.000000,0.000405,-0.000029,-0.000011,1.873672,1.498016,0.292572,0.000000,0.000000,0.000000,0.000000,-0.000000,0.799991,1.650010,50680.000000,52269.000000,51878.000000,56682.000000,-0.011303,0.000003,-0.000056,0.011303
0.4616,-0.000204,0.808846,1.184039,0.004892,-0.020802,-0.001748,-0.258617,0.044773,0.009810,5.472782,-0.309517,-0.328946,-0.011740,-0.000556,1.006953,0.000000,0.000000,0.000000,0.000405,-0.000029,-0.000011,1.873672,1.498016,0.292572,0.000000,0.000000,0.000000,0.000000,-0.000000,0.799991,1.650010,50418.000000,52506.000000,51732.000000,56807.000000,-0.011303,0.000003,-0.000056,0.011303
0.4636,-0.000204,0.808846,1.184039,0.004892,-0.020802,-0.001748,-0.258617,0.044773,0.009810,5.165143,-1.048241,-0.728290,-0.012649,0.000645,1.006185,0.000000,0.000000,0.000000,0.000405,-0.000029,-0.000011,1.873672,1.498016,0.292572,0.000000,0.000000,0.000000,0.000000,-0.000000,0.799991,1.650010,50225.000000,52656.000000,51640.000000,56903.000000,-0.011303,0.000003,-0.000056,0.011303
0.4655,-0.000076,0.808825,1.184012,0.005107,-0.019678,-0.001097,-0.201102,0.042659,0.011181,5.026009,-0.774202,-0.481849,-0.013546,0.001557,1.004857,0.000000,0.000000,0.000000,0.000405,-0.000029,-0.000011,1.873672,1.498016,0.292572,0.000000,0.000000,0.000000,0.000000,-0.000000,0.799991,1.650010,50332.000000,52558.000000,51704.000000,56839.000000,-0.011303,0.000003,-0.000056,0.011303
0.4676,-0.000076,0.808825,1.184012,0.005107,-0.019678,-0.001097,-0.201102,0.042659,0.011181,5.444068,-0.169753,0.043836,-0.013925,0.001998,1.003764,0.000000,0.000000,0.000000,0.000405,-0.000029,-0.000011,1.873672,1.498016,0.292572,0.000000,0.000000,0.000000,0.000000,-0.000000,0.799991,1.650010,50570.000000,52375.000000,51842.000000,56700.000000,-0.011303,0.000003,-0.000056,0.011303
0.4695,-0.000076,0.808825,1.184012,0.005107,-0.019678,-0.001097,-0.201102,0.042659,0.011181,5.548904,0.168706,0.312173,-0.014143,0.001569,1.002526,0.000000,0.000000,0.000000,0.000405,-0.000029,-0.000011,1.873672,1.498016,0.292572,0.000000,0.000000,0.000000,0.000000,-0.000000,0.799991,1.650010,50686.000000,52276.000000,51916.000000,56634.000000,-0.011303,0.000003,-0.000056,0.011303
0.4715,-0.000076,0.808825,1.184012,0.005107,-0.019678,-0.001097,-0.201102,0.042659,0.011181,4.821828,0.108549,0.314329,-0.013984,0.000466,1.001791,0.000000,0.000000,0.000000,0.000405,-0.000029,-0.000011,1.873672,1.498016,0.292572,0.000000,0.000000,0.000000,0.000000,-0.000000,0.799991,1.650010,50653.000000,52247.000000,51951.000000,56657.000000,-0.011303,0.000003,-0.000056,0.011303
0.4734,-0.000076,0.808825,1.184012,0.005107,-0.019678,-0.001097,-0.201102,0.042659,0.011181,3.994552,-0.272143,0.203180,-0.013580,0.000089,1.001418,0.000000,0.000000,0.000000,0.000405,-0.000029,-0.000011,1.873672,1.498016,0.292572,0.000000,0.000000,0.000000,0.000000,-0.000000,0.799991,1.650010,50559.000000,52266.000000,51965.000000,56704.000000,-0.011303,0.000003,-0.000056,0.011303
0.4754,-0.000526,0.808820,1.184001,0.003197,-0.018636,-0.000752,-0.154499,0.058410,0.011309,3.867284,-0.682509,-0.045952,-0.012711,0.000680,1.001348,0.000000,0.000000,0.000000,0.000405,-0.000029,-0.000011,1.873672,1.498016,0.292572,0.000000,0.000000,0.000000,0.000000,-0.000000,0.799991,1.650010,50433.000000,52382.000000,51910.000000,56743.000000,-0.011303,0.000003,-0.000056,0.011303
0.4775,-0.000526,0.808820,1.184001,0.003197,-0.018636,-0.000752,-0.154499,0.058410,0.011309,3.943057,-0.883884,-0.184327,-0.011529,0.001106,1.001036,0.000000,0.000000,0.000000,0.000405,-0.000029,-0.000011,1.873672,1.498016,0.292572,0.000000,0.000000,0.000000,0.000000,-0.000000,0.799991,1.650010,50377.000000,52440.000000,51868.000000,56772.000000,-0.011303,0.000003,-0.000056,0.011303
0.4794,-0.000526,0.808820,1.184001,0.003197,-0.018636,-0.000752,-0.154499,0.058410,0.011309,3.402529,-0.940480,-0.009177,-0.010708,0.001577,1.000035,0.000000,0.000000,0.000000,0.000405,-0.000029,-0.000011,1.873672,1.498016,0.292572,0.000000,0.000000,0.000000,0.000000,-0.000000,0.799991,1.650010,50414.000000,52362.000000,51954.000000,56741.000000,-0.011303,0.000003,-0.000056,0.011303
0.4814,-0.000526,0.808820,1.184001,0.003197,-0.018636,-0.000752,-0.154499,0.058410,0.011309,2.972594,-0.490538,0.223587,-0.010497,0.001210,0.999499,0.000000,0.000000,0.000000,0.000405,-0.000029,-0.000011,1.873672,1.498016,0.292572,0.000000,0.000000,0.000000,0.000000,-0.000000,0.799991,1.650010,50500.000000,52247.000000,52033.000000,56707.000000,-0.011303,0.000003,-0.000056,0.011303
0.4833,-0.000526,0.808820,1.184001,0.003197,-0.018636,-0.000752,-0.154499,0.058410,0.011309,2.944076,0.119842,0.278390,-0.009839,0.000890,0.999164,0.000000,0.000000,0.000000,0.000405,-0.000029,-0.000011,1.873672,1.498016,0.292572,0.000000,0.000000,0.000000,0.000000,-0.000000,0.799991,1.650010,50546.000000,52202.000000,52028.000000,56714.000000,-0.011303,0.000003,-0.000056,0.011303
0.4853,-0.000240,0.808823,1.183481,0.004029,-0.017685,-0.002876,-0.123521,0.058399,0.011348,2.756142,0.392098,0.217129,-0.008942,0.000955,0.999793,0.000000,0.000000,0.000000,0.000405,-0.000029,-0.000011,1.873672,1.498016,0.292572,0.000000,0.000000,0.000000,0.000000,-0.000000,0.799991,1.650010,50564.000000,52225.000000,52019.000000,56769.000000,-0.011303,0.000003,-0.000056,0.011303
0.4873,-0.000240,0.808823,1.183481,0.004029,-0.017685,-0.002876,-0.123521,0.058399,0.011348,2.451161,0.444982,0.316914,-0.008957,0.000901,1.000851,0.000000,0.000000,0.000000,0.000405,-0.000029,-0.000011,1.873672,1.498016,0.292572,0.000000,0.000000,0.000000,0.000000,-0.000000,0.799991,1.650010,50589.000000,52177.000000,52064.000000,56754.000000,-0.011303,0.000003,-0.000056,0.011303
0.4893,-0.000240,0.808823,1.183481,0.004029,-0.017685,-0.002876,-0.123521,0.058399,0.011348,2.333783,0.287106,0.366380,-0.009984,0.000633,1.001562,0.000000,0.000000,0.000000,0.000405,-0.000029,-0.000011,1.873672,1.498016,0.292572,0.000000,0.000000,0.000000,0.000000,-0.000000,0.799991,1.650010,50595.000000,52162.000000,52093.000000,56739.000000,-0.011303,0.000003,-0.000056,0.011303
0.4912,-0.000240,0.808823,1.183481,0.004029,-0.017685,-0.002876,-0.123521,0.058399,0.011348,2.410177,-0.070954,0.254471,-0.011101,0.000435,1.002447,0.000000,0.000000,0.000000,0.000405,-0.000029,-0.000011,1.873672,1.498016,0.292572,0.000000,0.000000,0.000000,0.000000,-0.000000,0.799991,1.650010,50542.000000,52218.000000,52068.000000,56756.000000,-0.011303,0.000003,-0.000056,0.011303
0.4932,-0.000240,0.808823,1.183481,0.004029,-0.017685,-0.002876,-0.123521,0.058399,0.011348,2.310761,-0.363554,0.277481,-0.011094,-0.000649,1.002173,0.000000,0.000000,0.000000,0.000405,-0.000029,-0.000011,1.873672,1.498016,0.292572,0.000000,0.000000,0.000000,0.000000,-0.000000,0.799991,1.650010,50533.000000,52218.000000,52093.000000,56743.000000,-0.011303,0.000003,-0.000056,0.011303
0.4952,-0.000098,0.808314,1.183219,0.004307,-0.018692,-0.003778,-0.089576,0.053581,0.014013,1.936641,-0.439243,0.248820,-0.010455,-0.001412,1.001698,0.000000,0.000000,0.000000,0.000405,-0.000029,-0.000011,1.873672,1.498016,0.292572,0.000000,0.000000,0.000000,0.000000,-0.000000,0.799991,1.650010,50541.000000,52236.000000,52096.000000,56757.000000,-0.011303,0.000003,-0.000056,0.011303
0.4972,-0.000098,0.808314,1.183219,0.004307,-0.018692,-0.003778,-0.089576,0.053581,0.014013,1.704910,0.286254,0.363085,-0.009454,-0.001562,1.001443,0.000000,0.000000,0.000000,0.000405,-0.000029,-0.000011,1.873672,1.498016,0.292572,0.000000,0.000000,0.000000,0.000000,-0.000000,0.799991,1.650010,50605.000000,52158.000000,52114.000000,56758.000000,-0.011303,0.000003,-0.000056,0.011303
0.4992,-0.000098,0.808314,1.183219,0.004307,-0.018692,-0.003778,-0.089576,0.053581,0.014013,1.451429,1.113839,0.740458,-0.008788,-0.002136,1.001276,0.000000,0.000000,0.000000,0.000405,-0.000029,-0.000011,1.873672,1.498016,0.292572,0.000000,0.000000,0.000000,0.000000,-0.000000,0.799991,1.650010,50766.000000,51985.000000,52218.000000,56691.000000,-0.011303,0.000003,-0.000056,0.011303
0.5011,-0.000098,0.808314,1.183219,0.004307,-0.018692,-0.003778,-0.089576,0.053581,0.014013,1.045171,1.255027,0.742986,-0.008312,-0.002313,1.002028,0.000000,0.000000,0.000000,0.000405,-0.000029,-0.000011,1.873672,1.498016,0.292572,0.000000,0.000000,0.000000,0.000000,-0.000000,0.799991,1.650010,50756.000000,51961.000000,52231.000000,56709.000000,-0.011303,0.000003,-0.000056,0.011303
0.5031,-0.000098,0.808314,1.183219,0.004307,-0.018692,-0.003778,-0.089576,0.053581,0.014013,0.694100,0.906551,0.459370,-0.007835,-0.001912,1.003094,0.000000,0.000000,0.000000,0.000405,-0.000029,-0.000011,1.873672,1.498016,0.292572,0.000000,0.000000,0.000000,0.000000,-0.000000,0.799991,1.650010,50624.000000,52057.000000,52165.000000,56789.000000,-0.011303,0.000003,-0.000056,0.011303
0.5051,-0.000027,0.808062,1.183088,0.004318,-0.018780,-0.004005,-0.073513,0.049222,0.018866,0.693244,0.387388,0.271954,-0.008325,-0.000632,1.004119,0.000000,0.000000,0.000000,0.000405,-0.000029,-0.000011,1.873672,1.498016,0.292572,0.000000,0.000000,0.000000,0.000000,-0.000000,0.799991,1.650010,50553.000000,52145.000000,52126.000000,56817.000000,-0.011303,0.000003,-0.000056,0.011303
0.5071,-0.000027,0.808062,1.183088,0.004318,-0.018780,-0.004005,-0.073513,0.049222,0.018866,0.458051,0.078983,0.214845,-0.008982,0.000829,1.005227,0.000000,0.000000,0.000000,0.000405,-0.000029,-0.000011,1.873672,1.498016,0.292572,0.000000,0.000000,0.000000,0.000000,-0.000000,0.799991,1.650010,50508.000000,52167.000000,52130.000000,56831.000000,-0.011303,0.000003,-0.000056,0.011303
0.5091,-0.000027,0.808062,1.183088,0.004318,-0.018780,-0.004005,-0.073513,0.049222,0.018866,-0.002544,0.448296,0.390121,-0.010116,0.002094,1.005883,0.000000,0.000000,0.000000,0.000405,-0.000029,-0.000011,1.873672,1.498016,0.292572,0.000000,0.000000,0.000000,0.000000,-0.000000,0.799991,1.650010,50568.000000,52073.000000,52193.000000,56811.000000,-0.011303,0.000003,-0.000056,0.011303
0.5110,-0.000027,0.808062,1.183088,0.004318,-0.018780,-0.004005,-0.073513,0.049222,0.018866,-0.003683,1.332684,0.558146,-0.011255,0.003012,1.006201,0.000000,0.000000,0.000000,0.000405,-0.000029,-0.000011,1.873672,1.498016,0.292572,0.000000,0.000000,0.000000,0.000000,-0.000000,0.799991,1.650010,50669.000000,51979.000000,52214.000000,56795.000000,-0.011303,0.000003,-0.000056,0.011303
