time_ms,pos_x,pos_y,pos_z,vel_x,vel_y,vel_z,roll,pitch,yaw,thrust,vbat,gyro_x,gyro_y,gyro_z,acc_x,acc_y,acc_z,rate_roll,rate_pitch,rate_yaw
0,0.2962,0.8768,0.0068,0.0124,0.0008,-0.0032,-0.59,1.29,-59.37,0,0.000,-0.140,-0.124,0.151,0.000,0.000,0.000,0.000,0.000,0.000
0,0.2953,0.8766,0.0068,0.0073,-0.0006,-0.0026,-0.61,1.33,-59.32,0,0.000,-0.046,0.240,-0.019,0.000,0.000,0.000,0.000,0.000,0.000
0,0.2966,0.8773,0.0077,0.0141,0.0036,0.0022,-0.61,1.33,-59.26,0,0.000,-0.019,-0.098,-0.022,0.000,0.000,0.000,0.000,0.000,0.000
0,0.2964,0.8765,0.0077,0.0122,-0.0016,0.0026,-0.62,1.33,-59.20,0,0.000,0.047,0.100,-0.141,0.000,0.000,0.000,0.000,0.000,0.000
0,0.2965,0.8775,0.0077,0.0122,0.0042,0.0026,-0.53,1.27,-59.14,0,0.000,-0.041,0.275,-0.240,0.000,0.000,0.000,0.000,0.000,0.000
0,0.2966,0.8776,0.0078,0.0125,0.0042,0.0028,-0.41,1.33,-59.09,0,0.000,0.177,-0.078,0.158,0.000,0.000,0.000,0.000,0.000,0.000
0,0.2968,0.8776,0.0078,0.0129,0.0042,0.0029,-0.65,1.40,-59.03,0,0.000,-0.210,-0.087,-0.117,0.000,0.000,0.000,0.000,0.000,0.000
0,0.2959,0.8755,0.0079,0.0075,-0.0080,0.0031,-0.60,1.37,-58.98,0,0.000,0.035,-0.055,0.155,0.000,0.000,0.000,0.000,0.000,0.000
0,0.2928,0.8752,0.0071,-0.0098,-0.0093,-0.0013,-0.55,1.40,-58.92,0,0.000,0.017,-0.287,0.053,0.000,0.000,0.000,0.000,0.000,0.000
0,0.2967,0.8794,0.0072,0.0120,0.0142,-0.0007,-0.63,1.41,-58.87,0,0.000,-0.180,-0.126,0.226,0.000,0.000,0.000,0.000,0.000,0.000
0,0.2960,0.8782,0.0073,0.0080,0.0072,-0.0001,-0.62,1.36,-58.81,0,0.000,0.187,-0.205,0.148,0.000,0.000,0.000,0.000,0.000,0.000
0,0.2949,0.8783,0.0073,0.0015,0.0076,0.0003,-0.39,1.41,-58.75,0,0.000,0.026,-0.044,0.036,0.000,0.000,0.000,0.000,0.000,0.000
0,0.2962,0.8797,0.0084,0.0084,0.0147,0.0062,-0.39,1.42,-58.70,0,0.000,-0.189,-0.060,-0.214,0.000,0.000,0.000,0.000,0.000,0.000
0,0.2968,0.8787,0.0084,0.0111,0.0088,0.0064,-0.44,1.41,-58.64,0,0.000,0.265,-0.022,0.147,0.000,0.000,0.000,0.000,0.000,0.000
0,0.2919,0.8770,0.0086,-0.0163,-0.0011,0.0071,-0.60,1.39,-58.58,0,0.000,0.019,-0.130,0.147,0.000,0.000,0.000,0.000,0.000,0.000
0,0.2915,0.8772,0.0087,-0.0175,0.0000,0.0072,-0.79,1.41,-58.53,0,0.000,0.030,-0.136,0.115,0.000,0.000,0.000,0.000,0.000,0.000
0,0.2923,0.8775,0.0088,-0.0120,0.0013,0.0078,-1.12,1.45,-58.47,0,0.000,0.091,0.010,-0.196,0.000,0.000,0.000,0.000,0.000,0.000
0,0.2956,0.8793,0.0090,0.0063,0.0105,0.0084,-1.08,1.45,-58.42,0,0.000,0.163,-0.044,0.040,0.000,0.000,0.000,0.000,0.000,0.000
0,0.2992,0.8820,0.0081,0.0259,0.0245,0.0034,-1.05,1.44,-58.36,0,0.000,-0.187,-0.199,0.043,0.000,0.000,0.000,0.000,0.000,0.000
0,0.3054,0.8871,0.0077,0.0585,0.0505,0.0001,-1.04,1.40,-58.31,0,0.000,0.031,-0.194,-0.229,0.000,0.000,0.000,0.000,0.000,0.000
0,0.3052,0.8869,0.0078,0.0550,0.0477,0.0011,-1.05,1.39,-58.25,0,0.000,-0.177,0.228,0.139,0.000,0.000,0.000,0.000,0.000,0.000
0,0.3053,0.8870,0.0079,0.0538,0.0465,0.0017,-0.96,1.44,-58.20,0,0.000,-0.106,-0.129,0.192,0.000,0.000,0.000,0.000,0.000,0.000
0,0.3060,0.8868,0.0097,0.0555,0.0433,0.0109,-0.93,1.42,-58.14,0,0.000,-0.061,-0.131,-0.211,0.000,0.000,0.000,0.000,0.000,0.000
0,0.3068,0.8870,0.0098,0.0576,0.0429,0.0107,-0.92,1.42,-58.08,0,0.000,-0.002,-0.081,-0.055,0.000,0.000,0.000,0.000,0.000,0.000
0,0.3051,0.8875,0.0101,0.0458,0.0435,0.0121,-0.84,1.42,-58.03,0,0.000,-0.047,-0.102,0.032,0.000,0.000,0.000,0.000,0.000,0.000
0,0.3051,0.8872,0.0103,0.0433,0.0401,0.0129,-0.98,1.43,-57.97,0,0.000,-0.100,-0.291,0.107,0.000,0.000,0.000,0.000,0.000,0.000
0,0.3054,0.8874,0.0104,0.0432,0.0396,0.0133,-0.99,1.46,-57.91,0,0.000,-0.033,-0.068,0.011,0.000,0.000,0.000,0.000,0.000,0.000
0,0.3043,0.8869,0.0107,0.0348,0.0349,0.0146,-0.74,1.41,-57.86,0,0.000,-0.218,-0.253,0.090,0.000,0.000,0.000,0.000,0.000,0.000
0,0.3072,0.8892,0.0104,0.0492,0.0460,0.0120,-0.74,1.41,-57.80,0,0.000,0.034,-0.075,0.161,0.000,0.000,0.000,0.000,0.000,0.000
0,0.3075,0.8904,0.0105,0.0486,0.0504,0.0121,-0.68,1.38,-57.75,0,0.000,-0.187,-0.147,0.017,0.000,0.000,0.000,0.000,0.000,0.000
0,0.3038,0.8869,0.0112,0.0269,0.0295,0.0160,-0.72,1.39,-57.69,0,0.000,-0.262,-0.002,0.220,0.000,0.000,0.000,0.000,0.000,0.000
0,0.3041,0.8872,0.0114,0.0272,0.0298,0.0162,-0.68,1.38,-57.63,0,0.000,0.200,-0.372,0.017,0.000,0.000,0.000,0.000,0.000,0.000
0,0.3034,0.8862,0.0109,0.0222,0.0232,0.0133,-0.68,1.39,-57.58,0,0.000,-0.076,-0.312,0.251,0.000,0.000,0.000,0.000,0.000,0.000
0,0.3043,0.8870,0.0111,0.0264,0.0269,0.0133,-0.71,1.38,-57.52,0,0.000,-0.122,-0.312,0.090,0.000,0.000,0.000,0.000,0.000,0.000
0,0.3038,0.8867,0.0112,0.0221,0.0238,0.0138,-0.56,1.35,-57.47,0,0.000,0.004,-0.075,-0.133,0.000,0.000,0.000,0.000,0.000,0.000
0,0.3040,0.8869,0.0114,0.0223,0.0239,0.0141,-0.35,1.35,-57.42,0,0.000,-0.032,-0.025,-0.310,0.000,0.000,0.000,0.000,0.000,0.000
0,0.3049,0.8875,0.0115,0.0264,0.0261,0.0142,-0.28,1.34,-57.36,0,0.000,0.051,-0.198,0.092,0.000,0.000,0.000,0.000,0.000,0.000
0,0.3026,0.8852,0.0118,0.0130,0.0127,0.0156,-0.30,1.37,-57.31,0,0.000,0.067,0.060,-0.219,0.000,0.000,0.000,0.000,0.000,0.000
0,0.2987,0.8826,0.0107,-0.0093,-0.0020,0.0098,-0.19,1.33,-57.25,0,0.000,0.028,-0.077,-0.315,0.000,0.000,0.000,0.000,0.000,0.000
0,0.2974,0.8818,0.0108,-0.0163,-0.0066,0.0095,-0.19,1.33,-57.20,0,0.000,-0.059,-0.256,-0.198,0.000,0.000,0.000,0.000,0.000,0.000
0,0.2972,0.8825,0.0109,-0.0167,-0.0028,0.0099,-0.21,1.33,-57.15,0,0.000,0.393,-0.084,-0.095,0.000,0.000,0.000,0.000,0.000,0.000
0,0.2953,0.8802,0.0108,-0.0268,-0.0155,0.0093,-0.23,1.32,-57.09,0,0.000,0.015,-0.229,-0.188,0.000,0.000,0.000,0.000,0.000,0.000
0,0.2950,0.8799,0.0093,-0.0272,-0.0165,0.0007,-0.20,1.32,-57.04,0,0.000,-0.086,-0.039,0.221,0.000,0.000,0.000,0.000,0.000,0.000
0,0.2952,0.8801,0.0094,-0.0249,-0.0153,0.0009,-0.26,1.32,-56.98,0,0.000,0.116,0.195,-0.210,0.000,0.000,0.000,0.000,0.000,0.000
0,0.2953,0.8799,0.0094,-0.0230,-0.0159,0.0012,-0.18,1.37,-56.93,0,0.000,0.009,-0.099,-0.262,0.000,0.000,0.000,0.000,0.000,0.000
0,0.2946,0.8794,0.0094,-0.0263,-0.0181,0.0012,-0.38,1.31,-56.88,0,0.000,0.255,-0.103,-0.209,0.000,0.000,0.000,0.000,0.000,0.000
0,0.2954,0.8799,0.0095,-0.0210,-0.0148,0.0016,-0.25,1.31,-56.82,0,0.000,0.064,-0.272,-0.252,0.000,0.000,0.000,0.000,0.000,0.000
0,0.2931,0.8798,0.0101,-0.0331,-0.0153,0.0049,-0.34,1.34,-56.77,0,0.000,-0.208,-0.250,-0.144,0.000,0.000,0.000,0.000,0.000,0.000
0,0.2974,0.8811,0.0104,-0.0077,-0.0083,0.0063,-0.27,1.33,-56.71,0,0.000,0.125,0.136,-0.147,0.000,0.000,0.000,0.000,0.000,0.000
0,0.2948,0.8793,0.0104,-0.0217,-0.0176,0.0064,-0.31,1.33,-56.66,0,0.000,-0.088,-0.046,-0.028,0.000,0.000,0.000,0.000,0.000,0.000
0,0.2959,0.8809,0.0105,-0.0145,-0.0087,0.0071,-0.31,1.32,-56.61,0,0.000,-0.307,-0.219,-0.161,0.000,0.000,0.000,0.000,0.000,0.000
0,0.2946,0.8797,0.0106,-0.0211,-0.0147,0.0071,-0.33,1.32,-56.56,0,0.000,-0.091,-0.395,0.171,0.000,0.000,0.000,0.000,0.000,0.000
0,0.2951,0.8801,0.0108,-0.0172,-0.0122,0.0082,-0.34,1.33,-56.50,0,0.000,0.034,0.060,-0.081,0.000,0.000,0.000,0.000,0.000,0.000
0,0.2951,0.8798,0.0109,-0.0168,-0.0134,0.0085,-0.36,1.32,-56.45,0,0.000,-0.117,-0.412,-0.091,0.000,0.000,0.000,0.000,0.000,0.000
0,0.2952,0.8800,0.0110,-0.0150,-0.0122,0.0087,-0.41,1.33,-56.39,0,0.000,-0.081,0.133,0.145,0.000,0.000,0.000,0.000,0.000,0.000
0,0.2951,0.8801,0.0111,-0.0150,-0.0109,0.0086,-0.71,1.37,-56.34,0,0.000,-0.049,-0.327,0.085,0.000,0.000,0.000,0.000,0.000,0.000
0,0.2954,0.8801,0.0112,-0.0126,-0.0108,0.0087,-0.72,1.36,-56.29,0,0.000,0.102,0.157,0.057,0.000,0.000,0.000,0.000,0.000,0.000
0,0.2960,0.8808,0.0113,-0.0089,-0.0067,0.0087,-0.68,1.34,-56.23,0,0.000,-0.119,0.178,0.139,0.000,0.000,0.000,0.000,0.000,0.000
0,0.3015,0.8854,0.0100,0.0208,0.0184,0.0012,-0.64,1.31,-56.18,0,0.000,-0.119,0.023,-0.116,0.000,0.000,0.000,0.000,0.000,0.000
0,0.3019,0.8855,0.0100,0.0225,0.0179,0.0013,-0.54,1.36,-56.12,0,0.000,0.082,-0.080,0.042,0.000,0.000,0.000,0.000,0.000,0.000
0,0.3015,0.8849,0.0100,0.0193,0.0142,0.0020,-0.45,1.35,-56.07,0,0.000,-0.386,0.105,0.105,0.000,0.000,0.000,0.000,0.000,0.000
0,0.3013,0.8840,0.0101,0.0173,0.0085,0.0026,-0.54,1.36,-56.02,0,0.000,0.250,0.003,-0.273,0.000,0.000,0.000,0.000,0.000,0.000
0,0.2990,0.8837,0.0097,0.0038,0.0061,0.0007,-0.57,1.36,-55.96,0,0.000,-0.054,-0.171,0.061,0.000,0.000,0.000,0.000,0.000,0.000
0,0.2973,0.8825,0.0098,-0.0056,-0.0006,0.0010,-0.50,1.34,-55.91,0,0.000,-0.088,0.064,-0.068,0.000,0.000,0.000,0.000,0.000,0.000
0,0.2989,0.8839,0.0098,0.0033,0.0065,0.0013,-0.53,1.34,-55.86,0,0.000,-0.007,-0.355,-0.093,0.000,0.000,0.000,0.000,0.000,0.000
0,0.2994,0.8842,0.0098,0.0058,0.0080,0.0016,-0.57,1.38,-55.80,0,0.000,0.081,0.029,0.102,0.000,0.000,0.000,0.000,0.000,0.000
0,0.2983,0.8833,0.0099,-0.0003,0.0021,0.0021,-0.52,1.36,-55.75,0,0.000,-0.102,-0.344,0.104,0.000,0.000,0.000,0.000,0.000,0.000
0,0.2989,0.8836,0.0099,0.0026,0.0034,0.0023,-0.53,1.37,-55.69,0,0.000,-0.307,-0.067,-0.189,0.000,0.000,0.000,0.000,0.000,0.000
0,0.2992,0.8849,0.0095,0.0047,0.0097,0.0004,-0.52,1.35,-55.64,0,0.000,-0.238,0.091,0.113,0.000,0.000,0.000,0.000,0.000,0.000
0,0.2985,0.8841,0.0095,0.0007,0.0051,0.0008,-0.56,1.35,-55.59,0,0.000,0.072,0.024,0.028,0.000,0.000,0.000,0.000,0.000,0.000
0,0.2986,0.8844,0.0095,0.0011,0.0064,0.0010,-0.43,1.29,-55.53,0,0.000,-0.066,0.220,0.377,0.000,0.000,0.000,0.000,0.000,0.000
0,0.2985,0.8838,0.0096,0.0005,0.0029,0.0011,-0.55,1.36,-55.48,0,0.000,0.154,-0.003,0.001,0.000,0.000,0.000,0.000,0.000,0.000
0,0.2993,0.8844,0.0093,0.0052,0.0057,0.0000,-0.56,1.35,-55.43,0,0.000,-0.090,0.031,-0.082,0.000,0.000,0.000,0.000,0.000,0.000
0,0.2977,0.8818,0.0094,-0.0042,-0.0089,0.0003,-0.56,1.34,-55.37,0,0.000,0.121,0.154,0.060,0.000,0.000,0.000,0.000,0.000,0.000
0,0.2987,0.8845,0.0094,0.0020,0.0063,0.0008,-0.57,1.34,-55.32,0,0.000,-0.250,-0.048,0.153,0.000,0.000,0.000,0.000,0.000,0.000
0,0.2992,0.8846,0.0094,0.0045,0.0064,0.0011,-0.49,1.33,-55.27,0,0.000,-0.054,-0.153,0.072,0.000,0.000,0.000,0.000,0.000,0.000
0,0.2993,0.8844,0.0095,0.0051,0.0051,0.0012,-0.55,1.33,-55.21,0,0.000,-0.296,0.025,0.102,0.000,0.000,0.000,0.000,0.000,0.000
0,0.2995,0.8845,0.0095,0.0060,0.0054,0.0013,-0.53,1.32,-55.16,0,0.000,-0.024,-0.026,0.024,0.000,0.000,0.000,0.000,0.000,0.000
0,0.2983,0.8834,0.0093,-0.0010,-0.0009,0.0005,-0.48,1.32,-55.11,0,0.000,0.117,-0.014,-0.033,0.000,0.000,0.000,0.000,0.000,0.000
0,0.2994,0.8843,0.0093,0.0054,0.0033,0.0007,-0.48,1.32,-55.05,0,0.000,0.086,-0.263,-0.040,0.000,0.000,0.000,0.000,0.000,0.000
0,0.2989,0.8839,0.0093,0.0025,0.0011,0.0008,-0.52,1.32,-55.00,0,0.000,-0.313,-0.476,-0.131,0.000,0.000,0.000,0.000,0.000,0.000
0,0.2981,0.8833,0.0093,-0.0019,-0.0022,0.0010,-0.56,1.32,-54.95,0,0.000,-0.008,-0.088,-0.066,0.000,0.000,0.000,0.000,0.000,0.000
0,0.2981,0.8833,0.0096,-0.0018,-0.0023,0.0024,-0.52,1.32,-54.90,0,0.000,-0.040,-0.057,0.131,0.000,0.000,0.000,0.000,0.000,0.000
0,0.2988,0.8838,0.0096,0.0024,0.0004,0.0025,-0.49,1.33,-54.84,0,0.000,0.182,-0.188,-0.090,0.000,0.000,0.000,0.000,0.000,0.000
0,0.2995,0.8843,0.0097,0.0060,0.0030,0.0027,-0.56,1.32,-54.79,0,0.000,-0.011,-0.107,0.159,0.000,0.000,0.000,0.000,0.000,0.000
0,0.2988,0.8838,0.0097,0.0019,0.0001,0.0029,-0.66,1.36,-54.74,0,0.000,-0.054,-0.029,-0.121,0.000,0.000,0.000,0.000,0.000,0.000
0,0.2983,0.8834,0.0097,-0.0011,-0.0019,0.0034,-0.95,1.36,-54.69,0,0.000,-0.419,0.039,-0.145,0.000,0.000,0.000,0.000,0.000,0.000
0,0.2997,0.8843,0.0095,0.0075,0.0027,0.0021,-0.97,1.34,-54.64,0,0.000,0.022,0.142,-0.043,0.000,0.000,0.000,0.000,0.000,0.000
0,0.3011,0.8863,0.0095,0.0153,0.0139,0.0022,-0.89,1.39,-54.59,0,0.000,-0.099,-0.079,0.315,0.000,0.000,0.000,0.000,0.000,0.000
0,0.3066,0.8902,0.0093,0.0461,0.0352,0.0007,-0.88,1.35,-54.53,0,0.000,0.020,0.056,-0.033,0.000,0.000,0.000,0.000,0.000,0.000
0,0.3074,0.8905,0.0092,0.0486,0.0352,0.0007,-0.87,1.34,-54.48,0,0.000,-0.041,0.013,0.074,0.000,0.000,0.000,0.000,0.000,0.000
0,0.3059,0.8907,0.0094,0.0380,0.0348,0.0021,-0.87,1.36,-54.42,0,0.000,-0.207,0.082,-0.151,0.000,0.000,0.000,0.000,0.000,0.000
0,0.3064,0.8903,0.0085,0.0393,0.0306,-0.0031,-0.81,1.33,-54.37,0,0.000,-0.238,0.098,0.034,0.000,0.000,0.000,0.000,0.000,0.000
0,0.3067,0.8902,0.0085,0.0391,0.0290,-0.0029,-0.82,1.33,-54.32,0,0.000,-0.302,0.080,0.411,0.000,0.000,0.000,0.000,0.000,0.000
0,0.3070,0.8909,0.0084,0.0389,0.0315,-0.0031,-0.77,1.35,-54.27,0,0.000,0.067,0.076,-0.280,0.000,0.000,0.000,0.000,0.000,0.000
0,0.3064,0.8900,0.0085,0.0337,0.0248,-0.0024,-0.63,1.26,-54.21,0,0.000,0.042,-0.110,0.190,0.000,0.000,0.000,0.000,0.000,0.000
0,0.3071,0.8905,0.0085,0.0360,0.0265,-0.0025,-0.59,1.18,-54.16,0,0.000,-0.309,0.081,-0.076,0.000,0.000,0.000,0.000,0.000,0.000
0,0.3062,0.8903,0.0085,0.0294,0.0246,-0.0014,-0.35,1.22,-54.11,0,0.000,0.094,0.054,0.170,0.000,0.000,0.000,0.000,0.000,0.000
0,0.3051,0.8873,0.0089,0.0221,0.0064,0.0009,-0.35,1.23,-54.05,0,0.000,0.172,-0.197,-0.051,0.000,0.000,0.000,0.000,0.000,0.000
0,0.3056,0.8852,0.0089,0.0241,-0.0057,0.0011,-0.39,1.22,-54.00,0,0.000,-0.097,-0.068,0.225,0.000,0.000,0.000,0.000,0.000,0.000
0,0.3007,0.8826,0.0089,-0.0041,-0.0196,0.0017,-0.47,1.21,-53.95,0,0.000,-0.147,0.035,0.348,0.000,0.000,0.000,0.000,0.000,0.000
0,0.3006,0.8827,0.0090,-0.0046,-0.0180,0.0019,-0.40,1.26,-53.89,0,0.000,0.155,0.014,-0.273,0.000,0.000,0.000,0.000,0.000,0.000
0,0.3013,0.8828,0.0090,-0.0002,-0.0173,0.0021,-0.40,1.26,-53.84,0,0.000,-0.070,-0.043,-0.001,0.000,0.000,0.000,0.000,0.000,0.000
0,0.3030,0.8835,0.0091,0.0091,-0.0129,0.0024,-0.40,1.26,-53.79,0,0.000,-0.116,-0.216,-0.019,0.000,0.000,0.000,0.000,0.000,0.000
0,0.3011,0.8834,0.0091,-0.0019,-0.0136,0.0028,-0.41,1.30,-53.74,0,0.000,0.010,-0.325,-0.177,0.000,0.000,0.000,0.000,0.000,0.000
0,0.3013,0.8832,0.0092,-0.0011,-0.0142,0.0030,-0.42,1.25,-53.69,0,0.000,0.065,-0.213,0.178,0.000,0.000,0.000,0.000,0.000,0.000
0,0.3014,0.8830,0.0092,-0.0002,-0.0147,0.0031,-0.41,1.27,-53.63,0,0.000,-0.111,-0.010,-0.075,0.000,0.000,0.000,0.000,0.000,0.000
0,0.3009,0.8840,0.0092,-0.0025,-0.0092,0.0034,-0.39,1.28,-53.58,0,0.000,-0.072,0.106,-0.178,0.000,0.000,0.000,0.000,0.000,0.000
0,0.3018,0.8828,0.0083,0.0023,-0.0153,-0.0014,-0.39,1.28,-53.53,0,0.000,0.145,-0.010,0.075,0.000,0.000,0.000,0.000,0.000,0.000
0,0.3014,0.8830,0.0083,0.0002,-0.0137,-0.0012,-0.40,1.25,-53.48,0,0.000,0.022,0.075,0.105,0.000,0.000,0.000,0.000,0.000,0.000
0,0.3008,0.8828,0.0083,-0.0031,-0.0143,-0.0010,-0.30,1.28,-53.43,0,0.000,0.157,-0.056,-0.062,0.000,0.000,0.000,0.000,0.000,0.000
0,0.3007,0.8826,0.0083,-0.0031,-0.0147,-0.0010,-0.43,1.30,-53.37,0,0.000,0.016,-0.151,0.095,0.000,0.000,0.000,0.000,0.000,0.000
0,0.3012,0.8820,0.0081,-0.0001,-0.0182,-0.0015,-0.41,1.31,-53.32,0,0.000,-0.091,-0.325,0.125,0.000,0.000,0.000,0.000,0.000,0.000
0,0.2990,0.8811,0.0081,-0.0125,-0.0225,-0.0014,-0.41,1.29,-53.27,0,0.000,0.166,0.083,0.199,0.000,0.000,0.000,0.000,0.000,0.000
0,0.3009,0.8831,0.0082,-0.0011,-0.0105,-0.0008,-0.43,1.34,-53.22,0,0.000,-0.252,-0.068,0.287,0.000,0.000,0.000,0.000,0.000,0.000
1,0.3004,0.8827,0.0082,-0.0039,-0.0121,-0.0005,-0.53,1.32,-53.17,0,0.000,-0.158,-0.168,0.059,0.000,0.000,0.000,0.000,0.000,0.000
1,0.3007,0.8824,0.0082,-0.0025,-0.0135,-0.0005,-0.57,1.34,-53.12,0,0.000,-0.032,-0.115,-0.125,0.000,0.000,0.000,0.000,0.000,0.000
1,0.3002,0.8833,0.0082,-0.0050,-0.0076,-0.0004,-0.64,1.33,-53.07,0,0.000,0.011,-0.083,-0.012,0.000,0.000,0.000,0.000,0.000,0.000
1,0.3023,0.8844,0.0090,0.0067,-0.0016,0.0037,-0.69,1.33,-53.02,0,0.000,-0.050,-0.225,0.121,0.000,0.000,0.000,0.000,0.000,0.000
1,0.3027,0.8853,0.0090,0.0087,0.0031,0.0039,-0.67,1.34,-52.96,0,0.000,-0.090,0.044,0.050,0.000,0.000,0.000,0.000,0.000,0.000
1,0.3042,0.8861,0.0090,0.0164,0.0075,0.0039,-0.63,1.34,-52.91,0,0.000,-0.351,-0.294,-0.127,0.000,0.000,0.000,0.000,0.000,0.000
1,0.3052,0.8869,0.0090,0.0212,0.0112,0.0036,-0.68,1.34,-52.86,0,0.000,-0.082,-0.016,0.037,0.000,0.000,0.000,0.000,0.000,0.000
1,0.3051,0.8868,0.0095,0.0195,0.0100,0.0059,-0.63,1.35,-52.81,0,0.000,-0.197,-0.022,0.089,0.000,0.000,0.000,0.000,0.000,0.000
1,0.3046,0.8864,0.0096,0.0161,0.0075,0.0062,-0.65,1.35,-52.76,0,0.000,0.043,0.081,0.016,0.000,0.000,0.000,0.000,0.000,0.000
1,0.3056,0.8872,0.0096,0.0209,0.0115,0.0064,-0.66,1.31,-52.71,0,0.000,-0.117,0.127,0.061,0.000,0.000,0.000,0.000,0.000,0.000
1,0.3048,0.8868,0.0097,0.0156,0.0094,0.0069,-0.61,1.35,-52.66,0,0.000,0.069,0.239,-0.093,0.000,0.000,0.000,0.000,0.000,0.000
1,0.3051,0.8871,0.0098,0.0167,0.0104,0.0069,-0.60,1.33,-52.60,0,0.000,-0.002,-0.251,-0.192,0.000,0.000,0.000,0.000,0.000,0.000
1,0.3061,0.8868,0.0098,0.0215,0.0085,0.0070,-0.63,1.33,-52.56,0,0.000,-0.093,0.313,0.074,0.000,0.000,0.000,0.000,0.000,0.000
1,0.3046,0.8870,0.0100,0.0125,0.0092,0.0076,-0.56,1.33,-52.50,0,0.000,-0.125,-0.103,-0.285,0.000,0.000,0.000,0.000,0.000,0.000
1,0.3049,0.8866,0.0101,0.0134,0.0068,0.0076,-0.60,1.37,-52.46,0,0.000,-0.209,-0.136,0.193,0.000,0.000,0.000,0.000,0.000,0.000
1,0.3056,0.8872,0.0102,0.0167,0.0090,0.0076,-0.49,1.34,-52.40,0,0.000,0.205,-0.043,0.150,0.000,0.000,0.000,0.000,0.000,0.000
1,0.3044,0.8863,0.0103,0.0095,0.0034,0.0081,-0.67,1.31,-52.35,0,0.000,0.080,0.021,0.086,0.000,0.000,0.000,0.000,0.000,0.000
1,0.3046,0.8874,0.0102,0.0098,0.0098,0.0074,-0.63,1.31,-52.30,0,0.000,0.064,-0.020,0.173,0.000,0.000,0.000,0.000,0.000,0.000
1,0.3031,0.8855,0.0103,0.0012,-0.0015,0.0078,-0.63,1.30,-52.25,0,0.000,-0.078,-0.240,-0.046,0.000,0.000,0.000,0.000,0.000,0.000
1,0.3069,0.8874,0.0104,0.0227,0.0091,0.0079,-0.86,1.34,-52.20,0,0.000,-0.142,-0.197,0.036,0.000,0.000,0.000,0.000,0.000,0.000
1,0.3064,0.8871,0.0105,0.0190,0.0066,0.0081,-0.87,1.34,-52.20,0,0.000,-0.253,-0.009,0.059,0.000,0.000,0.000,0.000,0.000,0.000
1,0.3066,0.8871,0.0106,0.0194,0.0067,0.0082,-0.90,1.34,-52.15,0,0.000,0.022,0.240,-0.059,0.000,0.000,0.000,0.000,0.000,0.000
1,0.3104,0.8909,0.0105,0.0395,0.0273,0.0071,-0.88,1.31,-52.10,0,0.000,-0.223,0.068,0.130,0.000,0.000,0.000,0.000,0.000,0.000
1,0.3110,0.8914,0.0099,0.0415,0.0290,0.0036,-0.83,1.33,-52.05,0,0.000,0.104,0.044,-0.433,0.000,0.000,0.000,0.000,0.000,0.000
1,0.3119,0.8920,0.0099,0.0443,0.0313,0.0034,-0.82,1.31,-52.00,0,0.000,0.022,-0.064,-0.017,0.000,0.000,0.000,0.000,0.000,0.000
1,0.3124,0.8917,0.0100,0.0455,0.0278,0.0037,-0.84,1.37,-51.95,0,0.000,0.081,-0.036,-0.152,0.000,0.000,0.000,0.000,0.000,0.000
1,0.3116,0.8916,0.0101,0.0392,0.0261,0.0044,-0.93,1.37,-51.91,0,0.000,-0.080,-0.080,-0.257,0.000,0.000,0.000,0.000,0.000,0.000
2,0.3121,0.8913,0.0093,0.0396,0.0237,-0.0004,-0.90,1.37,-51.86,0,0.000,-0.037,0.048,0.037,0.000,0.000,0.000,0.000,0.000,0.000
2,0.3119,0.8929,0.0092,0.0372,0.0310,-0.0003,-0.90,1.37,-51.81,0,0.000,0.300,0.265,-0.174,0.000,0.000,0.000,0.000,0.000,0.000
2,0.3139,0.8945,0.0091,0.0467,0.0381,-0.0010,-0.82,1.37,-51.76,0,0.000,0.035,-0.059,-0.290,0.000,0.000,0.000,0.000,0.000,0.000
2,0.3138,0.8946,0.0092,0.0438,0.0372,-0.0006,-0.93,1.40,-51.71,0,0.000,0.088,-0.071,-0.105,0.000,0.000,0.000,0.000,0.000,0.000
2,0.3142,0.8950,0.0092,0.0441,0.0375,-0.0004,-0.82,1.35,-51.66,0,0.000,-0.133,-0.120,0.077,0.000,0.000,0.000,0.000,0.000,0.000
2,0.3133,0.8943,0.0093,0.0371,0.0318,0.0009,-0.82,1.34,-51.61,0,0.000,-0.274,0.016,-0.130,0.000,0.000,0.000,0.000,0.000,0.000
2,0.3152,0.8969,0.0091,0.0456,0.0446,-0.0005,-0.76,1.34,-51.56,0,0.000,-0.228,-0.097,0.047,0.000,0.000,0.000,0.000,0.000,0.000
2,0.3143,0.8947,0.0093,0.0387,0.0312,0.0010,-0.78,1.35,-51.51,0,0.000,-0.108,-0.303,0.159,0.000,0.000,0.000,0.000,0.000,0.000
2,0.3148,0.8951,0.0093,0.0398,0.0319,0.0010,-0.86,1.37,-51.46,0,0.000,-0.081,-0.136,-0.109,0.000,0.000,0.000,0.000,0.000,0.000
2,0.3141,0.8946,0.0094,0.0344,0.0275,0.0016,-0.83,1.35,-51.41,0,0.000,-0.185,-0.009,0.114,0.000,0.000,0.000,0.000,0.000,0.000
2,0.3146,0.8953,0.0096,0.0359,0.0301,0.0030,-0.88,1.39,-51.36,0,0.000,0.137,0.045,0.041,0.000,0.000,0.000,0.000,0.000,0.000
2,0.3162,0.8971,0.0096,0.0430,0.0385,0.0026,-0.89,1.38,-51.32,0,0.000,-0.098,-0.058,-0.026,0.000,0.000,0.000,0.000,0.000,0.000
2,0.3163,0.8966,0.0097,0.0416,0.0342,0.0032,-1.05,1.44,-51.27,0,0.000,0.010,0.158,-0.207,0.000,0.000,0.000,0.000,0.000,0.000
2,0.3171,0.8984,0.0096,0.0442,0.0422,0.0028,-1.18,1.39,-51.22,0,0.000,-0.148,0.008,0.185,0.000,0.000,0.000,0.000,0.000,0.000
2,0.3178,0.8989,0.0096,0.0458,0.0431,0.0028,-1.10,1.38,-51.17,0,0.000,-0.120,0.218,0.270,0.000,0.000,0.000,0.000,0.000,0.000
2,0.3202,0.9028,0.0093,0.0567,0.0620,0.0007,-0.91,1.41,-51.12,0,0.000,0.142,0.127,-0.008,0.000,0.000,0.000,0.000,0.000,0.000
2,0.3238,0.9044,0.0085,0.0737,0.0676,-0.0036,-0.91,1.40,-51.07,0,0.000,-0.055,0.049,0.137,0.000,0.000,0.000,0.000,0.000,0.000
2,0.3233,0.9039,0.0087,0.0678,0.0626,-0.0021,-0.86,1.42,-51.02,0,0.000,0.074,0.108,0.138,0.000,0.000,0.000,0.000,0.000,0.000
2,0.3201,0.9021,0.0092,0.0475,0.0505,0.0015,-0.86,1.41,-50.97,0,0.000,-0.267,0.160,0.258,0.000,0.000,0.000,0.000,0.000,0.000
2,0.3205,0.9026,0.0092,0.0479,0.0511,0.0015,-0.86,1.41,-50.92,0,0.000,0.075,-0.069,-0.325,0.000,0.000,0.000,0.000,0.000,0.000
2,0.3199,0.9027,0.0100,0.0424,0.0494,0.0060,-0.80,1.40,-50.87,0,0.000,-0.038,0.288,0.065,0.000,0.000,0.000,0.000,0.000,0.000
2,0.3204,0.9031,0.0101,0.0430,0.0493,0.0060,-0.76,1.41,-50.83,0,0.000,0.102,0.003,-0.498,0.000,0.000,0.000,0.000,0.000,0.000
2,0.3208,0.9036,0.0102,0.0434,0.0495,0.0062,-0.96,1.38,-50.78,0,0.000,0.088,0.172,0.190,0.000,0.000,0.000,0.000,0.000,0.000
2,0.3202,0.9031,0.0103,0.0383,0.0443,0.0070,-0.88,1.39,-50.73,0,0.000,-0.143,-0.099,0.008,0.000,0.000,0.000,0.000,0.000,0.000
2,0.3198,0.9030,0.0104,0.0344,0.0421,0.0075,-0.82,1.37,-50.68,0,0.000,-0.289,0.145,0.148,0.000,0.000,0.000,0.000,0.000,0.000
2,0.3242,0.9060,0.0102,0.0560,0.0559,0.0054,-0.76,1.34,-50.63,0,0.000,-0.120,0.210,-0.027,0.000,0.000,0.000,0.000,0.000,0.000
2,0.3233,0.9056,0.0108,0.0484,0.0510,0.0080,-0.89,1.35,-50.58,0,0.000,0.034,-0.137,-0.209,0.000,0.000,0.000,0.000,0.000,0.000
2,0.3229,0.9049,0.0109,0.0441,0.0452,0.0089,-0.89,1.35,-50.53,0,0.000,-0.115,-0.089,0.079,0.000,0.000,0.000,0.000,0.000,0.000
3,0.3226,0.9040,0.0111,0.0406,0.0385,0.0100,-0.90,1.35,-50.48,0,0.000,-0.125,-0.387,0.366,0.000,0.000,0.000,0.000,0.000,0.000
3,0.3252,0.9066,0.0111,0.0529,0.0495,0.0088,-0.83,1.35,-50.43,0,0.000,0.235,-0.169,-0.050,0.000,0.000,0.000,0.000,0.000,0.000
3,0.3259,0.9070,0.0107,0.0540,0.0498,0.0062,-0.84,1.36,-50.38,0,0.000,0.089,-0.170,-0.265,0.000,0.000,0.000,0.000,0.000,0.000
3,0.3264,0.9078,0.0107,0.0543,0.0511,0.0062,-0.74,1.35,-50.34,0,0.000,-0.274,-0.079,0.157,0.000,0.000,0.000,0.000,0.000,0.000
3,0.3258,0.9073,0.0109,0.0488,0.0460,0.0071,-0.86,1.38,-50.29,0,0.000,0.235,0.096,0.159,0.000,0.000,0.000,0.000,0.000,0.000
3,0.3263,0.9080,0.0110,0.0493,0.0477,0.0072,-0.86,1.38,-50.24,0,0.000,-0.029,0.178,-0.134,0.000,0.000,0.000,0.000,0.000,0.000
3,0.3250,0.9066,0.0112,0.0402,0.0383,0.0089,-0.71,1.39,-50.19,0,0.000,0.000,0.060,-0.023,0.000,0.000,0.000,0.000,0.000,0.000
3,0.3272,0.9095,0.0107,0.0498,0.0520,0.0050,-0.71,1.39,-50.14,0,0.000,-0.046,-0.242,0.050,0.000,0.000,0.000,0.000,0.000,0.000
3,0.3276,0.9099,0.0107,0.0501,0.0517,0.0050,-0.66,1.36,-50.09,0,0.000,0.090,0.082,0.233,0.000,0.000,0.000,0.000,0.000,0.000
3,0.3251,0.9084,0.0110,0.0343,0.0411,0.0071,-0.68,1.35,-50.04,0,0.000,-0.084,-0.325,-0.080,0.000,0.000,0.000,0.000,0.000,0.000
3,0.3256,0.9088,0.0111,0.0353,0.0414,0.0075,-0.75,1.39,-50.00,0,0.000,-0.370,-0.018,0.187,0.000,0.000,0.000,0.000,0.000,0.000
3,0.3255,0.9078,0.0112,0.0330,0.0344,0.0085,-0.77,1.33,-49.95,0,0.000,-0.262,0.193,0.096,0.000,0.000,0.000,0.000,0.000,0.000
3,0.3263,0.9085,0.0108,0.0359,0.0362,0.0054,-0.72,1.33,-49.90,0,0.000,-0.058,-0.264,-0.138,0.000,0.000,0.000,0.000,0.000,0.000
3,0.3274,0.9106,0.0107,0.0400,0.0454,0.0050,-0.54,1.34,-49.85,0,0.000,0.266,0.367,-0.324,0.000,0.000,0.000,0.000,0.000,0.000
3,0.3291,0.9103,0.0108,0.0468,0.0416,0.0050,-0.55,1.37,-49.80,0,0.000,-0.135,-0.237,0.167,0.000,0.000,0.000,0.000,0.000,0.000
3,0.3285,0.9098,0.0109,0.0418,0.0374,0.0060,-0.49,1.36,-49.75,0,0.000,-0.071,0.358,0.312,0.000,0.000,0.000,0.000,0.000,0.000
3,0.3254,0.9077,0.0113,0.0233,0.0246,0.0080,-0.45,1.33,-49.70,0,0.000,-0.072,-0.023,0.003,0.000,0.000,0.000,0.000,0.000,0.000
3,0.3255,0.9087,0.0113,0.0224,0.0281,0.0081,-0.44,1.32,-49.65,0,0.000,-0.305,-0.166,-0.096,0.000,0.000,0.000,0.000,0.000,0.000
3,0.3246,0.9079,0.0109,0.0166,0.0227,0.0056,-0.40,1.32,-49.61,0,0.000,0.054,-0.014,0.040,0.000,0.000,0.000,0.000,0.000,0.000
3,0.3246,0.9070,0.0109,0.0149,0.0167,0.0060,-0.43,1.31,-49.56,0,0.000,0.088,-0.145,0.001,0.000,0.000,0.000,0.000,0.000,0.000
3,0.3245,0.9067,0.0110,0.0136,0.0141,0.0061,-0.46,1.34,-49.51,0,0.000,0.098,-0.063,-0.158,0.000,0.000,0.000,0.000,0.000,0.000
3,0.3240,0.9062,0.0110,0.0101,0.0110,0.0063,-0.39,1.33,-49.46,0,0.000,0.053,0.031,0.055,0.000,0.000,0.000,0.000,0.000,0.000
3,0.3247,0.9068,0.0111,0.0130,0.0131,0.0061,-0.45,1.29,-49.42,0,0.000,-0.258,-0.096,0.027,0.000,0.000,0.000,0.000,0.000,0.000
3,0.3249,0.9078,0.0111,0.0137,0.0177,0.0061,-0.44,1.31,-49.37,0,0.000,0.031,-0.201,0.101,0.000,0.000,0.000,0.000,0.000,0.000
3,0.3239,0.9067,0.0112,0.0077,0.0107,0.0065,-0.43,1.30,-49.32,0,0.000,0.275,-0.015,-0.274,0.000,0.000,0.000,0.000,0.000,0.000
3,0.3256,0.9070,0.0113,0.0161,0.0115,0.0066,-0.34,1.28,-49.27,0,0.000,0.085,0.022,-0.084,0.000,0.000,0.000,0.000,0.000,0.000
3,0.3253,0.9074,0.0114,0.0137,0.0123,0.0068,-0.34,1.30,-49.22,0,0.000,0.059,0.253,0.246,0.000,0.000,0.000,0.000,0.000,0.000
4,0.3254,0.9072,0.0114,0.0137,0.0106,0.0070,-0.37,1.31,-49.18,0,0.000,0.092,-0.051,0.099,0.000,0.000,0.000,0.000,0.000,0.000
4,0.3243,0.9056,0.0109,0.0066,0.0015,0.0043,-0.41,1.30,-49.13,0,0.000,-0.036,0.100,0.126,0.000,0.000,0.000,0.000,0.000,0.000
4,0.3240,0.9059,0.0109,0.0046,0.0030,0.0044,-0.39,1.31,-49.08,0,0.000,-0.402,-0.050,0.048,0.000,0.000,0.000,0.000,0.000,0.000
4,0.3243,0.9065,0.0110,0.0060,0.0055,0.0047,-0.33,1.35,-49.03,0,0.000,0.100,-0.089,0.100,0.000,0.000,0.000,0.000,0.000,0.000
4,0.3251,0.9072,0.0110,0.0098,0.0087,0.0048,-0.33,1.31,-48.99,0,0.000,-0.078,0.015,0.332,0.000,0.000,0.000,0.000,0.000,0.000
4,0.3248,0.9072,0.0107,0.0076,0.0081,0.0027,-0.33,1.30,-48.94,0,0.000,-0.147,-0.081,0.153,0.000,0.000,0.000,0.000,0.000,0.000
4,0.3231,0.9068,0.0107,-0.0019,0.0055,0.0028,-0.40,1.30,-48.89,0,0.000,0.085,0.134,-0.104,0.000,0.000,0.000,0.000,0.000,0.000
4,0.3237,0.9062,0.0107,0.0010,0.0016,0.0030,-0.30,1.31,-48.84,0,0.000,-0.029,0.092,-0.255,0.000,0.000,0.000,0.000,0.000,0.000
4,0.3237,0.9062,0.0108,0.0012,0.0012,0.0030,-0.41,1.34,-48.80,0,0.000,0.161,-0.043,-0.482,0.000,0.000,0.000,0.000,0.000,0.000
4,0.3250,0.9074,0.0108,0.0082,0.0069,0.0031,-0.36,1.31,-48.75,0,0.000,-0.178,-0.097,-0.011,0.000,0.000,0.000,0.000,0.000,0.000
4,0.3232,0.9061,0.0109,-0.0018,-0.0007,0.0037,-0.32,1.30,-48.71,0,0.000,-0.102,-0.052,0.080,0.000,0.000,0.000,0.000,0.000,0.000
4,0.3246,0.9082,0.0119,0.0057,0.0105,0.0088,-0.37,1.30,-48.66,0,0.000,0.142,0.154,-0.203,0.000,0.000,0.000,0.000,0.000,0.000
4,0.3242,0.9070,0.0120,0.0031,0.0031,0.0091,-0.37,1.30,-48.62,0,0.000,-0.009,-0.109,0.017,0.000,0.000,0.000,0.000,0.000,0.000
4,0.3235,0.9064,0.0121,-0.0008,-0.0005,0.0092,-0.15,1.24,-48.57,0,0.000,0.098,0.111,-0.518,0.000,0.000,0.000,0.000,0.000,0.000
4,0.3245,0.9073,0.0122,0.0044,0.0039,0.0092,-0.17,1.23,-48.52,0,0.000,-0.052,-0.073,0.220,0.000,0.000,0.000,0.000,0.000,0.000
4,0.3246,0.9073,0.0114,0.0043,0.0036,0.0046,-0.10,1.24,-48.48,0,0.000,-0.081,0.046,-0.035,0.000,0.000,0.000,0.000,0.000,0.000
4,0.3215,0.9028,0.0114,-0.0123,-0.0210,0.0048,-0.14,1.26,-48.43,0,0.000,0.353,-0.001,-0.322,0.000,0.000,0.000,0.000,0.000,0.000
4,0.3220,0.9026,0.0115,-0.0094,-0.0213,0.0051,-0.12,1.20,-48.39,0,0.000,-0.084,0.070,0.300,0.000,0.000,0.000,0.000,0.000,0.000
4,0.3205,0.9015,0.0115,-0.0173,-0.0260,0.0049,-0.18,1.34,-48.33,0,0.000,-0.154,-0.011,0.072,0.000,0.000,0.000,0.000,0.000,0.000
4,0.3207,0.9023,0.0116,-0.0154,-0.0206,0.0052,-0.19,1.25,-48.29,0,0.000,-0.144,-0.000,-0.045,0.000,0.000,0.000,0.000,0.000,0.000
4,0.3210,0.9008,0.0109,-0.0133,-0.0289,0.0011,-0.12,1.25,-48.24,0,0.000,-0.261,-0.196,0.313,0.000,0.000,0.000,0.000,0.000,0.000
4,0.3197,0.9038,0.0110,-0.0198,-0.0112,0.0015,-0.22,1.26,-48.20,0,0.000,-0.138,0.509,0.012,0.000,0.000,0.000,0.000,0.000,0.000
4,0.3211,0.9024,0.0111,-0.0119,-0.0191,0.0019,-0.22,1.25,-48.15,0,0.000,0.035,-0.001,0.046,0.000,0.000,0.000,0.000,0.000,0.000
4,0.3196,0.9010,0.0111,-0.0196,-0.0258,0.0018,-0.19,1.25,-48.10,0,0.000,0.019,-0.105,0.073,0.000,0.000,0.000,0.000,0.000,0.000
4,0.3211,0.9024,0.0112,-0.0109,-0.0178,0.0026,-0.20,1.28,-48.05,0,0.000,-0.054,-0.117,-0.311,0.000,0.000,0.000,0.000,0.000,0.000
4,0.3210,0.9022,0.0103,-0.0111,-0.0184,-0.0019,-0.21,1.25,-48.01,0,0.000,-0.129,-0.158,0.024,0.000,0.000,0.000,0.000,0.000,0.000
4,0.3203,0.9016,0.0103,-0.0142,-0.0213,-0.0019,-0.26,1.26,-47.96,0,0.000,0.129,0.101,0.001,0.000,0.000,0.000,0.000,0.000,0.000
4,0.3199,0.9021,0.0103,-0.0160,-0.0178,-0.0017,-0.26,1.24,-47.92,0,0.000,0.009,0.035,0.062,0.000,0.000,0.000,0.000,0.000,0.000
4,0.3203,0.9016,0.0102,-0.0130,-0.0201,-0.0017,-0.20,1.28,-47.87,0,0.000,-0.091,0.134,-0.209,0.000,0.000,0.000,0.000,0.000,0.000
4,0.3210,0.9023,0.0103,-0.0087,-0.0163,-0.0015,-0.21,1.27,-47.82,0,0.000,-0.039,0.029,0.025,0.000,0.000,0.000,0.000,0.000,0.000
4,0.3212,0.9018,0.0103,-0.0076,-0.0184,-0.0015,-0.25,1.27,-47.78,0,0.000,-0.014,0.037,0.324,0.000,0.000,0.000,0.000,0.000,0.000
4,0.3194,0.9014,0.0087,-0.0164,-0.0200,-0.0090,-0.23,1.27,-47.73,0,0.000,0.193,-0.178,-0.180,0.000,0.000,0.000,0.000,0.000,0.000
4,0.3196,0.9013,0.0086,-0.0148,-0.0203,-0.0090,-0.30,1.27,-47.68,0,0.000,0.092,0.068,0.216,0.000,0.000,0.000,0.000,0.000,0.000
4,0.3201,0.9017,0.0086,-0.0117,-0.0174,-0.0088,-0.22,1.23,-47.64,0,0.000,0.100,0.248,-0.224,0.000,0.000,0.000,0.000,0.000,0.000
4,0.3196,0.9010,0.0085,-0.0138,-0.0210,-0.0088,-0.34,1.28,-47.59,0,0.000,0.198,-0.057,-0.207,0.000,0.000,0.000,0.000,0.000,0.000
4,0.3208,0.9021,0.0082,-0.0072,-0.0147,-0.0094,-0.30,1.28,-47.55,0,0.000,-0.180,-0.074,0.026,0.000,0.000,0.000,0.000,0.000,0.000
4,0.3198,0.8999,0.0081,-0.0124,-0.0257,-0.0094,-0.34,1.27,-47.50,0,0.000,-0.038,0.179,0.034,0.000,0.000,0.000,0.000,0.000,0.000
4,0.3210,0.9026,0.0081,-0.0055,-0.0110,-0.0087,-0.51,1.24,-47.46,0,0.000,0.157,0.310,0.217,0.000,0.000,0.000,0.000,0.000,0.000
4,0.3202,0.9018,0.0080,-0.0096,-0.0146,-0.0087,-0.50,1.42,-47.40,0,0.000,0.216,-0.057,-0.108,0.000,0.000,0.000,0.000,0.000,0.000
4,0.3210,0.9023,0.0080,-0.0052,-0.0120,-0.0085,-0.37,1.41,-47.35,0,0.000,-0.226,-0.078,0.069,0.000,0.000,0.000,0.000,0.000,0.000
4,0.3244,0.9042,0.0079,0.0125,-0.0019,-0.0082,-0.37,1.40,-47.31,0,0.000,-0.029,-0.147,0.160,0.000,0.000,0.000,0.000,0.000,0.000
4,0.3213,0.9073,0.0102,-0.0040,0.0148,0.0036,-0.33,1.39,-47.26,0,0.000,-0.084,-0.075,-0.074,0.000,0.000,0.000,0.000,0.000,0.000
4,0.3191,0.9051,0.0103,-0.0150,0.0021,0.0041,-0.34,1.40,-47.22,0,0.000,-0.129,0.103,0.562,0.000,0.000,0.000,0.000,0.000,0.000
4,0.3190,0.9051,0.0104,-0.0151,0.0020,0.0043,-0.34,1.40,-47.17,0,0.000,0.005,0.101,0.205,0.000,0.000,0.000,0.000,0.000,0.000
4,0.3183,0.9041,0.0104,-0.0180,-0.0029,0.0045,-0.38,1.34,-47.13,0,0.000,-0.017,-0.248,-0.049,0.000,0.000,0.000,0.000,0.000,0.000
4,0.3182,0.9046,0.0090,-0.0177,-0.0006,-0.0025,-0.36,1.36,-47.08,0,0.000,0.032,-0.067,0.121,0.000,0.000,0.000,0.000,0.000,0.000
4,0.3181,0.9045,0.0090,-0.0177,-0.0017,-0.0024,-0.39,1.41,-47.03,0,0.000,-0.234,-0.351,-0.227,0.000,0.000,0.000,0.000,0.000,0.000
4,0.3195,0.9040,0.0090,-0.0095,-0.0047,-0.0020,-0.22,1.33,-46.99,0,0.000,-0.178,-0.343,-0.130,0.000,0.000,0.000,0.000,0.000,0.000
4,0.3186,0.9040,0.0090,-0.0141,-0.0048,-0.0019,-0.11,1.35,-46.94,0,0.000,-0.026,0.222,-0.056,0.000,0.000,0.000,0.000,0.000,0.000
5,0.3183,0.9053,0.0090,-0.0150,0.0019,-0.0019,-0.04,1.32,-46.90,0,0.000,-0.276,0.085,0.116,0.000,0.000,0.000,0.000,0.000,0.000
5,0.3164,0.9010,0.0090,-0.0241,-0.0204,-0.0020,-0.05,1.33,-46.85,0,0.000,0.099,-0.061,0.194,0.000,0.000,0.000,0.000,0.000,0.000
5,0.3139,0.8995,0.0093,-0.0365,-0.0276,-0.0001,0.02,1.33,-46.80,0,0.000,-0.177,0.032,0.083,0.000,0.000,0.000,0.000,0.000,0.000
5,0.3127,0.8976,0.0092,-0.0410,-0.0372,-0.0005,-0.12,1.34,-46.76,0,0.000,-0.072,-0.004,-0.366,0.000,0.000,0.000,0.000,0.000,0.000
5,0.3123,0.8974,0.0092,-0.0418,-0.0365,-0.0003,-0.13,1.35,-46.71,0,0.000,0.139,0.044,-0.144,0.000,0.000,0.000,0.000,0.000,0.000
5,0.3105,0.8958,0.0090,-0.0492,-0.0438,-0.0012,-0.07,1.32,-46.67,0,0.000,-0.303,0.171,0.102,0.000,0.000,0.000,0.000,0.000,0.000
5,0.3123,0.8978,0.0093,-0.0379,-0.0319,0.0005,-0.13,1.32,-46.62,0,0.000,-0.068,-0.028,0.153,0.000,0.000,0.000,0.000,0.000,0.000
5,0.3120,0.8978,0.0093,-0.0379,-0.0308,0.0007,-0.16,1.34,-46.58,0,0.000,0.061,0.063,0.123,0.000,0.000,0.000,0.000,0.000,0.000
5,0.3111,0.8960,0.0092,-0.0412,-0.0391,0.0002,-0.33,1.34,-46.53,0,0.000,-0.135,0.063,-0.203,0.000,0.000,0.000,0.000,0.000,0.000
5,0.3116,0.8968,0.0093,-0.0368,-0.0335,0.0010,-0.38,1.35,-46.48,0,0.000,0.224,0.059,-0.347,0.000,0.000,0.000,0.000,0.000,0.000
5,0.3114,0.8973,0.0094,-0.0360,-0.0299,0.0016,-0.55,1.33,-46.44,0,0.000,0.007,0.142,-0.058,0.000,0.000,0.000,0.000,0.000,0.000
5,0.3140,0.8997,0.0097,-0.0209,-0.0158,0.0035,-0.60,1.33,-46.40,0,0.000,-0.002,-0.277,0.136,0.000,0.000,0.000,0.000,0.000,0.000
5,0.3143,0.9006,0.0103,-0.0182,-0.0103,0.0065,-0.64,1.36,-46.35,0,0.000,0.031,-0.052,-0.119,0.000,0.000,0.000,0.000,0.000,0.000
5,0.3173,0.9029,0.0104,-0.0007,0.0022,0.0067,-0.64,1.34,-46.31,0,0.000,0.063,0.026,-0.140,0.000,0.000,0.000,0.000,0.000,0.000
5,0.3182,0.9038,0.0105,0.0047,0.0068,0.0065,-0.66,1.34,-46.26,0,0.000,-0.145,-0.173,0.193,0.000,0.000,0.000,0.000,0.000,0.000
5,0.3184,0.9052,0.0105,0.0056,0.0137,0.0063,-0.67,1.38,-46.22,0,0.000,0.111,-0.042,-0.169,0.000,0.000,0.000,0.000,0.000,0.000
5,0.3189,0.9050,0.0103,0.0080,0.0123,0.0055,-0.59,1.31,-46.17,0,0.000,-0.117,0.109,0.217,0.000,0.000,0.000,0.000,0.000,0.000
5,0.3192,0.9053,0.0104,0.0093,0.0136,0.0056,-0.63,1.33,-46.13,0,0.000,0.094,0.186,-0.173,0.000,0.000,0.000,0.000,0.000,0.000
5,0.3188,0.9064,0.0104,0.0065,0.0188,0.0056,-0.63,1.33,-46.08,0,0.000,-0.021,-0.329,-0.015,0.000,0.000,0.000,0.000,0.000,0.000
5,0.3186,0.9041,0.0106,0.0052,0.0058,0.0063,-0.84,1.32,-46.04,0,0.000,-0.139,0.068,-0.056,0.000,0.000,0.000,0.000,0.000,0.000
5,0.3190,0.9052,0.0106,0.0076,0.0112,0.0062,-0.64,1.26,-46.00,0,0.000,-0.186,-0.081,-0.513,0.000,0.000,0.000,0.000,0.000,0.000
5,0.3191,0.9053,0.0107,0.0077,0.0114,0.0062,-0.67,1.26,-45.96,0,0.000,-0.086,0.026,-0.115,0.000,0.000,0.000,0.000,0.000,0.000
5,0.3230,0.9087,0.0094,0.0282,0.0292,-0.0007,-0.62,1.25,-45.91,0,0.000,0.004,0.070,0.069,0.000,0.000,0.000,0.000,0.000,0.000
5,0.3207,0.9046,0.0097,0.0150,0.0060,0.0014,-0.59,1.22,-45.87,0,0.000,-0.218,0.110,-0.120,0.000,0.000,0.000,0.000,0.000,0.000
5,0.3213,0.9052,0.0097,0.0180,0.0089,0.0012,-0.65,1.36,-45.82,0,0.000,-0.085,-0.196,-0.191,0.000,0.000,0.000,0.000,0.000,0.000
5,0.3208,0.9044,0.0098,0.0149,0.0044,0.0015,-0.61,1.27,-45.78,0,0.000,0.052,0.041,-0.175,0.000,0.000,0.000,0.000,0.000,0.000
5,0.3208,0.9035,0.0099,0.0142,-0.0008,0.0021,-0.61,1.24,-45.74,0,0.000,-0.179,-0.132,0.041,0.000,0.000,0.000,0.000,0.000,0.000
5,0.3198,0.9068,0.0100,0.0079,0.0166,0.0023,-0.61,1.24,-45.69,0,0.000,0.084,0.038,-0.187,0.000,0.000,0.000,0.000,0.000,0.000
5,0.3207,0.9049,0.0100,0.0126,0.0056,0.0028,-0.62,1.26,-45.65,0,0.000,-0.114,0.034,-0.039,0.000,0.000,0.000,0.000,0.000,0.000
5,0.3211,0.9044,0.0101,0.0146,0.0027,0.0031,-0.76,1.28,-45.61,0,0.000,-0.046,-0.002,0.002,0.000,0.000,0.000,0.000,0.000,0.000
5,0.3213,0.9044,0.0101,0.0149,0.0028,0.0033,-0.60,1.30,-45.56,0,0.000,-0.110,0.044,-0.055,0.000,0.000,0.000,0.000,0.000,0.000
5,0.3213,0.9051,0.0101,0.0144,0.0062,0.0034,-0.63,1.31,-45.52,0,0.000,0.152,-0.255,-0.343,0.000,0.000,0.000,0.000,0.000,0.000
5,0.3236,0.9077,0.0096,0.0261,0.0192,0.0005,-0.84,1.32,-45.47,0,0.000,0.069,0.059,0.070,0.000,0.000,0.000,0.000,0.000,0.000
5,0.3207,0.9055,0.0098,0.0104,0.0072,0.0016,-0.82,1.29,-45.43,0,0.000,-0.402,0.034,0.161,0.000,0.000,0.000,0.000,0.000,0.000
5,0.3212,0.9063,0.0098,0.0125,0.0107,0.0018,-0.72,1.36,-45.39,0,0.000,-0.016,0.052,-0.412,0.000,0.000,0.000,0.000,0.000,0.000
5,0.3245,0.9102,0.0097,0.0290,0.0299,0.0013,-0.83,1.34,-45.35,0,0.000,-0.097,0.173,0.125,0.000,0.000,0.000,0.000,0.000,0.000
5,0.3251,0.9098,0.0090,0.0310,0.0267,-0.0020,-0.77,1.33,-45.30,0,0.000,-0.284,-0.171,0.100,0.000,0.000,0.000,0.000,0.000,0.000
5,0.3225,0.9095,0.0091,0.0163,0.0240,-0.0011,-0.74,1.33,-45.25,0,0.000,-0.241,0.115,0.028,0.000,0.000,0.000,0.000,0.000,0.000
5,0.3249,0.9112,0.0090,0.0281,0.0319,-0.0016,-0.60,1.27,-45.21,0,0.000,-0.048,0.036,0.087,0.000,0.000,0.000,0.000,0.000,0.000
5,0.3241,0.9104,0.0091,0.0228,0.0264,-0.0009,-0.52,1.26,-45.16,0,0.000,0.051,0.113,-0.354,0.000,0.000,0.000,0.000,0.000,0.000
5,0.3239,0.9102,0.0091,0.0210,0.0243,-0.0005,-0.55,1.34,-45.12,0,0.000,0.133,-0.189,-0.230,0.000,0.000,0.000,0.000,0.000,0.000
5,0.3226,0.9070,0.0093,0.0135,0.0065,0.0008,-0.50,1.34,-45.08,0,0.000,0.225,0.015,-0.101,0.000,0.000,0.000,0.000,0.000,0.000
5,0.3215,0.9056,0.0092,0.0074,-0.0014,0.0005,-0.50,1.34,-45.03,0,0.000,-0.217,-0.013,0.135,0.000,0.000,0.000,0.000,0.000,0.000
5,0.3207,0.9073,0.0092,0.0031,0.0075,0.0009,-0.53,1.36,-44.99,0,0.000,-0.104,-0.090,-0.105,0.000,0.000,0.000,0.000,0.000,0.000
5,0.3199,0.9069,0.0092,-0.0010,0.0045,0.0012,-0.51,1.32,-44.95,0,0.000,-0.023,-0.250,0.021,0.000,0.000,0.000,0.000,0.000,0.000
5,0.3199,0.9069,0.0092,-0.0009,0.0042,0.0014,-0.50,1.33,-44.90,0,0.000,0.013,0.126,0.096,0.000,0.000,0.000,0.000,0.000,0.000
5,0.3201,0.9077,0.0092,-0.0001,0.0080,0.0009,-0.50,1.33,-44.86,0,0.000,0.078,-0.135,-0.266,0.000,0.000,0.000,0.000,0.000,0.000
5,0.3204,0.9067,0.0092,0.0015,0.0023,0.0011,-0.50,1.33,-44.82,0,0.000,0.082,0.242,0.041,0.000,0.000,0.000,0.000,0.000,0.000
5,0.3201,0.9067,0.0092,-0.0001,0.0023,0.0013,-0.22,1.32,-44.77,0,0.000,-0.038,0.058,0.187,0.000,0.000,0.000,0.000,0.000,0.000
5,0.3201,0.9068,0.0092,0.0000,0.0022,0.0014,-0.19,1.35,-44.73,0,0.000,0.114,0.083,0.204,0.000,0.000,0.000,0.000,0.000,0.000
5,0.3201,0.9068,0.0092,0.0003,0.0020,0.0016,-0.27,1.35,-44.69,0,0.000,-0.018,-0.007,-0.017,0.000,0.000,0.000,0.000,0.000,0.000
5,0.3153,0.9019,0.0092,-0.0245,-0.0235,0.0014,-0.22,1.35,-44.64,0,0.000,-0.069,-0.062,-0.222,0.000,0.000,0.000,0.000,0.000,0.000
5,0.3139,0.9016,0.0095,-0.0304,-0.0242,0.0031,-0.24,1.32,-44.60,0,0.000,0.038,-0.168,-0.373,0.000,0.000,0.000,0.000,0.000,0.000
5,0.3150,0.9027,0.0097,-0.0235,-0.0177,0.0037,0.01,1.12,-44.55,0,0.000,-0.273,0.023,0.053,0.000,0.000,0.000,0.000,0.000,0.000
5,0.3140,0.9017,0.0097,-0.0278,-0.0224,0.0036,0.00,0.00,0.00,0,0.000,0.138,-0.113,-0.212,0.000,0.000,0.000,0.000,0.000,0.000
5,0.3144,0.9014,0.0097,-0.0246,-0.0233,0.0040,0.00,0.00,-0.00,0,0.000,0.079,0.156,0.014,0.000,0.000,0.000,0.000,0.000,0.000
5,0.3135,0.8931,0.0088,-0.0284,-0.0656,-0.0009,0.00,0.00,-0.00,0,0.000,0.087,-0.085,0.372,0.000,0.000,0.000,0.000,0.000,0.000
5,0.0000,0.0000,0.0000,0.0012,0.0042,0.0001,0.06,-0.00,-0.00,0,0.000,-0.030,-0.041,-0.193,0.000,0.000,0.000,0.000,0.000,0.000
5,0.0000,0.0001,0.0000,0.0037,0.0034,0.0003,0.26,0.00,-0.00,0,0.000,0.019,-0.023,0.124,0.000,0.000,0.000,0.000,0.000,0.000
6,0.0001,0.0001,-0.1654,0.0067,0.0023,0.0004,0.75,-0.07,-0.00,0,0.000,-0.181,-0.234,0.381,0.000,0.000,0.000,0.000,0.000,0.000
6,0.0002,-0.0000,0.2414,0.0098,-0.0026,0.0003,0.59,-0.11,0.00,0,0.000,-0.182,0.119,0.235,0.000,0.000,0.000,0.000,0.000,0.000
6,0.0003,-0.0005,-0.1083,0.0110,-0.0160,0.0001,0.81,-0.17,0.00,0,0.000,0.055,0.142,0.167,0.000,0.000,0.000,0.000,0.000,0.000
6,0.0006,-0.0018,0.0128,0.0176,-0.0412,0.0000,0.80,-0.04,0.00,0,0.000,-0.004,0.137,0.295,0.000,0.000,0.000,0.000,0.000,0.000
6,0.0008,-0.0019,0.0129,0.0218,-0.0365,0.0005,1.20,0.01,0.00,0,0.000,0.070,-0.076,0.020,0.000,0.000,0.000,0.000,0.000,0.000
6,0.0012,-0.0028,0.0127,0.0273,-0.0472,0.0002,1.06,-0.03,0.00,0,0.000,-0.183,0.054,-0.058,0.000,0.000,0.000,0.000,0.000,0.000
6,0.0012,-0.0032,0.0128,0.0247,-0.0492,0.0005,0.77,0.04,0.00,0,0.000,0.016,-0.172,0.044,0.000,0.000,0.000,0.000,0.000,0.000
6,0.0013,-0.0047,0.0107,0.0253,-0.0663,-0.0022,0.77,0.04,-0.00,0,0.000,-0.075,0.417,-0.082,0.000,0.000,0.000,0.000,0.000,0.000
6,0.0017,-0.0050,0.0107,0.0290,-0.0638,-0.0019,0.62,0.17,-0.00,0,0.000,0.091,0.261,0.055,0.000,0.000,0.000,0.000,0.000,0.000
6,0.0018,-0.0049,0.0109,0.0290,-0.0560,-0.0012,0.62,0.17,-0.00,0,0.000,-0.043,-0.019,0.163,0.000,0.000,0.000,0.000,0.000,0.000
6,0.0021,-0.0055,0.0109,0.0314,-0.0582,-0.0012,0.34,0.26,0.00,0,0.000,-0.032,0.032,0.225,0.000,0.000,0.000,0.000,0.000,0.000
6,0.0021,-0.0057,0.0109,0.0290,-0.0550,-0.0006,0.32,0.28,0.00,0,0.000,-0.118,-0.212,-0.252,0.000,0.000,0.000,0.000,0.000,0.000
6,0.0024,-0.0062,0.0109,0.0311,-0.0569,-0.0004,0.13,0.36,0.00,0,0.000,-0.080,0.085,-0.007,0.000,0.000,0.000,0.000,0.000,0.000
6,0.0024,-0.0059,0.0089,0.0299,-0.0484,-0.0073,0.13,0.36,0.00,0,0.000,-0.285,0.032,-0.025,0.000,0.000,0.000,0.000,0.000,0.000
6,0.0026,-0.0063,0.0088,0.0310,-0.0492,-0.0074,0.47,0.57,0.00,0,0.000,-0.025,0.141,0.283,0.000,0.000,0.000,0.000,0.000,0.000
6,0.0026,-0.0061,0.0088,0.0298,-0.0433,-0.0069,0.92,0.41,-0.00,0,0.000,-0.103,0.127,-0.150,0.000,0.000,0.000,0.000,0.000,0.000
6,0.0029,-0.0065,0.0088,0.0316,-0.0444,-0.0068,0.93,0.39,-0.00,0,0.000,0.179,0.205,-0.199,0.000,0.000,0.000,0.000,0.000,0.000
6,0.0024,-0.0083,0.0080,0.0250,-0.0595,-0.0106,0.00,0.47,0.00,0,0.000,-0.117,-0.184,-0.307,0.000,0.000,0.000,0.000,0.000,0.000
6,0.0033,-0.0109,0.0077,0.0329,-0.0803,-0.0116,0.64,0.60,-0.00,0,0.000,-0.017,0.023,-0.076,0.000,0.000,0.000,0.000,0.000,0.000
6,0.0038,-0.0117,0.0076,0.0358,-0.0832,-0.0114,0.37,0.67,-0.00,0,0.000,-0.255,-0.190,-0.039,0.000,0.000,0.000,0.000,0.000,0.000
6,0.0037,-0.0082,0.0080,0.0339,-0.0452,-0.0076,-0.09,0.51,0.00,0,0.000,-0.014,-0.055,-0.478,0.000,0.000,0.000,0.000,0.000,0.000
6,0.0034,-0.0118,0.0078,0.0296,-0.0746,-0.0084,-0.14,0.59,-0.00,0,0.000,0.034,0.011,0.005,0.000,0.000,0.000,0.000,0.000,0.000
6,0.0034,-0.0112,0.0079,0.0278,-0.0644,-0.0071,-0.27,1.03,0.00,0,0.000,-0.003,0.087,0.151,0.000,0.000,0.000,0.000,0.000,0.000
6,0.0046,-0.0094,0.0080,0.0369,-0.0445,-0.0057,-0.30,0.98,0.00,0,0.000,0.261,-0.197,-0.261,0.000,0.000,0.000,0.000,0.000,0.000
6,0.0045,-0.0095,0.0079,0.0345,-0.0429,-0.0053,0.18,1.01,-0.00,0,0.000,-0.052,0.078,0.115,0.000,0.000,0.000,0.000,0.000,0.000
6,0.0022,-0.0092,0.0080,0.0139,-0.0373,-0.0046,0.11,0.93,-0.00,0,0.000,0.074,-0.038,-0.081,0.000,0.000,0.000,0.000,0.000,0.000
6,0.0027,-0.0094,0.0079,0.0175,-0.0362,-0.0043,0.11,0.93,-0.00,0,0.000,-0.065,-0.261,-0.411,0.000,0.000,0.000,0.000,0.000,0.000
6,0.0027,-0.0128,0.0083,0.0168,-0.0613,-0.0020,-0.01,1.12,-0.00,0,0.000,0.078,0.203,-0.111,0.000,0.000,0.000,0.000,0.000,0.000
6,0.0034,-0.0130,0.0083,0.0219,-0.0584,-0.0016,0.12,1.22,-0.01,0,0.000,0.049,0.098,-0.187,0.000,0.000,0.000,0.000,0.000,0.000
6,0.0036,-0.0136,0.0083,0.0228,-0.0595,-0.0015,-0.09,1.09,-0.00,0,0.000,0.041,-0.019,-0.193,0.000,0.000,0.000,0.000,0.000,0.000
6,0.0024,-0.0134,0.0083,0.0129,-0.0545,-0.0010,-0.44,1.21,0.00,0,0.000,0.178,0.254,-0.119,0.000,0.000,0.000,0.000,0.000,0.000
9,0.0018,-0.0148,0.0083,0.0079,-0.0623,-0.0013,-0.33,1.23,0.00,0,0.000,-0.150,-0.232,-0.334,0.000,0.000,0.000,0.000,0.000,0.000
9,0.0029,-0.0138,0.0084,0.0157,-0.0513,-0.0002,-0.39,1.18,0.00,0,0.000,-0.059,-0.055,0.072,0.000,0.000,0.000,0.000,0.000,0.000
9,0.0020,-0.0115,0.0083,0.0088,-0.0314,-0.0004,-0.38,1.28,0.00,0,0.000,0.139,-0.146,-0.141,0.000,0.000,0.000,0.000,0.000,0.000
9,0.0020,-0.0128,0.0083,0.0083,-0.0383,-0.0003,-0.37,1.29,-0.00,0,0.000,-0.049,-0.251,0.092,0.000,0.000,0.000,0.000,0.000,0.000
9,0.0025,-0.0127,0.0083,0.0116,-0.0353,0.0001,-0.56,1.27,0.00,0,0.000,-0.032,0.173,-0.004,0.000,0.000,0.000,0.000,0.000,0.000
9,0.0017,-0.0131,0.0083,0.0051,-0.0361,0.0003,-0.29,1.27,-0.00,0,0.000,-0.263,-0.149,-0.113,0.000,0.000,0.000,0.000,0.000,0.000
9,0.0017,-0.0135,0.0073,0.0047,-0.0363,-0.0049,-0.69,1.28,0.01,0,0.000,0.056,0.051,-0.040,0.000,0.000,0.000,0.000,0.000,0.000
9,0.0019,-0.0121,0.0073,0.0063,-0.0241,-0.0048,-0.60,1.29,0.01,0,0.000,-0.107,0.028,-0.134,0.000,0.000,0.000,0.000,0.000,0.000
9,0.0019,-0.0149,0.0072,0.0059,-0.0420,-0.0051,0.01,1.17,-0.01,0,0.000,0.086,-0.236,-0.309,0.000,0.000,0.000,0.000,0.000,0.000
9,0.0019,-0.0113,0.0073,0.0055,-0.0154,-0.0043,0.10,1.21,-0.02,0,0.000,-0.183,-0.046,-0.057,0.000,0.000,0.000,0.000,0.000,0.000
9,0.0019,-0.0124,0.0072,0.0053,-0.0209,-0.0041,-0.16,1.36,-0.01,0,0.000,-0.022,0.233,-0.013,0.000,0.000,0.000,0.000,0.000,0.000
9,0.0032,-0.0191,0.0073,0.0138,-0.0641,-0.0043,-0.31,1.29,-0.01,0,0.000,-0.026,-0.071,0.229,0.000,0.000,0.000,0.000,0.000,0.000
9,0.0029,-0.0208,0.0075,0.0114,-0.0716,-0.0028,-0.31,1.29,-0.01,0,0.000,0.123,-0.319,-0.149,0.000,0.000,0.000,0.000,0.000,0.000
9,0.0013,-0.0186,0.0077,0.0008,-0.0537,-0.0012,-0.25,1.30,-0.01,0,0.000,0.042,0.254,-0.045,0.000,0.000,0.000,0.000,0.000,0.000
9,0.0021,-0.0174,0.0078,0.0055,-0.0434,-0.0003,-0.76,1.27,0.01,0,0.000,-0.148,-0.074,-0.149,0.000,0.000,0.000,0.000,0.000,0.000
9,0.0021,-0.0178,0.0078,0.0055,-0.0436,0.0000,-0.45,1.37,-0.00,0,0.000,-1.048,-0.260,0.063,0.000,0.000,0.000,0.000,0.000,0.000
9,0.0021,-0.0191,0.0083,0.0052,-0.0491,0.0029,-0.54,1.34,-0.00,0,0.000,0.624,-0.113,0.167,0.000,0.000,0.000,0.000,0.000,0.000
9,0.0024,-0.0132,0.0085,0.0066,-0.0100,0.0043,-0.53,1.34,-0.00,0,0.000,-0.421,-0.593,0.859,0.000,0.000,0.000,0.000,0.000,0.000
9,0.0013,-0.0172,0.0086,-0.0004,-0.0335,0.0045,-0.54,1.35,0.00,0,0.000,-1.230,-1.850,1.194,0.000,0.000,0.000,0.000,0.000,0.000
9,0.0015,-0.0166,0.0087,0.0013,-0.0276,0.0050,-0.61,1.31,0.01,0,0.000,0.057,-0.485,-0.297,0.000,0.000,0.000,0.000,0.000,0.000
9,0.0015,-0.0168,0.0088,0.0012,-0.0275,0.0050,-0.61,1.36,0.00,0,0.000,-0.704,-0.092,-0.035,0.000,0.000,0.000,0.000,0.000,0.000
9,0.0015,-0.0171,0.0088,-0.0011,-0.0266,0.0050,-0.62,1.36,0.00,0,0.000,-1.259,-1.956,-0.804,0.000,0.000,0.000,0.000,0.000,0.000
9,0.0022,-0.0163,0.0076,0.0003,-0.0196,-0.0011,-0.14,1.45,-0.02,0,0.000,-1.961,-1.624,0.408,0.000,0.000,0.000,0.000,0.000,0.000
9,0.0015,-0.0165,0.0075,-0.0055,-0.0185,-0.0011,-0.63,1.54,-0.00,0,0.000,-1.754,-1.604,0.112,0.000,0.000,0.000,0.000,0.000,0.000
9,0.0015,-0.0167,0.0075,-0.0078,-0.0175,-0.0008,-0.68,1.61,-0.00,0,0.000,-1.983,-1.920,-0.142,0.000,0.000,0.000,0.000,0.000,0.000
9,0.0002,-0.0241,0.0075,-0.0169,-0.0574,-0.0017,-0.64,1.54,-0.01,0,0.000,-1.093,-0.866,-0.537,0.000,0.000,0.000,0.000,0.000,0.000
9,-0.0010,-0.0175,0.0075,-0.0252,-0.0171,-0.0007,-0.59,1.53,-0.01,0,0.000,-0.915,-0.960,-0.232,0.000,0.000,0.000,0.000,0.000,0.000
9,-0.0022,-0.0171,0.0075,-0.0328,-0.0128,-0.0013,-0.65,1.51,-0.01,0,0.000,0.853,0.426,-1.626,0.000,0.000,0.000,0.000,0.000,0.000
9,-0.0012,-0.0182,0.0076,-0.0281,-0.0170,-0.0005,-0.76,1.49,-0.02,0,0.000,-2.257,-1.689,1.705,0.000,0.000,0.000,0.000,0.000,0.000
9,-0.0011,-0.0193,0.0076,-0.0288,-0.0209,0.0006,-0.88,1.48,0.00,0,0.000,2.330,1.048,-0.766,0.000,0.000,0.000,0.000,0.000,0.000
10,-0.0010,-0.0187,0.0076,-0.0292,-0.0153,0.0010,-0.79,1.44,-0.00,0,0.000,5.711,4.880,-3.685,0.000,0.000,0.000,0.000,0.000,0.000
10,-0.0009,-0.0168,0.0076,-0.0297,-0.0034,0.0008,-0.64,1.37,-0.04,0,0.000,2.122,1.272,2.334,0.000,0.000,0.000,0.000,0.000,0.000
10,-0.0008,-0.0151,0.0078,-0.0303,0.0073,0.0034,-0.59,1.33,-0.03,0,0.000,-0.966,-0.598,-0.691,0.000,0.000,0.000,0.000,0.000,0.000
10,-0.0006,-0.0163,0.0079,-0.0301,0.0018,0.0033,-0.60,1.33,-0.03,0,0.000,-2.829,-3.743,-3.565,0.000,0.000,0.000,0.000,0.000,0.000
10,-0.0005,-0.0181,0.0080,-0.0300,-0.0065,0.0026,-0.66,1.41,-0.06,0,0.000,-2.982,-2.045,-4.482,0.000,0.000,0.000,0.000,0.000,0.000
10,-0.0004,-0.0186,0.0080,-0.0301,-0.0077,0.0022,-0.70,1.38,-0.11,0,0.000,-2.600,-2.685,-14.284,0.000,0.000,0.000,0.000,0.000,0.000
10,-0.0008,-0.0187,0.0097,-0.0327,-0.0067,0.0096,-0.66,1.38,-0.25,0,0.000,-1.750,-1.828,-18.452,0.000,0.000,0.000,0.000,0.000,0.000
10,-0.0018,-0.0180,0.0098,-0.0389,-0.0018,0.0096,-0.76,1.38,-0.42,0,0.000,0.184,2.069,-15.702,0.000,0.000,0.000,0.000,0.000,0.000
10,-0.0015,-0.0179,0.0099,-0.0373,-0.0002,0.0110,-0.72,1.36,-0.58,0,0.000,2.218,1.193,-17.575,0.000,0.000,0.000,0.000,0.000,0.000
10,-0.0014,-0.0190,0.0100,-0.0375,-0.0046,0.0119,-0.65,1.57,-0.77,0,0.000,-9.814,-6.461,-18.883,0.000,0.000,0.000,0.000,0.000,0.000
10,-0.0013,-0.0173,0.0102,-0.0372,0.0058,0.0112,-0.58,1.78,-0.97,0,0.000,-2.086,-0.062,-20.118,0.000,0.000,0.000,0.000,0.000,0.000
10,-0.0014,-0.0179,0.0115,-0.0383,0.0036,0.0174,-0.53,1.70,-1.17,0,0.000,7.503,6.987,-12.269,0.000,0.000,0.000,0.000,0.000,0.000
10,-0.0062,-0.0188,0.0115,-0.0628,0.0000,0.0189,-0.45,1.63,-1.30,0,0.000,6.639,7.724,-9.805,0.000,0.000,0.000,0.000,0.000,0.000
10,-0.0097,-0.0216,0.0116,-0.0804,-0.0131,0.0186,-0.36,1.56,-1.40,0,0.000,1.779,0.218,-16.575,0.000,0.000,0.000,0.000,0.000,0.000
10,-0.0086,-0.0233,0.0119,-0.0735,-0.0201,0.0175,-0.12,1.07,-1.56,0,0.000,4.081,3.679,-14.856,0.000,0.000,0.000,0.000,0.000,0.000
10,-0.0093,-0.0235,0.0121,-0.0764,-0.0193,0.0193,-0.07,1.02,-1.72,0,0.000,-0.759,1.777,-11.708,0.000,0.000,0.000,0.000,0.000,0.000
10,-0.0100,-0.0243,0.0106,-0.0789,-0.0216,0.0123,-0.09,1.03,-1.84,0,0.000,-2.582,-0.936,-16.998,0.000,0.000,0.000,0.000,0.000,0.000
10,-0.0012,-0.0290,0.0113,-0.0323,-0.0438,0.0149,-0.11,1.04,-2.00,0,0.000,-1.624,-1.055,-9.541,0.000,0.000,0.000,0.000,0.000,0.000
10,-0.0014,-0.0297,0.0114,-0.0333,-0.0451,0.0154,0.02,1.05,-2.11,0,0.000,-3.135,-4.030,-4.703,0.000,0.000,0.000,0.000,0.000,0.000
10,-0.0021,-0.0295,0.0116,-0.0372,-0.0416,0.0164,-0.13,1.12,-2.16,0,0.000,-11.374,-9.076,-7.641,0.000,0.000,0.000,0.000,0.000,0.000
10,-0.0025,-0.0300,0.0118,-0.0390,-0.0414,0.0158,-0.53,1.36,-2.22,0,0.000,-4.584,-5.676,-6.407,0.000,0.000,0.000,0.000,0.000,0.000
10,-0.0028,-0.0332,0.0114,-0.0402,-0.0558,0.0144,-0.58,1.41,-2.29,0,0.000,6.062,9.611,-5.315,0.000,0.000,0.000,0.000,0.000,0.000
10,-0.0039,-0.0313,0.0117,-0.0458,-0.0430,0.0151,-0.52,1.33,-2.34,0,0.000,9.507,8.011,-6.656,0.000,0.000,0.000,0.000,0.000,0.000
10,-0.0075,-0.0252,0.0120,-0.0633,-0.0090,0.0149,-0.43,1.25,-2.41,0,0.000,4.726,3.338,-7.958,0.000,0.000,0.000,0.000,0.000,0.000
10,-0.0081,-0.0252,0.0121,-0.0657,-0.0079,0.0143,-0.39,1.23,-2.49,0,0.000,-2.939,0.718,-11.055,0.000,0.000,0.000,0.000,0.000,0.000
10,-0.0088,-0.0253,0.0123,-0.0679,-0.0069,0.0145,-0.41,1.23,-2.60,0,0.000,-3.957,-5.744,-7.916,0.000,0.000,0.000,0.000,0.000,0.000
10,-0.0088,-0.0253,0.0122,-0.0679,-0.0069,0.0138,-0.45,1.29,-2.67,0,0.000,-4.403,-3.408,-0.017,0.000,0.000,0.000,0.000,0.000,0.000
10,-0.0095,-0.0254,0.0123,-0.0701,-0.0060,0.0162,-0.50,1.32,-2.67,0,0.000,-1.234,-1.599,1.858,0.000,0.000,0.000,0.000,0.000,0.000
10,-0.0102,-0.0254,0.0125,-0.0721,-0.0053,0.0154,-0.51,1.33,-2.66,0,0.000,5.136,6.304,-4.735,0.000,0.000,0.000,0.000,0.000,0.000
10,-0.0109,-0.0255,0.0126,-0.0742,-0.0045,0.0135,-0.45,1.28,-2.71,0,0.000,1.826,5.395,-8.037,0.000,0.000,0.000,0.000,0.000,0.000
10,-0.0116,-0.0255,0.0128,-0.0764,-0.0036,0.0147,-0.41,1.24,-2.79,0,0.000,4.666,6.711,-9.094,0.000,0.000,0.000,0.000,0.000,0.000
10,-0.0124,-0.0256,0.0129,-0.0786,-0.0026,0.0173,-0.35,1.18,-2.88,0,0.000,5.463,6.544,-9.088,0.000,0.000,0.000,0.000,0.000,0.000
10,-0.0131,-0.0256,0.0117,-0.0806,-0.0016,0.0078,-0.28,1.12,-2.97,0,0.000,3.823,2.957,-10.787,0.000,0.000,0.000,0.000,0.000,0.000
10,-0.0140,-0.0256,0.0118,-0.0828,-0.0007,0.0099,-0.25,1.09,-3.08,0,0.000,3.972,-2.465,-12.817,0.000,0.000,0.000,0.000,0.000,0.000
10,-0.0148,-0.0256,0.0119,-0.0849,0.0001,0.0105,-0.23,1.10,-3.21,0,0.000,-3.646,0.766,-7.953,0.000,0.000,0.000,0.000,0.000,0.000
10,-0.0157,-0.0256,0.0120,-0.0868,0.0008,0.0079,-0.25,1.11,-3.28,0,0.000,-7.333,-6.336,-4.005,0.000,0.000,0.000,0.000,0.000,0.000
10,-0.0165,-0.0256,0.0105,-0.0885,0.0014,0.0006,-0.33,1.18,-3.32,0,0.000,-13.574,-18.849,-1.436,0.000,0.000,0.000,0.000,0.000,0.000
10,-0.0174,-0.0255,0.0105,-0.0903,0.0019,0.0009,-0.48,1.36,-3.34,0,0.000,-15.110,-6.263,-4.013,0.000,0.000,0.000,0.000,0.000,0.000
10,-0.0183,-0.0255,0.0105,-0.0922,0.0024,-0.0006,-0.59,1.42,-3.37,0,0.000,18.273,10.753,-0.066,0.000,0.000,0.000,0.000,0.000,0.000
10,-0.0192,-0.0255,0.0105,-0.0940,0.0030,0.0001,-0.41,1.30,-3.38,0,0.000,18.275,25.835,2.235,0.000,0.000,0.000,0.000,0.000,0.000
10,-0.0202,-0.0255,0.0105,-0.0960,0.0037,-0.0005,-0.23,1.04,-3.36,0,0.000,28.528,21.618,1.402,0.000,0.000,0.000,0.000,0.000,0.000
10,-0.0211,-0.0254,0.0105,-0.0984,0.0047,0.0029,0.00,0.82,-3.34,0,0.000,9.969,5.850,2.177,0.000,0.000,0.000,0.000,0.000,0.000
10,-0.0221,-0.0254,0.0103,-0.1007,0.0058,0.0012,0.09,0.74,-3.32,0,0.000,-4.472,4.591,3.161,0.000,0.000,0.000,0.000,0.000,0.000
10,-0.0231,-0.0253,0.0103,-0.1028,0.0066,-0.0040,0.03,0.69,-3.29,0,0.000,-5.934,1.336,7.960,0.000,0.000,0.000,0.000,0.000,0.000
10,-0.0242,-0.0252,0.0103,-0.1046,0.0071,0.0021,-0.01,0.70,-3.21,0,0.000,4.856,-10.532,9.289,0.000,0.000,0.000,0.000,0.000,0.000
10,-0.0252,-0.0252,0.0103,-0.1061,0.0072,0.0094,0.02,0.78,-3.11,0,0.000,-2.267,4.482,14.699,0.000,0.000,0.000,0.000,0.000,0.000
10,-0.0263,-0.0251,0.0102,-0.1074,0.0071,0.0042,0.01,0.76,-2.97,0,0.000,0.598,-4.231,10.038,0.000,0.000,0.000,0.000,0.000,0.000
10,-0.0274,-0.0250,0.0103,-0.1085,0.0071,0.0012,-0.00,0.79,-2.87,0,0.000,-1.790,-8.470,12.666,0.000,0.000,0.000,0.000,0.000,0.000
10,-0.0285,-0.0250,0.0103,-0.1097,0.0072,-0.0016,-0.04,0.85,-2.75,0,0.000,-4.561,4.024,12.809,0.000,0.000,0.000,0.000,0.000,0.000
10,-0.0296,-0.0249,0.0102,-0.1109,0.0072,-0.0052,-0.05,0.82,-2.62,0,0.000,11.138,7.183,12.362,0.000,0.000,0.000,0.000,0.000,0.000
10,-0.0307,-0.0248,0.0102,-0.1123,0.0073,-0.0014,0.04,0.75,-2.50,0,0.000,2.413,8.550,8.497,0.000,0.000,0.000,0.000,0.000,0.000
10,-0.0318,-0.0247,0.0102,-0.1137,0.0074,0.0029,0.06,0.67,-2.41,0,0.000,-2.409,-6.140,5.940,0.000,0.000,0.000,0.000,0.000,0.000
10,-0.0330,-0.0247,0.0106,-0.1152,0.0075,0.0052,0.04,0.72,-2.35,0,0.000,-2.960,-1.264,7.514,0.000,0.000,0.000,0.000,0.000,0.000
10,-0.0341,-0.0246,0.0106,-0.1166,0.0076,0.0056,0.01,0.73,-2.28,0,0.000,6.024,5.526,5.832,0.000,0.000,0.000,0.000,0.000,0.000
10,-0.0353,-0.0245,0.0107,-0.1179,0.0076,0.0075,0.06,0.69,-2.22,0,0.000,5.078,2.574,5.222,0.000,0.000,0.000,0.000,0.000,0.000
10,-0.0365,-0.0244,0.0107,-0.1190,0.0076,0.0056,0.09,0.67,-2.16,0,0.000,-7.416,-1.563,8.216,0.000,0.000,0.000,0.000,0.000,0.000
10,-0.0377,-0.0244,0.0105,-0.1202,0.0075,-0.0003,0.03,0.69,-2.08,0,0.000,-3.823,-1.374,13.147,0.000,0.000,0.000,0.000,0.000,0.000
10,-0.0389,-0.0243,0.0105,-0.1215,0.0076,0.0020,-0.01,0.70,-1.95,0,0.000,1.416,1.862,13.045,0.000,0.000,0.000,0.000,0.000,0.000
10,-0.0401,-0.0242,0.0105,-0.1227,0.0075,0.0053,0.02,0.66,-1.81,0,0.000,10.646,12.106,11.001,0.000,0.000,0.000,0.000,0.000,0.000
11,-0.0413,-0.0241,0.0106,-0.1239,0.0074,0.0065,0.12,0.56,-1.70,0,0.000,1.745,-2.294,10.766,0.000,0.000,0.000,0.000,0.000,0.000
11,-0.0426,-0.0241,0.0106,-0.1251,0.0074,0.0059,0.14,0.58,-1.59,0,0.000,-2.284,-2.221,11.217,0.000,0.000,0.000,0.000,0.000,0.000
11,-0.0440,-0.0240,0.0104,-0.1264,0.0074,0.0049,0.11,0.59,-1.48,0,0.000,-2.627,5.949,8.735,0.000,0.000,0.000,0.000,0.000,0.000
11,-0.0452,-0.0239,0.0105,-0.1275,0.0074,0.0040,0.09,0.56,-1.39,0,0.000,2.511,-7.659,7.019,0.000,0.000,0.000,0.000,0.000,0.000
11,-0.0465,-0.0238,0.0105,-0.1285,0.0073,0.0032,-0.03,0.35,-1.31,0,0.000,-4.226,9.991,9.817,0.000,0.000,0.000,0.000,0.000,0.000
11,-0.0478,-0.0238,0.0105,-0.1295,0.0071,0.0028,0.08,0.11,-1.22,0,0.000,4.209,2.420,8.638,0.000,0.000,0.000,0.000,0.000,0.000
11,-0.0491,-0.0237,0.0106,-0.1305,0.0069,0.0042,0.30,-0.17,-1.13,0,0.000,6.001,-0.620,8.362,0.000,0.000,0.000,0.000,0.000,0.000
11,-0.0368,-0.0172,0.0094,-0.0898,0.0263,-0.0017,0.41,-0.20,-1.04,0,0.000,-1.006,6.219,9.818,0.000,0.000,0.000,0.000,0.000,0.000
11,-0.0305,-0.0244,0.0095,-0.0689,0.0040,-0.0026,0.52,-0.30,-0.94,0,0.000,-9.430,4.390,9.409,0.000,0.000,0.000,0.000,0.000,0.000
11,-0.0190,-0.0339,0.0096,-0.0328,-0.0248,0.0013,0.60,-0.42,-0.85,0,0.000,-5.884,-4.712,8.678,0.000,0.000,0.000,0.000,0.000,0.000
11,-0.0173,-0.0372,0.0095,-0.0265,-0.0345,0.0008,0.96,-0.39,-0.75,0,0.000,-4.876,0.006,9.035,0.000,0.000,0.000,0.000,0.000,0.000
11,-0.0160,-0.0448,0.0094,-0.0215,-0.0565,-0.0027,0.88,-0.43,-0.66,0,0.000,0.440,4.842,9.904,0.000,0.000,0.000,0.000,0.000,0.000
11,-0.0114,-0.0538,0.0091,-0.0069,-0.0823,-0.0046,1.28,-0.49,-0.56,0,0.000,8.218,8.559,9.761,0.000,0.000,0.000,0.000,0.000,0.000
11,-0.0117,-0.0759,0.0097,-0.0068,-0.1460,-0.0023,1.32,-0.56,-0.45,0,0.000,10.369,9.376,9.055,0.000,0.000,0.000,0.000,0.000,0.000
11,-0.0099,-0.0758,0.0097,-0.0006,-0.1430,-0.0007,1.35,-0.62,-0.37,0,0.000,-2.777,-5.069,8.435,0.000,0.000,0.000,0.000,0.000,0.000
11,-0.0095,-0.0963,0.0084,0.0010,-0.2004,-0.0092,1.48,-0.61,-0.28,0,0.000,-15.966,1.509,10.078,0.000,0.000,0.000,0.000,0.000,0.000
11,-0.0104,-0.0964,0.0086,-0.0006,-0.1971,-0.0088,1.54,-0.63,-0.16,0,0.000,-24.840,-10.322,10.884,0.000,0.000,0.000,0.000,0.000,0.000
11,-0.0107,-0.0958,0.0097,-0.0005,-0.1918,-0.0011,1.13,-0.49,-0.06,0,0.000,-33.419,-15.430,12.738,0.000,0.000,0.000,0.000,0.000,0.000
11,-0.0090,-0.1066,0.0090,0.0056,-0.2205,-0.0037,0.77,-0.33,0.06,0,0.000,-40.009,-18.808,8.221,0.000,0.000,0.000,0.000,0.000,0.000
11,-0.0082,-0.1202,0.0078,0.0087,-0.2571,-0.0101,0.32,-0.11,0.14,0,0.000,-46.801,-20.265,5.438,0.000,0.000,0.000,0.000,0.000,0.000
11,-0.0087,-0.1152,0.0088,0.0082,-0.2369,-0.0008,-0.33,0.16,0.17,0,0.000,-47.434,-20.741,3.427,0.000,0.000,0.000,0.000,0.000,0.000
11,-0.0086,-0.1176,0.0088,0.0091,-0.2388,0.0010,-0.68,0.38,0.22,0,0.000,-38.202,-27.971,5.124,0.000,0.000,0.000,0.000,0.000,0.000
11,-0.0096,-0.1178,0.0092,0.0061,-0.2334,0.0057,-1.23,0.61,0.27,0,0.000,-11.193,0.650,7.630,0.000,0.000,0.000,0.000,0.000,0.000
11,-0.0126,-0.1114,0.0105,-0.0033,-0.2068,0.0138,-1.35,0.58,0.35,0,0.000,-13.820,17.225,8.289,0.000,0.000,0.000,0.000,0.000,0.000
11,-0.0127,-0.1184,0.0102,-0.0035,-0.2217,0.0116,-1.27,0.51,0.44,0,0.000,-36.034,32.363,7.855,0.000,0.000,0.000,0.000,0.000,0.000
11,-0.0114,-0.1128,0.0111,0.0001,-0.1954,0.0188,-1.70,0.14,0.50,0,0.000,-22.328,11.821,4.714,0.000,0.000,0.000,0.000,0.000,0.000
11,-0.0114,-0.1147,0.0113,-0.0010,-0.1932,0.0239,-1.86,-0.04,0.55,0,0.000,-31.515,22.528,5.293,0.000,0.000,0.000,0.000,0.000,0.000
11,-0.0166,-0.1280,0.0120,-0.0188,-0.2278,0.0269,-2.32,-0.35,0.59,0,0.000,-51.163,31.128,4.997,0.000,0.000,0.000,0.000,0.000,0.000
11,-0.0142,-0.1270,0.0126,-0.0113,-0.2148,0.0314,-2.81,-0.63,0.63,0,0.000,-37.873,18.007,3.738,0.000,0.000,0.000,0.000,0.000,0.000
11,-0.0126,-0.1322,0.0127,-0.0058,-0.2220,0.0387,-3.04,-1.11,0.67,0,0.000,-43.856,18.350,2.316,0.000,0.000,0.000,0.000,0.000,0.000
11,-0.0098,-0.1302,0.0135,0.0037,-0.2043,0.0450,-3.63,-1.38,0.67,0,0.000,-52.822,32.339,2.500,0.000,0.000,0.000,0.000,0.000,0.000
11,-0.0098,-0.1322,0.0140,0.0043,-0.2001,0.0494,-4.29,-1.83,0.66,0,0.000,-49.954,41.138,4.229,0.000,0.000,0.000,0.000,0.000,0.000
11,0.0018,-0.1400,0.0137,0.0455,-0.2154,0.0473,-4.86,-2.20,0.67,0,0.000,-25.881,22.687,7.318,0.000,0.000,0.000,0.000,0.000,0.000
11,0.0048,-0.1366,0.0111,0.0558,-0.1916,0.0321,-5.43,-2.46,0.67,0,0.000,-15.831,18.644,4.919,0.000,0.000,0.000,0.000,0.000,0.000
11,0.0094,-0.1332,0.0114,0.0723,-0.1669,0.0301,-5.67,-2.63,0.70,0,0.000,-8.463,5.005,5.077,0.000,0.000,0.000,0.000,0.000,0.000
11,0.0100,-0.1303,0.0119,0.0749,-0.1433,0.0313,-6.13,-2.80,0.70,0,0.000,-2.654,-11.062,4.060,0.000,0.000,0.000,0.000,0.000,0.000
11,0.0116,-0.1198,0.0124,0.0818,-0.0917,0.0314,-6.25,-2.68,0.73,0,0.000,0.669,-15.150,3.650,0.000,0.000,0.000,0.000,0.000,0.000
11,0.0124,-0.1157,0.0074,0.0854,-0.0665,-0.0002,-6.52,-2.60,0.73,0,0.000,8.278,-13.269,2.300,0.000,0.000,0.000,0.000,0.000,0.000
11,0.0184,-0.1030,0.0063,0.1087,-0.0080,-0.0111,-6.58,-2.48,0.73,0,0.000,14.157,-6.305,-1.073,0.000,0.000,0.000,0.000,0.000,0.000
11,0.0192,-0.0990,0.0057,0.1121,0.0170,-0.0170,-6.80,-2.54,0.66,0,0.000,28.397,-0.487,-3.793,0.000,0.000,0.000,0.000,0.000,0.000
11,0.0225,-0.0887,0.0038,0.1252,0.0659,-0.0288,-6.69,-2.53,0.59,0,0.000,37.711,-14.575,-4.050,0.000,0.000,0.000,0.000,0.000,0.000
11,0.0235,-0.0827,0.0024,0.1285,0.0971,-0.0379,-6.76,-2.50,0.48,0,0.000,50.840,-29.796,-5.280,0.000,0.000,0.000,0.000,0.000,0.000
11,0.0282,-0.0688,-0.0013,0.1467,0.1581,-0.0611,-6.36,-2.22,0.44,0,0.000,55.614,-36.999,-5.192,0.000,0.000,0.000,0.000,0.000,0.000
11,0.0302,-0.0608,-0.0035,0.1531,0.1944,-0.0732,-6.27,-1.98,0.36,0,0.000,66.036,-35.840,-5.759,0.000,0.000,0.000,0.000,0.000,0.000
11,0.0365,-0.0418,-0.0100,0.1780,0.2743,-0.1098,-5.64,-1.68,0.34,0,0.000,75.673,-20.170,-2.203,0.000,0.000,0.000,0.000,0.000,0.000
11,0.0390,-0.0348,-0.0131,0.1857,0.3029,-0.1229,-5.50,-1.66,0.24,0,0.000,75.368,-13.449,-0.666,0.000,0.000,0.000,0.000,0.000,0.000
11,0.0441,-0.0173,-0.0226,0.2056,0.3739,-0.1708,-4.70,-1.43,0.22,0,0.000,83.207,-22.939,-1.308,0.000,0.000,0.000,0.000,0.000,0.000
11,0.0492,-0.0101,-0.0157,0.2215,0.4024,-0.1235,-4.00,-1.17,0.19,0,0.000,93.222,-34.791,0.348,0.000,0.000,0.000,0.000,0.000,0.000
11,0.0542,0.0102,-0.0250,0.2391,0.4825,-0.1714,-3.10,-0.82,0.20,0,0.000,98.926,-39.589,-1.836,0.000,0.000,0.000,0.000,0.000,0.000
11,0.0546,0.0141,-0.0255,0.2331,0.4879,-0.1603,-2.62,-0.47,0.11,0,0.000,97.030,-48.544,-3.605,0.000,0.000,0.000,0.000,0.000,0.000
11,0.0562,0.0230,-0.0297,0.2332,0.5144,-0.1717,-1.83,-0.03,0.05,0,0.000,105.888,-43.528,-3.695,0.000,0.000,0.000,0.000,0.000,0.000
11,0.0583,0.0294,-0.0324,0.2347,0.5271,-0.1724,-0.80,0.40,0.02,0,0.000,115.048,-34.178,0.720,0.000,0.000,0.000,0.000,0.000,0.000
11,0.0608,0.0454,-0.0447,0.2409,0.5842,-0.2295,0.07,0.61,0.01,0,0.000,121.062,-25.871,-0.333,0.000,0.000,0.000,0.000,0.000,0.000
11,0.0667,0.0609,-0.0305,0.2544,0.6312,-0.1347,1.14,0.76,0.00,0,0.000,130.518,-23.028,-0.593,0.000,0.000,0.000,0.000,0.000,0.000
11,0.0687,0.0686,-0.0327,0.2522,0.6413,-0.1303,2.57,1.01,-0.00,0,0.000,128.094,-17.259,-0.952,0.000,0.000,0.000,0.000,0.000,0.000
11,0.0729,0.0804,-0.0399,0.2623,0.6717,-0.1550,3.75,1.22,-0.04,0,0.000,120.010,-24.545,0.702,0.000,0.000,0.000,0.000,0.000,0.000
11,0.0772,0.0897,-0.0454,0.2712,0.6868,-0.1677,4.90,1.54,-0.08,0,0.000,112.585,-29.222,0.451,0.000,0.000,0.000,0.000,0.000,0.000
11,0.0842,0.1050,-0.0284,0.2844,0.7143,-0.0489,6.09,1.92,-0.11,0,0.000,107.622,-31.294,1.537,0.000,0.000,0.000,0.000,0.000,0.000
11,0.0849,0.1113,-0.0274,0.2710,0.7040,-0.0258,7.34,2.35,-0.13,0,0.000,97.924,-43.837,0.717,0.000,0.000,0.000,0.000,0.000,0.000
12,0.0862,0.1190,-0.0276,0.2616,0.6996,-0.0116,8.48,2.92,-0.19,0,0.000,82.700,-52.091,2.752,0.000,0.000,0.000,0.000,0.000,0.000
12,0.0871,0.1252,-0.0264,0.2486,0.6846,0.0118,9.34,3.50,-0.24,0,0.000,68.132,-57.417,3.052,0.000,0.000,0.000,0.000,0.000,0.000
12,0.0881,0.1293,-0.0228,0.2353,0.6539,0.0463,10.01,4.07,-0.31,0,0.000,56.703,-54.770,2.694,0.000,0.000,0.000,0.000,0.000,0.000
12,0.0885,0.1332,-0.0190,0.2184,0.6213,0.0778,10.76,4.69,-0.37,0,0.000,43.424,-43.133,3.586,0.000,0.000,0.000,0.000,0.000,0.000
12,0.0917,0.1424,-0.0090,0.2130,0.6084,0.1376,11.44,5.23,-0.41,0,0.000,30.619,-33.773,3.008,0.000,0.000,0.000,0.000,0.000,0.000
12,0.0938,0.1484,-0.0076,0.2065,0.5912,0.1435,11.97,5.64,-0.44,0,0.000,14.524,-23.717,3.669,0.000,0.000,0.000,0.000,0.000,0.000
12,0.0937,0.1508,-0.0038,0.1863,0.5505,0.1637,12.05,5.83,-0.45,0,0.000,3.528,-9.026,2.570,0.000,0.000,0.000,0.000,0.000,0.000
12,0.0929,0.1515,0.0008,0.1613,0.4999,0.1866,12.44,6.13,-0.42,0,0.000,-5.644,6.330,2.722,0.000,0.000,0.000,0.000,0.000,0.000
12,0.0935,0.1543,0.0088,0.1439,0.4581,0.2247,12.61,6.12,-0.38,0,0.000,-10.133,23.923,1.465,0.000,0.000,0.000,0.000,0.000,0.000
12,0.0949,0.1588,0.0110,0.1342,0.4375,0.2237,12.62,6.28,-0.16,0,0.000,-18.332,36.354,0.670,0.000,0.000,0.000,0.000,0.000,0.000
12,0.0910,0.1554,0.0154,0.0941,0.3704,0.2387,12.48,6.06,-0.01,0,0.000,-26.248,44.662,-0.305,0.000,0.000,0.000,0.000,0.000,0.000
12,0.0897,0.1540,0.0187,0.0716,0.3203,0.2426,12.67,5.84,0.07,0,0.000,-33.802,46.896,-1.400,0.000,0.000,0.000,0.000,0.000,0.000
12,0.0814,0.1537,0.0211,0.0101,0.2808,0.2403,12.44,5.46,0.19,0,0.000,-36.027,52.454,-1.652,0.000,0.000,0.000,0.000,0.000,0.000
12,0.0779,0.1546,0.0231,-0.0201,0.2506,0.2326,12.18,4.96,0.27,0,0.000,-41.038,60.651,-2.449,0.000,0.000,0.000,0.000,0.000,0.000
12,0.0720,0.1455,0.0252,-0.0595,0.1674,0.2296,11.79,4.42,0.41,0,0.000,-46.332,65.291,-2.251,0.000,0.000,0.000,0.000,0.000,0.000
12,0.0690,0.1438,0.0269,-0.0810,0.1297,0.2217,11.41,3.98,0.62,0,0.000,-55.943,62.548,-4.001,0.000,0.000,0.000,0.000,0.000,0.000
12,0.0671,0.1421,0.0287,-0.0947,0.0943,0.2137,10.85,3.36,0.69,0,0.000,-63.345,63.779,-5.916,0.000,0.000,0.000,0.000,0.000,0.000
12,0.0646,0.1417,0.0304,-0.1107,0.0688,0.2037,10.82,2.94,0.71,0,0.000,-69.480,65.305,-5.940,0.000,0.000,0.000,0.000,0.000,0.000
12,0.0589,0.1390,0.0313,-0.1420,0.0334,0.1909,10.00,2.28,0.82,0,0.000,-72.024,68.515,-6.730,0.000,0.000,0.000,0.000,0.000,0.000
12,0.0574,0.1387,0.0330,-0.1483,0.0122,0.1818,9.17,1.45,0.78,0,0.000,-77.492,70.033,-6.117,0.000,0.000,0.000,0.000,0.000,0.000
12,0.0498,0.1219,0.0316,-0.1824,-0.0903,0.1617,8.20,0.94,1.03,0,0.000,-88.148,67.633,-6.552,0.000,0.000,0.000,0.000,0.000,0.000
12,0.0480,0.1241,0.0340,-0.1877,-0.0914,0.1560,6.97,0.72,1.55,0,0.000,-98.150,61.339,-8.418,0.000,0.000,0.000,0.000,0.000,0.000
12,0.0493,0.1256,0.0370,-0.1739,-0.0955,0.1540,5.81,0.23,1.66,0,0.000,-104.995,50.853,-10.564,0.000,0.000,0.000,0.000,0.000,0.000
12,0.0439,0.1287,0.0386,-0.1976,-0.0885,0.1445,4.53,-0.25,1.66,0,0.000,-112.086,39.020,-11.412,0.000,0.000,0.000,0.000,0.000,0.000
12,0.0330,0.1351,0.0378,-0.2506,-0.0621,0.1209,3.26,-0.53,1.70,0,0.000,-107.121,35.157,-12.819,0.000,0.000,0.000,0.000,0.000,0.000
12,0.0287,0.1387,0.0389,-0.2627,-0.0511,0.1095,1.75,-0.81,1.75,0,0.000,-93.705,35.875,-12.658,0.000,0.000,0.000,0.000,0.000,0.000
12,0.0262,0.1436,0.0402,-0.2641,-0.0324,0.1005,0.76,-1.13,1.71,0,0.000,-70.079,42.182,-11.508,0.000,0.000,0.000,0.000,0.000,0.000
12,0.0218,0.1471,0.0405,-0.2753,-0.0196,0.0870,0.17,-1.71,1.46,0,0.000,-46.488,42.544,-10.078,0.000,0.000,0.000,0.000,0.000,0.000
12,0.0174,0.1558,0.0393,-0.2860,0.0215,0.0642,-0.42,-2.50,1.13,0,0.000,-9.963,49.873,-8.661,0.000,0.000,0.000,0.000,0.000,0.000
12,0.0132,0.1591,0.0392,-0.2936,0.0349,0.0549,-0.44,-3.15,0.94,0,0.000,16.380,53.098,-6.691,0.000,0.000,0.000,0.000,0.000,0.000
12,0.0135,0.1578,0.0411,-0.2714,0.0253,0.0628,-0.33,-3.67,0.88,0,0.000,38.739,52.284,-5.726,0.000,0.000,0.000,0.000,0.000,0.000
12,0.0184,0.1633,0.0432,-0.2252,0.0537,0.0696,-0.12,-4.40,0.68,0,0.000,52.478,49.961,-5.017,0.000,0.000,0.000,0.000,0.000,0.000
12,0.0191,0.1637,0.0446,-0.2030,0.0543,0.0748,0.19,-4.59,0.79,0,0.000,62.266,46.677,-4.158,0.000,0.000,0.000,0.000,0.000,0.000
12,0.0172,0.1671,0.0448,-0.1981,0.0704,0.0720,0.78,-4.96,0.79,0,0.000,60.547,40.199,-3.060,0.000,0.000,0.000,0.000,0.000,0.000
12,0.0210,0.1739,0.0418,-0.1617,0.1021,0.0527,1.20,-5.45,0.71,0,0.000,52.505,37.265,-3.351,0.000,0.000,0.000,0.000,0.000,0.000
12,0.0134,0.1808,0.0409,-0.1926,0.1344,0.0435,1.78,-5.82,0.70,0,0.000,37.993,38.104,-1.467,0.000,0.000,0.000,0.000,0.000,0.000
12,0.0102,0.1830,0.0410,-0.1933,0.1388,0.0414,1.92,-5.97,0.76,0,0.000,25.444,37.160,-1.269,0.000,0.000,0.000,0.000,0.000,0.000
12,0.0104,0.1886,0.0405,-0.1741,0.1603,0.0358,2.15,-6.38,0.75,0,0.000,11.421,31.828,-0.379,0.000,0.000,0.000,0.000,0.000,0.000
12,0.0087,0.1879,0.0414,-0.1639,0.1455,0.0390,2.30,-6.66,0.78,0,0.000,2.367,22.856,0.430,0.000,0.000,0.000,0.000,0.000,0.000
12,0.0026,0.1935,0.0408,-0.1826,0.1657,0.0334,2.40,-7.11,0.74,0,0.000,-5.863,15.336,0.573,0.000,0.000,0.000,0.000,0.000,0.000
12,0.0020,0.1945,0.0414,-0.1649,0.1591,0.0369,2.29,-7.14,0.77,0,0.000,-9.614,6.711,0.833,0.000,0.000,0.000,0.000,0.000,0.000
12,0.0001,0.1944,0.0421,-0.1549,0.1463,0.0399,2.17,-7.11,0.78,0,0.000,-6.596,-0.252,-0.601,0.000,0.000,0.000,0.000,0.000,0.000
12,0.0039,0.1932,0.0435,-0.1109,0.1278,0.0464,2.08,-6.97,0.80,0,0.000,-8.328,-12.155,0.042,0.000,0.000,0.000,0.000,0.000,0.000
12,0.0008,0.1953,0.0438,-0.1107,0.1286,0.0466,2.16,-6.84,0.85,0,0.000,-7.433,-21.482,-0.979,0.000,0.000,0.000,0.000,0.000,0.000
12,-0.0014,0.1977,0.0412,-0.1075,0.1298,0.0331,2.07,-6.79,0.76,0,0.000,-3.607,-30.815,-0.872,0.000,0.000,0.000,0.000,0.000,0.000
12,-0.0045,0.1994,0.0415,-0.1069,0.1287,0.0349,2.08,-6.44,0.76,0,0.000,3.730,-34.363,0.176,0.000,0.000,0.000,0.000,0.000,0.000
12,-0.0050,0.1970,0.0424,-0.0905,0.1043,0.0417,2.04,-5.97,0.71,0,0.000,12.064,-33.882,-0.133,0.000,0.000,0.000,0.000,0.000,0.000
12,-0.0016,0.1989,0.0428,-0.0531,0.1056,0.0461,2.22,-5.55,0.74,0,0.000,16.278,-32.555,1.663,0.000,0.000,0.000,0.000,0.000,0.000
12,-0.0023,0.1995,0.0403,-0.0439,0.0984,0.0354,2.31,-5.15,0.71,0,0.000,22.711,-25.903,2.593,0.000,0.000,0.000,0.000,0.000,0.000
12,-0.0056,0.2033,0.0406,-0.0500,0.1106,0.0392,2.57,-4.92,0.75,0,0.000,23.480,-21.108,4.323,0.000,0.000,0.000,0.000,0.000,0.000
12,-0.0079,0.2034,0.0412,-0.0498,0.1017,0.0453,2.94,-4.72,0.87,0,0.000,22.305,-15.829,5.724,0.000,0.000,0.000,0.000,0.000,0.000
12,-0.0102,0.2064,0.0415,-0.0512,0.1094,0.0491,3.02,-4.49,0.86,0,0.000,17.069,-11.516,6.734,0.000,0.000,0.000,0.000,0.000,0.000
12,-0.0103,0.2068,0.0421,-0.0398,0.1016,0.0550,3.15,-4.38,0.93,0,0.000,6.645,-9.055,8.734,0.000,0.000,0.000,0.000,0.000,0.000
12,-0.0111,0.2051,0.0430,-0.0323,0.0810,0.0622,3.21,-4.33,1.03,0,0.000,-9.301,-11.336,8.419,0.000,0.000,0.000,0.000,0.000,0.000
12,-0.0128,0.2085,0.0418,-0.0336,0.0906,0.0571,3.05,-4.07,1.10,0,0.000,-15.502,-11.271,8.347,0.000,0.000,0.000,0.000,0.000,0.000
12,-0.0131,0.2094,0.0424,-0.0254,0.0853,0.0619,2.96,-4.10,1.17,0,0.000,-11.017,-10.065,6.400,0.000,0.000,0.000,0.000,0.000,0.000
13,-0.0125,0.2092,0.0431,-0.0119,0.0740,0.0675,2.73,-4.11,1.16,0,0.000,-11.975,-9.121,7.399,0.000,0.000,0.000,0.000,0.000,0.000
13,-0.0154,0.2110,0.0438,-0.0212,0.0747,0.0725,2.83,-4.19,1.29,0,0.000,-2.721,-12.371,7.617,0.000,0.000,0.000,0.000,0.000,0.000
13,-0.0126,0.2110,0.0489,0.0045,0.0658,0.1023,2.88,-4.06,1.40,0,0.000,-2.751,-17.611,8.888,0.000,0.000,0.000,0.000,0.000,0.000
13,-0.0101,0.2138,0.0498,0.0255,0.0734,0.1082,2.90,-3.96,1.48,0,0.000,-3.859,-23.903,8.625,0.000,0.000,0.000,0.000,0.000,0.000
13,-0.0056,0.2108,0.0509,0.0588,0.0470,0.1157,3.14,-3.75,1.71,0,0.000,1.892,-30.162,7.645,0.000,0.000,0.000,0.000,0.000,0.000
13,-0.0046,0.2098,0.0521,0.0693,0.0335,0.1217,3.53,-3.49,1.96,0,0.000,-0.207,-39.565,6.661,0.000,0.000,0.000,0.000,0.000,0.000
13,-0.0018,0.2092,0.0530,0.0890,0.0233,0.1253,3.77,-3.08,2.14,0,0.000,-7.377,-45.885,4.922,0.000,0.000,0.000,0.000,0.000,0.000
13,0.0001,0.2037,0.0539,0.1040,-0.0160,0.1283,3.62,-2.57,2.13,0,0.000,-12.837,-49.263,2.307,0.000,0.000,0.000,0.000,0.000,0.000
13,0.0034,0.1958,0.0597,0.1253,-0.0666,0.1547,3.45,-1.86,2.14,0,0.000,-22.784,-54.189,-0.398,0.000,0.000,0.000,0.000,0.000,0.000
13,0.0048,0.1897,0.0603,0.1349,-0.1051,0.1526,3.13,-1.33,2.07,0,0.000,-30.761,-49.844,-1.121,0.000,0.000,0.000,0.000,0.000,0.000
13,0.0053,0.1897,0.0623,0.1346,-0.1051,0.1583,2.91,-0.98,2.07,0,0.000,-40.561,-40.773,-2.343,0.000,0.000,0.000,0.000,0.000,0.000
13,0.0026,0.1886,0.0647,0.1155,-0.1116,0.1653,2.35,-0.61,1.99,0,0.000,-50.292,-28.283,-1.518,0.000,0.000,0.000,0.000,0.000,0.000
13,0.0040,0.1888,0.0685,0.1192,-0.1093,0.1788,1.77,-0.41,1.93,0,0.000,-57.941,-21.177,-1.194,0.000,0.000,0.000,0.000,0.000,0.000
13,0.0078,0.1852,0.0696,0.1375,-0.1294,0.1776,1.08,-0.22,1.88,0,0.000,-62.153,-12.218,0.253,0.000,0.000,0.000,0.000,0.000,0.000
13,0.0097,0.1853,0.0719,0.1418,-0.1254,0.1811,0.29,-0.07,1.81,0,0.000,-57.610,-9.303,0.289,0.000,0.000,0.000,0.000,0.000,0.000
13,0.0125,0.1852,0.0737,0.1505,-0.1226,0.1835,-0.35,0.22,1.82,0,0.000,-55.586,-9.246,1.250,0.000,0.000,0.000,0.000,0.000,0.000
13,0.0136,0.1860,0.0761,0.1485,-0.1127,0.1885,-0.86,0.36,1.85,0,0.000,-48.181,-9.566,1.753,0.000,0.000,0.000,0.000,0.000,0.000
13,0.0133,0.1893,0.0736,0.1390,-0.0886,0.1672,-1.38,0.53,1.86,0,0.000,-39.673,-17.085,0.885,0.000,0.000,0.000,0.000,0.000,0.000
13,0.0104,0.1895,0.0758,0.1131,-0.0823,0.1736,-1.69,0.79,1.87,0,0.000,-23.129,-24.449,-1.374,0.000,0.000,0.000,0.000,0.000,0.000
13,0.0105,0.1882,0.0776,0.1066,-0.0848,0.1773,-1.96,1.07,1.84,0,0.000,-11.555,-25.955,-0.546,0.000,0.000,0.000,0.000,0.000,0.000
13,0.0103,0.1887,0.0796,0.0982,-0.0751,0.1812,-1.56,1.21,1.95,0,0.000,-0.957,-25.203,-0.870,0.000,0.000,0.000,0.000,0.000,0.000
13,0.0100,0.1874,0.0815,0.0894,-0.0761,0.1852,-1.57,1.23,1.95,0,0.000,5.184,-26.469,-1.399,0.000,0.000,0.000,0.000,0.000,0.000
13,0.0098,0.1887,0.0795,0.0835,-0.0617,0.1674,-1.64,1.51,1.93,0,0.000,16.758,-28.239,-3.059,0.000,0.000,0.000,0.000,0.000,0.000
13,0.0134,0.1779,0.0810,0.0988,-0.1197,0.1704,-1.53,1.79,1.92,0,0.000,21.103,-29.828,-2.831,0.000,0.000,0.000,0.000,0.000,0.000
13,0.0140,0.1769,0.0828,0.0942,-0.1161,0.1739,-1.36,2.25,1.88,0,0.000,22.028,-21.340,-2.012,0.000,0.000,0.000,0.000,0.000,0.000
13,0.0143,0.1774,0.0848,0.0878,-0.1035,0.1786,-0.89,2.68,1.86,0,0.000,15.727,-9.057,-1.788,0.000,0.000,0.000,0.000,0.000,0.000
13,0.0152,0.1764,0.0866,0.0845,-0.1009,0.1823,-0.76,2.79,1.84,0,0.000,8.574,1.564,-1.715,0.000,0.000,0.000,0.000,0.000,0.000
13,0.0123,0.1756,0.0887,0.0585,-0.0978,0.1863,-0.68,2.69,1.85,0,0.000,-2.979,8.150,-0.410,0.000,0.000,0.000,0.000,0.000,0.000
13,0.0092,0.1695,0.0867,0.0340,-0.1276,0.1679,-0.68,2.61,1.84,0,0.000,-11.614,9.810,-0.084,0.000,0.000,0.000,0.000,0.000,0.000
13,0.0105,0.1698,0.0887,0.0350,-0.1175,0.1710,-0.90,2.38,1.87,0,0.000,-22.192,11.195,-0.815,0.000,0.000,0.000,0.000,0.000,0.000
13,0.0139,0.1698,0.0907,0.0478,-0.1090,0.1733,-1.07,2.19,1.88,0,0.000,-29.855,12.020,-0.715,0.000,0.000,0.000,0.000,0.000,0.000
13,0.0150,0.1696,0.0925,0.0471,-0.1029,0.1745,-1.21,1.99,1.88,0,0.000,-31.284,14.258,-1.713,0.000,0.000,0.000,0.000,0.000,0.000
13,0.0181,0.1722,0.0932,0.0591,-0.0804,0.1698,-1.54,1.85,1.87,0,0.000,-29.806,15.322,-1.617,0.000,0.000,0.000,0.000,0.000,0.000
13,0.0205,0.1714,0.0948,0.0659,-0.0788,0.1708,-1.89,1.62,1.87,0,0.000,-27.423,15.668,-1.454,0.000,0.000,0.000,0.000,0.000,0.000
13,0.0233,0.1681,0.0963,0.0743,-0.0908,0.1711,-2.04,1.46,1.83,0,0.000,-18.723,16.021,-1.861,0.000,0.000,0.000,0.000,0.000,0.000
13,0.0243,0.1677,0.0980,0.0727,-0.0855,0.1744,-1.85,1.26,1.75,0,0.000,-11.852,16.510,-1.001,0.000,0.000,0.000,0.000,0.000,0.000
13,0.0267,0.1677,0.0997,0.0798,-0.0773,0.1774,-1.84,1.11,1.71,0,0.000,-11.339,8.876,0.967,0.000,0.000,0.000,0.000,0.000,0.000
13,0.0278,0.1639,0.1013,0.0781,-0.0911,0.1801,-2.04,0.90,1.74,0,0.000,-2.782,1.703,0.893,0.000,0.000,0.000,0.000,0.000,0.000
13,0.0297,0.1541,0.0984,0.0818,-0.1397,0.1589,-2.22,0.83,1.77,0,0.000,1.712,-6.034,0.879,0.000,0.000,0.000,0.000,0.000,0.000
13,0.0307,0.1491,0.0994,0.0803,-0.1571,0.1590,-2.25,0.88,1.77,0,0.000,3.154,-13.000,0.490,0.000,0.000,0.000,0.000,0.000,0.000
13,0.0329,0.1493,0.1012,0.0871,-0.1435,0.1636,-2.39,0.83,1.86,0,0.000,-0.606,-20.187,1.574,0.000,0.000,0.000,0.000,0.000,0.000
13,0.0340,0.1501,0.1033,0.0872,-0.1269,0.1699,-2.45,0.98,1.90,0,0.000,-0.145,-19.278,1.166,0.000,0.000,0.000,0.000,0.000,0.000
13,0.0340,0.1493,0.1047,0.0808,-0.1204,0.1734,-2.54,1.09,1.97,0,0.000,-7.872,-18.908,1.746,0.000,0.000,0.000,0.000,0.000,0.000
13,0.0377,0.1517,0.1066,0.0962,-0.0956,0.1790,-2.59,1.28,1.99,0,0.000,-11.493,-14.756,1.445,0.000,0.000,0.000,0.000,0.000,0.000
13,0.0392,0.1525,0.1084,0.0973,-0.0816,0.1840,-2.56,1.42,2.01,0,0.000,-14.451,-12.356,0.987,0.000,0.000,0.000,0.000,0.000,0.000
13,0.0417,0.1538,0.1102,0.1047,-0.0650,0.1877,-2.56,1.57,1.99,0,0.000,-14.117,-7.778,0.787,0.000,0.000,0.000,0.000,0.000,0.000
13,0.0427,0.1534,0.1121,0.1022,-0.0592,0.1918,-2.56,1.65,1.98,0,0.000,-9.575,-6.831,0.473,0.000,0.000,0.000,0.000,0.000,0.000
13,0.0448,0.1500,0.1139,0.1046,-0.0702,0.1945,-2.80,1.67,2.03,0,0.000,-4.543,-1.707,-0.589,0.000,0.000,0.000,0.000,0.000,0.000
13,0.0458,0.1462,0.1163,0.1009,-0.0831,0.2005,-2.91,1.69,2.05,0,0.000,-0.283,0.877,-1.018,0.000,0.000,0.000,0.000,0.000,0.000
13,0.0477,0.1418,0.1180,0.1026,-0.0985,0.2026,-2.93,1.74,2.03,0,0.000,1.633,3.472,-0.882,0.000,0.000,0.000,0.000,0.000,0.000
13,0.0496,0.1435,0.1202,0.1049,-0.0788,0.2073,-2.61,1.68,1.96,0,0.000,5.125,3.864,-0.868,0.000,0.000,0.000,0.000,0.000,0.000
13,0.0509,0.1439,0.1223,0.1032,-0.0675,0.2113,-2.59,1.65,1.95,0,0.000,6.512,4.121,-1.224,0.000,0.000,0.000,0.000,0.000,0.000
13,0.0513,0.1427,0.1276,0.0964,-0.0650,0.2313,-2.59,1.63,1.95,0,0.000,6.776,4.066,-1.268,0.000,0.000,0.000,0.000,0.000,0.000
13,0.0539,0.1346,0.1297,0.1012,-0.1017,0.2322,-2.49,1.61,1.91,0,0.000,4.081,2.488,-1.899,0.000,0.000,0.000,0.000,0.000,0.000
13,0.0550,0.1339,0.1320,0.0986,-0.0955,0.2359,-2.45,1.52,1.93,0,0.000,3.771,2.922,-2.372,0.000,0.000,0.000,0.000,0.000,0.000
13,0.0554,0.1346,0.1345,0.0929,-0.0824,0.2400,-2.38,1.48,1.91,0,0.000,0.660,2.098,-2.995,0.000,0.000,0.000,0.000,0.000,0.000
13,0.0559,0.1327,0.1372,0.0865,-0.0830,0.2427,-2.54,1.42,1.94,0,0.000,1.196,0.453,-3.109,0.000,0.000,0.000,0.000,0.000,0.000
13,0.0581,0.1325,0.1402,0.0911,-0.0755,0.2477,-2.54,1.44,1.90,0,0.000,-0.714,-1.344,-3.167,0.000,0.000,0.000,0.000,0.000,0.000
14,0.0594,0.1312,0.1426,0.0905,-0.0746,0.2494,-2.57,1.46,1.87,0,0.000,-4.647,-1.873,-2.691,0.000,0.000,0.000,0.000,0.000,0.000
14,0.0605,0.1349,0.1453,0.0902,-0.0460,0.2520,-2.61,1.43,1.86,0,0.000,-3.829,-3.993,-2.593,0.000,0.000,0.000,0.000,0.000,0.000
14,0.0608,0.1343,0.1478,0.0843,-0.0426,0.2535,-2.63,1.47,1.83,0,0.000,1.338,-3.997,-3.562,0.000,0.000,0.000,0.000,0.000,0.000
14,0.0612,0.1343,0.1504,0.0794,-0.0360,0.2554,-2.64,1.50,1.80,0,0.000,4.575,-4.539,-4.388,0.000,0.000,0.000,0.000,0.000,0.000
14,0.0634,0.1343,0.1538,0.0840,-0.0295,0.2611,-2.62,1.57,1.75,0,0.000,3.791,-6.259,-4.624,0.000,0.000,0.000,0.000,0.000,0.000
14,0.0640,0.1339,0.1564,0.0802,-0.0258,0.2621,-2.57,1.63,1.72,0,0.000,8.394,-5.416,-4.398,0.000,0.000,0.000,0.000,0.000,0.000
14,0.0647,0.1337,0.1590,0.0774,-0.0213,0.2631,-2.54,1.63,1.71,0,0.000,12.617,-4.609,-3.865,0.000,0.000,0.000,0.000,0.000,0.000
14,0.0649,0.1334,0.1617,0.0714,-0.0172,0.2644,-2.25,1.66,1.64,0,0.000,19.411,-2.872,-3.664,0.000,0.000,0.000,0.000,0.000,0.000
14,0.0656,0.1333,0.1643,0.0685,-0.0129,0.2654,-2.06,1.71,1.59,0,0.000,18.302,-3.290,-4.033,0.000,0.000,0.000,0.000,0.000,0.000
14,0.0678,0.1342,0.1669,0.0733,-0.0033,0.2656,-1.64,1.75,1.48,0,0.000,20.981,-0.822,-3.892,0.000,0.000,0.000,0.000,0.000,0.000
14,0.0690,0.1293,0.1652,0.0722,-0.0234,0.2432,-1.44,1.77,1.45,0,0.000,19.275,0.242,-4.231,0.000,0.000,0.000,0.000,0.000,0.000
14,0.0697,0.1281,0.1676,0.0687,-0.0249,0.2427,-1.23,1.78,1.40,0,0.000,12.906,3.133,-1.810,0.000,0.000,0.000,0.000,0.000,0.000
14,0.0704,0.1213,0.1700,0.0651,-0.0538,0.2411,-1.02,1.75,1.36,0,0.000,7.901,3.965,-2.443,0.000,0.000,0.000,0.000,0.000,0.000
14,0.0710,0.1210,0.1724,0.0620,-0.0503,0.2402,-0.97,1.72,1.35,0,0.000,3.555,6.066,-2.028,0.000,0.000,0.000,0.000,0.000,0.000
14,0.0715,0.1199,0.1753,0.0583,-0.0510,0.2416,-0.97,1.68,1.34,0,0.000,-2.427,7.179,-2.337,0.000,0.000,0.000,0.000,0.000,0.000
14,0.0723,0.1180,0.1777,0.0560,-0.0560,0.2396,-1.00,1.55,1.35,0,0.000,-6.805,7.466,-3.008,0.000,0.000,0.000,0.000,0.000,0.000
14,0.0725,0.1192,0.1801,0.0517,-0.0466,0.2384,-1.03,1.49,1.31,0,0.000,-7.774,4.510,-6.294,0.000,0.000,0.000,0.000,0.000,0.000
14,0.0725,0.1204,0.1825,0.0466,-0.0372,0.2371,-0.95,1.44,1.22,0,0.000,-8.470,6.146,-5.003,0.000,0.000,0.000,0.000,0.000,0.000
14,0.0748,0.1212,0.1849,0.0527,-0.0303,0.2351,-1.07,1.38,1.17,0,0.000,-6.460,5.894,-5.491,0.000,0.000,0.000,0.000,0.000,0.000
14,0.0748,0.1203,0.1872,0.0480,-0.0313,0.2333,-0.93,1.33,1.05,0,0.000,-5.119,4.443,-5.515,0.000,0.000,0.000,0.000,0.000,0.000
14,0.0756,0.1153,0.1876,0.0461,-0.0506,0.2217,-1.00,1.28,1.00,0,0.000,-2.224,5.615,-5.379,0.000,0.000,0.000,0.000,0.000,0.000
14,0.0760,0.1160,0.1899,0.0438,-0.0435,0.2207,-1.01,1.22,0.94,0,0.000,-4.576,4.533,-4.877,0.000,0.000,0.000,0.000,0.000,0.000
14,0.0765,0.1087,0.1919,0.0410,-0.0715,0.2183,-1.06,1.16,0.90,0,0.000,1.052,4.533,-5.135,0.000,0.000,0.000,0.000,0.000,0.000
14,0.0772,0.1081,0.1941,0.0403,-0.0697,0.2171,-1.09,1.11,0.85,0,0.000,1.149,4.582,-5.484,0.000,0.000,0.000,0.000,0.000,0.000
14,0.0777,0.1072,0.1970,0.0385,-0.0689,0.2195,-1.09,1.07,0.80,0,0.000,6.111,5.301,-4.361,0.000,0.000,0.000,0.000,0.000,0.000
14,0.0784,0.1070,0.1992,0.0380,-0.0651,0.2180,-1.04,1.02,0.75,0,0.000,5.902,6.742,-3.099,0.000,0.000,0.000,0.000,0.000,0.000
14,0.0789,0.1070,0.2014,0.0366,-0.0607,0.2166,-0.98,0.95,0.71,0,0.000,4.874,8.458,-2.198,0.000,0.000,0.000,0.000,0.000,0.000
14,0.0791,0.1072,0.2036,0.0341,-0.0555,0.2150,-0.68,0.89,0.61,0,0.000,2.166,7.397,-2.178,0.000,0.000,0.000,0.000,0.000,0.000
14,0.0793,0.1063,0.2057,0.0321,-0.0550,0.2127,-0.54,0.81,0.57,0,0.000,0.731,7.344,-1.987,0.000,0.000,0.000,0.000,0.000,0.000
14,0.0796,0.1058,0.2079,0.0302,-0.0534,0.2106,-0.48,0.75,0.53,0,0.000,-4.597,5.166,-0.964,0.000,0.000,0.000,0.000,0.000,0.000
14,0.0798,0.0964,0.2099,0.0278,-0.0877,0.2077,-0.38,0.69,0.48,0,0.000,-12.007,3.520,-0.376,0.000,0.000,0.000,0.000,0.000,0.000
14,0.0804,0.0921,0.2119,0.0274,-0.1001,0.2046,-0.43,0.64,0.46,0,0.000,-17.077,5.660,0.596,0.000,0.000,0.000,0.000,0.000,0.000
14,0.0807,0.0896,0.2138,0.0260,-0.1054,0.2021,-0.44,0.58,0.43,0,0.000,-23.713,2.314,0.879,0.000,0.000,0.000,0.000,0.000,0.000
14,0.0809,0.0843,0.2157,0.0246,-0.1214,0.1990,-0.65,0.55,0.43,0,0.000,-30.059,2.339,2.046,0.000,0.000,0.000,0.000,0.000,0.000
14,0.0812,0.0822,0.2186,0.0234,-0.1240,0.2017,-0.80,0.51,0.43,0,0.000,-31.320,3.341,2.646,0.000,0.000,0.000,0.000,0.000,0.000
14,0.0820,0.0762,0.2205,0.0243,-0.1417,0.1989,-1.07,0.48,0.44,0,0.000,-33.141,3.385,2.652,0.000,0.000,0.000,0.000,0.000,0.000
14,0.0821,0.0746,0.2224,0.0230,-0.1412,0.1972,-1.28,0.44,0.44,0,0.000,-33.393,2.976,3.427,0.000,0.000,0.000,0.000,0.000,0.000
14,0.0830,0.0688,0.2242,0.0244,-0.1563,0.1942,-1.58,0.40,0.47,0,0.000,-30.146,5.607,3.081,0.000,0.000,0.000,0.000,0.000,0.000
14,0.0829,0.0661,0.2261,0.0221,-0.1588,0.1920,-1.84,0.36,0.48,0,0.000,-31.571,5.756,4.404,0.000,0.000,0.000,0.000,0.000,0.000
14,0.0838,0.0600,0.2278,0.0234,-0.1735,0.1885,-2.10,0.28,0.51,0,0.000,-29.044,5.564,4.615,0.000,0.000,0.000,0.000,0.000,0.000
14,0.0843,0.0572,0.2284,0.0238,-0.1748,0.1798,-2.35,0.22,0.54,0,0.000,-29.531,3.963,6.461,0.000,0.000,0.000,0.000,0.000,0.000
14,0.0846,0.0526,0.2301,0.0232,-0.1819,0.1771,-2.62,0.18,0.59,0,0.000,-28.849,4.192,5.016,0.000,0.000,0.000,0.000,0.000,0.000
14,0.0855,0.0491,0.2320,0.0250,-0.1836,0.1743,-2.85,0.13,0.64,0,0.000,-25.566,4.084,4.091,0.000,0.000,0.000,0.000,0.000,0.000
14,0.0858,0.0442,0.2336,0.0245,-0.1909,0.1719,-3.09,0.08,0.68,0,0.000,-21.719,5.281,2.643,0.000,0.000,0.000,0.000,0.000,0.000
14,0.0862,0.0410,0.2241,0.0244,-0.1905,0.1138,-3.32,0.03,0.71,0,0.000,-14.483,6.857,0.298,0.000,0.000,0.000,0.000,0.000,0.000
14,0.0865,0.0372,0.2252,0.0240,-0.1924,0.1124,-3.42,-0.04,0.71,0,0.000,-11.698,7.480,-2.633,0.000,0.000,0.000,0.000,0.000,0.000
14,0.0871,0.0335,0.2262,0.0250,-0.1933,0.1108,-3.52,-0.14,0.69,0,0.000,-7.981,10.813,-5.720,0.000,0.000,0.000,0.000,0.000,0.000
14,0.0874,0.0315,0.2273,0.0250,-0.1880,0.1099,-3.53,-0.24,0.64,0,0.000,-5.889,15.024,-7.878,0.000,0.000,0.000,0.000,0.000,0.000
14,0.0881,0.0261,0.2283,0.0265,-0.1944,0.1091,-3.59,-0.38,0.57,0,0.000,-6.064,19.814,-7.896,0.000,0.000,0.000,0.000,0.000,0.000
14,0.0897,0.0231,0.2294,0.0310,-0.1922,0.1099,-3.61,-0.57,0.47,0,0.000,-2.567,20.048,-9.970,0.000,0.000,0.000,0.000,0.000,0.000
14,0.0902,0.0178,0.2325,0.0321,-0.1976,0.1221,-3.65,-0.72,0.35,0,0.000,-2.651,19.820,-11.281,0.000,0.000,0.000,0.000,0.000,0.000
14,0.0913,0.0154,0.2337,0.0352,-0.1927,0.1241,-3.62,-0.94,0.24,0,0.000,-5.056,17.036,-12.077,0.000,0.000,0.000,0.000,0.000,0.000
14,0.0921,0.0118,0.2349,0.0376,-0.1923,0.1258,-3.66,-1.09,0.10,0,0.000,-5.003,9.730,-12.649,0.000,0.000,0.000,0.000,0.000,0.000
14,0.0905,0.0100,0.2362,0.0323,-0.1855,0.1281,-3.64,-1.24,-0.02,0,0.000,-2.094,1.458,-12.491,0.000,0.000,0.000,0.000,0.000,0.000
14,0.0928,0.0056,0.2361,0.0402,-0.1877,0.1223,-3.68,-1.28,-0.15,0,0.000,-6.889,-10.326,-13.636,0.000,0.000,0.000,0.000,0.000,0.000
14,0.0921,0.0039,0.2373,0.0384,-0.1808,0.1237,-3.71,-1.19,-0.28,0,0.000,-1.955,-14.525,-14.067,0.000,0.000,0.000,0.000,0.000,0.000
14,0.0943,-0.0014,0.2385,0.0464,-0.1859,0.1244,-3.75,-1.03,-0.41,0,0.000,0.897,-20.189,-15.197,0.000,0.000,0.000,0.000,0.000,0.000
14,0.0947,-0.0032,0.2397,0.0486,-0.1795,0.1257,-3.69,-0.86,-0.55,0,0.000,4.163,-21.557,-15.518,0.000,0.000,0.000,0.000,0.000,0.000
15,0.0944,-0.0063,0.2410,0.0480,-0.1771,0.1266,-3.71,-0.65,-0.68,0,0.000,8.907,-32.253,-18.668,0.000,0.000,0.000,0.000,0.000,0.000
15,0.0943,-0.0082,0.2422,0.0478,-0.1711,0.1278,-3.64,-0.27,-0.87,0,0.000,-10.303,-63.514,-58.865,0.000,0.000,0.000,0.000,0.000,0.000
15,0.0952,-0.0127,0.2411,0.0508,-0.1738,0.1163,-3.68,0.29,-1.25,0,0.000,34.886,-21.974,-60.647,0.000,0.000,0.000,0.000,0.000,0.000
15,0.0966,-0.0131,0.2422,0.0547,-0.1636,0.1160,-3.49,0.71,-2.06,0,0.000,158.970,-44.370,146.945,0.000,0.000,0.000,0.000,0.000,0.000
15,0.0914,-0.0154,0.2434,0.0373,-0.1598,0.1072,-2.36,0.91,-1.34,0,0.000,198.142,-93.220,282.379,0.000,0.000,0.000,0.000,0.000,0.000
15,0.0928,-0.0172,0.2444,0.0406,-0.1556,0.0845,-0.54,1.69,1.14,0,0.000,188.823,-94.511,308.420,0.000,0.000,0.000,0.000,0.000,0.000
15,0.0969,-0.0189,0.2503,0.0516,-0.1516,0.0715,1.23,2.68,4.20,0,0.000,258.082,-49.276,261.653,0.000,0.000,0.000,0.000,0.000,0.000
15,0.0974,-0.0204,0.2508,0.0511,-0.1481,0.0322,3.44,3.45,7.00,0,0.000,381.351,53.390,218.129,0.000,0.000,0.000,0.000,0.000,0.000
15,0.0979,-0.0219,0.2510,0.0494,-0.1470,0.0049,6.58,3.47,9.34,0,0.000,479.569,147.096,181.908,0.000,0.000,0.000,0.000,0.000,0.000
15,0.0984,-0.0234,0.2510,0.0464,-0.1484,-0.0192,11.03,2.54,11.46,0,0.000,564.041,230.168,150.443,0.000,0.000,0.000,0.000,0.000,0.000
15,0.0993,-0.0269,0.2505,0.0441,-0.1582,-0.0460,16.12,1.03,13.49,0,0.000,622.062,298.069,122.800,0.000,0.000,0.000,0.000,0.000,0.000
15,0.1002,-0.0229,0.2503,0.0422,-0.1496,-0.0697,22.25,-1.23,15.68,0,0.000,652.031,342.319,96.093,0.000,0.000,0.000,0.000,0.000,0.000
15,0.1063,-0.0291,0.2457,0.0585,-0.1768,-0.1158,28.54,-3.59,17.99,0,0.000,667.751,372.726,73.575,0.000,0.000,0.000,0.000,0.000,0.000
15,0.1012,-0.0197,0.2453,0.0457,-0.1635,-0.1345,35.49,-6.28,20.63,0,0.000,666.666,383.656,53.971,0.000,0.000,0.000,0.000,0.000,0.000
15,0.1077,-0.0256,0.2433,0.0727,-0.2020,-0.1683,42.46,-8.73,23.49,0,0.000,653.584,375.539,35.585,0.000,0.000,0.000,0.000,0.000,0.000
15,0.0979,-0.0170,0.2436,0.0592,-0.2060,-0.1806,49.64,-11.12,26.57,0,0.000,622.244,346.192,18.063,0.000,0.000,0.000,0.000,0.000,0.000
15,0.1030,-0.0259,0.2711,0.0955,-0.2668,-0.0681,56.54,-13.05,29.62,0,0.000,571.290,302.312,2.516,0.000,0.000,0.000,0.000,0.000,0.000
15,0.0953,-0.0240,0.2715,0.1028,-0.3011,-0.0967,63.14,-14.62,32.49,0,0.000,501.871,255.385,-11.338,0.000,0.000,0.000,0.000,0.000,0.000
15,0.1000,-0.0288,0.2697,0.1531,-0.3585,-0.1523,69.06,-15.77,35.03,0,0.000,422.813,204.715,-26.474,0.000,0.000,0.000,0.000,0.000,0.000
15,0.0993,-0.0282,0.2694,0.1913,-0.4018,-0.1986,74.17,-16.63,37.26,0,0.000,338.679,142.422,-39.421,0.000,0.000,0.000,0.000,0.000,0.000
15,0.1029,-0.0326,0.2668,0.2458,-0.4607,-0.2693,78.32,-17.37,38.84,0,0.000,260.638,78.763,-51.531,0.000,0.000,0.000,0.000,0.000,0.000
15,0.1044,-0.0364,0.2647,0.2969,-0.5197,-0.3363,81.49,-18.00,39.80,0,0.000,176.970,9.829,-63.025,0.000,0.000,0.000,0.000,0.000,0.000
15,0.1076,-0.0378,0.2229,0.3527,-0.5642,-0.6145,83.64,-18.63,40.08,0,0.000,86.256,-68.207,-75.455,0.000,0.000,0.000,0.000,0.000,0.000
15,0.1113,-0.0434,0.2165,0.4118,-0.6294,-0.6983,84.66,-19.29,39.57,0,0.000,-10.802,-138.450,-89.984,0.000,0.000,0.000,0.000,0.000,0.000
15,0.1155,-0.0503,0.2091,0.4719,-0.6986,-0.7870,84.41,-20.11,38.13,0,0.000,-116.648,-197.527,-100.325,0.000,0.000,0.000,0.000,0.000,0.000
15,0.1205,-0.0577,0.2008,0.5321,-0.7688,-0.8774,82.92,-20.87,36.13,0,0.000,-219.637,-241.615,-106.683,0.000,0.000,0.000,0.000,0.000,0.000
15,0.1265,-0.0666,0.1907,0.5985,-0.8511,-0.9749,80.15,-21.55,33.56,0,0.000,-328.741,-271.102,-110.864,0.000,0.000,0.000,0.000,0.000,0.000
15,0.1331,-0.0753,0.1805,0.6621,-0.9312,-1.0621,76.14,-22.09,30.56,0,0.000,-438.406,-290.202,-115.416,0.000,0.000,0.000,0.000,0.000,0.000
15,0.1399,-0.0850,0.1696,0.7254,-1.0172,-1.1438,70.78,-22.42,27.16,0,0.000,-556.177,-289.566,-116.526,0.000,0.000,0.000,0.000,0.000,0.000
15,0.1467,-0.0954,0.1583,0.7879,-1.1073,-1.2170,64.60,-22.58,23.84,0,0.000,-612.586,-295.438,-55.945,0.000,0.000,0.000,0.000,0.000,0.000
15,0.1559,-0.1071,0.1451,0.8538,-1.2017,-1.2918,57.09,-21.25,21.02,0,0.000,-352.033,-657.765,-487.889,0.000,0.000,0.000,0.000,0.000,0.000
15,0.1652,-0.1164,0.1247,0.9172,-1.2879,-1.3909,50.53,-19.91,15.52,0,0.000,-69.054,-990.349,-539.344,0.000,0.000,0.000,0.000,0.000,0.000
15,0.1818,-0.1310,0.1091,0.9901,-1.3813,-1.4608,44.91,-15.01,7.05,0,0.000,61.445,-1154.702,-506.469,0.000,0.000,0.000,0.000,0.000,0.000
15,0.1647,-0.1365,0.1002,0.9567,-1.3945,-1.5066,41.70,-9.39,-4.32,0,0.000,-1.812,-1067.018,438.302,0.000,0.000,0.000,0.000,0.000,0.000
15,0.1570,-0.1554,0.0857,0.9590,-1.4508,-1.5822,41.42,-0.20,-10.74,0,0.000,50.731,-1007.498,390.616,0.000,0.000,0.000,0.000,0.000,0.000
15,0.0473,-0.1262,0.0903,0.7124,-1.4047,-1.5034,39.75,11.70,-14.65,0,0.000,-1337.287,-687.809,-249.575,0.000,0.000,0.000,0.000,0.000,0.000
15,-0.0016,-0.1009,0.0971,0.5826,-1.3421,-1.4620,29.00,18.17,-22.86,0,0.000,-1260.779,-1039.339,331.237,0.000,0.000,0.000,0.000,0.000,0.000
15,0.0042,-0.1145,0.0822,0.6022,-1.3756,-1.5364,12.85,28.03,-27.52,0,0.000,-556.827,-988.432,1232.436,0.000,0.000,0.000,0.000,0.000,0.000
15,-0.0715,0.0199,0.0923,0.2885,-1.0805,-1.4745,-1.82,39.17,-16.74,0,0.000,-752.379,-801.836,1119.753,0.000,0.000,0.000,0.000,0.000,0.000
15,-0.1265,0.2180,0.0966,-0.0123,-0.5532,-1.4336,-22.02,45.58,0.15,0,0.000,-1152.969,-1639.312,-92.639,0.000,0.000,0.000,0.000,0.000,0.000
15,-0.2027,0.4320,0.0687,-0.3025,0.1077,-1.7350,-43.80,55.93,15.59,0,0.000,-993.193,-1533.326,-75.395,0.000,0.000,0.000,0.000,0.000,0.000
15,-0.2147,0.5467,0.0383,-0.3257,0.4860,-2.0179,-78.09,64.60,42.21,0,0.000,-780.494,-1463.978,-70.671,0.000,0.000,0.000,0.000,0.000,0.000
15,-0.2512,0.6528,0.0002,-0.5089,0.9181,-2.3562,-116.45,63.14,76.56,0,0.000,-582.520,-1381.251,-76.869,0.000,0.000,0.000,0.000,0.000,0.000
