time_ms,pos_x,pos_y,pos_z,vel_x,vel_y,vel_z,roll,pitch,yaw,thrust,vbat,gyro_x,gyro_y,gyro_z,acc_x,acc_y,acc_z,rate_roll,rate_pitch,rate_yaw
0,0.4724,-0.2620,0.0096,0.4390,-0.2384,0.0009,-0.12,0.00,-0.03,0,0.000,0.093,0.005,0.174,0.000,0.000,0.000,0.000,0.000,0.000
0,0.4768,-0.2644,0.0096,0.4409,-0.2394,0.0010,-0.12,0.00,-0.03,0,0.000,-0.077,-0.000,-0.013,0.000,0.000,0.000,0.000,0.000,0.000
0,0.4812,-0.2668,0.0096,0.4430,-0.2402,0.0009,-0.12,0.00,-0.03,0,0.000,-0.266,0.179,0.107,0.000,0.000,0.000,0.000,0.000,0.000
0,0.4856,-0.2692,0.0097,0.4451,-0.2412,0.0008,-0.11,-0.01,-0.03,0,0.000,-0.070,0.009,0.051,0.000,0.000,0.000,0.000,0.000,0.000
0,0.4901,-0.2716,0.0097,0.4471,-0.2422,0.0008,-0.11,-0.01,-0.03,0,0.000,-0.162,-0.171,-0.104,0.000,0.000,0.000,0.000,0.000,0.000
0,0.4992,-0.2765,0.0077,0.4537,-0.2456,-0.0092,-0.12,-0.01,-0.03,0,0.000,-0.360,-0.133,-0.119,0.000,0.000,0.000,0.000,0.000,0.000
0,0.5037,-0.2790,0.0076,0.4559,-0.2468,-0.0090,-0.12,-0.01,-0.03,0,0.000,0.106,0.153,0.013,0.000,0.000,0.000,0.000,0.000,0.000
0,0.5083,-0.2814,0.0076,0.4578,-0.2480,-0.0088,-0.12,-0.00,-0.03,0,0.000,-0.165,0.334,-0.236,0.000,0.000,0.000,0.000,0.000,0.000
0,0.5129,-0.2839,0.0075,0.4597,-0.2490,-0.0087,-0.12,-0.00,-0.03,0,0.000,-0.217,0.045,0.200,0.000,0.000,0.000,0.000,0.000,0.000
0,0.5175,-0.2864,0.0074,0.4617,-0.2500,-0.0085,-0.12,-0.00,-0.03,0,0.000,-0.022,0.012,0.235,0.000,0.000,0.000,0.000,0.000,0.000
0,0.5188,-0.2872,0.0084,0.4607,-0.2494,-0.0026,-0.12,-0.00,-0.03,0,0.000,-0.017,-0.038,-0.050,0.000,0.000,0.000,0.000,0.000,0.000
0,0.5235,-0.2897,0.0084,0.4629,-0.2504,-0.0025,-0.12,-0.00,-0.03,0,0.000,-0.254,0.057,0.217,0.000,0.000,0.000,0.000,0.000,0.000
0,0.5281,-0.2922,0.0084,0.4649,-0.2516,-0.0026,-0.12,-0.01,-0.03,0,0.000,0.034,-0.154,0.177,0.000,0.000,0.000,0.000,0.000,0.000
0,0.5328,-0.2947,0.0083,0.4669,-0.2527,-0.0026,-0.12,-0.01,-0.03,0,0.000,-0.164,-0.110,-0.048,0.000,0.000,0.000,0.000,0.000,0.000
0,0.5374,-0.2973,0.0083,0.4689,-0.2537,-0.0027,-0.13,-0.01,-0.03,0,0.000,-0.077,0.124,-0.057,0.000,0.000,0.000,0.000,0.000,0.000
0,0.5412,-0.2993,0.0086,0.4700,-0.2543,-0.0013,-0.12,-0.01,-0.03,0,0.000,-0.285,0.021,0.180,0.000,0.000,0.000,0.000,0.000,0.000
0,0.5459,-0.3019,0.0086,0.4720,-0.2553,-0.0014,-0.13,-0.01,-0.03,0,0.000,-0.103,0.283,0.119,0.000,0.000,0.000,0.000,0.000,0.000
0,0.5507,-0.3044,0.0086,0.4742,-0.2565,-0.0014,-0.13,-0.01,-0.03,0,0.000,-0.244,0.416,0.002,0.000,0.000,0.000,0.000,0.000,0.000
0,0.5554,-0.3070,0.0085,0.4764,-0.2576,-0.0012,-0.13,-0.01,-0.03,0,0.000,-0.022,-0.312,-0.080,0.000,0.000,0.000,0.000,0.000,0.000
0,0.5602,-0.3096,0.0085,0.4785,-0.2587,-0.0012,-0.13,-0.01,-0.03,0,0.000,-0.078,-0.066,0.427,0.000,0.000,0.000,0.000,0.000,0.000
0,0.5644,-0.3118,0.0087,0.4799,-0.2592,-0.0002,-0.13,-0.01,-0.03,0,0.000,-0.184,-0.190,-0.099,0.000,0.000,0.000,0.000,0.000,0.000
0,0.5692,-0.3144,0.0087,0.4818,-0.2602,-0.0001,-0.13,-0.01,-0.03,0,0.000,0.126,0.255,-0.022,0.000,0.000,0.000,0.000,0.000,0.000
0,0.5740,-0.3170,0.0087,0.4839,-0.2613,-0.0001,-0.13,-0.01,-0.03,0,0.000,0.071,0.257,-0.269,0.000,0.000,0.000,0.000,0.000,0.000
0,0.5788,-0.3197,0.0087,0.4861,-0.2623,-0.0002,-0.13,-0.01,-0.03,0,0.000,-0.195,-0.119,-0.017,0.000,0.000,0.000,0.000,0.000,0.000
0,0.5837,-0.3223,0.0087,0.4881,-0.2632,-0.0000,-0.13,-0.01,-0.03,0,0.000,-0.063,-0.395,0.124,0.000,0.000,0.000,0.000,0.000,0.000
0,0.5869,-0.3240,0.0093,0.4887,-0.2635,0.0029,-0.13,-0.01,-0.03,0,0.000,-0.066,0.195,-0.382,0.000,0.000,0.000,0.000,0.000,0.000
0,0.5918,-0.3267,0.0093,0.4910,-0.2645,0.0030,-0.13,-0.01,-0.03,0,0.000,0.038,0.056,-0.109,0.000,0.000,0.000,0.000,0.000,0.000
0,0.5967,-0.3293,0.0093,0.4932,-0.2655,0.0030,-0.13,-0.01,-0.03,0,0.000,0.144,-0.146,-0.059,0.000,0.000,0.000,0.000,0.000,0.000
0,0.6017,-0.3320,0.0093,0.4953,-0.2666,0.0029,-0.13,-0.01,-0.03,0,0.000,-0.296,0.072,-0.016,0.000,0.000,0.000,0.000,0.000,0.000
0,0.6066,-0.3346,0.0094,0.4972,-0.2678,0.0031,-0.14,-0.01,-0.03,0,0.000,-0.182,0.036,0.234,0.000,0.000,0.000,0.000,0.000,0.000
0,0.6121,-0.3376,0.0092,0.4996,-0.2690,0.0024,-0.14,-0.01,-0.03,0,0.000,-0.040,0.284,-0.265,0.000,0.000,0.000,0.000,0.000,0.000
0,0.6172,-0.3403,0.0093,0.5016,-0.2698,0.0025,-0.14,-0.02,-0.03,0,0.000,-0.078,0.016,-0.303,0.000,0.000,0.000,0.000,0.000,0.000
0,0.6222,-0.3430,0.0093,0.5035,-0.2707,0.0026,-0.14,-0.02,-0.03,0,0.000,-0.357,-0.191,-0.090,0.000,0.000,0.000,0.000,0.000,0.000
0,0.6272,-0.3457,0.0093,0.5055,-0.2717,0.0027,-0.14,-0.02,-0.03,0,0.000,0.019,0.227,0.197,0.000,0.000,0.000,0.000,0.000,0.000
0,0.6323,-0.3484,0.0093,0.5075,-0.2726,0.0027,-0.14,-0.02,-0.03,0,0.000,-0.149,-0.056,0.034,0.000,0.000,0.000,0.000,0.000,0.000
0,0.6393,-0.3522,0.0088,0.5111,-0.2743,-0.0004,-0.14,-0.02,-0.03,0,0.000,-0.228,0.100,0.195,0.000,0.000,0.000,0.000,0.000,0.000
0,0.6444,-0.3549,0.0088,0.5131,-0.2753,-0.0005,-0.14,-0.02,-0.03,0,0.000,0.063,0.250,-0.196,0.000,0.000,0.000,0.000,0.000,0.000
0,0.6495,-0.3577,0.0088,0.5150,-0.2763,-0.0004,-0.14,-0.02,-0.03,0,0.000,-0.197,-0.054,0.111,0.000,0.000,0.000,0.000,0.000,0.000
0,0.6547,-0.3604,0.0088,0.5172,-0.2770,-0.0005,-0.14,-0.02,-0.03,0,0.000,-0.080,0.106,-0.084,0.000,0.000,0.000,0.000,0.000,0.000
0,0.6599,-0.3632,0.0088,0.5194,-0.2779,-0.0006,-0.14,-0.02,-0.03,0,0.000,0.074,-0.215,-0.242,0.000,0.000,0.000,0.000,0.000,0.000
0,0.6647,-0.3658,0.0089,0.5212,-0.2786,-0.0001,-0.14,-0.02,-0.03,0,0.000,-0.258,-0.160,-0.024,0.000,0.000,0.000,0.000,0.000,0.000
0,0.6700,-0.3686,0.0089,0.5232,-0.2797,-0.0001,-0.14,-0.02,-0.03,0,0.000,-0.024,-0.458,0.082,0.000,0.000,0.000,0.000,0.000,0.000
0,0.6752,-0.3714,0.0089,0.5253,-0.2808,-0.0002,-0.14,-0.02,-0.03,0,0.000,0.022,-0.017,0.044,0.000,0.000,0.000,0.000,0.000,0.000
0,0.6805,-0.3742,0.0089,0.5272,-0.2818,-0.0001,-0.15,-0.02,-0.03,0,0.000,0.123,0.152,-0.174,0.000,0.000,0.000,0.000,0.000,0.000
0,0.6857,-0.3771,0.0089,0.5292,-0.2828,-0.0002,-0.15,-0.02,-0.03,0,0.000,0.058,0.175,-0.105,0.000,0.000,0.000,0.000,0.000,0.000
0,0.6908,-0.3798,0.0089,0.5310,-0.2837,-0.0000,-0.14,-0.02,-0.03,0,0.000,0.096,0.196,-0.007,0.000,0.000,0.000,0.000,0.000,0.000
0,0.6967,-0.3829,0.0089,0.5331,-0.2848,-0.0000,-0.15,-0.02,-0.03,0,0.000,-0.172,-0.004,-0.091,0.000,0.000,0.000,0.000,0.000,0.000
0,0.7020,-0.3858,0.0089,0.5351,-0.2858,-0.0000,-0.15,-0.02,-0.03,0,0.000,-0.261,0.140,0.301,0.000,0.000,0.000,0.000,0.000,0.000
0,0.7074,-0.3886,0.0089,0.5373,-0.2867,0.0001,-0.15,-0.02,-0.03,0,0.000,-0.152,-0.046,-0.057,0.000,0.000,0.000,0.000,0.000,0.000
0,0.7128,-0.3915,0.0089,0.5395,-0.2878,0.0003,-0.15,-0.02,-0.03,0,0.000,-0.208,0.255,0.367,0.000,0.000,0.000,0.000,0.000,0.000
0,0.7164,-0.3935,0.0094,0.5401,-0.2880,0.0028,-0.15,-0.02,-0.03,0,0.000,-0.011,0.106,0.034,0.000,0.000,0.000,0.000,0.000,0.000
0,0.7219,-0.3964,0.0094,0.5421,-0.2891,0.0029,-0.15,-0.02,-0.03,0,0.000,-0.069,0.262,0.097,0.000,0.000,0.000,0.000,0.000,0.000
0,0.7273,-0.3993,0.0094,0.5443,-0.2902,0.0032,-0.15,-0.02,-0.03,0,0.000,0.140,-0.222,0.367,0.000,0.000,0.000,0.000,0.000,0.000
0,0.7327,-0.4022,0.0095,0.5465,-0.2912,0.0032,-0.15,-0.02,-0.03,0,0.000,0.202,0.138,-0.072,0.000,0.000,0.000,0.000,0.000,0.000
0,0.7382,-0.4051,0.0095,0.5486,-0.2923,0.0033,-0.15,-0.02,-0.03,0,0.000,-0.138,-0.164,0.027,0.000,0.000,0.000,0.000,0.000,0.000
0,0.7446,-0.4085,0.0093,0.5513,-0.2937,0.0023,-0.15,-0.02,-0.03,0,0.000,0.009,0.221,0.088,0.000,0.000,0.000,0.000,0.000,0.000
0,0.7501,-0.4114,0.0093,0.5534,-0.2945,0.0024,-0.15,-0.02,-0.03,0,0.000,-0.177,-0.012,0.270,0.000,0.000,0.000,0.000,0.000,0.000
0,0.7556,-0.4144,0.0094,0.5556,-0.2953,0.0026,-0.15,-0.02,-0.03,0,0.000,-0.063,-0.129,-0.100,0.000,0.000,0.000,0.000,0.000,0.000
0,0.7612,-0.4173,0.0094,0.5578,-0.2962,0.0026,-0.15,-0.02,-0.03,0,0.000,-0.269,-0.034,0.448,0.000,0.000,0.000,0.000,0.000,0.000
0,0.7668,-0.4203,0.0094,0.5601,-0.2972,0.0026,-0.15,-0.02,-0.03,0,0.000,-0.181,0.075,0.079,0.000,0.000,0.000,0.000,0.000,0.000
0,0.7714,-0.4228,0.0097,0.5615,-0.2978,0.0039,-0.15,-0.02,-0.03,0,0.000,-0.150,-0.307,-0.050,0.000,0.000,0.000,0.000,0.000,0.000
0,0.7771,-0.4257,0.0097,0.5636,-0.2988,0.0038,-0.16,-0.02,-0.03,0,0.000,-0.142,-0.034,-0.243,0.000,0.000,0.000,0.000,0.000,0.000
0,0.7827,-0.4287,0.0097,0.5657,-0.2997,0.0039,-0.16,-0.02,-0.03,0,0.000,0.005,-0.030,0.118,0.000,0.000,0.000,0.000,0.000,0.000
0,0.7884,-0.4317,0.0098,0.5678,-0.3007,0.0040,-0.15,-0.03,-0.03,0,0.000,-0.066,0.361,-0.068,0.000,0.000,0.000,0.000,0.000,0.000
0,0.7941,-0.4347,0.0098,0.5698,-0.3017,0.0040,-0.15,-0.03,-0.03,0,0.000,-0.193,-0.250,0.229,0.000,0.000,0.000,0.000,0.000,0.000
0,0.8048,-0.4403,0.0087,0.5758,-0.3047,-0.0023,-0.15,-0.03,-0.03,0,0.000,-0.018,-0.149,-0.098,0.000,0.000,0.000,0.000,0.000,0.000
0,0.8106,-0.4434,0.0086,0.5779,-0.3058,-0.0022,-0.15,-0.03,-0.03,0,0.000,-0.071,0.038,-0.135,0.000,0.000,0.000,0.000,0.000,0.000
0,0.8164,-0.4464,0.0086,0.5798,-0.3070,-0.0023,-0.16,-0.02,-0.03,0,0.000,-0.440,-0.351,-0.042,0.000,0.000,0.000,0.000,0.000,0.000
0,0.8222,-0.4495,0.0086,0.5817,-0.3081,-0.0023,-0.16,-0.02,-0.03,0,0.000,-0.174,-0.043,0.057,0.000,0.000,0.000,0.000,0.000,0.000
0,0.8280,-0.4526,0.0086,0.5836,-0.3090,-0.0023,-0.16,-0.02,-0.03,0,0.000,-0.153,-0.069,0.136,0.000,0.000,0.000,0.000,0.000,0.000
0,0.8310,-0.4542,0.0092,0.5836,-0.3089,0.0010,-0.16,-0.02,-0.03,0,0.000,-0.062,0.061,0.104,0.000,0.000,0.000,0.000,0.000,0.000
0,0.8368,-0.4573,0.0092,0.5858,-0.3098,0.0010,-0.16,-0.02,-0.03,0,0.000,-0.234,-0.572,-0.099,0.000,0.000,0.000,0.000,0.000,0.000
0,0.8427,-0.4604,0.0092,0.5879,-0.3109,0.0010,-0.16,-0.02,-0.03,0,0.000,-0.341,-0.188,0.118,0.000,0.000,0.000,0.000,0.000,0.000
0,0.8486,-0.4635,0.0092,0.5899,-0.3119,0.0012,-0.16,-0.03,-0.03,0,0.000,0.016,-0.077,-0.079,0.000,0.000,0.000,0.000,0.000,0.000
0,0.8545,-0.4667,0.0092,0.5920,-0.3129,0.0012,-0.16,-0.03,-0.03,0,0.000,0.068,-0.168,-0.269,0.000,0.000,0.000,0.000,0.000,0.000
0,0.8670,-0.4732,0.0079,0.5989,-0.3161,-0.0060,-0.16,-0.03,-0.03,0,0.000,-0.317,0.074,0.181,0.000,0.000,0.000,0.000,0.000,0.000
0,0.8730,-0.4763,0.0078,0.6011,-0.3169,-0.0060,-0.16,-0.03,-0.03,0,0.000,-0.126,-0.080,0.191,0.000,0.000,0.000,0.000,0.000,0.000
0,0.8790,-0.4795,0.0077,0.6034,-0.3178,-0.0062,-0.16,-0.02,-0.03,0,0.000,0.065,-0.124,0.093,0.000,0.000,0.000,0.000,0.000,0.000
0,0.8851,-0.4827,0.0077,0.6057,-0.3189,-0.0062,-0.16,-0.02,-0.03,0,0.000,-0.138,0.090,0.160,0.000,0.000,0.000,0.000,0.000,0.000
0,0.8912,-0.4859,0.0076,0.6079,-0.3197,-0.0061,-0.16,-0.03,-0.03,0,0.000,-0.202,0.091,0.066,0.000,0.000,0.000,0.000,0.000,0.000
0,0.8942,-0.4875,0.0081,0.6080,-0.3196,-0.0034,-0.16,-0.03,-0.03,0,0.000,-0.056,-0.036,0.071,0.000,0.000,0.000,0.000,0.000,0.000
0,0.9003,-0.4907,0.0081,0.6101,-0.3207,-0.0035,-0.16,-0.03,-0.03,0,0.000,0.021,-0.050,-0.172,0.000,0.000,0.000,0.000,0.000,0.000
0,0.9064,-0.4939,0.0081,0.6123,-0.3215,-0.0033,-0.16,-0.03,-0.03,0,0.000,-0.276,-0.069,-0.199,0.000,0.000,0.000,0.000,0.000,0.000
0,0.9126,-0.4972,0.0080,0.6142,-0.3225,-0.0033,-0.17,-0.02,-0.03,0,0.000,-0.167,0.289,0.032,0.000,0.000,0.000,0.000,0.000,0.000
0,0.9187,-0.5004,0.0080,0.6161,-0.3238,-0.0033,-0.17,-0.02,-0.03,0,0.000,-0.047,-0.007,0.125,0.000,0.000,0.000,0.000,0.000,0.000
0,0.9196,-0.5010,0.0088,0.6146,-0.3228,0.0013,-0.17,-0.02,-0.02,0,0.000,-0.087,-0.167,0.151,0.000,0.000,0.000,0.000,0.000,0.000
0,0.9258,-0.5042,0.0088,0.6166,-0.3237,0.0013,-0.17,-0.02,-0.02,0,0.000,-0.173,0.009,-0.127,0.000,0.000,0.000,0.000,0.000,0.000
0,0.9319,-0.5075,0.0089,0.6185,-0.3246,0.0014,-0.17,-0.02,-0.02,0,0.000,-0.165,0.244,-0.017,0.000,0.000,0.000,0.000,0.000,0.000
0,0.9387,-0.5110,0.0089,0.6207,-0.3258,0.0011,-0.17,-0.02,-0.02,0,0.000,0.116,0.201,0.239,0.000,0.000,0.000,0.000,0.000,0.000
0,0.9450,-0.5143,0.0089,0.6227,-0.3270,0.0010,-0.17,-0.02,-0.02,0,0.000,0.211,-0.007,-0.162,0.000,0.000,0.000,0.000,0.000,0.000
0,0.9533,-0.5186,0.0085,0.6262,-0.3288,-0.0008,-0.17,-0.02,-0.02,0,0.000,-0.272,0.147,0.166,0.000,0.000,0.000,0.000,0.000,0.000
0,0.9595,-0.5219,0.0085,0.6280,-0.3299,-0.0008,-0.17,-0.02,-0.02,0,0.000,-0.115,-0.188,0.064,0.000,0.000,0.000,0.000,0.000,0.000
0,0.9658,-0.5252,0.0085,0.6300,-0.3309,-0.0007,-0.17,-0.02,-0.02,0,0.000,0.106,0.272,-0.049,0.000,0.000,0.000,0.000,0.000,0.000
0,0.9721,-0.5285,0.0085,0.6320,-0.3317,-0.0005,-0.17,-0.02,-0.02,0,0.000,0.028,0.283,-0.240,0.000,0.000,0.000,0.000,0.000,0.000
0,0.9785,-0.5318,0.0085,0.6339,-0.3324,-0.0005,-0.17,-0.03,-0.02,0,0.000,0.107,0.032,0.019,0.000,0.000,0.000,0.000,0.000,0.000
0,0.9867,-0.5361,0.0083,0.6371,-0.3337,-0.0016,-0.17,-0.03,-0.02,0,0.000,-0.234,-0.141,0.245,0.000,0.000,0.000,0.000,0.000,0.000
0,0.9930,-0.5395,0.0083,0.6393,-0.3345,-0.0014,-0.17,-0.03,-0.02,0,0.000,-0.162,0.251,0.121,0.000,0.000,0.000,0.000,0.000,0.000
0,0.9994,-0.5428,0.0082,0.6415,-0.3354,-0.0012,-0.17,-0.03,-0.02,0,0.000,0.210,-0.273,-0.150,0.000,0.000,0.000,0.000,0.000,0.000
0,1.0059,-0.5462,0.0082,0.6436,-0.3363,-0.0012,-0.17,-0.03,-0.02,0,0.000,-0.390,0.052,0.143,0.000,0.000,0.000,0.000,0.000,0.000
0,1.0123,-0.5495,0.0082,0.6455,-0.3372,-0.0010,-0.17,-0.03,-0.02,0,0.000,-0.006,-0.224,-0.126,0.000,0.000,0.000,0.000,0.000,0.000
0,1.0193,-0.5532,0.0081,0.6474,-0.3384,-0.0015,-0.17,-0.03,-0.02,0,0.000,-0.151,0.168,0.029,0.000,0.000,0.000,0.000,0.000,0.000
0,1.0258,-0.5566,0.0081,0.6494,-0.3395,-0.0017,-0.18,-0.03,-0.02,0,0.000,-0.082,-0.125,-0.310,0.000,0.000,0.000,0.000,0.000,0.000
0,1.0323,-0.5600,0.0081,0.6515,-0.3405,-0.0018,-0.18,-0.03,-0.02,0,0.000,-0.244,0.001,0.192,0.000,0.000,0.000,0.000,0.000,0.000
0,1.0388,-0.5634,0.0081,0.6537,-0.3414,-0.0017,-0.18,-0.03,-0.02,0,0.000,-0.049,0.164,0.114,0.000,0.000,0.000,0.000,0.000,0.000
0,1.0454,-0.5668,0.0081,0.6560,-0.3422,-0.0015,-0.18,-0.03,-0.02,0,0.000,-0.087,0.198,0.063,0.000,0.000,0.000,0.000,0.000,0.000
0,1.0496,-0.5690,0.0085,0.6567,-0.3423,0.0007,-0.18,-0.03,-0.02,0,0.000,0.027,-0.161,-0.204,0.000,0.000,0.000,0.000,0.000,0.000
0,1.0562,-0.5725,0.0085,0.6588,-0.3430,0.0007,-0.18,-0.03,-0.02,0,0.000,-0.041,-0.098,0.164,0.000,0.000,0.000,0.000,0.000,0.000
0,1.0628,-0.5759,0.0085,0.6608,-0.3439,0.0007,-0.17,-0.04,-0.02,0,0.000,-0.060,-0.060,0.158,0.000,0.000,0.000,0.000,0.000,0.000
0,1.0694,-0.5793,0.0085,0.6628,-0.3448,0.0007,-0.17,-0.04,-0.02,0,0.000,-0.250,-0.056,-0.068,0.000,0.000,0.000,0.000,0.000,0.000
0,1.0760,-0.5828,0.0085,0.6648,-0.3457,0.0008,-0.17,-0.04,-0.02,0,0.000,-0.138,0.039,-0.071,0.000,0.000,0.000,0.000,0.000,0.000
0,1.0906,-0.5902,0.0070,0.6722,-0.3492,-0.0070,-0.17,-0.04,-0.02,0,0.000,0.063,-0.036,0.081,0.000,0.000,0.000,0.000,0.000,0.000
0,1.0973,-0.5937,0.0069,0.6744,-0.3501,-0.0071,-0.17,-0.04,-0.02,0,0.000,0.153,0.189,-0.101,0.000,0.000,0.000,0.000,0.000,0.000
0,1.1040,-0.5972,0.0069,0.6764,-0.3511,-0.0073,-0.17,-0.04,-0.02,0,0.000,-0.061,0.204,-0.198,0.000,0.000,0.000,0.000,0.000,0.000
0,1.1108,-0.6008,0.0068,0.6784,-0.3521,-0.0072,-0.17,-0.03,-0.02,0,0.000,0.077,0.067,-0.199,0.000,0.000,0.000,0.000,0.000,0.000
0,1.1176,-0.6043,0.0067,0.6803,-0.3529,-0.0070,-0.17,-0.04,-0.02,0,0.000,-0.273,0.181,0.039,0.000,0.000,0.000,0.000,0.000,0.000
1,1.1206,-0.6059,0.0072,0.6800,-0.3526,-0.0037,-0.17,-0.04,-0.03,0,0.000,-0.315,-0.087,-0.018,0.000,0.000,0.000,0.000,0.000,0.000
1,1.1274,-0.6094,0.0072,0.6821,-0.3535,-0.0037,-0.17,-0.04,-0.03,0,0.000,-0.165,0.085,0.216,0.000,0.000,0.000,0.000,0.000,0.000
1,1.1342,-0.6130,0.0072,0.6843,-0.3543,-0.0038,-0.19,-0.02,-0.03,0,0.000,-0.154,-0.084,0.244,0.000,0.000,0.000,0.000,0.000,0.000
1,1.1411,-0.6165,0.0071,0.6863,-0.3553,-0.0039,-0.19,-0.02,-0.03,0,0.000,-0.190,0.120,-0.043,0.000,0.000,0.000,0.000,0.000,0.000
1,1.1480,-0.6201,0.0071,0.6883,-0.3563,-0.0039,-0.19,-0.02,-0.03,0,0.000,-0.032,-0.076,-0.158,0.000,0.000,0.000,0.000,0.000,0.000
1,1.1417,-0.6171,0.0091,0.6818,-0.3531,0.0066,-0.19,-0.02,-0.02,0,0.000,-0.111,-0.068,-0.096,0.000,0.000,0.000,0.000,0.000,0.000
1,1.1485,-0.6207,0.0092,0.6836,-0.3541,0.0066,-0.19,-0.02,-0.03,0,0.000,-0.106,0.178,0.149,0.000,0.000,0.000,0.000,0.000,0.000
1,1.1554,-0.6242,0.0093,0.6857,-0.3550,0.0065,-0.19,-0.02,-0.03,0,0.000,0.035,0.103,-0.105,0.000,0.000,0.000,0.000,0.000,0.000
1,1.1623,-0.6278,0.0093,0.6879,-0.3558,0.0064,-0.19,-0.02,-0.03,0,0.000,-0.264,-0.133,0.172,0.000,0.000,0.000,0.000,0.000,0.000
1,1.1691,-0.6313,0.0094,0.6899,-0.3570,0.0063,-0.19,-0.02,-0.03,0,0.000,0.090,-0.137,0.133,0.000,0.000,0.000,0.000,0.000,0.000
1,1.1725,-0.6332,0.0101,0.6897,-0.3570,0.0095,-0.19,-0.01,-0.03,0,0.000,-0.223,0.391,-0.001,0.000,0.000,0.000,0.000,0.000,0.000
1,1.1794,-0.6367,0.0102,0.6918,-0.3582,0.0093,-0.19,-0.01,-0.03,0,0.000,0.170,0.244,0.089,0.000,0.000,0.000,0.000,0.000,0.000
1,1.1864,-0.6403,0.0103,0.6938,-0.3592,0.0094,-0.19,-0.02,-0.03,0,0.000,0.080,0.189,0.188,0.000,0.000,0.000,0.000,0.000,0.000
1,1.1933,-0.6439,0.0104,0.6957,-0.3600,0.0095,-0.19,-0.02,-0.03,0,0.000,0.008,0.004,-0.078,0.000,0.000,0.000,0.000,0.000,0.000
1,1.2003,-0.6475,0.0105,0.6978,-0.3609,0.0095,-0.19,-0.02,-0.03,0,0.000,-0.068,-0.199,0.292,0.000,0.000,0.000,0.000,0.000,0.000
1,1.2101,-0.6526,0.0100,0.7016,-0.3626,0.0063,-0.19,-0.02,-0.03,0,0.000,0.014,0.042,-0.134,0.000,0.000,0.000,0.000,0.000,0.000
1,1.2171,-0.6562,0.0100,0.7036,-0.3636,0.0063,-0.19,-0.02,-0.03,0,0.000,-0.217,-0.202,0.152,0.000,0.000,0.000,0.000,0.000,0.000
1,1.2242,-0.6598,0.0101,0.7057,-0.3644,0.0064,-0.19,-0.02,-0.03,0,0.000,0.138,-0.014,0.266,0.000,0.000,0.000,0.000,0.000,0.000
1,1.2312,-0.6635,0.0102,0.7076,-0.3652,0.0066,-0.19,-0.02,-0.03,0,0.000,-0.334,0.185,0.156,0.000,0.000,0.000,0.000,0.000,0.000
1,1.2383,-0.6671,0.0102,0.7098,-0.3661,0.0068,-0.19,-0.02,-0.03,0,0.000,-0.226,0.020,-0.038,0.000,0.000,0.000,0.000,0.000,0.000
1,1.2500,-0.6732,0.0093,0.7148,-0.3684,0.0016,-0.19,-0.03,-0.02,0,0.000,-0.314,-0.035,-0.147,0.000,0.000,0.000,0.000,0.000,0.000
1,1.2572,-0.6768,0.0093,0.7169,-0.3692,0.0016,-0.19,-0.03,-0.02,0,0.000,0.067,0.074,0.079,0.000,0.000,0.000,0.000,0.000,0.000
1,1.2644,-0.6805,0.0093,0.7188,-0.3700,0.0018,-0.19,-0.03,-0.02,0,0.000,-0.015,0.311,0.134,0.000,0.000,0.000,0.000,0.000,0.000
1,1.2715,-0.6842,0.0094,0.7208,-0.3709,0.0019,-0.19,-0.03,-0.02,0,0.000,-0.033,-0.253,0.244,0.000,0.000,0.000,0.000,0.000,0.000
1,1.2788,-0.6880,0.0094,0.7228,-0.3718,0.0020,-0.19,-0.03,-0.02,0,0.000,-0.172,-0.128,0.214,0.000,0.000,0.000,0.000,0.000,0.000
2,1.2868,-0.6921,0.0092,0.7253,-0.3729,0.0011,-0.19,-0.03,-0.02,0,0.000,0.003,-0.332,0.091,0.000,0.000,0.000,0.000,0.000,0.000
2,1.2941,-0.6958,0.0092,0.7274,-0.3736,0.0010,-0.19,-0.03,-0.02,0,0.000,-0.010,0.044,0.062,0.000,0.000,0.000,0.000,0.000,0.000
2,1.3014,-0.6996,0.0093,0.7294,-0.3743,0.0012,-0.19,-0.02,-0.02,0,0.000,-0.097,0.040,0.131,0.000,0.000,0.000,0.000,0.000,0.000
2,1.3087,-0.7033,0.0093,0.7316,-0.3751,0.0013,-0.19,-0.03,-0.02,0,0.000,-0.008,0.253,-0.058,0.000,0.000,0.000,0.000,0.000,0.000
2,1.3160,-0.7071,0.0093,0.7337,-0.3761,0.0013,-0.19,-0.03,-0.02,0,0.000,-0.190,-0.002,-0.009,0.000,0.000,0.000,0.000,0.000,0.000
2,1.3296,-0.7140,0.0083,0.7396,-0.3790,-0.0042,-0.19,-0.04,-0.02,0,0.000,-0.144,0.271,0.161,0.000,0.000,0.000,0.000,0.000,0.000
2,1.3370,-0.7178,0.0083,0.7418,-0.3800,-0.0042,-0.19,-0.04,-0.02,0,0.000,-0.164,0.212,0.185,0.000,0.000,0.000,0.000,0.000,0.000
2,1.3444,-0.7216,0.0082,0.7440,-0.3809,-0.0041,-0.19,-0.04,-0.02,0,0.000,0.215,-0.129,-0.258,0.000,0.000,0.000,0.000,0.000,0.000
2,1.3519,-0.7254,0.0082,0.7462,-0.3818,-0.0040,-0.19,-0.04,-0.02,0,0.000,-0.218,0.073,0.313,0.000,0.000,0.000,0.000,0.000,0.000
2,1.3593,-0.7292,0.0081,0.7484,-0.3828,-0.0039,-0.19,-0.04,-0.02,0,0.000,-0.055,-0.439,-0.222,0.000,0.000,0.000,0.000,0.000,0.000
2,1.3672,-0.7332,0.0080,0.7507,-0.3839,-0.0043,-0.19,-0.04,-0.02,0,0.000,-0.070,-0.048,-0.175,0.000,0.000,0.000,0.000,0.000,0.000
2,1.3748,-0.7371,0.0080,0.7528,-0.3847,-0.0041,-0.19,-0.04,-0.02,0,0.000,-0.177,-0.139,-0.174,0.000,0.000,0.000,0.000,0.000,0.000
2,1.3823,-0.7409,0.0080,0.7548,-0.3856,-0.0039,-0.19,-0.04,-0.02,0,0.000,-0.143,-0.289,0.007,0.000,0.000,0.000,0.000,0.000,0.000
2,1.3899,-0.7448,0.0079,0.7567,-0.3868,-0.0037,-0.19,-0.04,-0.02,0,0.000,-0.058,0.098,-0.169,0.000,0.000,0.000,0.000,0.000,0.000
2,1.3974,-0.7487,0.0079,0.7587,-0.3879,-0.0037,-0.19,-0.04,-0.02,0,0.000,-0.187,0.092,0.004,0.000,0.000,0.000,0.000,0.000,0.000
2,1.4008,-0.7504,0.0084,0.7582,-0.3878,-0.0010,-0.19,-0.04,-0.02,0,0.000,-0.070,-0.023,0.079,0.000,0.000,0.000,0.000,0.000,0.000
2,1.4084,-0.7543,0.0083,0.7603,-0.3886,-0.0009,-0.20,-0.04,-0.02,0,0.000,0.026,-0.021,-0.181,0.000,0.000,0.000,0.000,0.000,0.000
2,1.4160,-0.7582,0.0083,0.7625,-0.3894,-0.0008,-0.20,-0.04,-0.02,0,0.000,-0.099,0.114,0.198,0.000,0.000,0.000,0.000,0.000,0.000
2,1.4236,-0.7621,0.0083,0.7646,-0.3905,-0.0007,-0.19,-0.04,-0.02,0,0.000,-0.253,-0.022,-0.003,0.000,0.000,0.000,0.000,0.000,0.000
2,1.4313,-0.7660,0.0083,0.7668,-0.3914,-0.0007,-0.20,-0.04,-0.02,0,0.000,-0.005,0.160,-0.240,0.000,0.000,0.000,0.000,0.000,0.000
2,1.4365,-0.7687,0.0086,0.7677,-0.3916,0.0007,-0.20,-0.04,-0.02,0,0.000,-0.355,-0.163,0.213,0.000,0.000,0.000,0.000,0.000,0.000
2,1.4442,-0.7727,0.0086,0.7700,-0.3925,0.0008,-0.20,-0.04,-0.02,0,0.000,0.015,-0.102,-0.039,0.000,0.000,0.000,0.000,0.000,0.000
2,1.4519,-0.7766,0.0086,0.7723,-0.3935,0.0009,-0.20,-0.04,-0.02,0,0.000,-0.154,0.103,-0.192,0.000,0.000,0.000,0.000,0.000,0.000
2,1.4597,-0.7805,0.0086,0.7746,-0.3942,0.0012,-0.19,-0.05,-0.02,0,0.000,0.213,0.128,0.020,0.000,0.000,0.000,0.000,0.000,0.000
2,1.4674,-0.7845,0.0086,0.7768,-0.3950,0.0012,-0.19,-0.05,-0.03,0,0.000,-0.104,-0.004,-0.066,0.000,0.000,0.000,0.000,0.000,0.000
2,1.4816,-0.7916,0.0079,0.7826,-0.3976,-0.0027,-0.19,-0.05,-0.03,0,0.000,-0.171,-0.127,-0.022,0.000,0.000,0.000,0.000,0.000,0.000
2,1.4895,-0.7956,0.0079,0.7847,-0.3985,-0.0027,-0.19,-0.05,-0.03,0,0.000,0.006,0.036,-0.009,0.000,0.000,0.000,0.000,0.000,0.000
2,1.4973,-0.7996,0.0079,0.7868,-0.3993,-0.0027,-0.20,-0.03,-0.03,0,0.000,-0.140,0.122,0.063,0.000,0.000,0.000,0.000,0.000,0.000
2,1.5052,-0.8036,0.0079,0.7888,-0.4001,-0.0025,-0.20,-0.03,-0.03,0,0.000,0.029,-0.029,0.216,0.000,0.000,0.000,0.000,0.000,0.000
2,1.5131,-0.8076,0.0078,0.7909,-0.4007,-0.0022,-0.20,-0.03,-0.03,0,0.000,-0.251,-0.052,0.127,0.000,0.000,0.000,0.000,0.000,0.000
2,1.5085,-0.8054,0.0091,0.7861,-0.3980,0.0046,-0.20,-0.03,-0.03,0,0.000,0.100,0.011,-0.467,0.000,0.000,0.000,0.000,0.000,0.000
2,1.5164,-0.8094,0.0092,0.7883,-0.3988,0.0047,-0.20,-0.03,-0.03,0,0.000,-0.204,0.067,0.084,0.000,0.000,0.000,0.000,0.000,0.000
2,1.5243,-0.8134,0.0092,0.7904,-0.3998,0.0046,-0.20,-0.04,-0.03,0,0.000,-0.407,0.042,0.112,0.000,0.000,0.000,0.000,0.000,0.000
3,1.5322,-0.8174,0.0093,0.7926,-0.4007,0.0046,-0.20,-0.04,-0.03,0,0.000,-0.102,-0.137,0.209,0.000,0.000,0.000,0.000,0.000,0.000
3,1.5409,-0.8218,0.0093,0.7949,-0.4016,0.0046,-0.20,-0.04,-0.03,0,0.000,-0.281,-0.237,-0.213,0.000,0.000,0.000,0.000,0.000,0.000
3,1.5541,-0.8284,0.0088,0.8000,-0.4039,0.0013,-0.20,-0.04,-0.03,0,0.000,-0.345,0.227,0.173,0.000,0.000,0.000,0.000,0.000,0.000
3,1.5621,-0.8324,0.0088,0.8019,-0.4048,0.0013,-0.21,-0.04,-0.03,0,0.000,0.027,0.247,0.402,0.000,0.000,0.000,0.000,0.000,0.000
3,1.5702,-0.8365,0.0088,0.8040,-0.4056,0.0012,-0.21,-0.03,-0.02,0,0.000,0.022,-0.013,0.043,0.000,0.000,0.000,0.000,0.000,0.000
3,1.5782,-0.8405,0.0088,0.8061,-0.4064,0.0011,-0.21,-0.03,-0.02,0,0.000,0.163,-0.064,-0.022,0.000,0.000,0.000,0.000,0.000,0.000
3,1.5863,-0.8446,0.0088,0.8082,-0.4071,0.0010,-0.21,-0.03,-0.02,0,0.000,0.088,-0.086,-0.026,0.000,0.000,0.000,0.000,0.000,0.000
3,1.5865,-0.8449,0.0097,0.8059,-0.4057,0.0054,-0.21,-0.03,-0.02,0,0.000,0.015,0.031,0.035,0.000,0.000,0.000,0.000,0.000,0.000
3,1.5945,-0.8490,0.0098,0.8079,-0.4064,0.0053,-0.21,-0.03,-0.02,0,0.000,-0.228,0.358,0.042,0.000,0.000,0.000,0.000,0.000,0.000
3,1.6026,-0.8530,0.0099,0.8100,-0.4072,0.0053,-0.21,-0.03,-0.02,0,0.000,-0.142,-0.036,0.206,0.000,0.000,0.000,0.000,0.000,0.000
3,1.6107,-0.8571,0.0099,0.8124,-0.4082,0.0053,-0.21,-0.03,-0.03,0,0.000,-0.044,0.017,-0.092,0.000,0.000,0.000,0.000,0.000,0.000
3,1.6189,-0.8612,0.0100,0.8146,-0.4091,0.0054,-0.21,-0.03,-0.03,0,0.000,0.005,0.107,-0.071,0.000,0.000,0.000,0.000,0.000,0.000
3,1.6306,-0.8670,0.0096,0.8186,-0.4108,0.0033,-0.21,-0.03,-0.03,0,0.000,-0.065,0.128,-0.040,0.000,0.000,0.000,0.000,0.000,0.000
3,1.6388,-0.8711,0.0096,0.8207,-0.4116,0.0035,-0.21,-0.03,-0.03,0,0.000,0.094,0.086,-0.245,0.000,0.000,0.000,0.000,0.000,0.000
3,1.6470,-0.8752,0.0096,0.8229,-0.4125,0.0036,-0.21,-0.04,-0.03,0,0.000,0.028,-0.277,-0.021,0.000,0.000,0.000,0.000,0.000,0.000
3,1.6553,-0.8793,0.0097,0.8250,-0.4132,0.0034,-0.21,-0.04,-0.03,0,0.000,-0.324,-0.025,-0.173,0.000,0.000,0.000,0.000,0.000,0.000
3,1.6635,-0.8835,0.0097,0.8271,-0.4139,0.0033,-0.21,-0.04,-0.03,0,0.000,-0.064,-0.132,-0.046,0.000,0.000,0.000,0.000,0.000,0.000
3,1.6774,-0.8902,0.0090,0.8322,-0.4161,-0.0005,-0.21,-0.04,-0.03,0,0.000,-0.161,0.188,-0.426,0.000,0.000,0.000,0.000,0.000,0.000
3,1.6858,-0.8943,0.0090,0.8345,-0.4170,-0.0004,-0.21,-0.04,-0.03,0,0.000,0.066,-0.207,0.390,0.000,0.000,0.000,0.000,0.000,0.000
3,1.6941,-0.8985,0.0090,0.8368,-0.4179,-0.0004,-0.21,-0.04,-0.03,0,0.000,-0.112,0.226,0.345,0.000,0.000,0.000,0.000,0.000,0.000
3,1.7025,-0.9027,0.0090,0.8391,-0.4185,-0.0005,-0.21,-0.03,-0.03,0,0.000,-0.018,-0.138,0.271,0.000,0.000,0.000,0.000,0.000,0.000
3,1.7109,-0.9069,0.0090,0.8413,-0.4193,-0.0006,-0.22,-0.03,-0.03,0,0.000,-0.074,0.068,-0.214,0.000,0.000,0.000,0.000,0.000,0.000
3,1.7114,-0.9075,0.0099,0.8392,-0.4183,0.0040,-0.21,-0.04,-0.03,0,0.000,0.102,0.008,-0.159,0.000,0.000,0.000,0.000,0.000,0.000
3,1.7198,-0.9117,0.0099,0.8413,-0.4193,0.0040,-0.21,-0.04,-0.03,0,0.000,-0.144,0.187,0.125,0.000,0.000,0.000,0.000,0.000,0.000
3,1.7282,-0.9159,0.0100,0.8435,-0.4201,0.0040,-0.21,-0.04,-0.03,0,0.000,0.025,-0.114,0.091,0.000,0.000,0.000,0.000,0.000,0.000
3,1.7366,-0.9201,0.0100,0.8458,-0.4208,0.0040,-0.21,-0.04,-0.03,0,0.000,-0.367,-0.090,0.308,0.000,0.000,0.000,0.000,0.000,0.000
3,1.7451,-0.9243,0.0100,0.8479,-0.4216,0.0042,-0.21,-0.04,-0.03,0,0.000,-0.298,-0.050,0.147,0.000,0.000,0.000,0.000,0.000,0.000
3,1.7608,-0.9317,0.0092,0.8537,-0.4244,-0.0003,-0.21,-0.04,-0.03,0,0.000,0.026,0.150,-0.091,0.000,0.000,0.000,0.000,0.000,0.000
3,1.7694,-0.9360,0.0092,0.8558,-0.4255,-0.0004,-0.22,-0.04,-0.03,0,0.000,0.095,-0.113,0.207,0.000,0.000,0.000,0.000,0.000,0.000
3,1.7779,-0.9403,0.0092,0.8578,-0.4264,-0.0003,-0.22,-0.04,-0.03,0,0.000,-0.031,-0.031,0.057,0.000,0.000,0.000,0.000,0.000,0.000
3,1.7865,-0.9445,0.0092,0.8599,-0.4273,-0.0004,-0.21,-0.04,-0.03,0,0.000,-0.071,0.123,-0.219,0.000,0.000,0.000,0.000,0.000,0.000
3,1.7951,-0.9488,0.0092,0.8621,-0.4281,-0.0005,-0.21,-0.04,-0.03,0,0.000,-0.146,0.103,0.117,0.000,0.000,0.000,0.000,0.000,0.000
3,1.8046,-0.9535,0.0091,0.8647,-0.4290,-0.0010,-0.21,-0.04,-0.03,0,0.000,0.048,0.088,0.329,0.000,0.000,0.000,0.000,0.000,0.000
3,1.8132,-0.9577,0.0091,0.8669,-0.4298,-0.0012,-0.21,-0.04,-0.02,0,0.000,-0.277,0.168,0.271,0.000,0.000,0.000,0.000,0.000,0.000
3,1.8219,-0.9621,0.0091,0.8690,-0.4308,-0.0010,-0.21,-0.05,-0.02,0,0.000,-0.147,-0.246,-0.036,0.000,0.000,0.000,0.000,0.000,0.000
3,1.8306,-0.9664,0.0091,0.8710,-0.4318,-0.0007,-0.21,-0.05,-0.02,0,0.000,0.005,0.089,0.057,0.000,0.000,0.000,0.000,0.000,0.000
3,1.8393,-0.9707,0.0091,0.8729,-0.4330,-0.0007,-0.22,-0.05,-0.02,0,0.000,-0.110,-0.147,-0.186,0.000,0.000,0.000,0.000,0.000,0.000
3,1.8484,-0.9752,0.0090,0.8751,-0.4339,-0.0008,-0.22,-0.05,-0.02,0,0.000,-0.166,0.135,-0.136,0.000,0.000,0.000,0.000,0.000,0.000
3,1.8571,-0.9795,0.0090,0.8772,-0.4347,-0.0008,-0.22,-0.05,-0.02,0,0.000,-0.172,-0.103,0.307,0.000,0.000,0.000,0.000,0.000,0.000
4,1.8659,-0.9839,0.0090,0.8791,-0.4356,-0.0009,-0.22,-0.05,-0.02,0,0.000,-0.218,0.154,-0.045,0.000,0.000,0.000,0.000,0.000,0.000
4,1.8747,-0.9882,0.0090,0.8811,-0.4366,-0.0010,-0.22,-0.05,-0.02,0,0.000,-0.284,0.137,-0.010,0.000,0.000,0.000,0.000,0.000,0.000
4,1.8835,-0.9926,0.0090,0.8833,-0.4374,-0.0011,-0.22,-0.05,-0.02,0,0.000,-0.083,-0.074,-0.078,0.000,0.000,0.000,0.000,0.000,0.000
4,1.8923,-0.9969,0.0090,0.8855,-0.4381,-0.0012,-0.22,-0.05,-0.02,0,0.000,-0.046,0.294,0.193,0.000,0.000,0.000,0.000,0.000,0.000
4,1.9021,-1.0018,0.0090,0.8878,-0.4392,-0.0013,-0.22,-0.05,-0.02,0,0.000,0.001,0.056,0.033,0.000,0.000,0.000,0.000,0.000,0.000
4,1.9109,-1.0061,0.0090,0.8897,-0.4401,-0.0012,-0.22,-0.05,-0.02,0,0.000,-0.003,-0.159,-0.100,0.000,0.000,0.000,0.000,0.000,0.000
4,1.9199,-1.0106,0.0090,0.8918,-0.4410,-0.0010,-0.22,-0.05,-0.02,0,0.000,0.016,0.154,-0.060,0.000,0.000,0.000,0.000,0.000,0.000
4,1.9288,-1.0150,0.0089,0.8941,-0.4420,-0.0010,-0.22,-0.05,-0.02,0,0.000,-0.119,-0.077,0.214,0.000,0.000,0.000,0.000,0.000,0.000
4,1.9421,-1.0215,0.0085,0.8985,-0.4440,-0.0029,-0.22,-0.05,-0.02,0,0.000,0.050,0.018,-0.280,0.000,0.000,0.000,0.000,0.000,0.000
4,1.9511,-1.0259,0.0085,0.9004,-0.4449,-0.0029,-0.22,-0.05,-0.02,0,0.000,-0.103,0.137,0.045,0.000,0.000,0.000,0.000,0.000,0.000
4,1.9601,-1.0304,0.0085,0.9024,-0.4458,-0.0029,-0.22,-0.06,-0.02,0,0.000,-0.013,0.096,0.039,0.000,0.000,0.000,0.000,0.000,0.000
4,1.9692,-1.0349,0.0085,0.9047,-0.4465,-0.0028,-0.23,-0.04,-0.02,0,0.000,0.135,-0.235,-0.340,0.000,0.000,0.000,0.000,0.000,0.000
4,1.9782,-1.0393,0.0084,0.9067,-0.4474,-0.0030,-0.23,-0.04,-0.02,0,0.000,-0.160,0.318,-0.261,0.000,0.000,0.000,0.000,0.000,0.000
4,1.9736,-1.0371,0.0095,0.9020,-0.4450,0.0028,-0.23,-0.04,-0.02,0,0.000,0.033,0.195,0.285,0.000,0.000,0.000,0.000,0.000,0.000
4,1.9826,-1.0415,0.0095,0.9043,-0.4459,0.0029,-0.23,-0.05,-0.02,0,0.000,0.005,0.011,-0.230,0.000,0.000,0.000,0.000,0.000,0.000
4,1.9917,-1.0460,0.0096,0.9064,-0.4468,0.0030,-0.23,-0.05,-0.02,0,0.000,-0.048,-0.222,-0.072,0.000,0.000,0.000,0.000,0.000,0.000
4,2.0008,-1.0505,0.0096,0.9083,-0.4476,0.0031,-0.23,-0.04,-0.02,0,0.000,0.070,-0.042,-0.223,0.000,0.000,0.000,0.000,0.000,0.000
4,2.0099,-1.0549,0.0096,0.9103,-0.4483,0.0033,-0.23,-0.04,-0.03,0,0.000,-0.077,0.358,0.079,0.000,0.000,0.000,0.000,0.000,0.000
4,2.0217,-1.0608,0.0094,0.9136,-0.4497,0.0022,-0.23,-0.04,-0.03,0,0.000,-0.147,-0.192,-0.307,0.000,0.000,0.000,0.000,0.000,0.000
4,2.0308,-1.0653,0.0094,0.9157,-0.4504,0.0023,-0.23,-0.05,-0.03,0,0.000,0.009,-0.331,0.059,0.000,0.000,0.000,0.000,0.000,0.000
4,2.0400,-1.0698,0.0094,0.9175,-0.4512,0.0024,-0.23,-0.04,-0.03,0,0.000,-0.244,0.129,0.129,0.000,0.000,0.000,0.000,0.000,0.000
4,2.0492,-1.0743,0.0095,0.9194,-0.4519,0.0023,-0.23,-0.04,-0.03,0,0.000,0.194,0.286,-0.186,0.000,0.000,0.000,0.000,0.000,0.000
4,2.0584,-1.0788,0.0095,0.9215,-0.4527,0.0020,-0.23,-0.04,-0.03,0,0.000,0.222,0.081,-0.050,0.000,0.000,0.000,0.000,0.000,0.000
4,2.0698,-1.0844,0.0093,0.9246,-0.4540,0.0007,-0.22,-0.05,-0.03,0,0.000,-0.044,-0.068,0.015,0.000,0.000,0.000,0.000,0.000,0.000
4,2.0790,-1.0890,0.0093,0.9268,-0.4548,0.0006,-0.22,-0.04,-0.03,0,0.000,-0.013,0.144,-0.200,0.000,0.000,0.000,0.000,0.000,0.000
4,2.0883,-1.0935,0.0093,0.9289,-0.4556,0.0008,-0.23,-0.04,-0.03,0,0.000,0.167,-0.043,-0.075,0.000,0.000,0.000,0.000,0.000,0.000
4,2.0976,-1.0981,0.0093,0.9309,-0.4564,0.0009,-0.23,-0.04,-0.03,0,0.000,0.091,0.037,-0.003,0.000,0.000,0.000,0.000,0.000,0.000
4,2.1069,-1.1027,0.0093,0.9332,-0.4573,0.0010,-0.23,-0.04,-0.03,0,0.000,-0.278,0.053,0.048,0.000,0.000,0.000,0.000,0.000,0.000
4,2.1099,-1.1041,0.0100,0.9325,-0.4565,0.0047,-0.23,-0.04,-0.03,0,0.000,-0.064,0.071,0.084,0.000,0.000,0.000,0.000,0.000,0.000
4,2.1192,-1.1086,0.0101,0.9345,-0.4572,0.0048,-0.23,-0.04,-0.03,0,0.000,-0.016,-0.034,0.053,0.000,0.000,0.000,0.000,0.000,0.000
4,2.1286,-1.1132,0.0101,0.9366,-0.4580,0.0048,-0.23,-0.04,-0.03,0,0.000,0.020,0.203,-0.397,0.000,0.000,0.000,0.000,0.000,0.000
4,2.1380,-1.1178,0.0102,0.9386,-0.4588,0.0047,-0.23,-0.04,-0.03,0,0.000,-0.191,-0.008,0.462,0.000,0.000,0.000,0.000,0.000,0.000
4,2.1474,-1.1224,0.0102,0.9409,-0.4597,0.0046,-0.23,-0.04,-0.03,0,0.000,-0.062,0.202,0.039,0.000,0.000,0.000,0.000,0.000,0.000
4,2.1541,-1.1257,0.0106,0.9417,-0.4599,0.0063,-0.23,-0.04,-0.03,0,0.000,-0.217,-0.211,-0.075,0.000,0.000,0.000,0.000,0.000,0.000
4,2.1635,-1.1303,0.0107,0.9437,-0.4606,0.0061,-0.23,-0.04,-0.03,0,0.000,-0.165,0.060,-0.154,0.000,0.000,0.000,0.000,0.000,0.000
4,2.1730,-1.1349,0.0107,0.9457,-0.4615,0.0062,-0.23,-0.04,-0.03,0,0.000,-0.093,-0.234,-0.116,0.000,0.000,0.000,0.000,0.000,0.000
4,2.1824,-1.1395,0.0108,0.9478,-0.4623,0.0064,-0.23,-0.04,-0.03,0,0.000,-0.074,-0.008,0.067,0.000,0.000,0.000,0.000,0.000,0.000
4,2.1919,-1.1441,0.0108,0.9499,-0.4631,0.0066,-0.23,-0.04,-0.03,0,0.000,0.155,0.126,0.063,0.000,0.000,0.000,0.000,0.000,0.000
4,2.2043,-1.1502,0.0106,0.9535,-0.4644,0.0048,-0.23,-0.04,-0.03,0,0.000,0.008,-0.221,-0.168,0.000,0.000,0.000,0.000,0.000,0.000
4,2.2139,-1.1548,0.0106,0.9556,-0.4652,0.0049,-0.23,-0.04,-0.03,0,0.000,-0.000,-0.039,0.031,0.000,0.000,0.000,0.000,0.000,0.000
5,2.2235,-1.1595,0.0107,0.9578,-0.4661,0.0051,-0.23,-0.04,-0.03,0,0.000,-0.036,0.257,-0.027,0.000,0.000,0.000,0.000,0.000,0.000
5,2.2330,-1.1641,0.0107,0.9599,-0.4670,0.0052,-0.22,-0.05,-0.03,0,0.000,0.096,0.178,-0.098,0.000,0.000,0.000,0.000,0.000,0.000
5,2.2427,-1.1688,0.0108,0.9620,-0.4677,0.0053,-0.22,-0.06,-0.03,0,0.000,-0.055,-0.109,0.276,0.000,0.000,0.000,0.000,0.000,0.000
5,2.2676,-1.1808,0.0092,0.9713,-0.4719,-0.0035,-0.22,-0.05,-0.03,0,0.000,-0.149,-0.200,0.207,0.000,0.000,0.000,0.000,0.000,0.000
5,2.2773,-1.1855,0.0091,0.9734,-0.4726,-0.0035,-0.22,-0.06,-0.03,0,0.000,-0.013,-0.234,-0.060,0.000,0.000,0.000,0.000,0.000,0.000
5,2.2871,-1.1902,0.0091,0.9755,-0.4734,-0.0033,-0.22,-0.05,-0.03,0,0.000,0.160,0.038,-0.303,0.000,0.000,0.000,0.000,0.000,0.000
5,2.2968,-1.1950,0.0091,0.9775,-0.4743,-0.0034,-0.22,-0.05,-0.03,0,0.000,-0.075,0.273,0.126,0.000,0.000,0.000,0.000,0.000,0.000
5,2.3066,-1.1997,0.0090,0.9797,-0.4752,-0.0037,-0.22,-0.06,-0.03,0,0.000,-0.094,-0.147,-0.042,0.000,0.000,0.000,0.000,0.000,0.000
5,2.3175,-1.2050,0.0090,0.9822,-0.4762,-0.0039,-0.22,-0.06,-0.04,0,0.000,-0.017,0.090,0.100,0.000,0.000,0.000,0.000,0.000,0.000
5,2.3273,-1.2098,0.0089,0.9843,-0.4771,-0.0041,-0.22,-0.06,-0.04,0,0.000,-0.078,-0.008,-0.092,0.000,0.000,0.000,0.000,0.000,0.000
5,2.3372,-1.2145,0.0089,0.9862,-0.4778,-0.0041,-0.22,-0.06,-0.04,0,0.000,-0.121,-0.092,-0.169,0.000,0.000,0.000,0.000,0.000,0.000
5,2.3471,-1.2193,0.0089,0.9883,-0.4785,-0.0040,-0.23,-0.05,-0.04,0,0.000,-0.014,0.053,0.268,0.000,0.000,0.000,0.000,0.000,0.000
5,2.3570,-1.2241,0.0088,0.9904,-0.4791,-0.0039,-0.23,-0.05,-0.04,0,0.000,-0.361,-0.204,0.106,0.000,0.000,0.000,0.000,0.000,0.000
5,2.3587,-1.2251,0.0093,0.9889,-0.4782,-0.0010,-0.23,-0.05,-0.04,0,0.000,-0.288,0.149,0.073,0.000,0.000,0.000,0.000,0.000,0.000
5,2.3686,-1.2299,0.0093,0.9912,-0.4790,-0.0008,-0.23,-0.05,-0.04,0,0.000,-0.175,0.229,0.008,0.000,0.000,0.000,0.000,0.000,0.000
5,2.3785,-1.2346,0.0093,0.9935,-0.4799,-0.0006,-0.23,-0.05,-0.04,0,0.000,-0.073,-0.050,0.022,0.000,0.000,0.000,0.000,0.000,0.000
5,2.3885,-1.2394,0.0093,0.9957,-0.4807,-0.0006,-0.23,-0.05,-0.03,0,0.000,-0.189,-0.023,0.181,0.000,0.000,0.000,0.000,0.000,0.000
5,2.3985,-1.2443,0.0093,0.9980,-0.4814,-0.0005,-0.23,-0.05,-0.03,0,0.000,0.077,0.083,-0.068,0.000,0.000,0.000,0.000,0.000,0.000
5,2.4102,-1.2499,0.0092,1.0011,-0.4826,-0.0010,-0.23,-0.05,-0.04,0,0.000,0.088,-0.011,-0.197,0.000,0.000,0.000,0.000,0.000,0.000
5,2.4202,-1.2547,0.0091,1.0035,-0.4836,-0.0008,-0.23,-0.05,-0.04,0,0.000,-0.212,0.161,0.059,0.000,0.000,0.000,0.000,0.000,0.000
5,2.4302,-1.2596,0.0091,1.0058,-0.4844,-0.0007,-0.23,-0.05,-0.04,0,0.000,-0.300,0.171,0.300,0.000,0.000,0.000,0.000,0.000,0.000
5,2.4403,-1.2644,0.0091,1.0077,-0.4853,-0.0010,-0.23,-0.06,-0.04,0,0.000,-0.019,0.412,0.072,0.000,0.000,0.000,0.000,0.000,0.000
5,2.4504,-1.2693,0.0091,1.0097,-0.4863,-0.0011,-0.23,-0.06,-0.03,0,0.000,-0.146,0.032,0.150,0.000,0.000,0.000,0.000,0.000,0.000
5,2.4679,-1.2776,0.0086,1.0153,-0.4888,-0.0038,-0.23,-0.06,-0.04,0,0.000,0.169,0.108,0.080,0.000,0.000,0.000,0.000,0.000,0.000
5,2.4781,-1.2825,0.0086,1.0176,-0.4899,-0.0038,-0.23,-0.06,-0.03,0,0.000,-0.123,0.103,0.059,0.000,0.000,0.000,0.000,0.000,0.000
5,2.4883,-1.2874,0.0085,1.0198,-0.4908,-0.0038,-0.24,-0.05,-0.03,0,0.000,0.064,-0.097,-0.126,0.000,0.000,0.000,0.000,0.000,0.000
5,2.4985,-1.2923,0.0085,1.0222,-0.4917,-0.0037,-0.24,-0.05,-0.03,0,0.000,-0.345,0.099,0.108,0.000,0.000,0.000,0.000,0.000,0.000
5,2.5087,-1.2972,0.0085,1.0244,-0.4924,-0.0036,-0.24,-0.05,-0.03,0,0.000,0.193,-0.216,-0.294,0.000,0.000,0.000,0.000,0.000,0.000
5,2.5089,-1.2974,0.0091,1.0221,-0.4911,-0.0003,-0.24,-0.05,-0.03,0,0.000,-0.457,-0.048,0.047,0.000,0.000,0.000,0.000,0.000,0.000
5,2.5191,-1.3023,0.0091,1.0242,-0.4919,-0.0004,-0.24,-0.05,-0.03,0,0.000,0.036,-0.117,-0.330,0.000,0.000,0.000,0.000,0.000,0.000
5,2.5293,-1.3072,0.0091,1.0264,-0.4927,-0.0003,-0.24,-0.05,-0.03,0,0.000,-0.034,0.165,0.043,0.000,0.000,0.000,0.000,0.000,0.000
5,2.5396,-1.3122,0.0091,1.0286,-0.4935,-0.0003,-0.24,-0.04,-0.03,0,0.000,-0.203,0.062,0.093,0.000,0.000,0.000,0.000,0.000,0.000
5,2.5499,-1.3171,0.0091,1.0306,-0.4943,-0.0002,-0.24,-0.04,-0.03,0,0.000,-0.133,0.057,-0.278,0.000,0.000,0.000,0.000,0.000,0.000
5,2.5474,-1.3160,0.0099,1.0271,-0.4926,0.0042,-0.24,-0.04,-0.03,0,0.000,0.006,0.050,0.012,0.000,0.000,0.000,0.000,0.000,0.000
5,2.5577,-1.3209,0.0100,1.0294,-0.4934,0.0041,-0.24,-0.04,-0.03,0,0.000,-0.145,0.230,0.241,0.000,0.000,0.000,0.000,0.000,0.000
5,2.5680,-1.3259,0.0100,1.0315,-0.4942,0.0043,-0.24,-0.05,-0.03,0,0.000,-0.124,-0.164,-0.184,0.000,0.000,0.000,0.000,0.000,0.000
5,2.5784,-1.3308,0.0100,1.0334,-0.4951,0.0043,-0.24,-0.05,-0.03,0,0.000,-0.022,0.139,0.008,0.000,0.000,0.000,0.000,0.000,0.000
5,2.5887,-1.3358,0.0101,1.0354,-0.4960,0.0043,-0.24,-0.06,-0.03,0,0.000,-0.009,0.040,0.191,0.000,0.000,0.000,0.000,0.000,0.000
5,2.6152,-1.3485,0.0088,1.0445,-0.5001,-0.0023,-0.24,-0.06,-0.03,0,0.000,0.108,-0.068,0.123,0.000,0.000,0.000,0.000,0.000,0.000
5,2.6257,-1.3535,0.0088,1.0465,-0.5008,-0.0023,-0.24,-0.06,-0.03,0,0.000,-0.303,0.172,-0.194,0.000,0.000,0.000,0.000,0.000,0.000
5,2.6361,-1.3585,0.0088,1.0487,-0.5017,-0.0023,-0.24,-0.06,-0.03,0,0.000,0.188,0.155,-0.006,0.000,0.000,0.000,0.000,0.000,0.000
5,2.6466,-1.3635,0.0088,1.0508,-0.5024,-0.0022,-0.24,-0.06,-0.04,0,0.000,-0.280,0.043,-0.132,0.000,0.000,0.000,0.000,0.000,0.000
5,2.6572,-1.3685,0.0087,1.0529,-0.5031,-0.0022,-0.24,-0.06,-0.04,0,0.000,-0.152,-0.042,-0.002,0.000,0.000,0.000,0.000,0.000,0.000
5,2.6659,-1.3727,0.0088,1.0543,-0.5036,-0.0017,-0.24,-0.06,-0.04,0,0.000,-0.024,0.090,0.201,0.000,0.000,0.000,0.000,0.000,0.000
5,2.6764,-1.3777,0.0088,1.0562,-0.5044,-0.0020,-0.24,-0.06,-0.04,0,0.000,0.097,0.080,-0.138,0.000,0.000,0.000,0.000,0.000,0.000
5,2.6870,-1.3828,0.0088,1.0580,-0.5051,-0.0020,-0.25,-0.05,-0.04,0,0.000,-0.124,-0.120,-0.260,0.000,0.000,0.000,0.000,0.000,0.000
6,2.6976,-1.3878,0.0088,1.0602,-0.5058,-0.0019,-0.25,-0.05,-0.04,0,0.000,-0.090,-0.304,-0.014,0.000,0.000,0.000,0.000,0.000,0.000
6,2.7082,-1.3929,0.0088,1.0624,-0.5066,-0.0018,-0.25,-0.05,-0.04,0,0.000,-0.024,-0.002,-0.224,0.000,0.000,0.000,0.000,0.000,0.000
6,2.7050,-1.3912,0.0097,1.0586,-0.5045,0.0028,0.00,0.00,0.00,0,0.000,0.088,-0.170,0.124,0.000,0.000,0.000,0.000,0.000,0.000
6,2.7156,-1.3963,0.0097,1.0606,-0.5053,0.0028,0.00,0.00,0.00,0,0.000,-0.038,-0.159,-0.064,0.000,0.000,0.000,0.000,0.000,0.000
6,2.7273,-1.4019,0.0097,1.0628,-0.5063,0.0029,0.00,0.00,-0.00,0,0.000,0.082,0.370,0.001,0.000,0.000,0.000,0.000,0.000,0.000
6,0.0000,-0.0000,-0.0000,0.0013,-0.0009,-0.0000,0.00,0.00,-0.00,0,0.000,-0.040,-0.048,-0.266,0.000,0.000,0.000,0.000,0.000,0.000
6,0.0000,-0.0000,-0.0000,0.0034,-0.0021,-0.0003,0.00,0.00,-0.00,0,0.000,0.098,-0.144,0.051,0.000,0.000,0.000,0.000,0.000,0.000
6,0.0001,-0.0000,0.0070,0.0053,-0.0031,-0.0004,0.00,0.00,-0.00,0,0.000,0.061,-0.042,-0.072,0.000,0.000,0.000,0.000,0.000,0.000
6,0.0001,-0.0001,0.0070,0.0071,-0.0042,-0.0003,0.00,0.00,-0.00,0,0.000,-0.372,-0.078,-0.258,0.000,0.000,0.000,0.000,0.000,0.000
6,0.0002,-0.0001,0.0070,0.0089,-0.0055,0.0000,-0.00,0.00,-0.00,0,0.000,-0.147,0.098,-0.252,0.000,0.000,0.000,0.000,0.000,0.000
6,0.0003,-0.0002,0.0070,0.0108,-0.0068,0.0003,-0.00,0.00,-0.00,0,0.000,-0.048,-0.036,0.208,0.000,0.000,0.000,0.000,0.000,0.000
6,0.0004,-0.0003,0.0070,0.0129,-0.0082,0.0005,-0.00,0.00,-0.00,0,0.000,0.005,-0.132,-0.279,0.000,0.000,0.000,0.000,0.000,0.000
6,0.0006,-0.0004,0.0080,0.0150,-0.0096,0.0016,-0.00,0.00,-0.00,0,0.000,-0.183,0.203,0.148,0.000,0.000,0.000,0.000,0.000,0.000
6,0.0007,-0.0005,0.0081,0.0170,-0.0109,0.0016,-0.00,0.00,-0.00,0,0.000,-0.071,0.106,-0.211,0.000,0.000,0.000,0.000,0.000,0.000
6,0.0009,-0.0006,0.0081,0.0192,-0.0123,0.0016,-0.01,-0.00,-0.00,0,0.000,0.095,-0.194,-0.120,0.000,0.000,0.000,0.000,0.000,0.000
6,0.0011,-0.0007,0.0081,0.0214,-0.0135,0.0016,-0.01,-0.00,-0.00,0,0.000,-0.198,-0.179,0.061,0.000,0.000,0.000,0.000,0.000,0.000
6,0.0013,-0.0008,0.0081,0.0235,-0.0148,0.0015,-0.01,0.00,-0.00,0,0.000,-0.279,-0.239,0.040,0.000,0.000,0.000,0.000,0.000,0.000
6,0.0016,-0.0010,0.0077,0.0256,-0.0160,0.0001,-0.01,0.00,-0.00,0,0.000,0.192,-0.032,-0.411,0.000,0.000,0.000,0.000,0.000,0.000
6,0.0018,-0.0012,0.0077,0.0277,-0.0173,0.0003,-0.01,0.00,-0.00,0,0.000,-0.109,0.029,-0.089,0.000,0.000,0.000,0.000,0.000,0.000
6,0.0021,-0.0013,0.0077,0.0298,-0.0187,0.0006,-0.01,0.00,-0.00,0,0.000,-0.085,-0.070,-0.208,0.000,0.000,0.000,0.000,0.000,0.000
6,0.0024,-0.0015,0.0077,0.0318,-0.0199,0.0007,-0.01,0.00,-0.00,0,0.000,-0.072,0.073,0.128,0.000,0.000,0.000,0.000,0.000,0.000
6,0.0028,-0.0017,0.0077,0.0341,-0.0212,0.0007,-0.01,0.01,-0.00,0,0.000,-0.152,-0.062,0.020,0.000,0.000,0.000,0.000,0.000,0.000
6,0.0031,-0.0020,0.0082,0.0362,-0.0222,0.0034,-0.01,0.00,-0.00,0,0.000,0.097,0.083,-0.242,0.000,0.000,0.000,0.000,0.000,0.000
6,0.0035,-0.0022,0.0083,0.0382,-0.0235,0.0034,-0.01,0.00,-0.01,0,0.000,-0.437,0.025,0.334,0.000,0.000,0.000,0.000,0.000,0.000
6,0.0039,-0.0024,0.0083,0.0402,-0.0248,0.0035,-0.01,0.00,-0.00,0,0.000,0.053,0.014,-0.199,0.000,0.000,0.000,0.000,0.000,0.000
6,0.0043,-0.0027,0.0083,0.0422,-0.0262,0.0036,-0.01,0.00,-0.00,0,0.000,-0.068,-0.117,0.036,0.000,0.000,0.000,0.000,0.000,0.000
6,0.0047,-0.0030,0.0084,0.0444,-0.0277,0.0037,-0.01,0.00,-0.00,0,0.000,0.083,-0.021,-0.266,0.000,0.000,0.000,0.000,0.000,0.000
6,0.0052,-0.0032,0.0087,0.0465,-0.0288,0.0055,-0.01,0.00,-0.01,0,0.000,-0.138,0.340,0.212,0.000,0.000,0.000,0.000,0.000,0.000
6,0.0057,-0.0035,0.0087,0.0486,-0.0299,0.0057,-0.01,0.00,-0.01,0,0.000,0.097,-0.015,-0.298,0.000,0.000,0.000,0.000,0.000,0.000
6,0.0062,-0.0038,0.0088,0.0506,-0.0311,0.0060,-0.01,0.00,-0.01,0,0.000,-0.126,-0.103,-0.241,0.000,0.000,0.000,0.000,0.000,0.000
6,0.0067,-0.0041,0.0089,0.0524,-0.0326,0.0063,-0.01,0.00,-0.01,0,0.000,-0.062,-0.015,0.182,0.000,0.000,0.000,0.000,0.000,0.000
7,0.0072,-0.0045,0.0089,0.0545,-0.0340,0.0065,-0.02,0.00,-0.01,0,0.000,-0.111,0.010,0.054,0.000,0.000,0.000,0.000,0.000,0.000
7,0.0078,-0.0048,0.0086,0.0567,-0.0352,0.0043,-0.02,0.00,-0.01,0,0.000,0.113,0.146,-0.136,0.000,0.000,0.000,0.000,0.000,0.000
7,0.0083,-0.0052,0.0086,0.0588,-0.0363,0.0042,-0.01,0.00,-0.01,0,0.000,-0.258,0.264,0.085,0.000,0.000,0.000,0.000,0.000,0.000
7,0.0089,-0.0056,0.0087,0.0608,-0.0374,0.0041,-0.02,-0.00,-0.01,0,0.000,-0.136,0.228,0.441,0.000,0.000,0.000,0.000,0.000,0.000
7,0.0096,-0.0059,0.0087,0.0628,-0.0386,0.0040,-0.01,-0.01,-0.01,0,0.000,-0.104,0.189,-0.517,0.000,0.000,0.000,0.000,0.000,0.000
7,0.0102,-0.0063,0.0087,0.0650,-0.0398,0.0038,-0.01,-0.01,-0.01,0,0.000,-0.103,-0.170,-0.094,0.000,0.000,0.000,0.000,0.000,0.000
7,0.0109,-0.0068,0.0071,0.0676,-0.0411,-0.0054,-0.01,-0.01,-0.01,0,0.000,-0.040,0.088,-0.112,0.000,0.000,0.000,0.000,0.000,0.000
7,0.0116,-0.0072,0.0070,0.0695,-0.0423,-0.0057,-0.01,-0.01,-0.01,0,0.000,-0.049,0.264,0.062,0.000,0.000,0.000,0.000,0.000,0.000
7,0.0123,-0.0076,0.0070,0.0713,-0.0434,-0.0058,-0.02,-0.01,-0.01,0,0.000,0.035,-0.177,0.163,0.000,0.000,0.000,0.000,0.000,0.000
7,0.0130,-0.0081,0.0069,0.0732,-0.0447,-0.0058,-0.02,-0.00,-0.01,0,0.000,-0.092,0.011,-0.133,0.000,0.000,0.000,0.000,0.000,0.000
7,0.0138,-0.0085,0.0068,0.0752,-0.0462,-0.0059,-0.02,-0.00,-0.01,0,0.000,-0.150,0.213,0.188,0.000,0.000,0.000,0.000,0.000,0.000
7,0.0145,-0.0089,0.0082,0.0767,-0.0473,0.0015,-0.02,-0.01,-0.01,0,0.000,0.195,0.240,-0.347,0.000,0.000,0.000,0.000,0.000,0.000
7,0.0152,-0.0094,0.0082,0.0787,-0.0483,0.0015,-0.02,-0.01,-0.01,0,0.000,0.302,0.204,-0.119,0.000,0.000,0.000,0.000,0.000,0.000
7,0.0160,-0.0099,0.0082,0.0808,-0.0494,0.0015,-0.02,-0.01,-0.02,0,0.000,-0.162,-0.110,0.007,0.000,0.000,0.000,0.000,0.000,0.000
7,0.0169,-0.0104,0.0083,0.0829,-0.0506,0.0016,-0.02,-0.01,-0.01,0,0.000,-0.027,0.144,-0.147,0.000,0.000,0.000,0.000,0.000,0.000
7,0.0178,-0.0110,0.0083,0.0853,-0.0519,0.0019,-0.02,-0.01,-0.01,0,0.000,0.006,0.040,-0.236,0.000,0.000,0.000,0.000,0.000,0.000
7,0.0178,-0.0110,0.0086,0.0851,-0.0518,0.0035,-0.02,-0.01,-0.02,0,0.000,-0.134,0.187,-0.130,0.000,0.000,0.000,0.000,0.000,0.000
7,0.0195,-0.0120,0.0087,0.0892,-0.0543,0.0035,-0.02,-0.01,-0.02,0,0.000,0.055,-0.081,-0.313,0.000,0.000,0.000,0.000,0.000,0.000
7,0.0195,-0.0120,0.0087,0.0892,-0.0543,0.0035,-0.02,-0.01,-0.02,0,0.000,0.045,0.141,0.080,0.000,0.000,0.000,0.000,0.000,0.000
7,0.0213,-0.0131,0.0087,0.0931,-0.0569,0.0034,-0.02,-0.01,-0.02,0,0.000,0.163,-0.205,-0.007,0.000,0.000,0.000,0.000,0.000,0.000
7,0.0213,-0.0131,0.0087,0.0931,-0.0569,0.0034,-0.02,-0.01,-0.02,0,0.000,0.102,0.068,0.254,0.000,0.000,0.000,0.000,0.000,0.000
7,0.0232,-0.0143,0.0093,0.0968,-0.0592,0.0059,-0.03,-0.01,-0.01,0,0.000,0.118,-0.017,-0.133,0.000,0.000,0.000,0.000,0.000,0.000
7,0.0232,-0.0143,0.0093,0.0968,-0.0592,0.0059,-0.03,-0.01,-0.01,0,0.000,-0.530,-0.310,0.145,0.000,0.000,0.000,0.000,0.000,0.000
7,0.0251,-0.0155,0.0095,0.1009,-0.0615,0.0056,-0.03,-0.01,-0.01,0,0.000,0.067,-0.100,0.130,0.000,0.000,0.000,0.000,0.000,0.000
7,0.0251,-0.0155,0.0095,0.1009,-0.0615,0.0056,-0.03,-0.01,-0.02,0,0.000,-0.103,0.185,-0.249,0.000,0.000,0.000,0.000,0.000,0.000
7,0.0263,-0.0161,0.0095,0.1032,-0.0628,0.0054,-0.03,-0.01,-0.01,0,0.000,-0.232,-0.518,-1.694,0.000,0.000,0.000,0.000,0.000,0.000
7,0.0273,-0.0168,0.0098,0.1052,-0.0638,0.0063,-0.03,-0.01,-0.02,0,0.000,-1.418,-1.165,-1.375,0.000,0.000,0.000,0.000,0.000,0.000
7,0.0283,-0.0174,0.0098,0.1052,-0.0637,0.0064,-0.04,-0.00,-0.02,0,0.000,-0.785,0.062,-1.280,0.000,0.000,0.000,0.000,0.000,0.000
7,0.0294,-0.0180,0.0099,0.1052,-0.0637,0.0065,-0.04,-0.00,-0.02,0,0.000,0.241,-0.038,-0.267,0.000,0.000,0.000,0.000,0.000,0.000
7,0.0304,-0.0187,0.0099,0.1052,-0.0636,0.0066,-0.04,-0.00,-0.02,0,0.000,0.636,-0.152,-0.089,0.000,0.000,0.000,0.000,0.000,0.000
7,0.0315,-0.0193,0.0100,0.1052,-0.0636,0.0067,-0.03,-0.00,-0.02,0,0.000,0.710,0.019,0.332,0.000,0.000,0.000,0.000,0.000,0.000
7,0.0324,-0.0199,0.0109,0.1048,-0.0632,0.0110,-0.03,-0.00,-0.03,0,0.000,-1.035,-0.803,-0.024,0.000,0.000,0.000,0.000,0.000,0.000
8,0.0335,-0.0205,0.0110,0.1048,-0.0632,0.0112,-0.04,0.00,-0.03,0,0.000,-0.338,-0.400,-0.360,0.000,0.000,0.000,0.000,0.000,0.000
8,0.0345,-0.0211,0.0111,0.1048,-0.0631,0.0112,-0.04,0.01,-0.03,0,0.000,0.910,-0.287,-0.772,0.000,0.000,0.000,0.000,0.000,0.000
8,0.0356,-0.0218,0.0112,0.1048,-0.0631,0.0113,-0.03,0.01,-0.03,0,0.000,-0.625,-1.100,0.679,0.000,0.000,0.000,0.000,0.000,0.000
8,0.0366,-0.0224,0.0113,0.1048,-0.0630,0.0111,-0.03,0.02,-0.03,0,0.000,-0.359,-0.429,-5.198,0.000,0.000,0.000,0.000,0.000,0.000
8,0.0378,-0.0231,0.0104,0.1053,-0.0633,0.0057,-0.03,0.02,-0.09,0,0.000,-1.137,0.719,-6.412,0.000,0.000,0.000,0.000,0.000,0.000
8,0.0389,-0.0238,0.0105,0.1053,-0.0632,0.0059,-0.04,0.02,-0.15,0,0.000,-3.324,-4.149,-3.366,0.000,0.000,0.000,0.000,0.000,0.000
8,0.0399,-0.0244,0.0105,0.1053,-0.0632,0.0059,-0.07,0.05,-0.18,0,0.000,-2.155,-1.683,-0.398,0.000,0.000,0.000,0.000,0.000,0.000
8,0.0410,-0.0250,0.0106,0.1053,-0.0631,0.0048,-0.08,0.06,-0.18,0,0.000,2.443,2.637,-1.762,0.000,0.000,0.000,0.000,0.000,0.000
8,0.0420,-0.0256,0.0106,0.1052,-0.0630,0.0047,-0.07,0.04,-0.20,0,0.000,-2.413,-3.019,0.796,0.000,0.000,0.000,0.000,0.000,0.000
8,0.0434,-0.0264,0.0087,0.1061,-0.0635,-0.0054,-0.10,0.06,-0.20,0,0.000,1.985,1.718,-6.011,0.000,0.000,0.000,0.000,0.000,0.000
8,0.0444,-0.0271,0.0087,0.1060,-0.0634,-0.0063,-0.08,0.04,-0.26,0,0.000,5.415,3.781,-14.843,0.000,0.000,0.000,0.000,0.000,0.000
8,0.0455,-0.0277,0.0086,0.1059,-0.0632,-0.0056,-0.05,0.01,-0.40,0,0.000,-7.513,-7.964,-12.212,0.000,0.000,0.000,0.000,0.000,0.000
8,0.0466,-0.0283,0.0085,0.1058,-0.0631,-0.0056,-0.12,0.09,-0.53,0,0.000,-4.254,-3.872,-12.702,0.000,0.000,0.000,0.000,0.000,0.000
8,0.0476,-0.0290,0.0085,0.1057,-0.0630,-0.0058,-0.15,0.12,-0.65,0,0.000,3.477,5.776,-9.042,0.000,0.000,0.000,0.000,0.000,0.000
8,0.0485,-0.0295,0.0095,0.1053,-0.0626,0.0007,-0.12,0.07,-0.74,0,0.000,-1.542,-1.664,-6.903,0.000,0.000,0.000,0.000,0.000,0.000
8,0.0496,-0.0302,0.0095,0.1052,-0.0625,0.0024,-0.13,0.08,-0.82,0,0.000,-6.054,-6.175,-8.131,0.000,0.000,0.000,0.000,0.000,0.000
8,0.0506,-0.0308,0.0095,0.1051,-0.0623,0.0019,-0.19,0.14,-0.89,0,0.000,-1.600,0.980,-6.162,0.000,0.000,0.000,0.000,0.000,0.000
8,0.0517,-0.0314,0.0096,0.1049,-0.0620,-0.0005,-0.19,0.13,-0.96,0,0.000,2.228,5.337,-7.416,0.000,0.000,0.000,0.000,0.000,0.000
8,0.0527,-0.0320,0.0096,0.1048,-0.0618,0.0031,-0.17,0.08,-1.03,0,0.000,2.532,-0.124,-5.201,0.000,0.000,0.000,0.000,0.000,0.000
8,0.0538,-0.0327,0.0089,0.1048,-0.0617,-0.0008,-0.16,0.08,-1.08,0,0.000,-1.668,-2.159,-6.295,0.000,0.000,0.000,0.000,0.000,0.000
8,0.0549,-0.0333,0.0089,0.1046,-0.0614,-0.0030,-0.18,0.10,-1.14,0,0.000,-3.576,-3.708,-5.359,0.000,0.000,0.000,0.000,0.000,0.000
8,0.0559,-0.0339,0.0089,0.1044,-0.0611,-0.0020,-0.21,0.13,-1.20,0,0.000,-1.802,2.694,-8.771,0.000,0.000,0.000,0.000,0.000,0.000
8,0.0570,-0.0345,0.0089,0.1043,-0.0608,-0.0017,-0.22,0.12,-1.29,0,0.000,-0.468,-2.783,-7.424,0.000,0.000,0.000,0.000,0.000,0.000
8,0.0580,-0.0351,0.0089,0.1041,-0.0605,-0.0008,-0.22,0.15,-1.37,0,0.000,0.372,1.111,-8.007,0.000,0.000,0.000,0.000,0.000,0.000
8,0.0591,-0.0357,0.0085,0.1041,-0.0602,-0.0041,-0.22,0.15,-1.44,0,0.000,-4.037,-3.020,-7.017,0.000,0.000,0.000,0.000,0.000,0.000
8,0.0601,-0.0363,0.0084,0.1038,-0.0598,-0.0044,-0.25,0.18,-1.52,0,0.000,0.768,2.963,-7.829,0.000,0.000,0.000,0.000,0.000,0.000
8,0.0612,-0.0369,0.0084,0.1036,-0.0595,-0.0032,-0.25,0.16,-1.59,0,0.000,-1.289,-1.381,-6.327,0.000,0.000,0.000,0.000,0.000,0.000
8,0.0622,-0.0375,0.0084,0.1034,-0.0591,-0.0034,-0.26,0.18,-1.66,0,0.000,-1.410,-4.084,-6.148,0.000,0.000,0.000,0.000,0.000,0.000
8,0.0632,-0.0381,0.0083,0.1031,-0.0587,-0.0038,-0.28,0.21,-1.72,0,0.000,-0.444,-3.057,-4.977,0.000,0.000,0.000,0.000,0.000,0.000
8,0.0643,-0.0387,0.0078,0.1029,-0.0583,-0.0065,-0.28,0.24,-1.77,0,0.000,0.376,0.942,-2.425,0.000,0.000,0.000,0.000,0.000,0.000
8,0.0653,-0.0393,0.0077,0.1026,-0.0578,-0.0045,-0.27,0.24,-1.79,0,0.000,0.318,1.800,0.190,0.000,0.000,0.000,0.000,0.000,0.000
8,0.0663,-0.0398,0.0077,0.1023,-0.0574,-0.0028,-0.27,0.22,-1.79,0,0.000,-3.125,3.031,-0.129,0.000,0.000,0.000,0.000,0.000,0.000
8,0.0674,-0.0404,0.0076,0.1020,-0.0569,-0.0023,-0.29,0.20,-1.79,0,0.000,3.643,-0.954,-0.039,0.000,0.000,0.000,0.000,0.000,0.000
8,0.0684,-0.0410,0.0076,0.1016,-0.0564,-0.0032,-0.27,0.20,-1.79,0,0.000,-2.362,-0.811,1.049,0.000,0.000,0.000,0.000,0.000,0.000
8,0.0694,-0.0415,0.0073,0.1013,-0.0559,-0.0083,-0.27,0.21,-1.78,0,0.000,-1.339,-3.119,3.302,0.000,0.000,0.000,0.000,0.000,0.000
8,0.0704,-0.0421,0.0072,0.1009,-0.0554,-0.0085,-0.29,0.24,-1.75,0,0.000,-3.386,-2.143,5.708,0.000,0.000,0.000,0.000,0.000,0.000
8,0.0714,-0.0426,0.0072,0.1006,-0.0549,-0.0042,-0.32,0.26,-1.69,0,0.000,-0.650,1.881,10.838,0.000,0.000,0.000,0.000,0.000,0.000
8,0.0724,-0.0432,0.0072,0.1002,-0.0544,-0.0029,-0.32,0.24,-1.59,0,0.000,6.040,-1.747,10.150,0.000,0.000,0.000,0.000,0.000,0.000
8,0.0734,-0.0437,0.0071,0.0999,-0.0540,-0.0045,-0.28,0.25,-1.49,0,0.000,-1.787,-0.189,13.995,0.000,0.000,0.000,0.000,0.000,0.000
8,0.0744,-0.0444,0.0083,0.0995,-0.0536,0.0017,-0.28,0.26,-1.35,0,0.000,1.504,0.189,13.422,0.000,0.000,0.000,0.000,0.000,0.000
8,0.0754,-0.0449,0.0083,0.0991,-0.0531,0.0014,-0.28,0.26,-1.22,0,0.000,-3.583,9.220,14.765,0.000,0.000,0.000,0.000,0.000,0.000
8,0.0764,-0.0454,0.0083,0.0987,-0.0525,0.0023,-0.31,0.18,-1.07,0,0.000,5.711,5.663,10.236,0.000,0.000,0.000,0.000,0.000,0.000
8,0.0774,-0.0459,0.0083,0.0983,-0.0520,0.0021,-0.25,0.12,-0.97,0,0.000,2.504,9.477,2.498,0.000,0.000,0.000,0.000,0.000,0.000
8,0.0784,-0.0465,0.0084,0.0979,-0.0515,0.0006,-0.21,0.05,-0.94,0,0.000,-1.015,0.739,-3.435,0.000,0.000,0.000,0.000,0.000,0.000
8,0.0794,-0.0470,0.0086,0.0975,-0.0511,-0.0023,-0.23,0.05,-0.98,0,0.000,-2.607,-8.015,-5.597,0.000,0.000,0.000,0.000,0.000,0.000
8,0.0804,-0.0475,0.0086,0.0972,-0.0506,-0.0029,-0.26,0.12,-1.03,0,0.000,-8.205,-8.504,-3.395,0.000,0.000,0.000,0.000,0.000,0.000
8,0.0813,-0.0480,0.0086,0.0970,-0.0502,-0.0001,-0.33,0.20,-1.06,0,0.000,-1.032,-2.884,-2.607,0.000,0.000,0.000,0.000,0.000,0.000
8,0.0823,-0.0485,0.0086,0.0969,-0.0498,0.0041,-0.35,0.25,-1.09,0,0.000,3.605,-14.011,-0.326,0.000,0.000,0.000,0.000,0.000,0.000
8,0.0833,-0.0490,0.0086,0.0968,-0.0494,0.0053,-0.30,0.38,-1.09,0,0.000,5.054,-11.926,0.961,0.000,0.000,0.000,0.000,0.000,0.000
8,0.0841,-0.0494,0.0076,0.0965,-0.0487,-0.0015,-0.26,0.49,-1.08,0,0.000,-6.533,-10.887,-0.452,0.000,0.000,0.000,0.000,0.000,0.000
8,0.0851,-0.0498,0.0075,0.0961,-0.0481,-0.0006,-0.32,0.61,-1.08,0,0.000,-6.150,-11.392,-0.470,0.000,0.000,0.000,0.000,0.000,0.000
8,0.0861,-0.0503,0.0076,0.0957,-0.0475,0.0027,-0.36,0.71,-1.09,0,0.000,3.542,-9.505,-2.678,0.000,0.000,0.000,0.000,0.000,0.000
8,0.0870,-0.0508,0.0076,0.0950,-0.0470,0.0046,-0.32,0.81,-1.11,0,0.000,6.595,-18.289,-1.394,0.000,0.000,0.000,0.000,0.000,0.000
8,0.0880,-0.0513,0.0076,0.0942,-0.0465,0.0023,-0.27,0.98,-1.12,0,0.000,-5.803,-7.998,-2.057,0.000,0.000,0.000,0.000,0.000,0.000
8,0.0890,-0.0519,0.0086,0.0934,-0.0462,0.0079,-0.32,1.06,-1.14,0,0.000,-1.331,-7.916,-0.169,0.000,0.000,0.000,0.000,0.000,0.000
9,0.0899,-0.0523,0.0087,0.0921,-0.0455,0.0097,-0.33,1.14,-1.15,0,0.000,3.321,-11.262,2.355,0.000,0.000,0.000,0.000,0.000,0.000
9,0.0909,-0.0528,0.0088,0.0908,-0.0450,0.0082,-0.30,1.25,-1.12,0,0.000,0.101,-9.111,2.532,0.000,0.000,0.000,0.000,0.000,0.000
9,0.0918,-0.0532,0.0089,0.0891,-0.0445,0.0082,-0.29,1.34,-1.10,0,0.000,1.416,-4.232,1.454,0.000,0.000,0.000,0.000,0.000,0.000
9,0.0926,-0.0537,0.0090,0.0873,-0.0439,0.0085,-0.28,1.38,-1.09,0,0.000,-4.908,-12.090,1.657,0.000,0.000,0.000,0.000,0.000,0.000
9,0.0936,-0.0542,0.0095,0.0854,-0.0434,0.0120,-0.31,1.49,-1.07,0,0.000,2.908,-6.671,5.758,0.000,0.000,0.000,0.000,0.000,0.000
9,0.0944,-0.0546,0.0096,0.0833,-0.0428,0.0123,-0.30,1.57,-1.00,0,0.000,-6.549,-14.995,10.840,0.000,0.000,0.000,0.000,0.000,0.000
9,0.0952,-0.0550,0.0097,0.0811,-0.0423,0.0106,-0.35,1.71,-0.90,0,0.000,-2.236,-18.005,13.478,0.000,0.000,0.000,0.000,0.000,0.000
9,0.0960,-0.0554,0.0098,0.0787,-0.0418,0.0105,-0.38,1.89,-0.76,0,0.000,3.385,-19.723,10.806,0.000,0.000,0.000,0.000,0.000,0.000
9,0.0968,-0.0559,0.0099,0.0761,-0.0412,0.0130,-0.35,2.10,-0.65,0,0.000,8.989,-28.861,11.088,0.000,0.000,0.000,0.000,0.000,0.000
9,0.0977,-0.0563,0.0105,0.0735,-0.0407,0.0180,-0.29,2.35,-0.54,0,0.000,-7.202,-16.187,11.143,0.000,0.000,0.000,0.000,0.000,0.000
9,0.0984,-0.0567,0.0106,0.0705,-0.0401,0.0196,-0.35,2.52,-0.43,0,0.000,2.124,-19.328,10.647,0.000,0.000,0.000,0.000,0.000,0.000
9,0.0991,-0.0571,0.0108,0.0673,-0.0394,0.0193,-0.34,2.73,-0.33,0,0.000,3.724,-22.238,8.670,0.000,0.000,0.000,0.000,0.000,0.000
9,0.0997,-0.0575,0.0110,0.0637,-0.0387,0.0196,-0.29,2.98,-0.23,0,0.000,0.432,-25.874,8.475,0.000,0.000,0.000,0.000,0.000,0.000
9,0.1003,-0.0579,0.0112,0.0597,-0.0382,0.0193,-0.30,3.23,-0.14,0,0.000,-1.275,-21.776,9.551,0.000,0.000,0.000,0.000,0.000,0.000
9,0.1016,-0.0586,0.0129,0.0565,-0.0381,0.0263,-0.33,3.45,-0.05,0,0.000,-0.593,-20.332,3.804,0.000,0.000,0.000,0.000,0.000,0.000
9,0.1022,-0.0590,0.0132,0.0513,-0.0375,0.0261,-0.34,3.66,-0.01,0,0.000,-5.424,-23.463,2.298,0.000,0.000,0.000,0.000,0.000,0.000
9,0.1027,-0.0594,0.0135,0.0462,-0.0369,0.0261,-0.39,3.89,0.01,0,0.000,3.007,-20.558,-0.651,0.000,0.000,0.000,0.000,0.000,0.000
9,0.1031,-0.0598,0.0137,0.0407,-0.0364,0.0261,-0.38,4.12,0.01,0,0.000,-1.672,-23.071,-1.577,0.000,0.000,0.000,0.000,0.000,0.000
9,0.1035,-0.0601,0.0140,0.0348,-0.0359,0.0263,-0.40,4.34,-0.00,0,0.000,-1.241,-19.779,-1.327,0.000,0.000,0.000,0.000,0.000,0.000
9,0.1021,-0.0600,0.0121,0.0260,-0.0345,0.0139,-0.42,4.55,-0.02,0,0.000,-3.956,-15.157,-4.831,0.000,0.000,0.000,0.000,0.000,0.000
9,0.1023,-0.0603,0.0122,0.0193,-0.0339,0.0141,-0.46,4.70,-0.07,0,0.000,-9.363,-13.820,-4.761,0.000,0.000,0.000,0.000,0.000,0.000
9,0.1025,-0.0607,0.0123,0.0122,-0.0332,0.0146,-0.55,4.88,-0.12,0,0.000,-12.209,-10.998,-3.838,0.000,0.000,0.000,0.000,0.000,0.000
9,0.1026,-0.0610,0.0125,0.0047,-0.0325,0.0148,-0.66,4.99,-0.16,0,0.000,-13.371,-11.798,-3.699,0.000,0.000,0.000,0.000,0.000,0.000
9,0.1026,-0.0613,0.0126,-0.0030,-0.0318,0.0144,-0.78,5.10,-0.20,0,0.000,-11.733,-5.020,-5.308,0.000,0.000,0.000,0.000,0.000,0.000
9,0.0954,-0.0602,0.0075,-0.0213,-0.0289,-0.0143,-0.90,5.16,-0.25,0,0.000,-21.917,-9.713,-3.827,0.000,0.000,0.000,0.000,0.000,0.000
9,0.0951,-0.0605,0.0073,-0.0296,-0.0279,-0.0144,-1.10,5.24,-0.29,0,0.000,-17.714,2.486,-5.389,0.000,0.000,0.000,0.000,0.000,0.000
9,0.0948,-0.0608,0.0072,-0.0382,-0.0268,-0.0149,-1.29,5.23,-0.35,0,0.000,-33.180,1.215,-5.233,0.000,0.000,0.000,0.000,0.000,0.000
9,0.0943,-0.0610,0.0070,-0.0468,-0.0254,-0.0163,-1.62,5.25,-0.40,0,0.000,-32.708,7.632,-3.080,0.000,0.000,0.000,0.000,0.000,0.000
9,0.0938,-0.0613,0.0068,-0.0554,-0.0239,-0.0184,-1.93,5.17,-0.43,0,0.000,-18.143,12.998,-4.220,0.000,0.000,0.000,0.000,0.000,0.000
9,0.0868,-0.0605,0.0039,-0.0735,-0.0204,-0.0315,-2.12,5.05,-0.48,0,0.000,-23.126,-7.277,-3.903,0.000,0.000,0.000,0.000,0.000,0.000
9,0.0860,-0.0606,0.0036,-0.0825,-0.0181,-0.0318,-2.34,5.13,-0.51,0,0.000,-24.062,-18.711,-4.086,0.000,0.000,0.000,0.000,0.000,0.000
9,0.0852,-0.0608,0.0033,-0.0916,-0.0152,-0.0303,-2.60,5.32,-0.55,0,0.000,-29.268,-8.709,-4.804,0.000,0.000,0.000,0.000,0.000,0.000
9,0.0842,-0.0610,0.0030,-0.1006,-0.0118,-0.0286,-2.90,5.39,-0.59,0,0.000,-35.116,5.694,-2.013,0.000,0.000,0.000,0.000,0.000,0.000
9,0.0832,-0.0610,0.0027,-0.1095,-0.0079,-0.0260,-3.24,5.32,-0.61,0,0.000,-32.375,11.103,0.559,0.000,0.000,0.000,0.000,0.000,0.000
9,0.0785,-0.0605,0.0014,-0.1232,-0.0029,-0.0293,-3.55,5.22,-0.61,0,0.000,-26.115,10.237,1.275,0.000,0.000,0.000,0.000,0.000,0.000
9,0.0772,-0.0605,0.0011,-0.1325,0.0018,-0.0267,-3.80,5.11,-0.60,0,0.000,-22.902,11.690,1.656,0.000,0.000,0.000,0.000,0.000,0.000
9,0.0758,-0.0605,0.0009,-0.1417,0.0069,-0.0272,-4.03,4.99,-0.59,0,0.000,-17.491,16.131,3.569,0.000,0.000,0.000,0.000,0.000,0.000
9,0.0744,-0.0604,0.0006,-0.1507,0.0125,-0.0283,-4.18,4.81,-0.57,0,0.000,-0.206,23.903,2.438,0.000,0.000,0.000,0.000,0.000,0.000
9,0.0728,-0.0602,0.0003,-0.1596,0.0187,-0.0276,-4.15,4.57,-0.56,0,0.000,23.509,22.641,1.381,0.000,0.000,0.000,0.000,0.000,0.000
9,0.0711,-0.0600,0.0000,-0.1686,0.0255,-0.0259,-3.90,4.33,-0.56,0,0.000,38.292,30.471,2.598,0.000,0.000,0.000,0.000,0.000,0.000
9,0.0694,-0.0597,-0.0002,-0.1771,0.0326,-0.0256,-3.50,4.01,-0.56,0,0.000,42.402,37.947,2.804,0.000,0.000,0.000,0.000,0.000,0.000
9,0.0676,-0.0593,-0.0005,-0.1852,0.0398,-0.0260,-3.09,3.61,-0.55,0,0.000,36.966,40.061,4.624,0.000,0.000,0.000,0.000,0.000,0.000
9,0.0657,-0.0589,-0.0008,-0.1930,0.0470,-0.0263,-2.73,3.20,-0.52,0,0.000,27.569,40.664,6.167,0.000,0.000,0.000,0.000,0.000,0.000
9,0.0637,-0.0584,-0.0010,-0.2004,0.0538,-0.0258,-2.46,2.81,-0.47,0,0.000,19.700,33.995,8.841,0.000,0.000,0.000,0.000,0.000,0.000
9,0.0646,-0.0587,-0.0007,-0.2035,0.0588,-0.0227,-2.28,2.47,-0.39,0,0.000,13.688,30.883,9.873,0.000,0.000,0.000,0.000,0.000,0.000
9,0.0625,-0.0581,-0.0010,-0.2097,0.0642,-0.0216,-2.15,2.16,-0.30,0,0.000,8.232,32.844,12.896,0.000,0.000,0.000,0.000,0.000,0.000
9,0.0604,-0.0574,-0.0012,-0.2152,0.0690,-0.0206,-2.08,1.82,-0.19,0,0.000,4.422,34.588,11.959,0.000,0.000,0.000,0.000,0.000,0.000
9,0.0582,-0.0567,-0.0014,-0.2200,0.0733,-0.0199,-2.02,1.46,-0.08,0,0.000,11.139,35.017,11.342,0.000,0.000,0.000,0.000,0.000,0.000
9,0.0560,-0.0559,-0.0016,-0.2244,0.0773,-0.0167,-1.89,1.09,0.02,0,0.000,23.707,42.605,11.042,0.000,0.000,0.000,0.000,0.000,0.000
9,0.0579,-0.0568,-0.0010,-0.2230,0.0792,-0.0086,-1.63,0.65,0.12,0,0.000,35.391,48.510,10.001,0.000,0.000,0.000,0.000,0.000,0.000
9,0.0557,-0.0560,-0.0011,-0.2261,0.0828,-0.0061,-1.27,0.16,0.21,0,0.000,39.553,52.180,7.763,0.000,0.000,0.000,0.000,0.000,0.000
9,0.0534,-0.0551,-0.0011,-0.2287,0.0863,-0.0053,-0.88,-0.39,0.28,0,0.000,35.960,58.051,9.500,0.000,0.000,0.000,0.000,0.000,0.000
9,0.0511,-0.0542,-0.0012,-0.2305,0.0895,-0.0062,-0.54,-0.97,0.36,0,0.000,27.045,56.482,6.775,0.000,0.000,0.000,0.000,0.000,0.000
9,0.0488,-0.0533,-0.0012,-0.2317,0.0923,-0.0066,-0.27,-1.53,0.43,0,0.000,24.887,50.007,6.885,0.000,0.000,0.000,0.000,0.000,0.000
9,0.0496,-0.0539,-0.0008,-0.2282,0.0927,-0.0037,0.01,-2.07,0.50,0,0.000,26.281,46.063,6.446,0.000,0.000,0.000,0.000,0.000,0.000
9,0.0473,-0.0530,-0.0008,-0.2276,0.0942,-0.0029,0.26,-2.54,0.56,0,0.000,22.537,48.629,4.594,0.000,0.000,0.000,0.000,0.000,0.000
9,0.0451,-0.0520,-0.0008,-0.2259,0.0952,-0.0018,0.47,-3.02,0.61,0,0.000,13.957,43.311,4.396,0.000,0.000,0.000,0.000,0.000,0.000
10,0.0426,-0.0510,-0.0008,-0.2230,0.0957,-0.0012,0.59,-3.42,0.67,0,0.000,-1.561,28.970,7.550,0.000,0.000,0.000,0.000,0.000,0.000
10,0.0404,-0.0500,-0.0008,-0.2194,0.0957,-0.0005,0.56,-3.69,0.75,0,0.000,-12.222,20.258,8.062,0.000,0.000,0.000,0.000,0.000,0.000
10,0.0399,-0.0501,-0.0005,-0.2130,0.0941,0.0027,0.43,-3.88,0.84,0,0.000,-20.071,15.722,7.960,0.000,0.000,0.000,0.000,0.000,0.000
10,0.0378,-0.0491,-0.0005,-0.2077,0.0934,0.0044,0.21,-4.03,0.92,0,0.000,-26.857,10.547,8.279,0.000,0.000,0.000,0.000,0.000,0.000
10,0.0358,-0.0482,-0.0004,-0.2017,0.0924,0.0063,-0.04,-4.12,1.00,0,0.000,-25.037,4.096,8.453,0.000,0.000,0.000,0.000,0.000,0.000
10,0.0338,-0.0473,-0.0003,-0.1952,0.0916,0.0087,-0.27,-4.15,1.08,0,0.000,-19.339,-2.011,8.122,0.000,0.000,0.000,0.000,0.000,0.000
10,0.0319,-0.0464,-0.0002,-0.1884,0.0909,0.0117,-0.46,-4.11,1.17,0,0.000,-12.988,-7.896,7.818,0.000,0.000,0.000,0.000,0.000,0.000
10,0.0303,-0.0457,0.0000,-0.1808,0.0904,0.0155,-0.58,-4.02,1.25,0,0.000,-7.885,-12.877,7.057,0.000,0.000,0.000,0.000,0.000,0.000
10,0.0286,-0.0448,0.0002,-0.1734,0.0907,0.0202,-0.63,-3.89,1.33,0,0.000,2.519,-8.815,7.040,0.000,0.000,0.000,0.000,0.000,0.000
10,0.0267,-0.0438,0.0004,-0.1652,0.0914,0.0265,-0.56,-3.81,1.40,0,0.000,12.910,-6.344,7.367,0.000,0.000,0.000,0.000,0.000,0.000
10,0.0251,-0.0429,0.0007,-0.1578,0.0924,0.0317,-0.42,-3.75,1.48,0,0.000,15.744,-7.170,7.650,0.000,0.000,0.000,0.000,0.000,0.000
10,0.0235,-0.0419,0.0011,-0.1506,0.0936,0.0363,-0.25,-3.67,1.57,0,0.000,19.486,-7.467,8.326,0.000,0.000,0.000,0.000,0.000,0.000
10,0.0213,-0.0396,0.0008,-0.1445,0.0965,0.0374,-0.04,-3.61,1.64,0,0.000,24.877,-4.396,7.071,0.000,0.000,0.000,0.000,0.000,0.000
10,0.0199,-0.0386,0.0012,-0.1377,0.0976,0.0420,0.21,-3.57,1.72,0,0.000,26.635,-1.852,8.227,0.000,0.000,0.000,0.000,0.000,0.000
10,0.0186,-0.0376,0.0017,-0.1309,0.0985,0.0474,0.52,-3.54,1.81,0,0.000,29.258,-2.378,8.563,0.000,0.000,0.000,0.000,0.000,0.000
10,0.0173,-0.0367,0.0022,-0.1244,0.0992,0.0515,0.80,-3.51,1.90,0,0.000,24.634,-4.238,9.800,0.000,0.000,0.000,0.000,0.000,0.000
10,0.0161,-0.0357,0.0027,-0.1180,0.0994,0.0545,1.06,-3.46,1.99,0,0.000,25.825,-4.481,8.312,0.000,0.000,0.000,0.000,0.000,0.000
10,0.0132,-0.0413,0.0068,-0.1134,0.0920,0.0762,1.32,-3.42,2.07,0,0.000,24.623,-5.250,6.786,0.000,0.000,0.000,0.000,0.000,0.000
10,0.0121,-0.0404,0.0075,-0.1071,0.0913,0.0792,1.54,-3.35,2.13,0,0.000,18.716,-7.893,5.991,0.000,0.000,0.000,0.000,0.000,0.000
10,0.0111,-0.0394,0.0083,-0.1010,0.0901,0.0811,1.71,-3.27,2.18,0,0.000,10.710,-6.096,4.001,0.000,0.000,0.000,0.000,0.000,0.000
10,0.0101,-0.0386,0.0092,-0.0948,0.0885,0.0832,1.82,-3.19,2.22,0,0.000,6.319,-3.716,4.554,0.000,0.000,0.000,0.000,0.000,0.000
10,0.0092,-0.0377,0.0100,-0.0888,0.0864,0.0854,1.85,-3.13,2.27,0,0.000,-2.080,-10.004,3.850,0.000,0.000,0.000,0.000,0.000,0.000
10,-0.0025,-0.0409,0.0149,-0.0941,0.0795,0.1080,1.79,-3.01,2.30,0,0.000,-11.506,-14.901,3.032,0.000,0.000,0.000,0.000,0.000,0.000
10,-0.0034,-0.0402,0.0159,-0.0884,0.0768,0.1083,1.65,-2.86,2.33,0,0.000,-17.547,-16.560,2.468,0.000,0.000,0.000,0.000,0.000,0.000
10,-0.0043,-0.0394,0.0170,-0.0827,0.0739,0.1096,1.47,-2.67,2.34,0,0.000,-21.756,-16.623,1.798,0.000,0.000,0.000,0.000,0.000,0.000
10,-0.0051,-0.0387,0.0181,-0.0772,0.0709,0.1110,1.23,-2.49,2.36,0,0.000,-24.112,-17.621,1.516,0.000,0.000,0.000,0.000,0.000,0.000
10,-0.0058,-0.0380,0.0192,-0.0719,0.0680,0.1117,0.98,-2.32,2.37,0,0.000,-25.119,-14.587,1.993,0.000,0.000,0.000,0.000,0.000,0.000
10,-0.0149,-0.0376,0.0228,-0.0754,0.0650,0.1247,0.75,-2.17,2.38,0,0.000,-21.179,-13.388,1.637,0.000,0.000,0.000,0.000,0.000,0.000
10,-0.0156,-0.0370,0.0241,-0.0707,0.0627,0.1251,0.55,-2.03,2.40,0,0.000,-13.735,-11.699,1.682,0.000,0.000,0.000,0.000,0.000,0.000
10,-0.0163,-0.0364,0.0253,-0.0663,0.0607,0.1252,0.43,-1.93,2.41,0,0.000,-8.887,-9.746,1.759,0.000,0.000,0.000,0.000,0.000,0.000
10,-0.0169,-0.0358,0.0266,-0.0623,0.0592,0.1244,0.38,-1.80,2.43,0,0.000,5.477,-11.080,1.575,0.000,0.000,0.000,0.000,0.000,0.000
10,-0.0176,-0.0352,0.0278,-0.0586,0.0581,0.1228,0.47,-1.68,2.44,0,0.000,15.732,-10.598,1.093,0.000,0.000,0.000,0.000,0.000,0.000
10,-0.0271,-0.0323,0.0312,-0.0641,0.0597,0.1323,0.65,-1.58,2.45,0,0.000,21.972,-8.341,2.196,0.000,0.000,0.000,0.000,0.000,0.000
10,-0.0278,-0.0317,0.0325,-0.0609,0.0591,0.1305,0.89,-1.51,2.48,0,0.000,27.588,-5.953,1.948,0.000,0.000,0.000,0.000,0.000,0.000
10,-0.0284,-0.0311,0.0338,-0.0578,0.0586,0.1293,1.18,-1.47,2.50,0,0.000,27.911,-7.848,2.428,0.000,0.000,0.000,0.000,0.000,0.000
10,-0.0289,-0.0305,0.0351,-0.0549,0.0579,0.1279,1.44,-1.38,2.53,0,0.000,20.501,-9.494,4.787,0.000,0.000,0.000,0.000,0.000,0.000
10,-0.0295,-0.0299,0.0364,-0.0522,0.0569,0.1265,1.62,-1.29,2.58,0,0.000,14.433,-9.689,6.444,0.000,0.000,0.000,0.000,0.000,0.000
10,-0.0195,-0.0333,0.0349,-0.0395,0.0517,0.1118,1.74,-1.19,2.65,0,0.000,6.644,-10.001,6.508,0.000,0.000,0.000,0.000,0.000,0.000
10,-0.0199,-0.0328,0.0361,-0.0369,0.0498,0.1110,1.79,-1.09,2.71,0,0.000,2.824,-8.542,6.495,0.000,0.000,0.000,0.000,0.000,0.000
10,-0.0203,-0.0323,0.0372,-0.0345,0.0474,0.1103,1.79,-1.00,2.78,0,0.000,-3.546,-8.790,6.864,0.000,0.000,0.000,0.000,0.000,0.000
10,-0.0206,-0.0319,0.0383,-0.0322,0.0448,0.1085,1.71,-0.85,2.84,0,0.000,-5.536,-4.314,8.099,0.000,0.000,0.000,0.000,0.000,0.000
10,-0.0209,-0.0314,0.0393,-0.0300,0.0420,0.1058,1.66,-0.81,2.92,0,0.000,-4.254,-2.833,8.574,0.000,0.000,0.000,0.000,0.000,0.000
10,-0.0497,-0.0165,0.0467,-0.0551,0.0530,0.1368,1.63,-0.79,3.01,0,0.000,-0.982,-0.821,9.095,0.000,0.000,0.000,0.000,0.000,0.000
10,-0.0502,-0.0160,0.0480,-0.0534,0.0501,0.1354,1.63,-0.79,3.10,0,0.000,2.826,-0.978,7.392,0.000,0.000,0.000,0.000,0.000,0.000
10,-0.0507,-0.0155,0.0494,-0.0519,0.0473,0.1338,1.71,-0.83,3.17,0,0.000,3.509,-3.179,5.558,0.000,0.000,0.000,0.000,0.000,0.000
10,-0.0512,-0.0150,0.0507,-0.0504,0.0446,0.1314,1.73,-0.80,3.23,0,0.000,0.265,-4.394,4.786,0.000,0.000,0.000,0.000,0.000,0.000
10,-0.0517,-0.0146,0.0520,-0.0489,0.0420,0.1292,1.73,-0.75,3.27,0,0.000,-3.008,-4.830,4.141,0.000,0.000,0.000,0.000,0.000,0.000
10,-0.0300,-0.0287,0.0462,-0.0269,0.0258,0.0914,1.69,-0.69,3.31,0,0.000,-8.467,-8.492,3.547,0.000,0.000,0.000,0.000,0.000,0.000
10,-0.0302,-0.0285,0.0471,-0.0253,0.0231,0.0880,1.59,-0.59,3.35,0,0.000,-14.935,-12.444,2.928,0.000,0.000,0.000,0.000,0.000,0.000
10,-0.0305,-0.0283,0.0479,-0.0239,0.0203,0.0844,1.41,-0.45,3.37,0,0.000,-21.937,-15.668,1.978,0.000,0.000,0.000,0.000,0.000,0.000
10,-0.0307,-0.0281,0.0488,-0.0224,0.0175,0.0814,1.21,-0.32,3.38,0,0.000,-23.204,-16.161,1.059,0.000,0.000,0.000,0.000,0.000,0.000
10,-0.0309,-0.0279,0.0496,-0.0211,0.0148,0.0786,0.99,-0.16,3.38,0,0.000,-22.128,-16.109,-0.375,0.000,0.000,0.000,0.000,0.000,0.000
10,-0.0221,-0.0361,0.0476,-0.0118,0.0046,0.0619,0.78,-0.00,3.38,0,0.000,-17.807,-16.978,0.494,0.000,0.000,0.000,0.000,0.000,0.000
10,-0.0222,-0.0361,0.0482,-0.0108,0.0022,0.0606,0.61,0.18,3.38,0,0.000,-15.170,-16.149,1.828,0.000,0.000,0.000,0.000,0.000,0.000
10,-0.0223,-0.0361,0.0488,-0.0102,0.0002,0.0601,0.47,0.34,3.39,0,0.000,-7.923,-10.250,-0.172,0.000,0.000,0.000,0.000,0.000,0.000
10,-0.0224,-0.0361,0.0494,-0.0098,-0.0015,0.0597,0.40,0.41,3.39,0,0.000,-5.062,4.565,-1.413,0.000,0.000,0.000,0.000,0.000,0.000
11,-0.0225,-0.0361,0.0500,-0.0097,-0.0028,0.0598,0.35,0.34,3.37,0,0.000,-3.867,14.149,-2.712,0.000,0.000,0.000,0.000,0.000,0.000
11,-0.0269,-0.0315,0.0519,-0.0138,0.0003,0.0663,0.32,0.17,3.35,0,0.000,-4.171,21.202,-4.414,0.000,0.000,0.000,0.000,0.000,0.000
11,-0.0270,-0.0315,0.0525,-0.0143,-0.0005,0.0647,0.27,-0.05,3.30,0,0.000,-3.511,20.885,-4.207,0.000,0.000,0.000,0.000,0.000,0.000
11,-0.0272,-0.0315,0.0532,-0.0150,-0.0012,0.0621,0.22,-0.22,3.27,0,0.000,-7.164,8.792,-2.892,0.000,0.000,0.000,0.000,0.000,0.000
11,-0.0273,-0.0315,0.0538,-0.0155,-0.0018,0.0604,0.15,-0.25,3.24,0,0.000,-8.284,-6.039,-2.436,0.000,0.000,0.000,0.000,0.000,0.000
11,-0.0275,-0.0315,0.0544,-0.0158,-0.0024,0.0609,0.06,-0.14,3.22,0,0.000,-8.068,-19.316,-2.542,0.000,0.000,0.000,0.000,0.000,0.000
11,-0.0276,-0.0316,0.0550,-0.0156,-0.0029,0.0638,-0.02,0.05,3.19,0,0.000,-7.530,-18.438,-2.611,0.000,0.000,0.000,0.000,0.000,0.000
11,-0.0278,-0.0316,0.0557,-0.0152,-0.0033,0.0684,-0.07,0.22,3.16,0,0.000,-3.994,-11.332,-4.035,0.000,0.000,0.000,0.000,0.000,0.000
11,-0.0279,-0.0316,0.0564,-0.0148,-0.0035,0.0718,-0.13,0.31,3.11,0,0.000,1.190,-3.555,-3.906,0.000,0.000,0.000,0.000,0.000,0.000
11,-0.0281,-0.0317,0.0571,-0.0145,-0.0036,0.0731,-0.10,0.32,3.07,0,0.000,1.000,3.271,-5.404,0.000,0.000,0.000,0.000,0.000,0.000
11,-0.0282,-0.0317,0.0578,-0.0146,-0.0035,0.0720,-0.10,0.27,3.02,0,0.000,-0.641,5.806,-5.789,0.000,0.000,0.000,0.000,0.000,0.000
11,-0.0338,-0.0237,0.0607,-0.0197,0.0035,0.0820,-0.11,0.22,2.95,0,0.000,1.634,1.218,-6.906,0.000,0.000,0.000,0.000,0.000,0.000
11,-0.0340,-0.0236,0.0616,-0.0202,0.0036,0.0817,-0.10,0.24,2.88,0,0.000,-1.950,-6.975,-6.662,0.000,0.000,0.000,0.000,0.000,0.000
11,-0.0342,-0.0236,0.0624,-0.0208,0.0038,0.0825,-0.10,0.32,2.82,0,0.000,0.242,-8.444,-5.879,0.000,0.000,0.000,0.000,0.000,0.000
11,-0.0345,-0.0236,0.0632,-0.0213,0.0039,0.0850,-0.10,0.37,2.76,0,0.000,-3.275,0.877,-7.054,0.000,0.000,0.000,0.000,0.000,0.000
11,-0.0347,-0.0235,0.0641,-0.0217,0.0041,0.0893,-0.12,0.33,2.68,0,0.000,-1.720,12.235,-8.378,0.000,0.000,0.000,0.000,0.000,0.000
11,-0.0311,-0.0303,0.0624,-0.0190,-0.0015,0.0786,-0.14,0.17,2.59,0,0.000,-0.864,22.010,-10.158,0.000,0.000,0.000,0.000,0.000,0.000
11,-0.0313,-0.0303,0.0632,-0.0195,-0.0013,0.0791,-0.15,-0.08,2.48,0,0.000,1.584,26.609,-11.712,0.000,0.000,0.000,0.000,0.000,0.000
11,-0.0315,-0.0303,0.0639,-0.0201,-0.0012,0.0788,-0.13,-0.35,2.36,0,0.000,2.327,27.082,-10.962,0.000,0.000,0.000,0.000,0.000,0.000
11,-0.0317,-0.0304,0.0647,-0.0207,-0.0010,0.0795,-0.11,-0.60,2.25,0,0.000,1.882,18.886,-11.165,0.000,0.000,0.000,0.000,0.000,0.000
11,-0.0319,-0.0304,0.0655,-0.0210,-0.0008,0.0815,-0.11,-0.72,2.15,0,0.000,-2.787,-0.080,-9.419,0.000,0.000,0.000,0.000,0.000,0.000
11,-0.0331,-0.0282,0.0674,-0.0217,0.0013,0.0896,-0.13,-0.65,2.05,0,0.000,-4.111,-16.958,-9.639,0.000,0.000,0.000,0.000,0.000,0.000
11,-0.0333,-0.0281,0.0683,-0.0210,0.0015,0.0927,-0.19,-0.44,1.95,0,0.000,-6.717,-25.517,-9.078,0.000,0.000,0.000,0.000,0.000,0.000
11,-0.0335,-0.0281,0.0693,-0.0200,0.0018,0.0953,-0.26,-0.19,1.86,0,0.000,-8.380,-23.977,-9.998,0.000,0.000,0.000,0.000,0.000,0.000
11,-0.0337,-0.0281,0.0702,-0.0187,0.0020,0.0986,-0.34,0.03,1.76,0,0.000,-10.100,-19.185,-10.287,0.000,0.000,0.000,0.000,0.000,0.000
11,-0.0339,-0.0281,0.0712,-0.0176,0.0023,0.1009,-0.44,0.20,1.65,0,0.000,-9.505,-12.214,-11.292,0.000,0.000,0.000,0.000,0.000,0.000
11,-0.0342,-0.0276,0.0726,-0.0170,0.0030,0.1043,-0.51,0.29,1.54,0,0.000,-7.265,-4.275,-11.305,0.000,0.000,0.000,0.000,0.000,0.000
11,-0.0344,-0.0275,0.0736,-0.0167,0.0035,0.1060,-0.57,0.32,1.41,0,0.000,-2.372,1.986,-11.123,0.000,0.000,0.000,0.000,0.000,0.000
11,-0.0345,-0.0275,0.0747,-0.0167,0.0041,0.1078,-0.57,0.32,1.41,0,0.000,1.265,6.185,-11.867,0.000,0.000,0.000,0.000,0.000,0.000
11,-0.0347,-0.0275,0.0758,-0.0171,0.0048,0.1097,-0.53,0.20,1.17,0,0.000,9.959,10.147,-13.236,0.000,0.000,0.000,0.000,0.000,0.000
11,-0.0349,-0.0274,0.0770,-0.0177,0.0058,0.1122,-0.53,0.20,1.17,0,0.000,13.435,12.579,-13.100,0.000,0.000,0.000,0.000,0.000,0.000
11,-0.0352,-0.0269,0.0786,-0.0184,0.0071,0.1171,-0.27,-0.05,0.90,0,0.000,12.892,16.126,-12.900,0.000,0.000,0.000,0.000,0.000,0.000
11,-0.0353,-0.0269,0.0797,-0.0189,0.0081,0.1204,-0.27,-0.05,0.90,0,0.000,12.463,13.361,-12.273,0.000,0.000,0.000,0.000,0.000,0.000
11,-0.0355,-0.0268,0.0810,-0.0192,0.0090,0.1242,-0.05,-0.33,0.66,0,0.000,10.597,13.127,-11.569,0.000,0.000,0.000,0.000,0.000,0.000
11,-0.0357,-0.0267,0.0822,-0.0194,0.0098,0.1273,-0.05,-0.33,0.66,0,0.000,10.065,9.873,-11.298,0.000,0.000,0.000,0.000,0.000,0.000
11,-0.0359,-0.0266,0.0835,-0.0193,0.0102,0.1290,0.14,-0.53,0.43,0,0.000,6.713,7.276,-10.922,0.000,0.000,0.000,0.000,0.000,0.000
11,-0.0362,-0.0267,0.0836,-0.0190,0.0103,0.1241,0.20,-0.58,0.32,0,0.000,3.129,1.029,-11.109,0.000,0.000,0.000,0.000,0.000,0.000
11,-0.0364,-0.0266,0.0848,-0.0185,0.0104,0.1260,0.23,-0.57,0.21,0,0.000,1.750,-4.365,-10.838,0.000,0.000,0.000,0.000,0.000,0.000
11,-0.0365,-0.0265,0.0861,-0.0177,0.0103,0.1285,0.22,-0.52,0.11,0,0.000,-2.951,-6.984,-9.862,0.000,0.000,0.000,0.000,0.000,0.000
11,-0.0367,-0.0264,0.0874,-0.0167,0.0101,0.1314,0.18,-0.44,0.01,0,0.000,-5.760,-8.746,-9.474,0.000,0.000,0.000,0.000,0.000,0.000
11,-0.0369,-0.0263,0.0887,-0.0157,0.0097,0.1342,0.12,-0.36,-0.08,0,0.000,-8.158,-8.583,-9.318,0.000,0.000,0.000,0.000,0.000,0.000
11,-0.0371,-0.0260,0.0894,-0.0148,0.0094,0.1327,0.04,-0.30,-0.18,0,0.000,-6.936,-2.758,-9.626,0.000,0.000,0.000,0.000,0.000,0.000
11,-0.0372,-0.0259,0.0907,-0.0139,0.0090,0.1348,-0.03,-0.29,-0.27,0,0.000,-6.801,2.027,-9.214,0.000,0.000,0.000,0.000,0.000,0.000
11,-0.0374,-0.0259,0.0921,-0.0131,0.0087,0.1375,-0.09,-0.32,-0.36,0,0.000,-3.242,5.454,-9.141,0.000,0.000,0.000,0.000,0.000,0.000
11,-0.0375,-0.0258,0.0935,-0.0124,0.0085,0.1402,-0.12,-0.38,-0.45,0,0.000,-2.290,6.176,-9.150,0.000,0.000,0.000,0.000,0.000,0.000
11,-0.0376,-0.0257,0.0949,-0.0119,0.0084,0.1433,-0.13,-0.43,-0.54,0,0.000,2.462,5.717,-8.972,0.000,0.000,0.000,0.000,0.000,0.000
11,-0.0377,-0.0251,0.0953,-0.0114,0.0089,0.1415,-0.13,-0.43,-0.54,0,0.000,4.336,3.459,-8.758,0.000,0.000,0.000,0.000,0.000,0.000
11,-0.0378,-0.0250,0.0967,-0.0108,0.0090,0.1453,-0.10,-0.48,-0.63,0,0.000,6.251,1.022,-8.172,0.000,0.000,0.000,0.000,0.000,0.000
11,-0.0379,-0.0249,0.0982,-0.0101,0.0092,0.1492,-0.05,-0.50,-0.72,0,0.000,9.766,-0.405,-7.653,0.000,0.000,0.000,0.000,0.000,0.000
11,-0.0380,-0.0249,0.0997,-0.0094,0.0094,0.1531,0.03,-0.51,-0.80,0,0.000,12.384,-0.430,-7.106,0.000,0.000,0.000,0.000,0.000,0.000
11,-0.0381,-0.0248,0.1013,-0.0085,0.0096,0.1569,0.14,-0.50,-0.87,0,0.000,12.265,0.521,-7.127,0.000,0.000,0.000,0.000,0.000,0.000
11,-0.0383,-0.0251,0.1036,-0.0077,0.0094,0.1640,0.26,-0.50,-0.95,0,0.000,9.178,3.394,-7.240,0.000,0.000,0.000,0.000,0.000,0.000
11,-0.0384,-0.0250,0.1052,-0.0068,0.0093,0.1666,0.38,-0.53,-1.02,0,0.000,5.490,5.505,-6.592,0.000,0.000,0.000,0.000,0.000,0.000
11,-0.0385,-0.0249,0.1069,-0.0060,0.0091,0.1689,0.45,-0.58,-1.09,0,0.000,3.160,5.755,-6.169,0.000,0.000,0.000,0.000,0.000,0.000
11,-0.0385,-0.0248,0.1086,-0.0051,0.0086,0.1714,0.50,-0.65,-1.15,0,0.000,-3.744,7.103,-6.335,0.000,0.000,0.000,0.000,0.000,0.000
11,-0.0386,-0.0247,0.1104,-0.0042,0.0079,0.1743,0.49,-0.71,-1.22,0,0.000,-2.033,5.213,-5.054,0.000,0.000,0.000,0.000,0.000,0.000
11,-0.0383,-0.0244,0.1116,-0.0029,0.0073,0.1749,0.46,-0.78,-1.28,0,0.000,-6.405,3.020,-4.777,0.000,0.000,0.000,0.000,0.000,0.000
11,-0.0384,-0.0243,0.1134,-0.0018,0.0064,0.1782,0.42,-0.81,-1.33,0,0.000,-2.377,0.568,-4.503,0.000,0.000,0.000,0.000,0.000,0.000
12,-0.0384,-0.0242,0.1152,-0.0006,0.0055,0.1814,0.36,-0.84,-1.37,0,0.000,-4.595,-0.919,-4.727,0.000,0.000,0.000,0.000,0.000,0.000
12,-0.0384,-0.0242,0.1170,0.0008,0.0046,0.1846,0.32,-0.84,-1.42,0,0.000,-4.934,-2.049,-4.220,0.000,0.000,0.000,0.000,0.000,0.000
12,-0.0384,-0.0241,0.1189,0.0022,0.0038,0.1877,0.29,-0.82,-1.47,0,0.000,-3.686,-4.230,-4.438,0.000,0.000,0.000,0.000,0.000,0.000
12,-0.0384,-0.0241,0.1208,0.0036,0.0032,0.1909,0.24,-0.78,-1.51,0,0.000,-3.153,-5.439,-3.362,0.000,0.000,0.000,0.000,0.000,0.000
12,-0.0383,-0.0241,0.1227,0.0051,0.0025,0.1940,0.22,-0.74,-1.55,0,0.000,-2.462,-6.115,-3.147,0.000,0.000,0.000,0.000,0.000,0.000
12,-0.0383,-0.0241,0.1247,0.0065,0.0020,0.1971,0.18,-0.68,-1.58,0,0.000,0.257,-6.183,-2.848,0.000,0.000,0.000,0.000,0.000,0.000
12,-0.0382,-0.0241,0.1267,0.0079,0.0015,0.2002,0.17,-0.62,-1.61,0,0.000,1.012,-6.625,-2.416,0.000,0.000,0.000,0.000,0.000,0.000
12,-0.0381,-0.0240,0.1287,0.0092,0.0011,0.2033,0.18,-0.55,-1.64,0,0.000,0.415,-6.586,-1.632,0.000,0.000,0.000,0.000,0.000,0.000
12,-0.0388,-0.0240,0.1313,0.0098,0.0008,0.2091,0.18,-0.48,-1.66,0,0.000,1.901,-7.117,-1.510,0.000,0.000,0.000,0.000,0.000,0.000
12,-0.0387,-0.0240,0.1334,0.0109,0.0005,0.2122,0.20,-0.42,-1.67,0,0.000,3.225,-5.800,-1.020,0.000,0.000,0.000,0.000,0.000,0.000
12,-0.0386,-0.0240,0.1355,0.0118,0.0001,0.2151,0.22,-0.36,-1.68,0,0.000,3.064,-4.659,-0.467,0.000,0.000,0.000,0.000,0.000,0.000
12,-0.0385,-0.0240,0.1377,0.0127,-0.0002,0.2180,0.24,-0.31,-1.69,0,0.000,2.556,-3.368,0.462,0.000,0.000,0.000,0.000,0.000,0.000
12,-0.0384,-0.0240,0.1399,0.0134,-0.0006,0.2203,0.25,-0.27,-1.70,0,0.000,-1.029,-1.329,0.238,0.000,0.000,0.000,0.000,0.000,0.000
12,-0.0398,-0.0238,0.1430,0.0129,-0.0008,0.2267,0.27,-0.24,-1.69,0,0.000,0.645,-0.220,0.806,0.000,0.000,0.000,0.000,0.000,0.000
12,-0.0397,-0.0238,0.1453,0.0134,-0.0013,0.2288,0.27,-0.24,-1.69,0,0.000,2.700,-0.347,0.531,0.000,0.000,0.000,0.000,0.000,0.000
12,-0.0395,-0.0238,0.1476,0.0139,-0.0017,0.2309,0.27,-0.24,-1.68,0,0.000,-3.999,-0.189,1.664,0.000,0.000,0.000,0.000,0.000,0.000
12,-0.0394,-0.0238,0.1501,0.0143,-0.0023,0.2329,0.27,-0.25,-1.66,0,0.000,-7.847,3.131,3.569,0.000,0.000,0.000,0.000,0.000,0.000
12,-0.0392,-0.0238,0.1525,0.0148,-0.0027,0.2342,0.20,-0.26,-1.64,0,0.000,-2.716,1.856,2.095,0.000,0.000,0.000,0.000,0.000,0.000
12,-0.0301,-0.0264,0.1506,0.0213,-0.0050,0.2132,0.15,-0.29,-1.61,0,0.000,-4.729,-1.080,3.680,0.000,0.000,0.000,0.000,0.000,0.000
12,-0.0299,-0.0265,0.1527,0.0217,-0.0054,0.2140,0.11,-0.29,-1.58,0,0.000,-3.732,-0.786,5.032,0.000,0.000,0.000,0.000,0.000,0.000
12,-0.0297,-0.0265,0.1548,0.0222,-0.0058,0.2149,0.07,-0.27,-1.54,0,0.000,-1.467,-1.334,3.145,0.000,0.000,0.000,0.000,0.000,0.000
12,-0.0295,-0.0266,0.1570,0.0227,-0.0061,0.2158,0.05,-0.25,-1.50,0,0.000,-2.176,-2.466,4.278,0.000,0.000,0.000,0.000,0.000,0.000
12,-0.0292,-0.0267,0.1592,0.0232,-0.0063,0.2166,0.02,-0.24,-1.46,0,0.000,1.683,-1.773,4.120,0.000,0.000,0.000,0.000,0.000,0.000
12,-0.0388,-0.0233,0.1650,0.0170,-0.0041,0.2360,0.02,-0.21,-1.42,0,0.000,2.701,-2.746,4.192,0.000,0.000,0.000,0.000,0.000,0.000
12,-0.0386,-0.0233,0.1674,0.0174,-0.0042,0.2366,0.04,-0.19,-1.37,0,0.000,-0.965,0.614,4.405,0.000,0.000,0.000,0.000,0.000,0.000
12,-0.0385,-0.0234,0.1698,0.0178,-0.0042,0.2373,0.06,-0.18,-1.34,0,0.000,1.025,-2.181,3.812,0.000,0.000,0.000,0.000,0.000,0.000
12,-0.0383,-0.0234,0.1721,0.0182,-0.0043,0.2379,0.05,-0.19,-1.29,0,0.000,-1.447,-0.819,5.086,0.000,0.000,0.000,0.000,0.000,0.000
12,-0.0381,-0.0235,0.1745,0.0185,-0.0044,0.2382,0.07,-0.18,-1.25,0,0.000,-0.973,0.031,5.626,0.000,0.000,0.000,0.000,0.000,0.000
12,-0.0282,-0.0274,0.1726,0.0253,-0.0070,0.2153,0.06,-0.17,-1.20,0,0.000,-1.298,-0.402,4.559,0.000,0.000,0.000,0.000,0.000,0.000
12,-0.0280,-0.0275,0.1748,0.0256,-0.0071,0.2153,0.05,-0.17,-1.15,0,0.000,-1.542,-1.923,5.460,0.000,0.000,0.000,0.000,0.000,0.000
12,-0.0277,-0.0275,0.1769,0.0259,-0.0073,0.2147,0.02,-0.16,-1.10,0,0.000,-4.216,-0.853,6.407,0.000,0.000,0.000,0.000,0.000,0.000
12,-0.0275,-0.0276,0.1791,0.0262,-0.0074,0.2139,-0.00,-0.14,-1.04,0,0.000,-2.584,-1.824,4.085,0.000,0.000,0.000,0.000,0.000,0.000
12,-0.0272,-0.0277,0.1812,0.0265,-0.0075,0.2134,-0.04,-0.13,-0.99,0,0.000,-4.681,-2.260,4.816,0.000,0.000,0.000,0.000,0.000,0.000
12,-0.0288,-0.0270,0.1841,0.0255,-0.0070,0.2165,-0.08,-0.11,-0.95,0,0.000,-0.888,-0.515,5.738,0.000,0.000,0.000,0.000,0.000,0.000
12,-0.0286,-0.0270,0.1863,0.0257,-0.0070,0.2158,-0.12,-0.10,-0.89,0,0.000,0.885,-2.693,5.302,0.000,0.000,0.000,0.000,0.000,0.000
12,-0.0283,-0.0271,0.1884,0.0260,-0.0069,0.2153,-0.11,-0.09,-0.83,0,0.000,-0.420,-2.101,4.316,0.000,0.000,0.000,0.000,0.000,0.000
12,-0.0281,-0.0272,0.1906,0.0262,-0.0068,0.2148,-0.10,-0.06,-0.78,0,0.000,0.671,-0.031,6.403,0.000,0.000,0.000,0.000,0.000,0.000
12,-0.0278,-0.0272,0.1927,0.0263,-0.0066,0.2141,-0.11,-0.05,-0.73,0,0.000,0.586,-0.537,6.394,0.000,0.000,0.000,0.000,0.000,0.000
12,-0.0209,-0.0301,0.1923,0.0308,-0.0083,0.1995,-0.10,-0.05,-0.66,0,0.000,-1.745,-1.357,5.606,0.000,0.000,0.000,0.000,0.000,0.000
12,-0.0206,-0.0302,0.1943,0.0309,-0.0081,0.1985,-0.11,-0.04,-0.60,0,0.000,0.411,-1.447,6.059,0.000,0.000,0.000,0.000,0.000,0.000
12,-0.0203,-0.0303,0.1963,0.0310,-0.0079,0.1975,-0.13,-0.03,-0.54,0,0.000,-0.563,-0.559,6.153,0.000,0.000,0.000,0.000,0.000,0.000
12,-0.0200,-0.0304,0.1982,0.0310,-0.0077,0.1964,-0.11,-0.01,-0.49,0,0.000,0.041,-1.011,5.735,0.000,0.000,0.000,0.000,0.000,0.000
12,-0.0197,-0.0304,0.2002,0.0311,-0.0075,0.1951,-0.12,-0.01,-0.43,0,0.000,0.699,-1.808,5.867,0.000,0.000,0.000,0.000,0.000,0.000
12,-0.0203,-0.0301,0.2025,0.0306,-0.0071,0.1954,-0.12,0.00,-0.37,0,0.000,-0.454,-0.979,5.873,0.000,0.000,0.000,0.000,0.000,0.000
12,-0.0200,-0.0302,0.2044,0.0306,-0.0069,0.1942,-0.13,0.01,-0.32,0,0.000,0.894,-1.335,5.260,0.000,0.000,0.000,0.000,0.000,0.000
12,-0.0197,-0.0303,0.2064,0.0306,-0.0067,0.1931,-0.13,0.03,-0.26,0,0.000,-1.725,-1.414,5.920,0.000,0.000,0.000,0.000,0.000,0.000
12,-0.0194,-0.0303,0.2083,0.0306,-0.0065,0.1921,-0.14,0.04,-0.20,0,0.000,0.083,-1.389,5.884,0.000,0.000,0.000,0.000,0.000,0.000
12,-0.0191,-0.0304,0.2102,0.0306,-0.0063,0.1910,-0.14,0.05,-0.14,0,0.000,0.137,-1.556,6.193,0.000,0.000,0.000,0.000,0.000,0.000
12,-0.0162,-0.0314,0.2112,0.0321,-0.0066,0.1849,-0.14,0.06,-0.09,0,0.000,0.211,-0.566,5.574,0.000,0.000,0.000,0.000,0.000,0.000
12,-0.0159,-0.0315,0.2130,0.0321,-0.0064,0.1836,-0.14,0.07,-0.03,0,0.000,0.418,-0.148,5.639,0.000,0.000,0.000,0.000,0.000,0.000
12,-0.0156,-0.0315,0.2149,0.0320,-0.0062,0.1823,-0.15,0.08,0.03,0,0.000,-0.236,-1.052,5.974,0.000,0.000,0.000,0.000,0.000,0.000
12,-0.0153,-0.0316,0.2167,0.0319,-0.0059,0.1813,-0.15,0.09,0.09,0,0.000,0.558,-1.563,5.787,0.000,0.000,0.000,0.000,0.000,0.000
12,-0.0149,-0.0317,0.2185,0.0318,-0.0057,0.1801,-0.14,0.11,0.15,0,0.000,0.191,-1.557,5.441,0.000,0.000,0.000,0.000,0.000,0.000
12,-0.0215,-0.0295,0.2230,0.0274,-0.0040,0.1925,-0.14,0.12,0.20,0,0.000,-0.288,-1.131,5.310,0.000,0.000,0.000,0.000,0.000,0.000
12,-0.0212,-0.0295,0.2249,0.0272,-0.0038,0.1912,-0.14,0.13,0.26,0,0.000,-0.358,-1.431,4.974,0.000,0.000,0.000,0.000,0.000,0.000
12,-0.0209,-0.0295,0.2268,0.0270,-0.0035,0.1897,-0.15,0.15,0.31,0,0.000,0.658,-0.988,4.441,0.000,0.000,0.000,0.000,0.000,0.000
12,-0.0207,-0.0296,0.2287,0.0268,-0.0033,0.1881,-0.15,0.16,0.36,0,0.000,-1.506,-1.500,4.843,0.000,0.000,0.000,0.000,0.000,0.000
12,-0.0204,-0.0296,0.2306,0.0266,-0.0031,0.1863,-0.16,0.17,0.41,0,0.000,-1.825,-1.257,4.921,0.000,0.000,0.000,0.000,0.000,0.000
12,-0.0191,-0.0298,0.2319,0.0269,-0.0029,0.1805,-0.17,0.18,0.45,0,0.000,0.954,-0.552,4.683,0.000,0.000,0.000,0.000,0.000,0.000
13,-0.0189,-0.0299,0.2337,0.0267,-0.0026,0.1784,-0.18,0.20,0.50,0,0.000,1.647,0.034,4.083,0.000,0.000,0.000,0.000,0.000,0.000
13,-0.0186,-0.0299,0.2355,0.0264,-0.0024,0.1762,-0.16,0.20,0.55,0,0.000,1.829,-0.377,3.932,0.000,0.000,0.000,0.000,0.000,0.000
13,-0.0183,-0.0299,0.2372,0.0261,-0.0021,0.1741,-0.15,0.20,0.59,0,0.000,2.648,0.745,3.363,0.000,0.000,0.000,0.000,0.000,0.000
13,-0.0181,-0.0299,0.2390,0.0258,-0.0018,0.1721,-0.15,0.19,0.62,0,0.000,0.763,0.626,3.539,0.000,0.000,0.000,0.000,0.000,0.000
13,-0.0187,-0.0300,0.2420,0.0249,-0.0016,0.1763,-0.13,0.18,0.66,0,0.000,1.023,1.092,3.946,0.000,0.000,0.000,0.000,0.000,0.000
13,-0.0184,-0.0300,0.2437,0.0246,-0.0013,0.1740,-0.13,0.18,0.70,0,0.000,-1.151,0.943,4.463,0.000,0.000,0.000,0.000,0.000,0.000
13,-0.0182,-0.0300,0.2454,0.0243,-0.0011,0.1718,-0.12,0.18,0.74,0,0.000,2.036,-0.059,4.264,0.000,0.000,0.000,0.000,0.000,0.000
13,-0.0179,-0.0300,0.2471,0.0240,-0.0009,0.1696,-0.10,0.17,0.78,0,0.000,0.459,1.334,3.782,0.000,0.000,0.000,0.000,0.000,0.000
13,-0.0177,-0.0301,0.2488,0.0236,-0.0007,0.1673,-0.10,0.16,0.82,0,0.000,-0.187,0.457,4.083,0.000,0.000,0.000,0.000,0.000,0.000
13,-0.0176,-0.0298,0.2498,0.0233,-0.0003,0.1615,-0.08,0.15,0.86,0,0.000,2.480,0.483,3.356,0.000,0.000,0.000,0.000,0.000,0.000
13,-0.0174,-0.0298,0.2514,0.0230,-0.0001,0.1590,-0.08,0.14,0.90,0,0.000,0.070,-0.914,3.680,0.000,0.000,0.000,0.000,0.000,0.000
13,-0.0171,-0.0298,0.2530,0.0227,0.0000,0.1565,-0.06,0.14,0.93,0,0.000,-3.195,0.445,4.176,0.000,0.000,0.000,0.000,0.000,0.000
13,-0.0169,-0.0298,0.2546,0.0225,0.0002,0.1538,-0.08,0.14,0.97,0,0.000,0.843,0.211,2.908,0.000,0.000,0.000,0.000,0.000,0.000
13,-0.0167,-0.0298,0.2561,0.0222,0.0003,0.1510,-0.09,0.14,1.00,0,0.000,0.406,0.154,3.391,0.000,0.000,0.000,0.000,0.000,0.000
13,-0.0154,-0.0308,0.2592,0.0226,-0.0002,0.1571,-0.08,0.14,1.03,0,0.000,-0.432,0.059,3.282,0.000,0.000,0.000,0.000,0.000,0.000
13,-0.0152,-0.0308,0.2608,0.0223,-0.0001,0.1552,-0.07,0.14,1.07,0,0.000,-2.271,0.833,2.751,0.000,0.000,0.000,0.000,0.000,0.000
13,-0.0150,-0.0308,0.2623,0.0221,0.0001,0.1530,-0.09,0.13,1.10,0,0.000,-1.086,1.132,2.552,0.000,0.000,0.000,0.000,0.000,0.000
13,-0.0148,-0.0308,0.2639,0.0219,0.0002,0.1504,-0.11,0.12,1.12,0,0.000,2.945,0.529,2.423,0.000,0.000,0.000,0.000,0.000,0.000
13,-0.0146,-0.0308,0.2654,0.0216,0.0003,0.1479,-0.09,0.11,1.15,0,0.000,3.743,0.966,2.022,0.000,0.000,0.000,0.000,0.000,0.000
13,-0.0143,-0.0308,0.2669,0.0214,0.0004,0.1459,-0.06,0.10,1.17,0,0.000,3.208,1.645,1.693,0.000,0.000,0.000,0.000,0.000,0.000
13,-0.0141,-0.0308,0.2683,0.0212,0.0006,0.1435,-0.03,0.09,1.19,0,0.000,1.070,1.949,2.535,0.000,0.000,0.000,0.000,0.000,0.000
13,-0.0138,-0.0308,0.2698,0.0210,0.0007,0.1409,-0.02,0.06,1.21,0,0.000,-2.821,1.535,2.669,0.000,0.000,0.000,0.000,0.000,0.000
13,-0.0136,-0.0308,0.2712,0.0209,0.0009,0.1382,-0.04,0.05,1.24,0,0.000,0.178,0.541,3.145,0.000,0.000,0.000,0.000,0.000,0.000
13,-0.0134,-0.0308,0.2725,0.0207,0.0009,0.1356,-0.04,0.04,1.27,0,0.000,3.132,-0.385,2.094,0.000,0.000,0.000,0.000,0.000,0.000
13,-0.0139,-0.0303,0.2732,0.0202,0.0012,0.1295,-0.02,0.04,1.29,0,0.000,2.927,0.134,1.940,0.000,0.000,0.000,0.000,0.000,0.000
13,-0.0137,-0.0303,0.2745,0.0201,0.0013,0.1266,0.01,0.04,1.32,0,0.000,1.367,0.435,2.137,0.000,0.000,0.000,0.000,0.000,0.000
13,-0.0135,-0.0303,0.2758,0.0201,0.0013,0.1240,0.03,0.03,1.34,0,0.000,-0.626,0.159,2.297,0.000,0.000,0.000,0.000,0.000,0.000
13,-0.0133,-0.0303,0.2770,0.0200,0.0013,0.1216,0.03,0.03,1.36,0,0.000,-1.032,1.177,1.919,0.000,0.000,0.000,0.000,0.000,0.000
13,-0.0131,-0.0303,0.2782,0.0199,0.0013,0.1193,0.02,0.02,1.38,0,0.000,-0.753,1.260,1.406,0.000,0.000,0.000,0.000,0.000,0.000
13,-0.0131,-0.0302,0.2792,0.0198,0.0013,0.1161,0.01,0.01,1.40,0,0.000,0.754,0.389,2.015,0.000,0.000,0.000,0.000,0.000,0.000
13,-0.0129,-0.0301,0.2804,0.0197,0.0013,0.1136,0.02,0.00,1.41,0,0.000,0.584,0.320,2.707,0.000,0.000,0.000,0.000,0.000,0.000
13,-0.0127,-0.0301,0.2815,0.0197,0.0013,0.1110,0.02,-0.00,1.44,0,0.000,-0.912,0.276,2.593,0.000,0.000,0.000,0.000,0.000,0.000
13,-0.0125,-0.0301,0.2826,0.0197,0.0012,0.1089,0.01,-0.01,1.46,0,0.000,-3.431,0.825,2.458,0.000,0.000,0.000,0.000,0.000,0.000
13,-0.0123,-0.0301,0.2837,0.0197,0.0012,0.1068,-0.01,-0.01,1.49,0,0.000,1.708,0.024,2.050,0.000,0.000,0.000,0.000,0.000,0.000
13,-0.0120,-0.0302,0.2849,0.0198,0.0011,0.1053,-0.03,-0.02,1.51,0,0.000,0.298,0.646,2.754,0.000,0.000,0.000,0.000,0.000,0.000
13,-0.0118,-0.0302,0.2859,0.0198,0.0011,0.1032,-0.00,-0.01,1.53,0,0.000,2.895,0.552,2.396,0.000,0.000,0.000,0.000,0.000,0.000
13,-0.0116,-0.0302,0.2869,0.0198,0.0011,0.1011,0.01,-0.02,1.56,0,0.000,3.899,0.246,2.675,0.000,0.000,0.000,0.000,0.000,0.000
13,-0.0114,-0.0301,0.2879,0.0198,0.0012,0.0988,0.05,-0.03,1.58,0,0.000,1.913,0.816,2.606,0.000,0.000,0.000,0.000,0.000,0.000
13,-0.0112,-0.0301,0.2889,0.0199,0.0012,0.0964,0.08,-0.03,1.61,0,0.000,2.282,-0.062,2.055,0.000,0.000,0.000,0.000,0.000,0.000
13,-0.0109,-0.0302,0.2899,0.0199,0.0012,0.0945,0.10,-0.04,1.64,0,0.000,2.942,-0.127,1.823,0.000,0.000,0.000,0.000,0.000,0.000
13,-0.0107,-0.0301,0.2909,0.0200,0.0011,0.0927,0.12,-0.04,1.65,0,0.000,2.812,0.799,1.947,0.000,0.000,0.000,0.000,0.000,0.000
13,-0.0105,-0.0301,0.2918,0.0200,0.0009,0.0906,0.15,-0.04,1.67,0,0.000,2.910,0.234,2.600,0.000,0.000,0.000,0.000,0.000,0.000
13,-0.0103,-0.0301,0.2927,0.0201,0.0008,0.0888,0.18,-0.05,1.70,0,0.000,2.817,0.140,2.303,0.000,0.000,0.000,0.000,0.000,0.000
13,-0.0101,-0.0301,0.2936,0.0202,0.0006,0.0868,0.21,-0.05,1.72,0,0.000,4.695,0.396,1.248,0.000,0.000,0.000,0.000,0.000,0.000
13,-0.0082,-0.0309,0.2967,0.0212,-0.0001,0.0963,0.25,-0.05,1.74,0,0.000,2.780,-0.044,1.591,0.000,0.000,0.000,0.000,0.000,0.000
13,-0.0080,-0.0309,0.2977,0.0213,-0.0004,0.0947,0.29,-0.05,1.76,0,0.000,0.642,1.351,2.017,0.000,0.000,0.000,0.000,0.000,0.000
13,-0.0077,-0.0309,0.2986,0.0214,-0.0008,0.0933,0.30,-0.06,1.77,0,0.000,2.176,0.761,0.763,0.000,0.000,0.000,0.000,0.000,0.000
13,-0.0075,-0.0309,0.2996,0.0215,-0.0012,0.0920,0.32,-0.07,1.79,0,0.000,-1.814,0.574,2.223,0.000,0.000,0.000,0.000,0.000,0.000
13,-0.0073,-0.0309,0.3005,0.0216,-0.0017,0.0903,0.31,-0.08,1.80,0,0.000,-0.233,0.239,2.122,0.000,0.000,0.000,0.000,0.000,0.000
13,-0.0077,-0.0310,0.2999,0.0214,-0.0022,0.0809,0.30,-0.08,1.82,0,0.000,-2.470,0.274,1.531,0.000,0.000,0.000,0.000,0.000,0.000
13,-0.0075,-0.0310,0.3007,0.0215,-0.0027,0.0792,0.28,-0.08,1.84,0,0.000,0.097,-0.520,0.983,0.000,0.000,0.000,0.000,0.000,0.000
13,-0.0073,-0.0310,0.3015,0.0217,-0.0032,0.0777,0.27,-0.08,1.85,0,0.000,-2.280,0.156,0.365,0.000,0.000,0.000,0.000,0.000,0.000
13,-0.0070,-0.0311,0.3023,0.0218,-0.0037,0.0761,0.27,-0.07,1.85,0,0.000,-4.353,0.114,0.735,0.000,0.000,0.000,0.000,0.000,0.000
13,-0.0068,-0.0311,0.3030,0.0220,-0.0042,0.0743,0.22,-0.07,1.86,0,0.000,-3.054,-0.377,-0.064,0.000,0.000,0.000,0.000,0.000,0.000
13,-0.0067,-0.0313,0.3033,0.0221,-0.0047,0.0705,0.19,-0.07,1.86,0,0.000,-1.278,-1.048,-0.272,0.000,0.000,0.000,0.000,0.000,0.000
13,-0.0064,-0.0313,0.3040,0.0222,-0.0052,0.0686,0.16,-0.07,1.86,0,0.000,2.861,-1.287,-0.249,0.000,0.000,0.000,0.000,0.000,0.000
14,-0.0062,-0.0314,0.3047,0.0223,-0.0055,0.0666,0.18,-0.06,1.85,0,0.000,-0.645,-1.320,0.359,0.000,0.000,0.000,0.000,0.000,0.000
14,-0.0060,-0.0314,0.3054,0.0225,-0.0058,0.0648,0.19,-0.04,1.86,0,0.000,-2.364,-1.139,-0.165,0.000,0.000,0.000,0.000,0.000,0.000
14,-0.0058,-0.0315,0.3060,0.0226,-0.0061,0.0632,0.18,-0.03,1.86,0,0.000,-2.009,-1.369,-0.585,0.000,0.000,0.000,0.000,0.000,0.000
14,-0.0055,-0.0322,0.3059,0.0227,-0.0067,0.0580,0.15,-0.02,1.85,0,0.000,1.879,-1.273,-1.143,0.000,0.000,0.000,0.000,0.000,0.000
14,-0.0052,-0.0323,0.3065,0.0228,-0.0071,0.0570,0.16,-0.00,1.84,0,0.000,-2.226,0.117,-0.209,0.000,0.000,0.000,0.000,0.000,0.000
14,-0.0050,-0.0323,0.3071,0.0229,-0.0074,0.0554,0.15,0.00,1.84,0,0.000,-1.946,0.340,-0.637,0.000,0.000,0.000,0.000,0.000,0.000
14,-0.0048,-0.0324,0.3076,0.0229,-0.0076,0.0537,0.13,-0.00,1.84,0,0.000,-2.393,1.227,-1.023,0.000,0.000,0.000,0.000,0.000,0.000
14,-0.0046,-0.0325,0.3081,0.0229,-0.0079,0.0523,0.11,-0.01,1.83,0,0.000,-2.088,0.749,-0.527,0.000,0.000,0.000,0.000,0.000,0.000
14,-0.0048,-0.0302,0.3107,0.0227,-0.0070,0.0616,0.09,-0.02,1.82,0,0.000,-2.409,-0.488,-0.893,0.000,0.000,0.000,0.000,0.000,0.000
14,-0.0046,-0.0303,0.3113,0.0227,-0.0072,0.0604,0.08,-0.02,1.81,0,0.000,-1.227,-0.724,-1.125,0.000,0.000,0.000,0.000,0.000,0.000
14,-0.0044,-0.0304,0.3119,0.0227,-0.0074,0.0591,0.07,-0.00,1.80,0,0.000,-1.061,-0.942,-1.143,0.000,0.000,0.000,0.000,0.000,0.000
14,-0.0042,-0.0305,0.3125,0.0228,-0.0075,0.0577,0.06,0.01,1.79,0,0.000,-0.036,-1.247,-1.482,0.000,0.000,0.000,0.000,0.000,0.000
14,-0.0039,-0.0305,0.3131,0.0228,-0.0077,0.0564,0.06,0.02,1.77,0,0.000,0.560,-1.338,-2.254,0.000,0.000,0.000,0.000,0.000,0.000
14,-0.0035,-0.0315,0.3129,0.0229,-0.0082,0.0513,0.05,0.03,1.75,0,0.000,-0.455,-0.668,-2.200,0.000,0.000,0.000,0.000,0.000,0.000
14,-0.0032,-0.0316,0.3134,0.0229,-0.0083,0.0500,0.04,0.04,1.73,0,0.000,-0.738,-0.608,-2.045,0.000,0.000,0.000,0.000,0.000,0.000
14,-0.0030,-0.0317,0.3139,0.0229,-0.0084,0.0487,0.03,0.04,1.71,0,0.000,-1.037,-0.478,-2.354,0.000,0.000,0.000,0.000,0.000,0.000
14,-0.0028,-0.0318,0.3144,0.0228,-0.0085,0.0477,0.02,0.05,1.69,0,0.000,-0.242,-0.472,-2.443,0.000,0.000,0.000,0.000,0.000,0.000
14,-0.0025,-0.0319,0.3149,0.0228,-0.0086,0.0467,0.01,0.06,1.67,0,0.000,-0.433,-0.507,-1.711,0.000,0.000,0.000,0.000,0.000,0.000
14,-0.0025,-0.0313,0.3158,0.0226,-0.0083,0.0477,0.00,0.06,1.65,0,0.000,0.107,0.078,-2.044,0.000,0.000,0.000,0.000,0.000,0.000
14,-0.0022,-0.0314,0.3163,0.0225,-0.0084,0.0463,0.00,0.06,1.63,0,0.000,1.393,-0.796,-2.862,0.000,0.000,0.000,0.000,0.000,0.000
14,-0.0020,-0.0315,0.3167,0.0224,-0.0084,0.0451,0.01,0.07,1.61,0,0.000,1.291,-0.531,-2.931,0.000,0.000,0.000,0.000,0.000,0.000
14,-0.0018,-0.0316,0.3172,0.0223,-0.0084,0.0443,0.02,0.08,1.58,0,0.000,-0.894,-1.547,-2.039,0.000,0.000,0.000,0.000,0.000,0.000
14,-0.0016,-0.0317,0.3176,0.0222,-0.0084,0.0432,0.02,0.09,1.56,0,0.000,0.964,-0.026,-3.111,0.000,0.000,0.000,0.000,0.000,0.000
14,-0.0013,-0.0318,0.3180,0.0221,-0.0085,0.0422,0.02,0.09,1.53,0,0.000,-0.460,-1.542,-2.969,0.000,0.000,0.000,0.000,0.000,0.000
14,-0.0011,-0.0319,0.3184,0.0220,-0.0085,0.0414,0.02,0.11,1.50,0,0.000,2.147,-0.617,-3.818,0.000,0.000,0.000,0.000,0.000,0.000
14,-0.0009,-0.0320,0.3189,0.0219,-0.0085,0.0409,0.04,0.11,1.46,0,0.000,1.430,-1.254,-4.172,0.000,0.000,0.000,0.000,0.000,0.000
14,-0.0007,-0.0320,0.3193,0.0217,-0.0086,0.0408,0.05,0.12,1.42,0,0.000,-0.644,-0.192,-4.907,0.000,0.000,0.000,0.000,0.000,0.000
14,-0.0005,-0.0321,0.3197,0.0215,-0.0086,0.0402,0.05,0.13,1.38,0,0.000,0.245,-0.002,-4.887,0.000,0.000,0.000,0.000,0.000,0.000
14,0.0000,-0.0342,0.3181,0.0215,-0.0097,0.0296,0.05,0.13,1.33,0,0.000,-1.031,-1.927,-4.099,0.000,0.000,0.000,0.000,0.000,0.000
14,0.0003,-0.0343,0.3184,0.0212,-0.0098,0.0288,0.04,0.15,1.28,0,0.000,-2.361,-1.668,-4.291,0.000,0.000,0.000,0.000,0.000,0.000
14,0.0005,-0.0344,0.3187,0.0210,-0.0098,0.0279,0.01,0.17,1.24,0,0.000,-2.885,-1.775,-3.132,0.000,0.000,0.000,0.000,0.000,0.000
14,0.0007,-0.0345,0.3190,0.0208,-0.0099,0.0273,-0.01,0.19,1.21,0,0.000,-0.764,-2.169,-4.462,0.000,0.000,0.000,0.000,0.000,0.000
14,0.0009,-0.0346,0.3193,0.0206,-0.0100,0.0269,-0.02,0.21,1.17,0,0.000,-1.913,-2.043,-4.056,0.000,0.000,0.000,0.000,0.000,0.000
14,0.0012,-0.0341,0.3202,0.0203,-0.0097,0.0300,-0.04,0.23,1.12,0,0.000,-1.149,-1.286,-4.606,0.000,0.000,0.000,0.000,0.000,0.000
14,0.0014,-0.0342,0.3205,0.0200,-0.0097,0.0297,-0.06,0.24,1.08,0,0.000,0.504,-0.706,-4.485,0.000,0.000,0.000,0.000,0.000,0.000
14,0.0016,-0.0343,0.3208,0.0196,-0.0097,0.0292,-0.06,0.25,1.04,0,0.000,-1.556,-0.992,-4.060,0.000,0.000,0.000,0.000,0.000,0.000
14,0.0017,-0.0344,0.3211,0.0192,-0.0096,0.0291,-0.07,0.26,0.99,0,0.000,0.198,-0.870,-4.661,0.000,0.000,0.000,0.000,0.000,0.000
14,0.0019,-0.0345,0.3213,0.0188,-0.0095,0.0291,-0.07,0.27,0.94,0,0.000,-1.696,1.135,-4.152,0.000,0.000,0.000,0.000,0.000,0.000
14,0.0027,-0.0330,0.3236,0.0186,-0.0087,0.0384,-0.08,0.27,0.90,0,0.000,-1.349,1.178,-3.952,0.000,0.000,0.000,0.000,0.000,0.000
14,0.0029,-0.0331,0.3240,0.0182,-0.0086,0.0381,-0.10,0.26,0.86,0,0.000,-0.817,0.003,-4.225,0.000,0.000,0.000,0.000,0.000,0.000
14,0.0031,-0.0332,0.3244,0.0177,-0.0085,0.0379,-0.11,0.25,0.82,0,0.000,0.049,-1.527,-4.670,0.000,0.000,0.000,0.000,0.000,0.000
14,0.0033,-0.0333,0.3248,0.0172,-0.0083,0.0377,-0.11,0.26,0.77,0,0.000,0.577,-2.814,-4.584,0.000,0.000,0.000,0.000,0.000,0.000
14,0.0034,-0.0334,0.3251,0.0168,-0.0082,0.0375,-0.11,0.29,0.72,0,0.000,2.152,-3.159,-4.602,0.000,0.000,0.000,0.000,0.000,0.000
14,0.0021,-0.0344,0.3233,0.0157,-0.0084,0.0262,-0.11,0.31,0.68,0,0.000,1.143,-1.681,-4.278,0.000,0.000,0.000,0.000,0.000,0.000
14,0.0023,-0.0345,0.3236,0.0152,-0.0082,0.0258,-0.10,0.33,0.63,0,0.000,0.146,-1.038,-4.439,0.000,0.000,0.000,0.000,0.000,0.000
14,0.0025,-0.0346,0.3238,0.0147,-0.0080,0.0256,-0.10,0.35,0.59,0,0.000,-2.373,1.009,-4.257,0.000,0.000,0.000,0.000,0.000,0.000
14,0.0026,-0.0347,0.3241,0.0142,-0.0079,0.0255,-0.12,0.34,0.54,0,0.000,-1.104,-0.171,-4.392,0.000,0.000,0.000,0.000,0.000,0.000
14,0.0026,-0.0347,0.3241,0.0142,-0.0079,0.0255,-0.13,0.34,0.50,0,0.000,-0.406,1.481,-4.850,0.000,0.000,0.000,0.000,0.000,0.000
14,0.0011,-0.0350,0.3229,0.0128,-0.0078,0.0176,-0.12,0.33,0.45,0,0.000,-0.399,1.423,-4.412,0.000,0.000,0.000,0.000,0.000,0.000
14,0.0012,-0.0350,0.3231,0.0123,-0.0076,0.0173,-0.12,0.33,0.41,0,0.000,-0.424,0.944,-4.301,0.000,0.000,0.000,0.000,0.000,0.000
14,0.0013,-0.0351,0.3233,0.0117,-0.0074,0.0173,-0.13,0.32,0.36,0,0.000,-1.158,0.978,-4.004,0.000,0.000,0.000,0.000,0.000,0.000
14,0.0014,-0.0352,0.3235,0.0111,-0.0072,0.0175,-0.13,0.31,0.32,0,0.000,-0.455,1.659,-4.562,0.000,0.000,0.000,0.000,0.000,0.000
14,0.0015,-0.0352,0.3236,0.0105,-0.0070,0.0178,-0.13,0.30,0.27,0,0.000,-0.560,2.003,-4.441,0.000,0.000,0.000,0.000,0.000,0.000
14,0.0026,-0.0354,0.3243,0.0104,-0.0068,0.0208,-0.13,0.28,0.23,0,0.000,-0.800,2.125,-4.486,0.000,0.000,0.000,0.000,0.000,0.000
14,0.0027,-0.0355,0.3245,0.0098,-0.0066,0.0210,-0.13,0.26,0.18,0,0.000,-2.151,2.701,-4.923,0.000,0.000,0.000,0.000,0.000,0.000
14,0.0027,-0.0355,0.3247,0.0093,-0.0064,0.0211,-0.14,0.24,0.13,0,0.000,-2.002,1.930,-4.319,0.000,0.000,0.000,0.000,0.000,0.000
14,0.0028,-0.0356,0.3249,0.0088,-0.0062,0.0218,-0.15,0.22,0.09,0,0.000,-0.252,1.487,-4.895,0.000,0.000,0.000,0.000,0.000,0.000
14,0.0029,-0.0357,0.3252,0.0083,-0.0060,0.0224,-0.16,0.21,0.04,0,0.000,1.832,1.812,-4.758,0.000,0.000,0.000,0.000,0.000,0.000
14,0.0026,-0.0356,0.3252,0.0076,-0.0057,0.0222,-0.15,0.19,-0.01,0,0.000,-0.635,1.420,-4.190,0.000,0.000,0.000,0.000,0.000,0.000
15,0.0027,-0.0357,0.3255,0.0072,-0.0055,0.0228,-0.15,0.17,-0.05,0,0.000,-2.059,0.394,-4.342,0.000,0.000,0.000,0.000,0.000,0.000
15,0.0028,-0.0357,0.3257,0.0069,-0.0052,0.0233,-0.16,0.17,-0.10,0,0.000,1.987,-0.422,-3.896,0.000,0.000,0.000,0.000,0.000,0.000
15,0.0028,-0.0358,0.3259,0.0065,-0.0049,0.0239,-0.15,0.16,-0.14,0,0.000,-1.446,1.640,-4.266,0.000,0.000,0.000,0.000,0.000,0.000
15,0.0029,-0.0358,0.3262,0.0062,-0.0047,0.0247,-0.15,0.15,-0.18,0,0.000,-0.091,-0.675,-3.970,0.000,0.000,0.000,0.000,0.000,0.000
15,0.0036,-0.0361,0.3267,0.0062,-0.0045,0.0267,-0.15,0.15,-0.23,0,0.000,-2.942,2.085,-3.829,0.000,0.000,0.000,0.000,0.000,0.000
15,0.0037,-0.0361,0.3269,0.0059,-0.0042,0.0275,-0.17,0.13,-0.27,0,0.000,0.852,1.398,-3.867,0.000,0.000,0.000,0.000,0.000,0.000
15,0.0037,-0.0362,0.3272,0.0056,-0.0040,0.0280,-0.16,0.12,-0.30,0,0.000,0.608,0.399,-3.538,0.000,0.000,0.000,0.000,0.000,0.000
15,0.0038,-0.0362,0.3275,0.0053,-0.0037,0.0286,-0.16,0.11,-0.34,0,0.000,-1.823,0.950,-3.429,0.000,0.000,0.000,0.000,0.000,0.000
15,0.0038,-0.0362,0.3278,0.0051,-0.0034,0.0295,-0.18,0.11,-0.38,0,0.000,-3.306,2.500,-2.955,0.000,0.000,0.000,0.000,0.000,0.000
15,0.0026,-0.0358,0.3276,0.0043,-0.0029,0.0281,-0.21,0.09,-0.41,0,0.000,-0.210,1.437,-2.489,0.000,0.000,0.000,0.000,0.000,0.000
15,0.0027,-0.0358,0.3279,0.0041,-0.0026,0.0285,-0.21,0.07,-0.43,0,0.000,-2.602,0.571,-2.465,0.000,0.000,0.000,0.000,0.000,0.000
15,0.0027,-0.0359,0.3282,0.0039,-0.0024,0.0292,-0.23,0.07,-0.46,0,0.000,-2.486,2.454,-2.454,0.000,0.000,0.000,0.000,0.000,0.000
15,0.0028,-0.0359,0.3285,0.0037,-0.0021,0.0303,-0.25,0.05,-0.49,0,0.000,3.186,1.352,-1.975,0.000,0.000,0.000,0.000,0.000,0.000
15,0.0028,-0.0359,0.3288,0.0036,-0.0017,0.0313,-0.22,0.04,-0.51,0,0.000,-0.181,1.456,-2.291,0.000,0.000,0.000,0.000,0.000,0.000
15,0.0016,-0.0353,0.3290,0.0028,-0.0007,0.0301,-0.23,0.03,-0.53,0,0.000,-0.819,3.241,-1.769,0.000,0.000,0.000,0.000,0.000,0.000
15,0.0016,-0.0353,0.3290,0.0028,-0.0007,0.0301,-0.25,0.01,-0.55,0,0.000,2.091,3.971,-1.894,0.000,0.000,0.000,0.000,0.000,0.000
15,0.0016,-0.0353,0.3296,0.0026,0.0001,0.0310,-0.23,-0.02,-0.57,0,0.000,2.863,3.176,-2.038,0.000,0.000,0.000,0.000,0.000,0.000
15,0.0016,-0.0353,0.3296,0.0026,0.0001,0.0310,-0.22,-0.05,-0.59,0,0.000,0.180,1.674,-1.419,0.000,0.000,0.000,0.000,0.000,0.000
15,0.0017,-0.0353,0.3302,0.0025,0.0010,0.0321,-0.22,-0.06,-0.60,0,0.000,-1.968,0.140,-0.425,0.000,0.000,0.000,0.000,0.000,0.000
15,0.0026,-0.0358,0.3305,0.0029,0.0007,0.0338,-0.22,-0.07,-0.61,0,0.000,1.158,-0.047,-0.952,0.000,0.000,0.000,0.000,0.000,0.000
15,0.0026,-0.0358,0.3312,0.0031,0.0015,0.0347,-0.20,-0.07,-0.62,0,0.000,3.161,-0.296,-0.825,0.000,0.000,0.000,0.000,0.000,0.000
15,0.0026,-0.0358,0.3312,0.0031,0.0015,0.0347,-0.17,-0.07,-0.63,0,0.000,4.848,-1.108,-0.589,0.000,0.000,0.000,0.000,0.000,0.000
15,0.0027,-0.0358,0.3319,0.0033,0.0022,0.0356,-0.12,-0.06,-0.63,0,0.000,6.016,-1.432,-0.858,0.000,0.000,0.000,0.000,0.000,0.000
15,0.0027,-0.0358,0.3323,0.0034,0.0026,0.0362,-0.07,-0.05,-0.64,0,0.000,3.533,-1.006,-0.129,0.000,0.000,0.000,0.000,0.000,0.000
15,-0.0012,-0.0322,0.3308,0.0018,0.0044,0.0273,-0.03,-0.04,-0.64,0,0.000,2.633,-0.361,0.751,0.000,0.000,0.000,0.000,0.000,0.000
15,-0.0012,-0.0321,0.3311,0.0019,0.0046,0.0274,0.00,-0.04,-0.64,0,0.000,-0.492,1.253,1.069,0.000,0.000,0.000,0.000,0.000,0.000
15,-0.0012,-0.0321,0.3313,0.0020,0.0048,0.0277,0.01,-0.05,-0.63,0,0.000,-0.201,2.124,0.988,0.000,0.000,0.000,0.000,0.000,0.000
15,-0.0012,-0.0320,0.3316,0.0021,0.0048,0.0282,0.00,-0.07,-0.62,0,0.000,2.997,-0.203,1.254,0.000,0.000,0.000,0.000,0.000,0.000
15,-0.0012,-0.0320,0.3319,0.0021,0.0048,0.0284,0.03,-0.07,-0.60,0,0.000,-0.250,0.928,0.985,0.000,0.000,0.000,0.000,0.000,0.000
15,-0.0002,-0.0330,0.3327,0.0026,0.0043,0.0311,0.02,-0.08,-0.59,0,0.000,0.152,0.843,1.655,0.000,0.000,0.000,0.000,0.000,0.000
15,-0.0002,-0.0330,0.3330,0.0027,0.0043,0.0317,0.03,-0.09,-0.58,0,0.000,-1.193,0.535,1.719,0.000,0.000,0.000,0.000,0.000,0.000
15,-0.0002,-0.0330,0.3333,0.0028,0.0042,0.0323,0.03,-0.09,-0.56,0,0.000,2.466,0.538,1.655,0.000,0.000,0.000,0.000,0.000,0.000
15,-0.0002,-0.0330,0.3333,0.0028,0.0042,0.0323,0.04,-0.10,-0.54,0,0.000,0.192,0.881,1.911,0.000,0.000,0.000,0.000,0.000,0.000
15,-0.0002,-0.0329,0.3336,0.0030,0.0042,0.0324,0.05,-0.11,-0.52,0,0.000,3.103,0.098,2.923,0.000,0.000,0.000,0.000,0.000,0.000
15,-0.0001,-0.0329,0.3340,0.0031,0.0041,0.0326,0.07,-0.11,-0.49,0,0.000,-0.711,0.464,2.367,0.000,0.000,0.000,0.000,0.000,0.000
15,-0.0001,-0.0329,0.3343,0.0033,0.0041,0.0331,0.07,-0.11,-0.47,0,0.000,2.090,1.309,2.683,0.000,0.000,0.000,0.000,0.000,0.000
15,-0.0000,-0.0328,0.3346,0.0035,0.0040,0.0336,0.09,-0.12,-0.44,0,0.000,0.873,-0.604,2.536,0.000,0.000,0.000,0.000,0.000,0.000
15,0.0000,-0.0328,0.3350,0.0036,0.0039,0.0339,0.10,-0.12,-0.42,0,0.000,1.937,0.831,2.601,0.000,0.000,0.000,0.000,0.000,0.000
15,0.0000,-0.0328,0.3353,0.0038,0.0038,0.0339,0.12,-0.12,-0.39,0,0.000,1.202,-0.050,2.533,0.000,0.000,0.000,0.000,0.000,0.000
15,0.0002,-0.0330,0.3358,0.0041,0.0036,0.0347,0.14,-0.12,-0.37,0,0.000,4.274,-1.538,3.104,0.000,0.000,0.000,0.000,0.000,0.000
15,0.0002,-0.0330,0.3361,0.0043,0.0034,0.0347,0.17,-0.11,-0.34,0,0.000,1.582,0.889,3.013,0.000,0.000,0.000,0.000,0.000,0.000
15,0.0003,-0.0329,0.3365,0.0045,0.0033,0.0348,0.18,-0.12,-0.31,0,0.000,0.024,0.617,2.936,0.000,0.000,0.000,0.000,0.000,0.000
15,0.0003,-0.0329,0.3368,0.0047,0.0030,0.0351,0.19,-0.12,-0.28,0,0.000,3.341,-0.756,3.043,0.000,0.000,0.000,0.000,0.000,0.000
15,0.0004,-0.0329,0.3372,0.0049,0.0028,0.0355,0.21,-0.11,-0.25,0,0.000,-2.779,0.772,3.536,0.000,0.000,0.000,0.000,0.000,0.000
15,0.0004,-0.0325,0.3373,0.0051,0.0027,0.0343,0.19,-0.12,-0.21,0,0.000,1.712,0.015,3.335,0.000,0.000,0.000,0.000,0.000,0.000
15,0.0004,-0.0325,0.3377,0.0053,0.0023,0.0342,0.20,-0.12,-0.18,0,0.000,-0.040,-1.342,2.817,0.000,0.000,0.000,0.000,0.000,0.000
15,0.0005,-0.0325,0.3380,0.0055,0.0020,0.0339,0.20,-0.10,-0.15,0,0.000,1.549,-2.356,2.606,0.000,0.000,0.000,0.000,0.000,0.000
15,0.0005,-0.0325,0.3383,0.0057,0.0017,0.0339,0.20,-0.08,-0.13,0,0.000,0.099,-1.632,2.839,0.000,0.000,0.000,0.000,0.000,0.000
15,0.0006,-0.0325,0.3387,0.0059,0.0013,0.0338,0.20,-0.06,-0.10,0,0.000,-0.528,-0.929,2.554,0.000,0.000,0.000,0.000,0.000,0.000
15,0.0003,-0.0330,0.3398,0.0059,0.0008,0.0378,0.20,-0.05,-0.07,0,0.000,-1.277,0.394,2.476,0.000,0.000,0.000,0.000,0.000,0.000
15,0.0004,-0.0330,0.3402,0.0061,0.0004,0.0374,0.20,-0.05,-0.05,0,0.000,-1.094,0.321,2.296,0.000,0.000,0.000,0.000,0.000,0.000
15,0.0005,-0.0330,0.3406,0.0062,0.0001,0.0372,0.18,-0.05,-0.02,0,0.000,-1.450,-2.477,3.579,0.000,0.000,0.000,0.000,0.000,0.000
15,0.0005,-0.0330,0.3410,0.0063,-0.0003,0.0369,0.16,-0.04,0.01,0,0.000,1.877,-0.535,2.334,0.000,0.000,0.000,0.000,0.000,0.000
15,0.0006,-0.0330,0.3413,0.0064,-0.0006,0.0365,0.17,-0.04,0.04,0,0.000,-0.725,0.623,3.394,0.000,0.000,0.000,0.000,0.000,0.000
15,0.0015,-0.0332,0.3406,0.0069,-0.0010,0.0302,0.17,-0.04,0.07,0,0.000,-1.554,-0.375,3.250,0.000,0.000,0.000,0.000,0.000,0.000
15,0.0016,-0.0332,0.3409,0.0070,-0.0013,0.0297,0.16,-0.03,0.10,0,0.000,-1.196,-0.345,2.444,0.000,0.000,0.000,0.000,0.000,0.000
15,0.0017,-0.0332,0.3412,0.0070,-0.0016,0.0293,0.15,-0.03,0.12,0,0.000,-0.935,0.648,2.257,0.000,0.000,0.000,0.000,0.000,0.000
15,0.0018,-0.0332,0.3415,0.0071,-0.0019,0.0288,0.16,-0.03,0.15,0,0.000,-1.322,-0.289,3.240,0.000,0.000,0.000,0.000,0.000,0.000
16,0.0018,-0.0332,0.3418,0.0072,-0.0022,0.0284,0.15,-0.02,0.18,0,0.000,-2.010,-1.960,3.549,0.000,0.000,0.000,0.000,0.000,0.000
16,0.0001,-0.0317,0.3437,0.0065,-0.0018,0.0366,0.13,-0.01,0.21,0,0.000,-0.697,0.409,2.335,0.000,0.000,0.000,0.000,0.000,0.000
16,0.0002,-0.0318,0.3441,0.0065,-0.0021,0.0362,0.13,-0.01,0.24,0,0.000,-0.003,0.942,2.719,0.000,0.000,0.000,0.000,0.000,0.000
16,0.0002,-0.0318,0.3444,0.0066,-0.0024,0.0359,0.12,-0.02,0.26,0,0.000,-1.337,0.875,2.644,0.000,0.000,0.000,0.000,0.000,0.000
16,0.0003,-0.0318,0.3448,0.0066,-0.0026,0.0356,0.11,-0.02,0.29,0,0.000,-0.340,0.033,1.865,0.000,0.000,0.000,0.000,0.000,0.000
16,0.0004,-0.0318,0.3451,0.0066,-0.0029,0.0350,0.10,-0.02,0.31,0,0.000,-2.541,1.145,2.008,0.000,0.000,0.000,0.000,0.000,0.000
16,0.0020,-0.0339,0.3440,0.0073,-0.0039,0.0268,0.07,-0.03,0.33,0,0.000,-4.008,-0.588,2.446,0.000,0.000,0.000,0.000,0.000,0.000
16,0.0021,-0.0340,0.3443,0.0073,-0.0041,0.0260,0.03,-0.02,0.36,0,0.000,-2.246,0.226,2.352,0.000,0.000,0.000,0.000,0.000,0.000
16,0.0021,-0.0340,0.3446,0.0074,-0.0043,0.0252,0.01,-0.02,0.38,0,0.000,-1.374,-0.499,2.624,0.000,0.000,0.000,0.000,0.000,0.000
16,0.0022,-0.0341,0.3448,0.0074,-0.0045,0.0248,-0.01,-0.02,0.41,0,0.000,-2.494,-1.522,3.336,0.000,0.000,0.000,0.000,0.000,0.000
16,0.0023,-0.0341,0.3451,0.0075,-0.0046,0.0242,-0.02,-0.01,0.44,0,0.000,-0.003,0.779,2.529,0.000,0.000,0.000,0.000,0.000,0.000
16,0.0029,-0.0352,0.3448,0.0077,-0.0051,0.0204,-0.03,-0.02,0.46,0,0.000,-1.817,0.295,2.938,0.000,0.000,0.000,0.000,0.000,0.000
16,0.0030,-0.0353,0.3450,0.0078,-0.0051,0.0197,-0.04,-0.01,0.49,0,0.000,0.670,1.397,1.473,0.000,0.000,0.000,0.000,0.000,0.000
16,0.0031,-0.0353,0.3452,0.0078,-0.0051,0.0191,-0.04,-0.02,0.51,0,0.000,-0.909,-1.277,2.561,0.000,0.000,0.000,0.000,0.000,0.000
16,0.0032,-0.0354,0.3453,0.0078,-0.0051,0.0186,-0.04,-0.02,0.53,0,0.000,-0.124,1.671,2.208,0.000,0.000,0.000,0.000,0.000,0.000
16,0.0033,-0.0354,0.3455,0.0078,-0.0050,0.0181,-0.04,-0.03,0.55,0,0.000,0.044,-0.069,2.173,0.000,0.000,0.000,0.000,0.000,0.000
16,0.0032,-0.0352,0.3458,0.0078,-0.0049,0.0181,-0.04,-0.03,0.57,0,0.000,0.659,1.052,2.149,0.000,0.000,0.000,0.000,0.000,0.000
16,0.0033,-0.0353,0.3460,0.0079,-0.0048,0.0175,-0.04,-0.04,0.60,0,0.000,-2.404,-0.272,2.925,0.000,0.000,0.000,0.000,0.000,0.000
16,0.0034,-0.0353,0.3462,0.0079,-0.0047,0.0170,-0.05,-0.04,0.62,0,0.000,1.073,-0.368,1.851,0.000,0.000,0.000,0.000,0.000,0.000
16,0.0034,-0.0353,0.3463,0.0079,-0.0046,0.0163,-0.05,-0.04,0.64,0,0.000,-0.654,-1.545,2.043,0.000,0.000,0.000,0.000,0.000,0.000
16,0.0035,-0.0354,0.3465,0.0080,-0.0046,0.0158,-0.05,-0.03,0.66,0,0.000,0.810,0.474,1.046,0.000,0.000,0.000,0.000,0.000,0.000
16,0.0042,-0.0368,0.3460,0.0083,-0.0050,0.0115,-0.04,-0.03,0.68,0,0.000,-1.800,-1.078,2.368,0.000,0.000,0.000,0.000,0.000,0.000
16,0.0043,-0.0368,0.3461,0.0084,-0.0050,0.0110,-0.06,-0.03,0.70,0,0.000,0.155,1.327,1.759,0.000,0.000,0.000,0.000,0.000,0.000
16,0.0044,-0.0369,0.3462,0.0085,-0.0049,0.0107,-0.06,-0.04,0.72,0,0.000,-3.062,-0.358,2.780,0.000,0.000,0.000,0.000,0.000,0.000
16,0.0045,-0.0369,0.3463,0.0085,-0.0048,0.0103,-0.09,-0.04,0.75,0,0.000,-1.052,0.280,1.823,0.000,0.000,0.000,0.000,0.000,0.000
16,0.0046,-0.0370,0.3464,0.0086,-0.0047,0.0097,-0.10,-0.04,0.77,0,0.000,-1.289,2.121,2.019,0.000,0.000,0.000,0.000,0.000,0.000
16,0.0034,-0.0346,0.3480,0.0081,-0.0037,0.0170,-0.11,-0.06,0.79,0,0.000,-2.349,-0.016,1.658,0.000,0.000,0.000,0.000,0.000,0.000
16,0.0035,-0.0347,0.3481,0.0082,-0.0036,0.0168,-0.13,-0.07,0.80,0,0.000,-1.250,-0.007,1.945,0.000,0.000,0.000,0.000,0.000,0.000
16,0.0036,-0.0347,0.3483,0.0083,-0.0034,0.0166,-0.13,-0.07,0.82,0,0.000,0.258,1.533,1.680,0.000,0.000,0.000,0.000,0.000,0.000
16,0.0037,-0.0347,0.3485,0.0083,-0.0033,0.0164,-0.13,-0.08,0.84,0,0.000,0.115,1.786,2.282,0.000,0.000,0.000,0.000,0.000,0.000
16,0.0038,-0.0348,0.3486,0.0084,-0.0031,0.0160,-0.13,-0.10,0.87,0,0.000,-0.358,0.285,1.476,0.000,0.000,0.000,0.000,0.000,0.000
16,0.0044,-0.0355,0.3480,0.0087,-0.0032,0.0115,-0.14,-0.10,0.88,0,0.000,0.754,-0.020,1.642,0.000,0.000,0.000,0.000,0.000,0.000
16,0.0044,-0.0356,0.3481,0.0088,-0.0029,0.0113,-0.13,-0.10,0.90,0,0.000,0.823,-0.048,1.110,0.000,0.000,0.000,0.000,0.000,0.000
16,0.0045,-0.0356,0.3483,0.0090,-0.0027,0.0110,-0.12,-0.10,0.91,0,0.000,0.749,0.420,1.617,0.000,0.000,0.000,0.000,0.000,0.000
16,0.0046,-0.0356,0.3484,0.0091,-0.0025,0.0108,-0.12,-0.11,0.92,0,0.000,0.888,0.756,1.528,0.000,0.000,0.000,0.000,0.000,0.000
16,0.0047,-0.0356,0.3485,0.0093,-0.0022,0.0104,-0.11,-0.11,0.94,0,0.000,0.785,0.213,1.502,0.000,0.000,0.000,0.000,0.000,0.000
16,0.0038,-0.0352,0.3500,0.0091,-0.0018,0.0176,-0.11,-0.11,0.95,0,0.000,1.187,-1.751,1.571,0.000,0.000,0.000,0.000,0.000,0.000
16,0.0039,-0.0352,0.3502,0.0093,-0.0016,0.0175,-0.10,-0.09,0.97,0,0.000,1.621,-2.860,1.070,0.000,0.000,0.000,0.000,0.000,0.000
16,0.0040,-0.0352,0.3503,0.0094,-0.0014,0.0172,-0.09,-0.06,0.98,0,0.000,-0.173,-2.360,1.622,0.000,0.000,0.000,0.000,0.000,0.000
16,0.0041,-0.0352,0.3505,0.0096,-0.0012,0.0169,-0.09,-0.04,1.00,0,0.000,-0.306,-1.943,1.847,0.000,0.000,0.000,0.000,0.000,0.000
16,0.0042,-0.0352,0.3507,0.0098,-0.0010,0.0164,-0.09,-0.02,1.02,0,0.000,-0.761,-1.044,2.363,0.000,0.000,0.000,0.000,0.000,0.000
16,0.0040,-0.0354,0.3513,0.0098,-0.0009,0.0185,-0.09,-0.00,1.04,0,0.000,0.374,-1.081,1.636,0.000,0.000,0.000,0.000,0.000,0.000
16,0.0041,-0.0354,0.3515,0.0099,-0.0008,0.0183,-0.09,0.01,1.06,0,0.000,-0.178,-0.337,1.973,0.000,0.000,0.000,0.000,0.000,0.000
16,0.0042,-0.0354,0.3517,0.0100,-0.0006,0.0180,-0.10,0.01,1.08,0,0.000,-0.033,0.901,1.719,0.000,0.000,0.000,0.000,0.000,0.000
16,0.0043,-0.0354,0.3519,0.0100,-0.0005,0.0173,-0.10,0.01,1.10,0,0.000,-1.442,0.923,1.558,0.000,0.000,0.000,0.000,0.000,0.000
16,0.0044,-0.0354,0.3520,0.0100,-0.0003,0.0164,-0.11,-0.00,1.12,0,0.000,-0.065,1.342,2.396,0.000,0.000,0.000,0.000,0.000,0.000
16,0.0060,-0.0335,0.3500,0.0106,0.0006,0.0043,-0.11,-0.01,1.14,0,0.000,0.072,0.566,1.843,0.000,0.000,0.000,0.000,0.000,0.000
16,0.0062,-0.0335,0.3501,0.0106,0.0007,0.0037,-0.11,-0.02,1.16,0,0.000,-0.598,-0.186,2.074,0.000,0.000,0.000,0.000,0.000,0.000
16,0.0063,-0.0335,0.3501,0.0106,0.0009,0.0031,-0.11,-0.02,1.18,0,0.000,-0.736,0.079,2.354,0.000,0.000,0.000,0.000,0.000,0.000
16,0.0064,-0.0335,0.3501,0.0106,0.0011,0.0025,-0.12,-0.02,1.20,0,0.000,1.177,-0.488,2.487,0.000,0.000,0.000,0.000,0.000,0.000
16,0.0065,-0.0335,0.3502,0.0106,0.0013,0.0019,-0.11,-0.01,1.22,0,0.000,-0.222,-1.887,2.754,0.000,0.000,0.000,0.000,0.000,0.000
16,0.0053,-0.0358,0.3518,0.0101,0.0006,0.0097,-0.11,0.00,1.24,0,0.000,-0.110,-0.360,2.582,0.000,0.000,0.000,0.000,0.000,0.000
16,0.0054,-0.0358,0.3519,0.0102,0.0008,0.0095,-0.11,0.01,1.27,0,0.000,-0.085,-1.016,1.981,0.000,0.000,0.000,0.000,0.000,0.000
16,0.0055,-0.0357,0.3520,0.0102,0.0010,0.0090,-0.11,0.01,1.29,0,0.000,0.050,-1.947,1.844,0.000,0.000,0.000,0.000,0.000,0.000
16,0.0056,-0.0357,0.3520,0.0102,0.0012,0.0086,-0.10,0.03,1.30,0,0.000,-0.027,-1.628,2.169,0.000,0.000,0.000,0.000,0.000,0.000
16,0.0057,-0.0357,0.3521,0.0102,0.0014,0.0083,-0.09,0.04,1.32,0,0.000,2.537,-0.437,1.545,0.000,0.000,0.000,0.000,0.000,0.000
16,0.0059,-0.0356,0.3521,0.0102,0.0016,0.0077,-0.07,0.04,1.34,0,0.000,3.105,0.428,1.558,0.000,0.000,0.000,0.000,0.000,0.000
16,0.0060,-0.0355,0.3522,0.0102,0.0018,0.0076,-0.04,0.04,1.35,0,0.000,3.175,0.673,1.625,0.000,0.000,0.000,0.000,0.000,0.000
17,0.0061,-0.0355,0.3523,0.0101,0.0020,0.0071,-0.01,0.04,1.37,0,0.000,1.443,0.192,1.273,0.000,0.000,0.000,0.000,0.000,0.000
17,0.0062,-0.0355,0.3523,0.0101,0.0021,0.0064,0.01,0.03,1.38,0,0.000,1.263,-0.735,1.561,0.000,0.000,0.000,0.000,0.000,0.000
17,0.0063,-0.0355,0.3524,0.0100,0.0023,0.0059,0.03,0.04,1.40,0,0.000,1.874,-0.560,1.728,0.000,0.000,0.000,0.000,0.000,0.000
17,0.0063,-0.0359,0.3527,0.0099,0.0022,0.0069,0.04,0.04,1.42,0,0.000,1.483,-0.179,2.006,0.000,0.000,0.000,0.000,0.000,0.000
17,0.0064,-0.0358,0.3528,0.0098,0.0022,0.0065,0.06,0.05,1.44,0,0.000,1.986,0.238,2.329,0.000,0.000,0.000,0.000,0.000,0.000
17,0.0065,-0.0358,0.3528,0.0098,0.0022,0.0061,0.08,0.05,1.46,0,0.000,2.834,-0.410,2.488,0.000,0.000,0.000,0.000,0.000,0.000
17,0.0066,-0.0358,0.3529,0.0097,0.0021,0.0057,0.10,0.05,1.49,0,0.000,1.018,0.063,2.214,0.000,0.000,0.000,0.000,0.000,0.000
17,0.0067,-0.0358,0.3529,0.0096,0.0020,0.0055,0.11,0.05,1.51,0,0.000,-0.505,-0.554,4.529,0.000,0.000,0.000,0.000,0.000,0.000
17,0.0067,-0.0365,0.3534,0.0095,0.0017,0.0068,0.10,0.04,1.56,0,0.000,-0.021,0.698,4.940,0.000,0.000,0.000,0.000,0.000,0.000
17,0.0068,-0.0364,0.3534,0.0095,0.0016,0.0003,0.10,0.04,1.61,0,0.000,-0.644,0.149,5.817,0.000,0.000,0.000,0.000,0.000,0.000
17,0.0069,-0.0364,0.3534,0.0094,0.0014,-0.0141,0.10,0.04,1.66,0,0.000,-2.805,-3.826,6.083,0.000,0.000,0.000,0.000,0.000,0.000
19,0.0069,-0.0364,0.3531,0.0093,0.0013,-0.0352,0.05,0.09,1.72,0,0.000,-12.771,-17.634,6.915,0.000,0.000,0.000,0.000,0.000,0.000
29,0.0070,-0.0364,0.3526,0.0093,0.0011,-0.0633,-0.10,0.31,1.80,0,0.000,-29.209,-40.248,8.479,0.000,0.000,0.000,0.000,0.000,0.000
39,0.0071,-0.0360,0.3515,0.0092,0.0012,-0.0990,-0.42,0.75,1.89,0,0.000,-46.110,-68.111,8.863,0.000,0.000,0.000,0.000,0.000,0.000
49,0.0072,-0.0360,0.3503,0.0092,0.0011,-0.1315,-0.91,1.47,1.98,0,0.000,-65.094,-96.028,9.087,0.000,0.000,0.000,0.000,0.000,0.000
59,0.0073,-0.0359,0.3489,0.0092,0.0009,-0.1588,-1.59,2.46,2.10,0,0.000,-79.983,-118.076,9.818,0.000,0.000,0.000,0.000,0.000,0.000
69,0.0074,-0.0359,0.3472,0.0090,0.0009,-0.1809,-2.41,3.66,2.24,0,0.000,-91.477,-135.141,10.217,0.000,0.000,0.000,0.000,0.000,0.000
79,0.0075,-0.0359,0.3453,0.0081,0.0013,-0.1988,-3.35,5.01,2.41,0,0.000,-97.186,-140.260,10.708,0.000,0.000,0.000,0.000,0.000,0.000
89,0.0077,-0.0362,0.3435,0.0063,0.0023,-0.2117,-4.34,6.41,2.61,0,0.000,-94.451,-143.355,10.040,0.000,0.000,0.000,0.000,0.000,0.000
99,0.0078,-0.0361,0.3414,0.0027,0.0044,-0.2228,-5.31,7.81,2.84,0,0.000,-90.143,-133.705,10.906,0.000,0.000,0.000,0.000,0.000,0.000
109,0.0078,-0.0361,0.3391,-0.0031,0.0079,-0.2308,-6.22,9.08,3.08,0,0.000,-81.925,-116.820,10.667,0.000,0.000,0.000,0.000,0.000,0.000
119,0.0077,-0.0360,0.3368,-0.0114,0.0129,-0.2363,-7.06,10.20,3.32,0,0.000,-65.876,-97.065,9.967,0.000,0.000,0.000,0.000,0.000,0.000
129,0.0075,-0.0358,0.3344,-0.0223,0.0196,-0.2397,-7.75,11.11,3.55,0,0.000,-51.147,-72.874,8.476,0.000,0.000,0.000,0.000,0.000,0.000
140,0.0618,-0.0592,0.3402,-0.0164,0.0193,-0.1987,-8.30,11.79,3.74,0,0.000,-44.501,-49.024,9.512,0.000,0.000,0.000,0.000,0.000,0.000
149,0.0615,-0.0590,0.3382,-0.0325,0.0292,-0.1998,-8.80,12.27,3.92,0,0.000,-31.170,-27.931,8.149,0.000,0.000,0.000,0.000,0.000,0.000
159,0.0611,-0.0587,0.3362,-0.0510,0.0405,-0.1998,-9.12,12.49,4.03,0,0.000,-22.651,-10.461,7.092,0.000,0.000,0.000,0.000,0.000,0.000
169,0.0605,-0.0582,0.3343,-0.0714,0.0531,-0.1989,-9.30,12.49,4.11,0,0.000,-18.474,0.386,6.222,0.000,0.000,0.000,0.000,0.000,0.000
179,0.0596,-0.0575,0.3321,-0.0954,0.0680,-0.1969,-9.50,12.47,4.17,0,0.000,-14.197,6.218,6.382,0.000,0.000,0.000,0.000,0.000,0.000
189,0.2227,-0.1438,0.3388,-0.0594,0.0509,-0.1494,-9.64,12.39,4.22,0,0.000,-13.693,8.799,7.080,0.000,0.000,0.000,0.000,0.000,0.000
199,0.2220,-0.1432,0.3373,-0.0827,0.0658,-0.1466,-9.78,12.27,4.27,0,0.000,-2.912,18.914,6.166,0.000,0.000,0.000,0.000,0.000,0.000
209,0.2211,-0.1425,0.3358,-0.1063,0.0811,-0.1435,-9.77,12.04,4.30,0,0.000,13.811,32.317,6.548,0.000,0.000,0.000,0.000,0.000,0.000
219,0.2199,-0.1416,0.3344,-0.1300,0.0969,-0.1398,-9.60,11.68,4.30,0,0.000,31.361,45.690,6.196,0.000,0.000,0.000,0.000,0.000,0.000
229,0.2185,-0.1406,0.3330,-0.1538,0.1130,-0.1354,-9.27,11.21,4.29,0,0.000,42.856,54.589,6.413,0.000,0.000,0.000,0.000,0.000,0.000
239,0.2327,-0.1506,0.3325,-0.1717,0.1253,-0.1263,-8.82,10.65,4.27,0,0.000,50.420,59.553,7.577,0.000,0.000,0.000,0.000,0.000,0.000
249,0.2309,-0.1493,0.3313,-0.1950,0.1418,-0.1209,-8.31,10.03,4.26,0,0.000,52.810,61.986,8.653,0.000,0.000,0.000,0.000,0.000,0.000
260,0.2289,-0.1478,0.3301,-0.2177,0.1580,-0.1148,-7.77,9.41,4.26,0,0.000,55.761,59.362,9.133,0.000,0.000,0.000,0.000,0.000,0.000
270,0.2266,-0.1461,0.3290,-0.2395,0.1737,-0.1085,-7.25,8.86,4.28,0,0.000,53.698,54.258,9.229,0.000,0.000,0.000,0.000,0.000,0.000
279,0.2241,-0.1443,0.3279,-0.2602,0.1886,-0.1023,-6.72,8.32,4.30,0,0.000,48.878,44.905,9.442,0.000,0.000,0.000,0.000,0.000,0.000
289,0.1333,-0.0730,0.3249,-0.3116,0.2274,-0.1067,-6.24,7.88,4.35,0,0.000,39.304,32.646,11.164,0.000,0.000,0.000,0.000,0.000,0.000
299,0.1301,-0.0707,0.3238,-0.3301,0.2406,-0.0994,-5.86,7.56,4.43,0,0.000,32.321,20.308,10.494,0.000,0.000,0.000,0.000,0.000,0.000
309,0.1267,-0.0682,0.3229,-0.3475,0.2529,-0.0914,-5.82,7.64,4.55,0,0.000,20.674,10.928,12.055,0.000,0.000,0.000,0.000,0.000,0.000
320,0.1231,-0.0656,0.3220,-0.3639,0.2643,-0.0828,-5.64,7.53,4.66,0,0.000,10.944,5.710,13.383,0.000,0.000,0.000,0.000,0.000,0.000
330,0.1194,-0.0629,0.3212,-0.3795,0.2748,-0.0742,-5.55,7.47,4.79,0,0.000,7.768,4.566,13.427,0.000,0.000,0.000,0.000,0.000,0.000
340,-0.5514,0.4774,0.3131,-0.6305,0.4736,-0.1092,-5.48,7.40,4.91,0,0.000,10.397,11.961,12.817,0.000,0.000,0.000,0.000,0.000,0.000
349,-0.5578,0.4822,0.3120,-0.6457,0.4834,-0.1002,-5.37,7.24,5.03,0,0.000,15.389,25.059,13.880,0.000,0.000,0.000,0.000,0.000,0.000
360,-0.5643,0.4871,0.3111,-0.6608,0.4929,-0.0909,-5.22,6.95,5.14,0,0.000,19.830,38.099,14.670,0.000,0.000,0.000,0.000,0.000,0.000
370,-0.5710,0.4920,0.3102,-0.6757,0.5022,-0.0814,-5.42,6.96,5.30,0,0.000,27.965,58.456,17.219,0.000,0.000,0.000,0.000,0.000,0.000
379,-0.5778,0.4971,0.3095,-0.6906,0.5113,-0.0716,-5.14,6.32,5.42,0,0.000,30.074,74.304,19.105,0.000,0.000,0.000,0.000,0.000,0.000
389,-1.7931,1.4770,0.3035,-1.1244,0.8566,-0.1042,-4.84,5.53,5.55,0,0.000,33.847,87.109,19.406,0.000,0.000,0.000,0.000,0.000,0.000
399,-1.8044,1.4856,0.3025,-1.1392,0.8659,-0.0957,-4.53,4.63,5.66,0,0.000,29.104,92.053,19.879,0.000,0.000,0.000,0.000,0.000,0.000
409,-1.8159,1.4943,0.3015,-1.1531,0.8747,-0.0874,-4.69,4.17,5.84,0,0.000,27.779,86.819,21.393,0.000,0.000,0.000,0.000,0.000,0.000
419,-1.8275,1.5031,0.3007,-1.1656,0.8831,-0.0803,-4.43,3.30,5.99,0,0.000,23.129,79.854,21.908,0.000,0.000,0.000,0.000,0.000,0.000
429,-1.8392,1.5120,0.2999,-1.1766,0.8909,-0.0741,-4.21,2.51,6.15,0,0.000,18.625,72.405,18.033,0.000,0.000,0.000,0.000,0.000,0.000
439,-3.1443,2.5706,0.2953,-1.6299,1.2562,-0.1094,-4.17,1.64,5.70,0,0.000,-48.150,160.229,-265.785,0.000,0.000,0.000,0.000,0.000,0.000
449,-3.1606,2.5832,0.2943,-1.6384,1.2639,-0.1036,-4.81,0.43,2.81,0,0.000,-99.307,128.688,-333.973,0.000,0.000,0.000,0.000,0.000,0.000
459,-3.1770,2.5959,0.2932,-1.6453,1.2712,-0.0996,-5.85,-0.58,-0.75,0,0.000,-144.761,105.518,-284.385,0.000,0.000,0.000,0.000,0.000,0.000
469,-3.1935,2.6086,0.2922,-1.6504,1.2777,-0.1028,-7.52,-1.10,-2.88,0,0.000,-84.965,134.136,47.673,0.000,0.000,0.000,0.000,0.000,0.000
479,-3.2100,2.6214,0.2911,-1.6555,1.2845,-0.1225,-8.03,-2.86,-1.71,0,0.000,48.378,254.255,441.508,0.000,0.000,0.000,0.000,0.000,0.000
489,-3.9507,3.2269,0.2874,-1.9064,1.4942,-0.1589,-6.59,-6.62,3.40,0,0.000,292.185,520.977,894.995,0.000,0.000,0.000,0.000,0.000,0.000
