time_ms,pos_x,pos_y,pos_z,vel_x,vel_y,vel_z,roll,pitch,yaw,thrust,vbat,gyro_x,gyro_y,gyro_z,acc_x,acc_y,acc_z,rate_roll,rate_pitch,rate_yaw
0,0.1563,-0.4040,0.0076,0.0047,-0.0048,-0.0051,0.07,0.71,-107.77,0,0.000,-0.187,-0.272,-0.001,0.000,0.000,0.000,0.000,0.000,0.000
0,0.1547,-0.4035,0.0075,-0.0038,-0.0017,-0.0049,0.09,0.69,-107.67,0,0.000,-0.139,0.048,-0.033,0.000,0.000,0.000,0.000,0.000,0.000
0,0.1563,-0.4040,0.0075,0.0047,-0.0041,-0.0049,0.09,0.70,-107.58,0,0.000,-0.025,-0.191,-0.104,0.000,0.000,0.000,0.000,0.000,0.000
0,0.1567,-0.4025,0.0069,0.0073,0.0042,-0.0083,0.14,0.69,-107.49,0,0.000,-0.063,-0.218,0.191,0.000,0.000,0.000,0.000,0.000,0.000
0,0.1562,-0.4028,0.0068,0.0040,0.0023,-0.0084,0.15,0.72,-107.40,0,0.000,-0.046,-0.044,-0.260,0.000,0.000,0.000,0.000,0.000,0.000
0,0.1563,-0.4024,0.0067,0.0046,0.0046,-0.0087,0.12,0.67,-107.31,0,0.000,0.107,0.171,-0.246,0.000,0.000,0.000,0.000,0.000,0.000
0,0.1552,-0.4023,0.0066,-0.0018,0.0050,-0.0087,0.06,0.63,-107.21,0,0.000,0.099,-0.130,-0.092,0.000,0.000,0.000,0.000,0.000,0.000
0,0.1549,-0.4015,0.0065,-0.0029,0.0089,-0.0089,0.06,0.66,-107.03,0,0.000,-0.196,-0.359,0.078,0.000,0.000,0.000,0.000,0.000,0.000
0,0.1553,-0.4027,0.0065,-0.0009,0.0020,-0.0089,0.07,0.63,-107.03,0,0.000,0.006,0.157,-0.329,0.000,0.000,0.000,0.000,0.000,0.000
0,0.1563,-0.4040,0.0070,0.0047,-0.0047,-0.0055,0.09,0.72,-106.85,0,0.000,0.061,-0.355,-0.349,0.000,0.000,0.000,0.000,0.000,0.000
0,0.1565,-0.4033,0.0070,0.0057,-0.0013,-0.0054,0.10,0.71,-106.85,0,0.000,0.027,-0.078,0.057,0.000,0.000,0.000,0.000,0.000,0.000
0,0.1563,-0.4040,0.0069,0.0045,-0.0047,-0.0052,0.09,0.67,-106.66,0,0.000,-0.183,-0.039,0.369,0.000,0.000,0.000,0.000,0.000,0.000
0,0.1564,-0.4019,0.0069,0.0053,0.0061,-0.0048,0.13,0.68,-106.66,0,0.000,-0.135,-0.096,0.166,0.000,0.000,0.000,0.000,0.000,0.000
0,0.1561,-0.4021,0.0065,0.0038,0.0050,-0.0065,0.12,0.63,-106.48,0,0.000,-0.111,-0.239,0.121,0.000,0.000,0.000,0.000,0.000,0.000
0,0.1561,-0.4030,0.0065,0.0035,-0.0003,-0.0063,0.12,0.67,-106.48,0,0.000,-0.016,-0.013,-0.062,0.000,0.000,0.000,0.000,0.000,0.000
0,0.1551,-0.4025,0.0064,-0.0017,0.0024,-0.0062,0.08,0.68,-106.29,0,0.000,0.151,-0.066,0.039,0.000,0.000,0.000,0.000,0.000,0.000
0,0.1550,-0.4036,0.0063,-0.0020,-0.0036,-0.0062,0.07,0.63,-106.29,0,0.000,-0.021,-0.195,-0.002,0.000,0.000,0.000,0.000,0.000,0.000
0,0.1553,-0.4028,0.0063,-0.0006,0.0009,-0.0064,0.07,0.66,-106.20,0,0.000,-0.337,-0.036,-0.089,0.000,0.000,0.000,0.000,0.000,0.000
0,0.1562,-0.4028,0.0062,0.0041,0.0004,-0.0065,0.08,0.72,-106.11,0,0.000,0.030,0.146,0.131,0.000,0.000,0.000,0.000,0.000,0.000
0,0.1563,-0.4039,0.0065,0.0046,-0.0058,-0.0047,0.10,0.68,-106.02,0,0.000,-0.261,0.173,0.010,0.000,0.000,0.000,0.000,0.000,0.000
0,0.1565,-0.4033,0.0064,0.0055,-0.0022,-0.0046,0.07,0.63,-105.93,0,0.000,-0.054,0.144,-0.070,0.000,0.000,0.000,0.000,0.000,0.000
0,0.1566,-0.4020,0.0064,0.0061,0.0049,-0.0046,0.25,0.63,-105.84,0,0.000,0.091,-0.017,0.144,0.000,0.000,0.000,0.000,0.000,0.000
0,0.1557,-0.4027,0.0064,0.0010,0.0011,-0.0043,0.19,0.63,-105.74,0,0.000,0.016,0.275,0.080,0.000,0.000,0.000,0.000,0.000,0.000
0,0.1563,-0.4039,0.0083,0.0038,-0.0058,0.0065,0.21,0.66,-105.65,0,0.000,-0.033,0.149,-0.121,0.000,0.000,0.000,0.000,0.000,0.000
0,0.1522,-0.4028,0.0084,-0.0190,0.0009,0.0067,0.24,0.66,-105.56,0,0.000,-0.001,-0.309,-0.165,0.000,0.000,0.000,0.000,0.000,0.000
0,0.1532,-0.4031,0.0085,-0.0124,-0.0006,0.0069,0.26,0.60,-105.47,0,0.000,-0.173,0.082,0.203,0.000,0.000,0.000,0.000,0.000,0.000
0,0.1528,-0.4023,0.0086,-0.0141,0.0037,0.0068,0.19,0.66,-105.38,0,0.000,-0.139,0.265,0.266,0.000,0.000,0.000,0.000,0.000,0.000
0,0.1519,-0.4020,0.0086,-0.0179,0.0048,0.0065,0.20,0.66,-105.29,0,0.000,-0.077,-0.157,-0.193,0.000,0.000,0.000,0.000,0.000,0.000
0,0.1509,-0.4033,0.0086,-0.0224,-0.0023,0.0066,0.14,0.66,-105.19,0,0.000,0.155,0.134,0.184,0.000,0.000,0.000,0.000,0.000,0.000
0,0.1528,-0.4023,0.0089,-0.0116,0.0033,0.0080,0.14,0.66,-105.10,0,0.000,-0.015,0.210,-0.255,0.000,0.000,0.000,0.000,0.000,0.000
0,0.1524,-0.4022,0.0090,-0.0132,0.0038,0.0083,0.17,0.66,-105.01,0,0.000,-0.270,-0.016,0.109,0.000,0.000,0.000,0.000,0.000,0.000
0,0.1534,-0.4024,0.0091,-0.0068,0.0022,0.0085,0.17,0.66,-104.92,0,0.000,-0.143,-0.120,-0.124,0.000,0.000,0.000,0.000,0.000,0.000
0,0.1533,-0.4024,0.0092,-0.0066,0.0022,0.0085,0.14,0.65,-104.83,0,0.000,0.028,-0.166,-0.248,0.000,0.000,0.000,0.000,0.000,0.000
0,0.1527,-0.4023,0.0087,-0.0094,0.0028,0.0055,0.15,0.65,-104.74,0,0.000,0.429,0.048,-0.073,0.000,0.000,0.000,0.000,0.000,0.000
0,0.1526,-0.4022,0.0088,-0.0095,0.0027,0.0053,0.15,0.66,-104.65,0,0.000,-0.007,0.186,0.017,0.000,0.000,0.000,0.000,0.000,0.000
0,0.1530,-0.4026,0.0089,-0.0069,0.0007,0.0055,0.16,0.63,-104.56,0,0.000,0.076,-0.258,0.091,0.000,0.000,0.000,0.000,0.000,0.000
0,0.1525,-0.4024,0.0089,-0.0087,0.0012,0.0056,0.18,0.66,-104.47,0,0.000,-0.233,-0.189,0.026,0.000,0.000,0.000,0.000,0.000,0.000
0,0.1526,-0.4022,0.0090,-0.0078,0.0023,0.0055,0.10,0.65,-104.38,0,0.000,0.069,0.025,0.260,0.000,0.000,0.000,0.000,0.000,0.000
0,0.1520,-0.4028,0.0090,-0.0104,-0.0007,0.0055,0.24,0.66,-104.29,0,0.000,-0.021,0.299,-0.028,0.000,0.000,0.000,0.000,0.000,0.000
0,0.1517,-0.4020,0.0082,-0.0111,0.0034,0.0013,0.11,0.65,-104.20,0,0.000,0.192,0.063,-0.123,0.000,0.000,0.000,0.000,0.000,0.000
0,0.1532,-0.4028,0.0082,-0.0029,-0.0013,0.0014,0.10,0.67,-104.11,0,0.000,-0.358,-0.077,-0.073,0.000,0.000,0.000,0.000,0.000,0.000
0,0.1501,-0.4016,0.0082,-0.0191,0.0052,0.0013,0.10,0.64,-104.02,0,0.000,-0.076,0.329,0.081,0.000,0.000,0.000,0.000,0.000,0.000
0,0.1529,-0.4025,0.0084,-0.0034,-0.0000,0.0021,0.23,0.66,-103.93,0,0.000,0.086,-0.002,-0.187,0.000,0.000,0.000,0.000,0.000,0.000
0,0.1532,-0.4021,0.0082,-0.0011,0.0019,0.0016,0.03,0.66,-103.84,0,0.000,-0.045,0.296,0.042,0.000,0.000,0.000,0.000,0.000,0.000
0,0.1530,-0.4028,0.0083,-0.0016,-0.0018,0.0017,0.16,0.67,-103.75,0,0.000,-0.472,-0.253,-0.144,0.000,0.000,0.000,0.000,0.000,0.000
0,0.1501,-0.4016,0.0083,-0.0163,0.0043,0.0017,0.16,0.67,-103.66,0,0.000,0.167,0.178,0.028,0.000,0.000,0.000,0.000,0.000,0.000
0,0.1545,-0.4027,0.0084,0.0073,-0.0015,0.0024,0.14,0.63,-103.57,0,0.000,-0.084,0.115,-0.267,0.000,0.000,0.000,0.000,0.000,0.000
0,0.1515,-0.4017,0.0085,-0.0084,0.0034,0.0027,0.16,0.66,-103.48,0,0.000,-0.118,0.102,0.003,0.000,0.000,0.000,0.000,0.000,0.000
0,0.1514,-0.4017,0.0085,-0.0084,0.0034,0.0026,0.16,0.66,-103.39,0,0.000,-0.060,-0.014,0.271,0.000,0.000,0.000,0.000,0.000,0.000
0,0.1514,-0.4027,0.0088,-0.0078,-0.0019,0.0036,0.09,0.66,-103.30,0,0.000,-0.135,0.219,-0.049,0.000,0.000,0.000,0.000,0.000,0.000
0,0.1512,-0.4019,0.0088,-0.0087,0.0020,0.0035,0.06,0.65,-103.21,0,0.000,-0.248,0.273,-0.073,0.000,0.000,0.000,0.000,0.000,0.000
0,0.1511,-0.4019,0.0088,-0.0086,0.0020,0.0035,0.20,0.67,-103.12,0,0.000,0.032,-0.075,-0.305,0.000,0.000,0.000,0.000,0.000,0.000
0,0.1525,-0.4022,0.0089,-0.0007,0.0002,0.0036,0.02,0.67,-103.04,0,0.000,0.078,0.034,-0.208,0.000,0.000,0.000,0.000,0.000,0.000
0,0.1531,-0.4026,0.0098,0.0029,-0.0021,0.0080,0.02,0.67,-102.95,0,0.000,0.125,-0.103,-0.218,0.000,0.000,0.000,0.000,0.000,0.000
0,0.1500,-0.4014,0.0099,-0.0134,0.0041,0.0084,0.05,0.67,-102.86,0,0.000,0.100,0.002,0.042,0.000,0.000,0.000,0.000,0.000,0.000
0,0.1539,-0.4023,0.0101,0.0079,-0.0009,0.0092,0.08,0.60,-102.77,0,0.000,0.056,-0.046,0.072,0.000,0.000,0.000,0.000,0.000,0.000
0,0.1540,-0.4023,0.0102,0.0083,-0.0009,0.0092,0.28,0.62,-102.68,0,0.000,-0.221,0.110,-0.060,0.000,0.000,0.000,0.000,0.000,0.000
0,0.1535,-0.4022,0.0103,0.0056,-0.0003,0.0092,0.37,0.59,-102.59,0,0.000,0.095,-0.045,0.147,0.000,0.000,0.000,0.000,0.000,0.000
0,0.1524,-0.4037,0.0104,-0.0000,-0.0082,0.0093,0.35,0.61,-102.50,0,0.000,0.061,0.216,-0.315,0.000,0.000,0.000,0.000,0.000,0.000
0,0.1478,-0.4021,0.0112,-0.0238,0.0001,0.0131,0.38,0.60,-102.41,0,0.000,0.012,-0.097,-0.047,0.000,0.000,0.000,0.000,0.000,0.000
0,0.1451,-0.4023,0.0113,-0.0368,-0.0006,0.0125,0.36,0.62,-102.33,0,0.000,0.184,-0.304,0.106,0.000,0.000,0.000,0.000,0.000,0.000
0,0.1451,-0.4020,0.0114,-0.0348,0.0006,0.0128,0.29,0.60,-102.24,0,0.000,-0.210,-0.347,-0.127,0.000,0.000,0.000,0.000,0.000,0.000
0,0.1442,-0.4020,0.0115,-0.0381,0.0003,0.0127,0.33,0.62,-102.15,0,0.000,-0.154,0.096,-0.005,0.000,0.000,0.000,0.000,0.000,0.000
0,0.1443,-0.4016,0.0123,-0.0357,0.0028,0.0161,0.27,0.63,-102.06,0,0.000,-0.366,0.182,-0.046,0.000,0.000,0.000,0.000,0.000,0.000
0,0.1456,-0.4026,0.0125,-0.0272,-0.0026,0.0166,0.23,0.62,-101.97,0,0.000,0.103,0.033,0.290,0.000,0.000,0.000,0.000,0.000,0.000
0,0.1444,-0.4018,0.0127,-0.0325,0.0015,0.0165,0.18,0.65,-101.88,0,0.000,-0.052,-0.155,-0.007,0.000,0.000,0.000,0.000,0.000,0.000
0,0.1454,-0.4020,0.0129,-0.0261,0.0004,0.0171,0.20,0.58,-101.79,0,0.000,-0.115,0.209,0.010,0.000,0.000,0.000,0.000,0.000,0.000
0,0.1460,-0.4024,0.0131,-0.0217,-0.0016,0.0174,0.24,0.62,-101.70,0,0.000,-0.028,-0.099,0.291,0.000,0.000,0.000,0.000,0.000,0.000
0,0.1473,-0.4019,0.0133,-0.0139,0.0008,0.0178,0.19,0.62,-101.61,0,0.000,-0.081,0.002,-0.216,0.000,0.000,0.000,0.000,0.000,0.000
0,0.1463,-0.4036,0.0111,-0.0182,-0.0079,0.0054,0.19,0.63,-101.52,0,0.000,-0.082,-0.041,0.133,0.000,0.000,0.000,0.000,0.000,0.000
0,0.1452,-0.4024,0.0111,-0.0232,-0.0013,0.0053,0.21,0.64,-101.43,0,0.000,-0.272,-0.032,-0.014,0.000,0.000,0.000,0.000,0.000,0.000
0,0.1461,-0.4026,0.0112,-0.0173,-0.0022,0.0055,0.23,0.64,-101.34,0,0.000,-0.125,0.152,0.075,0.000,0.000,0.000,0.000,0.000,0.000
0,0.1462,-0.4024,0.0113,-0.0163,-0.0011,0.0055,0.19,0.64,-101.26,0,0.000,-0.180,-0.227,-0.005,0.000,0.000,0.000,0.000,0.000,0.000
0,0.1454,-0.4020,0.0104,-0.0198,0.0009,0.0006,0.17,0.64,-101.17,0,0.000,-0.040,0.410,0.307,0.000,0.000,0.000,0.000,0.000,0.000
0,0.1447,-0.4021,0.0103,-0.0225,0.0003,0.0005,0.16,0.67,-101.08,0,0.000,-0.270,-0.140,-0.007,0.000,0.000,0.000,0.000,0.000,0.000
0,0.1454,-0.4022,0.0104,-0.0180,-0.0005,0.0008,0.12,0.59,-100.99,0,0.000,0.032,-0.241,-0.206,0.000,0.000,0.000,0.000,0.000,0.000
0,0.1456,-0.4022,0.0104,-0.0158,-0.0005,0.0011,0.15,0.64,-100.90,0,0.000,0.125,-0.176,0.026,0.000,0.000,0.000,0.000,0.000,0.000
0,0.1458,-0.4016,0.0104,-0.0141,0.0031,0.0013,0.18,0.65,-100.81,0,0.000,-0.110,-0.379,0.203,0.000,0.000,0.000,0.000,0.000,0.000
0,0.1463,-0.4035,0.0104,-0.0105,-0.0071,0.0014,0.17,0.66,-100.72,0,0.000,-0.149,0.440,0.020,0.000,0.000,0.000,0.000,0.000,0.000
0,0.1456,-0.4022,0.0107,-0.0134,-0.0004,0.0028,0.14,0.66,-100.63,0,0.000,0.028,-0.131,-0.161,0.000,0.000,0.000,0.000,0.000,0.000
0,0.1448,-0.4020,0.0107,-0.0172,0.0006,0.0028,0.09,0.65,-100.55,0,0.000,-0.216,-0.032,0.370,0.000,0.000,0.000,0.000,0.000,0.000
0,0.1448,-0.4018,0.0108,-0.0161,0.0015,0.0027,0.15,0.66,-100.46,0,0.000,0.022,0.053,0.062,0.000,0.000,0.000,0.000,0.000,0.000
0,0.1453,-0.4019,0.0108,-0.0130,0.0009,0.0026,0.11,0.68,-100.37,0,0.000,-0.068,-0.289,0.198,0.000,0.000,0.000,0.000,0.000,0.000
0,0.1463,-0.4023,0.0097,-0.0068,-0.0012,-0.0033,0.13,0.67,-100.28,0,0.000,-0.107,-0.073,0.030,0.000,0.000,0.000,0.000,0.000,0.000
0,0.1449,-0.4018,0.0096,-0.0140,0.0014,-0.0033,0.12,0.68,-100.19,0,0.000,-0.213,0.331,0.008,0.000,0.000,0.000,0.000,0.000,0.000
0,0.1456,-0.4015,0.0096,-0.0095,0.0031,-0.0032,0.05,0.64,-100.10,0,0.000,-0.179,0.179,0.152,0.000,0.000,0.000,0.000,0.000,0.000
0,0.1449,-0.4016,0.0096,-0.0122,0.0024,-0.0031,0.12,0.67,-100.02,0,0.000,-0.054,0.112,-0.191,0.000,0.000,0.000,0.000,0.000,0.000
0,0.1452,-0.4015,0.0095,-0.0102,0.0030,-0.0031,0.11,0.65,-99.93,0,0.000,0.109,0.184,-0.360,0.000,0.000,0.000,0.000,0.000,0.000
0,0.1465,-0.4026,0.0095,-0.0023,-0.0030,-0.0030,0.04,0.66,-99.84,0,0.000,-0.121,-0.083,-0.086,0.000,0.000,0.000,0.000,0.000,0.000
0,0.1450,-0.4014,0.0093,-0.0100,0.0032,-0.0042,0.08,0.64,-99.75,0,0.000,0.065,0.095,0.029,0.000,0.000,0.000,0.000,0.000,0.000
0,0.1449,-0.4021,0.0092,-0.0099,-0.0002,-0.0040,0.07,0.67,-99.67,0,0.000,-0.151,0.015,-0.141,0.000,0.000,0.000,0.000,0.000,0.000
0,0.1464,-0.4021,0.0092,-0.0013,-0.0003,-0.0038,0.10,0.60,-99.58,0,0.000,-0.103,-0.514,0.290,0.000,0.000,0.000,0.000,0.000,0.000
0,0.1455,-0.4022,0.0092,-0.0056,-0.0006,-0.0037,0.09,0.65,-99.49,0,0.000,-0.434,0.305,0.425,0.000,0.000,0.000,0.000,0.000,0.000
0,0.1456,-0.4015,0.0087,-0.0045,0.0028,-0.0060,0.05,0.64,-99.40,0,0.000,-0.142,-0.211,0.243,0.000,0.000,0.000,0.000,0.000,0.000
0,0.1447,-0.4031,0.0086,-0.0089,-0.0057,-0.0060,0.09,0.64,-99.32,0,0.000,-0.134,0.140,0.012,0.000,0.000,0.000,0.000,0.000,0.000
0,0.1449,-0.4021,0.0086,-0.0074,0.0002,-0.0058,0.08,0.60,-99.23,0,0.000,-0.078,-0.277,-0.242,0.000,0.000,0.000,0.000,0.000,0.000
0,0.1457,-0.4024,0.0085,-0.0025,-0.0016,-0.0058,0.03,0.67,-99.14,0,0.000,-0.008,-0.102,-0.050,0.000,0.000,0.000,0.000,0.000,0.000
0,0.1449,-0.4023,0.0084,-0.0066,-0.0010,-0.0059,0.00,0.65,-99.05,0,0.000,-0.210,-0.070,0.203,0.000,0.000,0.000,0.000,0.000,0.000
0,0.1448,-0.4031,0.0084,-0.0067,-0.0055,-0.0060,0.00,0.65,-98.96,0,0.000,-0.223,-0.056,-0.138,0.000,0.000,0.000,0.000,0.000,0.000
0,0.1461,-0.4016,0.0086,0.0008,0.0027,-0.0045,0.06,0.64,-98.88,0,0.000,0.158,0.007,0.097,0.000,0.000,0.000,0.000,0.000,0.000
0,0.1466,-0.4023,0.0086,0.0038,-0.0014,-0.0044,-0.00,0.63,-98.79,0,0.000,0.004,-0.212,-0.370,0.000,0.000,0.000,0.000,0.000,0.000
0,0.1466,-0.4024,0.0085,0.0042,-0.0015,-0.0044,-0.00,0.63,-98.71,0,0.000,0.077,0.362,0.072,0.000,0.000,0.000,0.000,0.000,0.000
0,0.1453,-0.4024,0.0085,-0.0030,-0.0016,-0.0043,0.06,0.68,-98.62,0,0.000,-0.206,-0.264,-0.181,0.000,0.000,0.000,0.000,0.000,0.000
0,0.1466,-0.4028,0.0083,0.0041,-0.0040,-0.0055,0.04,0.65,-98.53,0,0.000,-0.169,-0.236,0.050,0.000,0.000,0.000,0.000,0.000,0.000
0,0.1466,-0.4028,0.0082,0.0045,-0.0044,-0.0057,0.04,0.66,-98.44,0,0.000,-0.025,0.333,0.213,0.000,0.000,0.000,0.000,0.000,0.000
0,0.1454,-0.4015,0.0082,-0.0018,0.0030,-0.0057,0.04,0.61,-98.35,0,0.000,0.589,0.322,-0.244,0.000,0.000,0.000,0.000,0.000,0.000
0,0.1458,-0.4022,0.0081,0.0005,-0.0012,-0.0056,0.03,0.68,-98.27,0,0.000,0.186,-0.027,0.037,0.000,0.000,0.000,0.000,0.000,0.000
0,0.1456,-0.4020,0.0081,-0.0003,0.0003,-0.0054,0.04,0.68,-98.19,0,0.000,-0.151,0.073,-0.204,0.000,0.000,0.000,0.000,0.000,0.000
0,0.1454,-0.4031,0.0080,-0.0010,-0.0060,-0.0051,0.04,0.68,-98.10,0,0.000,-0.102,0.312,-0.082,0.000,0.000,0.000,0.000,0.000,0.000
0,0.1461,-0.4016,0.0084,0.0030,0.0024,-0.0023,-0.00,0.63,-98.01,0,0.000,-0.167,0.175,0.229,0.000,0.000,0.000,0.000,0.000,0.000
0,0.1459,-0.4016,0.0084,0.0019,0.0025,-0.0018,0.03,0.63,-97.93,0,0.000,0.040,0.330,-0.292,0.000,0.000,0.000,0.000,0.000,0.000
0,0.1459,-0.4015,0.0084,0.0021,0.0026,-0.0016,0.06,0.67,-97.84,0,0.000,-0.028,0.290,-0.122,0.000,0.000,0.000,0.000,0.000,0.000
0,0.1467,-0.4026,0.0084,0.0064,-0.0033,-0.0015,0.06,0.66,-97.76,0,0.000,0.020,0.066,-0.147,0.000,0.000,0.000,0.000,0.000,0.000
1,0.1460,-0.4025,0.0086,0.0026,-0.0028,-0.0002,0.05,0.65,-97.67,0,0.000,0.031,0.012,0.090,0.000,0.000,0.000,0.000,0.000,0.000
1,0.1454,-0.4015,0.0086,-0.0001,0.0027,-0.0002,0.03,0.64,-97.58,0,0.000,0.143,0.211,-0.076,0.000,0.000,0.000,0.000,0.000,0.000
1,0.1454,-0.4017,0.0086,0.0000,0.0013,-0.0001,0.06,0.59,-97.50,0,0.000,-0.070,0.123,0.097,0.000,0.000,0.000,0.000,0.000,0.000
1,0.1454,-0.4017,0.0086,0.0002,0.0012,-0.0002,-0.01,0.62,-97.41,0,0.000,-0.234,0.019,-0.182,0.000,0.000,0.000,0.000,0.000,0.000
1,0.1458,-0.4020,0.0086,0.0027,-0.0004,-0.0000,0.04,0.66,-97.33,0,0.000,-0.208,0.259,-0.105,0.000,0.000,0.000,0.000,0.000,0.000
1,0.1452,-0.4032,0.0086,-0.0005,-0.0063,-0.0001,0.03,0.65,-97.24,0,0.000,-0.084,-0.390,-0.040,0.000,0.000,0.000,0.000,0.000,0.000
1,0.1467,-0.4026,0.0074,0.0077,-0.0034,-0.0065,0.03,0.66,-97.15,0,0.000,-0.149,-0.117,0.162,0.000,0.000,0.000,0.000,0.000,0.000
1,0.1456,-0.4015,0.0074,0.0021,0.0024,-0.0064,0.07,0.65,-97.07,0,0.000,-0.109,-0.126,0.239,0.000,0.000,0.000,0.000,0.000,0.000
1,0.1459,-0.4018,0.0073,0.0034,0.0010,-0.0063,0.04,0.63,-96.98,0,0.000,-0.089,-0.033,0.071,0.000,0.000,0.000,0.000,0.000,0.000
1,0.1459,-0.4016,0.0073,0.0036,0.0020,-0.0063,0.02,0.64,-96.89,0,0.000,0.015,-0.074,0.068,0.000,0.000,0.000,0.000,0.000,0.000
1,0.1449,-0.4017,0.0092,-0.0012,0.0011,0.0040,0.07,0.63,-96.81,0,0.000,-0.133,0.017,-0.052,0.000,0.000,0.000,0.000,0.000,0.000
1,0.1456,-0.4022,0.0092,0.0024,-0.0019,0.0041,0.00,0.63,-96.72,0,0.000,0.165,-0.080,-0.061,0.000,0.000,0.000,0.000,0.000,0.000
1,0.1461,-0.4020,0.0093,0.0051,-0.0008,0.0041,0.07,0.58,-96.64,0,0.000,0.201,0.031,-0.127,0.000,0.000,0.000,0.000,0.000,0.000
1,0.1449,-0.4021,0.0093,-0.0009,-0.0011,0.0042,0.02,0.65,-96.55,0,0.000,0.026,0.122,-0.031,0.000,0.000,0.000,0.000,0.000,0.000
1,0.1465,-0.4021,0.0094,0.0075,-0.0010,0.0042,-0.00,0.64,-96.47,0,0.000,-0.013,-0.162,0.078,0.000,0.000,0.000,0.000,0.000,0.000
1,0.1448,-0.4033,0.0095,-0.0016,-0.0072,0.0043,0.00,0.62,-96.38,0,0.000,0.057,-0.219,0.145,0.000,0.000,0.000,0.000,0.000,0.000
1,0.1463,-0.4016,0.0111,0.0070,0.0015,0.0126,0.06,0.65,-96.29,0,0.000,-0.140,-0.177,-0.046,0.000,0.000,0.000,0.000,0.000,0.000
1,0.1468,-0.4019,0.0113,0.0093,0.0000,0.0124,0.04,0.64,-96.21,0,0.000,0.244,0.223,0.050,0.000,0.000,0.000,0.000,0.000,0.000
1,0.1467,-0.4023,0.0114,0.0087,-0.0021,0.0124,-0.01,0.65,-96.12,0,0.000,0.026,0.235,-0.195,0.000,0.000,0.000,0.000,0.000,0.000
1,0.1454,-0.4015,0.0115,0.0020,0.0021,0.0125,0.06,0.62,-96.04,0,0.000,-0.193,-0.138,0.040,0.000,0.000,0.000,0.000,0.000,0.000
1,0.1458,-0.4018,0.0093,0.0041,0.0004,0.0008,0.06,0.62,-95.95,0,0.000,0.107,-0.005,-0.051,0.000,0.000,0.000,0.000,0.000,0.000
1,0.1472,-0.4017,0.0093,0.0110,0.0006,0.0006,0.01,0.62,-95.87,0,0.000,-0.092,0.207,0.482,0.000,0.000,0.000,0.000,0.000,0.000
1,0.1453,-0.4022,0.0094,0.0012,-0.0020,0.0006,0.03,0.61,-95.78,0,0.000,0.115,-0.057,-0.017,0.000,0.000,0.000,0.000,0.000,0.000
1,0.1454,-0.4022,0.0094,0.0016,-0.0019,0.0005,0.03,0.65,-95.70,0,0.000,-0.103,-0.047,-0.052,0.000,0.000,0.000,0.000,0.000,0.000
1,0.1467,-0.4023,0.0094,0.0090,-0.0027,0.0003,0.07,0.65,-95.62,0,0.000,0.125,-0.029,-0.026,0.000,0.000,0.000,0.000,0.000,0.000
1,0.1462,-0.4025,0.0094,0.0061,-0.0037,0.0003,0.07,0.65,-95.53,0,0.000,-0.151,-0.090,0.369,0.000,0.000,0.000,0.000,0.000,0.000
1,0.1463,-0.4016,0.0092,0.0064,0.0011,-0.0008,0.05,0.62,-95.44,0,0.000,-0.106,-0.074,0.169,0.000,0.000,0.000,0.000,0.000,0.000
2,0.1454,-0.4015,0.0092,0.0014,0.0014,-0.0008,0.05,0.61,-95.36,0,0.000,0.208,-0.025,0.279,0.000,0.000,0.000,0.000,0.000,0.000
2,0.1454,-0.4015,0.0092,0.0015,0.0013,-0.0009,0.02,0.65,-95.27,0,0.000,0.125,-0.181,-0.082,0.000,0.000,0.000,0.000,0.000,0.000
2,0.1458,-0.4023,0.0092,0.0038,-0.0027,-0.0010,0.07,0.63,-95.19,0,0.000,-0.103,-0.275,0.030,0.000,0.000,0.000,0.000,0.000,0.000
2,0.1458,-0.4025,0.0083,0.0036,-0.0037,-0.0057,0.06,0.63,-95.10,0,0.000,0.120,0.045,0.038,0.000,0.000,0.000,0.000,0.000,0.000
2,0.1468,-0.4016,0.0082,0.0089,0.0011,-0.0058,0.05,0.63,-95.02,0,0.000,-0.317,-0.231,0.090,0.000,0.000,0.000,0.000,0.000,0.000
2,0.1456,-0.4020,0.0082,0.0024,-0.0008,-0.0057,0.03,0.58,-94.93,0,0.000,0.036,-0.007,-0.202,0.000,0.000,0.000,0.000,0.000,0.000
2,0.1458,-0.4020,0.0081,0.0035,-0.0010,-0.0056,0.02,0.67,-94.85,0,0.000,0.041,0.108,0.137,0.000,0.000,0.000,0.000,0.000,0.000
2,0.1461,-0.4020,0.0081,0.0045,-0.0013,-0.0055,0.07,0.65,-94.76,0,0.000,-0.323,-0.005,0.178,0.000,0.000,0.000,0.000,0.000,0.000
2,0.1464,-0.4035,0.0080,0.0061,-0.0088,-0.0054,0.07,0.64,-94.68,0,0.000,-0.007,-0.025,0.043,0.000,0.000,0.000,0.000,0.000,0.000
2,0.1468,-0.4014,0.0075,0.0081,0.0022,-0.0076,0.06,0.63,-94.60,0,0.000,0.054,-0.155,-0.182,0.000,0.000,0.000,0.000,0.000,0.000
2,0.1456,-0.4018,0.0074,0.0014,0.0001,-0.0075,0.05,0.63,-94.51,0,0.000,-0.218,0.114,0.328,0.000,0.000,0.000,0.000,0.000,0.000
2,0.1456,-0.4020,0.0074,0.0013,-0.0011,-0.0075,0.03,0.63,-94.43,0,0.000,-0.051,0.035,-0.018,0.000,0.000,0.000,0.000,0.000,0.000
2,0.1458,-0.4023,0.0073,0.0025,-0.0023,-0.0074,0.06,0.63,-94.34,0,0.000,0.020,-0.040,0.005,0.000,0.000,0.000,0.000,0.000,0.000
2,0.1460,-0.4023,0.0079,0.0037,-0.0022,-0.0036,0.06,0.63,-94.26,0,0.000,0.033,-0.014,-0.153,0.000,0.000,0.000,0.000,0.000,0.000
2,0.1465,-0.4023,0.0079,0.0060,-0.0024,-0.0036,0.10,0.63,-94.17,0,0.000,-0.167,-0.316,-0.161,0.000,0.000,0.000,0.000,0.000,0.000
2,0.1458,-0.4022,0.0079,0.0023,-0.0023,-0.0034,0.04,0.66,-94.09,0,0.000,0.076,-0.401,0.030,0.000,0.000,0.000,0.000,0.000,0.000
2,0.1458,-0.4023,0.0078,0.0026,-0.0023,-0.0034,0.11,0.62,-94.01,0,0.000,-0.045,0.111,0.102,0.000,0.000,0.000,0.000,0.000,0.000
2,0.1449,-0.4022,0.0078,-0.0024,-0.0019,-0.0032,-0.10,0.67,-93.92,0,0.000,-0.092,-0.183,-0.253,0.000,0.000,0.000,0.000,0.000,0.000
2,0.1464,-0.4016,0.0078,0.0054,0.0014,-0.0030,-0.12,0.63,-93.84,0,0.000,0.010,-0.089,-0.000,0.000,0.000,0.000,0.000,0.000,0.000
2,0.1447,-0.4026,0.0102,-0.0035,-0.0041,0.0095,-0.00,0.65,-93.76,0,0.000,-0.178,0.040,0.166,0.000,0.000,0.000,0.000,0.000,0.000
2,0.1498,-0.4018,0.0103,0.0235,0.0002,0.0097,-0.07,0.64,-93.68,0,0.000,-0.053,0.001,-0.068,0.000,0.000,0.000,0.000,0.000,0.000
2,0.1504,-0.4028,0.0104,0.0260,-0.0049,0.0100,-0.09,0.64,-93.59,0,0.000,-0.416,0.001,0.140,0.000,0.000,0.000,0.000,0.000,0.000
2,0.1479,-0.4021,0.0106,0.0123,-0.0012,0.0111,-0.10,0.67,-93.51,0,0.000,-0.014,-0.258,0.164,0.000,0.000,0.000,0.000,0.000,0.000
2,0.1494,-0.4025,0.0100,0.0200,-0.0027,0.0073,0.05,0.71,-93.43,0,0.000,-0.339,-0.030,0.046,0.000,0.000,0.000,0.000,0.000,0.000
2,0.1503,-0.4025,0.0101,0.0241,-0.0029,0.0070,0.02,0.63,-93.34,0,0.000,0.050,0.248,0.094,0.000,0.000,0.000,0.000,0.000,0.000
2,0.1506,-0.4019,0.0102,0.0246,0.0008,0.0069,-0.03,0.62,-93.25,0,0.000,0.049,-0.043,-0.015,0.000,0.000,0.000,0.000,0.000,0.000
2,0.1473,-0.4008,0.0104,0.0068,0.0064,0.0076,0.02,0.71,-93.17,0,0.000,-0.188,-0.167,0.037,0.000,0.000,0.000,0.000,0.000,0.000
3,0.1480,-0.4026,0.0105,0.0109,-0.0035,0.0079,-0.06,0.64,-93.09,0,0.000,-0.079,-0.346,-0.228,0.000,0.000,0.000,0.000,0.000,0.000
3,0.1494,-0.4029,0.0105,0.0174,-0.0050,0.0079,-0.06,0.71,-93.01,0,0.000,0.095,0.135,-0.088,0.000,0.000,0.000,0.000,0.000,0.000
3,0.1483,-0.4008,0.0099,0.0116,0.0058,0.0045,0.09,0.66,-92.92,0,0.000,0.236,-0.165,-0.016,0.000,0.000,0.000,0.000,0.000,0.000
3,0.1502,-0.4025,0.0100,0.0211,-0.0031,0.0043,0.07,0.66,-92.84,0,0.000,-0.097,0.195,0.032,0.000,0.000,0.000,0.000,0.000,0.000
3,0.1505,-0.4010,0.0100,0.0218,0.0050,0.0044,-0.04,0.66,-92.76,0,0.000,-0.303,0.184,0.194,0.000,0.000,0.000,0.000,0.000,0.000
3,0.1469,-0.4019,0.0102,0.0024,0.0000,0.0054,0.05,0.70,-92.67,0,0.000,0.296,0.036,-0.196,0.000,0.000,0.000,0.000,0.000,0.000
3,0.1476,-0.4019,0.0098,0.0058,0.0000,0.0029,0.14,0.68,-92.59,0,0.000,-0.000,0.133,0.026,0.000,0.000,0.000,0.000,0.000,0.000
3,0.1502,-0.4020,0.0098,0.0194,-0.0006,0.0028,0.14,0.67,-92.51,0,0.000,-0.139,-0.177,0.235,0.000,0.000,0.000,0.000,0.000,0.000
3,0.1483,-0.4009,0.0099,0.0089,0.0057,0.0030,0.16,0.64,-92.42,0,0.000,-0.276,0.106,-0.079,0.000,0.000,0.000,0.000,0.000,0.000
3,0.1461,-0.4012,0.0099,-0.0027,0.0037,0.0028,0.17,0.67,-92.34,0,0.000,-0.120,0.175,0.076,0.000,0.000,0.000,0.000,0.000,0.000
3,0.1461,-0.4014,0.0099,-0.0025,0.0026,0.0026,0.18,0.66,-92.26,0,0.000,0.179,0.006,-0.122,0.000,0.000,0.000,0.000,0.000,0.000
3,0.1456,-0.4021,0.0100,-0.0048,-0.0010,0.0027,0.10,0.66,-92.18,0,0.000,-0.080,0.358,0.083,0.000,0.000,0.000,0.000,0.000,0.000
3,0.1452,-0.4012,0.0091,-0.0066,0.0035,-0.0017,0.11,0.65,-92.09,0,0.000,0.239,-0.143,-0.176,0.000,0.000,0.000,0.000,0.000,0.000
3,0.1450,-0.4014,0.0091,-0.0073,0.0021,-0.0016,0.13,0.65,-92.01,0,0.000,0.133,-0.255,-0.138,0.000,0.000,0.000,0.000,0.000,0.000
3,0.1467,-0.4015,0.0091,0.0021,0.0015,-0.0014,0.08,0.63,-91.93,0,0.000,-0.011,-0.128,0.058,0.000,0.000,0.000,0.000,0.000,0.000
3,0.1465,-0.4017,0.0091,0.0010,0.0004,-0.0012,0.17,0.65,-91.85,0,0.000,0.115,-0.039,-0.065,0.000,0.000,0.000,0.000,0.000,0.000
3,0.1461,-0.4017,0.0082,-0.0011,0.0005,-0.0054,0.10,0.65,-91.76,0,0.000,-0.245,0.108,0.082,0.000,0.000,0.000,0.000,0.000,0.000
3,0.1471,-0.4021,0.0082,0.0049,-0.0019,-0.0053,0.10,0.67,-91.68,0,0.000,-0.221,0.231,-0.018,0.000,0.000,0.000,0.000,0.000,0.000
3,0.1450,-0.4016,0.0081,-0.0063,0.0008,-0.0051,0.17,0.62,-91.60,0,0.000,-0.268,-0.066,0.020,0.000,0.000,0.000,0.000,0.000,0.000
3,0.1467,-0.4017,0.0081,0.0030,0.0005,-0.0049,0.11,0.67,-91.51,0,0.000,0.041,-0.085,-0.098,0.000,0.000,0.000,0.000,0.000,0.000
3,0.1467,-0.4013,0.0080,0.0030,0.0026,-0.0050,0.09,0.66,-91.43,0,0.000,0.262,0.075,-0.170,0.000,0.000,0.000,0.000,0.000,0.000
3,0.1450,-0.4023,0.0080,-0.0061,-0.0032,-0.0049,0.09,0.66,-91.35,0,0.000,0.025,-0.049,-0.139,0.000,0.000,0.000,0.000,0.000,0.000
3,0.1463,-0.4013,0.0071,0.0012,0.0025,-0.0092,0.09,0.66,-91.27,0,0.000,-0.222,0.089,-0.105,0.000,0.000,0.000,0.000,0.000,0.000
3,0.1467,-0.4015,0.0070,0.0034,0.0012,-0.0091,0.09,0.66,-91.19,0,0.000,0.071,0.001,-0.361,0.000,0.000,0.000,0.000,0.000,0.000
3,0.1467,-0.4013,0.0069,0.0035,0.0022,-0.0091,0.09,0.64,-91.11,0,0.000,0.008,0.002,-0.107,0.000,0.000,0.000,0.000,0.000,0.000
3,0.1468,-0.4013,0.0068,0.0037,0.0022,-0.0090,0.09,0.64,-91.02,0,0.000,0.019,-0.283,-0.284,0.000,0.000,0.000,0.000,0.000,0.000
3,0.1468,-0.4012,0.0076,0.0036,0.0021,-0.0042,0.09,0.66,-90.94,0,0.000,0.014,0.217,0.041,0.000,0.000,0.000,0.000,0.000,0.000
3,0.1468,-0.4017,0.0076,0.0033,-0.0008,-0.0042,0.09,0.65,-90.86,0,0.000,0.049,0.013,0.316,0.000,0.000,0.000,0.000,0.000,0.000
3,0.1468,-0.4017,0.0075,0.0035,-0.0011,-0.0040,0.14,0.61,-90.78,0,0.000,-0.219,0.051,0.286,0.000,0.000,0.000,0.000,0.000,0.000
3,0.1468,-0.4012,0.0075,0.0037,0.0017,-0.0038,0.13,0.70,-90.70,0,0.000,0.177,0.002,-0.008,0.000,0.000,0.000,0.000,0.000,0.000
3,0.1468,-0.4015,0.0075,0.0036,0.0005,-0.0035,0.05,0.66,-90.61,0,0.000,-0.025,0.127,-0.309,0.000,0.000,0.000,0.000,0.000,0.000
3,0.1459,-0.4024,0.0075,-0.0018,-0.0046,-0.0034,0.09,0.65,-90.54,0,0.000,-0.080,0.003,-0.016,0.000,0.000,0.000,0.000,0.000,0.000
3,0.1459,-0.4003,0.0081,-0.0017,0.0070,0.0004,0.08,0.64,-90.45,0,0.000,-0.253,0.063,0.077,0.000,0.000,0.000,0.000,0.000,0.000
3,0.1477,-0.4013,0.0082,0.0084,0.0014,0.0007,0.12,0.65,-90.37,0,0.000,0.044,-0.059,-0.161,0.000,0.000,0.000,0.000,0.000,0.000
3,0.1470,-0.4015,0.0082,0.0044,0.0000,0.0009,0.11,0.65,-90.29,0,0.000,0.020,0.418,0.108,0.000,0.000,0.000,0.000,0.000,0.000
3,0.1471,-0.4015,0.0082,0.0046,-0.0001,0.0008,0.05,0.65,-90.21,0,0.000,-0.148,-0.277,0.037,0.000,0.000,0.000,0.000,0.000,0.000
3,0.1461,-0.4012,0.0081,-0.0005,0.0011,0.0004,0.10,0.64,-90.13,0,0.000,-0.262,0.191,0.403,0.000,0.000,0.000,0.000,0.000,0.000
3,0.1463,-0.4012,0.0081,0.0008,0.0010,0.0005,0.06,0.64,-90.04,0,0.000,0.013,0.179,0.012,0.000,0.000,0.000,0.000,0.000,0.000
3,0.1477,-0.4012,0.0081,0.0083,0.0009,0.0005,0.06,0.64,-89.96,0,0.000,0.093,0.088,0.236,0.000,0.000,0.000,0.000,0.000,0.000
3,0.1468,-0.4015,0.0082,0.0031,-0.0005,0.0008,0.08,0.65,-89.88,0,0.000,-0.282,0.224,0.107,0.000,0.000,0.000,0.000,0.000,0.000
3,0.1477,-0.4015,0.0082,0.0079,-0.0003,0.0010,0.11,0.65,-89.80,0,0.000,0.018,-0.261,0.186,0.000,0.000,0.000,0.000,0.000,0.000
3,0.1478,-0.4015,0.0082,0.0082,-0.0002,0.0011,0.10,0.65,-89.72,0,0.000,-0.017,-0.064,0.006,0.000,0.000,0.000,0.000,0.000,0.000
3,0.1473,-0.4013,0.0072,0.0055,0.0010,-0.0039,0.09,0.65,-89.64,0,0.000,-0.160,0.094,0.388,0.000,0.000,0.000,0.000,0.000,0.000
4,0.1466,-0.4013,0.0072,0.0015,0.0011,-0.0040,0.09,0.64,-89.56,0,0.000,-0.065,0.118,0.376,0.000,0.000,0.000,0.000,0.000,0.000
4,0.1468,-0.4013,0.0072,0.0028,0.0010,-0.0041,0.10,0.64,-89.48,0,0.000,-0.309,-0.021,0.397,0.000,0.000,0.000,0.000,0.000,0.000
4,0.1471,-0.4013,0.0071,0.0041,0.0009,-0.0040,0.06,0.64,-89.39,0,0.000,-0.082,0.086,-0.049,0.000,0.000,0.000,0.000,0.000,0.000
4,0.1471,-0.4012,0.0078,0.0043,0.0011,0.0002,0.09,0.64,-89.31,0,0.000,0.120,0.054,0.097,0.000,0.000,0.000,0.000,0.000,0.000
4,0.1468,-0.4013,0.0079,0.0028,0.0011,0.0001,0.06,0.64,-89.23,0,0.000,0.166,0.357,0.480,0.000,0.000,0.000,0.000,0.000,0.000
4,0.1478,-0.4012,0.0078,0.0078,0.0013,0.0001,0.08,0.63,-89.15,0,0.000,-0.258,0.133,0.108,0.000,0.000,0.000,0.000,0.000,0.000
4,0.1471,-0.4013,0.0079,0.0037,0.0013,0.0004,0.01,0.63,-89.07,0,0.000,-0.137,0.056,0.137,0.000,0.000,0.000,0.000,0.000,0.000
4,0.1478,-0.4012,0.0079,0.0074,0.0012,0.0007,0.10,0.62,-88.99,0,0.000,-0.115,0.151,0.320,0.000,0.000,0.000,0.000,0.000,0.000
4,0.1475,-0.4015,0.0079,0.0060,-0.0003,0.0007,0.10,0.62,-88.91,0,0.000,-0.094,0.146,-0.192,0.000,0.000,0.000,0.000,0.000,0.000
4,0.1491,-0.4015,0.0084,0.0144,-0.0003,0.0032,0.10,0.61,-88.83,0,0.000,-0.093,-0.231,-0.162,0.000,0.000,0.000,0.000,0.000,0.000
4,0.1471,-0.4017,0.0084,0.0031,-0.0018,0.0037,0.10,0.63,-88.75,0,0.000,0.058,0.105,-0.262,0.000,0.000,0.000,0.000,0.000,0.000
4,0.1471,-0.4017,0.0085,0.0032,-0.0019,0.0039,0.07,0.59,-88.67,0,0.000,-0.040,-0.007,0.052,0.000,0.000,0.000,0.000,0.000,0.000
4,0.1471,-0.4018,0.0085,0.0032,-0.0019,0.0039,0.08,0.63,-88.59,0,0.000,-0.171,0.066,0.015,0.000,0.000,0.000,0.000,0.000,0.000
4,0.1471,-0.4015,0.0091,0.0030,-0.0005,0.0069,0.11,0.63,-88.51,0,0.000,-0.227,-0.221,-0.119,0.000,0.000,0.000,0.000,0.000,0.000
4,0.1479,-0.4022,0.0092,0.0070,-0.0041,0.0071,0.11,0.63,-88.43,0,0.000,-0.020,-0.207,-0.028,0.000,0.000,0.000,0.000,0.000,0.000
4,0.1476,-0.4015,0.0093,0.0054,-0.0001,0.0071,0.11,0.64,-88.35,0,0.000,-0.275,-0.207,0.014,0.000,0.000,0.000,0.000,0.000,0.000
4,0.1469,-0.4015,0.0094,0.0017,-0.0000,0.0071,0.07,0.63,-88.27,0,0.000,-0.125,0.091,-0.178,0.000,0.000,0.000,0.000,0.000,0.000
4,0.1469,-0.4015,0.0094,0.0017,-0.0000,0.0071,0.07,0.63,-88.19,0,0.000,0.003,0.114,-0.460,0.000,0.000,0.000,0.000,0.000,0.000
4,0.1469,-0.4012,0.0096,0.0017,0.0013,0.0073,0.10,0.64,-88.12,0,0.000,-0.030,0.246,0.090,0.000,0.000,0.000,0.000,0.000,0.000
4,0.1479,-0.4015,0.0089,0.0068,0.0001,0.0038,0.10,0.62,-88.04,0,0.000,-0.139,-0.199,-0.114,0.000,0.000,0.000,0.000,0.000,0.000
4,0.1480,-0.4015,0.0090,0.0073,0.0002,0.0041,0.07,0.64,-87.96,0,0.000,-0.173,0.175,0.385,0.000,0.000,0.000,0.000,0.000,0.000
4,0.1471,-0.4012,0.0090,0.0028,0.0014,0.0041,0.10,0.62,-87.88,0,0.000,-0.212,0.312,0.211,0.000,0.000,0.000,0.000,0.000,0.000
4,0.1472,-0.4015,0.0091,0.0022,-0.0003,0.0045,0.07,0.62,-87.80,0,0.000,-0.075,0.067,0.039,0.000,0.000,0.000,0.000,0.000,0.000
4,0.1479,-0.4012,0.0094,0.0060,0.0012,0.0065,0.08,0.63,-87.71,0,0.000,0.005,-0.123,0.057,0.000,0.000,0.000,0.000,0.000,0.000
4,0.1471,-0.4015,0.0095,0.0018,-0.0005,0.0064,0.09,0.62,-87.63,0,0.000,-0.087,-0.301,0.035,0.000,0.000,0.000,0.000,0.000,0.000
4,0.1479,-0.4014,0.0096,0.0058,-0.0004,0.0065,0.06,0.63,-87.55,0,0.000,0.119,0.288,-0.211,0.000,0.000,0.000,0.000,0.000,0.000
4,0.1476,-0.4012,0.0096,0.0041,0.0011,0.0068,0.15,0.58,-87.48,0,0.000,-0.066,0.058,0.131,0.000,0.000,0.000,0.000,0.000,0.000
4,0.1474,-0.4015,0.0097,0.0026,-0.0001,0.0070,0.07,0.61,-87.39,0,0.000,-0.075,0.033,-0.129,0.000,0.000,0.000,0.000,0.000,0.000
4,0.1481,-0.4012,0.0098,0.0062,0.0013,0.0069,0.10,0.61,-87.32,0,0.000,-0.367,0.155,0.007,0.000,0.000,0.000,0.000,0.000,0.000
4,0.1460,-0.4025,0.0091,-0.0048,-0.0055,0.0027,0.11,0.63,-87.24,0,0.000,-0.065,-0.379,-0.487,0.000,0.000,0.000,0.000,0.000,0.000
4,0.1479,-0.4017,0.0091,0.0054,-0.0013,0.0030,0.12,0.63,-87.16,0,0.000,-0.058,-0.170,0.036,0.000,0.000,0.000,0.000,0.000,0.000
4,0.1471,-0.4017,0.0092,0.0017,-0.0016,0.0031,0.07,0.63,-87.08,0,0.000,0.036,-0.027,0.120,0.000,0.000,0.000,0.000,0.000,0.000
4,0.1469,-0.4013,0.0092,0.0005,0.0006,0.0032,0.07,0.62,-87.00,0,0.000,-0.049,0.005,0.081,0.000,0.000,0.000,0.000,0.000,0.000
4,0.1467,-0.4013,0.0083,-0.0006,0.0005,-0.0015,0.07,0.62,-86.92,0,0.000,-0.218,-0.102,-0.073,0.000,0.000,0.000,0.000,0.000,0.000
4,0.1478,-0.4012,0.0083,0.0055,0.0009,-0.0013,0.09,0.63,-86.84,0,0.000,0.154,0.042,-0.277,0.000,0.000,0.000,0.000,0.000,0.000
4,0.1478,-0.4014,0.0083,0.0054,-0.0003,-0.0013,0.17,0.66,-86.77,0,0.000,0.076,-0.034,-0.061,0.000,0.000,0.000,0.000,0.000,0.000
4,0.1479,-0.4015,0.0083,0.0058,-0.0002,-0.0012,0.16,0.59,-86.69,0,0.000,-0.205,-0.353,0.314,0.000,0.000,0.000,0.000,0.000,0.000
4,0.1474,-0.4012,0.0083,0.0032,0.0010,-0.0011,0.11,0.63,-86.61,0,0.000,-0.124,0.062,0.232,0.000,0.000,0.000,0.000,0.000,0.000
4,0.1454,-0.4006,0.0083,-0.0067,0.0040,-0.0008,0.09,0.63,-86.53,0,0.000,0.025,-0.364,-0.192,0.000,0.000,0.000,0.000,0.000,0.000
4,0.1458,-0.4022,0.0086,-0.0045,-0.0046,0.0012,0.12,0.62,-86.45,0,0.000,-0.255,0.222,0.291,0.000,0.000,0.000,0.000,0.000,0.000
4,0.1469,-0.4013,0.0086,0.0016,0.0007,0.0014,0.10,0.64,-86.37,0,0.000,0.092,0.045,0.106,0.000,0.000,0.000,0.000,0.000,0.000
4,0.1473,-0.4012,0.0086,0.0038,0.0009,0.0014,0.10,0.64,-86.29,0,0.000,0.306,0.141,0.082,0.000,0.000,0.000,0.000,0.000,0.000
4,0.1467,-0.4015,0.0087,0.0004,-0.0006,0.0015,0.10,0.62,-86.21,0,0.000,-0.213,-0.033,0.172,0.000,0.000,0.000,0.000,0.000,0.000
5,0.1471,-0.4010,0.0096,0.0028,0.0020,0.0064,0.11,0.62,-86.13,0,0.000,0.163,0.200,0.116,0.000,0.000,0.000,0.000,0.000,0.000
5,0.1471,-0.4010,0.0097,0.0030,0.0021,0.0063,0.07,0.62,-86.05,0,0.000,0.112,0.058,-0.131,0.000,0.000,0.000,0.000,0.000,0.000
5,0.1471,-0.4015,0.0097,0.0032,-0.0005,0.0063,0.12,0.59,-85.98,0,0.000,-0.239,-0.048,-0.317,0.000,0.000,0.000,0.000,0.000,0.000
5,0.1469,-0.4015,0.0098,0.0020,-0.0008,0.0066,0.11,0.59,-85.90,0,0.000,0.010,0.137,0.267,0.000,0.000,0.000,0.000,0.000,0.000
5,0.1478,-0.4012,0.0099,0.0068,0.0007,0.0069,0.11,0.61,-85.82,0,0.000,0.131,-0.254,-0.005,0.000,0.000,0.000,0.000,0.000,0.000
5,0.1467,-0.4022,0.0100,0.0010,-0.0043,0.0071,0.12,0.63,-85.74,0,0.000,-0.168,-0.110,-0.271,0.000,0.000,0.000,0.000,0.000,0.000
5,0.1469,-0.4022,0.0100,0.0023,-0.0038,0.0072,0.11,0.62,-85.67,0,0.000,0.031,-0.158,-0.227,0.000,0.000,0.000,0.000,0.000,0.000
5,0.1469,-0.4017,0.0101,0.0020,-0.0012,0.0073,0.07,0.62,-85.59,0,0.000,-0.042,0.239,-0.302,0.000,0.000,0.000,0.000,0.000,0.000
5,0.1466,-0.4013,0.0102,0.0006,0.0011,0.0072,0.06,0.62,-85.51,0,0.000,-0.351,0.376,0.335,0.000,0.000,0.000,0.000,0.000,0.000
5,0.1469,-0.4015,0.0102,0.0019,-0.0000,0.0074,0.13,0.62,-85.43,0,0.000,0.247,0.321,-0.063,0.000,0.000,0.000,0.000,0.000,0.000
5,0.1478,-0.4014,0.0098,0.0065,0.0003,0.0046,0.07,0.61,-85.36,0,0.000,-0.101,-0.022,-0.069,0.000,0.000,0.000,0.000,0.000,0.000
5,0.1480,-0.4014,0.0098,0.0075,0.0002,0.0046,0.07,0.62,-85.28,0,0.000,-0.004,-0.131,-0.262,0.000,0.000,0.000,0.000,0.000,0.000
5,0.1464,-0.4013,0.0099,-0.0009,0.0007,0.0048,0.10,0.62,-85.20,0,0.000,-0.079,0.037,0.148,0.000,0.000,0.000,0.000,0.000,0.000
5,0.1478,-0.4014,0.0100,0.0063,0.0002,0.0049,-0.03,0.66,-85.12,0,0.000,-0.193,0.034,-0.105,0.000,0.000,0.000,0.000,0.000,0.000
5,0.1477,-0.4012,0.0100,0.0060,0.0014,0.0048,0.02,0.62,-85.05,0,0.000,-0.075,-0.342,-0.049,0.000,0.000,0.000,0.000,0.000,0.000
5,0.1473,-0.4013,0.0101,0.0036,0.0012,0.0046,0.03,0.63,-84.97,0,0.000,-0.213,0.051,0.025,0.000,0.000,0.000,0.000,0.000,0.000
5,0.1502,-0.4000,0.0083,0.0188,0.0079,-0.0047,0.02,0.63,-84.89,0,0.000,0.013,-0.181,-0.056,0.000,0.000,0.000,0.000,0.000,0.000
5,0.1492,-0.4009,0.0083,0.0128,0.0025,-0.0043,0.02,0.63,-84.81,0,0.000,-0.106,0.134,0.210,0.000,0.000,0.000,0.000,0.000,0.000
5,0.1492,-0.4007,0.0083,0.0123,0.0036,-0.0043,0.04,0.62,-84.73,0,0.000,0.157,0.265,0.122,0.000,0.000,0.000,0.000,0.000,0.000
5,0.1493,-0.4007,0.0082,0.0126,0.0039,-0.0044,0.06,0.62,-84.66,0,0.000,0.029,-0.001,-0.007,0.000,0.000,0.000,0.000,0.000,0.000
5,0.1495,-0.4006,0.0077,0.0132,0.0037,-0.0069,0.12,0.62,-84.58,0,0.000,-0.176,0.338,0.184,0.000,0.000,0.000,0.000,0.000,0.000
5,0.1493,-0.4009,0.0077,0.0115,0.0022,-0.0068,0.12,0.62,-84.50,0,0.000,-0.147,-0.118,-0.263,0.000,0.000,0.000,0.000,0.000,0.000
5,0.1489,-0.4009,0.0076,0.0086,0.0020,-0.0066,0.17,0.58,-84.42,0,0.000,-0.118,-0.005,0.010,0.000,0.000,0.000,0.000,0.000,0.000
5,0.1476,-0.4011,0.0075,0.0010,0.0013,-0.0063,0.03,0.57,-84.35,0,0.000,-0.052,0.029,-0.186,0.000,0.000,0.000,0.000,0.000,0.000
5,0.1476,-0.4010,0.0075,0.0009,0.0011,-0.0063,0.08,0.63,-84.27,0,0.000,-0.442,-0.248,0.053,0.000,0.000,0.000,0.000,0.000,0.000
5,0.1465,-0.4021,0.0074,-0.0050,-0.0048,-0.0062,0.08,0.63,-84.20,0,0.000,-0.197,0.321,0.033,0.000,0.000,0.000,0.000,0.000,0.000
5,0.1497,-0.4020,0.0076,0.0131,-0.0042,-0.0047,0.08,0.62,-84.12,0,0.000,0.236,-0.126,-0.238,0.000,0.000,0.000,0.000,0.000,0.000
5,0.1485,-0.4007,0.0076,0.0057,0.0028,-0.0044,0.13,0.62,-84.05,0,0.000,0.000,0.030,-0.050,0.000,0.000,0.000,0.000,0.000,0.000
5,0.1485,-0.4007,0.0076,0.0060,0.0028,-0.0045,0.10,0.62,-83.97,0,0.000,-0.152,0.096,-0.063,0.000,0.000,0.000,0.000,0.000,0.000
5,0.1485,-0.4010,0.0075,0.0059,0.0013,-0.0045,0.09,0.62,-83.89,0,0.000,-0.097,0.306,0.126,0.000,0.000,0.000,0.000,0.000,0.000
5,0.1476,-0.4008,0.0073,0.0005,0.0020,-0.0055,0.12,0.62,-83.82,0,0.000,-0.063,-0.047,0.155,0.000,0.000,0.000,0.000,0.000,0.000
5,0.1482,-0.4008,0.0072,0.0044,0.0022,-0.0055,0.12,0.62,-83.74,0,0.000,-0.170,-0.034,0.303,0.000,0.000,0.000,0.000,0.000,0.000
5,0.1483,-0.4007,0.0072,0.0046,0.0021,-0.0053,0.08,0.65,-83.66,0,0.000,0.111,-0.048,-0.206,0.000,0.000,0.000,0.000,0.000,0.000
5,0.1476,-0.4008,0.0071,0.0005,0.0015,-0.0049,0.04,0.65,-83.59,0,0.000,-0.110,-0.145,-0.082,0.000,0.000,0.000,0.000,0.000,0.000
5,0.1476,-0.4008,0.0071,0.0006,0.0015,-0.0047,0.13,0.62,-83.51,0,0.000,-0.078,0.054,0.251,0.000,0.000,0.000,0.000,0.000,0.000
5,0.1485,-0.3999,0.0070,0.0056,0.0060,-0.0045,0.10,0.60,-83.43,0,0.000,0.116,0.131,-0.238,0.000,0.000,0.000,0.000,0.000,0.000
5,0.1495,-0.3998,0.0074,0.0106,0.0063,-0.0024,0.10,0.60,-83.35,0,0.000,0.115,0.040,-0.047,0.000,0.000,0.000,0.000,0.000,0.000
5,0.1475,-0.4006,0.0074,0.0002,0.0021,-0.0023,0.13,0.60,-83.28,0,0.000,-0.070,-0.017,0.144,0.000,0.000,0.000,0.000,0.000,0.000
5,0.1483,-0.4010,0.0074,0.0044,-0.0001,-0.0025,0.13,0.61,-83.20,0,0.000,-0.377,-0.337,-0.170,0.000,0.000,0.000,0.000,0.000,0.000
5,0.1484,-0.4010,0.0074,0.0046,-0.0002,-0.0024,0.09,0.59,-83.13,0,0.000,-0.275,0.279,0.354,0.000,0.000,0.000,0.000,0.000,0.000
5,0.1476,-0.4011,0.0068,0.0005,-0.0008,-0.0054,0.13,0.60,-83.05,0,0.000,-0.022,-0.098,-0.034,0.000,0.000,0.000,0.000,0.000,0.000
5,0.1476,-0.4008,0.0067,0.0005,0.0004,-0.0053,0.12,0.61,-82.97,0,0.000,0.043,-0.040,-0.103,0.000,0.000,0.000,0.000,0.000,0.000
5,0.1484,-0.4012,0.0067,0.0047,-0.0016,-0.0053,0.13,0.60,-82.90,0,0.000,0.027,0.242,-0.137,0.000,0.000,0.000,0.000,0.000,0.000
5,0.1474,-0.4011,0.0066,-0.0007,-0.0007,-0.0054,0.09,0.64,-82.82,0,0.000,-0.227,-0.142,0.188,0.000,0.000,0.000,0.000,0.000,0.000
5,0.1476,-0.4008,0.0066,0.0006,0.0006,-0.0054,0.09,0.60,-82.75,0,0.000,-0.132,0.284,0.175,0.000,0.000,0.000,0.000,0.000,0.000
5,0.1474,-0.4011,0.0065,-0.0004,-0.0009,-0.0052,0.12,0.61,-82.67,0,0.000,-0.197,0.048,-0.233,0.000,0.000,0.000,0.000,0.000,0.000
5,0.1484,-0.4000,0.0080,0.0052,0.0048,0.0027,0.12,0.61,-82.60,0,0.000,-0.018,-0.005,-0.327,0.000,0.000,0.000,0.000,0.000,0.000
5,0.1485,-0.4009,0.0080,0.0058,-0.0001,0.0026,0.00,0.00,0.00,0,0.000,-0.279,-0.111,0.229,0.000,0.000,0.000,0.000,0.000,0.000
5,0.1476,-0.4008,0.0081,0.0007,0.0007,0.0027,-0.00,-0.03,0.00,0,0.000,-0.038,-0.210,0.008,0.000,0.000,0.000,0.000,0.000,0.000
6,0.1476,-0.4008,0.0081,0.0007,0.0007,0.0027,-0.05,0.03,0.00,0,0.000,-0.034,-0.230,-0.226,0.000,0.000,0.000,0.000,0.000,0.000
6,0.0000,0.0000,0.0080,0.0011,-0.0057,0.0000,-0.13,0.03,-0.00,0,0.000,-0.156,0.221,0.189,0.000,0.000,0.000,0.000,0.000,0.000
6,0.0001,-0.0000,0.0080,0.0075,-0.0051,-0.0001,-0.03,0.06,0.00,0,0.000,-0.105,0.181,-0.015,0.000,0.000,0.000,0.000,0.000,0.000
6,0.0001,-0.0000,0.0080,0.0036,-0.0000,-0.0000,0.00,0.20,0.00,0,0.000,0.143,0.178,-0.252,0.000,0.000,0.000,0.000,0.000,0.000
6,0.0001,0.0001,0.0080,0.0044,0.0050,0.0000,-0.23,0.10,-0.00,0,0.000,-0.161,-0.201,-0.027,0.000,0.000,0.000,0.000,0.000,0.000
6,0.0001,-0.0000,0.0081,0.0040,0.0008,0.0002,-0.18,0.11,-0.00,0,0.000,-0.147,-0.074,0.290,0.000,0.000,0.000,0.000,0.000,0.000
6,-0.0001,-0.0000,0.0081,-0.0012,-0.0000,0.0003,-0.16,-0.00,0.00,0,0.000,-0.024,0.004,0.147,0.000,0.000,0.000,0.000,0.000,0.000
6,0.0000,0.0004,0.0091,0.0033,0.0090,0.0014,0.07,0.06,0.00,0,0.000,0.091,-0.041,-0.109,0.000,0.000,0.000,0.000,0.000,0.000
6,0.0001,0.0004,0.0091,0.0038,0.0076,0.0016,0.07,0.13,0.00,0,0.000,-0.295,-0.125,0.121,0.000,0.000,0.000,0.000,0.000,0.000
6,0.0003,0.0004,0.0091,0.0087,0.0076,0.0017,0.02,-0.14,-0.00,0,0.000,-0.108,-0.171,0.117,0.000,0.000,0.000,0.000,0.000,0.000
6,0.0003,0.0000,0.0091,0.0077,0.0003,0.0018,-0.12,0.15,-0.00,0,0.000,-0.005,-0.233,-0.115,0.000,0.000,0.000,0.000,0.000,0.000
6,0.0002,0.0000,0.0095,0.0065,0.0004,0.0027,-0.12,0.15,-0.00,0,0.000,-0.176,-0.315,0.033,0.000,0.000,0.000,0.000,0.000,0.000
6,0.0009,0.0001,0.0095,0.0163,0.0023,0.0025,-0.13,0.15,-0.00,0,0.000,-0.253,0.223,0.078,0.000,0.000,0.000,0.000,0.000,0.000
6,0.0004,0.0005,0.0096,0.0077,0.0075,0.0029,-0.13,0.15,0.00,0,0.000,-0.209,-0.144,-0.090,0.000,0.000,0.000,0.000,0.000,0.000
6,0.0005,0.0006,0.0096,0.0085,0.0081,0.0031,0.92,-0.07,0.00,0,0.000,-0.028,-0.312,0.114,0.000,0.000,0.000,0.000,0.000,0.000
6,0.0006,0.0007,0.0096,0.0094,0.0087,0.0031,0.28,0.05,0.00,0,0.000,0.117,0.173,-0.172,0.000,0.000,0.000,0.000,0.000,0.000
6,0.0007,0.0007,0.0097,0.0102,0.0094,0.0031,1.03,0.09,-0.00,0,0.000,0.081,-0.188,0.033,0.000,0.000,0.000,0.000,0.000,0.000
6,0.0014,-0.0024,0.0091,0.0190,-0.0284,-0.0006,1.04,0.25,-0.00,0,0.000,-0.143,0.026,0.187,0.000,0.000,0.000,0.000,0.000,0.000
6,0.0012,-0.0006,0.0092,0.0156,-0.0057,0.0007,1.38,0.33,-0.00,0,0.000,-0.144,-0.098,0.004,0.000,0.000,0.000,0.000,0.000,0.000
6,0.0012,-0.0033,0.0092,0.0148,-0.0350,0.0001,1.37,0.33,-0.00,0,0.000,-0.120,-0.020,0.117,0.000,0.000,0.000,0.000,0.000,0.000
6,0.0008,-0.0037,0.0092,0.0097,-0.0371,0.0003,1.50,0.24,-0.00,0,0.000,-0.060,0.115,0.005,0.000,0.000,0.000,0.000,0.000,0.000
6,0.0006,-0.0054,0.0087,0.0070,-0.0522,-0.0029,1.12,0.33,0.00,0,0.000,-0.111,0.094,0.130,0.000,0.000,0.000,0.000,0.000,0.000
6,0.0007,-0.0059,0.0086,0.0076,-0.0543,-0.0029,1.15,0.45,-0.00,0,0.000,0.043,-0.167,0.169,0.000,0.000,0.000,0.000,0.000,0.000
6,0.0011,-0.0070,0.0086,0.0119,-0.0616,-0.0034,0.98,0.46,0.00,0,0.000,0.141,-0.076,-0.298,0.000,0.000,0.000,0.000,0.000,0.000
6,0.0009,-0.0059,0.0087,0.0087,-0.0475,-0.0020,0.70,0.28,0.00,0,0.000,0.051,0.018,0.163,0.000,0.000,0.000,0.000,0.000,0.000
6,0.0004,-0.0066,0.0087,0.0036,-0.0505,-0.0020,0.89,0.44,0.00,0,0.000,0.186,0.061,-0.076,0.000,0.000,0.000,0.000,0.000,0.000
6,0.0004,-0.0062,0.0087,0.0035,-0.0442,-0.0013,0.89,0.44,-0.00,0,0.000,0.143,0.498,0.169,0.000,0.000,0.000,0.000,0.000,0.000
6,0.0013,-0.0051,0.0080,0.0120,-0.0320,-0.0049,0.80,0.49,0.00,0,0.000,-0.035,0.250,-0.020,0.000,0.000,0.000,0.000,0.000,0.000
6,0.0006,-0.0065,0.0080,0.0052,-0.0422,-0.0051,0.72,0.45,0.00,0,0.000,-0.161,0.000,0.112,0.000,0.000,0.000,0.000,0.000,0.000
6,0.0006,-0.0070,0.0079,0.0056,-0.0433,-0.0051,0.72,0.45,0.00,0,0.000,0.052,-0.022,-0.075,0.000,0.000,0.000,0.000,0.000,0.000
6,0.0003,-0.0068,0.0079,0.0032,-0.0396,-0.0048,0.64,0.51,0.00,0,0.000,-0.070,0.193,-0.153,0.000,0.000,0.000,0.000,0.000,0.000
6,0.0006,-0.0067,0.0088,0.0053,-0.0365,0.0008,0.46,0.31,0.00,0,0.000,0.214,0.083,-0.326,0.000,0.000,0.000,0.000,0.000,0.000
6,0.0007,-0.0071,0.0088,0.0057,-0.0372,0.0009,0.41,0.45,0.00,0,0.000,0.114,-0.127,0.005,0.000,0.000,0.000,0.000,0.000,0.000
6,0.0003,-0.0070,0.0088,0.0031,-0.0339,0.0010,0.51,0.46,0.00,0,0.000,-0.155,-0.006,-0.280,0.000,0.000,0.000,0.000,0.000,0.000
6,0.0018,-0.0060,0.0088,0.0138,-0.0247,0.0012,0.43,0.47,0.00,0,0.000,-0.180,-0.240,0.173,0.000,0.000,0.000,0.000,0.000,0.000
6,0.0008,-0.0059,0.0089,0.0066,-0.0225,0.0014,0.33,0.48,0.00,0,0.000,-0.038,0.089,-0.126,0.000,0.000,0.000,0.000,0.000,0.000
6,0.0008,-0.0069,0.0089,0.0062,-0.0288,0.0014,0.27,0.52,0.00,0,0.000,0.132,0.100,0.191,0.000,0.000,0.000,0.000,0.000,0.000
6,0.0008,-0.0065,0.0085,0.0058,-0.0245,-0.0007,0.22,0.56,0.01,0,0.000,-0.046,-0.017,-0.137,0.000,0.000,0.000,0.000,0.000,0.000
6,0.0008,-0.0059,0.0085,0.0055,-0.0189,-0.0006,0.28,0.53,0.01,0,0.000,0.062,0.335,-0.209,0.000,0.000,0.000,0.000,0.000,0.000
6,0.0005,-0.0056,0.0085,0.0034,-0.0156,-0.0005,0.39,0.53,0.00,0,0.000,-0.009,0.061,0.018,0.000,0.000,0.000,0.000,0.000,0.000
6,0.0002,-0.0052,0.0085,0.0014,-0.0123,-0.0004,0.18,0.53,0.01,0,0.000,0.044,0.077,-0.146,0.000,0.000,0.000,0.000,0.000,0.000
6,0.0005,-0.0060,0.0079,0.0033,-0.0166,-0.0037,0.22,0.59,0.01,0,0.000,0.049,0.060,0.036,0.000,0.000,0.000,0.000,0.000,0.000
6,0.0005,-0.0072,0.0078,0.0033,-0.0243,-0.0037,0.10,0.56,0.01,0,0.000,-0.149,-0.147,-0.010,0.000,0.000,0.000,0.000,0.000,0.000
6,0.0005,-0.0053,0.0078,0.0032,-0.0104,-0.0033,0.22,0.54,0.01,0,0.000,0.190,0.461,0.163,0.000,0.000,0.000,0.000,0.000,0.000
6,-0.0001,-0.0058,0.0078,-0.0004,-0.0129,-0.0032,-0.01,0.65,0.01,0,0.000,0.078,-0.152,-0.083,0.000,0.000,0.000,0.000,0.000,0.000
6,0.0002,-0.0048,0.0077,0.0012,-0.0053,-0.0031,0.18,0.56,0.01,0,0.000,0.098,0.103,-0.053,0.000,0.000,0.000,0.000,0.000,0.000
6,0.0004,-0.0061,0.0077,0.0030,-0.0131,-0.0029,0.18,0.56,0.01,0,0.000,0.142,0.043,0.055,0.000,0.000,0.000,0.000,0.000,0.000
6,-0.0008,-0.0037,0.0074,-0.0051,0.0027,-0.0045,0.21,0.58,0.01,0,0.000,-0.024,0.182,-0.159,0.000,0.000,0.000,0.000,0.000,0.000
6,0.0002,-0.0058,0.0074,0.0017,-0.0100,-0.0042,0.18,0.49,0.00,0,0.000,-0.179,-0.049,0.147,0.000,0.000,0.000,0.000,0.000,0.000
6,0.0002,-0.0059,0.0074,0.0019,-0.0100,-0.0043,0.19,0.56,0.01,0,0.000,0.073,0.024,-0.142,0.000,0.000,0.000,0.000,0.000,0.000
6,-0.0001,-0.0064,0.0073,0.0002,-0.0124,-0.0043,0.09,0.56,0.01,0,0.000,0.025,0.007,0.273,0.000,0.000,0.000,0.000,0.000,0.000
6,0.0010,-0.0061,0.0076,0.0068,-0.0098,-0.0027,0.07,0.58,0.01,0,0.000,0.394,0.051,0.231,0.000,0.000,0.000,0.000,0.000,0.000
6,0.0002,-0.0063,0.0076,0.0016,-0.0106,-0.0026,0.15,0.58,0.01,0,0.000,-0.494,-0.183,-1.132,0.000,0.000,0.000,0.000,0.000,0.000
6,0.0002,-0.0052,0.0075,0.0017,-0.0033,-0.0025,0.14,0.54,0.02,0,0.000,0.329,-0.128,-2.720,0.000,0.000,0.000,0.000,0.000,0.000
6,-0.0001,-0.0050,0.0075,0.0000,-0.0013,-0.0023,0.02,0.61,0.01,0,0.000,0.715,0.252,-0.673,0.000,0.000,0.000,0.000,0.000,0.000
6,-0.0001,-0.0060,0.0075,0.0002,-0.0071,-0.0022,0.02,0.55,0.01,0,0.000,-1.037,0.884,-0.563,0.000,0.000,0.000,0.000,0.000,0.000
6,0.0005,-0.0060,0.0075,0.0024,-0.0068,-0.0022,-0.03,0.47,0.01,0,0.000,-0.404,1.090,0.452,0.000,0.000,0.000,0.000,0.000,0.000
7,-0.0005,-0.0044,0.0081,-0.0046,0.0028,0.0010,0.00,0.50,0.02,0,0.000,0.696,-0.211,0.351,0.000,0.000,0.000,0.000,0.000,0.000
7,0.0002,-0.0044,0.0081,-0.0007,0.0025,0.0009,0.04,0.51,0.02,0,0.000,-0.058,0.615,-0.596,0.000,0.000,0.000,0.000,0.000,0.000
7,0.0012,-0.0037,0.0081,0.0043,0.0067,0.0013,0.06,0.53,0.02,0,0.000,0.642,-0.540,0.134,0.000,0.000,0.000,0.000,0.000,0.000
7,0.0008,-0.0042,0.0082,0.0004,0.0034,0.0012,0.07,0.53,0.02,0,0.000,1.612,0.041,-0.912,0.000,0.000,0.000,0.000,0.000,0.000
7,0.0005,-0.0047,0.0085,-0.0018,0.0003,0.0027,0.14,0.53,0.01,0,0.000,-0.816,0.283,-0.003,0.000,0.000,0.000,0.000,0.000,0.000
7,0.0003,-0.0049,0.0086,-0.0041,-0.0013,0.0036,0.05,0.52,0.00,0,0.000,0.237,-0.253,-2.609,0.000,0.000,0.000,0.000,0.000,0.000
7,0.0002,-0.0049,0.0086,-0.0050,-0.0014,0.0040,0.01,0.43,-0.02,0,0.000,-1.782,0.992,-3.107,0.000,0.000,0.000,0.000,0.000,0.000
7,0.0002,-0.0060,0.0086,-0.0055,-0.0074,0.0040,0.12,0.49,-0.06,0,0.000,-0.930,0.733,-4.924,0.000,0.000,0.000,0.000,0.000,0.000
7,0.0003,-0.0047,0.0087,-0.0060,0.0002,0.0038,-0.04,0.46,-0.10,0,0.000,-3.527,1.493,-3.175,0.000,0.000,0.000,0.000,0.000,0.000
7,0.0016,-0.0039,0.0087,0.0011,0.0045,0.0041,0.06,0.43,-0.13,0,0.000,-0.573,-0.466,0.499,0.000,0.000,0.000,0.000,0.000,0.000
7,0.0003,-0.0059,0.0107,-0.0068,-0.0072,0.0149,0.04,0.46,-0.09,0,0.000,1.245,-2.063,10.650,0.000,0.000,0.000,0.000,0.000,0.000
7,0.0006,-0.0038,0.0109,-0.0055,0.0050,0.0143,0.08,0.46,0.02,0,0.000,-1.309,0.879,12.950,0.000,0.000,0.000,0.000,0.000,0.000
7,0.0009,-0.0058,0.0110,-0.0045,-0.0063,0.0145,0.06,0.47,0.15,0,0.000,3.305,-3.049,10.996,0.000,0.000,0.000,0.000,0.000,0.000
7,0.0004,-0.0053,0.0112,-0.0078,-0.0034,0.0155,0.10,0.53,0.26,0,0.000,1.876,-1.167,12.647,0.000,0.000,0.000,0.000,0.000,0.000
7,0.0004,-0.0060,0.0108,-0.0080,-0.0071,0.0119,0.05,0.50,0.38,0,0.000,-5.574,5.312,8.147,0.000,0.000,0.000,0.000,0.000,0.000
7,0.0001,-0.0058,0.0109,-0.0098,-0.0056,0.0125,-0.06,0.41,0.45,0,0.000,-5.810,4.285,7.038,0.000,0.000,0.000,0.000,0.000,0.000
7,-0.0006,-0.0061,0.0110,-0.0142,-0.0070,0.0133,0.03,0.51,0.53,0,0.000,-2.965,3.794,12.858,0.000,0.000,0.000,0.000,0.000,0.000
7,-0.0003,-0.0055,0.0112,-0.0125,-0.0036,0.0120,0.21,0.45,0.68,0,0.000,2.072,1.411,17.803,0.000,0.000,0.000,0.000,0.000,0.000
7,0.0001,-0.0046,0.0113,-0.0108,0.0013,0.0122,0.21,0.49,0.85,0,0.000,5.701,-4.087,15.675,0.000,0.000,0.000,0.000,0.000,0.000
7,-0.0028,-0.0073,0.0114,-0.0261,-0.0130,0.0127,0.47,0.66,0.99,0,0.000,3.276,-9.231,10.971,0.000,0.000,0.000,0.000,0.000,0.000
7,-0.0020,-0.0111,0.0100,-0.0213,-0.0328,0.0046,0.51,0.70,1.09,0,0.000,4.292,-1.410,8.926,0.000,0.000,0.000,0.000,0.000,0.000
7,-0.0027,-0.0114,0.0100,-0.0247,-0.0331,0.0023,0.56,0.71,1.17,0,0.000,2.358,0.589,7.237,0.000,0.000,0.000,0.000,0.000,0.000
7,-0.0053,-0.0154,0.0098,-0.0380,-0.0533,0.0019,0.75,0.66,1.26,0,0.000,-6.661,5.686,12.490,0.000,0.000,0.000,0.000,0.000,0.000
7,-0.0056,-0.0160,0.0098,-0.0391,-0.0541,0.0021,0.82,0.67,1.40,0,0.000,-3.723,0.590,19.009,0.000,0.000,0.000,0.000,0.000,0.000
7,-0.0056,-0.0169,0.0111,-0.0379,-0.0573,0.0054,0.80,0.69,1.62,0,0.000,7.177,-2.403,22.887,0.000,0.000,0.000,0.000,0.000,0.000
7,-0.0058,-0.0219,0.0109,-0.0381,-0.0818,0.0055,0.82,0.77,1.82,0,0.000,2.415,-1.579,17.041,0.000,0.000,0.000,0.000,0.000,0.000
7,-0.0071,-0.0252,0.0107,-0.0439,-0.0960,-0.0006,0.85,0.74,1.97,0,0.000,-5.198,-1.944,13.886,0.000,0.000,0.000,0.000,0.000,0.000
7,-0.0076,-0.0258,0.0107,-0.0453,-0.0955,-0.0001,0.83,0.73,2.11,0,0.000,-4.755,-1.324,14.324,0.000,0.000,0.000,0.000,0.000,0.000
7,-0.0087,-0.0262,0.0108,-0.0498,-0.0940,0.0038,0.94,0.78,2.22,0,0.000,-6.622,1.924,8.028,0.000,0.000,0.000,0.000,0.000,0.000
7,-0.0092,-0.0271,0.0108,-0.0510,-0.0949,0.0004,1.14,0.70,2.29,0,0.000,-8.017,7.988,2.959,0.000,0.000,0.000,0.000,0.000,0.000
7,-0.0092,-0.0283,0.0100,-0.0497,-0.0981,-0.0040,1.00,0.67,2.30,0,0.000,6.457,-2.506,-4.152,0.000,0.000,0.000,0.000,0.000,0.000
7,-0.0113,-0.0319,0.0096,-0.0592,-0.1132,-0.0035,1.02,0.69,2.25,0,0.000,-0.643,6.557,-4.958,0.000,0.000,0.000,0.000,0.000,0.000
7,-0.0112,-0.0390,0.0088,-0.0567,-0.1458,-0.0115,0.92,0.61,2.21,0,0.000,-3.168,-7.672,-3.369,0.000,0.000,0.000,0.000,0.000,0.000
7,-0.0116,-0.0390,0.0090,-0.0571,-0.1404,-0.0085,0.86,0.64,2.18,0,0.000,4.833,2.715,-2.668,0.000,0.000,0.000,0.000,0.000,0.000
7,-0.0122,-0.0405,0.0090,-0.0583,-0.1422,-0.0045,0.74,0.58,2.16,0,0.000,-2.261,6.688,-1.767,0.000,0.000,0.000,0.000,0.000,0.000
7,-0.0123,-0.0406,0.0091,-0.0567,-0.1370,-0.0042,0.65,0.52,2.14,0,0.000,-6.559,6.062,-0.141,0.000,0.000,0.000,0.000,0.000,0.000
7,-0.0122,-0.0402,0.0093,-0.0544,-0.1296,-0.0026,0.50,0.40,2.15,0,0.000,-3.367,-7.716,-0.536,0.000,0.000,0.000,0.000,0.000,0.000
7,-0.0116,-0.0397,0.0096,-0.0495,-0.1220,-0.0011,0.25,0.52,2.14,0,0.000,-8.790,8.780,-3.133,0.000,0.000,0.000,0.000,0.000,0.000
7,-0.0117,-0.0395,0.0099,-0.0485,-0.1154,0.0075,0.26,0.39,2.10,0,0.000,-4.279,-2.041,-3.727,0.000,0.000,0.000,0.000,0.000,0.000
7,-0.0105,-0.0389,0.0103,-0.0403,-0.1074,0.0088,0.10,0.37,2.06,0,0.000,-11.377,-0.811,-3.416,0.000,0.000,0.000,0.000,0.000,0.000
7,-0.0122,-0.0365,0.0109,-0.0480,-0.0902,0.0098,0.01,0.42,2.01,0,0.000,3.259,-2.555,-7.871,0.000,0.000,0.000,0.000,0.000,0.000
8,-0.0111,-0.0383,0.0111,-0.0405,-0.0953,0.0129,0.03,0.40,1.94,0,0.000,4.326,8.712,-5.807,0.000,0.000,0.000,0.000,0.000,0.000
8,-0.0106,-0.0379,0.0113,-0.0363,-0.0882,0.0109,0.12,0.39,1.89,0,0.000,5.762,-10.483,-4.950,0.000,0.000,0.000,0.000,0.000,0.000
8,-0.0114,-0.0378,0.0115,-0.0391,-0.0837,0.0098,0.08,0.40,1.84,0,0.000,3.833,10.506,-5.520,0.000,0.000,0.000,0.000,0.000,0.000
8,-0.0118,-0.0387,0.0117,-0.0399,-0.0838,0.0065,0.21,0.37,1.76,0,0.000,14.658,-12.252,-9.723,0.000,0.000,0.000,0.000,0.000,0.000
8,-0.0122,-0.0395,0.0118,-0.0406,-0.0839,0.0058,0.26,0.45,1.66,0,0.000,-3.301,5.326,-11.013,0.000,0.000,0.000,0.000,0.000,0.000
8,-0.0117,-0.0392,0.0119,-0.0366,-0.0784,0.0044,0.53,0.18,1.55,0,0.000,3.615,0.106,-11.804,0.000,0.000,0.000,0.000,0.000,0.000
8,-0.0121,-0.0401,0.0120,-0.0374,-0.0785,0.0064,0.54,0.23,1.44,0,0.000,1.396,-4.670,-9.002,0.000,0.000,0.000,0.000,0.000,0.000
8,-0.0125,-0.0409,0.0121,-0.0380,-0.0789,0.0063,0.26,0.26,1.36,0,0.000,-6.297,1.463,-6.806,0.000,0.000,0.000,0.000,0.000,0.000
8,-0.0086,-0.0484,0.0118,-0.0167,-0.1139,0.0054,0.21,0.27,1.28,0,0.000,3.457,0.863,-11.172,0.000,0.000,0.000,0.000,0.000,0.000
8,-0.0084,-0.0490,0.0111,-0.0152,-0.1126,0.0032,0.10,0.22,1.16,0,0.000,-11.938,0.708,-11.814,0.000,0.000,0.000,0.000,0.000,0.000
8,-0.0098,-0.0432,0.0118,-0.0220,-0.0782,0.0070,0.06,0.24,1.04,0,0.000,2.455,-1.742,-9.928,0.000,0.000,0.000,0.000,0.000,0.000
8,-0.0101,-0.0436,0.0119,-0.0226,-0.0765,0.0109,-0.06,0.23,0.96,0,0.000,-2.835,4.288,-6.997,0.000,0.000,0.000,0.000,0.000,0.000
9,-0.0097,-0.0425,0.0121,-0.0201,-0.0676,0.0121,-0.03,0.21,0.96,0,0.000,0.270,-1.803,-6.503,0.000,0.000,0.000,0.000,0.000,0.000
9,-0.0099,-0.0432,0.0126,-0.0205,-0.0679,0.0152,-0.11,0.16,0.89,0,0.000,8.383,-0.880,-10.851,0.000,0.000,0.000,0.000,0.000,0.000
9,-0.0098,-0.0416,0.0128,-0.0194,-0.0568,0.0125,-0.05,0.18,0.81,0,0.000,9.095,0.719,-11.708,0.000,0.000,0.000,0.000,0.000,0.000
9,-0.0094,-0.0429,0.0129,-0.0168,-0.0599,0.0109,0.04,0.18,0.69,0,0.000,-5.279,0.102,-5.617,0.000,0.000,0.000,0.000,0.000,0.000
9,-0.0094,-0.0415,0.0131,-0.0163,-0.0500,0.0115,0.00,0.13,0.59,0,0.000,-14.780,0.826,-1.937,0.000,0.000,0.000,0.000,0.000,0.000
9,-0.0094,-0.0426,0.0132,-0.0157,-0.0528,0.0099,-0.11,0.13,0.56,0,0.000,-7.773,0.409,-4.563,0.000,0.000,0.000,0.000,0.000,0.000
9,-0.0091,-0.0437,0.0133,-0.0137,-0.0556,0.0124,-0.23,0.13,0.53,0,0.000,-4.966,-3.178,-6.503,0.000,0.000,0.000,0.000,0.000,0.000
9,-0.0081,-0.0423,0.0129,-0.0089,-0.0466,0.0146,-0.36,0.15,0.48,0,0.000,-13.699,4.540,-9.555,0.000,0.000,0.000,0.000,0.000,0.000
9,-0.0089,-0.0421,0.0131,-0.0124,-0.0429,0.0165,-0.50,0.15,0.40,0,0.000,-11.962,-6.100,-13.079,0.000,0.000,0.000,0.000,0.000,0.000
9,-0.0089,-0.0423,0.0132,-0.0120,-0.0415,0.0163,-0.71,0.10,0.29,0,0.000,-13.114,3.253,-10.574,0.000,0.000,0.000,0.000,0.000,0.000
9,-0.0096,-0.0419,0.0134,-0.0150,-0.0370,0.0170,-0.79,0.14,0.16,0,0.000,-8.941,3.999,-9.756,0.000,0.000,0.000,0.000,0.000,0.000
9,-0.0096,-0.0409,0.0121,-0.0145,-0.0299,0.0120,-0.91,0.13,0.06,0,0.000,-3.869,-3.220,-7.634,0.000,0.000,0.000,0.000,0.000,0.000
9,-0.0091,-0.0390,0.0122,-0.0115,-0.0182,0.0122,-0.97,0.09,-0.03,0,0.000,-1.521,0.900,-5.151,0.000,0.000,0.000,0.000,0.000,0.000
9,-0.0094,-0.0405,0.0123,-0.0130,-0.0234,0.0073,-0.73,0.09,-0.09,0,0.000,4.659,-0.318,-3.613,0.000,0.000,0.000,0.000,0.000,0.000
9,-0.0102,-0.0407,0.0124,-0.0161,-0.0215,0.0062,-0.68,0.03,-0.13,0,0.000,2.826,0.389,-6.842,0.000,0.000,0.000,0.000,0.000,0.000
9,-0.0096,-0.0406,0.0125,-0.0128,-0.0187,0.0052,-0.65,0.04,-0.18,0,0.000,7.509,-2.812,-10.642,0.000,0.000,0.000,0.000,0.000,0.000
9,-0.0096,-0.0471,0.0126,-0.0124,-0.0476,0.0038,-0.49,0.04,-0.26,0,0.000,9.398,8.809,-12.152,0.000,0.000,0.000,0.000,0.000,0.000
9,-0.0081,-0.0492,0.0106,-0.0046,-0.0543,-0.0093,-0.39,0.01,-0.38,0,0.000,12.031,-9.115,-16.720,0.000,0.000,0.000,0.000,0.000,0.000
9,-0.0082,-0.0498,0.0105,-0.0047,-0.0532,-0.0102,-0.32,-0.00,-0.53,0,0.000,1.888,7.743,-10.617,0.000,0.000,0.000,0.000,0.000,0.000
9,-0.0081,-0.0527,0.0102,-0.0039,-0.0639,-0.0121,-0.18,-0.13,-0.65,0,0.000,7.717,-10.922,-12.560,0.000,0.000,0.000,0.000,0.000,0.000
9,-0.0077,-0.0538,0.0101,-0.0022,-0.0654,-0.0101,-0.13,-0.16,-0.77,0,0.000,3.562,2.280,-8.434,0.000,0.000,0.000,0.000,0.000,0.000
9,-0.0071,-0.0540,0.0096,0.0008,-0.0627,-0.0110,-0.10,-0.14,-0.87,0,0.000,-9.342,7.509,-5.902,0.000,0.000,0.000,0.000,0.000,0.000
9,-0.0038,-0.0563,0.0094,0.0172,-0.0705,-0.0103,-0.09,-0.15,-0.94,0,0.000,-8.563,-1.786,-5.657,0.000,0.000,0.000,0.000,0.000,0.000
9,-0.0031,-0.0575,0.0092,0.0198,-0.0724,-0.0106,-0.20,-0.21,-1.00,0,0.000,-11.259,-1.978,0.287,0.000,0.000,0.000,0.000,0.000,0.000
9,-0.0016,-0.0581,0.0091,0.0264,-0.0721,-0.0109,-0.21,-0.14,-1.03,0,0.000,-17.367,6.653,-1.432,0.000,0.000,0.000,0.000,0.000,0.000
9,-0.0021,-0.0600,0.0089,0.0229,-0.0774,-0.0066,-0.40,-0.18,-1.04,0,0.000,-11.867,-1.912,-2.936,0.000,0.000,0.000,0.000,0.000,0.000
9,-0.0017,-0.0604,0.0089,0.0240,-0.0753,-0.0022,-0.72,-0.24,-1.08,0,0.000,-17.066,-0.032,-0.018,0.000,0.000,0.000,0.000,0.000,0.000
9,-0.0025,-0.0631,0.0093,0.0194,-0.0844,0.0001,-0.66,-0.23,-1.08,0,0.000,-21.243,1.388,5.032,0.000,0.000,0.000,0.000,0.000,0.000
9,-0.0015,-0.0627,0.0094,0.0236,-0.0778,0.0022,-1.12,-0.25,-1.01,0,0.000,-24.377,-1.017,5.874,0.000,0.000,0.000,0.000,0.000,0.000
9,-0.0006,-0.0623,0.0095,0.0274,-0.0711,0.0051,-1.13,-0.24,-1.01,0,0.000,-26.845,4.986,2.451,0.000,0.000,0.000,0.000,0.000,0.000
9,-0.0006,-0.0647,0.0094,0.0260,-0.0778,0.0062,-1.67,-0.28,-0.96,0,0.000,-22.977,-1.445,-0.055,0.000,0.000,0.000,0.000,0.000,0.000
9,0.0003,-0.0639,0.0094,0.0297,-0.0686,0.0068,-1.70,-0.27,-0.96,0,0.000,-26.110,0.778,-0.997,0.000,0.000,0.000,0.000,0.000,0.000
9,0.0003,-0.0642,0.0095,0.0288,-0.0651,0.0079,-2.29,-0.25,-0.98,0,0.000,-32.917,-1.938,-0.883,0.000,0.000,0.000,0.000,0.000,0.000
9,0.0003,-0.0641,0.0096,0.0279,-0.0590,0.0085,-2.34,-0.25,-0.98,0,0.000,-30.750,-3.078,5.340,0.000,0.000,0.000,0.000,0.000,0.000
9,0.0003,-0.0638,0.0097,0.0268,-0.0514,0.0097,-3.01,-0.16,-0.90,0,0.000,-36.580,-4.476,8.844,0.000,0.000,0.000,0.000,0.000,0.000
9,0.0003,-0.0627,0.0098,0.0259,-0.0399,0.0113,-3.16,-0.12,-0.91,0,0.000,-38.260,-5.755,9.204,0.000,0.000,0.000,0.000,0.000,0.000
9,0.0004,-0.0619,0.0100,0.0257,-0.0303,0.0134,-3.67,-0.06,-0.82,0,0.000,-35.380,-10.713,11.912,0.000,0.000,0.000,0.000,0.000,0.000
9,0.0007,-0.0623,0.0123,0.0264,-0.0260,0.0260,-4.19,0.02,-0.71,0,0.000,-31.776,-11.278,14.101,0.000,0.000,0.000,0.000,0.000,0.000
9,0.0002,-0.0588,0.0125,0.0226,-0.0008,0.0273,-4.60,0.11,-0.58,0,0.000,-21.565,-17.830,12.222,0.000,0.000,0.000,0.000,0.000,0.000
9,-0.0003,-0.0561,0.0126,0.0193,0.0193,0.0271,-5.19,0.20,-0.44,0,0.000,-6.788,-22.538,12.514,0.000,0.000,0.000,0.000,0.000,0.000
9,0.0000,-0.0518,0.0124,0.0199,0.0473,0.0240,-5.44,0.39,-0.31,0,0.000,10.205,-21.415,14.595,0.000,0.000,0.000,0.000,0.000,0.000
9,-0.0001,-0.0499,0.0110,0.0183,0.0622,0.0125,-5.69,0.56,-0.15,0,0.000,23.644,-20.857,14.857,0.000,0.000,0.000,0.000,0.000,0.000
9,0.0009,-0.0415,0.0100,0.0222,0.1105,0.0026,-5.60,0.73,0.02,0,0.000,29.794,-10.342,12.938,0.000,0.000,0.000,0.000,0.000,0.000
9,0.0013,-0.0382,0.0096,0.0229,0.1303,-0.0048,-5.69,0.82,0.18,0,0.000,36.149,-1.563,12.376,0.000,0.000,0.000,0.000,0.000,0.000
9,0.0025,-0.0305,0.0078,0.0271,0.1720,-0.0191,-5.49,0.88,0.30,0,0.000,46.188,-1.339,10.257,0.000,0.000,0.000,0.000,0.000,0.000
9,0.0031,-0.0266,0.0068,0.0275,0.1921,-0.0242,-5.40,0.90,0.41,0,0.000,50.236,3.954,10.972,0.000,0.000,0.000,0.000,0.000,0.000
9,0.0050,-0.0160,0.0029,0.0344,0.2453,-0.0441,-4.80,0.84,0.52,0,0.000,52.874,-0.144,10.023,0.000,0.000,0.000,0.000,0.000,0.000
9,0.0044,-0.0109,0.0003,0.0281,0.2676,-0.0566,-4.37,0.82,0.62,0,0.000,56.375,-5.417,7.977,0.000,0.000,0.000,0.000,0.000,0.000
9,0.0043,-0.0007,-0.0032,0.0248,0.3144,-0.0756,-4.10,0.85,0.71,0,0.000,56.191,-13.529,6.269,0.000,0.000,0.000,0.000,0.000,0.000
9,0.0052,-0.0004,-0.0025,0.0267,0.3082,-0.0685,-3.67,0.99,0.77,0,0.000,51.045,-18.877,5.420,0.000,0.000,0.000,0.000,0.000,0.000
9,0.0053,0.0047,-0.0042,0.0242,0.3252,-0.0751,-3.59,1.25,0.81,0,0.000,50.835,-16.665,7.237,0.000,0.000,0.000,0.000,0.000,0.000
9,0.0056,0.0152,-0.0052,0.0230,0.3689,-0.0764,-3.19,1.48,0.87,0,0.000,52.908,0.724,6.807,0.000,0.000,0.000,0.000,0.000,0.000
9,0.0044,0.0219,-0.0073,0.0143,0.3903,-0.0810,-3.02,1.63,0.93,0,0.000,55.287,4.003,4.493,0.000,0.000,0.000,0.000,0.000,0.000
9,0.0023,0.0356,-0.0129,0.0017,0.4464,-0.1064,-2.51,1.64,0.96,0,0.000,60.135,7.626,2.696,0.000,0.000,0.000,0.000,0.000,0.000
9,0.0013,0.0421,-0.0153,-0.0060,0.4621,-0.1118,-2.28,1.67,0.97,0,0.000,63.090,-1.850,1.794,0.000,0.000,0.000,0.000,0.000,0.000
9,-0.0012,0.0543,-0.0223,-0.0202,0.5062,-0.1413,-1.69,1.71,0.97,0,0.000,81.225,-1.090,2.334,0.000,0.000,0.000,0.000,0.000,0.000
9,-0.0024,0.0599,-0.0243,-0.0282,0.5133,-0.1397,-0.89,1.73,0.98,0,0.000,89.758,-1.316,2.987,0.000,0.000,0.000,0.000,0.000,0.000
10,-0.0052,0.0747,-0.0194,-0.0440,0.5644,-0.1063,0.27,1.72,0.99,0,0.000,89.765,1.055,2.206,0.000,0.000,0.000,0.000,0.000,0.000
10,-0.0073,0.0806,-0.0208,-0.0551,0.5688,-0.1022,1.09,1.81,1.00,0,0.000,89.745,3.591,3.641,0.000,0.000,0.000,0.000,0.000,0.000
10,-0.0080,0.0850,-0.0208,-0.0590,0.5637,-0.0901,1.97,1.85,1.00,0,0.000,101.174,3.049,5.356,0.000,0.000,0.000,0.000,0.000,0.000
10,-0.0082,0.0852,-0.0170,-0.0604,0.5333,-0.0555,2.93,1.93,1.01,0,0.000,105.707,-0.603,5.881,0.000,0.000,0.000,0.000,0.000,0.000
10,-0.0110,0.0953,-0.0122,-0.0749,0.5532,-0.0224,4.13,1.99,1.03,0,0.000,112.476,5.066,4.651,0.000,0.000,0.000,0.000,0.000,0.000
10,-0.0132,0.0993,-0.0117,-0.0854,0.5414,-0.0102,5.26,2.09,1.06,0,0.000,111.560,9.745,4.692,0.000,0.000,0.000,0.000,0.000,0.000
10,-0.0167,0.1047,-0.0122,-0.1024,0.5361,-0.0034,6.61,2.04,1.08,0,0.000,93.440,17.165,6.071,0.000,0.000,0.000,0.000,0.000,0.000
10,-0.0191,0.1069,-0.0105,-0.1128,0.5107,0.0157,7.79,2.02,1.10,0,0.000,67.806,21.834,6.870,0.000,0.000,0.000,0.000,0.000,0.000
10,-0.0230,0.1109,-0.0104,-0.1309,0.4956,0.0227,8.79,1.87,1.16,0,0.000,42.526,24.062,5.788,0.000,0.000,0.000,0.000,0.000,0.000
10,-0.0250,0.1115,-0.0079,-0.1378,0.4592,0.0425,9.65,1.67,1.22,0,0.000,17.086,21.860,5.868,0.000,0.000,0.000,0.000,0.000,0.000
10,-0.0292,0.1137,-0.0035,-0.1555,0.4297,0.0684,10.13,1.54,1.29,0,0.000,-9.666,21.959,6.716,0.000,0.000,0.000,0.000,0.000,0.000
10,-0.0316,0.1132,-0.0017,-0.1625,0.3886,0.0763,10.64,1.50,1.35,0,0.000,-32.225,26.452,7.502,0.000,0.000,0.000,0.000,0.000,0.000
10,-0.0341,0.1098,0.0004,-0.1698,0.3341,0.0825,10.71,1.26,1.42,0,0.000,-55.559,32.353,5.800,0.000,0.000,0.000,0.000,0.000,0.000
10,-0.0377,0.1084,0.0014,-0.1819,0.2927,0.0801,10.71,1.14,1.53,0,0.000,-78.482,37.449,4.138,0.000,0.000,0.000,0.000,0.000,0.000
10,-0.0433,0.0993,0.0016,-0.2036,0.2139,0.0750,10.27,0.80,1.61,0,0.000,-90.508,41.140,1.312,0.000,0.000,0.000,0.000,0.000,0.000
10,-0.0453,0.0941,0.0021,-0.2050,0.1591,0.0696,9.64,0.56,1.74,0,0.000,-103.751,40.165,1.587,0.000,0.000,0.000,0.000,0.000,0.000
10,-0.0508,0.0843,0.0010,-0.2251,0.0856,0.0563,8.84,0.14,1.80,0,0.000,-105.806,44.012,-0.896,0.000,0.000,0.000,0.000,0.000,0.000
10,-0.0529,0.0793,0.0006,-0.2254,0.0399,0.0475,8.36,-0.23,1.85,0,0.000,-98.700,42.303,-1.085,0.000,0.000,0.000,0.000,0.000,0.000
10,-0.0582,0.0738,-0.0012,-0.2423,-0.0037,0.0328,7.56,-0.70,1.85,0,0.000,-93.276,42.042,-2.972,0.000,0.000,0.000,0.000,0.000,0.000
10,-0.0600,0.0690,-0.0020,-0.2388,-0.0414,0.0257,6.56,-0.97,1.97,0,0.000,-85.152,41.124,-3.503,0.000,0.000,0.000,0.000,0.000,0.000
10,-0.0634,0.0536,-0.0032,-0.2441,-0.1290,0.0214,5.55,-1.38,1.98,0,0.000,-73.107,49.346,-4.993,0.000,0.000,0.000,0.000,0.000,0.000
10,-0.0645,0.0461,-0.0046,-0.2362,-0.1716,0.0156,5.26,-1.85,1.97,0,0.000,-73.909,54.118,-3.224,0.000,0.000,0.000,0.000,0.000,0.000
10,-0.0700,0.0453,-0.0048,-0.2508,-0.1779,0.0138,4.66,-2.39,1.96,0,0.000,-66.022,54.557,-3.133,0.000,0.000,0.000,0.000,0.000,0.000
10,-0.0729,0.0472,-0.0034,-0.2495,-0.1702,0.0219,4.10,-2.94,2.01,0,0.000,-53.826,56.840,-3.035,0.000,0.000,0.000,0.000,0.000,0.000
10,-0.0756,0.0322,-0.0014,-0.2475,-0.2466,0.0398,3.35,-3.59,1.95,0,0.000,-44.782,47.888,-5.761,0.000,0.000,0.000,0.000,0.000,0.000
10,-0.0771,0.0256,-0.0019,-0.2366,-0.2741,0.0378,2.76,-4.12,1.91,0,0.000,-45.955,40.675,-5.652,0.000,0.000,0.000,0.000,0.000,0.000
10,-0.0800,0.0172,-0.0037,-0.2351,-0.3095,0.0310,2.43,-4.60,1.87,0,0.000,-50.937,37.491,-5.215,0.000,0.000,0.000,0.000,0.000,0.000
10,-0.0808,0.0184,-0.0011,-0.2194,-0.2939,0.0480,2.30,-5.07,1.84,0,0.000,-56.001,31.138,-5.365,0.000,0.000,0.000,0.000,0.000,0.000
10,-0.0830,0.0183,0.0006,-0.2113,-0.2844,0.0604,1.82,-5.47,1.78,0,0.000,-62.949,20.183,-4.968,0.000,0.000,0.000,0.000,0.000,0.000
10,-0.0838,0.0122,0.0001,-0.1966,-0.3047,0.0594,1.01,-5.75,1.67,0,0.000,-70.131,13.110,-5.751,0.000,0.000,0.000,0.000,0.000,0.000
10,-0.0839,-0.0006,0.0035,-0.1772,-0.3577,0.0789,0.36,-5.95,1.60,0,0.000,-80.771,9.459,-4.334,0.000,0.000,0.000,0.000,0.000,0.000
10,-0.0841,-0.0057,0.0038,-0.1597,-0.3682,0.0794,-0.59,-6.10,1.47,0,0.000,-90.568,3.669,-5.008,0.000,0.000,0.000,0.000,0.000,0.000
10,-0.0855,-0.0045,0.0068,-0.1480,-0.3445,0.0928,-1.14,-6.23,1.50,0,0.000,-88.179,-3.989,-6.322,0.000,0.000,0.000,0.000,0.000,0.000
10,-0.0858,-0.0088,0.0075,-0.1318,-0.3492,0.0922,-2.26,-6.28,1.34,0,0.000,-78.757,-19.449,-6.944,0.000,0.000,0.000,0.000,0.000,0.000
10,-0.0871,-0.0099,0.0154,-0.1189,-0.3337,0.1300,-3.21,-6.17,1.22,0,0.000,-68.810,-33.007,-4.742,0.000,0.000,0.000,0.000,0.000,0.000
10,-0.0858,-0.0207,0.0147,-0.0956,-0.3704,0.1220,-4.14,-5.94,1.08,0,0.000,-54.927,-39.673,-4.094,0.000,0.000,0.000,0.000,0.000,0.000
10,-0.0855,-0.0194,0.0178,-0.0782,-0.3396,0.1360,-4.84,-5.63,0.99,0,0.000,-40.067,-35.374,-3.367,0.000,0.000,0.000,0.000,0.000,0.000
10,-0.0858,-0.0203,0.0199,-0.0645,-0.3210,0.1435,-5.25,-5.34,0.98,0,0.000,-27.590,-29.414,-1.726,0.000,0.000,0.000,0.000,0.000,0.000
10,-0.0854,-0.0190,0.0227,-0.0492,-0.2900,0.1532,-5.46,-5.16,1.02,0,0.000,-17.429,-17.812,-1.185,0.000,0.000,0.000,0.000,0.000,0.000
10,-0.0838,-0.0195,0.0248,-0.0284,-0.2688,0.1586,-5.73,-4.97,0.98,0,0.000,-6.671,-4.357,-2.472,0.000,0.000,0.000,0.000,0.000,0.000
10,-0.0819,-0.0235,0.0271,-0.0080,-0.2658,0.1643,-5.83,-4.98,0.96,0,0.000,8.075,3.845,-4.436,0.000,0.000,0.000,0.000,0.000,0.000
10,-0.0787,-0.0288,0.0282,0.0181,-0.2701,0.1614,-5.90,-4.99,0.87,0,0.000,13.222,4.945,-5.545,0.000,0.000,0.000,0.000,0.000,0.000
10,-0.0778,-0.0296,0.0300,0.0299,-0.2506,0.1616,-5.96,-5.16,0.72,0,0.000,14.334,-3.459,-5.296,0.000,0.000,0.000,0.000,0.000,0.000
10,-0.0751,-0.0323,0.0313,0.0503,-0.2419,0.1577,-5.81,-5.28,0.68,0,0.000,14.507,-14.107,-4.753,0.000,0.000,0.000,0.000,0.000,0.000
10,-0.0746,-0.0328,0.0347,0.0583,-0.2211,0.1648,-5.59,-5.00,0.67,0,0.000,5.410,-28.369,-4.389,0.000,0.000,0.000,0.000,0.000,0.000
10,-0.0709,-0.0307,0.0364,0.0825,-0.1895,0.1631,-5.53,-4.74,0.63,0,0.000,7.009,-45.362,-5.771,0.000,0.000,0.000,0.000,0.000,0.000
10,-0.0670,-0.0329,0.0375,0.1071,-0.1816,0.1556,-5.25,-4.27,0.73,0,0.000,2.881,-55.310,-5.231,0.000,0.000,0.000,0.000,0.000,0.000
10,-0.0703,-0.0369,0.0398,0.0922,-0.1834,0.1527,-5.24,-3.79,0.72,0,0.000,-0.723,-62.484,-5.581,0.000,0.000,0.000,0.000,0.000,0.000
10,-0.0698,-0.0378,0.0415,0.0974,-0.1698,0.1483,-5.27,-3.29,0.71,0,0.000,-3.970,-64.444,-6.306,0.000,0.000,0.000,0.000,0.000,0.000
10,-0.0709,-0.0451,0.0427,0.0937,-0.1897,0.1390,-5.31,-2.48,0.67,0,0.000,1.872,-61.804,-7.808,0.000,0.000,0.000,0.000,0.000,0.000
10,-0.0691,-0.0460,0.0428,0.1039,-0.1771,0.1278,-5.33,-1.75,0.62,0,0.000,3.194,-52.938,-7.889,0.000,0.000,0.000,0.000,0.000,0.000
10,-0.0656,-0.0466,0.0439,0.1218,-0.1628,0.1225,-5.27,-1.11,0.60,0,0.000,6.787,-41.885,-9.046,0.000,0.000,0.000,0.000,0.000,0.000
10,-0.0685,-0.0481,0.0457,0.1045,-0.1536,0.1201,-5.13,-0.40,0.51,0,0.000,11.856,-31.901,-10.049,0.000,0.000,0.000,0.000,0.000,0.000
10,-0.0695,-0.0492,0.0472,0.0964,-0.1433,0.1161,-5.06,-0.16,0.48,0,0.000,15.105,-21.821,-10.652,0.000,0.000,0.000,0.000,0.000,0.000
10,-0.0699,-0.0523,0.0504,0.0910,-0.1421,0.1201,-4.96,0.20,0.34,0,0.000,14.938,-16.009,-10.717,0.000,0.000,0.000,0.000,0.000,0.000
11,-0.0750,-0.0555,0.0517,0.0604,-0.1432,0.1145,-4.85,0.38,0.24,0,0.000,13.502,-8.135,-10.281,0.000,0.000,0.000,0.000,0.000,0.000
11,-0.0713,-0.0564,0.0529,0.0768,-0.1321,0.1106,-4.50,0.66,0.14,0,0.000,9.683,-5.690,-8.520,0.000,0.000,0.000,0.000,0.000,0.000
11,-0.0727,-0.0565,0.0542,0.0648,-0.1180,0.1076,-4.44,0.57,0.11,0,0.000,8.389,-6.915,-8.817,0.000,0.000,0.000,0.000,0.000,0.000
11,-0.0718,-0.0565,0.0553,0.0654,-0.1043,0.1056,-4.30,0.83,-0.04,0,0.000,8.039,-4.835,-8.826,0.000,0.000,0.000,0.000,0.000,0.000
11,-0.0754,-0.0624,0.0561,0.0428,-0.1218,0.0998,-4.21,0.96,-0.15,0,0.000,5.916,-6.212,-9.345,0.000,0.000,0.000,0.000,0.000,0.000
11,-0.0708,-0.0627,0.0590,0.0626,-0.1085,0.1079,-4.17,1.03,-0.25,0,0.000,3.853,-3.951,-9.910,0.000,0.000,0.000,0.000,0.000,0.000
11,-0.0745,-0.0649,0.0600,0.0387,-0.1075,0.1047,-4.09,1.13,-0.35,0,0.000,0.314,-0.560,-10.251,0.000,0.000,0.000,0.000,0.000,0.000
11,-0.0758,-0.0659,0.0610,0.0285,-0.1004,0.1022,-4.10,1.11,-0.43,0,0.000,1.390,2.106,-9.353,0.000,0.000,0.000,0.000,0.000,0.000
11,-0.0755,-0.0660,0.0621,0.0270,-0.0890,0.1005,-4.09,1.19,-0.56,0,0.000,1.012,1.042,-8.648,0.000,0.000,0.000,0.000,0.000,0.000
11,-0.0758,-0.0683,0.0667,0.0212,-0.0884,0.1158,-4.14,1.12,-0.63,0,0.000,2.262,4.008,-9.019,0.000,0.000,0.000,0.000,0.000,0.000
11,-0.0747,-0.0679,0.0680,0.0240,-0.0751,0.1143,-4.13,1.25,-0.80,0,0.000,11.722,5.710,-9.464,0.000,0.000,0.000,0.000,0.000,0.000
11,-0.0765,-0.0688,0.0690,0.0114,-0.0694,0.1113,-4.00,1.32,-0.95,0,0.000,19.250,8.802,-7.952,0.000,0.000,0.000,0.000,0.000,0.000
11,-0.0746,-0.0678,0.0704,0.0183,-0.0529,0.1094,-3.90,1.20,-1.03,0,0.000,26.280,9.144,-7.501,0.000,0.000,0.000,0.000,0.000,0.000
11,-0.0781,-0.0682,0.0714,-0.0032,-0.0456,0.1068,-3.76,0.96,-1.04,0,0.000,26.456,9.373,-7.459,0.000,0.000,0.000,0.000,0.000,0.000
11,-0.0812,-0.0693,0.0722,-0.0213,-0.0431,0.1036,-3.55,0.76,-1.07,0,0.000,28.754,10.130,-6.558,0.000,0.000,0.000,0.000,0.000,0.000
11,-0.0805,-0.0682,0.0692,-0.0169,-0.0289,0.0810,-3.37,0.52,-1.08,0,0.000,31.127,14.746,-7.890,0.000,0.000,0.000,0.000,0.000,0.000
11,-0.0769,-0.0660,0.0702,0.0012,-0.0095,0.0809,-3.03,0.49,-1.20,0,0.000,30.265,16.538,-8.912,0.000,0.000,0.000,0.000,0.000,0.000
11,-0.0742,-0.0648,0.0710,0.0138,0.0035,0.0796,-2.84,0.26,-1.26,0,0.000,29.848,13.198,-9.040,0.000,0.000,0.000,0.000,0.000,0.000
11,-0.0706,-0.0621,0.0716,0.0312,0.0234,0.0777,-2.52,0.22,-1.41,0,0.000,23.854,12.407,-8.214,0.000,0.000,0.000,0.000,0.000,0.000
11,-0.0726,-0.0625,0.0718,0.0188,0.0246,0.0739,-2.32,0.06,-1.48,0,0.000,18.621,2.586,-6.707,0.000,0.000,0.000,0.000,0.000,0.000
11,-0.0707,-0.0596,0.0724,0.0271,0.0437,0.0728,-2.09,0.20,-1.64,0,0.000,15.624,-2.849,-4.841,0.000,0.000,0.000,0.000,0.000,0.000
11,-0.0729,-0.0594,0.0732,0.0139,0.0458,0.0734,-1.93,0.33,-1.73,0,0.000,21.787,-6.000,-3.798,0.000,0.000,0.000,0.000,0.000,0.000
11,-0.0717,-0.0574,0.0738,0.0195,0.0581,0.0731,-1.77,0.29,-1.74,0,0.000,25.159,-4.345,-4.196,0.000,0.000,0.000,0.000,0.000,0.000
11,-0.0762,-0.0576,0.0748,-0.0049,0.0567,0.0756,-1.65,0.15,-1.69,0,0.000,26.301,-4.812,-2.085,0.000,0.000,0.000,0.000,0.000,0.000
11,-0.0787,-0.0567,0.0755,-0.0181,0.0611,0.0760,-1.33,0.30,-1.77,0,0.000,23.871,-2.526,-2.262,0.000,0.000,0.000,0.000,0.000,0.000
11,-0.0770,-0.0564,0.0660,-0.0068,0.0646,0.0243,-1.18,0.23,-1.74,0,0.000,20.626,1.503,-3.126,0.000,0.000,0.000,0.000,0.000,0.000
11,-0.0723,-0.0528,0.0661,0.0171,0.0832,0.0242,-0.93,0.31,-1.80,0,0.000,16.655,4.929,-2.921,0.000,0.000,0.000,0.000,0.000,0.000
11,-0.0748,-0.0531,0.0665,0.0030,0.0791,0.0272,-0.87,0.20,-1.80,0,0.000,16.459,3.332,-1.686,0.000,0.000,0.000,0.000,0.000,0.000
11,-0.0722,-0.0502,0.0666,0.0154,0.0925,0.0291,-0.65,0.30,-1.88,0,0.000,18.553,2.684,-1.777,0.000,0.000,0.000,0.000,0.000,0.000
11,-0.0743,-0.0512,0.0600,0.0043,0.0854,-0.0023,-0.54,0.17,-1.85,0,0.000,22.243,2.138,-0.680,0.000,0.000,0.000,0.000,0.000,0.000
11,-0.0724,-0.0479,0.0598,0.0135,0.0995,0.0006,-0.26,0.33,-1.92,0,0.000,22.013,-5.948,0.876,0.000,0.000,0.000,0.000,0.000,0.000
11,-0.0756,-0.0481,0.0600,-0.0040,0.0944,0.0060,-0.05,0.48,-1.94,0,0.000,20.555,-15.117,1.769,0.000,0.000,0.000,0.000,0.000,0.000
11,-0.0733,-0.0456,0.0600,0.0076,0.1033,0.0105,0.14,0.51,-1.91,0,0.000,28.644,-10.232,2.372,0.000,0.000,0.000,0.000,0.000,0.000
11,-0.0778,-0.0458,0.0604,-0.0163,0.0971,0.0186,0.48,0.77,-1.93,0,0.000,27.977,-4.697,3.425,0.000,0.000,0.000,0.000,0.000,0.000
11,-0.0801,-0.0446,0.0605,-0.0283,0.0982,0.0254,0.68,0.68,-1.85,0,0.000,26.645,6.139,3.555,0.000,0.000,0.000,0.000,0.000,0.000
11,-0.0784,-0.0440,0.0551,-0.0186,0.0978,0.0044,1.01,0.71,-1.84,0,0.000,24.776,14.590,2.259,0.000,0.000,0.000,0.000,0.000,0.000
11,-0.0818,-0.0448,0.0553,-0.0365,0.0874,0.0116,1.22,0.51,-1.80,0,0.000,17.477,17.244,2.249,0.000,0.000,0.000,0.000,0.000,0.000
11,-0.0784,-0.0421,0.0556,-0.0185,0.0961,0.0198,1.46,0.54,-1.80,0,0.000,8.817,14.138,3.150,0.000,0.000,0.000,0.000,0.000,0.000
11,-0.0804,-0.0425,0.0559,-0.0288,0.0870,0.0282,1.57,0.50,-1.78,0,0.000,5.527,6.536,2.805,0.000,0.000,0.000,0.000,0.000,0.000
11,-0.0788,-0.0412,0.0525,-0.0205,0.0886,0.0199,1.62,0.35,-1.74,0,0.000,2.620,4.693,4.121,0.000,0.000,0.000,0.000,0.000,0.000
11,-0.0839,-0.0414,0.0527,-0.0467,0.0797,0.0305,1.72,0.34,-1.71,0,0.000,1.691,2.722,5.939,0.000,0.000,0.000,0.000,0.000,0.000
11,-0.0869,-0.0406,0.0529,-0.0610,0.0767,0.0405,1.83,0.47,-1.68,0,0.000,-0.006,9.215,6.284,0.000,0.000,0.000,0.000,0.000,0.000
11,-0.0859,-0.0397,0.0535,-0.0534,0.0746,0.0520,1.72,0.19,-1.60,0,0.000,-2.526,9.683,6.249,0.000,0.000,0.000,0.000,0.000,0.000
11,-0.0874,-0.0404,0.0540,-0.0589,0.0638,0.0613,1.68,0.04,-1.53,0,0.000,-7.246,9.521,6.452,0.000,0.000,0.000,0.000,0.000,0.000
11,-0.0918,-0.0416,0.0544,-0.0795,0.0508,0.0688,1.69,0.03,-1.48,0,0.000,-8.944,14.074,5.866,0.000,0.000,0.000,0.000,0.000,0.000
11,-0.0874,-0.0389,0.0545,-0.0531,0.0598,0.0757,1.69,-0.01,-1.42,0,0.000,-8.432,17.380,5.921,0.000,0.000,0.000,0.000,0.000,0.000
11,-0.0866,-0.0380,0.0554,-0.0462,0.0583,0.0866,1.64,-0.08,-1.36,0,0.000,-6.262,16.641,6.439,0.000,0.000,0.000,0.000,0.000,0.000
11,-0.0890,-0.0391,0.0563,-0.0561,0.0460,0.0983,1.56,-0.37,-1.30,0,0.000,-6.156,16.604,6.485,0.000,0.000,0.000,0.000,0.000,0.000
11,-0.0919,-0.0402,0.0572,-0.0684,0.0344,0.1100,1.53,-0.45,-1.23,0,0.000,-4.277,12.339,6.787,0.000,0.000,0.000,0.000,0.000,0.000
11,-0.0948,-0.0404,0.0594,-0.0802,0.0282,0.1266,1.56,-0.52,-1.16,0,0.000,-5.127,-0.117,7.169,0.000,0.000,0.000,0.000,0.000,0.000
11,-0.0926,-0.0397,0.0610,-0.0632,0.0273,0.1388,1.53,-0.59,-1.10,0,0.000,-8.011,-18.111,7.446,0.000,0.000,0.000,0.000,0.000,0.000
11,-0.0953,-0.0403,0.0623,-0.0733,0.0200,0.1484,1.45,-0.63,-1.06,0,0.000,-7.410,-23.245,7.902,0.000,0.000,0.000,0.000,0.000,0.000
11,-0.0977,-0.0419,0.0636,-0.0815,0.0072,0.1581,1.39,-0.34,-0.98,0,0.000,-7.185,-16.662,7.197,0.000,0.000,0.000,0.000,0.000,0.000
11,-0.0979,-0.0421,0.0653,-0.0769,0.0028,0.1696,1.31,-0.23,-0.92,0,0.000,-9.825,-6.313,7.315,0.000,0.000,0.000,0.000,0.000,0.000
11,-0.0948,-0.0415,0.0675,-0.0554,0.0037,0.1817,1.12,-0.11,-0.83,0,0.000,-11.688,4.982,6.191,0.000,0.000,0.000,0.000,0.000,0.000
11,-0.0968,-0.0420,0.0686,-0.0627,-0.0019,0.1854,0.86,-0.18,-0.76,0,0.000,-8.544,15.784,3.752,0.000,0.000,0.000,0.000,0.000,0.000
11,-0.0955,-0.0419,0.0708,-0.0516,-0.0039,0.1938,0.76,-0.37,-0.73,0,0.000,-9.553,21.681,3.256,0.000,0.000,0.000,0.000,0.000,0.000
11,-0.0963,-0.0399,0.0728,-0.0528,0.0058,0.2004,0.79,-0.50,-0.69,0,0.000,-4.273,27.127,2.188,0.000,0.000,0.000,0.000,0.000,0.000
12,-0.0955,-0.0365,0.0750,-0.0456,0.0226,0.2071,0.73,-0.84,-0.67,0,0.000,-3.573,16.296,2.180,0.000,0.000,0.000,0.000,0.000,0.000
12,-0.0947,-0.0363,0.0801,-0.0376,0.0207,0.2293,0.76,-1.04,-0.66,0,0.000,-5.337,9.152,2.820,0.000,0.000,0.000,0.000,0.000,0.000
12,-0.0968,-0.0386,0.0824,-0.0459,0.0054,0.2371,0.70,-1.22,-0.65,0,0.000,-5.910,4.006,2.841,0.000,0.000,0.000,0.000,0.000,0.000
12,-0.0956,-0.0383,0.0849,-0.0352,0.0052,0.2453,0.55,-1.51,-0.66,0,0.000,-5.669,0.012,2.145,0.000,0.000,0.000,0.000,0.000,0.000
12,-0.0954,-0.0402,0.0874,-0.0301,-0.0067,0.2539,0.47,-1.57,-0.65,0,0.000,-6.076,-2.445,2.349,0.000,0.000,0.000,0.000,0.000,0.000
12,-0.0937,-0.0402,0.0900,-0.0171,-0.0074,0.2620,0.37,-1.58,-0.63,0,0.000,-3.420,-1.911,1.980,0.000,0.000,0.000,0.000,0.000,0.000
12,-0.0881,-0.0382,0.0926,0.0166,0.0027,0.2686,0.25,-1.70,-0.63,0,0.000,-3.068,-6.952,1.841,0.000,0.000,0.000,0.000,0.000,0.000
12,-0.0870,-0.0377,0.0996,0.0253,0.0043,0.2957,0.19,-1.69,-0.62,0,0.000,0.917,-7.916,0.644,0.000,0.000,0.000,0.000,0.000,0.000
12,-0.0860,-0.0368,0.1025,0.0317,0.0083,0.3000,0.19,-1.63,-0.61,0,0.000,-1.733,-11.459,1.742,0.000,0.000,0.000,0.000,0.000,0.000
12,-0.0824,-0.0349,0.1052,0.0525,0.0176,0.3026,0.14,-1.59,-0.62,0,0.000,1.934,-13.262,1.462,0.000,0.000,0.000,0.000,0.000,0.000
12,-0.0805,-0.0339,0.1081,0.0626,0.0218,0.3054,0.15,-1.44,-0.60,0,0.000,4.324,-13.641,1.666,0.000,0.000,0.000,0.000,0.000,0.000
12,-0.0795,-0.0337,0.1136,0.0675,0.0215,0.3217,0.20,-1.35,-0.59,0,0.000,4.631,-14.998,1.426,0.000,0.000,0.000,0.000,0.000,0.000
12,-0.0773,-0.0325,0.1167,0.0782,0.0263,0.3245,0.21,-1.21,-0.58,0,0.000,5.079,-16.730,1.150,0.000,0.000,0.000,0.000,0.000,0.000
12,-0.0769,-0.0322,0.1200,0.0787,0.0265,0.3280,0.28,-1.08,-0.57,0,0.000,5.619,-16.134,0.865,0.000,0.000,0.000,0.000,0.000,0.000
12,-0.0750,-0.0322,0.1232,0.0870,0.0246,0.3304,0.31,-0.94,-0.57,0,0.000,5.821,-18.492,0.851,0.000,0.000,0.000,0.000,0.000,0.000
12,-0.0740,-0.0311,0.1264,0.0897,0.0287,0.3322,0.37,-0.78,-0.57,0,0.000,9.713,-19.273,-0.674,0.000,0.000,0.000,0.000,0.000,0.000
12,-0.0723,-0.0311,0.1297,0.0961,0.0265,0.3331,0.45,-0.59,-0.58,0,0.000,5.769,-16.302,0.263,0.000,0.000,0.000,0.000,0.000,0.000
12,-0.0708,-0.0304,0.1308,0.1003,0.0282,0.3231,0.51,-0.42,-0.58,0,0.000,3.826,-17.117,-0.266,0.000,0.000,0.000,0.000,0.000,0.000
12,-0.0692,-0.0302,0.1340,0.1047,0.0275,0.3232,0.55,-0.28,-0.58,0,0.000,2.614,-17.170,-0.454,0.000,0.000,0.000,0.000,0.000,0.000
12,-0.0681,-0.0294,0.1372,0.1056,0.0290,0.3230,0.57,-0.09,-0.59,0,0.000,1.965,-16.207,-0.451,0.000,0.000,0.000,0.000,0.000,0.000
12,-0.0671,-0.0291,0.1404,0.1062,0.0286,0.3223,0.58,0.10,-0.58,0,0.000,1.556,-15.236,-0.203,0.000,0.000,0.000,0.000,0.000,0.000
12,-0.0652,-0.0287,0.1455,0.1111,0.0283,0.3310,0.62,0.26,-0.59,0,0.000,1.359,-14.693,-0.718,0.000,0.000,0.000,0.000,0.000,0.000
12,-0.0646,-0.0283,0.1489,0.1084,0.0281,0.3304,0.57,0.43,-0.59,0,0.000,0.172,-15.147,-1.536,0.000,0.000,0.000,0.000,0.000,0.000
12,-0.0645,-0.0278,0.1522,0.1035,0.0279,0.3299,0.60,0.63,-0.60,0,0.000,2.765,-11.691,-0.981,0.000,0.000,0.000,0.000,0.000,0.000
12,-0.0635,-0.0278,0.1555,0.1025,0.0258,0.3287,0.63,0.73,-0.61,0,0.000,0.332,-12.733,-1.011,0.000,0.000,0.000,0.000,0.000,0.000
12,-0.0634,-0.0260,0.1588,0.0975,0.0325,0.3275,0.59,0.89,-0.62,0,0.000,-1.270,-12.414,-1.526,0.000,0.000,0.000,0.000,0.000,0.000
12,-0.0638,-0.0259,0.1622,0.0897,0.0304,0.3267,0.56,1.04,-0.62,0,0.000,-0.338,-10.874,-0.839,0.000,0.000,0.000,0.000,0.000,0.000
12,-0.0623,-0.0260,0.1617,0.0917,0.0273,0.3062,0.57,1.15,-0.64,0,0.000,-2.622,-7.780,-1.084,0.000,0.000,0.000,0.000,0.000,0.000
12,-0.0622,-0.0246,0.1648,0.0863,0.0315,0.3041,0.55,1.23,-0.65,0,0.000,3.203,-3.627,-2.094,0.000,0.000,0.000,0.000,0.000,0.000
12,-0.0620,-0.0241,0.1678,0.0811,0.0314,0.3015,0.51,1.31,-0.66,0,0.000,-0.202,-2.334,-0.929,0.000,0.000,0.000,0.000,0.000,0.000
12,-0.0612,-0.0238,0.1708,0.0792,0.0305,0.2989,0.52,1.34,-0.67,0,0.000,5.867,3.350,-2.717,0.000,0.000,0.000,0.000,0.000,0.000
12,-0.0604,-0.0235,0.1743,0.0772,0.0296,0.2991,0.55,1.23,-0.71,0,0.000,2.317,3.238,-1.265,0.000,0.000,0.000,0.000,0.000,0.000
12,-0.0607,-0.0217,0.1773,0.0704,0.0359,0.2967,0.58,1.21,-0.72,0,0.000,4.159,4.032,-1.334,0.000,0.000,0.000,0.000,0.000,0.000
12,-0.0599,-0.0212,0.1802,0.0683,0.0358,0.2940,0.59,1.15,-0.74,0,0.000,3.386,5.291,-1.946,0.000,0.000,0.000,0.000,0.000,0.000
12,-0.0570,-0.0207,0.1831,0.0767,0.0354,0.2908,0.63,1.12,-0.75,0,0.000,4.691,4.338,-2.425,0.000,0.000,0.000,0.000,0.000,0.000
12,-0.0562,-0.0204,0.1860,0.0747,0.0345,0.2876,0.66,1.09,-0.77,0,0.000,4.821,2.971,-2.505,0.000,0.000,0.000,0.000,0.000,0.000
12,-0.0549,-0.0196,0.1888,0.0753,0.0355,0.2845,0.70,1.06,-0.79,0,0.000,4.277,2.529,-2.456,0.000,0.000,0.000,0.000,0.000,0.000
12,-0.0550,-0.0195,0.1886,0.0701,0.0331,0.2662,0.72,1.07,-0.80,0,0.000,1.864,-0.134,-2.703,0.000,0.000,0.000,0.000,0.000,0.000
12,-0.0547,-0.0190,0.1912,0.0666,0.0329,0.2631,0.75,1.08,-0.83,0,0.000,1.032,-1.494,-3.021,0.000,0.000,0.000,0.000,0.000,0.000
12,-0.0540,-0.0187,0.1939,0.0648,0.0318,0.2596,0.76,1.09,-0.85,0,0.000,1.216,-1.717,-2.757,0.000,0.000,0.000,0.000,0.000,0.000
12,-0.0543,-0.0183,0.1967,0.0587,0.0306,0.2555,0.77,1.12,-0.88,0,0.000,1.864,-1.601,-2.737,0.000,0.000,0.000,0.000,0.000,0.000
12,-0.0537,-0.0183,0.2023,0.0565,0.0284,0.2674,0.72,1.13,-0.90,0,0.000,0.513,-0.821,-2.631,0.000,0.000,0.000,0.000,0.000,0.000
12,-0.0532,-0.0180,0.2050,0.0547,0.0271,0.2641,0.71,1.15,-0.92,0,0.000,0.265,-3.331,-4.112,0.000,0.000,0.000,0.000,0.000,0.000
12,-0.0533,-0.0179,0.2076,0.0499,0.0251,0.2607,0.69,1.20,-0.96,0,0.000,-2.225,-1.935,-3.142,0.000,0.000,0.000,0.000,0.000,0.000
12,-0.0524,-0.0159,0.2102,0.0499,0.0313,0.2569,0.69,1.19,-0.99,0,0.000,-1.036,0.344,-2.636,0.000,0.000,0.000,0.000,0.000,0.000
12,-0.0523,-0.0155,0.2127,0.0462,0.0306,0.2533,0.68,1.24,-1.01,0,0.000,-0.037,0.945,-4.214,0.000,0.000,0.000,0.000,0.000,0.000
12,-0.0525,-0.0145,0.2152,0.0416,0.0322,0.2494,0.69,1.25,-1.05,0,0.000,1.023,3.160,-2.943,0.000,0.000,0.000,0.000,0.000,0.000
12,-0.0510,-0.0145,0.2190,0.0442,0.0299,0.2517,0.71,1.20,-1.08,0,0.000,-0.844,3.721,-3.568,0.000,0.000,0.000,0.000,0.000,0.000
12,-0.0525,-0.0139,0.2215,0.0342,0.0304,0.2475,0.70,1.16,-1.11,0,0.000,2.960,5.165,-2.782,0.000,0.000,0.000,0.000,0.000,0.000
12,-0.0535,-0.0141,0.2215,0.0301,0.0294,0.2476,0.70,1.08,-1.15,0,0.000,-0.258,5.391,-3.177,0.000,0.000,0.000,0.000,0.000,0.000
12,-0.0525,-0.0140,0.2239,0.0309,0.0277,0.2435,0.74,1.08,-1.17,0,0.000,6.049,8.477,-3.718,0.000,0.000,0.000,0.000,0.000,0.000
12,-0.0523,-0.0137,0.2266,0.0286,0.0266,0.2405,0.80,0.96,-1.21,0,0.000,1.231,6.602,-2.513,0.000,0.000,0.000,0.000,0.000,0.000
12,-0.0506,-0.0124,0.2290,0.0322,0.0294,0.2361,0.82,0.86,-1.25,0,0.000,1.386,7.270,-3.267,0.000,0.000,0.000,0.000,0.000,0.000
12,-0.0527,-0.0133,0.2313,0.0211,0.0237,0.2320,0.82,0.87,-1.27,0,0.000,3.596,6.097,-3.589,0.000,0.000,0.000,0.000,0.000,0.000
12,-0.0510,-0.0133,0.2336,0.0251,0.0217,0.2278,0.82,0.90,-1.28,0,0.000,-0.304,6.166,-2.883,0.000,0.000,0.000,0.000,0.000,0.000
12,-0.0495,-0.0133,0.2359,0.0281,0.0196,0.2237,0.80,0.80,-1.31,0,0.000,-1.474,6.586,-3.490,0.000,0.000,0.000,0.000,0.000,0.000
12,-0.0520,-0.0124,0.2381,0.0162,0.0212,0.2196,0.78,0.73,-1.34,0,0.000,-0.130,5.852,-3.011,0.000,0.000,0.000,0.000,0.000,0.000
13,-0.0556,-0.0107,0.2393,0.0012,0.0254,0.2098,0.77,0.67,-1.38,0,0.000,-4.729,5.667,-2.946,0.000,0.000,0.000,0.000,0.000,0.000
13,-0.0541,-0.0099,0.2414,0.0050,0.0259,0.2054,0.75,0.60,-1.41,0,0.000,-1.537,5.577,-2.648,0.000,0.000,0.000,0.000,0.000,0.000
13,-0.0541,-0.0097,0.2434,0.0036,0.0246,0.2008,0.73,0.54,-1.44,0,0.000,-1.544,6.153,-3.000,0.000,0.000,0.000,0.000,0.000,0.000
13,-0.0540,-0.0094,0.2454,0.0024,0.0234,0.1965,0.70,0.49,-1.46,0,0.000,-1.594,5.496,-3.004,0.000,0.000,0.000,0.000,0.000,0.000
13,-0.0535,-0.0097,0.2492,0.0029,0.0202,0.2021,0.67,0.41,-1.50,0,0.000,-0.726,5.283,-3.204,0.000,0.000,0.000,0.000,0.000,0.000
13,-0.0534,-0.0093,0.2512,0.0024,0.0200,0.1977,0.65,0.39,-1.52,0,0.000,-0.479,5.736,-2.962,0.000,0.000,0.000,0.000,0.000,0.000
13,-0.0539,-0.0091,0.2532,-0.0004,0.0187,0.1937,0.64,0.31,-1.56,0,0.000,-0.941,5.428,-2.546,0.000,0.000,0.000,0.000,0.000,0.000
13,-0.0530,-0.0087,0.2551,0.0019,0.0185,0.1895,0.62,0.25,-1.58,0,0.000,-0.062,5.494,-2.005,0.000,0.000,0.000,0.000,0.000,0.000
13,-0.0546,-0.0085,0.2570,-0.0044,0.0173,0.1856,0.61,0.18,-1.60,0,0.000,-0.695,5.711,-2.009,0.000,0.000,0.000,0.000,0.000,0.000
13,-0.0534,-0.0085,0.2588,-0.0007,0.0158,0.1816,0.59,0.12,-1.62,0,0.000,-1.585,4.803,-2.387,0.000,0.000,0.000,0.000,0.000,0.000
13,-0.0534,-0.0083,0.2603,-0.0013,0.0147,0.1766,0.57,0.12,-1.64,0,0.000,-1.264,4.440,-2.310,0.000,0.000,0.000,0.000,0.000,0.000
13,-0.0528,-0.0079,0.2621,0.0002,0.0147,0.1729,0.55,0.05,-1.66,0,0.000,-2.047,5.179,-1.675,0.000,0.000,0.000,0.000,0.000,0.000
13,-0.0526,-0.0074,0.2638,0.0005,0.0148,0.1689,0.52,-0.04,-1.68,0,0.000,-3.260,3.868,-1.069,0.000,0.000,0.000,0.000,0.000,0.000
13,-0.0548,-0.0073,0.2655,-0.0069,0.0139,0.1650,0.49,-0.06,-1.69,0,0.000,-3.451,2.603,-1.261,0.000,0.000,0.000,0.000,0.000,0.000
13,-0.0539,-0.0072,0.2686,-0.0039,0.0128,0.1694,0.46,-0.13,-1.71,0,0.000,-4.033,1.805,-0.962,0.000,0.000,0.000,0.000,0.000,0.000
13,-0.0522,-0.0071,0.2703,0.0017,0.0118,0.1656,0.42,-0.13,-1.71,0,0.000,-2.848,1.339,-0.479,0.000,0.000,0.000,0.000,0.000,0.000
13,-0.0532,-0.0069,0.2720,-0.0018,0.0110,0.1616,0.39,-0.13,-1.71,0,0.000,-2.803,0.401,-0.283,0.000,0.000,0.000,0.000,0.000,0.000
13,-0.0515,-0.0069,0.2736,0.0037,0.0102,0.1577,0.36,-0.15,-1.72,0,0.000,-2.739,-0.150,-0.223,0.000,0.000,0.000,0.000,0.000,0.000
13,-0.0527,-0.0066,0.2766,0.0003,0.0090,0.1501,0.33,-0.19,-1.72,0,0.000,-2.039,0.527,0.149,0.000,0.000,0.000,0.000,0.000,0.000
13,-0.0531,-0.0065,0.2766,-0.0009,0.0091,0.1501,0.31,-0.15,-1.72,0,0.000,-2.349,0.103,0.453,0.000,0.000,0.000,0.000,0.000,0.000
13,-0.0527,-0.0064,0.2786,0.0008,0.0079,0.1379,0.29,-0.15,-1.71,0,0.000,-2.436,-0.407,0.609,0.000,0.000,0.000,0.000,0.000,0.000
13,-0.0505,-0.0059,0.2786,0.0073,0.0092,0.1379,0.28,-0.24,-1.71,0,0.000,-2.977,-0.968,0.518,0.000,0.000,0.000,0.000,0.000,0.000
13,-0.0522,-0.0057,0.2813,0.0024,0.0083,0.1305,0.26,-0.10,-1.69,0,0.000,-1.829,1.703,1.101,0.000,0.000,0.000,0.000,0.000,0.000
13,-0.0522,-0.0057,0.2813,0.0024,0.0083,0.1305,0.20,-0.09,-1.68,0,0.000,-1.784,-1.250,1.175,0.000,0.000,0.000,0.000,0.000,0.000
13,-0.0476,-0.0057,0.2852,0.0164,0.0069,0.1302,0.21,-0.08,-1.67,0,0.000,-0.295,0.468,0.842,0.000,0.000,0.000,0.000,0.000,0.000
13,-0.0545,-0.0056,0.2853,-0.0042,0.0073,0.1303,0.21,-0.11,-1.66,0,0.000,-1.288,-1.659,1.126,0.000,0.000,0.000,0.000,0.000,0.000
13,-0.0555,-0.0026,0.2878,-0.0064,0.0147,0.1236,0.22,-0.09,-1.65,0,0.000,0.479,-0.124,0.895,0.000,0.000,0.000,0.000,0.000,0.000
13,-0.0554,-0.0041,0.2878,-0.0063,0.0103,0.1236,0.23,-0.09,-1.64,0,0.000,0.382,2.114,0.801,0.000,0.000,0.000,0.000,0.000,0.000
13,-0.0541,-0.0040,0.2891,-0.0021,0.0097,0.1198,0.20,-0.10,-1.63,0,0.000,1.776,4.562,0.968,0.000,0.000,0.000,0.000,0.000,0.000
13,-0.0542,-0.0049,0.2903,-0.0020,0.0066,0.1163,0.21,-0.20,-1.62,0,0.000,0.906,4.621,2.134,0.000,0.000,0.000,0.000,0.000,0.000
13,-0.0542,-0.0058,0.2926,-0.0019,0.0035,0.1189,0.23,-0.24,-1.60,0,0.000,3.500,4.515,1.958,0.000,0.000,0.000,0.000,0.000,0.000
13,-0.0540,-0.0039,0.2937,-0.0011,0.0084,0.1155,0.25,-0.29,-1.59,0,0.000,2.357,2.587,1.827,0.000,0.000,0.000,0.000,0.000,0.000
13,-0.0509,-0.0036,0.2949,0.0079,0.0087,0.1121,0.30,-0.31,-1.57,0,0.000,1.844,4.037,1.943,0.000,0.000,0.000,0.000,0.000,0.000
13,-0.0507,-0.0032,0.2960,0.0086,0.0091,0.1087,0.30,-0.35,-1.54,0,0.000,0.410,2.266,2.871,0.000,0.000,0.000,0.000,0.000,0.000
13,-0.0506,-0.0031,0.2970,0.0090,0.0087,0.1049,0.29,-0.36,-1.52,0,0.000,1.448,2.353,2.664,0.000,0.000,0.000,0.000,0.000,0.000
13,-0.0509,-0.0047,0.2981,0.0082,0.0038,0.1011,0.34,-0.49,-1.50,0,0.000,-0.371,0.251,3.140,0.000,0.000,0.000,0.000,0.000,0.000
13,-0.0508,-0.0041,0.2991,0.0088,0.0047,0.0978,0.36,-0.50,-1.47,0,0.000,-2.133,-3.207,2.257,0.000,0.000,0.000,0.000,0.000,0.000
13,-0.0507,-0.0037,0.3000,0.0093,0.0052,0.0948,0.34,-0.47,-1.45,0,0.000,-3.065,-2.177,2.515,0.000,0.000,0.000,0.000,0.000,0.000
13,-0.0444,-0.0060,0.3009,0.0270,-0.0017,0.0916,0.31,-0.47,-1.42,0,0.000,-0.645,0.434,3.330,0.000,0.000,0.000,0.000,0.000,0.000
13,-0.0434,-0.0070,0.3018,0.0297,-0.0050,0.0882,0.32,-0.45,-1.39,0,0.000,-2.519,-2.777,3.700,0.000,0.000,0.000,0.000,0.000,0.000
13,-0.0429,-0.0069,0.3011,0.0309,-0.0050,0.0762,0.30,-0.43,-1.36,0,0.000,-2.569,-5.259,2.612,0.000,0.000,0.000,0.000,0.000,0.000
13,-0.0418,-0.0068,0.3018,0.0339,-0.0053,0.0729,0.27,-0.32,-1.32,0,0.000,-2.413,-5.085,4.009,0.000,0.000,0.000,0.000,0.000,0.000
13,-0.0424,-0.0078,0.3025,0.0320,-0.0084,0.0698,0.25,-0.39,-1.29,0,0.000,-2.902,-6.579,3.732,0.000,0.000,0.000,0.000,0.000,0.000
13,-0.0416,-0.0082,0.3032,0.0342,-0.0098,0.0666,0.22,-0.34,-1.26,0,0.000,-2.738,-7.672,3.323,0.000,0.000,0.000,0.000,0.000,0.000
13,-0.0445,-0.0081,0.3035,0.0263,-0.0097,0.0617,0.20,-0.26,-1.22,0,0.000,-2.359,-7.315,2.971,0.000,0.000,0.000,0.000,0.000,0.000
13,-0.0369,-0.0087,0.3041,0.0459,-0.0116,0.0585,0.17,-0.19,-1.19,0,0.000,-3.131,-8.492,3.383,0.000,0.000,0.000,0.000,0.000,0.000
13,-0.0355,-0.0092,0.3047,0.0489,-0.0129,0.0554,0.15,-0.11,-1.15,0,0.000,-1.840,-8.153,3.321,0.000,0.000,0.000,0.000,0.000,0.000
13,-0.0358,-0.0096,0.3052,0.0475,-0.0141,0.0532,0.14,-0.13,-1.13,0,0.000,-1.063,-7.542,3.324,0.000,0.000,0.000,0.000,0.000,0.000
13,-0.0356,-0.0095,0.3058,0.0473,-0.0138,0.0513,0.13,-0.06,-1.09,0,0.000,-0.860,-6.635,3.468,0.000,0.000,0.000,0.000,0.000,0.000
13,-0.0348,-0.0100,0.3063,0.0484,-0.0149,0.0496,0.12,0.00,-1.06,0,0.000,-0.923,-7.758,3.236,0.000,0.000,0.000,0.000,0.000,0.000
13,-0.0276,-0.0112,0.3047,0.0656,-0.0179,0.0365,0.11,0.07,-1.02,0,0.000,-1.889,-7.950,3.351,0.000,0.000,0.000,0.000,0.000,0.000
13,-0.0262,-0.0117,0.3050,0.0677,-0.0190,0.0344,0.10,0.15,-0.99,0,0.000,0.893,-5.618,3.291,0.000,0.000,0.000,0.000,0.000,0.000
13,-0.0253,-0.0116,0.3054,0.0682,-0.0185,0.0326,0.12,0.23,-0.96,0,0.000,-1.452,-6.844,2.849,0.000,0.000,0.000,0.000,0.000,0.000
13,-0.0250,-0.0116,0.3057,0.0673,-0.0182,0.0311,0.10,0.36,-0.93,0,0.000,-4.571,-11.697,2.833,0.000,0.000,0.000,0.000,0.000,0.000
14,-0.0247,-0.0117,0.3060,0.0662,-0.0180,0.0298,0.06,0.50,-0.90,0,0.000,-2.300,-7.640,3.661,0.000,0.000,0.000,0.000,0.000,0.000
14,-0.0251,-0.0129,0.3063,0.0635,-0.0207,0.0285,0.04,0.58,-0.87,0,0.000,-4.465,-9.324,3.677,0.000,0.000,0.000,0.000,0.000,0.000
14,-0.0280,-0.0126,0.3066,0.0543,-0.0198,0.0273,-0.01,0.67,-0.83,0,0.000,-5.660,-8.828,4.492,0.000,0.000,0.000,0.000,0.000,0.000
14,-0.0297,-0.0136,0.3068,0.0481,-0.0219,0.0263,-0.06,0.75,-0.79,0,0.000,-3.881,-5.426,4.453,0.000,0.000,0.000,0.000,0.000,0.000
14,-0.0293,-0.0138,0.3071,0.0473,-0.0220,0.0255,-0.09,0.85,-0.74,0,0.000,-3.508,-3.391,4.123,0.000,0.000,0.000,0.000,0.000,0.000
14,-0.0290,-0.0136,0.3074,0.0459,-0.0210,0.0247,-0.12,0.86,-0.70,0,0.000,-3.559,-2.093,4.564,0.000,0.000,0.000,0.000,0.000,0.000
14,-0.0285,-0.0138,0.3073,0.0447,-0.0209,0.0229,-0.15,0.87,-0.65,0,0.000,-1.490,0.288,4.682,0.000,0.000,0.000,0.000,0.000,0.000
14,-0.0308,-0.0149,0.3076,0.0369,-0.0229,0.0226,-0.18,0.87,-0.61,0,0.000,-2.901,1.760,5.635,0.000,0.000,0.000,0.000,0.000,0.000
14,-0.0289,-0.0153,0.3078,0.0391,-0.0232,0.0226,-0.20,0.86,-0.55,0,0.000,-1.741,3.696,5.499,0.000,0.000,0.000,0.000,0.000,0.000
14,-0.0277,-0.0159,0.3080,0.0396,-0.0237,0.0227,-0.19,0.79,-0.50,0,0.000,-1.142,3.851,4.867,0.000,0.000,0.000,0.000,0.000,0.000
14,-0.0273,-0.0161,0.3082,0.0382,-0.0234,0.0221,-0.21,0.77,-0.45,0,0.000,0.720,4.310,4.308,0.000,0.000,0.000,0.000,0.000,0.000
14,-0.0278,-0.0166,0.3084,0.0346,-0.0239,0.0219,-0.22,0.72,-0.40,0,0.000,0.504,4.167,4.301,0.000,0.000,0.000,0.000,0.000,0.000
14,-0.0248,-0.0186,0.3086,0.0393,-0.0277,0.0219,-0.21,0.69,-0.36,0,0.000,-0.527,4.353,4.791,0.000,0.000,0.000,0.000,0.000,0.000
14,-0.0253,-0.0186,0.3088,0.0360,-0.0265,0.0222,-0.22,0.57,-0.31,0,0.000,-1.686,3.344,5.482,0.000,0.000,0.000,0.000,0.000,0.000
14,-0.0249,-0.0188,0.3090,0.0347,-0.0261,0.0228,-0.22,0.53,-0.26,0,0.000,-1.422,3.534,5.173,0.000,0.000,0.000,0.000,0.000,0.000
14,-0.0254,-0.0194,0.3093,0.0316,-0.0266,0.0232,-0.23,0.48,-0.21,0,0.000,-0.985,1.660,4.275,0.000,0.000,0.000,0.000,0.000,0.000
14,-0.0194,-0.0195,0.3102,0.0434,-0.0255,0.0270,-0.23,0.45,-0.17,0,0.000,-1.631,-0.167,5.240,0.000,0.000,0.000,0.000,0.000,0.000
14,-0.0179,-0.0202,0.3104,0.0450,-0.0262,0.0273,-0.23,0.44,-0.12,0,0.000,-0.862,-0.487,5.013,0.000,0.000,0.000,0.000,0.000,0.000
14,-0.0164,-0.0208,0.3107,0.0465,-0.0268,0.0277,-0.24,0.47,-0.07,0,0.000,-1.923,-1.986,4.561,0.000,0.000,0.000,0.000,0.000,0.000
14,-0.0150,-0.0216,0.3110,0.0479,-0.0275,0.0282,-0.25,0.39,-0.03,0,0.000,-3.508,-2.615,4.753,0.000,0.000,0.000,0.000,0.000,0.000
14,-0.0137,-0.0223,0.3116,0.0491,-0.0281,0.0303,-0.27,0.41,0.02,0,0.000,-3.566,-3.005,4.729,0.000,0.000,0.000,0.000,0.000,0.000
14,-0.0146,-0.0222,0.3119,0.0451,-0.0269,0.0308,-0.29,0.44,0.06,0,0.000,-3.375,-3.273,4.465,0.000,0.000,0.000,0.000,0.000,0.000
14,-0.0068,-0.0236,0.3122,0.0612,-0.0290,0.0312,-0.33,0.46,0.11,0,0.000,-3.216,-3.765,3.766,0.000,0.000,0.000,0.000,0.000,0.000
14,-0.0062,-0.0239,0.3125,0.0605,-0.0286,0.0321,-0.36,0.50,0.14,0,0.000,-4.713,-3.738,4.234,0.000,0.000,0.000,0.000,0.000,0.000
14,-0.0050,-0.0244,0.3128,0.0612,-0.0286,0.0328,-0.40,0.56,0.18,0,0.000,-4.011,-4.515,3.447,0.000,0.000,0.000,0.000,0.000,0.000
14,-0.0038,-0.0241,0.3131,0.0618,-0.0268,0.0333,-0.44,0.62,0.21,0,0.000,-3.072,-4.782,3.414,0.000,0.000,0.000,0.000,0.000,0.000
14,-0.0026,-0.0254,0.3134,0.0622,-0.0286,0.0335,-0.47,0.61,0.24,0,0.000,-2.787,-4.514,3.092,0.000,0.000,0.000,0.000,0.000,0.000
14,-0.0037,-0.0251,0.3137,0.0575,-0.0268,0.0341,-0.49,0.66,0.27,0,0.000,-2.367,-3.766,2.913,0.000,0.000,0.000,0.000,0.000,0.000
14,-0.0041,-0.0257,0.3141,0.0544,-0.0267,0.0345,-0.52,0.70,0.31,0,0.000,-2.070,-5.175,3.205,0.000,0.000,0.000,0.000,0.000,0.000
14,0.0016,-0.0262,0.3144,0.0647,-0.0266,0.0350,-0.53,0.72,0.34,0,0.000,-0.952,-5.106,2.597,0.000,0.000,0.000,0.000,0.000,0.000
14,0.0027,-0.0267,0.3153,0.0647,-0.0263,0.0380,-0.53,0.77,0.36,0,0.000,0.743,-2.693,2.431,0.000,0.000,0.000,0.000,0.000,0.000
14,0.0029,-0.0265,0.3157,0.0628,-0.0245,0.0381,-0.53,0.83,0.39,0,0.000,1.285,-2.174,2.520,0.000,0.000,0.000,0.000,0.000,0.000
14,0.0049,-0.0272,0.3160,0.0645,-0.0246,0.0382,-0.52,0.86,0.41,0,0.000,0.381,-2.767,2.383,0.000,0.000,0.000,0.000,0.000,0.000
14,0.0047,-0.0280,0.3164,0.0614,-0.0249,0.0386,-0.50,0.90,0.44,0,0.000,-0.030,-1.611,2.214,0.000,0.000,0.000,0.000,0.000,0.000
14,0.0036,-0.0280,0.3168,0.0563,-0.0234,0.0390,-0.51,0.96,0.46,0,0.000,0.296,-1.475,1.719,0.000,0.000,0.000,0.000,0.000,0.000
14,0.0042,-0.0282,0.3172,0.0549,-0.0225,0.0392,-0.51,0.98,0.48,0,0.000,0.270,-0.440,1.772,0.000,0.000,0.000,0.000,0.000,0.000
14,0.0039,-0.0298,0.3158,0.0517,-0.0246,0.0299,-0.52,0.98,0.50,0,0.000,-0.281,-0.213,1.796,0.000,0.000,0.000,0.000,0.000,0.000
14,0.0005,-0.0297,0.3161,0.0416,-0.0230,0.0301,-0.53,0.98,0.52,0,0.000,-0.725,0.019,1.758,0.000,0.000,0.000,0.000,0.000,0.000
14,0.0009,-0.0299,0.3164,0.0400,-0.0221,0.0306,-0.52,0.66,0.54,0,0.000,-0.997,1.626,1.275,0.000,0.000,0.000,0.000,0.000,0.000
14,0.0013,-0.0301,0.3167,0.0383,-0.0213,0.0311,-0.53,0.63,0.55,0,0.000,1.389,4.664,0.809,0.000,0.000,0.000,0.000,0.000,0.000
14,0.0017,-0.0303,0.3153,0.0366,-0.0204,0.0227,-0.52,0.59,0.56,0,0.000,-0.852,2.325,0.768,0.000,0.000,0.000,0.000,0.000,0.000
14,0.0273,-0.0317,0.3155,0.0896,-0.0221,0.0225,-0.51,0.58,0.57,0,0.000,-0.339,1.307,0.678,0.000,0.000,0.000,0.000,0.000,0.000
14,0.0289,-0.0317,0.3158,0.0901,-0.0207,0.0226,-0.52,0.55,0.57,0,0.000,-1.422,2.161,1.112,0.000,0.000,0.000,0.000,0.000,0.000
14,0.0297,-0.0325,0.3160,0.0887,-0.0209,0.0232,-0.53,0.54,0.58,0,0.000,-1.052,-2.848,-0.267,0.000,0.000,0.000,0.000,0.000,0.000
14,0.0296,-0.0334,0.3162,0.0856,-0.0216,0.0236,-0.53,0.58,0.58,0,0.000,3.306,-5.288,-0.748,0.000,0.000,0.000,0.000,0.000,0.000
14,0.0305,-0.0336,0.3165,0.0846,-0.0207,0.0240,-0.49,0.63,0.57,0,0.000,2.843,-9.983,-0.660,0.000,0.000,0.000,0.000,0.000,0.000
14,0.0309,-0.0334,0.3169,0.0828,-0.0190,0.0256,-0.47,0.77,0.56,0,0.000,0.602,-9.449,-0.594,0.000,0.000,0.000,0.000,0.000,0.000
14,0.0318,-0.0336,0.3172,0.0819,-0.0181,0.0263,-0.47,0.90,0.56,0,0.000,-1.729,-9.922,-0.528,0.000,0.000,0.000,0.000,0.000,0.000
14,0.0327,-0.0346,0.3175,0.0811,-0.0189,0.0268,-0.48,1.03,0.56,0,0.000,0.718,-11.830,-1.300,0.000,0.000,0.000,0.000,0.000,0.000
14,0.0307,-0.0347,0.3177,0.0741,-0.0180,0.0271,-0.48,1.15,0.55,0,0.000,-4.171,-8.369,-0.129,0.000,0.000,0.000,0.000,0.000,0.000
14,0.0289,-0.0345,0.3180,0.0673,-0.0165,0.0274,-0.51,1.27,0.54,0,0.000,-1.523,-9.481,-0.940,0.000,0.000,0.000,0.000,0.000,0.000
14,0.0262,-0.0346,0.3183,0.0587,-0.0156,0.0278,-0.52,1.40,0.53,0,0.000,-1.698,-7.522,-1.151,0.000,0.000,0.000,0.000,0.000,0.000
14,0.0262,-0.0345,0.3186,0.0558,-0.0141,0.0284,-0.55,1.46,0.52,0,0.000,-0.268,-1.105,-1.012,0.000,0.000,0.000,0.000,0.000,0.000
14,0.0244,-0.0344,0.3189,0.0488,-0.0129,0.0291,-0.56,1.42,0.52,0,0.000,0.508,2.196,-0.607,0.000,0.000,0.000,0.000,0.000,0.000
14,0.0211,-0.0352,0.3192,0.0388,-0.0134,0.0296,-0.55,1.41,0.51,0,0.000,-1.321,2.830,-0.206,0.000,0.000,0.000,0.000,0.000,0.000
14,0.0225,-0.0349,0.3195,0.0384,-0.0116,0.0301,-0.55,1.37,0.50,0,0.000,3.104,5.654,-1.395,0.000,0.000,0.000,0.000,0.000,0.000
15,0.0261,-0.0356,0.3191,0.0427,-0.0120,0.0277,-0.52,1.32,0.49,0,0.000,1.029,8.340,-1.026,0.000,0.000,0.000,0.000,0.000,0.000
15,0.0265,-0.0358,0.3194,0.0402,-0.0111,0.0286,-0.53,1.23,0.48,0,0.000,4.031,13.401,-1.245,0.000,0.000,0.000,0.000,0.000,0.000
15,0.0268,-0.0368,0.3197,0.0375,-0.0121,0.0292,-0.48,1.12,0.46,0,0.000,5.130,11.188,-1.257,0.000,0.000,0.000,0.000,0.000,0.000
15,0.0263,-0.0369,0.3200,0.0335,-0.0111,0.0296,-0.41,0.99,0.45,0,0.000,8.571,10.470,-2.397,0.000,0.000,0.000,0.000,0.000,0.000
15,0.0262,-0.0344,0.3223,0.0299,-0.0047,0.0403,-0.34,0.88,0.43,0,0.000,4.438,10.024,-0.481,0.000,0.000,0.000,0.000,0.000,0.000
15,0.0252,-0.0355,0.3227,0.0250,-0.0061,0.0408,-0.27,0.78,0.41,0,0.000,7.923,7.276,-1.952,0.000,0.000,0.000,0.000,0.000,0.000
15,0.0276,-0.0362,0.3231,0.0276,-0.0066,0.0414,-0.19,0.72,0.39,0,0.000,6.133,6.943,-1.995,0.000,0.000,0.000,0.000,0.000,0.000
15,0.0283,-0.0356,0.3235,0.0268,-0.0045,0.0421,-0.13,0.65,0.37,0,0.000,5.898,3.934,-2.629,0.000,0.000,0.000,0.000,0.000,0.000
15,0.0296,-0.0362,0.3239,0.0275,-0.0050,0.0425,-0.07,0.59,0.35,0,0.000,4.975,4.162,-1.937,0.000,0.000,0.000,0.000,0.000,0.000
15,0.0299,-0.0362,0.3244,0.0261,-0.0046,0.0426,-0.04,0.55,0.33,0,0.000,0.400,0.387,-2.034,0.000,0.000,0.000,0.000,0.000,0.000
15,0.0302,-0.0359,0.3255,0.0251,-0.0035,0.0464,-0.01,0.56,0.31,0,0.000,0.880,-0.536,-1.971,0.000,0.000,0.000,0.000,0.000,0.000
15,0.0315,-0.0362,0.3260,0.0260,-0.0039,0.0462,-0.03,0.57,0.29,0,0.000,-3.299,2.077,-1.348,0.000,0.000,0.000,0.000,0.000,0.000
15,0.0332,-0.0362,0.3264,0.0281,-0.0036,0.0459,-0.06,0.55,0.27,0,0.000,-0.615,0.359,-2.887,0.000,0.000,0.000,0.000,0.000,0.000
15,0.0314,-0.0364,0.3269,0.0229,-0.0039,0.0455,-0.07,0.56,0.24,0,0.000,-1.688,-0.449,-2.935,0.000,0.000,0.000,0.000,0.000,0.000
15,0.0317,-0.0364,0.3280,0.0220,-0.0038,0.0489,-0.08,0.55,0.22,0,0.000,-4.523,0.925,-1.505,0.000,0.000,0.000,0.000,0.000,0.000
15,0.0325,-0.0363,0.3285,0.0222,-0.0034,0.0483,-0.12,0.54,0.20,0,0.000,-4.283,2.859,-1.886,0.000,0.000,0.000,0.000,0.000,0.000
15,0.0315,-0.0361,0.3290,0.0188,-0.0030,0.0479,-0.15,0.50,0.18,0,0.000,-2.468,3.406,-2.941,0.000,0.000,0.000,0.000,0.000,0.000
15,0.0315,-0.0367,0.3295,0.0175,-0.0040,0.0473,-0.15,0.46,0.16,0,0.000,2.336,2.279,-4.023,0.000,0.000,0.000,0.000,0.000,0.000
15,0.0308,-0.0364,0.3300,0.0148,-0.0032,0.0466,-0.11,0.26,0.12,0,0.000,3.242,2.296,-4.084,0.000,0.000,0.000,0.000,0.000,0.000
15,0.0310,-0.0365,0.3304,0.0139,-0.0030,0.0460,-0.09,0.22,0.09,0,0.000,3.038,5.330,-3.424,0.000,0.000,0.000,0.000,0.000,0.000
15,0.0311,-0.0375,0.3289,0.0132,-0.0048,0.0353,-0.05,0.17,0.05,0,0.000,5.005,5.134,-3.323,0.000,0.000,0.000,0.000,0.000,0.000
15,0.0466,-0.0378,0.3293,0.0437,-0.0050,0.0342,0.01,0.12,0.02,0,0.000,5.599,1.045,-4.768,0.000,0.000,0.000,0.000,0.000,0.000
15,0.0477,-0.0371,0.3296,0.0446,-0.0032,0.0336,0.03,0.11,-0.03,0,0.000,2.114,0.406,-3.521,0.000,0.000,0.000,0.000,0.000,0.000
15,0.0481,-0.0371,0.3299,0.0442,-0.0031,0.0328,0.04,0.14,-0.06,0,0.000,-1.901,-7.430,-4.118,0.000,0.000,0.000,0.000,0.000,0.000
15,0.0486,-0.0371,0.3301,0.0439,-0.0030,0.0315,0.02,0.22,-0.10,0,0.000,-1.446,-9.265,-4.038,0.000,0.000,0.000,0.000,0.000,0.000
15,0.0503,-0.0363,0.3305,0.0462,-0.0012,0.0304,-0.03,0.33,-0.14,0,0.000,-5.887,-14.165,-3.890,0.000,0.000,0.000,0.000,0.000,0.000
15,0.0496,-0.0354,0.3308,0.0437,0.0005,0.0297,-0.10,0.46,-0.17,0,0.000,-6.643,-15.867,-4.133,0.000,0.000,0.000,0.000,0.000,0.000
15,0.0500,-0.0354,0.3311,0.0435,0.0005,0.0293,-0.17,0.65,-0.21,0,0.000,-11.766,-14.728,-2.214,0.000,0.000,0.000,0.000,0.000,0.000
15,0.0498,-0.0348,0.3313,0.0418,0.0016,0.0290,-0.27,0.84,-0.24,0,0.000,-10.212,-13.928,-3.197,0.000,0.000,0.000,0.000,0.000,0.000
15,0.0513,-0.0351,0.3316,0.0435,0.0010,0.0287,-0.38,0.98,-0.27,0,0.000,-7.869,-12.265,-3.899,0.000,0.000,0.000,0.000,0.000,0.000
15,0.0491,-0.0352,0.3308,0.0372,0.0009,0.0226,-0.46,1.14,-0.31,0,0.000,-3.945,-9.729,-3.753,0.000,0.000,0.000,0.000,0.000,0.000
15,0.0459,-0.0355,0.3310,0.0290,0.0007,0.0224,-0.49,1.22,-0.35,0,0.000,-0.144,-5.930,-3.804,0.000,0.000,0.000,0.000,0.000,0.000
15,0.0462,-0.0354,0.3312,0.0276,0.0012,0.0222,-0.48,1.27,-0.38,0,0.000,3.924,-0.075,-3.807,0.000,0.000,0.000,0.000,0.000,0.000
15,0.0431,-0.0358,0.3314,0.0193,0.0011,0.0221,-0.45,1.27,-0.42,0,0.000,3.604,0.435,-3.270,0.000,0.000,0.000,0.000,0.000,0.000
15,0.0433,-0.0358,0.3318,0.0173,0.0018,0.0232,-0.42,1.27,-0.45,0,0.000,5.034,3.562,-3.093,0.000,0.000,0.000,0.000,0.000,0.000
15,0.0432,-0.0369,0.3320,0.0146,0.0005,0.0239,-0.37,1.20,-0.48,0,0.000,6.079,2.671,-3.828,0.000,0.000,0.000,0.000,0.000,0.000
15,0.0433,-0.0369,0.3323,0.0125,0.0014,0.0244,-0.32,1.15,-0.52,0,0.000,6.470,6.494,-4.721,0.000,0.000,0.000,0.000,0.000,0.000
15,0.0434,-0.0369,0.3325,0.0103,0.0022,0.0246,-0.26,1.12,-0.57,0,0.000,4.604,7.299,-4.902,0.000,0.000,0.000,0.000,0.000,0.000
15,0.0457,-0.0373,0.3328,0.0125,0.0020,0.0250,-0.22,1.05,-0.62,0,0.000,3.917,6.971,-5.505,0.000,0.000,0.000,0.000,0.000,0.000
15,0.0462,-0.0367,0.3331,0.0110,0.0039,0.0256,-0.17,0.96,-0.68,0,0.000,3.492,6.107,-5.825,0.000,0.000,0.000,0.000,0.000,0.000
15,0.0426,-0.0371,0.3315,0.0018,0.0036,0.0175,-0.15,0.88,-0.74,0,0.000,1.542,6.014,-6.794,0.000,0.000,0.000,0.000,0.000,0.000
15,0.0432,-0.0365,0.3317,0.0009,0.0051,0.0184,-0.13,0.79,-0.81,0,0.000,0.259,5.164,-7.231,0.000,0.000,0.000,0.000,0.000,0.000
15,0.0448,-0.0368,0.3319,0.0023,0.0047,0.0190,-0.12,0.77,-0.89,0,0.000,1.856,5.818,-7.321,0.000,0.000,0.000,0.000,0.000,0.000
15,0.0455,-0.0361,0.3321,0.0020,0.0064,0.0197,-0.11,0.69,-0.96,0,0.000,0.230,4.783,-7.310,0.000,0.000,0.000,0.000,0.000,0.000
15,0.0479,-0.0363,0.3334,0.0052,0.0062,0.0264,-0.09,0.65,-1.04,0,0.000,2.791,3.733,-7.989,0.000,0.000,0.000,0.000,0.000,0.000
15,0.0453,-0.0363,0.3337,-0.0014,0.0063,0.0268,-0.07,0.61,-1.12,0,0.000,3.285,2.057,-8.139,0.000,0.000,0.000,0.000,0.000,0.000
15,0.0476,-0.0363,0.3340,0.0019,0.0063,0.0269,-0.05,0.59,-1.19,0,0.000,3.189,-0.077,-7.222,0.000,0.000,0.000,0.000,0.000,0.000
15,0.0476,-0.0363,0.3342,0.0007,0.0065,0.0271,-0.00,0.57,-1.27,0,0.000,4.164,-0.255,-7.304,0.000,0.000,0.000,0.000,0.000,0.000
15,0.0488,-0.0363,0.3345,0.0019,0.0064,0.0275,0.06,0.57,-1.34,0,0.000,9.690,3.826,-7.639,0.000,0.000,0.000,0.000,0.000,0.000
15,0.0480,-0.0347,0.3348,-0.0007,0.0096,0.0282,0.15,0.52,-1.42,0,0.000,5.361,-0.537,-8.396,0.000,0.000,0.000,0.000,0.000,0.000
15,0.0499,-0.0352,0.3343,0.0021,0.0085,0.0251,0.21,0.54,-1.51,0,0.000,7.721,0.238,-8.136,0.000,0.000,0.000,0.000,0.000,0.000
15,0.0492,-0.0359,0.3345,-0.0004,0.0071,0.0257,0.28,0.55,-1.59,0,0.000,4.415,-0.434,-6.822,0.000,0.000,0.000,0.000,0.000,0.000
15,0.0512,-0.0364,0.3348,0.0027,0.0058,0.0262,0.32,0.56,-1.65,0,0.000,1.663,2.080,-6.323,0.000,0.000,0.000,0.000,0.000,0.000
15,0.0502,-0.0362,0.3351,-0.0003,0.0060,0.0264,0.33,0.55,-1.72,0,0.000,-1.210,4.221,-5.291,0.000,0.000,0.000,0.000,0.000,0.000
15,0.0500,-0.0357,0.3356,-0.0015,0.0065,0.0281,0.29,0.54,-1.77,0,0.000,-5.149,3.930,-5.483,0.000,0.000,0.000,0.000,0.000,0.000
15,0.0500,-0.0356,0.3359,-0.0025,0.0061,0.0286,0.26,0.46,-1.82,0,0.000,0.659,6.811,-5.876,0.000,0.000,0.000,0.000,0.000,0.000
15,0.0484,-0.0356,0.3362,-0.0067,0.0054,0.0292,0.24,0.40,-1.88,0,0.000,0.429,6.069,-4.273,0.000,0.000,0.000,0.000,0.000,0.000
16,0.0468,-0.0353,0.3365,-0.0107,0.0054,0.0296,0.27,0.32,-1.92,0,0.000,7.602,6.284,-5.240,0.000,0.000,0.000,0.000,0.000,0.000
16,0.0502,-0.0354,0.3368,-0.0045,0.0046,0.0301,0.34,0.26,-1.97,0,0.000,6.784,4.652,-3.508,0.000,0.000,0.000,0.000,0.000,0.000
16,0.0497,-0.0353,0.3371,-0.0063,0.0043,0.0309,0.45,0.19,-2.01,0,0.000,13.692,1.580,-3.470,0.000,0.000,0.000,0.000,0.000,0.000
16,0.0511,-0.0358,0.3382,-0.0041,0.0029,0.0362,0.59,0.19,-2.03,0,0.000,15.098,-3.449,-1.506,0.000,0.000,0.000,0.000,0.000,0.000
16,0.0506,-0.0362,0.3386,-0.0056,0.0015,0.0374,0.77,0.26,-2.04,0,0.000,18.226,-6.434,-0.069,0.000,0.000,0.000,0.000,0.000,0.000
16,0.0536,-0.0375,0.3390,0.0001,-0.0015,0.0387,0.96,0.37,-2.04,0,0.000,20.613,-10.484,1.250,0.000,0.000,0.000,0.000,0.000,0.000
16,0.0534,-0.0377,0.3394,-0.0008,-0.0027,0.0403,1.16,0.46,-2.02,0,0.000,16.150,-8.222,4.257,0.000,0.000,0.000,0.000,0.000,0.000
16,0.0510,-0.0390,0.3399,-0.0058,-0.0061,0.0422,1.28,0.54,-1.98,0,0.000,10.714,-5.834,6.387,0.000,0.000,0.000,0.000,0.000,0.000
16,0.0492,-0.0387,0.3403,-0.0097,-0.0068,0.0434,1.36,0.58,-1.91,0,0.000,2.435,0.060,8.164,0.000,0.000,0.000,0.000,0.000,0.000
16,0.0512,-0.0401,0.3407,-0.0063,-0.0110,0.0444,1.35,0.56,-1.82,0,0.000,1.277,5.270,8.597,0.000,0.000,0.000,0.000,0.000,0.000
16,0.0508,-0.0383,0.3412,-0.0078,-0.0091,0.0448,1.36,0.52,-1.74,0,0.000,-0.518,9.239,7.713,0.000,0.000,0.000,0.000,0.000,0.000
16,0.0507,-0.0384,0.3416,-0.0088,-0.0113,0.0450,1.34,0.37,-1.65,0,0.000,-10.059,14.953,10.134,0.000,0.000,0.000,0.000,0.000,0.000
16,0.0511,-0.0365,0.3421,-0.0090,-0.0098,0.0447,1.23,0.19,-1.54,0,0.000,-13.206,16.000,9.808,0.000,0.000,0.000,0.000,0.000,0.000
16,0.0490,-0.0366,0.3425,-0.0140,-0.0119,0.0441,1.12,0.01,-1.45,0,0.000,-12.839,16.031,10.877,0.000,0.000,0.000,0.000,0.000,0.000
16,0.0519,-0.0388,0.3429,-0.0088,-0.0183,0.0440,0.98,-0.16,-1.33,0,0.000,-15.216,14.460,11.360,0.000,0.000,0.000,0.000,0.000,0.000
16,0.0542,-0.0379,0.3434,-0.0049,-0.0185,0.0437,0.82,-0.26,-1.22,0,0.000,-14.663,9.287,11.989,0.000,0.000,0.000,0.000,0.000,0.000
16,0.0554,-0.0390,0.3438,-0.0027,-0.0222,0.0426,0.67,-0.35,-1.09,0,0.000,-13.778,5.193,12.938,0.000,0.000,0.000,0.000,0.000,0.000
16,0.0567,-0.0397,0.3437,-0.0003,-0.0251,0.0390,0.54,-0.38,-0.96,0,0.000,-16.302,-1.850,14.251,0.000,0.000,0.000,0.000,0.000,0.000
16,0.0548,-0.0393,0.3441,-0.0038,-0.0256,0.0388,0.38,-0.35,-0.81,0,0.000,-17.751,-5.751,14.741,0.000,0.000,0.000,0.000,0.000,0.000
16,0.0562,-0.0391,0.3445,-0.0006,-0.0259,0.0387,0.22,-0.29,-0.66,0,0.000,-16.373,-7.040,15.298,0.000,0.000,0.000,0.000,0.000,0.000
16,0.0561,-0.0414,0.3449,-0.0001,-0.0311,0.0383,0.05,-0.21,-0.51,0,0.000,-14.487,-10.944,15.710,0.000,0.000,0.000,0.000,0.000,0.000
16,0.0561,-0.0417,0.3453,0.0005,-0.0321,0.0377,-0.11,-0.05,-0.34,0,0.000,-15.329,-15.579,16.331,0.000,0.000,0.000,0.000,0.000,0.000
16,0.0565,-0.0430,0.3456,0.0018,-0.0347,0.0371,-0.26,0.17,-0.18,0,0.000,-14.751,-22.819,16.792,0.000,0.000,0.000,0.000,0.000,0.000
16,0.0567,-0.0427,0.3462,0.0027,-0.0338,0.0383,-0.40,0.43,-0.02,0,0.000,-10.499,-23.903,15.287,0.000,0.000,0.000,0.000,0.000,0.000
16,0.0546,-0.0431,0.3466,-0.0012,-0.0340,0.0392,-0.49,0.68,0.14,0,0.000,-8.565,-18.454,15.650,0.000,0.000,0.000,0.000,0.000,0.000
16,0.0511,-0.0437,0.3470,-0.0080,-0.0343,0.0400,-0.57,0.87,0.30,0,0.000,-7.537,-16.668,15.521,0.000,0.000,0.000,0.000,0.000,0.000
16,0.0474,-0.0427,0.3474,-0.0153,-0.0313,0.0408,-0.59,1.00,0.45,0,0.000,-1.513,-11.682,13.981,0.000,0.000,0.000,0.000,0.000,0.000
16,0.0459,-0.0447,0.3474,-0.0188,-0.0337,0.0400,-0.61,1.08,0.59,0,0.000,2.486,-5.362,13.907,0.000,0.000,0.000,0.000,0.000,0.000
16,0.0457,-0.0450,0.3479,-0.0200,-0.0329,0.0407,-0.58,1.12,0.73,0,0.000,7.077,2.443,13.417,0.000,0.000,0.000,0.000,0.000,0.000
16,0.0466,-0.0484,0.3483,-0.0192,-0.0380,0.0416,-0.51,1.06,0.86,0,0.000,4.956,8.772,14.505,0.000,0.000,0.000,0.000,0.000,0.000
16,0.0489,-0.0483,0.3487,-0.0161,-0.0361,0.0427,-0.44,0.95,1.00,0,0.000,11.353,18.682,13.491,0.000,0.000,0.000,0.000,0.000,0.000
16,0.0479,-0.0485,0.3491,-0.0195,-0.0348,0.0435,-0.34,0.74,1.14,0,0.000,8.086,23.084,13.754,0.000,0.000,0.000,0.000,0.000,0.000
16,0.0494,-0.0498,0.3496,-0.0181,-0.0357,0.0448,-0.25,0.46,1.29,0,0.000,10.691,24.963,12.139,0.000,0.000,0.000,0.000,0.000,0.000
16,0.0492,-0.0501,0.3493,-0.0199,-0.0348,0.0420,-0.17,0.22,1.41,0,0.000,5.159,15.757,12.677,0.000,0.000,0.000,0.000,0.000,0.000
16,0.0490,-0.0505,0.3498,-0.0215,-0.0341,0.0421,-0.13,0.06,1.54,0,0.000,3.034,13.256,13.039,0.000,0.000,0.000,0.000,0.000,0.000
16,0.0501,-0.0511,0.3502,-0.0202,-0.0340,0.0416,-0.13,-0.03,1.66,0,0.000,-4.891,1.696,11.769,0.000,0.000,0.000,0.000,0.000,0.000
16,0.0526,-0.0513,0.3506,-0.0158,-0.0333,0.0412,-0.17,-0.06,1.78,0,0.000,-6.401,1.537,12.121,0.000,0.000,0.000,0.000,0.000,0.000
16,0.0529,-0.0514,0.3502,-0.0152,-0.0325,0.0362,-0.25,-0.03,1.89,0,0.000,-6.247,-2.660,10.689,0.000,0.000,0.000,0.000,0.000,0.000
16,0.0541,-0.0510,0.3505,-0.0127,-0.0309,0.0354,-0.28,-0.01,1.99,0,0.000,-5.437,-2.731,9.494,0.000,0.000,0.000,0.000,0.000,0.000
16,0.0535,-0.0515,0.3509,-0.0135,-0.0310,0.0342,-0.29,-0.03,1.99,0,0.000,-2.320,0.777,8.418,0.000,0.000,0.000,0.000,0.000,0.000
16,0.0513,-0.0509,0.3512,-0.0175,-0.0289,0.0330,-0.32,-0.01,2.08,0,0.000,-1.043,3.941,8.863,0.000,0.000,0.000,0.000,0.000,0.000
16,0.0521,-0.0523,0.3516,-0.0155,-0.0308,0.0313,-0.35,-0.02,2.17,0,0.000,-5.265,6.794,9.189,0.000,0.000,0.000,0.000,0.000,0.000
16,0.0540,-0.0520,0.3519,-0.0114,-0.0291,0.0294,-0.38,-0.07,2.25,0,0.000,-0.628,13.912,8.666,0.000,0.000,0.000,0.000,0.000,0.000
16,0.0533,-0.0527,0.3518,-0.0126,-0.0294,0.0252,-0.40,-0.23,2.34,0,0.000,-1.614,17.068,9.310,0.000,0.000,0.000,0.000,0.000,0.000
16,0.0538,-0.0532,0.3520,-0.0113,-0.0291,0.0233,-0.42,-0.40,2.43,0,0.000,-2.069,18.998,9.876,0.000,0.000,0.000,0.000,0.000,0.000
16,0.0530,-0.0531,0.3522,-0.0127,-0.0278,0.0217,-0.44,-0.59,2.53,0,0.000,-4.167,17.960,10.851,0.000,0.000,0.000,0.000,0.000,0.000
16,0.0589,-0.0536,0.3524,-0.0003,-0.0274,0.0202,-0.48,-0.75,2.63,0,0.000,-8.153,13.739,12.291,0.000,0.000,0.000,0.000,0.000,0.000
16,0.0596,-0.0533,0.3524,0.0016,-0.0257,0.0165,-0.52,-0.93,2.75,0,0.000,-6.251,11.458,12.228,0.000,0.000,0.000,0.000,0.000,0.000
16,0.0591,-0.0539,0.3525,0.0016,-0.0255,0.0146,-0.59,-1.06,2.87,0,0.000,-0.413,5.538,12.097,0.000,0.000,0.000,0.000,0.000,0.000
16,0.0575,-0.0533,0.3527,-0.0004,-0.0229,0.0131,-0.63,-1.16,2.99,0,0.000,-2.086,1.120,11.878,0.000,0.000,0.000,0.000,0.000,0.000
16,0.0585,-0.0562,0.3528,0.0032,-0.0274,0.0115,-0.64,-1.22,3.11,0,0.000,-0.233,0.766,11.884,0.000,0.000,0.000,0.000,0.000,0.000
16,0.0586,-0.0565,0.3529,0.0049,-0.0263,0.0098,-0.63,-1.24,3.23,0,0.000,-0.354,-3.978,11.296,0.000,0.000,0.000,0.000,0.000,0.000
16,0.0587,-0.0571,0.3530,0.0070,-0.0259,0.0076,-0.63,-1.23,3.35,0,0.000,2.004,-5.860,11.494,0.000,0.000,0.000,0.000,0.000,0.000
16,0.0626,-0.0578,0.3535,0.0164,-0.0255,0.0074,-0.63,-1.18,3.47,0,0.000,2.232,-10.486,11.183,0.000,0.000,0.000,0.000,0.000,0.000
16,0.0625,-0.0586,0.3535,0.0178,-0.0255,0.0044,-0.60,-1.10,3.58,0,0.000,0.537,-14.406,10.534,0.000,0.000,0.000,0.000,0.000,0.000
16,0.0627,-0.0589,0.3536,0.0198,-0.0243,0.0010,-0.59,-0.98,3.69,0,0.000,0.071,-15.279,10.834,0.000,0.000,0.000,0.000,0.000,0.000
17,0.0628,-0.0590,0.3536,0.0217,-0.0230,-0.0023,-0.59,-0.84,3.80,0,0.000,-2.154,-15.413,11.416,0.000,0.000,0.000,0.000,0.000,0.000
17,0.0627,-0.0589,0.3546,0.0228,-0.0213,0.0003,-0.60,-0.69,3.91,0,0.000,-2.224,-13.187,11.829,0.000,0.000,0.000,0.000,0.000,0.000
17,0.0624,-0.0589,0.3546,0.0233,-0.0197,-0.0019,-0.62,-0.56,4.03,0,0.000,-3.567,-11.264,13.301,0.000,0.000,0.000,0.000,0.000,0.000
17,0.0627,-0.0591,0.3545,0.0246,-0.0186,-0.0037,-0.64,-0.43,4.16,0,0.000,-2.742,-6.066,12.602,0.000,0.000,0.000,0.000,0.000,0.000
17,0.0629,-0.0593,0.3545,0.0257,-0.0175,-0.0049,-0.68,-0.33,4.29,0,0.000,-3.003,-3.092,12.120,0.000,0.000,0.000,0.000,0.000,0.000
17,0.0629,-0.0590,0.3544,0.0261,-0.0154,-0.0059,-0.71,-0.28,4.41,0,0.000,-4.355,-1.231,11.030,0.000,0.000,0.000,0.000,0.000,0.000
17,0.0623,-0.0596,0.3544,0.0250,-0.0154,-0.0068,-0.73,-0.28,4.53,0,0.000,-3.211,3.942,10.922,0.000,0.000,0.000,0.000,0.000,0.000
17,0.0609,-0.0594,0.3546,0.0222,-0.0135,-0.0066,-0.77,-0.29,4.64,0,0.000,1.499,8.256,9.314,0.000,0.000,0.000,0.000,0.000,0.000
17,0.0616,-0.0590,0.3545,0.0236,-0.0110,-0.0080,-0.77,-0.35,4.74,0,0.000,3.609,5.969,8.157,0.000,0.000,0.000,0.000,0.000,0.000
17,0.0638,-0.0604,0.3544,0.0277,-0.0124,-0.0093,-0.71,-0.49,4.90,0,0.000,5.035,5.144,6.428,0.000,0.000,0.000,0.000,0.000,0.000
17,0.0641,-0.0605,0.3543,0.0281,-0.0111,-0.0105,-0.71,-0.49,4.90,0,0.000,5.709,2.896,4.647,0.000,0.000,0.000,0.000,0.000,0.000
17,0.0643,-0.0606,0.3529,0.0286,-0.0098,-0.0185,-0.58,-0.55,4.99,0,0.000,8.821,-0.678,1.754,0.000,0.000,0.000,0.000,0.000,0.000
17,0.0646,-0.0607,0.3527,0.0292,-0.0084,-0.0190,-0.58,-0.55,4.99,0,0.000,11.947,-1.803,0.800,0.000,0.000,0.000,0.000,0.000,0.000
17,0.0649,-0.0608,0.3525,0.0299,-0.0071,-0.0189,-0.32,-0.58,5.00,0,0.000,15.773,-2.177,0.427,0.000,0.000,0.000,0.000,0.000,0.000
17,0.0648,-0.0604,0.3523,0.0299,-0.0050,-0.0185,-0.31,-0.62,5.01,0,0.000,13.639,-0.743,-1.098,0.000,0.000,0.000,0.000,0.000,0.000
17,0.0651,-0.0605,0.3521,0.0307,-0.0040,-0.0174,-0.05,-0.57,4.99,0,0.000,12.722,-2.828,-3.146,0.000,0.000,0.000,0.000,0.000,0.000
17,0.0722,-0.0612,0.3520,0.0451,-0.0044,-0.0165,-0.07,-0.57,4.99,0,0.000,11.793,-3.680,-3.571,0.000,0.000,0.000,0.000,0.000,0.000
17,0.0763,-0.0621,0.3496,0.0534,-0.0054,-0.0268,0.21,-0.53,4.92,0,0.000,16.199,-0.329,-5.166,0.000,0.000,0.000,0.000,0.000,0.000
17,0.0756,-0.0610,0.3494,0.0520,-0.0029,-0.0264,0.21,-0.53,4.92,0,0.000,13.953,0.107,-4.303,0.000,0.000,0.000,0.000,0.000,0.000
17,0.0762,-0.0598,0.3491,0.0530,-0.0002,-0.0262,0.38,-0.52,4.86,0,0.000,9.142,-1.897,-4.008,0.000,0.000,0.000,0.000,0.000,0.000
17,0.0771,-0.0612,0.3488,0.0547,-0.0029,-0.0263,0.48,-0.51,4.82,0,0.000,4.911,-5.256,-2.916,0.000,0.000,0.000,0.000,0.000,0.000
17,0.0769,-0.0604,0.3504,0.0541,-0.0017,-0.0169,0.53,-0.46,4.78,0,0.000,0.404,-11.875,-2.641,0.000,0.000,0.000,0.000,0.000,0.000
17,0.0774,-0.0604,0.3502,0.0550,-0.0023,-0.0168,0.56,-0.42,4.76,0,0.000,-5.502,-16.723,-0.954,0.000,0.000,0.000,0.000,0.000,0.000
17,0.0767,-0.0589,0.3501,0.0534,0.0001,-0.0180,0.57,-0.29,4.74,0,0.000,-14.346,-25.721,-0.057,0.000,0.000,0.000,0.000,0.000,0.000
17,0.0754,-0.0570,0.3498,0.0506,0.0031,-0.0265,0.48,-0.08,4.73,0,0.000,-24.978,-32.877,0.967,0.000,0.000,0.000,0.000,0.000,0.000
17,0.0800,-0.0573,0.3495,0.0595,0.0017,-0.0439,0.28,0.21,4.73,0,0.000,-30.531,-36.870,3.133,0.000,0.000,0.000,0.000,0.000,0.000
20,0.0822,-0.0602,0.3489,0.0630,-0.0048,-0.0689,-0.00,0.62,4.75,0,0.000,-30.105,-40.937,4.808,0.000,0.000,0.000,0.000,0.000,0.000
30,0.0825,-0.0603,0.3499,0.0627,-0.0055,-0.0902,-0.32,0.98,4.79,0,0.000,-27.334,-40.677,5.761,0.000,0.000,0.000,0.000,0.000,0.000
40,0.0820,-0.0598,0.3488,0.0605,-0.0049,-0.1227,-0.60,1.48,4.85,0,0.000,-23.446,-38.131,5.803,0.000,0.000,0.000,0.000,0.000,0.000
50,0.0783,-0.0594,0.3474,0.0515,-0.0042,-0.1505,-0.86,1.85,4.91,0,0.000,-19.549,-35.373,5.686,0.000,0.000,0.000,0.000,0.000,0.000
60,0.0817,-0.0589,0.3458,0.0559,-0.0029,-0.1730,-1.08,2.38,4.98,0,0.000,-13.918,-30.539,4.336,0.000,0.000,0.000,0.000,0.000,0.000
70,0.0733,-0.0595,0.3444,0.0366,-0.0035,-0.1889,-1.24,2.67,5.03,0,0.000,-10.021,-24.411,1.814,0.000,0.000,0.000,0.000,0.000,0.000
80,0.0763,-0.0605,0.3425,0.0389,-0.0044,-0.2025,-1.34,2.92,5.06,0,0.000,0.402,-12.785,-0.938,0.000,0.000,0.000,0.000,0.000,0.000
90,0.0604,-0.0607,0.3404,0.0035,-0.0034,-0.2137,-1.38,3.09,5.07,0,0.000,3.778,-0.994,-3.466,0.000,0.000,0.000,0.000,0.000,0.000
100,0.0634,-0.0606,0.3382,0.0051,-0.0018,-0.2224,-1.36,3.16,5.05,0,0.000,3.160,6.539,-4.809,0.000,0.000,0.000,0.000,0.000,0.000
110,0.0644,-0.0615,0.3359,0.0022,-0.0018,-0.2288,-1.31,3.09,5.01,0,0.000,5.786,12.300,-7.638,0.000,0.000,0.000,0.000,0.000,0.000
120,0.0644,-0.0615,0.3336,-0.0031,0.0000,-0.2331,-1.25,2.97,4.94,0,0.000,7.272,17.257,-10.472,0.000,0.000,0.000,0.000,0.000,0.000
130,0.0644,-0.0615,0.3323,-0.0086,0.0019,-0.2301,-1.17,2.80,4.85,0,0.000,3.584,20.160,-12.664,0.000,0.000,0.000,0.000,0.000,0.000
140,0.0678,-0.0618,0.3300,-0.0071,0.0030,-0.2305,-1.11,2.64,4.73,0,0.000,3.056,21.237,-15.725,0.000,0.000,0.000,0.000,0.000,0.000
149,0.0684,-0.0616,0.3278,-0.0111,0.0052,-0.2290,-1.08,2.43,4.58,0,0.000,-1.116,15.160,-15.740,0.000,0.000,0.000,0.000,0.000,0.000
160,0.0713,-0.0608,0.3255,-0.0103,0.0083,-0.2257,-1.07,2.25,4.42,0,0.000,-0.842,10.884,-16.836,0.000,0.000,0.000,0.000,0.000,0.000
170,0.0683,-0.0615,0.3240,-0.0207,0.0082,-0.2179,-1.08,2.12,4.26,0,0.000,-1.439,1.607,-17.838,0.000,0.000,0.000,0.000,0.000,0.000
179,0.0678,-0.0595,0.3218,-0.0258,0.0136,-0.2135,-1.07,2.06,4.09,0,0.000,-6.552,-2.596,-17.601,0.000,0.000,0.000,0.000,0.000,0.000
190,0.0675,-0.0594,0.3197,-0.0299,0.0152,-0.2087,-1.10,2.10,3.90,0,0.000,2.473,-5.732,-19.991,0.000,0.000,0.000,0.000,0.000,0.000
200,0.0672,-0.0592,0.3176,-0.0339,0.0169,-0.2033,-1.09,2.13,3.72,0,0.000,20.871,1.060,-21.141,0.000,0.000,0.000,0.000,0.000,0.000
210,0.0676,-0.0610,0.3157,-0.0363,0.0146,-0.1970,-0.95,2.14,3.51,0,0.000,47.959,6.438,-22.385,0.000,0.000,0.000,0.000,0.000,0.000
220,0.0652,-0.0612,0.3137,-0.0441,0.0157,-0.1900,-0.55,2.11,3.29,0,0.000,73.618,12.029,-23.048,0.000,0.000,0.000,0.000,0.000,0.000
229,0.0668,-0.0638,0.3111,-0.0442,0.0121,-0.1856,0.06,1.94,3.07,0,0.000,100.375,26.388,-22.951,0.000,0.000,0.000,0.000,0.000,0.000
240,0.0675,-0.0642,0.3093,-0.0461,0.0125,-0.1768,0.91,1.74,2.84,0,0.000,123.312,39.523,-23.962,0.000,0.000,0.000,0.000,0.000,0.000
250,0.0679,-0.0680,0.3076,-0.0483,0.0054,-0.1678,2.12,1.35,2.62,0,0.000,135.314,46.289,-24.830,0.000,0.000,0.000,0.000,0.000,0.000
260,0.0754,-0.0664,0.3060,-0.0359,0.0081,-0.1582,3.39,0.89,2.40,0,0.000,134.586,51.618,-26.276,0.000,0.000,0.000,0.000,0.000,0.000
270,0.0746,-0.0622,0.3040,-0.0399,0.0143,-0.1516,4.75,0.35,2.18,0,0.000,116.761,57.677,-25.720,0.000,0.000,0.000,0.000,0.000,0.000
280,0.0781,-0.0677,0.3026,-0.0343,-0.0010,-0.1438,5.95,-0.24,1.98,0,0.000,96.253,54.793,-26.494,0.000,0.000,0.000,0.000,0.000,0.000
290,0.0775,-0.0628,0.3012,-0.0362,0.0023,-0.1366,7.02,-0.88,1.80,0,0.000,77.254,49.811,-27.532,0.000,0.000,0.000,0.000,0.000,0.000
300,0.0795,-0.0639,0.2998,-0.0319,-0.0087,-0.1307,7.85,-1.43,1.59,0,0.000,54.640,40.956,-27.144,0.000,0.000,0.000,0.000,0.000,0.000
310,0.0822,-0.0582,0.2986,-0.0249,-0.0076,-0.1254,8.49,-1.89,1.39,0,0.000,33.723,28.207,-26.416,0.000,0.000,0.000,0.000,0.000,0.000
320,0.0858,-0.0600,0.2974,-0.0153,-0.0238,-0.1210,8.91,-2.32,1.17,0,0.000,15.599,15.524,-25.693,0.000,0.000,0.000,0.000,0.000,0.000
330,0.0854,-0.0561,0.2987,-0.0129,-0.0295,-0.1033,9.15,-2.59,0.96,0,0.000,6.079,8.669,-26.545,0.000,0.000,0.000,0.000,0.000,0.000
340,0.0833,-0.0571,0.2977,-0.0131,-0.0459,-0.0992,9.24,-2.75,0.71,0,0.000,-9.295,1.242,-25.388,0.000,0.000,0.000,0.000,0.000,0.000
350,0.0860,-0.0563,0.2968,-0.0032,-0.0592,-0.0953,9.20,-2.82,0.46,0,0.000,-35.408,-3.405,-24.175,0.000,0.000,0.000,0.000,0.000,0.000
360,0.0867,-0.0575,0.2958,0.0033,-0.0767,-0.0910,8.99,-2.83,0.22,0,0.000,-72.578,-6.200,-23.823,0.000,0.000,0.000,0.000,0.000,0.000
370,0.0867,-0.0580,0.2987,0.0082,-0.0927,-0.0675,8.39,-2.82,-0.05,0,0.000,-108.923,-9.326,-22.869,0.000,0.000,0.000,0.000,0.000,0.000
380,0.0864,-0.0572,0.2980,0.0125,-0.1057,-0.0630,7.45,-2.74,-0.28,0,0.000,-137.016,-11.464,-22.636,0.000,0.000,0.000,0.000,0.000,0.000
390,0.0851,-0.0604,0.2973,0.0149,-0.1274,-0.0592,6.12,-2.66,-0.52,0,0.000,-155.219,-11.519,-20.579,0.000,0.000,0.000,0.000,0.000,0.000
400,0.0842,-0.0612,0.2968,0.0177,-0.1411,-0.0558,4.71,-2.55,-0.73,0,0.000,-156.839,-6.014,-19.374,0.000,0.000,0.000,0.000,0.000,0.000
410,0.0824,-0.0660,0.2962,0.0182,-0.1613,-0.0524,3.10,-2.47,-0.93,0,0.000,-147.752,-6.930,-18.229,0.000,0.000,0.000,0.000,0.000,0.000
419,0.0815,-0.0644,0.2958,0.0205,-0.1655,-0.0474,1.64,-2.45,-1.13,0,0.000,-127.875,-2.785,-17.523,0.000,0.000,0.000,0.000,0.000,0.000
429,0.0797,-0.0742,0.2954,0.0210,-0.1910,-0.0409,0.25,-2.41,-1.31,0,0.000,-102.619,-1.414,-19.128,0.000,0.000,0.000,0.000,0.000,0.000
439,0.0791,-0.0744,0.2950,0.0235,-0.1930,-0.0330,-0.92,-2.38,-1.49,0,0.000,-72.029,0.034,-18.142,0.000,0.000,0.000,0.000,0.000,0.000
450,0.0830,-0.0823,0.2947,0.0358,-0.2087,-0.0257,-1.74,-2.37,-1.67,0,0.000,-43.402,-0.143,-19.656,0.000,0.000,0.000,0.000,0.000,0.000
460,0.0826,-0.0821,0.2945,0.0385,-0.2042,-0.0194,-2.27,-2.35,-1.85,0,0.000,-12.355,-3.009,-20.388,0.000,0.000,0.000,0.000,0.000,0.000
470,0.0823,-0.0803,0.2882,0.0412,-0.1943,-0.0458,-2.51,-2.31,-2.04,0,0.000,14.024,-0.338,-22.134,0.000,0.000,0.000,0.000,0.000,0.000
479,0.0828,-0.0863,0.2878,0.0457,-0.2003,-0.0427,-2.47,-2.28,-2.25,0,0.000,35.391,-1.007,-22.637,0.000,0.000,0.000,0.000,0.000,0.000
490,0.0814,-0.0890,0.2873,0.0458,-0.1980,-0.0417,-2.20,-2.26,-2.48,0,0.000,52.388,4.158,-23.995,0.000,0.000,0.000,0.000,0.000,0.000
500,0.0809,-0.0930,0.2869,0.0480,-0.1984,-0.0427,-1.73,-2.28,-2.71,0,0.000,59.416,6.217,-24.154,0.000,0.000,0.000,0.000,0.000,0.000
