time_ms,pos_x,pos_y,pos_z,vel_x,vel_y,vel_z,roll,pitch,yaw,thrust,vbat,gyro_x,gyro_y,gyro_z,acc_x,acc_y,acc_z,rate_roll,rate_pitch,rate_yaw,range_z,flow_dx,flow_dy,mekf_roll,mekf_pitch,mekf_yaw,mekf_x,mekf_y,mekf_z,our_ref_x,our_ref_y,our_ref_z,our_thrust,our_roll_cmd,our_pitch_cmd,our_yaw_rate_cmd,multi_front,multi_back,multi_left,multi_right,multi_up,ai_feat_count,vo_x,vo_y,vo_sigma,pg_x,pg_y,lc_count
0,0.4167,1.0522,0.0106,0.0077,0.0035,0.0033,0.38,0.03,7.78,0,3.880,0.061,0.064,-0.200,0.002,0.011,0.999,0.000,0.000,0.000,0.0120,-8,-2,0.00,0.00,0.00,0.0000,0.0000,0.0000,0.0000,0.0000,0.0000,0.0000,0.00,0.00,0.00,0.8770,0.2290,1.0870,1.2630,2.7010,22,0.0000,0.0000,0.0000,0.0000,0.0000,0
102,0.4161,1.0514,0.0114,0.0036,0.0006,0.0061,0.41,-0.01,7.73,0,3.885,0.209,-0.052,-0.103,0.002,0.011,1.000,0.000,0.000,0.000,0.0140,5,-1,0.00,0.00,0.00,0.0000,0.0000,0.0000,0.0000,0.0000,0.0000,0.0000,0.00,0.00,0.00,0.8800,0.1690,1.0870,1.2630,2.6980,22,0.0000,0.0000,0.0000,0.0000,0.0000,0
203,0.4170,1.0498,0.0128,0.0074,-0.0076,0.0120,0.48,0.04,7.69,0,3.880,-0.295,0.017,0.255,0.000,0.012,1.001,0.000,0.000,0.000,0.0100,4,-8,0.00,0.00,0.00,0.0000,0.0000,0.0000,0.0000,0.0000,0.0000,0.0000,0.00,0.00,0.00,0.8800,0.1690,1.0870,1.2520,2.6980,22,0.0000,0.0000,0.0000,0.0000,0.0000,0
304,0.4121,1.0543,0.0119,-0.0192,0.0184,0.0050,0.42,0.17,7.65,0,3.885,-0.010,0.040,0.094,0.002,0.011,0.999,0.000,0.000,0.000,0.0110,-14,3,0.00,0.00,0.00,0.0000,0.0000,0.0000,0.0000,0.0000,0.0000,0.0000,0.00,0.00,0.00,0.8810,0.2210,1.0870,1.2520,2.7030,22,0.0000,0.0000,0.0000,0.0000,0.0000,0
405,0.4143,1.0508,0.0118,-0.0051,-0.0017,0.0029,0.40,0.15,7.61,0,3.880,0.092,-0.098,-0.198,-0.001,0.012,1.000,0.000,0.000,0.000,0.0100,3,-2,0.00,0.00,0.00,0.0000,0.0000,0.0000,0.0000,0.0000,0.0000,0.0000,0.00,0.00,0.00,0.8810,0.2210,1.0870,1.2600,2.7030,22,0.0000,0.0000,0.0000,0.0000,0.0000,0
506,0.4135,1.0535,0.0112,-0.0073,0.0130,-0.0008,0.44,0.06,7.58,0,3.885,-0.046,0.004,0.337,0.002,0.013,1.003,0.000,0.000,0.000,0.0100,-5,2,0.00,0.00,0.00,0.0000,0.0000,0.0000,0.0000,0.0000,0.0000,0.0000,0.00,0.00,0.00,0.8760,0.1760,1.0860,1.2600,2.7080,22,0.0000,0.0000,0.0000,0.0000,0.0000,0
607,0.4140,1.0527,0.0107,-0.0027,0.0085,-0.0026,0.43,0.08,7.54,0,3.880,0.073,0.155,-0.044,-0.002,0.014,1.000,0.000,0.000,0.000,0.0070,4,3,0.00,0.00,0.00,0.0000,0.0000,0.0000,0.0000,0.0000,0.0000,0.0000,0.00,0.00,0.00,0.8760,0.1760,1.0860,1.2590,2.7080,15,0.0000,0.0000,0.0000,0.0000,0.0000,0
708,0.4089,1.0529,0.0090,-0.0291,0.0090,-0.0104,0.32,0.28,7.49,0,3.885,-0.043,0.010,-0.142,0.000,0.010,1.001,0.000,0.000,0.000,0.0130,-7,3,0.00,0.00,0.00,0.0000,0.0000,0.0000,0.0000,0.0000,0.0000,0.0000,0.00,0.00,0.00,0.8800,0.2350,1.0880,1.2590,2.6980,15,0.0000,0.0000,0.0000,0.0000,0.0000,0
810,0.4082,1.0529,0.0105,-0.0262,0.0070,-0.0000,0.40,0.21,7.45,0,3.880,-0.134,-0.186,-0.054,0.000,0.011,0.999,0.000,0.000,0.000,0.0100,6,1,0.00,0.00,0.00,0.0000,0.0000,0.0000,0.0000,0.0000,0.0000,0.0000,0.00,0.00,0.00,0.8800,0.2350,1.0880,1.2600,2.6980,15,0.0000,0.0000,0.0000,0.0000,0.0000,0
911,0.4067,1.0576,0.0103,-0.0282,0.0316,-0.0015,0.30,0.20,7.42,0,3.885,-0.300,0.139,-0.161,-0.001,0.010,1.000,0.000,0.000,0.000,0.0120,4,8,0.00,0.00,0.00,0.0000,0.0000,0.0000,0.0000,0.0000,0.0000,0.0000,0.00,0.00,0.00,0.8760,0.1750,1.0870,1.2600,2.6970,15,0.0000,0.0000,0.0000,0.0000,0.0000,0
1012,0.4057,1.0586,0.0110,-0.0272,0.0315,0.0030,0.31,0.18,7.38,0,3.880,0.131,-0.293,-0.229,0.001,0.012,1.000,0.000,0.000,0.000,0.0110,4,1,0.00,0.00,0.00,0.0000,0.0000,0.0000,0.0000,0.0000,0.0000,0.0000,0.00,0.00,0.00,0.8760,0.1750,1.0870,1.2610,2.6970,15,0.0000,0.0000,0.0000,0.0000,0.0000,0
1113,0.4044,1.0592,0.0112,-0.0286,0.0301,0.0031,0.39,0.17,7.34,0,3.890,-0.110,0.286,-0.136,-0.001,0.012,1.002,0.000,0.000,0.000,0.0110,-3,10,0.00,0.00,0.00,0.0000,0.0000,0.0000,0.0000,0.0000,0.0000,0.0000,0.00,0.00,0.00,0.8760,0.2250,1.0870,1.2610,2.7000,15,0.0000,0.0000,0.0000,0.0000,0.0000,0
1214,0.4057,1.0573,0.0114,-0.0158,0.0154,0.0042,0.42,0.08,7.31,0,3.880,-0.198,0.186,-0.050,-0.001,0.011,1.001,0.000,0.000,0.000,0.0100,4,7,0.00,0.00,0.00,0.0000,0.0000,0.0000,0.0000,0.0000,0.0000,0.0000,0.00,0.00,0.00,0.8760,0.2250,1.0870,1.2570,2.7000,15,0.0000,0.0000,0.0000,0.0000,0.0000,0
1315,0.4049,1.0618,0.0109,-0.0158,0.0368,0.0007,0.40,0.07,7.27,0,3.885,-0.057,0.067,0.087,0.002,0.012,0.999,0.000,0.000,0.000,0.0110,-3,6,0.00,0.00,0.00,0.0000,0.0000,0.0000,0.0000,0.0000,0.0000,0.0000,0.00,0.00,0.00,0.8770,0.1700,1.0860,1.2570,2.6980,21,0.0000,0.0000,0.0000,0.0000,0.0000,0
1416,0.4044,1.0607,0.0110,-0.0142,0.0253,0.0013,0.49,0.08,7.23,0,3.880,0.009,0.303,-0.152,-0.001,0.011,0.999,0.000,0.000,0.000,0.0120,6,-5,0.00,0.00,0.00,0.0000,0.0000,0.0000,0.0000,0.0000,0.0000,0.0000,0.00,0.00,0.00,0.8770,0.1700,1.0860,1.2580,2.6980,21,0.0000,0.0000,0.0000,0.0000,0.0000,0
1517,0.4047,1.0588,0.0116,-0.0096,0.0129,0.0039,0.61,-0.05,7.19,0,3.885,-0.043,0.113,0.240,-0.001,0.013,1.002,0.000,0.000,0.000,0.0110,-2,0,0.00,0.00,0.00,0.0000,0.0000,0.0000,0.0000,0.0000,0.0000,0.0000,0.00,0.00,0.00,0.8770,0.2230,1.0880,1.2580,2.7020,21,0.0000,0.0000,0.0000,0.0000,0.0000,0
1568,0.4066,1.0585,0.0116,0.0017,0.0097,0.0031,0.54,-0.07,7.16,0,3.880,0.305,-0.047,-0.262,-0.002,0.010,1.000,0.000,0.000,0.000,0.0100,-7,5,0.00,0.00,0.00,0.0000,0.0000,0.0000,0.0000,0.0000,0.0000,0.0000,0.00,0.00,0.00,0.8770,0.2230,1.0880,1.2580,2.7020,21,0.0000,0.0000,0.0000,0.0000,0.0000,0
1619,0.4039,1.0587,0.0110,-0.0126,0.0095,-0.0002,0.47,0.03,7.12,0,3.885,0.247,-0.052,0.185,0.001,0.010,1.000,0.000,0.000,0.000,0.0070,3,-1,0.00,0.00,0.00,0.0000,0.0000,0.0000,0.0000,0.0000,0.0000,0.0000,0.00,0.00,0.00,0.8780,0.1700,1.0860,1.2580,2.7000,21,0.0000,0.0000,0.0000,0.0000,0.0000,0
1670,0.4029,1.0599,0.0092,-0.0141,0.0135,-0.0087,0.47,0.02,7.08,0,3.880,0.036,-0.271,-0.090,-0.000,0.011,0.999,0.000,0.000,0.000,0.0090,-7,2,0.00,0.00,0.00,0.0000,0.0000,0.0000,0.0000,0.0000,0.0000,0.0000,0.00,0.00,0.00,0.8780,0.1700,1.0860,1.2620,2.7000,21,0.0000,0.0000,0.0000,0.0000,0.0000,0
1721,0.4054,1.0529,0.0089,0.0028,-0.0268,-0.0079,0.78,-0.04,7.05,0,3.885,-0.319,0.113,-0.358,0.001,0.011,1.001,0.000,0.000,0.000,0.0080,0,4,0.00,0.00,0.00,0.0000,0.0000,0.0000,0.0000,0.0000,0.0000,0.0000,0.00,0.00,0.00,0.8810,0.2240,1.0880,1.2620,2.6950,21,0.0000,0.0000,0.0000,0.0000,0.0000,0
1773,0.4055,1.0544,0.0084,0.0033,-0.0144,-0.0085,0.69,0.06,7.02,0,3.880,-0.105,-0.060,-0.180,0.001,0.010,1.000,0.000,0.000,0.000,0.0100,-6,7,0.00,0.00,0.00,0.0000,0.0000,0.0000,0.0000,0.0000,0.0000,0.0000,0.00,0.00,0.00,0.8810,0.2240,1.0880,1.2590,2.6950,21,0.0000,0.0000,0.0000,0.0000,0.0000,0
1824,0.4031,1.0533,0.0089,-0.0076,-0.0176,-0.0032,0.61,0.06,6.98,0,3.885,0.166,0.042,-0.120,0.000,0.009,1.000,0.000,0.000,0.000,0.0120,-3,2,0.00,0.00,0.00,0.0000,0.0000,0.0000,0.0000,0.0000,0.0000,0.0000,0.00,0.00,0.00,0.8800,0.1740,1.0840,1.2590,2.6940,21,0.0000,0.0000,0.0000,0.0000,0.0000,0
1875,0.4020,1.0535,0.0102,-0.0100,-0.0132,0.0044,0.64,-0.03,6.94,0,3.880,0.279,0.061,0.033,-0.000,0.010,1.002,0.000,0.000,0.000,0.0080,8,0,0.00,0.00,0.00,0.0000,0.0000,0.0000,0.0000,0.0000,0.0000,0.0000,0.00,0.00,0.00,0.8800,0.1740,1.0840,1.2550,2.6940,21,0.0000,0.0000,0.0000,0.0000,0.0000,0
1926,0.4022,1.0552,0.0094,-0.0065,-0.0016,-0.0004,0.62,-0.04,6.90,0,3.885,-0.004,0.158,-0.051,-0.000,0.012,0.999,0.000,0.000,0.000,0.0110,5,-4,0.00,0.00,0.00,0.0000,0.0000,0.0000,0.0000,0.0000,0.0000,0.0000,0.00,0.00,0.00,0.8790,0.2370,1.0900,1.2550,2.6990,16,0.0000,0.0000,0.0000,0.0000,0.0000,0
1977,0.4021,1.0550,0.0101,-0.0057,-0.0006,0.0037,0.55,-0.04,6.87,0,3.880,-0.060,0.165,0.172,-0.001,0.012,1.002,0.000,0.000,0.000,0.0130,0,6,0.00,0.00,0.00,0.0000,0.0000,0.0000,0.0000,0.0000,0.0000,0.0000,0.00,0.00,0.00,0.8790,0.2370,1.0900,1.2580,2.6990,16,0.0000,0.0000,0.0000,0.0000,0.0000,0
2028,0.4037,1.0535,0.0116,0.0040,-0.0067,0.0107,0.61,-0.03,6.83,0,3.885,-0.034,0.064,-0.043,-0.000,0.012,1.000,0.000,0.000,0.000,0.0090,-10,-4,0.00,0.00,0.00,0.0000,0.0000,0.0000,0.0000,0.0000,0.0000,0.0000,0.00,0.00,0.00,0.8790,0.1690,1.0880,1.2580,2.7060,16,0.0000,0.0000,0.0000,0.0000,0.0000,0
2079,0.4040,1.0476,0.0109,0.0066,-0.0374,0.0047,0.62,-0.05,6.80,0,3.880,-0.242,0.074,0.060,0.003,0.010,1.002,0.000,0.000,0.000,0.0080,-17,8,0.00,0.00,0.00,0.0000,0.0000,0.0000,0.0000,0.0000,0.0000,0.0000,0.00,0.00,0.00,0.8790,0.1690,1.0880,1.2590,2.7060,16,0.0000,0.0000,0.0000,0.0000,0.0000,0
2131,0.4029,1.0497,0.0099,0.0004,-0.0216,-0.0007,0.53,-0.01,6.76,0,3.890,-0.228,-0.182,-0.075,0.000,0.010,1.000,0.000,0.000,0.000,0.0100,-3,1,0.00,0.00,0.00,0.0000,0.0000,0.0000,0.0000,0.0000,0.0000,0.0000,0.00,0.00,0.00,0.8800,0.2200,1.0850,1.2590,2.7020,16,0.0000,0.0000,0.0000,0.0000,0.0000,0
2182,0.4028,1.0543,0.0101,0.0021,0.0043,0.0005,0.55,-0.06,6.73,0,3.880,-0.117,0.065,-0.298,0.001,0.011,1.002,0.000,0.000,0.000,0.0110,5,7,0.00,0.00,0.00,0.0000,0.0000,0.0000,0.0000,0.0000,0.0000,0.0000,0.00,0.00,0.00,0.8800,0.2200,1.0850,1.2590,2.7020,16,0.0000,0.0000,0.0000,0.0000,0.0000,0
2233,0.4046,1.0526,0.0105,0.0120,-0.0035,0.0028,0.64,-0.06,6.69,0,3.885,-0.025,-0.034,0.384,0.004,0.011,0.996,0.000,0.000,0.000,0.0110,0,0,0.00,0.00,0.00,0.0000,0.0000,0.0000,0.0000,0.0000,0.0000,0.0000,0.00,0.00,0.00,0.8770,0.1740,1.0870,1.2590,2.7050,16,0.0000,0.0000,0.0000,0.0000,0.0000,0
2284,0.4023,1.0502,0.0109,0.0005,-0.0130,0.0033,0.63,-0.07,6.67,0,3.880,-0.008,0.026,-0.078,-0.000,0.013,1.000,0.000,0.000,0.000,0.0110,-6,5,0.00,0.00,0.00,0.0000,0.0000,0.0000,0.0000,0.0000,0.0000,0.0000,0.00,0.00,0.00,0.8770,0.1740,1.0870,1.2580,2.7050,16,0.0000,0.0000,0.0000,0.0000,0.0000,0
2335,0.4021,1.0543,0.0111,-0.0010,0.0118,0.0039,0.37,0.01,6.62,0,3.885,-0.006,0.063,-0.083,0.000,0.010,0.998,0.000,0.000,0.000,0.0110,10,7,0.00,0.00,0.00,0.0000,0.0000,0.0000,0.0000,0.0000,0.0000,0.0000,0.00,0.00,0.00,0.8790,0.2300,1.0890,1.2580,2.7060,16,0.0000,0.0000,0.0000,0.0000,0.0000,0
2386,0.4022,1.0556,0.0112,0.0008,0.0162,0.0035,0.50,-0.06,6.59,0,3.880,0.025,-0.261,-0.080,-0.001,0.011,1.002,0.000,0.000,0.000,0.0110,5,3,0.00,0.00,0.00,0.0000,0.0000,0.0000,0.0000,0.0000,0.0000,0.0000,0.00,0.00,0.00,0.8790,0.2300,1.0890,1.2610,2.7060,16,0.0000,0.0000,0.0000,0.0000,0.0000,0
2437,0.4021,1.0519,0.0114,0.0012,-0.0020,0.0037,0.55,-0.06,6.56,0,3.885,-0.226,-0.126,0.190,-0.002,0.013,1.001,0.000,0.000,0.000,0.0090,8,7,0.00,0.00,0.00,0.0000,0.0000,0.0000,0.0000,0.0000,0.0000,0.0000,0.00,0.00,0.00,0.8750,0.1730,1.0900,1.2610,2.7010,16,0.0000,0.0000,0.0000,0.0000,0.0000,0
2488,0.4025,1.0531,0.0105,0.0031,0.0070,-0.0010,0.53,-0.04,6.52,0,3.880,0.079,0.074,0.066,0.002,0.012,1.001,0.000,0.000,0.000,0.0140,-9,8,0.00,0.00,0.00,0.0000,0.0000,0.0000,0.0000,0.0000,0.0000,0.0000,0.00,0.00,0.00,0.8750,0.1730,1.0900,1.2560,2.7010,16,0.0000,0.0000,0.0000,0.0000,0.0000,0
2539,0.4031,1.0497,0.0122,0.0063,-0.0086,0.0079,0.51,-0.00,6.49,0,3.885,0.189,-0.294,0.277,0.000,0.012,1.001,0.000,0.000,0.000,0.0080,10,0,0.00,0.00,0.00,0.0000,0.0000,0.0000,0.0000,0.0000,0.0000,0.0000,0.00,0.00,0.00,0.8790,0.2270,1.0850,1.2560,2.6950,16,0.0000,0.0000,0.0000,0.0000,0.0000,0
2590,0.4019,1.0483,0.0107,0.0009,-0.0145,-0.0009,0.69,0.20,6.46,0,3.874,-0.192,0.169,0.375,0.001,0.012,0.998,0.000,0.000,0.000,0.0090,4,6,0.00,0.00,0.00,0.0000,0.0000,0.0000,0.0000,0.0000,0.0000,0.0000,0.00,0.00,0.00,0.8790,0.2270,1.0850,1.2610,2.6950,16,0.0000,0.0000,0.0000,0.0000,0.0000,0
2641,0.3968,1.0480,0.0100,-0.0221,-0.0111,-0.0040,0.65,0.15,6.42,0,3.885,-0.185,-0.011,-0.037,0.000,0.010,1.000,0.000,0.000,0.000,0.0080,5,-1,0.00,0.00,0.00,0.0000,0.0000,0.0000,0.0000,0.0000,0.0000,0.0000,0.00,0.00,0.00,0.8760,0.1630,1.0890,1.2610,2.6950,16,0.0000,0.0000,0.0000,0.0000,0.0000,0
2692,0.3957,1.0472,0.0090,-0.0231,-0.0112,-0.0080,0.58,0.10,6.38,0,3.880,-0.317,-0.095,0.198,-0.000,0.010,1.001,0.000,0.000,0.000,0.0100,1,2,0.00,0.00,0.00,0.0000,0.0000,0.0000,0.0000,0.0000,0.0000,0.0000,0.00,0.00,0.00,0.8760,0.1630,1.0890,1.2580,2.6950,16,0.0000,0.0000,0.0000,0.0000,0.0000,0
2744,0.3973,1.0485,0.0093,-0.0099,-0.0013,-0.0043,0.55,0.07,6.35,0,3.885,-0.207,0.230,0.193,-0.001,0.011,1.002,0.000,0.000,0.000,0.0110,0,9,0.00,0.00,0.00,0.0000,0.0000,0.0000,0.0000,0.0000,0.0000,0.0000,0.00,0.00,0.00,0.8830,0.2290,1.0890,1.2580,2.7070,4,0.0000,0.0000,0.0000,0.0000,0.0000,0
2795,0.3988,1.0465,0.0099,0.0012,-0.0094,0.0003,0.58,0.05,6.32,0,3.874,-0.025,-0.111,0.118,-0.000,0.012,0.997,0.000,0.000,0.000,0.0090,11,4,0.00,0.00,0.00,0.0000,0.0000,0.0000,0.0000,0.0000,0.0000,0.0000,0.00,0.00,0.00,0.8830,0.2290,1.0890,1.2610,2.7070,4,0.0000,0.0000,0.0000,0.0000,0.0000,0
2846,0.3971,1.0494,0.0095,-0.0057,0.0089,-0.0016,0.53,0.03,6.29,0,3.885,-0.197,0.081,0.041,0.002,0.010,1.001,0.000,0.000,0.000,0.0090,-5,8,0.00,0.00,0.00,0.0000,0.0000,0.0000,0.0000,0.0000,0.0000,0.0000,0.00,0.00,0.00,0.8780,0.1750,1.0870,1.2610,2.7030,4,0.0000,0.0000,0.0000,0.0000,0.0000,0
2897,0.3975,1.0463,0.0093,-0.0011,-0.0069,-0.0019,0.53,0.02,6.26,0,3.880,-0.122,-0.179,0.035,0.001,0.014,0.999,0.000,0.000,0.000,0.0120,7,5,0.00,0.00,0.00,0.0000,0.0000,0.0000,0.0000,0.0000,0.0000,0.0000,0.00,0.00,0.00,0.8780,0.1750,1.0870,1.2560,2.7030,4,0.0000,0.0000,0.0000,0.0000,0.0000,0
2948,0.3975,1.0479,0.0105,0.0011,0.0034,0.0048,0.53,-0.01,6.23,0,3.885,-0.228,0.009,-0.213,0.002,0.012,1.000,0.000,0.000,0.000,0.0100,0,9,0.00,0.00,0.00,0.0000,0.0000,0.0000,0.0000,0.0000,0.0000,0.0000,0.00,0.00,0.00,0.8800,0.2290,1.0890,1.2560,2.7060,4,0.0000,0.0000,0.0000,0.0000,0.0000,0
2999,0.3976,1.0472,0.0105,0.0031,0.0014,0.0035,0.52,-0.01,6.20,0,3.880,0.164,0.097,-0.279,0.001,0.011,1.000,0.000,0.000,0.000,0.0100,-15,2,0.00,0.00,0.00,0.0000,0.0000,0.0000,0.0000,0.0000,0.0000,0.0000,0.00,0.00,0.00,0.8800,0.2290,1.0890,1.2620,2.7060,4,0.0000,0.0000,0.0000,0.0000,0.0000,0
3050,0.3965,1.0513,0.0103,-0.0018,0.0246,0.0021,0.21,-0.08,6.16,0,3.885,0.076,-0.119,-0.175,0.001,0.012,1.000,0.000,0.000,0.000,0.0090,1,0,0.00,0.00,0.00,0.0000,0.0000,0.0000,0.0000,0.0000,0.0000,0.0000,0.00,0.00,0.00,0.8800,0.1750,1.0880,1.2620,2.7000,4,0.0000,0.0000,0.0000,0.0000,0.0000,0
3101,0.3966,1.0544,0.0098,-0.0003,0.0352,-0.0009,0.33,-0.05,6.13,0,3.874,-0.107,0.103,-0.034,0.001,0.011,1.003,0.000,0.000,0.000,0.0120,0,9,0.00,0.00,0.00,0.0000,0.0000,0.0000,0.0000,0.0000,0.0000,0.0000,0.00,0.00,0.00,0.8800,0.1750,1.0880,1.2600,2.7000,4,0.0000,0.0000,0.0000,0.0000,0.0000,0
3153,0.3968,1.0546,0.0108,0.0022,0.0304,0.0045,0.34,-0.08,6.10,0,3.885,-0.181,-0.500,0.129,0.001,0.011,0.999,0.000,0.000,0.000,0.0120,-3,1,0.00,0.00,0.00,0.0000,0.0000,0.0000,0.0000,0.0000,0.0000,0.0000,0.00,0.00,0.00,0.8760,0.2250,1.0850,1.2600,2.7070,4,0.0000,0.0000,0.0000,0.0000,0.0000,0
3204,0.3960,1.0539,0.0116,-0.0006,0.0213,0.0073,0.39,-0.08,6.07,0,3.874,-0.284,-0.178,-0.200,-0.001,0.012,0.999,0.000,0.000,0.000,0.0110,-9,1,0.00,0.00,0.00,0.0000,0.0000,0.0000,0.0000,0.0000,0.0000,0.0000,0.00,0.00,0.00,0.8760,0.2250,1.0850,1.2610,2.7070,4,0.0000,0.0000,0.0000,0.0000,0.0000,0
3256,0.3974,1.0507,0.0117,0.0077,-0.0008,0.0057,0.48,-0.09,6.04,0,3.885,0.038,0.102,-0.137,0.001,0.011,1.000,0.000,0.000,0.000,0.0100,-3,36,0.00,0.00,0.00,0.0000,0.0000,0.0000,0.0000,0.0000,0.0000,0.0000,0.00,0.00,0.00,0.8820,0.1760,1.0870,1.2610,2.7020,4,0.0000,0.0000,0.0000,0.0000,0.0000,0
3307,0.4005,1.0541,0.0112,0.0243,0.0157,0.0019,0.43,0.09,6.00,0,3.874,0.243,-0.158,0.151,0.001,0.011,0.998,0.000,0.000,0.000,0.0100,4,-7,0.00,0.00,0.00,0.0000,0.0000,0.0000,0.0000,0.0000,0.0000,0.0000,0.00,0.00,0.00,0.8820,0.1760,1.0870,1.2650,2.7020,4,0.0000,0.0000,0.0000,0.0000,0.0000,0
3358,0.3919,1.0549,0.0110,-0.0205,0.0175,0.0002,0.52,0.09,5.97,0,3.885,0.069,-0.023,-0.099,0.000,0.011,1.000,0.000,0.000,0.000,0.0100,-4,7,0.00,0.00,0.00,0.0000,0.0000,0.0000,0.0000,0.0000,0.0000,0.0000,0.00,0.00,0.00,0.8790,0.2360,1.0880,1.2650,2.7060,23,0.0000,0.0000,0.0000,0.0000,0.0000,0
3409,0.3935,1.0531,0.0107,-0.0077,0.0058,-0.0015,0.52,-0.00,5.94,0,3.874,0.265,0.227,0.021,0.003,0.010,1.002,0.000,0.000,0.000,0.0100,-16,9,0.00,0.00,0.00,0.0000,0.0000,0.0000,0.0000,0.0000,0.0000,0.0000,0.00,0.00,0.00,0.8790,0.2360,1.0880,1.2600,2.7060,23,0.0000,0.0000,0.0000,0.0000,0.0000,0
3460,0.3970,1.0534,0.0104,0.0137,0.0060,-0.0027,0.40,-0.07,5.91,0,3.885,-0.363,0.133,-0.195,-0.001,0.012,1.001,0.000,0.000,0.000,0.0100,-8,1,0.00,0.00,0.00,0.0000,0.0000,0.0000,0.0000,0.0000,0.0000,0.0000,0.00,0.00,0.00,0.8780,0.1740,1.0880,1.2600,2.7000,23,0.0000,0.0000,0.0000,0.0000,0.0000,0
3511,0.3952,1.0556,0.0102,0.0034,0.0144,-0.0025,0.51,-0.06,5.89,0,3.880,0.204,0.241,-0.026,0.001,0.010,0.999,0.000,0.000,0.000,0.0120,-11,4,0.00,0.00,0.00,0.0000,0.0000,0.0000,0.0000,0.0000,0.0000,0.0000,0.00,0.00,0.00,0.8780,0.1740,1.0880,1.2600,2.7000,23,0.0000,0.0000,0.0000,0.0000,0.0000,0
3562,0.3967,1.0545,0.0110,0.0122,0.0045,0.0020,0.50,-0.02,5.86,0,3.885,-0.116,0.031,-0.137,0.001,0.011,1.001,0.000,0.000,0.000,0.0090,-6,6,0.00,0.00,0.00,0.0000,0.0000,0.0000,0.0000,0.0000,0.0000,0.0000,0.00,0.00,0.00,0.8830,0.2240,1.0830,1.2600,2.7030,23,0.0000,0.0000,0.0000,0.0000,0.0000,0
3614,0.3958,1.0564,0.0102,0.0066,0.0130,-0.0021,0.50,-0.02,5.83,0,3.874,0.100,0.190,-0.028,0.000,0.012,0.997,0.000,0.000,0.000,0.0120,1,5,0.00,0.00,0.00,0.0000,0.0000,0.0000,0.0000,0.0000,0.0000,0.0000,0.00,0.00,0.00,0.8830,0.2240,1.0830,1.2600,2.7030,23,0.0000,0.0000,0.0000,0.0000,0.0000,0
3665,0.3957,1.0579,0.0110,0.0059,0.0179,0.0021,0.53,-0.08,5.80,0,3.885,-0.269,-0.013,0.217,0.002,0.011,1.000,0.000,0.000,0.000,0.0110,-2,3,0.00,0.00,0.00,0.0000,0.0000,0.0000,0.0000,0.0000,0.0000,0.0000,0.00,0.00,0.00,0.8770,0.1700,1.0890,1.2600,2.6980,23,0.0000,0.0000,0.0000,0.0000,0.0000,0
3717,0.3946,1.0558,0.0111,-0.0003,0.0039,0.0023,0.55,-0.00,5.77,0,3.874,-0.112,0.226,0.007,-0.000,0.012,1.000,0.000,0.000,0.000,0.0090,-4,0,0.00,0.00,0.00,0.0000,0.0000,0.0000,0.0000,0.0000,0.0000,0.0000,0.00,0.00,0.00,0.8770,0.1700,1.0890,1.2560,2.6980,23,0.0000,0.0000,0.0000,0.0000,0.0000,0
3768,0.3952,1.0582,0.0102,0.0038,0.0159,-0.0025,0.36,-0.03,5.73,0,3.885,-0.064,0.399,-0.295,0.000,0.012,1.000,0.000,0.000,0.000,0.0120,-13,5,0.00,0.00,0.00,0.0000,0.0000,0.0000,0.0000,0.0000,0.0000,0.0000,0.00,0.00,0.00,0.8790,0.2200,1.0860,1.2560,2.7040,23,0.0000,0.0000,0.0000,0.0000,0.0000,0
3819,0.3950,1.0597,0.0110,0.0032,0.0188,0.0023,0.41,0.01,5.70,0,3.880,-0.086,0.165,-0.090,0.001,0.011,1.000,0.000,0.000,0.000,0.0100,0,0,0.00,0.00,0.00,0.0000,0.0000,0.0000,0.0000,0.0000,0.0000,0.0000,0.00,0.00,0.00,0.8790,0.2200,1.0860,1.2580,2.7040,23,0.0000,0.0000,0.0000,0.0000,0.0000,0
3870,0.0000,-0.0000,0.0100,0.0012,-0.0007,0.0000,-0.02,0.14,-0.00,0,3.885,-0.176,0.068,-0.095,0.003,0.011,1.000,0.000,0.000,0.000,0.0090,-5,3,0.00,0.00,0.00,0.0000,0.0000,0.0000,0.0000,0.0000,0.0000,0.0000,0.00,0.00,0.00,0.8820,0.1720,1.0850,1.2580,2.7020,23,0.0000,0.0000,0.0000,0.0000,0.0000,0
3921,0.0007,0.0005,0.0095,0.0172,0.0125,-0.0005,0.10,0.17,-0.00,0,3.874,0.142,0.124,0.187,0.002,0.011,1.000,0.000,0.000,0.000,0.0110,-4,4,0.00,0.00,0.00,0.0000,0.0000,0.0000,0.0000,0.0000,0.0000,0.0000,0.00,0.00,0.00,0.8820,0.1720,1.0850,1.2620,2.7020,23,0.0000,0.0000,0.0000,0.0000,0.0000,0
3972,-0.0037,0.0001,0.0101,-0.0513,0.0037,0.0006,-0.06,1.46,-0.00,0,3.885,0.055,0.229,-0.109,-0.000,0.009,1.000,0.000,0.000,0.000,0.0090,4,8,0.00,0.00,0.00,0.0000,0.0000,0.0000,0.0000,0.0000,0.0000,0.0000,0.00,0.00,0.00,0.8780,0.2280,1.0890,1.2620,2.7010,23,0.0000,0.0000,0.0000,0.0000,0.0000,0
4025,-0.0040,0.0015,0.0099,-0.0330,0.0185,0.0001,0.13,0.78,-0.01,0,3.880,-0.145,-0.200,-0.119,-0.001,0.013,1.000,0.000,0.000,0.000,0.0070,-11,0,0.00,0.00,0.00,0.0000,0.0000,0.0000,0.0000,0.0000,0.0000,0.0000,0.00,0.00,0.00,0.8780,0.2280,1.0890,1.2600,2.7010,23,0.0000,0.0000,0.0000,0.0000,0.0000,0
4077,-0.0054,-0.0011,0.0088,-0.0330,-0.0127,-0.0063,0.37,0.35,-0.02,0,3.885,0.126,0.289,-0.317,0.001,0.012,1.001,0.000,0.000,0.000,0.0120,0,7,0.00,0.00,0.00,0.0000,0.0000,0.0000,0.0000,0.0000,0.0000,0.0000,0.00,0.00,0.00,0.8760,0.1750,1.0860,1.2600,2.7080,23,0.0000,0.0000,0.0000,0.0000,0.0000,0
4128,-0.0041,0.0015,0.0101,-0.0083,0.0137,0.0031,0.28,0.12,-0.02,0,3.880,0.057,0.032,-0.044,0.000,0.011,1.001,0.000,0.000,0.000,0.0100,-1,0,0.00,0.00,0.00,0.0000,0.0000,0.0000,0.0000,0.0000,0.0000,0.0000,0.00,0.00,0.00,0.8760,0.1750,1.0860,1.2620,2.7080,23,0.0000,0.0000,0.0000,0.0000,0.0000,0
4179,-0.0058,0.0016,0.0103,-0.0168,0.0118,0.0034,0.35,-0.02,-0.02,0,3.885,-0.162,0.010,0.057,-0.002,0.012,1.001,0.000,0.000,0.000,0.0100,0,0,0.00,0.00,0.00,0.0000,0.0000,0.0000,0.0000,0.0000,0.0000,0.0000,0.00,0.00,0.00,0.8820,0.2290,1.0880,1.2620,2.7020,15,0.0000,0.0000,0.0000,0.0000,0.0000,0
4230,-0.0058,0.0012,0.0103,-0.0114,0.0062,0.0025,0.47,-0.11,-0.02,0,3.880,-0.026,0.320,-0.112,0.000,0.012,1.002,0.000,0.000,0.000,0.0080,-12,4,0.00,0.00,0.00,0.0000,0.0000,0.0000,0.0000,0.0000,0.0000,0.0000,0.00,0.00,0.00,0.8820,0.2290,1.0880,1.2600,2.7020,15,0.0000,0.0000,0.0000,0.0000,0.0000,0
4281,-0.0047,0.0001,0.0093,0.0006,-0.0028,-0.0029,0.50,-0.16,-0.02,0,3.885,-0.094,-0.092,-0.254,0.001,0.012,1.002,0.000,0.000,0.000,0.0100,5,5,0.00,0.00,0.00,0.0000,0.0000,0.0000,0.0000,0.0000,0.0000,0.0000,0.00,0.00,0.00,0.8760,0.1740,1.0870,1.2600,2.7060,15,0.0000,0.0000,0.0000,0.0000,0.0000,0
4332,-0.0046,0.0018,0.0096,0.0035,0.0079,-0.0002,0.55,-0.16,-0.03,0,3.874,0.120,0.118,-0.051,0.001,0.013,1.000,0.000,0.000,0.000,0.0120,-10,14,0.00,0.00,0.00,0.0000,0.0000,0.0000,0.0000,0.0000,0.0000,0.0000,0.00,0.00,0.00,0.8760,0.1740,1.0870,1.2550,2.7060,15,0.0000,0.0000,0.0000,0.0000,0.0000,0
4383,-0.0026,-0.0087,0.0107,0.0184,-0.0576,0.0045,1.01,-0.12,-0.02,0,3.885,-0.135,0.081,0.186,0.003,0.012,1.001,0.000,0.000,0.000,0.0070,-9,2,0.00,0.00,0.00,0.0000,0.0000,0.0000,0.0000,0.0000,0.0000,0.0000,0.00,0.00,0.00,0.8780,0.2310,1.0850,1.2550,2.7000,15,0.0000,0.0000,0.0000,0.0000,0.0000,0
4434,-0.0052,-0.0067,0.0095,0.0039,-0.0370,-0.0022,0.88,-0.13,-0.03,0,3.880,-0.039,-0.147,-0.161,0.001,0.011,1.000,0.000,0.000,0.000,0.0100,4,-2,0.00,0.00,0.00,0.0000,0.0000,0.0000,0.0000,0.0000,0.0000,0.0000,0.00,0.00,0.00,0.8780,0.2310,1.0850,1.2590,2.7000,15,0.0000,0.0000,0.0000,0.0000,0.0000,0
4485,-0.0062,0.0008,0.0100,-0.0006,0.0129,0.0009,0.20,0.00,-0.04,0,3.885,-0.016,-0.057,-0.249,-0.000,0.011,0.998,0.000,0.000,0.000,0.0070,-2,5,0.00,0.00,0.00,0.0000,0.0000,0.0000,0.0000,0.0000,0.0000,0.0000,0.00,0.00,0.00,0.8800,0.1720,1.0870,1.2590,2.6990,15,0.0000,0.0000,0.0000,0.0000,0.0000,0
4536,-0.0064,0.0034,0.0088,0.0008,0.0240,-0.0054,0.37,-0.07,-0.05,0,3.874,0.067,-0.028,-0.148,-0.000,0.010,1.000,0.000,0.000,0.000,0.0100,-5,7,0.00,0.00,0.00,0.0000,0.0000,0.0000,0.0000,0.0000,0.0000,0.0000,0.00,0.00,0.00,0.8800,0.1720,1.0870,1.2570,2.6990,15,0.0000,0.0000,0.0000,0.0000,0.0000,0
4587,-0.0066,0.0027,0.0092,0.0010,0.0165,-0.0016,0.37,-0.03,-0.05,0,3.885,-0.153,0.299,0.000,0.002,0.010,1.000,0.000,0.000,0.000,0.0090,0,-2,0.00,0.00,0.00,0.0000,0.0000,0.0000,0.0000,0.0000,0.0000,0.0000,0.00,0.00,0.00,0.8760,0.2300,1.0900,1.2570,2.7000,15,0.0000,0.0000,0.0000,0.0000,0.0000,0
4638,-0.0045,0.0042,0.0091,0.0142,0.0212,-0.0018,0.28,-0.20,-0.05,0,3.880,-0.199,-0.152,0.387,0.002,0.011,0.999,0.000,0.000,0.000,0.0080,2,-1,0.00,0.00,0.00,0.0000,0.0000,0.0000,0.0000,0.0000,0.0000,0.0000,0.00,0.00,0.00,0.8760,0.2300,1.0900,1.2600,2.7000,15,0.0000,0.0000,0.0000,0.0000,0.0000,0
4689,-0.0059,0.0075,0.0086,0.0054,0.0340,-0.0044,0.36,-0.17,-0.05,0,3.885,0.100,-0.272,-0.042,0.000,0.013,1.000,0.000,0.000,0.000,0.0090,-2,3,0.00,0.00,0.00,0.0000,0.0000,0.0000,0.0000,0.0000,0.0000,0.0000,0.00,0.00,0.00,0.8780,0.1750,1.0900,1.2600,2.6990,15,0.0000,0.0000,0.0000,0.0000,0.0000,0
4740,-0.0047,0.0053,0.0087,0.0112,0.0173,-0.0027,0.44,-0.19,-0.05,0,3.880,0.022,0.076,0.038,0.000,0.010,1.002,0.000,0.000,0.000,0.0100,1,0,0.00,0.00,0.00,0.0000,0.0000,0.0000,0.0000,0.0000,0.0000,0.0000,0.00,0.00,0.00,0.8780,0.1750,1.0900,1.2600,2.6990,15,0.0000,0.0000,0.0000,0.0000,0.0000,0
4791,-0.0042,0.0061,0.0092,0.0133,0.0179,0.0006,0.48,-0.16,-0.05,0,3.885,-0.192,-0.028,0.074,0.000,0.012,1.001,0.000,0.000,0.000,0.0090,0,8,0.00,0.00,0.00,0.0000,0.0000,0.0000,0.0000,0.0000,0.0000,0.0000,0.00,0.00,0.00,0.8760,0.2200,1.0890,1.2600,2.7060,15,0.0000,0.0000,0.0000,0.0000,0.0000,0
4842,-0.0030,0.0052,0.0091,0.0175,0.0106,0.0005,0.54,-0.11,-0.05,0,3.874,-0.088,0.130,-0.089,0.001,0.013,1.001,0.000,0.000,0.000,0.0090,-5,10,0.00,0.00,0.00,0.0000,0.0000,0.0000,0.0000,0.0000,0.0000,0.0000,0.00,0.00,0.00,0.8760,0.2200,1.0890,1.2600,2.7060,15,0.0000,0.0000,0.0000,0.0000,0.0000,0
4893,-0.0038,0.0005,0.0091,0.0123,-0.0153,0.0004,0.73,0.05,-0.05,0,3.885,-0.260,0.504,0.144,0.002,0.011,0.999,0.000,0.000,0.000,0.0080,1,4,0.00,0.00,0.00,0.0000,0.0000,0.0000,0.0000,0.0000,0.0000,0.0000,0.00,0.00,0.00,0.8810,0.1720,1.0900,1.2600,2.7010,15,0.0000,0.0000,0.0000,0.0000,0.0000,0
4944,-0.0075,0.0014,0.0087,-0.0050,-0.0083,-0.0014,0.71,0.03,-0.05,0,3.874,0.031,-0.055,-0.206,0.001,0.010,1.000,0.000,0.000,0.000,0.0090,5,4,0.00,0.00,0.00,0.0000,0.0000,0.0000,0.0000,0.0000,0.0000,0.0000,0.00,0.00,0.00,0.8810,0.1720,1.0900,1.2610,2.7010,15,0.0000,0.0000,0.0000,0.0000,0.0000,0
4995,-0.0042,-0.0037,0.0088,0.0136,-0.0320,-0.0007,0.82,-0.11,-0.06,0,3.885,-0.190,-0.097,-0.135,0.002,0.012,1.000,0.000,0.000,0.000,0.0080,1,4,0.00,0.00,0.00,0.0000,0.0000,0.0000,0.0000,0.0000,0.0000,0.0000,0.00,0.00,0.00,0.8810,0.2210,1.0890,1.2610,2.6980,16,0.0000,0.0000,0.0000,0.0000,0.0000,0
5046,-0.0041,-0.0046,0.0085,0.0131,-0.0303,-0.0018,0.85,-0.10,-0.06,0,3.880,-0.179,-0.010,-0.262,0.002,0.010,0.998,0.000,0.000,0.000,0.0100,7,7,0.00,0.00,0.00,0.0000,0.0000,0.0000,0.0000,0.0000,0.0000,0.0000,0.00,0.00,0.00,0.8810,0.2210,1.0890,1.2570,2.6980,16,0.0000,0.0000,0.0000,0.0000,0.0000,0
5097,-0.0032,-0.0021,0.0092,0.0164,-0.0127,0.0022,0.74,-0.08,-0.07,0,3.521,-0.199,1.091,-0.452,-0.007,0.010,1.006,0.000,0.000,0.000,0.0090,-5,3,0.00,0.00,0.00,0.0000,0.0000,0.0000,0.0000,0.0000,0.0000,0.0000,0.00,0.00,0.00,0.8780,0.1700,1.0870,1.2570,2.7000,16,0.0000,0.0000,0.0000,0.0000,0.0000,0
5148,-0.0019,-0.0046,0.0094,0.0211,-0.0274,0.0024,0.72,-0.13,-0.07,0,3.595,-0.818,-0.865,-0.885,-0.004,0.016,0.998,0.000,0.000,0.000,0.0100,5,4,0.00,0.00,0.00,0.0000,0.0000,0.0000,0.0000,0.0000,0.0000,0.0000,0.00,0.00,0.00,0.8780,0.1700,1.0870,1.2600,2.7000,16,0.0000,0.0000,0.0000,0.0000,0.0000,0
5200,-0.0016,-0.0022,0.0099,0.0196,-0.0147,0.0038,0.64,-0.08,-0.09,0,3.626,-3.017,-0.839,1.517,-0.001,-0.014,0.994,0.000,0.000,0.000,0.0100,3,4,0.00,0.00,0.00,0.0000,0.0000,0.0000,0.0000,0.0000,0.0000,0.0000,0.00,0.00,0.00,0.8800,0.2230,1.0880,1.2600,2.7000,16,0.0000,0.0000,0.0000,0.0000,0.0000,0
5252,-0.0008,-0.0015,0.0101,0.0209,-0.0114,0.0028,0.54,-0.07,-0.05,0,3.637,-0.294,1.896,-5.463,0.029,0.028,1.024,0.000,0.000,0.000,0.0120,6,3,0.00,0.00,0.00,0.0000,0.0000,0.0000,0.0000,0.0000,0.0000,0.0000,0.00,0.00,0.00,0.8800,0.2230,1.0880,1.2580,2.7000,16,0.0000,0.0000,0.0000,0.0000,0.0000,0
5303,0.0000,-0.0048,0.0111,0.0215,-0.0274,0.0072,0.59,-0.10,-0.26,0,3.648,-0.632,-0.644,-7.691,0.014,-0.009,0.998,0.000,0.000,0.000,0.0100,-9,0,0.00,0.00,0.00,0.0000,0.0000,0.0000,0.0000,0.0000,0.0000,0.0000,0.00,0.00,0.00,0.8810,0.1680,1.0870,1.2580,2.6960,16,0.0000,0.0000,0.0000,0.0000,0.0000,0
5354,0.0000,-0.0066,0.0109,0.0174,-0.0340,0.0055,0.44,-0.06,-0.78,0,3.648,0.973,0.129,-14.685,-0.003,-0.060,0.968,0.000,0.000,0.000,0.0120,15,0,0.00,0.00,0.00,0.0000,0.0000,0.0000,0.0000,0.0000,0.0000,0.0000,0.00,0.00,0.00,0.8810,0.1680,1.0870,1.2560,2.6960,16,0.0000,0.0000,0.0000,0.0000,0.0000,0
5405,-0.0022,-0.0157,0.0112,0.0021,-0.0779,0.0031,0.83,0.01,-1.39,0,3.642,-0.119,-1.116,-11.358,-0.000,-0.018,0.996,0.000,0.000,0.000,0.0110,-6,1,0.00,0.00,0.00,0.0000,0.0000,0.0000,0.0000,0.0000,0.0000,0.0000,0.00,0.00,0.00,0.8770,0.2160,1.0820,1.2560,2.6960,16,0.0000,0.0000,0.0000,0.0000,0.0000,0
5456,0.0001,-0.0233,0.0110,0.0119,-0.1023,0.0026,0.86,0.03,-2.03,0,3.642,-0.053,-3.080,4.097,0.002,-0.012,0.985,0.000,0.000,0.000,0.0090,-14,6,0.00,0.00,0.00,0.0000,0.0000,0.0000,0.0000,0.0000,0.0000,0.0000,0.00,0.00,0.00,0.8770,0.2160,1.0820,1.2590,2.6960,16,0.0000,0.0000,0.0000,0.0000,0.0000,0
5508,-0.0001,-0.0238,0.0106,0.0081,-0.0887,-0.0001,0.66,0.09,-2.06,0,3.642,5.167,5.670,5.673,-0.002,0.012,0.998,0.000,0.000,0.000,0.0080,-5,1,0.00,0.00,0.00,0.0000,0.0000,0.0000,0.0000,0.0000,0.0000,0.0000,0.00,0.00,0.00,0.8770,0.1560,1.0830,1.2590,2.7040,16,0.0000,0.0000,0.0000,0.0000,0.0000,0
5560,-0.0011,-0.0216,0.0099,0.0009,-0.0639,-0.0012,0.54,0.15,-1.84,0,3.632,-10.537,-2.612,13.571,0.000,-0.005,1.006,0.000,0.000,0.000,0.0100,29,4,0.00,0.00,0.00,0.0000,0.0000,0.0000,0.0000,0.0000,0.0000,0.0000,0.00,0.00,0.00,0.8770,0.1560,1.0830,1.2580,2.7040,16,0.0000,0.0000,0.0000,0.0000,0.0000,0
5611,-0.0003,-0.0222,0.0101,0.0036,-0.0565,0.0032,0.64,0.23,-1.36,0,3.626,1.781,10.352,15.977,0.004,-0.008,1.002,0.000,0.000,0.000,0.0100,10,3,0.00,0.00,0.00,0.0000,0.0000,0.0000,0.0000,0.0000,0.0000,0.0000,0.00,0.00,0.00,0.8950,0.2070,1.0870,1.2580,2.7060,22,0.0000,0.0000,0.0000,0.0000,0.0000,0
5663,0.0023,-0.0451,0.0084,0.0156,-0.1549,-0.0160,1.35,0.05,-0.59,0,3.632,-8.470,-1.371,13.694,0.010,-0.002,1.004,0.000,0.000,0.000,0.0090,32,-3,0.00,0.00,0.00,0.0000,0.0000,0.0000,0.0000,0.0000,0.0000,0.0000,0.00,0.00,0.00,0.8950,0.2070,1.0870,1.2590,2.7060,22,0.0000,0.0000,0.0000,0.0000,0.0000,0
5715,0.0043,-0.0461,0.0096,0.0221,-0.1279,0.0038,0.74,0.03,0.03,0,3.632,-26.988,0.204,12.489,-0.005,-0.016,1.018,0.000,0.000,0.000,0.0120,26,-27,0.00,0.00,0.00,0.0000,0.0000,0.0000,0.0000,0.0000,0.0000,0.0000,0.00,0.00,0.00,0.8990,0.1770,1.0930,1.2590,2.7050,22,0.0000,0.0000,0.0000,0.0000,0.0000,0
5767,0.0042,-0.0519,0.0116,0.0155,-0.1224,0.0239,-0.22,-0.22,0.59,0,3.621,-35.332,3.672,6.977,-0.000,-0.007,1.030,0.000,0.000,0.000,0.0110,6,-6,0.00,0.00,0.00,0.0000,0.0000,0.0000,0.0000,0.0000,0.0000,0.0000,0.00,0.00,0.00,0.8990,0.1770,1.0930,1.2710,2.7050,22,0.0000,0.0000,0.0000,0.0000,0.0000,0
5818,0.0171,-0.0797,0.0096,0.0724,-0.2198,0.0097,-1.67,-0.43,1.03,0,3.621,-30.687,-0.215,12.791,-0.002,-0.021,1.026,0.000,0.000,0.000,0.0130,5,-15,0.00,0.00,0.00,0.0000,0.0000,0.0000,0.0000,0.0000,0.0000,0.0000,0.00,0.00,0.00,0.9080,0.2340,1.0920,1.2710,2.6920,22,0.0000,0.0000,0.0000,0.0000,0.0000,0
5869,0.0274,-0.0846,0.0116,0.1087,-0.1756,0.0178,-3.52,-0.72,1.54,0,3.616,-44.586,-7.291,11.266,-0.004,-0.027,0.991,0.000,0.000,0.000,0.0060,-11,-7,0.00,0.00,0.00,0.0000,0.0000,0.0000,0.0000,0.0000,0.0000,0.0000,0.00,0.00,0.00,0.9080,0.2340,1.0920,1.3080,2.6920,22,0.0000,0.0000,0.0000,0.0000,0.0000,0
5920,0.0376,-0.0767,0.0098,0.1360,-0.0658,0.0070,-6.33,-0.82,2.13,0,3.605,-8.513,-13.923,16.231,0.008,-0.042,0.989,0.000,0.000,0.000,0.0000,-54,-9,0.00,0.00,0.00,0.0000,0.0000,0.0000,0.0000,0.0000,0.0000,0.0000,0.00,0.00,0.00,0.9190,0.1810,1.0480,1.3080,2.7140,22,0.0000,0.0000,0.0000,0.0000,0.0000,0
5971,0.0429,-0.0538,0.0028,0.1323,0.1064,-0.0385,-8.24,-0.29,2.94,0,3.568,68.372,-62.985,10.316,0.014,-0.019,0.996,0.000,0.000,0.000,0.0000,-56,0,0.00,0.00,0.00,0.0000,0.0000,0.0000,0.0000,0.0000,0.0000,0.0000,0.00,0.00,0.00,0.9190,0.1810,1.0480,1.3830,2.7140,22,0.0000,0.0000,0.0000,0.0000,0.0000,0
6022,0.0481,-0.0086,-0.0106,0.1227,0.3436,-0.1077,-6.23,2.76,3.68,0,3.568,91.819,-49.374,10.780,0.015,-0.030,1.030,0.000,0.000,0.000,0.0000,-146,9,0.00,0.00,0.00,0.0000,0.0000,0.0000,0.0000,0.0000,0.0000,0.0000,0.00,0.00,0.00,0.9330,0.2110,1.0880,1.3830,2.7000,22,0.0000,0.0000,0.0000,0.0000,0.0000,0
6073,0.0343,0.0207,-0.0141,0.0067,0.4404,-0.0949,-2.32,5.64,4.23,0,3.568,22.053,27.298,13.490,0.019,-0.031,1.107,0.000,0.000,0.000,0.0000,-93,42,0.00,0.00,0.00,0.0000,0.0000,0.0000,0.0000,0.0000,0.0000,0.0000,0.00,0.00,0.00,0.9330,0.2110,1.0880,0.0000,2.7000,22,0.0000,0.0000,0.0000,0.0000,0.0000,0
6125,0.0232,0.0496,-0.0144,-0.0984,0.4838,-0.0424,-0.91,5.69,4.86,0,3.563,66.673,54.750,3.808,0.011,-0.015,1.086,0.000,0.000,0.000,0.0000,-32,35,0.00,0.00,0.00,0.0000,0.0000,0.0000,0.0000,0.0000,0.0000,0.0000,0.00,0.00,0.00,0.9490,0.1470,1.0910,0.0000,2.7040,22,0.0000,0.0000,0.0000,0.0000,0.0000,0
6177,-0.0110,0.0941,-0.0311,-0.2992,0.6028,-0.0926,0.97,4.59,5.07,0,3.547,85.223,69.484,9.893,0.008,-0.001,1.101,0.000,0.000,0.000,0.0000,-36,53,0.00,0.00,0.00,0.0000,0.0000,0.0000,0.0000,0.0000,0.0000,0.0000,0.00,0.00,0.00,0.9490,0.1470,1.0910,0.0000,2.7040,22,0.0000,0.0000,0.0000,0.0000,0.0000,0
6229,-0.0377,0.1247,-0.0203,-0.3891,0.5735,0.0364,5.41,2.07,5.30,0,3.584,51.464,72.153,3.842,-0.009,-0.009,1.034,0.000,0.000,0.000,0.0000,2,16,0.00,0.00,0.00,0.0000,0.0000,0.0000,0.0000,0.0000,0.0000,0.0000,0.00,0.00,0.00,0.9350,0.2330,1.0880,0.0000,2.7250,22,0.0000,0.0000,0.0000,0.0000,0.0000,0
6280,-0.0610,0.1377,-0.0024,-0.4040,0.4259,0.1588,9.47,-1.54,5.57,0,3.595,-47.913,67.422,-4.344,0.007,-0.017,0.960,0.000,0.000,0.000,0.0050,37,24,0.00,0.00,0.00,0.0000,0.0000,0.0000,0.0000,0.0000,0.0000,0.0000,0.00,0.00,0.00,0.9350,0.2330,1.0880,0.1460,2.7250,22,0.0000,0.0000,0.0000,0.0000,0.0000,0
6331,-0.0760,0.1275,0.0115,-0.3492,0.1935,0.1891,9.34,-5.31,5.72,0,3.595,-76.392,47.046,-4.343,0.010,-0.005,0.984,0.000,0.000,0.000,0.0180,4,1,0.00,0.00,0.00,0.0000,0.0000,0.0000,0.0000,0.0000,0.0000,0.0000,0.00,0.00,0.00,0.8590,0.1730,1.1030,0.1460,2.7420,22,0.0000,0.0000,0.0000,0.0000,0.0000,0
6382,-0.0799,0.1162,0.0227,-0.2283,0.0400,0.1878,5.62,-8.48,5.38,0,3.574,-11.330,-36.248,-1.971,0.001,-0.002,0.985,0.000,0.000,0.000,0.0230,40,-22,0.00,0.00,0.00,0.0000,0.0000,0.0000,0.0000,0.0000,0.0000,0.0000,0.00,0.00,0.00,0.8590,0.1730,1.1030,0.3880,2.7420,22,0.0000,0.0000,0.0000,0.0000,0.0000,0
6434,-0.0734,0.1136,0.0289,-0.0764,-0.0145,0.1659,5.11,-7.84,5.03,0,3.574,-30.636,-68.949,-2.376,-0.001,-0.015,0.974,0.000,0.000,0.000,0.0300,16,-5,0.00,0.00,0.00,0.0000,0.0000,0.0000,0.0000,0.0000,0.0000,0.0000,0.00,0.00,0.00,0.0000,0.2320,1.1200,0.3880,2.7110,18,0.0000,0.0000,0.0000,0.0000,0.0000,0
6486,-0.0609,0.0990,0.0339,0.0538,-0.1030,0.1413,3.87,-4.88,4.46,0,3.563,-68.904,-45.040,-5.949,0.001,-0.005,0.969,0.000,0.000,0.000,0.0340,47,-22,0.00,0.00,0.00,0.0000,0.0000,0.0000,0.0000,0.0000,0.0000,0.0000,0.00,0.00,0.00,0.0000,0.2320,1.1200,1.1860,2.7110,18,0.0000,0.0000,0.0000,0.0000,0.0000,0
6537,-0.0494,0.0887,0.0371,0.1289,-0.1477,0.1133,0.89,-2.66,4.10,0,3.558,-41.674,-21.092,-6.593,0.006,-0.000,1.011,0.000,0.000,0.000,0.0400,17,-1,0.00,0.00,0.00,0.0000,0.0000,0.0000,0.0000,0.0000,0.0000,0.0000,0.00,0.00,0.00,0.9230,0.1690,1.1560,1.1860,2.6600,18,0.0000,0.0000,0.0000,0.0000,0.0000,0
6588,-0.0458,0.0872,0.0438,0.1306,-0.1143,0.1155,-1.91,-1.39,3.63,0,3.552,-4.933,-55.651,-7.969,-0.001,-0.004,1.014,0.000,0.000,0.000,0.0430,20,-15,0.00,0.00,0.00,0.0000,0.0000,0.0000,0.0000,0.0000,0.0000,0.0000,0.00,0.00,0.00,0.9230,0.1690,1.1560,1.3070,2.6600,18,0.0000,0.0000,0.0000,0.0000,0.0000,0
6639,-0.0413,0.0747,0.0474,0.1296,-0.1328,0.1118,-1.82,1.02,3.56,0,3.547,-14.190,-21.744,-13.131,-0.004,-0.014,1.015,0.000,0.000,0.000,0.0520,35,-19,0.00,0.00,0.00,0.0000,0.0000,0.0000,0.0000,0.0000,0.0000,0.0000,0.00,0.00,0.00,0.9260,0.2030,1.1810,1.3070,2.6430,18,0.0000,0.0000,0.0000,0.0000,0.0000,0
6690,-0.0271,0.0493,0.0511,0.1570,-0.2052,0.1097,-1.68,2.18,3.12,0,3.537,-39.454,-14.610,-12.237,0.010,-0.008,1.044,0.000,0.000,0.000,0.0540,19,-14,0.00,0.00,0.00,0.0000,0.0000,0.0000,0.0000,0.0000,0.0000,0.0000,0.00,0.00,0.00,0.9260,0.2030,1.1810,1.3090,2.6430,18,0.0000,0.0000,0.0000,0.0000,0.0000,0
6741,-0.0135,0.0232,0.0525,0.1687,-0.2647,0.0994,-2.87,2.64,2.55,0,3.542,-41.652,-7.089,-10.625,-0.002,0.001,1.041,0.000,0.000,0.000,0.0600,19,-11,0.00,0.00,0.00,0.0000,0.0000,0.0000,0.0000,0.0000,0.0000,0.0000,0.00,0.00,0.00,0.9520,0.1400,1.2040,1.3090,2.6470,18,0.0000,0.0000,0.0000,0.0000,0.0000,0
6792,-0.0023,0.0026,0.0579,0.1586,-0.2728,0.1133,-4.87,3.19,2.08,0,3.537,-12.869,-20.199,-6.165,0.005,-0.008,1.037,0.000,0.000,0.000,0.0820,12,-11,0.00,0.00,0.00,0.0000,0.0000,0.0000,0.0000,0.0000,0.0000,0.0000,0.00,0.00,0.00,0.9520,0.1400,1.2040,1.4320,2.6470,18,0.0000,0.0000,0.0000,0.0000,0.0000,0
6845,0.0073,-0.0088,0.0731,0.1360,-0.2202,0.1749,-5.66,4.01,1.83,0,3.552,4.165,5.194,-5.454,-0.003,-0.005,1.029,0.000,0.000,0.000,0.0890,0,-2,0.00,0.00,0.00,0.0000,0.0000,0.0000,0.0000,0.0000,0.0000,0.0000,0.00,0.00,0.00,0.9960,0.1330,1.2170,1.4320,2.6580,18,0.0000,0.0000,0.0000,0.0000,0.0000,0
6897,0.0146,-0.0171,0.0871,0.1025,-0.1597,0.2104,-5.74,4.16,1.60,0,3.558,8.891,12.693,-3.987,0.001,-0.015,1.000,0.000,0.000,0.000,0.0980,-2,-4,0.00,0.00,0.00,0.0000,0.0000,0.0000,0.0000,0.0000,0.0000,0.0000,0.00,0.00,0.00,0.9960,0.1330,1.2170,1.5190,2.6580,18,0.0000,0.0000,0.0000,0.0000,0.0000,0
6948,0.0173,-0.0173,0.0993,0.0598,-0.0806,0.2229,-5.42,3.55,1.38,0,3.558,15.561,12.104,-2.298,0.005,-0.010,0.999,0.000,0.000,0.000,0.0980,0,0,0.00,0.00,0.00,0.0000,0.0000,0.0000,0.0000,0.0000,0.0000,0.0000,0.00,0.00,0.00,1.0620,0.1370,1.2260,1.5190,2.6330,18,0.0000,0.0000,0.0000,0.0000,0.0000,0
6999,0.0180,-0.0158,0.1068,0.0226,-0.0161,0.2026,-4.70,3.14,1.14,0,3.547,31.377,7.512,-1.626,0.008,-0.018,0.998,0.000,0.000,0.000,0.1030,-1,2,0.00,0.00,0.00,0.0000,0.0000,0.0000,0.0000,0.0000,0.3000,0.2795,-1.76,2.20,-34.33,1.0620,0.1370,1.2260,1.4910,2.6330,18,0.0000,0.0000,0.0000,0.0000,0.0000,0
7051,0.0160,-0.0080,0.1112,-0.0145,0.0594,0.1726,-3.53,2.66,1.15,0,3.547,29.212,21.212,-0.170,0.010,-0.014,0.998,0.000,0.000,0.000,0.1040,-6,1,-4.70,-3.14,1.14,0.0180,-0.0158,0.1030,0.0000,0.0000,0.3000,0.2819,2.08,0.42,-34.46,0.0000,0.1470,1.2310,1.4910,2.6110,24,0.0000,0.0000,0.0000,0.0000,0.0000,0
7103,0.0146,-0.0063,0.1144,-0.0369,0.0775,0.1447,-1.95,1.74,1.05,0,3.537,23.589,19.654,0.186,0.012,-0.023,1.011,0.000,0.000,0.000,0.1030,-5,1,-3.42,-4.09,1.04,0.0143,-0.0056,0.1034,0.0000,0.0000,0.3000,0.2844,2.96,-0.65,-31.62,0.0000,0.1470,1.2310,0.0000,2.6110,24,0.0000,0.0000,0.0000,0.0000,0.0000,0
7154,0.0119,-0.0040,0.1138,-0.0528,0.0845,0.1082,-0.65,0.65,1.06,0,3.531,17.126,11.021,-0.012,0.010,-0.021,1.027,0.000,0.000,0.000,0.1030,-6,2,-1.14,-3.83,1.06,0.0133,-0.0004,0.1065,0.0000,0.0000,0.3000,0.2884,3.37,-1.50,-31.76,0.0000,0.1520,1.2310,0.0000,2.6020,24,0.0000,0.0000,0.0000,0.0000,0.0000,0
7205,0.0092,0.0023,0.1131,-0.0589,0.0995,0.0880,0.18,0.13,1.07,0,3.521,19.438,18.798,-2.196,0.006,-0.016,1.048,0.000,0.000,0.000,0.1120,2,5,-0.53,-2.19,1.02,0.0120,0.0055,0.1071,0.0000,0.0000,0.3000,0.2907,4.37,-1.92,-32.13,0.0000,0.1520,1.2310,1.2770,2.6020,24,0.0000,0.0000,0.0000,0.0000,0.0000,0
7257,0.0066,0.0058,0.1158,-0.0573,0.0914,0.0974,1.06,-0.77,1.00,0,3.531,7.931,3.712,-1.590,0.013,-0.020,1.048,0.000,0.000,0.000,0.1190,-1,0,4.06,-0.57,0.99,0.0085,0.0057,0.1136,0.0000,0.0000,0.3000,0.2892,4.28,-2.03,-30.14,1.0180,0.1630,1.2200,1.2770,2.5870,24,0.0000,0.0000,0.0000,0.0000,0.0000,0
7309,0.0028,0.0069,0.1214,-0.0536,0.0671,0.1190,1.65,-1.06,0.88,0,3.526,-0.724,-0.617,-1.238,0.009,-0.015,1.047,0.000,0.000,0.000,0.1280,-1,1,3.64,-1.70,0.87,0.0084,0.0065,0.1265,0.0000,0.0000,0.3000,0.2859,3.35,-2.14,-26.32,1.0180,0.1630,1.2200,1.2400,2.5870,24,0.0000,0.0000,0.0000,0.0000,0.0000,0
7360,-0.0002,0.0074,0.1272,-0.0495,0.0467,0.1426,1.65,-1.08,0.77,0,3.537,-4.247,9.465,0.631,0.010,-0.012,1.048,0.000,0.000,0.000,0.1360,-4,2,2.83,-1.39,0.89,0.0077,0.0068,0.1366,0.0000,0.0000,0.3000,0.2822,2.53,-2.18,-22.99,1.0280,0.2240,1.2170,1.2400,2.5720,24,0.0000,0.0000,0.0000,0.0000,0.0000,0
7411,-0.0042,0.0079,0.1377,-0.0441,0.0212,0.1749,1.59,-1.24,0.72,0,3.526,-2.367,-2.278,-2.469,0.010,-0.014,1.038,0.000,0.000,0.000,0.1450,0,0,1.24,-1.34,1.15,0.0055,0.0108,0.1469,0.0000,0.0000,0.3000,0.2767,1.48,-2.25,-21.48,1.0280,0.2240,1.2170,1.2450,2.5720,24,0.0000,0.0000,0.0000,0.0000,0.0000,0
7463,-0.0078,0.0102,0.1478,-0.0406,0.0133,0.1977,1.50,-1.14,0.64,0,3.542,-3.109,-1.355,-1.133,0.007,-0.016,1.025,0.000,0.000,0.000,0.1570,1,0,1.11,-1.23,1.02,0.0053,0.0112,0.1568,0.0000,0.0000,0.3000,0.2724,1.30,-2.37,-19.31,1.0470,0.1850,1.2190,1.2450,2.5540,24,0.0000,0.0000,0.0000,0.0000,0.0000,0
7515,-0.0101,0.0135,0.1595,-0.0326,0.0139,0.2179,1.23,-1.10,0.59,0,3.542,-2.676,1.022,-0.196,0.011,-0.010,1.011,0.000,0.000,0.000,0.1720,7,20,1.05,-1.06,0.96,0.0052,0.0098,0.1681,0.0000,0.0000,0.3000,0.2680,1.58,-2.20,-17.81,1.0470,0.1850,1.2190,1.2760,2.5540,24,0.0000,0.0000,0.0000,0.0000,0.0000,0
7566,-0.0103,0.0114,0.1710,-0.0208,-0.0048,0.2372,1.24,-1.03,0.59,0,3.552,-2.349,-1.043,-1.533,0.010,-0.016,0.995,0.000,0.000,0.000,0.1850,0,0,1.66,1.34,0.96,-0.0143,0.0019,0.1804,0.0000,0.0000,0.3000,0.2638,0.58,-1.70,-17.72,0.0000,0.2550,1.2130,1.2760,2.5290,24,0.0000,0.0000,0.0000,0.0000,0.0000,0
7617,-0.0169,0.0086,0.1848,-0.0326,-0.0234,0.2478,1.10,-1.02,0.54,0,3.547,-9.304,3.249,-0.382,0.008,-0.017,0.987,0.000,0.000,0.000,0.1900,8,0,1.54,1.39,0.88,-0.0229,-0.0039,0.1929,0.0000,0.0000,0.3000,0.2600,-0.50,-2.75,-16.10,0.0000,0.2550,1.2130,1.3340,2.5290,24,0.0000,0.0000,0.0000,0.0000,0.0000,0
7669,-0.0178,0.0106,0.1951,-0.0218,-0.0188,0.2332,0.62,-1.17,0.49,0,3.552,-1.400,0.590,-0.493,0.010,-0.005,0.984,0.000,0.000,0.000,0.2020,0,0,1.22,-0.09,0.71,-0.0154,-0.0130,0.2097,0.0000,0.0000,0.3000,0.2597,-0.14,-2.31,-14.66,0.0000,0.1930,1.2190,1.3340,2.4980,24,0.0000,0.0000,0.0000,0.0000,0.0000,0
7721,-0.0232,0.0108,0.2079,-0.0264,-0.0181,0.2182,0.38,-1.06,0.46,0,3.547,2.762,-1.174,0.197,0.009,-0.012,0.980,0.000,0.000,0.000,0.2130,3,-1,1.14,-0.13,0.68,-0.0179,-0.0211,0.2185,0.0000,0.0000,0.3000,0.2589,-0.09,-2.92,-13.84,0.0000,0.1930,1.2190,1.4090,2.4980,24,0.0000,0.0000,0.0000,0.0000,0.0000,0
7772,-0.0232,0.0101,0.2159,-0.0163,-0.0204,0.2074,0.39,-0.92,0.42,0,3.547,-1.379,0.375,0.065,0.005,-0.019,0.980,0.000,0.000,0.000,0.2260,1,0,0.66,-0.45,0.98,-0.0141,-0.0203,0.2285,0.0000,0.0000,0.3000,0.2585,-0.25,-2.44,-12.69,0.0000,0.2540,1.2110,1.4090,2.4810,24,0.0000,0.0000,0.0000,0.0000,0.0000,0
7823,-0.0225,0.0101,0.2268,-0.0043,-0.0195,0.2004,0.29,-0.92,0.43,0,3.547,-3.275,-2.278,1.097,0.006,-0.016,0.974,0.000,0.000,0.000,0.2350,-2,0,0.46,-0.47,1.03,-0.0139,-0.0244,0.2377,0.0000,0.0000,0.3000,0.2572,-0.21,-1.83,-12.80,0.0000,0.2540,1.2110,1.4650,2.4810,24,0.0000,0.0000,0.0000,0.0000,0.0000,0
7874,-0.0222,0.0074,0.2367,0.0044,-0.0277,0.1898,0.30,-0.81,0.46,0,3.552,4.143,-7.044,-1.077,0.006,-0.013,0.971,0.000,0.000,0.000,0.2450,0,-1,-0.06,-0.35,1.21,-0.0136,-0.0239,0.2462,0.0000,0.0000,0.3000,0.2565,-0.80,-1.39,-13.74,0.0000,0.1840,1.2200,1.4650,2.4540,28,0.0000,0.0000,0.0000,0.0000,0.0000,0
7925,-0.0226,0.0026,0.2463,0.0087,-0.0399,0.1780,0.30,-0.56,0.46,0,3.542,-2.786,-4.584,0.062,0.008,-0.018,0.971,0.000,0.000,0.000,0.2540,0,1,0.02,-0.04,1.22,-0.0116,-0.0251,0.2541,0.0000,0.0000,0.3000,0.2560,-1.74,-1.22,-13.90,0.0000,0.1840,1.2200,1.5150,2.4540,28,-0.0128,-0.0219,0.0000,-0.0128,-0.0219,0
7976,-0.0206,0.0010,0.2552,0.0179,-0.0408,0.1660,-0.06,-0.38,0.49,0,3.547,-8.162,-0.929,1.956,0.006,-0.013,0.973,0.000,0.000,0.000,0.2620,3,-1,-0.24,0.31,1.22,-0.0132,-0.0260,0.2619,0.0000,0.0000,0.3000,0.2556,-1.90,-0.63,-14.76,0.0000,0.2500,1.2270,1.5150,2.4430,28,-0.0128,-0.0219,0.0000,-0.0128,-0.0219,0
8028,-0.0187,0.0008,0.2633,0.0240,-0.0351,0.1533,-0.32,-0.27,0.52,0,3.547,-0.200,-1.791,2.279,0.006,-0.014,0.976,0.000,0.000,0.000,0.2660,-2,0,-0.52,0.30,1.29,-0.0109,-0.0329,0.2691,0.0000,0.0000,0.3000,0.2554,-1.64,-0.20,-15.73,0.0000,0.2500,1.2270,1.5520,2.4430,28,-0.0128,-0.0219,0.0000,-0.0128,-0.0219,0
8080,-0.0148,-0.0001,0.2692,0.0341,-0.0301,0.1335,-0.24,-0.09,0.61,0,3.542,1.442,-8.860,0.454,0.008,-0.017,0.976,0.000,0.000,0.000,0.2740,1,-1,-0.81,0.41,1.52,-0.0108,-0.0286,0.2748,0.0000,0.0000,0.3000,0.2565,-1.45,0.57,-18.24,0.0000,0.1770,1.2230,1.5520,2.4210,28,-0.0128,-0.0219,0.0000,-0.0128,-0.0219,0
8132,-0.0125,0.0012,0.2755,0.0365,-0.0202,0.1191,-0.19,0.23,0.66,0,3.537,2.106,-5.060,1.052,0.008,-0.013,0.976,0.000,0.000,0.000,0.2830,0,-1,-0.72,0.82,1.58,-0.0082,-0.0311,0.2804,0.0000,0.0000,0.3000,0.2568,-0.89,0.85,-19.91,0.0000,0.1770,1.2230,1.5720,2.4210,28,-0.0128,-0.0219,0.0000,-0.0128,-0.0219,0
8184,-0.0093,-0.0006,0.2825,0.0386,-0.0205,0.1139,-0.11,0.40,0.71,0,3.547,-2.590,-3.053,1.865,0.010,-0.012,0.983,0.000,0.000,0.000,0.2860,0,-1,-0.67,1.04,1.70,-0.0056,-0.0312,0.2863,0.0000,0.0000,0.3000,0.2561,-1.03,1.19,-21.39,0.0000,0.2340,1.2300,1.5720,2.4190,28,-0.0128,-0.0219,0.0000,-0.0128,-0.0219,0
8235,-0.0071,-0.0023,0.2875,0.0362,-0.0215,0.1029,-0.15,0.51,0.78,0,3.537,2.444,-0.462,0.776,0.008,-0.012,0.986,0.000,0.000,0.000,0.2910,0,-1,-0.86,1.16,1.86,-0.0028,-0.0311,0.2909,0.0000,0.0000,0.3000,0.2563,-1.20,1.23,-23.32,0.0000,0.2340,1.2300,1.5840,2.4190,28,-0.0128,-0.0219,0.0000,-0.0128,-0.0219,0
8286,-0.0041,-0.0048,0.2922,0.0348,-0.0243,0.0937,-0.03,0.61,0.83,0,3.542,1.988,-2.058,1.783,0.007,-0.016,0.986,0.000,0.000,0.000,0.2970,-5,-2,-0.76,1.15,1.96,-0.0000,-0.0310,0.2953,0.0000,0.0000,0.3000,0.2564,-1.52,1.37,-25.03,0.0000,0.1730,1.2250,1.5840,2.4030,28,-0.0128,-0.0219,0.0000,-0.0128,-0.0219,0
8337,-0.0016,-0.0039,0.2972,0.0320,-0.0190,0.0884,-0.01,0.66,0.91,0,3.537,-1.952,0.297,1.352,0.006,-0.009,0.987,0.000,0.000,0.000,0.2970,0,1,-1.00,1.15,2.43,0.0055,-0.0163,0.2997,0.0000,0.0000,0.3000,0.2560,-1.20,1.43,-27.31,0.0000,0.1730,1.2250,1.5840,2.4030,28,-0.0128,-0.0219,0.0000,-0.0128,-0.0219,0
8388,0.0008,-0.0054,0.2999,0.0288,-0.0202,0.0727,0.01,0.61,0.98,0,3.537,-2.788,0.178,2.085,0.005,-0.010,0.989,0.000,0.000,0.000,0.3060,-1,0,-1.05,1.23,2.36,0.0023,-0.0164,0.3027,0.0000,0.0000,0.3000,0.2572,-1.36,1.44,-29.41,0.0000,0.2210,1.2250,1.5840,2.4030,28,-0.0128,-0.0219,0.0000,-0.0128,-0.0219,0
8441,0.0021,-0.0071,0.3048,0.0235,-0.0222,0.0741,-0.01,0.56,1.07,0,3.537,-4.997,0.392,2.620,0.008,-0.020,0.989,0.000,0.000,0.000,0.3070,-3,0,-1.21,1.23,2.47,0.0021,-0.0131,0.3072,0.0000,0.0000,0.3000,0.2561,-1.59,1.28,-32.12,0.0000,0.2210,1.2250,1.5890,2.4030,28,-0.0128,-0.0219,0.0000,-0.0128,-0.0219,0
8493,0.0045,-0.0080,0.3081,0.0220,-0.0219,0.0683,-0.16,0.52,1.18,0,3.542,-0.166,-0.500,2.239,0.009,-0.012,0.985,0.000,0.000,0.000,0.3100,-2,0,-1.61,1.20,2.75,0.0017,-0.0035,0.3101,0.0000,0.0000,0.3000,0.2562,-1.64,1.39,-35.33,0.0000,0.1630,1.2270,1.5890,2.3930,16,-0.0128,-0.0219,0.0000,-0.0128,-0.0219,0
8544,0.0059,-0.0094,0.3111,0.0183,-0.0220,0.0603,-0.01,0.52,1.29,0,3.531,-0.582,-1.552,2.031,0.011,-0.014,0.988,0.000,0.000,0.000,0.3070,0,0,-1.65,1.22,2.91,0.0014,0.0028,0.3127,0.0000,0.0000,0.3000,0.2565,-1.74,1.30,-38.61,0.0000,0.1630,1.2270,1.5960,2.3930,16,-0.0128,-0.0219,0.0000,-0.0128,-0.0219,0
8596,0.0069,-0.0108,0.3112,0.0145,-0.0227,0.0419,-0.01,0.49,1.38,0,3.531,-0.063,-0.997,0.619,0.013,-0.011,0.996,0.000,0.000,0.000,0.3140,0,0,-1.69,1.30,3.01,0.0006,0.0078,0.3133,0.0000,0.0000,0.3000,0.2584,-1.87,1.19,-41.52,2.7380,0.1600,1.2320,1.5960,2.3880,16,-0.0128,-0.0219,0.0000,-0.0128,-0.0219,0
8648,0.0082,-0.0117,0.3137,0.0117,-0.0220,0.0418,-0.16,0.48,1.45,0,3.531,0.137,0.664,0.545,0.010,-0.014,1.003,0.000,0.000,0.000,0.3230,0,0,-1.69,1.35,3.05,-0.0005,0.0133,0.3156,0.0000,0.0000,0.3000,0.2580,-1.89,1.15,-43.47,2.7380,0.1600,1.2320,1.5950,2.3880,16,-0.0128,-0.0219,0.0000,-0.0128,-0.0219,0
8699,0.0096,-0.0133,0.3191,0.0095,-0.0221,0.0592,-0.21,0.42,1.48,0,3.537,1.351,0.171,0.717,0.011,-0.014,0.997,0.000,0.000,0.000,0.3180,-1,0,-1.68,1.31,3.07,-0.0019,0.0192,0.3202,0.0000,0.0000,0.3000,0.2550,-2.04,1.15,-44.49,0.0000,0.1510,1.2300,1.5950,2.3820,16,-0.0128,-0.0219,0.0000,-0.0128,-0.0219,0
8750,0.0098,-0.0137,0.3206,0.0055,-0.0187,0.0515,-0.13,0.41,1.49,0,3.531,0.330,-0.522,-0.185,0.008,-0.017,0.995,0.000,0.000,0.000,0.3230,-3,-2,-1.26,1.22,2.82,0.0051,-0.0031,0.3230,0.0000,0.0000,0.3000,0.2556,-1.90,0.98,-44.81,0.0000,0.1510,1.2300,1.5980,2.3820,16,-0.0128,-0.0219,0.0000,-0.0128,-0.0219,0
8802,0.0089,-0.0159,0.3233,-0.0003,-0.0206,0.0512,-0.05,0.37,1.47,0,3.537,0.754,1.028,-0.711,0.005,-0.015,0.995,0.000,0.000,0.000,0.3280,0,1,-1.29,1.20,2.93,0.0069,0.0018,0.3257,0.0000,0.0000,0.3000,0.2551,-2.16,0.63,-44.02,0.0000,0.1550,1.2320,1.5980,2.3690,16,-0.0128,-0.0219,0.0000,-0.0128,-0.0219,0
8854,0.0100,-0.0148,0.3270,-0.0013,-0.0160,0.0543,-0.11,0.32,1.41,0,3.531,-0.506,1.786,-1.206,0.007,-0.016,0.995,0.000,0.000,0.000,0.3270,-2,0,-1.23,1.17,2.84,0.0051,0.0033,0.3287,0.0000,0.0000,0.3000,0.2541,-1.86,0.67,-42.20,0.0000,0.1550,1.2320,1.6030,2.3690,16,-0.0128,-0.0219,0.0000,-0.0128,-0.0219,0
8905,0.0084,-0.0182,0.3287,-0.0068,-0.0207,0.0474,-0.04,0.25,1.33,0,3.531,2.211,1.931,-1.623,0.005,-0.016,0.988,0.000,0.000,0.000,0.3290,-1,-1,-1.30,1.07,2.83,0.0044,0.0079,0.3304,0.0000,0.0000,0.3000,0.2545,-2.33,0.28,-40.01,0.0000,0.1600,1.2350,1.6030,2.3720,16,-0.0128,-0.0219,0.0000,-0.0128,-0.0219,0
8956,0.0069,-0.0185,0.3303,-0.0112,-0.0192,0.0400,0.01,0.16,1.28,0,3.526,1.862,0.606,-1.750,0.010,-0.016,0.996,0.000,0.000,0.000,0.3260,-1,0,-1.18,0.93,2.81,0.0057,0.0111,0.3319,0.0000,0.0000,0.3000,0.2550,-2.27,-0.05,-38.44,0.0000,0.1600,1.2350,1.5900,2.3720,16,-0.0128,-0.0219,0.0000,-0.0128,-0.0219,0
9007,0.0071,-0.0178,0.3297,-0.0109,-0.0164,0.0244,-0.03,0.07,1.20,0,3.526,-0.901,0.682,-1.262,0.009,-0.015,1.000,0.000,0.000,0.000,0.3280,-1,1,-1.09,0.89,2.74,0.0053,0.0142,0.3317,0.0000,0.0000,0.3000,0.2568,-2.08,-0.01,-36.02,0.0000,0.1470,1.2340,1.5900,2.3700,16,-0.0128,-0.0219,0.0000,-0.0128,-0.0219,0
9058,0.0057,-0.0188,0.3297,-0.0130,-0.0167,0.0176,-0.05,-0.00,1.15,0,3.526,1.995,2.083,-1.495,0.010,-0.011,1.007,0.000,0.000,0.000,0.3310,-4,1,-1.13,0.89,2.63,0.0025,0.0173,0.3320,0.0000,0.0000,0.3000,0.2575,-2.15,-0.21,-34.38,0.0000,0.1470,1.2340,1.5950,2.3700,16,-0.0128,-0.0219,0.0000,-0.0128,-0.0219,0
9110,0.0052,-0.0225,0.3309,-0.0127,-0.0221,0.0203,0.00,-0.10,1.11,0,3.526,2.322,-0.363,-1.070,0.007,-0.013,1.007,0.000,0.000,0.000,0.3320,0,0,-1.13,0.80,2.63,-0.0009,0.0285,0.3329,0.0000,0.0000,0.3000,0.2570,-2.69,-0.24,-33.29,0.0000,0.2040,1.2400,1.5950,2.3660,16,-0.0128,-0.0219,0.0000,-0.0128,-0.0219,0
9163,0.0025,-0.0181,0.3321,-0.0155,-0.0123,0.0241,-0.00,-0.14,1.08,0,3.526,2.507,2.247,-1.023,0.008,-0.015,1.008,0.000,0.000,0.000,0.3300,0,0,-1.01,0.82,2.58,-0.0031,0.0339,0.3342,0.0000,0.0000,0.3000,0.2564,-1.91,-0.57,-32.52,0.0000,0.2040,1.2400,1.5830,2.3660,13,-0.0128,-0.0219,0.0000,-0.0128,-0.0219,0
9215,0.0019,-0.0261,0.3320,-0.0140,-0.0256,0.0223,0.04,-0.21,1.04,0,3.526,2.353,2.034,-0.921,0.005,-0.014,1.008,0.000,0.000,0.000,0.3300,0,0,-0.88,0.70,2.52,-0.0054,0.0393,0.3346,0.0000,0.0000,0.3000,0.2566,-3.13,-0.54,-31.29,2.7580,0.1520,1.2370,1.5830,2.3690,13,-0.0128,-0.0219,0.0000,-0.0128,-0.0219,0
9267,0.0019,-0.0243,0.3319,-0.0107,-0.0204,0.0197,-0.02,-0.32,1.00,0,3.521,-1.528,0.921,-0.806,0.008,-0.010,1.012,0.000,0.000,0.000,0.3380,-3,0,-0.75,0.60,2.47,-0.0079,0.0447,0.3349,0.0000,0.0000,0.3000,0.2569,-2.74,-0.38,-29.97,2.7580,0.1520,1.2370,1.5950,2.3690,13,-0.0128,-0.0219,0.0000,-0.0128,-0.0219,0
9318,-0.0001,-0.0295,0.3353,-0.0107,-0.0274,0.0364,-0.14,-0.32,0.95,0,3.526,-1.534,-1.380,-0.827,0.009,-0.013,1.007,0.000,0.000,0.000,0.3370,-3,0,-0.68,0.44,2.44,0.0018,0.0353,0.3383,0.0000,0.0000,0.3000,0.2544,-3.48,-0.53,-28.52,2.7590,0.1580,1.2400,1.5950,2.3650,13,-0.0128,-0.0219,0.0000,-0.0128,-0.0219,0
9369,0.0008,-0.0332,0.3375,-0.0059,-0.0309,0.0414,-0.14,-0.24,0.89,0,3.526,-1.282,1.753,-0.661,0.006,-0.015,1.009,0.000,0.000,0.000,0.3370,-1,0,-0.79,0.51,2.42,0.0014,0.0408,0.3402,0.0000,0.0000,0.3000,0.2535,-3.94,-0.23,-26.65,2.7590,0.1580,1.2400,1.5890,2.3650,13,-0.0128,-0.0219,0.0000,-0.0128,-0.0219,0
9420,-0.0001,-0.0334,0.3387,-0.0049,-0.0281,0.0393,-0.10,-0.29,0.82,0,3.531,-2.631,-0.930,-1.022,0.008,-0.011,1.004,0.000,0.000,0.000,0.3410,-1,-1,-0.86,0.41,2.38,0.0010,0.0441,0.3416,0.0000,0.0000,0.3000,0.2535,-3.82,-0.25,-24.58,2.7740,0.2100,1.2460,1.5890,2.3600,13,-0.0128,-0.0219,0.0000,-0.0128,-0.0219,0
9471,-0.0019,-0.0352,0.3412,-0.0055,-0.0282,0.0431,-0.24,-0.28,0.74,0,3.521,2.862,-2.353,-2.390,0.005,-0.013,1.001,0.000,0.000,0.000,0.3420,-1,0,-0.99,0.44,2.35,0.0024,0.0477,0.3438,0.0000,0.0000,0.3000,0.2526,-3.97,-0.41,-22.22,2.7740,0.2100,1.2460,1.5820,2.3600,13,-0.0128,-0.0219,0.0000,-0.0128,-0.0219,0
9522,-0.0012,-0.0337,0.3429,-0.0017,-0.0212,0.0414,-0.27,-0.17,0.65,0,3.526,-0.429,0.462,-2.027,0.012,-0.014,1.001,0.000,0.000,0.000,0.3440,0,0,-0.84,0.56,2.23,0.0023,0.0512,0.3456,0.0000,0.0000,0.3000,0.2524,-3.52,-0.17,-19.52,0.0000,0.1580,1.2420,1.5820,2.3550,13,-0.0128,-0.0219,0.0000,-0.0128,-0.0219,0
9573,-0.0014,-0.0331,0.3449,-0.0003,-0.0160,0.0402,-0.30,-0.23,0.57,0,3.526,-0.421,-0.820,-0.902,0.011,-0.013,0.999,0.000,0.000,0.000,0.3460,0,0,-0.86,0.54,2.13,0.0022,0.0547,0.3475,0.0000,0.0000,0.3000,0.2522,-3.23,-0.12,-17.06,0.0000,0.1580,1.2420,1.5910,2.3550,13,-0.0128,-0.0219,0.0000,-0.0128,-0.0219,0
9625,-0.0014,-0.0339,0.3467,0.0016,-0.0136,0.0387,-0.24,-0.21,0.50,0,3.526,2.655,-1.583,-2.007,0.010,-0.018,0.996,0.000,0.000,0.000,0.3470,0,0,-0.88,0.58,2.08,0.0022,0.0585,0.3493,0.0000,0.0000,0.3000,0.2520,-3.16,-0.02,-14.91,0.0000,0.2170,1.2440,1.5910,2.3530,13,-0.0128,-0.0219,0.0000,-0.0128,-0.0219,0
9677,-0.0000,-0.0345,0.3482,0.0054,-0.0118,0.0349,-0.14,-0.15,0.42,0,3.526,-1.090,-5.830,-1.902,0.010,-0.014,0.996,0.000,0.000,0.000,0.3510,-1,-1,-0.74,0.66,1.98,0.0021,0.0621,0.3507,0.0000,0.0000,0.3000,0.2521,-3.13,0.26,-12.67,0.0000,0.2170,1.2440,1.5860,2.3530,13,-0.0128,-0.0219,0.0000,-0.0128,-0.0219,0
9728,0.0003,-0.0419,0.3506,0.0066,-0.0225,0.0364,-0.15,-0.04,0.36,0,3.526,-2.526,-3.378,-0.182,0.013,-0.018,0.998,0.000,0.000,0.000,0.3510,0,0,-0.69,0.94,1.87,0.0061,0.0538,0.3529,0.0000,0.0000,0.3000,0.2515,-4.20,0.35,-10.81,0.0000,0.1680,1.2460,1.5860,2.3530,13,-0.0128,-0.0219,0.0000,-0.0128,-0.0219,0
9779,0.0030,-0.0329,0.3521,0.0109,-0.0039,0.0338,-0.32,-0.03,0.36,0,3.521,5.805,-3.229,-1.129,0.008,-0.015,0.999,0.000,0.000,0.000,0.3500,-4,-1,-0.82,1.11,1.87,0.0066,0.0550,0.3542,0.0000,0.0000,0.3000,0.2515,-2.62,0.76,-10.68,0.0000,0.1680,1.2460,1.5930,2.3530,13,-0.0128,-0.0219,0.0000,-0.0128,-0.0219,0
9830,0.0024,-0.0418,0.3522,0.0090,-0.0161,0.0259,-0.18,0.03,0.34,0,3.526,3.529,-2.572,-1.044,0.009,-0.016,0.999,0.000,0.000,0.000,0.3530,-5,-1,-0.61,1.25,1.89,0.0085,0.0640,0.3548,0.0000,0.0000,0.3000,0.2523,-3.87,0.62,-10.06,2.8090,0.2140,1.2370,1.5930,2.3460,13,-0.0128,-0.0219,0.0000,-0.0128,-0.0219,0
9881,0.0018,-0.0447,0.3535,0.0066,-0.0196,0.0247,-0.08,0.08,0.29,0,3.521,-0.248,2.136,-0.355,0.007,-0.018,0.997,0.000,0.000,0.000,0.3540,1,0,-0.50,1.37,1.91,0.0097,0.0727,0.3557,0.0000,0.0000,0.3000,0.2522,-4.25,0.46,-8.78,2.8090,0.2140,1.2370,1.5900,2.3460,13,-0.0128,-0.0219,0.0000,-0.0128,-0.0219,0
9934,0.0023,-0.0417,0.3545,0.0060,-0.0131,0.0235,-0.15,0.12,0.27,0,3.526,1.812,3.420,-0.085,0.010,-0.015,0.999,0.000,0.000,0.000,0.3530,1,1,-0.47,1.26,1.85,0.0099,0.0733,0.3567,0.0000,0.0000,0.3000,0.2522,-3.72,0.46,-8.15,0.0000,0.1620,1.2460,1.5900,2.3420,13,-0.0128,-0.0219,0.0000,-0.0128,-0.0219,0
9986,0.0014,-0.0343,0.3547,0.0030,0.0015,0.0194,-0.12,0.06,0.27,0,3.516,4.452,-0.834,-0.107,0.011,-0.020,1.001,0.000,0.000,0.000,0.3550,0,0,-0.33,1.10,1.78,0.0080,0.0725,0.3570,0.0000,0.0000,0.3000,0.2526,-2.45,0.25,-7.95,0.0000,0.1620,1.2460,1.5920,2.3420,12,-0.0128,-0.0219,0.0000,-0.0128,-0.0219,0
10038,-0.0017,-0.0482,0.3555,-0.0028,-0.0217,0.0186,0.13,0.04,0.25,0,3.526,-0.736,2.289,-1.960,0.009,-0.016,1.004,0.000,0.000,0.000,0.3560,0,2,-0.10,1.15,1.78,0.0072,0.0743,0.3576,0.0000,0.0000,0.3000,0.2525,-4.61,-0.26,-7.48,0.0000,0.2020,1.2480,1.5920,2.3430,12,-0.0128,-0.0219,0.0000,-0.0128,-0.0219,0
10090,-0.0028,-0.0430,0.3564,-0.0042,-0.0122,0.0196,0.05,-0.07,0.20,0,3.521,0.884,5.034,-1.503,0.011,-0.013,1.002,0.000,0.000,0.000,0.3590,-1,0,-0.11,1.08,1.64,0.0009,0.0726,0.3583,0.0000,0.0000,0.3000,0.2522,-3.77,-0.41,-6.00,0.0000,0.2020,1.2480,1.5940,2.3430,12,-0.0128,-0.0219,0.0000,-0.0128,-0.0219,0
10141,-0.0053,-0.0462,0.3582,-0.0072,-0.0168,0.0243,-0.11,-0.22,0.15,0,3.521,2.789,0.550,-2.065,0.010,-0.011,0.999,0.000,0.000,0.000,0.3560,1,0,-0.08,0.80,1.58,-0.0001,0.0748,0.3598,0.0000,0.0000,0.3000,0.2514,-4.25,-0.75,-4.37,0.0000,0.1620,1.2390,1.5940,2.3440,12,-0.0128,-0.0219,0.0000,-0.0128,-0.0219,0
10192,-0.0052,-0.0413,0.3581,-0.0044,-0.0060,0.0175,-0.14,-0.30,0.08,0,3.516,4.186,-0.395,-1.862,0.010,-0.015,1.000,0.000,0.000,0.000,0.3560,-3,0,0.09,0.76,1.44,-0.0007,0.0727,0.3598,0.0000,0.0000,0.3000,0.2521,-3.35,-0.60,-2.43,0.0000,0.1620,1.2390,1.5940,2.3440,12,-0.0128,-0.0219,0.0000,-0.0128,-0.0219,0
10243,-0.0063,-0.0455,0.3577,-0.0037,-0.0120,0.0100,0.02,-0.25,-0.00,0,3.521,-1.591,0.518,-0.798,0.012,-0.023,0.998,0.000,0.000,0.000,0.3570,1,0,0.24,0.77,1.41,-0.0016,0.0801,0.3598,0.0000,0.0000,0.3000,0.2530,-3.93,-0.65,0.03,2.8070,0.2180,1.2410,1.5940,2.3400,12,-0.0128,-0.0219,0.0000,-0.0128,-0.0219,0
10295,-0.0064,-0.0412,0.3577,-0.0015,-0.0033,0.0071,-0.15,-0.24,-0.02,0,3.516,-1.773,-2.139,0.565,0.012,-0.012,1.002,0.000,0.000,0.000,0.3560,-3,0,0.18,0.73,1.34,-0.0019,0.0775,0.3598,0.0000,0.0000,0.3000,0.2533,-3.19,-0.54,0.70,2.8070,0.2180,1.2410,1.5970,2.3400,12,-0.0128,-0.0219,0.0000,-0.0128,-0.0219,0
10347,-0.0078,-0.0480,0.3572,-0.0021,-0.0140,0.0034,-0.16,-0.16,-0.02,0,3.521,-2.015,-1.059,0.808,0.009,-0.014,1.006,0.000,0.000,0.000,0.3580,0,0,0.01,0.83,1.43,-0.0025,0.0862,0.3595,0.0000,0.0000,0.3000,0.2538,-4.20,-0.67,0.69,0.0000,0.1650,1.2380,1.5970,2.3370,12,-0.0128,-0.0219,0.0000,-0.0128,-0.0219,0
10398,-0.0075,-0.0450,0.3577,0.0001,-0.0065,0.0072,-0.14,-0.17,0.03,0,3.516,0.243,-2.778,1.757,0.013,-0.014,1.008,0.000,0.000,0.000,0.3580,-2,2,-0.09,0.89,1.47,-0.0039,0.0870,0.3598,0.0000,0.0000,0.3000,0.2533,-3.62,-0.54,-0.77,0.0000,0.1650,1.2380,1.6000,2.3370,12,-0.0128,-0.0219,0.0000,-0.0128,-0.0219,0
10449,-0.0079,-0.0483,0.3581,0.0005,-0.0111,0.0104,-0.08,-0.14,0.09,0,3.521,0.008,-0.082,1.837,0.014,-0.018,1.005,0.000,0.000,0.000,0.3570,-2,-1,-0.14,1.07,1.63,-0.0113,0.0953,0.3601,0.0000,0.0000,0.3000,0.2528,-4.10,-0.56,-2.75,0.0000,0.2160,1.2370,1.6000,2.3310,12,-0.0128,-0.0219,0.0000,-0.0128,-0.0219,0
10500,-0.0087,-0.0457,0.3581,0.0003,-0.0050,0.0098,-0.07,-0.13,0.19,0,3.516,2.772,-3.658,1.567,0.014,-0.019,1.005,0.000,0.000,0.000,0.3620,0,-1,-0.17,1.04,1.73,-0.0096,0.1009,0.3601,0.0000,0.0000,0.3000,0.2529,-3.61,-0.62,-5.81,0.0000,0.2160,1.2370,1.5950,2.3310,12,-0.0128,-0.0219,0.0000,-0.0128,-0.0219,0
10551,-0.0083,-0.0434,0.3602,0.0017,0.0001,0.0208,-0.10,-0.02,0.31,0,3.521,1.369,0.862,2.899,0.006,-0.014,0.999,0.000,0.000,0.000,0.3620,-1,0,-0.02,1.20,1.78,-0.0074,0.1015,0.3617,0.0000,0.0000,0.3000,0.2513,-3.22,-0.53,-9.41,0.0000,0.1620,1.2380,1.5950,2.3370,12,-0.0128,-0.0219,0.0000,-0.0128,-0.0219,0
10602,-0.0081,-0.0448,0.3618,0.0019,-0.0021,0.0243,0.01,-0.06,0.44,0,3.521,2.233,-2.906,2.691,0.010,-0.017,1.000,0.000,0.000,0.000,0.3630,0,-1,0.03,1.15,1.94,-0.0079,0.1046,0.3628,0.0000,0.0000,0.3000,0.2506,-3.44,-0.51,-13.26,0.0000,0.1620,1.2380,1.5930,2.3370,12,-0.0128,-0.0219,0.0000,-0.0128,-0.0219,0
10653,-0.0084,-0.0416,0.3631,0.0017,0.0038,0.0246,0.09,0.03,0.55,0,3.526,-0.644,-0.760,1.344,0.011,-0.018,0.999,0.000,0.000,0.000,0.3650,0,0,0.15,1.26,2.05,-0.0051,0.1049,0.3640,0.0000,0.0000,0.3000,0.2504,-2.91,-0.54,-16.57,0.0000,0.2130,1.2330,1.5930,2.3400,12,-0.0128,-0.0219,0.0000,-0.0128,-0.0219,0
10704,-0.0069,-0.0416,0.3648,0.0035,0.0028,0.0252,0.05,0.13,0.66,0,3.516,0.122,0.763,1.598,0.009,-0.017,0.994,0.000,0.000,0.000,0.3630,0,0,0.11,1.30,2.12,-0.0063,0.1053,0.3653,0.0000,0.0000,0.3000,0.2500,-2.97,-0.34,-19.74,0.0000,0.2130,1.2330,1.5960,2.3400,17,-0.0128,-0.0219,0.0000,-0.0128,-0.0219,0
10756,-0.0069,-0.0404,0.3647,0.0021,0.0039,0.0157,0.14,0.12,0.75,0,3.521,0.806,-0.321,1.800,0.012,-0.015,0.987,0.000,0.000,0.000,0.3630,0,0,0.12,1.26,2.20,-0.0077,0.1052,0.3655,0.0000,0.0000,0.3000,0.2510,-2.81,-0.41,-22.42,0.0000,0.1590,1.2310,1.5960,2.3330,17,-0.0128,-0.0219,0.0000,-0.0128,-0.0219,0
10808,-0.0069,-0.0402,0.3645,0.0013,0.0025,0.0067,0.20,0.08,0.83,0,3.516,1.061,0.004,1.025,0.011,-0.018,0.996,0.000,0.000,0.000,0.3650,1,0,0.16,1.28,2.30,-0.0094,0.1047,0.3652,0.0000,0.0000,0.3000,0.2520,-2.86,-0.45,-24.90,0.0000,0.1590,1.2310,1.5920,2.3330,17,-0.0128,-0.0219,0.0000,-0.0128,-0.0219,0
10859,-0.0068,-0.0387,0.3649,0.0006,0.0032,0.0040,0.14,0.06,0.91,0,3.521,-1.446,2.552,1.926,0.010,-0.016,0.992,0.000,0.000,0.000,0.3640,-2,0,0.21,1.21,2.31,-0.0006,0.1046,0.3655,0.0000,0.0000,0.3000,0.2522,-2.71,-0.47,-27.20,0.0000,0.1580,1.2240,1.5920,2.3320,17,-0.0128,-0.0219,0.0000,-0.0128,-0.0219,0
10910,-0.0073,-0.0399,0.3645,-0.0006,-0.0011,-0.0020,0.18,-0.01,1.00,0,3.510,-2.079,-1.139,2.868,0.014,-0.017,0.998,0.000,0.000,0.000,0.3660,0,0,0.11,1.08,2.43,-0.0011,0.1065,0.3652,0.0000,0.0000,0.3000,0.2529,-3.00,-0.57,-30.00,0.0000,0.1580,1.2240,1.6000,2.3320,17,-0.0128,-0.0219,0.0000,-0.0128,-0.0219,0
10961,-0.0074,-0.0403,0.3651,-0.0006,-0.0039,0.0005,0.22,0.03,1.12,0,3.516,-4.672,-1.666,2.027,0.008,-0.018,1.003,0.000,0.000,0.000,0.3640,0,0,-0.00,1.14,2.58,-0.0018,0.1052,0.3654,0.0000,0.0000,0.3000,0.2525,-3.17,-0.58,-33.52,0.0000,0.1510,1.2330,1.6000,2.3360,17,-0.0128,-0.0219,0.0000,-0.0128,-0.0219,0
11012,-0.0062,-0.0400,0.3646,0.0011,-0.0047,-0.0023,0.10,0.07,1.22,0,3.510,0.711,0.035,1.124,0.010,-0.019,1.000,0.000,0.000,0.000,0.3640,-2,0,-0.24,1.22,2.68,-0.0028,0.1034,0.3650,0.0000,0.0000,0.3000,0.2529,-3.19,-0.41,-36.61,0.0000,0.1510,1.2330,1.5940,2.3360,17,-0.0128,-0.0219,0.0000,-0.0128,-0.0219,0
11065,-0.0063,-0.0434,0.3643,0.0002,-0.0114,-0.0037,0.03,0.07,1.29,0,3.516,-1.786,1.509,1.926,0.012,-0.011,0.996,0.000,0.000,0.000,0.3640,-1,0,-0.32,1.19,2.83,-0.0009,0.1146,0.3649,0.0000,0.0000,0.3000,0.2532,-3.76,-0.45,-38.74,0.0000,0.1450,1.2410,1.5940,2.3360,17,-0.0128,-0.0219,0.0000,-0.0128,-0.0219,0
11117,-0.0047,-0.0403,0.3640,0.0024,-0.0053,-0.0047,-0.01,0.01,1.35,0,3.510,0.824,0.342,0.352,0.012,-0.015,1.003,0.000,0.000,0.000,0.3630,0,0,-0.42,1.11,2.94,-0.0015,0.1163,0.3645,0.0000,0.0000,0.3000,0.2533,-3.23,-0.23,-40.36,0.0000,0.1450,1.2410,1.5960,2.3360,17,-0.0128,-0.0219,0.0000,-0.0128,-0.0219,0
11168,-0.0046,-0.0403,0.3634,0.0024,-0.0048,-0.0061,0.01,-0.00,1.36,0,3.516,-0.622,-3.342,0.599,0.010,-0.023,0.997,0.000,0.000,0.000,0.3620,0,0,-0.38,1.09,2.96,-0.0024,0.1167,0.3639,0.0000,0.0000,0.3000,0.2536,-3.20,-0.22,-40.94,2.8000,0.1500,1.2380,1.5960,2.3360,17,-0.0128,-0.0219,0.0000,-0.0128,-0.0219,0
11219,-0.0045,-0.0405,0.3625,0.0023,-0.0050,-0.0095,0.10,0.09,1.38,0,3.510,-4.168,1.540,-0.402,0.008,-0.013,0.997,0.000,0.000,0.000,0.3610,-1,0,-0.41,1.26,2.99,-0.0035,0.1167,0.3631,0.0000,0.0000,0.3000,0.2541,-3.22,-0.22,-41.27,2.8000,0.1500,1.2380,1.5940,2.3360,17,-0.0128,-0.0219,0.0000,-0.0128,-0.0219,0
11270,-0.0023,-0.0461,0.3615,0.0056,-0.0152,-0.0119,-0.05,0.01,1.37,0,3.510,-3.027,-0.779,-0.152,0.011,-0.014,1.004,0.000,0.000,0.000,0.3600,3,0,-0.66,1.15,3.00,-0.0007,0.1205,0.3621,0.0000,0.0000,0.3000,0.2545,-4.12,0.10,-41.15,0.0000,0.1460,1.2450,1.5940,2.3330,17,-0.0128,-0.0219,0.0000,-0.0128,-0.0219,0
11322,-0.0026,-0.0401,0.3605,0.0045,-0.0030,-0.0122,-0.09,0.03,1.36,0,3.505,1.094,-0.810,-0.702,0.009,-0.014,1.006,0.000,0.000,0.000,0.3600,-2,0,-0.77,1.18,2.95,-0.0009,0.1167,0.3612,0.0000,0.0000,0.3000,0.2548,-3.09,0.03,-40.70,0.0000,0.1460,1.2450,1.5920,2.3330,17,-0.0128,-0.0219,0.0000,-0.0128,-0.0219,0
11374,-0.0032,-0.0454,0.3599,0.0026,-0.0113,-0.0099,-0.04,0.08,1.33,0,3.510,1.270,-0.440,-0.474,0.010,-0.017,1.002,0.000,0.000,0.000,0.3590,0,0,-0.74,1.22,2.95,-0.0017,0.1198,0.3606,0.0000,0.0000,0.3000,0.2546,-3.88,-0.11,-39.82,0.0000,0.1460,1.2420,1.5920,2.3390,17,-0.0128,-0.0219,0.0000,-0.0128,-0.0219,0
11426,-0.0024,-0.0441,0.3592,0.0029,-0.0080,-0.0087,-0.01,0.10,1.30,0,3.505,-2.553,0.609,-0.416,0.010,-0.020,1.003,0.000,0.000,0.000,0.3590,0,0,-0.68,1.24,2.92,-0.0029,0.1200,0.3598,0.0000,0.0000,0.3000,0.2546,-3.63,-0.04,-38.90,0.0000,0.1460,1.2420,1.5900,2.3390,17,-0.0128,-0.0219,0.0000,-0.0128,-0.0219,0
11477,-0.0005,-0.0478,0.3589,0.0053,-0.0133,-0.0056,-0.18,0.05,1.28,0,3.510,0.399,-0.891,-1.234,0.010,-0.018,1.005,0.000,0.000,0.000,0.3540,-2,0,-0.81,1.21,2.90,-0.0044,0.1201,0.3593,0.0000,0.0000,0.3000,0.2544,-4.15,0.22,-38.26,0.0000,0.1420,1.2460,1.5900,2.3410,17,-0.0128,-0.0219,0.0000,-0.0128,-0.0219,0
11528,-0.0005,-0.0500,0.3565,0.0042,-0.0151,-0.0136,-0.15,0.07,1.24,0,3.500,-0.017,-1.348,-0.256,0.007,-0.014,1.005,0.000,0.000,0.000,0.3560,1,0,-0.85,1.21,2.93,-0.0009,0.1277,0.3575,0.2460,-0.0416,0.3000,0.2557,-4.98,-17.04,-37.20,0.0000,0.1420,1.2460,1.5920,2.3410,17,-0.0128,-0.0219,0.0000,-0.0128,-0.0219,0
11580,0.0007,-0.0479,0.3559,0.0054,-0.0092,-0.0113,-0.10,0.09,1.23,0,3.510,-2.284,-0.721,0.069,0.005,-0.016,1.002,0.000,0.000,0.000,0.3540,1,0,-0.83,1.28,2.90,-0.0014,0.1271,0.3569,0.2460,-0.0416,0.3000,0.2555,-4.55,-16.92,-36.80,0.0000,0.1480,1.2470,1.5920,2.3420,15,-0.0128,-0.0219,0.0000,-0.0128,-0.0219,0
11631,0.0021,-0.0508,0.3547,0.0067,-0.0124,-0.0127,-0.10,0.07,1.21,0,3.500,-1.570,1.006,0.227,0.011,-0.016,1.012,0.000,0.000,0.000,0.3540,0,0,-0.93,1.31,2.89,-0.0019,0.1259,0.3558,0.2460,-0.0416,0.3000,0.2559,-4.91,-16.75,-36.32,0.0000,0.1480,1.2470,1.5860,2.3420,15,-0.0128,-0.0219,0.0000,-0.0128,-0.0219,0
11682,0.0025,-0.0534,0.3540,0.0065,-0.0148,-0.0093,-0.22,0.04,1.20,0,3.510,-2.631,-3.157,-0.500,0.008,-0.023,1.011,0.000,0.000,0.000,0.3530,0,0,-1.01,1.26,2.90,-0.0034,0.1264,0.3552,0.2460,-0.0416,0.3000,0.2557,-5.22,-16.75,-36.12,0.0000,0.1460,1.2510,1.5860,2.3410,15,-0.0128,-0.0219,0.0000,-0.0128,-0.0219,0
11733,0.0041,-0.0551,0.3533,0.0080,-0.0145,-0.0068,-0.33,0.12,1.19,0,3.500,0.649,-2.528,-0.819,0.010,-0.018,1.002,0.000,0.000,0.000,0.3530,-2,-1,-1.14,1.42,2.88,-0.0053,0.1267,0.3547,0.2460,-0.0416,0.3000,0.2555,-5.33,-16.59,-35.76,0.0000,0.1460,1.2510,1.5920,2.3410,15,-0.0128,-0.0219,0.0000,-0.0128,-0.0219,0
11784,0.0049,-0.0548,0.3530,0.0079,-0.0111,-0.0041,-0.24,0.17,1.16,0,3.510,0.087,-0.547,-0.999,0.008,-0.018,1.006,0.000,0.000,0.000,0.3530,0,0,-1.16,1.47,2.98,0.0030,0.1334,0.3545,0.2460,-0.0416,0.3000,0.2553,-5.15,-16.55,-34.89,0.0000,0.1450,1.2460,1.5920,2.3490,15,-0.0128,-0.0219,0.0000,-0.0128,-0.0219,0
11835,0.0065,-0.0521,0.3529,0.0087,-0.0032,-0.0016,-0.24,0.14,1.14,0,3.505,0.602,0.060,-0.482,0.010,-0.020,1.010,0.000,0.000,0.000,0.3560,-1,0,-1.15,1.50,2.93,0.0024,0.1352,0.3543,0.2460,-0.0416,0.3000,0.2550,-4.58,-16.43,-34.11,0.0000,0.1450,1.2460,1.5890,2.3490,15,-0.0128,-0.0219,0.0000,-0.0128,-0.0219,0
11888,0.0069,-0.0571,0.3543,0.0072,-0.0101,0.0083,-0.17,0.14,1.10,0,3.510,6.055,1.340,-1.388,0.007,-0.020,1.003,0.000,0.000,0.000,0.3550,0,0,-1.12,1.48,2.92,0.0027,0.1370,0.3553,0.2460,-0.0416,0.3000,0.2537,-5.30,-16.56,-33.05,0.0000,0.1500,1.2520,1.5890,2.3360,15,-0.0128,-0.0219,0.0000,-0.0128,-0.0219,0
11940,0.0068,-0.0542,0.3549,0.0053,-0.0030,0.0105,-0.04,0.11,1.04,0,3.500,0.706,0.485,-1.592,0.010,-0.019,0.998,0.000,0.000,0.000,0.3520,0,0,-0.80,1.41,2.84,0.0015,0.1388,0.3558,0.2460,-0.0416,0.3000,0.2533,-4.75,-16.68,-31.14,0.0000,0.1500,1.2520,1.5910,2.3360,15,-0.0128,-0.0219,0.0000,-0.0128,-0.0219,0
11991,0.0073,-0.0525,0.3540,0.0047,0.0007,0.0038,-0.04,0.05,0.97,0,3.510,-0.650,-0.586,-0.984,0.009,-0.016,0.997,0.000,0.000,0.000,0.3540,-1,-1,-0.76,1.39,2.76,-0.0000,0.1403,0.3551,0.2460,-0.0416,0.3000,0.2542,-4.43,-16.62,-29.24,2.8160,0.1490,1.2480,1.5910,2.3400,15,-0.0128,-0.0219,0.0000,-0.0128,-0.0219,0
12042,0.0057,-0.0521,0.3541,0.0009,0.0017,0.0028,-0.06,0.07,0.93,0,3.500,-0.320,-0.808,-0.173,0.009,-0.014,1.001,0.000,0.000,0.000,0.3550,-3,0,-0.78,1.35,2.79,0.0070,0.1409,0.3553,0.2460,-0.0416,0.3000,0.2543,-4.35,-16.89,-27.76,2.8160,0.1490,1.2480,1.5840,2.3400,15,-0.0128,-0.0219,0.0000,-0.0128,-0.0219,0
12093,0.0070,-0.0523,0.3546,0.0024,0.0014,0.0038,-0.03,0.10,0.88,0,3.510,5.351,2.572,-1.353,0.010,-0.018,0.994,0.000,0.000,0.000,0.3550,0,0,-0.83,1.39,2.82,0.0065,0.1456,0.3555,0.2460,-0.0416,0.3000,0.2541,-4.39,-16.76,-26.44,2.7830,0.1470,1.2420,1.5840,2.3460,15,-0.0128,-0.0219,0.0000,-0.0128,-0.0219,0
12144,0.0089,-0.0474,0.3549,0.0049,0.0099,0.0040,0.09,0.00,0.83,0,3.494,0.689,0.756,-1.026,0.009,-0.013,1.000,0.000,0.000,0.000,0.3530,3,0,-0.55,1.26,2.75,0.0057,0.1476,0.3555,0.2460,-0.0416,0.3000,0.2540,-3.62,-16.53,-24.92,2.7830,0.1470,1.2420,1.5840,2.3460,2,-0.0128,-0.0219,0.0000,-0.0128,-0.0219,0
12196,0.0079,-0.0462,0.3542,0.0027,0.0106,-0.0012,0.13,-0.05,0.77,0,3.505,-0.511,-0.924,-0.054,0.014,-0.020,1.000,0.000,0.000,0.000,0.3530,-5,0,-0.42,1.20,2.59,0.0071,0.1378,0.3551,0.2460,-0.0416,0.3000,0.2547,-3.48,-16.65,-23.13,0.0000,0.1490,1.2400,1.5840,2.3430,2,-0.0128,-0.0219,0.0000,-0.0128,-0.0219,0
12247,0.0089,-0.0505,0.3536,0.0045,0.0002,-0.0046,0.21,0.02,0.75,0,3.500,-2.218,-0.480,-0.225,0.008,-0.020,0.998,0.000,0.000,0.000,0.3530,0,0,-0.52,1.25,2.67,0.0061,0.1457,0.3548,0.2460,-0.0416,0.3000,0.2552,-4.30,-16.48,-22.53,0.0000,0.1490,1.2400,1.5790,2.3430,2,-0.0128,-0.0219,0.0000,-0.0128,-0.0219,0
12298,0.0083,-0.0484,0.3532,0.0029,0.0017,-0.0063,0.23,0.04,0.75,0,3.505,-0.793,2.187,0.638,0.010,-0.018,1.002,0.000,0.000,0.000,0.3540,-2,-1,-0.63,1.27,2.66,0.0050,0.1463,0.3542,0.2460,-0.0416,0.3000,0.2554,-4.07,-16.58,-22.55,0.0000,0.1550,1.2460,1.5790,2.3530,2,-0.0128,-0.0219,0.0000,-0.0128,-0.0219,0
12350,0.0086,-0.0492,0.3534,0.0028,-0.0015,-0.0030,0.14,-0.03,0.76,0,3.500,-1.899,0.569,0.527,0.013,-0.012,1.005,0.000,0.000,0.000,0.3530,-1,0,-0.72,1.12,2.76,0.0092,0.1527,0.3542,0.2460,-0.0416,0.3000,0.2551,-4.29,-16.59,-22.79,0.0000,0.1550,1.2460,1.5820,2.3530,2,-0.0128,-0.0219,0.0000,-0.0128,-0.0219,0
12401,0.0102,-0.0506,0.3531,0.0057,-0.0055,-0.0031,0.06,-0.08,0.79,0,3.505,-0.225,-2.968,0.932,0.013,-0.016,1.000,0.000,0.000,0.000,0.3530,-3,-1,-0.83,1.08,2.80,0.0089,0.1554,0.3539,0.2460,-0.0416,0.3000,0.2551,-4.58,-16.35,-23.57,0.0000,0.1490,1.2510,1.5820,2.3480,2,-0.0128,-0.0219,0.0000,-0.0128,-0.0219,0
12454,0.0110,-0.0515,0.3530,0.0073,-0.0074,-0.0032,0.07,0.01,0.83,0,3.500,-1.451,0.264,0.318,0.009,-0.018,0.998,0.000,0.000,0.000,0.3520,0,0,-0.88,1.22,2.89,0.0105,0.1626,0.3535,0.2460,-0.0416,0.3000,0.2551,-4.73,-16.23,-25.02,0.0000,0.1490,1.2510,1.5750,2.3480,2,-0.0128,-0.0219,0.0000,-0.0128,-0.0219,0
12505,0.0128,-0.0514,0.3524,0.0100,-0.0074,-0.0054,0.03,0.09,0.88,0,3.505,-3.770,0.740,1.239,0.014,-0.013,1.001,0.000,0.000,0.000,0.3500,3,0,-0.96,1.20,2.91,0.0101,0.1656,0.3529,0.2460,-0.0416,0.3000,0.2555,-4.73,-15.97,-26.35,0.0000,0.1500,1.2460,1.5750,2.3460,2,-0.0128,-0.0219,0.0000,-0.0128,-0.0219,0
12556,0.0130,-0.0527,0.3512,0.0088,-0.0095,-0.0105,-0.06,0.06,0.93,0,3.494,-1.387,-1.297,1.355,0.012,-0.018,1.005,0.000,0.000,0.000,0.3510,0,0,-1.02,1.16,2.87,0.0116,0.1502,0.3525,0.2460,-0.0416,0.3000,0.2563,-4.91,-15.96,-28.01,0.0000,0.1500,1.2460,1.5770,2.3460,2,-0.0128,-0.0219,0.0000,-0.0128,-0.0219,0
12607,0.0141,-0.0547,0.3507,0.0091,-0.0117,-0.0102,-0.15,0.14,0.97,0,3.505,-2.498,-1.302,1.650,0.011,-0.018,0.999,0.000,0.000,0.000,0.3520,8,0,-1.09,1.22,2.94,0.0112,0.1495,0.3520,0.2460,-0.0416,0.3000,0.2563,-5.15,-15.88,-29.23,2.7870,0.1460,1.2460,1.5770,2.3430,2,-0.0128,-0.0219,0.0000,-0.0128,-0.0219,0
12659,0.0190,-0.0458,0.3510,0.0163,0.0081,-0.0065,-0.18,0.19,1.02,0,3.500,0.649,-4.110,-0.777,0.009,-0.017,0.998,0.000,0.000,0.000,0.3470,0,-1,-1.03,1.28,2.90,0.0137,0.1215,0.3517,0.2460,-0.0416,0.3000,0.2559,-3.57,-15.26,-30.51,2.7870,0.1460,1.2460,1.5830,2.3430,2,-0.0128,-0.0219,0.0000,-0.0128,-0.0219,0
12710,0.0175,-0.0553,0.3490,0.0102,-0.0082,-0.0142,-0.25,0.27,1.08,0,3.500,3.659,-1.033,0.177,0.009,-0.017,1.004,0.000,0.000,0.000,0.3490,0,0,-1.02,1.47,2.90,0.0156,0.1191,0.3504,0.2460,-0.0416,0.3000,0.2571,-5.01,-15.56,-32.29,0.0000,0.1480,1.2480,1.5830,2.3510,2,-0.0128,-0.0219,0.0000,-0.0128,-0.0219,0
12762,0.0202,-0.0552,0.3486,0.0119,-0.0056,-0.0124,-0.22,0.30,1.11,0,3.500,0.286,1.121,-0.064,0.013,-0.021,1.003,0.000,0.000,0.000,0.3500,-3,-2,-0.83,1.53,2.91,0.0152,0.1138,0.3498,0.2460,-0.0416,0.3000,0.2569,-4.89,-15.32,-33.41,0.0000,0.1480,1.2480,1.5840,2.3510,2,-0.0128,-0.0219,0.0000,-0.0128,-0.0219,0
12813,0.0207,-0.0554,0.3488,0.0092,-0.0038,-0.0072,-0.24,0.30,1.14,0,3.505,3.008,-1.953,-1.200,0.005,-0.018,1.001,0.000,0.000,0.000,0.3480,-3,-1,-0.98,1.40,3.12,0.0225,0.1313,0.3510,0.2460,-0.0416,0.3000,0.2563,-4.83,-15.44,-34.10,0.0000,0.1450,1.2510,1.5840,2.3500,2,-0.0128,-0.0219,0.0000,-0.0128,-0.0219,0
12864,0.0213,-0.0553,0.3483,0.0067,-0.0020,-0.0065,-0.20,0.31,1.13,0,3.494,1.265,0.319,-1.236,0.012,-0.017,1.002,0.000,0.000,0.000,0.3470,4,1,-0.87,1.49,3.12,0.0243,0.1372,0.3500,0.2460,-0.0416,0.3000,0.2564,-4.73,-15.52,-33.78,0.0000,0.1450,1.2510,1.5820,2.3500,2,-0.0128,-0.0219,0.0000,-0.0128,-0.0219,0
12916,0.0237,-0.0509,0.3475,0.0081,0.0082,-0.0077,-0.12,0.27,1.11,0,3.500,6.984,-1.285,-1.380,0.009,-0.016,1.001,0.000,0.000,0.000,0.3440,0,0,-0.74,1.49,2.97,0.0228,0.1282,0.3493,0.2460,-0.0416,0.3000,0.2566,-3.92,-15.28,-33.33,0.0000,0.1430,1.2460,1.5820,2.3540,2,-0.0128,-0.0219,0.0000,-0.0128,-0.0219,0
12967,0.0227,-0.0501,0.3457,0.0033,0.0102,-0.0155,-0.03,0.20,1.08,0,3.494,3.554,-0.525,-1.445,0.012,-0.017,0.997,0.000,0.000,0.000,0.3420,4,1,-0.37,1.56,2.90,0.0224,0.1266,0.3475,0.2460,-0.0416,0.3000,0.2578,-3.75,-15.49,-32.33,0.0000,0.1430,1.2460,1.5750,2.3540,2,-0.0128,-0.0219,0.0000,-0.0128,-0.0219,0
13018,0.0230,-0.0518,0.3436,0.0018,0.0062,-0.0221,0.11,0.13,1.01,0,3.494,-2.824,-0.087,-2.534,0.007,-0.019,1.007,0.000,0.000,0.000,0.3430,0,0,-0.11,1.60,2.73,0.0206,0.1131,0.3451,0.2460,-0.0416,0.3000,0.2589,-4.04,-15.48,-30.20,0.0000,0.1390,1.2530,1.5750,2.3620,2,-0.0128,-0.0219,0.0000,-0.0128,-0.0219,0
13069,0.0218,-0.0570,0.3426,-0.0016,-0.0050,-0.0188,0.04,0.10,0.97,0,3.494,1.255,0.250,0.781,0.015,-0.014,1.008,0.000,0.000,0.000,0.3450,0,0,-0.25,1.60,2.60,0.0190,0.1085,0.3439,0.2460,-0.0416,0.3000,0.2587,-4.95,-15.73,-29.00,0.0000,0.1390,1.2530,1.5770,2.3620,2,-0.0128,-0.0219,0.0000,-0.0128,-0.0219,0
13120,0.0207,-0.0566,0.3431,-0.0044,-0.0040,-0.0087,0.00,0.07,0.99,0,3.500,-4.122,2.522,-0.755,0.007,-0.016,1.009,0.000,0.000,0.000,0.3430,0,0,-0.19,1.59,2.64,0.0171,0.1037,0.3438,0.2460,-0.0416,0.3000,0.2576,-4.90,-16.00,-29.69,2.7670,0.1410,1.2410,1.5770,2.3590,2,-0.0128,-0.0219,0.0000,-0.0128,-0.0219,0
13171,0.0208,-0.0576,0.3428,-0.0040,-0.0055,-0.0052,-0.08,-0.01,0.96,0,3.494,3.387,-1.495,-1.433,0.008,-0.015,1.000,0.000,0.000,0.000,0.3400,-8,0,-0.40,1.46,2.60,0.0146,0.0985,0.3434,0.2460,-0.0416,0.3000,0.2572,-5.05,-15.99,-28.83,2.7670,0.1410,1.2410,1.5750,2.3590,2,-0.0128,-0.0219,0.0000,-0.0128,-0.0219,0
13222,0.0218,-0.0583,0.3414,-0.0014,-0.0056,-0.0086,-0.04,-0.06,0.94,0,3.500,1.439,-3.061,-1.190,0.011,-0.017,1.001,0.000,0.000,0.000,0.3390,0,0,-0.56,1.45,2.94,0.0227,0.1476,0.3445,0.2460,-0.0416,0.3000,0.2579,-5.08,-15.78,-28.15,0.0000,0.1420,1.2530,1.5750,2.3640,2,-0.0128,-0.0219,0.0000,-0.0128,-0.0219,0
13273,0.0207,-0.0567,0.3401,-0.0030,-0.0021,-0.0123,-0.03,-0.04,0.94,0,3.489,2.776,-0.392,-0.117,0.010,-0.019,1.007,0.000,0.000,0.000,0.3410,0,0,-0.48,1.61,2.88,0.0216,0.1518,0.3428,0.2460,-0.0416,0.3000,0.2585,-4.80,-15.89,-28.15,0.0000,0.1420,1.2530,1.5850,2.3640,18,-0.0128,-0.0219,0.0000,-0.0128,-0.0219,0
13324,0.0211,-0.0580,0.3401,-0.0016,-0.0038,-0.0072,-0.06,-0.10,0.96,0,3.494,-2.520,-0.879,-1.918,0.008,-0.020,1.003,0.000,0.000,0.000,0.3390,0,0,-0.34,1.63,2.88,0.0200,0.1556,0.3422,0.2460,-0.0416,0.3000,0.2579,-4.98,-15.84,-28.70,0.0000,0.1440,1.2520,1.5850,2.3550,18,-0.0128,-0.0219,0.0000,-0.0128,-0.0219,0
13375,0.0210,-0.0581,0.3394,-0.0008,-0.0030,-0.0069,-0.20,-0.08,0.89,0,3.494,3.825,-0.190,1.192,0.007,-0.014,1.004,0.000,0.000,0.000,0.3430,0,1,-0.47,1.67,2.78,0.0179,0.1591,0.3412,0.2460,-0.0416,0.3000,0.2580,-4.95,-15.80,-26.66,0.0000,0.1440,1.2520,1.5730,2.3550,18,-0.0128,-0.0219,0.0000,-0.0128,-0.0219,0
13426,0.0231,-0.0598,0.3408,0.0040,-0.0043,0.0041,-0.11,-0.04,0.88,0,3.494,-4.484,-0.238,-1.976,0.009,-0.017,1.003,0.000,0.000,0.000,0.3360,0,0,-0.19,1.64,2.72,0.0215,0.1515,0.3426,0.2460,-0.0416,0.3000,0.2566,-5.16,-15.54,-26.40,0.0000,0.1390,1.2560,1.5730,2.3630,18,-0.0128,-0.0219,0.0000,-0.0128,-0.0219,0
13477,0.0212,-0.0584,0.3390,0.0005,-0.0002,-0.0040,-0.20,-0.09,0.86,0,3.489,2.151,0.474,0.724,0.009,-0.017,1.004,0.000,0.000,0.000,0.3370,0,0,-0.41,1.65,2.62,0.0198,0.1520,0.3407,0.2460,-0.0416,0.3000,0.2578,-4.84,-15.76,-25.73,0.0000,0.1390,1.2560,1.5770,2.3630,18,-0.0128,-0.0219,0.0000,-0.0128,-0.0219,0
13528,0.0227,-0.0588,0.3380,0.0038,0.0005,-0.0052,-0.08,0.02,0.82,0,3.494,4.005,-2.409,-1.400,0.007,-0.017,0.999,0.000,0.000,0.000,0.3370,0,0,-0.30,1.63,2.66,0.0175,0.1522,0.3396,0.2460,-0.0416,0.3000,0.2581,-4.83,-15.49,-24.49,0.0000,0.1460,1.2590,1.5770,2.3670,18,-0.0128,-0.0219,0.0000,-0.0128,-0.0219,0
13580,0.0227,-0.0594,0.3374,0.0033,-0.0000,-0.0065,-0.00,0.06,0.79,0,3.489,-2.787,0.941,-2.278,0.011,-0.019,1.004,0.000,0.000,0.000,0.3390,0,0,-0.10,1.75,2.59,0.0147,0.1520,0.3386,0.2460,-0.0416,0.3000,0.2584,-4.89,-15.50,-23.76,0.0000,0.1460,1.2590,1.5740,2.3670,8,-0.0128,-0.0219,0.0000,-0.0128,-0.0219,0
13631,0.0229,-0.0594,0.3379,0.0027,0.0000,-0.0003,-0.09,0.05,0.74,0,3.494,-0.031,3.747,1.254,0.012,-0.018,1.003,0.000,0.000,0.000,0.3360,0,0,-0.24,1.70,2.47,0.0113,0.1514,0.3385,0.2460,-0.0416,0.3000,0.2576,-4.91,-15.56,-22.14,0.0000,0.1450,1.2590,1.5740,2.3620,8,-0.0128,-0.0219,0.0000,-0.0128,-0.0219,0
13682,0.0230,-0.0594,0.3372,0.0024,0.0008,-0.0009,-0.12,-0.06,0.74,0,3.489,3.417,-2.361,-0.049,0.004,-0.022,1.004,0.000,0.000,0.000,0.3360,0,-1,-0.24,1.51,2.53,0.0076,0.1504,0.3376,0.2460,-0.0416,0.3000,0.2578,-4.86,-15.56,-22.28,0.0000,0.1450,1.2590,1.5740,2.3620,8,-0.0128,-0.0219,0.0000,-0.0128,-0.0219,0
13733,0.0197,-0.0633,0.3366,-0.0033,-0.0053,-0.0016,0.01,0.07,0.71,0,3.494,0.681,-2.044,-0.471,0.009,-0.015,1.010,0.000,0.000,0.000,0.3360,0,0,-0.11,1.48,2.50,0.0246,0.1555,0.3381,0.2460,-0.0416,0.3000,0.2580,-5.43,-16.03,-21.15,0.0000,0.1480,1.2540,1.5740,2.3630,8,-0.0128,-0.0219,0.0000,-0.0128,-0.0219,0
13784,0.0246,-0.0626,0.3363,0.0046,-0.0037,-0.0015,0.02,0.09,0.65,0,3.489,-2.705,-0.264,-3.000,0.010,-0.020,1.000,0.000,0.000,0.000,0.3360,0,0,-0.07,1.58,2.48,0.0243,0.1550,0.3377,0.2460,-0.0416,0.3000,0.2580,-5.30,-15.35,-19.52,0.0000,0.1480,1.2540,1.5660,2.3630,8,-0.0128,-0.0219,0.0000,-0.0128,-0.0219,0
13837,0.0228,-0.0606,0.3362,0.0007,0.0001,-0.0002,-0.18,-0.01,0.57,0,3.494,0.679,3.501,-1.370,0.009,-0.018,1.002,0.000,0.000,0.000,0.3380,0,0,-0.20,1.59,2.33,0.0235,0.1541,0.3374,0.2460,-0.0416,0.3000,0.2579,-4.98,-15.65,-17.13,0.0000,0.1450,1.2500,1.5660,2.3620,8,-0.0128,-0.0219,0.0000,-0.0128,-0.0219,0
13889,0.0211,-0.0608,0.3370,-0.0023,0.0012,0.0062,-0.10,-0.02,0.48,0,3.489,-0.526,2.940,-2.632,0.009,-0.018,1.000,0.000,0.000,0.000,0.3320,0,0,-0.17,1.41,2.25,0.0222,0.1527,0.3378,0.2460,-0.0416,0.3000,0.2571,-4.96,-15.96,-14.45,0.0000,0.1450,1.2500,1.5700,2.3620,8,-0.0128,-0.0219,0.0000,-0.0128,-0.0219,0
13940,0.0216,-0.0582,0.3350,-0.0011,0.0061,-0.0046,0.02,-0.02,0.37,0,3.489,-0.183,1.822,-3.240,0.007,-0.021,1.005,0.000,0.000,0.000,0.3350,0,0,-0.19,1.26,2.12,0.0207,0.1509,0.3361,0.2460,-0.0416,0.3000,0.2586,-4.52,-15.78,-11.11,2.7730,0.1480,1.2580,1.5700,2.3640,8,-0.0128,-0.0219,0.0000,-0.0128,-0.0219,0
13991,0.0190,-0.0576,0.3348,-0.0051,0.0064,-0.0025,0.01,-0.06,0.26,0,3.489,2.126,2.991,-3.093,0.009,-0.017,1.010,0.000,0.000,0.000,0.3330,0,-1,-0.20,1.16,1.95,0.0187,0.1487,0.3359,0.2460,-0.0416,0.3000,0.2584,-4.47,-16.15,-7.69,2.7730,0.1480,1.2580,1.5610,2.3640,8,-0.0128,-0.0219,0.0000,-0.0128,-0.0219,0
14042,0.0151,-0.0590,0.3340,-0.0105,0.0035,-0.0034,0.07,-0.14,0.12,0,3.489,1.228,0.817,-3.155,0.007,-0.020,1.003,0.000,0.000,0.000,0.3340,0,0,-0.16,0.92,1.78,0.0273,0.1561,0.3357,0.2460,-0.0416,0.3000,0.2587,-4.69,-16.63,-3.62,2.7680,0.1530,1.2600,1.5610,2.3680,8,-0.0128,-0.0219,0.0000,-0.0128,-0.0219,0
14093,0.0153,-0.0587,0.3339,-0.0083,0.0031,-0.0020,0.07,-0.16,-0.01,0,3.484,0.051,-1.466,-2.555,0.004,-0.016,1.005,0.000,0.000,0.000,0.3340,0,0,-0.10,0.88,1.62,0.0273,0.1554,0.3355,0.2460,-0.0416,0.3000,0.2585,-4.70,-16.53,0.40,2.7680,0.1530,1.2600,1.5650,2.3680,8,-0.0128,-0.0219,0.0000,-0.0128,-0.0219,0
14144,0.0124,-0.0588,0.3339,-0.0109,0.0022,0.0018,0.08,-0.15,-0.14,0,3.489,-0.565,1.879,-1.709,0.012,-0.014,1.001,0.000,0.000,0.000,0.3340,0,0,-0.09,0.95,1.49,0.0271,0.1543,0.3355,0.2460,-0.0416,0.3000,0.2581,-4.75,-16.86,4.30,0.0000,0.1560,1.2560,1.5650,2.3640,8,-0.0128,-0.0219,0.0000,-0.0128,-0.0219,0
14196,0.0152,-0.0581,0.3341,-0.0043,0.0025,0.0036,0.09,-0.18,-0.23,0,3.489,1.642,1.497,-1.297,0.009,-0.023,1.009,0.000,0.000,0.000,0.3320,0,-1,-0.12,0.86,1.41,0.0267,0.1528,0.3354,0.2460,-0.0416,0.3000,0.2579,-4.69,-16.40,7.02,0.0000,0.1560,1.2560,1.5660,2.3640,8,-0.0128,-0.0219,0.0000,-0.0128,-0.0219,0
14247,0.0109,-0.0608,0.3333,-0.0090,-0.0025,0.0016,0.05,-0.24,-0.32,0,3.489,0.309,-2.400,-0.993,0.007,-0.017,1.006,0.000,0.000,0.000,0.3350,0,-1,-0.08,0.75,1.29,0.0295,0.1557,0.3349,0.2460,-0.0416,0.3000,0.2582,-5.12,-16.88,9.58,0.0000,0.1520,1.2570,1.5660,2.3640,8,-0.0128,-0.0219,0.0000,-0.0128,-0.0219,0
14298,0.0148,-0.0610,0.3342,-0.0004,-0.0032,0.0079,0.07,-0.17,-0.39,0,3.489,-1.773,-0.001,-1.047,0.005,-0.010,1.005,0.000,0.000,0.000,0.3350,-1,0,-0.07,0.86,1.23,0.0304,0.1550,0.3355,0.2460,-0.0416,0.3000,0.2574,-5.18,-16.29,11.83,0.0000,0.1520,1.2570,1.5660,2.3640,8,-0.0128,-0.0219,0.0000,-0.0128,-0.0219,0
14349,0.0145,-0.0699,0.3348,0.0003,-0.0174,0.0122,0.10,-0.18,-0.45,0,3.489,-3.331,0.738,-0.723,0.007,-0.016,1.004,0.000,0.000,0.000,0.3320,3,0,-0.17,0.86,1.17,0.0306,0.1551,0.3361,0.2460,-0.0416,0.3000,0.2568,-6.51,-16.32,13.43,0.0000,0.1560,1.2580,1.5660,2.3630,8,-0.0128,-0.0219,0.0000,-0.0128,-0.0219,0
14400,0.0153,-0.0625,0.3341,0.0032,-0.0054,0.0070,-0.01,-0.22,-0.49,0,3.484,-2.127,-0.441,-0.619,0.006,-0.016,1.007,0.000,0.000,0.000,0.3380,-3,-1,-0.31,0.82,1.16,0.0306,0.1508,0.3356,0.2460,-0.0416,0.3000,0.2575,-5.39,-16.10,14.65,0.0000,0.1560,1.2580,1.5590,2.3630,8,-0.0128,-0.0219,0.0000,-0.0128,-0.0219,0
14451,0.0174,-0.0751,0.3361,0.0077,-0.0242,0.0176,-0.10,-0.09,-0.53,0,3.494,-3.352,-4.297,-1.055,0.007,-0.017,0.996,0.000,0.000,0.000,0.3390,0,-1,-0.47,0.83,1.08,0.0319,0.1539,0.3373,0.2460,-0.0416,0.3000,0.2560,-7.22,-15.86,15.76,0.0000,0.1540,1.2620,1.5590,2.3600,8,-0.0128,-0.0219,0.0000,-0.0128,-0.0219,0
14503,0.0184,-0.0813,0.3381,0.0092,-0.0316,0.0236,-0.18,0.04,-0.58,0,3.489,-0.779,-0.278,-1.613,0.008,-0.020,0.997,0.000,0.000,0.000,0.3360,-1,0,-0.64,1.04,1.02,0.0337,0.1535,0.3387,0.2460,-0.0416,0.3000,0.2550,-8.05,-15.79,17.30,0.0000,0.1540,1.2620,1.5710,2.3600,8,-0.0128,-0.0219,0.0000,-0.0128,-0.0219,0
14555,0.0187,-0.0820,0.3379,0.0084,-0.0287,0.0160,-0.32,0.11,-0.65,0,3.494,-4.827,0.453,-1.570,0.008,-0.020,0.993,0.000,0.000,0.000,0.3370,0,0,-0.70,1.05,0.92,0.0338,0.1551,0.3387,0.2460,-0.0416,0.3000,0.2558,-7.94,-15.75,19.64,0.0000,0.1550,1.2650,1.5710,2.3610,8,-0.0128,-0.0219,0.0000,-0.0128,-0.0219,0
14607,0.0203,-0.0798,0.3380,0.0094,-0.0203,0.0100,-0.50,0.12,-0.72,0,3.489,-0.009,-0.360,-1.149,0.013,-0.015,1.001,0.000,0.000,0.000,0.3390,0,-1,-0.95,1.03,0.84,0.0337,0.1544,0.3387,0.2460,-0.0377,0.3000,0.2564,-7.64,-15.51,21.60,0.0000,0.1550,1.2650,1.5710,2.3610,10,-0.0128,-0.0219,0.0000,-0.0128,-0.0219,0
14659,0.0200,-0.0793,0.3387,0.0072,-0.0135,0.0092,-0.55,0.14,-0.77,0,3.494,2.235,-1.280,-0.102,0.009,-0.021,0.997,0.000,0.000,0.000,0.3390,0,0,-0.96,1.02,0.78,0.0375,0.1552,0.3394,0.2459,-0.0338,0.3000,0.2564,-7.56,-15.58,23.06,0.0000,0.1570,1.2580,1.5710,2.3580,10,-0.0128,-0.0219,0.0000,-0.0128,-0.0219,0
14710,0.0205,-0.0796,0.3391,0.0060,-0.0084,0.0066,-0.47,0.21,-0.78,0,3.484,2.056,0.299,-0.141,0.008,-0.020,0.995,0.000,0.000,0.000,0.3360,0,0,-0.85,1.09,0.77,0.0380,0.1548,0.3397,0.2457,-0.0300,0.3000,0.2566,-7.60,-15.53,23.29,0.0000,0.1570,1.2580,1.5700,2.3580,10,-0.0128,-0.0219,0.0000,-0.0128,-0.0219,0
14761,0.0207,-0.0799,0.3379,0.0043,-0.0044,-0.0029,-0.40,0.21,-0.75,0,3.489,2.283,0.648,0.823,0.004,-0.020,0.992,0.000,0.000,0.000,0.3390,0,1,-0.74,1.07,0.77,0.0381,0.1542,0.3389,0.2455,-0.0261,0.3000,0.2578,-7.67,-15.46,22.38,0.0000,0.1600,1.2620,1.5700,2.3640,10,-0.0128,-0.0219,0.0000,-0.0128,-0.0219,0
14812,0.0209,-0.0790,0.3383,0.0027,0.0005,-0.0012,-0.27,0.17,-0.71,0,3.484,3.734,-0.019,0.858,0.008,-0.018,1.003,0.000,0.000,0.000,0.3370,0,0,-0.64,1.06,0.79,0.0349,0.1559,0.3389,0.2452,-0.0223,0.3000,0.2576,-7.64,-15.46,21.19,0.0000,0.1600,1.2620,1.5690,2.3640,10,-0.0128,-0.0219,0.0000,-0.0128,-0.0219,0
14863,0.0182,-0.0808,0.3376,-0.0035,-0.0008,-0.0042,-0.14,0.15,-0.65,0,3.484,-0.253,0.079,1.339,0.009,-0.020,1.004,0.000,0.000,0.000,0.3350,0,0,-0.45,1.06,0.84,0.0338,0.1555,0.3383,0.2449,-0.0185,0.3000,0.2580,-8.08,-15.82,19.64,0.0000,0.1550,1.2680,1.5690,2.3600,10,-0.0128,-0.0219,0.0000,-0.0128,-0.0219,0
14914,0.0173,-0.0757,0.3363,-0.0059,0.0091,-0.0100,-0.12,0.11,-0.59,0,3.484,2.002,0.510,0.962,0.010,-0.018,1.002,0.000,0.000,0.000,0.3350,-4,0,-0.47,1.05,0.91,0.0325,0.1547,0.3374,0.2445,-0.0147,0.3000,0.2589,-7.50,-15.86,17.66,0.0000,0.1550,1.2680,1.5730,2.3600,10,-0.0128,-0.0219,0.0000,-0.0128,-0.0219,0
14966,0.0174,-0.0800,0.3354,-0.0060,0.0010,-0.0116,-0.05,0.10,-0.54,0,3.489,2.645,0.002,1.420,0.009,-0.015,1.003,0.000,0.000,0.000,0.3320,-3,0,-0.48,1.00,0.94,0.0351,0.1692,0.3369,0.2441,-0.0109,0.3000,0.2592,-8.43,-15.77,16.06,2.7680,0.1560,1.2630,1.5730,2.3650,10,-0.0128,-0.0219,0.0000,-0.0128,-0.0219,0
15018,0.0169,-0.0754,0.3335,-0.0069,0.0088,-0.0178,0.08,0.03,-0.47,0,3.479,1.585,1.679,1.852,0.011,-0.020,1.005,0.000,0.000,0.000,0.3340,0,0,-0.37,0.99,1.01,0.0345,0.1744,0.3351,0.2436,-0.0070,0.3000,0.2603,-7.97,-15.70,14.02,2.7680,0.1560,1.2630,1.5640,2.3650,10,-0.0128,-0.0219,0.0000,-0.0128,-0.0219,0
15070,0.0157,-0.0721,0.3332,-0.0087,0.0128,-0.0126,0.17,-0.05,-0.37,0,3.484,2.772,0.169,1.961,0.010,-0.019,1.007,0.000,0.000,0.000,0.3310,-1,0,-0.28,0.91,1.11,0.0336,0.1769,0.3347,0.2430,-0.0031,0.3000,0.2598,-7.83,-15.81,11.21,2.7660,0.1520,1.2610,1.5640,2.3670,10,-0.0128,-0.0219,0.0000,-0.0128,-0.0219,0
15121,0.0146,-0.0709,0.3318,-0.0093,0.0126,-0.0138,0.24,-0.10,-0.30,0,3.479,-2.120,1.285,1.510,0.010,-0.020,1.006,0.000,0.000,0.000,0.3310,0,0,-0.13,0.88,1.21,0.0343,0.1782,0.3336,0.2424,0.0007,0.3000,0.2601,-8.00,-15.79,8.94,2.7660,0.1520,1.2610,1.5660,2.3670,7,-0.0128,-0.0219,0.0000,-0.0128,-0.0219,0
15172,0.0136,-0.0713,0.3310,-0.0098,0.0086,-0.0121,0.30,-0.11,-0.21,0,3.484,-3.686,-1.503,0.881,0.009,-0.020,1.003,0.000,0.000,0.000,0.3320,-1,0,-0.24,0.82,1.29,0.0335,0.1796,0.3328,0.2417,0.0044,0.3000,0.2601,-8.47,-15.79,6.17,0.0000,0.1500,1.2630,1.5660,2.3600,7,-0.0128,-0.0219,0.0000,-0.0128,-0.0219,0
15223,0.0134,-0.0696,0.3311,-0.0082,0.0084,-0.0060,0.31,-0.16,-0.13,0,3.479,1.396,-2.520,-0.153,0.006,-0.020,1.004,0.000,0.000,0.000,0.3310,0,0,-0.44,0.88,1.33,0.0341,0.1817,0.3326,0.2410,0.0082,0.3000,0.2594,-8.63,-15.68,3.99,0.0000,0.1500,1.2630,1.5670,2.3600,7,-0.0128,-0.0219,0.0000,-0.0128,-0.0219,0
15274,0.0112,-0.0709,0.3309,-0.0106,0.0020,-0.0019,0.37,-0.14,-0.06,0,3.489,-5.486,0.002,0.527,0.009,-0.019,1.008,0.000,0.000,0.000,0.3300,0,0,-0.37,1.01,1.32,0.0333,0.1827,0.3321,0.2402,0.0120,0.3000,0.2590,-9.29,-15.86,1.77,0.0000,0.1490,1.2600,1.5670,2.3640,7,-0.0128,-0.0219,0.0000,-0.0128,-0.0219,0
15326,0.0108,-0.0743,0.3305,-0.0090,-0.0079,-0.0009,0.17,-0.17,-0.02,0,3.479,3.015,-1.901,-0.724,0.009,-0.018,1.005,0.000,0.000,0.000,0.3300,3,0,-0.65,1.01,1.35,0.0323,0.1833,0.3317,0.2393,0.0157,0.3000,0.2590,-10.23,-15.71,0.55,0.0000,0.1490,1.2600,1.5670,2.3640,7,-0.0128,-0.0219,0.0000,-0.0128,-0.0219,0
15378,0.0111,-0.0708,0.3303,-0.0062,-0.0013,0.0003,0.12,-0.17,-0.01,0,3.489,0.478,-1.105,-1.470,0.009,-0.022,1.000,0.000,0.000,0.000,0.3330,-9,-2,-0.41,1.08,1.34,0.0349,0.1724,0.3315,0.2384,0.0195,0.3000,0.2589,-9.94,-15.46,0.30,2.7530,0.1490,1.2690,1.5670,2.3730,7,-0.0128,-0.0219,0.0000,-0.0128,-0.0219,0
15430,0.0084,-0.0821,0.3316,-0.0098,-0.0249,0.0075,0.08,-0.15,-0.05,0,3.484,-3.510,-0.790,-1.494,0.012,-0.018,1.003,0.000,0.000,0.000,0.3300,2,0,-0.49,1.12,1.24,0.0369,0.1830,0.3331,0.2374,0.0233,0.3000,0.2579,-12.10,-15.75,1.47,2.7530,0.1490,1.2690,1.5590,2.3730,7,-0.0128,-0.0219,0.0000,-0.0128,-0.0219,0
15481,0.0106,-0.0782,0.3311,-0.0033,-0.0163,0.0045,-0.10,-0.15,-0.10,0,3.484,-1.381,-2.432,-2.185,0.006,-0.019,1.000,0.000,0.000,0.000,0.3280,0,0,-0.64,1.16,1.16,0.0369,0.1801,0.3326,0.2364,0.0270,0.3000,0.2583,-11.66,-15.17,3.11,2.7640,0.1480,1.2650,1.5590,2.3650,7,-0.0128,-0.0219,0.0000,-0.0128,-0.0219,0
15532,0.0102,-0.0799,0.3299,-0.0030,-0.0175,-0.0035,-0.17,-0.06,-0.19,0,3.479,-4.810,-0.385,-0.441,0.009,-0.022,0.999,0.000,0.000,0.000,0.3290,0,-1,-0.71,1.28,1.05,0.0364,0.1795,0.3315,0.2353,0.0306,0.3000,0.2594,-12.02,-15.01,5.60,2.7640,0.1480,1.2650,1.5630,2.3650,7,-0.0128,-0.0219,0.0000,-0.0128,-0.0219,0
15583,0.0100,-0.0814,0.3294,-0.0027,-0.0174,-0.0043,-0.37,-0.02,-0.24,0,3.484,-0.895,-1.093,-0.479,0.013,-0.021,1.000,0.000,0.000,0.000,0.3280,1,0,-0.96,1.27,1.04,0.0402,0.1802,0.3310,0.2342,0.0343,0.3000,0.2596,-12.34,-14.88,7.17,2.7690,0.1470,1.2690,1.5630,2.3680,7,-0.0128,-0.0219,0.0000,-0.0128,-0.0219,0
15634,0.0112,-0.0800,0.3286,0.0001,-0.0096,-0.0061,-0.40,0.02,-0.27,0,3.479,1.101,-1.211,-0.301,0.011,-0.021,1.007,0.000,0.000,0.000,0.3300,2,0,-1.00,1.32,1.01,0.0402,0.1782,0.3301,0.2330,0.0379,0.3000,0.2599,-12.11,-14.53,7.97,2.7690,0.1470,1.2690,1.5680,2.3680,7,-0.0128,-0.0219,0.0000,-0.0128,-0.0219,0
15686,0.0109,-0.0801,0.3291,-0.0006,-0.0063,-0.0008,-0.35,0.08,-0.28,0,3.484,2.467,0.462,-0.011,0.006,-0.021,1.005,0.000,0.000,0.000,0.3310,0,0,-0.92,1.38,0.99,0.0401,0.1738,0.3302,0.2317,0.0416,0.3000,0.2592,-12.22,-14.48,8.50,0.0000,0.1470,1.2650,1.5680,2.3640,7,-0.0128,-0.0219,0.0000,-0.0128,-0.0219,0
15738,0.0119,-0.0803,0.3300,0.0008,-0.0022,0.0062,-0.24,0.06,-0.30,0,3.479,4.975,1.782,-0.199,0.012,-0.018,1.002,0.000,0.000,0.000,0.3280,-1,1,-0.79,1.36,0.99,0.0394,0.1719,0.3307,0.2304,0.0453,0.3000,0.2583,-12.32,-14.27,8.89,0.0000,0.1470,1.2650,1.5660,2.3640,7,-0.0128,-0.0219,0.0000,-0.0128,-0.0219,0
15790,0.0111,-0.0817,0.3294,-0.0012,-0.0032,0.0037,-0.10,0.01,-0.29,0,3.489,0.116,-0.065,-0.054,0.013,-0.018,1.002,0.000,0.000,0.000,0.3260,0,0,-0.59,1.27,1.00,0.0370,0.1778,0.3303,0.2290,0.0489,0.3000,0.2587,-12.68,-14.25,8.75,0.0000,0.1480,1.2680,1.5660,2.3680,7,-0.0128,-0.0219,0.0000,-0.0128,-0.0219,0
15841,0.0097,-0.0808,0.3280,-0.0039,-0.0003,-0.0038,-0.12,0.01,-0.28,0,3.479,1.063,-0.045,-0.027,0.007,-0.018,1.001,0.000,0.000,0.000,0.3290,-3,0,-0.58,1.28,0.99,0.0354,0.1773,0.3292,0.2276,0.0525,0.3000,0.2598,-12.66,-14.27,8.54,0.0000,0.1480,1.2680,1.5590,2.3680,19,-0.0128,-0.0219,0.0000,-0.0128,-0.0219,0
15892,0.0097,-0.0844,0.3283,-0.0038,-0.0066,-0.0016,-0.15,0.02,-0.26,0,3.484,0.750,1.924,1.126,0.011,-0.016,0.999,0.000,0.000,0.000,0.3280,-4,0,-0.60,1.25,1.04,0.0372,0.1878,0.3294,0.2261,0.0560,0.3000,0.2595,-13.42,-14.14,7.91,2.7800,0.1430,1.2620,1.5590,2.3660,19,-0.0128,-0.0219,0.0000,-0.0128,-0.0219,0
15943,0.0102,-0.0871,0.3281,-0.0025,-0.0115,-0.0017,-0.17,-0.05,-0.22,0,3.479,1.250,0.045,0.406,0.008,-0.019,1.005,0.000,0.000,0.000,0.3290,0,0,-0.61,1.15,1.12,0.0364,0.1958,0.3288,0.2246,0.0595,0.3000,0.2595,-14.04,-13.91,6.63,2.7800,0.1430,1.2620,1.5630,2.3660,19,-0.0128,-0.0219,0.0000,-0.0128,-0.0219,0
15994,0.0107,-0.0806,0.3285,-0.0009,0.0037,0.0011,-0.17,-0.07,-0.17,0,3.484,1.061,-0.494,0.992,0.007,-0.020,1.001,0.000,0.000,0.000,0.3270,0,0,-0.55,1.15,1.14,0.0348,0.1985,0.3290,0.2230,0.0630,0.3000,0.2591,-13.15,-13.67,5.11,0.0000,0.1450,1.2670,1.5630,2.3720,19,-0.0128,-0.0219,0.0000,-0.0128,-0.0219,0
16045,0.0106,-0.0804,0.3278,-0.0004,0.0054,-0.0025,-0.16,-0.03,-0.11,0,3.473,4.392,-1.258,0.432,0.010,-0.019,1.000,0.000,0.000,0.000,0.3270,-2,-1,-0.50,1.17,1.19,0.0329,0.2009,0.3286,0.2214,0.0665,0.3000,0.2596,-13.25,-13.47,3.34,0.0000,0.1450,1.2670,1.5550,2.3720,19,-0.0128,-0.0219,0.0000,-0.0128,-0.0219,0
16096,0.0104,-0.0807,0.3274,-0.0007,0.0053,-0.0043,-0.07,-0.01,-0.05,0,3.484,0.648,-0.864,0.970,0.007,-0.024,1.002,0.000,0.000,0.000,0.3270,-1,-1,-0.27,1.16,1.24,0.0417,0.2032,0.3285,0.2197,0.0699,0.3000,0.2599,-13.47,-13.33,1.63,2.7660,0.1380,1.2670,1.5550,2.3690,19,-0.0128,-0.0219,0.0000,-0.0128,-0.0219,0
16147,0.0100,-0.0802,0.3271,-0.0016,0.0061,-0.0039,-0.06,0.02,0.02,0,3.479,-2.793,0.814,1.820,0.007,-0.019,1.002,0.000,0.000,0.000,0.3270,0,1,-0.25,1.19,1.29,0.0429,0.2056,0.3281,0.2180,0.0733,0.3000,0.2599,-13.61,-13.23,-0.62,2.7660,0.1380,1.2670,1.5600,2.3690,19,-0.0128,-0.0219,0.0000,-0.0128,-0.0219,0
16198,0.0112,-0.0800,0.3269,0.0007,0.0063,-0.0043,-0.09,-0.03,0.10,0,3.484,1.605,-0.745,1.709,0.009,-0.020,0.999,0.000,0.000,0.000,0.3240,0,-1,-0.39,1.16,1.38,0.0411,0.2063,0.3279,0.2162,0.0767,0.3000,0.2600,-13.79,-12.89,-3.12,2.7460,0.1430,1.2710,1.5600,2.3710,19,-0.0128,-0.0219,0.0000,-0.0128,-0.0219,0
16250,0.0113,-0.0788,0.3255,0.0009,0.0089,-0.0102,-0.04,0.00,0.18,0,3.473,3.853,0.394,-0.920,0.009,-0.020,1.005,0.000,0.000,0.000,0.3240,0,0,-0.30,1.18,1.47,0.0426,0.2067,0.3268,0.2144,0.0801,0.3000,0.2609,-13.74,-12.66,-5.46,2.7460,0.1430,1.2710,1.5550,2.3710,19,-0.0128,-0.0219,0.0000,-0.0128,-0.0219,0
16301,0.0123,-0.0789,0.3245,0.0029,0.0081,-0.0130,0.07,-0.03,0.23,0,3.479,-5.239,-2.149,-0.778,0.012,-0.022,1.001,0.000,0.000,0.000,0.3240,0,0,-0.10,1.16,1.42,0.0419,0.2071,0.3260,0.2124,0.0835,0.3000,0.2614,-13.97,-12.30,-7.04,2.7600,0.1400,1.2760,1.5550,2.3760,19,-0.0128,-0.0219,0.0000,-0.0128,-0.0219,0
16352,0.0132,-0.0790,0.3238,0.0045,0.0067,-0.0133,-0.05,0.04,0.27,0,3.473,-2.446,0.579,1.045,0.008,-0.019,1.004,0.000,0.000,0.000,0.3230,-1,0,-0.37,1.27,1.38,0.0410,0.2070,0.3253,0.2105,0.0867,0.3000,0.2615,-14.21,-12.00,-8.03,2.7600,0.1400,1.2760,1.5570,2.3760,19,-0.0128,-0.0219,0.0000,-0.0128,-0.0219,0
16403,0.0134,-0.0786,0.3231,0.0041,0.0070,-0.0118,-0.02,0.08,0.30,0,3.479,2.401,-1.181,-1.937,0.006,-0.017,1.008,0.000,0.000,0.000,0.3240,1,-1,-0.53,1.21,1.43,0.0440,0.2117,0.3246,0.2085,0.0900,0.3000,0.2615,-14.37,-11.83,-9.04,0.0000,0.1430,1.2710,1.5570,2.3750,19,-0.0128,-0.0219,0.0000,-0.0128,-0.0219,0
16455,0.0125,-0.0771,0.3231,0.0010,0.0093,-0.0075,0.05,0.11,0.29,0,3.479,-1.313,1.845,0.570,0.010,-0.019,1.006,0.000,0.000,0.000,0.3210,-1,2,-0.39,1.26,1.33,0.0450,0.2105,0.3245,0.2064,0.0933,0.3000,0.2611,-14.39,-11.86,-8.60,0.0000,0.1430,1.2710,1.5600,2.3750,19,-0.0128,-0.0219,0.0000,-0.0128,-0.0219,0
16506,0.0144,-0.0794,0.3220,0.0038,0.0031,-0.0088,0.09,0.10,0.30,0,3.479,1.460,0.495,-1.176,0.008,-0.019,1.003,0.000,0.000,0.000,0.3210,1,0,-0.47,1.19,1.37,0.0414,0.2120,0.3236,0.2043,0.0965,0.3000,0.2614,-14.98,-11.41,-9.13,0.0000,0.1410,1.2730,1.5600,2.3820,19,-0.0128,-0.0219,0.0000,-0.0128,-0.0219,0
16557,0.0131,-0.0779,0.3213,0.0000,0.0053,-0.0082,0.06,0.05,0.27,0,3.473,-2.475,1.873,-0.177,0.005,-0.018,1.010,0.000,0.000,0.000,0.3210,-1,-1,-0.38,1.15,1.30,0.0407,0.2101,0.3230,0.2022,0.0997,0.3000,0.2615,-14.97,-11.48,-8.07,0.0000,0.1410,1.2730,1.5520,2.3820,19,-0.0128,-0.0219,0.0000,-0.0128,-0.0219,0
16608,0.0127,-0.0794,0.3209,-0.0014,0.0014,-0.0059,0.00,0.03,0.18,0,3.479,3.520,-0.723,-2.687,0.007,-0.021,1.000,0.000,0.000,0.000,0.3180,1,0,-0.53,1.03,1.29,0.0421,0.2119,0.3227,0.2000,0.1028,0.3000,0.2613,-15.42,-11.39,-5.37,0.0000,0.1450,1.2660,1.5520,2.3800,19,-0.0128,-0.0219,0.0000,-0.0128,-0.0219,0
16660,0.0115,-0.0775,0.3195,-0.0039,0.0054,-0.0107,0.07,-0.03,0.09,0,3.473,0.301,3.097,-0.902,0.010,-0.021,1.003,0.000,0.000,0.000,0.3180,-1,0,-0.33,1.06,1.15,0.0417,0.2094,0.3215,0.1978,0.1060,0.3000,0.2621,-15.26,-11.37,-2.84,0.0000,0.1450,1.2660,1.5560,2.3800,22,-0.0128,-0.0219,0.0000,-0.0128,-0.0219,0
16711,0.0116,-0.0783,0.3185,-0.0031,0.0023,-0.0120,0.06,-0.15,-0.02,0,3.473,1.130,1.548,-0.784,0.007,-0.019,1.003,0.000,0.000,0.000,0.3190,-1,0,-0.34,0.90,1.11,0.0414,0.2116,0.3205,0.1955,0.1091,0.3000,0.2624,-15.60,-11.11,0.70,0.0000,0.1500,1.2620,1.5560,2.3790,22,-0.0128,-0.0219,0.0000,-0.0128,-0.0219,0
16762,0.0123,-0.0763,0.3184,-0.0002,0.0059,-0.0074,0.06,-0.21,-0.10,0,3.473,3.239,-1.291,-0.811,0.010,-0.019,1.007,0.000,0.000,0.000,0.3170,-1,-2,-0.30,0.81,1.06,0.0411,0.2139,0.3201,0.1931,0.1121,0.3000,0.2619,-15.51,-10.75,2.89,0.0000,0.1500,1.2620,1.5560,2.3790,22,-0.0128,-0.0219,0.0000,-0.0128,-0.0219,0
16813,0.0122,-0.0751,0.3176,0.0010,0.0074,-0.0081,0.08,-0.10,-0.20,0,3.479,0.165,0.761,-1.426,0.008,-0.021,1.008,0.000,0.000,0.000,0.3190,-1,0,-0.16,0.83,1.01,0.0462,0.2166,0.3194,0.1908,0.1151,0.3000,0.2622,-15.52,-10.50,6.03,0.0000,0.1490,1.2700,1.5560,2.3800,22,-0.0128,-0.0219,0.0000,-0.0128,-0.0219,0
16864,0.0127,-0.0749,0.3179,0.0028,0.0061,-0.0025,0.07,-0.06,-0.28,0,3.473,-0.659,1.207,-1.367,0.010,-0.019,1.003,0.000,0.000,0.000,0.3190,-3,0,-0.17,0.79,0.93,0.0462,0.2194,0.3196,0.1883,0.1181,0.3000,0.2615,-15.77,-10.21,8.50,0.0000,0.1490,1.2700,1.5610,2.3800,22,-0.0128,-0.0219,0.0000,-0.0128,-0.0219,0
16915,0.0130,-0.0761,0.3184,0.0038,0.0018,0.0023,0.08,-0.05,-0.36,0,3.468,0.529,-1.958,-0.972,0.007,-0.022,0.999,0.000,0.000,0.000,0.3200,1,0,-0.26,0.73,0.84,0.0461,0.2279,0.3197,0.1859,0.1210,0.3000,0.2609,-16.23,-9.95,10.75,2.7490,0.1550,1.2660,1.5610,2.3830,22,-0.0128,-0.0219,0.0000,-0.0128,-0.0219,0
16966,0.0127,-0.0738,0.3192,0.0029,0.0061,0.0063,0.07,-0.22,-0.38,0,3.473,-12.317,90.255,-0.797,-0.000,-0.021,1.001,0.000,0.000,0.000,0.3160,-7,5,-0.21,0.83,0.80,0.0460,0.2251,0.3201,0.1833,0.1239,0.3000,0.2603,-16.08,-9.83,11.47,2.7490,0.1550,1.2660,1.5590,2.3830,22,-0.0128,-0.0219,0.0000,-0.0128,-0.0219,0
17018,0.0143,-0.0761,0.3180,0.0093,-0.0005,-0.0003,-0.44,-4.27,-0.39,0,3.479,-15.325,113.678,-2.779,0.013,-0.019,1.004,0.000,0.000,0.000,0.3180,-1,13,-0.97,-3.69,0.69,0.0307,0.2461,0.3197,0.1808,0.1267,0.3000,0.2612,-16.62,-9.18,11.60,0.0000,0.1470,1.2660,1.5590,2.3850,22,-0.0128,-0.0219,0.0000,-0.0128,-0.0219,0
17070,0.0161,-0.0661,0.3180,0.0478,0.0268,-0.0018,-1.28,-9.73,-0.55,0,3.473,4.636,28.947,-2.410,0.010,-0.021,1.008,0.000,0.000,0.000,0.3350,-2,0,-1.79,-9.36,0.45,-0.0095,0.2488,0.3229,0.1781,0.1296,0.3000,0.2614,-14.91,-7.04,16.56,0.0000,0.1470,1.2660,1.5650,2.3850,22,-0.0128,-0.0219,0.0000,-0.0128,-0.0219,0
17121,0.0156,-0.0605,0.3252,0.1179,0.0467,0.0312,-1.15,-11.25,-0.70,0,3.489,13.684,-9.394,-0.491,0.001,-0.022,0.989,0.000,0.000,0.000,0.3370,0,-1,-1.61,-10.89,0.19,-0.0095,0.2555,0.3272,0.1755,0.1324,0.3000,0.2565,-14.06,-3.63,21.04,0.0000,0.1230,1.2660,1.5650,2.4340,22,-0.0128,-0.0219,0.0000,-0.0128,-0.0219,0
17172,0.0240,-0.0619,0.3309,0.2134,0.0456,0.0432,-0.45,-10.92,-0.70,0,3.484,-1.005,-6.625,-0.483,-0.001,-0.022,0.984,0.000,0.000,0.000,0.3330,-1,-8,-0.84,-10.42,0.43,-0.0065,0.2553,0.3308,0.1728,0.1351,0.3000,0.2541,-14.48,1.83,21.02,0.0000,0.1230,1.2660,1.5660,2.4340,22,-0.0128,-0.0219,0.0000,-0.0128,-0.0219,0
17223,0.0378,-0.0631,0.3327,0.3074,0.0394,0.0283,-0.44,-10.58,-0.73,0,3.484,-8.131,-28.159,-0.250,-0.000,-0.016,0.984,0.000,0.000,0.000,0.3290,0,-6,-0.88,-10.19,0.52,0.0186,0.2585,0.3292,0.1701,0.1378,0.3000,0.2553,-14.93,7.57,21.93,0.0000,0.1200,1.2570,1.5660,2.4340,22,-0.0128,-0.0219,0.0000,-0.0128,-0.0219,0
17274,0.0572,-0.0612,0.3315,0.4004,0.0411,0.0004,-0.61,-9.59,-0.74,0,3.473,4.876,-52.255,0.376,-0.010,-0.022,0.984,0.000,0.000,0.000,0.3250,0,-15,-1.22,-8.79,0.83,0.0375,0.2580,0.3273,0.1673,0.1404,0.3000,0.2586,-14.69,13.35,22.21,0.0000,0.1200,1.2570,1.5670,2.4340,31,-0.0128,-0.0219,0.0000,-0.0128,-0.0219,0
17325,0.0780,-0.0570,0.3284,0.4753,0.0505,-0.0272,-0.43,-6.67,-0.69,0,3.473,4.906,-50.955,0.523,-0.011,-0.013,0.998,0.000,0.000,0.000,0.3080,0,-17,-0.89,-6.30,1.29,0.0848,0.2575,0.3199,0.1645,0.1431,0.3000,0.2622,-13.94,18.03,20.80,0.0000,0.1230,1.2490,1.5670,2.4160,31,-0.0128,-0.0219,0.0000,-0.0128,-0.0219,0
17376,0.0988,-0.0549,0.3186,0.5224,0.0524,-0.0747,-0.19,-4.01,-0.64,0,3.457,-2.252,-47.900,0.926,-0.010,-0.012,1.015,0.000,0.000,0.000,0.3050,-1,-8,-0.58,-3.86,1.69,0.1371,0.2574,0.3074,0.1616,0.1456,0.3000,0.2691,-13.50,21.00,19.21,0.0000,0.1230,1.2490,1.5590,2.4160,31,-0.0128,-0.0219,0.0000,-0.0128,-0.0219,0
17427,0.1271,-0.0487,0.3101,0.5618,0.0634,-0.0982,-0.22,-1.68,-0.66,0,3.457,5.011,-43.746,0.597,-0.012,-0.014,1.030,0.000,0.000,0.000,0.2990,-3,-16,-0.71,-1.36,1.61,0.1612,0.2616,0.3050,0.1588,0.1481,0.3000,0.2733,-12.56,24.08,19.66,0.0000,0.1330,1.2390,1.5590,2.4130,31,-0.0128,-0.0219,0.0000,-0.0128,-0.0219,0
17478,0.1501,-0.0451,0.3024,0.5624,0.0660,-0.1020,-0.02,0.20,-0.61,0,3.447,11.182,-39.292,0.479,-0.011,-0.016,1.044,0.000,0.000,0.000,0.2960,-3,-8,-0.51,0.76,1.21,0.2105,0.2728,0.2967,0.1558,0.1506,0.3000,0.2752,-12.25,25.00,18.37,0.0000,0.1330,1.2390,1.4950,2.4130,31,-0.0128,-0.0219,0.0000,-0.0128,-0.0219,0
17529,0.1779,-0.0403,0.2966,0.5565,0.0701,-0.0873,0.28,2.28,-0.63,0,3.457,5.168,-29.389,2.062,-0.012,-0.015,1.053,0.000,0.000,0.000,0.2960,-4,-13,0.04,2.83,0.87,0.2344,0.2829,0.2960,0.1529,0.1530,0.3000,0.2747,-11.90,25.00,18.80,2.6170,0.1180,1.2310,1.4950,2.4140,31,-0.0128,-0.0219,0.0000,-0.0128,-0.0219,0
17580,0.2027,-0.0300,0.2940,0.5259,0.0864,-0.0577,0.55,4.02,-0.60,0,3.452,14.661,-21.221,0.184,-0.010,-0.012,1.050,0.000,0.000,0.000,0.2980,5,-11,0.26,4.27,0.65,0.2741,0.2961,0.2934,0.1499,0.1554,0.3000,0.2720,-10.74,25.00,17.96,2.6170,0.1180,1.2310,1.6300,2.4140,31,-0.0128,-0.0219,0.0000,-0.0128,-0.0219,0
17631,0.2239,-0.0310,0.2944,0.4746,0.0657,-0.0199,1.27,5.33,-0.52,0,3.468,4.156,-10.480,0.108,-0.008,-0.013,1.035,0.000,0.000,0.000,0.3020,3,-6,1.09,5.34,1.12,0.3069,0.2807,0.2948,0.1468,0.1577,0.3000,0.2678,-12.00,25.00,15.63,2.6280,0.1100,1.2170,1.6300,2.4190,31,-0.0128,-0.0219,0.0000,-0.0128,-0.0219,0
17682,0.2462,-0.0360,0.2974,0.4244,0.0319,0.0158,1.74,6.04,-0.46,0,3.468,-11.364,-3.009,1.178,-0.003,-0.014,1.027,0.000,0.000,0.000,0.3010,2,-6,1.35,5.94,1.23,0.3253,0.2719,0.2988,0.1438,0.1600,0.3000,0.2634,-14.15,25.00,13.77,2.6280,0.1100,1.2170,1.6630,2.4190,31,-0.0128,-0.0219,0.0000,-0.0128,-0.0219,0
17733,0.2651,-0.0418,0.2998,0.3652,-0.0037,0.0349,1.51,6.36,-0.43,0,3.473,-11.798,4.151,1.570,-0.001,-0.010,1.021,0.000,0.000,0.000,0.3020,3,-2,0.79,6.12,1.30,0.3432,0.2661,0.3016,0.1407,0.1622,0.3000,0.2609,-16.34,25.00,12.78,2.6270,0.1010,1.2230,1.6630,2.4190,31,-0.0128,-0.0219,0.0000,-0.0128,-0.0219,0
17784,0.2813,-0.0462,0.3022,0.3076,-0.0270,0.0446,0.94,6.31,-0.38,0,3.468,-14.426,6.796,0.904,0.000,-0.017,1.009,0.000,0.000,0.000,0.3040,0,-4,0.21,6.00,1.41,0.3483,0.2570,0.3046,0.1375,0.1645,0.3000,0.2594,-17.84,25.00,11.26,2.6270,0.1010,1.2230,1.6810,2.4190,31,-0.0128,-0.0219,0.0000,-0.0128,-0.0219,0
17836,0.2922,-0.0480,0.3045,0.2443,-0.0346,0.0471,0.30,6.08,-0.33,0,3.473,-10.749,10.870,0.670,0.004,-0.009,0.999,0.000,0.000,0.000,0.3020,5,-3,-0.58,5.66,1.62,0.3601,0.2577,0.3073,0.1343,0.1666,0.3000,0.2586,-18.43,24.17,9.93,2.5900,0.0990,1.2190,1.6810,2.4170,31,-0.0128,-0.0219,0.0000,-0.0128,-0.0219,0
17887,0.3009,-0.0504,0.3051,0.1863,-0.0374,0.0369,-0.26,5.63,-0.31,0,3.468,-7.505,17.590,1.172,0.000,-0.013,0.999,0.000,0.000,0.000,0.3050,-1,0,-1.04,5.12,1.29,0.3693,0.2415,0.3079,0.1311,0.1687,0.3000,0.2596,-18.73,22.50,9.16,2.5900,0.0990,1.2190,1.6820,2.4170,31,-0.0128,-0.0219,0.0000,-0.0128,-0.0219,0
17938,0.3087,-0.0555,0.3062,0.1385,-0.0433,0.0314,-0.72,4.81,-0.24,0,3.473,-7.502,16.883,0.848,0.004,-0.011,0.995,0.000,0.000,0.000,0.3060,0,1,-1.51,4.27,1.71,0.3677,0.2457,0.3095,0.1279,0.1708,0.3000,0.2600,-19.37,21.22,7.09,2.5620,0.0990,1.2230,1.6820,2.4070,31,-0.0128,-0.0219,0.0000,-0.0128,-0.0219,0
17989,0.3134,-0.0564,0.3072,0.0955,-0.0334,0.0254,-1.14,3.94,-0.20,0,3.468,-3.704,16.591,0.140,0.013,-0.007,1.001,0.000,0.000,0.000,0.3030,0,0,-1.93,3.45,1.90,0.3636,0.2462,0.3103,0.1246,0.1727,0.3000,0.2605,-19.07,19.91,6.01,2.5620,0.0990,1.2230,1.6870,2.4070,42,-0.0128,-0.0219,0.0000,-0.0128,-0.0219,0
18041,0.3163,-0.0550,0.3060,0.0596,-0.0155,0.0119,-1.40,3.15,-0.16,0,3.468,4.160,17.758,0.539,0.008,-0.018,1.000,0.000,0.000,0.000,0.3010,-4,0,-2.12,2.60,1.88,0.3661,0.2438,0.3098,0.1213,0.1747,0.3000,0.2622,-18.19,18.70,4.85,2.5140,0.1060,1.2250,1.6870,2.4140,42,-0.0128,-0.0219,0.0000,0.3636,0.2463,0
18092,0.3165,-0.0581,0.3042,0.0274,-0.0110,-0.0006,-1.30,2.34,-0.17,0,3.457,2.105,15.409,1.177,0.010,-0.016,1.004,0.000,0.000,0.000,0.3010,-1,3,-2.06,1.68,2.68,0.3605,0.2684,0.3082,0.1179,0.1766,0.3000,0.2639,-18.17,17.47,5.05,2.5140,0.1060,1.2250,1.6900,2.4140,42,-0.0128,-0.0219,0.0000,0.3636,0.2463,0
18143,0.3168,-0.0544,0.3028,0.0068,0.0107,-0.0059,-1.19,1.47,-0.11,0,3.463,7.746,15.092,1.182,0.011,-0.014,1.012,0.000,0.000,0.000,0.3000,-1,1,-1.96,0.94,2.66,0.3533,0.2710,0.3070,0.1146,0.1785,0.3000,0.2647,-17.03,16.80,3.30,2.4680,0.1070,1.2210,1.6900,2.4000,42,-0.0128,-0.0219,0.0000,0.3636,0.2463,0
18194,0.3163,-0.0525,0.3014,-0.0060,0.0238,-0.0065,-1.02,0.67,-0.08,0,3.457,4.507,11.602,0.581,0.010,-0.020,1.018,0.000,0.000,0.000,0.3020,-3,0,-1.56,0.18,2.68,0.3506,0.2740,0.3059,0.1112,0.1803,0.3000,0.2650,-16.40,16.45,2.45,2.4680,0.1070,1.2210,1.6980,2.4000,42,-0.0128,-0.0219,0.0000,0.3636,0.2463,0
18245,0.3152,-0.0526,0.3016,-0.0127,0.0281,0.0031,-0.75,0.09,-0.03,0,3.463,9.015,8.021,1.016,0.014,-0.019,1.011,0.000,0.000,0.000,0.3000,-1,1,-1.36,-0.42,2.80,0.3499,0.2824,0.3057,0.1078,0.1820,0.3000,0.2639,-16.36,16.39,1.02,2.4260,0.1030,1.2190,1.6980,2.3970,42,-0.0128,-0.0219,0.0000,0.3636,0.2463,0
18296,0.3145,-0.0461,0.3012,-0.0130,0.0474,0.0063,-0.34,-0.29,0.03,0,3.463,4.140,7.345,1.859,0.009,-0.021,1.011,0.000,0.000,0.000,0.2990,3,0,-0.89,-0.81,2.81,0.3472,0.2853,0.3053,0.1044,0.1837,0.3000,0.2637,-15.18,16.59,-0.90,2.4260,0.1030,1.2190,1.6970,2.3970,42,-0.0128,-0.0219,0.0000,0.3636,0.2463,0
18347,0.3140,-0.0412,0.3005,-0.0096,0.0568,0.0068,0.00,-0.62,0.05,0,3.463,8.540,3.106,1.025,0.008,-0.019,1.011,0.000,0.000,0.000,0.3010,0,0,-0.61,-1.19,2.82,0.3479,0.2773,0.3052,0.1009,0.1853,0.3000,0.2638,-14.50,16.95,-1.62,2.3840,0.1050,1.2090,1.6970,2.3950,42,-0.0128,-0.0219,0.0000,0.3636,0.2463,0
18398,0.3135,-0.0443,0.3011,-0.0045,0.0408,0.0140,0.48,-0.79,0.10,0,3.457,3.666,0.701,1.200,0.008,-0.014,1.011,0.000,0.000,0.000,0.3060,0,0,-0.17,-1.35,2.87,0.3483,0.2789,0.3053,0.0974,0.1869,0.3000,0.2629,-15.52,17.43,-2.89,2.3840,0.1050,1.2090,1.6920,2.3950,42,-0.0128,-0.0219,0.0000,0.3636,0.2463,0
18449,0.3136,-0.0376,0.3039,0.0033,0.0491,0.0293,0.63,-0.82,0.18,0,3.468,7.115,-3.043,-0.369,0.011,-0.018,1.012,0.000,0.000,0.000,0.3090,0,-1,0.02,-1.39,2.93,0.3495,0.2802,0.3071,0.0939,0.1884,0.3000,0.2607,-14.88,18.16,-5.49,2.3560,0.1050,1.2010,1.6920,2.3880,42,-0.0128,-0.0219,0.0000,0.3636,0.2463,0
18500,0.3144,-0.0351,0.3073,0.0116,0.0437,0.0438,0.90,-0.80,0.21,0,3.468,5.771,-2.217,-1.782,0.009,-0.017,1.002,0.000,0.000,0.000,0.3100,-3,0,0.40,-1.21,2.92,0.3473,0.2776,0.3097,0.0903,0.1899,0.3000,0.2585,-15.13,18.96,-6.25,2.3560,0.1050,1.2010,1.7030,2.3880,42,-0.0128,-0.0219,0.0000,0.3636,0.2463,0
18551,0.3175,-0.0306,0.3100,0.0248,0.0425,0.0482,1.17,-0.75,0.21,0,3.473,0.028,-5.052,0.964,0.010,-0.016,0.994,0.000,0.000,0.000,0.3130,1,-1,0.66,-1.09,2.76,0.3483,0.2819,0.3120,0.0868,0.1913,0.3000,0.2575,-15.00,20.04,-6.36,2.3780,0.1080,1.1960,1.7030,2.3880,42,-0.0128,-0.0219,0.0000,0.3636,0.2463,0
18602,0.3217,-0.0193,0.3131,0.0384,0.0580,0.0501,1.19,-0.51,0.21,0,3.468,9.662,-9.454,-0.114,0.007,-0.017,0.990,0.000,0.000,0.000,0.3170,0,-1,0.68,-0.83,2.84,0.3513,0.2804,0.3142,0.0832,0.1926,0.3000,0.2567,-13.61,21.18,-6.17,2.3780,0.1080,1.1960,1.7110,2.3880,42,-0.0128,-0.0219,0.0000,0.3636,0.2463,0
18653,0.3244,-0.0176,0.3164,0.0439,0.0452,0.0516,1.59,-0.04,0.18,0,3.473,9.736,-6.750,-0.223,0.008,-0.017,0.983,0.000,0.000,0.000,0.3190,1,0,1.16,-0.35,2.81,0.3546,0.2800,0.3168,0.0796,0.1940,0.3000,0.2559,-14.16,21.88,-5.31,2.4150,0.1060,1.1880,1.7110,2.3950,42,-0.0128,-0.0219,0.0000,0.3636,0.2463,0
18704,0.3275,-0.0228,0.3193,0.0462,0.0132,0.0456,2.10,0.29,0.15,0,3.468,-7.983,-4.908,-0.548,0.007,-0.016,0.978,0.000,0.000,0.000,0.3200,0,-1,1.67,0.01,2.83,0.3559,0.2774,0.3189,0.0760,0.1952,0.3000,0.2560,-15.99,22.40,-4.51,2.4150,0.1060,1.1880,1.7120,2.3950,76,-0.0128,-0.0219,0.0000,0.3636,0.2463,0
18755,0.3317,-0.0237,0.3209,0.0486,-0.0068,0.0333,1.83,0.50,0.12,0,3.473,-9.763,-8.760,-1.139,0.011,-0.015,0.984,0.000,0.000,0.000,0.3250,2,-1,1.24,0.26,2.77,0.3592,0.2765,0.3202,0.0724,0.1964,0.3000,0.2570,-16.92,22.92,-3.62,2.4500,0.1030,1.1940,1.7120,2.3820,76,-0.0128,-0.0219,0.0000,0.3636,0.2463,0
18807,0.3338,-0.0426,0.3237,0.0432,-0.0691,0.0299,1.59,0.88,0.04,0,3.468,-11.755,-4.061,-0.889,0.004,-0.016,0.974,0.000,0.000,0.000,0.3200,0,-1,0.76,0.71,2.73,0.3628,0.2709,0.3222,0.0687,0.1976,0.3000,0.2569,-20.86,23.08,-1.35,2.4500,0.1030,1.1940,1.7100,2.3820,76,-0.0128,-0.0219,0.0000,0.3636,0.2463,0
18859,0.3355,-0.0495,0.3228,0.0349,-0.0891,0.0082,0.91,1.10,0.02,0,3.473,-31.659,-1.865,-0.318,0.008,-0.010,0.991,0.000,0.000,0.000,0.3240,4,-1,0.12,0.92,2.64,0.3661,0.2700,0.3217,0.0650,0.1987,0.3000,0.2594,-21.95,22.89,-0.49,2.4490,0.1010,1.2130,1.7100,2.3810,76,-0.0128,-0.0219,0.0000,0.3636,0.2463,0
18911,0.3387,-0.0472,0.3234,0.0299,-0.0776,0.0019,-0.54,1.19,0.01,0,3.463,-11.059,-1.839,0.206,0.005,-0.015,0.990,0.000,0.000,0.000,0.3230,1,0,-1.48,1.02,2.67,0.3698,0.2588,0.3221,0.0612,0.1997,0.3000,0.2599,-21.32,23.08,-0.17,2.4490,0.1010,1.2130,1.7080,2.3810,76,-0.0128,-0.0219,0.0000,0.3636,0.2463,0
18962,0.3397,-0.0537,0.3232,0.0190,-0.0777,-0.0054,-1.27,1.22,-0.00,0,3.468,-5.152,-1.056,-0.027,0.012,-0.012,0.986,0.000,0.000,0.000,0.3210,0,0,-2.07,1.13,2.70,0.3703,0.2554,0.3220,0.0575,0.2007,0.3000,0.2608,-21.68,22.88,0.01,2.4580,0.1060,1.2180,1.7080,2.3860,76,-0.0128,-0.0219,0.0000,0.3636,0.2463,0
19013,0.3406,-0.0568,0.3219,0.0090,-0.0656,-0.0153,-1.44,1.27,0.02,0,3.457,-7.892,1.937,1.779,0.011,-0.014,0.993,0.000,0.000,0.000,0.3210,0,0,-2.33,1.18,2.70,0.3725,0.2510,0.3210,0.0538,0.2016,0.3000,0.2621,-21.29,22.66,-0.48,2.4580,0.1060,1.2180,1.7050,2.3860,76,-0.0128,-0.0219,0.0000,0.3636,0.2463,0
19064,0.3424,-0.0626,0.3210,0.0025,-0.0597,-0.0187,-1.82,1.14,0.09,0,3.463,-2.586,-1.950,0.678,0.010,-0.014,1.001,0.000,0.000,0.000,0.3180,3,0,-2.73,1.08,2.79,0.3745,0.2472,0.3200,0.0500,0.2025,0.3000,0.2626,-21.37,22.71,-2.57,2.4470,0.1050,1.2230,1.7050,2.3860,76,-0.0128,-0.0219,0.0000,0.3636,0.2463,0
19115,0.3426,-0.0643,0.3189,-0.0065,-0.0415,-0.0263,-2.15,1.14,0.19,0,3.463,-1.101,4.447,2.399,0.010,-0.018,1.001,0.000,0.000,0.000,0.3180,0,0,-2.86,1.21,2.81,0.3700,0.2429,0.3184,0.0463,0.2033,0.3000,0.2638,-20.65,22.50,-5.66,2.4470,0.1050,1.2230,1.7070,2.3860,76,-0.0128,-0.0219,0.0000,0.3636,0.2463,0
19166,0.3423,-0.0649,0.3176,-0.0155,-0.0205,-0.0264,-2.19,1.05,0.31,0,3.463,7.921,1.833,1.681,0.011,-0.018,1.001,0.000,0.000,0.000,0.3160,1,1,-2.92,0.98,2.92,0.3703,0.2406,0.3173,0.0425,0.2040,0.3000,0.2641,-19.80,22.34,-9.39,2.4400,0.1030,1.2230,1.7070,2.3890,76,-0.0128,-0.0219,0.0000,0.3636,0.2463,0
19219,0.3424,-0.0631,0.3160,-0.0216,0.0036,-0.0279,-1.93,0.95,0.40,0,3.457,2.969,5.244,2.008,0.007,-0.021,1.007,0.000,0.000,0.000,0.3180,-1,0,-2.51,0.90,2.95,0.3676,0.2385,0.3157,0.0387,0.2047,0.3000,0.2646,-18.65,22.31,-11.97,2.4400,0.1030,1.2230,1.7000,2.3890,76,-0.0128,-0.0219,0.0000,0.3636,0.2463,0
19271,0.3417,-0.0587,0.3160,-0.0282,0.0292,-0.0199,-1.69,0.75,0.47,0,3.463,13.776,3.978,-0.274,0.008,-0.024,1.006,0.000,0.000,0.000,0.3120,-3,0,-2.38,0.62,3.06,0.3671,0.2397,0.3155,0.0348,0.2053,0.3000,0.2637,-17.33,22.31,-13.97,2.4300,0.1020,1.2230,1.7000,2.3920,76,-0.0128,-0.0219,0.0000,0.3636,0.2463,0
19322,0.3403,-0.0613,0.3136,-0.0339,0.0327,-0.0250,-1.19,0.55,0.49,0,3.457,9.425,3.653,-0.533,0.013,-0.019,1.004,0.000,0.000,0.000,0.3100,-1,0,-1.70,0.41,3.07,0.3665,0.2454,0.3137,0.0310,0.2059,0.3000,0.2647,-17.28,22.16,-14.70,2.4300,0.1020,1.2230,1.7070,2.3920,76,-0.0128,-0.0219,0.0000,0.3636,0.2463,0
19373,0.3387,-0.0532,0.3112,-0.0381,0.0556,-0.0283,-0.71,0.38,0.48,0,3.457,11.341,3.331,-0.634,0.010,-0.019,1.010,0.000,0.000,0.000,0.3060,-11,1,-1.23,0.22,3.05,0.3661,0.2480,0.3117,0.0272,0.2064,0.3000,0.2655,-15.72,22.07,-14.34,2.4240,0.1010,1.2100,1.7070,2.3990,76,-0.0128,-0.0219,0.0000,0.3636,0.2463,0
19424,0.3372,-0.0533,0.3079,-0.0395,0.0538,-0.0329,-0.22,0.17,0.44,0,3.452,11.938,3.899,-1.232,0.010,-0.019,1.009,0.000,0.000,0.000,0.3070,2,1,-0.82,0.06,2.99,0.3626,0.2725,0.3088,0.0234,0.2069,0.3000,0.2666,-15.72,22.08,-13.33,2.4240,0.1010,1.2100,1.7100,2.3990,76,-0.0128,-0.0219,0.0000,0.3636,0.2463,0
19475,0.3357,-0.0444,0.3065,-0.0395,0.0679,-0.0280,0.39,-0.02,0.39,0,3.457,7.709,2.004,-1.850,0.008,-0.022,1.012,0.000,0.000,0.000,0.3020,3,0,-0.14,-0.12,2.90,0.3603,0.2692,0.3084,0.0196,0.2073,0.3000,0.2664,-14.53,22.24,-11.71,2.3910,0.1060,1.2040,1.7100,2.4000,76,-0.0128,-0.0219,0.0000,0.3636,0.2463,0
19526,0.3338,-0.0361,0.3036,-0.0391,0.0761,-0.0303,0.83,-0.11,0.32,0,3.452,7.430,-0.350,-2.109,0.013,-0.019,1.017,0.000,0.000,0.000,0.3050,-10,1,0.33,-0.23,2.84,0.3605,0.2625,0.3063,0.0158,0.2076,0.3000,0.2671,-13.56,22.32,-9.50,2.3910,0.1060,1.2040,1.7130,2.4000,57,-0.0128,-0.0219,0.0000,0.3636,0.2463,0
19578,0.3336,-0.0394,0.3034,-0.0340,0.0529,-0.0166,1.12,-0.15,0.23,0,3.463,2.947,1.596,-1.980,0.008,-0.021,1.013,0.000,0.000,0.000,0.3020,-12,0,0.54,-0.19,2.62,0.3569,0.2881,0.3062,0.0119,0.2079,0.3000,0.2657,-14.83,22.85,-6.98,2.3850,0.1040,1.1940,1.7130,2.4020,57,-0.0128,-0.0219,0.0000,0.3636,0.2463,0
19629,0.3308,-0.0314,0.3023,-0.0351,0.0546,-0.0120,1.25,-0.22,0.15,0,3.452,8.323,1.359,-2.347,0.010,-0.018,1.014,0.000,0.000,0.000,0.3010,0,1,0.50,-0.28,2.39,0.3557,0.3208,0.3037,0.0081,0.2081,0.3000,0.2654,-14.22,22.89,-4.38,2.3850,0.1040,1.1940,1.7100,2.4020,57,-0.0128,-0.0219,0.0000,0.3636,0.2463,0
19680,0.3301,-0.0204,0.3015,-0.0307,0.0618,-0.0064,1.61,-0.27,0.04,0,3.457,12.778,3.334,-2.309,0.007,-0.019,1.013,0.000,0.000,0.000,0.2990,3,0,0.99,-0.33,2.32,0.3528,0.3217,0.3040,0.0043,0.2082,0.3000,0.2650,-13.16,23.29,-1.21,2.3780,0.1030,1.1940,1.7100,2.4030,57,-0.0128,-0.0219,0.0000,0.3636,0.2463,0
19731,0.3289,-0.0217,0.3003,-0.0275,0.0377,-0.0039,2.21,-0.39,-0.05,0,3.452,-1.850,0.938,-2.061,0.009,-0.019,1.011,0.000,0.000,0.000,0.3000,1,0,1.74,-0.50,2.31,0.3528,0.3140,0.3036,0.0004,0.2083,0.3000,0.2649,-14.27,23.58,1.56,2.3780,0.1030,1.1940,1.7100,2.4030,57,-0.0128,-0.0219,0.0000,0.3636,0.2463,0
19782,0.3284,-0.0232,0.3002,-0.0222,0.0123,0.0017,2.18,-0.47,-0.16,0,3.457,-9.786,-5.600,-2.460,0.008,-0.016,1.010,0.000,0.000,0.000,0.2980,5,0,1.69,-0.55,2.26,0.3528,0.3114,0.3030,-0.0034,0.2084,0.3000,0.2644,-15.46,24.03,4.83,2.3810,0.1070,1.1930,1.7100,2.3990,57,-0.0128,-0.0219,0.0000,0.3636,0.2463,0
19833,0.3278,-0.0207,0.2994,-0.0185,0.0030,0.0025,1.69,-0.29,-0.28,0,3.452,-2.898,0.590,-2.380,0.008,-0.019,1.012,0.000,0.000,0.000,0.3000,6,0,1.29,-0.26,2.27,0.3531,0.2973,0.3018,-0.0072,0.2084,0.3000,0.2644,-15.65,24.36,8.31,2.3810,0.1070,1.1930,1.7100,2.3990,57,-0.0128,-0.0219,0.0000,0.3636,0.2463,0
19884,0.3274,-0.0215,0.2999,-0.0143,-0.0148,0.0105,1.42,-0.29,-0.37,0,3.463,-8.576,0.745,-1.150,0.010,-0.017,1.010,0.000,0.000,0.000,0.3010,10,0,1.23,-0.28,2.28,0.3534,0.2801,0.3010,-0.0111,0.2083,0.3000,0.2634,-16.48,24.80,11.07,2.3960,0.1080,1.2060,1.7100,2.4020,57,-0.0128,-0.0219,0.0000,0.3636,0.2463,0
19935,0.3276,-0.0253,0.3009,-0.0100,-0.0328,0.0171,1.20,-0.29,-0.43,0,3.452,-6.465,-2.168,-2.806,0.011,-0.016,1.014,0.000,0.000,0.000,0.3020,-1,0,0.94,-0.31,2.44,0.3540,0.2513,0.2997,-0.0149,0.2081,0.3000,0.2625,-17.50,25.00,12.85,2.3960,0.1080,1.2060,1.6990,2.4020,57,-0.0128,-0.0219,0.0000,0.3636,0.2463,0
19986,0.3268,-0.0347,0.3021,-0.0087,-0.0591,0.0240,0.76,-0.16,-0.58,0,3.463,-12.284,-2.476,-4.514,0.009,-0.016,1.008,0.000,0.000,0.000,0.3040,2,0,0.51,-0.19,2.19,0.3542,0.2535,0.3032,-0.0187,0.2079,0.3000,0.2616,-19.22,25.00,17.35,2.4320,0.1090,1.2110,1.6990,2.3940,57,-0.0128,-0.0219,0.0000,0.3636,0.2463,0
20037,0.3267,-0.0381,0.3039,-0.0067,-0.0660,0.0298,0.17,-0.06,-0.74,0,3.452,-9.904,-0.060,-2.712,0.009,-0.014,1.005,0.000,0.000,0.000,0.3040,4,0,-0.14,-0.06,1.94,0.3545,0.2473,0.3051,-0.0225,0.2077,0.3000,0.2606,-19.73,25.00,22.35,2.4320,0.1090,1.2110,1.6910,2.3940,57,-0.0128,-0.0219,0.0000,0.3636,0.2463,0
20088,0.3262,-0.0414,0.3048,-0.0071,-0.0683,0.0299,-0.26,-0.03,-0.87,0,3.463,-11.346,-2.689,-3.500,0.012,-0.016,1.003,0.000,0.000,0.000,0.3090,1,0,-0.63,-0.05,1.84,0.3549,0.2354,0.3062,-0.0263,0.2074,0.3000,0.2604,-19.98,25.00,26.17,2.4140,0.1100,1.2310,1.6910,2.3960,57,-0.0128,-0.0219,0.0000,0.3636,0.2463,0
20139,0.3257,-0.0469,0.3076,-0.0072,-0.0709,0.0381,-0.70,0.05,-0.99,0,3.457,-11.255,-1.037,-1.773,0.009,-0.018,1.000,0.000,0.000,0.000,0.3080,0,-1,-1.25,0.10,1.63,0.3551,0.2318,0.3091,-0.0301,0.2070,0.3000,0.2590,-20.47,25.00,29.82,2.4140,0.1100,1.2310,1.6870,2.3960,57,-0.0128,-0.0219,0.0000,0.3636,0.2463,0
20190,0.3251,-0.0529,0.3090,-0.0081,-0.0710,0.0351,-1.25,0.11,-1.11,0,3.463,-9.948,0.062,-2.670,0.007,-0.017,0.993,0.000,0.000,0.000,0.3130,4,0,-1.87,0.15,1.47,0.3583,0.2315,0.3109,-0.0339,0.2066,0.3000,0.2591,-20.77,25.00,33.23,2.4330,0.1110,1.2320,1.6870,2.3920,57,-0.0128,-0.0219,0.0000,0.3636,0.2463,0
20241,0.3250,-0.0573,0.3119,-0.0081,-0.0628,0.0372,-1.74,0.11,-1.23,0,3.457,-8.826,0.812,-2.549,0.012,-0.018,0.991,0.000,0.000,0.000,0.3090,3,1,-2.35,0.16,1.37,0.3586,0.2194,0.3131,-0.0377,0.2061,0.3000,0.2583,-20.68,25.00,36.75,2.4330,0.1110,1.2320,1.6810,2.3920,57,-0.0128,-0.0219,0.0000,0.3636,0.2463,0
20293,0.3243,-0.0598,0.3118,-0.0093,-0.0473,0.0235,-2.14,0.10,-1.36,0,3.463,-7.036,0.172,-3.395,0.009,-0.019,0.989,0.000,0.000,0.000,0.3140,2,-1,-2.78,0.15,1.24,0.3557,0.2101,0.3133,-0.0416,0.2055,0.3000,0.2598,-19.99,25.00,40.81,2.4270,0.1090,1.2470,1.6810,2.3910,57,-0.0128,-0.0219,0.0000,0.3636,0.2463,0
20344,0.3219,-0.0653,0.3134,-0.0143,-0.0375,0.0219,-2.48,0.10,-1.52,0,3.457,-5.793,3.470,-2.561,0.012,-0.018,0.992,0.000,0.000,0.000,0.3160,0,1,-3.15,0.14,1.08,0.3589,0.2040,0.3145,-0.0453,0.2049,0.3000,0.2597,-19.85,25.00,45.50,2.4270,0.1090,1.2470,1.6730,2.3910,61,-0.0128,-0.0219,0.0000,0.3636,0.2463,0
20395,0.3222,-0.0671,0.3152,-0.0123,-0.0173,0.0212,-2.77,0.02,-1.69,0,3.463,-2.798,1.230,-2.311,0.012,-0.017,0.991,0.000,0.000,0.000,0.3150,0,2,-3.48,0.00,0.86,0.3560,0.2035,0.3158,-0.0491,0.2043,0.3000,0.2594,-19.03,25.00,50.65,2.4110,0.1080,1.2610,1.6730,2.3890,61,-0.0128,-0.0219,0.0000,0.3636,0.2463,0
20446,0.3216,-0.0682,0.3157,-0.0116,0.0037,0.0149,-2.90,-0.09,-1.83,0,3.452,4.710,0.313,-3.100,0.008,-0.021,0.990,0.000,0.000,0.000,0.3170,0,0,-3.65,-0.00,0.62,0.3500,0.2030,0.3162,-0.0529,0.2036,0.3000,0.2600,-18.08,25.00,54.82,2.4110,0.1080,1.2610,1.6750,2.3890,61,-0.0128,-0.0219,0.0000,0.3636,0.2463,0
20497,0.3198,-0.0724,0.3167,-0.0130,0.0158,0.0129,-2.73,-0.11,-1.95,0,3.463,3.060,1.160,-2.936,0.011,-0.023,0.993,0.000,0.000,0.000,0.3170,-2,0,-3.41,-0.01,0.46,0.3501,0.2011,0.3167,-0.0566,0.2028,0.3000,0.2600,-17.72,25.00,58.42,2.3980,0.1100,1.2520,1.6750,2.3910,61,-0.0128,-0.0219,0.0000,0.3636,0.2463,0
20548,0.3182,-0.0694,0.3172,-0.0135,0.0429,0.0087,-2.63,-0.15,-2.08,0,3.457,2.395,2.775,-2.311,0.008,-0.020,0.990,0.000,0.000,0.000,0.3140,-1,0,-3.32,-0.05,0.23,0.3494,0.2118,0.3167,-0.0604,0.2019,0.3000,0.2604,-16.23,25.00,62.47,2.3980,0.1100,1.2520,1.6690,2.3910,61,-0.0128,-0.0219,0.0000,0.3636,0.2463,0
20600,0.3170,-0.0696,0.3160,-0.0129,0.0581,-0.0016,-2.46,-0.22,-2.20,0,3.457,6.432,-1.685,-2.752,0.011,-0.019,0.993,0.000,0.000,0.000,0.3140,-1,0,-3.20,-0.18,0.09,0.3495,0.2147,0.3156,-0.0641,0.2010,0.3000,0.2617,-15.39,25.00,66.02,2.4020,0.1140,1.2520,1.6690,2.3970,61,-0.0128,-0.0219,0.0000,0.3636,0.2463,0
20652,0.3168,-0.0619,0.3150,-0.0096,0.0884,-0.0093,-2.18,-0.26,-2.30,0,3.457,12.713,-3.287,-2.501,0.007,-0.022,1.002,0.000,0.000,0.000,0.3120,-1,1,-2.87,-0.08,-0.06,0.3496,0.2178,0.3146,-0.0679,0.2001,0.3000,0.2627,-13.36,25.00,69.09,2.4020,0.1140,1.2520,1.6750,2.3970,61,-0.0128,-0.0219,0.0000,0.3636,0.2463,0
20703,0.3169,-0.0572,0.3133,-0.0055,0.1066,-0.0164,-1.65,-0.20,-2.43,0,3.457,10.063,-1.041,-1.621,0.008,-0.024,1.005,0.000,0.000,0.000,0.3070,-1,0,-2.20,0.12,-0.26,0.3472,0.2206,0.3133,-0.0716,0.1991,0.3000,0.2638,-12.07,25.00,72.75,2.4040,0.1150,1.2400,1.6750,2.3940,61,-0.0128,-0.0219,0.0000,0.3636,0.2463,0
20754,0.3159,-0.0535,0.3101,-0.0047,0.1164,-0.0274,-1.07,-0.15,-2.52,0,3.447,6.168,-1.382,-1.811,0.007,-0.020,1.000,0.000,0.000,0.000,0.3090,0,0,-1.68,0.18,-0.35,0.3472,0.2236,0.3108,-0.0753,0.1980,0.3000,0.2656,-11.18,25.00,75.50,2.4040,0.1150,1.2400,1.6790,2.3940,61,-0.0128,-0.0219,0.0000,0.3636,0.2463,0
20805,0.3158,-0.0497,0.3088,-0.0027,0.1209,-0.0253,-0.80,-0.11,-2.60,0,3.452,4.586,-0.845,-2.665,0.008,-0.022,1.011,0.000,0.000,0.000,0.3060,-3,0,-1.37,0.25,-0.44,0.3476,0.2277,0.3095,-0.0789,0.1969,0.3000,0.2656,-10.60,25.00,78.07,2.3960,0.1120,1.2240,1.6790,2.4000,61,-0.0128,-0.0219,0.0000,0.3636,0.2463,0
20856,0.3150,-0.0411,0.3068,-0.0030,0.1337,-0.0259,-0.59,-0.04,-2.73,0,3.447,5.577,0.119,-3.866,0.012,-0.020,1.019,0.000,0.000,0.000,0.3080,-2,1,-1.14,0.30,-0.60,0.3470,0.2328,0.3078,-0.0826,0.1957,0.3000,0.2661,-9.29,25.00,82.03,2.3960,0.1120,1.2240,1.6890,2.4000,61,-0.0128,-0.0219,0.0000,0.3636,0.2463,0
20907,0.3152,-0.0312,0.3066,-0.0016,0.1460,-0.0143,-0.32,-0.01,-2.92,0,3.452,8.548,-1.462,-4.419,0.008,-0.025,1.007,0.000,0.000,0.000,0.3050,0,0,-0.86,0.32,-0.84,0.3450,0.2383,0.3076,-0.0862,0.1945,0.3000,0.2649,-7.96,25.00,87.57,2.4020,0.1090,1.2140,1.6890,2.3940,61,-0.0128,-0.0219,0.0000,0.3636,0.2463,0
