time_ms,pos_x,pos_y,pos_z,vel_x,vel_y,vel_z,roll,pitch,yaw,thrust,vbat,gyro_x,gyro_y,gyro_z,acc_x,acc_y,acc_z,rate_roll,rate_pitch,rate_yaw,range_z,flow_dx,flow_dy,mekf_roll,mekf_pitch,mekf_yaw,mekf_x,mekf_y,mekf_z,our_ref_x,our_ref_y,our_ref_z,our_thrust,our_roll_cmd,our_pitch_cmd,our_yaw_rate_cmd,multi_front,multi_back,multi_left,multi_right,multi_up,ai_feat_count,vo_x,vo_y,vo_sigma,pg_x,pg_y,lc_count
0,0.1436,-1.1064,0.0126,0.0067,0.0072,0.0058,-0.78,0.85,-24.91,0,3.943,-0.037,0.035,-0.199,0.016,-0.014,1.001,0.000,0.000,0.000,0.0110,0,1,0.00,0.00,0.00,0.0000,0.0000,0.0000,0.0000,0.0000,0.0000,0.0000,0.00,0.00,0.00,1.1200,0.0000,1.3770,1.1070,2.7020,0,0.0000,0.0000,0.0000,0.0000,0.0000,0
100,0.1440,-1.1066,0.0121,0.0072,0.0038,0.0024,-0.77,0.88,-24.78,0,3.948,0.012,0.014,-0.240,0.017,-0.013,0.998,0.000,0.000,0.000,0.0090,0,0,0.00,0.00,0.00,0.0000,0.0000,0.0000,0.0000,0.0000,0.0000,0.0000,0.00,0.00,0.00,1.1210,0.0000,1.3780,1.1060,2.7030,0,0.0000,0.0000,0.0000,0.0000,0.0000,0
201,0.1440,-1.1067,0.0107,0.0053,0.0020,-0.0047,-0.76,0.88,-24.66,0,3.943,-0.130,0.082,-0.212,0.020,-0.015,1.000,0.000,0.000,0.000,0.0110,5,-2,0.00,0.00,0.00,0.0000,0.0000,0.0000,0.0000,0.0000,0.0000,0.0000,0.00,0.00,0.00,1.1210,0.0000,1.3780,1.1060,2.7030,0,0.0000,0.0000,0.0000,0.0000,0.0000,0
302,0.1440,-1.1066,0.0107,0.0049,0.0010,-0.0037,-0.71,0.86,-24.54,0,3.954,-0.121,-0.226,-0.009,0.018,-0.015,0.998,0.000,0.000,0.000,0.0120,-9,0,0.00,0.00,0.00,0.0000,0.0000,0.0000,0.0000,0.0000,0.0000,0.0000,0.00,0.00,0.00,1.1250,0.0000,1.3790,1.1070,2.7010,0,0.0000,0.0000,0.0000,0.0000,0.0000,0
403,0.1433,-1.1085,0.0112,0.0006,-0.0103,-0.0007,-0.76,0.87,-24.42,0,3.943,-0.224,-0.069,-0.154,0.016,-0.014,0.997,0.000,0.000,0.000,0.0140,3,-4,0.00,0.00,0.00,0.0000,0.0000,0.0000,0.0000,0.0000,0.0000,0.0000,0.00,0.00,0.00,1.1250,0.0000,1.3790,1.1070,2.7010,0,0.0000,0.0000,0.0000,0.0000,0.0000,0
504,0.1440,-1.1065,0.0127,0.0035,-0.0002,0.0056,-0.73,0.85,-24.30,0,3.943,0.127,0.004,0.228,0.018,-0.015,1.000,0.000,0.000,0.000,0.0100,-4,1,0.00,0.00,0.00,0.0000,0.0000,0.0000,0.0000,0.0000,0.0000,0.0000,0.00,0.00,0.00,1.1240,0.0000,1.3800,1.1080,2.7080,0,0.0000,0.0000,0.0000,0.0000,0.0000,0
606,0.1438,-1.1074,0.0116,0.0020,-0.0052,-0.0001,-0.76,0.89,-24.18,0,3.943,0.301,0.104,-0.064,0.016,-0.014,1.001,0.000,0.000,0.000,0.0090,-1,7,0.00,0.00,0.00,0.0000,0.0000,0.0000,0.0000,0.0000,0.0000,0.0000,0.00,0.00,0.00,1.1240,0.0000,1.3800,1.1080,2.7080,0,0.0000,0.0000,0.0000,0.0000,0.0000,0
707,0.1444,-1.1079,0.0104,0.0044,-0.0071,-0.0053,-0.74,0.93,-24.05,0,3.954,0.093,0.023,-0.166,0.018,-0.013,0.999,0.000,0.000,0.000,0.0090,0,-2,0.00,0.00,0.00,0.0000,0.0000,0.0000,0.0000,0.0000,0.0000,0.0000,0.00,0.00,0.00,1.1220,0.0000,1.3790,1.1080,2.7030,0,0.0000,0.0000,0.0000,0.0000,0.0000,0
807,0.1438,-1.1064,0.0095,0.0015,0.0006,-0.0081,-0.77,0.89,-23.93,0,3.943,0.087,0.231,-0.123,0.016,-0.015,0.997,0.000,0.000,0.000,0.0120,-7,-8,0.00,0.00,0.00,0.0000,0.0000,0.0000,0.0000,0.0000,0.0000,0.0000,0.00,0.00,0.00,1.1220,0.0000,1.3790,1.1080,2.7030,0,0.0000,0.0000,0.0000,0.0000,0.0000,0
908,0.1414,-1.1075,0.0104,-0.0117,-0.0059,-0.0028,-0.76,0.90,-23.82,0,3.954,0.050,-0.197,-0.167,0.016,-0.014,1.000,0.000,0.000,0.000,0.0100,0,2,0.00,0.00,0.00,0.0000,0.0000,0.0000,0.0000,0.0000,0.0000,0.0000,0.00,0.00,0.00,1.1210,0.0000,1.3730,1.1080,2.6990,0,0.0000,0.0000,0.0000,0.0000,0.0000,0
1009,0.1419,-1.1075,0.0102,-0.0074,-0.0055,-0.0036,-0.71,0.96,-23.70,0,3.943,0.016,0.237,0.063,0.016,-0.015,0.999,0.000,0.000,0.000,0.0140,-1,-5,0.00,0.00,0.00,0.0000,0.0000,0.0000,0.0000,0.0000,0.0000,0.0000,0.00,0.00,0.00,1.1210,0.0000,1.3730,1.1080,2.6990,0,0.0000,0.0000,0.0000,0.0000,0.0000,0
1110,0.1422,-1.1078,0.0120,-0.0042,-0.0071,0.0058,-0.73,0.87,-23.59,0,3.948,-0.253,0.215,0.160,0.017,-0.016,1.002,0.000,0.000,0.000,0.0110,9,-1,0.00,0.00,0.00,0.0000,0.0000,0.0000,0.0000,0.0000,0.0000,0.0000,0.00,0.00,0.00,1.1240,0.0000,1.3780,1.1120,2.7050,0,0.0000,0.0000,0.0000,0.0000,0.0000,0
1212,0.1423,-1.1055,0.0118,-0.0032,0.0052,0.0036,-0.72,0.93,-23.47,0,3.943,0.001,-0.067,0.155,0.015,-0.016,0.999,0.000,0.000,0.000,0.0090,14,-2,0.00,0.00,0.00,0.0000,0.0000,0.0000,0.0000,0.0000,0.0000,0.0000,0.00,0.00,0.00,1.1240,0.0000,1.3780,1.1120,2.7050,0,0.0000,0.0000,0.0000,0.0000,0.0000,0
1313,0.1425,-1.1045,0.0106,-0.0006,0.0114,-0.0023,-0.74,0.92,-23.35,0,3.954,-0.092,0.146,0.123,0.016,-0.014,0.998,0.000,0.000,0.000,0.0100,3,0,0.00,0.00,0.00,0.0000,0.0000,0.0000,0.0000,0.0000,0.0000,0.0000,0.00,0.00,0.00,1.1150,0.0000,1.3770,1.1080,2.7060,0,0.0000,0.0000,0.0000,0.0000,0.0000,0
1414,0.1397,-1.1116,0.0103,-0.0155,-0.0269,-0.0039,-0.53,0.92,-23.23,0,3.943,-0.043,-0.227,0.265,0.016,-0.014,1.000,0.000,0.000,0.000,0.0120,-1,-1,0.00,0.00,0.00,0.0000,0.0000,0.0000,0.0000,0.0000,0.0000,0.0000,0.00,0.00,0.00,1.1150,0.0000,1.3770,1.1080,2.7060,0,0.0000,0.0000,0.0000,0.0000,0.0000,0
1515,0.1396,-1.1113,0.0111,-0.0130,-0.0210,0.0008,-0.63,0.91,-23.12,0,3.954,0.177,0.013,-0.043,0.015,-0.013,0.999,0.000,0.000,0.000,0.0080,1,1,0.00,0.00,0.00,0.0000,0.0000,0.0000,0.0000,0.0000,0.0000,0.0000,0.00,0.00,0.00,1.1270,0.0000,1.3750,1.1070,2.6990,0,0.0000,0.0000,0.0000,0.0000,0.0000,0
1565,0.1394,-1.1112,0.0097,-0.0113,-0.0165,-0.0058,-0.67,0.93,-23.00,0,3.943,0.048,-0.129,-0.344,0.015,-0.012,1.002,0.000,0.000,0.000,0.0110,0,0,0.00,0.00,0.00,0.0000,0.0000,0.0000,0.0000,0.0000,0.0000,0.0000,0.00,0.00,0.00,1.1270,0.0000,1.3750,1.1070,2.6990,0,0.0000,0.0000,0.0000,0.0000,0.0000,0
1616,0.1397,-1.1117,0.0102,-0.0075,-0.0156,-0.0015,-0.69,0.90,-22.89,0,3.954,0.382,0.187,-0.333,0.017,-0.015,0.999,0.000,0.000,0.000,0.0120,-3,0,0.00,0.00,0.00,0.0000,0.0000,0.0000,0.0000,0.0000,0.0000,0.0000,0.00,0.00,0.00,1.1260,0.0000,1.3770,1.1110,2.6980,0,0.0000,0.0000,0.0000,0.0000,0.0000,0
1667,0.1394,-1.1117,0.0110,-0.0072,-0.0132,0.0030,-0.75,0.91,-22.78,0,3.943,-0.121,0.047,-0.045,0.019,-0.014,1.001,0.000,0.000,0.000,0.0130,0,0,0.00,0.00,0.00,0.0000,0.0000,0.0000,0.0000,0.0000,0.0000,0.0000,0.00,0.00,0.00,1.1260,0.0000,1.3770,1.1110,2.6980,0,0.0000,0.0000,0.0000,0.0000,0.0000,0
1719,0.1393,-1.1126,0.0121,-0.0064,-0.0157,0.0077,-0.70,0.89,-22.67,0,3.954,0.089,-0.145,-0.203,0.017,-0.015,0.999,0.000,0.000,0.000,0.0100,-1,0,0.00,0.00,0.00,0.0000,0.0000,0.0000,0.0000,0.0000,0.0000,0.0000,0.00,0.00,0.00,1.1240,0.0000,1.3780,1.1050,2.7040,0,0.0000,0.0000,0.0000,0.0000,0.0000,0
1770,0.1370,-1.1160,0.0114,-0.0163,-0.0306,0.0028,-0.60,0.92,-22.55,0,3.943,-0.120,-0.137,0.067,0.015,-0.016,0.998,0.000,0.000,0.000,0.0110,3,-1,0.00,0.00,0.00,0.0000,0.0000,0.0000,0.0000,0.0000,0.0000,0.0000,0.00,0.00,0.00,1.1240,0.0000,1.3780,1.1050,2.7040,0,0.0000,0.0000,0.0000,0.0000,0.0000,0
1822,0.1395,-1.1108,0.0115,-0.0016,0.0010,0.0021,-0.83,0.90,-22.44,0,3.948,-0.203,-0.175,0.036,0.016,-0.014,0.999,0.000,0.000,0.000,0.0120,0,0,0.00,0.00,0.00,0.0000,0.0000,0.0000,0.0000,0.0000,0.0000,0.0000,0.00,0.00,0.00,1.1270,0.0000,1.3760,1.1100,2.7000,0,0.0000,0.0000,0.0000,0.0000,0.0000,0
1874,0.1394,-1.1105,0.0118,-0.0019,0.0026,0.0028,-0.87,0.92,-22.34,0,3.943,0.125,0.221,0.101,0.018,-0.016,1.000,0.000,0.000,0.000,0.0090,18,1,0.00,0.00,0.00,0.0000,0.0000,0.0000,0.0000,0.0000,0.0000,0.0000,0.00,0.00,0.00,1.1270,0.0000,1.3760,1.1100,2.7000,0,0.0000,0.0000,0.0000,0.0000,0.0000,0
1924,0.1419,-1.1121,0.0107,0.0114,-0.0040,-0.0032,-0.68,0.82,-22.22,0,3.954,0.205,0.102,0.093,0.018,-0.014,0.999,0.000,0.000,0.000,0.0110,-1,-1,0.00,0.00,0.00,0.0000,0.0000,0.0000,0.0000,0.0000,0.0000,0.0000,0.00,0.00,0.00,1.1150,0.0000,1.3810,1.1060,2.6970,0,0.0000,0.0000,0.0000,0.0000,0.0000,0
1976,0.1389,-1.1203,0.0107,-0.0040,-0.0429,-0.0022,-0.57,0.80,-22.11,0,3.943,-0.135,-0.130,-0.067,0.016,-0.015,1.000,0.000,0.000,0.000,0.0110,2,1,0.00,0.00,0.00,0.0000,0.0000,0.0000,0.0000,0.0000,0.0000,0.0000,0.00,0.00,0.00,1.1150,0.0000,1.3810,1.1060,2.6970,0,0.0000,0.0000,0.0000,0.0000,0.0000,0
2026,0.1400,-1.1200,0.0109,0.0023,-0.0331,-0.0011,-0.64,0.81,-22.00,0,3.954,0.003,-0.003,0.147,0.016,-0.014,1.001,0.000,0.000,0.000,0.0130,0,-1,0.00,0.00,0.00,0.0000,0.0000,0.0000,0.0000,0.0000,0.0000,0.0000,0.00,0.00,0.00,1.1210,0.0000,1.3770,1.1060,2.7060,0,0.0000,0.0000,0.0000,0.0000,0.0000,0
2077,0.1387,-1.1201,0.0119,-0.0042,-0.0277,0.0042,-0.69,0.86,-21.90,0,3.938,0.082,-0.144,-0.122,0.016,-0.015,1.000,0.000,0.000,0.000,0.0090,0,-1,0.00,0.00,0.00,0.0000,0.0000,0.0000,0.0000,0.0000,0.0000,0.0000,0.00,0.00,0.00,1.1210,0.0000,1.3770,1.1060,2.7060,0,0.0000,0.0000,0.0000,0.0000,0.0000,0
2128,0.1389,-1.1201,0.0108,-0.0019,-0.0228,-0.0018,-0.73,0.86,-21.79,0,3.954,0.261,0.028,0.097,0.017,-0.015,1.003,0.000,0.000,0.000,0.0110,-4,0,0.00,0.00,0.00,0.0000,0.0000,0.0000,0.0000,0.0000,0.0000,0.0000,0.00,0.00,0.00,1.1190,0.0000,1.3770,1.1090,2.6960,0,0.0000,0.0000,0.0000,0.0000,0.0000,0
2180,0.1389,-1.1203,0.0108,-0.0019,-0.0197,-0.0007,-0.79,0.87,-21.68,0,3.943,0.147,-0.285,-0.056,0.015,-0.014,0.998,0.000,0.000,0.000,0.0100,1,-1,0.00,0.00,0.00,0.0000,0.0000,0.0000,0.0000,0.0000,0.0000,0.0000,0.00,0.00,0.00,1.1190,0.0000,1.3770,1.1090,2.6960,0,0.0000,0.0000,0.0000,0.0000,0.0000,0
2230,0.1392,-1.1201,0.0105,0.0007,-0.0158,-0.0018,-0.78,0.86,-21.57,0,3.954,0.072,-0.048,0.079,0.018,-0.015,0.998,0.000,0.000,0.000,0.0070,13,-6,0.00,0.00,0.00,0.0000,0.0000,0.0000,0.0000,0.0000,0.0000,0.0000,0.00,0.00,0.00,1.1190,0.0000,1.3760,1.1120,2.6990,0,0.0000,0.0000,0.0000,0.0000,0.0000,0
2282,0.1413,-1.1160,0.0088,0.0114,0.0086,-0.0095,-0.87,0.81,-21.47,0,3.943,-0.097,-0.101,-0.007,0.016,-0.014,0.999,0.000,0.000,0.000,0.0110,-5,8,0.00,0.00,0.00,0.0000,0.0000,0.0000,0.0000,0.0000,0.0000,0.0000,0.00,0.00,0.00,1.1190,0.0000,1.3760,1.1120,2.6990,0,0.0000,0.0000,0.0000,0.0000,0.0000,0
2333,0.1399,-1.1201,0.0096,0.0029,-0.0131,-0.0039,-0.85,0.94,-21.36,0,3.954,0.153,0.171,0.177,0.017,-0.016,1.001,0.000,0.000,0.000,0.0110,4,-5,0.00,0.00,0.00,0.0000,0.0000,0.0000,0.0000,0.0000,0.0000,0.0000,0.00,0.00,0.00,1.1290,0.0000,1.3780,1.1070,2.7070,0,0.0000,0.0000,0.0000,0.0000,0.0000,0
2383,0.1385,-1.1192,0.0101,-0.0047,-0.0062,-0.0004,-0.79,0.90,-21.25,0,3.938,-0.270,0.056,0.039,0.017,-0.015,1.002,0.000,0.000,0.000,0.0140,1,2,0.00,0.00,0.00,0.0000,0.0000,0.0000,0.0000,0.0000,0.0000,0.0000,0.00,0.00,0.00,1.1290,0.0000,1.3780,1.1070,2.7070,0,0.0000,0.0000,0.0000,0.0000,0.0000,0
2435,0.1397,-1.1194,0.0120,0.0027,-0.0068,0.0090,-0.84,0.91,-21.15,0,3.954,-0.211,0.066,0.084,0.018,-0.015,0.997,0.000,0.000,0.000,0.0120,0,-3,0.00,0.00,0.00,0.0000,0.0000,0.0000,0.0000,0.0000,0.0000,0.0000,0.00,0.00,0.00,1.1230,0.0000,1.3740,1.1090,2.7080,0,0.0000,0.0000,0.0000,0.0000,0.0000,0
2486,0.1381,-1.1201,0.0124,-0.0054,-0.0097,0.0084,-0.81,0.91,-21.04,0,3.943,-0.033,-0.028,-0.020,0.016,-0.014,0.998,0.000,0.000,0.000,0.0100,0,-1,0.00,0.00,0.00,0.0000,0.0000,0.0000,0.0000,0.0000,0.0000,0.0000,0.00,0.00,0.00,1.1230,0.0000,1.3740,1.1090,2.7080,0,0.0000,0.0000,0.0000,0.0000,0.0000,0
2537,0.1388,-1.1201,0.0115,-0.0013,-0.0077,0.0020,-0.84,0.91,-20.93,0,3.948,0.102,-0.004,-0.042,0.016,-0.015,0.997,0.000,0.000,0.000,0.0110,3,-1,0.00,0.00,0.00,0.0000,0.0000,0.0000,0.0000,0.0000,0.0000,0.0000,0.00,0.00,0.00,1.1210,0.0000,1.3760,1.1020,2.7000,0,0.0000,0.0000,0.0000,0.0000,0.0000,0
2587,0.1385,-1.1203,0.0114,-0.0020,-0.0070,0.0002,-0.81,0.92,-20.83,0,3.938,-0.124,0.138,-0.017,0.015,-0.015,1.000,0.000,0.000,0.000,0.0090,6,-5,0.00,0.00,0.00,0.0000,0.0000,0.0000,0.0000,0.0000,0.0000,0.0000,0.00,0.00,0.00,1.1210,0.0000,1.3760,1.1020,2.7000,0,0.0000,0.0000,0.0000,0.0000,0.0000,0
2639,0.1388,-1.1191,0.0103,-0.0006,0.0005,-0.0046,-0.84,0.89,-20.73,0,3.954,-0.122,0.137,0.308,0.018,-0.012,0.998,0.000,0.000,0.000,0.0120,-4,1,0.00,0.00,0.00,0.0000,0.0000,0.0000,0.0000,0.0000,0.0000,0.0000,0.00,0.00,0.00,1.1320,0.0000,1.3770,1.1070,2.7010,0,0.0000,0.0000,0.0000,0.0000,0.0000,0
2689,0.1393,-1.1195,0.0110,0.0022,0.0001,-0.0001,-0.93,0.92,-20.63,0,3.943,0.041,0.033,0.167,0.019,-0.014,1.001,0.000,0.000,0.000,0.0100,0,2,0.00,0.00,0.00,0.0000,0.0000,0.0000,0.0000,0.0000,0.0000,0.0000,0.00,0.00,0.00,1.1320,0.0000,1.3770,1.1070,2.7010,0,0.0000,0.0000,0.0000,0.0000,0.0000,0
2740,0.1386,-1.1226,0.0106,-0.0010,-0.0157,-0.0017,-0.76,0.92,-20.53,0,3.954,-0.217,-0.026,-0.049,0.016,-0.015,0.999,0.000,0.000,0.000,0.0110,4,0,0.00,0.00,0.00,0.0000,0.0000,0.0000,0.0000,0.0000,0.0000,0.0000,0.00,0.00,0.00,1.1130,0.0000,1.3780,1.1080,2.7030,0,0.0000,0.0000,0.0000,0.0000,0.0000,0
2791,0.1381,-1.1254,0.0108,-0.0025,-0.0280,0.0000,-0.63,0.88,-20.42,0,3.943,-0.105,0.002,-0.194,0.016,-0.016,0.998,0.000,0.000,0.000,0.0120,0,0,0.00,0.00,0.00,0.0000,0.0000,0.0000,0.0000,0.0000,0.0000,0.0000,0.00,0.00,0.00,1.1130,0.0000,1.3780,1.1080,2.7030,0,0.0000,0.0000,0.0000,0.0000,0.0000,0
2843,0.1378,-1.1262,0.0114,-0.0035,-0.0260,0.0032,-0.68,0.89,-20.32,0,3.948,-0.085,0.170,0.383,0.017,-0.015,1.001,0.000,0.000,0.000,0.0110,-7,1,0.00,0.00,0.00,0.0000,0.0000,0.0000,0.0000,0.0000,0.0000,0.0000,0.00,0.00,0.00,1.1200,0.0000,1.3770,1.1080,2.6990,0,0.0000,0.0000,0.0000,0.0000,0.0000,0
2894,0.1378,-1.1274,0.0114,-0.0033,-0.0274,0.0021,-0.76,0.90,-20.22,0,3.933,0.024,0.109,0.106,0.016,-0.017,1.001,0.000,0.000,0.000,0.0150,-2,1,0.00,0.00,0.00,0.0000,0.0000,0.0000,0.0000,0.0000,0.0000,0.0000,0.00,0.00,0.00,1.1200,0.0000,1.3770,1.1080,2.6990,0,0.0000,0.0000,0.0000,0.0000,0.0000,0
2945,0.1380,-1.1261,0.0133,-0.0015,-0.0148,0.0111,-0.81,0.92,-20.12,0,3.954,-0.058,0.152,-0.098,0.017,-0.012,1.002,0.000,0.000,0.000,0.0110,0,-4,0.00,0.00,0.00,0.0000,0.0000,0.0000,0.0000,0.0000,0.0000,0.0000,0.00,0.00,0.00,1.1180,0.0000,1.3830,1.1110,2.6940,0,0.0000,0.0000,0.0000,0.0000,0.0000,0
2996,0.1373,-1.1261,0.0127,-0.0052,-0.0115,0.0059,-0.80,0.90,-20.02,0,3.943,-0.247,0.211,0.184,0.016,-0.012,1.002,0.000,0.000,0.000,0.0110,3,1,0.00,0.00,0.00,0.0000,0.0000,0.0000,0.0000,0.0000,0.0000,0.0000,0.00,0.00,0.00,1.1180,0.0000,1.3830,1.1110,2.6940,0,0.0000,0.0000,0.0000,0.0000,0.0000,0
3047,0.1383,-1.1260,0.0121,0.0008,-0.0065,0.0019,-0.83,0.92,-19.91,0,3.954,0.105,-0.230,0.110,0.017,-0.013,1.001,0.000,0.000,0.000,0.0100,8,0,0.00,0.00,0.00,0.0000,0.0000,0.0000,0.0000,0.0000,0.0000,0.0000,0.00,0.00,0.00,1.1220,0.0590,1.3790,1.1080,2.7040,0,0.0000,0.0000,0.0000,0.0000,0.0000,0
3098,0.1381,-1.1260,0.0113,0.0006,-0.0044,-0.0019,-0.79,0.92,-19.81,0,3.938,0.170,0.202,0.055,0.018,-0.015,1.000,0.000,0.000,0.000,0.0090,-8,0,0.00,0.00,0.00,0.0000,0.0000,0.0000,0.0000,0.0000,0.0000,0.0000,0.00,0.00,0.00,1.1220,0.0590,1.3790,1.1080,2.7040,0,0.0000,0.0000,0.0000,0.0000,0.0000,0
3149,0.1375,-1.1276,0.0101,-0.0018,-0.0112,-0.0067,-0.89,0.92,-19.72,0,3.948,0.033,0.268,0.147,0.018,-0.013,0.999,0.000,0.000,0.000,0.0140,0,-2,0.00,0.00,0.00,0.0000,0.0000,0.0000,0.0000,0.0000,0.0000,0.0000,0.00,0.00,0.00,1.1270,0.0000,1.3790,1.1080,2.6980,0,0.0000,0.0000,0.0000,0.0000,0.0000,0
3201,0.1374,-1.1266,0.0117,-0.0014,-0.0041,0.0017,-0.86,0.91,-19.61,0,3.943,0.044,-0.117,0.191,0.015,-0.015,1.000,0.000,0.000,0.000,0.0080,0,-1,0.00,0.00,0.00,0.0000,0.0000,0.0000,0.0000,0.0000,0.0000,0.0000,0.00,0.00,0.00,1.1270,0.0000,1.3790,1.1080,2.6980,0,0.0000,0.0000,0.0000,0.0000,0.0000,0
3252,0.1370,-1.1309,0.0100,-0.0032,-0.0264,-0.0076,-0.69,0.88,-19.51,0,3.954,-0.130,-0.226,-0.005,0.016,-0.015,1.000,0.000,0.000,0.000,0.0100,5,0,0.00,0.00,0.00,0.0000,0.0000,0.0000,0.0000,0.0000,0.0000,0.0000,0.00,0.00,0.00,1.1190,0.0000,1.3760,1.1060,2.7040,0,0.0000,0.0000,0.0000,0.0000,0.0000,0
3304,0.1382,-1.1270,0.0099,0.0036,-0.0007,-0.0063,-0.85,0.91,-19.41,0,3.943,-0.066,-0.182,-0.187,0.014,-0.014,1.002,0.000,0.000,0.000,0.0100,0,-1,0.00,0.00,0.00,0.0000,0.0000,0.0000,0.0000,0.0000,0.0000,0.0000,0.00,0.00,0.00,1.1190,0.0000,1.3760,1.1060,2.7040,0,0.0000,0.0000,0.0000,0.0000,0.0000,0
3356,0.1369,-1.1306,0.0098,-0.0040,-0.0190,-0.0046,-0.74,0.91,-19.31,0,3.954,0.043,-0.431,-0.104,0.018,-0.014,0.996,0.000,0.000,0.000,0.0100,-4,-1,0.00,0.00,0.00,0.0000,0.0000,0.0000,0.0000,0.0000,0.0000,0.0000,0.00,0.00,0.00,1.1240,0.0000,1.3790,1.1010,2.7060,0,0.0000,0.0000,0.0000,0.0000,0.0000,0
3407,0.1364,-1.1308,0.0098,-0.0055,-0.0159,-0.0037,-0.79,0.93,-19.22,0,3.943,-0.098,-0.045,-0.201,0.019,-0.012,1.002,0.000,0.000,0.000,0.0110,2,0,0.00,0.00,0.00,0.0000,0.0000,0.0000,0.0000,0.0000,0.0000,0.0000,0.00,0.00,0.00,1.1240,0.0000,1.3790,1.1010,2.7060,0,0.0000,0.0000,0.0000,0.0000,0.0000,0
3458,0.1374,-1.1292,0.0103,0.0007,-0.0038,-0.0004,-0.84,0.92,-19.13,0,3.948,0.008,0.006,0.043,0.012,-0.015,1.001,0.000,0.000,0.000,0.0130,0,0,0.00,0.00,0.00,0.0000,0.0000,0.0000,0.0000,0.0000,0.0000,0.0000,0.00,0.00,0.00,1.1200,0.0000,1.3770,1.1080,2.6990,0,0.0000,0.0000,0.0000,0.0000,0.0000,0
3510,0.1368,-1.1307,0.0115,-0.0019,-0.0105,0.0059,-0.79,0.92,-19.04,0,3.943,0.052,0.030,0.171,0.016,-0.013,1.000,0.000,0.000,0.000,0.0120,0,5,0.00,0.00,0.00,0.0000,0.0000,0.0000,0.0000,0.0000,0.0000,0.0000,0.00,0.00,0.00,1.1200,0.0000,1.3770,1.1080,2.6990,0,0.0000,0.0000,0.0000,0.0000,0.0000,0
3562,0.1389,-1.1286,0.0120,0.0092,0.0022,0.0066,-0.91,0.92,-18.94,0,3.954,-0.323,0.186,0.192,0.020,-0.014,1.000,0.000,0.000,0.000,0.0100,-3,10,0.00,0.00,0.00,0.0000,0.0000,0.0000,0.0000,0.0000,0.0000,0.0000,0.00,0.00,0.00,1.1220,0.0000,1.3760,1.1080,2.7000,0,0.0000,0.0000,0.0000,0.0000,0.0000,0
3613,0.1404,-1.1293,0.0114,0.0172,-0.0030,0.0027,-0.91,0.89,-18.84,0,3.943,0.134,0.008,0.195,0.015,-0.015,0.997,0.000,0.000,0.000,0.0120,-9,0,0.00,0.00,0.00,0.0000,0.0000,0.0000,0.0000,0.0000,0.0000,0.0000,0.00,0.00,0.00,1.1220,0.0000,1.3760,1.1080,2.7000,0,0.0000,0.0000,0.0000,0.0000,0.0000,0
3664,0.1382,-1.1286,0.0121,0.0031,0.0006,0.0048,-0.94,0.91,-18.75,0,3.954,0.067,-0.001,0.129,0.018,-0.016,0.999,0.000,0.000,0.000,0.0100,-3,-9,0.00,0.00,0.00,0.0000,0.0000,0.0000,0.0000,0.0000,0.0000,0.0000,0.00,0.00,0.00,1.1280,0.0000,1.3780,1.1100,2.7030,0,0.0000,0.0000,0.0000,0.0000,0.0000,0
3715,0.1374,-1.1292,0.0114,-0.0018,-0.0032,0.0001,-0.84,0.86,-18.65,0,3.943,-0.154,-0.481,0.159,0.017,-0.014,0.998,0.000,0.000,0.000,0.0110,10,0,0.00,0.00,0.00,0.0000,0.0000,0.0000,0.0000,0.0000,0.0000,0.0000,0.00,0.00,0.00,1.1280,0.0000,1.3780,1.1100,2.7030,0,0.0000,0.0000,0.0000,0.0000,0.0000,0
3767,0.1388,-1.1295,0.0113,0.0058,-0.0037,0.0002,-0.74,0.89,-18.55,0,3.948,-0.124,0.066,0.181,0.016,-0.015,0.999,0.000,0.000,0.000,0.0130,0,0,0.00,0.00,0.00,0.0000,0.0000,0.0000,0.0000,0.0000,0.0000,0.0000,0.00,0.00,0.00,1.1180,0.0000,1.3790,1.1050,2.7050,0,0.0000,0.0000,0.0000,0.0000,0.0000,0
3818,0.1395,-1.1277,0.0122,0.0075,0.0059,0.0039,-0.91,0.90,-18.46,0,3.943,0.084,-0.413,-0.075,0.017,-0.015,0.999,0.000,0.000,0.000,0.0100,4,0,0.00,0.00,0.00,0.0000,0.0000,0.0000,0.0000,0.0000,0.0000,0.0000,0.00,0.00,0.00,1.1180,0.0000,1.3790,1.1050,2.7050,0,0.0000,0.0000,0.0000,0.0000,0.0000,0
3869,0.0000,0.0000,0.0499,0.0002,0.0033,-0.0000,0.02,-0.00,-0.00,0,3.948,-0.203,0.100,0.362,0.018,-0.014,0.999,0.000,0.000,0.000,0.0090,0,5,0.00,0.00,0.00,0.0000,0.0000,0.0000,0.0000,0.0000,0.0000,0.0000,0.00,0.00,0.00,1.1240,0.0000,1.3790,1.1100,2.7000,0,0.0000,0.0000,0.0000,0.0000,0.0000,0
3920,0.0002,-0.0001,0.0090,0.0090,-0.0039,0.0001,-0.07,0.16,0.01,0,3.938,-0.070,-0.014,-0.139,0.017,-0.016,0.999,0.000,0.000,0.000,0.0110,2,0,0.00,0.00,0.00,0.0000,0.0000,0.0000,0.0000,0.0000,0.0000,0.0000,0.00,0.00,0.00,1.1240,0.0000,1.3790,1.1100,2.7000,0,0.0000,0.0000,0.0000,0.0000,0.0000,0
3972,0.0003,-0.0000,0.0102,0.0100,-0.0050,0.0013,-0.10,0.13,0.01,0,3.948,0.092,-0.325,0.088,0.018,-0.014,0.999,0.000,0.000,0.000,0.0090,3,-2,0.00,0.00,0.00,0.0000,0.0000,0.0000,0.0000,0.0000,0.0000,0.0000,0.00,0.00,0.00,1.1280,0.0000,1.3770,1.1100,2.7020,0,0.0000,0.0000,0.0000,0.0000,0.0000,0
4023,0.0004,-0.0003,0.0098,0.0110,-0.0085,-0.0006,-0.10,0.20,0.01,0,3.943,-0.113,-0.281,-0.062,0.018,-0.015,1.001,0.000,0.000,0.000,0.0120,7,0,0.00,0.00,0.00,0.0000,0.0000,0.0000,0.0000,0.0000,0.0000,0.0000,0.00,0.00,0.00,1.1280,0.0000,1.3770,1.1100,2.7020,0,0.0000,0.0000,0.0000,0.0000,0.0000,0
4074,0.0006,0.0005,0.0108,0.0116,0.0010,0.0046,-0.27,0.44,0.01,0,3.948,-0.030,-0.196,-0.233,0.014,-0.015,0.999,0.000,0.000,0.000,0.0100,1,3,0.00,0.00,0.00,0.0000,0.0000,0.0000,0.0000,0.0000,0.0000,0.0000,0.00,0.00,0.00,1.1280,0.0000,1.3790,1.1050,2.6940,0,0.0000,0.0000,0.0000,0.0000,0.0000,0
4125,0.0014,-0.0001,0.0107,0.0164,-0.0055,0.0027,-0.49,0.56,0.01,0,3.943,0.085,0.070,0.086,0.019,-0.013,0.999,0.000,0.000,0.000,0.0120,-3,3,0.00,0.00,0.00,0.0000,0.0000,0.0000,0.0000,0.0000,0.0000,0.0000,0.00,0.00,0.00,1.1280,0.0000,1.3790,1.1050,2.6940,0,0.0000,0.0000,0.0000,0.0000,0.0000,0
4177,0.0010,-0.0001,0.0115,0.0116,-0.0058,0.0070,-0.68,0.71,0.01,0,3.948,0.109,-0.158,-0.190,0.016,-0.013,1.000,0.000,0.000,0.000,0.0090,4,0,0.00,0.00,0.00,0.0000,0.0000,0.0000,0.0000,0.0000,0.0000,0.0000,0.00,0.00,0.00,1.1260,0.0000,1.3800,1.1080,2.7050,0,0.0000,0.0000,0.0000,0.0000,0.0000,0
4228,0.0012,-0.0007,0.0107,0.0114,-0.0085,0.0008,-0.45,0.65,0.01,0,3.938,-0.183,-0.080,0.573,0.017,-0.014,0.999,0.000,0.000,0.000,0.0080,7,-1,0.00,0.00,0.00,0.0000,0.0000,0.0000,0.0000,0.0000,0.0000,0.0000,0.00,0.00,0.00,1.1260,0.0000,1.3800,1.1080,2.7050,0,0.0000,0.0000,0.0000,0.0000,0.0000,0
4279,0.0004,-0.0001,0.0094,0.0045,-0.0025,-0.0053,-0.51,0.76,0.01,0,3.954,-0.188,0.046,-0.034,0.017,-0.015,1.000,0.000,0.000,0.000,0.0120,3,0,0.00,0.00,0.00,0.0000,0.0000,0.0000,0.0000,0.0000,0.0000,0.0000,0.00,0.00,0.00,1.1160,0.0000,1.3720,1.1100,2.7070,0,0.0000,0.0000,0.0000,0.0000,0.0000,0
4329,0.0003,0.0005,0.0105,0.0039,0.0027,0.0011,-0.72,0.82,0.01,0,3.943,0.016,-0.053,0.136,0.015,-0.016,1.002,0.000,0.000,0.000,0.0120,0,0,0.00,0.00,0.00,0.0000,0.0000,0.0000,0.0000,0.0000,0.0000,0.0000,0.00,0.00,0.00,1.1160,0.0000,1.3720,1.1100,2.7070,0,0.0000,0.0000,0.0000,0.0000,0.0000,0
4381,0.0003,-0.0002,0.0113,0.0027,-0.0032,0.0049,-0.72,0.84,0.02,0,3.948,-0.138,-0.079,-0.319,0.020,-0.013,1.001,0.000,0.000,0.000,0.0110,7,0,0.00,0.00,0.00,0.0000,0.0000,0.0000,0.0000,0.0000,0.0000,0.0000,0.00,0.00,0.00,1.1180,0.0000,1.3750,1.1050,2.7110,0,0.0000,0.0000,0.0000,0.0000,0.0000,0
4431,0.0003,0.0016,0.0114,0.0034,0.0079,0.0045,-0.73,0.85,0.02,0,3.943,0.039,0.258,0.107,0.015,-0.013,1.000,0.000,0.000,0.000,0.0090,-4,1,0.00,0.00,0.00,0.0000,0.0000,0.0000,0.0000,0.0000,0.0000,0.0000,0.00,0.00,0.00,1.1180,0.0000,1.3750,1.1050,2.7110,0,0.0000,0.0000,0.0000,0.0000,0.0000,0
4483,0.0002,-0.0002,0.0105,0.0032,-0.0034,-0.0011,-0.81,0.87,0.02,0,3.948,0.407,0.414,-0.091,0.015,-0.012,1.002,0.000,0.000,0.000,0.0110,-3,0,0.00,0.00,0.00,0.0000,0.0000,0.0000,0.0000,0.0000,0.0000,0.0000,0.00,0.00,0.00,1.1200,0.0000,1.3810,1.1070,2.7080,0,0.0000,0.0000,0.0000,0.0000,0.0000,0
4534,-0.0000,-0.0002,0.0107,0.0012,-0.0034,0.0003,-0.78,0.88,0.02,0,3.938,0.012,0.369,0.098,0.019,-0.013,1.002,0.000,0.000,0.000,0.0110,3,0,0.00,0.00,0.00,0.0000,0.0000,0.0000,0.0000,0.0000,0.0000,0.0000,0.00,0.00,0.00,1.1200,0.0000,1.3810,1.1070,2.7080,0,0.0000,0.0000,0.0000,0.0000,0.0000,0
4585,-0.0000,0.0006,0.0109,0.0015,0.0008,0.0017,-0.74,0.88,0.02,0,3.948,-0.081,0.030,0.046,0.016,-0.015,1.000,0.000,0.000,0.000,0.0120,0,-1,0.00,0.00,0.00,0.0000,0.0000,0.0000,0.0000,0.0000,0.0000,0.0000,0.00,0.00,0.00,1.1260,0.0000,1.3750,1.1100,2.7070,0,0.0000,0.0000,0.0000,0.0000,0.0000,0
4636,-0.0003,-0.0002,0.0115,0.0004,-0.0039,0.0040,-0.75,0.88,0.02,0,3.943,-0.051,0.274,-0.060,0.017,-0.015,1.001,0.000,0.000,0.000,0.0130,2,0,0.00,0.00,0.00,0.0000,0.0000,0.0000,0.0000,0.0000,0.0000,0.0000,0.00,0.00,0.00,1.1260,0.0000,1.3750,1.1100,2.7070,0,0.0000,0.0000,0.0000,0.0000,0.0000,0
4687,-0.0000,0.0004,0.0124,0.0025,-0.0007,0.0076,-0.75,0.88,0.02,0,3.948,-0.132,0.230,-0.036,0.017,-0.016,0.998,0.000,0.000,0.000,0.0130,0,-1,0.00,0.00,0.00,0.0000,0.0000,0.0000,0.0000,0.0000,0.0000,0.0000,0.00,0.00,0.00,1.1130,0.0000,1.3780,1.1090,2.6990,0,0.0000,0.0000,0.0000,0.0000,0.0000,0
4739,-0.0001,-0.0002,0.0130,0.0019,-0.0042,0.0081,-0.76,0.87,0.02,0,3.943,-0.021,-0.232,-0.389,0.017,-0.014,0.999,0.000,0.000,0.000,0.0100,3,0,0.00,0.00,0.00,0.0000,0.0000,0.0000,0.0000,0.0000,0.0000,0.0000,0.00,0.00,0.00,1.1130,0.0000,1.3780,1.1090,2.6990,0,0.0000,0.0000,0.0000,0.0000,0.0000,0
4791,0.0002,0.0007,0.0119,0.0027,-0.0001,0.0019,-0.76,0.88,0.03,0,3.948,-0.112,0.105,-0.014,0.017,-0.014,1.001,0.000,0.000,0.000,0.0130,0,0,0.00,0.00,0.00,0.0000,0.0000,0.0000,0.0000,0.0000,0.0000,0.0000,0.00,0.00,0.00,1.1140,0.0000,1.3770,1.1080,2.7040,0,0.0000,0.0000,0.0000,0.0000,0.0000,0
4842,-0.0007,-0.0001,0.0125,-0.0015,-0.0035,0.0045,-0.77,0.92,0.03,0,3.938,0.018,-0.085,-0.186,0.017,-0.016,1.001,0.000,0.000,0.000,0.0130,-3,0,0.00,0.00,0.00,0.0000,0.0000,0.0000,0.0000,0.0000,0.0000,0.0000,0.00,0.00,0.00,1.1140,0.0000,1.3770,1.1080,2.7040,0,0.0000,0.0000,0.0000,0.0000,0.0000,0
4893,-0.0002,-0.0001,0.0130,0.0015,-0.0040,0.0060,-0.81,0.89,0.03,0,3.943,-0.096,0.033,0.016,0.016,-0.016,0.998,0.000,0.000,0.000,0.0080,1,0,0.00,0.00,0.00,0.0000,0.0000,0.0000,0.0000,0.0000,0.0000,0.0000,0.00,0.00,0.00,1.1260,0.0000,1.3810,1.1060,2.7010,0,0.0000,0.0000,0.0000,0.0000,0.0000,0
4944,0.0001,-0.0000,0.0108,0.0024,-0.0041,-0.0052,-0.77,0.89,0.03,0,3.943,0.074,-0.187,-0.332,0.016,-0.014,0.999,0.000,0.000,0.000,0.0130,0,0,0.00,0.00,0.00,0.0000,0.0000,0.0000,0.0000,0.0000,0.0000,0.0000,0.00,0.00,0.00,1.1260,0.0000,1.3810,1.1060,2.7010,0,0.0000,0.0000,0.0000,0.0000,0.0000,0
4996,0.0000,-0.0002,0.0117,0.0024,-0.0042,0.0003,-0.78,0.89,0.03,0,3.948,-0.277,0.095,0.190,0.016,-0.014,0.999,0.000,0.000,0.000,0.0130,0,0,0.00,0.00,0.00,0.0000,0.0000,0.0000,0.0000,0.0000,0.0000,0.0000,0.00,0.00,0.00,1.1200,0.0000,1.3740,1.1080,2.7020,0,0.0000,0.0000,0.0000,0.0000,0.0000,0
5047,-0.0002,-0.0003,0.0124,0.0011,-0.0043,0.0031,-0.78,0.90,0.03,0,3.938,0.027,0.254,0.071,0.017,-0.016,1.000,0.000,0.000,0.000,0.0110,2,3,0.00,0.00,0.00,0.0000,0.0000,0.0000,0.0000,0.0000,0.0000,0.0000,0.00,0.00,0.00,1.1200,0.0000,1.3740,1.1080,2.7020,0,0.0000,0.0000,0.0000,0.0000,0.0000,0
5098,0.0010,0.0002,0.0119,0.0064,-0.0014,0.0003,-0.78,0.89,0.03,0,3.479,0.308,0.460,0.771,0.012,-0.009,1.000,0.000,0.000,0.000,0.0100,0,1,0.00,0.00,0.00,0.0000,0.0000,0.0000,0.0000,0.0000,0.0000,0.0000,0.00,0.00,0.00,1.1320,0.0000,1.3780,1.1090,2.7040,0,0.0000,0.0000,0.0000,0.0000,0.0000,0
5149,0.0005,-0.0001,0.0110,0.0011,-0.0000,-0.0037,-0.81,0.87,0.04,0,3.547,-0.098,-0.739,2.172,0.014,-0.036,0.982,0.000,0.000,0.000,0.0070,2,0,0.00,0.00,0.00,0.0000,0.0000,0.0000,0.0000,0.0000,0.0000,0.0000,0.00,0.00,0.00,1.1320,0.0000,1.3780,1.1090,2.7040,0,0.0000,0.0000,0.0000,0.0000,0.0000,0
5201,-0.0011,0.0003,0.0089,-0.0124,0.0080,-0.0131,-0.80,0.92,0.03,0,3.595,-1.171,2.105,-0.187,0.006,-0.005,1.000,0.000,0.000,0.000,0.0100,-1,1,0.00,0.00,0.00,0.0000,0.0000,0.0000,0.0000,0.0000,0.0000,0.0000,0.00,0.00,0.00,1.1230,0.0000,1.3790,1.1100,2.7040,0,0.0000,0.0000,0.0000,0.0000,0.0000,0
5252,0.0005,-0.0003,0.0089,-0.0098,0.0098,-0.0113,-0.82,0.79,0.04,0,3.626,1.960,-1.795,-3.345,-0.023,0.001,0.998,0.000,0.000,0.000,0.0140,-1,-2,0.00,0.00,0.00,0.0000,0.0000,0.0000,0.0000,0.0000,0.0000,0.0000,0.00,0.00,0.00,1.1230,0.0000,1.3790,1.1100,2.7040,0,0.0000,0.0000,0.0000,0.0000,0.0000,0
5303,-0.0008,0.0011,0.0110,-0.0198,0.0204,0.0013,-0.76,0.86,0.11,0,3.642,6.673,-4.469,7.654,0.000,-0.023,1.002,0.000,0.000,0.000,0.0100,-4,0,0.00,0.00,0.00,0.0000,0.0000,0.0000,0.0000,0.0000,0.0000,0.0000,0.00,0.00,0.00,1.1150,0.0000,1.3770,1.1080,2.7030,0,0.0000,0.0000,0.0000,0.0000,0.0000,0
5354,0.0005,-0.0040,0.0109,-0.0168,-0.0010,0.0021,-0.48,0.87,0.54,0,3.642,8.239,-7.245,17.783,0.027,0.005,1.034,0.000,0.000,0.000,0.0120,-6,-1,0.00,0.00,0.00,0.0000,0.0000,0.0000,0.0000,0.0000,0.0000,0.0000,0.00,0.00,0.00,1.1150,0.0000,1.3770,1.1080,2.7030,0,0.0000,0.0000,0.0000,0.0000,0.0000,0
5406,0.0013,-0.0111,0.0115,-0.0153,-0.0304,0.0049,-0.37,0.65,1.82,0,3.642,0.170,3.068,7.730,0.004,-0.023,1.029,0.000,0.000,0.000,0.0110,-1,-1,0.00,0.00,0.00,0.0000,0.0000,0.0000,0.0000,0.0000,0.0000,0.0000,0.00,0.00,0.00,0.0000,0.0000,1.3580,1.0970,2.7070,0,0.0000,0.0000,0.0000,0.0000,0.0000,0
5457,0.0018,-0.0100,0.0115,-0.0144,-0.0160,0.0063,-0.52,0.45,2.34,0,3.632,-7.666,5.681,10.813,0.002,-0.026,1.003,0.000,0.000,0.000,0.0100,-16,-3,0.00,0.00,0.00,0.0000,0.0000,0.0000,0.0000,0.0000,0.0000,0.0000,0.00,0.00,0.00,0.0000,0.0000,1.3580,1.0970,2.7070,0,0.0000,0.0000,0.0000,0.0000,0.0000,0
5508,0.0067,-0.0031,0.0112,0.0063,0.0262,0.0034,-0.90,0.28,2.69,0,3.626,-4.747,6.743,9.840,0.012,-0.011,0.953,0.000,0.000,0.000,0.0100,-11,-3,0.00,0.00,0.00,0.0000,0.0000,0.0000,0.0000,0.0000,0.0000,0.0000,0.00,0.00,0.00,1.0650,0.0000,1.3580,1.0940,2.7010,0,0.0000,0.0000,0.0000,0.0000,0.0000,0
5560,0.0063,0.0146,0.0095,-0.0006,0.1092,-0.0092,-1.43,0.25,3.14,0,3.611,9.692,-11.556,3.051,0.018,-0.016,1.015,0.000,0.000,0.000,0.0110,-17,0,0.00,0.00,0.00,0.0000,0.0000,0.0000,0.0000,0.0000,0.0000,0.0000,0.00,0.00,0.00,1.0650,0.0000,1.3580,1.0940,2.7010,0,0.0000,0.0000,0.0000,0.0000,0.0000,0
5610,0.0048,0.0306,0.0081,-0.0118,0.1709,-0.0137,-1.59,0.59,3.34,0,3.611,1.336,-2.009,-0.789,0.002,-0.020,1.007,0.000,0.000,0.000,0.0110,-9,0,0.00,0.00,0.00,0.0000,0.0000,0.0000,0.0000,0.0000,0.0000,0.0000,0.00,0.00,0.00,1.0550,0.0000,1.3590,1.0880,2.6990,0,0.0000,0.0000,0.0000,0.0000,0.0000,0
5662,0.0050,0.0413,0.0088,-0.0123,0.1901,-0.0090,-1.48,0.59,3.41,0,3.600,0.693,-4.729,0.442,0.019,-0.015,0.958,0.000,0.000,0.000,0.0080,-7,0,0.00,0.00,0.00,0.0000,0.0000,0.0000,0.0000,0.0000,0.0000,0.0000,0.00,0.00,0.00,1.0550,0.0000,1.3590,1.0880,2.6990,0,0.0000,0.0000,0.0000,0.0000,0.0000,0
5713,0.0045,0.0504,0.0082,-0.0177,0.1999,-0.0128,-1.39,0.59,3.40,0,3.605,-0.961,-6.093,-11.367,0.017,-0.023,0.968,0.000,0.000,0.000,0.0120,3,4,0.00,0.00,0.00,0.0000,0.0000,0.0000,0.0000,0.0000,0.0000,0.0000,0.00,0.00,0.00,1.1190,0.0000,1.3580,1.0890,2.7040,0,0.0000,0.0000,0.0000,0.0000,0.0000,0
5764,0.0041,0.0523,0.0113,-0.0205,0.1685,0.0092,-0.93,0.66,3.01,0,3.589,7.625,2.501,-1.471,0.008,-0.009,1.005,0.000,0.000,0.000,0.0090,0,3,0.00,0.00,0.00,0.0000,0.0000,0.0000,0.0000,0.0000,0.0000,0.0000,0.00,0.00,0.00,1.1190,0.0000,1.3580,1.0890,2.7040,0,0.0000,0.0000,0.0000,0.0000,0.0000,0
5816,-0.0028,0.0582,0.0108,-0.0574,0.1639,0.0065,-0.69,0.91,2.84,0,3.595,2.127,5.884,0.300,0.012,-0.020,1.024,0.000,0.000,0.000,0.0140,0,-2,0.00,0.00,0.00,0.0000,0.0000,0.0000,0.0000,0.0000,0.0000,0.0000,0.00,0.00,0.00,1.1210,0.0000,1.3590,1.0950,2.7040,0,0.0000,0.0000,0.0000,0.0000,0.0000,0
5868,-0.0044,0.0588,0.0136,-0.0580,0.1310,0.0211,-0.17,0.82,2.90,0,3.579,18.743,3.159,-3.832,-0.004,-0.005,1.017,0.000,0.000,0.000,0.0080,0,-2,0.00,0.00,0.00,0.0000,0.0000,0.0000,0.0000,0.0000,0.0000,0.0000,0.00,0.00,0.00,1.1210,0.0000,1.3590,1.0950,2.7040,0,0.0000,0.0000,0.0000,0.0000,0.0000,0
5919,-0.0038,0.0571,0.0129,-0.0471,0.0910,0.0250,0.73,0.71,2.75,0,3.574,9.011,-1.377,-2.378,0.019,-0.008,0.990,0.000,0.000,0.000,0.0090,4,10,0.00,0.00,0.00,0.0000,0.0000,0.0000,0.0000,0.0000,0.0000,0.0000,0.00,0.00,0.00,1.1430,0.0000,1.3670,1.0870,2.7060,0,0.0000,0.0000,0.0000,0.0000,0.0000,0
5970,-0.0043,0.0535,0.0121,-0.0435,0.0448,0.0100,1.50,0.80,2.62,0,3.563,-6.062,1.984,-0.993,0.017,-0.010,1.014,0.000,0.000,0.000,0.0090,5,1,0.00,0.00,0.00,0.0000,0.0000,0.0000,0.0000,0.0000,0.0000,0.0000,0.00,0.00,0.00,1.1430,0.0000,1.3670,1.0870,2.7060,0,0.0000,0.0000,0.0000,0.0000,0.0000,0
6022,-0.0103,0.0463,0.0104,-0.0675,-0.0138,-0.0040,1.78,0.80,2.61,0,3.563,-5.581,9.232,3.169,0.005,0.000,0.986,0.000,0.000,0.000,0.0110,4,25,0.00,0.00,0.00,0.0000,0.0000,0.0000,0.0000,0.0000,0.0000,0.0000,0.00,0.00,0.00,1.1620,0.0000,1.3670,1.0830,2.7020,0,0.0000,0.0000,0.0000,0.0000,0.0000,0
6073,-0.0121,0.0415,0.0104,-0.0649,-0.0455,-0.0059,1.45,0.83,2.82,0,3.547,-2.370,-5.331,6.173,0.017,-0.005,1.035,0.000,0.000,0.000,0.0100,18,8,0.00,0.00,0.00,0.0000,0.0000,0.0000,0.0000,0.0000,0.0000,0.0000,0.00,0.00,0.00,1.1620,0.0000,1.3670,1.0830,2.7020,0,0.0000,0.0000,0.0000,0.0000,0.0000,0
6124,-0.0177,0.0312,0.0092,-0.0821,-0.0993,-0.0097,1.66,0.85,3.04,0,3.547,8.614,15.644,-0.353,0.010,-0.014,1.014,0.000,0.000,0.000,0.0120,25,6,0.00,0.00,0.00,0.0000,0.0000,0.0000,0.0000,0.0000,0.0000,0.0000,0.00,0.00,0.00,1.1080,0.0000,1.3610,1.0810,2.6970,0,0.0000,0.0000,0.0000,0.0000,0.0000,0
6176,-0.0192,0.0147,0.0089,-0.0740,-0.1709,0.0020,2.33,0.44,3.09,0,3.531,-17.135,42.545,-7.903,0.009,-0.004,1.028,0.000,0.000,0.000,0.0110,10,0,0.00,0.00,0.00,0.0000,0.0000,0.0000,0.0000,0.0000,0.0000,0.0000,0.00,0.00,0.00,1.1080,0.0000,1.3610,1.0810,2.6970,0,0.0000,0.0000,0.0000,0.0000,0.0000,0
6228,-0.0177,-0.0050,0.0079,-0.0490,-0.2427,0.0002,1.57,-1.51,2.83,0,3.537,-80.774,6.778,-15.262,0.000,-0.020,1.049,0.000,0.000,0.000,0.0130,35,4,0.00,0.00,0.00,0.0000,0.0000,0.0000,0.0000,0.0000,0.0000,0.0000,0.00,0.00,0.00,0.0000,0.0000,1.3640,1.0900,2.6980,0,0.0000,0.0000,0.0000,0.0000,0.0000,0
6279,-0.0158,-0.0172,0.0108,-0.0155,-0.2530,0.0341,-1.63,-2.32,2.19,0,3.521,-50.078,-7.630,-17.952,-0.002,-0.013,1.044,0.000,0.000,0.000,0.0030,0,2,0.00,0.00,0.00,0.0000,0.0000,0.0000,0.0000,0.0000,0.0000,0.0000,0.00,0.00,0.00,0.0000,0.0000,1.3640,1.0900,2.6980,0,0.0000,0.0000,0.0000,0.0000,0.0000,0
6330,-0.0101,-0.0281,0.0089,0.0354,-0.2286,0.0363,-4.49,-2.41,1.13,0,3.521,39.634,-8.876,-17.550,0.008,-0.026,1.042,0.000,0.000,0.000,0.0000,-36,-23,0.00,0.00,0.00,0.0000,0.0000,0.0000,0.0000,0.0000,0.0000,0.0000,0.00,0.00,0.00,0.3820,0.0000,1.3060,1.1140,2.7150,0,0.0000,0.0000,0.0000,0.0000,0.0000,0
6382,-0.0133,-0.0148,0.0084,0.0296,-0.0675,0.0453,-4.43,-1.90,0.03,0,3.494,55.672,-20.260,-9.529,-0.010,-0.025,1.015,0.000,0.000,0.000,0.0000,-17,5,0.00,0.00,0.00,0.0000,0.0000,0.0000,0.0000,0.0000,0.0000,0.0000,0.00,0.00,0.00,0.3820,0.0000,1.3060,1.1140,2.7150,0,0.0000,0.0000,0.0000,0.0000,0.0000,0
6433,-0.0005,0.0169,0.0007,0.0996,0.1370,0.0085,-2.85,-1.00,-0.71,0,3.489,46.855,-8.678,-7.272,0.007,-0.020,1.039,0.000,0.000,0.000,0.0000,-13,-10,0.00,0.00,0.00,0.0000,0.0000,0.0000,0.0000,0.0000,0.0000,0.0000,0.00,0.00,0.00,1.2320,0.0000,1.3660,1.1240,2.6960,0,0.0000,0.0000,0.0000,0.0000,0.0000,0
6484,0.0070,0.0416,-0.0038,0.1236,0.2468,0.0023,-0.91,-0.95,-1.24,0,3.473,54.455,-20.562,-5.910,-0.007,-0.020,1.091,0.000,0.000,0.000,0.0020,-16,-6,0.00,0.00,0.00,0.0000,0.0000,0.0000,0.0000,0.0000,0.0000,0.0000,0.00,0.00,0.00,1.2320,0.0000,1.3660,1.1240,2.6960,0,0.0000,0.0000,0.0000,0.0000,0.0000,0
6535,0.0160,0.0599,-0.0024,0.1452,0.2853,0.0376,1.58,0.05,-1.56,0,3.484,59.003,-34.361,0.391,0.002,-0.020,1.064,0.000,0.000,0.000,0.0120,-10,16,0.00,0.00,0.00,0.0000,0.0000,0.0000,0.0000,0.0000,0.0000,0.0000,0.00,0.00,0.00,1.2970,0.0000,1.3990,1.1160,2.6850,0,0.0000,0.0000,0.0000,0.0000,0.0000,0
6587,0.0193,0.0730,0.0078,0.1206,0.2634,0.1081,4.57,2.07,-1.73,0,3.489,5.737,-16.182,1.141,-0.006,-0.014,1.043,0.000,0.000,0.000,0.0230,-9,29,0.00,0.00,0.00,0.0000,0.0000,0.0000,0.0000,0.0000,0.0000,0.0000,0.00,0.00,0.00,1.2970,0.0000,1.3990,1.1160,2.6850,0,0.0000,0.0000,0.0000,0.0000,0.0000,0
6639,0.0103,0.0791,0.0209,0.0248,0.1881,0.1697,5.42,3.77,-1.74,0,3.505,-7.627,41.997,3.685,-0.007,-0.015,1.007,0.000,0.000,0.000,0.0370,0,5,0.00,0.00,0.00,0.0000,0.0000,0.0000,0.0000,0.0000,0.0000,0.0000,0.00,0.00,0.00,1.3940,0.0000,1.4390,1.0880,2.6800,0,0.0000,0.0000,0.0000,0.0000,0.0000,0
6689,-0.0037,0.0829,0.0347,-0.0811,0.1149,0.2047,5.33,2.42,-1.45,0,3.484,-7.613,41.197,0.154,0.011,-0.001,0.992,0.000,0.000,0.000,0.0510,15,13,0.00,0.00,0.00,0.0000,0.0000,0.0000,0.0000,0.0000,0.0000,0.0000,0.00,0.00,0.00,1.3940,0.0000,1.4390,1.0880,2.6800,0,0.0000,0.0000,0.0000,0.0000,0.0000,0
6741,-0.0080,0.0766,0.0498,-0.1007,0.0115,0.2315,5.58,0.39,-1.31,0,3.510,-38.515,31.732,2.959,-0.000,-0.006,0.974,0.000,0.000,0.000,0.0620,10,4,0.00,0.00,0.00,0.0000,0.0000,0.0000,0.0000,0.0000,0.0000,0.0000,0.00,0.00,0.00,1.3610,0.0000,1.4440,1.1120,2.6570,0,0.0000,0.0000,0.0000,0.0000,0.0000,0
6792,-0.0119,0.0659,0.0638,-0.0978,-0.0864,0.2359,4.15,-1.29,-1.17,0,3.494,-39.970,-12.491,3.137,0.011,-0.008,0.999,0.000,0.000,0.000,0.0730,9,0,0.00,0.00,0.00,0.0000,0.0000,0.0000,0.0000,0.0000,0.0000,0.0000,0.00,0.00,0.00,1.3610,0.0000,1.4440,1.1120,2.6570,0,0.0000,0.0000,0.0000,0.0000,0.0000,0
6842,-0.0139,0.0562,0.0759,-0.0751,-0.1440,0.2322,2.09,-1.21,-1.07,0,3.516,-33.792,6.106,1.904,0.006,0.000,0.972,0.000,0.000,0.000,0.0830,15,2,0.00,0.00,0.00,0.0000,0.0000,0.0000,0.0000,0.0000,0.0000,0.0000,0.00,0.00,0.00,1.3170,0.0000,1.4270,1.1150,2.6280,0,0.0000,0.0000,0.0000,0.0000,0.0000,0
6893,-0.0136,0.0468,0.0884,-0.0443,-0.1698,0.2236,0.38,-1.55,-1.02,0,3.489,-29.207,11.469,2.219,-0.009,0.001,0.969,0.000,0.000,0.000,0.0940,8,0,0.00,0.00,0.00,0.0000,0.0000,0.0000,0.0000,0.0000,0.0000,0.0000,0.00,0.00,0.00,1.3170,0.0000,1.4270,1.1150,2.6280,0,0.0000,0.0000,0.0000,0.0000,0.0000,0
6945,-0.0141,0.0373,0.0987,-0.0240,-0.1768,0.2061,-1.06,-2.04,-0.97,0,3.500,-12.803,-4.597,2.044,0.003,-0.001,0.975,0.000,0.000,0.000,0.1030,10,1,0.00,0.00,0.00,0.0000,0.0000,0.0000,0.0000,0.0000,0.3000,0.2807,-5.31,-1.99,29.18,1.3230,0.0000,1.4200,1.1060,2.6110,0,0.0000,0.0000,0.0000,0.0000,0.0000,0
6996,-0.0150,0.0288,0.1087,-0.0085,-0.1683,0.1915,-1.75,-1.91,-0.86,0,3.468,0.401,-33.002,3.442,0.006,-0.003,0.952,0.000,0.000,0.000,0.1070,10,-5,-1.06,2.04,-0.97,-0.0141,0.0373,0.1030,0.0000,0.0000,0.3000,0.2804,-5.51,-1.37,25.71,1.3230,0.0000,1.4200,1.1060,2.6110,0,0.0000,0.0000,0.0000,0.0000,0.0000,0
7048,-0.0152,0.0228,0.1145,0.0057,-0.1448,0.1551,-1.87,-0.58,-0.69,0,3.436,-14.511,-6.487,3.018,-0.005,-0.005,0.961,0.000,0.000,0.000,0.1170,2,0,-0.46,3.41,-0.79,-0.0034,0.0163,0.1052,0.0000,0.0000,0.3000,0.2832,-4.82,-0.74,20.59,1.3430,0.0000,1.4270,1.0860,2.5930,0,0.0000,0.0000,0.0000,0.0000,0.0000,0
7099,-0.0147,0.0165,0.1215,0.0110,-0.1259,0.1327,-2.60,-0.05,-0.53,0,3.421,-5.622,7.885,2.687,-0.003,-0.002,0.983,0.000,0.000,0.000,0.1210,3,-7,-4.99,5.35,-0.33,-0.0043,0.0138,0.1280,0.0000,0.0000,0.3000,0.2843,-4.40,-0.48,15.90,1.3430,0.0000,1.4270,1.0860,2.5930,0,0.0000,0.0000,0.0000,0.0000,0.0000,0
7150,-0.0139,0.0105,0.1257,0.0126,-0.1065,0.1085,-2.99,-0.48,-0.41,0,3.426,3.115,-11.582,1.788,0.007,-0.005,0.996,0.000,0.000,0.000,0.1290,1,-2,-5.26,-0.08,-0.29,0.0025,0.0104,0.1309,0.0000,0.0000,0.3000,0.2861,-3.92,-0.36,12.42,1.3710,0.0000,1.4300,1.0650,2.5830,0,0.0000,0.0000,0.0000,0.0000,0.0000,0
7202,-0.0112,0.0066,0.1315,0.0245,-0.0775,0.1047,-2.89,-0.12,-0.31,0,3.415,8.412,-5.145,-0.080,-0.001,-0.013,1.000,0.000,0.000,0.000,0.1300,0,-3,-5.16,1.50,-0.17,0.0056,0.0093,0.1345,0.0000,0.0000,0.3000,0.2855,-2.92,0.33,9.31,1.3710,0.0000,1.4300,1.0650,2.5830,0,0.0000,0.0000,0.0000,0.0000,0.0000,0
7254,-0.0064,0.0046,0.1344,0.0421,-0.0478,0.0914,-2.41,0.07,-0.24,0,3.410,9.890,3.495,0.056,0.002,-0.010,1.014,0.000,0.000,0.000,0.1320,-1,-1,-4.49,1.48,-0.13,0.0094,0.0095,0.1351,0.0000,0.0000,0.3000,0.2864,-1.76,1.40,7.21,1.3790,0.0000,1.4410,1.0550,2.5750,0,0.0000,0.0000,0.0000,0.0000,0.0000,0
7305,-0.0029,0.0037,0.1372,0.0478,-0.0225,0.0860,-1.94,-0.08,-0.23,0,3.399,9.398,-8.865,-0.589,0.002,-0.010,1.022,0.000,0.000,0.000,0.1330,0,0,-3.77,1.69,-0.15,0.0108,0.0110,0.1365,0.0000,0.0000,0.3000,0.2864,-0.73,1.87,6.94,1.3790,0.0000,1.4410,1.0550,2.5750,0,0.0000,0.0000,0.0000,0.0000,0.0000,0
7356,-0.0027,0.0037,0.1384,0.0386,-0.0029,0.0786,-1.49,0.29,-0.24,0,3.394,12.324,-4.567,-0.456,0.000,-0.012,1.025,0.000,0.000,0.000,0.1390,-4,-4,-3.28,2.15,-0.16,0.0120,0.0141,0.1379,0.0000,0.0000,0.3000,0.2870,0.11,1.49,7.29,1.3690,0.0000,1.4530,1.0640,2.5730,0,0.0000,0.0000,0.0000,0.0000,0.0000,0
7408,-0.0002,0.0009,0.1422,0.0397,-0.0027,0.0879,-0.79,0.50,-0.23,0,3.384,10.493,0.914,-0.384,0.004,-0.015,1.030,0.000,0.000,0.000,0.1430,0,-1,-2.21,1.66,-0.16,0.0169,0.0159,0.1430,0.0000,0.0000,0.3000,0.2853,-0.06,1.71,6.98,1.3690,0.0000,1.4530,1.0640,2.5730,0,0.0000,0.0000,0.0000,0.0000,0.0000,0
7459,0.0041,0.0034,0.1460,0.0450,0.0142,0.0968,-0.30,0.43,-0.23,0,3.405,7.168,-3.350,-0.862,0.004,-0.014,1.033,0.000,0.000,0.000,0.1490,-2,0,-1.30,1.65,-0.16,0.0183,0.0175,0.1474,0.0000,0.0000,0.3000,0.2837,0.84,2.23,6.80,1.3890,0.0000,1.4670,1.0610,2.5610,0,0.0000,0.0000,0.0000,0.0000,0.0000,0
7511,0.0080,0.0055,0.1516,0.0485,0.0227,0.1134,-0.03,0.49,-0.23,0,3.399,8.525,-1.345,-0.567,0.002,-0.013,1.037,0.000,0.000,0.000,0.1510,-9,-1,-0.96,1.93,-0.17,0.0185,0.0207,0.1535,0.0000,0.0000,0.3000,0.2808,1.37,2.66,7.04,1.3890,0.0000,1.4670,1.0610,2.5610,0,0.0000,0.0000,0.0000,0.0000,0.0000,0
7563,0.0096,0.0066,0.1557,0.0414,0.0224,0.1220,0.29,0.59,-0.26,0,3.415,6.178,2.065,-0.908,0.004,-0.008,1.038,0.000,0.000,0.000,0.1600,0,1,-1.50,1.84,-0.29,0.0196,0.0320,0.1591,0.0000,0.0000,0.3000,0.2791,1.44,2.47,7.73,1.4000,0.0000,1.4630,1.0640,2.5460,0,0.0000,0.0000,0.0000,0.0000,0.0000,0
7614,0.0117,0.0115,0.1631,0.0370,0.0334,0.1442,0.48,0.52,-0.28,0,3.405,4.486,0.529,-0.354,0.004,-0.011,1.028,0.000,0.000,0.000,0.1700,-2,-2,-0.58,1.84,-0.28,0.0179,0.0339,0.1690,0.0000,0.0000,0.3000,0.2753,2.28,2.45,8.40,1.4000,0.0000,1.4630,1.0640,2.5460,0,0.0000,0.0000,0.0000,0.0000,0.0000,0
7665,0.0127,0.0146,0.1719,0.0298,0.0348,0.1659,0.75,0.48,-0.29,0,3.405,4.382,1.956,-0.570,0.005,-0.011,1.017,0.000,0.000,0.000,0.1770,0,3,-0.25,1.48,-0.50,0.0202,0.0376,0.1781,0.0000,0.0000,0.3000,0.2713,2.59,2.22,8.70,1.4150,0.0000,1.4760,1.0710,2.5220,0,0.0000,0.0000,0.0000,0.0000,0.0000,0
7717,0.0137,0.0169,0.1813,0.0241,0.0307,0.1804,0.99,0.48,-0.30,0,3.389,2.930,4.314,0.159,0.000,-0.006,1.006,0.000,0.000,0.000,0.1830,0,-1,0.23,1.68,-0.29,0.0152,0.0383,0.1868,0.0000,0.0000,0.3000,0.2680,2.59,2.06,9.12,1.4150,0.0000,1.4760,1.0710,2.5220,0,0.0000,0.0000,0.0000,0.0000,0.0000,0
7768,0.0147,0.0189,0.1888,0.0198,0.0248,0.1777,1.05,0.25,-0.27,0,3.399,0.806,0.644,1.443,0.002,-0.015,1.000,0.000,0.000,0.000,0.1960,3,3,0.53,1.19,-0.50,0.0166,0.0381,0.1949,0.0000,0.0000,0.3000,0.2669,2.46,1.94,8.25,1.4230,0.0000,1.4800,1.0700,2.5110,0,0.0000,0.0000,0.0000,0.0000,0.0000,0
7819,0.0149,0.0178,0.1994,0.0147,0.0082,0.1868,1.15,0.25,-0.23,0,3.384,-1.690,-2.820,1.432,0.004,-0.010,0.991,0.000,0.000,0.000,0.2060,2,2,0.90,1.36,-0.20,0.0109,0.0331,0.2035,0.0000,0.0000,0.3000,0.2639,1.64,1.73,6.82,1.4230,0.0000,1.4800,1.0700,2.5110,0,0.0000,0.0000,0.0000,0.0000,0.0000,0
7870,0.0179,0.0086,0.2092,0.0208,-0.0329,0.1869,1.15,0.24,-0.19,0,3.384,-10.806,1.621,0.350,0.005,-0.011,0.988,0.000,0.000,0.000,0.2210,1,3,0.92,1.54,-0.08,0.0065,0.0292,0.2125,0.0000,0.0000,0.3000,0.2620,-0.94,2.25,5.66,1.4350,0.0000,1.4790,1.0630,2.4900,0,0.0000,0.0000,0.0000,0.0000,0.0000,0
7921,0.0180,0.0063,0.2222,0.0163,-0.0438,0.1988,0.67,0.20,-0.17,0,3.378,-5.877,0.309,-0.072,0.009,-0.011,0.977,0.000,0.000,0.000,0.2290,3,-4,0.33,1.55,0.05,-0.0002,0.0270,0.2234,0.0000,0.0000,0.3000,0.2583,-1.64,2.07,5.14,1.4350,0.0000,1.4790,1.0630,2.4900,0,0.0049,0.0299,0.0000,0.0049,0.0299,0
7972,0.0180,0.0068,0.2324,0.0122,-0.0403,0.1925,0.16,0.11,-0.20,0,3.389,-3.310,0.190,-1.112,0.006,-0.010,0.972,0.000,0.000,0.000,0.2410,1,0,0.15,1.03,-0.57,0.0071,0.0205,0.2343,0.0000,0.0000,0.3000,0.2571,-1.44,1.88,6.08,1.4490,0.0000,1.4780,1.0600,2.4730,0,0.0049,0.0299,0.0000,0.0049,0.0299,0
8024,0.0241,0.0025,0.2439,0.0285,-0.0487,0.1892,0.03,0.07,-0.26,0,3.357,-3.812,-1.609,-1.553,0.003,-0.007,0.965,0.000,0.000,0.000,0.2360,1,-2,-0.08,0.96,-0.71,0.0065,0.0177,0.2445,0.0000,0.0000,0.3000,0.2552,-2.17,3.13,7.72,1.4490,0.0000,1.4780,1.0600,2.4730,0,0.0049,0.0299,0.0000,0.0049,0.0299,0
8075,0.0246,0.0014,0.2466,0.0252,-0.0451,0.1433,-0.14,0.15,-0.34,0,3.368,-6.409,-1.713,-0.937,0.004,-0.009,0.972,0.000,0.000,0.000,0.2580,0,1,-0.34,0.83,-1.06,0.0112,0.0154,0.2492,0.0000,0.0000,0.3000,0.2597,-2.04,2.96,10.22,1.4570,0.0000,1.4750,1.0600,2.4570,0,0.0049,0.0299,0.0000,0.0049,0.0299,0
8126,0.0267,0.0004,0.2575,0.0263,-0.0401,0.1452,-0.42,0.31,-0.39,0,3.347,-3.549,0.904,-0.843,0.002,-0.009,0.976,0.000,0.000,0.000,0.2460,2,-2,-0.77,0.98,-1.07,0.0086,0.0150,0.2583,0.0000,0.0000,0.3000,0.2574,-1.90,3.19,11.63,1.4570,0.0000,1.4750,1.0600,2.4570,0,0.0049,0.0299,0.0000,0.0049,0.0299,0
8178,0.0260,0.0012,0.2569,0.0181,-0.0290,0.0961,-0.57,0.26,-0.42,0,3.357,1.166,-0.454,-1.869,0.004,-0.006,0.992,0.000,0.000,0.000,0.2550,-2,-1,-0.89,0.76,-1.27,0.0137,0.0102,0.2605,0.0000,0.0000,0.3000,0.2629,-1.28,2.68,12.72,1.4590,0.0000,1.4770,1.0600,2.4410,0,0.0049,0.0299,0.0000,0.0049,0.0299,0
8229,0.0248,0.0011,0.2597,0.0101,-0.0206,0.0791,-0.60,0.25,-0.48,0,3.373,0.317,0.706,-1.806,0.005,-0.008,1.006,0.000,0.000,0.000,0.2620,1,-1,-1.04,0.72,-1.51,0.0164,0.0155,0.2641,0.0000,0.0000,0.3000,0.2642,-0.89,2.22,14.34,1.4590,0.0000,1.4770,1.0600,2.4410,0,0.0049,0.0299,0.0000,0.0049,0.0299,0
8280,0.0275,0.0026,0.2636,0.0144,-0.0090,0.0777,-0.61,0.19,-0.56,0,3.378,4.884,2.342,-1.546,0.005,-0.008,1.015,0.000,0.000,0.000,0.2670,6,-3,-0.98,0.64,-1.62,0.0188,0.0129,0.2686,0.0000,0.0000,0.3000,0.2636,-0.24,2.62,16.83,1.4700,0.0000,1.4780,1.0580,2.4340,0,0.0049,0.0299,0.0000,0.0049,0.0299,0
8332,0.0264,0.0042,0.2684,0.0080,0.0011,0.0867,-0.40,0.11,-0.65,0,3.362,5.201,1.144,-0.438,0.005,-0.007,1.012,0.000,0.000,0.000,0.2670,-2,1,-0.41,0.37,-1.64,0.0264,-0.0031,0.2735,0.0000,0.0000,0.3000,0.2617,0.35,2.25,19.36,1.4700,0.0000,1.4780,1.0580,2.4340,0,0.0049,0.0299,0.0000,0.0049,0.0299,0
8383,0.0295,-0.0063,0.2710,0.0140,-0.0224,0.0850,-0.09,0.04,-0.70,0,3.389,-6.148,-2.895,-0.775,0.004,-0.009,1.014,0.000,0.000,0.000,0.2790,0,0,-0.34,0.41,-1.72,0.0236,0.0028,0.2779,0.0000,0.0000,0.3000,0.2614,-1.50,2.76,21.14,1.4750,0.0000,1.4810,1.0630,2.4220,0,0.0049,0.0299,0.0000,0.0049,0.0299,0
8434,0.0287,-0.0042,0.2783,0.0097,-0.0137,0.1050,-0.27,0.16,-0.74,0,3.384,0.264,3.578,-0.244,0.006,-0.007,1.014,0.000,0.000,0.000,0.2830,0,1,-0.66,0.56,-1.75,0.0246,0.0006,0.2841,0.0000,0.0000,0.3000,0.2579,-0.96,2.54,22.20,1.4750,0.0000,1.4810,1.0630,2.4220,0,0.0049,0.0299,0.0000,0.0049,0.0299,0
8486,0.0292,-0.0048,0.2844,0.0084,-0.0110,0.1149,-0.34,0.01,-0.74,0,3.389,4.709,2.561,-0.455,0.003,-0.009,0.999,0.000,0.000,0.000,0.2910,-3,-1,-0.74,0.50,-1.75,0.0190,0.0045,0.2903,0.0000,0.0000,0.3000,0.2556,-0.88,2.53,22.29,1.4760,0.0000,1.4850,1.0670,2.4170,0,0.0049,0.0299,0.0000,0.0049,0.0299,0
8537,0.0275,-0.0001,0.2922,0.0034,0.0047,0.1273,-0.29,-0.10,-0.75,0,3.373,2.657,0.509,0.045,0.011,-0.010,0.992,0.000,0.000,0.000,0.2950,-1,1,-0.63,0.32,-1.90,0.0211,0.0107,0.2967,0.0000,0.0000,0.3000,0.2528,0.23,2.19,22.62,1.4760,0.0000,1.4850,1.0670,2.4170,0,0.0049,0.0299,0.0000,0.0049,0.0299,0
8588,0.0278,0.0021,0.2987,0.0047,0.0110,0.1246,-0.17,-0.14,-0.77,0,3.373,2.137,1.498,0.712,0.004,-0.013,0.985,0.000,0.000,0.000,0.3050,-3,0,-0.52,0.33,-1.89,0.0189,0.0133,0.3021,0.0000,0.0000,0.3000,0.2519,0.70,2.28,23.05,1.4860,0.0000,1.4820,1.0720,2.4060,0,0.0049,0.0299,0.0000,0.0049,0.0299,0
8639,0.0267,0.0048,0.3066,0.0030,0.0170,0.1259,-0.09,-0.21,-0.75,0,3.373,5.225,1.291,0.008,0.005,-0.007,0.979,0.000,0.000,0.000,0.3110,-1,-1,-0.52,0.25,-1.95,0.0190,0.0209,0.3085,0.0000,0.0000,0.3000,0.2503,1.20,2.13,22.58,1.4860,0.0000,1.4820,1.0720,2.4060,0,0.0049,0.0299,0.0000,0.0049,0.0299,0
8691,0.0265,0.0104,0.3136,0.0038,0.0280,0.1208,0.12,-0.29,-0.74,0,3.368,4.543,-1.841,0.117,0.006,-0.013,0.969,0.000,0.000,0.000,0.3100,-1,-1,-0.26,0.14,-1.99,0.0217,0.0238,0.3145,0.0000,0.0000,0.3000,0.2495,2.17,2.16,22.10,1.5010,0.0000,1.4840,1.0800,2.3890,0,0.0049,0.0299,0.0000,0.0049,0.0299,0
8742,0.0256,0.0131,0.3165,0.0036,0.0297,0.0951,0.34,-0.26,-0.73,0,3.347,1.824,-1.564,0.599,0.003,-0.015,0.975,0.000,0.000,0.000,0.3230,0,0,-0.04,0.20,-2.02,0.0246,0.0267,0.3175,0.0000,0.0000,0.3000,0.2517,2.43,2.07,22.00,1.5010,0.0000,1.4840,1.0800,2.3890,0,0.0049,0.0299,0.0000,0.0049,0.0299,0
8793,0.0267,0.0147,0.3232,0.0074,0.0267,0.0935,0.51,-0.25,-0.73,0,3.347,4.006,0.877,-0.450,0.008,-0.013,0.974,0.000,0.000,0.000,0.3240,0,0,0.06,0.28,-1.99,0.0255,0.0289,0.3228,0.0000,0.0000,0.3000,0.2506,2.41,2.35,21.83,1.5090,0.0000,1.4910,1.0870,2.3860,0,0.0049,0.0299,0.0000,0.0049,0.0299,0
8845,0.0268,0.0219,0.3271,0.0088,0.0352,0.0787,0.59,-0.21,-0.73,0,3.341,2.882,-2.600,0.030,0.002,-0.011,0.977,0.000,0.000,0.000,0.3240,-1,-2,0.26,0.23,-2.01,0.0264,0.0307,0.3265,0.0000,0.0000,0.3000,0.2515,3.35,2.42,22.00,1.5090,0.0000,1.4910,1.0870,2.3860,0,0.0049,0.0299,0.0000,0.0049,0.0299,0
8896,0.0265,0.0259,0.3285,0.0085,0.0350,0.0556,0.72,-0.08,-0.73,0,3.357,0.528,-1.530,-0.490,0.005,-0.011,0.983,0.000,0.000,0.000,0.3270,0,0,0.43,0.30,-2.05,0.0325,0.0304,0.3283,0.0000,0.0000,0.3000,0.2537,3.60,2.36,21.81,1.5220,0.0000,1.4880,1.0880,2.3800,0,0.0049,0.0299,0.0000,0.0049,0.0299,0
8947,0.0279,0.0278,0.3298,0.0107,0.0294,0.0406,0.78,0.05,-0.75,0,3.347,1.424,-1.497,-0.617,0.003,-0.006,0.998,0.000,0.000,0.000,0.3320,0,0,0.46,0.38,-2.08,0.0343,0.0310,0.3300,0.0000,0.0000,0.3000,0.2551,3.45,2.55,22.56,1.5220,0.0000,1.4880,1.0880,2.3800,0,0.0049,0.0299,0.0000,0.0049,0.0299,0
8998,0.0284,0.0291,0.3324,0.0101,0.0224,0.0402,0.87,0.08,-0.76,0,3.368,-1.332,-2.718,0.076,0.004,-0.004,0.998,0.000,0.000,0.000,0.3370,0,-1,0.53,0.46,-2.11,0.0360,0.0313,0.3326,0.0000,0.0000,0.3000,0.2546,3.21,2.57,22.92,1.5310,0.0000,1.4880,1.0860,2.3680,0,0.0049,0.0299,0.0000,0.0049,0.0299,0
9050,0.0289,0.0300,0.3362,0.0091,0.0148,0.0471,0.88,0.14,-0.74,0,3.352,-1.368,-0.289,0.655,0.003,-0.003,1.002,0.000,0.000,0.000,0.3390,0,0,0.46,0.61,-2.08,0.0361,0.0313,0.3361,0.0000,0.0000,0.3000,0.2532,2.93,2.58,22.35,1.5310,0.0000,1.4880,1.0860,2.3680,0,0.0049,0.0299,0.0000,0.0049,0.0299,0
9102,0.0304,0.0304,0.3395,0.0098,0.0072,0.0516,0.77,0.15,-0.73,0,3.362,-2.020,-1.175,1.828,0.008,-0.004,0.994,0.000,0.000,0.000,0.3390,0,1,0.39,0.63,-2.05,0.0372,0.0310,0.3393,0.0000,0.0000,0.3000,0.2521,2.60,2.73,22.04,1.5350,0.0000,1.4930,1.0830,2.3660,0,0.0049,0.0299,0.0000,0.0049,0.0299,0
9153,0.0316,0.0300,0.3412,0.0096,-0.0002,0.0444,0.68,0.27,-0.73,0,3.341,-6.637,1.668,0.270,0.004,-0.004,0.990,0.000,0.000,0.000,0.3380,0,1,0.27,0.75,-1.87,0.0340,0.0314,0.3415,0.0000,0.0000,0.3000,0.2525,2.20,2.80,21.76,1.5350,0.0000,1.4930,1.0830,2.3660,0,0.0049,0.0299,0.0000,0.0049,0.0299,0
9204,0.0292,0.0266,0.3414,0.0022,-0.0115,0.0308,0.45,0.30,-0.71,0,3.362,-3.876,2.212,-0.553,0.006,-0.006,0.993,0.000,0.000,0.000,0.3420,0,0,-0.07,0.69,-1.82,0.0323,0.0312,0.3423,0.0000,0.0000,0.3000,0.2539,1.39,2.25,21.43,1.5400,0.0000,1.4860,1.0780,2.3610,0,0.0049,0.0299,0.0000,0.0049,0.0299,0
9255,0.0287,0.0217,0.3428,-0.0012,-0.0228,0.0262,0.31,0.18,-0.73,0,3.347,-2.084,1.695,-0.454,0.007,-0.010,0.997,0.000,0.000,0.000,0.3440,0,2,-0.27,0.58,-1.85,0.0316,0.0305,0.3438,0.0000,0.0000,0.3000,0.2542,0.48,2.05,21.97,1.5400,0.0000,1.4860,1.0780,2.3610,0,0.0049,0.0299,0.0000,0.0049,0.0299,0
9307,0.0272,0.0201,0.3444,-0.0051,-0.0260,0.0259,0.16,0.16,-0.71,0,3.352,-6.407,1.075,0.015,0.007,-0.008,1.000,0.000,0.000,0.000,0.3440,0,0,-0.39,0.56,-1.80,0.0258,0.0314,0.3454,0.0000,0.0000,0.3000,0.2539,0.21,1.75,21.38,1.5350,0.0000,1.4870,1.0790,2.3630,0,0.0049,0.0299,0.0000,0.0049,0.0299,0
9358,0.0239,0.0082,0.3452,-0.0116,-0.0460,0.0222,0.07,0.14,-0.71,0,3.347,-0.201,3.409,0.468,0.003,-0.006,0.995,0.000,0.000,0.000,0.3460,0,1,-0.73,0.50,-1.80,0.0239,0.0310,0.3465,0.0000,0.0000,0.3000,0.2541,-1.63,1.19,21.19,1.5350,0.0000,1.4870,1.0790,2.3630,0,0.0049,0.0299,0.0000,0.0049,0.0299,0
9409,0.0250,0.0023,0.3465,-0.0096,-0.0525,0.0218,-0.10,0.00,-0.70,0,3.341,-5.943,2.256,0.009,0.005,-0.010,1.000,0.000,0.000,0.000,0.3410,-1,-1,-0.75,0.32,-1.79,0.0225,0.0314,0.3477,0.0000,0.0000,0.3000,0.2539,-2.38,1.37,20.92,1.5400,0.0000,1.4910,1.0730,2.3560,0,0.0049,0.0299,0.0000,0.0049,0.0299,0
9460,0.0193,0.0012,0.3446,-0.0182,-0.0488,0.0071,-0.44,-0.11,-0.67,0,3.315,-2.356,2.545,1.146,0.004,-0.010,1.000,0.000,0.000,0.000,0.3450,0,0,-1.07,0.17,-1.84,0.0236,0.0332,0.3469,0.0000,0.0000,0.3000,0.2559,-2.27,0.53,20.12,1.5400,0.0000,1.4910,1.0730,2.3560,0,0.0049,0.0299,0.0000,0.0049,0.0299,0
9511,0.0203,0.0020,0.3451,-0.0142,-0.0396,0.0076,-0.66,-0.17,-0.63,0,3.315,0.714,0.396,0.598,0.009,-0.008,0.998,0.000,0.000,0.000,0.3420,0,0,-1.19,0.04,-1.78,0.0224,0.0338,0.3473,0.0000,0.0000,0.3000,0.2557,-1.76,0.80,18.85,1.5320,0.0000,1.4940,1.0700,2.3490,0,0.0049,0.0299,0.0000,0.0049,0.0299,0
9563,0.0210,-0.0006,0.3439,-0.0103,-0.0354,-0.0012,-0.61,-0.21,-0.60,0,3.310,0.897,-2.544,-0.308,0.008,-0.008,1.004,0.000,0.000,0.000,0.3480,0,1,-1.16,0.02,-1.75,0.0213,0.0347,0.3465,0.0000,0.0000,0.3000,0.2569,-1.74,1.04,18.05,1.5320,0.0000,1.4940,1.0700,2.3490,0,0.0049,0.0299,0.0000,0.0049,0.0299,0
9614,0.0204,-0.0057,0.3458,-0.0088,-0.0360,0.0083,-0.50,-0.11,-0.63,0,3.320,3.682,-2.513,-0.608,0.003,-0.008,1.004,0.000,0.000,0.000,0.3430,0,0,-1.07,0.16,-1.72,0.0194,0.0319,0.3478,0.0000,0.0000,0.3000,0.2555,-2.15,1.07,18.90,1.5410,0.0000,1.4950,1.0650,2.3610,0,0.0049,0.0299,0.0000,0.0049,0.0299,0
9665,0.0196,-0.0048,0.3448,-0.0083,-0.0277,0.0019,-0.39,-0.02,-0.66,0,3.336,-0.779,0.601,-0.426,0.003,-0.010,1.009,0.000,0.000,0.000,0.3450,0,0,-0.88,0.29,-1.75,0.0184,0.0326,0.3472,0.0000,0.0000,0.3000,0.2564,-1.68,1.03,19.90,1.5410,0.0000,1.4950,1.0650,2.3610,0,0.0049,0.0299,0.0000,0.0049,0.0299,0
9716,0.0196,-0.0030,0.3450,-0.0076,-0.0193,0.0053,-0.40,0.00,-0.70,0,3.352,0.704,0.199,0.048,0.004,-0.011,1.019,0.000,0.000,0.000,0.3440,0,0,-0.92,0.26,-1.77,0.0173,0.0334,0.3475,0.0000,0.0000,0.3000,0.2560,-1.14,1.07,20.90,1.5370,0.0000,1.4970,1.0630,2.3520,0,0.0049,0.0299,0.0000,0.0049,0.0299,0
9767,0.0211,-0.0049,0.3449,-0.0045,-0.0174,0.0100,-0.37,0.01,-0.71,0,3.347,5.482,-0.963,-0.745,0.007,-0.010,1.012,0.000,0.000,0.000,0.3450,0,0,-0.88,0.25,-1.77,0.0163,0.0343,0.3477,0.0000,0.0000,0.3000,0.2555,-1.19,1.33,21.43,1.5370,0.0000,1.4970,1.0630,2.3520,0,0.0049,0.0299,0.0000,0.0049,0.0299,0
9819,0.0208,-0.0059,0.3456,-0.0046,-0.0148,0.0177,-0.18,0.04,-0.75,0,3.362,0.970,-1.695,-1.143,0.001,-0.012,1.009,0.000,0.000,0.000,0.3480,-2,0,-0.60,0.30,-1.81,0.0153,0.0355,0.3484,0.0000,0.0000,0.3000,0.2545,-1.14,1.30,22.37,1.5340,0.0000,1.4950,1.0660,2.3570,0,0.0049,0.0299,0.0000,0.0049,0.0299,0
9870,0.0204,-0.0054,0.3476,-0.0055,-0.0114,0.0278,-0.10,0.13,-0.78,0,3.347,-1.227,2.167,-0.163,0.005,-0.007,1.004,0.000,0.000,0.000,0.3480,1,1,-0.57,0.34,-1.88,0.0195,0.0381,0.3499,0.0000,0.0000,0.3000,0.2530,-0.94,1.24,23.52,1.5340,0.0000,1.4950,1.0660,2.3570,0,0.0049,0.0299,0.0000,0.0049,0.0299,0
9929,0.0209,-0.0023,0.3487,-0.0050,-0.0051,0.0308,-0.09,0.06,-0.79,0,3.352,3.450,1.481,0.238,0.004,-0.012,1.000,0.000,0.000,0.000,0.3490,0,1,-0.62,0.24,-1.87,0.0184,0.0385,0.3513,0.0000,0.0000,0.3000,0.2525,-0.41,1.31,23.76,1.5380,0.0000,1.5000,1.0690,2.3510,0,0.0049,0.0299,0.0000,0.0049,0.0299,0
9980,0.0179,-0.0024,0.3500,-0.0100,-0.0042,0.0301,0.01,-0.03,-0.78,0,3.336,0.199,2.612,0.702,-0.000,-0.010,0.997,0.000,0.000,0.000,0.3530,0,0,-0.41,0.16,-1.85,0.0170,0.0392,0.3522,0.0000,0.0000,0.3000,0.2523,-0.37,0.85,23.28,1.5380,0.0000,1.5000,1.0690,2.3510,0,0.0049,0.0299,0.0000,0.0049,0.0299,0
10031,0.0154,-0.0032,0.3525,-0.0131,-0.0051,0.0341,0.08,-0.16,-0.75,0,3.341,-5.223,2.565,2.026,0.005,-0.011,0.993,0.000,0.000,0.000,0.3530,1,0,-0.40,0.03,-1.82,0.0163,0.0401,0.3539,0.0000,0.0000,0.3000,0.2514,-0.48,0.51,22.61,1.5340,0.0000,1.4990,1.0660,2.3500,0,0.0049,0.0299,0.0000,0.0049,0.0299,0
10083,0.0127,-0.0014,0.3539,-0.0151,-0.0023,0.0298,-0.10,-0.27,-0.70,0,3.320,0.262,1.827,1.065,0.006,-0.006,0.991,0.000,0.000,0.000,0.3530,0,0,-0.62,-0.11,-1.67,0.0165,0.0373,0.3550,0.0000,0.0000,0.3000,0.2516,-0.21,0.21,20.88,1.5340,0.0000,1.4990,1.0660,2.3500,0,0.0049,0.0299,0.0000,0.0049,0.0299,0
10134,0.0154,-0.0034,0.3545,-0.0073,-0.0045,0.0222,-0.16,-0.40,-0.61,0,3.331,-0.062,0.627,2.443,0.007,-0.012,0.991,0.000,0.000,0.000,0.3560,-1,0,-0.60,-0.21,-1.62,0.0163,0.0373,0.3554,0.0000,0.0000,0.3000,0.2523,-0.47,0.80,18.43,1.5390,0.0000,1.5050,1.0670,2.3420,0,0.0049,0.0299,0.0000,0.0049,0.0299,0
10185,0.0156,-0.0020,0.3560,-0.0031,-0.0005,0.0204,-0.17,-0.45,-0.51,0,3.310,0.732,-1.898,2.532,0.004,-0.007,0.995,0.000,0.000,0.000,0.3570,0,0,-0.64,-0.24,-1.53,0.0163,0.0402,0.3563,0.0000,0.0000,0.3000,0.2522,-0.16,1.01,15.29,1.5390,0.0000,1.5050,1.0670,2.3420,0,0.0049,0.0299,0.0000,0.0049,0.0299,0
10236,0.0170,-0.0033,0.3571,0.0032,-0.0015,0.0182,-0.17,-0.42,-0.40,0,3.315,1.728,-2.971,1.438,0.003,-0.010,0.995,0.000,0.000,0.000,0.3590,1,0,-0.60,-0.15,-1.40,0.0166,0.0409,0.3572,0.0000,0.0000,0.3000,0.2522,-0.31,1.42,12.09,1.5430,0.0000,1.5050,1.0670,2.3410,0,0.0049,0.0299,0.0000,0.0049,0.0299,0
10288,0.0189,-0.0007,0.3587,0.0094,0.0042,0.0189,-0.13,-0.30,-0.30,0,3.289,1.166,-2.899,2.909,0.002,-0.010,0.993,0.000,0.000,0.000,0.3580,0,0,-0.47,0.01,-1.27,0.0162,0.0374,0.3583,0.0000,0.0000,0.3000,0.2519,0.16,1.87,9.11,1.5430,0.0000,1.5050,1.0670,2.3410,0,0.0049,0.0299,0.0000,0.0049,0.0299,0
10339,0.0221,-0.0050,0.3590,0.0162,-0.0019,0.0128,-0.14,-0.14,-0.19,0,3.315,-0.979,-3.286,1.449,0.005,-0.009,0.996,0.000,0.000,0.000,0.3600,-1,-1,-0.41,0.16,-1.11,0.0165,0.0371,0.3587,0.0000,0.0000,0.3000,0.2525,-0.45,2.43,5.68,1.5470,0.0000,1.5080,1.0630,2.3380,0,0.0049,0.0299,0.0000,0.0049,0.0299,0
10390,0.0220,-0.0065,0.3599,0.0159,-0.0031,0.0102,-0.19,0.03,-0.09,0,3.310,-0.603,-1.732,1.887,0.003,-0.012,1.001,0.000,0.000,0.000,0.3580,0,-2,-0.50,0.30,-1.09,0.0195,0.0405,0.3594,0.0000,0.0000,0.3000,0.2526,-0.62,2.42,2.80,1.5470,0.0000,1.5080,1.0630,2.3380,0,0.0049,0.0299,0.0000,0.0049,0.0299,0
10441,0.0236,-0.0048,0.3593,0.0168,0.0012,0.0051,-0.21,0.12,-0.02,0,3.336,-0.574,-2.208,1.746,0.005,-0.010,1.004,0.000,0.000,0.000,0.3620,0,0,-0.52,0.36,-1.01,0.0236,0.0406,0.3593,0.0000,0.0000,0.3000,0.2532,-0.29,2.57,0.65,1.5460,0.0000,1.5110,1.0580,2.3430,0,0.0049,0.0299,0.0000,0.0049,0.0299,0
10492,0.0253,-0.0034,0.3608,0.0170,0.0053,0.0123,-0.21,0.22,0.04,0,3.336,-1.443,-0.697,1.278,0.006,-0.008,1.014,0.000,0.000,0.000,0.3620,0,-1,-0.55,0.47,-0.92,0.0252,0.0410,0.3606,0.0000,0.0000,0.3000,0.2522,0.02,2.71,-1.25,1.5460,0.0000,1.5110,1.0580,2.3430,0,0.0049,0.0299,0.0000,0.0049,0.0299,0
10544,0.0278,-0.0062,0.3619,0.0177,0.0019,0.0190,-0.20,0.26,0.10,0,3.347,0.990,-0.037,1.324,0.001,-0.009,1.012,0.000,0.000,0.000,0.3610,0,0,-0.62,0.50,-0.85,0.0273,0.0406,0.3620,0.0000,0.0000,0.3000,0.2512,-0.36,2.94,-3.04,1.5480,0.0000,1.5100,1.0520,2.3310,0,0.0049,0.0299,0.0000,0.0049,0.0299,0
10595,0.0311,-0.0077,0.3624,0.0196,0.0008,0.0232,-0.17,0.18,0.17,0,3.326,0.172,0.078,2.150,0.005,-0.013,1.005,0.000,0.000,0.000,0.3600,0,0,-0.57,0.50,-0.78,0.0287,0.0409,0.3629,0.0000,0.0000,0.3000,0.2507,-0.53,3.28,-5.24,1.5480,0.0000,1.5100,1.0520,2.3310,0,0.0049,0.0299,0.0000,0.0049,0.0299,0
10647,0.0374,-0.0080,0.3622,0.0269,0.0017,0.0205,-0.15,0.11,0.29,0,3.331,-2.409,-1.485,2.500,0.002,-0.007,1.008,0.000,0.000,0.000,0.3610,0,-1,-0.56,0.50,-0.67,0.0300,0.0411,0.3634,0.0000,0.0000,0.3000,0.2510,-0.49,4.10,-8.55,1.5500,0.0000,1.5150,1.0550,2.3420,0,0.0049,0.0299,0.0000,0.0049,0.0299,0
10698,0.0373,-0.0075,0.3626,0.0234,0.0036,0.0198,-0.25,0.20,0.40,0,3.315,1.010,-1.076,1.677,0.003,-0.005,1.003,0.000,0.000,0.000,0.3620,0,0,-0.68,0.57,-0.53,0.0313,0.0404,0.3641,0.0000,0.0000,0.3000,0.2510,-0.37,3.92,-11.91,1.5500,0.0000,1.5150,1.0550,2.3420,0,0.0049,0.0299,0.0000,0.0049,0.0299,0
10749,0.0397,-0.0074,0.3630,0.0238,0.0055,0.0193,-0.22,0.23,0.50,0,3.331,0.459,-0.732,2.203,0.006,-0.009,1.005,0.000,0.000,0.000,0.3640,0,0,-0.63,0.63,-0.45,0.0323,0.0407,0.3648,0.0000,0.0000,0.3000,0.2510,-0.27,4.12,-14.88,1.5520,0.0000,1.5120,1.0460,2.3280,0,0.0049,0.0299,0.0000,0.0049,0.0299,0
10801,0.0413,-0.0061,0.3643,0.0226,0.0089,0.0207,-0.18,0.25,0.58,0,3.315,0.675,1.545,0.643,0.002,-0.004,0.998,0.000,0.000,0.000,0.3640,0,0,-0.61,0.66,-0.33,0.0332,0.0410,0.3660,0.0000,0.0000,0.3000,0.2506,-0.00,4.19,-17.50,1.5520,0.0000,1.5120,1.0460,2.3280,0,0.0049,0.0299,0.0000,0.0049,0.0299,0
10852,0.0424,-0.0056,0.3649,0.0205,0.0104,0.0190,-0.13,0.20,0.63,0,3.341,0.948,1.147,1.680,0.007,-0.007,1.002,0.000,0.000,0.000,0.3680,0,0,-0.57,0.58,-0.30,0.0338,0.0415,0.3667,0.0000,0.0000,0.3000,0.2506,0.11,4.16,-18.85,1.5570,0.0000,1.5160,1.0520,2.3300,0,0.0049,0.0299,0.0000,0.0049,0.0299,0
10903,0.0429,-0.0037,0.3671,0.0179,0.0139,0.0239,-0.09,0.17,0.68,0,3.326,0.388,0.557,1.226,0.005,-0.010,1.001,0.000,0.000,0.000,0.3670,2,0,-0.53,0.52,-0.21,0.0343,0.0421,0.3684,0.0000,0.0000,0.3000,0.2497,0.42,4.09,-20.41,1.5570,0.0000,1.5160,1.0520,2.3300,0,0.0049,0.0299,0.0000,0.0049,0.0299,0
10955,0.0415,-0.0034,0.3679,0.0127,0.0139,0.0226,-0.03,0.18,0.73,0,3.331,1.958,-0.074,0.973,0.001,-0.015,0.996,0.000,0.000,0.000,0.3710,1,0,-0.44,0.51,-0.13,0.0327,0.0333,0.3694,0.0000,0.0000,0.3000,0.2497,0.44,3.73,-21.94,1.5620,0.0000,1.5170,1.0480,2.3280,0,0.0049,0.0299,0.0000,0.0049,0.0299,0
11007,0.0410,-0.0045,0.3702,0.0094,0.0115,0.0273,-0.01,0.19,0.80,0,3.320,-1.336,0.728,0.310,0.005,-0.009,0.984,0.000,0.000,0.000,0.3690,0,1,-0.33,0.51,-0.08,0.0326,0.0314,0.3712,0.0000,0.0000,0.3000,0.2487,0.25,3.54,-24.08,1.5620,0.0000,1.5170,1.0480,2.3280,0,0.0049,0.0299,0.0000,0.0049,0.0299,0
11059,0.0405,-0.0072,0.3705,0.0064,0.0062,0.0181,0.04,0.18,0.84,0,3.326,1.541,-2.588,0.231,0.004,-0.010,0.987,0.000,0.000,0.000,0.3710,3,0,-0.41,0.48,-0.06,0.0313,0.0303,0.3714,0.0000,0.0000,0.3000,0.2497,-0.22,3.35,-25.19,1.5560,0.0000,1.5210,1.0490,2.3300,0,0.0049,0.0299,0.0000,0.0049,0.0299,0
11110,0.0380,-0.0031,0.3713,0.0002,0.0123,0.0111,0.18,0.27,0.84,0,3.299,0.971,-0.973,-1.033,0.005,-0.009,0.987,0.000,0.000,0.000,0.3700,0,0,-0.29,0.62,-0.04,0.0309,0.0253,0.3716,0.0000,0.0000,0.3000,0.2503,0.38,2.85,-25.29,1.5560,0.0000,1.5210,1.0490,2.3300,0,0.0049,0.0299,0.0000,0.0049,0.0299,0
11161,0.0360,-0.0050,0.3709,-0.0051,0.0071,-0.0000,0.27,0.32,0.83,0,3.304,-2.229,2.043,-0.146,0.005,-0.011,0.989,0.000,0.000,0.000,0.3690,0,0,-0.24,0.67,-0.09,0.0302,0.0228,0.3712,0.0000,0.0000,0.3000,0.2515,-0.01,2.43,-24.99,1.5610,0.0000,1.5250,1.0520,2.3230,0,0.0049,0.0299,0.0000,0.0049,0.0299,0
11213,0.0365,-0.0090,0.3698,-0.0065,-0.0025,-0.0120,0.26,0.19,0.81,0,3.257,-1.654,2.675,-0.931,0.002,-0.010,0.986,0.000,0.000,0.000,0.3710,0,1,-0.35,0.56,-0.10,0.0293,0.0201,0.3702,0.0000,0.0000,0.3000,0.2530,-0.78,2.38,-24.24,1.5610,0.0000,1.5250,1.0520,2.3230,0,0.0049,0.0299,0.0000,0.0049,0.0299,0
11264,0.0335,-0.0082,0.3698,-0.0124,-0.0029,-0.0152,0.19,0.04,0.79,0,3.273,-3.446,3.130,1.093,0.002,-0.009,0.985,0.000,0.000,0.000,0.3700,1,0,-0.51,0.43,-0.16,0.0278,0.0253,0.3699,0.0000,0.0000,0.3000,0.2534,-0.74,1.88,-23.68,1.5540,0.0000,1.5310,1.0460,2.3280,0,0.0049,0.0299,0.0000,0.0049,0.0299,0
11315,0.0317,-0.0084,0.3691,-0.0145,-0.0045,-0.0219,0.14,-0.09,0.83,0,3.241,-0.876,0.097,1.293,0.003,-0.010,0.993,0.000,0.000,0.000,0.3680,0,0,-0.68,0.26,-0.10,0.0270,0.0232,0.3689,0.0000,0.0000,0.3000,0.2542,-0.83,1.64,-24.86,1.5540,0.0000,1.5310,1.0460,2.3280,0,0.0049,0.0299,0.0000,0.0049,0.0299,0
11366,0.0312,-0.0105,0.3677,-0.0135,-0.0088,-0.0288,0.05,-0.19,0.90,0,3.257,-1.162,2.739,0.741,0.004,-0.012,0.992,0.000,0.000,0.000,0.3670,1,0,-0.72,0.26,-0.04,0.0258,0.0219,0.3674,0.0000,0.0000,0.3000,0.2552,-1.19,1.64,-26.94,1.5590,0.0000,1.5300,1.0440,2.3260,0,0.0049,0.0299,0.0000,0.0049,0.0299,0
11418,0.0301,-0.0115,0.3661,-0.0126,-0.0102,-0.0336,-0.08,-0.31,0.96,0,3.236,-2.448,1.411,0.946,0.008,-0.009,1.000,0.000,0.000,0.000,0.3660,0,0,-0.77,0.10,-0.00,0.0266,0.0197,0.3658,0.0000,0.0000,0.3000,0.2561,-1.32,1.60,-28.81,1.5590,0.0000,1.5300,1.0440,2.3260,0,0.0049,0.0299,0.0000,0.0049,0.0299,0
11470,0.0268,-0.0141,0.3648,-0.0147,-0.0130,-0.0311,-0.21,-0.34,1.00,0,3.252,-1.152,-0.943,-0.334,0.005,-0.010,1.006,0.000,0.000,0.000,0.3640,1,0,-0.90,0.02,0.05,0.0259,0.0183,0.3644,0.0000,0.0000,0.3000,0.2560,-1.64,1.26,-30.03,1.5570,0.0000,1.5200,1.0370,2.3380,0,0.0049,0.0299,0.0000,0.0049,0.0299,0
11522,0.0269,-0.0178,0.3632,-0.0105,-0.0167,-0.0294,-0.25,-0.33,1.01,0,3.257,-1.612,0.573,0.910,0.005,-0.011,1.011,0.000,0.000,0.000,0.3590,0,1,-0.95,0.07,0.03,0.0264,0.0160,0.3630,0.0000,0.0000,0.3000,0.2561,-2.09,1.47,-30.21,1.5570,0.0000,1.5200,1.0370,2.3380,0,0.0049,0.0299,0.0000,0.0049,0.0299,0
11573,0.0254,-0.0185,0.3602,-0.0092,-0.0142,-0.0332,-0.35,-0.37,1.02,0,3.252,-1.242,0.293,0.373,0.006,-0.007,1.017,0.000,0.000,0.000,0.3590,0,0,-1.04,0.05,0.08,0.0244,0.0153,0.3607,0.2778,-0.0057,0.3000,0.2571,-5.20,-17.89,-30.73,1.5610,0.0000,1.5310,1.0390,2.3400,0,0.0049,0.0299,0.0000,0.0049,0.0299,0
11625,0.0243,-0.0198,0.3584,-0.0072,-0.0121,-0.0278,-0.43,-0.40,1.06,0,3.283,-1.365,1.266,0.124,0.004,-0.009,1.025,0.000,0.000,0.000,0.3580,1,0,-1.10,0.03,0.09,0.0239,0.0145,0.3594,0.2778,-0.0057,0.3000,0.2569,-5.19,-17.89,-31.70,1.5610,0.0000,1.5310,1.0390,2.3400,0,0.0049,0.0299,0.0000,0.0049,0.0299,0
11676,0.0241,-0.0214,0.3575,-0.0036,-0.0104,-0.0157,-0.43,-0.39,1.07,0,3.283,1.840,-1.911,0.297,0.003,-0.015,1.023,0.000,0.000,0.000,0.3580,0,0,-1.15,-0.04,0.12,0.0243,0.0115,0.3588,0.2778,-0.0057,0.3000,0.2557,-5.25,-17.83,-31.97,1.5570,0.0000,1.5210,1.0450,2.3420,0,0.0049,0.0299,0.0000,0.0049,0.0299,0
11728,0.0258,-0.0216,0.3574,0.0029,-0.0060,-0.0019,-0.36,-0.33,1.08,0,3.294,-0.352,-2.998,0.358,0.004,-0.013,1.021,0.000,0.000,0.000,0.3610,0,-1,-1.06,0.06,0.14,0.0242,0.0105,0.3589,0.2778,-0.0057,0.3000,0.2542,-5.08,-17.53,-32.40,1.5570,0.0000,1.5210,1.0450,2.3420,0,0.0049,0.0299,0.0000,0.0049,0.0299,0
11780,0.0262,-0.0199,0.3593,0.0060,0.0007,0.0174,-0.35,-0.20,1.09,0,3.289,2.871,-3.177,-0.067,0.005,-0.011,1.010,0.000,0.000,0.000,0.3600,0,0,-1.09,0.19,0.16,0.0277,0.0113,0.3605,0.2778,-0.0057,0.3000,0.2518,-4.69,-17.54,-32.57,1.5560,0.0000,1.5280,1.0470,2.3380,0,0.0049,0.0299,0.0000,0.0049,0.0299,0
11831,0.0277,-0.0209,0.3605,0.0096,0.0018,0.0253,-0.18,-0.04,1.07,0,3.315,-0.058,-1.458,0.176,0.005,-0.013,0.995,0.000,0.000,0.000,0.3580,0,0,-0.94,0.35,0.16,0.0285,0.0110,0.3615,0.2778,-0.0057,0.3000,0.2507,-4.73,-17.35,-32.12,1.5560,0.0000,1.5280,1.0470,2.3380,0,0.0049,0.0299,0.0000,0.0049,0.0299,0
11882,0.0304,-0.0198,0.3603,0.0139,0.0052,0.0187,-0.08,0.00,1.06,0,3.320,3.062,-2.456,-0.666,0.005,-0.007,1.006,0.000,0.000,0.000,0.3610,0,0,-0.94,0.43,0.17,0.0291,0.0109,0.3615,0.2778,-0.0057,0.3000,0.2515,-4.46,-16.93,-31.77,1.5610,0.0000,1.5340,1.0430,2.3340,0,0.0049,0.0299,0.0000,0.0049,0.0299,0
11933,0.0299,-0.0197,0.3614,0.0117,0.0055,0.0201,-0.04,0.12,1.02,0,3.262,-1.475,-2.311,-0.254,0.005,-0.008,0.996,0.000,0.000,0.000,0.3620,-2,-1,-0.79,0.55,0.14,0.0298,0.0109,0.3624,0.2778,-0.0057,0.3000,0.2511,-4.44,-17.08,-30.59,1.5610,0.0000,1.5340,1.0430,2.3340,0,0.0049,0.0299,0.0000,0.0049,0.0299,0
11985,0.0306,-0.0188,0.3625,0.0108,0.0068,0.0226,0.00,0.22,0.97,0,3.267,1.195,-0.278,-0.957,0.003,-0.011,0.984,0.000,0.000,0.000,0.3620,0,0,-0.91,0.66,0.10,0.0320,0.0180,0.3632,0.2778,-0.0057,0.3000,0.2506,-4.32,-17.11,-29.11,1.5630,0.0000,1.5280,1.0450,2.3400,0,0.0049,0.0299,0.0000,0.0049,0.0299,0
12036,0.0322,-0.0156,0.3630,0.0108,0.0117,0.0149,0.04,0.24,0.92,0,3.246,2.366,1.295,-0.223,0.002,-0.007,0.983,0.000,0.000,0.000,0.3600,0,0,-0.85,0.68,0.05,0.0326,0.0196,0.3634,0.2778,-0.0057,0.3000,0.2513,-3.84,-16.96,-27.68,1.5630,0.0000,1.5280,1.0450,2.3400,0,0.0049,0.0299,0.0000,0.0049,0.0299,0
12088,0.0343,-0.0156,0.3620,0.0117,0.0102,-0.0003,0.13,0.19,0.88,0,3.262,3.155,-2.097,-1.454,0.005,-0.008,0.983,0.000,0.000,0.000,0.3650,0,-1,-0.72,0.61,0.04,0.0329,0.0214,0.3623,0.2778,-0.0057,0.3000,0.2532,-3.89,-16.66,-26.32,1.5500,0.0000,1.5280,1.0430,2.3270,0,0.0049,0.0299,0.0000,0.0049,0.0299,0
12139,0.0345,-0.0139,0.3632,0.0096,0.0113,-0.0015,0.19,0.21,0.81,0,3.262,-0.348,-0.751,-0.793,0.003,-0.008,0.990,0.000,0.000,0.000,0.3590,0,0,-0.52,0.70,-0.02,0.0355,0.0187,0.3628,0.2778,-0.0057,0.3000,0.2531,-3.70,-16.76,-24.33,1.5500,0.0000,1.5280,1.0430,2.3270,0,0.0049,0.0299,0.0000,0.0049,0.0299,0
12190,0.0357,-0.0129,0.3610,0.0092,0.0106,-0.0159,0.22,0.22,0.74,0,3.267,-0.536,-2.518,-1.773,0.006,-0.005,1.004,0.000,0.000,0.000,0.3620,0,-1,-0.54,0.74,-0.06,0.0361,0.0195,0.3609,0.2778,-0.0057,0.3000,0.2550,-3.64,-16.58,-22.27,1.5550,0.0000,1.5280,1.0420,2.3340,0,0.0049,0.0299,0.0000,0.0355,0.0186,0
12241,0.0340,-0.0125,0.3607,0.0035,0.0086,-0.0151,0.25,0.27,0.65,0,3.252,0.729,0.359,-2.088,0.006,-0.010,1.001,0.000,0.000,0.000,0.3630,0,0,-0.55,0.85,-0.15,0.0383,0.0192,0.3605,0.2778,-0.0057,0.3000,0.2550,-3.71,-16.95,-19.45,1.5550,0.0000,1.5280,1.0420,2.3340,0,0.0049,0.0299,0.0000,0.0355,0.0186,0
12293,0.0367,-0.0133,0.3613,0.0058,0.0043,-0.0089,0.30,0.26,0.55,0,3.252,-1.890,0.290,-1.376,0.005,-0.010,0.997,0.000,0.000,0.000,0.3600,0,0,-0.51,0.83,-0.26,0.0389,0.0199,0.3606,0.2778,-0.0057,0.3000,0.2542,-3.98,-16.71,-16.57,1.5540,0.0000,1.5250,1.0520,2.3380,0,0.0049,0.0299,0.0000,0.0355,0.0186,0
12344,0.0336,-0.0127,0.3603,-0.0023,0.0024,-0.0121,0.20,0.22,0.47,0,3.230,-2.259,2.197,-0.412,0.004,-0.007,1.000,0.000,0.000,0.000,0.3590,2,1,-0.61,0.82,-0.33,0.0392,0.0206,0.3598,0.2778,-0.0057,0.3000,0.2547,-4.03,-17.26,-14.15,1.5540,0.0000,1.5250,1.0520,2.3380,0,0.0049,0.0299,0.0000,0.0355,0.0186,0
12395,0.0322,-0.0138,0.3592,-0.0063,-0.0012,-0.0148,0.14,0.17,0.42,0,3.294,0.757,0.873,-1.503,0.008,-0.007,1.011,0.000,0.000,0.000,0.3590,2,0,-0.66,0.73,-0.38,0.0358,0.0128,0.3589,0.2778,-0.0057,0.3000,0.2552,-4.27,-17.49,-12.64,1.5470,0.0000,1.5230,1.0480,2.3340,0,0.0049,0.0299,0.0000,0.0355,0.0186,0
12447,0.0294,-0.0179,0.3585,-0.0117,-0.0090,-0.0132,0.21,0.07,0.35,0,3.252,-2.659,1.712,-0.341,0.008,-0.011,1.010,0.000,0.000,0.000,0.3550,0,-1,-0.60,0.69,-0.47,0.0353,0.0095,0.3585,0.2778,-0.0057,0.3000,0.2552,-4.94,-17.92,-10.48,1.5470,0.0000,1.5230,1.0480,2.3340,0,0.0049,0.0299,0.0000,0.0355,0.0186,0
12498,0.0253,-0.0203,0.3565,-0.0186,-0.0136,-0.0149,0.01,-0.01,0.32,0,3.230,-3.249,3.629,-0.118,0.003,-0.006,0.999,0.000,0.000,0.000,0.3530,0,0,-0.74,0.58,-0.48,0.0364,0.0086,0.3572,0.2778,-0.0057,0.3000,0.2558,-5.33,-18.46,-9.63,1.5510,0.0000,1.5210,1.0480,2.3450,0,0.0049,0.0299,0.0000,0.0355,0.0186,0
12549,0.0260,-0.0191,0.3543,-0.0160,-0.0106,-0.0205,-0.15,-0.12,0.32,0,3.241,2.952,5.029,-0.469,0.005,-0.007,0.994,0.000,0.000,0.000,0.3570,0,1,-0.91,0.40,-0.49,0.0358,0.0073,0.3555,0.2778,-0.0057,0.3000,0.2568,-5.07,-18.24,-9.68,1.5510,0.0000,1.5210,1.0480,2.3450,0,0.0049,0.0299,0.0000,0.0355,0.0186,0
12601,0.0239,-0.0230,0.3548,-0.0171,-0.0153,-0.0157,-0.06,-0.23,0.32,0,3.252,-0.921,0.780,-0.153,-0.000,-0.012,1.001,0.000,0.000,0.000,0.3540,1,0,-0.77,0.16,-0.52,0.0331,0.0081,0.3553,0.2778,-0.0057,0.3000,0.2562,-5.60,-18.46,-9.64,1.5360,0.0000,1.5270,1.0450,2.3450,0,0.0049,0.0299,0.0000,0.0355,0.0186,0
12653,0.0190,-0.0226,0.3537,-0.0222,-0.0126,-0.0182,-0.10,-0.23,0.33,0,3.252,-2.758,-0.211,0.764,0.010,-0.007,1.007,0.000,0.000,0.000,0.3530,2,1,-0.81,0.11,-0.53,0.0325,0.0060,0.3543,0.2778,-0.0057,0.3000,0.2566,-5.43,-18.98,-9.85,1.5360,0.0000,1.5270,1.0450,2.3450,0,0.0049,0.0299,0.0000,0.0355,0.0186,0
12705,0.0229,-0.0245,0.3528,-0.0118,-0.0138,-0.0163,-0.18,-0.25,0.36,0,3.267,-2.811,0.877,1.475,0.004,-0.009,1.010,0.000,0.000,0.000,0.3570,0,0,-0.92,0.13,-0.48,0.0301,0.0015,0.3534,0.2778,-0.0057,0.3000,0.2566,-5.62,-18.28,-10.76,1.5360,0.0000,1.5240,1.0480,2.3440,0,0.0049,0.0299,0.0000,0.0355,0.0186,0
12757,0.0211,-0.0281,0.3541,-0.0113,-0.0170,-0.0023,-0.24,-0.31,0.42,0,3.252,-1.553,-0.496,2.322,0.002,-0.008,1.009,0.000,0.000,0.000,0.3550,0,1,-1.07,0.09,-0.40,0.0289,0.0001,0.3543,0.2778,-0.0057,0.3000,0.2548,-6.07,-18.49,-12.66,1.5360,0.0000,1.5240,1.0480,2.3440,0,0.0049,0.0299,0.0000,0.0355,0.0186,0
12809,0.0224,-0.0283,0.3546,-0.0055,-0.0137,0.0043,-0.31,-0.27,0.53,0,3.262,0.571,-0.879,2.436,0.003,-0.011,1.006,0.000,0.000,0.000,0.3530,2,-1,-1.17,0.12,-0.29,0.0264,0.0014,0.3546,0.2778,-0.0057,0.3000,0.2540,-5.94,-18.22,-15.96,1.5390,0.0000,1.5210,1.0440,2.3410,0,0.0049,0.0299,0.0000,0.0355,0.0186,0
12860,0.0219,-0.0261,0.3541,-0.0039,-0.0062,0.0036,-0.30,-0.16,0.67,0,3.241,-0.200,1.400,2.863,0.002,-0.005,1.002,0.000,0.000,0.000,0.3510,0,0,-1.11,0.14,-0.14,0.0280,-0.0030,0.3545,0.2778,-0.0057,0.3000,0.2542,-5.42,-18.17,-19.99,1.5390,0.0000,1.5210,1.0440,2.3410,0,0.0049,0.0299,0.0000,0.0355,0.0186,0
12912,0.0249,-0.0276,0.3528,0.0027,-0.0056,-0.0022,-0.28,-0.16,0.79,0,3.257,1.901,-2.997,3.239,0.003,-0.007,0.998,0.000,0.000,0.000,0.3500,-1,0,-1.12,0.07,0.00,0.0272,-0.0038,0.3537,0.2778,-0.0057,0.3000,0.2551,-5.48,-17.63,-23.65,1.5420,0.0000,1.5240,1.0410,2.3450,0,0.0049,0.0299,0.0000,0.0355,0.0186,0
12963,0.0256,-0.0280,0.3513,0.0049,-0.0037,-0.0103,-0.24,-0.05,0.97,0,3.252,1.181,-3.147,4.154,0.001,-0.008,1.003,0.000,0.000,0.000,0.3520,-1,-1,-1.05,0.21,0.16,0.0281,0.0006,0.3526,0.2778,-0.0057,0.3000,0.2562,-5.40,-17.41,-29.05,1.5420,0.0000,1.5240,1.0410,2.3450,0,0.0049,0.0299,0.0000,0.0355,0.0186,0
13014,0.0243,-0.0283,0.3513,0.0025,-0.0024,-0.0072,-0.19,0.09,1.15,0,3.262,0.337,0.425,2.770,0.001,-0.006,1.006,0.000,0.000,0.000,0.3470,0,0,-1.01,0.35,0.38,0.0300,0.0030,0.3524,0.2778,-0.0057,0.3000,0.2559,-5.37,-17.63,-34.43,1.5590,0.0000,1.5290,1.0400,2.3490,0,0.0049,0.0299,0.0000,0.0355,0.0186,0
13066,0.0259,-0.0264,0.3490,0.0042,0.0022,-0.0143,-0.12,0.08,1.30,0,3.273,-1.100,0.832,2.263,0.002,-0.007,1.010,0.000,0.000,0.000,0.3530,-1,-1,-0.99,0.33,0.52,0.0298,0.0044,0.3508,0.2778,-0.0057,0.3000,0.2571,-4.99,-17.38,-38.87,1.5590,0.0000,1.5290,1.0400,2.3490,0,0.0049,0.0299,0.0000,0.0355,0.0186,0
13118,0.0260,-0.0240,0.3505,0.0032,0.0070,0.0006,-0.16,0.04,1.40,0,3.267,3.526,-2.686,0.342,0.002,-0.007,1.010,0.000,0.000,0.000,0.3510,0,1,-1.05,0.25,0.65,0.0340,0.0064,0.3517,0.2778,-0.0057,0.3000,0.2552,-4.62,-17.54,-41.98,1.5570,0.0000,1.5280,1.0430,2.3410,0,0.0049,0.0299,0.0000,0.0355,0.0186,0
13169,0.0312,-0.0206,0.3509,0.0112,0.0132,0.0068,-0.06,0.09,1.45,0,3.267,3.457,-1.562,-0.533,0.005,-0.009,0.999,0.000,0.000,0.000,0.3520,0,0,-0.86,0.41,0.67,0.0320,0.0071,0.3520,0.2778,-0.0057,0.3000,0.2544,-4.09,-16.89,-43.45,1.5570,0.0000,1.5280,1.0430,2.3410,0,0.0049,0.0299,0.0000,0.0355,0.0186,0
13221,0.0335,-0.0214,0.3517,0.0136,0.0108,0.0108,0.13,0.11,1.44,0,3.273,1.791,-1.333,-0.317,0.001,-0.007,1.001,0.000,0.000,0.000,0.3530,0,0,-0.68,0.49,0.64,0.0320,0.0090,0.3525,0.2778,-0.0057,0.3000,0.2538,-4.28,-16.67,-43.25,1.5550,0.0000,1.5400,1.0420,2.3450,0,0.0049,0.0299,0.0000,0.0355,0.0186,0
13272,0.0328,-0.0220,0.3528,0.0103,0.0077,0.0124,0.17,0.15,1.43,0,3.267,-0.410,1.143,-0.677,0.002,-0.006,0.996,0.000,0.000,0.000,0.3530,0,0,-0.59,0.56,0.62,0.0318,0.0111,0.3532,0.2778,-0.0057,0.3000,0.2535,-4.47,-16.89,-42.92,1.5550,0.0000,1.5400,1.0420,2.3450,0,0.0049,0.0299,0.0000,0.0355,0.0186,0
13323,0.0325,-0.0197,0.3533,0.0076,0.0096,0.0097,0.13,0.18,1.39,0,3.294,-0.490,1.761,-1.083,0.002,-0.005,0.997,0.000,0.000,0.000,0.3550,0,0,-0.61,0.50,0.59,0.0314,0.0132,0.3535,0.2778,-0.0057,0.3000,0.2536,-4.21,-17.02,-41.83,1.5540,0.0000,1.5320,1.0520,2.3480,0,0.0049,0.0299,0.0000,0.0355,0.0186,0
13375,0.0328,-0.0192,0.3544,0.0061,0.0085,0.0093,0.14,0.16,1.35,0,3.273,1.072,1.003,-0.640,0.000,-0.009,1.000,0.000,0.000,0.000,0.3510,0,0,-0.63,0.41,0.53,0.0308,0.0155,0.3544,0.2778,-0.0057,0.3000,0.2535,-4.23,-17.08,-40.54,1.5540,0.0000,1.5320,1.0520,2.3480,0,0.0049,0.0299,0.0000,0.0355,0.0186,0
13427,0.0295,-0.0189,0.3531,-0.0013,0.0069,0.0001,0.16,0.16,1.30,0,3.283,-0.352,1.703,-0.131,0.004,-0.007,0.997,0.000,0.000,0.000,0.3530,0,0,-0.58,0.36,0.50,0.0300,0.0179,0.3537,0.2778,-0.0057,0.3000,0.2547,-4.27,-17.56,-39.14,1.5590,0.0000,1.5320,1.0470,2.3420,0,0.0049,0.0299,0.0000,0.0355,0.0186,0
13478,0.0277,-0.0116,0.3530,-0.0055,0.0174,-0.0022,0.11,0.12,1.28,0,3.273,0.359,-0.280,0.065,0.004,-0.006,0.996,0.000,0.000,0.000,0.3520,1,0,-0.59,0.27,0.49,0.0292,0.0203,0.3537,0.2778,-0.0057,0.3000,0.2550,-3.23,-17.85,-38.54,1.5590,0.0000,1.5320,1.0470,2.3420,0,0.0049,0.0299,0.0000,0.0355,0.0186,0
13529,0.0258,-0.0112,0.3524,-0.0091,0.0157,-0.0062,0.17,0.09,1.29,0,3.257,1.547,1.728,-0.217,0.004,-0.007,0.986,0.000,0.000,0.000,0.3480,0,0,-0.48,0.26,0.53,0.0339,0.0028,0.3534,0.2778,-0.0057,0.3000,0.2555,-3.27,-18.10,-38.77,1.5610,0.0000,1.5400,1.0470,2.3490,0,0.0049,0.0299,0.0000,0.0355,0.0186,0
13580,0.0241,-0.0097,0.3500,-0.0119,0.0157,-0.0203,0.18,0.04,1.30,0,3.246,0.921,1.941,0.010,0.004,-0.008,0.992,0.000,0.000,0.000,0.3500,0,0,-0.40,0.17,0.52,0.0339,0.0024,0.3514,0.2778,-0.0057,0.3000,0.2575,-3.14,-18.20,-38.96,1.5610,0.0000,1.5400,1.0470,2.3490,0,0.0049,0.0299,0.0000,0.0355,0.0186,0
13632,0.0231,-0.0099,0.3491,-0.0127,0.0124,-0.0228,0.20,-0.06,1.30,0,3.236,-1.447,0.947,-0.759,0.004,-0.009,0.994,0.000,0.000,0.000,0.3510,0,0,-0.35,0.07,0.52,0.0339,0.0021,0.3502,0.2778,-0.0057,0.3000,0.2579,-3.30,-18.27,-39.12,1.5520,0.0000,1.5340,1.0480,2.3490,0,0.0049,0.0299,0.0000,0.0355,0.0186,0
13682,0.0219,-0.0075,0.3490,-0.0132,0.0139,-0.0206,0.14,-0.09,1.28,0,3.236,-0.981,0.694,-0.231,0.001,-0.002,1.001,0.000,0.000,0.000,0.3480,1,0,-0.43,0.02,0.48,0.0339,0.0017,0.3495,0.2778,-0.0057,0.3000,0.2577,-3.06,-18.39,-38.52,1.5520,0.0000,1.5340,1.0480,2.3490,0,0.0049,0.0299,0.0000,0.0355,0.0186,0
13733,0.0210,-0.0102,0.3476,-0.0127,0.0070,-0.0231,0.17,-0.12,1.26,0,3.262,-1.662,1.211,-0.940,-0.002,-0.009,1.007,0.000,0.000,0.000,0.3450,0,0,-0.46,-0.01,0.48,0.0338,-0.0001,0.3481,0.2778,-0.0057,0.3000,0.2582,-3.58,-18.40,-37.73,1.5550,0.0000,1.5290,1.0520,2.3440,0,0.0049,0.0299,0.0000,0.0355,0.0186,0
13785,0.0215,-0.0168,0.3455,-0.0097,-0.0062,-0.0263,0.19,-0.16,1.22,0,3.236,-1.787,0.011,-1.173,0.001,-0.005,1.012,0.000,0.000,0.000,0.3470,0,0,-0.55,-0.07,0.43,0.0338,-0.0009,0.3463,0.2778,-0.0057,0.3000,0.2590,-4.67,-18.19,-36.58,1.5550,0.0000,1.5290,1.0520,2.3440,0,0.0049,0.0299,0.0000,0.0355,0.0186,0
13835,0.0213,-0.0185,0.3453,-0.0080,-0.0099,-0.0168,0.05,-0.15,1.18,0,3.246,-1.922,0.363,-0.272,-0.001,-0.008,1.011,0.000,0.000,0.000,0.3440,1,0,-0.64,-0.07,0.37,0.0339,-0.0014,0.3459,0.2778,-0.0057,0.3000,0.2580,-4.98,-18.20,-35.37,1.5590,0.0000,1.5280,1.0460,2.3540,0,0.0049,0.0299,0.0000,0.0355,0.0186,0
13886,0.0209,-0.0190,0.3441,-0.0067,-0.0099,-0.0145,-0.11,-0.18,1.16,0,3.241,-2.992,0.016,-0.394,0.002,-0.008,1.009,0.000,0.000,0.000,0.3410,0,0,-0.72,-0.09,0.37,0.0338,-0.0032,0.3450,0.2778,-0.0057,0.3000,0.2580,-5.02,-18.17,-34.91,1.5590,0.0000,1.5280,1.0460,2.3540,0,0.0049,0.0299,0.0000,0.0355,0.0186,0
13937,0.0193,-0.0200,0.3421,-0.0074,-0.0095,-0.0160,-0.22,-0.19,1.13,0,3.257,-2.770,-1.218,-1.266,0.003,-0.010,1.009,0.000,0.000,0.000,0.3430,0,0,-0.88,-0.09,0.35,0.0339,-0.0039,0.3435,0.2778,-0.0057,0.3000,0.2585,-5.06,-18.28,-33.82,1.5510,0.0000,1.5250,1.0470,2.3620,0,0.0049,0.0299,0.0000,0.0355,0.0186,0
13988,0.0190,-0.0223,0.3420,-0.0058,-0.0107,-0.0087,-0.26,-0.16,1.05,0,3.246,0.349,1.258,-1.787,0.001,-0.007,1.009,0.000,0.000,0.000,0.3440,1,0,-1.02,-0.03,0.28,0.0342,-0.0045,0.3433,0.2778,-0.0057,0.3000,0.2577,-5.29,-18.29,-31.47,1.5510,0.0000,1.5250,1.0470,2.3620,0,0.0049,0.0299,0.0000,0.0355,0.0186,0
14039,0.0166,-0.0225,0.3427,-0.0082,-0.0078,0.0015,-0.28,-0.15,0.96,0,3.257,0.482,0.022,-1.172,0.002,-0.004,1.007,0.000,0.000,0.000,0.3390,0,0,-0.98,-0.08,0.21,0.0338,-0.0066,0.3436,0.2778,-0.0057,0.3000,0.2565,-5.20,-18.63,-28.88,1.5520,0.0000,1.5220,1.0500,2.3640,0,0.0049,0.0299,0.0000,0.0355,0.0186,0
14091,0.0150,-0.0248,0.3411,-0.0090,-0.0086,-0.0035,-0.25,-0.14,0.91,0,3.246,-0.407,0.842,-1.331,0.002,-0.004,1.010,0.000,0.000,0.000,0.3400,-1,0,-0.96,-0.08,0.15,0.0340,-0.0071,0.3425,0.2778,-0.0057,0.3000,0.2573,-5.38,-18.71,-27.25,1.5520,0.0000,1.5220,1.0500,2.3640,0,0.0049,0.0299,0.0000,0.0355,0.0186,0
14141,0.0159,-0.0266,0.3405,-0.0056,-0.0092,-0.0025,-0.23,-0.21,0.82,0,3.241,-0.013,0.555,-1.676,0.000,-0.007,1.002,0.000,0.000,0.000,0.3400,0,0,-1.00,-0.12,0.06,0.0340,-0.0050,0.3421,0.2778,-0.0057,0.3000,0.2573,-5.54,-18.51,-24.58,1.5440,0.0000,1.5190,1.0520,2.3530,0,0.0049,0.0299,0.0000,0.0355,0.0186,0
14193,0.0165,-0.0232,0.3402,-0.0022,-0.0006,-0.0015,-0.20,-0.25,0.73,0,3.241,3.192,-1.432,-2.626,0.003,-0.006,0.997,0.000,0.000,0.000,0.3420,0,-1,-1.00,-0.15,-0.03,0.0342,-0.0042,0.3418,0.2778,-0.0057,0.3000,0.2573,-4.89,-18.34,-21.90,1.5440,0.0000,1.5190,1.0520,2.3530,0,0.0049,0.0299,0.0000,0.0355,0.0186,0
14244,0.0178,-0.0228,0.3411,0.0023,0.0014,0.0032,-0.05,-0.21,0.62,0,3.241,0.399,-1.445,-2.357,0.001,-0.012,0.994,0.000,0.000,0.000,0.3430,0,0,-0.82,-0.09,-0.14,0.0365,-0.0046,0.3420,0.2778,-0.0057,0.3000,0.2566,-4.78,-18.10,-18.46,1.5440,0.0000,1.5230,1.0460,2.3600,0,0.0049,0.0299,0.0000,0.0355,0.0186,0
14295,0.0191,-0.0227,0.3421,0.0058,0.0020,0.0047,-0.03,-0.16,0.47,0,3.225,2.016,-0.095,-3.796,0.006,-0.009,0.994,0.000,0.000,0.000,0.3420,0,0,-0.80,-0.01,-0.26,0.0374,-0.0039,0.3423,0.2778,-0.0057,0.3000,0.2563,-4.75,-17.89,-14.05,1.5440,0.0000,1.5230,1.0460,2.3600,0,0.0049,0.0299,0.0000,0.0355,0.0186,0
14346,0.0195,-0.0212,0.3422,0.0073,0.0042,0.0018,0.15,-0.15,0.30,0,3.230,2.143,-3.078,-3.081,0.004,-0.005,0.990,0.000,0.000,0.000,0.3380,0,0,-0.70,-0.01,-0.45,0.0385,-0.0030,0.3421,0.2778,-0.0057,0.3000,0.2566,-4.53,-17.78,-8.94,1.5400,0.0000,1.5180,1.0590,2.3630,0,0.0049,0.0299,0.0000,0.0355,0.0186,0
14397,0.0199,-0.0211,0.3402,0.0085,0.0029,-0.0116,0.18,-0.04,0.12,0,3.225,-0.906,-0.668,-4.142,0.005,-0.006,1.000,0.000,0.000,0.000,0.3420,-2,-1,-0.59,0.15,-0.61,0.0397,-0.0020,0.3404,0.2778,-0.0057,0.3000,0.2584,-4.55,-17.59,-3.57,1.5400,0.0000,1.5180,1.0590,2.3630,0,0.0049,0.0299,0.0000,0.0355,0.0186,0
14448,0.0212,-0.0207,0.3405,0.0101,0.0017,-0.0084,0.09,0.02,-0.08,0,3.215,2.707,-0.456,-4.329,0.003,-0.005,0.994,0.000,0.000,0.000,0.3390,0,0,-0.65,0.20,-0.84,0.0396,0.0012,0.3404,0.2778,-0.0057,0.3000,0.2579,-4.59,-17.47,2.36,1.5340,0.0000,1.5130,1.0550,2.3560,0,0.0049,0.0299,0.0000,0.0355,0.0186,0
14500,0.0214,-0.0141,0.3395,0.0095,0.0126,-0.0124,0.22,0.09,-0.27,0,3.220,1.047,-1.583,-3.347,0.004,-0.007,0.998,0.000,0.000,0.000,0.3360,0,0,-0.51,0.22,-1.06,0.0405,0.0029,0.3393,0.2778,-0.0057,0.3000,0.2586,-3.59,-17.44,8.09,1.5340,0.0000,1.5130,1.0550,2.3560,0,0.0049,0.0299,0.0000,0.0355,0.0186,0
14552,0.0227,-0.0128,0.3374,0.0105,0.0120,-0.0211,0.27,0.11,-0.44,0,3.230,0.390,0.455,-1.970,0.003,-0.010,1.004,0.000,0.000,0.000,0.3350,0,0,-0.46,0.31,-1.23,0.0415,0.0047,0.3375,0.2778,-0.0057,0.3000,0.2599,-3.51,-17.23,13.23,1.5370,0.0000,1.5110,1.0710,2.3600,0,0.0049,0.0299,0.0000,0.0355,0.0186,0
14603,0.0231,-0.0079,0.3355,0.0094,0.0176,-0.0247,0.31,0.09,-0.55,0,3.199,0.626,-1.295,-2.517,0.000,-0.009,1.006,0.000,0.000,0.000,0.3400,0,0,-0.44,0.28,-1.33,0.0424,0.0065,0.3359,0.2778,-0.0057,0.3000,0.2606,-2.88,-17.21,16.64,1.5370,0.0000,1.5110,1.0710,2.3600,0,0.0049,0.0299,0.0000,0.0355,0.0186,0
14654,0.0234,-0.0059,0.3368,0.0082,0.0172,-0.0097,0.34,0.13,-0.66,0,3.209,1.574,-0.624,-1.140,0.003,-0.004,1.004,0.000,0.000,0.000,0.3420,1,0,-0.40,0.35,-1.46,0.0431,0.0082,0.3364,0.2777,-0.0019,0.3000,0.2588,-3.05,-17.31,19.72,1.5190,0.0000,1.5040,1.0670,2.3600,0,0.0049,0.0299,0.0000,0.0355,0.0186,0
14706,0.0238,-0.0051,0.3389,0.0071,0.0143,0.0035,0.38,0.12,-0.72,0,3.220,-0.744,1.158,-0.830,0.001,-0.003,0.994,0.000,0.000,0.000,0.3380,0,0,-0.25,0.40,-1.48,0.0411,0.0005,0.3379,0.2777,0.0019,0.3000,0.2570,-3.43,-17.40,21.71,1.5190,0.0000,1.5040,1.0670,2.3600,0,0.0049,0.0299,0.0000,0.0355,0.0186,0
14757,0.0239,-0.0069,0.3386,0.0057,0.0069,0.0005,0.38,0.08,-0.75,0,3.215,-2.377,-0.507,-1.139,0.001,-0.006,1.004,0.000,0.000,0.000,0.3390,0,0,-0.29,0.34,-1.53,0.0410,0.0002,0.3376,0.2775,0.0058,0.3000,0.2573,-4.18,-17.37,22.46,1.5190,0.0000,1.5050,1.0630,2.3580,0,0.0049,0.0299,0.0000,0.0355,0.0186,0
14807,0.0242,-0.0066,0.3388,0.0048,0.0029,0.0020,0.36,0.10,-0.79,0,3.199,-1.090,-1.605,1.269,0.001,-0.009,0.994,0.000,0.000,0.000,0.3380,0,-1,-0.41,0.37,-1.58,0.0408,-0.0000,0.3378,0.2773,0.0096,0.3000,0.2571,-4.62,-17.34,23.57,1.5190,0.0000,1.5050,1.0630,2.3580,0,0.0049,0.0299,0.0000,0.0355,0.0186,0
14858,0.0244,-0.0065,0.3385,0.0041,0.0005,-0.0005,0.28,0.09,-0.80,0,3.215,-0.703,-0.189,-0.429,0.001,-0.006,0.995,0.000,0.000,0.000,0.3380,0,1,-0.47,0.42,-1.54,0.0432,0.0002,0.3375,0.2770,0.0134,0.3000,0.2575,-4.99,-17.28,23.96,1.5190,0.0000,1.5050,1.0630,2.3620,0,0.0049,0.0299,0.0000,0.0355,0.0186,0
14910,0.0282,-0.0125,0.3382,0.0095,-0.0123,-0.0047,0.27,0.07,-0.80,0,3.215,-0.568,-2.688,1.534,0.002,-0.006,0.996,0.000,0.000,0.000,0.3360,0,1,-0.51,0.44,-1.56,0.0425,0.0001,0.3372,0.2767,0.0172,0.3000,0.2580,-6.28,-16.69,24.08,1.5190,0.0000,1.5050,1.0630,2.3620,0,0.0049,0.0299,0.0000,0.0355,0.0186,0
14961,0.0248,-0.0122,0.3369,0.0021,-0.0130,-0.0108,0.21,0.14,-0.79,0,3.215,-3.171,0.189,1.715,-0.000,-0.004,1.004,0.000,0.000,0.000,0.3340,0,0,-0.54,0.59,-1.47,0.0412,0.0001,0.3363,0.2763,0.0210,0.3000,0.2589,-6.53,-17.11,23.62,1.5050,0.0000,1.5050,1.0640,2.3710,0,0.0049,0.0299,0.0000,0.0355,0.0186,0
15012,0.0203,-0.0199,0.3351,-0.0068,-0.0272,-0.0157,0.15,0.17,-0.73,0,3.194,-3.453,1.427,0.622,0.005,-0.006,1.004,0.000,0.000,0.000,0.3310,0,0,-0.70,0.58,-1.38,0.0404,0.0002,0.3351,0.2759,0.0248,0.3000,0.2597,-7.98,-17.66,21.93,1.5050,0.0000,1.5050,1.0640,2.3710,0,0.0049,0.0299,0.0000,0.0355,0.0186,0
15063,0.0209,-0.0222,0.3326,-0.0067,-0.0301,-0.0225,-0.07,0.11,-0.66,0,3.225,-4.886,2.790,2.372,-0.001,-0.005,1.009,0.000,0.000,0.000,0.3330,4,1,-0.88,0.51,-1.35,0.0396,0.0005,0.3333,0.2754,0.0286,0.3000,0.2609,-8.49,-17.47,19.81,1.5130,0.0000,1.5050,1.0600,2.3660,0,0.0049,0.0299,0.0000,0.0355,0.0186,0
15115,0.0233,-0.0241,0.3319,-0.0027,-0.0301,-0.0177,-0.33,0.04,-0.55,0,3.220,-3.708,-0.908,3.753,0.003,-0.007,1.018,0.000,0.000,0.000,0.3320,1,1,-1.02,0.36,-1.26,0.0382,-0.0126,0.3330,0.2748,0.0325,0.3000,0.2605,-8.90,-17.08,16.60,1.5130,0.0000,1.5050,1.0600,2.3660,0,0.0049,0.0299,0.0000,0.0355,0.0186,0
15167,0.0214,-0.0310,0.3315,-0.0060,-0.0364,-0.0091,-0.50,0.06,-0.38,0,3.241,-1.432,0.375,3.120,0.001,-0.008,1.016,0.000,0.000,0.000,0.3320,0,0,-1.21,0.41,-1.07,0.0361,-0.0154,0.3327,0.2742,0.0364,0.3000,0.2597,-9.96,-17.31,11.33,1.5120,0.0000,1.5050,1.0540,2.3690,0,0.0049,0.0299,0.0000,0.0355,0.0186,0
15218,0.0183,-0.0361,0.3315,-0.0111,-0.0380,0.0004,-0.55,0.03,-0.22,0,3.215,1.461,3.596,2.155,0.002,-0.009,1.010,0.000,0.000,0.000,0.3290,1,1,-1.28,0.39,-0.91,0.0345,-0.0175,0.3330,0.2735,0.0401,0.3000,0.2587,-10.68,-17.71,6.51,1.5120,0.0000,1.5050,1.0540,2.3690,0,0.0049,0.0299,0.0000,0.0355,0.0186,0
15269,0.0177,-0.0379,0.3305,-0.0114,-0.0332,0.0012,-0.58,-0.08,-0.07,0,3.236,0.774,2.058,3.319,0.002,-0.011,1.006,0.000,0.000,0.000,0.3330,0,1,-1.21,0.20,-0.80,0.0330,-0.0190,0.3324,0.2728,0.0439,0.3000,0.2588,-10.83,-17.66,2.13,1.5200,0.0000,1.5130,1.0540,2.3710,0,0.0049,0.0299,0.0000,0.0355,0.0186,0
15321,0.0156,-0.0401,0.3317,-0.0131,-0.0293,0.0086,-0.69,-0.20,0.11,0,3.209,2.615,0.164,3.620,0.004,-0.001,1.002,0.000,0.000,0.000,0.3320,0,0,-1.18,0.10,-0.64,0.0304,-0.0198,0.3333,0.2720,0.0476,0.3000,0.2577,-11.09,-17.84,-3.17,1.5200,0.0000,1.5130,1.0540,2.3710,0,0.0049,0.0299,0.0000,0.0355,0.0186,0
15372,0.0147,-0.0396,0.3322,-0.0119,-0.0201,0.0100,-0.70,-0.25,0.29,0,3.199,2.345,1.496,3.456,0.006,-0.005,0.996,0.000,0.000,0.000,0.3280,1,1,-1.04,0.09,-0.45,0.0286,-0.0205,0.3336,0.2712,0.0514,0.3000,0.2575,-10.89,-17.77,-8.63,1.5270,0.0000,1.5100,1.0490,2.3620,0,0.0049,0.0299,0.0000,0.0355,0.0186,0
15423,0.0154,-0.0362,0.3306,-0.0076,-0.0064,-0.0022,-0.65,-0.31,0.47,0,3.209,2.160,-1.544,3.902,0.001,-0.002,0.993,0.000,0.000,0.000,0.3310,0,0,-0.91,0.01,-0.27,0.0271,-0.0232,0.3324,0.2703,0.0551,0.3000,0.2591,-10.20,-17.33,-14.16,1.5270,0.0000,1.5100,1.0490,2.3620,0,0.0049,0.0299,0.0000,0.0355,0.0186,0
15474,0.0120,-0.0350,0.3307,-0.0104,0.0019,-0.0045,-0.58,-0.27,0.65,0,3.225,3.368,-1.483,3.062,0.003,-0.005,0.999,0.000,0.000,0.000,0.3330,-3,0,-0.80,0.08,-0.07,0.0254,-0.0238,0.3321,0.2693,0.0588,0.3000,0.2593,-9.96,-17.55,-19.61,1.5310,0.0000,1.5150,1.0510,2.3690,0,0.0049,0.0299,0.0000,0.0355,0.0186,0
15526,0.0134,-0.0339,0.3315,-0.0048,0.0084,-0.0017,-0.49,-0.25,0.80,0,3.225,3.893,-0.328,3.087,0.000,-0.007,1.003,0.000,0.000,0.000,0.3270,0,0,-0.70,0.14,0.07,0.0267,-0.0144,0.3325,0.2683,0.0626,0.3000,0.2589,-9.85,-17.13,-24.02,1.5310,0.0000,1.5150,1.0510,2.3690,0,0.0049,0.0299,0.0000,0.0355,0.0186,0
15578,0.0151,-0.0297,0.3293,0.0008,0.0187,-0.0125,-0.29,-0.30,0.94,0,3.246,3.398,-0.490,2.636,0.001,-0.010,1.010,0.000,0.000,0.000,0.3350,-1,0,-0.50,0.15,0.23,0.0257,-0.0124,0.3310,0.2672,0.0663,0.3000,0.2605,-9.27,-16.56,-28.12,1.5400,0.0000,1.5130,1.0480,2.3700,0,0.0049,0.0299,0.0000,0.0355,0.0186,0
15630,0.0149,-0.0257,0.3314,0.0027,0.0266,0.0023,-0.11,-0.28,1.07,0,3.225,-0.567,-1.020,2.760,0.001,-0.008,1.006,0.000,0.000,0.000,0.3310,0,-1,-0.32,0.16,0.38,0.0266,-0.0110,0.3325,0.2660,0.0701,0.3000,0.2585,-8.93,-16.49,-31.99,1.5400,0.0000,1.5130,1.0480,2.3700,0,0.0049,0.0299,0.0000,0.0355,0.0186,0
15681,0.0158,-0.0202,0.3314,0.0065,0.0352,0.0038,-0.07,-0.25,1.20,0,3.246,5.048,-2.986,2.694,0.003,-0.005,1.000,0.000,0.000,0.000,0.3310,0,0,-0.34,0.20,0.52,0.0280,-0.0102,0.3326,0.2648,0.0737,0.3000,0.2583,-8.39,-16.15,-36.13,1.5500,0.0000,1.5180,1.0580,2.3700,0,0.0049,0.0299,0.0000,0.0355,0.0186,0
15732,0.0179,-0.0200,0.3313,0.0116,0.0326,0.0019,0.12,-0.11,1.33,0,3.241,5.339,-2.841,1.465,-0.002,-0.010,0.997,0.000,0.000,0.000,0.3320,0,0,-0.08,0.35,0.66,0.0278,-0.0086,0.3326,0.2636,0.0773,0.3000,0.2585,-8.73,-15.65,-39.88,1.5500,0.0000,1.5180,1.0580,2.3700,0,0.0049,0.0299,0.0000,0.0355,0.0186,0
15783,0.0161,-0.0109,0.3317,0.0082,0.0456,0.0028,0.31,0.07,1.43,0,3.246,1.897,-0.054,1.440,0.001,-0.009,1.000,0.000,0.000,0.000,0.3290,-1,0,0.19,0.49,0.74,0.0273,-0.0073,0.3327,0.2623,0.0809,0.3000,0.2583,-7.72,-15.79,-42.92,1.5530,0.0000,1.5270,1.0540,2.3670,0,0.0049,0.0299,0.0000,0.0355,0.0186,0
15834,0.0162,-0.0069,0.3305,0.0071,0.0464,-0.0041,0.48,0.09,1.49,0,3.241,2.937,-1.901,0.769,0.002,-0.008,0.996,0.000,0.000,0.000,0.3350,0,0,0.28,0.48,0.80,0.0288,-0.0060,0.3319,0.2609,0.0845,0.3000,0.2593,-7.61,-15.65,-44.70,1.5530,0.0000,1.5270,1.0540,2.3670,0,0.0049,0.0299,0.0000,0.0355,0.0186,0
15885,0.0184,-0.0064,0.3326,0.0100,0.0389,0.0064,0.62,0.10,1.52,0,3.230,2.720,-1.081,0.082,0.003,-0.005,0.997,0.000,0.000,0.000,0.3290,0,0,0.43,0.58,0.84,0.0284,-0.0053,0.3329,0.2595,0.0881,0.3000,0.2578,-8.20,-15.32,-45.50,1.5590,0.0000,1.5230,1.0560,2.3660,0,0.0049,0.0299,0.0000,0.0355,0.0186,0
15936,0.0179,-0.0012,0.3311,0.0074,0.0401,-0.0039,0.69,0.19,1.51,0,3.215,1.336,-0.087,-0.736,0.001,-0.007,0.991,0.000,0.000,0.000,0.3260,0,0,0.57,0.63,0.84,0.0278,-0.0049,0.3318,0.2580,0.0916,0.3000,0.2592,-7.96,-15.25,-45.45,1.5590,0.0000,1.5230,1.0560,2.3660,0,0.0049,0.0299,0.0000,0.0355,0.0186,0
15988,0.0182,0.0006,0.3285,0.0060,0.0343,-0.0183,0.72,0.19,1.48,0,3.209,0.040,2.526,-1.240,0.003,-0.002,0.995,0.000,0.000,0.000,0.3310,0,0,0.64,0.64,0.80,0.0270,-0.0049,0.3297,0.2565,0.0951,0.3000,0.2612,-8.26,-15.03,-44.45,1.5570,0.0000,1.5260,1.0580,2.3710,0,0.0049,0.0299,0.0000,0.0355,0.0186,0
16038,0.0184,0.0028,0.3287,0.0045,0.0292,-0.0181,0.75,0.10,1.41,0,3.183,-1.587,0.640,-1.162,0.002,-0.003,0.991,0.000,0.000,0.000,0.3310,0,0,0.64,0.51,0.74,0.0260,-0.0053,0.3294,0.2550,0.0986,0.3000,0.2612,-8.57,-14.94,-42.25,1.5570,0.0000,1.5260,1.0580,2.3710,0,0.0049,0.0299,0.0000,0.0355,0.0186,0
16089,0.0173,0.0036,0.3291,0.0011,0.0219,-0.0158,0.66,0.06,1.34,0,3.209,-4.443,-0.151,-1.353,0.001,-0.008,0.991,0.000,0.000,0.000,0.3250,1,0,0.57,0.47,0.68,0.0248,-0.0061,0.3291,0.2533,0.1021,0.3000,0.2608,-9.08,-15.03,-40.17,1.5560,0.0000,1.5230,1.0560,2.3750,0,0.0049,0.0299,0.0000,0.0355,0.0186,0
16141,0.0169,0.0004,0.3264,-0.0002,0.0080,-0.0279,0.53,0.09,1.26,0,3.178,-1.567,-0.470,-1.874,0.002,-0.005,0.996,0.000,0.000,0.000,0.3230,0,0,0.32,0.44,0.52,0.0304,-0.0039,0.3268,0.2517,0.1055,0.3000,0.2626,-10.09,-14.87,-37.89,1.5560,0.0000,1.5230,1.0560,2.3750,0,0.0049,0.0299,0.0000,0.0355,0.0186,0
16192,0.0182,-0.0002,0.3238,0.0016,0.0018,-0.0350,0.40,0.12,1.16,0,3.215,-4.413,-0.097,-3.399,0.003,-0.008,1.008,0.000,0.000,0.000,0.3210,1,0,0.24,0.46,0.42,0.0302,-0.0048,0.3243,0.2499,0.1089,0.3000,0.2639,-10.58,-14.48,-34.76,1.5470,0.0000,1.5190,1.0640,2.3790,0,0.0049,0.0299,0.0000,0.0355,0.0186,0
16243,0.0182,-0.0045,0.3211,0.0007,-0.0100,-0.0382,0.24,0.11,1.01,0,3.157,-2.563,1.065,-4.125,0.001,-0.013,1.006,0.000,0.000,0.000,0.3200,1,0,0.02,0.46,0.24,0.0302,-0.0063,0.3220,0.2481,0.1123,0.3000,0.2648,-11.56,-14.32,-30.28,1.5470,0.0000,1.5190,1.0640,2.3790,0,0.0049,0.0299,0.0000,0.0355,0.0186,0
16293,0.0143,-0.0066,0.3193,-0.0080,-0.0150,-0.0332,0.06,0.11,0.84,0,3.204,-2.206,1.686,-3.526,-0.000,-0.003,1.017,0.000,0.000,0.000,0.3190,1,0,-0.10,0.41,0.03,0.0299,-0.0083,0.3201,0.2463,0.1157,0.3000,0.2646,-12.14,-14.80,-25.23,1.5430,0.0000,1.5070,1.0600,2.3820,0,0.0049,0.0299,0.0000,0.0355,0.0186,0
16345,0.0138,-0.0091,0.3179,-0.0093,-0.0187,-0.0281,-0.12,0.03,0.68,0,3.209,-3.458,2.465,-2.956,0.002,-0.004,1.020,0.000,0.000,0.000,0.3200,0,0,-0.21,0.32,-0.16,0.0295,-0.0106,0.3188,0.2444,0.1190,0.3000,0.2643,-12.68,-14.75,-20.33,1.5430,0.0000,1.5070,1.0600,2.3820,0,0.0049,0.0299,0.0000,0.0355,0.0186,0
16396,0.0130,-0.0108,0.3181,-0.0102,-0.0192,-0.0116,-0.29,-0.09,0.53,0,3.209,-0.562,0.108,-2.816,-0.001,-0.007,1.020,0.000,0.000,0.000,0.3170,0,0,-0.39,0.19,-0.31,0.0289,-0.0126,0.3188,0.2425,0.1223,0.3000,0.2625,-13.10,-14.77,-15.92,1.5280,0.0000,1.5060,1.0540,2.3810,0,0.0049,0.0299,0.0000,0.0355,0.0186,0
16447,0.0117,-0.0130,0.3174,-0.0112,-0.0192,-0.0037,-0.31,-0.10,0.39,0,3.215,0.836,1.723,-2.989,0.001,-0.005,1.010,0.000,0.000,0.000,0.3150,0,0,-0.42,0.19,-0.45,0.0281,-0.0145,0.3183,0.2405,0.1256,0.3000,0.2617,-13.48,-14.77,-11.65,1.5280,0.0000,1.5060,1.0540,2.3810,0,0.0049,0.0299,0.0000,0.0355,0.0186,0
16499,0.0122,-0.0156,0.3163,-0.0081,-0.0201,-0.0020,-0.25,-0.21,0.23,0,3.225,-0.247,1.898,-3.020,0.002,-0.001,1.009,0.000,0.000,0.000,0.3180,0,0,-0.37,0.10,-0.61,0.0273,-0.0164,0.3176,0.2384,0.1289,0.3000,0.2618,-13.88,-14.42,-6.97,1.5240,0.0000,1.5040,1.0560,2.3810,0,0.0049,0.0299,0.0000,0.0355,0.0186,0
16550,0.0116,-0.0168,0.3171,-0.0069,-0.0184,0.0065,-0.25,-0.29,0.09,0,3.178,-0.275,-1.038,-2.109,0.002,-0.011,0.993,0.000,0.000,0.000,0.3200,0,0,-0.39,0.00,-0.76,0.0265,-0.0181,0.3181,0.2363,0.1321,0.3000,0.2607,-14.13,-14.29,-2.58,1.5240,0.0000,1.5040,1.0560,2.3810,0,0.0049,0.0299,0.0000,0.0355,0.0186,0
16602,0.0102,-0.0187,0.3188,-0.0067,-0.0185,0.0165,-0.23,-0.27,-0.03,0,3.188,-2.213,0.603,-0.976,0.001,-0.011,0.989,0.000,0.000,0.000,0.3150,0,0,-0.40,0.06,-0.87,0.0258,-0.0200,0.3190,0.2342,0.1353,0.3000,0.2593,-14.53,-14.26,0.78,1.5150,0.0000,1.5080,1.0580,2.3910,0,0.0049,0.0299,0.0000,0.0355,0.0186,0
16652,0.0099,-0.0199,0.3176,-0.0045,-0.0174,0.0030,-0.22,-0.22,-0.09,0,3.299,-0.830,-2.030,-1.337,-0.004,-0.005,1.010,0.000,0.000,0.000,0.3130,0,0,-0.51,0.03,-0.92,0.0251,-0.0220,0.3177,0.2320,0.1384,0.3000,0.2610,-14.65,-13.92,2.69,1.5150,0.0000,1.5080,1.0580,2.3910,0,0.0049,0.0299,0.0000,0.0355,0.0186,0
16703,0.0108,-0.0203,0.3154,-0.0004,-0.0144,-0.0098,-0.31,-0.15,-0.16,0,3.331,-2.890,-0.877,-1.224,0.004,-0.005,1.046,0.000,0.000,0.000,0.3170,0,0,-0.56,0.13,-0.99,0.0242,-0.0238,0.3163,0.2298,0.1416,0.3000,0.2628,-14.62,-13.39,4.80,1.5160,0.0000,1.5040,1.0590,2.3850,0,0.0049,0.0299,0.0000,0.0355,0.0186,0
16754,0.0105,-0.0249,0.3161,0.0004,-0.0206,0.0088,-0.28,-0.09,-0.23,0,3.341,0.586,-1.574,-1.861,0.002,-0.003,1.043,0.000,0.000,0.000,0.3190,-1,-1,-0.70,0.17,-1.05,0.0234,-0.0255,0.3176,0.2275,0.1446,0.3000,0.2606,-15.49,-13.29,6.95,1.5160,0.0000,1.5040,1.0590,2.3850,0,0.0049,0.0299,0.0000,0.0355,0.0186,0
16805,0.0114,-0.0243,0.3182,0.0027,-0.0148,0.0345,-0.22,-0.07,-0.32,0,3.357,1.476,-0.567,-1.161,0.002,-0.007,1.026,0.000,0.000,0.000,0.3190,0,0,-0.73,0.22,-1.19,0.0304,-0.0147,0.3203,0.2252,0.1477,0.3000,0.2574,-15.54,-13.09,9.65,1.5090,0.0000,1.5100,1.0600,2.3780,0,0.0049,0.0299,0.0000,0.0355,0.0186,0
16857,0.0115,-0.0208,0.3204,0.0029,-0.0040,0.0504,-0.07,-0.02,-0.39,0,3.352,2.017,-1.189,-0.923,0.001,-0.007,1.003,0.000,0.000,0.000,0.3220,0,0,-0.66,0.25,-1.25,0.0307,-0.0142,0.3229,0.2228,0.1507,0.3000,0.2553,-15.12,-12.97,11.85,1.5090,0.0000,1.5100,1.0600,2.3780,0,0.0049,0.0299,0.0000,0.0355,0.0186,0
16908,0.0124,-0.0204,0.3231,0.0047,-0.0022,0.0552,0.09,0.06,-0.45,0,3.357,0.400,0.097,-0.565,0.001,-0.009,0.989,0.000,0.000,0.000,0.3230,-2,1,-0.55,0.31,-1.29,0.0309,-0.0136,0.3255,0.2204,0.1537,0.3000,0.2543,-15.24,-12.67,13.41,1.5090,0.0000,1.5150,1.0610,2.3780,0,0.0049,0.0299,0.0000,0.0355,0.0186,0
16959,0.0127,-0.0205,0.3253,0.0042,-0.0029,0.0485,0.10,0.10,-0.45,0,3.341,0.033,0.606,0.228,-0.001,-0.002,0.974,0.000,0.000,0.000,0.3270,0,0,-0.56,0.33,-1.33,0.0295,-0.0109,0.3272,0.2179,0.1566,0.3000,0.2546,-15.43,-12.46,13.41,1.5090,0.0000,1.5150,1.0610,2.3780,0,0.0049,0.0299,0.0000,0.0355,0.0186,0
17010,0.0132,-0.0207,0.3279,0.0043,-0.0042,0.0402,0.14,-0.01,-0.43,0,3.352,-2.716,73.057,2.783,-0.011,-0.005,0.967,0.000,0.000,0.000,0.3290,4,9,-0.56,0.30,-1.32,0.0289,-0.0093,0.3289,0.2154,0.1595,0.3000,0.2550,-15.64,-12.19,12.97,1.5200,0.0000,1.5120,1.0620,2.3710,0,0.0049,0.0299,0.0000,0.0355,0.0186,0
17062,0.0161,-0.0171,0.3297,0.0127,0.0032,0.0262,0.01,-2.63,-0.33,0,3.336,-15.348,99.564,1.887,0.002,-0.004,0.966,0.000,0.000,0.000,0.3300,2,3,-0.60,-3.28,-1.23,0.0149,-0.0149,0.3316,0.2128,0.1624,0.3000,0.2562,-15.16,-11.33,10.00,1.5200,0.0000,1.5120,1.0620,2.3710,0,0.0049,0.0299,0.0000,0.0355,0.0186,0
17114,0.0140,-0.0181,0.3305,0.0357,0.0020,0.0078,-0.64,-7.67,-0.25,0,3.341,-4.917,19.673,4.520,0.001,-0.008,0.973,0.000,0.000,0.000,0.3330,0,-1,-1.37,-8.44,-1.16,0.0089,-0.0174,0.3317,0.2101,0.1653,0.3000,0.2580,-15.34,-10.11,7.61,1.4250,0.0000,1.5070,1.0600,2.3930,0,0.0049,0.0299,0.0000,0.0355,0.0186,0
17165,0.0138,-0.0185,0.3316,0.0952,0.0068,-0.0075,-0.98,-9.47,-0.08,0,3.320,11.077,-9.730,4.546,-0.002,-0.012,0.969,0.000,0.000,0.000,0.3330,1,-3,-1.60,-9.49,-0.97,0.0095,-0.0181,0.3311,0.2075,0.1681,0.3000,0.2594,-15.22,-7.07,2.29,1.4250,0.0000,1.5070,1.0600,2.3930,0,0.0049,0.0299,0.0000,0.0355,0.0186,0
17216,0.0209,-0.0183,0.3314,0.1738,0.0137,-0.0255,-0.54,-9.12,0.19,0,3.320,-3.931,-1.720,4.233,-0.007,-0.010,0.981,0.000,0.000,0.000,0.3300,0,-4,-0.96,-9.03,-0.56,0.0159,-0.0201,0.3293,0.2048,0.1708,0.3000,0.2614,-14.94,-2.59,-5.64,1.3560,0.0000,1.4990,1.0500,2.4130,0,0.0049,0.0299,0.0000,0.0355,0.0186,0
17268,0.0309,-0.0187,0.3292,0.2480,0.0160,-0.0462,-0.46,-8.96,0.40,0,3.320,-7.886,-15.429,0.427,-0.006,-0.001,0.985,0.000,0.000,0.000,0.3280,0,-10,-1.13,-8.97,-0.37,0.0268,-0.0205,0.3262,0.2021,0.1735,0.3000,0.2641,-14.86,1.83,-12.01,1.3560,0.0000,1.4990,1.0500,2.4130,0,0.0049,0.0299,0.0000,0.0355,0.0186,0
17318,0.0452,-0.0143,0.3266,0.3223,0.0284,-0.0607,-0.74,-8.40,0.46,0,3.326,9.155,-38.171,-3.481,-0.005,-0.005,1.003,0.000,0.000,0.000,0.3260,0,-6,-1.52,-8.27,-0.24,0.0513,-0.0208,0.3203,0.1993,0.1761,0.3000,0.2661,-14.06,6.47,-13.76,1.3580,0.0000,1.4950,1.0420,2.4110,0,0.0049,0.0299,0.0000,0.0355,0.0186,0
17370,0.0643,-0.0155,0.3236,0.3938,0.0286,-0.0666,-0.36,-6.57,0.38,0,3.310,10.344,-47.220,-5.797,-0.010,-0.005,0.997,0.000,0.000,0.000,0.3190,0,-5,-1.08,-6.36,-0.33,0.0713,-0.0208,0.3179,0.1965,0.1787,0.3000,0.2673,-14.20,11.19,-11.38,1.3580,0.0000,1.4950,1.0420,2.4110,0,0.0049,0.0299,0.0000,0.0355,0.0186,0
17421,0.0827,-0.0162,0.3187,0.4408,0.0255,-0.0755,0.17,-4.27,0.11,0,3.304,0.420,-33.067,-6.550,-0.014,-0.007,1.014,0.000,0.000,0.000,0.3140,0,-14,-0.56,-3.86,-0.58,0.0882,-0.0208,0.3156,0.1937,0.1813,0.3000,0.2692,-14.42,14.58,-3.37,1.3780,0.0000,1.4850,1.0440,2.3970,0,0.0049,0.0299,0.0000,0.0355,0.0186,0
17472,0.1026,-0.0166,0.3135,0.4680,0.0201,-0.0786,0.27,-2.51,-0.21,0,3.273,-4.927,-36.985,-8.079,-0.019,-0.005,1.020,0.000,0.000,0.000,0.3090,0,-7,-0.54,-2.30,-0.70,0.1279,-0.0212,0.3084,0.1908,0.1838,0.3000,0.2705,-14.73,17.15,6.18,1.3780,0.0000,1.4850,1.0440,2.3970,0,0.0049,0.0299,0.0000,0.0355,0.0186,0
17523,0.1298,-0.0154,0.3083,0.4949,0.0188,-0.0774,0.02,-0.73,-0.61,0,3.262,1.043,-38.647,-9.347,-0.015,-0.011,1.023,0.000,0.000,0.000,0.3040,-4,-13,-0.79,-0.38,-1.04,0.1503,-0.0215,0.3062,0.1879,0.1863,0.3000,0.2714,-14.79,20.07,18.42,1.3820,0.0000,1.4780,1.0470,2.3930,0,0.0049,0.0299,0.0000,0.0355,0.0186,0
17573,0.1526,-0.0151,0.3033,0.4938,0.0171,-0.0728,0.04,1.13,-1.08,0,3.257,4.989,-32.260,-9.621,-0.016,-0.011,1.024,0.000,0.000,0.000,0.3020,-3,-13,-0.79,1.51,-2.05,0.1881,-0.0120,0.3006,0.1849,0.1887,0.3000,0.2718,-14.94,21.56,32.33,1.3820,0.0000,1.4780,1.0470,2.3930,0,0.0049,0.0299,0.0000,0.0355,0.0186,0
17625,0.1711,-0.0082,0.3002,0.4647,0.0320,-0.0596,0.22,2.87,-1.62,0,3.262,8.352,-21.394,-8.602,-0.015,-0.014,1.028,0.000,0.000,0.000,0.3030,-5,-4,-0.55,3.05,-2.68,0.2279,-0.0052,0.2963,0.1819,0.1911,0.3000,0.2710,-14.02,21.78,48.48,1.3650,0.0000,1.4930,1.0460,2.3950,0,0.0049,0.0299,0.0000,0.0355,0.0186,0
17676,0.1929,0.0002,0.2994,0.4340,0.0482,-0.0385,0.49,4.17,-2.08,0,3.246,14.434,-13.988,-6.222,-0.007,-0.011,1.030,0.000,0.000,0.000,0.2990,-4,-9,-0.13,4.26,-3.47,0.2414,0.0082,0.2982,0.1789,0.1934,0.3000,0.2689,-12.98,22.22,62.36,1.3650,0.0000,1.4930,1.0460,2.3950,0,0.0049,0.0299,0.0000,0.0355,0.0186,0
17727,0.2104,0.0054,0.2980,0.3870,0.0515,-0.0245,1.18,4.92,-2.44,0,3.236,9.320,-6.300,-5.053,-0.008,-0.011,1.018,0.000,0.000,0.000,0.2990,8,-4,0.61,4.94,-3.84,0.2691,0.0183,0.2968,0.1758,0.1957,0.3000,0.2676,-12.67,21.69,73.07,1.3320,0.0000,1.5050,1.0460,2.4010,0,0.0049,0.0299,0.0000,0.0355,0.0186,0
17778,0.2288,0.0104,0.2977,0.3412,0.0491,-0.0132,1.87,5.37,-2.72,0,3.220,-2.676,0.336,-2.197,-0.008,-0.008,1.011,0.000,0.000,0.000,0.3020,-7,-1,1.31,5.31,-4.21,0.2801,-0.0070,0.2991,0.1727,0.1980,0.3000,0.2664,-12.61,21.26,81.53,1.3320,0.0000,1.5050,1.0460,2.4010,0,0.0049,0.0299,0.0000,0.0355,0.0186,0
17829,0.2444,0.0028,0.2993,0.2933,0.0080,0.0010,1.90,5.40,-2.87,0,3.230,-5.613,3.749,-1.832,-0.007,-0.009,1.005,0.000,0.000,0.000,0.2990,-5,-2,1.01,5.38,-3.93,0.2849,0.0151,0.3012,0.1695,0.2002,0.3000,0.2646,-15.11,20.62,85.98,1.2950,0.0000,1.5160,1.0370,2.4130,0,0.0049,0.0299,0.0000,0.0355,0.0186,0
17880,0.2563,0.0010,0.2993,0.2419,-0.0116,0.0015,1.68,5.21,-2.96,0,3.225,-14.072,7.182,-0.413,-0.001,-0.008,1.011,0.000,0.000,0.000,0.2990,4,-2,0.63,5.23,-3.68,0.2916,0.0310,0.3005,0.1664,0.2023,0.3000,0.2646,-16.18,19.45,88.72,1.2950,0.0000,1.5160,1.0370,2.4130,0,0.0049,0.0299,0.0000,0.0355,0.0186,0
17931,0.2652,0.0002,0.2993,0.1910,-0.0239,0.0033,1.18,4.95,-3.06,0,3.220,-9.767,10.306,-0.764,0.004,-0.007,1.013,0.000,0.000,0.000,0.2990,-5,-1,0.08,4.87,-4.28,0.2966,0.0162,0.3011,0.1632,0.2044,0.3000,0.2644,-16.87,18.12,91.88,1.2570,0.0000,1.5270,1.0320,2.4060,0,0.0049,0.0299,0.0000,0.0355,0.0186,0
17982,0.2703,0.0032,0.2994,0.1382,-0.0173,0.0073,0.51,4.48,-2.98,0,3.204,-2.919,11.532,-1.128,-0.002,-0.004,1.006,0.000,0.000,0.000,0.2980,-1,0,-0.54,4.36,-3.78,0.3004,0.0332,0.3009,0.1600,0.2065,0.3000,0.2639,-16.51,16.45,89.26,1.2570,0.0000,1.5270,1.0320,2.4060,0,0.0049,0.0299,0.0000,0.0355,0.0186,0
18033,0.2751,0.0042,0.2991,0.0966,-0.0146,0.0062,0.32,3.87,-3.01,0,3.209,-3.214,14.023,-0.147,0.003,-0.000,1.005,0.000,0.000,0.000,0.2930,0,-4,-0.68,3.80,-3.88,0.3004,0.0360,0.3005,0.1567,0.2085,0.3000,0.2641,-16.41,15.19,90.36,1.2120,0.0000,1.5450,1.0230,2.4150,0,0.0049,0.0299,0.0000,0.0355,0.0186,0
18085,0.2774,0.0035,0.2964,0.0582,-0.0159,-0.0060,0.22,3.18,-3.04,0,3.188,-4.876,13.359,-0.745,0.004,-0.005,1.006,0.000,0.000,0.000,0.2890,17,0,-0.79,3.01,-4.17,0.3131,0.0339,0.2992,0.1534,0.2104,0.3000,0.2659,-16.49,13.81,91.17,1.2120,0.0000,1.5450,1.0230,2.4150,0,0.0049,0.0299,0.0000,0.0355,0.0186,0
18136,0.2803,0.0033,0.2927,0.0320,-0.0141,-0.0197,0.22,2.57,-3.20,0,3.199,-7.326,14.539,-0.561,0.006,-0.009,1.012,0.000,0.000,0.000,0.2890,11,-2,-0.58,2.34,-6.62,0.3091,-0.0296,0.2984,0.1501,0.2123,0.3000,0.2681,-16.38,12.99,95.93,1.1760,0.0000,1.5530,1.0140,2.4090,0,0.0049,0.0299,0.0000,0.3085,-0.0226,0
18187,0.2813,-0.0076,0.2902,0.0101,-0.0432,-0.0231,0.07,1.86,-3.30,0,3.183,-13.490,10.403,0.685,0.006,-0.004,1.020,0.000,0.000,0.000,0.2890,5,1,-0.76,1.57,-7.71,0.3122,-0.0677,0.2935,0.1467,0.2142,0.3000,0.2689,-18.31,12.30,98.97,1.1760,0.0000,1.5530,1.0140,2.4090,0,0.0049,0.0299,0.0000,0.3085,-0.0226,0
18239,0.2840,-0.0192,0.2888,0.0034,-0.0697,-0.0169,-0.50,1.28,-3.39,0,3.194,-16.806,9.206,-0.705,0.003,-0.002,1.026,0.000,0.000,0.000,0.2880,2,0,-1.43,1.07,-7.78,0.3072,-0.0825,0.2921,0.1432,0.2160,0.3000,0.2685,-20.21,12.46,101.71,1.1450,0.0000,1.5660,1.0070,2.4150,0,0.0049,0.0299,0.0000,0.3085,-0.0226,0
18290,0.2838,-0.0239,0.2879,-0.0069,-0.0675,-0.0083,-1.36,0.81,-3.45,0,3.194,-10.669,8.913,-2.761,0.007,-0.001,1.024,0.000,0.000,0.000,0.2920,1,0,-2.34,0.58,-7.64,0.3065,-0.0868,0.2923,0.1398,0.2178,0.3000,0.2678,-20.53,12.27,103.39,1.1450,0.0000,1.5660,1.0070,2.4150,0,0.0049,0.0299,0.0000,0.3085,-0.0226,0
18341,0.2849,-0.0294,0.2899,-0.0067,-0.0619,0.0125,-1.92,0.36,-3.63,0,3.220,-5.185,2.071,-2.032,0.003,-0.000,1.026,0.000,0.000,0.000,0.2890,0,0,-2.93,0.13,-7.63,0.3061,-0.0888,0.2938,0.1364,0.2195,0.3000,0.2652,-20.88,12.72,108.83,1.1150,0.0000,1.5790,1.0050,2.4130,0,0.0049,0.0299,0.0000,0.3085,-0.0226,0
18392,0.2850,-0.0334,0.2902,-0.0069,-0.0486,0.0212,-2.20,0.16,-3.74,0,3.230,-0.483,-1.990,0.993,0.007,-0.005,1.021,0.000,0.000,0.000,0.2940,-2,0,-3.19,0.03,-7.73,0.3051,-0.0954,0.2942,0.1329,0.2211,0.3000,0.2642,-20.72,13.02,112.17,1.1150,0.0000,1.5790,1.0050,2.4130,0,0.0049,0.0299,0.0000,0.3085,-0.0226,0
18444,0.2848,-0.0349,0.2932,-0.0065,-0.0276,0.0400,-2.34,0.16,-3.72,0,3.252,1.164,-0.619,3.264,0.005,-0.006,1.023,0.000,0.000,0.000,0.2960,0,0,-3.36,0.11,-7.25,0.3076,-0.0747,0.2966,0.1294,0.2227,0.3000,0.2616,-20.19,13.40,111.46,1.1020,0.0000,1.5830,1.0030,2.4040,0,0.0049,0.0299,0.0000,0.3085,-0.0226,0
18494,0.2847,-0.0336,0.2964,-0.0056,-0.0001,0.0545,-2.37,0.16,-3.59,0,3.241,6.292,-0.060,3.061,-0.001,-0.010,1.010,0.000,0.000,0.000,0.2970,0,0,-3.30,0.13,-7.08,0.3078,-0.0743,0.2991,0.1259,0.2242,0.3000,0.2594,-19.15,13.81,107.64,1.1020,0.0000,1.5830,1.0030,2.4040,0,0.0049,0.0299,0.0000,0.3085,-0.0226,0
18545,0.2852,-0.0321,0.2990,-0.0032,0.0235,0.0599,-2.13,0.14,-3.42,0,3.262,10.874,0.061,3.257,0.004,-0.011,1.004,0.000,0.000,0.000,0.3020,1,-1,-2.99,0.12,-6.93,0.3080,-0.0727,0.3014,0.1224,0.2257,0.3000,0.2583,-18.16,14.26,102.55,1.1060,0.0000,1.5840,0.9970,2.4050,0,0.0049,0.0299,0.0000,0.3085,-0.0226,0
18596,0.2858,-0.0289,0.3029,-0.0009,0.0460,0.0654,-1.64,0.10,-3.26,0,3.252,17.938,-1.585,1.671,0.001,-0.013,0.992,0.000,0.000,0.000,0.3040,0,0,-2.35,0.09,-6.80,0.3102,-0.0835,0.3053,0.1189,0.2271,0.3000,0.2570,-17.11,14.73,97.85,1.1060,0.0000,1.5840,0.9970,2.4050,0,0.0049,0.0299,0.0000,0.3085,-0.0226,0
18648,0.2873,-0.0294,0.3061,0.0042,0.0495,0.0632,-1.03,0.09,-3.13,0,3.236,10.290,-3.835,2.284,0.004,-0.010,0.983,0.000,0.000,0.000,0.3020,-1,0,-1.44,0.17,-6.71,0.3111,-0.0827,0.3079,0.1152,0.2285,0.3000,0.2566,-17.06,15.35,93.97,1.1170,0.0000,1.5760,0.9990,2.3970,0,0.0049,0.0299,0.0000,0.3085,-0.0226,0
18699,0.2879,-0.0214,0.3060,0.0052,0.0748,0.0454,-0.55,0.21,-2.96,0,3.151,13.341,-1.438,3.948,0.004,-0.011,0.976,0.000,0.000,0.000,0.3090,-8,-1,-0.90,0.38,-6.62,0.3108,-0.0811,0.3084,0.1116,0.2298,0.3000,0.2586,-15.33,15.58,88.76,1.1170,0.0000,1.5760,0.9990,2.3970,0,0.0049,0.0299,0.0000,0.3085,-0.0226,0
18750,0.2888,-0.0146,0.3089,0.0054,0.0883,0.0399,-0.01,0.32,-2.74,0,3.199,16.387,-3.764,4.564,0.003,-0.011,0.963,0.000,0.000,0.000,0.3120,-4,0,-0.31,0.44,-6.35,0.3138,-0.0688,0.3103,0.1080,0.2311,0.3000,0.2586,-14.31,15.91,82.32,1.1360,0.0000,1.5680,1.0010,2.3900,0,0.0049,0.0299,0.0000,0.3085,-0.0226,0
18802,0.2906,-0.0088,0.3114,0.0074,0.0917,0.0272,0.85,0.37,-2.54,0,3.178,7.770,0.437,3.812,0.005,-0.015,0.974,0.000,0.000,0.000,0.3130,-1,0,0.48,0.63,-6.10,0.3150,-0.0603,0.3113,0.1044,0.2323,0.3000,0.2595,-13.75,16.32,76.10,1.1360,0.0000,1.5680,1.0010,2.3900,0,0.0049,0.0299,0.0000,0.3085,-0.0226,0
18853,0.2908,-0.0004,0.3128,0.0037,0.0967,0.0139,1.31,0.42,-2.34,0,3.135,5.831,-1.486,2.346,0.003,-0.002,0.981,0.000,0.000,0.000,0.3110,-1,0,0.89,0.61,-5.90,0.3155,-0.0567,0.3119,0.1007,0.2334,0.3000,0.2607,-12.94,16.36,70.22,1.1530,0.0000,1.5580,1.0080,2.3920,0,0.0049,0.0299,0.0000,0.3085,-0.0226,0
18904,0.2924,0.0048,0.3123,0.0040,0.0878,-0.0011,1.65,0.46,-2.21,0,3.162,9.586,-0.718,0.527,0.004,-0.007,0.988,0.000,0.000,0.000,0.3150,0,0,1.19,0.69,-5.79,0.3159,-0.0534,0.3112,0.0970,0.2345,0.3000,0.2624,-12.93,16.63,66.22,1.1530,0.0000,1.5580,1.0080,2.3920,0,0.0049,0.0299,0.0000,0.3085,-0.0226,0
18955,0.2924,0.0083,0.3133,-0.0005,0.0726,-0.0031,2.11,0.48,-2.15,0,3.167,5.533,-5.741,-0.530,0.005,-0.008,0.997,0.000,0.000,0.000,0.3130,0,0,1.68,0.73,-5.76,0.3161,-0.0503,0.3116,0.0933,0.2355,0.3000,0.2624,-13.39,16.69,64.54,1.1580,0.0000,1.5600,1.0000,2.3900,0,0.0049,0.0299,0.0000,0.3085,-0.0226,0
19007,0.2930,0.0138,0.3130,-0.0035,0.0616,-0.0084,2.35,0.69,-2.16,0,3.135,2.906,-3.959,-1.202,0.004,-0.004,0.991,0.000,0.000,0.000,0.3140,10,-2,1.96,1.02,-5.80,0.3161,-0.0481,0.3113,0.0895,0.2365,0.3000,0.2630,-13.50,16.82,64.69,1.1580,0.0000,1.5600,1.0000,2.3900,0,0.0049,0.0299,0.0000,0.3085,-0.0226,0
19059,0.2943,0.0151,0.3131,-0.0053,0.0374,-0.0083,2.63,0.88,-2.21,0,3.114,-3.431,0.303,-0.408,0.005,-0.009,0.992,0.000,0.000,0.000,0.3140,0,1,2.39,1.14,-6.23,0.3209,-0.0902,0.3107,0.0858,0.2375,0.3000,0.2630,-14.51,17.08,66.31,1.1550,0.0000,1.5600,1.0010,2.3940,0,0.0049,0.0299,0.0000,0.3085,-0.0226,0
19110,0.2957,0.0087,0.3130,-0.0085,-0.0047,-0.0107,2.56,0.90,-2.25,0,3.178,-16.885,-3.698,0.652,0.003,-0.003,1.013,0.000,0.000,0.000,0.3130,2,0,2.18,1.14,-6.17,0.3195,-0.0941,0.3116,0.0820,0.2383,0.3000,0.2633,-16.76,17.27,67.43,1.1550,0.0000,1.5600,1.0010,2.3940,0,0.0049,0.0299,0.0000,0.3085,-0.0226,0
19161,0.2969,-0.0002,0.3126,-0.0117,-0.0480,-0.0106,1.85,0.95,-2.27,0,3.178,-20.412,2.490,-1.557,0.001,-0.002,1.022,0.000,0.000,0.000,0.3090,3,0,1.31,1.34,-6.13,0.3187,-0.1014,0.3116,0.0783,0.2391,0.3000,0.2634,-19.16,17.46,68.10,1.1440,0.0000,1.5720,0.9880,2.3900,0,0.0049,0.0299,0.0000,0.3085,-0.0226,0
19212,0.2950,-0.0051,0.3106,-0.0234,-0.0697,-0.0098,0.89,0.89,-2.32,0,3.167,-14.231,5.342,-2.666,0.007,-0.005,1.015,0.000,0.000,0.000,0.3010,2,2,0.27,1.20,-6.22,0.3175,-0.1105,0.3108,0.0745,0.2399,0.3000,0.2636,-20.36,17.07,69.53,1.1440,0.0000,1.5720,0.9880,2.3900,0,0.0049,0.0299,0.0000,0.3085,-0.0226,0
19264,0.2961,-0.0152,0.3058,-0.0250,-0.0944,-0.0222,0.17,0.59,-2.47,0,3.178,-22.559,2.495,-3.407,0.006,-0.001,1.021,0.000,0.000,0.000,0.3040,13,2,-0.47,0.96,-6.23,0.3125,-0.1165,0.3082,0.0707,0.2406,0.3000,0.2659,-21.81,17.18,74.00,1.1260,0.0000,1.5850,0.9770,2.3990,0,0.0049,0.0299,0.0000,0.3085,-0.0226,0
19315,0.2951,-0.0253,0.3043,-0.0290,-0.1094,-0.0165,-0.80,0.41,-2.67,0,3.183,-21.517,5.495,-3.542,0.006,-0.001,1.022,0.000,0.000,0.000,0.3030,5,0,-1.46,0.86,-6.61,0.3039,-0.1477,0.3058,0.0670,0.2412,0.3000,0.2656,-23.03,17.22,80.08,1.1260,0.0000,1.5850,0.9770,2.3990,0,0.0049,0.0299,0.0000,0.3085,-0.0226,0
19366,0.2916,-0.0428,0.3032,-0.0373,-0.1332,-0.0080,-1.96,0.17,-2.90,0,3.204,-25.390,6.710,-3.739,0.006,-0.002,1.029,0.000,0.000,0.000,0.3050,5,1,-2.55,0.57,-6.85,0.3016,-0.1623,0.3055,0.0632,0.2418,0.3000,0.2648,-25.00,16.94,87.00,1.0980,0.0000,1.6030,0.9710,2.3890,0,0.0049,0.0299,0.0000,0.3085,-0.0226,0
19417,0.2908,-0.0542,0.3040,-0.0349,-0.1293,0.0084,-3.22,-0.15,-3.06,0,3.204,-15.608,-1.328,-1.830,0.007,-0.000,1.026,0.000,0.000,0.000,0.3100,1,0,-3.82,0.25,-7.07,0.2968,-0.1765,0.3064,0.0594,0.2423,0.3000,0.2629,-25.00,17.36,91.80,1.0980,0.0000,1.6030,0.9710,2.3890,0,0.0049,0.0299,0.0000,0.3085,-0.0226,0
19469,0.2883,-0.0604,0.3073,-0.0344,-0.1022,0.0333,-4.12,-0.15,-3.17,0,3.188,-5.726,-1.262,-1.071,0.002,-0.008,1.013,0.000,0.000,0.000,0.3110,0,0,-4.66,0.30,-7.11,0.2958,-0.1809,0.3096,0.0555,0.2427,0.3000,0.2596,-25.00,17.68,95.20,1.0720,0.0000,1.6120,0.9730,2.3970,0,0.0049,0.0299,0.0000,0.3085,-0.0226,0
19520,0.2885,-0.0604,0.3106,-0.0264,-0.0547,0.0479,-4.55,-0.11,-3.23,0,3.162,4.048,5.351,0.633,0.005,-0.004,0.994,0.000,0.000,0.000,0.3130,-1,0,-4.96,0.37,-7.16,0.2928,-0.1883,0.3123,0.0517,0.2431,0.3000,0.2574,-23.54,18.43,97.02,1.0720,0.0000,1.6120,0.9730,2.3970,0,0.0049,0.0299,0.0000,0.3085,-0.0226,0
19571,0.2879,-0.0615,0.3135,-0.0216,-0.0142,0.0503,-4.50,-0.22,-3.22,0,3.167,9.714,-3.432,-0.036,0.008,-0.007,0.985,0.000,0.000,0.000,0.3160,0,-2,-4.87,0.05,-6.97,0.2981,-0.1748,0.3144,0.0479,0.2435,0.3000,0.2566,-21.99,18.91,96.70,1.0680,0.0000,1.6090,0.9660,2.3950,0,0.0049,0.0299,0.0000,0.3085,-0.0226,0
19622,0.2878,-0.0558,0.3165,-0.0154,0.0378,0.0458,-4.10,-0.10,-3.18,0,3.151,17.278,-0.428,-0.807,0.003,-0.013,0.978,0.000,0.000,0.000,0.3170,-2,-1,-4.38,0.18,-6.83,0.3023,-0.1748,0.3165,0.0440,0.2437,0.3000,0.2565,-19.41,19.43,95.40,1.0680,0.0000,1.6090,0.9660,2.3950,0,0.0049,0.0299,0.0000,0.3085,-0.0226,0
19673,0.2894,-0.0499,0.3182,-0.0070,0.0800,0.0337,-3.24,-0.02,-3.17,0,3.146,21.692,-5.371,0.258,0.007,-0.009,0.977,0.000,0.000,0.000,0.3160,-8,-1,-3.52,0.19,-6.79,0.3054,-0.1697,0.3174,0.0402,0.2440,0.3000,0.2575,-17.10,20.07,95.07,1.0850,0.0000,1.6010,0.9790,2.3930,0,0.0049,0.0299,0.0000,0.3085,-0.0226,0
19724,0.2896,-0.0421,0.3182,-0.0042,0.1150,0.0158,-2.25,0.16,-3.16,0,3.114,27.500,-5.805,0.764,0.002,-0.010,0.976,0.000,0.000,0.000,0.3140,-4,1,-2.53,0.44,-6.68,0.3106,-0.1494,0.3163,0.0364,0.2441,0.3000,0.2594,-14.88,20.31,94.78,1.0850,0.0000,1.6010,0.9790,2.3930,0,0.0049,0.0299,0.0000,0.3085,-0.0226,0
19776,0.2923,-0.0277,0.3165,0.0027,0.1539,-0.0059,-0.99,0.41,-3.11,0,3.125,28.829,-3.812,1.181,0.003,-0.011,0.989,0.000,0.000,0.000,0.3120,-5,-1,-1.15,0.76,-6.73,0.3095,-0.1377,0.3148,0.0325,0.2442,0.3000,0.2621,-12.00,20.81,93.43,1.1120,0.0000,1.5800,0.9970,2.3890,0,0.0049,0.0299,0.0000,0.3085,-0.0226,0
19826,0.2933,-0.0209,0.3140,0.0021,0.1594,-0.0240,0.47,0.50,-3.05,0,3.146,29.423,-5.305,0.837,0.007,-0.014,1.004,0.000,0.000,0.000,0.3090,-4,1,0.31,0.94,-6.59,0.3140,-0.1234,0.3127,0.0288,0.2443,0.3000,0.2645,-11.14,20.91,91.44,1.1120,0.0000,1.5800,0.9970,2.3890,0,0.0049,0.0299,0.0000,0.3085,-0.0226,0
19877,0.2965,-0.0087,0.3106,0.0052,0.1657,-0.0348,1.73,0.71,-3.00,0,3.172,17.156,-6.815,1.614,0.008,-0.017,1.020,0.000,0.000,0.000,0.3110,0,0,1.76,1.23,-6.60,0.3127,-0.1112,0.3105,0.0249,0.2443,0.3000,0.2663,-9.91,21.33,90.04,1.1350,0.0000,1.5650,1.0060,2.3890,0,0.0049,0.0299,0.0000,0.3085,-0.0226,0
19928,0.2976,0.0027,0.3095,0.0011,0.1601,-0.0278,2.48,0.99,-2.93,0,3.178,15.859,-2.656,2.100,0.005,-0.014,1.025,0.000,0.000,0.000,0.3120,-4,0,2.64,1.58,-6.53,0.3131,-0.1024,0.3101,0.0211,0.2442,0.3000,0.2658,-9.35,21.51,87.83,1.1350,0.0000,1.5650,1.0060,2.3890,0,0.0049,0.0299,0.0000,0.3085,-0.0226,0
19979,0.2970,0.0138,0.3099,-0.0098,0.1472,-0.0079,3.24,1.09,-2.81,0,3.172,14.928,1.040,4.555,0.007,-0.013,1.024,0.000,0.000,0.000,0.3100,0,0,3.46,1.70,-6.44,0.3156,-0.0981,0.3108,0.0173,0.2441,0.3000,0.2636,-9.21,21.42,84.36,1.1600,0.0000,1.5520,1.0160,2.3930,0,0.0049,0.0299,0.0000,0.3085,-0.0226,0
20030,0.2981,0.0195,0.3099,-0.0161,0.1169,0.0047,3.92,1.03,-2.60,0,3.157,5.985,0.716,3.480,0.003,-0.011,1.014,0.000,0.000,0.000,0.3120,2,0,4.22,1.66,-6.20,0.3149,-0.0932,0.3111,0.0134,0.2439,0.3000,0.2622,-10.18,21.57,77.98,1.1600,0.0000,1.5520,1.0160,2.3930,0,0.0049,0.0299,0.0000,0.3085,-0.0226,0
20082,0.2968,0.0206,0.3112,-0.0270,0.0738,0.0160,4.21,0.97,-2.40,0,3.162,-10.391,6.679,2.572,0.005,-0.005,1.001,0.000,0.000,0.000,0.3130,0,0,4.61,1.59,-6.24,0.3159,-0.1051,0.3118,0.0096,0.2436,0.3000,0.2607,-12.07,21.39,72.13,1.1770,0.0000,1.5400,1.0230,2.3960,0,0.0049,0.0299,0.0000,0.3085,-0.0226,0
20132,0.2933,0.0319,0.3128,-0.0415,0.0588,0.0200,3.63,0.70,-2.22,0,3.141,-4.736,12.063,2.579,0.004,0.003,0.998,0.000,0.000,0.000,0.3100,10,-1,4.06,1.26,-6.08,0.3141,-0.1070,0.3128,0.0058,0.2433,0.3000,0.2600,-11.94,20.85,66.52,1.1770,0.0000,1.5400,1.0230,2.3960,0,0.0049,0.0299,0.0000,0.3085,-0.0226,0
20184,0.2916,0.0178,0.3121,-0.0471,-0.0108,0.0106,3.61,0.13,-2.07,0,3.220,-24.325,2.428,2.018,0.002,-0.006,1.011,0.000,0.000,0.000,0.3110,7,0,3.99,0.56,-6.49,0.3161,-0.1382,0.3102,0.0020,0.2429,0.3000,0.2611,-15.87,20.67,62.01,1.1860,0.0000,1.5370,1.0200,2.3920,0,0.0049,0.0299,0.0000,0.3085,-0.0226,0
20235,0.2935,0.0026,0.3120,-0.0393,-0.0725,0.0078,2.71,-0.09,-1.96,0,3.188,-46.607,2.713,2.408,0.002,-0.003,1.016,0.000,0.000,0.000,0.3150,5,1,2.77,0.43,-6.46,0.3139,-0.1556,0.3095,-0.0018,0.2425,0.3000,0.2615,-19.41,21.32,58.95,1.1860,0.0000,1.5370,1.0200,2.3920,0,0.0049,0.0299,0.0000,0.3085,-0.0226,0
20286,0.2922,-0.0121,0.3138,-0.0378,-0.1200,0.0216,0.68,-0.14,-1.86,0,3.157,-34.234,2.657,1.978,0.005,0.001,0.994,0.000,0.000,0.000,0.3110,6,1,0.40,0.31,-6.27,0.3101,-0.1701,0.3117,-0.0056,0.2420,0.3000,0.2596,-22.36,21.67,55.72,1.1840,0.0000,1.5420,1.0100,2.3890,0,0.0049,0.0299,0.0000,0.3085,-0.0226,0
20338,0.2894,-0.0231,0.3135,-0.0388,-0.1377,0.0177,-0.91,-0.28,-1.75,0,3.141,-27.166,-2.302,2.317,0.002,-0.009,0.993,0.000,0.000,0.000,0.3130,8,1,-1.32,0.19,-6.13,0.3058,-0.1871,0.3117,-0.0095,0.2415,0.3000,0.2601,-23.62,21.65,52.52,1.1840,0.0000,1.5420,1.0100,2.3890,0,0.0049,0.0299,0.0000,0.3085,-0.0226,0
20390,0.2873,-0.0302,0.3138,-0.0367,-0.1308,0.0128,-2.27,-0.19,-1.64,0,3.157,-25.590,-3.050,3.211,0.003,-0.003,0.998,0.000,0.000,0.000,0.3130,3,0,-2.68,0.31,-6.00,0.3007,-0.2092,0.3118,-0.0133,0.2409,0.3000,0.2606,-23.65,21.81,49.27,1.1860,0.0000,1.5490,1.0030,2.3850,0,0.0049,0.0299,0.0000,0.3085,-0.0226,0
20442,0.2837,-0.0380,0.3139,-0.0387,-0.1153,0.0078,-3.50,0.02,-1.46,0,3.188,-12.823,0.560,5.068,0.005,-0.005,1.007,0.000,0.000,0.000,0.3190,1,1,-4.04,0.45,-5.84,0.2992,-0.2198,0.3129,-0.0172,0.2402,0.3000,0.2611,-23.38,21.70,43.71,1.1860,0.0000,1.5490,1.0030,2.3850,0,0.0049,0.0299,0.0000,0.3085,-0.0226,0
20493,0.2824,-0.0460,0.3166,-0.0367,-0.0923,0.0197,-4.11,-0.01,-1.20,0,3.215,-10.693,1.446,5.471,0.003,-0.009,1.009,0.000,0.000,0.000,0.3190,8,0,-4.76,0.41,-5.55,0.2959,-0.2243,0.3156,-0.0210,0.2395,0.3000,0.2593,-22.99,22.06,36.11,1.1880,0.0000,1.5540,1.0050,2.3920,0,0.0049,0.0299,0.0000,0.3085,-0.0226,0
20544,0.2788,-0.0378,0.3186,-0.0399,-0.0282,0.0258,-4.73,-0.10,-0.93,0,3.194,1.011,2.057,5.423,0.006,-0.009,1.010,0.000,0.000,0.000,0.3210,2,0,-5.22,0.30,-5.30,0.2933,-0.2470,0.3177,-0.0247,0.2387,0.3000,0.2583,-19.81,22.01,27.85,1.1880,0.0000,1.5540,1.0050,2.3920,0,0.0049,0.0299,0.0000,0.3085,-0.0226,0
20595,0.2769,-0.0396,0.3207,-0.0384,0.0097,0.0331,-4.73,-0.26,-0.67,0,3.199,15.937,4.567,3.765,0.005,-0.013,0.991,0.000,0.000,0.000,0.3200,-5,0,-5.18,0.16,-5.01,0.2925,-0.2537,0.3201,-0.0285,0.2379,0.3000,0.2571,-18.29,22.27,19.98,1.2150,0.0000,1.5430,0.9980,2.3920,0,0.0049,0.0299,0.0000,0.3085,-0.0226,0
20647,0.2765,-0.0455,0.3217,-0.0323,0.0326,0.0277,-3.91,-0.45,-0.44,0,3.188,11.782,-2.317,5.106,0.005,-0.012,0.980,0.000,0.000,0.000,0.3200,0,0,-4.50,-0.10,-4.80,0.2936,-0.2402,0.3214,-0.0322,0.2370,0.3000,0.2575,-17.54,22.69,13.32,1.2150,0.0000,1.5430,0.9980,2.3920,0,0.0049,0.0299,0.0000,0.3085,-0.0226,0
20699,0.2773,-0.0447,0.3217,-0.0231,0.0610,0.0135,-3.30,-0.40,-0.23,0,3.209,5.775,-4.027,3.644,0.009,-0.016,0.985,0.000,0.000,0.000,0.3200,2,0,-3.89,-0.00,-4.53,0.2924,-0.2415,0.3215,-0.0360,0.2360,0.3000,0.2590,-16.04,23.21,6.94,1.2330,0.0000,1.5260,1.0150,2.3900,0,0.0049,0.0299,0.0000,0.3085,-0.0226,0
20751,0.2768,-0.0452,0.3213,-0.0182,0.0795,0.0000,-2.92,-0.24,-0.05,0,3.194,4.643,-2.976,1.916,0.007,-0.016,0.990,0.000,0.000,0.000,0.3210,-9,0,-3.54,0.18,-4.25,0.2934,-0.2501,0.3215,-0.0398,0.2350,0.3000,0.2605,-15.06,23.47,1.51,1.2330,0.0000,1.5260,1.0150,2.3900,0,0.0049,0.0299,0.0000,0.3085,-0.0226,0
20803,0.2781,-0.0459,0.3210,-0.0112,0.0922,-0.0069,-2.80,-0.14,0.06,0,3.204,4.435,-1.944,4.147,0.004,-0.019,0.995,0.000,0.000,0.000,0.3170,-7,0,-3.43,0.33,-4.18,0.2948,-0.2292,0.3207,-0.0435,0.2339,0.3000,0.2613,-14.38,23.97,-1.72,1.2680,0.0000,1.5030,1.0370,2.3860,0,0.0049,0.0299,0.0000,0.3085,-0.0226,0
20854,0.2774,-0.0334,0.3187,-0.0106,0.1318,-0.0217,-2.60,-0.01,0.23,0,3.188,15.302,-2.259,4.572,0.004,-0.020,0.996,0.000,0.000,0.000,0.3180,-5,0,-3.29,0.42,-3.97,0.2960,-0.2110,0.3179,-0.0472,0.2328,0.3000,0.2634,-11.55,24.00,-6.78,1.2680,0.0000,1.5030,1.0370,2.3860,0,0.0049,0.0299,0.0000,0.3085,-0.0226,0
20906,0.2772,-0.0221,0.3175,-0.0100,0.1624,-0.0237,-1.88,0.11,0.44,0,3.194,18.130,-3.804,5.156,0.011,-0.020,0.997,0.000,0.000,0.000,0.3130,-5,1,-2.55,0.52,-3.74,0.2969,-0.1965,0.3164,-0.0509,0.2316,0.3000,0.2638,-9.24,24.18,-13.30,1.3060,0.0000,1.4700,1.0620,2.3870,0,0.0049,0.0299,0.0000,0.3085,-0.0226,0
20958,0.2773,-0.0053,0.3143,-0.0098,0.1963,-0.0350,-1.04,0.23,0.68,0,3.183,17.938,0.854,3.885,0.005,-0.026,1.001,0.000,0.000,0.000,0.3100,-4,0,-1.64,0.73,-3.54,0.2950,-0.1817,0.3136,-0.0546,0.2303,0.3000,0.2656,-6.35,24.25,-20.48,1.3060,0.0000,1.4700,1.0620,2.3870,0,0.0049,0.0299,0.0000,0.3085,-0.0226,0
21009,0.2768,0.0026,0.3110,-0.0117,0.1986,-0.0425,-0.04,0.28,0.90,0,3.194,16.126,0.191,3.425,0.011,-0.020,1.006,0.000,0.000,0.000,0.3060,-5,0,-0.71,0.67,-3.32,0.2957,-0.1697,0.3111,-0.0582,0.2290,0.3000,0.2671,-5.53,24.22,-26.91,1.3320,0.0000,1.4470,1.0770,2.3910,0,0.0049,0.0299,0.0000,0.3085,-0.0226,0
21061,0.2776,0.0107,0.3070,-0.0107,0.1931,-0.0493,0.85,0.23,1.07,0,3.183,9.010,-2.021,3.442,0.009,-0.018,1.011,0.000,0.000,0.000,0.3120,-2,0,0.08,0.66,-3.13,0.2965,-0.1547,0.3078,-0.0618,0.2277,0.3000,0.2686,-5.06,24.38,-32.08,1.3320,0.0000,1.4470,1.0770,2.3910,0,0.0049,0.0299,0.0000,0.3085,-0.0226,0
21112,0.2773,0.0222,0.3077,-0.0120,0.1892,-0.0292,1.36,0.28,1.24,0,3.199,5.255,-1.227,3.248,0.012,-0.022,1.012,0.000,0.000,0.000,0.3050,-4,-1,0.58,0.76,-2.95,0.2968,-0.1481,0.3082,-0.0653,0.2263,0.3000,0.2662,-4.34,24.69,-37.21,1.3560,0.0000,1.4220,1.1080,2.3900,0,0.0049,0.0299,0.0000,0.3085,-0.0226,0
