time_ms,pos_x,pos_y,pos_z,vel_x,vel_y,vel_z,roll,pitch,yaw,thrust,vbat,gyro_x,gyro_y,gyro_z,acc_x,acc_y,acc_z,rate_roll,rate_pitch,rate_yaw,range_z,flow_dx,flow_dy,mekf_roll,mekf_pitch,mekf_yaw,mekf_x,mekf_y,mekf_z,our_ref_x,our_ref_y,our_ref_z,our_thrust,our_roll_cmd,our_pitch_cmd,our_yaw_rate_cmd,multi_front,multi_back,multi_left,multi_right,multi_up,ai_feat_count,vo_x,vo_y,vo_sigma,pg_x,pg_y,lc_count
0,0.1973,0.5065,0.0090,0.0015,0.0042,-0.0003,0.84,-0.36,-27.28,0,3.663,-0.040,-0.171,0.190,-0.005,0.015,1.000,0.000,0.000,0.000,0.0090,0,2,0.00,0.00,0.00,0.0000,0.0000,0.0000,0.0000,0.0000,0.0000,0.0000,0.00,0.00,0.00,0.0000,0.2010,1.1210,0.6550,2.7090,256,0.0000,0.0000,0.0000,0.0000,0.0000,0
101,0.1970,0.5068,0.0090,-0.0005,0.0046,-0.0010,0.85,-0.34,-27.15,0,3.669,0.019,0.179,-0.141,-0.005,0.016,0.999,0.000,0.000,0.000,0.0090,0,3,0.00,0.00,0.00,0.0000,0.0000,0.0000,0.0000,0.0000,0.0000,0.0000,0.00,0.00,0.00,2.0850,0.0000,1.1210,0.6550,2.7090,247,0.0000,0.0000,0.0000,0.0000,0.0000,0
202,0.1973,0.5065,0.0090,0.0013,0.0035,-0.0016,0.85,-0.31,-27.01,0,3.669,-0.066,-0.093,-0.002,-0.006,0.016,0.999,0.000,0.000,0.000,0.0100,0,1,0.00,0.00,0.00,0.0000,0.0000,0.0000,0.0000,0.0000,0.0000,0.0000,0.00,0.00,0.00,2.0850,0.0000,1.1220,0.6310,2.6940,252,0.0000,0.0000,0.0000,0.0000,0.0000,0
304,0.1962,0.5066,0.0094,-0.0033,0.0034,0.0006,0.86,-0.36,-26.88,0,3.658,-0.132,0.078,-0.030,-0.007,0.018,0.995,0.000,0.000,0.000,0.0080,0,3,0.00,0.00,0.00,0.0000,0.0000,0.0000,0.0000,0.0000,0.0000,0.0000,0.00,0.00,0.00,2.1320,0.1970,1.1220,0.6310,2.6940,240,0.0000,0.0000,0.0000,0.0000,0.0000,0
406,0.1969,0.5065,0.0088,0.0005,0.0033,-0.0034,0.86,-0.35,-26.75,0,3.669,0.027,-0.033,0.345,-0.004,0.017,0.998,0.000,0.000,0.000,0.0090,0,-3,0.00,0.00,0.00,0.0000,0.0000,0.0000,0.0000,0.0000,0.0000,0.0000,0.00,0.00,0.00,2.1320,0.1970,1.1230,0.5800,2.7110,270,0.0000,0.0000,0.0000,0.0000,0.0000,0
507,0.1965,0.5067,0.0088,-0.0009,0.0044,-0.0032,0.85,-0.33,-26.61,0,3.669,-0.089,0.075,0.052,-0.008,0.019,0.998,0.000,0.000,0.000,0.0100,1,4,0.00,0.00,0.00,0.0000,0.0000,0.0000,0.0000,0.0000,0.0000,0.0000,0.00,0.00,0.00,0.0000,0.1870,1.1230,0.5800,2.7110,270,0.0000,0.0000,0.0000,0.0000,0.0000,0
609,0.1961,0.5065,0.0092,-0.0022,0.0042,-0.0009,0.86,-0.35,-26.48,0,3.669,-0.021,-0.211,0.016,-0.007,0.016,0.997,0.000,0.000,0.000,0.0080,0,0,0.00,0.00,0.00,0.0000,0.0000,0.0000,0.0000,0.0000,0.0000,0.0000,0.00,0.00,0.00,0.0000,0.1870,1.1190,0.0000,2.7160,222,0.0000,0.0000,0.0000,0.0000,0.0000,0
709,0.1964,0.5067,0.0086,-0.0013,0.0051,-0.0045,0.86,-0.35,-26.35,0,3.669,-0.086,0.057,0.074,-0.006,0.016,0.998,0.000,0.000,0.000,0.0110,-3,1,0.00,0.00,0.00,0.0000,0.0000,0.0000,0.0000,0.0000,0.0000,0.0000,0.00,0.00,0.00,0.0000,0.1970,1.1190,0.0000,2.7160,277,0.0000,0.0000,0.0000,0.0000,0.0000,0
810,0.1963,0.5065,0.0095,-0.0022,0.0037,0.0003,0.84,-0.35,-26.22,0,3.669,-0.135,-0.106,-0.025,-0.006,0.016,1.000,0.000,0.000,0.000,0.0110,0,2,0.00,0.00,0.00,0.0000,0.0000,0.0000,0.0000,0.0000,0.0000,0.0000,0.00,0.00,0.00,0.0000,0.1970,1.1220,0.0000,0.0000,299,0.0000,0.0000,0.0000,0.0000,0.0000,0
912,0.1969,0.5065,0.0101,0.0008,0.0034,0.0034,0.85,-0.35,-26.09,0,3.663,-0.137,0.260,0.418,-0.006,0.014,0.996,0.000,0.000,0.000,0.0120,0,0,0.00,0.00,0.00,0.0000,0.0000,0.0000,0.0000,0.0000,0.0000,0.0000,0.00,0.00,0.00,2.0930,0.2010,1.1220,0.0000,0.0000,372,0.0000,0.0000,0.0000,0.0000,0.0000,0
1014,0.1972,0.5064,0.0110,0.0013,0.0027,0.0059,0.84,-0.36,-25.96,0,3.663,0.032,0.003,-0.061,-0.006,0.016,1.000,0.000,0.000,0.000,0.0100,2,0,0.00,0.00,0.00,0.0000,0.0000,0.0000,0.0000,0.0000,0.0000,0.0000,0.00,0.00,0.00,2.0930,0.2010,1.1230,0.6600,2.6980,372,0.0000,0.0000,0.0000,0.0000,0.0000,0
1114,0.1973,0.5067,0.0107,0.0019,0.0043,0.0020,0.85,-0.36,-25.83,0,3.669,-0.138,0.324,-0.009,-0.007,0.016,0.998,0.000,0.000,0.000,0.0090,0,4,0.00,0.00,0.00,0.0000,0.0000,0.0000,0.0000,0.0000,0.0000,0.0000,0.00,0.00,0.00,0.0000,0.1980,1.1230,0.6600,2.6980,382,0.0000,0.0000,0.0000,0.0000,0.0000,0
1215,0.1972,0.5064,0.0101,0.0008,0.0033,-0.0024,0.84,-0.32,-25.70,0,3.669,-0.157,-0.157,-0.284,-0.008,0.017,1.001,0.000,0.000,0.000,0.0070,0,0,0.00,0.00,0.00,0.0000,0.0000,0.0000,0.0000,0.0000,0.0000,0.0000,0.00,0.00,0.00,0.0000,0.1980,1.1200,0.5930,2.7110,74,0.0000,0.0000,0.0000,0.0000,0.0000,0
1316,0.1971,0.5062,0.0087,0.0001,0.0023,-0.0095,0.84,-0.36,-25.57,0,3.663,-0.032,-0.038,-0.179,-0.006,0.017,0.999,0.000,0.000,0.000,0.0070,0,-3,0.00,0.00,0.00,0.0000,0.0000,0.0000,0.0000,0.0000,0.0000,0.0000,0.00,0.00,0.00,0.0000,0.1890,1.1200,0.5930,2.7110,0,0.0000,0.0000,0.0000,0.0000,0.0000,0
1417,0.1969,0.5067,0.0076,-0.0006,0.0047,-0.0128,0.84,-0.35,-25.45,0,3.663,0.013,0.009,-0.048,-0.005,0.019,0.999,0.000,0.000,0.000,0.0080,0,-2,0.00,0.00,0.00,0.0000,0.0000,0.0000,0.0000,0.0000,0.0000,0.0000,0.00,0.00,0.00,0.0000,0.1890,1.1190,0.6110,2.6950,211,0.0000,0.0000,0.0000,0.0000,0.0000,0
1518,0.1963,0.5070,0.0074,-0.0031,0.0065,-0.0109,0.84,-0.35,-25.32,0,3.674,-0.052,-0.052,-0.220,-0.007,0.015,1.000,0.000,0.000,0.000,0.0090,0,0,0.00,0.00,0.00,0.0000,0.0000,0.0000,0.0000,0.0000,0.0000,0.0000,0.00,0.00,0.00,0.0000,0.1980,1.1190,0.6110,2.6950,253,0.0000,0.0000,0.0000,0.0000,0.0000,0
1570,0.1973,0.5067,0.0077,0.0014,0.0044,-0.0063,0.84,-0.32,-25.20,0,3.663,-0.243,0.030,0.272,-0.004,0.017,1.001,0.000,0.000,0.000,0.0060,-1,0,0.00,0.00,0.00,0.0000,0.0000,0.0000,0.0000,0.0000,0.0000,0.0000,0.00,0.00,0.00,0.0000,0.1980,1.1240,0.0000,0.0000,253,0.0000,0.0000,0.0000,0.0000,0.0000,0
1620,0.1969,0.5068,0.0068,0.0004,0.0042,-0.0096,0.84,-0.32,-25.08,0,3.669,-0.041,0.111,0.356,-0.007,0.018,1.000,0.000,0.000,0.000,0.0090,-1,2,0.00,0.00,0.00,0.0000,0.0000,0.0000,0.0000,0.0000,0.0000,0.0000,0.00,0.00,0.00,0.0000,0.1960,1.1240,0.0000,0.0000,253,0.0000,0.0000,0.0000,0.0000,0.0000,0
1672,0.1970,0.5060,0.0074,0.0004,0.0007,-0.0046,0.86,-0.32,-24.95,0,3.658,-0.158,0.051,0.003,-0.006,0.018,0.999,0.000,0.000,0.000,0.0110,0,0,0.00,0.00,0.00,0.0000,0.0000,0.0000,0.0000,0.0000,0.0000,0.0000,0.00,0.00,0.00,0.0000,0.1960,1.1230,0.0000,2.7010,253,0.0000,0.0000,0.0000,0.0000,0.0000,0
1723,0.1959,0.5068,0.0088,-0.0042,0.0047,0.0038,0.84,-0.36,-24.83,0,3.669,0.111,0.027,0.253,-0.010,0.017,1.000,0.000,0.000,0.000,0.0080,0,2,0.00,0.00,0.00,0.0000,0.0000,0.0000,0.0000,0.0000,0.0000,0.0000,0.00,0.00,0.00,0.0000,0.2000,1.1230,0.0000,2.7010,228,0.0000,0.0000,0.0000,0.0000,0.0000,0
1773,0.1965,0.5066,0.0086,-0.0016,0.0041,0.0019,0.85,-0.36,-24.70,0,3.663,-0.104,-0.118,-0.082,-0.008,0.015,0.999,0.000,0.000,0.000,0.0070,0,1,0.00,0.00,0.00,0.0000,0.0000,0.0000,0.0000,0.0000,0.0000,0.0000,0.00,0.00,0.00,0.0000,0.2000,1.1200,0.5960,0.0000,348,0.0000,0.0000,0.0000,0.0000,0.0000,0
1824,0.1966,0.5068,0.0080,-0.0006,0.0048,-0.0027,0.83,-0.33,-24.58,0,3.663,0.020,0.100,0.018,-0.007,0.015,0.999,0.000,0.000,0.000,0.0110,0,0,0.00,0.00,0.00,0.0000,0.0000,0.0000,0.0000,0.0000,0.0000,0.0000,0.00,0.00,0.00,0.0000,0.2010,1.1200,0.5960,0.0000,348,0.0000,0.0000,0.0000,0.0000,0.0000,0
1875,0.1972,0.5065,0.0092,0.0019,0.0029,0.0041,0.83,-0.34,-24.46,0,3.658,-0.211,0.310,-0.107,-0.007,0.017,0.999,0.000,0.000,0.000,0.0070,0,2,0.00,0.00,0.00,0.0000,0.0000,0.0000,0.0000,0.0000,0.0000,0.0000,0.00,0.00,0.00,0.0000,0.2010,1.1260,0.0000,2.6940,348,0.0000,0.0000,0.0000,0.0000,0.0000,0
1926,0.1971,0.5063,0.0084,0.0013,0.0023,-0.0020,0.84,-0.36,-24.34,0,3.663,0.206,0.018,0.033,-0.007,0.017,1.000,0.000,0.000,0.000,0.0080,0,4,0.00,0.00,0.00,0.0000,0.0000,0.0000,0.0000,0.0000,0.0000,0.0000,0.00,0.00,0.00,0.0000,0.1900,1.1260,0.0000,2.6940,180,0.0000,0.0000,0.0000,0.0000,0.0000,0
1977,0.1972,0.5066,0.0081,0.0021,0.0038,-0.0030,0.83,-0.36,-24.22,0,3.663,-0.370,0.031,-0.091,-0.008,0.017,0.996,0.000,0.000,0.000,0.0110,0,-4,0.00,0.00,0.00,0.0000,0.0000,0.0000,0.0000,0.0000,0.0000,0.0000,0.00,0.00,0.00,0.0000,0.1900,1.1230,0.0000,2.6910,180,0.0000,0.0000,0.0000,0.0000,0.0000,0
2029,0.1961,0.5067,0.0093,-0.0032,0.0046,0.0030,0.83,-0.37,-24.10,0,3.669,-0.332,0.087,0.029,-0.004,0.017,0.999,0.000,0.000,0.000,0.0070,0,0,0.00,0.00,0.00,0.0000,0.0000,0.0000,0.0000,0.0000,0.0000,0.0000,0.00,0.00,0.00,0.0000,0.1920,1.1230,0.0000,2.6910,33,0.0000,0.0000,0.0000,0.0000,0.0000,0
2080,0.1972,0.5066,0.0084,0.0021,0.0043,-0.0029,0.82,-0.36,-23.98,0,3.663,-0.124,-0.118,0.156,-0.008,0.018,0.999,0.000,0.000,0.000,0.0070,2,0,0.00,0.00,0.00,0.0000,0.0000,0.0000,0.0000,0.0000,0.0000,0.0000,0.00,0.00,0.00,0.0000,0.1920,1.1200,0.0000,2.7080,33,0.0000,0.0000,0.0000,0.0000,0.0000,0
2131,0.1973,0.5069,0.0077,0.0024,0.0058,-0.0057,0.85,-0.32,-23.86,0,3.663,-0.181,0.020,-0.276,-0.006,0.017,0.999,0.000,0.000,0.000,0.0100,0,0,0.00,0.00,0.00,0.0000,0.0000,0.0000,0.0000,0.0000,0.0000,0.0000,0.00,0.00,0.00,0.0000,0.0000,1.1200,0.0000,2.7080,33,0.0000,0.0000,0.0000,0.0000,0.0000,0
2183,0.1961,0.5068,0.0085,-0.0040,0.0057,-0.0006,0.83,-0.36,-23.74,0,3.663,-0.066,-0.095,-0.142,-0.007,0.015,0.997,0.000,0.000,0.000,0.0100,0,0,0.00,0.00,0.00,0.0000,0.0000,0.0000,0.0000,0.0000,0.0000,0.0000,0.00,0.00,0.00,0.0000,0.0000,1.1210,0.0000,2.6970,33,0.0000,0.0000,0.0000,0.0000,0.0000,0
2234,0.1960,0.5068,0.0091,-0.0042,0.0055,0.0022,0.84,-0.35,-23.63,0,3.669,-0.268,0.053,0.261,-0.006,0.018,0.998,0.000,0.000,0.000,0.0090,0,0,0.00,0.00,0.00,0.0000,0.0000,0.0000,0.0000,0.0000,0.0000,0.0000,0.00,0.00,0.00,0.0000,0.1940,1.1210,0.0000,2.6970,25,0.0000,0.0000,0.0000,0.0000,0.0000,0
2285,0.1972,0.5067,0.0091,0.0022,0.0045,0.0013,0.82,-0.36,-23.51,0,3.663,-0.476,0.056,-0.088,-0.008,0.017,0.999,0.000,0.000,0.000,0.0070,1,0,0.00,0.00,0.00,0.0000,0.0000,0.0000,0.0000,0.0000,0.0000,0.0000,0.00,0.00,0.00,0.0000,0.1940,1.1260,0.5560,2.7060,25,0.0000,0.0000,0.0000,0.0000,0.0000,0
2336,0.1962,0.5069,0.0083,-0.0030,0.0053,-0.0045,0.80,-0.31,-23.39,0,3.663,-0.105,-0.062,-0.042,-0.009,0.018,0.995,0.000,0.000,0.000,0.0070,-2,3,0.00,0.00,0.00,0.0000,0.0000,0.0000,0.0000,0.0000,0.0000,0.0000,0.00,0.00,0.00,0.0000,0.1970,1.1260,0.5560,2.7060,167,0.0000,0.0000,0.0000,0.0000,0.0000,0
2388,0.1973,0.5069,0.0076,0.0024,0.0053,-0.0078,0.83,-0.35,-23.28,0,3.663,-0.196,0.001,0.198,-0.007,0.016,0.999,0.000,0.000,0.000,0.0070,-1,-3,0.00,0.00,0.00,0.0000,0.0000,0.0000,0.0000,0.0000,0.0000,0.0000,0.00,0.00,0.00,0.0000,0.1970,1.1260,0.5560,2.7030,167,0.0000,0.0000,0.0000,0.0000,0.0000,0
2438,0.1959,0.5071,0.0071,-0.0042,0.0057,-0.0096,0.83,-0.36,-23.16,0,3.663,0.047,0.410,-0.039,-0.007,0.018,0.999,0.000,0.000,0.000,0.0070,0,3,0.00,0.00,0.00,0.0000,0.0000,0.0000,0.0000,0.0000,0.0000,0.0000,0.00,0.00,0.00,1.7160,0.1920,1.1260,0.5560,2.7030,167,0.0000,0.0000,0.0000,0.0000,0.0000,0
2490,0.1973,0.5070,0.0068,0.0021,0.0052,-0.0093,0.84,-0.35,-23.05,0,3.663,0.016,-0.171,-0.107,-0.008,0.017,0.999,0.000,0.000,0.000,0.0120,-2,-1,0.00,0.00,0.00,0.0000,0.0000,0.0000,0.0000,0.0000,0.0000,0.0000,0.00,0.00,0.00,1.7160,0.1920,1.1200,0.6720,2.6920,167,0.0000,0.0000,0.0000,0.0000,0.0000,0
2541,0.1968,0.5066,0.0087,-0.0002,0.0038,0.0027,0.84,-0.36,-22.93,0,3.669,0.090,-0.017,0.196,-0.007,0.018,0.998,0.000,0.000,0.000,0.0090,-2,0,0.00,0.00,0.00,0.0000,0.0000,0.0000,0.0000,0.0000,0.0000,0.0000,0.00,0.00,0.00,0.0000,0.1980,1.1200,0.6720,2.6920,266,0.0000,0.0000,0.0000,0.0000,0.0000,0
2592,0.1971,0.5065,0.0089,0.0012,0.0032,0.0022,0.86,-0.36,-22.82,0,3.663,0.002,-0.150,-0.069,-0.007,0.016,0.998,0.000,0.000,0.000,0.0080,0,3,0.00,0.00,0.00,0.0000,0.0000,0.0000,0.0000,0.0000,0.0000,0.0000,0.00,0.00,0.00,0.0000,0.1980,1.1200,0.0000,0.0000,279,0.0000,0.0000,0.0000,0.0000,0.0000,0
2643,0.1972,0.5069,0.0086,0.0017,0.0050,-0.0005,0.85,-0.35,-22.70,0,3.663,-0.160,-0.361,-0.019,-0.004,0.019,0.999,0.000,0.000,0.000,0.0080,1,0,0.00,0.00,0.00,0.0000,0.0000,0.0000,0.0000,0.0000,0.0000,0.0000,0.00,0.00,0.00,0.0000,0.1940,1.1200,0.0000,0.0000,279,0.0000,0.0000,0.0000,0.0000,0.0000,0
2695,0.1968,0.5067,0.0083,0.0003,0.0039,-0.0022,0.85,-0.36,-22.59,0,3.663,0.134,-0.008,0.039,-0.007,0.015,0.996,0.000,0.000,0.000,0.0100,0,3,0.00,0.00,0.00,0.0000,0.0000,0.0000,0.0000,0.0000,0.0000,0.0000,0.00,0.00,0.00,0.0000,0.1940,1.1170,0.6380,2.7170,262,0.0000,0.0000,0.0000,0.0000,0.0000,0
2747,0.1972,0.5067,0.0090,0.0017,0.0040,0.0010,0.85,-0.33,-22.47,0,3.663,-0.001,0.135,-0.340,-0.006,0.016,0.999,0.000,0.000,0.000,0.0090,-1,-3,0.00,0.00,0.00,0.0000,0.0000,0.0000,0.0000,0.0000,0.0000,0.0000,0.00,0.00,0.00,0.0000,0.2030,1.1170,0.6380,2.7170,262,0.0000,0.0000,0.0000,0.0000,0.0000,0
2798,0.1954,0.5072,0.0090,-0.0062,0.0056,0.0005,0.85,-0.36,-22.36,0,3.663,0.183,0.001,0.027,-0.006,0.015,0.998,0.000,0.000,0.000,0.0080,-1,0,0.00,0.00,0.00,0.0000,0.0000,0.0000,0.0000,0.0000,0.0000,0.0000,0.00,0.00,0.00,0.0000,0.2030,1.1200,0.0000,2.6990,234,0.0000,0.0000,0.0000,0.0000,0.0000,0
2849,0.1972,0.5068,0.0086,0.0023,0.0031,-0.0026,0.86,-0.36,-22.25,0,3.669,0.040,0.040,-0.058,-0.006,0.017,1.000,0.000,0.000,0.000,0.0150,0,0,0.00,0.00,0.00,0.0000,0.0000,0.0000,0.0000,0.0000,0.0000,0.0000,0.00,0.00,0.00,0.0000,0.2050,1.1200,0.0000,2.6990,234,0.0000,0.0000,0.0000,0.0000,0.0000,0
2901,0.1971,0.5067,0.0112,0.0023,0.0027,0.0112,0.85,-0.36,-22.14,0,3.663,0.141,-0.030,-0.246,-0.008,0.014,1.000,0.000,0.000,0.000,0.0090,0,4,0.00,0.00,0.00,0.0000,0.0000,0.0000,0.0000,0.0000,0.0000,0.0000,0.00,0.00,0.00,0.0000,0.2050,1.1220,0.0000,2.6830,234,0.0000,0.0000,0.0000,0.0000,0.0000,0
2951,0.1971,0.5066,0.0106,0.0012,0.0019,0.0046,0.87,-0.36,-22.03,0,3.669,0.058,-0.005,-0.296,-0.005,0.015,0.999,0.000,0.000,0.000,0.0140,2,-2,0.00,0.00,0.00,0.0000,0.0000,0.0000,0.0000,0.0000,0.0000,0.0000,0.00,0.00,0.00,0.0000,0.2040,1.1220,0.0000,2.6830,197,0.0000,0.0000,0.0000,0.0000,0.0000,0
3003,0.1969,0.5076,0.0121,-0.0000,0.0071,0.0113,0.85,-0.36,-21.92,0,3.669,0.014,-0.212,-0.101,-0.006,0.017,0.999,0.000,0.000,0.000,0.0090,0,1,0.00,0.00,0.00,0.0000,0.0000,0.0000,0.0000,0.0000,0.0000,0.0000,0.00,0.00,0.00,0.0000,0.2040,1.1270,0.6250,2.6950,197,0.0000,0.0000,0.0000,0.0000,0.0000,0
3053,0.1969,0.5070,0.0112,0.0000,0.0036,0.0029,0.86,-0.36,-21.81,0,3.663,-0.049,-0.174,0.100,-0.006,0.014,0.999,0.000,0.000,0.000,0.0090,-2,0,0.00,0.00,0.00,0.0000,0.0000,0.0000,0.0000,0.0000,0.0000,0.0000,0.00,0.00,0.00,0.0000,0.1930,1.1270,0.6250,2.6950,197,0.0000,0.0000,0.0000,0.0000,0.0000,0
3104,0.1963,0.5069,0.0104,-0.0032,0.0027,-0.0026,0.86,-0.35,-21.71,0,3.663,0.202,0.031,-0.217,-0.005,0.016,0.998,0.000,0.000,0.000,0.0080,-2,2,0.00,0.00,0.00,0.0000,0.0000,0.0000,0.0000,0.0000,0.0000,0.0000,0.00,0.00,0.00,0.0000,0.1930,1.1240,0.0000,2.6980,169,0.0000,0.0000,0.0000,0.0000,0.0000,0
3155,0.1970,0.5063,0.0093,-0.0001,0.0002,-0.0084,0.86,-0.36,-21.60,0,3.669,0.002,0.033,0.277,-0.009,0.016,0.998,0.000,0.000,0.000,0.0110,-1,3,0.00,0.00,0.00,0.0000,0.0000,0.0000,0.0000,0.0000,0.0000,0.0000,0.00,0.00,0.00,0.0000,0.1970,1.1240,0.0000,2.6980,169,0.0000,0.0000,0.0000,0.0000,0.0000,0
3207,0.1972,0.5068,0.0098,0.0013,0.0031,-0.0040,0.83,-0.33,-21.49,0,3.663,0.194,-0.267,-0.000,-0.007,0.015,1.000,0.000,0.000,0.000,0.0070,-2,0,0.00,0.00,0.00,0.0000,0.0000,0.0000,0.0000,0.0000,0.0000,0.0000,0.00,0.00,0.00,0.0000,0.1970,1.1200,0.5760,2.7160,184,0.0000,0.0000,0.0000,0.0000,0.0000,0
3258,0.1961,0.5070,0.0085,-0.0040,0.0037,-0.0102,0.84,-0.36,-21.38,0,3.663,-0.134,0.051,-0.040,-0.006,0.016,1.000,0.000,0.000,0.000,0.0090,0,0,0.00,0.00,0.00,0.0000,0.0000,0.0000,0.0000,0.0000,0.0000,0.0000,0.00,0.00,0.00,1.5020,0.0000,1.1200,0.5760,2.7160,184,0.0000,0.0000,0.0000,0.0000,0.0000,0
3310,0.1972,0.5069,0.0084,0.0016,0.0030,-0.0082,0.84,-0.37,-21.28,0,3.663,-0.088,0.094,-0.102,-0.007,0.016,0.997,0.000,0.000,0.000,0.0090,0,0,0.00,0.00,0.00,0.0000,0.0000,0.0000,0.0000,0.0000,0.0000,0.0000,0.00,0.00,0.00,1.5020,0.0000,1.1190,0.0000,2.6940,169,0.0000,0.0000,0.0000,0.0000,0.0000,0
3361,0.1971,0.5067,0.0084,0.0008,0.0017,-0.0063,0.84,-0.37,-21.17,0,3.663,-0.062,0.141,0.006,-0.007,0.016,0.998,0.000,0.000,0.000,0.0090,0,4,0.00,0.00,0.00,0.0000,0.0000,0.0000,0.0000,0.0000,0.0000,0.0000,0.00,0.00,0.00,0.0000,0.1930,1.1190,0.0000,2.6940,169,0.0000,0.0000,0.0000,0.0000,0.0000,0
3413,0.1971,0.5067,0.0085,0.0009,0.0026,-0.0050,0.84,-0.35,-21.07,0,3.663,-0.110,0.139,0.145,-0.008,0.016,1.000,0.000,0.000,0.000,0.0080,0,0,0.00,0.00,0.00,0.0000,0.0000,0.0000,0.0000,0.0000,0.0000,0.0000,0.00,0.00,0.00,0.0000,0.1930,1.1190,0.0000,2.7150,169,0.0000,0.0000,0.0000,0.0000,0.0000,0
3465,0.1959,0.5072,0.0081,-0.0047,0.0052,-0.0059,0.84,-0.37,-20.96,0,3.663,-0.080,-0.141,0.023,-0.005,0.017,0.997,0.000,0.000,0.000,0.0120,-1,0,0.00,0.00,0.00,0.0000,0.0000,0.0000,0.0000,0.0000,0.0000,0.0000,0.00,0.00,0.00,0.0000,0.1950,1.1190,0.0000,2.7150,196,0.0000,0.0000,0.0000,0.0000,0.0000,0
3516,0.1972,0.5068,0.0096,0.0016,0.0032,0.0026,0.82,-0.36,-20.86,0,3.663,-0.190,0.042,-0.132,-0.007,0.016,0.997,0.000,0.000,0.000,0.0080,0,5,0.00,0.00,0.00,0.0000,0.0000,0.0000,0.0000,0.0000,0.0000,0.0000,0.00,0.00,0.00,0.0000,0.1950,1.1250,0.6220,2.7130,196,0.0000,0.0000,0.0000,0.0000,0.0000,0
3568,0.1963,0.5074,0.0090,-0.0026,0.0060,-0.0022,0.85,-0.36,-20.75,0,3.663,0.049,-0.033,-0.382,-0.007,0.017,0.997,0.000,0.000,0.000,0.0090,0,0,0.00,0.00,0.00,0.0000,0.0000,0.0000,0.0000,0.0000,0.0000,0.0000,0.00,0.00,0.00,1.8200,0.1900,1.1250,0.6220,2.7130,206,0.0000,0.0000,0.0000,0.0000,0.0000,0
3618,0.1961,0.5067,0.0089,-0.0028,0.0025,-0.0021,0.84,-0.29,-20.65,0,3.663,0.139,0.070,-0.156,-0.006,0.016,1.000,0.000,0.000,0.000,0.0070,1,3,0.00,0.00,0.00,0.0000,0.0000,0.0000,0.0000,0.0000,0.0000,0.0000,0.00,0.00,0.00,1.8200,0.1900,1.1240,0.0000,0.0000,206,0.0000,0.0000,0.0000,0.0000,0.0000,0
3670,0.1970,0.5074,0.0081,0.0018,0.0054,-0.0060,0.85,-0.36,-20.55,0,3.653,0.164,-0.099,0.120,-0.010,0.017,0.998,0.000,0.000,0.000,0.0070,-2,5,0.00,0.00,0.00,0.0000,0.0000,0.0000,0.0000,0.0000,0.0000,0.0000,0.00,0.00,0.00,1.7320,0.2030,1.1240,0.0000,0.0000,182,0.0000,0.0000,0.0000,0.0000,0.0000,0
3720,0.1963,0.5070,0.0075,-0.0022,0.0037,-0.0079,0.83,-0.37,-20.45,0,3.663,0.036,-0.240,-0.090,-0.008,0.018,0.997,0.000,0.000,0.000,0.0090,0,-3,0.00,0.00,0.00,0.0000,0.0000,0.0000,0.0000,0.0000,0.0000,0.0000,0.00,0.00,0.00,1.7320,0.2030,1.1210,0.5710,2.6970,182,0.0000,0.0000,0.0000,0.0000,0.0000,0
3771,0.1961,0.5074,0.0079,-0.0030,0.0056,-0.0047,0.83,-0.37,-20.34,0,3.663,0.001,-0.215,-0.078,-0.006,0.016,1.000,0.000,0.000,0.000,0.0100,0,-1,0.00,0.00,0.00,0.0000,0.0000,0.0000,0.0000,0.0000,0.0000,0.0000,0.00,0.00,0.00,0.0000,0.2040,1.1210,0.5710,2.6970,182,0.0000,0.0000,0.0000,0.0000,0.0000,0
3823,0.1969,0.5071,0.0086,0.0010,0.0042,-0.0004,0.84,-0.30,-20.25,0,3.663,0.049,0.098,-0.186,-0.007,0.017,1.000,0.000,0.000,0.000,0.0040,0,-1,0.00,0.00,0.00,0.0000,0.0000,0.0000,0.0000,0.0000,0.0000,0.0000,0.00,0.00,0.00,0.0000,0.2040,1.1200,0.5930,2.7090,182,0.0000,0.0000,0.0000,0.0000,0.0000,0
3873,-0.0000,0.0000,0.0040,-0.0017,0.0013,0.0000,-0.00,-0.02,-0.00,0,3.658,-0.232,-0.081,0.009,-0.011,0.016,0.998,0.000,0.000,0.000,0.0080,0,6,0.00,0.00,0.00,0.0000,0.0000,0.0000,0.0000,0.0000,0.0000,0.0000,0.00,0.00,0.00,0.0000,0.2060,1.1200,0.5930,2.7090,206,0.0000,0.0000,0.0000,0.0000,0.0000,0
3925,0.0000,0.0002,0.0060,-0.0021,0.0089,0.0010,0.04,-0.09,-0.00,0,3.663,-0.143,0.036,0.146,-0.005,0.015,1.001,0.000,0.000,0.000,0.0060,0,2,0.00,0.00,0.00,0.0000,0.0000,0.0000,0.0000,0.0000,0.0000,0.0000,0.00,0.00,0.00,0.0000,0.2060,1.1230,0.5640,2.7190,184,0.0000,0.0000,0.0000,0.0000,0.0000,0
3976,-0.0001,0.0008,0.0061,-0.0037,0.0157,0.0005,0.18,0.06,0.00,0,3.663,0.010,-0.118,-0.190,-0.007,0.017,0.999,0.000,0.000,0.000,0.0110,-1,0,0.00,0.00,0.00,0.0000,0.0000,0.0000,0.0000,0.0000,0.0000,0.0000,0.00,0.00,0.00,0.0000,0.0000,1.1230,0.5640,2.7190,184,0.0000,0.0000,0.0000,0.0000,0.0000,0
4026,0.0000,0.0008,0.0080,-0.0015,0.0141,0.0087,0.28,0.01,-0.00,0,3.658,-0.024,-0.277,-0.146,-0.008,0.017,0.997,0.000,0.000,0.000,0.0110,1,0,0.00,0.00,0.00,0.0000,0.0000,0.0000,0.0000,0.0000,0.0000,0.0000,0.00,0.00,0.00,0.0000,0.0000,1.1210,0.0000,2.6960,184,0.0000,0.0000,0.0000,0.0000,0.0000,0
4077,0.0000,0.0015,0.0095,-0.0020,0.0179,0.0145,0.40,-0.25,-0.00,0,3.658,-0.060,0.165,0.119,-0.007,0.017,1.000,0.000,0.000,0.000,0.0090,2,0,0.00,0.00,0.00,0.0000,0.0000,0.0000,0.0000,0.0000,0.0000,0.0000,0.00,0.00,0.00,0.0000,0.1970,1.1210,0.0000,2.6960,181,0.0000,0.0000,0.0000,0.0000,0.0000,0
4129,-0.0001,0.0018,0.0097,-0.0031,0.0187,0.0113,0.58,-0.25,-0.00,0,3.663,-0.009,-0.085,-0.380,-0.007,0.019,0.998,0.000,0.000,0.000,0.0080,-1,3,0.00,0.00,0.00,0.0000,0.0000,0.0000,0.0000,0.0000,0.0000,0.0000,0.00,0.00,0.00,0.0000,0.1970,1.1180,0.6560,2.7030,181,0.0000,0.0000,0.0000,0.0000,0.0000,0
4180,-0.0003,0.0011,0.0093,-0.0043,0.0113,0.0044,0.62,-0.31,-0.01,0,3.663,0.085,-0.063,-0.159,-0.008,0.015,0.998,0.000,0.000,0.000,0.0110,1,3,0.00,0.00,0.00,0.0000,0.0000,0.0000,0.0000,0.0000,0.0000,0.0000,0.00,0.00,0.00,0.0000,0.1950,1.1180,0.6560,2.7030,175,0.0000,0.0000,0.0000,0.0000,0.0000,0
4232,0.0002,0.0014,0.0102,-0.0001,0.0115,0.0077,0.70,-0.34,-0.01,0,3.663,-0.329,-0.025,-0.037,-0.007,0.016,0.998,0.000,0.000,0.000,0.0070,1,0,0.00,0.00,0.00,0.0000,0.0000,0.0000,0.0000,0.0000,0.0000,0.0000,0.00,0.00,0.00,0.0000,0.1950,1.1230,0.0000,2.7160,175,0.0000,0.0000,0.0000,0.0000,0.0000,0
4284,-0.0011,0.0013,0.0090,-0.0087,0.0098,-0.0013,0.76,-0.24,-0.00,0,3.663,0.162,0.152,0.046,-0.006,0.018,0.999,0.000,0.000,0.000,0.0060,0,-4,0.00,0.00,0.00,0.0000,0.0000,0.0000,0.0000,0.0000,0.0000,0.0000,0.00,0.00,0.00,0.0000,0.2010,1.1230,0.0000,2.7160,175,0.0000,0.0000,0.0000,0.0000,0.0000,0
4335,-0.0009,0.0005,0.0077,-0.0068,0.0051,-0.0079,0.76,-0.30,0.00,0,3.658,0.066,0.305,-0.224,-0.005,0.015,0.999,0.000,0.000,0.000,0.0070,-3,0,0.00,0.00,0.00,0.0000,0.0000,0.0000,0.0000,0.0000,0.0000,0.0000,0.00,0.00,0.00,0.0000,0.2010,1.1200,0.5740,2.6970,175,0.0000,0.0000,0.0000,0.0000,0.0000,0
4386,-0.0006,0.0004,0.0072,-0.0044,0.0041,-0.0091,0.79,-0.31,-0.00,0,3.669,0.113,0.112,-0.365,-0.005,0.017,0.995,0.000,0.000,0.000,0.0090,0,0,0.00,0.00,0.00,0.0000,0.0000,0.0000,0.0000,0.0000,0.0000,0.0000,0.00,0.00,0.00,0.0000,0.2070,1.1200,0.5740,2.6970,179,0.0000,0.0000,0.0000,0.0000,0.0000,0
4437,0.0003,0.0004,0.0076,0.0018,0.0034,-0.0054,0.81,-0.38,-0.00,0,3.663,-0.054,-0.225,-0.109,-0.007,0.016,1.000,0.000,0.000,0.000,0.0090,0,0,0.00,0.00,0.00,0.0000,0.0000,0.0000,0.0000,0.0000,0.0000,0.0000,0.00,0.00,0.00,0.0000,0.2070,1.1210,0.6300,2.7010,193,0.0000,0.0000,0.0000,0.0000,0.0000,0
4488,0.0003,0.0009,0.0081,0.0014,0.0061,-0.0019,0.79,-0.38,-0.00,0,3.663,-0.053,-0.043,0.028,-0.008,0.018,1.000,0.000,0.000,0.000,0.0100,0,0,0.00,0.00,0.00,0.0000,0.0000,0.0000,0.0000,0.0000,0.0000,0.0000,0.00,0.00,0.00,0.0000,0.0000,1.1210,0.6300,2.7010,193,0.0000,0.0000,0.0000,0.0000,0.0000,0
4540,0.0003,0.0008,0.0088,0.0010,0.0060,0.0018,0.80,-0.37,-0.01,0,3.663,-0.011,-0.081,-0.212,-0.008,0.016,1.000,0.000,0.000,0.000,0.0100,1,4,0.00,0.00,0.00,0.0000,0.0000,0.0000,0.0000,0.0000,0.0000,0.0000,0.00,0.00,0.00,0.0000,0.0000,1.1220,0.5940,2.7130,193,0.0000,0.0000,0.0000,0.0000,0.0000,0
4591,-0.0008,0.0005,0.0094,-0.0047,0.0041,0.0039,0.84,-0.37,-0.01,0,3.663,-0.095,-0.230,-0.127,-0.011,0.015,0.998,0.000,0.000,0.000,0.0100,0,0,0.00,0.00,0.00,0.0000,0.0000,0.0000,0.0000,0.0000,0.0000,0.0000,0.00,0.00,0.00,1.8870,0.1970,1.1220,0.5940,2.7130,192,0.0000,0.0000,0.0000,0.0000,0.0000,0
4643,0.0004,0.0004,0.0098,0.0007,0.0036,0.0042,0.84,-0.37,-0.01,0,3.658,0.088,-0.270,-0.478,-0.007,0.015,0.997,0.000,0.000,0.000,0.0100,0,-3,0.00,0.00,0.00,0.0000,0.0000,0.0000,0.0000,0.0000,0.0000,0.0000,0.00,0.00,0.00,1.8870,0.1970,1.1200,0.5550,2.6980,192,0.0000,0.0000,0.0000,0.0000,0.0000,0
4694,-0.0010,0.0005,0.0100,-0.0059,0.0032,0.0036,0.84,-0.36,-0.01,0,3.663,0.002,0.256,0.196,-0.006,0.018,0.998,0.000,0.000,0.000,0.0080,0,-2,0.00,0.00,0.00,0.0000,0.0000,0.0000,0.0000,0.0000,0.0000,0.0000,0.00,0.00,0.00,1.6370,0.2020,1.1200,0.5550,2.6980,201,0.0000,0.0000,0.0000,0.0000,0.0000,0
4745,-0.0008,0.0009,0.0093,-0.0055,0.0052,-0.0014,0.80,-0.34,-0.02,0,3.663,0.069,0.075,0.267,-0.006,0.016,0.998,0.000,0.000,0.000,0.0080,0,-3,0.00,0.00,0.00,0.0000,0.0000,0.0000,0.0000,0.0000,0.0000,0.0000,0.00,0.00,0.00,1.6370,0.2020,1.1220,0.0000,2.6900,201,0.0000,0.0000,0.0000,0.0000,0.0000,0
4796,-0.0011,0.0008,0.0087,-0.0068,0.0043,-0.0046,0.86,-0.33,-0.02,0,3.658,0.017,-0.031,0.243,-0.007,0.015,0.998,0.000,0.000,0.000,0.0120,-1,0,0.00,0.00,0.00,0.0000,0.0000,0.0000,0.0000,0.0000,0.0000,0.0000,0.00,0.00,0.00,1.9050,0.0000,1.1220,0.0000,2.6900,201,0.0000,0.0000,0.0000,0.0000,0.0000,0
4847,0.0001,0.0007,0.0099,-0.0013,0.0035,0.0028,0.84,-0.32,-0.02,0,3.658,-0.060,-0.026,-0.128,-0.010,0.015,0.998,0.000,0.000,0.000,0.0060,0,0,0.00,0.00,0.00,0.0000,0.0000,0.0000,0.0000,0.0000,0.0000,0.0000,0.00,0.00,0.00,1.9050,0.0000,1.1240,0.5570,2.7150,201,0.0000,0.0000,0.0000,0.0000,0.0000,0
4898,-0.0008,0.0006,0.0083,-0.0058,0.0033,-0.0073,0.84,-0.38,-0.02,0,3.663,-0.169,0.003,-0.028,-0.006,0.016,1.001,0.000,0.000,0.000,0.0070,0,0,0.00,0.00,0.00,0.0000,0.0000,0.0000,0.0000,0.0000,0.0000,0.0000,0.00,0.00,0.00,0.0000,0.1980,1.1240,0.5570,2.7150,177,0.0000,0.0000,0.0000,0.0000,0.0000,0
4950,0.0004,0.0003,0.0075,0.0004,0.0017,-0.0096,0.85,-0.38,-0.02,0,3.658,-0.106,0.251,0.012,-0.009,0.018,0.996,0.000,0.000,0.000,0.0100,2,0,0.00,0.00,0.00,0.0000,0.0000,0.0000,0.0000,0.0000,0.0000,0.0000,0.00,0.00,0.00,0.0000,0.1980,1.1220,0.5770,2.6940,184,0.0000,0.0000,0.0000,0.0000,0.0000,0
5002,0.0005,0.0010,0.0083,0.0002,0.0052,-0.0040,0.81,-0.35,-0.02,0,3.663,0.052,-0.047,0.045,-0.008,0.018,1.000,0.000,0.000,0.000,0.0090,1,-3,0.00,0.00,0.00,0.0000,0.0000,0.0000,0.0000,0.0000,0.0000,0.0000,0.00,0.00,0.00,0.0000,0.2000,1.1220,0.5770,2.6940,184,0.0000,0.0000,0.0000,0.0000,0.0000,0
5053,-0.0008,0.0009,0.0085,-0.0057,0.0050,-0.0023,0.84,-0.36,-0.01,0,3.658,-0.286,0.014,0.189,-0.007,0.018,0.998,0.000,0.000,0.000,0.0090,0,-2,0.00,0.00,0.00,0.0000,0.0000,0.0000,0.0000,0.0000,0.0000,0.0000,0.00,0.00,0.00,0.0000,0.2000,1.1190,0.5540,0.0000,184,0.0000,0.0000,0.0000,0.0000,0.0000,0
5105,-0.0004,0.0005,0.0086,-0.0040,0.0036,-0.0017,0.85,-0.35,-0.01,0,3.194,0.708,-0.182,1.057,-0.010,0.019,0.998,0.000,0.000,0.000,0.0070,2,4,0.00,0.00,0.00,0.0000,0.0000,0.0000,0.0000,0.0000,0.0000,0.0000,0.00,0.00,0.00,0.0000,0.1960,1.1190,0.5540,0.0000,188,0.0000,0.0000,0.0000,0.0000,0.0000,0
5155,0.0005,0.0006,0.0079,0.0012,0.0010,-0.0049,0.83,-0.37,-0.02,0,3.273,-0.565,-1.502,-0.108,-0.011,0.008,0.999,0.000,0.000,0.000,0.0090,-1,-4,0.00,0.00,0.00,0.0000,0.0000,0.0000,0.0000,0.0000,0.0000,0.0000,0.00,0.00,0.00,0.0000,0.1960,1.1240,0.0000,2.6970,188,0.0000,0.0000,0.0000,0.0000,0.0000,0
5207,-0.0007,-0.0001,0.0082,-0.0013,-0.0080,-0.0027,0.80,-0.37,-0.01,0,3.320,-1.421,0.074,2.927,0.003,0.001,1.009,0.000,0.000,0.000,0.0050,1,0,0.00,0.00,0.00,0.0000,0.0000,0.0000,0.0000,0.0000,0.0000,0.0000,0.00,0.00,0.00,0.0000,0.2090,1.1240,0.0000,2.6970,188,0.0000,0.0000,0.0000,0.0000,0.0000,0
5259,0.0007,-0.0007,0.0068,0.0073,-0.0151,-0.0098,0.79,-0.49,0.06,0,3.352,-0.058,5.601,2.616,-0.026,0.019,1.004,0.000,0.000,0.000,0.0080,4,-5,0.00,0.00,0.00,0.0000,0.0000,0.0000,0.0000,0.0000,0.0000,0.0000,0.00,0.00,0.00,0.0000,0.2090,1.1220,0.9470,2.7020,188,0.0000,0.0000,0.0000,0.0000,0.0000,0
5311,0.0075,-0.0052,0.0068,0.0395,-0.0384,-0.0073,0.86,-0.66,0.10,0,3.357,-2.856,0.990,-16.553,-0.006,-0.009,1.020,0.000,0.000,0.000,0.0090,4,-5,0.00,0.00,0.00,0.0000,0.0000,0.0000,0.0000,0.0000,0.0000,0.0000,0.00,0.00,0.00,0.0000,0.1970,1.1220,0.9470,2.7020,188,0.0000,0.0000,0.0000,0.0000,0.0000,0
5362,0.0186,-0.0115,0.0069,0.0869,-0.0658,-0.0043,1.01,-1.09,-0.44,0,3.362,-3.075,-1.426,-11.591,-0.006,-0.010,0.970,0.000,0.000,0.000,0.0130,10,-14,0.00,0.00,0.00,0.0000,0.0000,0.0000,0.0000,0.0000,0.0000,0.0000,0.00,0.00,0.00,0.0000,0.1970,1.1200,1.1480,0.0000,188,0.0000,0.0000,0.0000,0.0000,0.0000,0
5413,0.0309,-0.0172,0.0086,0.1302,-0.0836,0.0026,1.11,-1.26,-0.82,0,3.362,1.927,4.430,-7.446,-0.024,0.008,0.971,0.000,0.000,0.000,0.0080,7,-5,0.00,0.00,0.00,0.0000,0.0000,0.0000,0.0000,0.0000,0.0000,0.0000,0.00,0.00,0.00,0.0000,0.1930,1.1200,1.1480,0.0000,180,0.0000,0.0000,0.0000,0.0000,0.0000,0
5464,0.0415,-0.0298,0.0073,0.1586,-0.1302,-0.0099,1.33,-1.36,-1.27,0,3.362,-0.470,-0.774,0.789,-0.021,0.021,0.999,0.000,0.000,0.000,0.0100,10,0,0.00,0.00,0.00,0.0000,0.0000,0.0000,0.0000,0.0000,0.0000,0.0000,0.00,0.00,0.00,0.0000,0.1930,1.1260,1.1950,0.0000,170,0.0000,0.0000,0.0000,0.0000,0.0000,0
5516,0.0478,-0.0417,0.0079,0.1603,-0.1652,-0.0032,1.38,-1.03,-1.36,0,3.357,3.337,-2.036,0.000,-0.014,0.008,1.032,0.000,0.000,0.000,0.0080,11,-5,0.00,0.00,0.00,0.0000,0.0000,0.0000,0.0000,0.0000,0.0000,0.0000,0.00,0.00,0.00,0.0000,0.1800,1.1260,1.1950,0.0000,170,0.0000,0.0000,0.0000,0.0000,0.0000,0
5568,0.0506,-0.0536,0.0081,0.1429,-0.1922,0.0053,1.17,-0.71,-1.32,0,3.357,-5.155,-10.250,2.373,-0.011,-0.000,1.003,0.000,0.000,0.000,0.0120,9,-1,0.00,0.00,0.00,0.0000,0.0000,0.0000,0.0000,0.0000,0.0000,0.0000,0.00,0.00,0.00,0.0000,0.1800,1.1230,1.2210,2.7090,170,0.0000,0.0000,0.0000,0.0000,0.0000,0
5620,0.0571,-0.0611,0.0105,0.1455,-0.1895,0.0184,0.62,-0.25,-1.19,0,3.357,-17.772,8.933,3.976,-0.015,0.002,0.980,0.000,0.000,0.000,0.0140,3,-4,0.00,0.00,0.00,0.0000,0.0000,0.0000,0.0000,0.0000,0.0000,0.0000,0.00,0.00,0.00,1.1900,0.1800,1.1230,1.2210,2.7090,165,0.0000,0.0000,0.0000,0.0000,0.0000,0
5671,0.0587,-0.0685,0.0133,0.1194,-0.1818,0.0245,-0.22,-0.23,-0.91,0,3.352,2.806,-10.504,10.617,-0.006,-0.005,1.023,0.000,0.000,0.000,0.0150,-2,-6,0.00,0.00,0.00,0.0000,0.0000,0.0000,0.0000,0.0000,0.0000,0.0000,0.00,0.00,0.00,1.1900,0.1800,1.1240,1.2430,2.6920,165,0.0000,0.0000,0.0000,0.0000,0.0000,0
5723,0.0591,-0.0710,0.0158,0.0934,-0.1446,0.0396,-0.63,0.39,-0.42,0,3.357,-13.436,-15.670,5.834,0.000,-0.017,1.030,0.000,0.000,0.000,0.0130,1,-4,0.00,0.00,0.00,0.0000,0.0000,0.0000,0.0000,0.0000,0.0000,0.0000,0.00,0.00,0.00,0.0000,0.1910,1.1240,1.2430,2.6920,186,0.0000,0.0000,0.0000,0.0000,0.0000,0
5775,0.0632,-0.0705,0.0167,0.0872,-0.0991,0.0487,-1.69,1.27,-0.07,0,3.352,-26.069,-15.657,6.581,-0.001,-0.027,0.992,0.000,0.000,0.000,0.0000,-4,2,0.00,0.00,0.00,0.0000,0.0000,0.0000,0.0000,0.0000,0.0000,0.0000,0.00,0.00,0.00,0.0000,0.1910,1.1160,1.2420,2.6930,186,0.0000,0.0000,0.0000,0.0000,0.0000,0
5827,0.0625,-0.0693,0.0111,0.0515,-0.0542,0.0071,-3.18,2.37,0.28,0,3.326,-24.420,-23.799,4.434,0.036,-0.039,1.023,0.000,0.000,0.000,0.0000,-6,9,0.00,0.00,0.00,0.0000,0.0000,0.0000,0.0000,0.0000,0.0000,0.0000,0.00,0.00,0.00,0.0000,0.1840,1.1160,1.2420,2.6930,175,0.0000,0.0000,0.0000,0.0000,0.0000,0
5879,0.0597,-0.0608,0.0061,0.0052,0.0284,-0.0176,-4.95,4.04,0.69,0,3.299,13.044,-38.074,7.906,0.023,-0.027,0.970,0.000,0.000,0.000,0.0000,-36,12,0.00,0.00,0.00,0.0000,0.0000,0.0000,0.0000,0.0000,0.0000,0.0000,0.00,0.00,0.00,0.0000,0.1840,1.1070,1.2680,2.7030,175,0.0000,0.0000,0.0000,0.0000,0.0000,0
5930,0.0483,-0.0410,-0.0004,-0.0824,0.1523,-0.0595,-5.29,6.16,1.36,0,3.278,38.941,-13.971,9.516,0.014,-0.039,0.974,0.000,0.000,0.000,0.0000,-29,25,0.00,0.00,0.00,0.0000,0.0000,0.0000,0.0000,0.0000,0.0000,0.0000,0.00,0.00,0.00,0.0000,0.1560,1.1070,1.2680,2.7030,175,0.0000,0.0000,0.0000,0.0000,0.0000,0
5981,0.0251,-0.0055,-0.0132,-0.2236,0.3215,-0.1310,-4.82,7.77,2.05,0,3.230,54.711,48.803,12.890,0.018,-0.018,1.040,0.000,0.000,0.000,0.0000,-35,47,0.00,0.00,0.00,0.0000,0.0000,0.0000,0.0000,0.0000,0.0000,0.0000,0.00,0.00,0.00,0.0000,0.1560,1.1120,1.2730,2.6900,175,0.0000,0.0000,0.0000,0.0000,0.0000,0
6032,-0.0204,0.0341,-0.0330,-0.4463,0.4646,-0.2066,-2.76,6.74,2.38,0,3.236,79.363,72.862,12.632,0.013,-0.009,1.114,0.000,0.000,0.000,0.0000,-58,98,0.00,0.00,0.00,0.0000,0.0000,0.0000,0.0000,0.0000,0.0000,0.0000,0.00,0.00,0.00,0.0000,0.1900,1.1120,1.2730,2.6900,170,0.0000,0.0000,0.0000,0.0000,0.0000,0
6083,-0.0664,0.0585,-0.0341,-0.6104,0.4859,-0.1280,0.91,4.11,2.35,0,3.215,59.886,99.956,9.599,0.006,-0.024,1.121,0.000,0.000,0.000,0.0000,-6,39,0.00,0.00,0.00,0.0000,0.0000,0.0000,0.0000,0.0000,0.0000,0.0000,0.00,0.00,0.00,0.0000,0.1900,1.1140,0.0000,2.6940,182,0.0000,0.0000,0.0000,0.0000,0.0000,0
6134,-0.1348,0.0855,-0.0464,-0.8298,0.4913,-0.1210,4.32,0.53,2.46,0,3.236,0.835,121.184,5.188,-0.011,-0.021,1.110,0.000,0.000,0.000,0.0000,16,58,0.00,0.00,0.00,0.0000,0.0000,0.0000,0.0000,0.0000,0.0000,0.0000,0.00,0.00,0.00,0.0000,0.0000,1.1140,0.0000,2.6940,182,0.0000,0.0000,0.0000,0.0000,0.0000,0
6185,-0.1899,0.0927,-0.0280,-0.8755,0.3527,0.0727,5.68,-5.40,2.78,0,3.294,-5.119,134.988,4.631,-0.002,-0.013,1.067,0.000,0.000,0.000,0.0050,16,10,0.00,0.00,0.00,0.0000,0.0000,0.0000,0.0000,0.0000,0.0000,0.0000,0.00,0.00,0.00,0.0000,0.0000,1.1190,0.1350,2.7480,182,0.0000,0.0000,0.0000,0.0000,0.0000,0
6237,-0.2247,0.0826,-0.0010,-0.7556,0.1556,0.2519,7.01,-12.85,3.53,0,3.336,-3.882,9.063,3.169,0.016,-0.015,1.009,0.000,0.000,0.000,0.0200,32,-21,0.00,0.00,0.00,0.0000,0.0000,0.0000,0.0000,0.0000,0.0000,0.0000,0.00,0.00,0.00,0.1310,0.0000,1.1190,0.1350,2.7480,171,0.0000,0.0000,0.0000,0.0000,0.0000,0
6288,-0.2230,0.0643,0.0267,-0.4447,-0.0217,0.3488,7.56,-15.51,3.77,0,3.336,-65.274,-64.777,4.374,-0.002,-0.016,0.913,0.000,0.000,0.000,0.0300,26,-26,0.00,0.00,0.00,0.0000,0.0000,0.0000,0.0000,0.0000,0.0000,0.0000,0.00,0.00,0.00,0.1310,0.0000,1.1240,0.7990,0.0000,171,0.0000,0.0000,0.0000,0.0000,0.0000,0
6339,-0.1773,0.0269,0.0362,-0.0298,-0.2239,0.2831,5.51,-14.39,3.67,0,3.294,-111.273,-84.429,3.932,-0.007,-0.013,0.897,0.000,0.000,0.000,0.0330,32,-34,0.00,0.00,0.00,0.0000,0.0000,0.0000,0.0000,0.0000,0.0000,0.0000,0.00,0.00,0.00,0.2500,0.0000,1.1240,0.7990,0.0000,191,0.0000,0.0000,0.0000,0.0000,0.0000,0
6391,-0.1160,-0.0105,0.0266,0.3251,-0.3540,0.1238,1.15,-11.91,4.00,0,3.246,-80.507,-140.816,7.929,-0.014,0.003,0.960,0.000,0.000,0.000,0.0380,54,-91,0.00,0.00,0.00,0.0000,0.0000,0.0000,0.0000,0.0000,0.0000,0.0000,0.00,0.00,0.00,0.2500,0.0000,1.1540,1.2260,0.0000,191,0.0000,0.0000,0.0000,0.0000,0.0000,0
6442,-0.0535,-0.0472,0.0143,0.5964,-0.4222,0.0099,-2.64,-5.94,4.61,0,3.215,-63.257,-171.024,4.416,-0.008,0.000,1.008,0.000,0.000,0.000,0.0400,22,-46,0.00,0.00,0.00,0.0000,0.0000,0.0000,0.0000,0.0000,0.0000,0.0000,0.00,0.00,0.00,0.0000,0.2500,1.1540,1.2260,0.0000,191,0.0000,0.0000,0.0000,0.0000,0.0000,0
6494,-0.0006,-0.0723,0.0108,0.7611,-0.4326,-0.0119,-5.52,1.15,5.56,0,3.230,-77.425,-132.412,2.690,-0.000,-0.003,1.050,0.000,0.000,0.000,0.0450,35,-74,0.00,0.00,0.00,0.0000,0.0000,0.0000,0.0000,0.0000,0.0000,0.0000,0.00,0.00,0.00,0.0000,0.2500,1.1750,0.0000,2.6970,191,0.0000,0.0000,0.0000,0.0000,0.0000,0
6546,0.0578,-0.0965,0.0173,0.8341,-0.3918,0.0441,-9.32,7.54,6.57,0,3.230,-47.013,-107.269,-7.001,-0.018,-0.003,1.066,0.000,0.000,0.000,0.0520,6,-27,0.00,0.00,0.00,0.0000,0.0000,0.0000,0.0000,0.0000,0.0000,0.0000,0.00,0.00,0.00,0.0000,0.1740,1.1750,0.0000,2.6970,213,0.0000,0.0000,0.0000,0.0000,0.0000,0
6598,0.1134,-0.1148,0.0294,0.8199,-0.3066,0.1173,-12.25,13.15,7.27,0,3.246,13.242,-61.979,-14.951,-0.011,-0.002,1.053,0.000,0.000,0.000,0.0580,-3,-10,0.00,0.00,0.00,0.0000,0.0000,0.0000,0.0000,0.0000,0.0000,0.0000,0.00,0.00,0.00,0.0000,0.1740,0.0000,1.5660,0.0000,195,0.0000,0.0000,0.0000,0.0000,0.0000,0
6649,0.1441,-0.1180,0.0489,0.6429,-0.1607,0.2031,-12.31,16.79,7.27,0,3.257,38.086,15.560,-16.935,-0.004,-0.014,1.022,0.000,0.000,0.000,0.0560,-24,6,0.00,0.00,0.00,0.0000,0.0000,0.0000,0.0000,0.0000,0.0000,0.0000,0.00,0.00,0.00,0.0000,0.1580,0.0000,1.5660,0.0000,195,0.0000,0.0000,0.0000,0.0000,0.0000,0
6700,0.1464,-0.1070,0.0606,0.3697,-0.0008,0.2075,-10.69,17.34,6.20,0,3.246,61.548,70.600,-8.993,0.011,-0.015,1.015,0.000,0.000,0.000,0.0520,-21,18,0.00,0.00,0.00,0.0000,0.0000,0.0000,0.0000,0.0000,0.0000,0.0000,0.00,0.00,0.00,0.0000,0.1580,0.0000,0.0000,2.8630,195,0.0000,0.0000,0.0000,0.0000,0.0000,0
6751,0.1156,-0.0778,0.0606,0.0001,0.1918,0.1411,-8.19,15.38,5.14,0,3.220,87.219,88.055,-1.529,0.014,-0.023,1.043,0.000,0.000,0.000,0.0450,-50,60,0.00,0.00,0.00,0.0000,0.0000,0.0000,0.0000,0.0000,0.0000,0.0000,0.00,0.00,0.00,0.0000,0.1700,0.0000,0.0000,2.8630,192,0.0000,0.0000,0.0000,0.0000,0.0000,0
6802,0.0808,-0.0529,0.0503,-0.2302,0.3001,0.0640,-4.39,11.97,4.54,0,3.183,80.003,118.464,7.778,0.014,-0.034,1.084,0.000,0.000,0.000,0.0370,-30,41,0.00,0.00,0.00,0.0000,0.0000,0.0000,0.0000,0.0000,0.0000,0.0000,0.00,0.00,0.00,0.0000,0.1700,1.1650,0.0000,2.7440,192,0.0000,0.0000,0.0000,0.0000,0.0000,0
6852,0.0211,-0.0166,0.0307,-0.5137,0.4120,-0.0215,-0.87,6.89,4.69,0,3.162,80.808,121.233,4.574,0.023,-0.036,1.145,0.000,0.000,0.000,0.0330,-29,43,0.00,0.00,0.00,0.0000,0.0000,0.0000,0.0000,0.0000,0.0000,0.0000,0.00,0.00,0.00,0.0000,0.0000,1.1650,0.0000,2.7440,195,0.0000,0.0000,0.0000,0.0000,0.0000,0
6903,-0.0325,0.0151,0.0193,-0.6907,0.4605,-0.0204,2.49,1.77,5.10,0,3.172,62.758,120.845,2.301,0.015,-0.031,1.161,0.000,0.000,0.000,0.0310,-44,79,0.00,0.00,0.00,0.0000,0.0000,0.0000,0.0000,0.0000,0.0000,0.0000,0.00,0.00,0.00,0.0000,0.0000,1.1540,1.2250,2.6870,195,0.0000,0.0000,0.0000,0.0000,0.0000,0
6954,-0.0823,0.0419,0.0190,-0.7640,0.4493,0.0619,5.69,-4.16,5.60,0,3.151,41.677,127.108,-11.562,0.017,-0.027,1.185,0.000,0.000,0.000,0.0400,-13,29,0.00,0.00,0.00,0.0000,0.0000,0.0000,0.0000,0.0000,0.0000,0.0000,0.00,0.00,0.00,0.0000,0.2370,1.1540,1.2250,2.6870,195,0.0000,0.0000,0.0000,0.0000,0.0000,0
7005,-0.1361,0.0651,0.0258,-0.7827,0.3964,0.1572,8.01,-10.16,5.70,0,3.199,28.819,50.156,-18.307,0.013,-0.027,1.166,0.000,0.000,0.000,0.0530,-8,29,0.00,0.00,0.00,0.0000,0.0000,0.0000,0.0000,0.0000,0.0000,0.0000,0.00,0.00,0.00,0.0000,0.2370,1.1330,0.0000,2.7070,195,0.0000,0.0000,0.0000,0.0000,0.0000,0
7056,-0.1666,0.0733,0.0481,-0.6276,0.2716,0.3080,9.79,-13.58,5.10,0,3.241,-10.014,9.368,-17.963,0.014,-0.024,1.087,0.000,0.000,0.000,0.0750,2,2,0.00,0.00,0.00,0.0000,0.0000,0.0000,0.0000,0.0000,0.0000,0.0000,0.00,0.00,0.00,0.0000,0.1770,1.1330,0.0000,2.7070,193,0.0000,0.0000,0.0000,0.0000,0.0000,0
7108,-0.1785,0.0715,0.0728,-0.4108,0.1278,0.3938,9.68,-15.12,4.16,0,3.257,-41.228,-22.420,-15.724,0.009,-0.013,1.032,0.000,0.000,0.000,0.0920,7,-1,0.00,0.00,0.00,0.0000,0.0000,0.0000,0.0000,0.0000,0.0000,0.0000,0.00,0.00,0.00,0.0000,0.1770,1.1320,0.6820,0.0000,173,0.0000,0.0000,0.0000,0.0000,0.0000,0
7160,-0.1701,0.0622,0.0936,-0.1630,-0.0058,0.4113,7.88,-14.74,3.13,0,3.257,-52.574,-71.764,-13.692,-0.000,-0.011,1.008,0.000,0.000,0.000,0.1020,19,-14,0.00,0.00,0.00,0.0000,0.0000,0.0000,0.0000,0.0000,0.3000,0.2595,4.17,-19.19,-93.88,0.5160,0.1930,1.1320,0.6820,0.0000,173,0.0000,0.0000,0.0000,0.0000,0.0000,0
7211,-0.1566,0.0502,0.1079,0.0367,-0.1061,0.3763,5.33,-11.81,2.01,0,3.252,-54.674,-84.611,-10.264,-0.008,-0.004,0.989,0.000,0.000,0.000,0.1140,9,-12,7.88,14.74,3.13,-0.1701,0.0622,0.1020,0.0000,0.0000,0.3000,0.2605,-1.46,-9.33,-60.19,0.5160,0.1930,1.1390,1.2020,2.7230,173,0.0000,0.0000,0.0000,0.0000,0.0000,0
7262,-0.1421,0.0358,0.1201,0.1753,-0.1790,0.3347,2.62,-7.89,1.18,0,3.241,-50.669,-83.974,-8.606,-0.015,-0.006,0.985,0.000,0.000,0.000,0.1260,21,-27,5.76,17.96,1.94,-0.1401,0.0468,0.1174,0.0000,0.0000,0.3000,0.2628,-5.88,-1.78,-35.46,0.0000,0.2660,1.1390,1.2020,2.7230,173,0.0000,0.0000,0.0000,0.0000,0.0000,0
7314,-0.1309,0.0271,0.1323,0.2439,-0.1972,0.3032,0.02,-3.82,0.72,0,3.241,-34.577,-69.425,-5.969,-0.015,-0.001,0.994,0.000,0.000,0.000,0.1390,19,-29,9.72,9.79,-0.64,-0.1051,0.0213,0.0921,0.0000,0.0000,0.3000,0.2639,-7.30,2.22,-21.65,0.0000,0.2660,1.1540,1.2920,2.6280,175,0.0000,0.0000,0.0000,0.0000,0.0000,0
7366,-0.1147,0.0149,0.1435,0.2889,-0.2061,0.2789,-1.68,-0.43,0.50,0,3.236,-23.146,-52.784,-4.012,-0.015,-0.007,0.992,0.000,0.000,0.000,0.1460,9,-11,8.64,4.38,-1.62,-0.0737,-0.0057,0.0873,0.0000,0.0000,0.3000,0.2644,-8.53,5.45,-14.86,0.0000,0.0000,1.1540,1.2920,2.6280,170,0.0000,0.0000,0.0000,0.0000,0.0000,0
7417,-0.0948,-0.0000,0.1521,0.3158,-0.2129,0.2485,-2.68,2.05,0.52,0,3.230,-18.701,-41.046,-1.382,-0.011,-0.008,0.997,0.000,0.000,0.000,0.1610,22,-23,2.28,10.87,-2.16,-0.0665,-0.0440,0.1637,0.0000,0.0000,0.3000,0.2660,-9.80,8.01,-15.66,0.0000,0.0000,1.1730,1.4570,2.5610,170,0.0000,0.0000,0.0000,0.0000,0.0000,0
7469,-0.0800,-0.0127,0.1629,0.2971,-0.2002,0.2370,-3.48,4.02,0.59,0,3.230,-13.653,-24.220,-0.476,-0.011,-0.005,1.004,0.000,0.000,0.000,0.1740,-5,-8,4.08,7.87,-2.56,-0.0326,-0.0841,0.1792,0.0000,0.0000,0.3000,0.2653,-10.12,8.20,-17.69,0.0000,0.0000,1.1730,1.4570,2.5610,170,0.0000,0.0000,0.0000,0.0000,0.0000,0
7520,-0.0604,-0.0176,0.1744,0.2841,-0.1496,0.2328,-4.64,5.10,0.42,0,3.236,5.404,-9.869,1.398,-0.008,-0.008,1.004,0.000,0.000,0.000,0.1900,-3,-6,-5.12,11.80,-2.07,-0.0265,-0.0783,0.2192,0.0000,0.0000,0.3000,0.2636,-8.20,9.00,-12.69,0.0000,0.0000,1.1990,1.4860,2.5380,170,0.0000,0.0000,0.0000,0.0000,0.0000,0
7571,-0.0462,-0.0186,0.1877,0.2428,-0.0911,0.2395,-4.29,5.71,0.48,0,3.230,21.692,2.567,-0.436,-0.002,-0.008,1.002,0.000,0.000,0.000,0.2010,-4,-8,-8.50,13.12,-1.31,-0.0206,-0.0563,0.2135,0.0000,0.0000,0.3000,0.2603,-5.63,8.18,-14.39,0.0000,0.1910,1.1990,1.4860,2.5380,186,0.0000,0.0000,0.0000,0.0000,0.0000,0
7623,-0.0369,-0.0237,0.2002,0.1875,-0.0608,0.2408,-3.19,5.58,0.46,0,3.241,14.971,13.932,0.269,-0.000,-0.014,0.994,0.000,0.000,0.000,0.2060,-3,-3,-8.52,11.46,-0.36,-0.0035,-0.0425,0.2220,0.0000,0.0000,0.3000,0.2578,-4.61,6.30,-13.83,0.0000,0.1910,1.2130,1.4810,2.5310,194,0.0000,0.0000,0.0000,0.0000,0.0000,0
7674,-0.0289,-0.0275,0.2096,0.1401,-0.0402,0.2227,-2.31,4.94,0.41,0,3.236,12.227,16.079,0.595,-0.001,-0.011,0.989,0.000,0.000,0.000,0.2180,0,-1,-7.67,10.50,-0.29,0.0014,-0.0336,0.2308,0.0000,0.0000,0.3000,0.2580,-3.90,4.61,-12.29,0.7050,0.0000,1.2130,1.4810,2.5310,194,0.0000,0.0000,0.0000,0.0000,0.0000,0
7725,-0.0228,-0.0307,0.2195,0.0992,-0.0269,0.2101,-1.67,4.13,0.38,0,3.236,9.869,16.286,1.464,0.003,-0.012,0.991,0.000,0.000,0.000,0.2230,0,-1,-6.19,9.51,-0.39,0.0019,-0.0326,0.2437,0.0000,0.0000,0.3000,0.2575,-3.50,3.11,-11.48,0.7050,0.0000,1.2190,1.4450,2.5080,194,0.0000,0.0000,0.0000,0.0000,0.0000,0
7777,-0.0184,-0.0340,0.2271,0.0647,-0.0207,0.1882,-1.07,3.31,0.40,0,3.230,8.598,15.500,0.885,-0.001,-0.016,0.988,0.000,0.000,0.000,0.2320,2,0,-5.01,8.19,-0.03,0.0043,-0.0312,0.2526,0.0000,0.0000,0.3000,0.2584,-3.43,1.76,-11.86,0.6770,0.2230,1.2190,1.4450,2.5080,184,0.0000,0.0000,0.0000,0.0000,0.0000,0
7828,-0.0157,-0.0350,0.2345,0.0371,-0.0121,0.1722,-0.74,2.48,0.46,0,3.230,7.239,17.377,1.765,0.008,-0.015,0.993,0.000,0.000,0.000,0.2370,-23,1,-3.69,6.98,0.38,0.0050,-0.0354,0.2600,0.0000,0.0000,0.3000,0.2588,-3.08,0.63,-13.82,0.6770,0.2230,1.2270,1.4430,2.4810,184,0.0000,0.0000,0.0000,0.0000,0.0000,0
7880,-0.0147,-0.0357,0.2405,0.0151,-0.0066,0.1538,-0.62,1.72,0.61,0,3.225,7.238,14.212,1.885,0.007,-0.014,1.003,0.000,0.000,0.000,0.2490,-1,0,-6.21,5.78,0.13,0.0047,0.0206,0.2594,0.0000,0.0000,0.3000,0.2596,-2.86,-0.35,-18.22,0.6630,0.2360,1.2270,1.4430,2.4810,189,0.0000,0.0000,0.0000,0.0000,0.0000,0
7931,-0.0149,-0.0268,0.2485,-0.0020,0.0244,0.1545,-0.19,1.01,0.68,0,3.230,12.188,13.062,0.901,0.011,-0.011,1.001,0.000,0.000,0.000,0.2520,1,3,-4.75,4.58,1.04,0.0043,0.0260,0.2728,0.0000,0.0000,0.3000,0.2580,-0.76,-1.19,-20.53,0.6630,0.2360,1.2350,1.4370,2.4590,189,0.0000,0.0000,0.0000,0.0000,0.0000,0
7983,-0.0162,-0.0263,0.2549,-0.0139,0.0234,0.1469,0.40,0.45,0.72,0,3.225,4.463,12.889,0.587,0.005,-0.016,0.994,0.000,0.000,0.000,0.2630,0,0,-3.07,3.88,1.73,-0.0038,0.0245,0.2807,0.0000,0.0000,0.3000,0.2577,-0.77,-1.85,-21.66,0.6600,0.0000,1.2350,1.4370,2.4590,203,0.0000,0.0000,0.0000,0.0000,0.0000,0
8034,-0.0178,-0.0285,0.2625,-0.0197,0.0106,0.1471,0.59,-0.15,0.77,0,3.230,0.452,6.058,0.813,0.010,-0.007,0.999,0.000,0.000,0.000,0.2690,-4,0,-2.83,3.19,1.72,-0.0127,0.0373,0.2842,0.0000,0.0000,0.3000,0.2562,-1.56,-2.26,-23.14,0.6600,0.0000,1.2290,1.4210,2.4450,203,0.0000,0.0000,0.0000,0.0000,0.0000,0
8086,-0.0210,-0.0285,0.2695,-0.0247,0.0044,0.1448,0.68,-0.55,0.79,0,3.230,-1.455,3.712,-0.101,0.007,-0.012,0.996,0.000,0.000,0.000,0.2810,0,1,-1.67,1.90,3.69,0.0066,0.0297,0.2924,0.0000,0.0000,0.3000,0.2551,-1.86,-2.74,-23.76,0.6560,0.0000,1.2290,1.4210,2.4450,203,0.0000,0.0000,0.0000,0.0000,0.0000,0
8138,-0.0234,-0.0306,0.2791,-0.0231,-0.0072,0.1554,0.62,-0.84,0.79,0,3.236,-3.586,4.867,0.179,0.008,-0.014,0.995,0.000,0.000,0.000,0.2870,1,2,-1.44,1.66,4.09,0.0037,0.0318,0.2971,0.0000,0.0000,0.3000,0.2522,-2.61,-2.87,-23.71,0.6560,0.0000,1.2410,1.4380,2.4230,203,0.0000,0.0000,0.0000,0.0000,0.0000,0
8189,-0.0246,-0.0334,0.2870,-0.0163,-0.0182,0.1533,0.45,-1.03,0.78,0,3.236,-5.526,1.857,-0.340,0.004,-0.015,0.991,0.000,0.000,0.000,0.2960,3,-1,-1.28,1.43,4.63,-0.0014,0.0308,0.3016,0.0000,0.0000,0.3000,0.2509,-3.37,-2.64,-23.46,0.6440,0.2320,1.2410,1.4380,2.4230,195,0.0000,0.0000,0.0000,0.0000,0.0000,0
8241,-0.0272,-0.0363,0.2957,-0.0125,-0.0270,0.1544,0.36,-1.12,0.76,0,3.241,-2.460,2.847,0.392,0.005,-0.015,0.982,0.000,0.000,0.000,0.3030,0,0,-1.10,1.15,5.44,0.0005,0.0256,0.3069,0.0000,0.0000,0.3000,0.2491,-4.04,-2.66,-22.88,0.6440,0.2320,1.2560,1.4390,2.4060,200,0.0000,0.0000,0.0000,0.0000,0.0000,0
8293,-0.0270,-0.0423,0.3031,-0.0014,-0.0409,0.1455,0.16,-1.20,0.77,0,3.241,-5.379,-4.367,-0.266,0.003,-0.014,0.978,0.000,0.000,0.000,0.3130,5,0,-1.23,1.00,5.46,-0.0039,0.0280,0.3123,0.0000,0.0000,0.3000,0.2487,-5.18,-2.11,-23.07,0.6360,0.0000,1.2560,1.4390,2.4060,200,0.0000,0.0000,0.0000,0.0000,0.0000,0
8344,-0.0278,-0.0432,0.3119,0.0062,-0.0392,0.1444,-0.12,-1.05,0.76,0,3.241,-5.858,-1.415,0.522,0.002,-0.009,0.973,0.000,0.000,0.000,0.3170,1,0,-0.64,0.99,7.13,0.0050,0.0069,0.3178,0.0000,0.0000,0.3000,0.2472,-5.20,-1.80,-22.91,0.6360,0.0000,1.2550,1.4600,2.3900,200,0.0000,0.0000,0.0000,0.0000,0.0000,0
8396,-0.0287,-0.0506,0.3180,0.0114,-0.0504,0.1279,-0.32,-0.88,0.78,0,3.241,-3.603,-2.058,-0.534,-0.001,-0.016,0.967,0.000,0.000,0.000,0.3280,-2,0,-0.94,1.02,7.16,0.0046,0.0037,0.3228,0.0000,0.0000,0.3000,0.2478,-6.29,-1.60,-23.35,0.6340,0.2090,1.2550,1.4600,2.3900,192,0.0000,0.0000,0.0000,0.0000,0.0000,0
8447,-0.0270,-0.0537,0.3262,0.0208,-0.0489,0.1235,-0.49,-0.76,0.77,0,3.241,-2.144,-2.326,-0.451,0.008,-0.008,0.968,0.000,0.000,0.000,0.3320,1,-1,-1.34,1.07,6.62,0.1293,-0.1159,0.3291,0.0000,0.0000,0.3000,0.2467,-6.47,-1.01,-22.99,0.6340,0.2090,1.2600,1.4710,2.3850,192,0.1313,-0.1144,0.0000,0.0053,0.0087,0
8498,-0.0265,-0.0547,0.3320,0.0253,-0.0418,0.1085,-0.60,-0.62,0.75,0,3.241,-0.520,-3.398,-0.609,0.005,-0.013,0.963,0.000,0.000,0.000,0.3390,0,-1,-1.41,1.10,6.67,0.1295,-0.1178,0.3337,0.0000,0.0000,0.3000,0.2472,-6.18,-0.74,-22.48,0.6280,0.0000,1.2600,1.4710,2.3850,192,0.1313,-0.1144,0.0000,0.0053,0.0087,0
8550,-0.0261,-0.0608,0.3383,0.0280,-0.0461,0.0988,-0.59,-0.43,0.71,0,3.241,-1.336,-0.962,-0.539,0.003,-0.013,0.969,0.000,0.000,0.000,0.3390,0,-1,-1.46,1.19,6.55,0.1304,-0.1182,0.3384,0.0000,0.0000,0.3000,0.2471,-6.85,-0.58,-21.40,0.6280,0.0000,1.2650,1.4620,2.3720,187,0.1313,-0.1144,0.0000,0.0053,0.0087,0
8600,-0.0240,-0.0626,0.3412,0.0324,-0.0402,0.0739,-0.66,-0.31,0.68,0,3.236,0.620,-3.282,-1.050,0.002,-0.013,0.972,0.000,0.000,0.000,0.3430,3,-2,-1.55,1.16,6.46,0.1321,-0.1181,0.3409,0.0000,0.0000,0.3000,0.2492,-6.64,-0.20,-20.46,0.6240,0.0000,1.2650,1.4620,2.3720,200,0.1313,-0.1144,0.0000,0.0053,0.0087,0
8651,-0.0226,-0.0597,0.3441,0.0340,-0.0250,0.0570,-0.63,-0.20,0.64,0,3.230,1.840,-2.414,-1.332,0.006,-0.013,0.975,0.000,0.000,0.000,0.3480,0,0,-1.32,1.21,6.83,0.1373,-0.1248,0.3433,0.0000,0.0000,0.3000,0.2505,-5.65,-0.02,-19.10,0.6240,0.0000,1.2660,1.4800,2.3640,200,0.1313,-0.1144,0.0000,0.0053,0.0087,0
8703,-0.0193,-0.0630,0.3472,0.0386,-0.0239,0.0474,-0.55,-0.02,0.58,0,3.230,1.217,-1.744,-0.967,0.001,-0.015,0.979,0.000,0.000,0.000,0.3510,0,0,-1.23,1.33,6.76,0.1374,-0.1265,0.3460,0.0000,0.0000,0.3000,0.2510,-5.83,0.46,-17.34,0.6260,0.0000,1.2660,1.4800,2.3640,200,0.1313,-0.1144,0.0000,0.0053,0.0087,0
8754,-0.0175,-0.0635,0.3502,0.0382,-0.0182,0.0418,-0.55,0.17,0.53,0,3.236,-1.059,-7.345,-1.376,0.000,-0.014,0.984,0.000,0.000,0.000,0.3530,0,0,-1.17,1.43,6.71,0.1369,-0.1280,0.3484,0.0000,0.0000,0.3000,0.2510,-5.58,0.57,-15.85,0.6260,0.0000,1.2690,1.4700,2.3550,200,0.1313,-0.1144,0.0000,0.0053,0.0087,0
8806,-0.0149,-0.0637,0.3525,0.0380,-0.0125,0.0365,-0.54,0.34,0.47,0,3.230,4.708,2.457,-1.145,0.005,-0.013,0.989,0.000,0.000,0.000,0.3520,-3,0,-1.22,1.80,6.65,0.1358,-0.1295,0.3505,0.0000,0.0000,0.3000,0.2511,-5.32,0.75,-14.07,0.6310,0.0000,1.2690,1.4700,2.3550,192,0.1313,-0.1144,0.0000,0.0053,0.0087,0
8857,-0.0115,-0.0629,0.3534,0.0381,-0.0058,0.0265,-0.35,0.31,0.41,0,3.225,0.615,-4.613,-1.373,0.005,-0.015,0.992,0.000,0.000,0.000,0.3550,1,0,-1.27,1.54,5.84,0.1409,-0.1122,0.3517,0.0000,0.0000,0.3000,0.2520,-4.92,1.00,-12.30,0.6310,0.0000,1.2700,1.4760,2.3520,192,0.1313,-0.1144,0.0000,0.0053,0.0087,0
8908,-0.0108,-0.0619,0.3547,0.0331,-0.0008,0.0213,-0.24,0.48,0.35,0,3.225,3.809,1.737,-0.571,-0.002,-0.015,0.988,0.000,0.000,0.000,0.3540,-3,0,-1.20,1.78,5.86,0.1403,-0.1120,0.3533,0.0000,0.0000,0.3000,0.2523,-4.60,0.80,-10.45,0.6430,0.2090,1.2700,1.4760,2.3520,210,0.1313,-0.1144,0.0000,0.0053,0.0087,0
8960,-0.0108,-0.0611,0.3550,0.0262,0.0026,0.0132,-0.16,0.47,0.30,0,3.220,4.932,3.606,-0.544,0.008,-0.016,0.995,0.000,0.000,0.000,0.3560,0,0,-1.07,1.67,5.66,0.1387,-0.1065,0.3537,0.0000,0.0000,0.3000,0.2531,-4.36,0.47,-9.00,0.6430,0.2090,1.2690,1.4700,2.3430,210,0.1313,-0.1144,0.0000,0.0053,0.0087,0
9011,-0.0097,-0.0579,0.3558,0.0220,0.0091,0.0108,-0.02,0.40,0.28,0,3.220,3.461,1.162,0.045,0.004,-0.015,0.993,0.000,0.000,0.000,0.3530,3,0,-0.82,1.49,5.63,0.1364,-0.1038,0.3545,0.0000,0.0000,0.3000,0.2533,-3.81,0.34,-8.34,0.6530,0.0000,1.2690,1.4700,2.3430,195,0.1313,-0.1144,0.0000,0.0053,0.0087,0
9063,-0.0116,-0.0548,0.3549,0.0134,0.0140,0.0020,0.14,0.41,0.28,0,3.220,2.324,3.262,0.394,0.009,-0.013,0.999,0.000,0.000,0.000,0.3600,-1,0,-0.38,1.37,6.18,0.1398,-0.1155,0.3547,0.0000,0.0000,0.3000,0.2544,-3.33,-0.22,-8.29,0.6530,0.0000,1.2610,1.4730,2.3400,195,0.1313,-0.1144,0.0000,0.0053,0.0087,0
9114,-0.0114,-0.0518,0.3571,0.0093,0.0175,0.0118,0.19,0.32,0.28,0,3.220,4.321,2.391,0.350,0.005,-0.018,0.999,0.000,0.000,0.000,0.3550,-3,1,-0.30,1.18,6.10,0.1386,-0.1140,0.3566,0.0000,0.0000,0.3000,0.2529,-2.96,-0.40,-8.48,0.6740,0.0000,1.2610,1.4730,2.3400,195,0.1313,-0.1144,0.0000,0.0053,0.0087,0
9166,-0.0127,-0.0494,0.3566,0.0039,0.0183,0.0061,0.29,0.13,0.30,0,3.220,6.505,3.147,-0.194,0.003,-0.013,0.999,0.000,0.000,0.000,0.3570,0,0,-0.19,1.06,5.88,0.1350,-0.1081,0.3565,0.0000,0.0000,0.3000,0.2536,-2.74,-0.77,-8.91,0.6740,0.0000,1.2660,1.4770,2.3460,195,0.1313,-0.1144,0.0000,0.0053,0.0087,0
9218,-0.0165,-0.0464,0.3570,-0.0042,0.0190,0.0062,0.52,0.09,0.30,0,3.220,2.418,2.949,-0.501,0.003,-0.014,1.001,0.000,0.000,0.000,0.3540,0,0,0.15,0.90,5.87,0.1322,-0.1076,0.3569,0.0000,0.0000,0.3000,0.2535,-2.49,-1.44,-8.85,0.6790,0.0000,1.2660,1.4770,2.3460,216,0.1313,-0.1144,0.0000,0.0053,0.0087,0
9269,-0.0195,-0.0461,0.3559,-0.0097,0.0138,-0.0001,0.55,-0.00,0.28,0,3.215,-2.954,3.357,-0.056,0.005,-0.021,1.004,0.000,0.000,0.000,0.3550,0,0,0.28,0.75,5.84,0.1292,-0.1076,0.3562,0.0000,0.0000,0.3000,0.2544,-2.71,-1.92,-8.46,0.6790,0.0000,1.2580,1.4780,2.3490,220,0.1313,-0.1144,0.0000,0.0053,0.0087,0
9320,-0.0233,-0.0418,0.3555,-0.0153,0.0159,-0.0009,0.44,-0.12,0.27,0,3.215,-0.257,2.545,0.298,0.006,-0.020,1.006,0.000,0.000,0.000,0.3560,1,2,0.13,0.57,5.84,0.1260,-0.1082,0.3561,0.0000,0.0000,0.3000,0.2546,-2.29,-2.46,-8.19,0.7000,0.0000,1.2580,1.4780,2.3490,220,0.1313,-0.1144,0.0000,0.0053,0.0087,0
9372,-0.0243,-0.0416,0.3557,-0.0146,0.0112,0.0021,0.46,-0.19,0.27,0,3.215,-0.558,2.340,-1.144,0.003,-0.015,1.006,0.000,0.000,0.000,0.3540,-3,0,0.11,0.36,5.77,0.1300,-0.1087,0.3565,0.0000,0.0000,0.3000,0.2542,-2.52,-2.51,-8.13,0.7000,0.0000,1.2750,1.4660,2.3540,220,0.1313,-0.1144,0.0000,0.0053,0.0087,0
9424,-0.0269,-0.0432,0.3551,-0.0158,0.0038,0.0017,0.42,-0.33,0.23,0,3.215,-0.654,2.616,-1.271,0.004,-0.008,1.008,0.000,0.000,0.000,0.3580,0,0,0.01,0.23,5.54,0.1283,-0.1060,0.3563,0.0000,0.0000,0.3000,0.2544,-2.98,-2.76,-6.89,0.0000,0.0000,1.2750,1.4660,2.3540,243,0.1313,-0.1144,0.0000,0.0053,0.0087,0
9475,-0.0281,-0.0389,0.3565,-0.0136,0.0070,0.0125,0.39,-0.43,0.16,0,3.215,-0.464,1.147,-1.263,0.010,-0.010,1.011,0.000,0.000,0.000,0.3570,0,0,-0.02,0.09,5.47,0.1264,-0.1068,0.3574,0.0000,0.0000,0.3000,0.2529,-2.54,-2.75,-4.89,0.0000,0.0000,1.2680,1.4690,2.3390,243,0.1313,-0.1144,0.0000,0.0053,0.0087,0
9527,-0.0316,-0.0440,0.3571,-0.0147,-0.0057,0.0165,0.41,-0.46,0.10,0,3.220,-2.338,0.158,-1.216,0.005,-0.014,1.006,0.000,0.000,0.000,0.3610,-3,0,-0.04,0.03,5.41,0.1247,-0.1078,0.3583,0.0000,0.0000,0.3000,0.2524,-3.54,-3.06,-2.89,0.6900,0.2160,1.2680,1.4690,2.3390,346,0.1313,-0.1144,0.0000,0.0053,0.0087,0
9578,-0.0329,-0.0430,0.3594,-0.0117,-0.0067,0.0261,0.32,-0.52,0.05,0,3.220,-1.961,-0.619,-1.361,0.004,-0.012,1.002,0.000,0.000,0.000,0.3610,0,0,-0.37,-0.04,4.74,0.1263,-0.0953,0.3604,0.0000,0.0000,0.3000,0.2509,-3.53,-3.04,-1.46,0.6900,0.2160,1.2640,1.4720,2.3460,346,0.1313,-0.1144,0.0000,0.0053,0.0087,0
9629,-0.0344,-0.0471,0.3609,-0.0089,-0.0155,0.0291,0.21,-0.51,-0.01,0,3.220,-3.970,0.060,-0.746,0.000,-0.014,0.992,0.000,0.000,0.000,0.3630,0,0,-0.47,-0.01,4.67,0.1257,-0.0938,0.3618,0.0000,0.0000,0.3000,0.2503,-4.28,-3.02,0.40,0.0000,0.0000,1.2640,1.4720,2.3460,346,0.1313,-0.1144,0.0000,0.0053,0.0087,0
9680,-0.0357,-0.0479,0.3627,-0.0062,-0.0171,0.0296,0.13,-0.50,-0.08,0,3.220,-1.258,-1.362,-1.177,0.004,-0.016,0.994,0.000,0.000,0.000,0.3640,0,0,-0.67,-0.02,4.63,0.1251,-0.0924,0.3633,0.0000,0.0000,0.3000,0.2499,-4.42,-2.99,2.35,0.0000,0.0000,1.2700,1.4770,2.3310,346,0.1313,-0.1144,0.0000,0.0053,0.0087,0
9731,-0.0359,-0.0488,0.3641,-0.0019,-0.0181,0.0277,0.04,-0.51,-0.14,0,3.220,-2.793,-0.760,-0.587,0.003,-0.013,0.992,0.000,0.000,0.000,0.3650,0,0,-0.74,0.05,4.57,0.1246,-0.0912,0.3646,0.0000,0.0000,0.3000,0.2498,-4.54,-2.79,4.20,0.0000,0.2210,1.2700,1.4770,2.3310,321,0.1313,-0.1144,0.0000,0.0053,0.0087,0
9783,-0.0360,-0.0506,0.3653,0.0021,-0.0198,0.0238,-0.04,-0.46,-0.18,0,3.215,-1.740,-1.719,-1.609,0.004,-0.011,0.992,0.000,0.000,0.000,0.3660,8,0,-0.88,0.09,4.54,0.1241,-0.0899,0.3656,0.0000,0.0000,0.3000,0.2500,-4.76,-2.60,5.53,0.0000,0.2210,1.2700,1.4610,2.3370,321,0.1313,-0.1144,0.0000,0.0053,0.0087,0
9834,-0.0365,-0.0523,0.3662,0.0046,-0.0205,0.0187,0.04,-0.37,-0.25,0,3.220,-2.380,-0.391,-0.753,0.004,-0.012,0.989,0.000,0.000,0.000,0.3670,3,0,-0.59,0.18,5.49,0.1278,-0.1199,0.3669,0.0000,0.0000,0.3000,0.2504,-4.90,-2.51,7.37,0.6750,0.0000,1.2700,1.4610,2.3370,339,0.1313,-0.1144,0.0000,0.0053,0.0087,0
9885,-0.0366,-0.0603,0.3671,0.0072,-0.0311,0.0141,-0.16,-0.33,-0.30,0,3.215,-5.191,-3.113,-1.150,0.004,-0.011,0.996,0.000,0.000,0.000,0.3690,2,0,-0.69,0.20,5.51,0.1284,-0.1260,0.3672,0.0000,0.0000,0.3000,0.2507,-6.01,-2.38,9.01,0.6750,0.0000,1.2720,1.4730,2.3400,338,0.1313,-0.1144,0.0000,0.0053,0.0087,0
9937,-0.0378,-0.0666,0.3683,0.0072,-0.0371,0.0135,-0.33,-0.22,-0.35,0,3.215,-0.217,-1.782,-0.272,0.000,-0.016,0.991,0.000,0.000,0.000,0.3660,0,0,-0.95,0.36,5.48,0.1289,-0.1318,0.3680,0.0000,0.0000,0.3000,0.2506,-6.76,-2.47,10.44,0.6700,0.2350,1.2720,1.4730,2.3400,338,0.1313,-0.1144,0.0000,0.0053,0.0087,0
9987,-0.0351,-0.0696,0.3677,0.0126,-0.0363,0.0032,-0.38,-0.15,-0.38,0,3.209,-3.162,-0.307,-0.461,0.003,-0.013,0.996,0.000,0.000,0.000,0.3670,1,0,-0.96,0.46,5.47,0.1292,-0.1370,0.3675,0.0000,0.0000,0.3000,0.2518,-6.92,-2.00,11.40,0.6700,0.2350,1.2670,1.4850,2.3240,338,0.1313,-0.1144,0.0000,0.0053,0.0087,0
10038,-0.0354,-0.0726,0.3674,0.0124,-0.0347,-0.0015,-0.51,-0.08,-0.42,0,3.209,-2.027,-2.483,-0.816,0.003,-0.015,0.996,0.000,0.000,0.000,0.3680,1,0,-1.18,0.47,5.27,0.1293,-0.1375,0.3677,0.0000,0.0000,0.3000,0.2523,-7.04,-2.03,12.45,0.6610,0.2250,1.2670,1.4850,2.3240,315,0.1313,-0.1144,0.0000,0.0053,0.0087,0
10090,-0.0355,-0.0748,0.3675,0.0118,-0.0311,-0.0038,-0.60,0.03,-0.46,0,3.215,0.038,-3.104,0.195,-0.001,-0.011,0.995,0.000,0.000,0.000,0.3690,0,0,-1.29,0.59,5.23,0.1295,-0.1413,0.3677,0.0000,0.0000,0.3000,0.2525,-7.02,-2.07,13.66,0.6610,0.2250,1.2630,1.4740,2.3130,315,0.1313,-0.1144,0.0000,0.0053,0.0087,0
10141,-0.0346,-0.0737,0.3681,0.0122,-0.0221,-0.0010,-0.63,0.05,-0.46,0,3.215,3.778,-1.957,-0.502,0.000,-0.020,0.996,0.000,0.000,0.000,0.3700,-3,0,-1.29,0.75,5.24,0.1292,-0.1449,0.3679,0.0000,0.0000,0.3000,0.2521,-6.52,-1.98,13.87,0.6620,0.2250,1.2630,1.4740,2.3130,314,0.1313,-0.1144,0.0000,0.0053,0.0087,0
10193,-0.0342,-0.0658,0.3688,0.0111,-0.0033,0.0021,-0.54,0.19,-0.47,0,3.209,6.210,1.345,0.214,0.003,-0.015,0.995,0.000,0.000,0.000,0.3690,0,0,-1.28,0.84,4.76,0.1285,-0.1323,0.3686,0.0000,0.0000,0.3000,0.2516,-5.04,-2.01,14.04,0.6620,0.2250,1.2680,1.4690,2.3360,314,0.1313,-0.1144,0.0000,0.0053,0.0087,0
10245,-0.0354,-0.0707,0.3689,0.0071,-0.0072,0.0004,-0.27,0.18,-0.46,0,3.215,4.023,1.889,-0.361,0.005,-0.018,0.998,0.000,0.000,0.000,0.3680,-1,0,-0.96,0.77,4.77,0.1276,-0.1320,0.3684,0.0000,0.0000,0.3000,0.2518,-5.59,-2.30,13.89,0.6730,0.2180,1.2680,1.4690,2.3360,314,0.1313,-0.1144,0.0000,0.0053,0.0087,0
10297,-0.0365,-0.0646,0.3685,0.0034,0.0041,-0.0038,-0.06,0.13,-0.47,0,3.209,3.894,0.332,-0.292,0.004,-0.011,0.999,0.000,0.000,0.000,0.3680,-1,2,-0.78,0.65,4.67,0.1282,-0.1288,0.3679,0.0000,0.0000,0.3000,0.2523,-4.58,-2.55,14.03,0.6730,0.2180,1.2640,1.4760,2.3160,314,0.1313,-0.1144,0.0000,0.0053,0.0087,0
10348,-0.0357,-0.0570,0.3681,0.0034,0.0160,-0.0066,0.05,0.11,-0.47,0,3.209,6.392,0.424,-0.989,0.006,-0.015,0.997,0.000,0.000,0.000,0.3690,0,2,-0.59,0.66,4.63,0.1237,-0.1267,0.3675,0.0000,0.0000,0.3000,0.2527,-3.44,-2.49,14.06,0.6780,0.0000,1.2640,1.4760,2.3160,329,0.1313,-0.1144,0.0000,0.0053,0.0087,0
10400,-0.0381,-0.0591,0.3683,-0.0012,0.0110,-0.0054,0.34,0.05,-0.48,0,3.209,2.377,1.785,-0.687,0.005,-0.013,0.997,0.000,0.000,0.000,0.3680,0,1,-0.26,0.68,4.61,0.1186,-0.1267,0.3675,0.0000,0.0000,0.3000,0.2525,-3.84,-2.89,14.55,0.6780,0.0000,1.2630,1.4740,2.3290,222,0.1313,-0.1144,0.0000,0.0053,0.0087,0
10451,-0.0409,-0.0557,0.3680,-0.0057,0.0121,-0.0067,0.43,-0.06,-0.50,0,3.209,-0.375,2.385,1.031,0.006,-0.013,0.997,0.000,0.000,0.000,0.3690,0,0,-0.13,0.59,4.59,0.1154,-0.1267,0.3672,0.0000,0.0000,0.3000,0.2527,-3.54,-3.32,15.03,0.0000,0.0000,1.2630,1.4740,2.3290,222,0.1313,-0.1144,0.0000,0.0053,0.0087,0
10503,-0.0424,-0.0505,0.3682,-0.0069,0.0159,-0.0053,0.38,-0.16,-0.50,0,3.209,2.256,3.052,-0.052,0.003,-0.013,0.998,0.000,0.000,0.000,0.3640,0,0,-0.15,0.47,4.64,0.1124,-0.1265,0.3672,0.0000,0.0000,0.3000,0.2525,-2.97,-3.49,14.93,0.0000,0.0000,1.2620,1.4800,2.3250,247,0.1313,-0.1144,0.0000,0.0053,0.0087,0
10554,-0.0447,-0.0512,0.3662,-0.0087,0.0097,-0.0150,0.48,-0.20,-0.51,0,3.204,1.272,2.291,0.152,0.010,-0.017,0.999,0.000,0.000,0.000,0.3660,0,0,-0.03,0.31,4.64,0.1095,-0.1267,0.3657,0.0000,0.0000,0.3000,0.2540,-3.31,-3.72,15.37,0.6780,0.0000,1.2620,1.4800,2.3250,247,0.1313,-0.1144,0.0000,0.0053,0.0087,0
10605,-0.0465,-0.0496,0.3656,-0.0093,0.0069,-0.0147,0.61,-0.24,-0.50,0,3.209,-2.079,1.399,0.443,0.004,-0.016,1.003,0.000,0.000,0.000,0.3620,-1,0,0.03,0.19,4.64,0.1067,-0.1272,0.3651,0.0000,0.0000,0.3000,0.2540,-3.33,-3.88,15.04,0.6780,0.0000,1.2570,1.4790,2.3310,247,0.1313,-0.1144,0.0000,0.0053,0.0087,0
10656,-0.0489,-0.0532,0.3635,-0.0105,-0.0041,-0.0207,0.47,-0.28,-0.47,0,3.199,-3.222,-0.058,0.220,0.003,-0.015,1.003,0.000,0.000,0.000,0.3600,0,0,-0.14,0.02,4.46,0.1169,-0.1191,0.3638,0.0000,0.0000,0.3000,0.2551,-4.11,-4.10,14.00,0.6850,0.2420,1.2570,1.4790,2.3310,256,0.1313,-0.1144,0.0000,0.0053,0.0087,0
10707,-0.0516,-0.0566,0.3613,-0.0118,-0.0132,-0.0260,0.39,-0.25,-0.46,0,3.199,-4.177,3.816,-0.024,0.004,-0.012,1.007,0.000,0.000,0.000,0.3610,0,0,-0.30,0.02,4.47,0.1165,-0.1189,0.3620,0.0000,0.0000,0.3000,0.2561,-4.77,-4.34,13.86,0.6850,0.2420,1.2590,1.4710,2.3330,256,0.1313,-0.1144,0.0000,0.0053,0.0087,0
10758,-0.0523,-0.0542,0.3604,-0.0098,-0.0114,-0.0219,0.20,-0.33,-0.46,0,3.199,-1.479,-2.071,0.107,0.006,-0.013,1.006,0.000,0.000,0.000,0.3630,0,-1,-0.51,-0.17,4.46,0.1161,-0.1188,0.3611,0.0000,0.0000,0.3000,0.2558,-4.52,-4.30,13.67,0.6810,0.2290,1.2590,1.4710,2.3330,256,0.1313,-0.1144,0.0000,0.0053,0.0087,0
10810,-0.0536,-0.0549,0.3610,-0.0089,-0.0134,-0.0121,0.10,-0.25,-0.45,0,3.204,-1.955,0.939,-0.065,0.005,-0.013,1.008,0.000,0.000,0.000,0.3600,2,1,-0.59,-0.10,4.44,0.1195,-0.1185,0.3612,0.0000,0.0000,0.3000,0.2546,-4.69,-4.37,13.50,0.6810,0.2290,1.2610,1.4740,2.3420,256,0.1313,-0.1144,0.0000,0.0053,0.0087,0
10861,-0.0531,-0.0558,0.3603,-0.0053,-0.0147,-0.0103,0.02,-0.23,-0.46,0,3.199,0.253,5.010,-0.843,0.006,-0.015,1.003,0.000,0.000,0.000,0.3620,-1,0,-0.66,-0.13,4.52,0.1189,-0.1212,0.3607,0.0000,0.0000,0.3000,0.2546,-4.82,-4.16,13.73,0.6890,0.2320,1.2610,1.4740,2.3420,297,0.1313,-0.1144,0.0000,0.0053,0.0087,0
10913,-0.0534,-0.0606,0.3607,-0.0030,-0.0222,-0.0028,0.02,-0.31,-0.49,0,3.204,-5.872,-0.251,0.022,-0.001,-0.016,1.001,0.000,0.000,0.000,0.3580,0,0,-0.67,-0.39,4.43,0.1192,-0.1201,0.3610,0.0000,0.0000,0.3000,0.2536,-5.55,-4.09,14.61,0.6890,0.2320,1.2650,1.4840,2.3320,338,0.1313,-0.1144,0.0000,0.0053,0.0087,0
10964,-0.0541,-0.0556,0.3595,-0.0016,-0.0116,-0.0071,-0.15,-0.30,-0.51,0,3.199,3.358,0.025,-0.901,0.004,-0.017,0.999,0.000,0.000,0.000,0.3640,1,0,-0.98,-0.37,4.43,0.1199,-0.1205,0.3599,0.0000,0.0000,0.3000,0.2543,-4.66,-4.07,15.16,0.6800,0.0000,1.2650,1.4840,2.3320,338,0.1313,-0.1144,0.0000,0.0053,0.0087,0
11015,-0.0543,-0.0586,0.3613,0.0009,-0.0147,0.0048,-0.06,-0.23,-0.56,0,3.204,-1.421,-1.961,-0.829,0.006,-0.014,0.999,0.000,0.000,0.000,0.3620,-3,0,-0.78,-0.36,4.45,0.1195,-0.1234,0.3610,0.0000,0.0000,0.3000,0.2527,-5.06,-3.98,16.68,0.6800,0.0000,1.2690,1.4730,2.3400,338,0.1313,-0.1144,0.0000,0.0053,0.0087,0
11067,-0.0544,-0.0585,0.3617,0.0023,-0.0132,0.0064,-0.11,-0.19,-0.57,0,3.204,0.884,-0.077,-0.984,0.005,-0.015,0.996,0.000,0.000,0.000,0.3560,0,0,-0.91,-0.25,4.26,0.1194,-0.1183,0.3613,0.0000,0.0000,0.3000,0.2524,-4.99,-3.93,17.15,0.6800,0.0000,1.2690,1.4730,2.3400,231,0.1313,-0.1144,0.0000,0.0053,0.0087,0
11118,-0.0561,-0.0584,0.3595,0.0006,-0.0117,-0.0086,-0.06,-0.14,-0.61,0,3.199,-0.863,-0.159,-0.998,0.006,-0.013,0.995,0.000,0.000,0.000,0.3610,3,0,-0.87,-0.25,4.21,0.1204,-0.1179,0.3595,0.0000,0.0000,0.3000,0.2545,-4.87,-4.10,18.39,0.6800,0.0000,1.2700,1.4730,2.3360,231,0.1313,-0.1144,0.0000,0.0053,0.0087,0
11169,-0.0574,-0.0551,0.3598,-0.0007,-0.0043,-0.0055,-0.08,-0.10,-0.66,0,3.199,1.333,-2.343,-0.376,0.005,-0.011,0.999,0.000,0.000,0.000,0.3610,0,1,-0.80,-0.22,4.44,0.1202,-0.1293,0.3596,0.0000,0.0000,0.3000,0.2541,-4.28,-4.27,19.90,0.6780,0.2210,1.2700,1.4730,2.3360,305,0.1313,-0.1144,0.0000,0.0053,0.0087,0
11220,-0.0576,-0.0588,0.3601,-0.0000,-0.0102,-0.0031,0.02,-0.09,-0.70,0,3.199,0.059,3.312,-0.699,0.007,-0.014,1.001,0.000,0.000,0.000,0.3610,1,0,-0.74,-0.08,4.41,0.1187,-0.1302,0.3597,0.0000,0.0000,0.3000,0.2538,-4.84,-4.26,20.97,0.6780,0.2210,1.2720,1.4690,2.3550,305,0.1313,-0.1144,0.0000,0.0053,0.0087,0
11272,-0.0592,-0.0576,0.3604,-0.0022,-0.0073,-0.0002,0.02,-0.08,-0.70,0,3.199,-1.415,-2.004,-0.385,0.007,-0.014,0.994,0.000,0.000,0.000,0.3610,1,0,-0.73,-0.24,4.40,0.1192,-0.1331,0.3598,0.0000,0.0000,0.3000,0.2534,-4.62,-4.48,21.08,0.6800,0.0000,1.2720,1.4690,2.3550,305,0.1313,-0.1144,0.0000,0.0053,0.0087,0
11323,-0.0607,-0.0614,0.3606,-0.0037,-0.0138,-0.0011,0.02,-0.09,-0.72,0,3.199,-0.973,4.071,-0.153,0.005,-0.010,0.995,0.000,0.000,0.000,0.3570,3,1,-0.79,-0.13,4.40,0.1197,-0.1362,0.3597,0.0000,0.0000,0.3000,0.2535,-5.21,-4.67,21.75,0.6800,0.0000,0.0000,1.4700,2.3400,305,0.1313,-0.1144,0.0000,0.0053,0.0087,0
11373,-0.0615,-0.0592,0.3591,-0.0042,-0.0083,-0.0103,-0.03,-0.16,-0.73,0,3.199,-1.430,1.023,-0.217,0.001,-0.015,0.996,0.000,0.000,0.000,0.3620,0,1,-0.79,-0.31,4.53,0.1180,-0.1448,0.3583,0.0000,0.0000,0.3000,0.2547,-4.76,-4.73,21.93,0.6790,0.2300,0.0000,1.4700,2.3400,316,0.1313,-0.1144,0.0000,0.0053,0.0087,0
11425,-0.0619,-0.0628,0.3600,-0.0033,-0.0133,-0.0050,-0.17,-0.19,-0.75,0,3.199,0.755,-1.760,-0.043,-0.001,-0.016,0.997,0.000,0.000,0.000,0.3590,0,0,-0.88,-0.34,4.48,0.1155,-0.1459,0.3588,0.0000,0.0000,0.3000,0.2540,-5.28,-4.72,22.45,0.6790,0.2300,1.2660,1.4740,2.3480,394,0.1313,-0.1144,0.0000,0.0053,0.0087,0
11476,-0.0628,-0.0661,0.3594,-0.0031,-0.0173,-0.0071,-0.12,-0.18,-0.77,0,3.199,-1.470,1.812,-0.038,-0.003,-0.014,0.998,0.000,0.000,0.000,0.3570,2,0,-0.84,-0.25,4.48,0.1157,-0.1488,0.3582,0.0000,0.0000,0.3000,0.2543,-5.71,-4.78,23.05,0.6760,0.2240,1.2660,1.4740,2.3480,394,0.1313,-0.1144,0.0000,0.0053,0.0087,0
11527,-0.0634,-0.0670,0.3582,-0.0027,-0.0164,-0.0123,-0.16,-0.22,-0.78,0,3.194,-3.308,-2.218,-0.164,0.005,-0.016,1.003,0.000,0.000,0.000,0.3560,0,0,-0.90,-0.34,4.51,0.1160,-0.1534,0.3572,0.0000,0.0000,0.3000,0.2551,-5.71,-4.79,23.34,0.6760,0.2240,1.2740,1.4690,2.3430,394,0.1313,-0.1144,0.0000,0.0053,0.0087,0
11578,-0.0634,-0.0698,0.3569,-0.0006,-0.0187,-0.0162,-0.27,-0.15,-0.80,0,3.194,-2.022,-0.694,-0.936,0.000,-0.014,0.996,0.000,0.000,0.000,0.3580,0,0,-1.07,-0.23,4.50,0.1165,-0.1566,0.3562,0.2043,-0.0583,0.3000,0.2558,-5.41,-18.68,24.09,0.6730,0.0000,1.2740,1.4690,2.3430,390,0.1313,-0.1144,0.0000,0.0053,0.0087,0
11629,-0.0634,-0.0707,0.3569,0.0007,-0.0163,-0.0129,-0.38,-0.16,-0.85,0,3.194,0.839,-0.846,-0.072,0.001,-0.018,1.003,0.000,0.000,0.000,0.3570,1,0,-1.18,-0.19,4.45,0.1172,-0.1597,0.3559,0.2043,-0.0583,0.3000,0.2554,-5.37,-18.65,25.43,0.6730,0.0000,1.2790,1.4580,2.3580,390,0.1313,-0.1144,0.0000,0.0053,0.0087,0
11680,-0.0650,-0.0710,0.3565,-0.0013,-0.0123,-0.0110,-0.33,-0.16,-0.87,0,3.194,0.318,0.083,-0.260,0.005,-0.015,0.999,0.000,0.000,0.000,0.3550,2,0,-1.18,-0.13,4.34,0.1153,-0.1559,0.3557,0.2043,-0.0583,0.3000,0.2553,-5.21,-18.86,26.22,0.6750,0.0000,1.2790,1.4580,2.3580,375,0.1313,-0.1144,0.0000,0.0053,0.0087,0
11732,-0.0633,-0.0702,0.3556,0.0035,-0.0066,-0.0129,-0.30,-0.16,-0.90,0,3.194,-0.354,-1.944,-0.116,0.002,-0.014,1.004,0.000,0.000,0.000,0.3580,4,0,-1.14,-0.14,4.37,0.1159,-0.1602,0.3549,0.2043,-0.0583,0.3000,0.2556,-4.86,-18.51,26.91,0.6750,0.0000,1.2750,1.4540,2.3510,375,0.1313,-0.1144,0.0000,0.0053,0.0087,0
11784,-0.0621,-0.0715,0.3562,0.0069,-0.0056,-0.0048,-0.31,-0.09,-0.90,0,3.194,1.909,-3.510,0.698,0.007,-0.017,1.005,0.000,0.000,0.000,0.3530,-2,-1,-1.11,-0.03,4.49,0.1169,-0.1690,0.3553,0.2043,-0.0583,0.3000,0.2546,-4.93,-18.36,27.04,0.6720,0.2260,1.2750,1.4540,2.3510,375,0.1313,-0.1144,0.0000,0.0053,0.0087,0
11835,-0.0607,-0.0747,0.3547,0.0095,-0.0084,-0.0107,-0.24,0.04,-0.87,0,3.194,1.309,-0.071,0.452,0.005,-0.019,1.006,0.000,0.000,0.000,0.3530,-1,0,-1.06,0.13,4.42,0.1190,-0.1656,0.3545,0.2043,-0.0583,0.3000,0.2556,-5.27,-18.10,25.96,0.6720,0.2260,1.2740,1.4650,2.3500,375,0.1313,-0.1144,0.0000,0.0053,0.0087,0
11886,-0.0604,-0.0763,0.3537,0.0088,-0.0090,-0.0115,-0.21,0.04,-0.82,0,3.188,1.319,-0.726,0.477,0.005,-0.015,1.002,0.000,0.000,0.000,0.3510,0,0,-1.02,0.14,4.38,0.1191,-0.1639,0.3538,0.2043,-0.0583,0.3000,0.2558,-5.42,-18.09,24.71,0.6710,0.2200,1.2740,1.4650,2.3500,375,0.1313,-0.1144,0.0000,0.0053,0.0087,0
11937,-0.0628,-0.0752,0.3523,0.0027,-0.0048,-0.0160,-0.16,0.06,-0.79,0,3.194,3.868,0.163,1.040,0.005,-0.015,1.004,0.000,0.000,0.000,0.3510,-2,0,-0.96,0.18,4.40,0.1201,-0.1650,0.3527,0.2043,-0.0583,0.3000,0.2566,-5.12,-18.47,23.76,0.6710,0.2200,1.2740,1.4530,2.3650,375,0.1313,-0.1144,0.0000,0.0053,0.0087,0
11988,-0.0623,-0.0759,0.3513,0.0027,-0.0043,-0.0164,-0.08,0.06,-0.73,0,3.188,0.198,-1.956,0.665,0.008,-0.012,1.004,0.000,0.000,0.000,0.3520,3,0,-0.84,0.19,4.30,0.1178,-0.1554,0.3520,0.2043,-0.0583,0.3000,0.2568,-5.14,-18.43,21.91,0.6770,0.2290,1.2740,1.4530,2.3650,89,0.1313,-0.1144,0.0000,0.0053,0.0087,0
12039,-0.0608,-0.0738,0.3511,0.0049,0.0007,-0.0110,-0.14,0.18,-0.69,0,3.188,2.636,1.212,1.176,0.003,-0.015,1.005,0.000,0.000,0.000,0.3510,2,0,-0.77,0.29,4.44,0.1187,-0.1617,0.3520,0.2043,-0.0583,0.3000,0.2563,-4.76,-18.27,20.70,0.6770,0.2290,1.2770,1.4540,2.3590,94,0.1313,-0.1144,0.0000,0.0053,0.0087,0
12090,-0.0613,-0.0723,0.3508,0.0023,0.0046,-0.0083,-0.00,0.05,-0.64,0,3.188,1.776,-1.486,1.617,0.009,-0.014,1.002,0.000,0.000,0.000,0.3500,0,1,-0.61,0.23,4.56,0.1193,-0.1668,0.3516,0.2043,-0.0583,0.3000,0.2560,-4.47,-18.44,19.11,0.6690,0.0000,1.2770,1.4540,2.3590,94,0.1313,-0.1144,0.0000,0.0053,0.0087,0
12141,-0.0607,-0.0727,0.3502,0.0025,0.0036,-0.0067,0.01,0.11,-0.54,0,3.188,4.122,-0.792,1.235,0.005,-0.017,1.003,0.000,0.000,0.000,0.3500,0,0,-0.52,0.33,4.63,0.1169,-0.1673,0.3511,0.2043,-0.0583,0.3000,0.2560,-4.55,-18.40,16.35,0.6690,0.0000,1.2770,1.4610,2.3570,94,0.1313,-0.1144,0.0000,0.0053,0.0087,0
12192,-0.0620,-0.0724,0.3500,-0.0010,0.0036,-0.0052,0.12,0.07,-0.47,0,3.183,-2.361,-1.562,1.729,0.002,-0.016,1.002,0.000,0.000,0.000,0.3530,0,2,-0.31,0.37,4.69,0.1170,-0.1687,0.3507,0.2043,-0.0583,0.3000,0.2558,-4.53,-18.64,14.20,0.6850,0.0000,1.2770,1.4610,2.3570,147,0.1313,-0.1144,0.0000,0.0053,0.0087,0
12243,-0.0620,-0.0723,0.3511,-0.0018,0.0028,0.0037,0.05,0.18,-0.37,0,3.194,2.079,6.641,1.291,-0.000,-0.019,0.999,0.000,0.000,0.000,0.3510,-1,0,-0.46,0.50,4.76,0.1081,-0.1669,0.3514,0.2043,-0.0583,0.3000,0.2547,-4.58,-18.77,11.14,0.6850,0.0000,1.2730,1.4590,2.3630,147,0.1313,-0.1144,0.0000,0.0053,0.0087,0
12295,-0.0657,-0.0748,0.3512,-0.0097,-0.0029,0.0037,0.08,0.06,-0.29,0,3.194,-1.422,3.849,1.777,0.010,-0.016,0.998,0.000,0.000,0.000,0.3500,2,0,-0.38,0.15,4.78,0.1073,-0.1650,0.3514,0.2043,-0.0583,0.3000,0.2546,-5.04,-19.35,8.58,0.6970,0.2190,1.2730,1.4590,2.3630,196,0.1313,-0.1144,0.0000,0.0053,0.0087,0
12346,-0.0689,-0.0723,0.3508,-0.0154,0.0016,-0.0000,0.07,-0.12,-0.23,0,3.188,-1.516,4.536,0.723,0.006,-0.018,0.996,0.000,0.000,0.000,0.3480,0,1,-0.42,-0.06,4.92,0.1075,-0.1704,0.3510,0.2043,-0.0583,0.3000,0.2551,-4.64,-19.78,6.91,0.6970,0.2190,1.2770,1.4580,2.3600,196,0.1313,-0.1144,0.0000,0.0053,0.0087,0
12397,-0.0715,-0.0721,0.3496,-0.0182,0.0013,-0.0079,0.04,-0.25,-0.20,0,3.183,0.516,0.758,0.264,0.004,-0.017,0.997,0.000,0.000,0.000,0.3500,2,0,-0.51,-0.27,4.94,0.1046,-0.1711,0.3499,0.2043,-0.0583,0.3000,0.2562,-4.61,-19.99,5.94,0.6950,0.0000,1.2770,1.4580,2.3600,196,0.1313,-0.1144,0.0000,0.0053,0.0087,0
12448,-0.0752,-0.0709,0.3495,-0.0213,0.0032,-0.0086,0.01,-0.33,-0.17,0,3.188,-2.835,-0.460,-0.011,0.009,-0.013,1.004,0.000,0.000,0.000,0.3450,0,0,-0.46,-0.32,5.00,0.1049,-0.1772,0.3496,0.2043,-0.0583,0.3000,0.2563,-4.44,-20.36,5.07,0.6950,0.0000,1.2630,1.4690,2.3550,196,0.1313,-0.1144,0.0000,0.0053,0.0087,0
12499,-0.0796,-0.0741,0.3473,-0.0252,-0.0035,-0.0171,-0.00,-0.38,-0.16,0,3.183,0.476,0.376,-0.940,0.000,-0.017,0.998,0.000,0.000,0.000,0.3480,3,0,-0.60,-0.30,5.00,0.1045,-0.1800,0.3479,0.2043,-0.0583,0.3000,0.2576,-4.96,-20.71,4.80,0.6990,0.2360,1.2630,1.4690,2.3550,196,0.1313,-0.1144,0.0000,0.0053,0.0087,0
12550,-0.0819,-0.0743,0.3470,-0.0236,-0.0036,-0.0145,-0.01,-0.45,-0.19,0,3.183,0.798,5.636,-0.722,0.007,-0.016,1.007,0.000,0.000,0.000,0.3480,0,1,-0.54,-0.32,5.01,0.1063,-0.1889,0.3473,0.2043,-0.0583,0.3000,0.2574,-4.99,-20.80,5.84,0.6990,0.2360,1.2740,1.4500,2.3540,196,0.1313,-0.1144,0.0000,0.0053,0.0087,0
12602,-0.0824,-0.0691,0.3470,-0.0183,0.0069,-0.0086,-0.03,-0.59,-0.22,0,3.183,2.517,1.626,-0.038,0.003,-0.016,1.005,0.000,0.000,0.000,0.3480,0,0,-0.52,-0.59,4.94,0.1039,-0.1904,0.3473,0.2043,-0.0583,0.3000,0.2567,-4.13,-20.67,6.61,0.7180,0.0000,1.2740,1.4500,2.3540,201,0.1313,-0.1144,0.0000,0.0053,0.0087,0
12652,-0.0830,-0.0690,0.3472,-0.0125,0.0069,-0.0041,-0.03,-0.64,-0.24,0,3.188,3.537,-1.434,-0.553,0.005,-0.019,1.001,0.000,0.000,0.000,0.3460,-1,0,-0.39,-0.68,4.94,0.1041,-0.1941,0.3474,0.2043,-0.0583,0.3000,0.2562,-4.13,-20.50,7.22,0.7180,0.0000,1.2650,1.4650,2.3510,201,0.1313,-0.1144,0.0000,0.0053,0.0087,0
12704,-0.0849,-0.0689,0.3466,-0.0102,0.0067,-0.0053,0.04,-0.47,-0.26,0,3.188,2.809,0.984,-0.399,0.006,-0.018,1.002,0.000,0.000,0.000,0.3460,0,0,-0.30,-0.60,4.74,0.1024,-0.1840,0.3473,0.2043,-0.0583,0.3000,0.2565,-4.12,-20.51,7.95,0.7080,0.0000,1.2650,1.4650,2.3510,179,0.1313,-0.1144,0.0000,0.0053,0.0087,0
12756,-0.0872,-0.0680,0.3462,-0.0098,0.0071,-0.0053,0.13,-0.52,-0.28,0,3.188,-1.647,-0.468,0.308,0.003,-0.020,1.005,0.000,0.000,0.000,0.3430,0,1,-0.16,-0.65,4.72,0.1032,-0.1858,0.3468,0.2043,-0.0583,0.3000,0.2565,-4.04,-20.64,8.25,0.7080,0.0000,1.2680,1.4590,2.3680,179,0.1313,-0.1144,0.0000,0.0053,0.0087,0
12808,-0.0873,-0.0662,0.3447,-0.0048,0.0084,-0.0104,0.17,-0.49,-0.28,0,3.183,2.592,-3.967,0.189,0.004,-0.020,0.999,0.000,0.000,0.000,0.3470,1,0,-0.28,-0.59,4.69,0.0977,-0.1832,0.3458,0.2043,-0.0583,0.3000,0.2574,-3.83,-20.37,8.54,0.7040,0.2330,1.2680,1.4590,2.3680,208,0.1313,-0.1144,0.0000,0.0053,0.0087,0
12859,-0.0868,-0.0664,0.3453,0.0005,0.0058,-0.0035,0.19,-0.35,-0.28,0,3.183,1.564,-2.972,-0.720,0.008,-0.018,1.002,0.000,0.000,0.000,0.3440,-2,0,-0.14,-0.38,4.71,0.0980,-0.1860,0.3460,0.2043,-0.0583,0.3000,0.2565,-3.98,-20.19,8.54,0.7040,0.2330,1.2600,1.4670,2.3640,208,0.1313,-0.1144,0.0000,0.0053,0.0087,0
12909,-0.0868,-0.0680,0.3447,0.0033,0.0003,-0.0053,0.25,-0.24,-0.30,0,3.188,-0.744,1.124,0.311,0.002,-0.016,0.996,0.000,0.000,0.000,0.3450,0,0,-0.10,-0.23,4.59,0.0977,-0.1822,0.3455,0.2043,-0.0583,0.3000,0.2568,-4.36,-20.05,8.87,0.7080,0.2390,1.2600,1.4670,2.3640,208,0.1313,-0.1144,0.0000,0.0053,0.0087,0
12960,-0.0865,-0.0677,0.3446,0.0053,-0.0010,-0.0055,0.15,-0.16,-0.30,0,3.183,-3.043,2.583,0.045,0.008,-0.014,1.002,0.000,0.000,0.000,0.3420,0,0,-0.14,-0.28,4.61,0.0985,-0.1836,0.3451,0.2043,-0.0583,0.3000,0.2568,-4.40,-19.94,9.10,0.7080,0.2390,1.2630,1.4480,2.3500,208,0.1313,-0.1144,0.0000,0.0053,0.0087,0
13011,-0.0868,-0.0684,0.3433,0.0052,-0.0034,-0.0105,0.02,-0.08,-0.29,0,3.183,-0.003,-1.857,-0.086,0.006,-0.020,0.998,0.000,0.000,0.000,0.3430,0,0,-0.30,-0.42,4.61,0.0997,-0.1853,0.3440,0.2043,-0.0583,0.3000,0.2576,-4.55,-19.92,8.64,0.7010,0.0000,1.2630,1.4480,2.3500,208,0.1313,-0.1144,0.0000,0.0053,0.0087,0
13062,-0.0882,-0.0685,0.3428,0.0025,-0.0035,-0.0109,0.03,-0.05,-0.29,0,3.183,-0.898,2.522,-0.341,0.004,-0.015,1.002,0.000,0.000,0.000,0.3420,1,0,-0.30,-0.32,4.61,0.1011,-0.1874,0.3433,0.2043,-0.0583,0.3000,0.2578,-4.57,-20.12,8.72,0.7010,0.0000,1.2640,1.4700,2.3470,224,0.1313,-0.1144,0.0000,0.0053,0.0087,0
13114,-0.0892,-0.0685,0.3421,0.0007,-0.0036,-0.0118,0.04,-0.09,-0.30,0,3.178,-2.963,-4.370,0.642,0.008,-0.016,1.003,0.000,0.000,0.000,0.3440,0,0,-0.39,-0.41,4.54,0.0948,-0.1830,0.3428,0.2043,-0.0583,0.3000,0.2580,-4.56,-20.24,8.91,0.7050,0.0000,1.2640,1.4700,2.3470,182,0.1313,-0.1144,0.0000,0.0053,0.0087,0
13165,-0.0886,-0.0693,0.3426,0.0025,-0.0047,-0.0056,-0.09,-0.00,-0.27,0,3.183,3.463,-0.279,-0.684,-0.000,-0.016,1.002,0.000,0.000,0.000,0.3450,3,0,-0.54,-0.18,4.58,0.0956,-0.1843,0.3429,0.2043,-0.0583,0.3000,0.2572,-4.68,-20.18,8.01,0.7050,0.0000,1.2720,1.4660,2.3530,182,0.1313,-0.1144,0.0000,0.0053,0.0087,0
13217,-0.0916,-0.0694,0.3435,-0.0036,-0.0035,0.0018,-0.07,0.01,-0.27,0,3.188,0.656,3.172,0.042,0.006,-0.020,1.007,0.000,0.000,0.000,0.3450,0,1,-0.32,-0.16,4.62,0.0960,-0.1908,0.3433,0.2043,-0.0583,0.3000,0.2562,-4.65,-20.71,8.17,0.7170,0.2360,1.2720,1.4660,2.3530,201,0.1313,-0.1144,0.0000,0.0053,0.0087,0
13268,-0.0937,-0.0678,0.3442,-0.0074,0.0007,0.0057,-0.14,-0.08,-0.27,0,3.183,1.282,1.896,0.407,0.004,-0.016,0.996,0.000,0.000,0.000,0.3470,3,0,-0.30,-0.31,4.61,0.0952,-0.1926,0.3440,0.2043,-0.0583,0.3000,0.2557,-4.35,-21.04,8.14,0.7170,0.2360,1.2690,1.4580,2.3580,201,0.1313,-0.1144,0.0000,0.0053,0.0087,0
13320,-0.0959,-0.0644,0.3456,-0.0103,0.0087,0.0103,-0.21,-0.03,-0.25,0,3.188,4.278,5.102,0.333,0.005,-0.014,0.992,0.000,0.000,0.000,0.3460,0,1,-0.20,-0.40,4.68,0.0962,-0.1991,0.3449,0.2043,-0.0583,0.3000,0.2549,-3.72,-21.37,7.56,0.7410,0.2310,1.2690,1.4580,2.3580,239,0.1313,-0.1144,0.0000,0.0053,0.0087,0
13371,-0.0987,-0.0708,0.3461,-0.0141,-0.0031,0.0079,0.03,-0.20,-0.24,0,3.183,-1.717,1.518,0.039,0.005,-0.014,0.993,0.000,0.000,0.000,0.3440,0,0,-0.00,-0.65,4.68,0.0948,-0.2011,0.3454,0.2043,-0.0583,0.3000,0.2551,-4.76,-21.70,7.22,0.7410,0.2310,1.2650,1.4570,2.3600,239,0.1313,-0.1144,0.0000,0.0053,0.0087,0
13422,-0.1025,-0.0707,0.3453,-0.0180,-0.0022,-0.0012,-0.06,-0.28,-0.24,0,3.183,-2.093,-0.645,0.056,0.003,-0.017,0.993,0.000,0.000,0.000,0.3400,-1,0,-0.09,-0.72,4.68,0.0958,-0.2049,0.3448,0.2043,-0.0583,0.3000,0.2562,-4.68,-22.02,7.07,0.7470,0.2440,1.2650,1.4570,2.3600,239,0.1313,-0.1144,0.0000,0.0053,0.0087,0
13473,-0.1034,-0.0653,0.3430,-0.0157,0.0091,-0.0161,-0.19,-0.36,-0.22,0,3.178,-0.543,-1.316,0.515,0.003,-0.015,0.996,0.000,0.000,0.000,0.3410,-1,0,-0.29,-0.68,4.53,0.0936,-0.1971,0.3434,0.2043,-0.0583,0.3000,0.2583,-3.73,-21.82,6.59,0.7470,0.2440,1.2680,1.4620,2.3650,239,0.1313,-0.1144,0.0000,0.0053,0.0087,0
13525,-0.1063,-0.0692,0.3416,-0.0166,0.0018,-0.0208,-0.08,-0.35,-0.20,0,3.178,2.076,2.033,0.355,0.009,-0.017,0.999,0.000,0.000,0.000,0.3380,0,1,-0.34,-0.60,4.52,0.0939,-0.1959,0.3420,0.2043,-0.0583,0.3000,0.2590,-4.34,-21.99,5.86,0.7600,0.0000,1.2680,1.4620,2.3650,229,0.1313,-0.1144,0.0000,0.0053,0.0087,0
13575,-0.1086,-0.0675,0.3394,-0.0169,0.0054,-0.0276,-0.06,-0.33,-0.17,0,3.172,-0.985,0.448,0.199,0.006,-0.013,1.007,0.000,0.000,0.000,0.3410,0,0,-0.24,-0.69,4.54,0.0921,-0.1966,0.3400,0.2043,-0.0583,0.3000,0.2602,-4.03,-22.06,5.14,0.7600,0.0000,1.2670,1.4650,2.3650,243,0.1313,-0.1144,0.0000,0.0053,0.0087,0
13627,-0.1115,-0.0647,0.3393,-0.0178,0.0106,-0.0193,-0.11,-0.42,-0.15,0,3.172,0.195,-0.991,0.796,0.006,-0.015,1.005,0.000,0.000,0.000,0.3420,-1,0,-0.29,-0.71,4.55,0.0935,-0.1981,0.3396,0.2043,-0.0583,0.3000,0.2593,-3.60,-22.34,4.48,0.7680,0.0000,1.2670,1.4650,2.3650,243,0.1313,-0.1144,0.0000,0.0053,0.0087,0
13677,-0.1128,-0.0658,0.3399,-0.0153,0.0084,-0.0089,-0.06,-0.40,-0.13,0,3.178,1.866,1.259,0.270,0.005,-0.015,1.004,0.000,0.000,0.000,0.3370,0,0,-0.34,-0.63,4.51,0.0907,-0.1923,0.3399,0.2043,-0.0583,0.3000,0.2581,-3.80,-22.42,3.80,0.7680,0.0000,1.2600,1.4660,2.3700,243,0.1313,-0.1144,0.0000,0.0053,0.0087,0
13729,-0.1134,-0.0655,0.3384,-0.0117,0.0083,-0.0121,0.05,-0.45,-0.11,0,3.178,-1.372,-0.249,0.054,0.008,-0.013,1.003,0.000,0.000,0.000,0.3390,0,0,-0.24,-0.70,4.52,0.0921,-0.1926,0.3386,0.2043,-0.0583,0.3000,0.2587,-3.77,-22.26,3.28,0.7710,0.0000,1.2600,1.4660,2.3700,208,0.1313,-0.1144,0.0000,0.0053,0.0087,0
13780,-0.1157,-0.0632,0.3383,-0.0113,0.0117,-0.0084,0.06,-0.46,-0.10,0,3.178,0.271,0.491,1.085,0.003,-0.018,1.000,0.000,0.000,0.000,0.3400,-1,0,-0.31,-0.68,4.53,0.0940,-0.1932,0.3383,0.2043,-0.0583,0.3000,0.2583,-3.45,-22.42,2.87,0.7710,0.0000,1.2580,1.4600,2.3700,208,0.1313,-0.1144,0.0000,0.0053,0.0087,0
13831,-0.1163,-0.0629,0.3388,-0.0076,0.0106,-0.0019,0.07,-0.40,-0.06,0,3.178,-0.105,-1.020,0.053,0.010,-0.017,1.005,0.000,0.000,0.000,0.3400,-2,0,-0.35,-0.66,4.52,0.0879,-0.1873,0.3387,0.2043,-0.0583,0.3000,0.2575,-3.49,-22.38,1.93,0.7820,0.0000,1.2580,1.4600,2.3700,208,0.1313,-0.1144,0.0000,0.0053,0.0087,0
13883,-0.1164,-0.0615,0.3393,-0.0038,0.0115,0.0021,0.10,-0.37,-0.05,0,3.172,0.277,-3.112,0.045,0.001,-0.018,0.999,0.000,0.000,0.000,0.3360,-1,0,-0.38,-0.60,4.49,0.0883,-0.1842,0.3389,0.2043,-0.0583,0.3000,0.2570,-3.35,-22.27,1.60,0.7820,0.0000,1.2600,1.4620,2.3610,208,0.1313,-0.1144,0.0000,0.0053,0.0087,0
13934,-0.1171,-0.0601,0.3379,-0.0020,0.0120,-0.0059,0.19,-0.29,-0.04,0,3.178,1.618,-1.397,-0.623,0.007,-0.017,0.994,0.000,0.000,0.000,0.3380,0,0,-0.38,-0.44,4.48,0.0888,-0.1822,0.3378,0.2043,-0.0583,0.3000,0.2581,-3.21,-22.16,1.17,0.8100,0.2480,1.2600,1.4620,2.3610,217,0.1313,-0.1144,0.0000,0.0053,0.0087,0
13986,-0.1187,-0.0607,0.3377,-0.0027,0.0080,-0.0065,0.23,-0.24,-0.05,0,3.178,-2.291,1.002,-0.049,0.005,-0.016,0.998,0.000,0.000,0.000,0.3360,0,0,-0.29,-0.36,4.45,0.0905,-0.1815,0.3375,0.2043,-0.0583,0.3000,0.2582,-3.45,-22.28,1.36,0.8100,0.2480,1.2620,1.4550,2.3620,217,0.1313,-0.1144,0.0000,0.0053,0.0087,0
14037,-0.1190,-0.0592,0.3368,-0.0013,0.0081,-0.0107,0.22,-0.20,-0.06,0,3.172,-1.832,-1.403,0.340,0.005,-0.011,0.999,0.000,0.000,0.000,0.3360,-2,0,-0.41,-0.42,4.44,0.0924,-0.1812,0.3366,0.2043,-0.0583,0.3000,0.2588,-3.33,-22.19,1.79,0.8500,0.0000,1.2620,1.4550,2.3620,217,0.1313,-0.1144,0.0000,0.0053,0.0087,0
14087,-0.1189,-0.0593,0.3361,0.0007,0.0053,-0.0134,0.24,-0.19,-0.06,0,3.167,0.093,-1.452,-0.085,0.000,-0.018,0.999,0.000,0.000,0.000,0.3340,0,0,-0.55,-0.29,4.41,0.0865,-0.1746,0.3360,0.2043,-0.0583,0.3000,0.2592,-3.46,-22.08,1.95,0.8500,0.0000,1.2670,1.4510,2.3780,217,0.1313,-0.1144,0.0000,0.0053,0.0087,0
14138,-0.1191,-0.0594,0.3348,0.0016,0.0025,-0.0166,0.22,-0.14,-0.06,0,3.167,-0.171,-0.897,0.184,0.009,-0.015,1.005,0.000,0.000,0.000,0.3360,1,0,-0.55,-0.22,4.41,0.0873,-0.1733,0.3348,0.2043,-0.0583,0.3000,0.2598,-3.60,-22.01,1.86,0.0000,0.2270,1.2670,1.4510,2.3780,242,0.1313,-0.1144,0.0000,0.0053,0.0087,0
14190,-0.1190,-0.0593,0.3348,0.0027,0.0006,-0.0117,0.18,-0.08,-0.06,0,3.167,-2.416,-0.775,-0.426,0.006,-0.013,1.004,0.000,0.000,0.000,0.3330,-2,0,-0.52,-0.16,4.47,0.0871,-0.1765,0.3348,0.2043,-0.0583,0.3000,0.2593,-3.69,-22.00,1.79,0.0000,0.2270,1.2620,1.4530,2.3760,206,0.1313,-0.1144,0.0000,0.0053,0.0087,0
14241,-0.1196,-0.0601,0.3337,0.0019,-0.0022,-0.0130,0.07,-0.05,-0.07,0,3.172,-0.341,0.108,-0.996,0.007,-0.012,1.003,0.000,0.000,0.000,0.3330,1,0,-0.67,-0.11,4.42,0.0873,-0.1733,0.3339,0.2043,-0.0583,0.3000,0.2596,-3.87,-22.05,2.21,0.0000,0.2400,1.2620,1.4530,2.3760,206,0.1313,-0.1144,0.0000,0.0053,0.0087,0
14293,-0.1199,-0.0568,0.3330,0.0015,0.0039,-0.0115,0.01,-0.05,-0.10,0,3.162,1.366,-0.084,-0.047,0.005,-0.016,1.007,0.000,0.000,0.000,0.3370,-1,0,-0.67,-0.11,4.39,0.0880,-0.1747,0.3333,0.2043,-0.0583,0.3000,0.2596,-3.34,-22.10,2.91,0.0000,0.2400,1.2560,1.4560,2.3680,200,0.1313,-0.1144,0.0000,0.0053,0.0087,0
14344,-0.1198,-0.0581,0.3344,0.0020,0.0009,0.0012,0.06,-0.06,-0.10,0,3.172,-0.303,-0.733,-1.083,0.002,-0.017,0.999,0.000,0.000,0.000,0.3330,0,0,-0.62,-0.10,4.37,0.0883,-0.1726,0.3343,0.2043,-0.0583,0.3000,0.2580,-3.61,-22.20,3.08,0.0000,0.2410,1.2560,1.4560,2.3680,200,0.1313,-0.1144,0.0000,0.0053,0.0087,0
14395,-0.1199,-0.0592,0.3339,0.0021,-0.0020,-0.0015,0.03,-0.05,-0.15,0,3.172,-0.090,-1.513,-0.399,0.006,-0.013,1.003,0.000,0.000,0.000,0.3330,0,0,-0.63,-0.07,4.32,0.0894,-0.1720,0.3338,0.2043,-0.0583,0.3000,0.2584,-3.81,-22.18,4.41,0.0000,0.2410,1.2560,1.4500,2.3720,200,0.1313,-0.1144,0.0000,0.0053,0.0087,0
14446,-0.1199,-0.0591,0.3335,0.0023,-0.0020,-0.0033,0.03,-0.05,-0.17,0,3.178,-0.431,-1.667,0.045,0.002,-0.013,0.998,0.000,0.000,0.000,0.3350,1,0,-0.64,0.01,4.30,0.0906,-0.1715,0.3335,0.2043,-0.0583,0.3000,0.2586,-3.80,-22.15,5.15,0.0000,0.2410,1.2560,1.4500,2.3720,205,0.1313,-0.1144,0.0000,0.0053,0.0087,0
14497,-0.1199,-0.0591,0.3340,0.0026,-0.0020,0.0003,0.01,-0.03,-0.19,0,3.167,-2.557,-3.556,0.194,0.005,-0.018,1.000,0.000,0.000,0.000,0.3370,1,0,-0.63,0.13,4.34,0.0877,-0.1765,0.3339,0.2043,-0.0583,0.3000,0.2581,-3.81,-22.18,5.59,0.0000,0.2410,1.2630,1.4600,2.3680,205,0.1313,-0.1144,0.0000,0.0053,0.0087,0
14548,-0.1203,-0.0604,0.3353,0.0019,-0.0043,0.0071,-0.06,0.02,-0.19,0,3.172,1.095,-0.710,0.036,0.008,-0.010,0.993,0.000,0.000,0.000,0.3300,0,0,-0.75,0.31,4.36,0.0882,-0.1784,0.3349,0.2043,-0.0583,0.3000,0.2571,-4.03,-22.32,5.64,0.0000,0.2420,1.2630,1.4600,2.3680,205,0.1313,-0.1144,0.0000,0.0053,0.0087,0
14599,-0.1217,-0.0603,0.3333,-0.0011,-0.0033,-0.0063,-0.05,-0.03,-0.19,0,3.167,2.149,2.732,-0.150,0.003,-0.012,0.996,0.000,0.000,0.000,0.3320,0,-1,-0.69,0.35,4.36,0.0887,-0.1794,0.3332,0.2043,-0.0583,0.3000,0.2590,-3.95,-22.38,5.57,0.0000,0.2420,1.2650,1.4530,2.3520,205,0.1313,-0.1144,0.0000,0.0053,0.0087,0
14650,-0.1246,-0.0606,0.3325,-0.0064,-0.0032,-0.0117,-0.02,-0.07,-0.19,0,3.167,-2.410,-1.225,0.179,0.006,-0.015,0.996,0.000,0.000,0.000,0.3330,0,0,-0.60,0.19,4.34,0.0913,-0.1784,0.3325,0.2043,-0.0544,0.3000,0.2597,-4.22,-22.68,5.68,2.5100,0.0000,1.2650,1.4530,2.3520,167,0.1313,-0.1144,0.0000,0.0053,0.0087,0
14702,-0.1241,-0.0605,0.3323,-0.0043,-0.0026,-0.0122,-0.07,-0.09,-0.19,0,3.167,-0.336,2.282,-0.304,0.003,-0.014,1.001,0.000,0.000,0.000,0.3320,0,0,-0.72,0.25,4.35,0.0924,-0.1790,0.3321,0.2042,-0.0506,0.3000,0.2598,-4.46,-22.50,5.81,2.5100,0.0000,1.2630,1.4430,2.3670,205,0.1313,-0.1144,0.0000,0.0053,0.0087,0
14753,-0.1264,-0.0633,0.3317,-0.0072,-0.0071,-0.0116,-0.03,-0.13,-0.20,0,3.167,-0.879,-2.324,-0.356,0.000,-0.017,0.997,0.000,0.000,0.000,0.3330,0,0,-0.74,0.13,4.33,0.0934,-0.1797,0.3315,0.2040,-0.0468,0.3000,0.2598,-5.13,-22.71,6.08,0.0000,0.2410,1.2630,1.4430,2.3670,205,0.1313,-0.1144,0.0000,0.0053,0.0087,0
14804,-0.1261,-0.0644,0.3319,-0.0049,-0.0080,-0.0077,-0.06,-0.15,-0.21,0,3.167,-0.858,1.974,-0.688,0.005,-0.012,1.003,0.000,0.000,0.000,0.3290,1,0,-0.78,0.25,4.32,0.0944,-0.1805,0.3314,0.2038,-0.0429,0.3000,0.2594,-5.53,-22.58,6.16,0.0000,0.2410,0.0000,1.4440,2.3740,205,0.1313,-0.1144,0.0000,0.0053,0.0087,0
14855,-0.1278,-0.0646,0.3304,-0.0064,-0.0072,-0.0125,-0.10,-0.13,-0.23,0,3.167,-0.513,-0.277,-0.900,0.000,-0.013,0.999,0.000,0.000,0.000,0.3280,-3,0,-0.82,0.18,4.28,0.0916,-0.1816,0.3302,0.2035,-0.0391,0.3000,0.2602,-5.76,-22.62,7.02,2.5320,0.2390,0.0000,1.4440,2.3740,179,0.1313,-0.1144,0.0000,0.0053,0.0087,0
14906,-0.1276,-0.0700,0.3289,-0.0043,-0.0157,-0.0170,-0.16,-0.16,-0.28,0,3.167,-0.119,0.664,-1.133,0.007,-0.016,1.003,0.000,0.000,0.000,0.3280,-3,0,-0.88,0.19,4.23,0.0915,-0.1791,0.3289,0.2032,-0.0353,0.3000,0.2609,-6.77,-22.40,8.53,2.5320,0.2390,1.2640,1.4320,2.3620,179,0.1313,-0.1144,0.0000,0.0053,0.0087,0
14957,-0.1280,-0.0713,0.3280,-0.0035,-0.0162,-0.0163,-0.15,-0.13,-0.33,0,3.162,-0.487,1.188,-1.001,0.007,-0.015,1.003,0.000,0.000,0.000,0.3320,-2,0,-0.92,0.16,4.16,0.0913,-0.1755,0.3280,0.2028,-0.0315,0.3000,0.2610,-7.15,-22.32,9.89,0.0000,0.0000,1.2640,1.4320,2.3620,180,0.1313,-0.1144,0.0000,0.0053,0.0087,0
15009,-0.1278,-0.0669,0.3293,-0.0017,-0.0058,-0.0041,-0.18,-0.18,-0.39,0,3.167,-0.803,1.611,-0.926,0.008,-0.014,1.007,0.000,0.000,0.000,0.3280,0,0,-0.96,0.10,4.10,0.0913,-0.1721,0.3286,0.2024,-0.0276,0.3000,0.2595,-6.66,-22.29,11.62,0.0000,0.0000,1.2590,1.4280,2.3800,180,0.1313,-0.1144,0.0000,0.0053,0.0087,0
15060,-0.1263,-0.0652,0.3286,0.0027,-0.0009,-0.0049,-0.13,-0.20,-0.44,0,3.167,-0.984,-0.294,-0.955,0.006,-0.014,1.003,0.000,0.000,0.000,0.3310,5,1,-1.00,0.02,4.05,0.0916,-0.1704,0.3282,0.2019,-0.0238,0.3000,0.2597,-6.56,-21.93,13.06,0.0000,0.0000,1.2590,1.4280,2.3800,180,0.1313,-0.1144,0.0000,0.0053,0.0087,0
15112,-0.1267,-0.0641,0.3295,0.0029,0.0026,0.0020,-0.11,-0.14,-0.49,0,3.162,1.804,1.345,-0.555,0.006,-0.014,1.000,0.000,0.000,0.000,0.3270,0,0,-0.91,0.07,4.04,0.0894,-0.1867,0.3295,0.2013,-0.0200,0.3000,0.2588,-6.61,-21.93,14.73,0.0000,0.0000,1.2600,1.4490,2.3830,180,0.1313,-0.1144,0.0000,0.0053,0.0087,0
15163,-0.1280,-0.0694,0.3285,0.0013,-0.0070,-0.0032,-0.13,-0.13,-0.51,0,3.167,-0.503,-0.521,-0.012,0.005,-0.014,0.996,0.000,0.000,0.000,0.3300,2,0,-0.82,-0.00,4.01,0.0893,-0.1891,0.3287,0.2007,-0.0162,0.3000,0.2595,-7.66,-21.95,15.25,0.0000,0.0000,1.2600,1.4490,2.3830,208,0.1313,-0.1144,0.0000,0.0053,0.0087,0
15214,-0.1276,-0.0674,0.3290,0.0032,-0.0023,-0.0011,-0.07,-0.13,-0.51,0,3.167,-0.361,-4.686,-0.474,0.006,-0.016,0.999,0.000,0.000,0.000,0.3270,0,0,-0.83,0.02,4.02,0.0897,-0.1931,0.3289,0.2000,-0.0124,0.3000,0.2592,-7.57,-21.78,15.27,0.0000,0.0000,1.2680,1.4440,2.3940,199,0.1313,-0.1144,0.0000,0.0053,0.0087,0
15265,-0.1273,-0.0695,0.3281,0.0047,-0.0059,-0.0070,-0.05,-0.06,-0.53,0,3.162,1.383,2.295,-0.220,0.002,-0.012,0.998,0.000,0.000,0.000,0.3280,0,0,-0.85,0.26,4.00,0.0900,-0.1959,0.3282,0.1993,-0.0087,0.3000,0.2600,-8.11,-21.55,15.80,0.0000,0.2560,1.2680,1.4440,2.3940,199,0.1313,-0.1144,0.0000,0.0053,0.0087,0
15317,-0.1272,-0.0695,0.3279,0.0048,-0.0052,-0.0071,-0.11,-0.03,-0.52,0,3.162,0.269,-2.082,-0.373,0.008,-0.015,1.002,0.000,0.000,0.000,0.3240,3,0,-0.78,0.15,3.98,0.0902,-0.1987,0.3278,0.1985,-0.0049,0.3000,0.2601,-8.33,-21.45,15.54,0.0000,0.2560,1.2690,1.4360,2.3780,177,0.1313,-0.1144,0.0000,0.0053,0.0087,0
15368,-0.1274,-0.0696,0.3259,0.0043,-0.0045,-0.0149,-0.12,-0.01,-0.52,0,3.162,-1.154,-0.930,0.214,0.006,-0.011,1.006,0.000,0.000,0.000,0.3290,-2,0,-0.75,0.26,3.97,0.0901,-0.2028,0.3263,0.1977,-0.0011,0.3000,0.2613,-8.52,-21.30,15.60,0.0000,0.2430,1.2690,1.4360,2.3780,177,0.1313,-0.1144,0.0000,0.0053,0.0087,0
15420,-0.1267,-0.0674,0.3268,0.0054,0.0012,-0.0057,-0.14,0.06,-0.54,0,3.162,-0.317,-2.666,-0.434,0.003,-0.010,1.003,0.000,0.000,0.000,0.3240,-1,0,-0.84,0.30,3.97,0.0901,-0.2022,0.3270,0.1967,0.0027,0.3000,0.2601,-8.38,-21.20,16.13,0.0000,0.2430,1.2630,1.4450,2.3830,177,0.1313,-0.1144,0.0000,0.0053,0.0087,0
15472,-0.1271,-0.0682,0.3255,0.0037,0.0002,-0.0102,-0.14,0.10,-0.55,0,3.162,3.097,-2.249,-0.632,0.004,-0.010,1.003,0.000,0.000,0.000,0.3240,0,0,-0.88,0.44,3.95,0.0901,-0.2017,0.3260,0.1958,0.0064,0.3000,0.2608,-8.71,-21.13,16.35,0.0000,0.2550,1.2630,1.4450,2.3830,201,0.1313,-0.1144,0.0000,0.0053,0.0087,0
15524,-0.1270,-0.0706,0.3246,0.0027,-0.0040,-0.0116,-0.03,0.13,-0.55,0,3.162,-3.585,2.491,0.478,0.000,-0.012,1.003,0.000,0.000,0.000,0.3230,0,0,-0.72,0.56,3.92,0.0901,-0.2029,0.3253,0.1947,0.0102,0.3000,0.2612,-9.30,-21.04,16.43,0.0000,0.2550,1.2590,1.4130,2.3680,201,0.1313,-0.1144,0.0000,0.0053,0.0087,0
15575,-0.1269,-0.0708,0.3236,0.0015,-0.0037,-0.0125,-0.19,0.10,-0.54,0,3.157,-1.094,1.133,0.817,0.002,-0.017,0.999,0.000,0.000,0.000,0.3240,-3,1,-0.91,0.43,3.94,0.0899,-0.2042,0.3244,0.1936,0.0139,0.3000,0.2614,-9.53,-20.95,16.32,0.0000,0.2540,1.2590,1.4130,2.3680,201,0.1313,-0.1144,0.0000,0.0053,0.0087,0
15626,-0.1269,-0.0703,0.3235,0.0006,-0.0012,-0.0074,-0.22,0.10,-0.54,0,3.157,-0.040,1.664,1.173,-0.001,-0.016,1.008,0.000,0.000,0.000,0.3220,0,0,-1.06,0.39,3.98,0.0867,-0.1917,0.3240,0.1925,0.0176,0.3000,0.2609,-9.64,-20.92,16.34,0.0000,0.2540,1.2580,1.4120,2.3830,201,0.1313,-0.1144,0.0000,0.0053,0.0087,0
15677,-0.1277,-0.0673,0.3227,-0.0021,0.0067,-0.0074,-0.21,0.04,-0.49,0,3.162,1.512,2.148,1.032,0.001,-0.019,1.002,0.000,0.000,0.000,0.3230,0,0,-1.07,0.30,4.03,0.0855,-0.1900,0.3233,0.1913,0.0212,0.3000,0.2611,-9.30,-20.96,14.82,0.0000,0.2630,1.2580,1.4120,2.3830,201,0.1313,-0.1144,0.0000,0.0053,0.0087,0
15729,-0.1276,-0.0648,0.3226,-0.0021,0.0131,-0.0037,-0.14,-0.04,-0.45,0,3.157,1.643,-0.418,1.310,0.000,-0.014,1.000,0.000,0.000,0.000,0.3230,-3,1,-0.99,0.19,4.08,0.0842,-0.1882,0.3231,0.1901,0.0248,0.3000,0.2607,-9.08,-20.86,13.51,0.0000,0.2630,1.2580,1.4270,2.3710,201,0.1313,-0.1144,0.0000,0.0053,0.0087,0
15780,-0.1274,-0.0649,0.3227,-0.0011,0.0126,-0.0008,-0.04,-0.06,-0.39,0,3.162,1.818,1.132,1.612,0.002,-0.015,1.000,0.000,0.000,0.000,0.3220,-1,0,-0.93,0.21,4.15,0.0830,-0.1829,0.3228,0.1888,0.0284,0.3000,0.2603,-9.35,-20.71,11.76,0.0000,0.0000,1.2580,1.4270,2.3710,216,0.1313,-0.1144,0.0000,0.0053,0.0087,0
15832,-0.1283,-0.0629,0.3224,-0.0023,0.0157,-0.0015,0.04,-0.09,-0.32,0,3.157,1.574,1.463,1.763,0.004,-0.016,1.004,0.000,0.000,0.000,0.3220,2,1,-0.84,0.14,4.24,0.0820,-0.1800,0.3224,0.1874,0.0321,0.3000,0.2605,-9.30,-20.68,9.73,0.0000,0.0000,1.2640,1.4240,2.3810,210,0.1313,-0.1144,0.0000,0.0053,0.0087,0
15884,-0.1303,-0.0634,0.3222,-0.0055,0.0124,-0.0008,0.20,-0.12,-0.25,0,3.157,0.132,0.581,1.094,0.010,-0.014,1.002,0.000,0.000,0.000,0.3220,1,0,-0.72,0.08,4.33,0.0801,-0.1814,0.3224,0.1859,0.0357,0.3000,0.2604,-9.72,-20.81,7.48,0.0000,0.2770,1.2640,1.4240,2.3810,210,0.1313,-0.1144,0.0000,0.0053,0.0087,0
15936,-0.1314,-0.0649,0.3221,-0.0063,0.0071,-0.0005,0.16,-0.13,-0.20,0,3.157,-1.668,2.439,0.771,0.010,-0.015,0.998,0.000,0.000,0.000,0.3250,1,0,-0.69,0.04,4.39,0.0797,-0.1822,0.3224,0.1844,0.0393,0.3000,0.2604,-10.29,-20.78,6.03,0.0000,0.2770,1.2610,1.4070,2.3730,210,0.1313,-0.1144,0.0000,0.0053,0.0087,0
15987,-0.1326,-0.0674,0.3233,-0.0072,-0.0006,0.0059,0.13,-0.20,-0.15,0,3.162,0.473,3.379,0.776,0.010,-0.011,0.999,0.000,0.000,0.000,0.3260,0,0,-0.76,-0.09,4.43,0.0795,-0.1837,0.3232,0.1829,0.0428,0.3000,0.2595,-11.08,-20.82,4.57,2.6010,0.0000,1.2610,1.4070,2.3730,218,0.1313,-0.1144,0.0000,0.0053,0.0087,0
16038,-0.1336,-0.0683,0.3246,-0.0069,-0.0036,0.0102,0.14,-0.24,-0.11,0,3.162,-1.491,0.218,0.174,0.010,-0.014,0.997,0.000,0.000,0.000,0.3240,2,0,-0.73,-0.26,4.47,0.0792,-0.1833,0.3242,0.1814,0.0463,0.3000,0.2588,-11.53,-20.78,3.44,2.6010,0.0000,1.2570,1.3980,2.3870,218,0.1313,-0.1144,0.0000,0.0053,0.0087,0
16090,-0.1340,-0.0693,0.3246,-0.0052,-0.0066,0.0066,0.06,-0.26,-0.07,0,3.162,-4.647,-4.003,1.015,0.001,-0.015,0.991,0.000,0.000,0.000,0.3260,0,0,-0.75,-0.27,4.50,0.0797,-0.1904,0.3243,0.1797,0.0498,0.3000,0.2592,-11.94,-20.57,2.21,0.0000,0.2410,1.2570,1.3980,2.3870,229,0.1313,-0.1144,0.0000,0.0053,0.0087,0
16141,-0.1349,-0.0711,0.3254,-0.0047,-0.0102,0.0063,-0.06,-0.25,-0.05,0,3.162,-2.596,-0.702,0.636,0.008,-0.012,0.996,0.000,0.000,0.000,0.3220,0,0,-1.00,-0.07,4.56,0.0800,-0.1917,0.3247,0.1780,0.0533,0.3000,0.2591,-12.44,-20.47,1.41,0.0000,0.2410,1.2680,1.3830,2.3780,229,0.1313,-0.1144,0.0000,0.0053,0.0087,0
16192,-0.1346,-0.0719,0.3241,-0.0018,-0.0104,-0.0043,-0.09,-0.26,-0.04,0,3.151,0.854,3.337,0.120,0.005,-0.012,0.995,0.000,0.000,0.000,0.3280,2,-1,-1.13,-0.03,4.59,0.0805,-0.1929,0.3237,0.1763,0.0567,0.3000,0.2604,-12.65,-20.08,1.13,0.0000,0.2460,1.2680,1.3830,2.3780,229,0.1313,-0.1144,0.0000,0.0053,0.0087,0
16244,-0.1360,-0.0699,0.3256,-0.0028,-0.0040,0.0021,-0.14,-0.17,-0.04,0,3.157,-0.046,1.635,-0.326,0.003,-0.013,0.994,0.000,0.000,0.000,0.3210,0,0,-1.06,-0.21,4.61,0.0832,-0.1975,0.3247,0.1745,0.0601,0.3000,0.2595,-12.48,-20.13,1.21,0.0000,0.2460,1.2650,1.4100,2.3920,229,0.1313,-0.1144,0.0000,0.0053,0.0087,0
16295,-0.1358,-0.0724,0.3237,-0.0007,-0.0077,-0.0106,-0.18,-0.15,-0.04,0,3.157,1.307,4.702,0.598,0.004,-0.014,0.995,0.000,0.000,0.000,0.3260,0,0,-1.06,-0.30,4.59,0.0844,-0.1990,0.3232,0.1726,0.0635,0.3000,0.2612,-12.94,-19.75,1.30,0.0000,0.0000,1.2650,1.4100,2.3920,190,0.1313,-0.1144,0.0000,0.0053,0.0087,0
16347,-0.1336,-0.0715,0.3242,0.0053,-0.0034,-0.0077,-0.18,-0.15,-0.02,0,3.151,1.159,1.047,0.235,0.009,-0.011,1.006,0.000,0.000,0.000,0.3250,0,0,-0.99,-0.54,4.62,0.0859,-0.2004,0.3234,0.1707,0.0669,0.3000,0.2608,-12.91,-19.23,0.47,0.0000,0.0000,1.2640,1.4050,2.3840,211,0.1313,-0.1144,0.0000,0.0053,0.0087,0
16397,-0.1322,-0.0704,0.3243,0.0089,0.0012,-0.0056,-0.21,-0.05,-0.02,0,3.151,1.473,-2.078,-0.366,0.002,-0.015,0.993,0.000,0.000,0.000,0.3230,-1,0,-0.93,-0.59,4.63,0.0877,-0.2016,0.3236,0.1688,0.0702,0.3000,0.2605,-12.83,-18.85,0.46,0.0000,0.2430,1.2640,1.4050,2.3840,211,0.1313,-0.1144,0.0000,0.0053,0.0087,0
16448,-0.1305,-0.0717,0.3236,0.0120,-0.0001,-0.0092,-0.12,0.02,-0.04,0,3.151,-0.523,-1.428,0.001,0.009,-0.011,1.002,0.000,0.000,0.000,0.3230,3,0,-0.92,-0.43,4.55,0.0815,-0.1957,0.3232,0.1668,0.0734,0.3000,0.2611,-13.15,-18.41,1.13,0.0000,0.2430,1.2670,1.3880,2.3680,211,0.1313,-0.1144,0.0000,0.0053,0.0087,0
16499,-0.1301,-0.0713,0.3230,0.0116,0.0018,-0.0105,-0.10,0.05,-0.05,0,3.146,-0.887,-3.807,-0.132,0.005,-0.012,0.998,0.000,0.000,0.000,0.3210,2,0,-0.92,-0.36,4.57,0.0824,-0.1981,0.3229,0.1648,0.0767,0.3000,0.2613,-13.21,-18.22,1.55,0.0000,0.0000,1.2670,1.3880,2.3680,241,0.1313,-0.1144,0.0000,0.0053,0.0087,0
16550,-0.1296,-0.0711,0.3218,0.0112,0.0027,-0.0155,-0.07,0.12,-0.08,0,3.151,1.754,-0.399,-0.401,0.010,-0.011,1.004,0.000,0.000,0.000,0.3180,0,0,-0.94,-0.16,4.59,0.0833,-0.2004,0.3219,0.1627,0.0798,0.3000,0.2621,-13.31,-17.99,2.33,0.0000,0.0000,1.2670,1.3980,2.3770,241,0.1313,-0.1144,0.0000,0.0053,0.0087,0
16602,-0.1299,-0.0720,0.3198,0.0085,0.0014,-0.0220,-0.05,0.14,-0.10,0,3.146,0.713,-0.485,-0.087,0.008,-0.013,1.002,0.000,0.000,0.000,0.3160,0,0,-0.85,-0.14,4.57,0.0847,-0.2010,0.3203,0.1605,0.0831,0.3000,0.2632,-13.56,-17.88,2.89,2.5590,0.0000,1.2670,1.3980,2.3770,210,0.1313,-0.1144,0.0000,0.0053,0.0087,0
16653,-0.1286,-0.0710,0.3175,0.0094,0.0039,-0.0281,-0.01,0.13,-0.11,0,3.141,0.171,-0.519,-0.741,0.004,-0.015,1.012,0.000,0.000,0.000,0.3180,-2,0,-0.81,-0.12,4.56,0.0863,-0.2015,0.3184,0.1583,0.0862,0.3000,0.2642,-13.51,-17.50,3.21,2.5590,0.0000,1.2680,1.4060,2.3790,210,0.1313,-0.1144,0.0000,0.0053,0.0087,0
16704,-0.1286,-0.0756,0.3170,0.0073,-0.0065,-0.0206,0.01,0.18,-0.12,0,3.141,-0.589,-0.410,0.111,0.004,-0.018,1.006,0.000,0.000,0.000,0.3160,2,0,-0.87,-0.05,4.47,0.0825,-0.1949,0.3180,0.1561,0.0893,0.3000,0.2635,-14.49,-17.46,3.70,0.0000,0.2340,1.2680,1.4060,2.3790,210,0.1313,-0.1144,0.0000,0.0053,0.0087,0
16755,-0.1278,-0.0734,0.3160,0.0066,-0.0014,-0.0163,0.01,0.24,-0.15,0,3.146,-1.313,0.979,-0.401,0.005,-0.015,1.008,0.000,0.000,0.000,0.3160,0,0,-0.87,-0.03,4.49,0.0832,-0.1965,0.3172,0.1538,0.0924,0.3000,0.2633,-14.30,-17.28,4.37,0.0000,0.2340,1.2750,1.4050,2.3950,210,0.1313,-0.1144,0.0000,0.0053,0.0087,0
16807,-0.1264,-0.0787,0.3156,0.0071,-0.0123,-0.0104,-0.09,0.18,-0.17,0,3.146,-1.781,-0.591,-0.913,0.004,-0.013,1.008,0.000,0.000,0.000,0.3160,-3,-1,-0.94,-0.08,4.47,0.0839,-0.1960,0.3168,0.1514,0.0955,0.3000,0.2627,-15.34,-17.01,4.98,0.0000,0.0000,1.2750,1.4050,2.3950,241,0.1313,-0.1144,0.0000,0.0053,0.0087,0
16859,-0.1276,-0.0784,0.3155,0.0024,-0.0103,-0.0041,-0.18,0.20,-0.19,0,3.151,-0.768,-0.416,-0.785,0.003,-0.013,1.005,0.000,0.000,0.000,0.3190,3,0,-1.09,-0.05,4.40,0.0852,-0.1886,0.3164,0.1490,0.0985,0.3000,0.2620,-15.44,-17.14,5.78,0.0000,0.0000,1.2730,1.4190,2.3870,241,0.1313,-0.1144,0.0000,0.0053,0.0087,0
16910,-0.1265,-0.0793,0.3170,0.0026,-0.0099,0.0082,-0.17,0.19,-0.22,0,3.146,-1.225,0.715,-0.384,0.009,-0.014,1.001,0.000,0.000,0.000,0.3160,1,0,-1.08,-0.03,4.38,0.0862,-0.1917,0.3178,0.1466,0.1015,0.3000,0.2604,-15.74,-16.97,6.73,0.0000,0.0000,1.2730,1.4190,2.3870,241,0.1313,-0.1144,0.0000,0.0053,0.0087,0
16961,-0.1259,-0.0823,0.3169,0.0021,-0.0143,0.0075,-0.23,0.12,-0.24,0,3.141,-0.673,-0.158,-0.331,0.004,-0.008,1.001,0.000,0.000,0.000,0.3210,0,0,-1.12,-0.06,4.36,0.0870,-0.1929,0.3176,0.1441,0.1044,0.3000,0.2605,-16.28,-16.75,7.19,0.0000,0.0000,1.2680,1.4070,2.3840,241,0.1313,-0.1144,0.0000,0.0053,0.0087,0
17012,-0.1268,-0.0786,0.3189,-0.0009,-0.0036,0.0162,-0.29,-0.17,-0.23,0,3.146,-13.987,94.320,1.961,-0.006,-0.011,0.991,0.000,0.000,0.000,0.3200,1,15,-1.16,-0.05,4.35,0.0882,-0.1920,0.3190,0.1416,0.1073,0.3000,0.2592,-15.80,-16.82,6.76,0.0000,0.0000,1.2680,1.4070,2.3840,241,0.1313,-0.1144,0.0000,0.0053,0.0087,0
17063,-0.1217,-0.0805,0.3198,0.0134,-0.0047,0.0131,-0.72,-3.53,-0.19,0,3.146,0.730,116.091,-1.481,0.014,-0.014,1.000,0.000,0.000,0.000,0.3240,0,6,-1.84,-4.48,4.19,0.0397,-0.1998,0.3235,0.1390,0.1102,0.3000,0.2593,-16.13,-15.65,5.57,0.0000,0.0000,1.2740,1.4270,2.3780,241,0.1313,-0.1144,0.0000,0.0053,0.0087,0
17115,-0.1304,-0.0782,0.3220,0.0337,0.0072,0.0175,-0.97,-9.53,-0.31,0,3.151,7.525,19.937,-0.456,0.009,-0.017,0.995,0.000,0.000,0.000,0.3290,-1,2,-1.84,-10.35,3.89,0.0253,-0.2007,0.3247,0.1364,0.1130,0.3000,0.2585,-15.65,-15.17,9.39,0.0000,0.0000,1.2740,1.4270,2.3780,241,0.1313,-0.1144,0.0000,0.0053,0.0087,0
17166,-0.1257,-0.0756,0.3251,0.1209,0.0189,0.0202,-0.73,-11.36,-0.37,0,3.157,1.477,4.307,0.045,0.005,-0.006,0.990,0.000,0.000,0.000,0.3270,0,-1,-1.49,-11.37,3.77,0.0193,-0.1988,0.3266,0.1338,0.1158,0.3000,0.2576,-15.15,-10.71,11.16,0.0000,0.0000,1.2700,1.4450,2.4310,241,0.1313,-0.1144,0.0000,0.0053,0.0087,0
17218,-0.1158,-0.0745,0.3259,0.2203,0.0242,0.0051,-0.70,-11.58,-0.37,0,3.151,4.754,12.700,-1.148,-0.002,-0.010,0.986,0.000,0.000,0.000,0.3260,0,-2,-1.39,-11.61,3.83,0.0217,-0.1982,0.3263,0.1310,0.1186,0.3000,0.2591,-14.91,-5.07,11.22,0.0000,0.0000,1.2700,1.4450,2.4310,241,0.1313,-0.1144,0.0000,0.0053,0.0087,0
17270,-0.0996,-0.0741,0.3253,0.3242,0.0274,-0.0147,-0.65,-11.97,-0.42,0,3.141,6.324,-16.598,-1.872,0.003,-0.012,0.998,0.000,0.000,0.000,0.3210,0,-12,-1.14,-12.27,3.83,0.0282,-0.1973,0.3250,0.1283,0.1213,0.3000,0.2613,-14.77,1.26,12.48,0.0000,0.0000,1.2670,1.4380,2.4500,241,0.1313,-0.1144,0.0000,0.0053,0.0087,0
17322,-0.0843,-0.0745,0.3225,0.4190,0.0273,-0.0381,-0.30,-11.51,-0.48,0,3.141,2.975,-48.572,-2.004,-0.015,-0.017,1.000,0.000,0.000,0.000,0.3130,0,-9,-0.77,-11.55,3.96,0.0610,-0.1949,0.3172,0.1254,0.1240,0.3000,0.2644,-14.78,6.95,14.40,0.0000,0.0000,1.2670,1.4380,2.4500,240,0.1313,-0.1144,0.0000,0.0053,0.0087,0
17373,-0.0574,-0.0726,0.3168,0.5212,0.0295,-0.0663,-0.22,-9.44,-0.60,0,3.125,-2.196,-49.271,-1.204,-0.015,-0.013,1.015,0.000,0.000,0.000,0.3110,-8,-19,-0.61,-9.06,3.98,0.0874,-0.1930,0.3111,0.1226,0.1266,0.3000,0.2685,-14.48,13.43,18.13,0.0000,0.0000,1.2650,1.4170,2.4530,240,0.1313,-0.1144,0.0000,0.0053,0.0087,0
17424,-0.0331,-0.0667,0.3124,0.5898,0.0398,-0.0726,-0.36,-6.90,-0.71,0,3.125,9.195,-56.865,-0.018,-0.019,-0.013,1.029,0.000,0.000,0.000,0.3050,-5,-19,-1.05,-6.74,2.49,0.1362,-0.1691,0.2996,0.1198,0.1291,0.3000,0.2700,-13.70,18.03,21.43,0.0000,0.0000,1.2650,1.4170,2.4530,240,0.1313,-0.1144,0.0000,0.0053,0.0087,0
17476,-0.0057,-0.0589,0.3071,0.6377,0.0538,-0.0724,-0.07,-4.10,-0.79,0,3.120,12.541,-54.346,1.090,-0.019,-0.014,1.035,0.000,0.000,0.000,0.2990,-5,-10,-0.68,-3.98,1.98,0.1899,-0.1527,0.2897,0.1169,0.1317,0.3000,0.2710,-12.67,21.77,23.60,0.0000,0.0000,1.2740,1.4740,2.4140,265,0.1313,-0.1144,0.0000,0.0053,0.0087,0
17527,0.0262,-0.0440,0.3017,0.6673,0.0800,-0.0690,0.44,-1.44,-0.84,0,3.120,18.117,-53.577,1.879,-0.016,-0.015,1.038,0.000,0.000,0.000,0.2960,-5,-21,-0.09,-1.09,1.62,0.2189,-0.1379,0.2912,0.1139,0.1341,0.3000,0.2716,-10.64,24.89,25.23,0.0000,0.0000,1.2740,1.4740,2.4140,265,0.1313,-0.1144,0.0000,0.0053,0.0087,0
17578,0.0582,-0.0424,0.2974,0.6715,0.0690,-0.0567,1.31,1.24,-0.76,0,3.120,10.920,-67.839,0.599,-0.012,-0.015,1.043,0.000,0.000,0.000,0.2950,0,-20,0.80,1.48,1.41,0.2786,-0.1218,0.2839,0.1110,0.1366,0.3000,0.2711,-11.16,25.00,22.94,0.0000,0.0000,1.3070,1.5310,2.4090,265,0.1313,-0.1144,0.0000,0.0053,0.0087,0
17629,0.0857,-0.0415,0.2952,0.6396,0.0510,-0.0358,1.96,4.66,-0.80,0,3.125,8.094,-41.116,1.465,-0.009,-0.022,1.028,0.000,0.000,0.000,0.3050,4,-8,1.39,4.83,1.65,0.3386,-0.1189,0.2811,0.1079,0.1390,0.3000,0.2693,-12.09,25.00,23.88,0.0000,0.0000,1.3070,1.5310,2.4090,252,0.1313,-0.1144,0.0000,0.0053,0.0087,0
17681,0.1198,-0.0444,0.2983,0.6009,0.0214,0.0005,2.54,6.78,-0.86,0,3.130,-4.632,-22.978,-3.356,-0.017,-0.021,1.027,0.000,0.000,0.000,0.3060,3,-14,1.86,7.05,2.09,0.3701,-0.1268,0.2907,0.1049,0.1413,0.3000,0.2648,-13.91,25.00,25.67,0.0000,0.0000,1.3950,1.5500,2.4190,252,0.1313,-0.1144,0.0000,0.0053,0.0087,0
17732,0.1451,-0.0519,0.3018,0.5296,-0.0195,0.0265,2.59,8.16,-1.00,0,3.141,-23.787,-5.974,-4.364,-0.013,-0.015,1.015,0.000,0.000,0.000,0.3140,2,-5,1.71,8.20,1.88,0.4140,-0.1340,0.2944,0.1018,0.1436,0.3000,0.2613,-16.49,25.00,29.96,0.0000,0.1220,1.3950,1.5500,2.4190,258,0.1313,-0.1144,0.0000,0.0053,0.0087,0
17784,0.1694,-0.0583,0.3079,0.4526,-0.0509,0.0540,1.58,8.66,-1.27,0,3.146,-9.139,32.962,-2.044,-0.015,-0.012,0.993,0.000,0.000,0.000,0.3140,1,-2,0.54,8.60,1.78,0.4340,-0.1386,0.3031,0.0986,0.1459,0.3000,0.2572,-18.64,25.00,38.17,0.0000,0.1220,1.5300,1.5550,2.4410,258,0.1313,-0.1144,0.0000,0.0053,0.0087,0
17836,0.1873,-0.0612,0.3120,0.3733,-0.0618,0.0576,0.96,7.32,-1.34,0,3.157,-13.037,-6.639,-2.285,-0.003,-0.007,0.983,0.000,0.000,0.000,0.3100,1,0,0.05,7.01,1.87,0.4416,-0.1404,0.3098,0.0954,0.1481,0.3000,0.2560,-19.48,25.00,40.29,0.0000,0.1260,1.5300,1.5550,2.4410,258,0.1313,-0.1144,0.0000,0.0053,0.0087,0
17887,0.2007,-0.0677,0.3130,0.3031,-0.0766,0.0407,0.42,7.15,-1.45,0,3.146,-35.129,0.274,-0.640,-0.003,-0.012,0.972,0.000,0.000,0.000,0.3080,5,-1,-0.64,7.48,1.93,0.4405,-0.1425,0.3121,0.0922,0.1502,0.3000,0.2577,-20.50,23.48,43.42,0.0000,0.1260,1.6410,1.5520,2.4160,258,0.1313,-0.1144,0.0000,0.0053,0.0087,0
17938,0.2111,-0.0737,0.3117,0.2344,-0.0821,0.0073,-1.05,7.48,-1.58,0,3.135,-20.632,19.010,-3.493,-0.002,-0.004,0.989,0.000,0.000,0.000,0.3120,6,0,-2.30,7.52,1.56,0.4423,-0.1602,0.3114,0.0890,0.1523,0.3000,0.2615,-20.91,21.24,47.35,0.0000,0.0000,1.6410,1.5520,2.4160,265,0.1313,-0.1144,0.0000,0.0053,0.0087,0
17989,0.2190,-0.0797,0.3119,0.1669,-0.0744,-0.0031,-2.20,6.77,-1.78,0,3.130,-8.444,31.414,-19.261,0.003,-0.015,1.020,0.000,0.000,0.000,0.3070,1,1,-3.18,6.62,0.84,0.4410,-0.1822,0.3115,0.0858,0.1544,0.3000,0.2626,-20.98,19.07,53.28,0.0000,0.0000,1.6900,1.5510,2.4150,265,0.1313,-0.1144,0.0000,0.0053,0.0087,0
18041,0.2237,-0.0862,0.3096,0.1052,-0.0606,-0.0131,-2.68,5.52,-2.68,0,3.125,-14.025,19.599,-30.308,0.006,-0.021,1.026,0.000,0.000,0.000,0.3070,0,0,-3.53,5.12,-0.13,0.4376,-0.1846,0.3105,0.0825,0.1564,0.3000,0.2641,-20.79,16.89,80.42,0.0000,0.0000,1.6900,1.5510,2.4150,265,0.1313,-0.1144,0.0000,0.0053,0.0087,0
18092,0.2277,-0.0888,0.3082,0.0595,-0.0345,-0.0091,-3.21,4.61,-4.18,0,3.125,5.454,13.499,-40.088,0.006,-0.014,1.029,0.000,0.000,0.000,0.3030,0,3,-4.12,4.20,-1.77,0.4374,-0.1886,0.3104,0.0792,0.1583,0.3000,0.2639,-19.97,15.41,125.55,0.0000,0.0000,1.7010,1.5540,2.4220,265,0.1313,-0.1144,0.0000,0.0053,0.0087,0
18143,0.2265,-0.0909,0.3059,0.0141,-0.0059,-0.0084,-3.00,3.86,-6.18,0,3.125,16.643,33.129,-45.899,0.014,-0.019,1.016,0.000,0.000,0.000,0.2980,0,5,-3.77,3.69,-3.61,0.4274,-0.1810,0.3091,0.0758,0.1602,0.3000,0.2643,-18.96,13.57,185.32,0.0000,0.0000,1.7010,1.5540,2.4220,255,0.1313,-0.1144,0.0000,0.0053,0.0087,0
18194,0.2247,-0.0881,0.3025,-0.0199,0.0289,-0.0147,-2.21,2.47,-8.53,0,3.120,11.441,27.640,-35.292,0.021,-0.029,1.012,0.000,0.000,0.000,0.2950,0,3,-2.79,2.19,-6.10,0.4144,-0.1799,0.3066,0.0725,0.1620,0.3000,0.2656,-17.31,12.13,255.76,0.0000,0.0000,1.7140,1.5470,2.4070,378,0.1313,-0.1144,0.0000,0.0053,0.0087,0
18245,0.2215,-0.0863,0.2989,-0.0405,0.0492,-0.0234,-1.62,0.99,-10.43,0,3.114,9.000,22.851,-21.467,0.024,-0.022,1.015,0.000,0.000,0.000,0.2960,-2,4,-2.16,0.88,-7.98,0.4063,-0.1789,0.3041,0.0691,0.1638,0.3000,0.2672,-16.30,11.18,312.80,0.0000,0.0000,1.7140,1.5470,2.4070,378,0.1313,-0.1144,0.0000,0.0053,0.0087,0
18296,0.2192,-0.0847,0.2970,-0.0448,0.0603,-0.0213,-1.13,-0.19,-11.64,0,3.109,3.811,39.276,-3.923,0.022,-0.021,1.018,0.000,0.000,0.000,0.2960,-4,4,-1.73,-0.23,-9.02,0.3965,-0.1714,0.3024,0.0657,0.1656,0.3000,0.2674,-15.79,11.08,349.17,0.0000,0.0000,1.7180,1.5030,2.4070,378,0.1313,-0.1144,0.0000,0.0053,0.0087,0
18347,0.2179,-0.0828,0.2961,-0.0361,0.0647,-0.0145,-0.89,-2.07,-11.95,0,3.109,15.121,25.379,2.334,0.023,-0.004,1.011,0.000,0.000,0.000,0.2960,-8,2,-1.59,-2.20,-9.11,0.3876,-0.1579,0.3013,0.0622,0.1672,0.3000,0.2668,-15.58,11.66,358.45,0.0000,0.0000,1.7180,1.5030,2.4070,378,0.1313,-0.1144,0.0000,0.0053,0.0087,0
18398,0.2169,-0.0815,0.2956,-0.0130,0.0608,-0.0087,-0.24,-3.45,-11.89,0,3.109,10.071,-0.601,8.460,0.024,-0.011,1.004,0.000,0.000,0.000,0.2990,-8,-1,-0.92,-3.50,-8.76,0.3860,-0.1336,0.2999,0.0588,0.1689,0.3000,0.2663,-15.76,12.89,356.67,0.0000,0.0000,1.7290,1.4830,2.4180,469,0.1313,-0.1144,0.0000,0.0053,0.0087,0
18450,0.2176,-0.0774,0.2969,0.0182,0.0579,0.0029,0.20,-3.43,-11.48,0,3.120,-8.918,-5.981,16.499,0.018,-0.014,1.010,0.000,0.000,0.000,0.3010,0,0,-0.47,-3.52,-8.19,0.3923,-0.1107,0.2990,0.0552,0.1705,0.3000,0.2648,-15.75,14.64,344.51,0.0000,0.0000,1.7290,1.4830,2.4180,469,0.1313,-0.1144,0.0000,0.0053,0.0087,0
18501,0.2233,-0.0715,0.2988,0.0574,0.0582,0.0144,-0.07,-3.08,-10.73,0,3.114,11.080,-36.270,12.712,0.012,-0.015,1.020,0.000,0.000,0.000,0.3020,-6,-7,-0.88,-3.22,-7.33,0.3932,-0.1002,0.3004,0.0517,0.1720,0.3000,0.2632,-15.51,17.05,321.90,0.0000,0.0000,1.7260,1.5070,2.4110,469,0.1313,-0.1144,0.0000,0.0053,0.0087,0
18551,0.2279,-0.0679,0.3007,0.0840,0.0555,0.0276,0.55,-1.43,-10.12,0,3.120,20.997,-42.777,-0.435,0.005,-0.027,1.014,0.000,0.000,0.000,0.2990,0,-6,-0.25,-1.53,-6.55,0.4203,-0.0966,0.3016,0.0482,0.1734,0.3000,0.2614,-15.54,18.84,303.47,0.0000,0.0000,1.7260,1.5070,2.4110,442,0.1313,-0.1144,0.0000,0.0053,0.0087,0
18602,0.2371,-0.0668,0.3010,0.1041,0.0436,0.0274,1.60,0.65,-10.10,0,3.114,3.913,-25.948,-5.159,0.005,-0.028,1.010,0.000,0.000,0.000,0.3060,-1,-6,0.84,0.56,-6.53,0.4356,-0.0954,0.3021,0.0447,0.1748,0.3000,0.2613,-16.04,20.50,303.05,0.0000,0.0000,1.7250,1.5340,2.3960,442,0.1313,-0.1144,0.0000,0.0053,0.0087,0
18653,0.2442,-0.0669,0.3040,0.0990,0.0249,0.0406,1.96,1.96,-10.38,0,3.120,-3.092,-17.772,-7.061,0.002,-0.032,0.995,0.000,0.000,0.000,0.3080,-3,-3,1.06,1.83,-6.82,0.4519,-0.0933,0.3046,0.0411,0.1762,0.3000,0.2593,-17.03,21.12,311.35,0.0000,0.0000,1.7250,1.5340,2.3960,430,0.1313,-0.1144,0.0000,0.0053,0.0087,0
18705,0.2491,-0.0650,0.3070,0.0789,0.0148,0.0437,1.83,2.78,-10.74,0,3.120,3.524,-0.601,-4.708,0.002,-0.019,1.001,0.000,0.000,0.000,0.3060,-1,0,0.90,2.73,-7.19,0.4622,-0.0860,0.3074,0.0375,0.1775,0.3000,0.2585,-17.44,20.90,322.14,0.0000,0.0000,1.7300,1.5340,2.4010,430,0.1313,-0.1144,0.0000,0.0053,0.0087,0
18757,0.2552,-0.0652,0.3078,0.0600,0.0018,0.0339,2.04,2.80,-11.00,0,3.125,-0.211,8.945,-3.197,0.005,-0.033,0.990,0.000,0.000,0.000,0.3110,0,0,1.10,2.80,-7.40,0.4638,-0.0826,0.3092,0.0338,0.1788,0.3000,0.2594,-18.00,20.67,330.00,0.0000,0.1120,1.7300,1.5340,2.4010,384,0.1313,-0.1144,0.0000,0.0053,0.0087,0
18807,0.2584,-0.0664,0.3102,0.0366,-0.0135,0.0334,2.06,2.36,-11.17,0,3.120,-16.095,5.996,-3.279,0.004,-0.019,0.986,0.000,0.000,0.000,0.3150,0,0,1.10,2.34,-7.56,0.4694,-0.0802,0.3112,0.0302,0.1800,0.3000,0.2590,-18.79,20.17,335.11,0.0000,0.1120,1.7440,1.5390,2.4070,384,0.1313,-0.1144,0.0000,0.0053,0.0087,0
18859,0.2600,-0.0684,0.3131,0.0152,-0.0284,0.0337,1.38,2.09,-11.32,0,3.125,-10.679,10.229,-2.039,0.003,-0.031,0.986,0.000,0.000,0.000,0.3170,2,2,0.30,2.03,-7.72,0.4743,-0.0785,0.3137,0.0265,0.1811,0.3000,0.2584,-19.62,19.65,339.54,0.0000,0.0000,1.7440,1.5390,2.4070,356,0.1313,-0.1144,0.0000,0.0053,0.0087,0
18910,0.2609,-0.0737,0.3158,-0.0019,-0.0453,0.0344,0.90,1.61,-11.42,0,3.130,-11.527,10.649,3.361,0.010,-0.019,0.973,0.000,0.000,0.000,0.3140,2,3,-0.17,1.64,-7.77,0.4541,-0.0874,0.3160,0.0228,0.1822,0.3000,0.2578,-20.74,19.27,342.56,0.0000,0.0000,1.7390,1.5280,2.3970,356,0.1313,-0.1144,0.0000,0.0053,0.0087,0
18961,0.2607,-0.0768,0.3158,-0.0147,-0.0514,0.0150,0.32,1.20,-11.27,0,3.125,-23.492,-2.534,11.341,-0.001,-0.023,0.976,0.000,0.000,0.000,0.3140,4,0,-0.75,1.12,-7.59,0.4485,-0.0906,0.3155,0.0191,0.1832,0.3000,0.2599,-21.05,18.82,338.15,0.0000,0.1210,1.7390,1.5280,2.3970,356,0.1313,-0.1144,0.0000,0.0053,0.0087,0
19013,0.2589,-0.0802,0.3153,-0.0263,-0.0527,-0.0047,-0.75,1.23,-10.76,0,3.120,2.042,-16.032,17.371,-0.000,-0.017,0.970,0.000,0.000,0.000,0.3180,0,-1,-1.92,1.23,-7.09,0.4463,-0.0989,0.3148,0.0153,0.1842,0.3000,0.2621,-21.17,18.32,322.82,0.0000,0.1210,1.7260,1.5410,2.3900,356,0.1313,-0.1144,0.0000,0.0053,0.0087,0
19064,0.2567,-0.0840,0.3161,-0.0378,-0.0468,-0.0118,-0.96,1.93,-9.95,0,3.120,-7.063,-11.766,17.628,-0.006,-0.018,0.979,0.000,0.000,0.000,0.3170,0,0,-1.85,2.01,-6.14,0.4471,-0.1001,0.3151,0.0116,0.1851,0.3000,0.2627,-21.13,17.90,298.49,0.0000,0.0000,1.7260,1.5410,2.3900,331,0.1313,-0.1144,0.0000,0.0053,0.0087,0
19116,0.2543,-0.0872,0.3159,-0.0533,-0.0391,-0.0202,-1.17,2.26,-9.11,0,3.120,-6.657,-2.246,16.328,0.001,-0.020,0.993,0.000,0.000,0.000,0.3140,0,0,-2.25,2.57,-5.22,0.4440,-0.1022,0.3143,0.0078,0.1859,0.3000,0.2637,-20.95,17.28,273.35,0.0000,0.0000,1.7200,1.5540,2.3930,331,0.1313,-0.1144,0.0000,0.0053,0.0087,0
19168,0.2517,-0.0907,0.3143,-0.0697,-0.0298,-0.0280,-1.60,2.34,-8.25,0,3.120,-0.576,5.630,16.311,0.008,-0.020,0.991,0.000,0.000,0.000,0.3130,-1,0,-2.63,2.65,-4.37,0.4396,-0.1036,0.3126,0.0040,0.1867,0.3000,0.2648,-20.71,16.60,247.58,0.0000,0.1190,1.7200,1.5540,2.3930,331,0.1313,-0.1144,0.0000,0.0053,0.0087,0
19218,0.2467,-0.0924,0.3130,-0.0890,-0.0192,-0.0318,-1.70,2.05,-7.46,0,3.109,-7.040,11.159,18.880,0.009,-0.017,0.995,0.000,0.000,0.000,0.3090,-1,0,-2.76,2.20,-3.36,0.4532,-0.0972,0.3122,0.0003,0.1875,0.3000,0.2655,-20.34,15.66,223.67,0.0000,0.1190,1.7110,1.5560,2.3870,331,0.1313,-0.1144,0.0000,0.0053,0.0087,0
19270,0.2412,-0.0931,0.3104,-0.1062,-0.0028,-0.0410,-1.89,1.43,-6.56,0,3.109,0.477,10.316,18.739,0.011,-0.023,1.001,0.000,0.000,0.000,0.3100,0,4,-3.15,1.58,-2.43,0.4521,-0.0951,0.3093,-0.0035,0.1882,0.3000,0.2670,-19.60,14.73,196.82,0.0000,0.0000,1.7110,1.5560,2.3870,316,0.1313,-0.1144,0.0000,0.0053,0.0087,0
19321,0.2338,-0.0931,0.3086,-0.1201,0.0167,-0.0383,-1.84,0.83,-5.67,0,3.109,9.795,6.533,16.767,0.012,-0.027,1.012,0.000,0.000,0.000,0.3030,0,3,-3.13,1.04,-1.57,0.4445,-0.0945,0.3078,-0.0073,0.1888,0.3000,0.2670,-18.79,13.90,170.17,0.0000,0.0000,1.7150,1.5570,2.3900,386,0.1313,-0.1144,0.0000,0.0053,0.0087,0
19372,0.2289,-0.0930,0.3050,-0.1222,0.0298,-0.0427,-1.46,0.37,-4.86,0,3.104,3.214,7.803,10.183,0.007,-0.022,1.018,0.000,0.000,0.000,0.3020,-1,4,-2.63,0.69,-0.80,0.4376,-0.0939,0.3048,-0.0111,0.1893,0.3000,0.2682,-18.15,13.69,145.80,0.0000,0.0000,1.7150,1.5570,2.3900,386,0.1313,-0.1144,0.0000,0.0053,0.0087,0
19423,0.2263,-0.0915,0.3028,-0.1175,0.0401,-0.0399,-1.32,-0.11,-4.30,0,3.104,-3.339,18.962,6.136,0.009,-0.024,1.024,0.000,0.000,0.000,0.3020,3,7,-2.47,0.31,-0.38,0.4281,-0.0914,0.3024,-0.0149,0.1898,0.3000,0.2683,-17.61,13.98,129.11,0.0000,0.0000,1.7010,1.5560,2.3890,386,0.1313,-0.1144,0.0000,0.0053,0.0087,0
19474,0.2207,-0.0868,0.3014,-0.1148,0.0575,-0.0279,-1.41,-1.01,-4.01,0,3.104,11.118,32.591,3.789,0.008,-0.024,1.025,0.000,0.000,0.000,0.2990,-1,3,-2.57,-0.58,-0.35,0.4111,-0.0985,0.3016,-0.0187,0.1903,0.3000,0.2672,-16.62,14.03,120.23,0.0000,0.1270,1.7010,1.5560,2.3890,412,0.1313,-0.1144,0.0000,0.0053,0.0087,0
19525,0.2116,-0.0836,0.2996,-0.1073,0.0695,-0.0164,-1.00,-2.53,-3.87,0,3.104,8.508,7.880,2.402,0.014,-0.026,1.026,0.000,0.000,0.000,0.3000,0,3,-2.00,-2.24,-0.23,0.4025,-0.0958,0.3005,-0.0225,0.1907,0.3000,0.2663,-15.94,14.06,116.16,0.0000,0.1270,1.7020,1.5590,2.4210,412,0.1313,-0.1144,0.0000,0.0053,0.0087,0
19576,0.2069,-0.0811,0.2995,-0.0900,0.0741,-0.0055,-0.52,-3.03,-3.75,0,3.109,5.013,-11.647,6.986,0.008,-0.022,1.017,0.000,0.000,0.000,0.3000,-1,0,-1.55,-2.63,-0.15,0.3939,-0.0956,0.3007,-0.0263,0.1910,0.3000,0.2652,-15.62,14.83,112.52,0.0000,0.1350,1.7020,1.5590,2.4210,412,0.1313,-0.1144,0.0000,0.0053,0.0087,0
19628,0.2017,-0.0775,0.2997,-0.0662,0.0770,0.0064,-0.39,-2.48,-3.44,0,3.109,6.999,3.975,8.062,0.006,-0.021,1.010,0.000,0.000,0.000,0.2990,0,0,-1.28,-2.08,0.27,0.3930,-0.0923,0.3013,-0.0301,0.1913,0.3000,0.2639,-15.30,15.85,103.30,0.0000,0.1350,1.6970,1.5610,0.0000,412,0.1313,-0.1144,0.0000,0.0053,0.0087,0
19679,0.1994,-0.0732,0.2997,-0.0431,0.0796,0.0104,0.04,-2.58,-3.07,0,3.109,8.951,11.914,6.606,0.004,-0.027,1.012,0.000,0.000,0.000,0.2960,-2,0,-0.90,-2.29,0.69,0.3896,-0.0900,0.3015,-0.0340,0.1915,0.3000,0.2634,-14.90,16.98,91.97,2.0400,0.0000,1.6970,1.5610,0.0000,456,0.1313,-0.1144,0.0000,0.0053,0.0087,0
19730,0.1988,-0.0680,0.2985,-0.0179,0.0818,0.0057,0.42,-3.28,-2.73,0,3.104,3.154,-3.902,8.114,0.012,-0.024,1.019,0.000,0.000,0.000,0.3030,0,0,-0.45,-2.95,1.04,0.3935,-0.0855,0.3008,-0.0379,0.1916,0.3000,0.2641,-14.38,18.22,81.94,2.0400,0.0000,1.6880,1.5670,2.4110,432,0.1313,-0.1144,0.0000,0.0053,0.0087,0
19781,0.1991,-0.0653,0.3006,0.0114,0.0737,0.0207,0.59,-3.27,-2.29,0,3.109,3.582,-8.425,10.305,0.004,-0.022,1.008,0.000,0.000,0.000,0.2990,-4,0,-0.26,-2.75,1.46,0.3941,-0.0833,0.3028,-0.0417,0.1917,0.3000,0.2621,-14.62,19.85,68.74,0.0000,0.0000,1.6880,1.5670,2.4110,432,0.1313,-0.1144,0.0000,0.0053,0.0087,0
19832,0.1983,-0.0595,0.3006,0.0342,0.0736,0.0195,0.72,-2.91,-1.79,0,3.109,2.623,-3.397,8.140,0.009,-0.019,1.009,0.000,0.000,0.000,0.3000,0,-2,-0.13,-2.29,1.83,0.3913,-0.0731,0.3033,-0.0455,0.1917,0.3000,0.2623,-14.19,20.97,53.71,0.0000,0.0000,1.6760,1.5720,2.4170,432,0.1313,-0.1144,0.0000,0.0053,0.0087,0
19884,0.2015,-0.0578,0.3010,0.0614,0.0617,0.0205,0.89,-2.78,-1.32,0,3.104,1.587,-11.137,10.099,0.010,-0.022,1.009,0.000,0.000,0.000,0.3030,0,-2,0.04,-2.14,2.28,0.3959,-0.0715,0.3039,-0.0493,0.1917,0.3000,0.2621,-14.57,22.52,39.70,2.1240,0.1320,1.6760,1.5720,2.4170,373,0.1313,-0.1144,0.0000,0.0053,0.0087,0
19934,0.2058,-0.0556,0.3025,0.0865,0.0520,0.0260,0.96,-2.20,-0.83,0,3.114,1.070,-14.642,8.665,0.004,-0.022,1.001,0.000,0.000,0.000,0.3070,-1,-3,0.15,-1.57,2.83,0.4012,-0.0704,0.3052,-0.0532,0.1916,0.3000,0.2612,-14.84,24.08,25.04,2.1240,0.1320,1.6520,1.5850,2.3960,373,0.1313,-0.1144,0.0000,0.0053,0.0087,0
19985,0.2119,-0.0546,0.3055,0.1087,0.0372,0.0358,0.99,-1.44,-0.38,0,3.114,-6.948,-13.254,8.831,0.002,-0.017,0.995,0.000,0.000,0.000,0.3060,1,-1,0.20,-0.85,3.23,0.4090,-0.0677,0.3072,-0.0570,0.1915,0.3000,0.2596,-15.47,25.00,11.47,2.1750,0.1360,1.6520,1.5850,2.3960,384,0.1313,-0.1144,0.0000,0.0053,0.0087,0
20037,0.2170,-0.0553,0.3066,0.1197,0.0249,0.0340,0.87,-0.87,0.04,0,3.114,-2.430,-11.494,5.105,0.006,-0.019,0.997,0.000,0.000,0.000,0.3130,0,-3,-0.13,-0.16,3.73,0.4132,-0.0691,0.3086,-0.0608,0.1913,0.3000,0.2596,-15.99,25.00,-1.08,2.1750,0.1360,1.6300,1.5830,2.3790,384,0.1313,-0.1144,0.0000,0.0053,0.0087,0
20088,0.2220,-0.0553,0.3102,0.1243,0.0146,0.0434,0.75,-0.29,0.28,0,3.114,-3.386,-16.774,3.752,-0.001,-0.022,0.987,0.000,0.000,0.000,0.3070,0,-6,-0.26,0.42,3.99,0.4217,-0.0686,0.3114,-0.0646,0.1910,0.3000,0.2579,-16.48,25.00,-8.49,2.2030,0.0000,1.6300,1.5830,2.3790,384,0.1313,-0.1144,0.0000,0.0053,0.0087,0
20140,0.2278,-0.0570,0.3101,0.1258,0.0024,0.0279,0.59,0.35,0.45,0,3.114,-9.366,-11.693,3.798,0.010,-0.022,0.990,0.000,0.000,0.000,0.3070,1,-2,-0.44,1.20,4.12,0.4380,-0.0679,0.3110,-0.0685,0.1907,0.3000,0.2596,-16.95,25.00,-13.61,2.2030,0.0000,1.6200,1.5970,2.3980,384,0.1313,-0.1144,0.0000,0.0053,0.0087,0
20191,0.2357,-0.0574,0.3095,0.1269,-0.0037,0.0123,0.17,1.02,0.64,0,3.104,-4.340,-28.475,3.605,0.006,-0.025,0.995,0.000,0.000,0.000,0.3130,1,-6,-0.92,1.82,4.35,0.4444,-0.0701,0.3107,-0.0723,0.1903,0.3000,0.2614,-17.05,25.00,-19.27,2.2200,0.0000,1.6200,1.5970,2.3980,363,0.1313,-0.1144,0.0000,0.0053,0.0087,0
20242,0.2408,-0.0589,0.3113,0.1155,-0.0086,0.0160,-0.07,2.34,0.84,0,3.109,-3.672,-11.373,2.211,0.003,-0.018,0.997,0.000,0.000,0.000,0.3130,0,0,-1.14,3.20,4.52,0.4616,-0.0719,0.3118,-0.0762,0.1899,0.3000,0.2606,-17.33,25.00,-25.23,2.2200,0.0000,1.6260,1.5970,2.3820,352,0.1313,-0.1144,0.0000,0.0053,0.0087,0
20294,0.2472,-0.0595,0.3125,0.0980,-0.0089,0.0166,-0.36,2.99,1.01,0,3.109,-7.614,20.541,3.233,0.009,-0.025,0.993,0.000,0.000,0.000,0.3190,0,2,-1.34,3.78,4.65,0.4697,-0.0731,0.3127,-0.0800,0.1894,0.3000,0.2603,-17.32,25.00,-30.39,2.2660,0.0000,1.6260,1.5970,2.3820,352,0.1313,-0.1144,0.0000,0.0053,0.0087,0
20345,0.2523,-0.0602,0.3156,0.0754,-0.0069,0.0262,-0.71,2.18,1.15,0,3.120,-8.966,12.568,5.512,0.008,-0.019,0.996,0.000,0.000,0.000,0.3170,2,0,-1.77,2.86,4.87,0.4510,-0.0710,0.3157,-0.0838,0.1888,0.3000,0.2587,-17.30,25.00,-34.49,2.2660,0.0000,1.6150,1.6010,2.3790,370,0.1313,-0.1144,0.0000,0.0053,0.0087,0
20395,0.2544,-0.0595,0.3169,0.0537,0.0010,0.0240,-1.08,1.66,1.39,0,3.109,-4.812,2.082,5.619,0.011,-0.021,0.993,0.000,0.000,0.000,0.3170,0,0,-2.21,2.22,5.09,0.4516,-0.0759,0.3167,-0.0875,0.1882,0.3000,0.2587,-16.82,25.00,-41.56,2.2070,0.0000,1.6150,1.6010,2.3790,370,0.1313,-0.1144,0.0000,0.0053,0.0087,0
20446,0.2547,-0.0628,0.3176,0.0343,0.0009,0.0178,-1.34,1.59,1.67,0,3.114,-2.448,12.237,4.120,0.008,-0.029,0.988,0.000,0.000,0.000,0.3150,0,0,-2.47,2.10,5.36,0.4514,-0.0769,0.3173,-0.0913,0.1876,0.3000,0.2592,-16.91,25.00,-50.18,2.2070,0.0000,1.6240,1.6080,2.3760,370,0.1313,-0.1144,0.0000,0.0053,0.0087,0
20498,0.2577,-0.0630,0.3170,0.0246,0.0104,0.0044,-1.44,1.08,1.87,0,3.109,-3.518,-17.399,2.308,0.009,-0.027,0.995,0.000,0.000,0.000,0.3240,0,-2,-2.60,1.47,5.55,0.4505,-0.0777,0.3168,-0.0951,0.1868,0.3000,0.2608,-16.32,25.00,-56.16,0.0000,0.1290,1.6240,1.6080,2.3760,398,0.1313,-0.1144,0.0000,0.0053,0.0087,0
20548,0.2595,-0.0614,0.3200,0.0168,0.0244,0.0157,-1.56,1.68,1.98,0,3.114,-3.182,-12.700,0.942,0.011,-0.023,0.996,0.000,0.000,0.000,0.3210,1,0,-2.79,2.28,5.77,0.4620,-0.0755,0.3195,-0.0988,0.1861,0.3000,0.2590,-15.60,25.00,-59.52,0.0000,0.1290,1.6080,1.6100,2.3840,398,0.1313,-0.1144,0.0000,0.0053,0.0087,0
20600,0.2628,-0.0596,0.3208,0.0090,0.0378,0.0128,-1.76,2.33,2.03,0,3.109,0.637,0.008,-0.418,0.008,-0.021,0.995,0.000,0.000,0.000,0.3220,0,0,-2.94,2.92,5.83,0.4623,-0.0768,0.3203,-0.1025,0.1852,0.3000,0.2592,-14.77,25.00,-60.80,0.0000,0.0000,1.6080,1.6100,2.3840,398,0.1313,-0.1144,0.0000,0.0053,0.0087,0
20650,0.2646,-0.0578,0.3216,-0.0065,0.0510,0.0114,-1.75,2.33,2.01,0,3.114,2.423,-4.274,0.457,0.010,-0.020,1.003,0.000,0.000,0.000,0.3210,0,2,-2.91,2.92,5.81,0.4614,-0.0759,0.3210,-0.1062,0.1843,0.3000,0.2592,-13.95,25.00,-60.32,0.0000,0.0000,1.6020,1.6200,2.3920,398,0.1313,-0.1144,0.0000,0.0053,0.0087,0
20702,0.2630,-0.0504,0.3217,-0.0287,0.0759,0.0076,-1.61,2.50,2.04,0,3.114,7.241,-0.345,1.965,0.012,-0.020,0.999,0.000,0.000,0.000,0.3220,-3,0,-2.76,3.15,5.75,0.4571,-0.0784,0.3213,-0.1100,0.1833,0.3000,0.2596,-12.18,25.00,-61.33,2.2600,0.1230,1.6020,1.6200,2.3920,302,0.1313,-0.1144,0.0000,0.0053,0.0087,0
20753,0.2628,-0.0479,0.3220,-0.0463,0.0852,0.0073,-1.30,2.45,2.16,0,3.114,7.932,7.934,3.457,0.016,-0.019,1.001,0.000,0.000,0.000,0.3210,-5,1,-2.43,3.15,5.97,0.4549,-0.0718,0.3218,-0.1137,0.1823,0.3000,0.2595,-11.47,25.00,-64.86,2.2600,0.1230,1.5840,1.6290,2.3820,302,0.1313,-0.1144,0.0000,0.0053,0.0087,0
20804,0.2608,-0.0420,0.3218,-0.0656,0.0986,0.0027,-0.87,2.07,2.36,0,3.109,8.721,18.281,5.143,0.016,-0.016,0.996,0.000,0.000,0.000,0.3160,-2,3,-2.10,2.73,6.29,0.4502,-0.0604,0.3214,-0.1174,0.1813,0.3000,0.2601,-10.30,25.00,-70.83,0.0000,0.1300,1.5840,1.6290,2.3820,302,0.1313,-0.1144,0.0000,0.0053,0.0087,0
