time_ms,pos_x,pos_y,pos_z,vel_x,vel_y,vel_z,roll,pitch,yaw,thrust,vbat,gyro_x,gyro_y,gyro_z,acc_x,acc_y,acc_z,rate_roll,rate_pitch,rate_yaw,range_z,flow_dx,flow_dy,mekf_roll,mekf_pitch,mekf_yaw,mekf_x,mekf_y,mekf_z,our_ref_x,our_ref_y,our_ref_z,our_thrust,our_roll_cmd,our_pitch_cmd,our_yaw_rate_cmd,multi_front,multi_back,multi_left,multi_right,multi_up,ai_feat_count,vo_x,vo_y,vo_sigma,pg_x,pg_y,lc_count
0,0.8381,0.8623,0.0107,0.0012,-0.0014,0.0006,-1.08,0.63,24.66,0,3.758,-0.028,-0.050,0.072,0.013,-0.020,1.000,0.000,0.000,0.000,0.0100,2,-1,0.00,0.00,0.00,0.0000,0.0000,0.0000,0.0000,0.0000,0.0000,0.0000,0.00,0.00,0.00,1.0210,0.1250,1.3180,1.0740,2.6950,0,0.0000,0.0000,0.0000,0.0000,0.0000,0
101,0.8382,0.8616,0.0099,0.0014,-0.0048,-0.0032,-1.14,0.61,24.54,0,3.758,-0.021,0.148,0.158,0.013,-0.021,0.998,0.000,0.000,0.000,0.0100,-8,-1,0.00,0.00,0.00,0.0000,0.0000,0.0000,0.0000,0.0000,0.0000,0.0000,0.00,0.00,0.00,1.0210,0.1230,1.3130,1.0750,2.7040,0,0.0000,0.0000,0.0000,0.0000,0.0000,0
202,0.8384,0.8612,0.0098,0.0026,-0.0067,-0.0028,-1.12,0.64,24.42,0,3.758,0.025,-0.070,0.049,0.012,-0.021,1.001,0.000,0.000,0.000,0.0120,0,1,0.00,0.00,0.00,0.0000,0.0000,0.0000,0.0000,0.0000,0.0000,0.0000,0.00,0.00,0.00,1.0210,0.1230,1.3130,1.0750,2.7040,0,0.0000,0.0000,0.0000,0.0000,0.0000,0
302,0.8383,0.8621,0.0093,0.0019,-0.0023,-0.0045,-1.10,0.66,24.30,0,3.758,0.101,-0.055,-0.242,0.010,-0.021,0.999,0.000,0.000,0.000,0.0120,3,0,0.00,0.00,0.00,0.0000,0.0000,0.0000,0.0000,0.0000,0.0000,0.0000,0.00,0.00,0.00,1.0210,0.1230,1.3230,1.0770,2.6950,0,0.0000,0.0000,0.0000,0.0000,0.0000,0
404,0.8380,0.8619,0.0105,0.0012,-0.0031,0.0010,-1.15,0.66,24.18,0,3.758,-0.164,0.053,0.061,0.012,-0.022,1.002,0.000,0.000,0.000,0.0090,2,3,0.00,0.00,0.00,0.0000,0.0000,0.0000,0.0000,0.0000,0.0000,0.0000,0.00,0.00,0.00,1.0230,0.1230,1.3230,1.0770,2.6950,0,0.0000,0.0000,0.0000,0.0000,0.0000,0
506,0.8384,0.8630,0.0118,0.0028,0.0021,0.0076,-1.19,0.63,24.05,0,3.764,0.128,-0.259,-0.164,0.015,-0.020,0.998,0.000,0.000,0.000,0.0090,-3,0,0.00,0.00,0.00,0.0000,0.0000,0.0000,0.0000,0.0000,0.0000,0.0000,0.00,0.00,0.00,1.0230,0.1240,1.3170,1.0780,2.6970,0,0.0000,0.0000,0.0000,0.0000,0.0000,0
607,0.8378,0.8648,0.0108,0.0004,0.0090,0.0009,-1.17,0.63,23.93,0,3.758,-0.083,-0.102,-0.314,0.011,-0.022,0.999,0.000,0.000,0.000,0.0100,4,0,0.00,0.00,0.00,0.0000,0.0000,0.0000,0.0000,0.0000,0.0000,0.0000,0.00,0.00,0.00,1.0230,0.1240,1.3170,1.0780,2.6970,0,0.0000,0.0000,0.0000,0.0000,0.0000,0
708,0.8378,0.8642,0.0110,0.0007,0.0034,0.0014,-1.30,0.62,23.81,0,3.764,0.043,-0.298,0.071,0.010,-0.020,0.998,0.000,0.000,0.000,0.0100,0,-4,0.00,0.00,0.00,0.0000,0.0000,0.0000,0.0000,0.0000,0.0000,0.0000,0.00,0.00,0.00,1.0230,0.1240,1.3180,1.0780,2.7010,0,0.0000,0.0000,0.0000,0.0000,0.0000,0
809,0.8385,0.8625,0.0108,0.0044,-0.0062,-0.0000,-1.01,0.61,23.69,0,3.758,-0.076,0.112,-0.125,0.012,-0.018,0.997,0.000,0.000,0.000,0.0120,0,0,0.00,0.00,0.00,0.0000,0.0000,0.0000,0.0000,0.0000,0.0000,0.0000,0.00,0.00,0.00,1.0210,0.1240,1.3180,1.0780,2.7010,0,0.0000,0.0000,0.0000,0.0000,0.0000,0
910,0.8389,0.8623,0.0114,0.0049,-0.0064,0.0023,-1.11,0.61,23.57,0,3.764,-0.140,-0.075,-0.041,0.012,-0.020,0.998,0.000,0.000,0.000,0.0120,7,-3,0.00,0.00,0.00,0.0000,0.0000,0.0000,0.0000,0.0000,0.0000,0.0000,0.00,0.00,0.00,1.0210,0.1250,1.3170,1.0770,2.6990,0,0.0000,0.0000,0.0000,0.0000,0.0000,0
1011,0.8387,0.8627,0.0118,0.0030,-0.0037,0.0028,-1.03,0.62,23.46,0,3.758,0.271,-0.142,-0.294,0.011,-0.019,0.997,0.000,0.000,0.000,0.0110,-3,-2,0.00,0.00,0.00,0.0000,0.0000,0.0000,0.0000,0.0000,0.0000,0.0000,0.00,0.00,0.00,1.0200,0.1250,1.3170,1.0770,2.6990,0,0.0000,0.0000,0.0000,0.0000,0.0000,0
1112,0.8389,0.8623,0.0126,0.0027,-0.0048,0.0053,-1.13,0.63,23.34,0,3.764,0.240,0.009,-0.192,0.013,-0.021,0.999,0.000,0.000,0.000,0.0110,-6,-1,0.00,0.00,0.00,0.0000,0.0000,0.0000,0.0000,0.0000,0.0000,0.0000,0.00,0.00,0.00,1.0200,0.1230,1.3140,1.0800,2.7020,0,0.0000,0.0000,0.0000,0.0000,0.0000,0
1213,0.8391,0.8617,0.0120,0.0043,-0.0079,0.0016,-0.99,0.62,23.22,0,3.758,-0.144,0.115,0.170,0.011,-0.021,1.000,0.000,0.000,0.000,0.0110,-4,-1,0.00,0.00,0.00,0.0000,0.0000,0.0000,0.0000,0.0000,0.0000,0.0000,0.00,0.00,0.00,1.0250,0.1230,1.3140,1.0800,2.7020,0,0.0000,0.0000,0.0000,0.0000,0.0000,0
1314,0.8389,0.8623,0.0111,0.0023,-0.0037,-0.0024,-1.06,0.67,23.11,0,3.764,-0.137,-0.024,0.181,0.011,-0.020,0.999,0.000,0.000,0.000,0.0110,6,1,0.00,0.00,0.00,0.0000,0.0000,0.0000,0.0000,0.0000,0.0000,0.0000,0.00,0.00,0.00,1.0250,0.1200,1.3160,1.0720,2.6960,0,0.0000,0.0000,0.0000,0.0000,0.0000,0
1415,0.8387,0.8627,0.0110,0.0012,-0.0019,-0.0027,-1.16,0.62,22.99,0,3.758,0.208,-0.011,-0.078,0.011,-0.020,1.000,0.000,0.000,0.000,0.0110,0,3,0.00,0.00,0.00,0.0000,0.0000,0.0000,0.0000,0.0000,0.0000,0.0000,0.00,0.00,0.00,1.0250,0.1200,1.3160,1.0720,2.6960,0,0.0000,0.0000,0.0000,0.0000,0.0000,0
1516,0.8392,0.8627,0.0109,0.0034,-0.0020,-0.0024,-1.11,0.64,22.87,0,3.764,-0.171,-0.243,0.415,0.011,-0.023,0.998,0.000,0.000,0.000,0.0110,7,-4,0.00,0.00,0.00,0.0000,0.0000,0.0000,0.0000,0.0000,0.0000,0.0000,0.00,0.00,0.00,1.0250,0.1220,1.3110,1.0770,2.6960,0,0.0000,0.0000,0.0000,0.0000,0.0000,0
1567,0.8385,0.8631,0.0108,-0.0006,0.0006,-0.0030,-1.22,0.61,22.76,0,3.758,-0.079,0.072,0.003,0.011,-0.020,1.002,0.000,0.000,0.000,0.0110,0,0,0.00,0.00,0.00,0.0000,0.0000,0.0000,0.0000,0.0000,0.0000,0.0000,0.00,0.00,0.00,1.0240,0.1220,1.3110,1.0770,2.6960,0,0.0000,0.0000,0.0000,0.0000,0.0000,0
1619,0.8386,0.8624,0.0099,0.0004,-0.0039,-0.0067,-1.10,0.62,22.65,0,3.764,0.281,-0.190,0.029,0.012,-0.021,0.998,0.000,0.000,0.000,0.0110,4,0,0.00,0.00,0.00,0.0000,0.0000,0.0000,0.0000,0.0000,0.0000,0.0000,0.00,0.00,0.00,1.0240,0.1240,1.3160,1.0750,2.7060,0,0.0000,0.0000,0.0000,0.0000,0.0000,0
1670,0.8388,0.8624,0.0102,0.0013,-0.0035,-0.0033,-0.96,0.63,22.54,0,3.758,-0.106,0.040,-0.091,0.011,-0.021,1.002,0.000,0.000,0.000,0.0120,-10,-6,0.00,0.00,0.00,0.0000,0.0000,0.0000,0.0000,0.0000,0.0000,0.0000,0.00,0.00,0.00,1.0210,0.1240,1.3160,1.0750,2.7060,0,0.0000,0.0000,0.0000,0.0000,0.0000,0
1721,0.8404,0.8575,0.0094,0.0084,-0.0271,-0.0064,-1.06,0.61,22.42,0,3.764,0.168,-0.076,0.244,0.014,-0.020,0.999,0.000,0.000,0.000,0.0120,1,-7,0.00,0.00,0.00,0.0000,0.0000,0.0000,0.0000,0.0000,0.0000,0.0000,0.00,0.00,0.00,1.0210,0.1250,1.3170,1.0780,2.7030,0,0.0000,0.0000,0.0000,0.0000,0.0000,0
1772,0.8393,0.8607,0.0106,0.0014,-0.0064,0.0007,-0.99,0.62,22.31,0,3.758,0.140,-0.026,0.029,0.007,-0.019,1.001,0.000,0.000,0.000,0.0100,6,1,0.00,0.00,0.00,0.0000,0.0000,0.0000,0.0000,0.0000,0.0000,0.0000,0.00,0.00,0.00,1.0210,0.1250,1.3170,1.0780,2.7030,0,0.0000,0.0000,0.0000,0.0000,0.0000,0
1824,0.8409,0.8582,0.0094,0.0082,-0.0184,-0.0049,-1.08,0.62,22.21,0,3.764,0.269,0.029,-0.072,0.011,-0.021,0.999,0.000,0.000,0.000,0.0100,1,-2,0.00,0.00,0.00,0.0000,0.0000,0.0000,0.0000,0.0000,0.0000,0.0000,0.00,0.00,0.00,1.0210,0.1240,1.3170,1.0760,2.7010,0,0.0000,0.0000,0.0000,0.0000,0.0000,0
1875,0.8411,0.8588,0.0096,0.0083,-0.0119,-0.0034,-1.14,0.59,22.09,0,3.758,-0.186,0.042,0.152,0.011,-0.023,0.998,0.000,0.000,0.000,0.0110,5,-4,0.00,0.00,0.00,0.0000,0.0000,0.0000,0.0000,0.0000,0.0000,0.0000,0.00,0.00,0.00,1.0270,0.1240,1.3170,1.0760,2.7010,0,0.0000,0.0000,0.0000,0.0000,0.0000,0
1927,0.8396,0.8601,0.0102,-0.0002,-0.0046,-0.0001,-0.96,0.70,21.98,0,3.764,-0.222,0.135,0.100,0.011,-0.022,0.998,0.000,0.000,0.000,0.0110,1,-8,0.00,0.00,0.00,0.0000,0.0000,0.0000,0.0000,0.0000,0.0000,0.0000,0.00,0.00,0.00,1.0270,0.1230,1.3180,1.0750,2.7010,0,0.0000,0.0000,0.0000,0.0000,0.0000,0
1979,0.8405,0.8549,0.0106,0.0037,-0.0285,0.0011,-0.96,0.64,21.87,0,3.764,-0.222,-0.081,0.117,0.009,-0.022,1.000,0.000,0.000,0.000,0.0100,0,0,0.00,0.00,0.00,0.0000,0.0000,0.0000,0.0000,0.0000,0.0000,0.0000,0.00,0.00,0.00,1.0240,0.1230,1.3180,1.0750,2.7010,0,0.0000,0.0000,0.0000,0.0000,0.0000,0
2030,0.8404,0.8547,0.0099,0.0012,-0.0246,-0.0023,-1.03,0.65,21.76,0,3.764,-0.180,0.171,0.135,0.010,-0.021,0.999,0.000,0.000,0.000,0.0100,-3,0,0.00,0.00,0.00,0.0000,0.0000,0.0000,0.0000,0.0000,0.0000,0.0000,0.00,0.00,0.00,1.0240,0.1260,1.3190,1.0770,2.6940,0,0.0000,0.0000,0.0000,0.0000,0.0000,0
2082,0.8423,0.8509,0.0098,0.0106,-0.0390,-0.0020,-0.83,0.62,21.65,0,3.758,-0.228,0.137,0.064,0.013,-0.023,1.000,0.000,0.000,0.000,0.0110,0,-2,0.00,0.00,0.00,0.0000,0.0000,0.0000,0.0000,0.0000,0.0000,0.0000,0.00,0.00,0.00,1.0250,0.1260,1.3190,1.0770,2.6940,0,0.0000,0.0000,0.0000,0.0000,0.0000,0
2134,0.8422,0.8504,0.0095,0.0078,-0.0337,-0.0028,-1.08,0.63,21.54,0,3.764,0.066,0.210,0.198,0.009,-0.021,1.000,0.000,0.000,0.000,0.0110,1,0,0.00,0.00,0.00,0.0000,0.0000,0.0000,0.0000,0.0000,0.0000,0.0000,0.00,0.00,0.00,1.0250,0.1240,1.3090,1.0780,2.6980,0,0.0000,0.0000,0.0000,0.0000,0.0000,0
2185,0.8421,0.8515,0.0102,0.0054,-0.0220,0.0008,-0.91,0.60,21.43,0,3.758,-0.086,-0.052,0.213,0.011,-0.019,1.001,0.000,0.000,0.000,0.0120,3,-4,0.00,0.00,0.00,0.0000,0.0000,0.0000,0.0000,0.0000,0.0000,0.0000,0.00,0.00,0.00,1.0200,0.1240,1.3090,1.0780,2.6980,0,0.0000,0.0000,0.0000,0.0000,0.0000,0
2236,0.8447,0.8473,0.0086,0.0166,-0.0377,-0.0070,-0.99,0.59,21.35,0,3.764,-0.130,0.041,0.031,0.012,-0.020,1.000,0.000,0.000,0.000,0.0120,0,0,0.00,0.00,0.00,0.0000,0.0000,0.0000,0.0000,0.0000,0.0000,0.0000,0.00,0.00,0.00,1.0200,0.1240,1.3200,1.0760,2.7010,0,0.0000,0.0000,0.0000,0.0000,0.0000,0
2287,0.8440,0.8467,0.0100,0.0095,-0.0334,0.0004,-0.96,0.58,21.24,0,3.758,-0.228,0.023,0.089,0.010,-0.020,0.999,0.000,0.000,0.000,0.0100,2,3,0.00,0.00,0.00,0.0000,0.0000,0.0000,0.0000,0.0000,0.0000,0.0000,0.00,0.00,0.00,1.0160,0.1240,1.3200,1.0760,2.7010,0,0.0000,0.0000,0.0000,0.0000,0.0000,0
2338,0.8441,0.8489,0.0112,0.0083,-0.0155,0.0052,-1.17,0.60,21.14,0,3.758,-0.022,0.114,0.112,0.010,-0.021,0.998,0.000,0.000,0.000,0.0100,7,-4,0.00,0.00,0.00,0.0000,0.0000,0.0000,0.0000,0.0000,0.0000,0.0000,0.00,0.00,0.00,1.0160,0.1260,1.3150,1.0760,2.6990,0,0.0000,0.0000,0.0000,0.0000,0.0000,0
2389,0.8443,0.8521,0.0108,0.0083,0.0042,0.0021,-1.29,0.55,21.03,0,3.758,-0.289,0.053,0.352,0.012,-0.021,0.999,0.000,0.000,0.000,0.0140,1,1,0.00,0.00,0.00,0.0000,0.0000,0.0000,0.0000,0.0000,0.0000,0.0000,0.00,0.00,0.00,1.0210,0.1260,1.3150,1.0760,2.6990,0,0.0000,0.0000,0.0000,0.0000,0.0000,0
2440,0.8440,0.8528,0.0105,0.0050,0.0079,-0.0004,-1.22,0.57,20.93,0,3.764,-0.004,-0.030,-0.171,0.011,-0.020,1.000,0.000,0.000,0.000,0.0140,6,0,0.00,0.00,0.00,0.0000,0.0000,0.0000,0.0000,0.0000,0.0000,0.0000,0.00,0.00,0.00,1.0210,0.1200,1.3110,1.0760,2.7010,0,0.0000,0.0000,0.0000,0.0000,0.0000,0
2491,0.8441,0.8526,0.0123,0.0044,0.0066,0.0071,-1.23,0.58,20.80,0,3.753,0.106,-0.083,0.171,0.009,-0.020,1.000,0.000,0.000,0.000,0.0100,-4,0,0.00,0.00,0.00,0.0000,0.0000,0.0000,0.0000,0.0000,0.0000,0.0000,0.00,0.00,0.00,1.0180,0.1200,1.3110,1.0760,2.7010,0,0.0000,0.0000,0.0000,0.0000,0.0000,0
2543,0.8443,0.8515,0.0109,0.0045,0.0002,-0.0003,-1.23,0.59,20.72,0,3.764,0.209,-0.079,0.224,0.011,-0.020,0.999,0.000,0.000,0.000,0.0100,-2,-6,0.00,0.00,0.00,0.0000,0.0000,0.0000,0.0000,0.0000,0.0000,0.0000,0.00,0.00,0.00,1.0180,0.1260,1.3100,1.0750,2.6920,0,0.0000,0.0000,0.0000,0.0000,0.0000,0
2595,0.8432,0.8518,0.0104,-0.0017,0.0017,-0.0024,-1.24,0.59,20.61,0,3.758,-0.205,-0.285,-0.112,0.011,-0.020,0.999,0.000,0.000,0.000,0.0110,3,-1,0.00,0.00,0.00,0.0000,0.0000,0.0000,0.0000,0.0000,0.0000,0.0000,0.00,0.00,0.00,1.0210,0.1260,1.3100,1.0750,2.6920,0,0.0000,0.0000,0.0000,0.0000,0.0000,0
2646,0.8441,0.8526,0.0096,0.0030,0.0056,-0.0061,-1.40,0.59,20.51,0,3.758,-0.097,0.008,-0.105,0.013,-0.021,0.998,0.000,0.000,0.000,0.0110,3,0,0.00,0.00,0.00,0.0000,0.0000,0.0000,0.0000,0.0000,0.0000,0.0000,0.00,0.00,0.00,1.0210,0.1240,1.3200,1.0720,2.6990,0,0.0000,0.0000,0.0000,0.0000,0.0000,0
2697,0.8406,0.8601,0.0098,-0.0145,0.0415,-0.0044,-1.47,0.61,20.41,0,3.758,-0.064,-0.126,-0.122,0.011,-0.019,1.002,0.000,0.000,0.000,0.0060,-3,0,0.00,0.00,0.00,0.0000,0.0000,0.0000,0.0000,0.0000,0.0000,0.0000,0.00,0.00,0.00,1.0210,0.1240,1.3200,1.0720,2.6990,0,0.0000,0.0000,0.0000,0.0000,0.0000,0
2748,0.8406,0.8607,0.0104,-0.0120,0.0369,-0.0010,-1.46,0.60,20.30,0,3.764,-0.027,0.061,-0.075,0.013,-0.020,0.998,0.000,0.000,0.000,0.0060,-13,-2,0.00,0.00,0.00,0.0000,0.0000,0.0000,0.0000,0.0000,0.0000,0.0000,0.00,0.00,0.00,1.0210,0.1250,1.3170,1.0750,2.6980,0,0.0000,0.0000,0.0000,0.0000,0.0000,0
2799,0.8408,0.8597,0.0082,-0.0085,0.0246,-0.0100,-1.36,0.61,20.20,0,3.753,0.124,-0.237,-0.321,0.012,-0.017,1.000,0.000,0.000,0.000,0.0090,-4,1,0.00,0.00,0.00,0.0000,0.0000,0.0000,0.0000,0.0000,0.0000,0.0000,0.00,0.00,0.00,1.0230,0.1250,1.3170,1.0750,2.6980,0,0.0000,0.0000,0.0000,0.0000,0.0000,0
2850,0.8411,0.8595,0.0094,-0.0045,0.0181,-0.0030,-1.28,0.62,20.09,0,3.764,0.255,0.012,0.147,0.012,-0.021,0.996,0.000,0.000,0.000,0.0090,-4,0,0.00,0.00,0.00,0.0000,0.0000,0.0000,0.0000,0.0000,0.0000,0.0000,0.00,0.00,0.00,1.0230,0.1210,1.3140,1.0790,2.6910,0,0.0000,0.0000,0.0000,0.0000,0.0000,0
2901,0.8407,0.8605,0.0090,-0.0045,0.0196,-0.0041,-1.27,0.60,19.99,0,3.758,-0.333,0.173,0.122,0.014,-0.019,0.997,0.000,0.000,0.000,0.0110,0,1,0.00,0.00,0.00,0.0000,0.0000,0.0000,0.0000,0.0000,0.0000,0.0000,0.00,0.00,0.00,1.0200,0.1210,1.3140,1.0790,2.6910,0,0.0000,0.0000,0.0000,0.0000,0.0000,0
2953,0.8409,0.8609,0.0094,-0.0021,0.0172,-0.0025,-1.17,0.62,19.89,0,3.764,0.146,0.051,0.051,0.013,-0.018,0.997,0.000,0.000,0.000,0.0110,-5,-4,0.00,0.00,0.00,0.0000,0.0000,0.0000,0.0000,0.0000,0.0000,0.0000,0.00,0.00,0.00,1.0200,0.1160,1.3180,1.0770,2.6980,0,0.0000,0.0000,0.0000,0.0000,0.0000,0
3006,0.8407,0.8607,0.0101,-0.0022,0.0138,0.0004,-1.22,0.62,19.80,0,3.758,-0.033,-0.017,-0.249,0.010,-0.022,0.998,0.000,0.000,0.000,0.0110,3,0,0.00,0.00,0.00,0.0000,0.0000,0.0000,0.0000,0.0000,0.0000,0.0000,0.00,0.00,0.00,1.0270,0.1160,1.3180,1.0770,2.6980,0,0.0000,0.0000,0.0000,0.0000,0.0000,0
3057,0.8400,0.8614,0.0095,-0.0054,0.0131,-0.0024,-1.19,0.60,19.70,0,3.764,0.373,0.055,-0.095,0.011,-0.021,1.000,0.000,0.000,0.000,0.0110,3,0,0.00,0.00,0.00,0.0000,0.0000,0.0000,0.0000,0.0000,0.0000,0.0000,0.00,0.00,0.00,1.0270,0.1230,1.3140,1.0760,2.7030,0,0.0000,0.0000,0.0000,0.0000,0.0000,0
3108,0.8404,0.8615,0.0102,-0.0023,0.0105,0.0011,-1.16,0.60,19.60,0,3.758,-0.320,0.022,0.261,0.013,-0.020,1.000,0.000,0.000,0.000,0.0110,3,1,0.00,0.00,0.00,0.0000,0.0000,0.0000,0.0000,0.0000,0.0000,0.0000,0.00,0.00,0.00,1.0260,0.1230,1.3140,1.0760,2.7030,0,0.0000,0.0000,0.0000,0.0000,0.0000,0
3159,0.8407,0.8606,0.0102,-0.0003,0.0040,0.0008,-1.15,0.61,19.50,0,3.764,0.035,0.233,-0.431,0.013,-0.022,0.998,0.000,0.000,0.000,0.0110,5,-1,0.00,0.00,0.00,0.0000,0.0000,0.0000,0.0000,0.0000,0.0000,0.0000,0.00,0.00,0.00,1.0260,0.1220,1.3170,1.0750,2.7080,0,0.0000,0.0000,0.0000,0.0000,0.0000,0
3210,0.8404,0.8614,0.0106,-0.0012,0.0065,0.0018,-1.13,0.60,19.40,0,3.753,0.046,0.108,-0.100,0.009,-0.021,0.998,0.000,0.000,0.000,0.0110,-1,0,0.00,0.00,0.00,0.0000,0.0000,0.0000,0.0000,0.0000,0.0000,0.0000,0.00,0.00,0.00,1.0230,0.1220,1.3170,1.0750,2.7080,0,0.0000,0.0000,0.0000,0.0000,0.0000,0
3261,0.8409,0.8600,0.0099,0.0017,-0.0025,-0.0026,-1.09,0.63,19.30,0,3.764,0.171,-0.026,-0.287,0.012,-0.020,1.000,0.000,0.000,0.000,0.0110,4,-1,0.00,0.00,0.00,0.0000,0.0000,0.0000,0.0000,0.0000,0.0000,0.0000,0.00,0.00,0.00,1.0230,0.1200,1.3210,1.0740,2.6900,0,0.0000,0.0000,0.0000,0.0000,0.0000,0
3313,0.8402,0.8613,0.0103,-0.0016,0.0042,-0.0003,-1.02,0.63,19.20,0,3.758,-0.213,-0.057,0.037,0.011,-0.021,0.999,0.000,0.000,0.000,0.0080,0,0,0.00,0.00,0.00,0.0000,0.0000,0.0000,0.0000,0.0000,0.0000,0.0000,0.00,0.00,0.00,1.0210,0.1200,1.3210,1.0740,2.6900,0,0.0000,0.0000,0.0000,0.0000,0.0000,0
3365,0.8406,0.8608,0.0096,0.0006,0.0007,-0.0034,-1.04,0.65,19.10,0,3.764,-0.250,0.026,-0.147,0.010,-0.022,0.999,0.000,0.000,0.000,0.0080,0,2,0.00,0.00,0.00,0.0000,0.0000,0.0000,0.0000,0.0000,0.0000,0.0000,0.00,0.00,0.00,1.0210,0.1240,1.3150,1.0750,2.7090,0,0.0000,0.0000,0.0000,0.0000,0.0000,0
3417,0.8407,0.8607,0.0087,0.0008,0.0000,-0.0071,-1.05,0.66,19.01,0,3.758,-0.047,0.099,0.043,0.011,-0.021,1.001,0.000,0.000,0.000,0.0080,0,1,0.00,0.00,0.00,0.0000,0.0000,0.0000,0.0000,0.0000,0.0000,0.0000,0.00,0.00,0.00,1.0210,0.1240,1.3150,1.0750,2.7090,0,0.0000,0.0000,0.0000,0.0000,0.0000,0
3468,0.8410,0.8597,0.0091,0.0026,-0.0055,-0.0037,-1.28,0.60,18.91,0,3.764,-0.033,0.060,-0.072,0.013,-0.018,0.997,0.000,0.000,0.000,0.0080,13,-3,0.00,0.00,0.00,0.0000,0.0000,0.0000,0.0000,0.0000,0.0000,0.0000,0.00,0.00,0.00,1.0210,0.1220,1.3120,1.0780,2.6960,0,0.0000,0.0000,0.0000,0.0000,0.0000,0
3521,0.8382,0.8679,0.0083,-0.0114,0.0361,-0.0070,-1.29,0.59,18.81,0,3.758,0.055,0.130,-0.459,0.011,-0.019,0.997,0.000,0.000,0.000,0.0080,-4,4,0.00,0.00,0.00,0.0000,0.0000,0.0000,0.0000,0.0000,0.0000,0.0000,0.00,0.00,0.00,1.0260,0.1220,1.3120,1.0780,2.6960,0,0.0000,0.0000,0.0000,0.0000,0.0000,0
3572,0.8392,0.8684,0.0107,-0.0047,0.0336,0.0050,-1.39,0.60,18.72,0,3.764,0.026,-0.324,0.021,0.011,-0.019,0.999,0.000,0.000,0.000,0.0080,3,0,0.00,0.00,0.00,0.0000,0.0000,0.0000,0.0000,0.0000,0.0000,0.0000,0.00,0.00,0.00,1.0260,0.1220,1.3160,1.0780,2.7020,0,0.0000,0.0000,0.0000,0.0000,0.0000,0
3623,0.8376,0.8705,0.0096,-0.0106,0.0377,-0.0007,-1.32,0.61,18.63,0,3.758,-0.096,0.075,0.122,0.010,-0.019,0.998,0.000,0.000,0.000,0.0120,-8,0,0.00,0.00,0.00,0.0000,0.0000,0.0000,0.0000,0.0000,0.0000,0.0000,0.00,0.00,0.00,1.0210,0.1220,1.3160,1.0780,2.7020,0,0.0000,0.0000,0.0000,0.0000,0.0000,0
3674,0.8383,0.8686,0.0099,-0.0049,0.0195,0.0011,-1.26,0.63,18.53,0,3.764,-0.023,0.260,-0.120,0.013,-0.021,1.002,0.000,0.000,0.000,0.0120,-4,-1,0.00,0.00,0.00,0.0000,0.0000,0.0000,0.0000,0.0000,0.0000,0.0000,0.00,0.00,0.00,1.0210,0.1240,1.3140,1.0770,2.7020,0,0.0000,0.0000,0.0000,0.0000,0.0000,0
3725,0.8376,0.8698,0.0111,-0.0061,0.0202,0.0064,-1.20,0.61,18.44,0,3.758,-0.139,-0.086,0.003,0.011,-0.021,0.999,0.000,0.000,0.000,0.0090,7,-1,0.00,0.00,0.00,0.0000,0.0000,0.0000,0.0000,0.0000,0.0000,0.0000,0.00,0.00,0.00,1.0200,0.1240,1.3140,1.0770,2.7020,0,0.0000,0.0000,0.0000,0.0000,0.0000,0
3776,0.8370,0.8702,0.0103,-0.0076,0.0175,0.0015,-1.22,0.59,18.34,0,3.764,0.124,-0.128,-0.164,0.013,-0.022,1.001,0.000,0.000,0.000,0.0090,8,-8,0.00,0.00,0.00,0.0000,0.0000,0.0000,0.0000,0.0000,0.0000,0.0000,0.00,0.00,0.00,1.0200,0.1240,1.3120,1.0750,2.7010,0,0.0000,0.0000,0.0000,0.0000,0.0000,0
3828,0.8373,0.8702,0.0099,-0.0050,0.0134,-0.0006,-1.06,0.65,18.25,0,3.758,-0.174,0.001,0.121,0.010,-0.019,0.999,0.000,0.000,0.000,0.0080,-4,0,0.00,0.00,0.00,0.0000,0.0000,0.0000,0.0000,0.0000,0.0000,0.0000,0.00,0.00,0.00,1.0250,0.1240,1.3120,1.0750,2.7010,0,0.0000,0.0000,0.0000,0.0000,0.0000,0
3880,0.0000,-0.0000,-0.1591,0.0015,-0.0049,-0.0001,-0.07,-0.06,0.00,0,3.764,-0.006,-0.241,-0.161,0.012,-0.022,1.000,0.000,0.000,0.000,0.0080,3,0,0.00,0.00,0.00,0.0000,0.0000,0.0000,0.0000,0.0000,0.0000,0.0000,0.00,0.00,0.00,1.0250,0.1220,1.3180,1.0740,2.6940,0,0.0000,0.0000,0.0000,0.0000,0.0000,0
3931,0.0002,-0.0003,0.0080,0.0069,-0.0119,-0.0008,0.23,0.05,-0.00,0,3.758,0.147,-0.044,0.067,0.009,-0.024,1.000,0.000,0.000,0.000,0.0100,2,1,0.00,0.00,0.00,0.0000,0.0000,0.0000,0.0000,0.0000,0.0000,0.0000,0.00,0.00,0.00,1.0210,0.1220,1.3180,1.0740,2.6940,0,0.0000,0.0000,0.0000,0.0000,0.0000,0
3982,0.0003,-0.0004,0.0092,0.0072,-0.0119,0.0012,0.01,0.08,-0.01,0,3.764,0.112,-0.231,-0.220,0.011,-0.018,0.999,0.000,0.000,0.000,0.0100,-3,-1,0.00,0.00,0.00,0.0000,0.0000,0.0000,0.0000,0.0000,0.0000,0.0000,0.00,0.00,0.00,1.0210,0.1250,1.3170,1.0720,2.7050,0,0.0000,0.0000,0.0000,0.0000,0.0000,0
4033,0.0007,-0.0007,0.0096,0.0105,-0.0146,0.0022,-1.02,0.14,-0.00,0,3.758,-0.194,0.053,0.148,0.011,-0.021,0.999,0.000,0.000,0.000,0.0110,-3,0,0.00,0.00,0.00,0.0000,0.0000,0.0000,0.0000,0.0000,0.0000,0.0000,0.00,0.00,0.00,1.0230,0.1250,1.3170,1.0720,2.7050,0,0.0000,0.0000,0.0000,0.0000,0.0000,0
4084,0.0007,-0.0011,0.0095,0.0087,-0.0174,0.0010,-0.53,0.55,-0.00,0,3.764,-0.209,-0.002,0.196,0.010,-0.019,0.998,0.000,0.000,0.000,0.0110,0,-2,0.00,0.00,0.00,0.0000,0.0000,0.0000,0.0000,0.0000,0.0000,0.0000,0.00,0.00,0.00,1.0230,0.1220,1.3130,1.0740,2.6930,0,0.0000,0.0000,0.0000,0.0000,0.0000,0
4136,0.0003,0.0000,0.0103,0.0041,-0.0053,0.0039,-0.85,0.50,-0.00,0,3.758,0.036,0.108,0.147,0.012,-0.021,1.001,0.000,0.000,0.000,0.0110,0,0,0.00,0.00,0.00,0.0000,0.0000,0.0000,0.0000,0.0000,0.0000,0.0000,0.00,0.00,0.00,1.0240,0.1220,1.3130,1.0740,2.6930,0,0.0000,0.0000,0.0000,0.0000,0.0000,0
4188,0.0005,0.0001,0.0098,0.0054,-0.0052,0.0003,0.02,0.49,-0.01,0,3.764,0.040,0.001,-0.232,0.011,-0.021,1.000,0.000,0.000,0.000,0.0110,-1,2,0.00,0.00,0.00,0.0000,0.0000,0.0000,0.0000,0.0000,0.0000,0.0000,0.00,0.00,0.00,1.0240,0.1240,1.3200,1.0780,2.6960,0,0.0000,0.0000,0.0000,0.0000,0.0000,0
4239,-0.0008,-0.0107,0.0103,-0.0050,-0.0782,0.0015,-0.11,0.71,-0.02,0,3.758,0.001,0.019,-0.049,0.011,-0.020,0.998,0.000,0.000,0.000,0.0080,4,0,0.00,0.00,0.00,0.0000,0.0000,0.0000,0.0000,0.0000,0.0000,0.0000,0.00,0.00,0.00,1.0210,0.1240,1.3200,1.0780,2.6960,0,0.0000,0.0000,0.0000,0.0000,0.0000,0
4290,-0.0003,-0.0074,0.0111,0.0005,-0.0433,0.0056,0.08,0.68,-0.02,0,3.764,0.123,0.079,-0.068,0.011,-0.020,1.002,0.000,0.000,0.000,0.0080,0,-1,0.00,0.00,0.00,0.0000,0.0000,0.0000,0.0000,0.0000,0.0000,0.0000,0.00,0.00,0.00,1.0210,0.1270,1.3150,1.0730,2.6960,0,0.0000,0.0000,0.0000,0.0000,0.0000,0
4341,-0.0012,-0.0148,0.0097,-0.0045,-0.0803,-0.0022,-0.26,0.54,-0.02,0,3.758,-0.216,0.027,0.071,0.012,-0.022,0.998,0.000,0.000,0.000,0.0080,3,2,0.00,0.00,0.00,0.0000,0.0000,0.0000,0.0000,0.0000,0.0000,0.0000,0.00,0.00,0.00,1.0210,0.1270,1.3150,1.0730,2.6960,0,0.0000,0.0000,0.0000,0.0000,0.0000,0
4392,-0.0012,-0.0144,0.0111,-0.0036,-0.0620,0.0053,-0.47,0.61,-0.01,0,3.764,0.035,0.043,-0.045,0.011,-0.022,1.001,0.000,0.000,0.000,0.0080,2,-2,0.00,0.00,0.00,0.0000,0.0000,0.0000,0.0000,0.0000,0.0000,0.0000,0.00,0.00,0.00,1.0210,0.1230,1.3150,1.0770,2.6940,0,0.0000,0.0000,0.0000,0.0000,0.0000,0
4443,-0.0007,-0.0148,0.0099,0.0013,-0.0510,-0.0008,-0.68,0.59,-0.01,0,3.764,0.077,0.015,-0.052,0.012,-0.023,1.001,0.000,0.000,0.000,0.0060,-9,0,0.00,0.00,0.00,0.0000,0.0000,0.0000,0.0000,0.0000,0.0000,0.0000,0.00,0.00,0.00,1.0230,0.1230,1.3150,1.0770,2.6940,0,0.0000,0.0000,0.0000,0.0000,0.0000,0
4495,-0.0005,-0.0173,0.0094,0.0026,-0.0578,-0.0031,-0.75,0.56,-0.01,0,3.764,-0.138,-0.036,-0.197,0.010,-0.020,1.000,0.000,0.000,0.000,0.0060,3,-1,0.00,0.00,0.00,0.0000,0.0000,0.0000,0.0000,0.0000,0.0000,0.0000,0.00,0.00,0.00,1.0230,0.1230,1.3180,1.0740,2.6950,0,0.0000,0.0000,0.0000,0.0000,0.0000,0
4547,-0.0002,-0.0148,0.0077,0.0042,-0.0337,-0.0089,-0.85,0.56,-0.01,0,3.758,-0.104,-0.048,-0.120,0.012,-0.021,1.001,0.000,0.000,0.000,0.0120,1,3,0.00,0.00,0.00,0.0000,0.0000,0.0000,0.0000,0.0000,0.0000,0.0000,0.00,0.00,0.00,1.0280,0.1230,1.3180,1.0740,2.6950,0,0.0000,0.0000,0.0000,0.0000,0.0000,0
4598,0.0005,-0.0147,0.0090,0.0031,-0.0265,-0.0013,-0.95,0.59,-0.01,0,3.764,-0.077,-0.170,-0.175,0.011,-0.021,1.000,0.000,0.000,0.000,0.0120,1,-3,0.00,0.00,0.00,0.0000,0.0000,0.0000,0.0000,0.0000,0.0000,0.0000,0.00,0.00,0.00,1.0280,0.1220,1.3130,1.0760,2.6960,0,0.0000,0.0000,0.0000,0.0000,0.0000,0
4650,-0.0008,-0.0153,0.0105,-0.0004,-0.0238,0.0048,-1.12,0.60,-0.01,0,3.758,-0.063,0.288,-0.205,0.011,-0.019,1.001,0.000,0.000,0.000,0.0110,-3,1,0.00,0.00,0.00,0.0000,0.0000,0.0000,0.0000,0.0000,0.0000,0.0000,0.00,0.00,0.00,1.0280,0.1220,1.3130,1.0760,2.6960,0,0.0000,0.0000,0.0000,0.0000,0.0000,0
4701,-0.0001,-0.0154,0.0100,0.0035,-0.0196,0.0013,-1.11,0.61,-0.01,0,3.758,-0.079,0.034,-0.026,0.011,-0.022,0.999,0.000,0.000,0.000,0.0110,-1,-1,0.00,0.00,0.00,0.0000,0.0000,0.0000,0.0000,0.0000,0.0000,0.0000,0.00,0.00,0.00,1.0280,0.1260,1.3150,1.0730,2.6990,0,0.0000,0.0000,0.0000,0.0000,0.0000,0
4752,-0.0003,-0.0134,0.0106,0.0018,-0.0049,0.0037,-1.11,0.59,-0.01,0,3.758,-0.168,0.228,0.083,0.012,-0.021,0.998,0.000,0.000,0.000,0.0120,4,2,0.00,0.00,0.00,0.0000,0.0000,0.0000,0.0000,0.0000,0.0000,0.0000,0.00,0.00,0.00,1.0260,0.1260,1.3150,1.0730,2.6990,0,0.0000,0.0000,0.0000,0.0000,0.0000,0
4803,-0.0001,-0.0133,0.0115,0.0031,-0.0025,0.0066,-1.24,0.52,0.00,0,3.764,0.020,0.009,-0.148,0.011,-0.022,0.998,0.000,0.000,0.000,0.0120,0,1,0.00,0.00,0.00,0.0000,0.0000,0.0000,0.0000,0.0000,0.0000,0.0000,0.00,0.00,0.00,1.0260,0.1240,1.3180,1.0770,2.7040,0,0.0000,0.0000,0.0000,0.0000,0.0000,0
4854,-0.0003,-0.0152,0.0121,0.0020,-0.0107,0.0079,-1.25,0.54,0.00,0,3.758,0.031,-0.094,0.007,0.011,-0.022,0.999,0.000,0.000,0.000,0.0110,7,0,0.00,0.00,0.00,0.0000,0.0000,0.0000,0.0000,0.0000,0.0000,0.0000,0.00,0.00,0.00,1.0180,0.1240,1.3180,1.0770,2.7040,0,0.0000,0.0000,0.0000,0.0000,0.0000,0
4905,-0.0003,-0.0132,0.0125,0.0017,0.0013,0.0073,-1.17,0.61,-0.00,0,3.758,-0.208,0.090,0.229,0.012,-0.021,1.001,0.000,0.000,0.000,0.0110,-24,-21,0.00,0.00,0.00,0.0000,0.0000,0.0000,0.0000,0.0000,0.0000,0.0000,0.00,0.00,0.00,1.0180,0.1280,1.3160,1.0760,2.6940,0,0.0000,0.0000,0.0000,0.0000,0.0000,0
4957,-0.0008,-0.0149,0.0120,-0.0010,-0.0058,0.0036,-1.41,0.46,0.00,0,3.758,-0.003,0.459,-0.002,0.010,-0.020,0.999,0.000,0.000,0.000,0.0090,15,9,0.00,0.00,0.00,0.0000,0.0000,0.0000,0.0000,0.0000,0.0000,0.0000,0.00,0.00,0.00,1.0240,0.1280,1.3160,1.0760,2.6940,0,0.0000,0.0000,0.0000,0.0000,0.0000,0
5009,0.0045,-0.0066,0.0102,0.0232,0.0333,-0.0054,-1.23,0.55,-0.01,0,3.758,-0.350,-0.373,0.434,0.012,-0.020,0.999,0.000,0.000,0.000,0.0090,4,-4,0.00,0.00,0.00,0.0000,0.0000,0.0000,0.0000,0.0000,0.0000,0.0000,0.00,0.00,0.00,1.0240,0.1260,1.3160,1.0760,2.6910,0,0.0000,0.0000,0.0000,0.0000,0.0000,0
5061,0.0028,-0.0127,0.0097,0.0125,-0.0001,-0.0067,-1.23,0.49,-0.01,0,3.758,-0.212,0.103,0.113,0.011,-0.021,0.999,0.000,0.000,0.000,0.0130,-4,1,0.00,0.00,0.00,0.0000,0.0000,0.0000,0.0000,0.0000,0.0000,0.0000,0.00,0.00,0.00,1.0250,0.1260,1.3160,1.0760,2.6910,0,0.0000,0.0000,0.0000,0.0000,0.0000,0
5112,0.0028,-0.0124,0.0096,0.0103,0.0006,-0.0060,-1.08,0.57,-0.02,0,3.336,0.466,0.042,1.442,0.024,-0.014,1.002,0.000,0.000,0.000,0.0130,-1,0,0.00,0.00,0.00,0.0000,0.0000,0.0000,0.0000,0.0000,0.0000,0.0000,0.00,0.00,0.00,1.0250,0.1230,1.3120,1.0790,2.6980,0,0.0000,0.0000,0.0000,0.0000,0.0000,0
5163,0.0028,-0.0122,0.0111,0.0053,0.0071,0.0021,-1.40,0.37,-0.01,0,3.405,0.274,0.657,0.920,0.006,-0.025,1.002,0.000,0.000,0.000,0.0110,9,0,0.00,0.00,0.00,0.0000,0.0000,0.0000,0.0000,0.0000,0.0000,0.0000,0.00,0.00,0.00,1.0210,0.1230,1.3120,1.0790,2.6980,0,0.0000,0.0000,0.0000,0.0000,0.0000,0
5214,0.0077,-0.0066,0.0101,0.0225,0.0411,-0.0030,-1.30,0.43,-0.01,0,3.442,1.198,0.310,2.480,0.017,-0.021,1.001,0.000,0.000,0.000,0.0110,2,3,0.00,0.00,0.00,0.0000,0.0000,0.0000,0.0000,0.0000,0.0000,0.0000,0.00,0.00,0.00,1.0210,0.1280,1.3160,1.0740,2.6980,0,0.0000,0.0000,0.0000,0.0000,0.0000,0
5265,0.0081,-0.0069,0.0107,0.0163,0.0409,0.0009,-1.28,0.40,0.05,0,3.473,-0.203,0.466,-2.028,0.009,-0.005,1.008,0.000,0.000,0.000,0.0100,-23,1,0.00,0.00,0.00,0.0000,0.0000,0.0000,0.0000,0.0000,0.0000,0.0000,0.00,0.00,0.00,1.0210,0.1280,1.3160,1.0740,2.6980,0,0.0000,0.0000,0.0000,0.0000,0.0000,0
5316,0.0069,-0.0060,0.0116,0.0036,0.0452,0.0060,-1.53,0.46,0.03,0,3.479,0.422,-0.370,-10.451,0.019,-0.001,1.020,0.000,0.000,0.000,0.0100,-25,-5,0.00,0.00,0.00,0.0000,0.0000,0.0000,0.0000,0.0000,0.0000,0.0000,0.00,0.00,0.00,1.0210,0.1270,1.3130,1.0760,2.7040,0,0.0000,0.0000,0.0000,0.0000,0.0000,0
5367,0.0090,0.0094,0.0101,0.0100,0.1176,-0.0022,-1.88,0.42,-0.24,0,3.484,1.735,-1.108,-1.352,-0.004,-0.048,1.003,0.000,0.000,0.000,0.0120,-5,-3,0.00,0.00,0.00,0.0000,0.0000,0.0000,0.0000,0.0000,0.0000,0.0000,0.00,0.00,0.00,1.0210,0.1270,1.3130,1.0760,2.7040,0,0.0000,0.0000,0.0000,0.0000,0.0000,0
5418,0.0105,0.0325,0.0069,0.0113,0.2125,-0.0192,-2.44,0.39,-0.30,0,3.479,-3.641,2.346,-2.168,-0.003,-0.016,0.988,0.000,0.000,0.000,0.0120,-17,3,0.00,0.00,0.00,0.0000,0.0000,0.0000,0.0000,0.0000,0.0000,0.0000,0.00,0.00,0.00,1.0210,0.1190,1.3190,1.0780,2.6960,0,0.0000,0.0000,0.0000,0.0000,0.0000,0
5469,0.0118,0.0475,0.0075,0.0120,0.2518,-0.0166,-2.52,0.44,-0.31,0,3.479,1.086,-2.999,-1.789,0.013,-0.013,0.989,0.000,0.000,0.000,0.0090,-4,1,0.00,0.00,0.00,0.0000,0.0000,0.0000,0.0000,0.0000,0.0000,0.0000,0.00,0.00,0.00,1.0190,0.1190,1.3190,1.0780,2.6960,0,0.0000,0.0000,0.0000,0.0000,0.0000,0
5520,0.0119,0.0647,0.0081,0.0064,0.2914,-0.0128,-2.56,0.48,-0.18,0,3.479,5.210,-0.959,3.857,0.006,-0.025,1.010,0.000,0.000,0.000,0.0090,-11,2,0.00,0.00,0.00,0.0000,0.0000,0.0000,0.0000,0.0000,0.0000,0.0000,0.00,0.00,0.00,1.0190,0.1240,1.3130,1.0810,2.7030,0,0.0000,0.0000,0.0000,0.0000,0.0000,0
5572,0.0106,0.0763,0.0093,-0.0057,0.2956,-0.0014,-2.26,0.57,-0.05,0,3.479,18.322,-0.475,-5.963,0.002,-0.029,0.997,0.000,0.000,0.000,0.0090,-23,3,0.00,0.00,0.00,0.0000,0.0000,0.0000,0.0000,0.0000,0.0000,0.0000,0.00,0.00,0.00,1.0210,0.1240,1.3130,1.0810,2.7030,0,0.0000,0.0000,0.0000,0.0000,0.0000,0
5623,0.0088,0.0888,0.0114,-0.0180,0.2999,0.0170,-1.32,0.68,-0.27,0,3.479,31.699,-0.595,-1.449,-0.007,-0.019,1.019,0.000,0.000,0.000,0.0090,-7,5,0.00,0.00,0.00,0.0000,0.0000,0.0000,0.0000,0.0000,0.0000,0.0000,0.00,0.00,0.00,1.0210,0.1180,1.3120,1.0750,2.6910,0,0.0000,0.0000,0.0000,0.0000,0.0000,0
5674,0.0059,0.1019,0.0117,-0.0327,0.3002,0.0236,0.35,0.73,-0.32,0,3.479,36.276,6.893,4.977,0.001,-0.025,1.009,0.000,0.000,0.000,0.0170,0,1,0.00,0.00,0.00,0.0000,0.0000,0.0000,0.0000,0.0000,0.0000,0.0000,0.00,0.00,0.00,1.0210,0.1180,1.3120,1.0750,2.6910,0,0.0000,0.0000,0.0000,0.0000,0.0000,0
5725,0.0029,0.1048,0.0148,-0.0442,0.2388,0.0428,2.75,0.65,-0.15,0,3.473,31.676,2.895,2.378,0.007,-0.013,0.972,0.000,0.000,0.000,0.0170,7,0,0.00,0.00,0.00,0.0000,0.0000,0.0000,0.0000,0.0000,0.0000,0.0000,0.00,0.00,0.00,1.0210,0.1190,1.3540,1.0430,2.7040,0,0.0000,0.0000,0.0000,0.0000,0.0000,0
5777,-0.0020,0.0934,0.0195,-0.0618,0.1055,0.0558,5.38,0.65,-0.01,0,3.452,-13.460,1.513,5.443,0.022,0.027,0.954,0.000,0.000,0.000,0.0010,54,2,0.00,0.00,0.00,0.0000,0.0000,0.0000,0.0000,0.0000,0.0000,0.0000,0.00,0.00,0.00,1.0280,0.1190,1.3540,1.0430,2.7040,0,0.0000,0.0000,0.0000,0.0000,0.0000,0
5829,-0.0050,0.0621,0.0083,-0.0670,-0.0978,-0.0313,6.32,0.53,0.33,0,3.415,-45.647,-11.507,9.091,0.012,0.021,0.987,0.000,0.000,0.000,0.0010,95,-9,0.00,0.00,0.00,0.0000,0.0000,0.0000,0.0000,0.0000,0.0000,0.0000,0.00,0.00,0.00,1.0280,0.1240,1.4100,0.9710,2.7090,0,0.0000,0.0000,0.0000,0.0000,0.0000,0
5881,-0.0032,0.0120,-0.0136,-0.0476,-0.3441,-0.1484,5.90,0.21,0.58,0,3.405,-55.380,0.135,4.667,0.013,-0.002,1.018,0.000,0.000,0.000,0.0110,39,1,0.00,0.00,0.00,0.0000,0.0000,0.0000,0.0000,0.0000,0.0000,0.0000,0.00,0.00,0.00,1.0190,0.1240,1.4100,0.9710,2.7090,0,0.0000,0.0000,0.0000,0.0000,0.0000,0
5933,0.0015,-0.0348,-0.0232,-0.0187,-0.5162,-0.1625,3.48,0.01,0.71,0,3.384,27.197,-13.393,4.776,0.008,0.058,1.182,0.000,0.000,0.000,0.0110,50,-10,0.00,0.00,0.00,0.0000,0.0000,0.0000,0.0000,0.0000,0.0000,0.0000,0.00,0.00,0.00,1.0190,0.1370,1.3430,1.0670,2.6910,0,0.0000,0.0000,0.0000,0.0000,0.0000,0
5984,0.0041,-0.0670,-0.0117,-0.0011,-0.5572,-0.0192,1.67,0.11,0.78,0,3.442,-109.660,8.220,-9.949,0.003,0.034,1.183,0.000,0.000,0.000,0.0080,20,2,0.00,0.00,0.00,0.0000,0.0000,0.0000,0.0000,0.0000,0.0000,0.0000,0.00,0.00,0.00,1.0210,0.1370,1.3430,1.0670,2.6910,0,0.0000,0.0000,0.0000,0.0000,0.0000,0
6035,0.0104,-0.0887,0.0071,0.0309,-0.5088,0.1194,-3.92,-0.44,0.32,0,3.452,-88.978,-13.970,-17.524,0.003,-0.025,0.996,0.000,0.000,0.000,0.0080,-15,-4,0.00,0.00,0.00,0.0000,0.0000,0.0000,0.0000,0.0000,0.0000,0.0000,0.00,0.00,0.00,1.0210,0.1470,0.0000,1.0820,2.7080,0,0.0000,0.0000,0.0000,0.0000,0.0000,0
6086,0.0109,-0.1010,0.0190,0.0286,-0.4013,0.1705,-9.29,0.10,-0.60,0,3.447,16.478,-17.816,-12.494,0.009,-0.019,0.983,0.000,0.000,0.000,0.0000,5,-4,0.00,0.00,0.00,0.0000,0.0000,0.0000,0.0000,0.0000,0.0000,0.0000,0.00,0.00,0.00,1.0270,0.1470,0.0000,1.0820,2.7080,0,0.0000,0.0000,0.0000,0.0000,0.0000,0
6137,0.0148,-0.0773,0.0199,0.0403,-0.1242,0.1405,-9.78,1.08,-1.12,0,3.421,87.473,-8.075,-4.517,-0.002,-0.030,0.947,0.000,0.000,0.000,0.0000,1,6,0.00,0.00,0.00,0.0000,0.0000,0.0000,0.0000,0.0000,0.0000,0.0000,0.00,0.00,0.00,1.0270,0.1210,0.1680,1.0840,2.7410,0,0.0000,0.0000,0.0000,0.0000,0.0000,0
6189,0.0148,-0.0687,0.0148,0.0238,-0.0004,0.0566,-5.30,1.71,-1.38,0,3.399,61.700,18.660,-2.954,-0.003,-0.034,0.997,0.000,0.000,0.000,0.0000,0,3,0.00,0.00,0.00,0.0000,0.0000,0.0000,0.0000,0.0000,0.0000,0.0000,0.00,0.00,0.00,1.0450,0.1210,0.1680,1.0840,2.7410,0,0.0000,0.0000,0.0000,0.0000,0.0000,0
6241,0.0197,-0.0741,0.0104,0.0353,0.0108,0.0122,-2.23,0.63,-1.48,0,3.389,13.150,20.298,-1.959,0.003,-0.028,1.029,0.000,0.000,0.000,0.0000,-20,23,0.00,0.00,0.00,0.0000,0.0000,0.0000,0.0000,0.0000,0.0000,0.0000,0.00,0.00,0.00,1.0450,0.1120,1.2700,1.0950,2.6920,0,0.0000,0.0000,0.0000,0.0000,0.0000,0
6292,0.0138,-0.0754,0.0064,-0.0066,0.0185,0.0025,-1.58,0.07,-1.84,0,3.384,27.897,-3.950,-2.391,0.002,-0.025,1.055,0.000,0.000,0.000,0.0000,1,0,0.00,0.00,0.00,0.0000,0.0000,0.0000,0.0000,0.0000,0.0000,0.0000,0.00,0.00,0.00,1.0290,0.1120,1.2700,1.0950,2.6920,0,0.0000,0.0000,0.0000,0.0000,0.0000,0
6343,0.0052,-0.0612,0.0032,-0.0456,0.0881,0.0067,-0.24,0.12,-1.96,0,3.373,38.211,11.661,7.104,0.005,-0.034,1.075,0.000,0.000,0.000,0.0000,5,6,0.00,0.00,0.00,0.0000,0.0000,0.0000,0.0000,0.0000,0.0000,0.0000,0.00,0.00,0.00,1.0290,0.0930,1.2780,1.1140,2.6890,0,0.0000,0.0000,0.0000,0.0000,0.0000,0
6394,-0.0037,-0.0621,0.0025,-0.0805,0.0690,0.0287,1.87,-0.20,-1.81,0,3.373,-0.748,17.596,1.978,0.007,-0.025,1.077,0.000,0.000,0.000,0.0090,-4,16,0.00,0.00,0.00,0.0000,0.0000,0.0000,0.0000,0.0000,0.0000,0.0000,0.00,0.00,0.00,1.0160,0.0930,1.2780,1.1140,2.6890,0,0.0000,0.0000,0.0000,0.0000,0.0000,0
6445,-0.0147,-0.0754,0.0035,-0.1127,-0.0224,0.0610,2.19,-0.91,-1.68,0,3.378,-32.190,13.834,1.164,-0.002,-0.022,1.075,0.000,0.000,0.000,0.0090,-16,6,0.00,0.00,0.00,0.0000,0.0000,0.0000,0.0000,0.0000,0.0000,0.0000,0.00,0.00,0.00,1.0160,0.0980,1.2840,1.1340,2.6790,0,0.0000,0.0000,0.0000,0.0000,0.0000,0
6496,-0.0310,-0.0693,0.0092,-0.1611,-0.0045,0.1039,0.06,-1.54,-1.59,0,3.378,5.950,35.829,0.437,0.000,-0.018,1.050,0.000,0.000,0.000,0.0300,-32,-1,0.00,0.00,0.00,0.0000,0.0000,0.0000,0.0000,0.0000,0.0000,0.0000,0.00,0.00,0.00,1.0110,0.0980,1.2840,1.1340,2.6790,0,0.0000,0.0000,0.0000,0.0000,0.0000,0
6548,-0.0339,-0.0454,0.0170,-0.1212,0.1074,0.1373,-0.63,-3.23,-1.68,0,3.378,35.243,1.083,-0.344,0.002,-0.017,1.054,0.000,0.000,0.000,0.0300,-17,1,0.00,0.00,0.00,0.0000,0.0000,0.0000,0.0000,0.0000,0.0000,0.0000,0.00,0.00,0.00,1.0110,0.0600,1.2440,1.1690,2.6710,0,0.0000,0.0000,0.0000,0.0000,0.0000,0
6600,-0.0314,-0.0216,0.0276,-0.0509,0.1963,0.1724,0.26,-3.96,-1.82,0,3.384,41.076,-17.515,-1.588,-0.001,-0.026,1.030,0.000,0.000,0.000,0.0490,-15,-1,0.00,0.00,0.00,0.0000,0.0000,0.0000,0.0000,0.0000,0.0000,0.0000,0.00,0.00,0.00,0.9970,0.0600,1.2440,1.1690,2.6710,0,0.0000,0.0000,0.0000,0.0000,0.0000,0
6651,-0.0285,-0.0046,0.0404,0.0074,0.2227,0.2069,1.97,-3.42,-1.93,0,3.384,31.042,-17.200,2.687,-0.004,-0.022,0.997,0.000,0.000,0.000,0.0490,-25,-6,0.00,0.00,0.00,0.0000,0.0000,0.0000,0.0000,0.0000,0.0000,0.0000,0.00,0.00,0.00,0.9970,0.0480,1.2670,1.1850,2.6620,0,0.0000,0.0000,0.0000,0.0000,0.0000,0
6702,-0.0234,0.0066,0.0549,0.0549,0.2011,0.2264,3.64,-2.75,-1.89,0,3.384,7.052,-26.960,2.885,-0.001,-0.020,0.989,0.000,0.000,0.000,0.0860,-1,-5,0.00,0.00,0.00,0.0000,0.0000,0.0000,0.0000,0.0000,0.0000,0.0000,0.00,0.00,0.00,1.0030,0.0480,1.2670,1.1850,2.6620,0,0.0000,0.0000,0.0000,0.0000,0.0000,0
6753,-0.0182,0.0113,0.0705,0.0838,0.1408,0.2422,4.50,-1.37,-1.72,0,3.394,-4.244,-26.823,3.339,-0.003,-0.021,0.986,0.000,0.000,0.000,0.0860,-4,-16,0.00,0.00,0.00,0.0000,0.0000,0.0000,0.0000,0.0000,0.0000,0.0000,0.00,0.00,0.00,1.0030,0.0540,1.3590,1.2050,2.6450,0,0.0000,0.0000,0.0000,0.0000,0.0000,0
6804,-0.0103,0.0137,0.0902,0.1090,0.0832,0.2689,4.42,-0.33,-1.64,0,3.394,-11.787,-15.375,4.557,-0.007,-0.013,0.969,0.000,0.000,0.000,0.1060,-1,-12,0.00,0.00,0.00,0.0000,0.0000,0.0000,0.0000,0.0000,0.3000,0.2755,4.65,4.19,49.20,1.0210,0.0540,1.3590,1.2050,2.6450,0,0.0000,0.0000,0.0000,0.0000,0.0000,0
6856,-0.0036,0.0134,0.1073,0.1121,0.0288,0.2697,3.93,0.69,-1.44,0,3.399,-21.846,-15.407,4.384,-0.006,-0.009,0.956,0.000,0.000,0.000,0.1060,-11,-26,4.42,0.33,-1.64,-0.0103,0.0137,0.1060,0.0000,0.0000,0.3000,0.2722,2.23,4.84,43.14,1.0210,0.0580,1.3590,1.2190,2.6090,0,0.0000,0.0000,0.0000,0.0000,0.0000,0
6908,-0.0009,0.0130,0.1198,0.0911,-0.0067,0.2468,2.86,1.32,-1.30,0,3.389,-18.168,-7.730,3.812,-0.003,-0.006,0.949,0.000,0.000,0.000,0.1260,4,-14,2.55,-0.32,-1.48,0.0430,0.0366,0.1065,0.0000,0.0000,0.3000,0.2723,0.58,4.07,39.12,1.0320,0.0580,1.3590,1.2190,2.6090,0,0.0000,0.0000,0.0000,0.0000,0.0000,0
6959,0.0089,0.0144,0.1286,0.1033,-0.0179,0.2078,1.88,1.75,-1.12,0,3.384,-14.683,-5.868,2.690,-0.001,-0.007,0.964,0.000,0.000,0.000,0.1260,2,-11,8.26,1.82,-1.37,0.0661,0.0290,0.1576,0.0000,0.0000,0.3000,0.2749,0.17,5.24,33.64,1.0320,0.0560,1.3150,1.2280,2.5910,0,0.0000,0.0000,0.0000,0.0000,0.0000,0
7010,0.0129,0.0130,0.1371,0.0837,-0.0321,0.1813,1.11,2.11,-0.99,0,3.373,-8.105,0.741,2.130,-0.005,-0.009,0.977,0.000,0.000,0.000,0.1360,0,-1,7.37,6.63,-1.32,0.0800,0.0252,0.1643,0.0000,0.0000,0.3000,0.2761,-0.56,4.61,29.63,1.0330,0.0560,1.3150,1.2280,2.5910,0,0.0000,0.0000,0.0000,0.0000,0.0000,0
7061,0.0195,0.0110,0.1405,0.0786,-0.0414,0.1430,0.65,2.12,-0.88,0,3.368,-11.751,3.032,1.712,-0.000,-0.007,0.995,0.000,0.000,0.000,0.1360,3,-3,4.43,12.23,-0.69,0.0781,0.0255,0.1595,0.0000,0.0000,0.3000,0.2796,-1.10,4.76,26.30,1.0330,0.0570,1.2840,1.2280,2.5750,0,0.0000,0.0000,0.0000,0.0000,0.0000,0
7112,0.0230,0.0091,0.1451,0.0614,-0.0452,0.1259,0.06,1.89,-0.76,0,3.357,-8.054,0.919,1.935,-0.002,-0.002,1.000,0.000,0.000,0.000,0.1450,1,0,3.50,11.20,-0.52,0.0811,0.0222,0.1579,0.0000,0.0000,0.3000,0.2806,-1.39,4.22,22.92,1.0250,0.0570,1.2840,1.2280,2.5750,0,0.0000,0.0000,0.0000,0.0000,0.0000,0
7164,0.0259,0.0088,0.1491,0.0465,-0.0370,0.1136,-0.34,1.81,-0.70,0,3.357,-2.614,7.248,1.017,0.002,-0.009,1.012,0.000,0.000,0.000,0.1450,5,-2,1.93,10.57,0.08,0.0803,0.0213,0.1582,0.0000,0.0000,0.3000,0.2812,-1.05,3.75,21.07,1.0250,0.0530,1.2730,1.2280,2.5650,0,0.0000,0.0000,0.0000,0.0000,0.0000,0
7215,0.0279,0.0046,0.1527,0.0317,-0.0429,0.1078,-0.50,1.53,-0.65,0,3.352,-4.228,6.305,0.956,0.002,-0.015,1.018,0.000,0.000,0.000,0.1530,2,-1,2.23,8.48,0.16,0.0828,0.0142,0.1616,0.0000,0.0000,0.3000,0.2812,-1.58,3.24,19.39,1.0160,0.0530,1.2730,1.2280,2.5650,0,0.0000,0.0000,0.0000,0.0000,0.0000,0
7265,0.0302,0.0005,0.1553,0.0226,-0.0460,0.1020,-0.61,1.17,-0.62,0,3.357,-6.628,7.636,0.991,0.005,-0.012,1.028,0.000,0.000,0.000,0.1530,0,0,1.34,7.05,0.72,0.0835,0.0118,0.1643,0.0000,0.0000,0.3000,0.2813,-1.99,2.99,18.72,1.0160,0.0540,1.2830,1.2240,2.5530,0,0.0000,0.0000,0.0000,0.0000,0.0000,0
7317,0.0313,-0.0027,0.1595,0.0138,-0.0450,0.1079,-0.83,0.85,-0.60,0,3.347,1.300,2.704,0.447,0.004,-0.011,1.026,0.000,0.000,0.000,0.1610,0,0,0.97,6.65,0.80,0.0784,0.0061,0.1641,0.0000,0.0000,0.3000,0.2799,-2.17,2.69,18.07,1.0130,0.0540,1.2830,1.2240,2.5530,0,0.0000,0.0000,0.0000,0.0000,0.0000,0
7367,0.0316,-0.0052,0.1633,0.0058,-0.0388,0.1127,-0.90,0.61,-0.57,0,3.352,0.866,3.530,0.288,0.005,-0.012,1.029,0.000,0.000,0.000,0.1610,9,11,1.02,6.50,0.83,0.0701,-0.0007,0.1668,0.0000,0.0000,0.3000,0.2787,-2.07,2.36,16.97,1.0130,0.0520,1.2870,1.2190,2.5420,0,0.0000,0.0000,0.0000,0.0000,0.0000,0
7419,0.0307,-0.0065,0.1681,-0.0029,-0.0293,0.1220,-0.77,0.55,-0.57,0,3.352,-0.270,7.807,-0.796,-0.001,-0.011,1.028,0.000,0.000,0.000,0.1810,0,1,0.45,5.17,1.38,0.0721,0.0000,0.1732,0.0000,0.0000,0.3000,0.2767,-1.75,1.93,16.96,1.0140,0.0520,1.2870,1.2190,2.5420,0,0.0000,0.0000,0.0000,0.0000,0.0000,0
7471,0.0264,-0.0126,0.1760,-0.0198,-0.0384,0.1423,-0.75,0.23,-0.58,0,3.362,-1.971,7.902,1.125,0.004,-0.010,1.020,0.000,0.000,0.000,0.1810,3,-1,0.22,4.46,1.45,0.0648,-0.0037,0.1803,0.0000,0.0000,0.3000,0.2731,-2.59,0.90,17.37,1.0140,0.0480,1.3090,1.2220,2.5190,0,0.0000,0.0000,0.0000,0.0000,0.0000,0
7523,0.0252,-0.0137,0.1859,-0.0217,-0.0296,0.1640,-0.76,-0.24,-0.58,0,3.362,2.183,3.077,0.360,0.002,-0.007,1.013,0.000,0.000,0.000,0.1860,0,0,0.15,3.41,1.97,0.0609,-0.0085,0.1875,0.0000,0.0000,0.3000,0.2689,-2.30,0.75,17.49,1.0100,0.0480,1.3090,1.2220,2.5190,0,0.0000,0.0000,0.0000,0.0000,0.0000,0
7575,0.0268,-0.0161,0.1961,-0.0108,-0.0261,0.1796,-0.71,-0.46,-0.57,0,3.362,0.969,-0.936,-0.114,0.006,-0.013,1.008,0.000,0.000,0.000,0.1860,0,-2,0.26,3.25,2.00,0.0525,-0.0141,0.1943,0.0000,0.0000,0.3000,0.2653,-2.34,1.38,17.01,1.0100,0.0480,1.3320,1.2140,2.5130,0,0.0000,0.0000,0.0000,0.0000,0.0000,0
7626,0.0259,-0.0189,0.2001,-0.0088,-0.0255,0.1624,-0.56,-0.43,-0.56,0,3.368,-0.327,-0.728,-0.623,0.001,-0.009,1.003,0.000,0.000,0.000,0.2100,-4,1,-0.35,1.87,2.47,0.0642,-0.0070,0.2019,0.0000,0.0000,0.3000,0.2664,-2.49,1.40,16.94,1.0160,0.0480,1.3320,1.2140,2.5130,0,0.0000,0.0000,0.0000,0.0000,0.0000,0
7677,0.0260,-0.0204,0.2105,-0.0040,-0.0221,0.1732,-0.60,-0.28,-0.62,0,3.368,3.652,-1.883,0.333,0.006,-0.007,0.994,0.000,0.000,0.000,0.2100,1,0,-0.71,1.93,2.00,0.0608,-0.0041,0.2113,0.0000,0.0000,0.3000,0.2632,-2.47,1.65,18.53,1.0160,0.0520,1.3700,1.2100,2.4930,0,0.0000,0.0000,0.0000,0.0000,0.0000,0
7728,0.0209,-0.0196,0.2189,-0.0154,-0.0123,0.1707,-0.45,-0.28,-0.63,0,3.362,2.935,3.275,0.666,0.004,-0.008,0.991,0.000,0.000,0.000,0.2260,3,0,-0.43,1.90,2.27,0.0598,-0.0051,0.2190,0.0000,0.0000,0.3000,0.2619,-1.97,0.76,18.77,1.0160,0.0520,1.3700,1.2100,2.4930,0,0.0000,0.0000,0.0000,0.0000,0.0000,0
7779,0.0222,-0.0193,0.2244,-0.0071,-0.0059,0.1544,-0.28,-0.49,-0.60,0,3.368,0.295,-2.528,0.559,0.003,-0.006,0.992,0.000,0.000,0.000,0.2260,2,-2,-0.03,1.62,2.78,0.0586,-0.0098,0.2293,0.0000,0.0000,0.3000,0.2627,-1.64,1.24,18.00,1.0160,0.0440,1.3890,1.2120,2.4730,0,0.0000,0.0000,0.0000,0.0000,0.0000,0
7830,0.0233,-0.0210,0.2328,0.0010,-0.0076,0.1531,-0.25,-0.48,-0.56,0,3.368,0.545,-4.242,1.633,0.000,-0.011,0.987,0.000,0.000,0.000,0.2450,-6,0,0.10,1.48,3.24,0.0621,-0.0134,0.2362,0.0000,0.0000,0.3000,0.2612,-1.85,1.71,16.95,1.0200,0.0440,1.3890,1.2120,2.4730,0,0.0633,-0.0107,0.0000,0.0633,-0.0107,0
7882,0.0173,-0.0216,0.2402,-0.0127,-0.0062,0.1473,-0.20,-0.14,-0.50,0,3.368,2.052,0.115,3.322,0.001,-0.008,0.986,0.000,0.000,0.000,0.2450,-2,0,-0.44,1.68,2.38,0.0594,-0.0028,0.2471,0.0000,0.0000,0.3000,0.2605,-1.83,0.64,14.99,1.0200,0.0460,1.4170,1.2110,2.4590,0,0.0633,-0.0107,0.0000,0.0633,-0.0107,0
7934,0.0179,-0.0187,0.2499,-0.0084,0.0037,0.1515,-0.05,-0.16,-0.38,0,3.368,3.212,3.165,2.111,0.001,-0.010,0.983,0.000,0.000,0.000,0.2630,-1,1,-0.46,1.61,2.41,0.0586,0.0017,0.2541,0.0000,0.0000,0.3000,0.2582,-1.17,0.89,11.51,1.0200,0.0460,1.4170,1.2110,2.4590,0,0.0633,-0.0107,0.0000,0.0633,-0.0107,0
7986,0.0185,-0.0190,0.2576,-0.0042,0.0024,0.1450,0.13,-0.28,-0.27,0,3.373,2.152,-1.051,3.455,0.004,-0.009,0.976,0.000,0.000,0.000,0.2630,-2,-4,-0.31,1.46,2.48,0.0554,0.0041,0.2642,0.0000,0.0000,0.3000,0.2574,-1.26,1.14,8.13,1.0200,0.0450,1.4670,1.2080,2.4310,0,0.0633,-0.0107,0.0000,0.0633,-0.0107,0
8037,0.0189,-0.0189,0.2675,-0.0003,0.0011,0.1468,0.27,-0.27,-0.11,0,3.368,0.819,-1.417,3.267,0.003,-0.012,0.980,0.000,0.000,0.000,0.2740,-2,0,-0.27,1.17,2.86,0.0645,0.0097,0.2709,0.0000,0.0000,0.3000,0.2554,-1.32,1.37,3.35,1.0240,0.0450,1.4670,1.2080,2.4310,0,0.0633,-0.0107,0.0000,0.0633,-0.0107,0
8088,0.0218,-0.0191,0.2730,0.0091,-0.0019,0.1296,0.27,-0.19,0.04,0,3.368,0.736,-3.915,2.886,-0.001,-0.011,0.978,0.000,0.000,0.000,0.2740,0,-15,-0.30,1.24,2.90,0.0639,0.0149,0.2782,0.0000,0.0000,0.3000,0.2562,-1.48,2.03,-1.25,1.0240,0.0430,1.4950,1.2160,2.4280,0,0.0633,-0.0107,0.0000,0.0633,-0.0107,0
8139,0.0195,-0.0192,0.2798,0.0031,-0.0046,0.1200,0.32,-0.12,0.22,0,3.362,-0.526,-3.219,2.883,0.004,-0.014,0.977,0.000,0.000,0.000,0.2860,6,-2,-0.13,0.48,4.16,0.1035,0.0174,0.2827,0.0000,0.0000,0.3000,0.2559,-1.62,1.57,-6.51,1.0280,0.0430,1.4950,1.2160,2.4280,0,0.0633,-0.0107,0.0000,0.0633,-0.0107,0
8190,0.0294,-0.0170,0.2834,0.0267,-0.0005,0.0993,0.30,0.05,0.35,0,3.362,-1.238,-3.991,1.905,0.002,-0.013,0.985,0.000,0.000,0.000,0.2860,-2,0,0.28,0.68,5.12,0.1112,0.0022,0.2895,0.0000,0.0000,0.3000,0.2575,-1.25,3.41,-10.57,1.0280,0.0410,1.5160,1.2170,2.4190,0,0.0633,-0.0107,0.0000,0.0633,-0.0107,0
8241,0.0325,-0.0215,0.2895,0.0306,-0.0137,0.0957,0.26,0.23,0.46,0,3.362,-1.360,-4.256,1.080,0.001,-0.007,0.984,0.000,0.000,0.000,0.2960,0,0,0.02,1.04,4.70,0.1104,0.0077,0.2945,0.0000,0.0000,0.3000,0.2567,-2.22,3.83,-13.74,1.0280,0.0410,1.5160,1.2170,2.4190,0,0.0633,-0.0107,0.0000,0.0633,-0.0107,0
8292,0.0344,-0.0211,0.2938,0.0293,-0.0130,0.0872,0.20,0.41,0.51,0,3.362,-2.206,-0.303,1.170,0.002,-0.011,0.988,0.000,0.000,0.000,0.2960,0,-1,-0.05,1.26,4.76,0.1160,0.0073,0.2996,0.0000,0.0000,0.3000,0.2568,-2.15,3.90,-15.29,1.0280,0.0410,1.5390,1.2070,2.4010,0,0.0633,-0.0107,0.0000,0.0633,-0.0107,0
8344,0.0377,-0.0225,0.2991,0.0302,-0.0158,0.0848,0.08,0.47,0.53,0,3.362,-2.281,-1.085,-1.138,0.001,-0.008,0.984,0.000,0.000,0.000,0.3070,1,-2,-0.23,1.45,4.54,0.1107,0.0089,0.3032,0.0000,0.0000,0.3000,0.2561,-2.39,4.19,-15.82,1.0240,0.0410,1.5390,1.2070,2.4010,0,0.0633,-0.0107,0.0000,0.0633,-0.0107,0
8396,0.0388,-0.0236,0.3043,0.0255,-0.0171,0.0820,0.01,0.53,0.47,0,3.368,1.403,-0.637,-2.120,0.001,-0.008,0.984,0.000,0.000,0.000,0.3070,0,0,-0.31,1.46,4.59,0.1161,0.0070,0.3083,0.0000,0.0000,0.3000,0.2554,-2.55,4.06,-14.10,1.0240,0.0400,1.5410,1.2060,2.3940,0,0.0633,-0.0107,0.0000,0.0633,-0.0107,0
8448,0.0414,-0.0250,0.3096,0.0241,-0.0185,0.0810,0.03,0.56,0.40,0,3.362,-0.531,0.362,-2.299,0.003,-0.007,0.984,0.000,0.000,0.000,0.3120,0,2,-0.24,1.49,4.48,0.1185,0.0061,0.3115,0.0000,0.0000,0.3000,0.2545,-2.72,4.20,-12.10,1.0270,0.0400,1.5410,1.2060,2.3940,0,0.0633,-0.0107,0.0000,0.0633,-0.0107,0
8499,0.0431,-0.0256,0.3112,0.0208,-0.0181,0.0636,-0.01,0.51,0.30,0,3.357,-0.418,-0.606,-1.499,0.001,-0.007,0.990,0.000,0.000,0.000,0.3120,4,-2,-0.31,1.67,4.09,0.1079,0.0068,0.3147,0.0000,0.0000,0.3000,0.2561,-2.74,4.14,-8.97,1.0270,0.0440,1.5310,1.1990,2.3870,0,0.0633,-0.0107,0.0000,0.0633,-0.0107,0
8550,0.0420,-0.0253,0.3141,0.0129,-0.0156,0.0595,-0.00,0.55,0.21,0,3.357,-1.447,1.559,-1.880,0.007,-0.011,0.988,0.000,0.000,0.000,0.3160,2,2,-0.19,1.61,4.35,0.1125,-0.0013,0.3169,0.0000,0.0000,0.3000,0.2560,-2.59,3.68,-6.19,1.0160,0.0440,1.5310,1.1990,2.3870,0,0.0633,-0.0107,0.0000,0.0633,-0.0107,0
8602,0.0415,-0.0286,0.3166,0.0059,-0.0206,0.0530,-0.06,0.49,0.12,0,3.352,-2.513,3.266,-1.283,0.001,-0.012,0.987,0.000,0.000,0.000,0.3160,5,0,-0.22,1.59,4.28,0.1080,-0.0069,0.3189,0.0000,0.0000,0.3000,0.2562,-3.07,3.30,-3.60,1.0160,0.0400,1.5230,1.2010,2.3840,0,0.0633,-0.0107,0.0000,0.0633,-0.0107,0
8653,0.0417,-0.0302,0.3185,0.0019,-0.0211,0.0443,-0.12,0.32,0.04,0,3.352,-1.504,1.300,-0.594,0.002,-0.012,0.993,0.000,0.000,0.000,0.3190,0,0,-0.19,1.39,4.53,0.1089,-0.0201,0.3198,0.0000,0.0000,0.3000,0.2568,-3.21,3.12,-1.13,1.0150,0.0400,1.5230,1.2010,2.3840,0,0.0633,-0.0107,0.0000,0.0633,-0.0107,0
8704,0.0414,-0.0351,0.3191,-0.0014,-0.0280,0.0337,-0.20,0.24,-0.01,0,3.352,-2.570,0.972,-0.161,0.001,-0.009,1.001,0.000,0.000,0.000,0.3190,0,0,-0.26,1.32,4.50,0.1068,-0.0258,0.3212,0.0000,0.0000,0.3000,0.2578,-3.87,2.93,0.36,1.0150,0.0390,1.5130,1.1960,2.3830,0,0.0633,-0.0107,0.0000,0.0633,-0.0107,0
8755,0.0413,-0.0365,0.3205,-0.0034,-0.0262,0.0300,-0.28,0.16,-0.06,0,3.347,-0.410,1.358,-0.492,0.006,-0.010,0.998,0.000,0.000,0.000,0.3220,1,1,-0.39,1.27,4.49,0.1041,-0.0318,0.3222,0.0000,0.0000,0.3000,0.2580,-3.89,2.82,1.79,1.0100,0.0390,1.5130,1.1960,2.3830,0,0.0633,-0.0107,0.0000,0.0633,-0.0107,0
8806,0.0407,-0.0376,0.3221,-0.0057,-0.0236,0.0311,-0.29,0.08,-0.10,0,3.352,-1.039,1.606,-0.872,0.001,-0.010,0.997,0.000,0.000,0.000,0.3220,1,0,-0.65,1.09,4.13,0.1086,-0.0188,0.3246,0.0000,0.0000,0.3000,0.2575,-3.85,2.68,3.14,1.0100,0.0420,1.5110,1.1950,2.3750,0,0.0633,-0.0107,0.0000,0.0633,-0.0107,0
8857,0.0404,-0.0395,0.3238,-0.0060,-0.0215,0.0299,-0.32,-0.01,-0.14,0,3.347,-0.457,0.257,-0.605,0.004,-0.012,0.999,0.000,0.000,0.000,0.3260,1,0,-0.70,1.00,4.12,0.1078,-0.0215,0.3254,0.0000,0.0000,0.3000,0.2574,-3.89,2.64,4.09,1.0130,0.0420,1.5110,1.1950,2.3750,0,0.0633,-0.0107,0.0000,0.0633,-0.0107,0
8908,0.0385,-0.0394,0.3251,-0.0091,-0.0175,0.0315,-0.31,-0.01,-0.17,0,3.347,2.124,1.171,0.338,-0.006,-0.006,1.001,0.000,0.000,0.000,0.3260,-2,0,-0.71,0.96,4.12,0.1070,-0.0245,0.3271,0.0000,0.0000,0.3000,0.2569,-3.70,2.36,5.18,1.0130,0.0430,1.5090,1.1930,2.3810,0,0.0633,-0.0107,0.0000,0.0633,-0.0107,0
8959,0.0387,-0.0410,0.3270,-0.0078,-0.0164,0.0341,-0.29,-0.03,-0.17,0,3.347,3.058,1.537,0.137,0.001,-0.007,1.001,0.000,0.000,0.000,0.3310,0,1,-0.69,0.88,4.00,0.1055,-0.0212,0.3283,0.0000,0.0000,0.3000,0.2563,-3.77,2.44,5.08,1.0100,0.0430,1.5090,1.1930,2.3810,0,0.0633,-0.0107,0.0000,0.0633,-0.0107,0
9010,0.0368,-0.0390,0.3291,-0.0103,-0.0087,0.0365,-0.20,-0.08,-0.14,0,3.347,2.479,0.720,1.164,0.005,-0.011,1.000,0.000,0.000,0.000,0.3310,0,0,-0.54,0.81,3.98,0.1024,-0.0218,0.3306,0.0000,0.0000,0.3000,0.2556,-3.26,2.20,4.20,1.0100,0.0430,1.5170,1.1970,2.3700,0,0.0633,-0.0107,0.0000,0.0633,-0.0107,0
9061,0.0345,-0.0396,0.3317,-0.0130,-0.0074,0.0419,-0.04,-0.10,-0.11,0,3.347,1.276,0.185,1.300,0.003,-0.013,0.994,0.000,0.000,0.000,0.3310,0,0,-0.42,0.77,4.04,0.0994,-0.0229,0.3324,0.0000,0.0000,0.3000,0.2545,-3.26,1.90,3.16,1.0110,0.0430,1.5170,1.1970,2.3700,0,0.0633,-0.0107,0.0000,0.0633,-0.0107,0
9112,0.0320,-0.0401,0.3327,-0.0158,-0.0072,0.0364,0.01,-0.11,-0.05,0,3.347,0.207,2.630,0.740,0.004,-0.014,0.999,0.000,0.000,0.000,0.3310,0,0,-0.35,0.76,4.10,0.0962,-0.0241,0.3334,0.0000,0.0000,0.3000,0.2549,-3.28,1.58,1.53,1.0110,0.0390,1.5310,1.1930,2.3630,0,0.0633,-0.0107,0.0000,0.0633,-0.0107,0
9163,0.0313,-0.0390,0.3334,-0.0146,-0.0046,0.0303,0.03,-0.24,0.01,0,3.341,0.916,1.883,0.797,0.005,-0.009,1.001,0.000,0.000,0.000,0.3350,0,0,-0.34,0.63,4.14,0.0929,-0.0255,0.3340,0.0000,0.0000,0.3000,0.2555,-3.06,1.58,-0.19,1.0160,0.0390,1.5310,1.1930,2.3630,0,0.0633,-0.0107,0.0000,0.0633,-0.0107,0
9214,0.0305,-0.0391,0.3330,-0.0129,-0.0046,0.0221,0.11,-0.31,0.05,0,3.347,0.686,-0.085,1.138,0.006,-0.010,1.004,0.000,0.000,0.000,0.3350,-3,0,-0.30,0.53,4.18,0.0893,-0.0271,0.3356,0.0000,0.0000,0.3000,0.2564,-3.06,1.60,-1.52,1.0160,0.0380,1.5470,1.1900,2.3620,0,0.0633,-0.0107,0.0000,0.0633,-0.0107,0
9265,0.0293,-0.0431,0.3350,-0.0113,-0.0121,0.0266,0.13,-0.31,0.10,0,3.341,-1.320,-1.111,1.032,-0.003,-0.017,1.003,0.000,0.000,0.000,0.3360,4,1,-0.44,0.36,4.04,0.1042,-0.0085,0.3374,0.0000,0.0000,0.3000,0.2556,-3.72,1.60,-3.14,1.0190,0.0380,1.5470,1.1900,2.3620,0,0.0633,-0.0107,0.0000,0.0633,-0.0107,0
9316,0.0291,-0.0433,0.3358,-0.0080,-0.0124,0.0257,0.13,-0.26,0.15,0,3.341,-0.386,-0.405,0.936,0.006,-0.014,1.000,0.000,0.000,0.000,0.3360,0,0,-0.45,0.42,4.21,0.1032,-0.0112,0.3390,0.0000,0.0000,0.3000,0.2555,-3.75,1.75,-4.38,1.0190,0.0380,1.5550,1.1900,2.3590,0,0.0633,-0.0107,0.0000,0.0633,-0.0107,0
9367,0.0261,-0.0488,0.3371,-0.0106,-0.0218,0.0262,0.07,-0.25,0.18,0,3.347,-1.944,1.440,0.698,0.001,-0.005,1.003,0.000,0.000,0.000,0.3370,0,0,-0.47,0.44,4.26,0.1024,-0.0109,0.3396,0.0000,0.0000,0.3000,0.2552,-4.61,1.40,-5.44,1.0180,0.0380,1.5550,1.1900,2.3590,0,0.0633,-0.0107,0.0000,0.0633,-0.0107,0
9418,0.0260,-0.0506,0.3423,-0.0077,-0.0238,0.0457,-0.02,-0.30,0.21,0,3.347,-1.358,0.385,0.534,0.002,-0.018,1.000,0.000,0.000,0.000,0.3370,0,0,-0.57,0.37,4.30,0.1014,-0.0105,0.3403,0.0000,0.0000,0.3000,0.2521,-4.90,1.56,-6.40,1.0180,0.0400,1.5600,1.1850,2.3520,0,0.0633,-0.0107,0.0000,0.0633,-0.0107,0
9469,0.0258,-0.0528,0.3417,-0.0050,-0.0253,0.0321,-0.07,-0.32,0.24,0,3.341,-3.540,-0.501,0.574,0.009,-0.012,1.001,0.000,0.000,0.000,0.3480,0,0,-0.64,0.35,4.32,0.1003,-0.0104,0.3407,0.0000,0.0000,0.3000,0.2537,-5.10,1.66,-7.28,1.0160,0.0400,1.5600,1.1850,2.3520,0,0.0633,-0.0107,0.0000,0.0633,-0.0107,0
9521,0.0256,-0.0540,0.3443,-0.0022,-0.0246,0.0361,-0.16,-0.30,0.27,0,3.352,0.742,-2.721,-0.858,-0.000,-0.016,0.997,0.000,0.000,0.000,0.3480,3,1,-0.82,0.37,4.35,0.0992,-0.0103,0.3444,0.0000,0.0000,0.3000,0.2528,-5.18,1.79,-7.96,1.0160,0.0390,1.5660,1.1840,2.3540,0,0.0633,-0.0107,0.0000,0.0633,-0.0107,0
9573,0.0266,-0.0549,0.3478,0.0021,-0.0225,0.0419,-0.19,-0.18,0.25,0,3.341,-0.405,-0.252,0.018,0.004,-0.007,0.988,0.000,0.000,0.000,0.3490,-3,0,-0.68,0.49,4.59,0.1011,-0.0191,0.3472,0.0000,0.0000,0.3000,0.2515,-5.17,2.09,-7.61,1.0160,0.0390,1.5660,1.1840,2.3540,0,0.0633,-0.0107,0.0000,0.0633,-0.0107,0
9625,0.0257,-0.0670,0.3492,0.0019,-0.0396,0.0349,-0.12,-0.12,0.24,0,3.347,-1.717,-0.051,-0.046,0.004,-0.011,0.990,0.000,0.000,0.000,0.3490,0,0,-0.74,0.50,4.50,0.1002,-0.0182,0.3494,0.0000,0.0000,0.3000,0.2520,-6.87,2.01,-7.22,1.0160,0.0410,1.5630,1.1830,2.3510,0,0.0633,-0.0107,0.0000,0.0633,-0.0107,0
9676,0.0248,-0.0713,0.3505,0.0014,-0.0427,0.0291,-0.18,-0.12,0.25,0,3.341,-3.249,-0.643,0.839,0.007,-0.010,0.993,0.000,0.000,0.000,0.3500,0,0,-0.83,0.50,4.50,0.0993,-0.0191,0.3505,0.0000,0.0000,0.3000,0.2523,-7.31,1.92,-7.46,1.0140,0.0410,1.5630,1.1830,2.3510,0,0.0633,-0.0107,0.0000,0.0633,-0.0107,0
9727,0.0265,-0.0721,0.3520,0.0048,-0.0389,0.0255,-0.39,-0.11,0.29,0,3.341,-5.081,-2.480,2.413,-0.000,-0.009,0.995,0.000,0.000,0.000,0.3500,0,0,-0.99,0.53,4.54,0.0984,-0.0199,0.3514,0.0000,0.0000,0.3000,0.2524,-7.19,2.21,-8.65,1.0140,0.0380,1.5680,1.1720,2.3520,0,0.0633,-0.0107,0.0000,0.0633,-0.0107,0
9778,0.0278,-0.0735,0.3520,0.0075,-0.0350,0.0168,-0.53,-0.03,0.36,0,3.336,0.820,-4.512,1.767,0.005,-0.016,1.000,0.000,0.000,0.000,0.3510,0,-1,-1.25,0.66,4.66,0.0972,-0.0205,0.3519,0.0000,0.0000,0.3000,0.2534,-7.08,2.43,-10.92,1.0190,0.0380,1.5680,1.1720,2.3520,0,0.0633,-0.0107,0.0000,0.0633,-0.0107,0
9829,0.0282,-0.0752,0.3522,0.0077,-0.0305,0.0122,-0.55,0.11,0.47,0,3.341,-2.881,-1.499,2.456,0.001,-0.014,0.997,0.000,0.000,0.000,0.3510,1,0,-1.23,0.80,4.84,0.1030,-0.0192,0.3526,0.0000,0.0000,0.3000,0.2538,-6.98,2.46,-14.02,1.0190,0.0370,1.5670,1.1630,2.3470,0,0.0633,-0.0107,0.0000,0.0633,-0.0107,0
9880,0.0307,-0.0761,0.3521,0.0103,-0.0250,0.0074,-0.63,0.15,0.59,0,3.336,-0.586,-0.855,3.344,0.003,-0.015,0.999,0.000,0.000,0.000,0.3520,-1,0,-1.36,0.87,4.99,0.1031,-0.0200,0.3529,0.0000,0.0000,0.3000,0.2544,-6.77,2.77,-17.76,1.0200,0.0370,1.5670,1.1630,2.3470,0,0.0633,-0.0107,0.0000,0.0633,-0.0107,0
9931,0.0304,-0.0761,0.3534,0.0077,-0.0179,0.0107,-0.61,0.17,0.73,0,3.341,-0.816,-0.589,2.830,0.003,-0.016,1.003,0.000,0.000,0.000,0.3520,0,-1,-1.41,0.91,5.13,0.1027,-0.0188,0.3533,0.0000,0.0000,0.3000,0.2538,-6.44,2.62,-21.99,1.0200,0.0400,1.5780,1.1670,2.3460,0,0.0633,-0.0107,0.0000,0.0633,-0.0107,0
9983,0.0304,-0.0756,0.3531,0.0056,-0.0105,0.0072,-0.59,0.16,0.90,0,3.336,4.958,-0.428,4.808,0.005,-0.014,1.000,0.000,0.000,0.000,0.3520,0,0,-1.45,0.92,5.32,0.1038,-0.0184,0.3536,0.0000,0.0000,0.3000,0.2542,-6.03,2.52,-27.00,1.0250,0.0400,1.5780,1.1670,2.3460,0,0.0633,-0.0107,0.0000,0.0633,-0.0107,0
10034,0.0320,-0.0767,0.3534,0.0062,-0.0064,0.0073,-0.44,0.18,1.08,0,3.336,3.064,-0.993,1.490,0.004,-0.017,1.001,0.000,0.000,0.000,0.3520,1,0,-1.20,0.93,5.57,0.1032,-0.0176,0.3537,0.0000,0.0000,0.3000,0.2541,-5.92,2.66,-32.52,1.0250,0.0370,1.5970,1.1750,2.3430,0,0.0633,-0.0107,0.0000,0.0633,-0.0107,0
10085,0.0316,-0.0740,0.3530,0.0034,0.0020,0.0039,-0.37,0.22,1.19,0,3.331,2.443,2.783,1.739,0.000,-0.009,1.002,0.000,0.000,0.000,0.3530,0,0,-0.99,0.97,5.77,0.1044,-0.0213,0.3539,0.0000,0.0000,0.3000,0.2546,-5.31,2.50,-35.73,1.0300,0.0370,1.5970,1.1750,2.3430,0,0.0633,-0.0107,0.0000,0.0633,-0.0107,0
10136,0.0299,-0.0746,0.3517,-0.0014,0.0040,-0.0022,-0.30,0.14,1.29,0,3.336,2.698,1.080,1.967,0.004,-0.010,1.004,0.000,0.000,0.000,0.3530,3,0,-0.87,0.82,5.86,0.1035,-0.0213,0.3542,0.0000,0.0000,0.3000,0.2555,-5.25,2.13,-38.58,1.0300,0.0350,1.6030,1.1710,2.3440,0,0.0633,-0.0107,0.0000,0.0633,-0.0107,0
10187,0.0286,-0.0683,0.3523,-0.0046,0.0163,0.0025,-0.18,0.07,1.39,0,3.331,0.833,1.232,2.017,-0.001,-0.014,1.005,0.000,0.000,0.000,0.3530,4,0,-0.63,0.74,6.16,0.1057,-0.0308,0.3545,0.0000,0.0000,0.3000,0.2548,-4.20,1.88,-41.77,1.0320,0.0350,1.6030,1.1710,2.3440,0,0.0633,-0.0107,0.0000,0.0633,-0.0107,0
10239,0.0255,-0.0673,0.3528,-0.0096,0.0188,0.0064,-0.13,0.01,1.49,0,3.336,5.732,0.210,1.308,0.002,-0.014,1.002,0.000,0.000,0.000,0.3530,-3,0,-0.53,0.67,6.38,0.1063,-0.0392,0.3546,0.0000,0.0000,0.3000,0.2543,-4.02,1.43,-44.84,1.0320,0.0330,1.6170,1.1710,2.3450,0,0.0633,-0.0107,0.0000,0.0633,-0.0107,0
10290,0.0261,-0.0675,0.3533,-0.0081,0.0185,0.0091,-0.01,-0.03,1.57,0,3.336,2.541,-0.228,0.622,-0.003,-0.017,0.994,0.000,0.000,0.000,0.3540,0,0,-0.31,0.65,6.31,0.1051,-0.0344,0.3553,0.0000,0.0000,0.3000,0.2539,-4.06,1.55,-47.05,1.0410,0.0330,1.6170,1.1710,2.3450,0,0.0633,-0.0107,0.0000,0.0633,-0.0107,0
10342,0.0258,-0.0624,0.3561,-0.0078,0.0250,0.0198,0.16,-0.04,1.62,0,3.341,3.866,0.521,-0.038,0.004,-0.012,0.998,0.000,0.000,0.000,0.3540,0,0,-0.18,0.67,6.34,0.1039,-0.0366,0.3554,0.0000,0.0000,0.3000,0.2522,-3.39,1.54,-48.67,1.0410,0.0340,1.6350,1.1790,2.3460,0,0.0633,-0.0107,0.0000,0.0633,-0.0107,0
10393,0.0229,-0.0624,0.3558,-0.0112,0.0218,0.0125,0.27,-0.13,1.64,0,3.336,-1.077,3.049,0.130,0.001,-0.014,0.994,0.000,0.000,0.000,0.3600,0,1,0.02,0.64,6.34,0.1026,-0.0390,0.3554,0.0000,0.0000,0.3000,0.2531,-3.54,1.16,-49.26,1.0470,0.0340,1.6350,1.1790,2.3460,0,0.0633,-0.0107,0.0000,0.0633,-0.0107,0
10444,0.0224,-0.0613,0.3575,-0.0101,0.0195,0.0149,0.30,-0.20,1.64,0,3.341,2.562,-0.632,-1.341,0.003,-0.014,0.993,0.000,0.000,0.000,0.3600,-2,0,-0.11,0.47,6.23,0.1020,-0.0323,0.3573,0.0000,0.0000,0.3000,0.2525,-3.58,1.18,-49.25,1.0470,0.0340,1.6330,1.1800,2.3360,0,0.0633,-0.0107,0.0000,0.0633,-0.0107,0
10495,0.0208,-0.0625,0.3594,-0.0100,0.0136,0.0172,0.41,-0.20,1.56,0,3.336,0.261,1.190,-2.534,0.002,-0.009,0.987,0.000,0.000,0.000,0.3580,0,0,-0.02,0.49,6.10,0.1007,-0.0298,0.3585,0.0000,0.0000,0.3000,0.2519,-3.97,1.07,-46.89,1.0450,0.0340,1.6330,1.1800,2.3360,0,0.0633,-0.0107,0.0000,0.0633,-0.0107,0
10547,0.0189,-0.0618,0.3598,-0.0103,0.0104,0.0110,0.43,-0.26,1.44,0,3.336,-1.565,0.896,-3.794,0.005,-0.011,0.994,0.000,0.000,0.000,0.3580,0,-1,-0.00,0.43,5.97,0.0992,-0.0307,0.3584,0.0000,0.0000,0.3000,0.2525,-4.06,0.92,-43.26,1.0450,0.0330,1.6360,1.1810,2.3390,0,0.0633,-0.0107,0.0000,0.0633,-0.0107,0
10598,0.0151,-0.0612,0.3593,-0.0133,0.0071,0.0011,0.28,-0.35,1.28,0,3.331,-1.310,0.223,-3.191,0.004,-0.005,0.992,0.000,0.000,0.000,0.3550,0,0,-0.10,0.33,5.76,0.1039,-0.0294,0.3582,0.0000,0.0000,0.3000,0.2536,-4.17,0.49,-38.28,1.0380,0.0330,1.6360,1.1810,2.3390,0,0.0633,-0.0107,0.0000,0.0633,-0.0107,0
10649,0.0161,-0.0655,0.3601,-0.0081,-0.0023,0.0005,0.20,-0.35,1.12,0,3.331,-1.604,-1.100,-2.472,0.003,-0.010,0.993,0.000,0.000,0.000,0.3550,0,0,-0.16,0.32,5.60,0.1036,-0.0300,0.3569,0.0000,0.0000,0.3000,0.2536,-4.93,0.81,-33.47,1.0380,0.0330,1.6210,1.1790,2.3380,0,0.0633,-0.0107,0.0000,0.0633,-0.0107,0
10700,0.0178,-0.0636,0.3574,-0.0019,-0.0009,-0.0140,0.21,-0.33,1.00,0,3.326,-2.790,0.051,-2.715,0.007,-0.009,0.996,0.000,0.000,0.000,0.3540,4,0,-0.24,0.38,5.47,0.1032,-0.0309,0.3556,0.0000,0.0000,0.3000,0.2556,-4.69,1.23,-29.88,1.0290,0.0330,1.6210,1.1790,2.3380,0,0.0633,-0.0107,0.0000,0.0633,-0.0107,0
10751,0.0176,-0.0628,0.3550,0.0008,-0.0008,-0.0242,0.10,-0.31,0.90,0,3.331,-2.065,-2.212,-1.880,0.002,-0.009,1.006,0.000,0.000,0.000,0.3540,0,0,-0.28,0.36,5.54,0.1058,-0.0439,0.3543,0.0000,0.0000,0.3000,0.2572,-4.60,1.34,-27.13,1.0290,0.0350,1.6150,1.1720,2.3490,0,0.0633,-0.0107,0.0000,0.0633,-0.0107,0
10802,0.0189,-0.0704,0.3534,0.0052,-0.0125,-0.0254,0.02,-0.24,0.80,0,3.326,-0.908,-3.617,-3.096,0.000,-0.009,1.005,0.000,0.000,0.000,0.3500,0,0,-0.39,0.48,5.44,0.1059,-0.0473,0.3534,0.0000,0.0000,0.3000,0.2576,-5.69,1.65,-23.87,1.0210,0.0350,1.6150,1.1720,2.3490,0,0.0633,-0.0107,0.0000,0.0633,-0.0107,0
10855,0.0231,-0.0762,0.3546,0.0132,-0.0202,-0.0135,-0.09,-0.11,0.63,0,3.326,-4.498,-1.524,-4.134,-0.003,-0.006,1.004,0.000,0.000,0.000,0.3500,0,-1,-0.43,0.66,5.29,0.1058,-0.0510,0.3517,0.0000,0.0000,0.3000,0.2561,-6.51,2.34,-18.81,1.0210,0.0330,1.5950,1.1680,2.3410,0,0.0633,-0.0107,0.0000,0.0633,-0.0107,0
10906,0.0249,-0.0781,0.3517,0.0156,-0.0208,-0.0208,-0.23,-0.02,0.43,0,3.326,0.577,-2.323,-4.765,0.002,-0.006,1.007,0.000,0.000,0.000,0.3510,0,0,-0.76,0.70,4.92,0.1098,-0.0440,0.3509,0.0000,0.0000,0.3000,0.2574,-6.65,2.58,-12.97,1.0180,0.0330,1.5950,1.1680,2.3410,0,0.0633,-0.0107,0.0000,0.0633,-0.0107,0
10957,0.0270,-0.0780,0.3516,0.0175,-0.0168,-0.0127,-0.32,0.05,0.21,0,3.326,1.551,-3.024,-3.957,0.002,-0.013,1.014,0.000,0.000,0.000,0.3510,3,0,-0.72,0.82,4.68,0.1100,-0.0452,0.3504,0.0000,0.0000,0.3000,0.2566,-6.47,2.83,-6.21,1.0180,0.0390,1.5700,1.1670,2.3470,0,0.0633,-0.0107,0.0000,0.0633,-0.0107,0
11008,0.0282,-0.0825,0.3507,0.0171,-0.0195,-0.0094,-0.30,0.26,-0.05,0,3.320,-2.195,0.297,-4.073,-0.001,-0.016,1.006,0.000,0.000,0.000,0.3530,2,0,-0.59,0.97,4.57,0.1109,-0.0522,0.3505,0.0000,0.0000,0.3000,0.2564,-6.93,2.89,1.49,1.0110,0.0390,1.5700,1.1670,2.3470,0,0.0633,-0.0107,0.0000,0.0633,-0.0107,0
11059,0.0288,-0.0882,0.3516,0.0147,-0.0240,-0.0009,-0.40,0.29,-0.21,0,3.331,-1.058,0.947,-4.496,0.002,-0.011,1.005,0.000,0.000,0.000,0.3530,3,0,-0.68,0.96,4.39,0.1109,-0.0568,0.3513,0.0000,0.0000,0.3000,0.2553,-7.58,2.83,6.40,1.0110,0.0360,1.5500,1.1610,2.3380,0,0.0633,-0.0107,0.0000,0.0633,-0.0107,0
11111,0.0286,-0.0936,0.3523,0.0110,-0.0269,0.0054,-0.48,0.28,-0.50,0,3.320,-3.484,0.377,-3.757,0.001,-0.012,1.000,0.000,0.000,0.000,0.3530,0,0,-0.69,0.91,4.21,0.1111,-0.0637,0.3520,0.0000,0.0000,0.3000,0.2545,-8.13,2.66,14.99,1.0080,0.0360,1.5500,1.1610,2.3380,0,0.0633,-0.0107,0.0000,0.0633,-0.0107,0
11163,0.0301,-0.0983,0.3530,0.0102,-0.0277,0.0079,-0.64,0.30,-0.66,0,3.326,-0.147,1.408,-3.042,0.004,-0.011,1.004,0.000,0.000,0.000,0.3530,1,1,-0.87,0.89,4.01,0.1102,-0.0679,0.3526,0.0000,0.0000,0.3000,0.2541,-8.52,2.73,19.83,1.0080,0.0390,1.5190,1.1550,2.3410,0,0.0633,-0.0107,0.0000,0.0633,-0.0107,0
11214,0.0309,-0.0975,0.3534,0.0086,-0.0189,0.0089,-0.67,0.23,-0.85,0,3.320,0.747,0.075,-3.348,0.001,-0.010,0.998,0.000,0.000,0.000,0.3500,-1,2,-0.91,0.82,3.80,0.1080,-0.0676,0.3533,0.0000,0.0000,0.3000,0.2539,-8.05,2.71,25.45,1.0030,0.0390,1.5190,1.1550,2.3410,0,0.0633,-0.0107,0.0000,0.0633,-0.0107,0
11265,0.0280,-0.0993,0.3520,0.0019,-0.0149,0.0009,-0.60,0.19,-1.01,0,3.326,2.389,1.729,-1.450,0.006,-0.013,1.003,0.000,0.000,0.000,0.3500,2,1,-0.90,0.85,3.57,0.1031,-0.0671,0.3527,0.0000,0.0000,0.3000,0.2550,-7.95,2.16,30.29,1.0030,0.0410,1.4980,1.1590,2.3480,0,0.0633,-0.0107,0.0000,0.0633,-0.0107,0
11316,0.0254,-0.0948,0.3510,-0.0035,-0.0017,-0.0027,-0.46,0.12,-1.12,0,3.315,3.492,3.103,-1.459,0.005,-0.009,1.003,0.000,0.000,0.000,0.3520,1,1,-0.75,0.76,3.53,0.1003,-0.0724,0.3522,0.0000,0.0000,0.3000,0.2556,-6.99,1.71,33.72,1.0030,0.0410,1.4980,1.1590,2.3480,0,0.0633,-0.0107,0.0000,0.0633,-0.0107,0
11367,0.0232,-0.0972,0.3525,-0.0073,-0.0015,0.0051,-0.36,-0.08,-1.21,0,3.326,2.916,0.501,0.847,0.003,-0.010,1.003,0.000,0.000,0.000,0.3520,0,1,-0.57,0.61,3.45,0.0972,-0.0758,0.3524,0.0000,0.0000,0.3000,0.2544,-7.18,1.37,36.41,1.0030,0.0370,1.4950,1.1610,2.3490,0,0.0633,-0.0107,0.0000,0.0633,-0.0107,0
11418,0.0208,-0.0995,0.3525,-0.0095,-0.0024,0.0052,-0.19,-0.16,-1.24,0,3.320,1.804,-0.079,0.693,0.004,-0.008,0.998,0.000,0.000,0.000,0.3540,3,0,-0.44,0.58,3.48,0.0937,-0.0767,0.3527,0.0000,0.0000,0.3000,0.2544,-7.40,1.09,37.08,1.0060,0.0370,1.4950,1.1610,2.3490,0,0.0633,-0.0107,0.0000,0.0633,-0.0107,0
11470,0.0193,-0.0938,0.3520,-0.0097,0.0091,0.0024,-0.11,-0.19,-1.20,0,3.326,1.242,1.823,3.007,0.000,-0.015,1.003,0.000,0.000,0.000,0.3540,0,1,-0.30,0.57,3.59,0.0936,-0.0856,0.3534,0.0000,0.0000,0.3000,0.2548,-6.42,0.98,35.96,1.0060,0.0380,1.4950,1.1680,2.3450,0,0.0633,-0.0107,0.0000,0.0633,-0.0107,0
11521,0.0193,-0.1000,0.3531,-0.0074,-0.0009,0.0072,-0.07,-0.23,-1.08,0,3.315,2.071,0.495,2.115,0.000,-0.012,0.999,0.000,0.000,0.000,0.3510,0,0,-0.26,0.47,3.71,0.0901,-0.0864,0.3541,0.0000,0.0000,0.3000,0.2541,-7.37,1.08,32.43,1.0060,0.0380,1.4950,1.1680,2.3450,0,0.0633,-0.0107,0.0000,0.0633,-0.0107,0
11572,0.0196,-0.1001,0.3524,-0.0041,-0.0005,0.0021,-0.02,-0.25,-0.95,0,3.326,2.115,-2.781,2.881,0.003,-0.010,1.001,0.000,0.000,0.000,0.3510,0,0,-0.15,0.45,3.82,0.0869,-0.0900,0.3536,0.2751,-0.0759,0.3000,0.2548,-5.48,-18.03,28.57,1.0060,0.0380,1.5190,1.1640,2.3470,0,0.0633,-0.0107,0.0000,0.0633,-0.0107,0
11623,0.0191,-0.0988,0.3518,-0.0027,0.0017,-0.0008,-0.00,-0.14,-0.79,0,3.320,4.581,-0.650,4.538,0.003,-0.009,1.000,0.000,0.000,0.000,0.3550,0,0,-0.04,0.59,3.97,0.0836,-0.0938,0.3531,0.2751,-0.0759,0.3000,0.2552,-5.27,-17.97,23.59,1.0050,0.0380,1.5190,1.1640,2.3470,0,0.0633,-0.0107,0.0000,0.0633,-0.0107,0
11674,0.0184,-0.0895,0.3524,-0.0026,0.0171,0.0018,0.23,-0.08,-0.59,0,3.326,2.979,0.470,3.578,0.003,-0.011,0.998,0.000,0.000,0.000,0.3550,0,0,0.19,0.62,4.20,0.0800,-0.0978,0.3539,0.2751,-0.0759,0.3000,0.2548,-3.86,-18.04,17.77,1.0050,0.0350,1.5410,1.1690,2.3440,0,0.0633,-0.0107,0.0000,0.0633,-0.0107,0
11725,0.0201,-0.0960,0.3538,0.0012,0.0032,0.0071,0.34,-0.08,-0.38,0,3.315,-1.771,-0.308,4.335,0.003,-0.017,0.998,0.000,0.000,0.000,0.3540,0,0,0.34,0.60,4.38,0.0763,-0.1022,0.3545,0.2751,-0.0759,0.3000,0.2539,-5.02,-17.82,11.45,1.0060,0.0350,1.5410,1.1690,2.3440,0,0.0633,-0.0107,0.0000,0.0633,-0.0107,0
11776,0.0200,-0.0960,0.3521,0.0016,0.0007,-0.0026,0.28,-0.06,-0.18,0,3.320,-1.365,-1.322,4.381,0.003,-0.009,1.001,0.000,0.000,0.000,0.3540,0,0,0.24,0.62,4.60,0.0725,-0.1072,0.3546,0.2751,-0.0759,0.3000,0.2553,-5.12,-17.73,5.26,1.0060,0.0400,1.5680,1.1680,2.3430,0,0.0633,-0.0107,0.0000,0.0633,-0.0107,0
11827,0.0211,-0.0968,0.3529,0.0039,-0.0026,0.0014,0.22,-0.00,0.03,0,3.315,-2.278,1.207,3.721,0.005,-0.010,0.996,0.000,0.000,0.000,0.3510,0,0,0.17,0.69,4.83,0.0685,-0.1125,0.3547,0.2751,-0.0759,0.3000,0.2547,-5.34,-17.59,-1.00,1.0080,0.0400,1.5680,1.1680,2.3430,0,0.0633,-0.0107,0.0000,0.0633,-0.0107,0
11878,0.0224,-0.0989,0.3520,0.0058,-0.0072,-0.0033,0.15,0.02,0.24,0,3.320,-4.331,-1.346,4.916,0.005,-0.011,1.005,0.000,0.000,0.000,0.3510,2,0,0.05,0.63,5.02,0.0643,-0.1182,0.3536,0.2751,-0.0759,0.3000,0.2554,-5.70,-17.39,-7.16,1.0080,0.0370,1.5810,1.1580,2.3410,0,0.0633,-0.0107,0.0000,0.0633,-0.0107,0
11929,0.0223,-0.1018,0.3513,0.0051,-0.0124,-0.0048,-0.01,0.07,0.47,0,3.320,-2.639,-1.000,4.818,0.002,-0.016,1.000,0.000,0.000,0.000,0.3540,0,0,-0.34,0.53,5.04,0.0926,-0.0846,0.3540,0.2751,-0.0759,0.3000,0.2557,-6.15,-17.40,-14.15,1.0110,0.0370,1.5810,1.1580,2.3410,0,0.0633,-0.0107,0.0000,0.0633,-0.0107,0
11980,0.0245,-0.1021,0.3530,0.0079,-0.0111,0.0032,-0.15,0.12,0.72,0,3.326,0.198,-1.626,3.702,0.003,-0.008,0.998,0.000,0.000,0.000,0.3540,5,1,-0.47,0.58,5.28,0.0923,-0.0859,0.3541,0.2751,-0.0759,0.3000,0.2545,-6.14,-17.21,-21.70,1.0110,0.0330,1.5970,1.1460,2.3480,0,0.0633,-0.0107,0.0000,0.0633,-0.0107,0
12031,0.0251,-0.1019,0.3536,0.0070,-0.0083,0.0041,-0.13,0.22,0.89,0,3.315,-0.690,0.145,5.440,0.002,-0.011,0.996,0.000,0.000,0.000,0.3530,0,-1,-0.40,0.67,5.55,0.0918,-0.0927,0.3548,0.2751,-0.0759,0.3000,0.2543,-6.00,-17.23,-26.82,1.0160,0.0330,1.5970,1.1460,2.3480,0,0.0633,-0.0107,0.0000,0.0633,-0.0107,0
12082,0.0236,-0.1072,0.3534,0.0020,-0.0154,-0.0001,-0.21,0.21,1.13,0,3.320,-2.609,-1.808,4.172,0.006,-0.010,0.998,0.000,0.000,0.000,0.3530,0,0,-0.45,0.65,5.82,0.0920,-0.0950,0.3542,0.2751,-0.0759,0.3000,0.2548,-6.71,-17.53,-33.80,1.0160,0.0340,1.6110,1.1520,2.3490,0,0.0633,-0.0107,0.0000,0.0633,-0.0107,0
12133,0.0251,-0.1172,0.3531,0.0027,-0.0308,-0.0028,-0.25,0.27,1.34,0,3.315,-3.453,-2.080,3.970,0.004,-0.013,0.998,0.000,0.000,0.000,0.3530,1,0,-0.59,0.74,6.04,0.0915,-0.0979,0.3537,0.2751,-0.0759,0.3000,0.2551,-8.15,-17.37,-40.28,1.0140,0.0340,1.6110,1.1520,2.3490,0,0.0633,-0.0107,0.0000,0.0920,-0.0950,0
12184,0.0248,-0.1194,0.3524,-0.0006,-0.0297,-0.0076,-0.41,0.33,1.54,0,3.315,-5.111,2.625,4.193,0.003,-0.015,0.996,0.000,0.000,0.000,0.3530,-2,1,-0.78,0.83,6.23,0.0919,-0.0993,0.3533,0.2751,-0.0759,0.3000,0.2558,-8.23,-17.51,-46.15,1.0140,0.0340,1.6240,1.1490,2.3400,0,0.0633,-0.0107,0.0000,0.0920,-0.0950,0
12235,0.0270,-0.1207,0.3523,0.0007,-0.0259,-0.0074,-0.62,0.26,1.71,0,3.315,1.318,0.084,2.604,0.003,-0.009,0.999,0.000,0.000,0.000,0.3530,0,0,-1.08,0.70,6.40,0.0896,-0.0984,0.3529,0.2751,-0.0759,0.3000,0.2558,-8.14,-17.31,-51.35,1.0200,0.0340,1.6240,1.1490,2.3400,0,0.0633,-0.0107,0.0000,0.0920,-0.0950,0
12287,0.0259,-0.1179,0.3508,-0.0034,-0.0136,-0.0122,-0.58,0.24,1.86,0,3.315,1.215,0.901,3.420,0.003,-0.018,1.003,0.000,0.000,0.000,0.3530,0,0,-1.01,0.70,6.53,0.0882,-0.0999,0.3525,0.2751,-0.0759,0.3000,0.2566,-7.34,-17.51,-55.92,1.0200,0.0350,1.6310,1.1400,2.3460,0,0.0633,-0.0107,0.0000,0.0920,-0.0950,0
12338,0.0245,-0.1184,0.3513,-0.0077,-0.0087,-0.0073,-0.50,0.20,2.03,0,3.315,3.676,2.494,2.245,0.004,-0.015,1.001,0.000,0.000,0.000,0.3520,0,0,-0.95,0.65,6.71,0.0866,-0.1014,0.3524,0.2751,-0.0759,0.3000,0.2559,-7.16,-17.83,-60.76,1.0260,0.0350,1.6310,1.1400,2.3460,0,0.0633,-0.0107,0.0000,0.0920,-0.0950,0
12389,0.0230,-0.1184,0.3518,-0.0114,-0.0038,-0.0036,-0.44,0.14,2.15,0,3.315,0.315,2.747,2.386,0.004,-0.015,0.996,0.000,0.000,0.000,0.3520,1,1,-0.77,0.52,6.82,0.0848,-0.1029,0.3521,0.2751,-0.0759,0.3000,0.2554,-6.94,-18.13,-64.65,1.0260,0.0320,1.6540,1.1470,2.3560,0,0.0633,-0.0107,0.0000,0.0920,-0.0950,0
12440,0.0203,-0.1223,0.3517,-0.0163,-0.0073,-0.0044,-0.29,-0.02,2.25,0,3.310,-2.480,1.582,1.496,0.007,-0.016,0.992,0.000,0.000,0.000,0.3490,3,1,-0.76,0.34,6.96,0.0875,-0.1022,0.3518,0.2751,-0.0759,0.3000,0.2555,-7.39,-18.51,-67.55,1.0300,0.0320,1.6540,1.1470,2.3560,0,0.0633,-0.0107,0.0000,0.0920,-0.0950,0
12491,0.0164,-0.1251,0.3501,-0.0218,-0.0094,-0.0120,-0.23,-0.13,2.33,0,3.315,-1.494,2.259,1.181,0.004,-0.011,1.000,0.000,0.000,0.000,0.3490,-3,0,-0.87,0.27,7.06,0.0862,-0.1063,0.3504,0.2751,-0.0759,0.3000,0.2567,-7.65,-18.94,-69.80,1.0300,0.0290,1.6580,1.1480,2.3490,0,0.0633,-0.0107,0.0000,0.0920,-0.0950,0
12542,0.0160,-0.1283,0.3489,-0.0194,-0.0122,-0.0149,-0.30,-0.22,2.41,0,3.310,1.070,2.913,0.643,0.003,-0.015,1.002,0.000,0.000,0.000,0.3440,-1,0,-0.98,0.15,7.06,0.0849,-0.1036,0.3494,0.2751,-0.0759,0.3000,0.2572,-8.00,-18.82,-72.23,1.0330,0.0290,1.6580,1.1480,2.3490,0,0.0633,-0.0107,0.0000,0.0920,-0.0950,0
12594,0.0127,-0.1305,0.3462,-0.0221,-0.0132,-0.0225,-0.32,-0.33,2.46,0,3.310,3.159,1.742,0.748,0.006,-0.018,1.008,0.000,0.000,0.000,0.3440,-1,0,-0.94,-0.01,7.07,0.0840,-0.1024,0.3470,0.2751,-0.0759,0.3000,0.2585,-8.16,-19.07,-73.78,1.0330,0.0320,1.6700,1.1480,2.3470,0,0.0633,-0.0107,0.0000,0.0920,-0.0950,0
12645,0.0127,-0.1286,0.3440,-0.0172,-0.0058,-0.0242,-0.24,-0.42,2.49,0,3.304,-0.362,-1.343,1.152,0.001,-0.011,1.008,0.000,0.000,0.000,0.3450,0,0,-0.80,-0.10,7.09,0.0833,-0.1006,0.3453,0.2751,-0.0759,0.3000,0.2591,-7.66,-18.82,-74.79,1.0330,0.0320,1.6700,1.1480,2.3470,0,0.0633,-0.0107,0.0000,0.0920,-0.0950,0
12696,0.0126,-0.1272,0.3436,-0.0124,-0.0007,-0.0168,-0.20,-0.42,2.54,0,3.310,0.798,-1.853,-0.328,0.004,-0.014,1.012,0.000,0.000,0.000,0.3450,-1,0,-0.81,-0.04,7.15,0.0826,-0.1002,0.3446,0.2751,-0.0759,0.3000,0.2584,-7.34,-18.67,-76.06,1.0330,0.0380,1.6750,1.1460,2.3520,0,0.0633,-0.0107,0.0000,0.0920,-0.0950,0
12747,0.0121,-0.1286,0.3435,-0.0088,-0.0018,-0.0098,-0.17,-0.36,2.57,0,3.310,2.153,-0.265,0.968,0.004,-0.013,1.007,0.000,0.000,0.000,0.3430,0,0,-0.79,0.05,7.11,0.0827,-0.0972,0.3444,0.2751,-0.0759,0.3000,0.2576,-7.52,-18.60,-77.04,1.0390,0.0380,1.6750,1.1460,2.3520,0,0.0633,-0.0107,0.0000,0.0920,-0.0950,0
12798,0.0116,-0.1274,0.3439,-0.0062,0.0019,-0.0034,-0.06,-0.33,2.61,0,3.315,4.230,0.465,0.227,0.005,-0.012,1.004,0.000,0.000,0.000,0.3430,0,0,-0.68,0.06,7.16,0.0823,-0.0962,0.3438,0.2751,-0.0759,0.3000,0.2569,-7.28,-18.58,-78.34,1.0390,0.0340,1.6730,1.1540,2.3520,0,0.0633,-0.0107,0.0000,0.0920,-0.0950,0
12849,0.0131,-0.1256,0.3433,0.0002,0.0057,-0.0039,0.10,-0.34,2.64,0,3.310,0.039,-3.819,0.620,0.009,-0.007,1.000,0.000,0.000,0.000,0.3450,0,-2,-0.47,0.04,7.17,0.0820,-0.0952,0.3435,0.2751,-0.0759,0.3000,0.2570,-6.97,-18.20,-79.12,1.0360,0.0340,1.6730,1.1540,2.3520,0,0.0633,-0.0107,0.0000,0.0920,-0.0950,0
12901,0.0129,-0.1242,0.3425,0.0020,0.0073,-0.0073,0.07,-0.24,2.69,0,3.315,1.015,-2.026,1.142,0.002,-0.015,1.002,0.000,0.000,0.000,0.3450,0,0,-0.44,0.18,7.29,0.0900,-0.0967,0.3438,0.2751,-0.0759,0.3000,0.2576,-6.78,-18.10,-80.66,1.0360,0.0330,1.6780,1.1490,2.3550,0,0.0633,-0.0107,0.0000,0.0920,-0.0950,0
12952,0.0170,-0.1238,0.3434,0.0115,0.0067,-0.0008,0.06,-0.12,2.73,0,3.304,4.441,-3.575,1.805,0.004,-0.010,1.001,0.000,0.000,0.000,0.3430,0,0,-0.39,0.29,7.35,0.0914,-0.0964,0.3442,0.2751,-0.0759,0.3000,0.2567,-6.80,-17.48,-81.82,1.0330,0.0330,1.6780,1.1490,2.3550,0,0.0633,-0.0107,0.0000,0.0920,-0.0950,0
13004,0.0208,-0.1241,0.3422,0.0190,0.0051,-0.0065,0.15,0.03,2.78,0,3.310,-1.977,-2.970,1.611,0.003,-0.008,1.003,0.000,0.000,0.000,0.3430,-1,0,-0.16,0.47,7.44,0.0928,-0.0961,0.3439,0.2751,-0.0759,0.3000,0.2575,-6.88,-16.85,-83.54,1.0330,0.0350,1.6830,1.1530,2.3550,0,0.0633,-0.0107,0.0000,0.0920,-0.0950,0
13056,0.0234,-0.1252,0.3423,0.0213,0.0010,-0.0038,0.08,0.20,2.86,0,3.304,-1.277,-4.604,0.999,0.002,-0.014,1.002,0.000,0.000,0.000,0.3420,-1,-2,-0.29,0.65,7.48,0.0899,-0.0931,0.3438,0.2751,-0.0759,0.3000,0.2572,-7.16,-16.60,-85.72,1.0340,0.0350,1.6830,1.1530,2.3550,0,0.0633,-0.0107,0.0000,0.0920,-0.0950,0
13107,0.0249,-0.1265,0.3420,0.0213,-0.0021,-0.0045,-0.05,0.35,2.92,0,3.310,-1.185,-0.603,0.016,0.002,-0.011,1.003,0.000,0.000,0.000,0.3420,0,1,-0.37,0.87,7.52,0.0923,-0.0912,0.3434,0.2751,-0.0759,0.3000,0.2573,-7.39,-16.50,-87.47,1.0340,0.0360,1.6730,1.1470,2.3490,0,0.0633,-0.0107,0.0000,0.0920,-0.0950,0
13158,0.0300,-0.1240,0.3418,0.0259,0.0029,-0.0044,-0.07,0.46,2.94,0,3.304,-0.406,-1.033,-0.502,-0.001,-0.015,0.995,0.000,0.000,0.000,0.3410,2,0,-0.43,0.92,7.52,0.0911,-0.0910,0.3430,0.2751,-0.0759,0.3000,0.2574,-6.99,-15.95,-88.21,1.0370,0.0360,1.6730,1.1470,2.3490,0,0.0633,-0.0107,0.0000,0.0920,-0.0950,0
13209,0.0298,-0.1271,0.3422,0.0181,-0.0032,-0.0021,-0.01,0.51,2.94,0,3.310,1.259,0.207,-0.866,0.006,-0.008,0.999,0.000,0.000,0.000,0.3410,0,0,-0.42,0.97,7.53,0.0915,-0.0943,0.3424,0.2751,-0.0759,0.3000,0.2570,-7.50,-16.33,-88.06,1.0370,0.0360,1.6870,1.1500,2.3520,0,0.0633,-0.0107,0.0000,0.0920,-0.0950,0
13260,0.0297,-0.1246,0.3415,0.0120,0.0014,-0.0046,0.02,0.49,2.89,0,3.304,-0.893,1.543,-1.556,0.001,-0.019,0.996,0.000,0.000,0.000,0.3430,0,0,-0.35,0.96,7.48,0.0910,-0.0950,0.3417,0.2751,-0.0759,0.3000,0.2574,-7.09,-16.59,-86.69,1.0360,0.0360,1.6870,1.1500,2.3520,0,0.0633,-0.0107,0.0000,0.0920,-0.0950,0
13312,0.0301,-0.1245,0.3426,0.0087,0.0011,0.0007,0.01,0.41,2.82,0,3.310,-0.032,1.926,-1.602,0.007,-0.011,0.994,0.000,0.000,0.000,0.3430,1,1,-0.39,0.88,7.40,0.0901,-0.0960,0.3418,0.2751,-0.0759,0.3000,0.2567,-7.12,-16.77,-84.47,1.0360,0.0370,1.6830,1.1500,2.3540,0,0.0633,-0.0107,0.0000,0.0920,-0.0950,0
13363,0.0264,-0.1250,0.3428,-0.0025,-0.0001,-0.0009,0.00,0.32,2.76,0,3.310,-0.288,3.793,-1.887,0.001,-0.011,0.993,0.000,0.000,0.000,0.3430,1,0,-0.39,0.78,7.32,0.0893,-0.0976,0.3417,0.2751,-0.0759,0.3000,0.2568,-7.21,-17.49,-82.65,1.0330,0.0370,1.6830,1.1500,2.3540,0,0.0633,-0.0107,0.0000,0.0920,-0.0950,0
13414,0.0242,-0.1265,0.3423,-0.0090,-0.0029,-0.0048,-0.03,0.17,2.67,0,3.310,-2.349,5.961,-2.263,0.003,-0.010,0.993,0.000,0.000,0.000,0.3430,3,1,-0.40,0.58,7.23,0.0887,-0.0998,0.3415,0.2751,-0.0759,0.3000,0.2573,-7.44,-17.90,-80.17,1.0330,0.0330,1.6770,1.1510,2.3580,0,0.0633,-0.0107,0.0000,0.0920,-0.0950,0
13465,0.0231,-0.1249,0.3424,-0.0115,0.0007,-0.0056,-0.11,-0.08,2.56,0,3.304,-2.662,2.619,-2.233,0.000,-0.016,0.996,0.000,0.000,0.000,0.3390,0,1,-0.48,0.28,7.13,0.0871,-0.1059,0.3412,0.2751,-0.0759,0.3000,0.2574,-7.15,-18.07,-76.77,1.0310,0.0330,1.6770,1.1510,2.3580,0,0.0633,-0.0107,0.0000,0.0920,-0.0950,0
13516,0.0227,-0.1298,0.3413,-0.0106,-0.0078,-0.0118,-0.19,-0.22,2.43,0,3.299,-0.506,0.740,-2.292,0.006,-0.013,0.998,0.000,0.000,0.000,0.3390,-7,0,-0.63,0.16,7.00,0.0845,-0.1073,0.3398,0.2751,-0.0759,0.3000,0.2582,-7.88,-18.00,-72.85,1.0310,0.0360,1.6640,1.1450,2.3550,0,0.0633,-0.0107,0.0000,0.0920,-0.0950,0
13567,0.0225,-0.1333,0.3396,-0.0082,-0.0125,-0.0187,-0.25,-0.26,2.32,0,3.299,1.559,0.413,-2.366,0.004,-0.013,0.997,0.000,0.000,0.000,0.3360,0,0,-0.78,0.11,6.78,0.0817,-0.0935,0.3390,0.2751,-0.0759,0.3000,0.2593,-8.31,-17.85,-69.71,1.0230,0.0360,1.6640,1.1450,2.3550,0,0.0633,-0.0107,0.0000,0.0920,-0.0950,0
13618,0.0224,-0.1237,0.3369,-0.0055,0.0079,-0.0254,-0.19,-0.29,2.21,0,3.299,2.717,-0.397,-1.746,0.005,-0.011,1.006,0.000,0.000,0.000,0.3360,0,0,-0.70,0.09,6.65,0.0800,-0.0924,0.3371,0.2751,-0.0759,0.3000,0.2605,-6.65,-17.67,-66.19,1.0230,0.0340,1.6580,1.1540,2.3540,0,0.0633,-0.0107,0.0000,0.0920,-0.0950,0
13669,0.0196,-0.1243,0.3354,-0.0079,0.0075,-0.0253,-0.05,-0.33,2.11,0,3.304,0.038,-0.004,-0.795,0.002,-0.010,1.003,0.000,0.000,0.000,0.3360,0,0,-0.56,0.12,6.57,0.0783,-0.0914,0.3358,0.2751,-0.0759,0.3000,0.2608,-6.70,-17.94,-63.28,1.0180,0.0340,1.6580,1.1540,2.3540,0,0.0633,-0.0107,0.0000,0.0920,-0.0950,0
13720,0.0208,-0.1240,0.3366,-0.0021,0.0080,-0.0114,-0.06,-0.30,2.05,0,3.304,1.418,-1.531,-1.352,0.003,-0.012,1.008,0.000,0.000,0.000,0.3360,0,1,-0.56,0.12,6.53,0.0767,-0.0903,0.3350,0.2751,-0.0759,0.3000,0.2591,-6.71,-17.72,-61.65,1.0180,0.0350,1.6550,1.1570,2.3640,0,0.0633,-0.0107,0.0000,0.0920,-0.0950,0
13771,0.0223,-0.1236,0.3358,0.0035,0.0087,-0.0107,-0.04,-0.27,1.97,0,3.299,0.950,-0.175,-1.416,0.001,-0.008,1.003,0.000,0.000,0.000,0.3350,0,1,-0.45,0.18,6.50,0.0789,-0.0945,0.3347,0.2751,-0.0759,0.3000,0.2591,-6.64,-17.38,-59.19,1.0180,0.0350,1.6550,1.1570,2.3640,0,0.0633,-0.0107,0.0000,0.0920,-0.0950,0
13822,0.0217,-0.1238,0.3345,0.0045,0.0080,-0.0119,-0.01,-0.23,1.94,0,3.304,-0.645,-1.823,0.149,0.002,-0.011,1.007,0.000,0.000,0.000,0.3350,0,0,-0.41,0.19,6.43,0.0771,-0.0946,0.3343,0.2751,-0.0759,0.3000,0.2595,-6.68,-17.36,-58.13,1.0180,0.0380,1.6470,1.1530,2.3640,0,0.0633,-0.0107,0.0000,0.0920,-0.0950,0
13873,0.0218,-0.1237,0.3343,0.0059,0.0077,-0.0081,-0.03,-0.11,1.94,0,3.299,1.615,-0.832,0.349,0.004,-0.007,1.001,0.000,0.000,0.000,0.3330,2,-2,-0.44,0.28,6.44,0.0759,-0.0946,0.3341,0.2751,-0.0759,0.3000,0.2592,-6.70,-17.32,-58.14,1.0190,0.0380,1.6470,1.1530,2.3640,0,0.0633,-0.0107,0.0000,0.0920,-0.0950,0
13925,0.0232,-0.1235,0.3343,0.0090,0.0074,-0.0041,0.01,-0.07,1.95,0,3.304,-2.316,-0.483,0.068,0.004,-0.009,1.002,0.000,0.000,0.000,0.3330,-1,0,-0.31,0.27,6.52,0.0824,-0.0992,0.3335,0.2751,-0.0759,0.3000,0.2587,-6.71,-17.12,-58.50,1.0190,0.0360,1.6390,1.1510,2.3620,0,0.0633,-0.0107,0.0000,0.0920,-0.0950,0
13977,0.0257,-0.1278,0.3335,0.0131,-0.0013,-0.0068,-0.04,-0.02,1.96,0,3.299,-0.484,-2.550,0.760,0.007,-0.010,1.000,0.000,0.000,0.000,0.3290,1,-1,-0.45,0.30,6.50,0.0824,-0.0983,0.3331,0.2751,-0.0759,0.3000,0.2592,-7.41,-16.75,-58.77,1.0210,0.0360,1.6390,1.1510,2.3620,0,0.0633,-0.0107,0.0000,0.0920,-0.0950,0
14029,0.0258,-0.1263,0.3330,0.0122,0.0019,-0.0064,-0.07,0.04,1.99,0,3.299,-1.907,2.005,0.083,0.003,-0.012,1.003,0.000,0.000,0.000,0.3290,1,0,-0.46,0.42,6.56,0.0847,-0.1002,0.3315,0.2751,-0.0759,0.3000,0.2592,-7.16,-16.78,-59.56,1.0210,0.0350,1.6340,1.1570,2.3620,0,0.0633,-0.0107,0.0000,0.0920,-0.0950,0
14080,0.0274,-0.1276,0.3307,0.0135,0.0001,-0.0137,-0.12,0.05,1.99,0,3.299,-1.283,-2.271,-0.095,0.004,-0.011,1.001,0.000,0.000,0.000,0.3290,-2,0,-0.55,0.31,6.58,0.0853,-0.1027,0.3303,0.2751,-0.0759,0.3000,0.2604,-7.30,-16.55,-59.82,1.0110,0.0350,1.6340,1.1570,2.3620,0,0.0633,-0.0107,0.0000,0.0920,-0.0950,0
14131,0.0280,-0.1298,0.3303,0.0131,-0.0034,-0.0102,-0.16,0.13,2.01,0,3.304,0.565,0.016,1.096,0.003,-0.011,1.006,0.000,0.000,0.000,0.3290,0,-2,-0.66,0.43,6.52,0.0849,-0.0988,0.3295,0.2751,-0.0759,0.3000,0.2601,-7.63,-16.55,-60.42,1.0110,0.0370,1.6330,1.1580,2.3660,0,0.0633,-0.0107,0.0000,0.0920,-0.0950,0
14182,0.0284,-0.1295,0.3293,0.0116,-0.0015,-0.0102,-0.14,0.15,2.07,0,3.294,-1.214,-0.950,0.953,0.007,-0.012,1.006,0.000,0.000,0.000,0.3300,0,0,-0.63,0.40,6.59,0.0896,-0.0984,0.3290,0.2751,-0.0759,0.3000,0.2603,-7.51,-16.58,-61.97,1.0160,0.0370,1.6330,1.1580,2.3660,0,0.0633,-0.0107,0.0000,0.0920,-0.0950,0
14233,0.0317,-0.1305,0.3287,0.0157,-0.0022,-0.0075,-0.18,0.15,2.07,0,3.299,-1.116,-2.170,0.633,0.004,-0.009,1.007,0.000,0.000,0.000,0.3300,0,0,-0.70,0.45,6.64,0.0909,-0.0985,0.3291,0.2751,-0.0759,0.3000,0.2601,-7.62,-16.20,-62.13,1.0160,0.0370,1.6390,1.1550,2.3600,0,0.0633,-0.0107,0.0000,0.0920,-0.0950,0
14284,0.0358,-0.1298,0.3291,0.0208,0.0007,-0.0016,-0.18,0.18,2.07,0,3.299,0.310,-2.105,-0.931,0.007,-0.008,1.000,0.000,0.000,0.000,0.3280,3,0,-0.75,0.56,6.67,0.0921,-0.0986,0.3294,0.2751,-0.0759,0.3000,0.2594,-7.46,-15.75,-61.98,1.0180,0.0370,1.6390,1.1550,2.3600,0,0.0633,-0.0107,0.0000,0.0920,-0.0950,0
14335,0.0351,-0.1298,0.3285,0.0158,0.0025,-0.0035,-0.25,0.32,2.03,0,3.299,1.585,0.677,-2.093,0.004,-0.010,1.001,0.000,0.000,0.000,0.3280,4,-1,-0.66,0.69,6.68,0.0907,-0.1111,0.3291,0.2751,-0.0759,0.3000,0.2597,-7.36,-16.00,-61.04,1.0180,0.0370,1.6400,1.1570,2.3670,0,0.0633,-0.0107,0.0000,0.0920,-0.0950,0
14386,0.0342,-0.1289,0.3281,0.0099,0.0055,-0.0040,-0.17,0.31,1.94,0,3.294,2.166,3.637,-2.553,0.005,-0.013,1.003,0.000,0.000,0.000,0.3260,-1,0,-0.54,0.65,6.61,0.0933,-0.1184,0.3285,0.2751,-0.0759,0.3000,0.2599,-7.16,-16.32,-58.16,1.0180,0.0370,1.6400,1.1570,2.3670,0,0.0633,-0.0107,0.0000,0.0920,-0.0950,0
14437,0.0350,-0.1266,0.3263,0.0081,0.0108,-0.0109,-0.07,0.20,1.80,0,3.299,0.209,1.562,-2.835,0.003,-0.007,1.008,0.000,0.000,0.000,0.3260,0,0,-0.46,0.46,6.46,0.0934,-0.1181,0.3280,0.2751,-0.0759,0.3000,0.2609,-6.72,-16.28,-54.10,1.0180,0.0370,1.6290,1.1550,2.3620,0,0.0633,-0.0107,0.0000,0.0920,-0.0950,0
14489,0.0345,-0.1256,0.3257,0.0044,0.0122,-0.0096,-0.04,0.14,1.68,0,3.294,0.408,-1.131,-2.308,0.005,-0.012,1.003,0.000,0.000,0.000,0.3240,0,0,-0.44,0.39,6.31,0.0938,-0.1208,0.3275,0.2751,-0.0759,0.3000,0.2609,-6.58,-16.49,-50.55,1.0150,0.0370,1.6290,1.1550,2.3620,0,0.0633,-0.0107,0.0000,0.0920,-0.0950,0
14541,0.0325,-0.1251,0.3255,-0.0013,0.0119,-0.0063,0.09,0.12,1.57,0,3.294,1.865,2.190,-1.835,0.004,-0.011,1.004,0.000,0.000,0.000,0.3240,0,1,-0.42,0.45,6.19,0.0942,-0.1235,0.3265,0.2751,-0.0759,0.3000,0.2606,-6.57,-16.88,-47.18,1.0150,0.0360,1.6240,1.1630,2.3770,0,0.0633,-0.0107,0.0000,0.0920,-0.0950,0
14593,0.0316,-0.1250,0.3245,-0.0040,0.0102,-0.0094,0.21,0.01,1.45,0,3.294,-1.813,3.162,-2.787,0.008,-0.014,1.004,0.000,0.000,0.000,0.3250,0,0,-0.39,0.36,6.05,0.0896,-0.1171,0.3261,0.2751,-0.0759,0.3000,0.2611,-6.64,-17.03,-43.59,1.0150,0.0360,1.6240,1.1630,2.3770,0,0.0633,-0.0107,0.0000,0.0920,-0.0950,0
14644,0.0290,-0.1255,0.3244,-0.0089,0.0065,-0.0055,0.16,-0.15,1.32,0,3.294,0.384,3.002,-2.257,0.004,-0.009,1.003,0.000,0.000,0.000,0.3250,0,0,-0.48,0.19,5.90,0.0891,-0.1183,0.3259,0.2751,-0.0720,0.3000,0.2607,-7.12,-17.39,-39.64,1.0150,0.0390,1.6280,1.1580,2.3670,0,0.0633,-0.0107,0.0000,0.0920,-0.0950,0
14695,0.0265,-0.1253,0.3245,-0.0120,0.0048,-0.0017,0.16,-0.27,1.20,0,3.299,-1.652,0.029,-1.993,0.002,-0.012,1.001,0.000,0.000,0.000,0.3250,0,1,-0.46,0.04,5.79,0.0885,-0.1195,0.3257,0.2750,-0.0682,0.3000,0.2603,-7.46,-17.66,-36.07,1.0100,0.0390,1.6280,1.1580,2.3670,0,0.0633,-0.0107,0.0000,0.0920,-0.0950,0
14746,0.0260,-0.1251,0.3268,-0.0098,0.0034,0.0100,0.14,-0.25,1.09,0,3.299,0.246,0.875,-2.235,0.002,-0.011,0.996,0.000,0.000,0.000,0.3250,0,0,-0.57,0.05,5.66,0.0863,-0.1175,0.3256,0.2748,-0.0644,0.3000,0.2586,-7.83,-17.65,-32.58,1.0100,0.0350,1.6110,1.1620,2.3700,0,0.0633,-0.0107,0.0000,0.0920,-0.0950,0
14797,0.0243,-0.1249,0.3263,-0.0100,0.0023,0.0056,0.09,-0.28,0.98,0,3.299,-0.480,0.087,-1.807,0.010,-0.009,0.996,0.000,0.000,0.000,0.3250,0,0,-0.56,0.01,5.55,0.0855,-0.1181,0.3254,0.2746,-0.0605,0.3000,0.2591,-8.12,-17.67,-29.38,1.0100,0.0350,1.6110,1.1620,2.3700,0,0.0633,-0.0107,0.0000,0.0920,-0.0950,0
14848,0.0229,-0.1263,0.3279,-0.0096,-0.0015,0.0098,0.09,-0.24,0.86,0,3.299,-2.821,2.283,-1.158,0.003,-0.009,0.998,0.000,0.000,0.000,0.3250,-3,0,-0.59,0.00,5.45,0.0849,-0.1186,0.3252,0.2744,-0.0568,0.3000,0.2584,-8.68,-17.73,-25.77,1.0100,0.0370,1.5970,1.1550,2.3650,0,0.0633,-0.0107,0.0000,0.0920,-0.0950,0
14898,0.0216,-0.1319,0.3268,-0.0092,-0.0137,0.0014,-0.05,-0.25,0.76,0,3.294,-4.502,-1.197,-1.990,0.006,-0.013,0.998,0.000,0.000,0.000,0.3290,2,-1,-0.81,-0.12,5.30,0.0845,-0.1096,0.3248,0.2740,-0.0530,0.3000,0.2595,-9.85,-17.66,-22.88,1.0100,0.0370,1.5970,1.1550,2.3650,0,0.0633,-0.0107,0.0000,0.0920,-0.0950,0
14950,0.0182,-0.1316,0.3264,-0.0134,-0.0121,-0.0017,-0.18,-0.21,0.69,0,3.299,-3.350,-1.667,-0.821,0.009,-0.009,1.001,0.000,0.000,0.000,0.3290,-1,2,-1.01,-0.07,5.24,0.0858,-0.1105,0.3261,0.2737,-0.0491,0.3000,0.2599,-10.01,-17.97,-20.83,1.0100,0.0360,1.5790,1.1510,2.3690,0,0.0633,-0.0107,0.0000,0.0920,-0.0950,0
15002,0.0199,-0.1322,0.3276,-0.0067,-0.0106,0.0031,-0.23,-0.24,0.67,0,3.294,-1.759,-1.487,-0.278,0.008,-0.015,0.999,0.000,0.000,0.000,0.3280,0,-1,-1.19,0.04,5.17,0.0831,-0.1085,0.3270,0.2732,-0.0453,0.3000,0.2592,-10.27,-17.54,-20.20,1.0110,0.0360,1.5790,1.1510,2.3690,0,0.0633,-0.0107,0.0000,0.0920,-0.0950,0
15053,0.0187,-0.1314,0.3279,-0.0065,-0.0062,0.0033,-0.22,-0.22,0.65,0,3.299,0.043,1.114,0.302,0.005,-0.010,0.994,0.000,0.000,0.000,0.3280,-1,0,-1.27,0.10,5.18,0.0847,-0.1076,0.3274,0.2727,-0.0415,0.3000,0.2591,-10.27,-17.53,-19.55,1.0110,0.0000,1.5810,1.1520,2.3730,0,0.0633,-0.0107,0.0000,0.0920,-0.0950,0
15104,0.0186,-0.1330,0.3281,-0.0044,-0.0071,0.0008,-0.16,-0.24,0.65,0,3.294,-0.700,-0.628,-0.076,0.005,-0.006,0.993,0.000,0.000,0.000,0.3290,0,0,-1.28,0.05,5.19,0.0846,-0.1049,0.3275,0.2722,-0.0377,0.3000,0.2593,-10.66,-17.35,-19.42,1.0140,0.0000,1.5810,1.1520,2.3730,0,0.0633,-0.0107,0.0000,0.0920,-0.0950,0
15155,0.0187,-0.1319,0.3280,-0.0018,-0.0030,-0.0017,-0.16,-0.24,0.63,0,3.294,2.231,0.648,-0.834,0.008,-0.012,0.996,0.000,0.000,0.000,0.3290,0,0,-1.31,0.08,5.18,0.0849,-0.1025,0.3278,0.2716,-0.0339,0.3000,0.2596,-10.64,-17.13,-18.86,1.0140,0.0340,1.5900,1.1530,2.3710,0,0.0633,-0.0107,0.0000,0.0920,-0.0950,0
15206,0.0187,-0.1320,0.3284,0.0001,-0.0017,-0.0020,-0.12,-0.17,0.60,0,3.289,0.235,-3.803,-1.400,0.005,-0.007,0.995,0.000,0.000,0.000,0.3270,0,0,-1.20,0.05,5.14,0.0853,-0.0998,0.3279,0.2709,-0.0301,0.3000,0.2596,-10.84,-16.96,-17.91,1.0080,0.0340,1.5900,1.1530,2.3710,0,0.0633,-0.0107,0.0000,0.0920,-0.0950,0
15257,0.0197,-0.1320,0.3270,0.0035,-0.0008,-0.0101,-0.09,-0.06,0.55,0,3.294,-1.796,-1.247,-0.708,0.006,-0.011,1.000,0.000,0.000,0.000,0.3270,0,0,-1.19,0.25,5.07,0.0858,-0.0967,0.3273,0.2702,-0.0264,0.3000,0.2607,-11.00,-16.59,-16.51,1.0080,0.0340,1.5870,1.1510,2.3730,0,0.0633,-0.0107,0.0000,0.0920,-0.0950,0
15308,0.0196,-0.1319,0.3264,0.0032,0.0004,-0.0115,-0.11,0.02,0.53,0,3.289,-0.728,-0.619,-0.578,0.007,-0.013,1.001,0.000,0.000,0.000,0.3240,0,-1,-1.28,0.31,5.04,0.0863,-0.0934,0.3269,0.2694,-0.0226,0.3000,0.2609,-11.17,-16.49,-15.78,1.0110,0.0340,1.5870,1.1510,2.3730,0,0.0633,-0.0107,0.0000,0.0920,-0.0950,0
15359,0.0180,-0.1317,0.3241,-0.0002,0.0017,-0.0186,-0.16,0.05,0.51,0,3.294,0.524,1.117,1.192,0.009,-0.009,1.006,0.000,0.000,0.000,0.3240,0,0,-1.21,0.35,5.12,0.0878,-0.1077,0.3261,0.2685,-0.0189,0.3000,0.2621,-11.29,-16.57,-15.33,1.0110,0.0350,1.5810,1.1570,2.3700,0,0.0633,-0.0107,0.0000,0.0920,-0.0950,0
15410,0.0195,-0.1316,0.3231,0.0021,0.0032,-0.0175,-0.19,0.09,0.53,0,3.283,1.382,-1.520,-0.714,0.008,-0.007,1.005,0.000,0.000,0.000,0.3200,0,0,-1.19,0.29,5.18,0.0885,-0.1070,0.3253,0.2676,-0.0152,0.3000,0.2622,-11.45,-16.27,-15.78,1.0070,0.0350,1.5810,1.1570,2.3700,0,0.0633,-0.0107,0.0000,0.0920,-0.0950,0
15462,0.0191,-0.1254,0.3213,0.0003,0.0166,-0.0196,-0.17,0.14,0.52,0,3.289,5.117,0.528,-0.776,0.007,-0.011,1.005,0.000,0.000,0.000,0.3200,0,0,-1.11,0.37,5.15,0.0892,-0.1060,0.3234,0.2666,-0.0114,0.3000,0.2628,-10.64,-16.23,-15.46,1.0070,0.0400,1.5720,1.1570,2.3640,0,0.0633,-0.0107,0.0000,0.0920,-0.0950,0
15514,0.0210,-0.1257,0.3197,0.0028,0.0155,-0.0202,-0.02,0.12,0.50,0,3.289,0.863,0.349,-0.995,0.006,-0.012,1.011,0.000,0.000,0.000,0.3210,0,0,-0.85,0.34,5.11,0.0900,-0.1047,0.3220,0.2656,-0.0077,0.3000,0.2631,-10.94,-15.87,-15.01,1.0080,0.0400,1.5720,1.1570,2.3640,0,0.0633,-0.0107,0.0000,0.0920,-0.0950,0
15565,0.0213,-0.1229,0.3196,0.0021,0.0192,-0.0121,0.15,0.08,0.43,0,3.289,3.058,0.846,-2.171,0.007,-0.006,1.006,0.000,0.000,0.000,0.3210,0,0,-0.80,0.32,5.05,0.0907,-0.1034,0.3216,0.2645,-0.0040,0.3000,0.2623,-10.86,-15.81,-12.98,1.0080,0.0350,1.5900,1.1590,2.3710,0,0.0633,-0.0107,0.0000,0.0920,-0.0950,0
15616,0.0178,-0.1240,0.3198,-0.0052,0.0139,-0.0065,0.23,0.08,0.33,0,3.289,3.381,0.846,-1.531,0.006,-0.012,1.008,0.000,0.000,0.000,0.3180,3,0,-0.65,0.28,4.94,0.0914,-0.1019,0.3214,0.2634,-0.0003,0.3000,0.2617,-11.43,-16.28,-9.95,1.0140,0.0350,1.5900,1.1590,2.3710,0,0.0633,-0.0107,0.0000,0.0920,-0.0950,0
15667,0.0168,-0.1188,0.3202,-0.0072,0.0199,-0.0000,0.36,0.03,0.25,0,3.289,-0.469,0.595,-1.034,0.008,-0.010,1.006,0.000,0.000,0.000,0.3180,3,1,-0.38,0.27,4.90,0.0897,-0.1134,0.3206,0.2622,0.0033,0.3000,0.2609,-11.07,-16.36,-7.53,1.0140,0.0360,1.5710,1.1580,2.3760,0,0.0633,-0.0107,0.0000,0.0920,-0.0950,0
15718,0.0172,-0.1187,0.3192,-0.0059,0.0159,-0.0018,0.38,-0.04,0.17,0,3.289,-2.884,0.251,-1.580,0.005,-0.009,1.002,0.000,0.000,0.000,0.3220,0,0,-0.39,0.24,4.86,0.0896,-0.1162,0.3197,0.2610,0.0069,0.3000,0.2613,-11.46,-16.12,-5.15,1.0080,0.0360,1.5710,1.1580,2.3760,0,0.0633,-0.0107,0.0000,0.0920,-0.0950,0
15769,0.0159,-0.1233,0.3206,-0.0071,0.0035,0.0069,0.32,-0.06,0.10,0,3.294,2.789,0.491,-2.048,0.010,-0.007,1.003,0.000,0.000,0.000,0.3220,0,0,-0.53,0.23,4.78,0.0898,-0.1180,0.3206,0.2597,0.0106,0.3000,0.2600,-12.62,-16.20,-3.12,1.0080,0.0340,1.5660,1.1580,2.3730,0,0.0633,-0.0107,0.0000,0.0920,-0.0950,0
15821,0.0156,-0.1232,0.3217,-0.0064,0.0006,0.0105,0.38,-0.11,0.01,0,3.289,-3.573,0.047,-1.504,0.012,-0.010,0.997,0.000,0.000,0.000,0.3190,0,0,-0.39,0.21,4.67,0.0901,-0.1198,0.3213,0.2583,0.0142,0.3000,0.2595,-13.00,-16.09,-0.41,1.0100,0.0340,1.5660,1.1580,2.3730,0,0.0633,-0.0107,0.0000,0.0920,-0.0950,0
15873,0.0137,-0.1227,0.3223,-0.0085,-0.0014,0.0104,0.25,-0.12,-0.08,0,3.289,-1.813,-1.541,-1.293,0.007,-0.011,1.002,0.000,0.000,0.000,0.3190,0,0,-0.58,0.20,4.60,0.0907,-0.1217,0.3209,0.2569,0.0178,0.3000,0.2593,-13.28,-16.18,2.29,1.0100,0.0330,1.5540,1.1600,2.3760,0,0.0633,-0.0107,0.0000,0.0920,-0.0950,0
15924,0.0132,-0.1249,0.3211,-0.0079,-0.0070,0.0014,0.14,-0.03,-0.17,0,3.289,0.789,1.019,-2.201,0.012,-0.013,0.999,0.000,0.000,0.000,0.3180,0,0,-0.67,0.28,4.53,0.0913,-0.1236,0.3205,0.2554,0.0213,0.3000,0.2606,-13.84,-15.98,5.10,1.0070,0.0330,1.5540,1.1600,2.3760,0,0.0633,-0.0107,0.0000,0.0920,-0.0950,0
15975,0.0113,-0.1251,0.3205,-0.0102,-0.0077,-0.0021,0.07,-0.09,-0.25,0,3.289,-1.427,-0.551,-1.630,0.004,-0.011,1.000,0.000,0.000,0.000,0.3180,0,1,-0.63,0.23,4.42,0.0922,-0.1255,0.3198,0.2539,0.0248,0.3000,0.2610,-14.08,-16.03,7.61,1.0070,0.0380,1.5460,1.1600,2.3760,0,0.0633,-0.0107,0.0000,0.0920,-0.0950,0
16026,0.0134,-0.1319,0.3191,-0.0050,-0.0199,-0.0072,0.04,-0.09,-0.33,0,3.283,-5.620,1.958,-0.439,0.009,-0.010,1.005,0.000,0.000,0.000,0.3200,0,0,-0.76,0.30,4.29,0.0873,-0.1197,0.3194,0.2523,0.0284,0.3000,0.2618,-15.24,-15.48,10.00,1.0080,0.0380,1.5460,1.1600,2.3760,0,0.0633,-0.0107,0.0000,0.0920,-0.0950,0
16078,0.0115,-0.1327,0.3198,-0.0070,-0.0195,-0.0009,-0.21,-0.11,-0.36,0,3.289,0.190,0.197,-0.236,0.007,-0.013,1.004,0.000,0.000,0.000,0.3200,1,0,-1.05,0.20,4.27,0.0870,-0.1198,0.3196,0.2507,0.0319,0.3000,0.2610,-15.53,-15.58,10.74,1.0080,0.0340,1.5340,1.1560,2.3770,0,0.0633,-0.0107,0.0000,0.0920,-0.0950,0
16130,0.0118,-0.1368,0.3199,-0.0048,-0.0232,0.0013,-0.23,-0.14,-0.36,0,3.283,-2.054,-0.929,0.869,0.006,-0.010,1.002,0.000,0.000,0.000,0.3200,0,0,-1.02,0.19,4.27,0.0870,-0.1210,0.3201,0.2490,0.0354,0.3000,0.2608,-16.19,-15.32,10.80,1.0080,0.0340,1.5340,1.1560,2.3770,0,0.0633,-0.0107,0.0000,0.0920,-0.0950,0
16181,0.0118,-0.1392,0.3190,-0.0035,-0.0233,-0.0015,-0.26,-0.07,-0.34,0,3.289,-4.791,0.248,0.479,0.004,-0.008,1.002,0.000,0.000,0.000,0.3200,2,0,-1.13,0.24,4.31,0.0870,-0.1212,0.3203,0.2473,0.0388,0.3000,0.2612,-16.52,-15.09,10.34,1.0080,0.0320,1.5280,1.1540,2.3740,0,0.0633,-0.0107,0.0000,0.0920,-0.0950,0
16232,0.0115,-0.1411,0.3195,-0.0030,-0.0222,0.0019,-0.36,-0.08,-0.33,0,3.283,1.979,-0.335,-0.254,0.007,-0.007,0.996,0.000,0.000,0.000,0.3220,1,0,-1.33,0.22,4.37,0.0873,-0.1247,0.3207,0.2455,0.0421,0.3000,0.2608,-16.82,-14.95,9.77,1.0070,0.0320,1.5280,1.1540,2.3740,0,0.0633,-0.0107,0.0000,0.0920,-0.0950,0
16283,0.0119,-0.1404,0.3199,-0.0014,-0.0153,0.0034,-0.40,-0.08,-0.32,0,3.289,1.769,-2.866,0.961,0.009,-0.010,1.003,0.000,0.000,0.000,0.3220,0,0,-1.22,0.24,4.36,0.0875,-0.1262,0.3214,0.2436,0.0455,0.3000,0.2606,-16.69,-14.71,9.49,1.0070,0.0380,1.5140,1.1530,2.3780,0,0.0633,-0.0107,0.0000,0.0920,-0.0950,0
16334,0.0132,-0.1395,0.3211,0.0018,-0.0089,0.0085,-0.42,-0.01,-0.28,0,3.283,5.617,-0.987,0.917,0.006,-0.009,1.004,0.000,0.000,0.000,0.3220,0,0,-1.13,0.38,4.41,0.0877,-0.1268,0.3219,0.2418,0.0489,0.3000,0.2598,-16.60,-14.35,8.30,1.0110,0.0380,1.5140,1.1530,2.3780,0,0.0633,-0.0107,0.0000,0.0920,-0.0950,0
16385,0.0133,-0.1399,0.3209,0.0017,-0.0053,0.0062,-0.33,0.04,-0.20,0,3.289,3.715,-1.360,1.348,0.003,-0.011,0.995,0.000,0.000,0.000,0.3220,0,0,-0.85,0.43,4.46,0.0878,-0.1271,0.3225,0.2398,0.0522,0.3000,0.2601,-16.64,-14.16,5.98,1.0110,0.0310,1.5370,1.1560,2.3750,0,0.0633,-0.0107,0.0000,0.0920,-0.0950,0
16436,0.0134,-0.1401,0.3218,0.0014,-0.0027,0.0071,-0.18,0.05,-0.10,0,3.283,0.921,-0.423,2.048,0.003,-0.013,0.996,0.000,0.000,0.000,0.3220,0,0,-0.66,0.50,4.53,0.0879,-0.1274,0.3227,0.2378,0.0554,0.3000,0.2598,-16.74,-14.01,2.92,1.0070,0.0310,1.5370,1.1560,2.3750,0,0.0633,-0.0107,0.0000,0.0920,-0.0950,0
16487,0.0130,-0.1407,0.3211,-0.0000,-0.0022,0.0011,-0.10,0.12,-0.01,0,3.289,-0.671,0.659,3.026,0.006,-0.014,0.997,0.000,0.000,0.000,0.3220,0,0,-0.61,0.52,4.63,0.0878,-0.1277,0.3228,0.2358,0.0587,0.3000,0.2606,-16.90,-13.89,0.16,1.0070,0.0410,1.5490,1.1510,2.3720,0,0.0633,-0.0107,0.0000,0.0920,-0.0950,0
16539,0.0126,-0.1387,0.3215,-0.0017,0.0023,0.0004,-0.12,0.17,0.13,0,3.283,0.371,2.136,3.190,0.008,-0.014,0.997,0.000,0.000,0.000,0.3180,0,0,-0.65,0.49,4.79,0.0876,-0.1281,0.3227,0.2337,0.0620,0.3000,0.2606,-16.76,-13.80,-3.75,1.0110,0.0410,1.5490,1.1510,2.3720,0,0.0633,-0.0107,0.0000,0.0920,-0.0950,0
16591,0.0125,-0.1386,0.3186,-0.0031,0.0033,-0.0137,-0.11,0.13,0.28,0,3.283,1.409,0.092,3.243,0.006,-0.011,1.004,0.000,0.000,0.000,0.3180,0,0,-0.63,0.37,4.95,0.0874,-0.1285,0.3212,0.2315,0.0652,0.3000,0.2626,-16.77,-13.58,-8.50,1.0110,0.0380,1.5570,1.1520,2.3830,0,0.0633,-0.0107,0.0000,0.0920,-0.0950,0
16644,0.0123,-0.1384,0.3177,-0.0041,0.0043,-0.0137,-0.11,0.16,0.43,0,3.278,-0.212,-0.234,2.438,0.007,-0.012,1.008,0.000,0.000,0.000,0.3190,0,0,-0.56,0.37,5.12,0.0872,-0.1290,0.3201,0.2293,0.0684,0.3000,0.2628,-16.88,-13.44,-12.95,1.0110,0.0380,1.5570,1.1520,2.3830,0,0.0633,-0.0107,0.0000,0.0920,-0.0950,0
16695,0.0125,-0.1362,0.3168,-0.0048,0.0085,-0.0116,-0.07,0.15,0.55,0,3.283,0.650,2.257,2.500,0.002,-0.011,1.002,0.000,0.000,0.000,0.3190,0,0,-0.57,0.38,5.25,0.0870,-0.1295,0.3198,0.2270,0.0715,0.3000,0.2628,-16.73,-13.28,-16.42,1.0110,0.0340,1.5650,1.1500,2.3750,0,0.0633,-0.0107,0.0000,0.0920,-0.0950,0
16746,0.0114,-0.1328,0.3174,-0.0074,0.0139,-0.0046,-0.02,0.11,0.65,0,3.283,4.092,-0.086,0.654,0.005,-0.010,1.004,0.000,0.000,0.000,0.3180,1,0,-0.54,0.26,5.38,0.0867,-0.1300,0.3196,0.2247,0.0746,0.3000,0.2619,-16.51,-13.32,-19.38,1.0130,0.0340,1.5650,1.1500,2.3750,0,0.0633,-0.0107,0.0000,0.0920,-0.0950,0
16797,0.0102,-0.1311,0.3170,-0.0094,0.0157,-0.0031,0.08,0.02,0.71,0,3.283,2.295,-0.422,1.199,0.002,-0.010,1.009,0.000,0.000,0.000,0.3180,-4,2,-0.34,0.25,5.41,0.0888,-0.1288,0.3192,0.2224,0.0777,0.3000,0.2618,-16.49,-13.30,-21.24,1.0130,0.0370,1.6030,1.1550,2.3850,0,0.0633,-0.0107,0.0000,0.0920,-0.0950,0
16848,0.0092,-0.1328,0.3175,-0.0101,0.0103,0.0023,0.24,-0.02,0.77,0,3.278,-0.786,0.443,1.035,0.004,-0.006,1.002,0.000,0.000,0.000,0.3170,0,0,-0.24,0.28,5.47,0.0880,-0.1279,0.3191,0.2200,0.0807,0.3000,0.2611,-17.04,-13.23,-23.20,1.0140,0.0370,1.6030,1.1550,2.3850,0,0.0633,-0.0107,0.0000,0.0920,-0.0950,0
16899,0.0036,-0.1326,0.3142,-0.0180,0.0076,-0.0103,0.23,-0.05,0.82,0,3.283,0.027,3.210,0.014,0.006,-0.011,1.006,0.000,0.000,0.000,0.3170,2,1,-0.28,0.26,5.52,0.0876,-0.1279,0.3187,0.2176,0.0836,0.3000,0.2631,-17.18,-13.67,-24.53,1.0140,0.0360,1.6140,1.1490,2.3800,0,0.0633,-0.0107,0.0000,0.0920,-0.0950,0
16951,0.0016,-0.1330,0.3152,-0.0188,0.0038,-0.0013,0.31,-0.20,0.82,0,3.262,-2.295,2.301,0.173,0.007,-0.012,1.008,0.000,0.000,0.000,0.3180,0,0,-0.24,0.11,5.54,0.0867,-0.1305,0.3185,0.2151,0.0866,0.3000,0.2619,-17.61,-13.69,-24.59,1.0160,0.0360,1.6140,1.1490,2.3800,0,0.0633,-0.0107,0.0000,0.0920,-0.0950,0
17003,-0.0019,-0.1344,0.3162,-0.0212,-0.0009,0.0064,0.14,-0.58,0.83,0,3.283,-22.444,127.962,0.736,-0.008,-0.004,0.998,0.000,0.000,0.000,0.3180,0,6,-0.36,-0.01,5.55,0.0862,-0.1318,0.3188,0.2125,0.0896,0.3000,0.2609,-18.13,-13.88,-24.96,1.0160,0.0340,1.6090,1.1550,2.3840,0,0.0633,-0.0107,0.0000,0.0920,-0.0950,0
17055,-0.0002,-0.1405,0.3174,-0.0055,-0.0114,0.0105,-0.72,-5.87,0.84,0,3.283,-23.183,124.791,-2.615,0.019,-0.003,1.003,0.000,0.000,0.000,0.3230,1,15,-1.55,-6.56,5.53,0.0758,-0.1327,0.3207,0.2099,0.0924,0.3000,0.2602,-19.16,-12.89,-25.31,1.0030,0.0340,1.6090,1.1550,2.3840,0,0.0633,-0.0107,0.0000,0.0920,-0.0950,0
17106,0.0069,-0.1436,0.3181,0.0682,-0.0076,0.0064,-1.90,-12.60,0.60,0,3.283,-8.893,10.018,-0.658,0.010,-0.006,0.997,0.000,0.000,0.000,0.3230,0,-1,-2.80,-12.86,5.19,0.0591,-0.1355,0.3274,0.2073,0.0953,0.3000,0.2605,-19.32,-8.79,-17.99,1.0030,0.0270,1.5370,1.1400,2.4110,0,0.0633,-0.0107,0.0000,0.0920,-0.0950,0
17156,-0.0022,-0.1464,0.3203,0.1327,0.0021,0.0060,-2.45,-13.83,0.52,0,3.289,-2.238,0.162,-0.737,-0.004,-0.012,0.987,0.000,0.000,0.000,0.3280,0,-6,-3.26,-13.38,5.16,0.0606,-0.1350,0.3268,0.2047,0.0980,0.3000,0.2602,-19.26,-6.21,-15.46,0.9660,0.0270,1.5370,1.1400,2.4110,0,0.0633,-0.0107,0.0000,0.0920,-0.0950,0
17208,0.0069,-0.1453,0.3254,0.2476,0.0249,0.0112,-2.68,-13.77,0.48,0,3.289,-5.347,0.826,-3.665,-0.002,-0.013,0.990,0.000,0.000,0.000,0.3280,-2,-8,-3.33,-13.46,5.33,0.0741,-0.1332,0.3250,0.2020,0.1008,0.3000,0.2586,-18.46,0.11,-14.35,0.9660,0.0210,1.4520,1.1410,2.4630,0,0.0633,-0.0107,0.0000,0.0920,-0.0950,0
17260,0.0295,-0.1429,0.3255,0.3930,0.0536,-0.0119,-2.89,-13.76,0.30,0,3.278,1.849,-45.988,-6.373,-0.014,-0.014,0.997,0.000,0.000,0.000,0.3220,0,-9,-3.71,-13.54,4.97,0.0938,-0.1263,0.3215,0.1992,0.1035,0.3000,0.2611,-17.06,8.77,-9.13,0.9280,0.0210,1.4520,1.1410,2.4630,0,0.0633,-0.0107,0.0000,0.0920,-0.0950,0
17311,0.0469,-0.1471,0.3238,0.4969,0.0641,-0.0298,-2.78,-11.85,0.15,0,3.273,3.745,-62.468,-9.053,-0.012,-0.016,1.008,0.000,0.000,0.000,0.3220,-5,-18,-3.51,-11.20,5.30,0.1216,-0.1231,0.3176,0.1965,0.1061,0.3000,0.2634,-16.87,14.77,-4.45,0.9280,0.0230,1.3900,1.1410,2.4600,0,0.0633,-0.0107,0.0000,0.0920,-0.0950,0
17362,0.0680,-0.1429,0.3209,0.5748,0.0858,-0.0431,-2.70,-8.82,-0.21,0,3.278,11.516,-60.337,-13.126,-0.018,-0.015,1.017,0.000,0.000,0.000,0.3190,-4,-12,-3.50,-8.13,4.58,0.1665,-0.1060,0.3081,0.1937,0.1087,0.3000,0.2654,-15.68,19.53,6.34,0.8940,0.0230,1.3900,1.1410,2.4600,0,0.0633,-0.0107,0.0000,0.0920,-0.0950,0
17413,0.1032,-0.1258,0.3212,0.6597,0.1337,-0.0319,-2.34,-5.85,-0.80,0,3.273,27.621,-62.119,-15.349,-0.019,-0.013,1.021,0.000,0.000,0.000,0.3190,-6,-21,-3.03,-5.02,3.76,0.2023,-0.0914,0.3066,0.1908,0.1113,0.3000,0.2641,-12.64,25.00,23.88,0.8940,0.0220,1.3140,1.1580,2.4260,0,0.0633,-0.0107,0.0000,0.0920,-0.0950,0
17465,0.1335,-0.1203,0.3189,0.7021,0.1488,-0.0281,-1.06,-2.69,-1.37,0,3.267,23.629,-59.263,-16.743,-0.024,-0.021,1.024,0.000,0.000,0.000,0.2990,-6,-21,-1.71,-1.99,3.07,0.2625,-0.0703,0.2996,0.1879,0.1138,0.3000,0.2641,-11.73,25.00,40.99,0.8180,0.0220,1.3140,1.1580,2.4260,0,0.0633,-0.0107,0.0000,0.0920,-0.0950,0
17516,0.1625,-0.1177,0.3122,0.7128,0.1468,-0.0423,0.21,0.40,-2.15,0,3.257,9.248,-47.368,-14.893,-0.023,-0.022,1.033,0.000,0.000,0.000,0.2990,0,-9,-0.51,0.98,2.34,0.3212,-0.0508,0.2898,0.1850,0.1163,0.3000,0.2669,-11.65,25.00,64.64,0.8180,0.0360,1.2770,1.2090,2.4050,0,0.0633,-0.0107,0.0000,0.0920,-0.0950,0
17567,0.2033,-0.1125,0.3037,0.7019,0.1360,-0.0510,0.86,2.85,-2.95,0,3.257,14.561,-38.773,-13.349,-0.021,-0.025,1.041,0.000,0.000,0.000,0.3050,-4,-17,0.05,3.51,2.05,0.3536,-0.0475,0.2960,0.1820,0.1188,0.3000,0.2695,-11.79,25.00,88.36,0.7450,0.0360,1.2770,1.2090,2.4050,0,0.0633,-0.0107,0.0000,0.0920,-0.0950,0
17618,0.2274,-0.1077,0.3007,0.6704,0.1290,-0.0417,1.63,4.93,-3.64,0,3.267,7.324,-30.105,-8.625,-0.019,-0.024,1.035,0.000,0.000,0.000,0.3050,-1,-6,0.83,5.41,1.47,0.4052,-0.0336,0.2953,0.1790,0.1211,0.3000,0.2690,-11.92,25.00,109.07,0.7450,0.0470,1.2460,1.2500,2.3960,0,0.0633,-0.0107,0.0000,0.0920,-0.0950,0
17669,0.2595,-0.1086,0.3015,0.6239,0.0991,-0.0148,2.13,6.44,-4.11,0,3.273,-3.563,-17.986,-3.833,-0.016,-0.023,1.027,0.000,0.000,0.000,0.3080,-1,-6,1.30,7.06,0.99,0.4267,-0.0291,0.3020,0.1760,0.1235,0.3000,0.2660,-13.55,25.00,123.22,0.6940,0.0470,1.2460,1.2500,2.3960,0,0.0633,-0.0107,0.0000,0.0920,-0.0950,0
17720,0.2843,-0.1040,0.3020,0.5532,0.0848,0.0004,2.01,7.44,-4.34,0,3.278,-1.244,-10.720,2.066,-0.014,-0.017,1.026,0.000,0.000,0.000,0.3080,-2,-9,1.18,8.05,0.76,0.4464,-0.0253,0.3065,0.1729,0.1257,0.3000,0.2642,-14.07,25.00,130.12,0.6940,0.0530,1.2350,1.2720,2.4060,0,0.0633,-0.0107,0.0000,0.0920,-0.0950,0
17771,0.3054,-0.1024,0.3053,0.4736,0.0654,0.0230,1.93,8.00,-4.28,0,3.278,-5.188,5.885,5.019,-0.013,-0.018,1.007,0.000,0.000,0.000,0.3100,0,-2,1.11,8.59,0.85,0.4742,-0.0186,0.3087,0.1698,0.1280,0.3000,0.2612,-15.09,25.00,128.42,0.6540,0.0530,1.2350,1.2720,2.4060,0,0.0633,-0.0107,0.0000,0.0920,-0.0950,0
17822,0.3270,-0.1019,0.3088,0.4027,0.0470,0.0356,1.71,7.75,-4.05,0,3.278,-10.712,10.920,5.726,-0.006,-0.017,1.000,0.000,0.000,0.000,0.3100,0,-4,0.84,8.38,1.05,0.4800,-0.0188,0.3117,0.1667,0.1302,0.3000,0.2591,-16.09,25.00,121.49,0.6540,0.0510,1.2260,1.2850,2.4130,0,0.0633,-0.0107,0.0000,0.0920,-0.0950,0
17874,0.3425,-0.0999,0.3110,0.3271,0.0366,0.0343,1.13,7.27,-3.73,0,3.278,-8.163,9.371,5.007,0.000,-0.017,0.995,0.000,0.000,0.000,0.3110,-2,-1,0.29,7.84,1.25,0.4921,-0.0190,0.3129,0.1634,0.1324,0.3000,0.2589,-16.53,25.00,111.89,0.6290,0.0510,1.2260,1.2850,2.4130,0,0.0633,-0.0107,0.0000,0.0920,-0.0950,0
17925,0.3550,-0.0984,0.3124,0.2580,0.0298,0.0279,0.68,6.79,-3.47,0,3.273,-1.604,16.985,4.078,-0.001,-0.016,0.994,0.000,0.000,0.000,0.3110,-1,0,-0.22,7.41,1.72,0.4947,-0.0119,0.3135,0.1602,0.1345,0.3000,0.2593,-16.80,25.00,104.05,0.6290,0.0570,1.2210,1.3040,2.4080,0,0.0633,-0.0107,0.0000,0.0920,-0.0950,0
17977,0.3644,-0.0925,0.3128,0.1937,0.0402,0.0169,0.46,6.05,-3.21,0,3.273,-1.823,22.583,4.987,0.000,-0.017,0.996,0.000,0.000,0.000,0.3010,6,0,-0.34,6.58,1.98,0.4944,-0.0086,0.3134,0.1569,0.1365,0.3000,0.2604,-15.98,25.00,96.41,0.6230,0.0570,1.2210,1.3040,2.4080,0,0.0633,-0.0107,0.0000,0.0920,-0.0950,0
18029,0.3720,-0.0925,0.3105,0.1373,0.0327,-0.0015,0.40,4.97,-2.98,0,3.262,-1.640,21.221,4.470,0.006,-0.015,1.004,0.000,0.000,0.000,0.3010,-2,1,-0.23,5.41,1.24,0.4921,-0.0335,0.3103,0.1536,0.1386,0.3000,0.2628,-16.26,23.25,89.43,0.6230,0.0490,1.2180,1.2870,2.4020,0,0.0633,-0.0107,0.0000,0.4904,-0.0318,0
18081,0.3767,-0.0929,0.3055,0.0896,0.0253,-0.0257,0.29,3.88,-2.72,0,3.257,-5.928,18.023,6.015,0.004,-0.015,1.014,0.000,0.000,0.000,0.2960,0,1,-0.41,4.33,1.87,0.4896,-0.0251,0.3076,0.1503,0.1405,0.3000,0.2664,-16.48,21.58,81.64,0.6220,0.0490,1.2180,1.2870,2.4020,0,0.0633,-0.0107,0.0000,0.4904,-0.0318,0
18132,0.3791,-0.0909,0.3021,0.0511,0.0258,-0.0330,0.05,2.96,-2.43,0,3.257,-2.892,17.044,5.736,0.007,-0.015,1.022,0.000,0.000,0.000,0.2960,1,1,-0.75,3.39,2.20,0.4871,-0.0250,0.3040,0.1469,0.1424,0.3000,0.2678,-16.32,20.29,72.95,0.6220,0.0510,1.2110,1.2840,2.4030,0,0.0633,-0.0107,0.0000,0.4904,-0.0318,0
18183,0.3806,-0.0879,0.2976,0.0230,0.0315,-0.0390,-0.16,2.14,-2.08,0,3.257,2.040,14.425,5.155,0.007,-0.016,1.022,0.000,0.000,0.000,0.2940,-1,0,-0.89,2.51,2.37,0.4843,-0.0288,0.3016,0.1436,0.1443,0.3000,0.2693,-15.88,19.37,62.45,0.6280,0.0510,1.2110,1.2840,2.4030,0,0.0633,-0.0107,0.0000,0.4904,-0.0318,0
18234,0.3814,-0.0773,0.2969,0.0047,0.0600,-0.0239,-0.17,1.38,-1.72,0,3.252,16.085,14.122,4.024,0.005,-0.015,1.031,0.000,0.000,0.000,0.2940,-1,2,-0.82,1.74,2.76,0.4853,-0.0248,0.2998,0.1402,0.1460,0.3000,0.2678,-14.13,18.99,51.49,0.6280,0.0490,1.2040,1.2760,2.3990,0,0.0633,-0.0107,0.0000,0.4904,-0.0318,0
18285,0.3815,-0.0754,0.2947,-0.0072,0.0582,-0.0158,0.50,0.67,-1.54,0,3.262,4.169,11.611,1.134,0.006,-0.021,1.028,0.000,0.000,0.000,0.2940,0,0,-0.03,1.02,3.07,0.4796,-0.0215,0.2988,0.1368,0.1478,0.3000,0.2674,-14.18,18.77,46.29,0.6400,0.0490,1.2040,1.2760,2.3990,0,0.0633,-0.0107,0.0000,0.4904,-0.0318,0
18336,0.3799,-0.0751,0.2955,-0.0163,0.0461,0.0043,0.78,0.10,-1.50,0,3.267,1.664,13.662,-0.721,0.009,-0.015,1.023,0.000,0.000,0.000,0.2940,-2,2,0.18,0.43,3.13,0.4747,-0.0219,0.2985,0.1333,0.1495,0.3000,0.2650,-14.87,18.69,44.96,0.6400,0.0450,1.2000,1.2550,2.3990,0,0.0633,-0.0107,0.0000,0.4904,-0.0318,0
18387,0.3786,-0.0746,0.2953,-0.0187,0.0343,0.0132,0.86,-0.54,-1.56,0,3.267,-1.321,7.430,-0.545,0.005,-0.017,1.019,0.000,0.000,0.000,0.3000,1,0,0.21,-0.30,3.30,0.4764,-0.0108,0.2990,0.1299,0.1511,0.3000,0.2641,-15.47,18.80,46.94,0.6410,0.0450,1.2000,1.2550,2.3990,0,0.0633,-0.0107,0.0000,0.4904,-0.0318,0
18439,0.3776,-0.0740,0.2985,-0.0146,0.0245,0.0335,0.84,-0.98,-1.62,0,3.273,-2.013,4.797,-1.254,0.003,-0.019,1.011,0.000,0.000,0.000,0.3000,-2,0,0.16,-0.70,3.22,0.4754,-0.0132,0.3014,0.1263,0.1527,0.3000,0.2613,-16.08,19.35,48.53,0.6410,0.0460,1.1990,1.2500,2.4020,0,0.0633,-0.0107,0.0000,0.4904,-0.0318,0
18491,0.3783,-0.0744,0.3009,-0.0023,0.0125,0.0434,0.73,-1.16,-1.68,0,3.278,-0.745,-4.260,-1.108,0.010,-0.015,1.005,0.000,0.000,0.000,0.3070,0,-1,0.02,-0.96,3.20,0.4749,-0.0082,0.3033,0.1227,0.1543,0.3000,0.2598,-16.78,20.26,50.54,0.6390,0.0460,1.1990,1.2500,2.4020,0,0.0633,-0.0107,0.0000,0.4904,-0.0318,0
18543,0.3789,-0.0740,0.3046,0.0092,0.0051,0.0528,0.75,-1.00,-1.77,0,3.278,-3.793,-0.737,-0.619,0.009,-0.017,0.995,0.000,0.000,0.000,0.3070,-4,0,-0.02,-0.76,3.12,0.4769,-0.0082,0.3068,0.1192,0.1557,0.3000,0.2581,-17.23,21.15,53.22,0.6390,0.0400,1.1970,1.2580,2.3980,0,0.0633,-0.0107,0.0000,0.4904,-0.0318,0
18594,0.3811,-0.0754,0.3082,0.0228,-0.0061,0.0569,0.59,-0.94,-1.78,0,3.278,-3.513,-5.894,0.254,0.004,-0.015,0.986,0.000,0.000,0.000,0.3080,6,-2,-0.29,-0.73,3.12,0.4764,0.0023,0.3092,0.1156,0.1572,0.3000,0.2570,-17.94,22.18,53.52,0.6280,0.0400,1.1970,1.2580,2.3980,0,0.0633,-0.0107,0.0000,0.4904,-0.0318,0
18645,0.3837,-0.0734,0.3110,0.0344,-0.0038,0.0516,0.36,-0.74,-1.77,0,3.278,-1.778,-11.987,0.355,0.002,-0.017,0.984,0.000,0.000,0.000,0.3080,4,-3,-0.35,-0.46,3.09,0.4825,-0.0131,0.3113,0.1120,0.1585,0.3000,0.2570,-17.75,23.05,52.99,0.6280,0.0400,1.1980,1.2800,2.3890,0,0.0633,-0.0107,0.0000,0.4904,-0.0318,0
18696,0.3857,-0.0748,0.3117,0.0407,-0.0104,0.0375,0.23,-0.27,-1.72,0,3.278,-1.084,-7.002,1.183,0.005,-0.016,0.984,0.000,0.000,0.000,0.3170,-2,-1,-0.38,0.11,3.09,0.4915,-0.0239,0.3115,0.1084,0.1598,0.3000,0.2584,-18.07,23.55,51.47,0.6230,0.0400,1.1980,1.2800,2.3890,0,0.0633,-0.0107,0.0000,0.4904,-0.0318,0
18747,0.3906,-0.0755,0.3148,0.0518,-0.0122,0.0369,-0.01,0.09,-1.67,0,3.278,0.694,-8.714,0.702,0.000,-0.013,0.986,0.000,0.000,0.000,0.3170,-3,-4,-0.50,0.46,3.14,0.4943,-0.0188,0.3147,0.1048,0.1611,0.3000,0.2579,-18.27,24.57,50.10,0.6230,0.0420,1.2060,1.2670,2.3880,0,0.0633,-0.0107,0.0000,0.4904,-0.0318,0
18799,0.3935,-0.0767,0.3174,0.0520,-0.0150,0.0327,-0.01,0.37,-1.64,0,3.278,-1.216,-9.204,1.644,0.003,-0.012,0.982,0.000,0.000,0.000,0.3150,5,-2,-0.53,0.85,3.14,0.5054,-0.0102,0.3165,0.1011,0.1623,0.3000,0.2578,-18.50,24.99,49.08,0.6130,0.0420,1.2060,1.2670,2.3880,0,0.0633,-0.0107,0.0000,0.4904,-0.0318,0
18850,0.3981,-0.0740,0.3195,0.0544,-0.0044,0.0280,-0.06,0.79,-1.56,0,3.273,-4.916,-6.797,2.094,0.008,-0.012,0.980,0.000,0.000,0.000,0.3150,0,-3,-0.51,1.32,3.22,0.5123,-0.0246,0.3167,0.0975,0.1634,0.3000,0.2579,-17.89,25.00,46.85,0.6130,0.0430,1.2090,1.2600,2.3750,0,0.0633,-0.0107,0.0000,0.4904,-0.0318,0
18901,0.4005,-0.0815,0.3183,0.0474,-0.0249,0.0091,-0.33,1.05,-1.42,0,3.273,-6.886,-3.060,2.391,0.005,-0.015,0.985,0.000,0.000,0.000,0.3210,2,-2,-0.78,1.63,3.32,0.5214,-0.0244,0.3162,0.0938,0.1645,0.3000,0.2602,-19.13,25.00,42.70,0.5990,0.0430,1.2090,1.2600,2.3750,0,0.0633,-0.0107,0.0000,0.4904,-0.0318,0
18952,0.4036,-0.0815,0.3194,0.0413,-0.0182,0.0049,-0.69,1.25,-1.30,0,3.273,-1.541,-4.586,2.272,0.004,-0.016,0.989,0.000,0.000,0.000,0.3210,-2,-1,-1.11,1.77,3.43,0.5280,-0.0302,0.3173,0.0901,0.1655,0.3000,0.2605,-18.84,25.00,38.91,0.5990,0.0400,1.2110,1.2630,2.3780,0,0.0633,-0.0107,0.0000,0.4904,-0.0318,0
19003,0.4066,-0.0854,0.3203,0.0343,-0.0215,0.0026,-0.75,1.42,-1.21,0,3.273,-3.881,1.895,2.747,0.005,-0.012,0.986,0.000,0.000,0.000,0.3210,3,0,-1.25,2.01,3.59,0.5310,-0.0240,0.3182,0.0864,0.1665,0.3000,0.2605,-19.24,25.00,36.23,0.5910,0.0400,1.2110,1.2630,2.3780,0,0.0633,-0.0107,0.0000,0.4904,-0.0318,0
19054,0.4091,-0.0847,0.3196,0.0256,-0.0099,-0.0057,-0.92,1.45,-1.08,0,3.273,-1.886,-2.945,2.879,0.006,-0.013,0.992,0.000,0.000,0.000,0.3210,-2,-1,-1.41,1.93,3.69,0.5317,-0.0335,0.3185,0.0827,0.1674,0.3000,0.2616,-18.64,25.00,32.26,0.5910,0.0400,1.2190,1.2450,2.3790,0,0.0633,-0.0107,0.0000,0.4904,-0.0318,0
19104,0.4104,-0.0856,0.3200,0.0144,-0.0033,-0.0068,-1.04,1.64,-0.91,0,3.267,2.316,-4.304,3.737,0.006,-0.017,0.991,0.000,0.000,0.000,0.3170,-4,0,-1.56,2.07,3.90,0.5346,-0.0268,0.3187,0.0790,0.1682,0.3000,0.2616,-18.42,25.00,27.44,0.5880,0.0400,1.2190,1.2450,2.3790,0,0.0633,-0.0107,0.0000,0.4904,-0.0318,0
19156,0.4114,-0.0924,0.3211,0.0022,-0.0139,-0.0043,-0.90,1.77,-0.72,0,3.267,-2.343,4.290,4.924,0.007,-0.012,0.994,0.000,0.000,0.000,0.3170,-3,1,-1.53,2.28,4.19,0.5340,-0.0139,0.3171,0.0752,0.1690,0.3000,0.2611,-19.34,25.00,21.68,0.5880,0.0410,1.2210,1.2430,2.3720,0,0.0633,-0.0107,0.0000,0.4904,-0.0318,0
19207,0.4131,-0.0927,0.3188,-0.0070,-0.0052,-0.0167,-1.09,1.53,-0.48,0,3.267,-8.244,1.619,3.735,0.009,-0.015,0.994,0.000,0.000,0.000,0.3190,-3,0,-1.71,2.07,4.50,0.5303,-0.0043,0.3156,0.0715,0.1698,0.3000,0.2629,-18.87,25.00,14.37,0.5860,0.0410,1.2210,1.2430,2.3720,0,0.0633,-0.0107,0.0000,0.4904,-0.0318,0
19258,0.4127,-0.0923,0.3186,-0.0190,0.0052,-0.0163,-1.35,1.44,-0.31,0,3.267,0.760,1.173,1.046,0.005,-0.017,0.999,0.000,0.000,0.000,0.3190,0,1,-2.17,1.98,4.75,0.5297,0.0055,0.3151,0.0677,0.1705,0.3000,0.2629,-18.40,24.95,9.42,0.5860,0.0390,1.2230,1.2460,2.3740,0,0.0633,-0.0107,0.0000,0.4904,-0.0318,0
19309,0.4132,-0.0909,0.3180,-0.0265,0.0189,-0.0160,-1.28,1.36,-0.25,0,3.262,6.635,2.844,-0.650,0.006,-0.018,0.995,0.000,0.000,0.000,0.3110,-5,1,-2.10,1.93,4.74,0.5264,0.0049,0.3153,0.0639,0.1711,0.3000,0.2630,-17.71,24.92,7.40,0.5920,0.0390,1.2230,1.2460,2.3740,0,0.0633,-0.0107,0.0000,0.4904,-0.0318,0
19360,0.4129,-0.0932,0.3158,-0.0342,0.0203,-0.0235,-0.96,1.15,-0.27,0,3.262,0.858,2.809,-2.431,0.007,-0.017,1.005,0.000,0.000,0.000,0.3110,5,1,-1.83,1.78,4.81,0.5223,0.0211,0.3122,0.0601,0.1717,0.3000,0.2642,-17.72,24.73,8.19,0.5920,0.0380,1.2230,1.2450,2.3850,0,0.0633,-0.0107,0.0000,0.4904,-0.0318,0
19412,0.4119,-0.0893,0.3122,-0.0413,0.0361,-0.0331,-0.86,0.99,-0.36,0,3.262,1.905,3.824,-1.839,0.002,-0.015,1.009,0.000,0.000,0.000,0.3130,3,1,-1.64,1.65,4.45,0.5199,0.0033,0.3120,0.0563,0.1722,0.3000,0.2659,-16.68,24.48,10.76,0.5880,0.0380,1.2230,1.2450,2.3850,0,0.0633,-0.0107,0.0000,0.4904,-0.0318,0
19463,0.4104,-0.0910,0.3138,-0.0472,0.0348,-0.0156,-0.82,0.81,-0.44,0,3.262,5.124,5.035,-2.413,0.008,-0.016,1.008,0.000,0.000,0.000,0.3130,0,1,-1.46,1.45,4.22,0.5174,-0.0075,0.3116,0.0525,0.1726,0.3000,0.2637,-16.96,24.58,13.09,0.5880,0.0360,1.2190,1.2290,2.3910,0,0.0633,-0.0107,0.0000,0.4904,-0.0318,0
19514,0.4093,-0.0912,0.3127,-0.0499,0.0365,-0.0140,-0.59,0.51,-0.56,0,3.267,3.914,2.806,-2.568,0.010,-0.019,1.008,0.000,0.000,0.000,0.3080,9,1,-1.19,1.19,4.09,0.5143,-0.0077,0.3115,0.0487,0.1730,0.3000,0.2637,-16.87,24.64,16.66,0.5890,0.0360,1.2190,1.2290,2.3910,0,0.0633,-0.0107,0.0000,0.4904,-0.0318,0
19566,0.4076,-0.0872,0.3123,-0.0514,0.0471,-0.0090,-0.39,0.34,-0.68,0,3.262,0.282,3.734,-1.833,0.008,-0.022,1.008,0.000,0.000,0.000,0.3080,0,2,-0.81,1.04,3.70,0.5129,-0.0384,0.3100,0.0448,0.1733,0.3000,0.2633,-16.16,24.75,20.40,0.5890,0.0380,1.2230,1.2130,2.3880,0,0.0633,-0.0107,0.0000,0.4904,-0.0318,0
19618,0.4055,-0.0898,0.3098,-0.0525,0.0386,-0.0152,-0.62,0.00,-0.81,0,3.262,4.071,4.723,-1.703,0.008,-0.018,1.010,0.000,0.000,0.000,0.3100,2,1,-0.82,0.86,3.63,0.5067,-0.0384,0.3093,0.0408,0.1736,0.3000,0.2644,-16.60,24.73,24.32,0.5930,0.0380,1.2230,1.2130,2.3880,0,0.0633,-0.0107,0.0000,0.4904,-0.0318,0
19670,0.4045,-0.0678,0.3083,-0.0482,0.0925,-0.0144,-0.39,-0.17,-0.88,0,3.262,25.809,-0.955,-0.128,0.008,-0.019,1.009,0.000,0.000,0.000,0.3100,-32,0,-0.60,0.60,3.53,0.5040,-0.0449,0.3095,0.0370,0.1738,0.3000,0.2646,-12.76,25.00,26.49,0.5930,0.0340,1.2190,1.2170,2.3890,0,0.0633,-0.0107,0.0000,0.4904,-0.0318,0
19721,0.4033,-0.0708,0.3086,-0.0434,0.0747,-0.0049,0.44,-0.20,-0.92,0,3.257,11.296,-2.072,0.972,0.009,-0.019,1.004,0.000,0.000,0.000,0.3080,2,0,0.13,0.63,4.12,0.4982,0.0607,0.3158,0.0332,0.1740,0.3000,0.2635,-13.76,25.00,27.49,0.5990,0.0340,1.2190,1.2170,2.3890,0,0.0633,-0.0107,0.0000,0.4904,-0.0318,0
19772,0.4032,-0.0511,0.3076,-0.0370,0.1078,-0.0054,1.25,-0.12,-0.88,0,3.262,14.299,-1.293,0.837,0.009,-0.020,1.006,0.000,0.000,0.000,0.3080,-4,1,0.82,0.71,4.09,0.4985,0.0537,0.3176,0.0294,0.1741,0.3000,0.2638,-10.89,25.00,26.38,0.5990,0.0370,1.2170,1.2010,2.3910,0,0.0633,-0.0107,0.0000,0.4904,-0.0318,0
19823,0.4026,-0.0475,0.3076,-0.0331,0.0926,-0.0013,2.02,-0.06,-0.85,0,3.262,9.881,0.676,-0.091,0.002,-0.022,0.999,0.000,0.000,0.000,0.3110,1,0,1.53,0.78,4.14,0.4947,0.0658,0.3158,0.0255,0.1741,0.3000,0.2633,-11.31,25.00,25.55,0.6020,0.0370,1.2170,1.2010,2.3910,0,0.0633,-0.0107,0.0000,0.4904,-0.0318,0
19874,0.4014,-0.0470,0.3084,-0.0319,0.0653,0.0036,2.55,-0.03,-0.83,0,3.267,-1.234,0.340,0.279,0.010,-0.019,1.002,0.000,0.000,0.000,0.3110,0,0,2.11,0.72,4.08,0.4949,0.0623,0.3158,0.0217,0.1741,0.3000,0.2627,-12.47,25.00,24.99,0.6020,0.0370,1.2180,1.1440,2.3850,0,0.0633,-0.0107,0.0000,0.4904,-0.0318,0
19925,0.4002,-0.0469,0.3099,-0.0308,0.0372,0.0092,2.55,-0.05,-0.82,0,3.262,-4.147,-3.246,0.312,0.005,-0.019,1.001,0.000,0.000,0.000,0.3120,0,0,2.04,0.70,4.10,0.4917,0.0672,0.3151,0.0179,0.1740,0.3000,0.2618,-13.72,25.00,24.73,0.5970,0.0370,1.2180,1.1440,2.3850,0,0.0633,-0.0107,0.0000,0.4904,-0.0318,0
19975,0.3999,-0.0464,0.3098,-0.0276,0.0135,0.0068,2.41,0.03,-0.80,0,3.267,-4.331,-3.198,2.628,0.011,-0.009,1.004,0.000,0.000,0.000,0.3120,3,-1,1.83,0.87,4.11,0.4885,0.0706,0.3147,0.0141,0.1739,0.3000,0.2620,-14.66,25.00,24.08,0.5970,0.0390,1.2220,0.0000,2.3930,0,0.0633,-0.0107,0.0000,0.4904,-0.0318,0
20027,0.3989,-0.0486,0.3113,-0.0274,-0.0123,0.0115,2.18,0.16,-0.70,0,3.262,-9.235,-1.285,3.140,0.007,-0.014,0.996,0.000,0.000,0.000,0.3080,-4,0,1.75,0.92,3.99,0.5051,0.0477,0.3148,0.0103,0.1737,0.3000,0.2613,-15.92,25.00,20.96,0.5830,0.0390,1.2220,0.0000,2.3930,0,0.0633,-0.0107,0.0000,0.4904,-0.0318,0
20078,0.3995,-0.0511,0.3116,-0.0245,-0.0334,0.0097,1.75,0.23,-0.55,0,3.262,-14.617,-2.975,1.093,0.006,-0.010,1.001,0.000,0.000,0.000,0.3080,-6,-2,1.21,0.99,4.17,0.5046,0.0536,0.3138,0.0064,0.1734,0.3000,0.2614,-16.93,25.00,16.47,0.5830,0.0380,1.2330,1.1440,2.3890,0,0.0633,-0.0107,0.0000,0.4904,-0.0318,0
20129,0.3985,-0.0505,0.3103,-0.0263,-0.0414,0.0005,1.08,0.42,-0.49,0,3.257,-4.936,-1.311,-0.665,0.006,-0.013,0.997,0.000,0.000,0.000,0.3060,0,1,0.38,1.12,4.19,0.5072,0.0642,0.3126,0.0026,0.1731,0.3000,0.2626,-17.09,25.00,14.73,0.5740,0.0380,1.2330,1.1440,2.3890,0,0.0633,-0.0107,0.0000,0.4904,-0.0318,0
20181,0.3992,-0.0716,0.3101,-0.0255,-0.0962,-0.0013,1.03,0.55,-0.47,0,3.257,-25.157,-0.312,0.214,0.006,-0.020,0.998,0.000,0.000,0.000,0.3060,2,0,0.13,1.20,4.19,0.5053,0.0643,0.3105,-0.0013,0.1727,0.3000,0.2629,-20.64,25.00,14.05,0.5740,0.0350,1.2390,0.0000,2.3950,0,0.0633,-0.0107,0.0000,0.4904,-0.0318,0
20232,0.3971,-0.0822,0.3079,-0.0317,-0.1164,-0.0115,-0.06,0.55,-0.49,0,3.257,-32.085,-0.924,-0.765,0.005,-0.013,1.007,0.000,0.000,0.000,0.3060,-1,0,-1.15,1.21,4.17,0.5055,0.0596,0.3087,-0.0050,0.1723,0.3000,0.2644,-21.93,25.00,14.56,0.5590,0.0350,1.2390,0.0000,2.3950,0,0.0633,-0.0107,0.0000,0.4904,-0.0318,0
20283,0.3965,-0.0885,0.3053,-0.0339,-0.1146,-0.0183,-1.70,0.51,-0.50,0,3.257,-13.679,0.589,0.155,0.003,-0.011,1.013,0.000,0.000,0.000,0.3060,-3,0,-2.80,1.25,4.14,0.5051,0.0617,0.3073,-0.0089,0.1718,0.3000,0.2656,-22.07,25.00,14.87,0.5590,0.0370,1.2510,1.2220,2.3910,0,0.0633,-0.0107,0.0000,0.4904,-0.0318,0
20334,0.3959,-0.0913,0.3049,-0.0356,-0.0930,-0.0116,-2.62,0.48,-0.49,0,3.257,-4.953,2.548,-0.659,0.004,-0.017,1.009,0.000,0.000,0.000,0.3090,1,0,-3.55,1.21,4.17,0.5043,0.0692,0.3063,-0.0127,0.1713,0.3000,0.2650,-21.34,25.00,14.72,0.5540,0.0370,1.2510,1.2220,2.3910,0,0.0633,-0.0107,0.0000,0.4904,-0.0318,0
20385,0.3962,-0.0847,0.3061,-0.0344,-0.0459,-0.0001,-3.21,0.33,-0.54,0,3.262,1.599,2.436,-0.930,0.008,-0.009,1.011,0.000,0.000,0.000,0.3090,-2,1,-3.77,1.07,4.11,0.5041,0.0671,0.3074,-0.0164,0.1706,0.3000,0.2635,-19.01,25.00,16.27,0.5540,0.0350,1.2630,1.2600,2.3930,0,0.0633,-0.0107,0.0000,0.4904,-0.0318,0
20436,0.3943,-0.0677,0.3076,-0.0370,0.0219,0.0088,-3.22,0.14,-0.61,0,3.262,26.155,2.745,-0.220,0.005,-0.013,1.008,0.000,0.000,0.000,0.3070,0,0,-3.70,0.96,4.05,0.5008,0.0727,0.3080,-0.0202,0.1700,0.3000,0.2622,-14.98,25.00,18.15,0.5490,0.0350,1.2630,1.2600,2.3930,0,0.0633,-0.0107,0.0000,0.4904,-0.0318,0
20487,0.3924,-0.0681,0.3078,-0.0378,0.0430,0.0110,-2.02,0.03,-0.63,0,3.262,13.673,2.701,-0.134,0.000,-0.027,1.001,0.000,0.000,0.000,0.3070,-5,1,-2.36,0.82,4.04,0.4982,0.0779,0.3082,-0.0239,0.1693,0.3000,0.2620,-13.99,25.00,18.84,0.5490,0.0340,1.2700,1.2240,2.3940,0,0.0633,-0.0107,0.0000,0.4904,-0.0318,0
20538,0.3901,-0.0745,0.3080,-0.0385,0.0388,0.0106,-1.27,-0.13,-0.60,0,3.262,0.422,-12.054,0.944,0.013,-0.020,1.004,0.000,0.000,0.000,0.3100,-4,-2,-1.70,0.67,4.07,0.4977,0.0890,0.3081,-0.0277,0.1685,0.3000,0.2620,-14.50,25.00,17.88,0.5510,0.0340,1.2700,1.2240,2.3940,0,0.0633,-0.0107,0.0000,0.4904,-0.0318,0
20589,0.3873,-0.0738,0.3090,-0.0393,0.0448,0.0133,-1.06,0.33,-0.50,0,3.262,8.401,-43.363,2.085,0.003,-0.016,1.000,0.000,0.000,0.000,0.3100,0,-6,-1.70,1.24,4.21,0.5006,0.1004,0.3090,-0.0314,0.1676,0.3000,0.2615,-14.11,25.00,14.86,0.5510,0.0340,1.2730,1.1970,2.3850,0,0.0633,-0.0107,0.0000,0.4904,-0.0318,0
20640,0.3845,-0.0754,0.3102,-0.0473,0.0445,0.0157,-0.71,2.33,-0.35,0,3.257,-0.672,-10.199,3.285,-0.002,-0.021,0.998,0.000,0.000,0.000,0.3090,0,0,-1.25,3.35,4.51,0.5140,0.1041,0.3111,-0.0351,0.1668,0.3000,0.2610,-14.14,25.00,10.55,0.5560,0.0340,1.2730,1.1970,2.3850,0,0.0633,-0.0107,0.0000,0.4904,-0.0318,0
20691,0.3858,-0.0757,0.3103,-0.0602,0.0445,0.0105,-0.73,3.10,-0.17,0,3.262,-4.780,46.618,2.973,0.005,-0.017,1.000,0.000,0.000,0.000,0.3090,4,7,-1.29,3.86,4.69,0.5136,0.1109,0.3112,-0.0389,0.1658,0.3000,0.2616,-14.02,25.00,5.16,0.5560,0.0340,1.2730,1.1850,2.3830,0,0.0633,-0.0107,0.0000,0.4904,-0.0318,0
20742,0.3846,-0.0772,0.3102,-0.0785,0.0426,0.0079,-1.18,1.19,-0.03,0,3.262,-0.641,28.015,2.064,0.008,-0.012,0.999,0.000,0.000,0.000,0.3110,3,2,-1.31,1.64,4.26,0.4909,0.0820,0.3128,-0.0425,0.1648,0.3000,0.2619,-14.07,25.00,0.96,0.5620,0.0340,1.2730,1.1850,2.3830,0,0.0633,-0.0107,0.0000,0.4904,-0.0318,0
20793,0.3774,-0.0580,0.3093,-0.0920,0.0893,0.0027,-1.20,-0.42,0.05,0,3.257,10.565,4.832,2.451,0.007,-0.019,0.996,0.000,0.000,0.000,0.3110,0,0,-1.30,0.21,4.26,0.4851,0.0754,0.3129,-0.0462,0.1637,0.3000,0.2626,-10.53,25.00,-1.65,0.5620,0.0340,1.2750,1.2020,2.3860,0,0.0633,-0.0107,0.0000,0.4904,-0.0318,0
20844,0.3730,-0.0595,0.3103,-0.0879,0.0859,0.0054,-0.75,-0.73,0.14,0,3.262,2.293,15.729,2.311,0.002,-0.014,0.993,0.000,0.000,0.000,0.3080,-1,3,-0.76,-0.04,4.38,0.4787,0.0746,0.3130,-0.0499,0.1626,0.3000,0.2621,-10.67,25.00,-4.35,0.5730,0.0340,1.2750,1.2020,2.3860,0,0.0633,-0.0107,0.0000,0.4904,-0.0318,0
20896,0.3688,-0.0588,0.3114,-0.0805,0.0832,0.0063,-0.55,-1.42,0.26,0,3.262,-0.506,12.389,2.040,0.009,-0.013,0.998,0.000,0.000,0.000,0.3080,-2,0,-0.67,-0.87,4.53,0.4759,0.0784,0.3122,-0.0536,0.1614,0.3000,0.2618,-10.63,25.00,-7.87,0.5730,0.0290,1.2760,1.1950,2.3890,0,0.0633,-0.0107,0.0000,0.4904,-0.0318,0
20948,0.3640,-0.0598,0.3100,-0.0696,0.0759,-0.0027,-0.56,-2.10,0.37,0,3.262,2.561,0.160,2.319,0.009,-0.012,1.000,0.000,0.000,0.000,0.3120,1,1,-0.72,-1.54,4.64,0.4738,0.0823,0.3111,-0.0573,0.1601,0.3000,0.2630,-10.84,25.00,-11.06,0.5820,0.0290,1.2760,1.1950,2.3890,0,0.0633,-0.0107,0.0000,0.4904,-0.0318,0
21001,0.3607,-0.0525,0.3114,-0.0522,0.0881,0.0039,-0.40,-2.21,0.49,0,3.262,0.943,-5.569,2.536,-0.001,-0.014,1.003,0.000,0.000,0.000,0.3120,0,0,-0.56,-1.55,4.78,0.4707,0.0805,0.3114,-0.0610,0.1588,0.3000,0.2621,-9.68,25.00,-14.69,0.5820,0.0260,1.2720,1.2020,2.3930,0,0.0633,-0.0107,0.0000,0.4904,-0.0318,0
