time_ms,pos_x,pos_y,pos_z,vel_x,vel_y,vel_z,roll,pitch,yaw,thrust,vbat,gyro_x,gyro_y,gyro_z,acc_x,acc_y,acc_z,rate_roll,rate_pitch,rate_yaw,range_z,flow_dx,flow_dy,mekf_roll,mekf_pitch,mekf_yaw,mekf_x,mekf_y,mekf_z
0,-1.3803,0.0065,0.0080,0.0031,-0.0099,-0.0011,-1.07,0.40,-43.82,0,4.028,-0.105,0.045,0.078,0.011,-0.020,1.000,0.000,0.000,0.000,0.0100,-4,8,0.00,0.00,0.00,0.0000,0.0000,0.0000
102,-1.3803,0.0064,0.0089,0.0033,-0.0096,0.0039,-1.06,0.41,-43.60,0,4.038,0.140,0.285,0.008,0.010,-0.022,0.998,0.000,0.000,0.000,0.0070,-5,8,0.00,0.00,0.00,0.0000,0.0000,0.0000
203,-1.3805,0.0062,0.0082,0.0018,-0.0109,-0.0008,-1.07,0.40,-43.39,0,4.028,0.149,0.002,0.078,0.012,-0.017,1.000,0.000,0.000,0.000,0.0080,-4,-1,0.00,0.00,0.00,0.0000,0.0000,0.0000
304,-1.3813,0.0057,0.0082,-0.0020,-0.0135,-0.0005,-1.09,0.48,-43.18,0,4.033,0.359,0.167,0.008,0.011,-0.021,1.001,0.000,0.000,0.000,0.0070,7,-1,0.00,0.00,0.00,0.0000,0.0000,0.0000
405,-1.3800,0.0072,0.0077,0.0049,-0.0066,-0.0023,-1.03,0.41,-42.97,0,4.022,0.295,-0.040,-0.065,0.011,-0.021,1.000,0.000,0.000,0.000,0.0100,-4,2,0.00,0.00,0.00,0.0000,0.0000,0.0000
506,-1.3807,0.0062,0.0088,0.0015,-0.0112,0.0037,-1.09,0.43,-42.76,0,4.038,0.046,0.339,0.016,0.011,-0.019,1.001,0.000,0.000,0.000,0.0090,4,-1,0.00,0.00,0.00,0.0000,0.0000,0.0000
607,-1.3807,0.0065,0.0090,0.0014,-0.0097,0.0042,-1.07,0.41,-42.55,0,4.028,-0.141,0.137,-0.034,0.010,-0.020,0.999,0.000,0.000,0.000,0.0110,2,2,0.00,0.00,0.00,0.0000,0.0000,0.0000
708,-1.3797,0.0073,0.0102,0.0073,-0.0046,0.0088,-1.04,0.42,-42.34,0,4.038,0.230,0.188,-0.066,0.011,-0.021,1.001,0.000,0.000,0.000,0.0080,-1,2,0.00,0.00,0.00,0.0000,0.0000,0.0000
810,-1.3803,0.0067,0.0096,0.0042,-0.0076,0.0043,-1.01,0.42,-42.14,0,4.028,-0.056,0.159,-0.083,0.009,-0.019,0.998,0.000,0.000,0.000,0.0090,0,-1,0.00,0.00,0.00,0.0000,0.0000,0.0000
912,-1.3804,0.0068,0.0095,0.0036,-0.0063,0.0030,-1.06,0.42,-41.93,0,4.038,-0.186,-0.189,-0.023,0.009,-0.019,0.999,0.000,0.000,0.000,0.0060,3,-8,0.00,0.00,0.00,0.0000,0.0000,0.0000
1012,-1.3810,0.0084,0.0080,-0.0001,0.0021,-0.0050,-1.05,0.42,-41.73,0,4.028,-0.101,0.236,0.021,0.012,-0.021,1.001,0.000,0.000,0.000,0.0050,0,0,0.00,0.00,0.00,0.0000,0.0000,0.0000
1113,-1.3799,0.0074,0.0064,0.0056,-0.0039,-0.0111,-1.05,0.41,-41.52,0,4.038,0.086,0.197,0.315,0.010,-0.018,1.000,0.000,0.000,0.000,0.0100,-1,4,0.00,0.00,0.00,0.0000,0.0000,0.0000
1214,-1.3802,0.0065,0.0077,0.0034,-0.0084,-0.0029,-1.07,0.45,-41.31,0,4.022,0.044,-0.226,0.126,0.009,-0.023,1.001,0.000,0.000,0.000,0.0080,2,-8,0.00,0.00,0.00,0.0000,0.0000,0.0000
1315,-1.3810,0.0083,0.0077,-0.0010,0.0009,-0.0013,-1.05,0.45,-41.11,0,4.033,0.043,-0.216,0.288,0.010,-0.020,0.998,0.000,0.000,0.000,0.0080,-3,-7,0.00,0.00,0.00,0.0000,0.0000,0.0000
1416,-1.3822,0.0068,0.0078,-0.0073,-0.0072,-0.0011,-1.07,0.45,-40.91,0,4.028,-0.052,0.055,-0.109,0.009,-0.017,1.002,0.000,0.000,0.000,0.0070,1,0,0.00,0.00,0.00,0.0000,0.0000,0.0000
1517,-1.3782,0.0089,0.0075,0.0153,0.0042,-0.0020,-1.18,0.44,-40.71,0,4.033,0.067,-0.052,-0.096,0.006,-0.023,0.999,0.000,0.000,0.000,0.0120,0,-1,0.00,0.00,0.00,0.0000,0.0000,0.0000
1568,-1.3783,0.0088,0.0095,0.0119,0.0013,0.0078,-1.15,0.41,-40.51,0,4.022,0.226,-0.001,0.123,0.011,-0.020,1.000,0.000,0.000,0.000,0.0110,1,-1,0.00,0.00,0.00,0.0000,0.0000,0.0000
1619,-1.3781,0.0090,0.0105,0.0109,0.0012,0.0103,-1.15,0.43,-40.31,0,4.038,-0.027,0.039,0.024,0.008,-0.020,0.999,0.000,0.000,0.000,0.0080,0,-1,0.00,0.00,0.00,0.0000,0.0000,0.0000
1670,-1.3781,0.0088,0.0098,0.0081,-0.0012,0.0044,-1.09,0.39,-40.12,0,4.022,0.189,0.106,-0.049,0.009,-0.021,1.002,0.000,0.000,0.000,0.0090,0,0,0.00,0.00,0.00,0.0000,0.0000,0.0000
1721,-1.3776,0.0077,0.0096,0.0089,-0.0070,0.0026,-1.09,0.44,-39.92,0,4.033,0.024,0.192,-0.080,0.011,-0.023,0.999,0.000,0.000,0.000,0.0070,0,5,0.00,0.00,0.00,0.0000,0.0000,0.0000
1772,-1.3774,0.0078,0.0085,0.0086,-0.0067,-0.0030,-1.05,0.44,-39.73,0,4.028,0.028,0.010,0.223,0.009,-0.019,1.001,0.000,0.000,0.000,0.0100,-2,-2,0.00,0.00,0.00,0.0000,0.0000,0.0000
1823,-1.3782,0.0090,0.0091,0.0033,-0.0009,0.0012,-1.08,0.43,-39.53,0,4.033,0.075,-0.075,0.092,0.011,-0.020,1.003,0.000,0.000,0.000,0.0080,4,0,0.00,0.00,0.00,0.0000,0.0000,0.0000
1874,-1.3775,0.0087,0.0087,0.0057,-0.0033,-0.0009,-1.02,0.44,-39.34,0,4.022,0.081,-0.289,-0.011,0.011,-0.021,1.000,0.000,0.000,0.000,0.0090,0,0,0.00,0.00,0.00,0.0000,0.0000,0.0000
1926,-1.3780,0.0088,0.0089,0.0028,-0.0027,0.0004,-1.03,0.44,-39.15,0,4.033,0.072,0.098,-0.042,0.011,-0.021,1.000,0.000,0.000,0.000,0.0090,-2,0,0.00,0.00,0.00,0.0000,0.0000,0.0000
1977,-1.3774,0.0077,0.0090,0.0059,-0.0094,0.0016,-1.06,0.44,-38.96,0,4.022,0.079,0.253,0.094,0.007,-0.019,0.999,0.000,0.000,0.000,0.0090,0,0,0.00,0.00,0.00,0.0000,0.0000,0.0000
2028,-1.3810,0.0065,0.0091,-0.0132,-0.0148,0.0021,-0.88,0.49,-38.76,0,4.038,0.416,0.016,-0.029,0.009,-0.021,1.000,0.000,0.000,0.000,0.0080,3,0,0.00,0.00,0.00,0.0000,0.0000,0.0000
2079,-1.3796,0.0068,0.0088,-0.0032,-0.0105,0.0002,-0.90,0.45,-38.57,0,4.028,-0.163,0.377,0.368,0.009,-0.022,0.999,0.000,0.000,0.000,0.0070,1,0,0.00,0.00,0.00,0.0000,0.0000,0.0000
2130,-1.3823,0.0063,0.0079,-0.0162,-0.0118,-0.0035,-1.00,0.44,-38.38,0,4.033,0.254,0.034,-0.262,0.009,-0.020,0.998,0.000,0.000,0.000,0.0110,0,-1,0.00,0.00,0.00,0.0000,0.0000,0.0000
2181,-1.3811,0.0054,0.0093,-0.0078,-0.0152,0.0035,-0.95,0.50,-38.19,0,4.022,0.109,0.012,-0.019,0.010,-0.019,1.002,0.000,0.000,0.000,0.0070,8,-8,0.00,0.00,0.00,0.0000,0.0000,0.0000
2232,-1.3812,0.0077,0.0084,-0.0063,-0.0016,-0.0020,-1.05,0.43,-38.00,0,4.033,0.169,0.235,-0.286,0.011,-0.020,1.000,0.000,0.000,0.000,0.0070,-6,1,0.00,0.00,0.00,0.0000,0.0000,0.0000
2284,-1.3808,0.0053,0.0078,-0.0029,-0.0145,-0.0040,-1.00,0.44,-37.82,0,4.028,0.297,0.014,-0.314,0.011,-0.021,1.001,0.000,0.000,0.000,0.0090,3,1,0.00,0.00,0.00,0.0000,0.0000,0.0000
2336,-1.3801,0.0069,0.0083,0.0017,-0.0053,-0.0005,-1.01,0.46,-37.63,0,4.033,0.279,-0.086,-0.037,0.010,-0.019,1.000,0.000,0.000,0.000,0.0090,0,2,0.00,0.00,0.00,0.0000,0.0000,0.0000
2388,-1.3797,0.0068,0.0086,0.0046,-0.0046,0.0017,-1.01,0.50,-37.45,0,4.022,-0.200,0.017,0.069,0.011,-0.021,1.001,0.000,0.000,0.000,0.0100,-6,0,0.00,0.00,0.00,0.0000,0.0000,0.0000
2439,-1.3810,0.0051,0.0094,-0.0017,-0.0135,0.0052,-1.04,0.43,-37.27,0,4.033,0.006,0.105,-0.125,0.008,-0.022,1.001,0.000,0.000,0.000,0.0080,-6,3,0.00,0.00,0.00,0.0000,0.0000,0.0000
2490,-1.3810,0.0054,0.0090,-0.0009,-0.0114,0.0031,-1.11,0.46,-37.09,0,4.022,0.064,0.150,0.125,0.012,-0.021,1.000,0.000,0.000,0.000,0.0090,3,0,0.00,0.00,0.00,0.0000,0.0000,0.0000
2541,-1.3803,0.0070,0.0091,0.0030,-0.0029,0.0026,-1.03,0.42,-36.90,0,4.033,0.024,0.235,-0.117,0.013,-0.021,0.999,0.000,0.000,0.000,0.0070,0,9,0.00,0.00,0.00,0.0000,0.0000,0.0000
2592,-1.3808,0.0047,0.0083,0.0006,-0.0153,-0.0017,-1.00,0.50,-36.72,0,4.022,0.256,-0.003,0.091,0.011,-0.020,1.001,0.000,0.000,0.000,0.0060,3,7,0.00,0.00,0.00,0.0000,0.0000,0.0000
2643,-1.3801,0.0061,0.0072,0.0058,-0.0066,-0.0067,-1.15,0.49,-36.54,0,4.033,0.007,0.003,0.049,0.009,-0.021,1.002,0.000,0.000,0.000,0.0090,-10,-1,0.00,0.00,0.00,0.0000,0.0000,0.0000
2694,-1.3805,0.0051,0.0079,0.0033,-0.0121,-0.0015,-1.02,0.41,-36.36,0,4.022,0.056,0.100,-0.000,0.011,-0.020,0.999,0.000,0.000,0.000,0.0090,-6,0,0.00,0.00,0.00,0.0000,0.0000,0.0000
2745,-1.3814,0.0053,0.0084,-0.0019,-0.0105,0.0022,-1.12,0.43,-36.18,0,4.033,-0.135,-0.038,0.370,0.011,-0.019,1.001,0.000,0.000,0.000,0.0050,3,2,0.00,0.00,0.00,0.0000,0.0000,0.0000
2796,-1.3798,0.0062,0.0070,0.0056,-0.0057,-0.0047,-1.04,0.44,-36.00,0,4.022,0.075,0.245,0.060,0.008,-0.020,1.000,0.000,0.000,0.000,0.0080,4,3,0.00,0.00,0.00,0.0000,0.0000,0.0000
2847,-1.3795,0.0066,0.0073,0.0061,-0.0031,-0.0021,-1.02,0.43,-35.82,0,4.033,-0.155,0.027,0.275,0.009,-0.022,0.998,0.000,0.000,0.000,0.0090,-14,-3,0.00,0.00,0.00,0.0000,0.0000,0.0000
2898,-1.3819,0.0042,0.0081,-0.0063,-0.0164,0.0020,-1.04,0.47,-35.64,0,4.022,0.135,0.233,-0.081,0.011,-0.021,1.001,0.000,0.000,0.000,0.0080,0,0,0.00,0.00,0.00,0.0000,0.0000,0.0000
2949,-1.3810,0.0063,0.0082,-0.0010,-0.0047,0.0019,-1.11,0.44,-35.47,0,4.033,0.212,0.423,0.117,0.010,-0.022,1.001,0.000,0.000,0.000,0.0080,1,0,0.00,0.00,0.00,0.0000,0.0000,0.0000
3000,-1.3808,0.0050,0.0082,-0.0003,-0.0119,0.0016,-1.04,0.52,-35.29,0,4.022,-0.061,0.396,-0.050,0.007,-0.020,1.002,0.000,0.000,0.000,0.0090,-3,1,0.00,0.00,0.00,0.0000,0.0000,0.0000
3053,-1.3802,0.0057,0.0086,0.0027,-0.0062,0.0037,-0.99,0.52,-35.12,0,4.033,0.015,0.174,0.013,0.011,-0.019,0.998,0.000,0.000,0.000,0.0100,0,5,0.00,0.00,0.00,0.0000,0.0000,0.0000
3104,-1.3803,0.0068,0.0095,0.0027,-0.0006,0.0066,-1.04,0.45,-34.95,0,4.022,0.229,0.244,0.385,0.010,-0.019,0.999,0.000,0.000,0.000,0.0090,-3,-1,0.00,0.00,0.00,0.0000,0.0000,0.0000
3155,-1.3805,0.0062,0.0095,0.0019,-0.0046,0.0052,-1.09,0.43,-34.77,0,4.033,-0.417,0.083,0.044,0.009,-0.020,0.999,0.000,0.000,0.000,0.0080,3,1,0.00,0.00,0.00,0.0000,0.0000,0.0000
3206,-1.3782,0.0084,0.0091,0.0137,0.0081,0.0021,-1.21,0.48,-34.60,0,4.028,-0.157,-0.094,0.136,0.009,-0.020,0.997,0.000,0.000,0.000,0.0110,2,3,0.00,0.00,0.00,0.0000,0.0000,0.0000
3257,-1.3779,0.0091,0.0100,0.0138,0.0100,0.0062,-1.20,0.48,-34.43,0,4.033,0.077,-0.105,-0.098,0.007,-0.021,1.000,0.000,0.000,0.000,0.0070,-5,3,0.00,0.00,0.00,0.0000,0.0000,0.0000
3308,-1.3784,0.0079,0.0090,0.0094,0.0013,-0.0005,-1.15,0.47,-34.25,0,4.022,0.150,0.062,-0.002,0.010,-0.022,0.999,0.000,0.000,0.000,0.0060,2,0,0.00,0.00,0.00,0.0000,0.0000,0.0000
3359,-1.3775,0.0087,0.0076,0.0121,0.0040,-0.0068,-1.16,0.46,-34.09,0,4.033,0.338,0.010,0.111,0.009,-0.021,0.999,0.000,0.000,0.000,0.0100,-1,0,0.00,0.00,0.00,0.0000,0.0000,0.0000
3410,-1.3789,0.0086,0.0085,0.0025,0.0018,-0.0007,-1.13,0.48,-33.92,0,4.022,0.332,0.073,-0.191,0.010,-0.020,1.001,0.000,0.000,0.000,0.0070,-4,3,0.00,0.00,0.00,0.0000,0.0000,0.0000
3461,-1.3782,0.0081,0.0078,0.0058,-0.0027,-0.0039,-1.10,0.48,-33.76,0,4.033,-0.081,0.159,0.117,0.009,-0.019,1.001,0.000,0.000,0.000,0.0090,-3,1,0.00,0.00,0.00,0.0000,0.0000,0.0000
3512,-1.3785,0.0088,0.0082,0.0035,0.0004,-0.0008,-1.07,0.49,-33.58,0,4.022,0.122,-0.018,-0.014,0.014,-0.021,1.000,0.000,0.000,0.000,0.0080,0,-3,0.00,0.00,0.00,0.0000,0.0000,0.0000
3564,-1.3787,0.0086,0.0081,0.0020,-0.0017,-0.0011,-1.08,0.49,-33.42,0,4.033,0.005,0.056,0.047,0.009,-0.018,1.001,0.000,0.000,0.000,0.0070,0,0,0.00,0.00,0.00,0.0000,0.0000,0.0000
3615,-1.3779,0.0086,0.0076,0.0058,-0.0030,-0.0032,-1.06,0.45,-33.26,0,4.022,0.048,-0.030,0.202,0.011,-0.020,0.999,0.000,0.000,0.000,0.0100,1,-3,0.00,0.00,0.00,0.0000,0.0000,0.0000
3666,-1.3784,0.0089,0.0086,0.0023,-0.0006,0.0024,-1.02,0.49,-33.09,0,4.033,-0.048,0.212,0.011,0.012,-0.020,0.999,0.000,0.000,0.000,0.0070,0,1,0.00,0.00,0.00,0.0000,0.0000,0.0000
3717,-1.3783,0.0086,0.0080,0.0023,-0.0030,-0.0011,-1.04,0.49,-32.93,0,4.022,0.224,0.196,-0.118,0.011,-0.019,1.003,0.000,0.000,0.000,0.0120,0,0,0.00,0.00,0.00,0.0000,0.0000,0.0000
3768,-1.3786,0.0090,0.0098,0.0008,-0.0010,0.0082,-1.06,0.49,-32.76,0,4.033,0.070,-0.291,-0.014,0.011,-0.021,1.001,0.000,0.000,0.000,0.0110,1,0,0.00,0.00,0.00,0.0000,0.0000,0.0000
3819,-1.3784,0.0092,0.0107,0.0011,-0.0008,0.0113,-1.03,0.47,-32.60,0,4.028,0.081,-0.073,-0.002,0.008,-0.020,1.000,0.000,0.000,0.000,0.0080,1,4,0.00,0.00,0.00,0.0000,0.0000,0.0000
3870,0.0001,-0.0000,0.0081,0.0036,-0.0038,0.0002,-0.06,0.03,0.00,0,4.033,0.425,0.062,-0.152,0.010,-0.022,1.002,0.000,0.000,0.000,0.0120,0,0,0.00,0.00,0.00,0.0000,0.0000,0.0000
3922,-0.0000,-0.0003,0.0102,0.0022,-0.0103,0.0024,-0.16,-0.04,0.00,0,4.033,0.121,0.177,0.057,0.011,-0.020,0.999,0.000,0.000,0.000,0.0110,2,3,0.00,0.00,0.00,0.0000,0.0000,0.0000
3973,0.0006,-0.0006,0.0106,0.0111,-0.0142,0.0037,-0.23,0.29,0.00,0,4.043,0.002,0.027,-0.137,0.009,-0.020,1.000,0.000,0.000,0.000,0.0080,0,0,0.00,0.00,0.00,0.0000,0.0000,0.0000
4024,0.0001,-0.0011,0.0097,0.0037,-0.0181,-0.0013,-0.29,0.13,-0.00,0,4.022,0.302,-0.054,0.035,0.011,-0.019,1.001,0.000,0.000,0.000,0.0060,5,7,0.00,0.00,0.00,0.0000,0.0000,0.0000
4075,0.0020,-0.0004,0.0080,0.0205,-0.0085,-0.0097,-0.52,0.30,-0.00,0,4.033,0.176,0.104,0.277,0.009,-0.020,1.000,0.000,0.000,0.000,0.0110,3,0,0.00,0.00,0.00,0.0000,0.0000,0.0000
4126,0.0001,-0.0008,0.0092,0.0021,-0.0109,-0.0010,-0.58,0.36,0.00,0,4.028,0.103,-0.025,0.335,0.010,-0.021,1.000,0.000,0.000,0.000,0.0100,0,1,0.00,0.00,0.00,0.0000,0.0000,0.0000
4177,0.0001,-0.0011,0.0096,0.0012,-0.0126,0.0014,-0.80,0.49,-0.00,0,4.033,0.226,0.064,-0.128,0.010,-0.020,1.001,0.000,0.000,0.000,0.0080,0,4,0.00,0.00,0.00,0.0000,0.0000,0.0000
4228,0.0009,-0.0011,0.0089,0.0070,-0.0112,-0.0021,-0.93,0.50,-0.00,0,4.022,0.003,0.139,0.343,0.008,-0.021,1.001,0.000,0.000,0.000,0.0110,-1,0,0.00,0.00,0.00,0.0000,0.0000,0.0000
4279,0.0009,-0.0010,0.0099,0.0066,-0.0098,0.0031,-0.95,0.47,-0.00,0,4.033,-0.238,0.396,0.306,0.011,-0.021,1.000,0.000,0.000,0.000,0.0100,0,0,0.00,0.00,0.00,0.0000,0.0000,0.0000
4331,-0.0002,-0.0013,0.0101,-0.0007,-0.0103,0.0038,-0.93,0.42,-0.00,0,4.022,0.020,0.175,0.210,0.011,-0.020,1.000,0.000,0.000,0.000,0.0080,1,0,0.00,0.00,0.00,0.0000,0.0000,0.0000
4382,0.0009,-0.0002,0.0093,0.0063,-0.0021,-0.0008,-1.00,0.50,0.00,0,4.033,0.397,0.327,0.355,0.010,-0.022,0.999,0.000,0.000,0.000,0.0080,-1,0,0.00,0.00,0.00,0.0000,0.0000,0.0000
4433,-0.0002,-0.0012,0.0087,0.0003,-0.0077,-0.0034,-1.01,0.42,0.01,0,4.022,0.194,0.374,0.082,0.010,-0.018,1.000,0.000,0.000,0.000,0.0090,0,3,0.00,0.00,0.00,0.0000,0.0000,0.0000
4484,0.0008,-0.0006,0.0087,0.0061,-0.0037,-0.0019,-1.05,0.47,0.01,0,4.033,-0.056,0.191,0.279,0.009,-0.020,0.999,0.000,0.000,0.000,0.0070,1,2,0.00,0.00,0.00,0.0000,0.0000,0.0000
4535,0.0006,-0.0005,0.0079,0.0045,-0.0035,-0.0058,-1.05,0.46,0.01,0,4.022,-0.239,-0.081,0.123,0.010,-0.021,1.000,0.000,0.000,0.000,0.0070,4,-7,0.00,0.00,0.00,0.0000,0.0000,0.0000
4586,0.0001,-0.0005,0.0073,0.0019,-0.0034,-0.0067,-1.05,0.49,0.02,0,4.033,0.067,0.104,-0.361,0.009,-0.019,0.999,0.000,0.000,0.000,0.0080,2,0,0.00,0.00,0.00,0.0000,0.0000,0.0000
4637,0.0000,-0.0001,0.0074,0.0016,-0.0009,-0.0047,-1.04,0.45,0.02,0,4.022,0.036,0.238,0.108,0.008,-0.019,0.999,0.000,0.000,0.000,0.0080,-3,7,0.00,0.00,0.00,0.0000,0.0000,0.0000
4688,0.0018,-0.0010,0.0075,0.0104,-0.0061,-0.0033,-1.04,0.47,0.02,0,4.033,-0.007,0.105,0.132,0.009,-0.022,1.001,0.000,0.000,0.000,0.0080,-1,-3,0.00,0.00,0.00,0.0000,0.0000,0.0000
4739,0.0001,-0.0008,0.0077,0.0004,-0.0048,-0.0014,-1.06,0.49,0.02,0,4.022,0.112,0.014,0.065,0.007,-0.019,0.999,0.000,0.000,0.000,0.0090,-2,3,0.00,0.00,0.00,0.0000,0.0000,0.0000
4790,0.0008,-0.0005,0.0082,0.0046,-0.0033,0.0018,-1.08,0.51,0.03,0,4.033,-0.040,0.054,-0.086,0.009,-0.018,1.000,0.000,0.000,0.000,0.0090,0,-3,0.00,0.00,0.00,0.0000,0.0000,0.0000
4841,-0.0002,-0.0007,0.0087,-0.0003,-0.0039,0.0038,-1.04,0.50,0.02,0,4.022,0.284,0.203,0.061,0.012,-0.021,0.999,0.000,0.000,0.000,0.0090,-1,-3,0.00,0.00,0.00,0.0000,0.0000,0.0000
4892,0.0001,-0.0012,0.0090,0.0015,-0.0061,0.0046,-1.05,0.50,0.02,0,4.033,0.061,0.278,0.082,0.009,-0.019,1.000,0.000,0.000,0.000,0.0060,-4,2,0.00,0.00,0.00,0.0000,0.0000,0.0000
4943,0.0006,-0.0010,0.0078,0.0044,-0.0051,-0.0026,-1.03,0.49,0.02,0,4.022,0.173,-0.137,0.050,0.010,-0.023,1.000,0.000,0.000,0.000,0.0080,5,0,0.00,0.00,0.00,0.0000,0.0000,0.0000
4994,-0.0001,0.0002,0.0078,0.0007,0.0008,-0.0019,-1.02,0.48,0.02,0,4.033,0.053,0.013,0.106,0.010,-0.020,0.999,0.000,0.000,0.000,0.0100,1,1,0.00,0.00,0.00,0.0000,0.0000,0.0000
5045,0.0010,-0.0006,0.0088,0.0064,-0.0033,0.0033,-1.01,0.46,0.03,0,3.822,-0.227,0.174,0.199,0.011,-0.019,1.004,0.000,0.000,0.000,0.0100,4,0,0.00,0.00,0.00,0.0000,0.0000,0.0000
5096,0.0002,-0.0002,0.0095,0.0017,-0.0016,0.0059,-1.06,0.47,0.03,0,3.642,-1.042,-0.535,1.250,0.012,-0.026,0.996,0.000,0.000,0.000,0.0090,4,0,0.00,0.00,0.00,0.0000,0.0000,0.0000
5147,0.0001,0.0004,0.0095,-0.0023,0.0086,0.0043,-1.07,0.49,0.04,0,3.700,0.481,0.323,-0.109,0.002,-0.032,0.999,0.000,0.000,0.000,0.0080,-3,0,0.00,0.00,0.00,0.0000,0.0000,0.0000
5198,0.0008,-0.0007,0.0090,-0.0020,0.0101,-0.0001,-1.04,0.41,0.03,0,3.748,-2.764,-2.502,3.400,-0.016,-0.041,0.967,0.000,0.000,0.000,0.0080,0,1,0.00,0.00,0.00,0.0000,0.0000,0.0000
5250,-0.0002,-0.0013,0.0087,-0.0105,0.0129,0.0008,-1.11,0.67,0.20,0,3.743,-1.632,-1.323,10.612,0.004,-0.011,0.994,0.000,0.000,0.000,0.0070,4,-9,0.00,0.00,0.00,0.0000,0.0000,0.0000
5301,-0.0043,-0.0002,0.0078,-0.0306,0.0235,-0.0066,-1.14,0.56,0.68,0,3.758,-2.111,-1.932,14.877,-0.010,-0.028,0.988,0.000,0.000,0.000,0.0100,4,0,0.00,0.00,0.00,0.0000,0.0000,0.0000
5352,-0.0018,-0.0008,0.0087,-0.0175,0.0246,-0.0027,-1.03,0.61,1.30,0,3.758,1.417,-4.362,1.487,-0.016,-0.031,1.035,0.000,0.000,0.000,0.0070,0,8,0.00,0.00,0.00,0.0000,0.0000,0.0000
5403,-0.0020,-0.0005,0.0079,-0.0194,0.0292,-0.0036,-0.99,0.66,1.28,0,3.758,-3.124,1.821,-2.925,-0.003,-0.041,1.002,0.000,0.000,0.000,0.0110,10,-4,0.00,0.00,0.00,0.0000,0.0000,0.0000
5454,-0.0037,-0.0006,0.0093,-0.0270,0.0296,0.0030,-0.80,0.52,1.08,0,3.753,6.706,0.045,4.658,-0.002,-0.010,0.996,0.000,0.000,0.000,0.0100,-16,15,0.00,0.00,0.00,0.0000,0.0000,0.0000
5505,-0.0110,0.0034,0.0096,-0.0643,0.0508,0.0022,-1.36,1.17,1.18,0,3.748,5.286,-4.954,8.326,0.017,-0.014,1.038,0.000,0.000,0.000,0.0130,-53,10,0.00,0.00,0.00,0.0000,0.0000,0.0000
5556,-0.0247,0.0365,0.0064,-0.1219,0.2051,-0.0149,-2.39,1.39,1.67,0,3.727,-1.897,4.526,6.640,0.015,-0.027,0.988,0.000,0.000,0.000,0.0080,-28,7,0.00,0.00,0.00,0.0000,0.0000,0.0000
5607,-0.0435,0.0800,-0.0060,-0.1961,0.3784,-0.0834,-3.45,1.94,1.96,0,3.721,17.008,0.284,11.524,0.023,-0.050,1.077,0.000,0.000,0.000,0.0090,-27,16,0.00,0.00,0.00,0.0000,0.0000,0.0000
5658,-0.0582,0.1186,-0.0128,-0.2355,0.4973,-0.0967,-3.43,2.05,2.37,0,3.716,64.627,-3.694,-0.913,0.011,-0.022,1.071,0.000,0.000,0.000,0.0120,-43,4,0.00,0.00,0.00,0.0000,0.0000,0.0000
5710,-0.0713,0.1522,-0.0063,-0.2563,0.5579,-0.0061,-0.35,1.77,2.46,0,3.732,105.844,5.378,-0.908,0.017,-0.003,1.042,0.000,0.000,0.000,0.0040,-5,2,0.00,0.00,0.00,0.0000,0.0000,0.0000
5762,-0.0791,0.1742,0.0042,-0.2450,0.5166,0.0752,5.38,1.46,2.32,0,3.737,83.057,35.395,11.744,-0.004,-0.008,0.948,0.000,0.000,0.000,0.0000,11,10,0.00,0.00,0.00,0.0000,0.0000,0.0000
5812,-0.0866,0.1663,0.0136,-0.2292,0.2978,0.1104,11.53,-0.22,2.83,0,3.727,-42.738,54.189,15.659,-0.013,0.002,0.820,0.000,0.000,0.000,0.0000,10,2,0.00,0.00,0.00,0.0000,0.0000,0.0000
5864,-0.0832,0.1177,0.0047,-0.1570,-0.0830,-0.0276,12.77,-3.16,4.03,0,3.690,-140.365,35.771,7.720,-0.003,0.008,0.912,0.000,0.000,0.000,0.0000,5,-27,0.00,0.00,0.00,0.0000,0.0000,0.0000
5915,-0.0747,0.1168,0.0013,-0.0501,-0.1431,-0.1003,6.32,-6.18,4.28,0,3.679,-72.859,-54.320,16.307,-0.021,0.057,1.111,0.000,0.000,0.000,0.0000,-5,6,0.00,0.00,0.00,0.0000,0.0000,0.0000
5966,-0.0371,0.1190,-0.0090,0.1799,-0.1389,-0.1274,1.36,-4.69,4.39,0,3.669,8.484,-90.126,19.529,-0.017,0.053,1.111,0.000,0.000,0.000,0.0000,5,-4,0.00,0.00,0.00,0.0000,0.0000,0.0000
6017,-0.0435,0.1004,-0.0054,0.1443,-0.1980,-0.0398,1.60,-0.18,5.63,0,3.684,10.775,40.868,-18.591,0.009,0.015,1.102,0.000,0.000,0.000,0.0090,0,-29,0.00,0.00,0.00,0.0000,0.0000,0.0000
6068,-0.0505,0.0940,0.0037,0.0806,-0.1845,0.0685,0.77,-1.51,4.74,0,3.695,-10.703,-20.241,-18.143,0.003,-0.002,0.998,0.000,0.000,0.000,0.0000,5,6,0.00,0.00,0.00,0.0000,0.0000,0.0000
6120,-0.0401,0.0842,0.0049,0.1198,-0.1999,0.0734,0.83,-0.91,4.05,0,3.690,-57.743,-27.133,-18.249,0.000,-0.012,1.053,0.000,0.000,0.000,0.0000,19,-19,0.00,0.00,0.00,0.0000,0.0000,0.0000
6171,-0.0371,0.0767,0.0065,0.1129,-0.1904,0.0705,-1.86,-0.24,3.06,0,3.679,-8.780,-10.583,-10.831,0.001,-0.004,1.045,0.000,0.000,0.000,0.0000,1,-15,0.00,0.00,0.00,0.0000,0.0000,0.0000
6222,-0.0009,0.0801,0.0024,0.2646,-0.1121,0.0490,-3.47,-0.60,2.11,0,3.669,35.128,-41.919,-12.492,0.008,-0.015,1.032,0.000,0.000,0.000,0.0000,-9,-35,0.00,0.00,0.00,0.0000,0.0000,0.0000
6273,0.0224,0.0943,0.0002,0.3165,0.0077,0.0399,-2.62,0.90,1.50,0,3.658,18.463,-44.225,-10.773,-0.003,-0.011,1.028,0.000,0.000,0.000,0.0000,34,-14,0.00,0.00,0.00,0.0000,0.0000,0.0000
6324,0.0407,0.0745,0.0021,0.3116,-0.0756,0.0478,-0.28,3.51,0.99,0,3.653,-9.587,-32.555,-12.079,-0.003,-0.014,1.038,0.000,0.000,0.000,0.0190,12,-5,0.00,0.00,0.00,0.0000,0.0000,0.0000
6375,0.0481,0.0469,0.0107,0.2346,-0.1901,0.0861,0.22,5.58,0.33,0,3.674,-36.867,3.911,-8.927,-0.002,-0.020,1.042,0.000,0.000,0.000,0.0560,13,10,0.00,0.00,0.00,0.0000,0.0000,0.0000
6426,0.0506,0.0309,0.0355,0.1347,-0.2219,0.2036,-1.17,6.28,-0.19,0,3.690,-15.886,38.500,-5.691,0.004,-0.012,1.003,0.000,0.000,0.000,0.0510,0,9,0.00,0.00,0.00,0.0000,0.0000,0.0000
6477,0.0414,0.0195,0.0510,0.0088,-0.2147,0.2347,-2.21,5.16,-0.59,0,3.679,-1.977,36.410,0.575,0.009,-0.011,0.954,0.000,0.000,0.000,0.0580,8,16,0.00,0.00,0.00,0.0000,0.0000,0.0000
6528,0.0302,0.0170,0.0626,-0.0816,-0.1611,0.2211,-2.40,3.80,-0.73,0,3.679,-7.927,37.447,4.053,0.003,-0.018,0.945,0.000,0.000,0.000,0.0620,-2,20,0.00,0.00,0.00,0.0000,0.0000,0.0000
6579,0.0174,0.0143,0.0703,-0.1456,-0.1183,0.1843,-3.06,2.10,-0.56,0,3.663,13.875,49.363,6.253,0.005,-0.009,0.966,0.000,0.000,0.000,0.0720,5,11,0.00,0.00,0.00,0.0000,0.0000,0.0000
6630,0.0035,0.0142,0.0767,-0.1872,-0.0701,0.1582,-2.87,-0.30,-0.39,0,3.653,16.778,34.049,9.951,0.010,-0.014,0.985,0.000,0.000,0.000,0.0720,0,8,0.00,0.00,0.00,0.0000,0.0000,0.0000
6681,-0.0055,0.0143,0.0807,-0.1821,-0.0328,0.1314,-2.10,-2.12,0.02,0,3.632,14.520,30.794,10.179,0.002,-0.019,1.007,0.000,0.000,0.000,0.0700,-3,16,0.00,0.00,0.00,0.0000,0.0000,0.0000
6732,-0.0137,0.0127,0.0802,-0.1617,-0.0191,0.0962,-1.26,-3.53,0.51,0,3.637,6.802,-0.279,8.297,0.013,-0.011,1.026,0.000,0.000,0.000,0.0730,-1,5,0.00,0.00,0.00,0.0000,0.0000,0.0000
6783,-0.0219,0.0133,0.0809,-0.1364,-0.0029,0.0836,-0.78,-3.77,0.97,0,3.626,12.158,16.416,6.745,-0.001,-0.013,1.038,0.000,0.000,0.000,0.0820,0,5,0.00,0.00,0.00,0.0000,0.0000,0.0000
6834,-0.0276,0.0130,0.0848,-0.1015,0.0015,0.0957,-0.06,-4.11,1.32,0,3.632,7.972,-6.288,0.605,0.009,-0.013,1.054,0.000,0.000,0.000,0.0830,0,4,0.00,0.00,0.00,0.0000,0.0000,0.0000
6886,-0.0314,0.0127,0.0882,-0.0635,0.0004,0.1067,0.35,-4.11,1.47,0,3.626,2.505,-19.326,2.115,0.007,-0.014,1.043,0.000,0.000,0.000,0.0920,0,0,0.00,0.00,0.00,0.0000,0.0000,0.0000
6937,-0.0335,0.0127,0.0944,-0.0263,-0.0018,0.1326,0.37,-3.34,1.56,0,3.637,1.482,-17.149,2.044,-0.000,-0.017,1.046,0.000,0.000,0.000,0.0950,0,-2,0.00,0.00,0.00,0.0000,0.0000,0.0000
6988,-0.0343,0.0134,0.1006,0.0003,-0.0004,0.1496,0.50,-2.42,1.66,0,3.632,5.285,-3.403,0.472,0.007,-0.017,1.047,0.000,0.000,0.000,0.1040,-4,-2,0.00,0.00,0.00,0.0000,0.0000,0.0000
7039,-0.0332,0.0156,0.1080,0.0240,0.0071,0.1706,0.57,-2.14,1.64,0,3.642,-1.997,-21.595,1.523,0.003,-0.015,1.030,0.000,0.000,0.000,0.1130,1,-3,0.50,-2.42,1.66,-0.0343,0.0134,0.1040
7091,-0.0312,0.0170,0.1177,0.0437,0.0079,0.1920,0.43,-1.29,1.69,0,3.637,2.177,-9.381,0.347,0.001,-0.010,1.022,0.000,0.000,0.000,0.1230,-3,-3,0.37,-3.44,1.73,-0.0322,0.0136,0.1110
7142,-0.0282,0.0163,0.1274,0.0561,-0.0007,0.2030,0.61,-0.64,1.71,0,3.648,2.468,-6.954,0.329,-0.000,-0.016,1.006,0.000,0.000,0.000,0.1350,0,-3,-1.51,-1.67,1.84,-0.0329,0.0136,0.1226
7193,-0.0256,0.0158,0.1393,0.0595,-0.0084,0.2164,0.80,-0.25,1.71,0,3.642,-2.515,-10.391,-0.874,0.001,-0.013,0.998,0.000,0.000,0.000,0.1420,0,-1,-0.58,-1.28,1.93,-0.0330,0.0139,0.1368
7244,-0.0230,0.0157,0.1484,0.0594,-0.0125,0.2095,0.62,0.24,1.68,0,3.648,-2.655,-5.961,-0.368,-0.002,-0.010,0.997,0.000,0.000,0.000,0.1500,0,-4,-0.71,-1.79,1.89,-0.0331,0.0141,0.1475
7295,-0.0204,0.0169,0.1579,0.0557,-0.0092,0.2026,0.43,0.56,1.64,0,3.632,-1.427,1.950,-1.133,0.004,-0.012,0.993,0.000,0.000,0.000,0.1570,-1,-3,-0.84,-1.33,1.88,-0.0323,0.0142,0.1578
7346,-0.0185,0.0158,0.1646,0.0478,-0.0153,0.1837,0.41,0.61,1.60,0,3.642,-1.991,1.178,-0.053,0.004,-0.012,0.994,0.000,0.000,0.000,0.1710,0,-2,-1.00,-1.04,1.82,-0.0314,0.0147,0.1652
7397,-0.0175,0.0124,0.1731,0.0402,-0.0290,0.1864,0.31,0.61,1.60,0,3.632,-7.118,1.763,0.952,0.003,-0.015,0.998,0.000,0.000,0.000,0.1750,2,0,-0.99,-0.94,1.84,-0.0310,0.0149,0.1760
7448,-0.0156,0.0088,0.1798,0.0351,-0.0407,0.1718,0.05,0.57,1.66,0,3.642,-8.146,1.725,2.228,0.005,-0.012,1.003,0.000,0.000,0.000,0.1920,0,-1,-1.16,-0.92,1.91,-0.0311,0.0143,0.1840
7499,-0.0136,0.0051,0.1915,0.0314,-0.0479,0.1859,-0.27,0.42,1.76,0,3.637,-4.375,1.133,2.468,0.004,-0.012,0.995,0.000,0.000,0.000,0.2080,0,0,-1.66,-0.70,2.02,-0.0309,0.0146,0.1959
7550,-0.0110,0.0049,0.2050,0.0316,-0.0380,0.2063,-0.55,0.38,1.87,0,3.648,-1.298,0.843,2.353,0.005,-0.011,0.981,0.000,0.000,0.000,0.2100,0,1,-1.89,-0.65,2.15,-0.0311,0.0153,0.2093
7601,-0.0107,0.0040,0.2147,0.0237,-0.0304,0.1986,-0.64,0.37,1.98,0,3.637,1.110,1.613,1.666,0.001,-0.014,0.979,0.000,0.000,0.000,0.2200,-2,-1,-1.77,-0.61,2.31,-0.0315,0.0149,0.2188
7653,-0.0104,0.0034,0.2233,0.0177,-0.0225,0.1833,-0.68,0.33,2.05,0,3.648,1.003,0.879,0.498,0.002,-0.013,0.976,0.000,0.000,0.000,0.2310,0,-2,-1.77,-0.41,2.41,-0.0312,0.0161,0.2280
7704,-0.0109,0.0063,0.2332,0.0104,-0.0037,0.1760,-0.65,0.25,2.07,0,3.642,4.313,3.756,-0.380,0.007,-0.014,0.974,0.000,0.000,0.000,0.2460,3,0,-1.56,-0.24,2.54,-0.0303,0.0163,0.2371
7755,-0.0082,0.0046,0.2444,0.0151,-0.0030,0.1764,-0.52,0.05,2.07,0,3.653,1.873,-0.402,-1.801,0.002,-0.011,0.968,0.000,0.000,0.000,0.2520,-3,-1,-1.08,-0.13,2.61,-0.0304,0.0148,0.2475
7806,-0.0068,0.0048,0.2545,0.0164,0.0026,0.1692,-0.42,-0.01,2.00,0,3.642,3.580,-0.212,-1.758,0.002,-0.011,0.968,0.000,0.000,0.000,0.2550,0,0,-1.21,-0.12,2.40,-0.0299,0.0168,0.2566
7857,-0.0038,0.0064,0.2598,0.0228,0.0100,0.1388,-0.29,-0.01,1.90,0,3.648,3.327,-2.883,-2.365,0.001,-0.010,0.968,0.000,0.000,0.000,0.2660,0,-2,-1.03,-0.13,2.32,-0.0296,0.0181,0.2626
7909,-0.0026,0.0066,0.2673,0.0231,0.0115,0.1267,-0.09,0.06,1.78,0,3.632,2.235,-2.430,-2.721,0.000,-0.010,0.973,0.000,0.000,0.000,0.2710,2,-1,-0.68,-0.26,2.29,-0.0289,0.0169,0.2697
7960,0.0006,0.0082,0.2727,0.0280,0.0152,0.1098,0.04,0.19,1.64,0,3.642,1.687,-3.813,-3.957,-0.001,-0.010,0.977,0.000,0.000,0.000,0.2780,0,-1,-0.46,-0.38,2.20,-0.0284,0.0160,0.2749
8011,0.0024,0.0086,0.2788,0.0278,0.0142,0.1009,0.11,0.33,1.46,0,3.632,0.712,-1.031,-4.777,-0.001,-0.011,0.978,0.000,0.000,0.000,0.2860,0,0,-0.43,-0.56,1.97,-0.0278,0.0161,0.2806
8062,0.0057,0.0085,0.2851,0.0299,0.0112,0.0980,0.15,0.42,1.23,0,3.637,0.116,0.061,-3.485,0.004,-0.014,0.979,0.000,0.000,0.000,0.2880,0,-1,-0.39,-0.62,1.72,-0.0276,0.0159,0.2864
8113,0.0092,0.0093,0.2897,0.0318,0.0107,0.0869,0.16,0.44,1.02,0,3.632,2.330,-2.658,-4.272,0.002,-0.014,0.981,0.000,0.000,0.000,0.2920,0,0,-0.43,-0.59,1.52,-0.0272,0.0164,0.2908
8164,0.0122,0.0122,0.2934,0.0318,0.0150,0.0758,0.25,0.54,0.82,0,3.637,0.549,-1.342,-4.078,-0.003,-0.009,0.986,0.000,0.000,0.000,0.2950,0,-2,-0.31,-0.73,1.31,-0.0271,0.0162,0.2946
8215,0.0142,0.0125,0.2967,0.0286,0.0118,0.0663,0.33,0.61,0.60,0,3.626,0.852,-0.440,-4.557,0.002,-0.010,0.985,0.000,0.000,0.000,0.2980,0,0,-0.31,-0.71,1.05,-0.0259,0.0165,0.2980
8266,0.0171,0.0133,0.2993,0.0268,0.0098,0.0562,0.30,0.65,0.37,0,3.632,0.345,-0.734,-3.505,0.000,-0.011,0.992,0.000,0.000,0.000,0.2990,0,0,-0.26,-0.73,0.82,-0.0257,0.0164,0.3008
8317,0.0196,0.0137,0.3011,0.0244,0.0070,0.0468,0.30,0.63,0.17,0,3.621,-0.102,2.260,-2.383,0.001,-0.009,0.995,0.000,0.000,0.000,0.3030,0,0,-0.24,-0.77,0.64,-0.0258,0.0161,0.3028
8368,0.0211,0.0147,0.3036,0.0201,0.0061,0.0445,0.29,0.57,0.03,0,3.626,3.776,-1.933,-1.686,0.002,-0.006,0.999,0.000,0.000,0.000,0.3050,3,0,-0.25,-0.66,0.51,-0.0262,0.0157,0.3052
8419,0.0218,0.0175,0.3058,0.0146,0.0092,0.0434,0.31,0.63,-0.06,0,3.621,2.122,3.409,-1.386,0.006,-0.013,1.000,0.000,0.000,0.000,0.3060,0,0,-0.05,-0.70,0.40,-0.0251,0.0152,0.3075
8470,0.0220,0.0185,0.3075,0.0084,0.0078,0.0408,0.33,0.57,-0.13,0,3.626,-1.378,4.043,-0.651,0.006,-0.011,1.000,0.000,0.000,0.000,0.3090,0,1,0.06,-0.53,0.32,-0.0253,0.0144,0.3094
8521,0.0215,0.0187,0.3096,0.0020,0.0049,0.0411,0.31,0.40,-0.17,0,3.616,-0.471,3.585,0.082,0.006,-0.012,1.002,0.000,0.000,0.000,0.3070,0,0,-0.09,-0.32,0.28,-0.0256,0.0151,0.3117
8572,0.0187,0.0184,0.3099,-0.0070,0.0013,0.0334,0.37,0.31,-0.20,0,3.621,-1.905,3.545,-0.072,0.005,-0.013,1.002,0.000,0.000,0.000,0.3080,-1,0,-0.12,-0.14,0.28,-0.0259,0.0147,0.3125
8623,0.0171,0.0175,0.3103,-0.0120,-0.0038,0.0274,0.27,0.14,-0.21,0,3.611,-3.864,1.968,0.462,0.002,-0.013,1.011,0.000,0.000,0.000,0.3080,-1,1,-0.29,0.06,0.22,-0.0257,0.0157,0.3133
8675,0.0162,0.0180,0.3103,-0.0138,-0.0049,0.0254,0.12,0.03,-0.22,0,3.616,-0.927,2.547,-0.771,-0.000,-0.011,1.012,0.000,0.000,0.000,0.3120,0,1,-0.51,0.13,0.24,-0.0262,0.0163,0.3139
8726,0.0139,0.0208,0.3122,-0.0170,-0.0002,0.0328,0.07,-0.04,-0.25,0,3.611,0.975,2.829,-0.088,0.005,-0.010,1.016,0.000,0.000,0.000,0.3170,0,0,-0.54,0.25,0.22,-0.0268,0.0163,0.3156
8778,0.0099,0.0207,0.3157,-0.0228,-0.0010,0.0480,0.10,-0.17,-0.26,0,3.621,-1.000,5.034,-0.276,0.002,-0.011,1.010,0.000,0.000,0.000,0.3140,-1,0,-0.49,0.39,0.21,-0.0271,0.0164,0.3188
8829,0.0061,0.0207,0.3167,-0.0265,-0.0018,0.0450,0.05,-0.31,-0.29,0,3.616,-0.088,3.782,-0.234,0.002,-0.011,1.008,0.000,0.000,0.000,0.3200,0,0,-0.57,0.66,0.17,-0.0270,0.0170,0.3202
8880,0.0048,0.0260,0.3200,-0.0239,0.0076,0.0535,0.08,-0.42,-0.32,0,3.621,0.063,3.133,-0.017,0.002,-0.010,1.004,0.000,0.000,0.000,0.3180,0,0,-0.57,0.85,0.16,-0.0266,0.0173,0.3231
8931,0.0018,0.0243,0.3210,-0.0236,0.0033,0.0472,0.22,-0.59,-0.36,0,3.611,2.533,0.123,-1.811,0.006,-0.013,1.004,0.000,0.000,0.000,0.3220,0,0,-0.57,1.01,0.16,-0.0258,0.0176,0.3246
8982,0.0006,0.0271,0.3232,-0.0190,0.0063,0.0476,0.31,-0.61,-0.43,0,3.621,1.936,-1.573,-1.602,0.007,-0.013,1.001,0.000,0.000,0.000,0.3260,0,0,-0.44,1.01,0.07,-0.0244,0.0179,0.3267
9033,-0.0023,0.0273,0.3263,-0.0176,0.0036,0.0522,0.31,-0.59,-0.51,0,3.616,1.684,-0.834,-0.971,0.007,-0.011,0.997,0.000,0.000,0.000,0.3290,0,0,-0.34,0.93,-0.02,-0.0223,0.0180,0.3293
9085,-0.0011,0.0274,0.3294,-0.0092,0.0009,0.0553,0.30,-0.58,-0.55,0,3.621,0.718,-4.375,-1.498,0.005,-0.015,0.998,0.000,0.000,0.000,0.3290,0,0,-0.26,0.89,-0.07,-0.0196,0.0179,0.3320
9136,-0.0015,0.0274,0.3312,-0.0043,-0.0017,0.0500,0.27,-0.43,-0.61,0,3.611,-1.150,-1.780,-0.490,0.001,-0.012,1.000,0.000,0.000,0.000,0.3360,1,0,-0.22,0.66,-0.14,-0.0165,0.0176,0.3338
9187,0.0024,0.0305,0.3352,0.0064,0.0018,0.0566,0.24,-0.33,-0.66,0,3.621,0.304,-1.310,-0.783,0.003,-0.012,0.995,0.000,0.000,0.000,0.3390,-1,0,-0.31,0.36,-0.15,-0.0280,0.0191,0.3376
9238,0.0016,0.0312,0.3390,0.0074,0.0008,0.0594,0.17,-0.23,-0.69,0,3.616,1.695,-2.745,-0.106,0.003,-0.013,0.990,0.000,0.000,0.000,0.3420,0,0,-0.32,0.29,-0.21,-0.0279,0.0193,0.3405
9289,0.0016,0.0366,0.3425,0.0087,0.0088,0.0588,0.19,-0.11,-0.72,0,3.621,2.313,1.559,-1.593,0.004,-0.009,0.989,0.000,0.000,0.000,0.3430,0,0,-0.23,0.15,-0.22,-0.0275,0.0193,0.3434
9340,0.0018,0.0402,0.3447,0.0092,0.0129,0.0511,0.20,-0.05,-0.78,0,3.611,1.786,-0.810,-0.996,0.002,-0.010,0.988,0.000,0.000,0.000,0.3430,-4,0,-0.11,0.23,-0.30,-0.0270,0.0191,0.3454
9392,0.0022,0.0408,0.3457,0.0096,0.0112,0.0383,0.23,-0.01,-0.83,0,3.616,1.916,0.285,-0.501,0.001,-0.016,0.989,0.000,0.000,0.000,0.3480,0,0,-0.09,0.15,-0.39,-0.0279,0.0219,0.3466
9443,0.0042,0.0465,0.3480,0.0122,0.0173,0.0356,0.34,0.02,-0.86,0,3.611,3.368,-0.587,-0.529,-0.001,-0.010,0.994,0.000,0.000,0.000,0.3490,0,1,0.01,0.17,-0.42,-0.0277,0.0224,0.3485
9494,0.0059,0.0466,0.3497,0.0139,0.0133,0.0315,0.48,0.09,-0.88,0,3.616,0.655,-1.097,-0.298,0.003,-0.015,0.988,0.000,0.000,0.000,0.3510,0,0,0.19,0.11,-0.41,-0.0284,0.0222,0.3500
9545,0.0057,0.0477,0.3513,0.0120,0.0102,0.0275,0.52,0.11,-0.90,0,3.605,-0.431,2.677,-0.051,0.001,-0.009,0.996,0.000,0.000,0.000,0.3520,0,0,0.22,0.06,-0.43,-0.0285,0.0218,0.3514
9597,0.0063,0.0481,0.3526,0.0110,0.0059,0.0237,0.44,0.10,-0.92,0,3.616,0.152,1.261,-0.068,0.003,-0.011,0.993,0.000,0.000,0.000,0.3500,0,0,0.20,0.19,-0.43,-0.0286,0.0210,0.3526
9648,0.0069,0.0483,0.3522,0.0101,0.0022,0.0132,0.36,0.12,-0.92,0,3.605,-1.353,-0.567,0.031,0.000,-0.010,0.997,0.000,0.000,0.000,0.3530,0,0,0.21,0.26,-0.43,-0.0286,0.0199,0.3526
9699,0.0047,0.0487,0.3530,0.0047,-0.0004,0.0120,0.27,0.19,-0.91,0,3.611,-0.349,-0.830,-0.429,0.004,-0.013,0.998,0.000,0.000,0.000,0.3530,3,0,0.14,0.23,-0.43,-0.0284,0.0184,0.3534
9750,0.0068,0.0467,0.3534,0.0062,-0.0056,0.0103,0.24,0.19,-0.90,0,3.605,-2.478,1.449,0.234,-0.002,-0.012,0.999,0.000,0.000,0.000,0.3540,-4,0,0.05,0.17,-0.48,-0.0293,0.0213,0.3541
9801,0.0054,0.0401,0.3540,0.0021,-0.0174,0.0104,0.15,0.09,-0.89,0,3.605,-1.577,1.337,0.198,0.002,-0.012,0.997,0.000,0.000,0.000,0.3520,0,0,-0.15,0.24,-0.52,-0.0293,0.0225,0.3542
9852,0.0021,0.0420,0.3535,-0.0041,-0.0145,0.0042,0.02,0.10,-0.87,0,3.600,-1.819,2.365,0.104,0.003,-0.012,1.002,0.000,0.000,0.000,0.3520,-1,0,-0.23,0.31,-0.51,-0.0291,0.0229,0.3540
9903,0.0009,0.0399,0.3529,-0.0064,-0.0170,0.0015,-0.08,0.05,-0.87,0,3.605,-1.938,3.694,0.379,0.003,-0.014,1.004,0.000,0.000,0.000,0.3530,-1,1,-0.33,0.41,-0.50,-0.0294,0.0234,0.3538
9954,-0.0007,0.0417,0.3530,-0.0086,-0.0123,0.0026,-0.15,-0.09,-0.86,0,3.600,-0.207,0.888,-0.095,0.004,-0.007,1.003,0.000,0.000,0.000,0.3550,1,0,-0.44,0.58,-0.48,-0.0299,0.0240,0.3540
10005,-0.0031,0.0451,0.3541,-0.0109,-0.0049,0.0090,-0.19,-0.12,-0.86,0,3.611,1.312,0.873,0.095,0.001,-0.012,1.006,0.000,0.000,0.000,0.3550,0,0,-0.42,0.62,-0.45,-0.0299,0.0234,0.3549
10057,-0.0055,0.0408,0.3549,-0.0128,-0.0095,0.0124,-0.14,-0.19,-0.85,0,3.600,2.237,1.846,0.254,0.006,-0.013,1.002,0.000,0.000,0.000,0.3540,1,0,-0.36,0.66,-0.45,-0.0295,0.0231,0.3556
10108,-0.0072,0.0438,0.3550,-0.0128,-0.0029,0.0109,-0.09,-0.28,-0.84,0,3.611,-2.317,2.130,0.104,-0.001,-0.015,0.998,0.000,0.000,0.000,0.3590,0,1,-0.24,0.72,-0.44,-0.0303,0.0228,0.3560
10159,-0.0105,0.0470,0.3572,-0.0147,0.0031,0.0191,-0.11,-0.35,-0.85,0,3.600,2.555,1.386,-0.161,0.003,-0.013,0.998,0.000,0.000,0.000,0.3560,0,1,-0.38,0.81,-0.45,-0.0307,0.0227,0.3576
10210,-0.0148,0.0467,0.3573,-0.0173,0.0033,0.0139,-0.04,-0.44,-0.87,0,3.611,1.716,-0.015,0.018,0.001,-0.009,1.001,0.000,0.000,0.000,0.3580,0,0,-0.26,0.85,-0.47,-0.0314,0.0226,0.3579
10263,-0.0158,0.0492,0.3581,-0.0139,0.0072,0.0119,0.05,-0.47,-0.86,0,3.600,0.350,1.065,-0.664,0.005,-0.014,0.993,0.000,0.000,0.000,0.3560,0,0,-0.17,0.85,-0.47,-0.0312,0.0223,0.3586
10314,-0.0159,0.0508,0.3575,-0.0090,0.0086,0.0043,0.07,-0.51,-0.87,0,3.605,3.507,1.210,0.331,0.003,-0.013,1.002,0.000,0.000,0.000,0.3560,0,0,-0.15,0.91,-0.50,-0.0305,0.0216,0.3583
10365,-0.0162,0.0512,0.3569,-0.0047,0.0078,-0.0008,0.13,-0.46,-0.89,0,3.595,1.644,-3.662,-0.002,0.004,-0.010,1.000,0.000,0.000,0.000,0.3550,2,-1,0.03,0.97,-0.49,-0.0293,0.0207,0.3580
10416,-0.0184,0.0567,0.3560,-0.0041,0.0152,-0.0050,0.16,-0.38,-0.88,0,3.605,0.299,-1.693,-0.378,0.003,-0.014,1.005,0.000,0.000,0.000,0.3580,-2,0,0.07,0.72,-0.52,-0.0324,0.0221,0.3576
10468,-0.0173,0.0538,0.3568,0.0008,0.0080,0.0006,0.20,-0.28,-0.89,0,3.595,0.676,-0.761,0.249,-0.001,-0.014,0.997,0.000,0.000,0.000,0.3570,3,0,0.05,0.62,-0.59,-0.0321,0.0225,0.3580
10519,-0.0165,0.0640,0.3569,0.0043,0.0225,0.0013,0.16,-0.23,-0.89,0,3.605,4.420,-0.824,0.253,0.001,-0.008,1.000,0.000,0.000,0.000,0.3610,0,0,0.13,0.56,-0.50,-0.0320,0.0207,0.3581
10570,-0.0168,0.0681,0.3588,0.0052,0.0262,0.0105,0.28,-0.19,-0.89,0,3.595,3.268,-1.510,0.899,0.009,-0.012,1.000,0.000,0.000,0.000,0.3580,0,0,0.35,0.52,-0.49,-0.0314,0.0192,0.3593
10621,-0.0165,0.0698,0.3588,0.0068,0.0240,0.0080,0.46,-0.14,-0.85,0,3.605,1.179,-3.112,1.106,0.006,-0.013,0.997,0.000,0.000,0.000,0.3600,0,0,0.52,0.44,-0.44,-0.0304,0.0172,0.3593
10672,-0.0136,0.0709,0.3597,0.0117,0.0200,0.0090,0.52,-0.01,-0.80,0,3.595,3.090,0.861,1.286,0.007,-0.012,0.994,0.000,0.000,0.000,0.3590,0,-1,0.58,0.29,-0.39,-0.0291,0.0146,0.3597
10723,-0.0115,0.0711,0.3596,0.0142,0.0142,0.0045,0.59,0.09,-0.74,0,3.605,-0.671,-2.391,1.262,0.002,-0.016,0.996,0.000,0.000,0.000,0.3610,0,0,0.61,0.27,-0.35,-0.0318,0.0209,0.3605
10774,-0.0109,0.0705,0.3604,0.0131,0.0072,0.0041,0.58,0.15,-0.67,0,3.595,-1.802,1.446,1.388,-0.000,-0.015,0.992,0.000,0.000,0.000,0.3590,0,0,0.58,0.15,-0.29,-0.0315,0.0202,0.3608
10826,-0.0103,0.0707,0.3598,0.0118,0.0024,-0.0012,0.50,0.17,-0.61,0,3.600,-1.440,0.645,1.393,0.002,-0.012,0.997,0.000,0.000,0.000,0.3610,0,1,0.48,0.22,-0.22,-0.0310,0.0188,0.3602
10877,-0.0110,0.0702,0.3603,0.0081,-0.0024,-0.0011,0.45,0.20,-0.55,0,3.589,-5.967,-1.682,0.761,0.002,-0.011,0.997,0.000,0.000,0.000,0.3580,0,0,0.33,0.22,-0.11,-0.0322,0.0209,0.3602
10928,-0.0124,0.0639,0.3591,0.0036,-0.0155,-0.0079,0.27,0.19,-0.49,0,3.600,-6.958,0.544,1.474,0.002,-0.012,0.996,0.000,0.000,0.000,0.3600,0,0,0.03,0.13,-0.07,-0.0323,0.0204,0.3593
10979,-0.0144,0.0614,0.3591,-0.0012,-0.0202,-0.0084,-0.04,0.10,-0.41,0,3.589,-2.836,-0.160,1.908,-0.000,-0.011,0.999,0.000,0.000,0.000,0.3590,0,0,-0.33,0.16,0.00,-0.0322,0.0195,0.3591
11030,-0.0173,0.0622,0.3587,-0.0068,-0.0165,-0.0092,-0.21,0.06,-0.32,0,3.595,1.285,1.114,1.258,0.000,-0.014,0.997,0.000,0.000,0.000,0.3540,0,0,-0.47,0.15,0.10,-0.0321,0.0186,0.3587
11082,-0.0199,0.0621,0.3562,-0.0108,-0.0136,-0.0200,-0.20,-0.06,-0.24,0,3.584,-0.184,2.715,0.852,-0.001,-0.013,1.003,0.000,0.000,0.000,0.3560,0,0,-0.41,0.21,0.16,-0.0318,0.0174,0.3567
11134,-0.0203,0.0592,0.3554,-0.0101,-0.0156,-0.0178,-0.24,-0.13,-0.18,0,3.595,-1.606,0.852,0.690,0.004,-0.011,1.005,0.000,0.000,0.000,0.3550,2,0,-0.42,0.35,0.21,-0.0316,0.0161,0.3558
11185,-0.0224,0.0559,0.3545,-0.0116,-0.0177,-0.0154,-0.32,-0.15,-0.14,0,3.584,-1.753,1.485,0.956,0.004,-0.014,1.002,0.000,0.000,0.000,0.3510,0,0,-0.54,0.37,0.23,-0.0331,0.0190,0.3551
11236,-0.0249,0.0544,0.3523,-0.0137,-0.0160,-0.0221,-0.43,-0.18,-0.10,0,3.589,1.779,2.184,0.965,-0.000,-0.013,1.006,0.000,0.000,0.000,0.3530,0,0,-0.63,0.45,0.28,-0.0328,0.0186,0.3533
11287,-0.0269,0.0601,0.3518,-0.0144,-0.0017,-0.0169,-0.33,-0.24,-0.04,0,3.579,1.583,0.699,0.577,0.004,-0.014,1.007,0.000,0.000,0.000,0.3510,-1,0,-0.54,0.56,0.33,-0.0324,0.0182,0.3526
11338,-0.0281,0.0591,0.3509,-0.0131,-0.0003,-0.0136,-0.25,-0.23,0.01,0,3.589,-0.271,0.061,0.463,0.006,-0.012,1.008,0.000,0.000,0.000,0.3510,0,0,-0.49,0.57,0.32,-0.0332,0.0192,0.3518
11389,-0.0299,0.0602,0.3505,-0.0132,0.0034,-0.0095,-0.19,-0.24,0.04,0,3.584,2.446,1.714,1.276,0.004,-0.013,1.006,0.000,0.000,0.000,0.3490,0,0,-0.50,0.57,0.34,-0.0328,0.0193,0.3513
11440,-0.0325,0.0596,0.3495,-0.0146,0.0036,-0.0093,-0.09,-0.31,0.09,0,3.589,2.409,0.729,0.418,0.002,-0.012,1.004,0.000,0.000,0.000,0.3510,-6,0,-0.38,0.66,0.40,-0.0320,0.0193,0.3505
11491,-0.0334,0.0615,0.3499,-0.0121,0.0072,-0.0037,-0.00,-0.37,0.12,0,3.584,0.896,-1.249,0.268,0.006,-0.010,1.004,0.000,0.000,0.000,0.3500,4,1,-0.31,0.65,0.34,-0.0333,0.0225,0.3506
11542,-0.0331,0.0709,0.3498,-0.0077,0.0233,-0.0010,0.03,-0.37,0.15,0,3.589,3.994,-0.949,-0.092,0.004,-0.016,1.005,0.000,0.000,0.000,0.3500,0,-1,-0.20,0.57,0.44,-0.0334,0.0213,0.3511
11593,-0.0332,0.0713,0.3499,-0.0043,0.0222,0.0018,0.15,-0.32,0.15,0,3.584,4.103,-1.970,0.002,0.000,-0.012,1.000,0.000,0.000,0.000,0.3520,0,0,-0.01,0.53,0.42,-0.0328,0.0212,0.3512
11644,-0.0335,0.0705,0.3510,-0.0018,0.0173,0.0075,0.39,-0.27,0.15,0,3.589,-1.532,-3.142,-0.193,0.005,-0.015,0.997,0.000,0.000,0.000,0.3490,0,0,0.20,0.43,0.42,-0.0320,0.0205,0.3516
11695,-0.0332,0.0702,0.3504,0.0012,0.0119,0.0014,0.42,-0.24,0.14,0,3.579,0.178,2.124,0.571,0.003,-0.013,0.999,0.000,0.000,0.000,0.3510,0,0,0.12,0.27,0.41,-0.0309,0.0193,0.3510
11747,-0.0331,0.0707,0.3507,0.0031,0.0085,0.0021,0.37,-0.23,0.17,0,3.589,0.543,-0.568,-0.090,0.001,-0.015,0.995,0.000,0.000,0.000,0.3490,0,-1,0.13,0.38,0.44,-0.0296,0.0178,0.3510
11798,-0.0318,0.0724,0.3499,0.0069,0.0078,-0.0037,0.35,-0.11,0.17,0,3.579,-2.725,-1.770,0.685,0.001,-0.017,0.996,0.000,0.000,0.000,0.3500,0,-1,0.08,0.30,0.42,-0.0321,0.0218,0.3507
11849,-0.0291,0.0728,0.3498,0.0118,0.0050,-0.0045,0.26,-0.04,0.19,0,3.589,-1.458,-2.464,0.724,0.007,-0.012,0.996,0.000,0.000,0.000,0.3520,0,-1,-0.07,0.21,0.45,-0.0315,0.0215,0.3502
11900,-0.0296,0.0733,0.3506,0.0100,0.0034,-0.0017,0.19,0.04,0.23,0,3.579,1.627,1.229,0.327,0.003,-0.014,0.993,0.000,0.000,0.000,0.3500,0,0,-0.15,0.09,0.48,-0.0308,0.0214,0.3504
11951,-0.0299,0.0729,0.3502,0.0082,0.0007,-0.0050,0.23,0.04,0.26,0,3.584,-0.941,3.672,0.280,0.005,-0.016,0.999,0.000,0.000,0.000,0.3470,0,0,-0.07,0.15,0.50,-0.0299,0.0209,0.3498
12002,-0.0287,0.0731,0.3485,0.0089,-0.0006,-0.0135,0.10,0.08,0.30,0,3.574,0.552,3.164,1.538,0.004,-0.012,0.999,0.000,0.000,0.000,0.3460,0,0,-0.12,0.34,0.51,-0.0289,0.0199,0.3484
12053,-0.0283,0.0719,0.3468,0.0082,-0.0033,-0.0184,0.02,0.06,0.38,0,3.584,2.114,-0.358,1.706,-0.002,-0.015,1.002,0.000,0.000,0.000,0.3470,0,0,-0.09,0.50,0.59,-0.0276,0.0187,0.3470
12104,-0.0283,0.0718,0.3462,0.0070,-0.0035,-0.0163,0.05,0.10,0.45,0,3.574,0.731,-1.730,0.984,0.000,-0.012,1.004,0.000,0.000,0.000,0.3490,0,-1,0.02,0.48,0.68,-0.0261,0.0172,0.3463
12156,-0.0302,0.0716,0.3470,0.0021,-0.0037,-0.0060,-0.03,0.11,0.50,0,3.579,-0.796,2.639,0.923,0.002,-0.015,1.005,0.000,0.000,0.000,0.3450,0,1,-0.01,0.34,0.73,-0.0299,0.0218,0.3469
12207,-0.0295,0.0724,0.3459,0.0023,-0.0017,-0.0087,-0.12,0.06,0.55,0,3.574,2.078,0.893,1.088,0.004,-0.009,1.005,0.000,0.000,0.000,0.3480,0,1,-0.06,0.46,0.79,-0.0301,0.0216,0.3458
12259,-0.0330,0.0722,0.3467,-0.0045,-0.0011,-0.0005,-0.04,0.08,0.60,0,3.584,2.291,3.843,0.696,0.006,-0.013,1.002,0.000,0.000,0.000,0.3470,-1,0,0.04,0.48,0.85,-0.0306,0.0215,0.3462
12310,-0.0368,0.0717,0.3468,-0.0112,-0.0016,0.0009,0.03,-0.03,0.65,0,3.574,-1.000,2.648,0.788,0.005,-0.015,0.999,0.000,0.000,0.000,0.3470,0,1,0.13,0.68,0.87,-0.0306,0.0221,0.3464
12362,-0.0376,0.0753,0.3469,-0.0116,0.0048,0.0013,-0.07,-0.08,0.69,0,3.584,2.655,2.129,0.506,0.005,-0.010,0.996,0.000,0.000,0.000,0.3480,0,0,0.08,0.79,0.92,-0.0312,0.0221,0.3465
12413,-0.0382,0.0787,0.3475,-0.0110,0.0105,0.0030,0.06,-0.20,0.72,0,3.579,1.695,-0.126,0.603,0.002,-0.012,0.995,0.000,0.000,0.000,0.3450,0,0,0.21,0.90,0.95,-0.0309,0.0217,0.3468
12464,-0.0402,0.0786,0.3464,-0.0118,0.0092,-0.0043,0.14,-0.25,0.76,0,3.579,-1.611,-0.655,0.905,0.005,-0.012,0.998,0.000,0.000,0.000,0.3400,1,2,0.30,0.89,0.98,-0.0301,0.0208,0.3460
12516,-0.0408,0.0790,0.3434,-0.0097,0.0081,-0.0193,0.14,-0.26,0.78,0,3.568,-1.387,-0.267,0.563,0.003,-0.011,1.004,0.000,0.000,0.000,0.3420,0,0,0.18,0.80,1.03,-0.0333,0.0221,0.3441
12567,-0.0434,0.0773,0.3422,-0.0113,0.0033,-0.0203,0.12,-0.30,0.80,0,3.574,-2.143,-3.000,1.057,0.005,-0.010,1.005,0.000,0.000,0.000,0.3410,0,0,0.11,0.78,1.06,-0.0333,0.0215,0.3430
12618,-0.0430,0.0776,0.3409,-0.0072,0.0025,-0.0199,0.09,-0.28,0.85,0,3.563,0.351,-0.786,1.546,0.004,-0.014,1.012,0.000,0.000,0.000,0.3370,0,0,0.00,0.63,1.11,-0.0328,0.0206,0.3419
12670,-0.0422,0.0790,0.3385,-0.0029,0.0039,-0.0236,0.10,-0.21,0.92,0,3.574,0.178,0.581,1.109,0.003,-0.012,1.011,0.000,0.000,0.000,0.3400,-1,0,0.02,0.59,1.19,-0.0319,0.0193,0.3401
12721,-0.0423,0.0792,0.3384,-0.0011,0.0030,-0.0147,0.12,-0.20,0.96,0,3.568,-2.356,-2.359,1.058,0.001,-0.013,1.011,0.000,0.000,0.000,0.3390,1,-1,-0.03,0.58,1.21,-0.0340,0.0223,0.3402
12772,-0.0433,0.0827,0.3383,-0.0011,0.0081,-0.0070,0.06,-0.03,0.99,0,3.574,2.460,-1.205,0.165,0.000,-0.015,1.007,0.000,0.000,0.000,0.3370,0,1,-0.15,0.46,1.27,-0.0335,0.0219,0.3401
12823,-0.0427,0.0820,0.3376,0.0003,0.0057,-0.0047,0.13,-0.03,1.00,0,3.568,-0.610,0.600,0.049,0.003,-0.010,1.005,0.000,0.000,0.000,0.3390,0,0,-0.03,0.37,1.27,-0.0339,0.0218,0.3394
12874,-0.0437,0.0854,0.3382,-0.0012,0.0103,0.0028,0.14,-0.11,1.00,0,3.579,1.743,0.365,-0.419,0.001,-0.015,1.004,0.000,0.000,0.000,0.3410,0,0,-0.06,0.40,1.28,-0.0337,0.0212,0.3396
12925,-0.0437,0.0859,0.3396,-0.0002,0.0092,0.0110,0.13,-0.01,0.98,0,3.568,1.383,-0.262,-0.701,0.001,-0.010,1.002,0.000,0.000,0.000,0.3400,-1,0,0.02,0.42,1.25,-0.0332,0.0203,0.3404
12976,-0.0439,0.0870,0.3401,-0.0003,0.0093,0.0124,0.15,-0.04,0.95,0,3.579,-0.016,-0.112,-0.277,0.002,-0.014,0.995,0.000,0.000,0.000,0.3430,0,0,0.04,0.39,1.21,-0.0342,0.0225,0.3409
13027,-0.0451,0.0938,0.3418,-0.0021,0.0198,0.0169,0.14,-0.09,0.92,0,3.574,-0.110,-1.270,-1.341,0.001,-0.011,0.997,0.000,0.000,0.000,0.3410,0,1,0.04,0.38,1.19,-0.0339,0.0223,0.3420
13078,-0.0452,0.0989,0.3420,-0.0015,0.0263,0.0122,0.19,-0.07,0.86,0,3.574,3.461,0.054,-0.756,0.002,-0.017,0.997,0.000,0.000,0.000,0.3380,0,2,0.02,0.29,1.13,-0.0347,0.0226,0.3421
13130,-0.0451,0.0988,0.3406,-0.0004,0.0223,0.0004,0.35,-0.06,0.81,0,3.568,2.279,1.226,-0.665,-0.001,-0.010,0.999,0.000,0.000,0.000,0.3430,0,0,0.19,0.27,1.11,-0.0356,0.0224,0.3410
13181,-0.0491,0.0992,0.3417,-0.0069,0.0182,0.0041,0.42,-0.12,0.79,0,3.574,-3.093,2.286,-0.459,0.008,-0.011,0.995,0.000,0.000,0.000,0.3420,0,0,0.31,0.34,1.07,-0.0362,0.0217,0.3417
13233,-0.0516,0.0999,0.3419,-0.0098,0.0144,0.0025,0.35,-0.19,0.75,0,3.568,0.760,-0.820,-0.124,0.005,-0.014,0.996,0.000,0.000,0.000,0.3430,0,0,0.15,0.45,1.05,-0.0364,0.0207,0.3418
13285,-0.0520,0.1005,0.3425,-0.0083,0.0115,0.0039,0.36,-0.15,0.75,0,3.579,-0.157,3.654,-0.273,0.002,-0.013,0.996,0.000,0.000,0.000,0.3450,0,2,0.19,0.41,1.04,-0.0363,0.0192,0.3422
13337,-0.0524,0.1010,0.3437,-0.0069,0.0084,0.0070,0.35,-0.23,0.74,0,3.568,-0.451,0.690,0.041,0.005,-0.013,0.994,0.000,0.000,0.000,0.3430,0,0,0.11,0.58,1.04,-0.0380,0.0228,0.3432
13388,-0.0558,0.1013,0.3436,-0.0104,0.0053,0.0026,0.26,-0.25,0.74,0,3.574,-0.664,-1.216,-0.059,0.002,-0.017,0.992,0.000,0.000,0.000,0.3440,0,0,0.09,0.61,1.04,-0.0379,0.0224,0.3431
13439,-0.0576,0.1019,0.3438,-0.0107,0.0039,-0.0003,0.19,-0.26,0.75,0,3.563,-0.019,2.791,-0.481,0.001,-0.012,0.994,0.000,0.000,0.000,0.3430,0,1,0.06,0.55,1.04,-0.0375,0.0215,0.3431
13490,-0.0568,0.1018,0.3434,-0.0060,0.0018,-0.0055,0.20,-0.36,0.73,0,3.568,-1.296,-0.421,-0.666,0.001,-0.010,0.995,0.000,0.000,0.000,0.3430,0,0,0.01,0.66,1.00,-0.0387,0.0227,0.3427
13541,-0.0584,0.1018,0.3429,-0.0054,0.0002,-0.0093,0.07,-0.33,0.70,0,3.563,-0.969,-3.170,-0.684,0.001,-0.014,0.994,0.000,0.000,0.000,0.3400,0,0,-0.05,0.64,0.97,-0.0386,0.0224,0.3423
13593,-0.0575,0.1005,0.3412,-0.0007,-0.0028,-0.0167,-0.02,-0.18,0.67,0,3.568,-0.630,-0.788,-0.899,0.002,-0.011,0.999,0.000,0.000,0.000,0.3380,1,-1,-0.10,0.48,0.93,-0.0381,0.0218,0.3409
13644,-0.0575,0.1003,0.3391,0.0009,-0.0027,-0.0243,-0.06,-0.15,0.61,0,3.558,-1.500,-1.502,-0.796,0.001,-0.012,1.002,0.000,0.000,0.000,0.3360,0,-1,-0.16,0.42,0.87,-0.0385,0.0222,0.3392
13695,-0.0568,0.0928,0.3368,0.0031,-0.0152,-0.0290,-0.12,-0.07,0.56,0,3.563,-1.072,0.596,-0.623,0.004,-0.015,1.006,0.000,0.000,0.000,0.3320,0,0,-0.24,0.35,0.83,-0.0379,0.0220,0.3373
13746,-0.0553,0.0955,0.3335,0.0059,-0.0082,-0.0362,-0.20,-0.01,0.52,0,3.552,-1.406,-1.578,-1.088,0.004,-0.011,1.011,0.000,0.000,0.000,0.3350,0,0,-0.30,0.38,0.80,-0.0371,0.0215,0.3348
13797,-0.0551,0.0942,0.3330,0.0054,-0.0080,-0.0261,-0.34,0.15,0.47,0,3.563,2.569,1.376,-1.043,0.004,-0.014,1.011,0.000,0.000,0.000,0.3330,-2,0,-0.37,0.30,0.74,-0.0360,0.0208,0.3341
13848,-0.0536,0.0959,0.3322,0.0063,-0.0023,-0.0186,-0.24,0.15,0.43,0,3.552,4.378,1.006,-1.110,0.002,-0.011,1.012,0.000,0.000,0.000,0.3330,0,0,-0.29,0.32,0.67,-0.0378,0.0230,0.3335
13899,-0.0546,0.1000,0.3320,0.0028,0.0067,-0.0093,-0.12,0.11,0.38,0,3.563,1.701,1.675,-0.175,0.007,-0.013,1.011,0.000,0.000,0.000,0.3320,0,1,-0.06,0.37,0.61,-0.0375,0.0232,0.3331
13950,-0.0538,0.0994,0.3318,0.0030,0.0063,-0.0039,-0.02,0.07,0.34,0,3.558,0.651,-1.375,-0.666,0.001,-0.012,1.011,0.000,0.000,0.000,0.3310,-1,0,0.02,0.43,0.60,-0.0383,0.0232,0.3328
14001,-0.0558,0.1009,0.3314,-0.0010,0.0085,-0.0009,-0.01,0.12,0.32,0,3.568,2.221,5.571,-1.379,0.004,-0.012,1.004,0.000,0.000,0.000,0.3330,0,1,0.04,0.36,0.56,-0.0383,0.0236,0.3326
14052,-0.0559,0.1028,0.3321,-0.0021,0.0110,0.0050,0.05,-0.02,0.26,0,3.558,2.494,1.406,-0.902,0.004,-0.010,1.001,0.000,0.000,0.000,0.3300,0,0,0.15,0.62,0.50,-0.0389,0.0236,0.3331
14103,-0.0588,0.1165,0.3314,-0.0066,0.0334,0.0013,0.12,-0.12,0.22,0,3.563,3.874,0.737,-1.213,0.002,-0.009,1.002,0.000,0.000,0.000,0.3280,-1,0,0.27,0.70,0.45,-0.0387,0.0232,0.3325
14155,-0.0618,0.1190,0.3298,-0.0104,0.0337,-0.0064,0.36,-0.15,0.16,0,3.552,6.082,3.306,-2.465,0.004,-0.008,1.005,0.000,0.000,0.000,0.3300,0,0,0.44,0.72,0.38,-0.0392,0.0244,0.3315
14206,-0.0640,0.1188,0.3297,-0.0119,0.0277,-0.0048,0.61,-0.19,0.06,0,3.563,0.086,4.956,-1.186,0.005,-0.012,1.001,0.000,0.000,0.000,0.3300,0,1,0.75,0.89,0.25,-0.0387,0.0243,0.3313
14257,-0.0671,0.1191,0.3297,-0.0146,0.0206,-0.0026,0.64,-0.37,-0.02,0,3.558,-1.602,2.734,-1.027,0.004,-0.014,1.003,0.000,0.000,0.000,0.3330,0,1,0.73,1.10,0.24,-0.0398,0.0248,0.3314
14308,-0.0695,0.1244,0.3312,-0.0148,0.0233,0.0066,0.56,-0.40,-0.08,0,3.563,-1.887,-0.666,-1.729,0.002,-0.011,1.002,0.000,0.000,0.000,0.3300,0,0,0.63,1.22,0.20,-0.0401,0.0246,0.3322
14360,-0.0706,0.1285,0.3309,-0.0120,0.0244,0.0045,0.50,-0.40,-0.15,0,3.552,-1.581,1.591,-1.415,0.004,-0.009,1.002,0.000,0.000,0.000,0.3270,0,0,0.54,1.19,0.11,-0.0397,0.0236,0.3319
14411,-0.0720,0.1341,0.3293,-0.0101,0.0286,-0.0036,0.43,-0.41,-0.22,0,3.563,1.521,-3.460,-1.147,0.004,-0.012,1.000,0.000,0.000,0.000,0.3320,0,1,0.45,1.27,0.04,-0.0386,0.0222,0.3307
14462,-0.0735,0.1354,0.3304,-0.0087,0.0249,0.0030,0.48,-0.36,-0.28,0,3.552,0.345,1.776,-0.824,0.004,-0.012,1.004,0.000,0.000,0.000,0.3290,0,0,0.46,1.03,-0.05,-0.0415,0.0248,0.3319
14513,-0.0748,0.1361,0.3299,-0.0074,0.0199,-0.0001,0.53,-0.34,-0.32,0,3.563,-3.110,-2.101,-0.735,0.007,-0.008,1.001,0.000,0.000,0.000,0.3310,4,1,0.48,1.12,-0.09,-0.0411,0.0242,0.3314
14564,-0.0762,0.1363,0.3304,-0.0062,0.0139,0.0024,0.54,-0.33,-0.34,0,3.552,-2.851,-2.240,-0.235,0.004,-0.011,0.997,0.000,0.000,0.000,0.3320,0,0,0.33,0.97,-0.05,-0.0421,0.0228,0.3316
14615,-0.0781,0.1282,0.3312,-0.0069,-0.0072,0.0063,0.45,-0.24,-0.36,0,3.563,-7.659,-1.159,-0.529,0.000,-0.009,0.999,0.000,0.000,0.000,0.3300,0,0,0.18,0.85,-0.06,-0.0417,0.0210,0.3320
14666,-0.0795,0.1271,0.3309,-0.0069,-0.0124,0.0021,0.19,-0.26,-0.39,0,3.552,-3.879,-4.346,-0.877,0.002,-0.009,0.998,0.000,0.000,0.000,0.3320,0,0,-0.21,0.80,-0.09,-0.0409,0.0190,0.3316
14717,-0.0805,0.1267,0.3314,-0.0062,-0.0136,0.0035,-0.01,-0.19,-0.44,0,3.558,-2.023,1.696,-1.352,0.003,-0.006,0.998,0.000,0.000,0.000,0.3320,0,0,-0.40,0.57,-0.13,-0.0397,0.0168,0.3318
14768,-0.0816,0.1257,0.3318,-0.0060,-0.0140,0.0030,-0.16,-0.24,-0.48,0,3.552,0.356,-0.468,-0.790,0.006,-0.011,0.999,0.000,0.000,0.000,0.3340,0,0,-0.51,0.66,-0.20,-0.0382,0.0146,0.3319
14819,-0.0842,0.1257,0.3329,-0.0092,-0.0110,0.0074,-0.20,-0.18,-0.54,0,3.558,-0.477,2.392,-1.554,0.004,-0.008,0.997,0.000,0.000,0.000,0.3300,0,1,-0.49,0.64,-0.24,-0.0362,0.0124,0.3326
14870,-0.0842,0.1256,0.3318,-0.0067,-0.0086,-0.0016,-0.24,-0.19,-0.63,0,3.547,-0.841,2.510,-1.182,0.003,-0.013,0.997,0.000,0.000,0.000,0.3290,0,0,-0.59,0.67,-0.41,-0.0430,0.0182,0.3323
14921,-0.0873,0.1260,0.3304,-0.0106,-0.0049,-0.0095,-0.26,-0.19,-0.68,0,3.552,4.293,1.730,-0.345,0.004,-0.012,1.000,0.000,0.000,0.000,0.3280,1,1,-0.64,0.80,-0.47,-0.0428,0.0182,0.3312
14973,-0.0898,0.1260,0.3290,-0.0129,-0.0023,-0.0149,-0.18,-0.23,-0.70,0,3.547,1.169,-5.636,-1.748,0.003,-0.012,1.002,0.000,0.000,0.000,0.3310,1,0,-0.41,0.85,-0.53,-0.0436,0.0177,0.3299
15024,-0.0922,0.1226,0.3293,-0.0146,-0.0076,-0.0093,-0.06,-0.17,-0.76,0,3.558,-0.692,1.197,-1.271,0.003,-0.011,1.001,0.000,0.000,0.000,0.3310,0,1,-0.35,0.55,-0.62,-0.0435,0.0171,0.3299
15075,-0.0924,0.1242,0.3298,-0.0122,-0.0029,-0.0043,-0.14,-0.19,-0.80,0,3.552,2.342,1.441,-0.528,0.003,-0.012,1.003,0.000,0.000,0.000,0.3310,-2,1,-0.39,0.59,-0.71,-0.0440,0.0170,0.3301
15127,-0.0954,0.1234,0.3302,-0.0151,-0.0032,0.0007,-0.12,-0.23,-0.84,0,3.558,0.944,4.733,-0.577,0.005,-0.014,1.000,0.000,0.000,0.000,0.3320,0,0,-0.31,0.65,-0.77,-0.0447,0.0183,0.3303
15178,-0.0982,0.1277,0.3311,-0.0177,0.0066,0.0045,0.00,-0.23,-0.89,0,3.547,3.544,1.976,-1.592,0.004,-0.011,0.995,0.000,0.000,0.000,0.3280,-1,1,-0.26,0.89,-0.80,-0.0445,0.0186,0.3308
15229,-0.1007,0.1285,0.3298,-0.0188,0.0073,-0.0043,0.13,-0.30,-0.96,0,3.552,-0.602,1.600,-0.999,0.003,-0.011,0.998,0.000,0.000,0.000,0.3280,0,0,-0.09,0.96,-0.90,-0.0457,0.0191,0.3299
15280,-0.1043,0.1291,0.3288,-0.0216,0.0064,-0.0099,0.17,-0.42,-0.99,0,3.547,0.439,-0.446,-1.079,-0.001,-0.012,1.002,0.000,0.000,0.000,0.3280,0,1,-0.12,1.05,-0.95,-0.0455,0.0191,0.3290
15331,-0.1072,0.1369,0.3280,-0.0217,0.0207,-0.0111,0.17,-0.46,-1.04,0,3.552,2.066,1.358,-0.793,0.002,-0.012,0.998,0.000,0.000,0.000,0.3270,0,0,-0.10,0.99,-1.02,-0.0465,0.0192,0.3285
15382,-0.1098,0.1371,0.3271,-0.0211,0.0171,-0.0126,0.34,-0.48,-1.08,0,3.547,2.630,0.952,-0.971,0.002,-0.011,0.999,0.000,0.000,0.000,0.3260,-1,0,0.00,1.06,-1.06,-0.0462,0.0189,0.3276
15433,-0.1109,0.1374,0.3262,-0.0172,0.0130,-0.0136,0.48,-0.51,-1.14,0,3.552,0.450,-0.508,-1.113,0.006,-0.013,1.002,0.000,0.000,0.000,0.3270,-1,0,0.10,1.08,-1.14,-0.0467,0.0198,0.3268
15484,-0.1119,0.1395,0.3260,-0.0131,0.0119,-0.0097,0.45,-0.51,-1.20,0,3.542,0.848,0.676,-0.971,0.007,-0.009,1.005,0.000,0.000,0.000,0.3210,0,0,0.11,1.05,-1.22,-0.0465,0.0202,0.3264
15535,-0.1133,0.1409,0.3233,-0.0107,0.0097,-0.0191,0.46,-0.49,-1.24,0,3.547,-0.333,-0.663,-1.182,0.003,-0.010,1.006,0.000,0.000,0.000,0.3230,0,0,0.15,1.08,-1.27,-0.0455,0.0201,0.3244
15586,-0.1150,0.1398,0.3224,-0.0092,0.0025,-0.0175,0.45,-0.44,-1.30,0,3.542,-2.645,-1.829,-0.492,0.005,-0.013,1.009,0.000,0.000,0.000,0.3240,0,0,0.14,1.05,-1.33,-0.0440,0.0197,0.3236
15637,-0.1150,0.1405,0.3227,-0.0047,0.0001,-0.0076,0.33,-0.40,-1.34,0,3.547,-1.872,-1.955,-0.760,0.004,-0.009,1.011,0.000,0.000,0.000,0.3220,1,0,0.00,0.95,-1.35,-0.0418,0.0189,0.3235
15689,-0.1165,0.1407,0.3222,-0.0043,-0.0020,-0.0037,0.25,-0.34,-1.38,0,3.542,-1.755,-1.346,-0.848,0.006,-0.012,1.005,0.000,0.000,0.000,0.3230,0,0,-0.12,0.76,-1.38,-0.0468,0.0204,0.3236
15740,-0.1155,0.1395,0.3225,0.0010,-0.0063,0.0029,0.16,-0.25,-1.42,0,3.547,-1.785,-3.120,-0.622,0.000,-0.010,1.006,0.000,0.000,0.000,0.3210,0,0,-0.21,0.69,-1.43,-0.0462,0.0199,0.3237
15791,-0.1145,0.1396,0.3220,0.0049,-0.0065,0.0022,0.01,-0.15,-1.46,0,3.542,-1.837,-2.606,-0.114,0.003,-0.013,1.004,0.000,0.000,0.000,0.3200,0,-1,-0.30,0.53,-1.46,-0.0454,0.0193,0.3232
15843,-0.1142,0.1393,0.3212,0.0060,-0.0064,-0.0008,-0.07,-0.05,-1.46,0,3.547,-0.156,-1.228,0.669,0.001,-0.015,1.006,0.000,0.000,0.000,0.3230,0,-1,-0.43,0.37,-1.48,-0.0462,0.0201,0.3225
15895,-0.1134,0.1377,0.3220,0.0070,-0.0083,0.0052,-0.09,0.06,-1.44,0,3.542,0.124,-1.280,0.284,0.002,-0.014,1.003,0.000,0.000,0.000,0.3250,0,0,-0.44,0.31,-1.44,-0.0456,0.0200,0.3230
15946,-0.1119,0.1377,0.3237,0.0088,-0.0067,0.0133,-0.12,0.10,-1.41,0,3.547,0.888,-1.521,0.906,-0.000,-0.011,1.003,0.000,0.000,0.000,0.3220,0,1,-0.43,0.24,-1.43,-0.0448,0.0197,0.3241
15998,-0.1121,0.1425,0.3235,0.0065,0.0047,0.0099,-0.14,0.19,-1.39,0,3.542,2.673,1.086,-0.366,0.001,-0.009,1.001,0.000,0.000,0.000,0.3230,0,0,-0.40,0.13,-1.41,-0.0460,0.0200,0.3242
16049,-0.1155,0.1431,0.3236,-0.0024,0.0064,0.0089,-0.01,0.20,-1.38,0,3.552,4.707,3.383,-0.883,0.006,-0.011,1.000,0.000,0.000,0.000,0.3250,0,2,-0.26,0.18,-1.43,-0.0462,0.0199,0.3244
16100,-0.1149,0.1445,0.3246,-0.0022,0.0086,0.0105,0.08,0.08,-1.41,0,3.542,2.038,1.755,0.008,0.004,-0.014,1.000,0.000,0.000,0.000,0.3260,-2,0,-0.03,0.33,-1.48,-0.0473,0.0201,0.3251
16152,-0.1177,0.1530,0.3256,-0.0079,0.0225,0.0122,0.15,0.03,-1.42,0,3.552,5.909,-0.134,0.786,0.000,-0.009,0.997,0.000,0.000,0.000,0.3280,0,0,0.05,0.43,-1.46,-0.0473,0.0209,0.3261
16203,-0.1209,0.1548,0.3272,-0.0133,0.0217,0.0148,0.42,-0.04,-1.41,0,3.542,2.038,-0.338,0.128,0.000,-0.013,0.991,0.000,0.000,0.000,0.3250,0,0,0.36,0.42,-1.42,-0.0473,0.0211,0.3272
16254,-0.1225,0.1541,0.3266,-0.0146,0.0145,0.0058,0.63,-0.18,-1.37,0,3.547,-0.813,5.043,1.568,0.006,-0.012,0.994,0.000,0.000,0.000,0.3270,0,1,0.46,0.40,-1.41,-0.0470,0.0208,0.3269
16305,-0.1246,0.1543,0.3269,-0.0156,0.0084,0.0028,0.61,-0.36,-1.31,0,3.537,-1.136,-0.096,1.178,0.002,-0.013,0.997,0.000,0.000,0.000,0.3230,0,0,0.39,0.63,-1.30,-0.0483,0.0220,0.3273
16356,-0.1286,0.1558,0.3251,-0.0191,0.0057,-0.0088,0.57,-0.31,-1.25,0,3.547,-1.371,-0.562,0.577,0.002,-0.009,0.999,0.000,0.000,0.000,0.3240,1,0,0.34,0.63,-1.24,-0.0481,0.0214,0.3260
16407,-0.1320,0.1561,0.3242,-0.0212,0.0013,-0.0124,0.51,-0.37,-1.20,0,3.537,-3.653,3.568,1.431,0.004,-0.014,1.000,0.000,0.000,0.000,0.3280,0,1,0.25,0.58,-1.20,-0.0484,0.0214,0.3253
16459,-0.1334,0.1520,0.3256,-0.0187,-0.0107,-0.0029,0.39,-0.48,-1.15,0,3.547,-4.803,1.608,1.045,0.007,-0.011,0.998,0.000,0.000,0.000,0.3250,0,1,0.05,0.75,-1.11,-0.0487,0.0211,0.3260
16511,-0.1347,0.1511,0.3252,-0.0153,-0.0144,-0.0050,0.21,-0.53,-1.08,0,3.537,-3.533,-3.092,1.417,0.005,-0.010,0.997,0.000,0.000,0.000,0.3260,0,0,-0.22,0.81,-1.05,-0.0492,0.0210,0.3256
16562,-0.1364,0.1511,0.3254,-0.0130,-0.0147,-0.0027,0.07,-0.41,-1.01,0,3.547,1.162,1.650,1.202,0.005,-0.009,0.997,0.000,0.000,0.000,0.3260,0,1,-0.40,0.65,-0.98,-0.0489,0.0205,0.3255
16613,-0.1368,0.1495,0.3255,-0.0092,-0.0167,-0.0025,0.04,-0.46,-0.95,0,3.542,0.383,1.320,0.953,0.005,-0.014,0.993,0.000,0.000,0.000,0.3280,1,0,-0.36,0.70,-0.93,-0.0501,0.0210,0.3254
16664,-0.1380,0.1501,0.3266,-0.0067,-0.0142,0.0010,-0.02,-0.43,-0.91,0,3.547,-1.927,-2.794,1.136,0.004,-0.012,0.994,0.000,0.000,0.000,0.3260,0,0,-0.33,0.76,-0.88,-0.0501,0.0204,0.3258
16715,-0.1392,0.1467,0.3263,-0.0051,-0.0190,-0.0026,-0.13,-0.28,-0.84,0,3.537,-0.445,-0.282,0.223,0.001,-0.012,0.994,0.000,0.000,0.000,0.3220,3,0,-0.43,0.62,-0.83,-0.0495,0.0198,0.3254
16766,-0.1398,0.1493,0.3241,-0.0036,-0.0113,-0.0150,-0.18,-0.24,-0.80,0,3.547,-0.822,-1.946,0.376,0.003,-0.011,0.995,0.000,0.000,0.000,0.3260,0,0,-0.44,0.58,-0.83,-0.0502,0.0186,0.3238
16817,-0.1412,0.1468,0.3243,-0.0041,-0.0136,-0.0128,-0.14,-0.20,-0.78,0,3.531,-0.001,-0.001,0.652,0.006,-0.009,0.997,0.000,0.000,0.000,0.3210,0,0,-0.48,0.48,-0.81,-0.0498,0.0175,0.3236
16868,-0.1413,0.1462,0.3222,-0.0023,-0.0124,-0.0206,-0.15,-0.21,-0.76,0,3.542,-1.486,-2.011,0.199,0.004,-0.013,1.002,0.000,0.000,0.000,0.3200,0,-1,-0.48,0.48,-0.78,-0.0490,0.0164,0.3219
16920,-0.1430,0.1459,0.3204,-0.0034,-0.0106,-0.0243,-0.18,-0.14,-0.76,0,3.516,0.165,-0.559,0.653,0.005,-0.011,1.005,0.000,0.000,0.000,0.3210,0,0,-0.60,0.35,-0.79,-0.0499,0.0178,0.3205
16971,-0.1423,0.1447,0.3198,-0.0008,-0.0100,-0.0197,-0.19,-0.17,-0.73,0,3.537,20.252,104.740,1.281,-0.010,-0.009,1.012,0.000,0.000,0.000,0.3180,-5,14,-0.59,0.32,-0.76,-0.0493,0.0177,0.3198
17023,-0.1370,0.1463,0.3185,0.0124,-0.0053,-0.0192,0.57,-4.30,-0.69,0,3.531,34.970,143.224,-0.977,0.015,-0.009,1.018,0.000,0.000,0.000,0.3160,-2,6,0.39,5.51,-0.87,-0.0563,0.0201,0.3228
17074,-0.1470,0.1602,0.3169,0.0288,0.0167,-0.0185,2.20,-11.24,-0.55,0,3.542,22.389,30.972,-1.447,0.009,-0.017,1.014,0.000,0.000,0.000,0.3320,-3,-1,2.23,12.91,-0.76,-0.0591,0.0213,0.3242
17127,-0.1488,0.1597,0.3224,0.1128,-0.0047,0.0085,3.33,-13.60,-0.51,0,3.537,6.844,-5.676,-0.830,-0.006,-0.008,0.999,0.000,0.000,0.000,0.3310,4,-4,3.15,14.49,-1.52,-0.0577,0.0221,0.3312
17178,-0.1413,0.1608,0.3255,0.2257,-0.0302,0.0116,3.78,-13.45,-0.55,0,3.542,0.892,5.500,-0.277,-0.002,-0.007,0.990,0.000,0.000,0.000,0.3260,0,-5,3.97,13.97,0.24,-0.0516,0.0210,0.3383
17229,-0.1229,0.1540,0.3248,0.3477,-0.0720,-0.0097,3.85,-13.69,-0.55,0,3.531,-4.568,-28.571,1.416,-0.010,-0.008,0.993,0.000,0.000,0.000,0.3220,3,-12,3.75,14.17,-0.62,-0.0469,0.0194,0.3449
17280,-0.1060,0.1494,0.3220,0.4552,-0.1064,-0.0365,3.72,-12.43,-0.55,0,3.531,-15.903,-60.786,2.274,-0.018,-0.008,1.004,0.000,0.000,0.000,0.3180,2,-10,3.47,12.62,-0.71,-0.0384,0.0170,0.3437
17331,-0.0795,0.1395,0.3180,0.5624,-0.1468,-0.0582,3.02,-9.63,-0.56,0,3.521,-19.479,-60.961,1.591,-0.020,-0.002,1.018,0.000,0.000,0.000,0.3150,9,-18,2.54,9.35,-1.02,-0.0321,0.0152,0.3428
17383,-0.0525,0.1264,0.3147,0.6381,-0.1838,-0.0625,2.07,-6.52,-0.52,0,3.526,-24.021,-59.638,0.842,-0.022,-0.005,1.028,0.000,0.000,0.000,0.3080,8,-19,1.68,6.16,-0.17,-0.0202,0.0105,0.3374
17434,-0.0287,0.1108,0.3097,0.6744,-0.2145,-0.0640,0.97,-3.39,-0.48,0,3.510,-26.378,-54.381,-0.396,-0.025,-0.004,1.040,0.000,0.000,0.000,0.2990,4,-11,0.41,2.99,-0.19,-0.0099,0.0058,0.3312
17487,0.0047,0.0947,0.3030,0.7038,-0.2349,-0.0680,-0.31,-0.68,-0.47,0,3.521,-24.440,-50.077,-1.688,-0.026,-0.009,1.045,0.000,0.000,0.000,0.2970,6,-20,-1.00,0.06,-0.35,-0.0055,0.0035,0.3230
17539,0.0331,0.0807,0.2984,0.6942,-0.2379,-0.0566,-1.58,1.90,-0.48,0,3.516,-19.119,-40.630,-0.870,-0.023,-0.006,1.050,0.000,0.000,0.000,0.2940,1,-10,-2.30,-2.53,-0.34,0.0061,0.0001,0.3191
17590,0.0697,0.0715,0.2950,0.6830,-0.2182,-0.0385,-2.66,4.08,-0.52,0,3.526,-12.814,-34.581,0.285,-0.024,-0.006,1.049,0.000,0.000,0.000,0.3040,2,-8,-3.34,-4.71,-0.28,0.0103,0.0001,0.3122
17641,0.1007,0.0723,0.2981,0.6408,-0.1669,0.0051,-3.39,5.79,-0.48,0,3.526,5.539,-21.400,0.899,-0.021,-0.008,1.038,0.000,0.000,0.000,0.3080,3,-12,-3.97,-6.47,-0.30,0.0147,-0.0014,0.3125
17692,0.1279,0.0701,0.3032,0.5796,-0.1229,0.0453,-3.24,6.94,-0.39,0,3.542,8.745,-11.626,0.459,-0.014,-0.007,1.016,0.000,0.000,0.000,0.3050,0,-10,-3.66,-7.42,-0.08,0.0226,-0.0030,0.3188
17743,0.1503,0.0568,0.3060,0.5055,-0.1142,0.0552,-2.79,7.65,-0.37,0,3.537,-0.847,-2.092,-1.450,-0.012,-0.008,1.003,0.000,0.000,0.000,0.3110,4,-2,-3.27,-7.89,0.37,0.0291,-0.0018,0.3198
17794,0.1716,0.0502,0.3100,0.4337,-0.0941,0.0606,-2.68,7.86,-0.46,0,3.547,1.132,6.708,-1.443,-0.014,-0.008,0.992,0.000,0.000,0.000,0.3120,3,-4,-3.06,-8.04,-0.68,0.0284,-0.0070,0.3211
17846,0.1885,0.0499,0.3130,0.3591,-0.0600,0.0536,-2.61,7.58,-0.62,0,3.537,5.850,11.498,-3.384,-0.003,-0.013,0.989,0.000,0.000,0.000,0.3110,6,-1,-2.94,-7.59,-0.85,0.0306,-0.0091,0.3237
17897,0.2020,0.0475,0.3137,0.2847,-0.0356,0.0355,-2.33,7.12,-0.81,0,3.537,10.379,19.396,-2.887,0.001,-0.013,0.988,0.000,0.000,0.000,0.3100,0,-1,-2.44,-6.95,-1.68,0.0303,-0.0148,0.3228
17949,0.2131,0.0489,0.3131,0.2200,-0.0074,0.0150,-1.80,6.30,-1.02,0,3.526,10.492,16.847,-3.400,0.001,-0.013,0.992,0.000,0.000,0.000,0.3120,0,0,-2.00,-5.85,-1.20,0.0322,-0.0132,0.3217
18000,0.2210,0.0541,0.3130,0.1619,0.0229,0.0036,-1.26,5.39,-1.18,0,3.526,16.713,20.611,-2.211,0.003,-0.018,0.995,0.000,0.000,0.000,0.3070,-1,1,-1.44,-4.98,-1.40,0.0286,-0.0132,0.3199
18051,0.2282,0.0619,0.3102,0.1157,0.0529,-0.0149,-0.59,4.40,-1.25,0,3.516,15.708,20.415,-1.088,0.003,-0.013,1.003,0.000,0.000,0.000,0.3070,-6,3,-0.62,-3.74,-1.07,0.0347,-0.0118,0.3182
18102,0.2313,0.0672,0.3082,0.0728,0.0663,-0.0219,0.15,3.42,-1.26,0,3.521,16.150,20.228,-1.115,0.005,-0.011,1.012,0.000,0.000,0.000,0.3020,0,3,0.09,-2.69,-0.72,0.0338,-0.0079,0.3154
18153,0.2332,0.0710,0.3046,0.0395,0.0668,-0.0314,0.99,2.47,-1.38,0,3.516,10.500,17.594,-0.882,0.003,-0.018,1.014,0.000,0.000,0.000,0.3000,0,0,0.96,-1.63,-0.93,0.0322,-0.0083,0.3116
18204,0.2331,0.0761,0.3014,0.0130,0.0653,-0.0336,1.49,1.61,-1.34,0,3.521,3.872,15.093,-0.197,0.005,-0.016,1.020,0.000,0.000,0.000,0.3000,-5,3,1.50,-0.73,-0.95,0.0296,-0.0085,0.3081
18255,0.2314,0.0817,0.2997,-0.0074,0.0609,-0.0265,1.66,0.84,-1.27,0,3.516,10.645,15.048,-1.249,0.007,-0.012,1.028,0.000,0.000,0.000,0.2990,0,1,1.60,0.11,-0.79,0.0312,-0.0043,0.3067
18306,0.2281,0.0847,0.2987,-0.0236,0.0464,-0.0146,2.10,0.13,-1.34,0,3.521,4.689,14.692,-1.275,0.008,-0.011,1.026,0.000,0.000,0.000,0.3000,0,1,2.15,0.89,-0.84,0.0307,-0.0043,0.3049
18357,0.2298,0.0932,0.2990,-0.0162,0.0474,0.0013,2.25,-0.62,-1.31,0,3.516,1.298,6.958,-1.412,0.006,-0.013,1.021,0.000,0.000,0.000,0.3020,-3,0,2.37,1.63,-0.85,0.0303,-0.0043,0.3047
18408,0.2274,0.0878,0.3007,-0.0158,0.0057,0.0187,2.31,-1.05,-1.37,0,3.531,3.684,1.591,0.212,0.002,-0.010,1.014,0.000,0.000,0.000,0.3050,4,0,2.35,1.98,-0.95,0.0304,-0.0027,0.3062
18461,0.2276,0.0931,0.3035,-0.0049,0.0011,0.0339,2.30,-1.19,-1.34,0,3.526,-3.815,2.023,0.138,0.004,-0.010,1.005,0.000,0.000,0.000,0.3060,4,0,2.58,2.03,-0.82,0.0306,-0.0051,0.3078
18512,0.2276,0.0900,0.3060,0.0051,-0.0269,0.0412,2.23,-1.23,-1.36,0,3.537,-7.245,-2.655,1.175,0.007,-0.008,0.998,0.000,0.000,0.000,0.3080,0,-4,2.36,2.10,-0.75,0.0307,-0.0074,0.3096
18563,0.2288,0.0873,0.3084,0.0174,-0.0483,0.0431,1.90,-1.19,-1.31,0,3.526,-12.858,-5.602,1.305,0.002,-0.008,0.992,0.000,0.000,0.000,0.3080,0,0,1.90,1.99,-0.90,0.0330,-0.0081,0.3117
18614,0.2318,0.0800,0.3097,0.0322,-0.0781,0.0356,1.46,-0.95,-1.29,0,3.531,-9.300,-6.231,0.883,-0.001,-0.009,0.990,0.000,0.000,0.000,0.3080,1,-5,1.25,1.70,-0.84,0.0361,-0.0109,0.3121
18665,0.2338,0.0734,0.3101,0.0401,-0.0976,0.0248,0.83,-0.61,-1.26,0,3.521,-18.764,-8.464,1.678,0.002,-0.007,0.993,0.000,0.000,0.000,0.3090,1,-1,0.67,1.31,-0.82,0.0357,-0.0084,0.3129
18716,0.2386,0.0676,0.3104,0.0524,-0.1075,0.0160,-0.04,-0.21,-1.19,0,3.531,-11.729,-9.760,1.020,0.004,-0.007,0.992,0.000,0.000,0.000,0.3140,4,0,-0.29,0.85,-0.71,0.0368,-0.0090,0.3122
18767,0.2426,0.0654,0.3125,0.0581,-0.0990,0.0187,-0.65,0.23,-1.13,0,3.521,-8.196,-8.747,1.728,0.005,-0.006,0.996,0.000,0.000,0.000,0.3170,5,-1,-0.86,0.31,-0.62,0.0371,-0.0113,0.3135
18818,0.2460,0.0641,0.3152,0.0578,-0.0832,0.0255,-1.01,0.63,-1.06,0,3.531,-7.605,-7.934,0.483,0.003,-0.005,0.995,0.000,0.000,0.000,0.3140,1,0,-1.24,-0.14,-0.53,0.0378,-0.0145,0.3152
18869,0.2491,0.0569,0.3155,0.0537,-0.0821,0.0176,-1.38,0.94,-1.02,0,3.521,-3.806,-4.198,-0.228,0.002,-0.008,0.992,0.000,0.000,0.000,0.3150,10,-2,-1.66,-0.57,-0.50,0.0377,-0.0152,0.3154
18920,0.2514,0.0542,0.3158,0.0452,-0.0671,0.0110,-1.51,1.23,-1.02,0,3.531,-1.562,-3.780,-0.757,-0.002,-0.009,0.990,0.000,0.000,0.000,0.3160,0,-2,-1.74,-0.76,-0.59,0.0388,-0.0219,0.3167
18971,0.2548,0.0462,0.3162,0.0387,-0.0667,0.0061,-1.66,1.42,-1.05,0,3.521,-3.827,-2.929,-1.846,0.004,-0.011,0.995,0.000,0.000,0.000,0.3170,0,0,-1.89,-0.93,-0.49,0.0404,-0.0215,0.3178
19022,0.2582,0.0458,0.3167,0.0318,-0.0456,0.0033,-1.86,1.55,-1.13,0,3.531,1.435,-1.216,-1.692,0.006,-0.010,1.000,0.000,0.000,0.000,0.3180,4,0,-2.08,-1.08,-0.58,0.0410,-0.0225,0.3178
19073,0.2589,0.0390,0.3174,0.0171,-0.0426,0.0044,-1.65,1.65,-1.25,0,3.521,-0.599,2.626,-1.717,0.001,-0.012,0.992,0.000,0.000,0.000,0.3190,0,0,-1.97,-1.16,-0.74,0.0406,-0.0249,0.3183
19125,0.2590,0.0340,0.3182,0.0026,-0.0362,0.0041,-1.63,1.49,-1.32,0,3.526,-4.610,0.842,-2.092,0.004,-0.013,0.991,0.000,0.000,0.000,0.3150,-1,0,-2.00,-1.03,-0.83,0.0401,-0.0255,0.3186
19176,0.2597,0.0404,0.3168,-0.0078,-0.0022,-0.0069,-1.87,1.34,-1.42,0,3.521,7.090,-0.217,-2.122,0.006,-0.013,0.996,0.000,0.000,0.000,0.3150,0,0,-2.25,-0.96,-0.86,0.0408,-0.0248,0.3173
19227,0.2588,0.0409,0.3157,-0.0194,0.0142,-0.0119,-1.47,1.17,-1.53,0,3.526,10.981,10.659,-2.076,0.003,-0.011,0.993,0.000,0.000,0.000,0.3160,0,1,-1.89,-0.98,-0.97,0.0404,-0.0239,0.3162
19278,0.2546,0.0398,0.3153,-0.0366,0.0222,-0.0133,-1.00,0.86,-1.66,0,3.516,-0.420,6.993,-2.095,0.006,-0.010,1.001,0.000,0.000,0.000,0.3140,0,2,-1.28,-0.43,-1.14,0.0402,-0.0249,0.3156
19329,0.2544,0.0502,0.3142,-0.0388,0.0533,-0.0160,-0.89,0.31,-1.76,0,3.521,10.860,3.298,-2.313,0.003,-0.011,1.001,0.000,0.000,0.000,0.3180,-4,3,-1.29,-0.09,-1.29,0.0391,-0.0249,0.3145
19380,0.2511,0.0468,0.3154,-0.0445,0.0458,-0.0048,-0.31,0.05,-1.87,0,3.516,10.166,4.663,-1.185,0.004,-0.011,1.004,0.000,0.000,0.000,0.3100,0,1,-0.78,0.05,-1.41,0.0374,-0.0224,0.3151
19432,0.2509,0.0552,0.3127,-0.0394,0.0630,-0.0158,0.20,-0.28,-1.92,0,3.521,6.190,2.735,-0.829,0.007,-0.013,1.008,0.000,0.000,0.000,0.3100,2,2,-0.23,0.31,-1.48,0.0367,-0.0224,0.3133
19483,0.2492,0.0558,0.3109,-0.0367,0.0556,-0.0189,0.57,-0.46,-1.95,0,3.516,8.198,-0.402,-0.036,0.008,-0.016,1.008,0.000,0.000,0.000,0.3140,-3,1,0.13,0.43,-1.54,0.0354,-0.0237,0.3116
19535,0.2455,0.0606,0.3118,-0.0374,0.0562,-0.0066,0.91,-0.41,-1.96,0,3.521,6.393,1.455,0.763,0.004,-0.013,1.009,0.000,0.000,0.000,0.3090,0,0,0.49,0.41,-1.54,0.0348,-0.0217,0.3129
19587,0.2438,0.0636,0.3103,-0.0339,0.0493,-0.0089,1.09,-0.48,-1.89,0,3.510,4.664,1.429,1.637,0.006,-0.012,1.008,0.000,0.000,0.000,0.3070,-3,1,0.82,0.49,-1.50,0.0344,-0.0216,0.3117
19638,0.2425,0.0645,0.3086,-0.0289,0.0363,-0.0112,1.45,-0.63,-1.81,0,3.521,2.862,-2.625,1.528,0.005,-0.012,1.009,0.000,0.000,0.000,0.3080,0,0,1.02,0.55,-1.41,0.0339,-0.0193,0.3106
19689,0.2416,0.0637,0.3080,-0.0230,0.0180,-0.0079,1.55,-0.53,-1.73,0,3.510,-4.484,-4.702,1.634,0.003,-0.012,1.011,0.000,0.000,0.000,0.3050,0,1,1.16,0.41,-1.33,0.0340,-0.0193,0.3099
19740,0.2424,0.0647,0.3064,-0.0144,0.0053,-0.0092,1.32,-0.44,-1.65,0,3.521,-8.495,0.353,1.586,0.004,-0.013,1.007,0.000,0.000,0.000,0.3100,0,0,0.91,0.15,-1.22,0.0333,-0.0187,0.3088
19792,0.2422,0.0652,0.3078,-0.0100,-0.0049,0.0033,1.08,-0.43,-1.61,0,3.516,-4.589,-3.931,-0.145,0.005,-0.010,1.007,0.000,0.000,0.000,0.3090,8,0,0.48,0.17,-1.14,0.0333,-0.0196,0.3095
19844,0.2436,0.0651,0.3086,-0.0025,-0.0137,0.0098,0.98,-0.23,-1.61,0,3.521,-6.266,-4.358,-0.773,-0.000,-0.009,1.001,0.000,0.000,0.000,0.3090,0,-2,0.28,-0.04,-1.15,0.0331,-0.0229,0.3099
19896,0.2443,0.0562,0.3092,0.0008,-0.0392,0.0122,0.66,-0.06,-1.65,0,3.510,-15.904,-4.367,-1.144,0.003,-0.013,1.002,0.000,0.000,0.000,0.3070,1,0,-0.10,-0.24,-1.19,0.0340,-0.0237,0.3109
19947,0.2451,0.0458,0.3086,0.0028,-0.0633,0.0065,0.22,0.06,-1.70,0,3.526,-14.246,-5.695,-2.903,0.003,-0.010,1.002,0.000,0.000,0.000,0.3110,1,0,-0.95,-0.48,-1.23,0.0341,-0.0243,0.3102
19998,0.2433,0.0368,0.3099,-0.0025,-0.0772,0.0119,-0.51,0.25,-1.79,0,3.516,-18.046,-0.132,-2.285,0.002,-0.009,1.001,0.000,0.000,0.000,0.3050,1,0,-1.68,-0.78,-1.37,0.0341,-0.0249,0.3109
20049,0.2438,0.0304,0.3081,-0.0034,-0.0778,0.0001,-1.29,0.34,-1.88,0,3.521,-6.535,-2.721,-4.499,-0.002,-0.011,0.999,0.000,0.000,0.000,0.3110,0,1,-2.59,-0.79,-1.49,0.0340,-0.0255,0.3097
20101,0.2438,0.0235,0.3094,-0.0052,-0.0724,0.0068,-1.90,0.40,-2.05,0,3.510,-8.492,-2.467,-5.257,0.006,-0.008,0.997,0.000,0.000,0.000,0.3060,5,1,-2.91,-0.94,-1.73,0.0333,-0.0255,0.3105
20152,0.2438,0.0243,0.3081,-0.0073,-0.0468,-0.0019,-2.35,0.45,-2.29,0,3.521,-1.616,-0.953,-6.175,0.004,-0.011,1.001,0.000,0.000,0.000,0.3110,0,0,-3.25,-1.08,-2.11,0.0324,-0.0290,0.3106
20203,0.2428,0.0223,0.3093,-0.0116,-0.0266,0.0028,-2.57,0.45,-2.58,0,3.510,-0.896,1.574,-5.774,0.005,-0.016,0.998,0.000,0.000,0.000,0.3100,0,0,-3.33,-1.15,-2.42,0.0313,-0.0291,0.3111
20254,0.2416,0.0243,0.3097,-0.0154,0.0020,0.0040,-2.73,0.38,-2.88,0,3.521,1.840,2.693,-5.685,0.002,-0.017,0.998,0.000,0.000,0.000,0.3100,-1,0,-3.37,-1.09,-2.72,0.0298,-0.0281,0.3110
20305,0.2396,0.0244,0.3100,-0.0201,0.0241,0.0022,-2.65,0.28,-3.19,0,3.510,4.238,3.039,-5.680,-0.000,-0.017,0.996,0.000,0.000,0.000,0.3080,0,0,-3.21,-0.90,-2.89,0.0327,-0.0302,0.3116
20356,0.2383,0.0276,0.3091,-0.0217,0.0493,-0.0043,-2.50,0.18,-3.50,0,3.516,5.153,1.998,-5.079,0.003,-0.019,0.997,0.000,0.000,0.000,0.3080,-1,0,-2.99,-0.76,-3.19,0.0323,-0.0290,0.3107
20407,0.2367,0.0321,0.3084,-0.0229,0.0736,-0.0078,-2.30,0.08,-3.77,0,3.510,4.529,2.244,-3.169,0.002,-0.014,1.003,0.000,0.000,0.000,0.3100,0,1,-2.67,-0.65,-3.45,0.0327,-0.0296,0.3099
20458,0.2357,0.0385,0.3089,-0.0222,0.0974,-0.0021,-2.03,0.02,-3.97,0,3.521,7.057,1.476,-2.866,0.005,-0.021,1.002,0.000,0.000,0.000,0.3100,3,1,-2.41,-0.55,-3.66,0.0321,-0.0292,0.3099
20509,0.2341,0.0475,0.3094,-0.0220,0.1231,0.0026,-1.72,-0.08,-4.12,0,3.510,8.202,1.699,-2.197,0.005,-0.020,0.997,0.000,0.000,0.000,0.3070,-5,0,-1.99,-0.48,-3.87,0.0312,-0.0309,0.3099
20560,0.2333,0.0467,0.3084,-0.0194,0.1213,-0.0019,-1.35,-0.16,-4.22,0,3.521,4.309,0.976,-0.373,0.007,-0.017,1.002,0.000,0.000,0.000,0.3110,-2,2,-1.64,-0.38,-3.90,0.0316,-0.0276,0.3098
20611,0.2338,0.0553,0.3095,-0.0142,0.1368,0.0047,-1.09,-0.18,-4.25,0,3.510,6.137,-2.175,0.453,0.003,-0.020,1.002,0.000,0.000,0.000,0.3110,-1,0,-1.40,-0.35,-3.96,0.0303,-0.0263,0.3104
20662,0.2318,0.0657,0.3104,-0.0149,0.1531,0.0087,-0.86,-0.11,-4.24,0,3.521,9.058,-1.313,0.272,0.003,-0.019,0.997,0.000,0.000,0.000,0.3060,-5,0,-1.07,-0.44,-3.92,0.0304,-0.0257,0.3109
20713,0.2302,0.0692,0.3088,-0.0157,0.1504,-0.0013,-0.46,-0.04,-4.21,0,3.510,4.818,-1.092,0.743,0.006,-0.020,1.000,0.000,0.000,0.000,0.3090,0,0,-0.65,-0.50,-3.87,0.0307,-0.0225,0.3097
20764,0.2307,0.0805,0.3088,-0.0122,0.1618,-0.0013,-0.20,-0.01,-4.19,0,3.516,4.905,-1.808,1.097,0.002,-0.022,1.001,0.000,0.000,0.000,0.3070,-4,0,-0.40,-0.56,-3.83,0.0306,-0.0204,0.3095
20816,0.2289,0.0842,0.3079,-0.0150,0.1527,-0.0050,0.05,0.11,-4.15,0,3.510,0.745,-1.787,1.185,0.004,-0.019,1.002,0.000,0.000,0.000,0.3090,-3,0,-0.14,-0.63,-3.78,0.0310,-0.0195,0.3087
20868,0.2298,0.0921,0.3083,-0.0124,0.1520,-0.0013,0.20,0.17,-4.10,0,3.516,-0.824,-3.215,1.697,0.005,-0.017,1.002,0.000,0.000,0.000,0.3110,0,0,-0.12,-0.72,-3.71,0.0311,-0.0178,0.3088
20919,0.2284,0.1017,0.3095,-0.0158,0.1559,0.0044,0.11,0.28,-4.03,0,3.510,0.457,-3.232,2.107,0.007,-0.017,1.001,0.000,0.000,0.000,0.3050,-5,0,-0.17,-0.89,-3.62,0.0308,-0.0168,0.3095
20970,0.2271,0.1068,0.3075,-0.0195,0.1491,-0.0057,0.06,0.41,-3.94,0,3.516,2.231,-1.692,2.035,0.006,-0.019,1.004,0.000,0.000,0.000,0.3090,-3,0,-0.17,-1.04,-3.49,0.0314,-0.0145,0.3082
21021,0.2269,0.1164,0.3080,-0.0214,0.1533,-0.0017,0.17,0.49,-3.82,0,3.505,1.369,-4.890,3.036,0.001,-0.017,1.000,0.000,0.000,0.000,0.3080,-1,0,-0.08,-1.12,-3.37,0.0315,-0.0128,0.3085
21073,0.2251,0.1278,0.3079,-0.0273,0.1608,-0.0004,0.21,0.65,-3.68,0,3.510,4.601,-0.127,3.176,0.001,-0.015,1.002,0.000,0.000,0.000,0.3070,-8,0,-0.00,-1.35,-3.24,0.0314,-0.0122,0.3085
21124,0.2236,0.1307,0.3075,-0.0333,0.1472,-0.0008,0.39,0.75,-3.52,0,3.505,0.250,-1.603,3.491,0.005,-0.014,1.005,0.000,0.000,0.000,0.3110,0,0,0.14,-1.34,-2.94,0.0318,-0.0070,0.3085
21175,0.2218,0.1386,0.3092,-0.0400,0.1449,0.0095,0.47,0.82,-3.36,0,3.510,-4.283,-1.377,3.636,0.003,-0.014,1.000,0.000,0.000,0.000,0.3040,-4,0,0.15,-1.42,-2.76,0.0311,-0.0042,0.3095
21226,0.2179,0.1419,0.3072,-0.0511,0.1322,-0.0016,0.32,0.83,-3.17,0,3.505,-2.726,3.564,3.910,0.009,-0.014,1.003,0.000,0.000,0.000,0.3110,1,3,-0.04,-1.45,-2.66,0.0322,-0.0041,0.3086
21277,0.2152,0.1525,0.3090,-0.0582,0.1385,0.0088,0.30,0.70,-2.97,0,3.516,-0.536,3.939,4.604,0.005,-0.020,0.999,0.000,0.000,0.000,0.3100,0,-1,-0.16,-1.29,-2.50,0.0305,-0.0043,0.3096
21328,0.2106,0.1549,0.3099,-0.0673,0.1262,0.0119,0.27,0.54,-2.76,0,3.510,-8.841,2.178,4.489,0.008,-0.014,1.004,0.000,0.000,0.000,0.3080,1,2,-0.19,-1.05,-2.28,0.0309,-0.0044,0.3104
21379,0.2087,0.1630,0.3094,-0.0683,0.1286,0.0072,0.02,0.46,-2.56,0,3.516,-0.769,0.538,3.162,0.007,-0.016,1.002,0.000,0.000,0.000,0.3080,-1,0,-0.64,-0.95,-2.05,0.0296,-0.0050,0.3102
21431,0.2049,0.1628,0.3091,-0.0726,0.1135,0.0041,0.04,0.41,-2.41,0,3.505,-6.283,0.734,3.261,0.010,-0.012,1.003,0.000,0.000,0.000,0.3080,0,0,-0.71,-0.89,-1.86,0.0297,-0.0043,0.3101
21483,0.2006,0.1715,0.3087,-0.0773,0.1208,0.0016,-0.21,0.38,-2.28,0,3.516,-5.139,0.561,1.847,0.006,-0.018,0.998,0.000,0.000,0.000,0.3080,0,3,-1.04,-0.85,-1.69,0.0290,-0.0041,0.3099
21534,0.1950,0.1762,0.3084,-0.0845,0.1200,-0.0007,-0.38,0.41,-2.17,0,3.505,-2.973,6.259,2.112,0.008,-0.018,0.999,0.000,0.000,0.000,0.3080,-2,1,-1.30,-0.82,-1.60,0.0281,-0.0042,0.3096
21586,0.1916,0.1850,0.3082,-0.0853,0.1302,-0.0008,-0.41,0.21,-2.08,0,3.510,0.419,2.780,2.646,0.003,-0.016,1.001,0.000,0.000,0.000,0.3060,-1,0,-1.48,-0.49,-1.48,0.0274,-0.0032,0.3093
21637,0.1876,0.1855,0.3072,-0.0862,0.1196,-0.0053,-0.43,0.09,-2.00,0,3.505,-0.097,-1.974,3.090,0.008,-0.015,1.000,0.000,0.000,0.000,0.3050,0,1,-1.45,-0.32,-1.33,0.0273,-0.0025,0.3085
21689,0.1860,0.1957,0.3060,-0.0808,0.1322,-0.0095,-0.38,0.21,-1.90,0,3.505,4.736,-3.291,2.752,0.006,-0.016,1.001,0.000,0.000,0.000,0.3020,0,1,-1.43,-0.42,-1.18,0.0267,-0.0025,0.3075
21741,0.1815,0.1998,0.3038,-0.0836,0.1297,-0.0167,-0.32,0.33,-1.78,0,3.500,-0.238,-2.905,1.573,0.008,-0.013,1.006,0.000,0.000,0.000,0.3040,0,2,-1.18,-0.59,-1.04,0.0261,-0.0025,0.3057
21792,0.1778,0.2048,0.3033,-0.0855,0.1286,-0.0125,-0.28,0.45,-1.69,0,3.510,-2.493,2.498,2.058,0.006,-0.015,1.005,0.000,0.000,0.000,0.3090,-14,1,-1.18,-0.76,-0.97,0.0249,-0.0026,0.3050
21843,0.1722,0.2080,0.3056,-0.0922,0.1232,0.0037,-0.39,0.44,-1.58,0,3.500,3.960,-0.157,1.873,0.008,-0.016,1.007,0.000,0.000,0.000,0.3010,0,1,-1.48,-0.61,-0.76,0.0245,0.0065,0.3061
21895,0.1677,0.2172,0.3036,-0.0974,0.1351,-0.0055,-0.22,0.48,-1.50,0,3.505,7.669,-0.262,0.859,0.003,-0.016,1.002,0.000,0.000,0.000,0.3030,-2,2,-1.17,-0.61,-0.72,0.0237,0.0065,0.3086
21946,0.1642,0.2245,0.3032,-0.0977,0.1384,-0.0044,0.11,0.48,-1.43,0,3.500,0.619,1.325,2.587,0.008,-0.016,1.004,0.000,0.000,0.000,0.3050,-1,2,-0.74,-0.63,-0.70,0.0225,0.0076,0.3072
21998,0.1592,0.2327,0.3039,-0.1014,0.1417,0.0020,0.17,0.36,-1.30,0,3.505,2.303,-2.441,2.598,0.006,-0.012,1.005,0.000,0.000,0.000,0.3010,-4,1,-0.69,-0.57,-0.58,0.0212,0.0082,0.3069
22049,0.1535,0.2393,0.3027,-0.1057,0.1397,-0.0034,0.28,0.40,-1.14,0,3.494,7.334,-1.365,2.285,0.007,-0.013,1.007,0.000,0.000,0.000,0.3010,-1,3,-0.61,-0.68,-0.42,0.0207,0.0107,0.3056
22100,0.1485,0.2486,0.3018,-0.1085,0.1436,-0.0049,0.55,0.44,-1.00,0,3.510,6.815,-0.899,2.675,0.009,-0.014,1.008,0.000,0.000,0.000,0.3040,-4,0,-0.21,-0.76,-0.32,0.0188,0.0112,0.3046
22152,0.1437,0.2541,0.3027,-0.1105,0.1355,0.0030,0.84,0.45,-0.86,0,3.500,3.019,-2.110,2.847,0.006,-0.014,1.004,0.000,0.000,0.000,0.3030,-3,2,0.10,-0.77,-0.17,0.0188,0.0138,0.3052
22204,0.1385,0.2573,0.3030,-0.1136,0.1193,0.0069,1.01,0.54,-0.72,0,3.510,1.558,-2.444,2.491,0.011,-0.012,1.004,0.000,0.000,0.000,0.3080,0,3,0.25,-0.89,-0.01,0.0176,0.0157,0.3051
22256,0.1323,0.2651,0.3055,-0.1191,0.1152,0.0190,1.19,0.63,-0.60,0,3.505,1.545,2.238,1.985,0.008,-0.015,0.996,0.000,0.000,0.000,0.3070,0,2,0.36,-1.03,0.11,0.0157,0.0157,0.3065
22307,0.1272,0.2736,0.3068,-0.1215,0.1130,0.0202,1.17,0.55,-0.49,0,3.510,-0.880,2.810,3.405,0.007,-0.012,0.994,0.000,0.000,0.000,0.3080,-5,4,0.43,-0.91,0.20,0.0144,0.0156,0.3073
22358,0.1193,0.2761,0.3080,-0.1306,0.0958,0.0193,1.19,0.54,-0.39,0,3.505,2.063,1.142,1.065,0.005,-0.015,0.994,0.000,0.000,0.000,0.3070,0,3,0.31,-0.78,0.45,0.0120,0.0189,0.3084
22409,0.1115,0.2822,0.3081,-0.1380,0.0894,0.0119,1.18,0.39,-0.30,0,3.510,-2.374,2.402,1.406,0.008,-0.009,0.991,0.000,0.000,0.000,0.3060,-3,2,0.44,-0.71,0.48,0.0100,0.0188,0.3085
22461,0.1045,0.2857,0.3075,-0.1417,0.0771,0.0027,1.14,0.31,-0.24,0,3.500,-1.713,-1.423,-0.229,0.009,-0.013,0.996,0.000,0.000,0.000,0.3050,-1,2,0.28,-0.57,0.56,0.0088,0.0207,0.3080
22512,0.0984,0.2911,0.3064,-0.1421,0.0718,-0.0057,1.09,0.28,-0.20,0,3.505,-5.159,4.186,1.325,0.007,-0.010,1.000,0.000,0.000,0.000,0.3060,0,1,0.19,-0.64,0.53,0.0075,0.0213,0.3070
22563,0.0913,0.2933,0.3060,-0.1444,0.0600,-0.0087,0.93,0.23,-0.20,0,3.500,-5.512,-1.662,-0.799,0.006,-0.013,0.999,0.000,0.000,0.000,0.3000,-4,2,-0.07,-0.40,0.58,0.0069,0.0213,0.3065
22615,0.0848,0.2947,0.3030,-0.1445,0.0480,-0.0210,0.80,0.24,-0.23,0,3.500,-1.697,3.025,-0.164,0.008,-0.008,1.007,0.000,0.000,0.000,0.3010,0,2,-0.40,-0.49,0.56,0.0057,0.0239,0.3042
22666,0.0783,0.2983,0.3014,-0.1447,0.0443,-0.0231,0.71,0.17,-0.24,0,3.494,-0.673,0.845,-0.477,0.007,-0.009,1.011,0.000,0.000,0.000,0.3010,-1,4,-0.46,-0.34,0.54,0.0045,0.0238,0.3032
22717,0.0703,0.3012,0.3005,-0.1483,0.0404,-0.0176,0.60,0.28,-0.29,0,3.500,-2.843,-0.502,-1.729,0.007,-0.011,1.017,0.000,0.000,0.000,0.2990,0,3,-0.50,-0.32,0.52,0.0020,0.0244,0.3023
22769,0.0627,0.3040,0.2993,-0.1505,0.0374,-0.0142,0.46,0.20,-0.36,0,3.494,1.743,0.957,-2.469,0.004,-0.014,1.011,0.000,0.000,0.000,0.3020,0,3,-0.63,-0.35,0.43,0.0001,0.0244,0.3015
22820,0.0568,0.3058,0.3002,-0.1476,0.0337,-0.0001,0.47,-0.00,-0.45,0,3.505,-0.285,-2.082,-2.249,0.001,-0.011,1.009,0.000,0.000,0.000,0.2990,-3,3,-0.54,-0.30,0.30,-0.0017,0.0244,0.3020
22871,0.0477,0.3067,0.2997,-0.1522,0.0280,0.0024,0.47,0.11,-0.57,0,3.500,0.572,2.344,-2.179,0.007,-0.005,1.010,0.000,0.000,0.000,0.3030,0,2,-0.59,-0.40,0.19,-0.0035,0.0262,0.3017
22924,0.0370,0.3106,0.3014,-0.1611,0.0302,0.0138,0.47,0.10,-0.67,0,3.505,2.951,4.633,-2.323,0.004,-0.011,1.000,0.000,0.000,0.000,0.2990,0,4,-0.54,-0.27,0.08,-0.0048,0.0262,0.3031
22975,0.0314,0.3119,0.3009,-0.1556,0.0259,0.0105,0.62,-0.17,-0.78,0,3.500,2.179,1.511,-1.687,0.002,-0.008,1.002,0.000,0.000,0.000,0.3060,-1,3,-0.37,-0.04,-0.05,-0.0072,0.0262,0.3026
23027,0.0248,0.3139,0.3036,-0.1512,0.0230,0.0221,0.71,-0.27,-0.89,0,3.510,-0.495,-1.713,-1.711,0.004,-0.009,0.995,0.000,0.000,0.000,0.3070,0,3,-0.27,0.04,-0.14,-0.0092,0.0269,0.3045
23078,0.0186,0.3156,0.3060,-0.1456,0.0189,0.0288,0.71,-0.17,-0.96,0,3.500,3.201,0.235,-0.342,0.006,-0.009,0.994,0.000,0.000,0.000,0.3100,-1,2,-0.29,-0.05,-0.22,-0.0110,0.0269,0.3060
23129,0.0104,0.3168,0.3088,-0.1466,0.0137,0.0336,0.77,-0.13,-0.99,0,3.510,4.476,-0.474,0.276,0.007,-0.007,0.989,0.000,0.000,0.000,0.3080,0,2,-0.14,-0.03,-0.25,-0.0123,0.0275,0.3081
23182,0.0028,0.3192,0.3096,-0.1467,0.0119,0.0257,0.93,-0.10,-0.98,0,3.500,1.503,-1.622,1.770,0.006,-0.009,0.985,0.000,0.000,0.000,0.3080,-2,1,0.10,-0.06,-0.23,-0.0136,0.0275,0.3087
23234,-0.0041,0.3192,0.3097,-0.1449,0.0029,0.0154,1.03,-0.01,-0.91,0,3.505,1.107,-0.870,3.446,0.009,-0.007,0.991,0.000,0.000,0.000,0.3050,0,3,0.15,-0.13,-0.15,-0.0142,0.0288,0.3088
23286,-0.0101,0.3215,0.3079,-0.1419,-0.0001,-0.0033,1.15,0.06,-0.75,0,3.494,2.787,-2.038,4.150,0.006,-0.007,0.995,0.000,0.000,0.000,0.3090,0,1,0.21,-0.20,0.05,-0.0161,0.0288,0.3076
23337,-0.0193,0.3220,0.3082,-0.1478,-0.0076,-0.0035,1.27,0.12,-0.55,0,3.505,-3.551,1.657,4.522,0.008,-0.005,0.994,0.000,0.000,0.000,0.3060,1,4,0.35,-0.29,0.25,-0.0167,0.0288,0.3078
23388,-0.0256,0.3228,0.3070,-0.1459,-0.0147,-0.0112,1.21,0.10,-0.35,0,3.494,3.256,0.162,4.831,0.005,-0.009,0.995,0.000,0.000,0.000,0.3040,0,3,0.18,-0.25,0.51,-0.0192,0.0282,0.3068
23440,-0.0334,0.3217,0.3052,-0.1480,-0.0253,-0.0189,1.30,0.09,-0.12,0,3.500,1.029,0.828,2.625,0.006,-0.010,1.000,0.000,0.000,0.000,0.3070,0,1,0.33,-0.24,0.76,-0.0211,0.0282,0.3054
23491,-0.0407,0.3218,0.3053,-0.1484,-0.0321,-0.0135,1.26,0.03,0.07,0,3.489,1.412,-1.612,3.142,0.006,-0.009,1.004,0.000,0.000,0.000,0.3060,0,2,0.36,-0.17,0.88,-0.0217,0.0281,0.3053
23543,-0.0480,0.3220,0.3052,-0.1484,-0.0378,-0.0094,1.21,0.09,0.21,0,3.500,0.252,4.345,2.363,0.007,-0.008,1.004,0.000,0.000,0.000,0.3050,0,1,0.42,-0.26,1.04,-0.0230,0.0281,0.3051
23594,-0.0565,0.3217,0.3048,-0.1518,-0.0435,-0.0089,1.14,0.05,0.33,0,3.489,2.561,3.406,1.677,0.008,-0.009,1.001,0.000,0.000,0.000,0.3020,0,2,0.42,-0.03,1.15,-0.0236,0.0281,0.3047
23645,-0.0649,0.3195,0.3032,-0.1543,-0.0530,-0.0131,1.25,0.00,0.41,0,3.500,-0.513,7.638,1.375,0.009,-0.009,1.007,0.000,0.000,0.000,0.3070,1,3,0.54,0.13,1.25,-0.0248,0.0281,0.3036
23697,-0.0734,0.3167,0.3045,-0.1562,-0.0634,-0.0026,1.17,-0.16,0.45,0,3.494,-3.554,-0.096,-0.643,0.007,-0.005,1.002,0.000,0.000,0.000,0.3050,0,3,0.51,0.50,1.35,-0.0267,0.0275,0.3045
23748,-0.0803,0.3135,0.3047,-0.1522,-0.0733,0.0000,1.03,-0.28,0.43,0,3.500,0.397,1.386,-0.605,0.006,-0.009,0.997,0.000,0.000,0.000,0.3030,3,4,0.30,0.48,1.32,-0.0285,0.0274,0.3046
23799,-0.0875,0.3128,0.3039,-0.1488,-0.0743,-0.0039,0.98,-0.36,0.39,0,3.489,-0.707,2.069,-0.332,0.006,-0.007,1.000,0.000,0.000,0.000,0.3010,1,1,0.34,0.52,1.33,-0.0309,0.0256,0.3039
23850,-0.0971,0.3095,0.3024,-0.1511,-0.0808,-0.0108,0.86,-0.41,0.34,0,3.494,-2.037,0.006,-1.644,0.005,-0.005,1.004,0.000,0.000,0.000,0.3030,1,0,0.28,0.64,1.28,-0.0316,0.0249,0.3031
23901,-0.1061,0.3062,0.3023,-0.1521,-0.0859,-0.0088,0.77,-0.42,0.27,0,3.489,-1.116,-0.875,-1.664,0.004,-0.005,1.000,0.000,0.000,0.000,0.3020,4,3,0.16,0.66,1.17,-0.0316,0.0243,0.3029
23953,-0.1120,0.3039,0.3018,-0.1446,-0.0873,-0.0088,0.73,-0.49,0.21,0,3.494,-3.459,-1.445,-0.567,0.007,-0.005,1.000,0.000,0.000,0.000,0.3020,0,1,0.13,0.57,1.14,-0.0334,0.0218,0.3026
24006,-0.1196,0.2989,0.3016,-0.1413,-0.0944,-0.0073,0.61,-0.56,0.20,0,3.489,-0.117,1.824,0.978,0.000,-0.006,1.002,0.000,0.000,0.000,0.2990,3,3,-0.09,0.49,1.07,-0.0340,0.0217,0.3025
24057,-0.1252,0.2976,0.3002,-0.1332,-0.0910,-0.0113,0.53,-0.58,0.22,0,3.494,-4.549,-0.037,0.262,0.004,-0.006,1.003,0.000,0.000,0.000,0.3000,3,3,-0.08,0.56,1.15,-0.0358,0.0199,0.3014
24108,-0.1348,0.2926,0.2997,-0.1355,-0.0963,-0.0105,0.47,-0.58,0.23,0,3.489,2.664,-1.172,-0.190,0.007,-0.007,1.002,0.000,0.000,0.000,0.3020,1,3,-0.30,0.54,1.17,-0.0376,0.0181,0.3007
24160,-0.1431,0.2893,0.3004,-0.1343,-0.0961,-0.0029,0.45,-0.62,0.25,0,3.494,-1.333,1.885,0.499,0.005,-0.007,1.002,0.000,0.000,0.000,0.2990,2,3,-0.19,0.46,1.14,-0.0395,0.0174,0.3010
24211,-0.1506,0.2861,0.2997,-0.1307,-0.0955,-0.0045,0.43,-0.78,0.27,0,3.484,4.686,-2.058,0.279,0.004,-0.010,1.002,0.000,0.000,0.000,0.2970,0,1,-0.26,0.55,1.17,-0.0413,0.0161,0.3002
24263,-0.1572,0.2814,0.2983,-0.1244,-0.0989,-0.0088,0.59,-0.72,0.33,0,3.494,0.998,-1.598,2.057,0.002,-0.004,1.002,0.000,0.000,0.000,0.2960,1,0,-0.05,0.45,1.16,-0.0420,0.0161,0.2992
24314,-0.1644,0.2792,0.2970,-0.1211,-0.0968,-0.0115,0.73,-0.66,0.43,0,3.484,2.193,1.756,2.327,0.005,-0.005,1.008,0.000,0.000,0.000,0.2970,2,2,0.00,0.38,1.27,-0.0419,0.0155,0.2980
24365,-0.1699,0.2761,0.2966,-0.1146,-0.0983,-0.0076,0.86,-0.64,0.53,0,3.494,3.432,-1.217,2.717,0.003,-0.008,1.006,0.000,0.000,0.000,0.2960,1,3,0.12,0.45,1.40,-0.0431,0.0143,0.2977
24416,-0.1751,0.2707,0.2961,-0.1080,-0.1064,-0.0058,1.02,-0.57,0.66,0,3.484,1.365,-0.757,2.224,0.002,-0.004,1.005,0.000,0.000,0.000,0.2970,4,4,0.29,0.35,1.54,-0.0449,0.0136,0.2973
24467,-0.1824,0.2663,0.2964,-0.1078,-0.1124,-0.0003,1.06,-0.50,0.79,0,3.494,1.105,0.622,1.267,0.005,-0.007,1.004,0.000,0.000,0.000,0.2960,2,1,0.38,0.29,1.69,-0.0472,0.0112,0.2970
24518,-0.1892,0.2611,0.2963,-0.1069,-0.1198,0.0014,1.06,-0.55,0.87,0,3.484,0.276,3.508,1.975,0.006,-0.005,1.000,0.000,0.000,0.000,0.2940,0,2,0.42,0.34,1.73,-0.0478,0.0099,0.2972
24571,-0.1944,0.2541,0.2953,-0.1019,-0.1306,-0.0024,1.07,-0.68,0.94,0,3.494,-3.716,1.695,1.355,0.004,-0.004,1.004,0.000,0.000,0.000,0.2940,1,2,0.39,0.51,1.82,-0.0491,0.0098,0.2966
24622,-0.2007,0.2495,0.2946,-0.0991,-0.1347,-0.0043,0.96,-0.71,0.99,0,3.484,-1.939,1.327,0.703,0.007,-0.006,1.006,0.000,0.000,0.000,0.2970,1,2,0.19,0.59,1.89,-0.0503,0.0093,0.2959
24674,-0.2058,0.2411,0.2956,-0.0936,-0.1470,0.0030,0.91,-0.77,1.02,0,3.494,-2.184,2.157,-0.001,0.004,-0.005,1.002,0.000,0.000,0.000,0.2940,4,2,0.08,0.64,1.93,-0.0515,0.0086,0.2965
24725,-0.2113,0.2346,0.2950,-0.0886,-0.1520,0.0000,0.76,-0.88,1.02,0,3.484,-5.151,-1.239,1.756,0.008,-0.005,1.005,0.000,0.000,0.000,0.2920,11,2,-0.00,0.74,1.96,-0.0525,0.0062,0.2960
24776,-0.2152,0.2316,0.2937,-0.0804,-0.1462,-0.0055,0.59,-0.85,1.06,0,3.489,-4.995,0.032,1.645,0.004,-0.003,1.002,0.000,0.000,0.000,0.2920,3,0,-0.16,0.66,2.14,-0.0534,-0.0004,0.2944
24827,-0.2200,0.2222,0.2927,-0.0756,-0.1548,-0.0083,0.31,-0.75,1.14,0,3.479,-1.763,-2.140,3.598,0.007,-0.002,1.009,0.000,0.000,0.000,0.2920,5,3,-0.48,0.67,2.17,-0.0534,-0.0022,0.2952
24879,-0.2231,0.2155,0.2921,-0.0678,-0.1544,-0.0066,0.25,-0.66,1.29,0,3.489,0.615,-1.031,2.614,0.004,-0.006,1.006,0.000,0.000,0.000,0.2920,2,2,-0.56,0.52,2.35,-0.0551,-0.0054,0.2948
24930,-0.2283,0.2047,0.2919,-0.0670,-0.1637,-0.0035,0.23,-0.57,1.45,0,3.484,-6.033,1.291,3.882,0.004,-0.004,1.010,0.000,0.000,0.000,0.2950,0,0,-0.57,0.45,2.46,-0.0563,-0.0066,0.2944
24981,-0.2335,0.1942,0.2932,-0.0669,-0.1713,0.0070,0.10,-0.57,1.65,0,3.494,-2.599,-0.073,4.625,0.007,-0.004,1.008,0.000,0.000,0.000,0.2940,2,1,-0.87,0.52,2.66,-0.0569,-0.0083,0.2952
25033,-0.2377,0.1844,0.2940,-0.0647,-0.1750,0.0126,-0.09,-0.53,1.87,0,3.484,-0.848,2.929,5.253,0.006,-0.003,1.005,0.000,0.000,0.000,0.2910,1,1,-1.03,0.52,2.88,-0.0572,-0.0082,0.2956
25084,-0.2406,0.1768,0.2931,-0.0595,-0.1713,0.0079,-0.23,-0.59,2.11,0,3.489,-2.234,-0.380,3.810,0.005,-0.007,1.006,0.000,0.000,0.000,0.2930,9,2,-1.06,0.67,3.14,-0.0576,-0.0087,0.2952
25135,-0.2432,0.1705,0.2934,-0.0537,-0.1639,0.0095,-0.25,-0.63,2.32,0,3.479,0.132,-3.492,3.285,0.009,-0.006,1.007,0.000,0.000,0.000,0.2920,1,2,-1.07,0.62,3.39,-0.0583,-0.0136,0.2959
25186,-0.2470,0.1651,0.2932,-0.0512,-0.1533,0.0090,-0.36,-0.56,2.50,0,3.489,5.079,2.678,3.503,0.004,-0.008,1.007,0.000,0.000,0.000,0.2930,2,0,-1.11,0.43,3.51,-0.0595,-0.0144,0.2966
25237,-0.2496,0.1558,0.2935,-0.0470,-0.1550,0.0113,-0.18,-0.63,2.67,0,3.479,2.264,-1.352,3.235,0.008,-0.010,1.004,0.000,0.000,0.000,0.2950,4,1,-0.85,0.58,3.69,-0.0595,-0.0156,0.2967
25288,-0.2515,0.1507,0.2947,-0.0407,-0.1474,0.0173,0.06,-0.68,2.82,0,3.489,-3.460,-5.036,2.559,0.003,-0.008,1.004,0.000,0.000,0.000,0.2960,3,0,-0.70,0.49,3.86,-0.0599,-0.0180,0.2974
25339,-0.2529,0.1446,0.2961,-0.0337,-0.1443,0.0215,0.01,-0.57,2.94,0,3.484,-0.180,-2.422,1.521,0.006,-0.006,1.007,0.000,0.000,0.000,0.2990,0,0,-0.88,0.24,3.99,-0.0598,-0.0198,0.2981
25391,-0.2547,0.1395,0.2983,-0.0299,-0.1386,0.0296,0.03,-0.42,3.04,0,3.494,5.279,-1.176,2.144,0.008,-0.008,1.001,0.000,0.000,0.000,0.2990,1,1,-0.89,0.11,4.07,-0.0594,-0.0214,0.2997
25443,-0.2572,0.1310,0.2999,-0.0291,-0.1424,0.0307,0.26,-0.42,3.16,0,3.489,0.580,1.217,3.034,0.001,-0.013,0.995,0.000,0.000,0.000,0.2990,3,1,-0.64,0.03,4.16,-0.0605,-0.0209,0.3010
25495,-0.2595,0.1253,0.3006,-0.0277,-0.1411,0.0266,0.36,-0.41,3.29,0,3.489,0.042,1.327,3.548,0.007,-0.008,0.998,0.000,0.000,0.000,0.3020,2,1,-0.59,0.08,4.32,-0.0609,-0.0224,0.3017
25546,-0.2612,0.1183,0.3023,-0.0251,-0.1435,0.0263,0.31,-0.40,3.44,0,3.484,5.154,1.772,2.503,0.007,-0.007,0.994,0.000,0.000,0.000,0.3040,6,2,-0.58,0.15,4.50,-0.0614,-0.0236,0.3029
25597,-0.2633,0.1113,0.3040,-0.0235,-0.1456,0.0272,0.45,-0.49,3.59,0,3.494,0.156,5.185,4.221,0.004,-0.010,0.994,0.000,0.000,0.000,0.3000,0,1,-0.27,0.22,4.62,-0.0623,-0.0273,0.3040
25648,-0.2647,0.1030,0.3032,-0.0194,-0.1518,0.0146,0.50,-0.60,3.79,0,3.479,-1.832,5.381,3.691,0.004,-0.010,0.996,0.000,0.000,0.000,0.3030,3,2,-0.31,0.48,4.83,-0.0629,-0.0274,0.3044
25699,-0.2665,0.0973,0.3036,-0.0160,-0.1509,0.0112,0.44,-0.71,3.98,0,3.489,-0.871,1.090,3.483,0.005,-0.009,0.994,0.000,0.000,0.000,0.3020,0,1,-0.39,0.74,5.02,-0.0639,-0.0294,0.3047
25750,-0.2675,0.0906,0.3033,-0.0103,-0.1517,0.0058,0.37,-0.72,4.17,0,3.479,0.463,-1.802,4.127,0.006,-0.010,1.001,0.000,0.000,0.000,0.3030,0,0,-0.47,0.79,5.17,-0.0646,-0.0294,0.3044
25801,-0.2691,0.0816,0.3034,-0.0067,-0.1570,0.0051,0.30,-0.66,4.37,0,3.489,-3.765,1.227,3.877,0.003,-0.010,1.000,0.000,0.000,0.000,0.3060,6,2,-0.44,0.70,5.39,-0.0646,-0.0302,0.3044
25853,-0.2690,0.0750,0.3048,-0.0003,-0.1560,0.0096,0.18,-0.71,4.56,0,3.479,2.146,1.653,2.982,0.004,-0.010,1.002,0.000,0.000,0.000,0.3080,0,1,-0.60,0.74,5.60,-0.0657,-0.0331,0.3054
25904,-0.2702,0.0632,0.3066,0.0029,-0.1663,0.0166,0.18,-0.73,4.75,0,3.489,-4.104,-1.423,2.887,0.005,-0.006,0.996,0.000,0.000,0.000,0.3040,1,0,-0.52,0.81,5.73,-0.0662,-0.0336,0.3070
25956,-0.2694,0.0639,0.3061,0.0104,-0.1459,0.0098,0.04,-0.70,4.88,0,3.484,5.722,0.064,1.686,0.005,-0.005,0.996,0.000,0.000,0.000,0.3090,0,0,-0.73,0.74,5.88,-0.0661,-0.0343,0.3066
26008,-0.2695,0.0541,0.3078,0.0144,-0.1515,0.0147,0.15,-0.67,4.99,0,3.489,0.717,0.802,2.171,0.003,-0.003,0.993,0.000,0.000,0.000,0.3050,0,0,-0.43,0.74,5.96,-0.0656,-0.0347,0.3077
26059,-0.2689,0.0481,0.3071,0.0196,-0.1488,0.0060,0.30,-0.67,5.06,0,3.484,0.213,0.416,0.975,0.003,-0.006,0.996,0.000,0.000,0.000,0.3080,0,-1,-0.39,0.79,6.08,-0.0646,-0.0349,0.3070
26110,-0.2683,0.0370,0.3076,0.0242,-0.1591,0.0041,0.27,-0.59,5.10,0,3.489,-1.606,0.345,-0.149,0.006,-0.006,0.997,0.000,0.000,0.000,0.3060,4,-1,-0.39,0.77,6.11,-0.0661,-0.0346,0.3075
26161,-0.2672,0.0327,0.3070,0.0286,-0.1525,-0.0029,0.15,-0.57,5.11,0,3.479,3.041,-0.503,-0.392,0.000,-0.009,1.000,0.000,0.000,0.000,0.3080,0,-1,-0.43,0.79,6.14,-0.0652,-0.0361,0.3072
26212,-0.2656,0.0260,0.3073,0.0338,-0.1508,-0.0013,0.13,-0.60,5.10,0,3.489,2.371,-2.663,-0.194,0.000,-0.011,0.994,0.000,0.000,0.000,0.3080,0,0,-0.30,0.75,6.10,-0.0645,-0.0362,0.3077
26264,-0.2650,0.0140,0.3075,0.0359,-0.1623,-0.0033,0.31,-0.46,5.07,0,3.479,-4.594,-0.435,-0.882,-0.001,-0.010,1.000,0.000,0.000,0.000,0.3050,0,0,-0.18,0.62,6.09,-0.0632,-0.0368,0.3077
26315,-0.2632,0.0034,0.3061,0.0397,-0.1706,-0.0112,0.22,-0.36,5.01,0,3.489,-6.041,1.148,-1.817,0.000,-0.010,0.999,0.000,0.000,0.000,0.3070,5,0,-0.42,0.59,6.04,-0.0618,-0.0375,0.3067
26367,-0.2618,-0.0025,0.3060,0.0414,-0.1661,-0.0113,-0.11,-0.39,4.93,0,3.479,-2.302,1.152,-1.531,0.002,-0.013,1.003,0.000,0.000,0.000,0.3040,5,0,-0.72,0.60,5.95,-0.0639,-0.0390,0.3068
26418,-0.2605,-0.0089,0.3047,0.0429,-0.1601,-0.0142,-0.27,-0.43,4.86,0,3.489,1.073,3.585,-2.364,0.001,-0.013,1.005,0.000,0.000,0.000,0.3060,1,0,-0.81,0.65,5.89,-0.0635,-0.0413,0.3057
26469,-0.2589,-0.0218,0.3047,0.0453,-0.1688,-0.0100,-0.22,-0.54,4.75,0,3.479,-5.853,1.705,-1.690,0.002,-0.012,1.008,0.000,0.000,0.000,0.3030,0,0,-0.78,0.82,5.75,-0.0634,-0.0421,0.3059
26520,-0.2589,-0.0334,0.3036,0.0446,-0.1737,-0.0112,-0.45,-0.66,4.63,0,3.484,-1.404,3.664,-1.191,0.002,-0.007,1.007,0.000,0.000,0.000,0.3010,3,0,-1.08,0.90,5.66,-0.0627,-0.0432,0.3052
26571,-0.2569,-0.0429,0.3020,0.0496,-0.1715,-0.0143,-0.57,-0.83,4.57,0,3.473,-5.104,4.515,-0.107,-0.004,-0.012,1.002,0.000,0.000,0.000,0.2990,1,-1,-1.15,1.06,5.58,-0.0635,-0.0443,0.3042
26623,-0.2553,-0.0504,0.3001,0.0543,-0.1631,-0.0181,-0.84,-0.97,4.54,0,3.484,-3.010,3.028,0.038,-0.000,-0.008,1.007,0.000,0.000,0.000,0.3010,1,0,-1.42,1.29,5.57,-0.0629,-0.0449,0.3027
26675,-0.2534,-0.0635,0.2998,0.0600,-0.1669,-0.0138,-0.94,-1.08,4.53,0,3.479,-4.994,3.710,1.428,-0.001,-0.014,1.008,0.000,0.000,0.000,0.3050,7,0,-1.56,1.42,5.55,-0.0628,-0.0455,0.3024
26726,-0.2522,-0.0639,0.3019,0.0642,-0.1411,0.0026,-1.15,-1.13,4.59,0,3.484,-1.435,-0.407,2.759,-0.001,-0.007,1.007,0.000,0.000,0.000,0.2960,0,0,-1.73,1.60,5.70,-0.0621,-0.0495,0.3039
26777,-0.2516,-0.0711,0.2994,0.0668,-0.1355,-0.0080,-1.32,-1.14,4.71,0,3.473,2.976,5.324,3.607,0.001,-0.010,1.004,0.000,0.000,0.000,0.3000,0,0,-1.80,1.58,5.84,-0.0609,-0.0514,0.3020
26828,-0.2480,-0.0746,0.2995,0.0761,-0.1170,-0.0042,-1.23,-1.41,4.90,0,3.484,8.619,1.347,4.278,0.002,-0.014,1.004,0.000,0.000,0.000,0.3000,-1,0,-1.64,1.86,6.02,-0.0589,-0.0527,0.3018
26879,-0.2455,-0.0757,0.2996,0.0836,-0.0957,-0.0020,-1.02,-1.46,5.12,0,3.473,8.975,-2.220,4.983,-0.006,-0.018,0.994,0.000,0.000,0.000,0.2970,0,-2,-1.25,1.84,6.04,-0.0633,-0.0513,0.3025
26930,-0.2440,-0.0759,0.2984,0.0888,-0.0772,-0.0079,-0.63,-1.30,5.37,0,3.479,12.204,1.806,4.935,-0.004,-0.010,0.994,0.000,0.000,0.000,0.2970,-5,-3,-0.77,1.74,6.31,-0.0623,-0.0511,0.3013
26981,-0.2401,-0.0781,0.2975,0.0976,-0.0679,-0.0105,-0.01,-1.24,5.60,0,3.473,8.380,-0.481,2.346,-0.004,-0.005,1.001,0.000,0.000,0.000,0.2990,1,-2,-0.20,1.84,6.47,-0.0611,-0.0484,0.3000
27032,-0.2369,-0.0746,0.2978,0.1041,-0.0524,-0.0058,0.47,-1.28,5.78,0,3.479,7.888,-6.141,2.543,-0.001,-0.005,1.003,0.000,0.000,0.000,0.2970,1,-2,0.28,1.78,6.67,-0.0595,-0.0486,0.3002
27083,-0.2306,-0.0799,0.2973,0.1171,-0.0610,-0.0069,0.72,-1.08,5.91,0,3.468,9.278,-6.591,1.409,-0.001,-0.016,0.999,0.000,0.000,0.000,0.2940,-6,-1,0.70,1.44,6.84,-0.0582,-0.0490,0.2991
27134,-0.2247,-0.0665,0.2956,0.1270,-0.0318,-0.0136,1.21,-0.82,5.99,0,3.479,13.697,-1.396,0.803,0.005,-0.011,1.005,0.000,0.000,0.000,0.2980,0,0,1.08,1.07,6.81,-0.0582,-0.0454,0.2988
27185,-0.2193,-0.0695,0.2962,0.1325,-0.0451,-0.0056,1.84,-0.66,5.99,0,3.473,11.193,-9.493,-2.623,0.001,-0.004,1.003,0.000,0.000,0.000,0.2960,8,-3,1.78,1.00,6.85,-0.0565,-0.0442,0.2985
27237,-0.2118,-0.0644,0.2960,0.1414,-0.0436,-0.0032,2.34,-0.41,5.91,0,3.479,5.042,-4.833,-2.608,0.001,-0.003,1.004,0.000,0.000,0.000,0.2930,3,-1,2.42,0.47,6.85,-0.0559,-0.0487,0.2973
27288,-0.2055,-0.0613,0.2946,0.1449,-0.0495,-0.0094,2.55,-0.13,5.78,0,3.468,1.433,-3.359,-4.264,-0.003,-0.006,1.009,0.000,0.000,0.000,0.2940,1,-3,2.66,0.21,6.74,-0.0548,-0.0507,0.2967
27339,-0.2024,-0.0696,0.2940,0.1388,-0.0827,-0.0084,2.54,0.08,5.58,0,3.473,-3.366,-4.343,-5.457,-0.001,-0.003,1.008,0.000,0.000,0.000,0.2920,8,-2,2.66,0.07,6.46,-0.0531,-0.0515,0.2973
27390,-0.1961,-0.0723,0.2929,0.1382,-0.1007,-0.0099,2.48,0.35,5.30,0,3.468,-7.793,3.304,-6.711,0.000,-0.003,1.012,0.000,0.000,0.000,0.2920,1,-2,2.52,-0.15,6.18,-0.0514,-0.0561,0.2957
27443,-0.1907,-0.0752,0.2922,0.1338,-0.1152,-0.0078,2.07,0.28,4.98,0,3.473,-5.784,6.680,-8.240,0.001,-0.003,1.013,0.000,0.000,0.000,0.2910,4,-1,2.03,0.03,5.90,-0.0499,-0.0567,0.2968
27495,-0.1865,-0.0812,0.2915,0.1272,-0.1320,-0.0063,1.77,-0.01,4.60,0,3.468,-5.616,4.291,-9.895,-0.000,-0.003,1.008,0.000,0.000,0.000,0.2900,3,-2,1.69,0.38,5.53,-0.0490,-0.0588,0.2959
27547,-0.1825,-0.0907,0.2907,0.1229,-0.1523,-0.0039,1.37,-0.22,4.13,0,3.473,-8.496,6.714,-9.219,0.002,-0.003,1.012,0.000,0.000,0.000,0.2890,4,-1,1.36,0.62,5.03,-0.0477,-0.0604,0.2950
27599,-0.1777,-0.0967,0.2899,0.1220,-0.1601,-0.0031,1.01,-0.50,3.64,0,3.468,-8.817,6.611,-9.719,0.001,-0.002,1.011,0.000,0.000,0.000,0.2910,10,0,0.89,0.96,4.59,-0.0468,-0.0626,0.2941
27650,-0.1729,-0.1021,0.2905,0.1232,-0.1604,0.0050,0.60,-0.81,3.17,0,3.479,-9.193,9.993,-8.202,0.003,-0.005,1.009,0.000,0.000,0.000,0.2920,4,1,0.48,1.28,4.16,-0.0462,-0.0684,0.2943
27701,-0.1686,-0.1154,0.2914,0.1257,-0.1772,0.0123,0.09,-1.26,2.76,0,3.468,-5.576,4.110,-7.075,0.003,-0.005,1.008,0.000,0.000,0.000,0.2890,1,-1,-0.06,1.75,3.74,-0.0466,-0.0708,0.2958
27752,-0.1648,-0.1257,0.2908,0.1297,-0.1816,0.0097,-0.22,-1.51,2.42,0,3.479,-7.265,0.824,-6.092,0.001,-0.006,1.004,0.000,0.000,0.000,0.2930,1,-4,-0.42,1.95,3.31,-0.0462,-0.0714,0.2950
27803,-0.1590,-0.1327,0.2923,0.1397,-0.1748,0.0161,-0.62,-1.59,2.14,0,3.473,-6.459,1.234,-6.194,0.004,-0.003,1.006,0.000,0.000,0.000,0.2930,0,-3,-0.82,2.00,2.96,-0.0439,-0.0718,0.2951
27854,-0.1525,-0.1401,0.2933,0.1510,-0.1663,0.0194,-1.03,-1.65,1.85,0,3.479,2.674,-2.549,-6.590,0.005,-0.003,1.008,0.000,0.000,0.000,0.2940,-9,-6,-1.18,2.03,2.60,-0.0422,-0.0717,0.2959
27905,-0.1458,-0.1484,0.2944,0.1615,-0.1587,0.0227,-1.00,-1.52,1.54,0,3.468,3.664,-4.893,-8.453,0.004,-0.009,0.999,0.000,0.000,0.000,0.2920,0,-5,-1.17,1.90,2.09,-0.0393,-0.0663,0.2956
27957,-0.1393,-0.1580,0.2941,0.1689,-0.1558,0.0165,-0.91,-1.29,1.16,0,3.473,-6.822,-7.254,-8.152,0.001,-0.004,1.004,0.000,0.000,0.000,0.2930,2,-2,-0.92,1.61,1.75,-0.0359,-0.0661,0.2980
28008,-0.1287,-0.1641,0.2942,0.1847,-0.1437,0.0121,-1.19,-1.04,0.77,0,3.468,-3.231,-8.722,-8.009,-0.001,-0.002,1.010,0.000,0.000,0.000,0.2990,4,-4,-1.22,1.16,1.36,-0.0347,-0.0672,0.2984
28059,-0.1207,-0.1681,0.2969,0.1898,-0.1252,0.0235,-1.45,-0.61,0.40,0,3.479,1.510,-5.146,-6.891,-0.002,-0.005,0.998,0.000,0.000,0.000,0.2990,-2,-6,-1.33,0.70,1.01,-0.0321,-0.0695,0.2999
28111,-0.1117,-0.1749,0.2988,0.1929,-0.1144,0.0281,-1.45,-0.30,0.04,0,3.473,-2.334,-2.779,-7.267,-0.001,-0.010,0.989,0.000,0.000,0.000,0.2970,0,-4,-1.30,0.44,0.66,-0.0283,-0.0682,0.3016
28162,-0.1016,-0.1783,0.2989,0.1964,-0.0970,0.0207,-1.43,-0.10,-0.33,0,3.479,1.551,-3.742,-8.800,-0.003,-0.008,0.994,0.000,0.000,0.000,0.2970,3,-5,-1.41,0.27,0.26,-0.0260,-0.0682,0.3018
28213,-0.0928,-0.1801,0.2987,0.1944,-0.0771,0.0110,-1.41,0.10,-0.76,0,3.468,3.992,-0.935,-9.465,-0.004,-0.011,0.996,0.000,0.000,0.000,0.2980,0,-2,-1.27,0.07,-0.19,-0.0231,-0.0701,0.3014
28264,-0.0830,-0.1859,0.2987,0.1940,-0.0713,0.0064,-1.19,0.20,-1.22,0,3.479,1.997,-3.989,-9.827,0.003,-0.010,1.002,0.000,0.000,0.000,0.2990,0,-4,-1.08,-0.03,-0.71,-0.0220,-0.0702,0.3013
28316,-0.0753,-0.1885,0.2991,0.1875,-0.0591,0.0055,-1.04,0.25,-1.67,0,3.468,7.002,0.136,-9.282,-0.003,-0.011,1.002,0.000,0.000,0.000,0.2990,1,-5,-0.98,-0.23,-1.20,-0.0195,-0.0702,0.3013
28367,-0.0661,-0.1911,0.2993,0.1848,-0.0497,0.0076,-0.85,0.26,-2.13,0,3.479,4.918,0.206,-8.828,-0.001,-0.006,1.006,0.000,0.000,0.000,0.3020,0,-2,-0.59,-0.21,-1.68,-0.0165,-0.0710,0.3012
28419,-0.0579,-0.1916,0.3009,0.1800,-0.0376,0.0148,-0.61,0.14,-2.54,0,3.468,6.317,0.049,-8.024,0.003,-0.011,1.002,0.000,0.000,0.000,0.3030,-1,-4,-0.34,-0.23,-2.14,-0.0152,-0.0710,0.3024
28471,-0.0496,-0.1947,0.3024,0.1771,-0.0359,0.0203,-0.42,0.11,-2.92,0,3.479,1.090,3.446,-6.600,-0.003,-0.011,0.996,0.000,0.000,0.000,0.3020,-5,-6,-0.03,-0.21,-2.54,-0.0126,-0.0705,0.3035
28523,-0.0423,-0.1949,0.3030,0.1721,-0.0280,0.0165,-0.30,-0.03,-3.24,0,3.468,2.251,0.765,-5.656,-0.002,-0.012,0.993,0.000,0.000,0.000,0.3030,2,-2,-0.04,0.00,-2.83,-0.0086,-0.0674,0.3037
28575,-0.0322,-0.1959,0.3035,0.1759,-0.0244,0.0121,-0.27,-0.14,-3.50,0,3.473,0.785,-2.098,-1.925,0.000,-0.010,0.995,0.000,0.000,0.000,0.3010,-3,-3,0.14,0.01,-3.16,-0.0075,-0.0688,0.3049
28626,-0.0241,-0.1990,0.3027,0.1752,-0.0269,0.0023,-0.24,-0.05,-3.62,0,3.468,-1.520,-4.398,0.451,0.000,-0.013,0.995,0.000,0.000,0.000,0.3030,5,-2,0.13,-0.10,-3.23,-0.0055,-0.0670,0.3046
28677,-0.0145,-0.1980,0.3029,0.1780,-0.0189,0.0006,-0.25,0.07,-3.59,0,3.479,-5.389,-3.698,1.875,0.000,-0.012,1.000,0.000,0.000,0.000,0.3030,-3,-3,0.13,-0.34,-3.25,-0.0046,-0.0703,0.3046
28728,-0.0066,-0.2026,0.3029,0.1745,-0.0263,-0.0002,-0.56,0.28,-3.47,0,3.468,-5.298,-3.231,4.826,-0.000,-0.010,1.005,0.000,0.000,0.000,0.3030,3,-3,-0.23,-0.52,-3.09,-0.0024,-0.0683,0.3054
28780,0.0017,-0.2007,0.3030,0.1711,-0.0131,0.0014,-0.87,0.35,-3.23,0,3.473,-2.675,3.581,6.609,0.001,-0.012,1.003,0.000,0.000,0.000,0.3030,4,0,-0.46,-0.67,-2.89,-0.0008,-0.0704,0.3054
28832,0.0101,-0.2040,0.3031,0.1683,-0.0123,0.0028,-1.06,0.30,-2.91,0,3.463,-5.531,-1.893,6.620,0.003,-0.013,1.003,0.000,0.000,0.000,0.3020,0,-6,-0.57,-0.51,-2.58,-0.0010,-0.0730,0.3051
28883,0.0179,-0.2059,0.3027,0.1653,-0.0065,0.0015,-1.31,0.35,-2.59,0,3.473,-2.397,-0.272,5.259,-0.001,-0.007,1.007,0.000,0.000,0.000,0.3010,4,-3,-0.91,-0.54,-2.17,0.0029,-0.0730,0.3052
28935,0.0264,-0.2048,0.3020,0.1633,0.0084,-0.0006,-1.50,0.40,-2.32,0,3.463,-1.280,-0.954,2.630,0.001,-0.010,1.002,0.000,0.000,0.000,0.2990,2,-4,-0.99,-0.55,-1.95,0.0046,-0.0757,0.3047
28986,0.0336,-0.2048,0.3007,0.1582,0.0192,-0.0052,-1.45,0.43,-2.19,0,3.473,1.080,-0.808,1.774,0.001,-0.016,1.004,0.000,0.000,0.000,0.3010,0,-3,-1.07,-0.58,-1.79,0.0071,-0.0769,0.3033
29037,0.0414,-0.2071,0.3007,0.1550,0.0228,-0.0024,-1.39,0.48,-2.11,0,3.468,-1.145,-0.289,1.107,0.002,-0.011,1.007,0.000,0.000,0.000,0.3030,0,0,-1.04,-0.62,-1.67,0.0090,-0.0769,0.3030
29088,0.0496,-0.2046,0.3017,0.1523,0.0380,0.0062,-1.45,0.46,-2.04,0,3.473,2.895,2.399,1.802,-0.004,-0.010,1.007,0.000,0.000,0.000,0.3030,0,0,-1.10,-0.64,-1.61,0.0107,-0.0773,0.3034
29139,0.0578,-0.2014,0.3026,0.1505,0.0534,0.0114,-1.35,0.34,-1.95,0,3.468,4.981,2.674,2.607,0.000,-0.013,1.002,0.000,0.000,0.000,0.3050,-2,-2,-0.95,-0.51,-1.52,0.0119,-0.0774,0.3038
29191,0.0650,-0.2009,0.3042,0.1472,0.0587,0.0184,-1.08,0.24,-1.83,0,3.473,-0.336,1.904,4.543,0.002,-0.013,1.001,0.000,0.000,0.000,0.3020,-1,0,-0.71,-0.40,-1.39,0.0115,-0.0763,0.3048
29242,0.0741,-0.1993,0.3038,0.1500,0.0642,0.0123,-0.94,0.22,-1.62,0,3.463,2.222,-1.166,6.162,0.003,-0.011,1.003,0.000,0.000,0.000,0.3040,1,-6,-0.74,-0.30,-1.16,0.0116,-0.0758,0.3045
29293,0.0792,-0.2057,0.3044,0.1427,0.0483,0.0128,-0.79,0.34,-1.36,0,3.473,-11.529,0.896,6.419,-0.000,-0.012,1.001,0.000,0.000,0.000,0.3040,2,-5,-0.60,-0.28,-0.83,0.0148,-0.0762,0.3053
29344,0.0846,-0.2059,0.3047,0.1357,0.0486,0.0111,-1.22,0.30,-1.02,0,3.463,-9.820,1.310,8.441,-0.000,-0.010,1.001,0.000,0.000,0.000,0.3030,2,-2,-1.17,-0.21,-0.51,0.0178,-0.0774,0.3053
29395,0.0935,-0.2017,0.3043,0.1382,0.0631,0.0060,-1.68,0.23,-0.62,0,3.473,-3.030,-0.476,7.013,0.004,-0.013,0.996,0.000,0.000,0.000,0.3040,-3,-4,-1.66,-0.16,-0.11,0.0190,-0.0787,0.3055
29446,0.1002,-0.2025,0.3044,0.1365,0.0674,0.0041,-1.84,0.21,-0.22,0,3.463,-1.503,2.312,6.879,0.002,-0.018,0.998,0.000,0.000,0.000,0.3010,2,-1,-1.86,-0.16,0.29,0.0216,-0.0767,0.3054
29497,0.1082,-0.2001,0.3030,0.1378,0.0794,-0.0050,-1.88,0.14,0.10,0,3.473,-2.392,-0.999,4.039,0.001,-0.015,1.005,0.000,0.000,0.000,0.3040,-1,-4,-1.89,-0.06,0.57,0.0220,-0.0782,0.3051
29548,0.1142,-0.1882,0.3032,0.1336,0.1148,-0.0026,-2.26,0.23,0.36,0,3.463,8.079,1.717,2.638,0.002,-0.012,1.007,0.000,0.000,0.000,0.3050,0,-1,-2.02,-0.08,0.82,0.0246,-0.0774,0.3052
29599,0.1206,-0.1900,0.3041,0.1312,0.1128,0.0047,-1.73,0.15,0.47,0,3.473,6.061,-3.111,1.405,0.002,-0.015,1.003,0.000,0.000,0.000,0.3040,-1,-3,-1.59,-0.02,0.89,0.0251,-0.0775,0.3059
29650,0.1276,-0.1787,0.3042,0.1305,0.1408,0.0052,-1.51,0.16,0.54,0,3.463,-0.313,-0.592,0.568,0.002,-0.012,1.000,0.000,0.000,0.000,0.3020,-8,-1,-1.27,-0.16,0.99,0.0270,-0.0768,0.3059
29701,0.1360,-0.1706,0.3034,0.1333,0.1551,0.0002,-1.47,0.28,0.59,0,3.468,11.062,-2.109,0.800,-0.000,-0.013,1.003,0.000,0.000,0.000,0.3010,-8,1,-1.37,-0.21,1.03,0.0276,-0.0718,0.3051
29753,0.1422,-0.1645,0.3023,0.1303,0.1618,-0.0037,-0.97,0.40,0.63,0,3.463,9.663,-1.996,0.427,-0.001,-0.018,1.005,0.000,0.000,0.000,0.3040,-1,-2,-0.84,-0.35,1.05,0.0267,-0.0668,0.3037
29804,0.1476,-0.1501,0.3029,0.1245,0.1839,0.0011,-0.54,0.42,0.67,0,3.473,7.813,-2.966,0.091,0.000,-0.017,1.005,0.000,0.000,0.000,0.3020,-8,-3,-0.26,-0.42,1.05,0.0279,-0.0663,0.3052
29856,0.1531,-0.1414,0.3026,0.1196,0.1863,0.0008,-0.12,0.53,0.70,0,3.463,8.747,-5.055,-0.654,-0.000,-0.012,1.001,0.000,0.000,0.000,0.3040,-5,-1,0.08,-0.55,1.10,0.0299,-0.0611,0.3054
29908,0.1595,-0.1311,0.3033,0.1163,0.1889,0.0052,0.32,0.68,0.66,0,3.473,7.390,-2.134,-0.489,-0.000,-0.012,1.004,0.000,0.000,0.000,0.3050,1,0,0.54,-0.82,1.07,0.0304,-0.0580,0.3056
29959,0.1662,-0.1186,0.3043,0.1131,0.1931,0.0100,0.99,0.73,0.58,0,3.468,2.865,0.656,-1.116,0.003,-0.021,0.999,0.000,0.000,0.000,0.3070,-1,-3,0.99,-0.94,0.97,0.0302,-0.0589,0.3058
30010,0.1685,-0.1274,0.3061,0.0998,0.1430,0.0162,1.15,0.75,0.50,0,3.468,-13.286,2.557,-2.474,-0.001,-0.012,0.998,0.000,0.000,0.000,0.3010,-1,-4,1.12,-0.86,0.88,0.0320,-0.0583,0.3072
30061,0.1736,-0.1175,0.3043,0.0937,0.1417,0.0028,0.50,0.62,0.39,0,3.463,-7.178,1.697,-2.855,0.002,-0.011,0.999,0.000,0.000,0.000,0.3040,-2,-2,0.42,-0.69,0.73,0.0344,-0.0578,0.3057
30112,0.1791,-0.1060,0.3042,0.0907,0.1495,0.0004,0.05,0.57,0.22,0,3.468,7.631,2.656,-3.993,-0.003,-0.011,0.999,0.000,0.000,0.000,0.3040,-1,0,0.02,-0.60,0.62,0.0358,-0.0564,0.3054
30163,0.1849,-0.0981,0.3041,0.0893,0.1494,-0.0007,0.53,0.45,-0.00,0,3.457,2.438,1.849,-5.155,0.000,-0.015,1.002,0.000,0.000,0.000,0.3030,-1,-1,0.41,-0.49,0.44,0.0358,-0.0557,0.3051
30214,0.1873,-0.0898,0.3035,0.0809,0.1470,-0.0042,0.77,0.38,-0.24,0,3.468,-3.984,2.175,-5.124,-0.001,-0.010,0.999,0.000,0.000,0.000,0.3040,-4,0,0.52,-0.38,0.18,0.0364,-0.0550,0.3046
30265,0.1920,-0.0811,0.3035,0.0795,0.1451,-0.0043,0.51,0.31,-0.48,0,3.463,4.599,-1.809,-4.378,-0.003,-0.013,1.005,0.000,0.000,0.000,0.3040,0,-1,0.26,-0.28,-0.04,0.0366,-0.0524,0.3044
30316,0.1945,-0.0725,0.3036,0.0734,0.1443,-0.0015,0.64,0.38,-0.71,0,3.468,4.874,0.887,-3.698,-0.002,-0.012,1.003,0.000,0.000,0.000,0.3020,-5,0,0.52,-0.35,-0.28,0.0371,-0.0525,0.3045
30367,0.1981,-0.0687,0.3029,0.0700,0.1306,-0.0037,0.90,0.39,-0.88,0,3.457,-3.125,5.238,-3.509,0.000,-0.013,0.999,0.000,0.000,0.000,0.3020,0,0,0.70,-0.31,-0.43,0.0373,-0.0492,0.3043
30418,0.1993,-0.0603,0.3023,0.0616,0.1276,-0.0045,0.78,0.21,-1.06,0,3.468,-1.061,1.021,-4.516,0.004,-0.012,1.003,0.000,0.000,0.000,0.3020,-1,0,0.54,-0.04,-0.61,0.0372,-0.0481,0.3037
30469,0.2018,-0.0483,0.3020,0.0585,0.1354,-0.0030,0.67,0.08,-1.25,0,3.457,1.746,-0.286,-5.995,-0.000,-0.012,1.004,0.000,0.000,0.000,0.3010,-8,-1,0.50,0.02,-0.84,0.0372,-0.0480,0.3032
30521,0.2022,-0.0449,0.3015,0.0514,0.1210,-0.0016,0.73,0.03,-1.51,0,3.468,3.693,8.416,-6.007,0.000,-0.013,1.003,0.000,0.000,0.000,0.3030,0,0,0.49,0.02,-1.14,0.0377,-0.0443,0.3033
30572,0.2041,-0.0372,0.3022,0.0500,0.1178,0.0036,0.85,-0.24,-1.79,0,3.463,-1.985,3.484,-4.206,0.003,-0.018,1.004,0.000,0.000,0.000,0.3010,0,-1,0.68,0.46,-1.45,0.0381,-0.0424,0.3034
30623,0.2051,-0.0250,0.3018,0.0482,0.1261,0.0026,0.75,-0.38,-2.03,0,3.468,2.254,-0.291,-2.300,-0.001,-0.015,1.003,0.000,0.000,0.000,0.3030,-5,-1,0.62,0.63,-1.65,0.0382,-0.0432,0.3031
30675,0.2070,-0.0203,0.3025,0.0497,0.1165,0.0059,0.78,-0.37,-2.17,0,3.463,0.188,0.287,-1.218,-0.002,-0.014,1.000,0.000,0.000,0.000,0.3000,0,-1,0.67,0.62,-1.80,0.0388,-0.0412,0.3043
30728,0.2088,-0.0130,0.3015,0.0511,0.1132,-0.0002,0.79,-0.44,-2.24,0,3.468,-3.392,-3.012,-0.550,-0.003,-0.013,1.003,0.000,0.000,0.000,0.2990,2,-1,0.69,0.63,-1.85,0.0395,-0.0411,0.3034
30780,0.2107,-0.0015,0.3003,0.0527,0.1216,-0.0063,0.51,-0.39,-2.25,0,3.457,-3.460,-3.946,0.137,-0.003,-0.012,0.999,0.000,0.000,0.000,0.3030,-3,-1,0.53,0.46,-1.87,0.0401,-0.0423,0.3022
30839,0.2129,0.0007,0.3014,0.0543,0.1091,0.0018,0.38,-0.22,-2.22,0,3.468,4.282,0.867,1.817,0.002,-0.013,0.997,0.000,0.000,0.000,0.3050,0,0,0.28,0.25,-1.89,0.0408,-0.0405,0.3031
30891,0.2161,0.0092,0.3032,0.0573,0.1126,0.0100,0.55,-0.29,-2.12,0,3.457,0.526,-0.891,4.100,-0.002,-0.017,0.994,0.000,0.000,0.000,0.3000,0,-1,0.53,0.30,-1.78,0.0417,-0.0406,0.3038
30942,0.2168,0.0103,0.3020,0.0544,0.0976,0.0005,0.60,-0.23,-1.93,0,3.468,-10.217,-0.800,6.839,-0.006,-0.015,0.996,0.000,0.000,0.000,0.2990,-2,-2,0.54,0.23,-1.55,0.0414,-0.0399,0.3026
30994,0.2202,0.0136,0.3006,0.0576,0.0899,-0.0087,0.11,-0.14,-1.61,0,3.457,-11.061,-6.985,6.006,0.000,-0.008,1.005,0.000,0.000,0.000,0.2990,-3,0,-0.02,0.20,-1.22,0.0424,-0.0392,0.3012
31045,0.2242,0.0192,0.2995,0.0609,0.0921,-0.0115,-0.47,0.05,-1.27,0,3.463,2.037,-5.957,6.887,-0.003,-0.010,1.005,0.000,0.000,0.000,0.2990,0,0,-0.63,-0.18,-0.90,0.0425,-0.0375,0.2998
31096,0.2285,0.0257,0.2988,0.0631,0.1005,-0.0093,-0.49,0.34,-0.93,0,3.457,-2.543,-6.458,4.707,0.001,-0.011,1.008,0.000,0.000,0.000,0.2970,0,-2,-0.53,-0.48,-0.55,0.0427,-0.0364,0.2992
31148,0.2313,0.0294,0.2977,0.0590,0.1014,-0.0100,-0.55,0.66,-0.68,0,3.463,-5.150,-8.597,4.015,0.001,-0.015,1.008,0.000,0.000,0.000,0.2990,0,0,-0.62,-0.79,-0.32,0.0437,-0.0373,0.2987
31199,0.2341,0.0372,0.2980,0.0526,0.1125,-0.0031,-0.76,1.06,-0.48,0,3.452,4.289,-2.652,2.735,0.003,-0.015,1.006,0.000,0.000,0.000,0.2980,-3,-3,-0.90,-1.23,-0.10,0.0440,-0.0373,0.2988
31250,0.2359,0.0425,0.2980,0.0418,0.1181,0.0013,-0.78,1.27,-0.33,0,3.468,3.720,-1.925,2.706,0.004,-0.020,1.010,0.000,0.000,0.000,0.3010,-4,0,-0.71,-1.33,0.09,0.0457,-0.0357,0.2990
31301,0.2381,0.0476,0.2995,0.0313,0.1222,0.0121,-0.65,1.42,-0.21,0,3.457,4.026,-1.179,2.179,0.003,-0.018,1.004,0.000,0.000,0.000,0.2990,-4,0,-0.56,-1.43,0.28,0.0459,-0.0337,0.2999
31352,0.2394,0.0536,0.2998,0.0188,0.1267,0.0131,-0.49,1.52,-0.11,0,3.468,-0.045,3.499,2.726,0.000,-0.018,1.002,0.000,0.000,0.000,0.2990,-3,0,-0.38,-1.48,0.44,0.0459,-0.0312,0.3001
31403,0.2389,0.0619,0.3000,0.0038,0.1342,0.0117,-0.40,1.39,0.00,0,3.457,2.281,2.157,2.662,0.002,-0.016,0.999,0.000,0.000,0.000,0.3020,-2,0,-0.39,-1.28,0.58,0.0458,-0.0293,0.3004
31454,0.2375,0.0698,0.3014,-0.0106,0.1403,0.0165,-0.33,1.23,0.14,0,3.468,0.777,6.740,2.653,0.007,-0.013,0.999,0.000,0.000,0.000,0.3010,0,2,-0.27,-1.16,0.71,0.0458,-0.0281,0.3015
31506,0.2362,0.0717,0.3019,-0.0222,0.1311,0.0148,-0.19,1.03,0.26,0,3.457,-1.886,6.746,2.161,0.009,-0.012,0.997,0.000,0.000,0.000,0.3000,0,0,-0.20,-0.82,0.81,0.0444,-0.0282,0.3020
31558,0.2324,0.0812,0.3015,-0.0357,0.1401,0.0078,-0.32,0.71,0.36,0,3.468,-4.381,3.178,1.011,0.010,-0.008,1.000,0.000,0.000,0.000,0.3030,0,2,-0.30,-0.47,0.92,0.0433,-0.0280,0.3019
31610,0.2288,0.0801,0.3024,-0.0453,0.1270,0.0094,-0.48,0.49,0.39,0,3.457,-2.823,5.747,-0.144,0.007,-0.013,0.999,0.000,0.000,0.000,0.3000,0,1,-0.53,-0.29,0.97,0.0431,-0.0282,0.3026
31661,0.2246,0.0922,0.3015,-0.0537,0.1444,0.0011,-0.62,0.24,0.43,0,3.463,1.827,6.117,0.632,0.008,-0.011,1.000,0.000,0.000,0.000,0.3050,0,2,-0.67,0.01,0.96,0.0425,-0.0282,0.3022
31712,0.2225,0.0922,0.3031,-0.0541,0.1331,0.0070,-0.66,-0.08,0.45,0,3.457,-1.589,6.218,-0.008,0.009,-0.015,0.999,0.000,0.000,0.000,0.3050,0,2,-0.58,0.30,0.98,0.0413,-0.0282,0.3035
31765,0.2209,0.1021,0.3042,-0.0509,0.1454,0.0102,-0.65,-0.36,0.45,0,3.468,2.867,2.338,0.225,0.004,-0.013,0.998,0.000,0.000,0.000,0.3030,-7,0,-0.67,0.60,0.97,0.0400,-0.0283,0.3044
31817,0.2174,0.1025,0.3040,-0.0505,0.1352,0.0061,-0.56,-0.49,0.47,0,3.457,-2.494,0.181,2.127,0.003,-0.018,1.001,0.000,0.000,0.000,0.3020,-3,0,-0.61,0.74,0.94,0.0399,-0.0240,0.3045
31868,0.2159,0.1140,0.3033,-0.0444,0.1501,0.0005,-0.59,-0.54,0.57,0,3.463,1.002,-1.946,2.273,0.004,-0.015,1.000,0.000,0.000,0.000,0.3000,-1,1,-0.72,0.75,1.05,0.0399,-0.0222,0.3043
31919,0.2153,0.1219,0.3019,-0.0364,0.1562,-0.0061,-0.52,-0.50,0.69,0,3.452,4.597,-4.711,2.446,0.003,-0.019,1.003,0.000,0.000,0.000,0.2990,0,0,-0.64,0.63,1.18,0.0393,-0.0215,0.3034
31970,0.2141,0.1323,0.3004,-0.0313,0.1668,-0.0112,-0.33,-0.24,0.83,0,3.463,7.359,-3.912,3.033,0.002,-0.015,1.006,0.000,0.000,0.000,0.2970,0,0,-0.41,0.39,1.31,0.0395,-0.0206,0.3023
32021,0.2125,0.1416,0.2985,-0.0293,0.1719,-0.0152,-0.09,0.01,0.98,0,3.452,3.309,-4.074,2.885,0.000,-0.017,1.007,0.000,0.000,0.000,0.2990,1,0,-0.03,0.19,1.46,0.0398,-0.0199,0.3008
32074,0.2122,0.1479,0.2983,-0.0267,0.1671,-0.0094,0.20,0.26,1.15,0,3.463,1.559,-8.011,4.687,0.002,-0.012,1.010,0.000,0.000,0.000,0.3010,5,1,0.16,-0.04,1.62,0.0392,-0.0209,0.3003
32126,0.2108,0.1371,0.2993,-0.0288,0.1203,0.0008,0.53,0.63,1.35,0,3.452,-17.861,-4.168,5.103,0.004,-0.017,1.002,0.000,0.000,0.000,0.2990,-3,0,0.28,-0.47,1.87,0.0389,-0.0230,0.3003
32177,0.2091,0.1362,0.2993,-0.0344,0.1005,0.0027,-0.20,0.85,1.58,0,3.463,-17.764,1.158,4.186,0.004,-0.012,1.005,0.000,0.000,0.000,0.3000,-5,0,-0.74,-0.68,2.16,0.0388,-0.0218,0.3012
32228,0.2083,0.1445,0.2997,-0.0393,0.1098,0.0054,-1.17,0.92,1.80,0,3.452,0.724,-4.615,1.992,0.004,-0.013,1.011,0.000,0.000,0.000,0.2990,-2,0,-1.71,-0.61,2.42,0.0387,-0.0188,0.3002
32279,0.2070,0.1659,0.2996,-0.0453,0.1568,0.0062,-1.51,1.04,1.92,0,3.463,15.771,-2.324,-0.520,0.005,-0.020,1.002,0.000,0.000,0.000,0.2980,-5,1,-1.65,-0.84,2.52,0.0387,-0.0175,0.3008
32332,0.2047,0.1788,0.2991,-0.0541,0.1798,0.0039,-0.70,1.16,1.90,0,3.452,16.014,-0.876,-4.316,0.002,-0.020,0.993,0.000,0.000,0.000,0.3020,-4,2,-0.87,-0.96,2.51,0.0379,-0.0144,0.3004
32383,0.2028,0.1908,0.3005,-0.0616,0.1923,0.0096,0.05,1.20,1.73,0,3.457,9.401,0.132,-4.736,0.001,-0.019,0.995,0.000,0.000,0.000,0.3000,-3,0,-0.01,-1.01,2.27,0.0366,-0.0121,0.3011
32434,0.2002,0.2010,0.3006,-0.0701,0.1930,0.0063,0.66,1.19,1.47,0,3.452,16.008,-0.820,-5.671,0.003,-0.019,0.995,0.000,0.000,0.000,0.2990,-9,1,0.47,-0.98,2.03,0.0365,-0.0102,0.3012
32485,0.1945,0.2115,0.3000,-0.0847,0.1889,-0.0007,1.37,1.26,1.19,0,3.457,10.628,2.480,-6.351,0.003,-0.020,0.993,0.000,0.000,0.000,0.3010,0,2,1.20,-1.01,1.84,0.0359,-0.0044,0.3014
32537,0.1890,0.2259,0.3003,-0.0978,0.1893,-0.0018,2.01,1.20,0.89,0,3.452,8.222,3.701,-6.501,0.003,-0.020,0.997,0.000,0.000,0.000,0.2990,-6,1,1.80,-0.87,1.46,0.0345,-0.0046,0.3014
32590,0.1854,0.2345,0.2996,-0.1038,0.1723,-0.0077,2.33,1.01,0.57,0,3.457,0.332,4.122,-7.154,0.007,-0.017,0.998,0.000,0.000,0.000,0.2980,-7,2,2.15,-0.65,1.17,0.0339,-0.0007,0.3020
32641,0.1803,0.2401,0.2985,-0.1115,0.1455,-0.0129,2.57,0.83,0.17,0,3.447,1.337,1.036,-7.179,0.007,-0.017,1.001,0.000,0.000,0.000,0.2980,0,1,2.10,-0.42,0.86,0.0328,0.0038,0.3006
32692,0.1745,0.2485,0.2978,-0.1189,0.1267,-0.0141,2.85,0.73,-0.21,0,3.452,-4.398,4.101,-6.803,0.007,-0.021,0.999,0.000,0.000,0.000,0.2940,0,3,2.20,-0.34,0.45,0.0321,0.0037,0.2997
32743,0.1693,0.2528,0.2955,-0.1232,0.0995,-0.0225,2.71,0.59,-0.56,0,3.447,-12.353,1.193,-7.021,0.005,-0.016,1.009,0.000,0.000,0.000,0.2960,1,5,1.96,-0.14,0.18,0.0304,0.0039,0.2977
32794,0.1624,0.2532,0.2950,-0.1300,0.0672,-0.0176,2.14,0.42,-0.88,0,3.452,-14.824,2.341,-6.270,0.007,-0.014,1.014,0.000,0.000,0.000,0.2920,-2,2,1.30,-0.11,-0.09,0.0275,0.0036,0.2967
32847,0.1541,0.2518,0.2931,-0.1380,0.0380,-0.0188,1.56,0.19,-1.17,0,3.447,-18.406,7.732,-4.506,0.005,-0.015,1.019,0.000,0.000,0.000,0.2920,0,2,0.48,0.04,-0.45,0.0262,0.0048,0.2953
32898,0.1465,0.2524,0.2920,-0.1415,0.0215,-0.0130,0.84,0.02,-1.43,0,3.452,-16.176,2.967,-5.164,0.009,-0.017,1.018,0.000,0.000,0.000,0.2900,0,0,-0.51,0.45,-0.69,0.0251,0.0048,0.2942
32949,0.1374,0.2526,0.2908,-0.1465,0.0117,-0.0083,0.06,-0.08,-1.66,0,3.447,-9.432,4.750,-5.380,0.005,-0.011,1.019,0.000,0.000,0.000,0.2950,0,0,-1.34,0.60,-0.96,0.0243,0.0045,0.2933
33000,0.1288,0.2526,0.2927,-0.1483,0.0091,0.0118,-0.41,-0.31,-1.91,0,3.457,-6.640,5.688,-5.157,0.006,-0.016,1.016,0.000,0.000,0.000,0.2930,0,5,-1.82,0.84,-1.24,0.0239,0.0043,0.2946
33051,0.1218,0.2545,0.2934,-0.1441,0.0159,0.0197,-0.77,-0.62,-2.20,0,3.452,-4.074,1.973,-4.657,0.007,-0.014,1.010,0.000,0.000,0.000,0.2930,1,2,-2.16,1.08,-1.54,0.0213,0.0040,0.2956
33104,0.1129,0.2553,0.2940,-0.1431,0.0218,0.0229,-0.94,-0.70,-2.44,0,3.463,-1.868,-1.023,-5.656,0.007,-0.017,1.007,0.000,0.000,0.000,0.2960,-1,2,-2.35,1.15,-1.78,0.0204,0.0039,0.2963
33155,0.1052,0.2557,0.2959,-0.1388,0.0274,0.0293,-1.09,-0.66,-2.67,0,3.452,-2.218,0.775,-4.511,0.005,-0.016,1.001,0.000,0.000,0.000,0.2980,-4,1,-2.45,1.06,-2.14,0.0193,0.0045,0.2978
33206,0.0977,0.2558,0.2980,-0.1345,0.0323,0.0336,-1.08,-0.64,-2.90,0,3.457,2.818,-4.327,-4.821,0.006,-0.015,0.997,0.000,0.000,0.000,0.2990,0,2,-2.59,1.08,-2.42,0.0188,0.0068,0.2992
33257,0.0928,0.2566,0.2997,-0.1248,0.0379,0.0331,-0.90,-0.46,-3.12,0,3.452,0.791,-5.755,-3.985,0.009,-0.017,0.995,0.000,0.000,0.000,0.2970,0,0,-2.40,0.82,-2.67,0.0176,0.0070,0.3014
33308,0.0869,0.2600,0.2996,-0.1195,0.0488,0.0235,-0.87,-0.28,-3.30,0,3.457,2.280,-8.541,-3.221,0.006,-0.015,0.996,0.000,0.000,0.000,0.2990,-1,1,-2.36,0.52,-2.86,0.0177,0.0087,0.3015
33359,0.0804,0.2614,0.3001,-0.1182,0.0531,0.0183,-0.73,-0.04,-3.43,0,3.452,-1.890,-5.928,-0.395,0.005,-0.018,0.998,0.000,0.000,0.000,0.3000,-2,2,-2.18,0.05,-3.00,0.0167,0.0074,0.3022
33410,0.0748,0.2640,0.3007,-0.1170,0.0586,0.0150,-0.67,0.29,-3.47,0,3.457,3.681,-3.936,1.504,0.010,-0.019,0.999,0.000,0.000,0.000,0.2990,0,0,-2.28,-0.27,-3.05,0.0158,0.0085,0.3025
33462,0.0686,0.2683,0.3004,-0.1195,0.0679,0.0089,-0.51,0.51,-3.37,0,3.447,3.808,-0.074,3.492,0.006,-0.019,1.002,0.000,0.000,0.000,0.3010,-1,1,-2.09,-0.47,-2.96,0.0153,0.0102,0.3024
33513,0.0610,0.2691,0.3010,-0.1274,0.0655,0.0083,-0.37,0.60,-3.19,0,3.457,-0.294,-2.913,4.120,0.005,-0.018,0.998,0.000,0.000,0.000,0.3020,-1,4,-1.84,-0.46,-2.78,0.0151,0.0091,0.3031
33564,0.0550,0.2729,0.3017,-0.1309,0.0696,0.0081,-0.28,0.64,-2.96,0,3.447,4.342,2.250,4.997,0.002,-0.020,1.000,0.000,0.000,0.000,0.2990,-3,2,-1.85,-0.64,-2.63,0.0131,0.0097,0.3036
33615,0.0466,0.2768,0.3007,-0.1405,0.0730,0.0005,-0.06,0.56,-2.70,0,3.457,4.361,1.395,6.021,0.008,-0.021,1.001,0.000,0.000,0.000,0.3000,-2,3,-1.65,-0.51,-2.35,0.0119,0.0116,0.3030
33666,0.0390,0.2809,0.3004,-0.1466,0.0746,-0.0014,0.17,0.49,-2.41,0,3.447,2.640,2.176,5.965,0.005,-0.021,1.004,0.000,0.000,0.000,0.3040,-2,5,-1.42,-0.43,-2.06,0.0101,0.0128,0.3027
33717,0.0316,0.2843,0.3021,-0.1508,0.0724,0.0089,0.36,0.40,-2.13,0,3.457,4.246,6.100,5.454,0.012,-0.019,1.006,0.000,0.000,0.000,0.3020,-2,2,-1.28,-0.34,-1.80,0.0070,0.0141,0.3036
33768,0.0222,0.2874,0.3024,-0.1585,0.0682,0.0096,0.55,0.11,-1.87,0,3.452,2.978,5.826,3.317,0.012,-0.016,1.001,0.000,0.000,0.000,0.3030,-4,3,-1.06,-0.00,-1.51,0.0058,0.0154,0.3040
33819,0.0151,0.2907,0.3030,-0.1575,0.0635,0.0109,0.68,-0.15,-1.69,0,3.457,6.988,4.542,1.336,0.005,-0.016,1.000,0.000,0.000,0.000,0.3020,-2,1,-0.93,0.29,-1.35,0.0040,0.0179,0.3045
33870,0.0064,0.2932,0.3029,-0.1588,0.0562,0.0076,0.84,-0.33,-1.61,0,3.452,1.481,0.603,-0.581,0.009,-0.022,0.999,0.000,0.000,0.000,0.3050,-1,3,-0.56,0.54,-1.27,0.0035,0.0192,0.3045
33922,-0.0001,0.2957,0.3041,-0.1528,0.0484,0.0109,1.01,-0.38,-1.63,0,3.457,0.555,-0.164,-1.498,0.007,-0.017,0.998,0.000,0.000,0.000,0.3090,0,4,-0.47,0.54,-1.30,0.0016,0.0199,0.3054
33973,-0.0077,0.2988,0.3068,-0.1495,0.0419,0.0194,0.98,-0.37,-1.72,0,3.452,-1.918,-0.282,-3.633,0.006,-0.018,0.996,0.000,0.000,0.000,0.3060,0,2,-0.43,0.49,-1.37,-0.0009,0.0200,0.3070
34024,-0.0167,0.2993,0.3071,-0.1505,0.0298,0.0144,0.93,-0.37,-1.88,0,3.457,-1.011,-0.389,-5.190,0.002,-0.015,0.995,0.000,0.000,0.000,0.3060,0,5,-0.52,0.48,-1.56,-0.0022,0.0200,0.3074
34075,-0.0236,0.3009,0.3070,-0.1462,0.0224,0.0075,0.88,-0.40,-2.14,0,3.452,-2.841,0.965,-5.860,0.006,-0.014,0.996,0.000,0.000,0.000,0.3060,0,3,-0.58,0.42,-1.82,-0.0053,0.0201,0.3073
34126,-0.0315,0.3023,0.3068,-0.1445,0.0158,0.0022,0.76,-0.44,-2.42,0,3.457,0.807,-4.752,-7.538,0.006,-0.014,0.994,0.000,0.000,0.000,0.3050,0,2,-0.73,0.46,-2.12,-0.0072,0.0202,0.3072
34177,-0.0402,0.3030,0.3060,-0.1452,0.0092,-0.0050,0.69,-0.25,-2.77,0,3.447,0.188,-2.269,-7.387,0.007,-0.014,0.998,0.000,0.000,0.000,0.3050,0,4,-0.70,0.22,-2.51,-0.0084,0.0202,0.3066
34228,-0.0471,0.3039,0.3053,-0.1425,0.0048,-0.0081,0.61,-0.21,-3.11,0,3.452,-0.035,1.299,-6.109,0.004,-0.015,0.998,0.000,0.000,0.000,0.3060,0,1,-0.69,0.07,-2.89,-0.0110,0.0203,0.3060
34279,-0.0555,0.3011,0.3053,-0.1442,-0.0079,-0.0071,0.54,-0.23,-3.41,0,3.447,-1.810,2.938,-4.533,0.007,-0.018,1.003,0.000,0.000,0.000,0.3040,-3,2,-0.69,0.16,-3.20,-0.0116,0.0204,0.3059
34330,-0.0626,0.3032,0.3045,-0.1424,-0.0072,-0.0085,0.52,-0.33,-3.65,0,3.452,0.696,1.007,-4.441,0.009,-0.015,1.003,0.000,0.000,0.000,0.3030,0,2,-0.83,0.30,-3.44,-0.0127,0.0223,0.3052
34382,-0.0690,0.3030,0.3035,-0.1382,-0.0113,-0.0106,0.59,-0.38,-3.86,0,3.442,0.413,-3.250,-4.261,0.004,-0.016,1.005,0.000,0.000,0.000,0.3000,0,0,-0.78,0.34,-3.66,-0.0140,0.0224,0.3045
34433,-0.0781,0.3033,0.3015,-0.1404,-0.0139,-0.0164,0.60,-0.31,-4.04,0,3.452,0.362,3.010,-2.046,0.004,-0.018,1.007,0.000,0.000,0.000,0.2990,1,4,-0.75,0.17,-3.88,-0.0147,0.0228,0.3030
34484,-0.0871,0.3036,0.2998,-0.1434,-0.0163,-0.0184,0.58,-0.33,-4.13,0,3.442,2.943,2.607,-1.390,0.008,-0.014,1.012,0.000,0.000,0.000,0.3010,0,2,-0.72,0.30,-3.99,-0.0166,0.0221,0.3017
34535,-0.0971,0.3023,0.2998,-0.1481,-0.0223,-0.0094,0.65,-0.42,-4.19,0,3.452,2.829,2.521,0.362,0.006,-0.018,1.011,0.000,0.000,0.000,0.3010,-2,3,-0.58,0.42,-4.06,-0.0177,0.0221,0.3015
34586,-0.1037,0.2995,0.3001,-0.1431,-0.0323,-0.0021,0.80,-0.57,-4.21,0,3.442,0.522,2.075,0.558,0.005,-0.018,1.004,0.000,0.000,0.000,0.2990,0,4,-0.46,0.53,-4.06,-0.0194,0.0233,0.3018
