time_ms,pos_x,pos_y,pos_z,vel_x,vel_y,vel_z,roll,pitch,yaw,thrust,vbat,gyro_x,gyro_y,gyro_z,acc_x,acc_y,acc_z,rate_roll,rate_pitch,rate_yaw,range_z,flow_dx,flow_dy,mekf_roll,mekf_pitch,mekf_yaw,mekf_x,mekf_y,mekf_z,our_ref_x,our_ref_y,our_ref_z,our_thrust,our_roll_cmd,our_pitch_cmd,our_yaw_rate_cmd,multi_front,multi_back,multi_left,multi_right,multi_up,ai_feat_count,vo_x,vo_y,vo_sigma,pg_x,pg_y,lc_count
0,0.0080,-0.2287,0.0094,0.0020,-0.0067,-0.0014,1.23,-0.28,1.69,0,4.070,0.291,-0.106,0.278,-0.004,0.023,1.002,0.000,0.000,0.000,0.0090,0,0,0.00,0.00,0.00,0.0000,0.0000,0.0000,0.0000,0.0000,0.0000,0.0000,0.00,0.00,0.00,0.8900,0.1980,1.0580,1.2470,2.7000,0,0.0000,0.0000,0.0000,0.0000,0.0000,0
101,0.0080,-0.2281,0.0092,0.0011,-0.0015,-0.0018,1.23,-0.25,1.69,0,4.080,-0.164,0.204,0.113,-0.005,0.024,0.998,0.000,0.000,0.000,0.0110,0,-1,0.00,0.00,0.00,0.0000,0.0000,0.0000,0.0000,0.0000,0.0000,0.0000,0.00,0.00,0.00,0.8900,0.1990,1.0590,1.2410,2.6980,0,0.0000,0.0000,0.0000,0.0000,0.0000,0
201,0.0084,-0.2278,0.0100,0.0030,0.0006,0.0026,1.25,-0.25,1.68,0,4.070,0.256,-0.218,0.030,-0.006,0.026,0.999,0.000,0.000,0.000,0.0090,0,0,0.00,0.00,0.00,0.0000,0.0000,0.0000,0.0000,0.0000,0.0000,0.0000,0.00,0.00,0.00,0.8900,0.1990,1.0590,1.2410,2.6980,0,0.0000,0.0000,0.0000,0.0000,0.0000,0
303,0.0082,-0.2287,0.0097,0.0006,-0.0030,-0.0003,1.24,-0.22,1.67,0,4.080,-0.088,0.054,0.196,-0.002,0.024,1.000,0.000,0.000,0.000,0.0110,2,-9,0.00,0.00,0.00,0.0000,0.0000,0.0000,0.0000,0.0000,0.0000,0.0000,0.00,0.00,0.00,0.8890,0.2000,1.0590,1.2420,2.7010,0,0.0000,0.0000,0.0000,0.0000,0.0000,0
404,0.0055,-0.2274,0.0103,-0.0135,0.0051,0.0033,1.21,-0.06,1.65,0,4.070,-0.222,0.055,-0.038,-0.004,0.023,0.999,0.000,0.000,0.000,0.0090,8,7,0.00,0.00,0.00,0.0000,0.0000,0.0000,0.0000,0.0000,0.0000,0.0000,0.00,0.00,0.00,0.8890,0.2000,1.0590,1.2420,2.7010,0,0.0000,0.0000,0.0000,0.0000,0.0000,0
504,0.0061,-0.2294,0.0099,-0.0075,-0.0045,0.0002,1.26,-0.13,1.65,0,4.080,0.146,-0.064,0.131,-0.004,0.024,0.998,0.000,0.000,0.000,0.0070,2,1,0.00,0.00,0.00,0.0000,0.0000,0.0000,0.0000,0.0000,0.0000,0.0000,0.00,0.00,0.00,0.8910,0.2030,1.0600,1.2480,2.6970,0,0.0000,0.0000,0.0000,0.0000,0.0000,0
605,0.0044,-0.2292,0.0086,-0.0142,-0.0007,-0.0070,1.24,-0.14,1.64,0,4.070,-0.029,-0.230,0.257,-0.006,0.025,1.001,0.000,0.000,0.000,0.0100,-2,-4,0.00,0.00,0.00,0.0000,0.0000,0.0000,0.0000,0.0000,0.0000,0.0000,0.00,0.00,0.00,0.8910,0.2030,1.0600,1.2480,2.6970,0,0.0000,0.0000,0.0000,0.0000,0.0000,0
706,0.0048,-0.2298,0.0090,-0.0096,-0.0024,-0.0037,1.30,-0.19,1.63,0,4.080,0.040,-0.031,0.119,-0.006,0.024,1.002,0.000,0.000,0.000,0.0100,8,-7,0.00,0.00,0.00,0.0000,0.0000,0.0000,0.0000,0.0000,0.0000,0.0000,0.00,0.00,0.00,0.8890,0.2050,1.0610,1.2420,2.7050,0,0.0000,0.0000,0.0000,0.0000,0.0000,0
807,0.0057,-0.2314,0.0094,-0.0032,-0.0093,-0.0013,1.26,-0.20,1.62,0,4.070,-0.027,-0.274,0.175,-0.005,0.024,0.998,0.000,0.000,0.000,0.0100,1,2,0.00,0.00,0.00,0.0000,0.0000,0.0000,0.0000,0.0000,0.0000,0.0000,0.00,0.00,0.00,0.8890,0.2050,1.0610,1.2420,2.7050,0,0.0000,0.0000,0.0000,0.0000,0.0000,0
908,0.0046,-0.2298,0.0097,-0.0082,0.0013,0.0004,1.22,-0.20,1.61,0,4.080,-0.024,-0.218,0.075,-0.003,0.022,1.000,0.000,0.000,0.000,0.0090,5,-1,0.00,0.00,0.00,0.0000,0.0000,0.0000,0.0000,0.0000,0.0000,0.0000,0.00,0.00,0.00,0.8870,0.2020,1.0600,1.2390,2.7050,0,0.0000,0.0000,0.0000,0.0000,0.0000,0
1010,0.0043,-0.2281,0.0094,-0.0079,0.0111,-0.0007,1.29,-0.28,1.60,0,4.070,-0.065,0.036,0.043,-0.005,0.022,1.000,0.000,0.000,0.000,0.0100,-1,1,0.00,0.00,0.00,0.0000,0.0000,0.0000,0.0000,0.0000,0.0000,0.0000,0.00,0.00,0.00,0.8870,0.2020,1.0600,1.2390,2.7050,0,0.0000,0.0000,0.0000,0.0000,0.0000,0
1111,0.0047,-0.2294,0.0098,-0.0040,0.0048,0.0018,1.18,-0.24,1.60,0,4.080,-0.113,0.010,-0.008,-0.004,0.023,1.001,0.000,0.000,0.000,0.0090,6,2,0.00,0.00,0.00,0.0000,0.0000,0.0000,0.0000,0.0000,0.0000,0.0000,0.00,0.00,0.00,0.8900,0.2110,1.0600,1.2410,2.7010,0,0.0000,0.0000,0.0000,0.0000,0.0000,0
1212,0.0045,-0.2294,0.0095,-0.0042,0.0048,0.0001,1.21,-0.22,1.59,0,4.070,-0.135,0.017,-0.000,-0.006,0.023,0.999,0.000,0.000,0.000,0.0060,9,0,0.00,0.00,0.00,0.0000,0.0000,0.0000,0.0000,0.0000,0.0000,0.0000,0.00,0.00,0.00,0.8900,0.2110,1.0600,1.2410,2.7010,0,0.0000,0.0000,0.0000,0.0000,0.0000,0
1313,0.0049,-0.2300,0.0079,-0.0006,0.0018,-0.0077,1.19,-0.24,1.59,0,4.080,-0.189,0.349,0.026,-0.003,0.025,1.001,0.000,0.000,0.000,0.0080,0,-1,0.00,0.00,0.00,0.0000,0.0000,0.0000,0.0000,0.0000,0.0000,0.0000,0.00,0.00,0.00,0.8910,0.2100,1.0560,1.2460,2.7000,0,0.0000,0.0000,0.0000,0.0000,0.0000,0
1413,0.0049,-0.2293,0.0078,-0.0001,0.0071,-0.0066,1.09,-0.31,1.59,0,4.070,0.025,-0.049,0.101,-0.004,0.024,0.998,0.000,0.000,0.000,0.0090,0,-1,0.00,0.00,0.00,0.0000,0.0000,0.0000,0.0000,0.0000,0.0000,0.0000,0.00,0.00,0.00,0.8910,0.2100,1.0560,1.2460,2.7000,0,0.0000,0.0000,0.0000,0.0000,0.0000,0
1515,0.0059,-0.2270,0.0081,0.0044,0.0177,-0.0038,1.11,-0.31,1.58,0,4.080,-0.167,0.055,0.440,-0.003,0.024,0.998,0.000,0.000,0.000,0.0090,0,-2,0.00,0.00,0.00,0.0000,0.0000,0.0000,0.0000,0.0000,0.0000,0.0000,0.00,0.00,0.00,0.8860,0.2020,1.0590,1.2420,2.6990,0,0.0000,0.0000,0.0000,0.0000,0.0000,0
1565,0.0059,-0.2267,0.0084,0.0031,0.0164,-0.0021,1.16,-0.29,1.57,0,4.070,0.001,-0.196,-0.023,-0.006,0.026,1.000,0.000,0.000,0.000,0.0100,-2,1,0.00,0.00,0.00,0.0000,0.0000,0.0000,0.0000,0.0000,0.0000,0.0000,0.00,0.00,0.00,0.8860,0.2020,1.0590,1.2420,2.6990,0,0.0000,0.0000,0.0000,0.0000,0.0000,0
1616,0.0060,-0.2275,0.0091,0.0024,0.0110,0.0020,1.17,-0.32,1.57,0,4.080,0.233,0.078,-0.349,-0.006,0.025,1.001,0.000,0.000,0.000,0.0120,2,-3,0.00,0.00,0.00,0.0000,0.0000,0.0000,0.0000,0.0000,0.0000,0.0000,0.00,0.00,0.00,0.8850,0.2000,1.0590,1.2480,2.6970,0,0.0000,0.0000,0.0000,0.0000,0.0000,0
1668,0.0062,-0.2260,0.0105,0.0025,0.0175,0.0086,1.16,-0.28,1.56,0,4.070,0.194,0.140,-0.158,-0.004,0.023,0.998,0.000,0.000,0.000,0.0090,-3,3,0.00,0.00,0.00,0.0000,0.0000,0.0000,0.0000,0.0000,0.0000,0.0000,0.00,0.00,0.00,0.8850,0.2000,1.0590,1.2480,2.6970,0,0.0000,0.0000,0.0000,0.0000,0.0000,0
1718,0.0068,-0.2266,0.0102,0.0054,0.0120,0.0045,1.21,-0.27,1.55,0,4.075,0.109,0.032,-0.058,-0.006,0.023,0.998,0.000,0.000,0.000,0.0100,0,3,0.00,0.00,0.00,0.0000,0.0000,0.0000,0.0000,0.0000,0.0000,0.0000,0.00,0.00,0.00,0.8910,0.2050,1.0570,1.2470,2.7040,0,0.0000,0.0000,0.0000,0.0000,0.0000,0
1770,0.0068,-0.2266,0.0103,0.0043,0.0099,0.0035,1.24,-0.26,1.53,0,4.070,0.014,-0.009,-0.119,-0.006,0.025,0.999,0.000,0.000,0.000,0.0080,-1,-9,0.00,0.00,0.00,0.0000,0.0000,0.0000,0.0000,0.0000,0.0000,0.0000,0.00,0.00,0.00,0.8910,0.2050,1.0570,1.2470,2.7040,0,0.0000,0.0000,0.0000,0.0000,0.0000,0
1821,0.0048,-0.2239,0.0094,-0.0070,0.0232,-0.0019,1.25,-0.21,1.53,0,4.075,-0.221,-0.047,0.010,-0.005,0.023,1.000,0.000,0.000,0.000,0.0100,2,0,0.00,0.00,0.00,0.0000,0.0000,0.0000,0.0000,0.0000,0.0000,0.0000,0.00,0.00,0.00,0.8880,0.1990,1.0580,1.2420,2.7000,0,0.0000,0.0000,0.0000,0.0000,0.0000,0
1872,0.0049,-0.2263,0.0097,-0.0058,0.0071,0.0002,1.25,-0.19,1.52,0,4.070,-0.015,0.200,0.170,-0.005,0.024,1.001,0.000,0.000,0.000,0.0100,0,-2,0.00,0.00,0.00,0.0000,0.0000,0.0000,0.0000,0.0000,0.0000,0.0000,0.00,0.00,0.00,0.8880,0.1990,1.0580,1.2420,2.7000,0,0.0000,0.0000,0.0000,0.0000,0.0000,0
1922,0.0046,-0.2257,0.0099,-0.0064,0.0091,0.0008,1.24,-0.23,1.52,0,4.080,-0.199,0.020,0.312,-0.005,0.024,0.998,0.000,0.000,0.000,0.0110,0,0,0.00,0.00,0.00,0.0000,0.0000,0.0000,0.0000,0.0000,0.0000,0.0000,0.00,0.00,0.00,0.8900,0.1990,1.0600,1.2420,2.6980,0,0.0000,0.0000,0.0000,0.0000,0.0000,0
1974,0.0047,-0.2263,0.0104,-0.0046,0.0043,0.0033,1.24,-0.22,1.52,0,4.070,-0.011,-0.060,-0.168,-0.007,0.023,1.002,0.000,0.000,0.000,0.0080,-1,0,0.00,0.00,0.00,0.0000,0.0000,0.0000,0.0000,0.0000,0.0000,0.0000,0.00,0.00,0.00,0.8900,0.1990,1.0600,1.2420,2.6980,0,0.0000,0.0000,0.0000,0.0000,0.0000,0
2025,0.0047,-0.2258,0.0095,-0.0036,0.0066,-0.0017,1.24,-0.24,1.51,0,4.080,-0.091,-0.034,0.037,-0.007,0.024,1.000,0.000,0.000,0.000,0.0110,7,-8,0.00,0.00,0.00,0.0000,0.0000,0.0000,0.0000,0.0000,0.0000,0.0000,0.00,0.00,0.00,0.8940,0.2010,1.0600,1.2440,2.7020,0,0.0000,0.0000,0.0000,0.0000,0.0000,0
2076,0.0080,-0.2275,0.0102,0.0128,-0.0028,0.0018,1.37,-0.43,1.51,0,4.070,-0.032,0.287,0.028,-0.003,0.023,1.001,0.000,0.000,0.000,0.0070,14,9,0.00,0.00,0.00,0.0000,0.0000,0.0000,0.0000,0.0000,0.0000,0.0000,0.00,0.00,0.00,0.8940,0.2010,1.0600,1.2440,2.7020,0,0.0000,0.0000,0.0000,0.0000,0.0000,0
2127,0.0098,-0.2266,0.0088,0.0189,0.0025,-0.0050,1.38,-0.39,1.50,0,4.075,0.022,0.170,0.093,-0.004,0.025,1.000,0.000,0.000,0.000,0.0090,-1,5,0.00,0.00,0.00,0.0000,0.0000,0.0000,0.0000,0.0000,0.0000,0.0000,0.00,0.00,0.00,0.8910,0.2010,1.0550,1.2460,2.7030,0,0.0000,0.0000,0.0000,0.0000,0.0000,0
2178,0.0080,-0.2344,0.0088,0.0069,-0.0365,-0.0041,1.51,-0.26,1.50,0,4.070,-0.030,-0.047,0.145,-0.005,0.023,0.999,0.000,0.000,0.000,0.0080,3,0,0.00,0.00,0.00,0.0000,0.0000,0.0000,0.0000,0.0000,0.0000,0.0000,0.00,0.00,0.00,0.8910,0.2010,1.0550,1.2460,2.7030,0,0.0000,0.0000,0.0000,0.0000,0.0000,0
2229,0.0075,-0.2326,0.0084,0.0039,-0.0205,-0.0046,1.43,-0.27,1.49,0,4.075,-0.015,-0.172,0.293,-0.007,0.025,0.999,0.000,0.000,0.000,0.0120,4,-1,0.00,0.00,0.00,0.0000,0.0000,0.0000,0.0000,0.0000,0.0000,0.0000,0.00,0.00,0.00,0.8870,0.2000,1.0600,1.2490,2.7000,0,0.0000,0.0000,0.0000,0.0000,0.0000,0
2281,0.0073,-0.2326,0.0100,0.0017,-0.0152,0.0036,1.40,-0.27,1.49,0,4.070,0.119,-0.403,-0.274,-0.006,0.023,1.000,0.000,0.000,0.000,0.0080,-1,-2,0.00,0.00,0.00,0.0000,0.0000,0.0000,0.0000,0.0000,0.0000,0.0000,0.00,0.00,0.00,0.8870,0.2000,1.0600,1.2490,2.7000,0,0.0000,0.0000,0.0000,0.0000,0.0000,0
2331,0.0071,-0.2336,0.0092,-0.0002,-0.0153,-0.0011,1.31,-0.25,1.48,0,4.075,-0.011,0.041,-0.086,-0.006,0.023,1.002,0.000,0.000,0.000,0.0100,1,3,0.00,0.00,0.00,0.0000,0.0000,0.0000,0.0000,0.0000,0.0000,0.0000,0.00,0.00,0.00,0.8890,0.2000,1.0610,1.2380,2.6990,0,0.0000,0.0000,0.0000,0.0000,0.0000,0
2382,0.0073,-0.2333,0.0095,-0.0001,-0.0104,0.0011,1.32,-0.26,1.47,0,4.070,-0.218,0.066,-0.025,-0.003,0.024,1.002,0.000,0.000,0.000,0.0070,-3,-2,0.00,0.00,0.00,0.0000,0.0000,0.0000,0.0000,0.0000,0.0000,0.0000,0.00,0.00,0.00,0.8890,0.2000,1.0610,1.2380,2.6990,0,0.0000,0.0000,0.0000,0.0000,0.0000,0
2434,0.0070,-0.2337,0.0084,-0.0011,-0.0092,-0.0042,1.28,-0.25,1.47,0,4.075,-0.238,-0.080,-0.068,-0.006,0.024,0.999,0.000,0.000,0.000,0.0080,-1,0,0.00,0.00,0.00,0.0000,0.0000,0.0000,0.0000,0.0000,0.0000,0.0000,0.00,0.00,0.00,0.8880,0.2050,1.0580,1.2420,2.7000,0,0.0000,0.0000,0.0000,0.0000,0.0000,0
2484,0.0072,-0.2334,0.0080,0.0002,-0.0054,-0.0046,1.23,-0.24,1.46,0,4.070,-0.004,0.075,0.032,-0.005,0.026,0.998,0.000,0.000,0.000,0.0070,-4,0,0.00,0.00,0.00,0.0000,0.0000,0.0000,0.0000,0.0000,0.0000,0.0000,0.00,0.00,0.00,0.8880,0.2050,1.0580,1.2420,2.7000,0,0.0000,0.0000,0.0000,0.0000,0.0000,0
2536,0.0070,-0.2334,0.0074,-0.0007,-0.0033,-0.0066,1.22,-0.24,1.45,0,4.075,0.041,0.419,-0.152,-0.005,0.024,0.999,0.000,0.000,0.000,0.0100,0,-1,0.00,0.00,0.00,0.0000,0.0000,0.0000,0.0000,0.0000,0.0000,0.0000,0.00,0.00,0.00,0.8930,0.1990,1.0580,1.2490,2.7080,0,0.0000,0.0000,0.0000,0.0000,0.0000,0
2587,0.0072,-0.2330,0.0083,0.0003,0.0006,-0.0010,1.22,-0.26,1.45,0,4.070,-0.110,-0.136,0.313,-0.005,0.023,0.998,0.000,0.000,0.000,0.0080,3,0,0.00,0.00,0.00,0.0000,0.0000,0.0000,0.0000,0.0000,0.0000,0.0000,0.00,0.00,0.00,0.8930,0.1990,1.0580,1.2490,2.7080,0,0.0000,0.0000,0.0000,0.0000,0.0000,0
2638,0.0072,-0.2325,0.0082,-0.0003,0.0043,-0.0016,1.22,-0.24,1.45,0,4.080,-0.108,0.133,0.098,-0.003,0.024,0.996,0.000,0.000,0.000,0.0100,0,-1,0.00,0.00,0.00,0.0000,0.0000,0.0000,0.0000,0.0000,0.0000,0.0000,0.00,0.00,0.00,0.8910,0.2060,1.0590,1.2430,2.6990,0,0.0000,0.0000,0.0000,0.0000,0.0000,0
2689,0.0067,-0.2325,0.0090,-0.0029,0.0054,0.0019,1.23,-0.25,1.44,0,4.070,-0.115,-0.156,-0.045,-0.005,0.024,0.999,0.000,0.000,0.000,0.0070,0,0,0.00,0.00,0.00,0.0000,0.0000,0.0000,0.0000,0.0000,0.0000,0.0000,0.00,0.00,0.00,0.8910,0.2060,1.0590,1.2430,2.6990,0,0.0000,0.0000,0.0000,0.0000,0.0000,0
2739,0.0075,-0.2322,0.0081,0.0007,0.0067,-0.0031,1.23,-0.22,1.43,0,4.070,0.121,-0.093,-0.121,-0.004,0.023,1.001,0.000,0.000,0.000,0.0100,-3,-3,0.00,0.00,0.00,0.0000,0.0000,0.0000,0.0000,0.0000,0.0000,0.0000,0.00,0.00,0.00,0.8880,0.2060,1.0600,1.2450,2.7100,0,0.0000,0.0000,0.0000,0.0000,0.0000,0
2790,0.0070,-0.2332,0.0089,-0.0012,0.0022,0.0012,1.22,-0.26,1.43,0,4.070,-0.276,0.088,0.000,-0.006,0.025,0.999,0.000,0.000,0.000,0.0110,-1,-1,0.00,0.00,0.00,0.0000,0.0000,0.0000,0.0000,0.0000,0.0000,0.0000,0.00,0.00,0.00,0.8880,0.2060,1.0600,1.2450,2.7100,0,0.0000,0.0000,0.0000,0.0000,0.0000,0
2841,0.0073,-0.2334,0.0099,-0.0003,0.0018,0.0057,1.23,-0.22,1.41,0,4.075,-0.168,0.087,0.544,-0.003,0.026,0.999,0.000,0.000,0.000,0.0090,-3,1,0.00,0.00,0.00,0.0000,0.0000,0.0000,0.0000,0.0000,0.0000,0.0000,0.00,0.00,0.00,0.8930,0.2030,1.0570,1.2450,2.7070,0,0.0000,0.0000,0.0000,0.0000,0.0000,0
2892,0.0075,-0.2332,0.0098,0.0012,0.0034,0.0039,1.19,-0.25,1.41,0,4.070,0.056,-0.169,-0.020,-0.004,0.024,1.000,0.000,0.000,0.000,0.0090,-1,-1,0.00,0.00,0.00,0.0000,0.0000,0.0000,0.0000,0.0000,0.0000,0.0000,0.00,0.00,0.00,0.8930,0.2030,1.0570,1.2450,2.7070,0,0.0000,0.0000,0.0000,0.0000,0.0000,0
2943,0.0073,-0.2336,0.0096,0.0002,0.0019,0.0018,1.18,-0.26,1.40,0,4.080,-0.149,-0.151,-0.205,-0.006,0.022,1.001,0.000,0.000,0.000,0.0100,5,-1,0.00,0.00,0.00,0.0000,0.0000,0.0000,0.0000,0.0000,0.0000,0.0000,0.00,0.00,0.00,0.8860,0.2030,1.0600,1.2460,2.7040,0,0.0000,0.0000,0.0000,0.0000,0.0000,0
2994,0.0073,-0.2329,0.0098,-0.0007,0.0053,0.0024,1.21,-0.25,1.40,0,4.070,0.021,0.188,0.013,-0.004,0.023,1.000,0.000,0.000,0.000,0.0110,1,-2,0.00,0.00,0.00,0.0000,0.0000,0.0000,0.0000,0.0000,0.0000,0.0000,0.00,0.00,0.00,0.8860,0.2030,1.0600,1.2460,2.7040,0,0.0000,0.0000,0.0000,0.0000,0.0000,0
3046,0.0070,-0.2332,0.0105,-0.0015,0.0041,0.0054,1.21,-0.26,1.39,0,4.075,-0.309,0.057,0.190,-0.005,0.024,0.998,0.000,0.000,0.000,0.0100,0,0,0.00,0.00,0.00,0.0000,0.0000,0.0000,0.0000,0.0000,0.0000,0.0000,0.00,0.00,0.00,0.8880,0.2050,1.0570,1.2500,2.7020,0,0.0000,0.0000,0.0000,0.0000,0.0000,0
3096,0.0068,-0.2332,0.0105,-0.0030,0.0044,0.0037,1.21,-0.27,1.40,0,4.070,0.040,0.108,0.602,-0.006,0.024,0.999,0.000,0.000,0.000,0.0100,3,1,0.00,0.00,0.00,0.0000,0.0000,0.0000,0.0000,0.0000,0.0000,0.0000,0.00,0.00,0.00,0.8880,0.2050,1.0570,1.2500,2.7020,0,0.0000,0.0000,0.0000,0.0000,0.0000,0
3148,0.0075,-0.2334,0.0104,-0.0000,-0.0004,0.0017,1.18,-0.26,1.39,0,4.080,0.150,-0.154,-0.133,-0.005,0.023,1.002,0.000,0.000,0.000,0.0090,-3,1,0.00,0.00,0.00,0.0000,0.0000,0.0000,0.0000,0.0000,0.0000,0.0000,0.00,0.00,0.00,0.8880,0.2040,1.0550,1.2370,2.7030,0,0.0000,0.0000,0.0000,0.0000,0.0000,0
3199,0.0073,-0.2334,0.0099,-0.0014,0.0030,-0.0008,1.19,-0.25,1.38,0,4.070,-0.160,-0.138,-0.064,-0.005,0.024,0.999,0.000,0.000,0.000,0.0080,-5,0,0.00,0.00,0.00,0.0000,0.0000,0.0000,0.0000,0.0000,0.0000,0.0000,0.00,0.00,0.00,0.8880,0.2040,1.0550,1.2370,2.7030,0,0.0000,0.0000,0.0000,0.0000,0.0000,0
3249,0.0077,-0.2342,0.0090,0.0013,-0.0009,-0.0043,1.21,-0.24,1.37,0,4.080,-0.130,0.233,-0.295,-0.004,0.025,1.001,0.000,0.000,0.000,0.0110,0,-4,0.00,0.00,0.00,0.0000,0.0000,0.0000,0.0000,0.0000,0.0000,0.0000,0.00,0.00,0.00,0.8900,0.2030,1.0620,1.2480,2.7020,0,0.0000,0.0000,0.0000,0.0000,0.0000,0
3301,0.0071,-0.2325,0.0097,-0.0022,0.0089,-0.0003,1.18,-0.27,1.37,0,4.070,0.234,-0.382,-0.252,-0.004,0.024,1.000,0.000,0.000,0.000,0.0090,0,-2,0.00,0.00,0.00,0.0000,0.0000,0.0000,0.0000,0.0000,0.0000,0.0000,0.00,0.00,0.00,0.8900,0.2030,1.0620,1.2480,2.7020,0,0.0000,0.0000,0.0000,0.0000,0.0000,0
3352,0.0067,-0.2333,0.0094,-0.0043,0.0042,-0.0017,1.23,-0.26,1.35,0,4.075,0.183,0.273,-0.252,-0.006,0.024,1.000,0.000,0.000,0.000,0.0090,0,2,0.00,0.00,0.00,0.0000,0.0000,0.0000,0.0000,0.0000,0.0000,0.0000,0.00,0.00,0.00,0.8900,0.1920,1.0590,1.2460,2.6960,0,0.0000,0.0000,0.0000,0.0000,0.0000,0
3402,0.0071,-0.2333,0.0092,-0.0015,0.0045,-0.0020,1.23,-0.28,1.35,0,4.070,-0.081,-0.000,0.355,-0.004,0.023,1.000,0.000,0.000,0.000,0.0070,-4,1,0.00,0.00,0.00,0.0000,0.0000,0.0000,0.0000,0.0000,0.0000,0.0000,0.00,0.00,0.00,0.8900,0.1920,1.0590,1.2460,2.6960,0,0.0000,0.0000,0.0000,0.0000,0.0000,0
3454,0.0075,-0.2333,0.0081,0.0007,0.0045,-0.0066,1.23,-0.27,1.34,0,4.080,0.138,0.074,-0.055,-0.004,0.024,1.001,0.000,0.000,0.000,0.0100,3,-3,0.00,0.00,0.00,0.0000,0.0000,0.0000,0.0000,0.0000,0.0000,0.0000,0.00,0.00,0.00,0.8890,0.2020,1.0570,1.2430,2.6970,0,0.0000,0.0000,0.0000,0.0000,0.0000,0
3504,0.0066,-0.2333,0.0087,-0.0037,0.0039,-0.0023,1.24,-0.26,1.34,0,4.070,0.000,-0.109,-0.031,-0.005,0.024,1.002,0.000,0.000,0.000,0.0080,-4,-1,0.00,0.00,0.00,0.0000,0.0000,0.0000,0.0000,0.0000,0.0000,0.0000,0.00,0.00,0.00,0.8890,0.2020,1.0570,1.2430,2.6970,0,0.0000,0.0000,0.0000,0.0000,0.0000,0
3555,0.0073,-0.2332,0.0083,0.0001,0.0038,-0.0035,1.23,-0.27,1.32,0,4.080,-0.002,-0.023,-0.041,-0.007,0.026,0.999,0.000,0.000,0.000,0.0110,0,0,0.00,0.00,0.00,0.0000,0.0000,0.0000,0.0000,0.0000,0.0000,0.0000,0.00,0.00,0.00,0.8920,0.1970,1.0600,1.2450,2.7070,0,0.0000,0.0000,0.0000,0.0000,0.0000,0
3607,0.0073,-0.2330,0.0094,-0.0002,0.0055,0.0019,1.23,-0.28,1.32,0,4.070,-0.130,-0.004,0.082,-0.004,0.025,1.000,0.000,0.000,0.000,0.0120,-4,0,0.00,0.00,0.00,0.0000,0.0000,0.0000,0.0000,0.0000,0.0000,0.0000,0.00,0.00,0.00,0.8920,0.1970,1.0600,1.2450,2.7070,0,0.0000,0.0000,0.0000,0.0000,0.0000,0
3658,0.0071,-0.2342,0.0107,-0.0012,-0.0003,0.0075,1.23,-0.25,1.32,0,4.075,-0.260,0.123,0.403,-0.003,0.025,0.997,0.000,0.000,0.000,0.0120,2,0,0.00,0.00,0.00,0.0000,0.0000,0.0000,0.0000,0.0000,0.0000,0.0000,0.00,0.00,0.00,0.8880,0.2120,1.0610,1.2470,2.7070,0,0.0000,0.0000,0.0000,0.0000,0.0000,0
3708,0.0073,-0.2327,0.0117,0.0004,0.0076,0.0100,1.20,-0.27,1.32,0,4.070,0.105,0.341,0.129,-0.005,0.024,0.999,0.000,0.000,0.000,0.0100,-3,-3,0.00,0.00,0.00,0.0000,0.0000,0.0000,0.0000,0.0000,0.0000,0.0000,0.00,0.00,0.00,0.8880,0.2120,1.0610,1.2470,2.7070,0,0.0000,0.0000,0.0000,0.0000,0.0000,0
3760,0.0069,-0.2330,0.0113,-0.0021,0.0067,0.0057,1.23,-0.25,1.31,0,4.075,0.141,0.054,-0.204,-0.005,0.025,0.999,0.000,0.000,0.000,0.0100,3,1,0.00,0.00,0.00,0.0000,0.0000,0.0000,0.0000,0.0000,0.0000,0.0000,0.00,0.00,0.00,0.8850,0.2020,1.0580,1.2510,2.6970,0,0.0000,0.0000,0.0000,0.0000,0.0000,0
3810,0.0076,-0.2333,0.0109,0.0017,0.0054,0.0021,1.25,-0.27,1.31,0,4.065,-0.048,-0.121,-0.213,-0.005,0.023,1.001,0.000,0.000,0.000,0.0090,0,0,0.00,0.00,0.00,0.0000,0.0000,0.0000,0.0000,0.0000,0.0000,0.0000,0.00,0.00,0.00,0.8850,0.2020,1.0580,1.2510,2.6970,0,0.0000,0.0000,0.0000,0.0000,0.0000,0
3861,-0.0001,-0.0001,0.4019,-0.0063,-0.0076,0.0001,-0.00,0.01,-0.00,0,4.075,-0.102,-0.061,0.329,-0.004,0.025,1.000,0.000,0.000,0.000,0.0120,-1,-2,0.00,0.00,0.00,0.0000,0.0000,0.0000,0.0000,0.0000,0.0000,0.0000,0.00,0.00,0.00,0.8880,0.2050,1.0580,1.2460,2.7010,0,0.0000,0.0000,0.0000,0.0000,0.0000,0
3913,-0.0005,-0.0004,0.0120,-0.0087,0.0003,-0.0000,-0.06,-0.03,-0.01,0,4.070,-0.010,0.137,0.402,-0.006,0.021,0.997,0.000,0.000,0.000,0.0110,5,1,0.00,0.00,0.00,0.0000,0.0000,0.0000,0.0000,0.0000,0.0000,0.0000,0.00,0.00,0.00,0.8880,0.2050,1.0580,1.2460,2.7010,0,0.0000,0.0000,0.0000,0.0000,0.0000,0
3964,-0.0005,-0.0001,0.0116,-0.0056,0.0109,-0.0009,0.16,-0.09,-0.01,0,4.080,0.064,0.117,0.036,-0.003,0.023,1.000,0.000,0.000,0.000,0.0100,0,0,0.00,0.00,0.00,0.0000,0.0000,0.0000,0.0000,0.0000,0.0000,0.0000,0.00,0.00,0.00,0.8840,0.2010,1.0620,1.2500,2.6960,0,0.0000,0.0000,0.0000,0.0000,0.0000,0
4014,-0.0008,-0.0007,0.0109,-0.0062,0.0081,-0.0032,0.21,-0.13,-0.01,0,4.070,0.064,0.003,-0.183,-0.004,0.022,0.999,0.000,0.000,0.000,0.0100,7,0,0.00,0.00,0.00,0.0000,0.0000,0.0000,0.0000,0.0000,0.0000,0.0000,0.00,0.00,0.00,0.8840,0.2010,1.0620,1.2500,2.6960,0,0.0000,0.0000,0.0000,0.0000,0.0000,0
4065,-0.0008,0.0013,0.0104,-0.0044,0.0292,-0.0051,0.41,-0.19,-0.01,0,4.080,0.181,0.173,0.093,-0.006,0.024,1.001,0.000,0.000,0.000,0.0090,-1,0,0.00,0.00,0.00,0.0000,0.0000,0.0000,0.0000,0.0000,0.0000,0.0000,0.00,0.00,0.00,0.8890,0.2030,1.0590,1.2430,2.6940,0,0.0000,0.0000,0.0000,0.0000,0.0000,0
4116,-0.0004,0.0003,0.0096,0.0005,0.0191,-0.0079,0.51,-0.29,-0.01,0,4.065,0.037,0.185,-0.047,-0.006,0.024,0.999,0.000,0.000,0.000,0.0080,0,2,0.00,0.00,0.00,0.0000,0.0000,0.0000,0.0000,0.0000,0.0000,0.0000,0.00,0.00,0.00,0.8890,0.2030,1.0590,1.2430,2.6940,0,0.0000,0.0000,0.0000,0.0000,0.0000,0
4167,-0.0004,0.0006,0.0086,0.0004,0.0208,-0.0113,0.82,-0.18,-0.01,0,4.075,-0.118,0.010,-0.172,-0.004,0.025,1.000,0.000,0.000,0.000,0.0110,-5,3,0.00,0.00,0.00,0.0000,0.0000,0.0000,0.0000,0.0000,0.0000,0.0000,0.00,0.00,0.00,0.8930,0.1990,1.0600,1.2370,2.7060,0,0.0000,0.0000,0.0000,0.0000,0.0000,0
4218,-0.0009,-0.0008,0.0093,-0.0033,0.0104,-0.0053,0.67,-0.27,-0.01,0,4.065,0.110,-0.084,-0.171,-0.004,0.026,1.000,0.000,0.000,0.000,0.0080,1,-5,0.00,0.00,0.00,0.0000,0.0000,0.0000,0.0000,0.0000,0.0000,0.0000,0.00,0.00,0.00,0.8930,0.1990,1.0600,1.2370,2.7060,0,0.0000,0.0000,0.0000,0.0000,0.0000,0
4269,-0.0009,0.0012,0.0085,-0.0022,0.0234,-0.0082,0.87,-0.19,-0.02,0,4.080,0.090,0.169,0.002,-0.003,0.023,0.999,0.000,0.000,0.000,0.0110,3,0,0.00,0.00,0.00,0.0000,0.0000,0.0000,0.0000,0.0000,0.0000,0.0000,0.00,0.00,0.00,0.8890,0.2000,1.0550,1.2440,2.7010,0,0.0000,0.0000,0.0000,0.0000,0.0000,0
4321,-0.0008,0.0009,0.0094,-0.0018,0.0195,-0.0024,0.96,-0.22,-0.02,0,4.070,-0.035,0.156,0.236,-0.006,0.023,1.000,0.000,0.000,0.000,0.0130,-4,2,0.00,0.00,0.00,0.0000,0.0000,0.0000,0.0000,0.0000,0.0000,0.0000,0.00,0.00,0.00,0.8890,0.2000,1.0550,1.2440,2.7010,0,0.0000,0.0000,0.0000,0.0000,0.0000,0
4371,-0.0003,-0.0003,0.0111,0.0017,0.0100,0.0062,1.04,-0.31,-0.02,0,4.075,0.032,-0.156,0.243,-0.005,0.023,0.999,0.000,0.000,0.000,0.0100,-1,0,0.00,0.00,0.00,0.0000,0.0000,0.0000,0.0000,0.0000,0.0000,0.0000,0.00,0.00,0.00,0.8910,0.2050,1.0580,1.2440,2.6970,0,0.0000,0.0000,0.0000,0.0000,0.0000,0
4423,-0.0008,-0.0000,0.0108,-0.0013,0.0107,0.0033,1.15,-0.27,-0.01,0,4.070,-0.209,0.380,0.027,-0.005,0.024,0.997,0.000,0.000,0.000,0.0120,0,0,0.00,0.00,0.00,0.0000,0.0000,0.0000,0.0000,0.0000,0.0000,0.0000,0.00,0.00,0.00,0.8910,0.2050,1.0580,1.2440,2.6970,0,0.0000,0.0000,0.0000,0.0000,0.0000,0
4473,-0.0005,-0.0005,0.0116,0.0008,0.0076,0.0054,1.11,-0.23,-0.01,0,4.075,0.045,0.035,0.099,-0.003,0.026,1.000,0.000,0.000,0.000,0.0060,2,5,0.00,0.00,0.00,0.0000,0.0000,0.0000,0.0000,0.0000,0.0000,0.0000,0.00,0.00,0.00,0.8910,0.1960,1.0560,1.2440,2.7080,0,0.0000,0.0000,0.0000,0.0000,0.0000,0
4525,-0.0002,0.0006,0.0091,0.0026,0.0132,-0.0071,1.18,-0.30,-0.01,0,4.065,0.094,-0.033,-0.099,-0.005,0.022,1.000,0.000,0.000,0.000,0.0080,0,-1,0.00,0.00,0.00,0.0000,0.0000,0.0000,0.0000,0.0000,0.0000,0.0000,0.00,0.00,0.00,0.8910,0.1960,1.0560,1.2440,2.7080,0,0.0000,0.0000,0.0000,0.0000,0.0000,0
4576,-0.0013,-0.0005,0.0083,-0.0026,0.0069,-0.0090,1.17,-0.36,-0.01,0,4.080,0.090,0.205,-0.025,-0.004,0.022,1.000,0.000,0.000,0.000,0.0110,0,0,0.00,0.00,0.00,0.0000,0.0000,0.0000,0.0000,0.0000,0.0000,0.0000,0.00,0.00,0.00,0.8880,0.2000,1.0600,1.2430,2.7100,0,0.0000,0.0000,0.0000,0.0000,0.0000,0
4626,-0.0008,0.0004,0.0093,0.0003,0.0118,-0.0027,1.11,-0.30,-0.01,0,4.070,-0.245,0.162,0.062,-0.005,0.025,1.000,0.000,0.000,0.000,0.0110,-2,-1,0.00,0.00,0.00,0.0000,0.0000,0.0000,0.0000,0.0000,0.0000,0.0000,0.00,0.00,0.00,0.8880,0.2000,1.0600,1.2430,2.7100,0,0.0000,0.0000,0.0000,0.0000,0.0000,0
4677,-0.0005,-0.0001,0.0100,0.0021,0.0087,0.0015,1.18,-0.32,-0.01,0,4.075,-0.079,-0.197,-0.128,-0.005,0.025,0.998,0.000,0.000,0.000,0.0090,5,0,0.00,0.00,0.00,0.0000,0.0000,0.0000,0.0000,0.0000,0.0000,0.0000,0.00,0.00,0.00,0.8930,0.1990,1.0590,1.2490,2.7020,0,0.0000,0.0000,0.0000,0.0000,0.0000,0
4729,-0.0005,0.0003,0.0096,0.0017,0.0101,-0.0007,1.21,-0.27,-0.01,0,4.070,-0.206,-0.122,0.216,-0.004,0.025,1.000,0.000,0.000,0.000,0.0090,7,2,0.00,0.00,0.00,0.0000,0.0000,0.0000,0.0000,0.0000,0.0000,0.0000,0.00,0.00,0.00,0.8930,0.1990,1.0590,1.2490,2.7020,0,0.0000,0.0000,0.0000,0.0000,0.0000,0
4780,-0.0005,0.0002,0.0093,0.0012,0.0105,-0.0024,1.20,-0.27,-0.01,0,4.075,0.074,0.138,-0.022,-0.002,0.024,0.999,0.000,0.000,0.000,0.0100,0,-1,0.00,0.00,0.00,0.0000,0.0000,0.0000,0.0000,0.0000,0.0000,0.0000,0.00,0.00,0.00,0.8840,0.1980,1.0580,1.2380,2.6930,0,0.0000,0.0000,0.0000,0.0000,0.0000,0
4831,-0.0008,-0.0007,0.0096,-0.0004,0.0047,-0.0001,1.21,-0.30,-0.01,0,4.070,-0.059,-0.024,-0.113,-0.004,0.024,0.999,0.000,0.000,0.000,0.0080,7,1,0.00,0.00,0.00,0.0000,0.0000,0.0000,0.0000,0.0000,0.0000,0.0000,0.00,0.00,0.00,0.8840,0.1980,1.0580,1.2380,2.6930,0,0.0000,0.0000,0.0000,0.0000,0.0000,0
4882,-0.0006,0.0001,0.0089,0.0012,0.0098,-0.0039,1.17,-0.28,-0.01,0,4.075,0.184,-0.061,-0.096,-0.005,0.025,1.000,0.000,0.000,0.000,0.0080,4,5,0.00,0.00,0.00,0.0000,0.0000,0.0000,0.0000,0.0000,0.0000,0.0000,0.00,0.00,0.00,0.8830,0.1980,1.0610,1.2430,2.6960,0,0.0000,0.0000,0.0000,0.0000,0.0000,0
4932,0.0003,-0.0005,0.0084,0.0057,0.0059,-0.0058,1.24,-0.28,-0.02,0,4.070,-0.059,-0.230,-0.021,-0.005,0.022,1.000,0.000,0.000,0.000,0.0100,-8,0,0.00,0.00,0.00,0.0000,0.0000,0.0000,0.0000,0.0000,0.0000,0.0000,0.00,0.00,0.00,0.8830,0.1980,1.0610,1.2430,2.6960,0,0.0000,0.0000,0.0000,0.0000,0.0000,0
4983,-0.0010,-0.0017,0.0090,-0.0015,-0.0004,-0.0015,1.18,-0.26,-0.02,0,4.075,0.122,0.161,0.018,-0.004,0.023,1.001,0.000,0.000,0.000,0.0060,0,0,0.00,0.00,0.00,0.0000,0.0000,0.0000,0.0000,0.0000,0.0000,0.0000,0.00,0.00,0.00,0.8890,0.2100,1.0590,1.2530,2.7010,0,0.0000,0.0000,0.0000,0.0000,0.0000,0
5034,-0.0010,-0.0008,0.0076,-0.0015,0.0048,-0.0075,1.25,-0.28,-0.02,0,4.070,-0.033,0.153,0.195,-0.006,0.024,1.002,0.000,0.000,0.000,0.0100,-8,0,0.00,0.00,0.00,0.0000,0.0000,0.0000,0.0000,0.0000,0.0000,0.0000,0.00,0.00,0.00,0.8890,0.2100,1.0590,1.2530,2.7010,0,0.0000,0.0000,0.0000,0.0000,0.0000,0
5086,-0.0007,-0.0051,0.0084,-0.0002,-0.0176,-0.0015,1.40,-0.27,-0.02,0,3.721,1.129,2.135,0.634,-0.006,0.031,1.006,0.000,0.000,0.000,0.0100,0,0,0.00,0.00,0.00,0.0000,0.0000,0.0000,0.0000,0.0000,0.0000,0.0000,0.00,0.00,0.00,0.8890,0.1970,1.0590,1.2420,2.7030,0,0.0000,0.0000,0.0000,0.0000,0.0000,0
5137,-0.0009,-0.0046,0.0092,-0.0002,-0.0156,0.0022,1.36,-0.26,-0.02,0,3.779,0.382,0.571,0.317,-0.013,0.022,1.003,0.000,0.000,0.000,0.0070,-5,3,0.00,0.00,0.00,0.0000,0.0000,0.0000,0.0000,0.0000,0.0000,0.0000,0.00,0.00,0.00,0.8890,0.1970,1.0590,1.2420,2.7030,0,0.0000,0.0000,0.0000,0.0000,0.0000,0
5189,-0.0005,-0.0051,0.0083,0.0042,-0.0242,-0.0021,1.26,-0.32,-0.02,0,3.816,0.928,-0.599,3.051,-0.001,-0.002,1.012,0.000,0.000,0.000,0.0080,1,3,0.00,0.00,0.00,0.0000,0.0000,0.0000,0.0000,0.0000,0.0000,0.0000,0.00,0.00,0.00,0.8900,0.1980,1.0570,1.2370,2.7010,0,0.0000,0.0000,0.0000,0.0000,0.0000,0
5240,-0.0003,-0.0052,0.0082,0.0072,-0.0292,-0.0007,1.27,-0.36,0.06,0,3.832,-1.271,-0.136,5.946,-0.013,-0.007,1.000,0.000,0.000,0.000,0.0100,14,3,0.00,0.00,0.00,0.0000,0.0000,0.0000,0.0000,0.0000,0.0000,0.0000,0.00,0.00,0.00,0.8900,0.1980,1.0570,1.2370,2.7010,0,0.0000,0.0000,0.0000,0.0000,0.0000,0
5290,-0.0019,-0.0114,0.0088,-0.0006,-0.0645,0.0011,1.49,-0.29,0.33,0,3.838,0.058,-3.247,-0.660,-0.008,0.012,0.985,0.000,0.000,0.000,0.0100,4,-1,0.00,0.00,0.00,0.0000,0.0000,0.0000,0.0000,0.0000,0.0000,0.0000,0.00,0.00,0.00,0.8860,0.2090,1.0600,1.2550,2.7080,0,0.0000,0.0000,0.0000,0.0000,0.0000,0
5341,-0.0019,-0.0191,0.0090,0.0016,-0.0980,0.0003,1.67,-0.29,0.31,0,3.838,-3.337,3.564,-0.822,-0.006,0.002,1.013,0.000,0.000,0.000,0.0070,15,0,0.00,0.00,0.00,0.0000,0.0000,0.0000,0.0000,0.0000,0.0000,0.0000,0.00,0.00,0.00,0.8860,0.2090,1.0600,1.2550,2.7080,0,0.0000,0.0000,0.0000,0.0000,0.0000,0
5393,-0.0002,-0.0299,0.0076,0.0124,-0.1397,-0.0045,1.71,-0.40,0.41,0,3.843,-0.853,1.733,11.646,-0.003,0.004,0.972,0.000,0.000,0.000,0.0120,-2,-2,0.00,0.00,0.00,0.0000,0.0000,0.0000,0.0000,0.0000,0.0000,0.0000,0.00,0.00,0.00,0.8910,0.2080,1.0590,1.2770,2.7060,0,0.0000,0.0000,0.0000,0.0000,0.0000,0
5444,0.0083,-0.0276,0.0107,0.0564,-0.1051,0.0144,1.16,-0.73,0.89,0,3.838,1.000,-0.956,5.068,-0.007,0.030,1.013,0.000,0.000,0.000,0.0110,28,0,0.00,0.00,0.00,0.0000,0.0000,0.0000,0.0000,0.0000,0.0000,0.0000,0.00,0.00,0.00,0.8910,0.2080,1.0590,1.2770,2.7060,0,0.0000,0.0000,0.0000,0.0000,0.0000,0
5495,0.0174,-0.0411,0.0098,0.0935,-0.1609,0.0030,1.64,-0.98,1.26,0,3.832,0.370,1.741,-2.691,-0.021,0.019,1.019,0.000,0.000,0.000,0.0110,11,4,0.00,0.00,0.00,0.0000,0.0000,0.0000,0.0000,0.0000,0.0000,0.0000,0.00,0.00,0.00,0.8800,0.2130,1.0610,1.2790,2.7010,0,0.0000,0.0000,0.0000,0.0000,0.0000,0
5545,0.0201,-0.0626,0.0078,0.0911,-0.2431,-0.0085,2.13,-0.76,1.23,0,3.827,-22.439,-3.623,0.220,-0.009,0.009,0.985,0.000,0.000,0.000,0.0070,4,-3,0.00,0.00,0.00,0.0000,0.0000,0.0000,0.0000,0.0000,0.0000,0.0000,0.00,0.00,0.00,0.8800,0.2130,1.0610,1.2790,2.7010,0,0.0000,0.0000,0.0000,0.0000,0.0000,0
5597,0.0198,-0.0843,0.0052,0.0746,-0.3060,-0.0126,0.93,-0.68,1.25,0,3.832,-31.118,-2.071,9.734,-0.007,-0.011,0.995,0.000,0.000,0.000,0.0100,0,4,0.00,0.00,0.00,0.0000,0.0000,0.0000,0.0000,0.0000,0.0000,0.0000,0.00,0.00,0.00,0.8800,0.2260,1.0600,1.3060,2.6980,0,0.0000,0.0000,0.0000,0.0000,0.0000,0
5648,0.0219,-0.0833,0.0113,0.0714,-0.2280,0.0289,-1.31,-0.51,1.69,0,3.827,-50.694,-6.438,12.517,-0.011,-0.020,0.995,0.000,0.000,0.000,0.0110,7,-5,0.00,0.00,0.00,0.0000,0.0000,0.0000,0.0000,0.0000,0.0000,0.0000,0.00,0.00,0.00,0.8800,0.2260,1.0600,1.3060,2.6980,0,0.0000,0.0000,0.0000,0.0000,0.0000,0
5699,0.0236,-0.0928,0.0128,0.0687,-0.2107,0.0367,-3.70,-0.67,2.30,0,3.827,-46.183,-4.362,15.201,-0.013,-0.042,0.977,0.000,0.000,0.000,0.0030,-4,-7,0.00,0.00,0.00,0.0000,0.0000,0.0000,0.0000,0.0000,0.0000,0.0000,0.00,0.00,0.00,0.8720,0.2350,1.0510,1.3600,2.7060,0,0.0000,0.0000,0.0000,0.0000,0.0000,0
5749,0.0335,-0.0891,0.0099,0.1058,-0.1107,0.0154,-6.71,-0.82,3.17,0,3.811,-13.871,-16.270,27.401,0.001,-0.056,0.971,0.000,0.000,0.000,0.0000,-16,-5,0.00,0.00,0.00,0.0000,0.0000,0.0000,0.0000,0.0000,0.0000,0.0000,0.00,0.00,0.00,0.8720,0.2350,1.0510,1.3600,2.7060,0,0.0000,0.0000,0.0000,0.0000,0.0000,0
5801,0.0417,-0.0725,0.0031,0.1240,0.0476,-0.0347,-8.61,-0.58,4.62,0,3.795,38.994,-38.448,33.385,0.004,-0.061,0.984,0.000,0.000,0.000,0.0000,-64,-21,0.00,0.00,0.00,0.0000,0.0000,0.0000,0.0000,0.0000,0.0000,0.0000,0.00,0.00,0.00,0.8660,0.2500,1.0010,1.4960,2.7190,0,0.0000,0.0000,0.0000,0.0000,0.0000,0
5852,0.0489,-0.0382,-0.0083,0.1286,0.2614,-0.0931,-8.09,1.07,6.47,0,3.764,88.092,-79.417,13.866,0.015,-0.017,0.990,0.000,0.000,0.000,0.0000,-48,-12,0.00,0.00,0.00,0.0000,0.0000,0.0000,0.0000,0.0000,0.0000,0.0000,0.00,0.00,0.00,0.8660,0.2500,1.0010,1.4960,2.7190,0,0.0000,0.0000,0.0000,0.0000,0.0000,0
5904,0.0579,0.0233,-0.0321,0.1275,0.5481,-0.2056,-4.99,4.46,7.92,0,3.758,120.609,-78.821,11.955,0.025,-0.029,1.045,0.000,0.000,0.000,0.0000,-47,0,0.00,0.00,0.00,0.0000,0.0000,0.0000,0.0000,0.0000,0.0000,0.0000,0.00,0.00,0.00,0.8700,0.0000,1.0600,0.0000,2.6960,0,0.0000,0.0000,0.0000,0.0000,0.0000,0
5955,0.0604,0.0596,-0.0275,0.0687,0.6200,-0.1261,-1.71,6.73,8.58,0,3.769,34.654,37.507,9.754,0.033,-0.006,1.088,0.000,0.000,0.000,0.0000,-56,51,0.00,0.00,0.00,0.0000,0.0000,0.0000,0.0000,0.0000,0.0000,0.0000,0.00,0.00,0.00,0.8700,0.0000,1.0600,0.0000,2.6960,0,0.0000,0.0000,0.0000,0.0000,0.0000,0
6006,0.0348,0.0975,-0.0247,-0.1281,0.6581,-0.0376,-0.20,6.13,8.32,0,3.758,139.874,23.350,-4.262,0.010,-0.017,1.076,0.000,0.000,0.000,0.0000,-26,27,0.00,0.00,0.00,0.0000,0.0000,0.0000,0.0000,0.0000,0.0000,0.0000,0.00,0.00,0.00,0.8850,0.1780,1.0610,0.0000,2.7060,0,0.0000,0.0000,0.0000,0.0000,0.0000,0
6058,-0.0100,0.1290,-0.0260,-0.3664,0.6480,0.0005,6.64,6.22,7.47,0,3.779,65.157,58.937,-1.595,0.012,-0.034,1.032,0.000,0.000,0.000,0.0000,6,54,0.00,0.00,0.00,0.0000,0.0000,0.0000,0.0000,0.0000,0.0000,0.0000,0.00,0.00,0.00,0.8850,0.1780,1.0610,0.0000,2.7060,0,0.0000,0.0000,0.0000,0.0000,0.0000,0
6109,-0.0470,0.1412,-0.0138,-0.4993,0.4777,0.0887,11.58,4.06,6.78,0,3.785,-69.067,100.848,-7.590,0.001,-0.020,0.954,0.000,0.000,0.000,0.0020,37,27,0.00,0.00,0.00,0.0000,0.0000,0.0000,0.0000,0.0000,0.0000,0.0000,0.00,0.00,0.00,0.8880,0.2410,1.0790,0.1150,2.7560,0,0.0000,0.0000,0.0000,0.0000,0.0000,0
6160,-0.0844,0.1111,-0.0076,-0.5848,0.1335,0.0919,10.49,-0.60,6.37,0,3.774,-109.103,98.548,-18.974,0.005,0.004,0.985,0.000,0.000,0.000,0.0070,71,46,0.00,0.00,0.00,0.0000,0.0000,0.0000,0.0000,0.0000,0.0000,0.0000,0.00,0.00,0.00,0.8880,0.2410,1.0790,0.1150,2.7560,0,0.0000,0.0000,0.0000,0.0000,0.0000,0
6211,-0.1032,0.0653,-0.0038,-0.5320,-0.1802,0.0858,6.69,-5.97,5.56,0,3.769,-81.727,80.247,-21.616,0.013,-0.008,1.002,0.000,0.000,0.000,0.0130,11,5,0.00,0.00,0.00,0.0000,0.0000,0.0000,0.0000,0.0000,0.0000,0.0000,0.00,0.00,0.00,0.8650,0.0000,1.0870,0.0000,2.7230,0,0.0000,0.0000,0.0000,0.0000,0.0000,0
6263,-0.1138,0.0234,0.0021,-0.4108,-0.3690,0.0998,2.84,-10.51,4.41,0,3.774,-89.167,-4.150,-18.288,0.013,-0.002,1.019,0.000,0.000,0.000,0.0190,-4,-5,0.00,0.00,0.00,0.0000,0.0000,0.0000,0.0000,0.0000,0.0000,0.0000,0.00,0.00,0.00,0.8650,0.0000,1.0870,0.0000,2.7230,0,0.0000,0.0000,0.0000,0.0000,0.0000,0
6314,-0.1190,0.0228,0.0204,-0.2471,-0.3004,0.1613,-2.63,-11.10,2.56,0,3.774,-47.216,-49.009,-10.940,0.002,-0.004,1.006,0.000,0.000,0.000,0.0210,10,-6,0.00,0.00,0.00,0.0000,0.0000,0.0000,0.0000,0.0000,0.0000,0.0000,0.00,0.00,0.00,0.2270,0.2780,1.1070,1.4080,2.7490,0,0.0000,0.0000,0.0000,0.0000,0.0000,0
6365,-0.1271,0.0254,0.0298,-0.1460,-0.2009,0.1643,-5.45,-8.74,1.85,0,3.769,1.707,-34.587,-9.860,0.003,-0.009,0.984,0.000,0.000,0.000,0.0240,17,-20,0.00,0.00,0.00,0.0000,0.0000,0.0000,0.0000,0.0000,0.0000,0.0000,0.00,0.00,0.00,0.2270,0.2780,1.1070,1.4080,2.7490,0,0.0000,0.0000,0.0000,0.0000,0.0000,0
6416,-0.1092,0.0092,0.0318,0.0365,-0.1904,0.1331,-4.84,-8.15,1.96,0,3.753,4.331,-54.399,-8.976,0.004,-0.017,0.985,0.000,0.000,0.000,0.0260,30,-60,0.00,0.00,0.00,0.0000,0.0000,0.0000,0.0000,0.0000,0.0000,0.0000,0.00,0.00,0.00,0.8360,0.2910,1.1190,1.5080,2.7150,0,0.0000,0.0000,0.0000,0.0000,0.0000,0
6468,-0.0849,-0.0082,0.0305,0.1937,-0.1860,0.0890,-4.35,-6.26,2.01,0,3.743,-20.548,-87.047,-10.771,-0.001,-0.017,1.036,0.000,0.000,0.000,0.0270,9,-15,0.00,0.00,0.00,0.0000,0.0000,0.0000,0.0000,0.0000,0.0000,0.0000,0.00,0.00,0.00,0.8360,0.2910,1.1190,1.5080,2.7150,0,0.0000,0.0000,0.0000,0.0000,0.0000,0
6519,-0.0598,-0.0227,0.0298,0.2996,-0.1687,0.0738,-5.26,-1.36,1.72,0,3.743,-19.371,-100.724,-8.368,-0.006,-0.008,1.051,0.000,0.000,0.000,0.0280,4,-6,0.00,0.00,0.00,0.0000,0.0000,0.0000,0.0000,0.0000,0.0000,0.0000,0.00,0.00,0.00,0.8550,0.2590,1.1290,1.5690,2.6830,0,0.0000,0.0000,0.0000,0.0000,0.0000,0
6571,-0.0586,-0.0262,0.0355,0.2421,-0.1080,0.1008,-6.33,4.33,1.41,0,3.743,15.221,-31.940,-9.627,-0.016,-0.004,1.067,0.000,0.000,0.000,0.0320,-2,-21,0.00,0.00,0.00,0.0000,0.0000,0.0000,0.0000,0.0000,0.0000,0.0000,0.00,0.00,0.00,0.8550,0.2590,1.1290,1.5690,2.6830,0,0.0000,0.0000,0.0000,0.0000,0.0000,0
6623,-0.0679,-0.0249,0.0391,0.1107,-0.0333,0.1120,-5.82,6.49,0.93,0,3.737,46.885,33.108,-9.445,-0.003,-0.020,1.069,0.000,0.000,0.000,0.0350,-6,-11,0.00,0.00,0.00,0.0000,0.0000,0.0000,0.0000,0.0000,0.0000,0.0000,0.00,0.00,0.00,0.8590,0.1950,1.1180,0.0000,2.6860,0,0.0000,0.0000,0.0000,0.0000,0.0000,0
6674,-0.0581,-0.0217,0.0428,0.0862,0.0360,0.1248,-3.56,4.57,0.56,0,3.732,33.698,21.936,-12.016,0.004,-0.021,1.078,0.000,0.000,0.000,0.0420,-16,-4,0.00,0.00,0.00,0.0000,0.0000,0.0000,0.0000,0.0000,0.0000,0.0000,0.00,0.00,0.00,0.8590,0.1950,1.1180,0.0000,2.6860,0,0.0000,0.0000,0.0000,0.0000,0.0000,0
6725,-0.0454,-0.0143,0.0471,0.0907,0.0938,0.1427,-2.09,3.09,0.12,0,3.737,19.970,-16.134,-9.069,0.001,-0.023,1.071,0.000,0.000,0.000,0.0480,-3,-5,0.00,0.00,0.00,0.0000,0.0000,0.0000,0.0000,0.0000,0.0000,0.0000,0.00,0.00,0.00,0.8340,0.2110,1.1230,1.4590,2.6570,0,0.0000,0.0000,0.0000,0.0000,0.0000,0
6776,-0.0464,-0.0116,0.0548,0.0386,0.0967,0.1788,-0.66,3.86,-0.45,0,3.737,14.142,24.298,-0.809,-0.005,-0.016,1.039,0.000,0.000,0.000,0.0530,-6,0,0.00,0.00,0.00,0.0000,0.0000,0.0000,0.0000,0.0000,0.0000,0.0000,0.00,0.00,0.00,0.8340,0.2110,1.1230,1.4590,2.6570,0,0.0000,0.0000,0.0000,0.0000,0.0000,0
6828,-0.0442,-0.0078,0.0610,0.0121,0.0996,0.1868,0.07,2.67,-0.47,0,3.743,17.080,27.416,-4.112,-0.002,-0.020,1.054,0.000,0.000,0.000,0.0600,-14,-2,0.00,0.00,0.00,0.0000,0.0000,0.0000,0.0000,0.0000,0.0000,0.0000,0.00,0.00,0.00,0.8130,0.1970,1.1160,1.4370,2.6370,0,0.0000,0.0000,0.0000,0.0000,0.0000,0
6879,-0.0376,-0.0021,0.0685,0.0199,0.1046,0.1977,0.89,1.35,-0.56,0,3.732,17.053,-23.573,-1.068,0.006,-0.016,1.037,0.000,0.000,0.000,0.0740,-14,9,0.00,0.00,0.00,0.0000,0.0000,0.0000,0.0000,0.0000,0.0000,0.0000,0.00,0.00,0.00,0.8130,0.1970,1.1160,1.4370,2.6370,0,0.0000,0.0000,0.0000,0.0000,0.0000,0
6930,-0.0331,0.0037,0.0786,0.0245,0.0995,0.2133,1.74,2.41,-0.59,0,3.748,9.967,8.535,1.087,-0.003,-0.014,1.021,0.000,0.000,0.000,0.0870,-9,0,0.00,0.00,0.00,0.0000,0.0000,0.0000,0.0000,0.0000,0.0000,0.0000,0.00,0.00,0.00,0.7960,0.1910,1.1070,1.4500,2.6210,0,0.0000,0.0000,0.0000,0.0000,0.0000,0
6982,-0.0371,0.0102,0.0915,-0.0163,0.0910,0.2328,2.22,2.05,-0.53,0,3.737,4.216,36.694,-0.818,-0.003,-0.024,1.009,0.000,0.000,0.000,0.0960,-5,-1,0.00,0.00,0.00,0.0000,0.0000,0.0000,0.0000,0.0000,0.0000,0.0000,0.00,0.00,0.00,0.7960,0.1910,1.1070,1.4500,2.6210,0,0.0000,0.0000,0.0000,0.0000,0.0000,0
7033,-0.0354,0.0142,0.1022,-0.0194,0.0713,0.2325,2.48,0.21,-0.52,0,3.748,-0.327,4.114,-1.485,0.008,-0.017,1.001,0.000,0.000,0.000,0.1140,0,0,0.00,0.00,0.00,0.0000,0.0000,0.0000,0.0000,0.0000,0.3000,0.2772,4.13,-3.23,15.59,0.7900,0.1900,1.0930,1.4700,2.6030,0,0.0000,0.0000,0.0000,0.0000,0.0000,0
7084,-0.0319,0.0170,0.1171,-0.0000,0.0481,0.2485,2.51,-0.17,-0.60,0,3.743,-7.179,-5.495,-1.794,0.004,-0.021,0.989,0.000,0.000,0.000,0.1150,1,-2,2.48,-0.21,-0.52,-0.0354,0.0142,0.1140,0.0000,0.0000,0.3000,0.2726,3.34,-2.17,18.08,0.7900,0.1900,1.0930,1.4700,2.6030,0,0.0000,0.0000,0.0000,0.0000,0.0000,0
7135,-0.0342,0.0219,0.1249,-0.0115,0.0418,0.2220,2.15,0.12,-0.62,0,3.748,-4.536,9.050,0.500,0.002,-0.016,0.992,0.000,0.000,0.000,0.1330,3,3,2.11,0.06,-0.62,-0.0352,0.0125,0.1144,0.0000,0.0000,0.3000,0.2740,3.37,-2.84,18.66,0.7800,0.0000,1.0920,1.4980,2.5800,0,0.0000,0.0000,0.0000,0.0000,0.0000,0
7187,-0.0302,0.0209,0.1376,0.0098,0.0115,0.2250,2.07,-0.36,-0.67,0,3.743,-4.369,3.587,-0.226,0.005,-0.016,0.990,0.000,0.000,0.000,0.1390,0,3,1.98,0.00,-0.58,-0.0465,0.0066,0.1265,0.0000,0.0000,0.3000,0.2713,1.95,-1.62,20.06,0.7800,0.0000,1.0920,1.4980,2.5800,0,0.0000,0.0000,0.0000,0.0000,0.0000,0
7238,-0.0294,0.0202,0.1462,0.0137,-0.0098,0.2075,1.85,-0.58,-0.67,0,3.743,-16.398,-5.996,1.408,0.004,-0.010,0.987,0.000,0.000,0.000,0.1510,1,-3,-0.33,-0.03,-0.58,-0.0506,0.0072,0.1397,0.0000,0.0000,0.3000,0.2716,0.93,-1.39,20.24,0.7860,0.1960,1.0930,1.5450,2.5540,0,0.0000,0.0000,0.0000,0.0000,0.0000,0
7289,-0.0294,0.0177,0.1567,0.0144,-0.0321,0.2014,1.17,-0.28,-0.62,0,3.737,-12.479,-3.597,2.780,0.001,-0.011,0.988,0.000,0.000,0.000,0.1550,25,1,-1.52,-3.18,-0.56,-0.0491,0.0049,0.1535,0.0000,0.0000,0.3000,0.2703,-0.26,-1.37,18.58,0.7860,0.1960,1.0930,1.5450,2.5540,0,0.0000,0.0000,0.0000,0.0000,0.0000,0
7340,-0.0288,0.0166,0.1630,0.0153,-0.0392,0.1774,0.76,0.03,-0.51,0,3.743,-10.576,1.870,2.579,0.010,-0.018,0.990,0.000,0.000,0.000,0.1690,-1,0,11.40,-1.63,0.13,-0.0488,-0.0189,0.1627,0.0000,0.0000,0.3000,0.2717,-0.65,-1.27,15.43,0.8020,0.2020,1.0970,1.6340,2.5350,0,0.0000,0.0000,0.0000,0.0000,0.0000,0
7392,-0.0278,0.0100,0.1730,0.0171,-0.0612,0.1768,0.22,-0.07,-0.39,0,3.732,-10.318,0.293,1.858,0.003,-0.008,0.991,0.000,0.000,0.000,0.1770,6,-3,4.13,-1.54,-0.06,-0.0480,-0.0389,0.2154,0.0000,0.0000,0.3000,0.2699,-2.12,-1.13,11.75,0.8020,0.2020,1.0970,1.6340,2.5350,0,0.0000,0.0000,0.0000,0.0000,0.0000,0
7443,-0.0274,0.0064,0.1811,0.0159,-0.0652,0.1694,-0.18,-0.15,-0.33,0,3.743,-6.550,-1.740,0.801,0.006,-0.006,0.997,0.000,0.000,0.000,0.1910,5,0,1.72,-2.38,-0.19,-0.0439,-0.0497,0.2146,0.0000,0.0000,0.3000,0.2691,-2.55,-1.16,9.85,0.8280,0.1980,1.0980,1.7120,2.5180,0,0.0000,0.0000,0.0000,0.0000,0.0000,0
7494,-0.0253,-0.0014,0.1925,0.0218,-0.0813,0.1801,-0.42,-0.07,-0.28,0,3.737,-3.031,-3.458,1.122,0.001,-0.013,0.990,0.000,0.000,0.000,0.1960,1,0,0.35,-1.55,-0.15,-0.0426,-0.0589,0.2170,0.0000,0.0000,0.3000,0.2658,-3.88,-0.75,8.43,0.8280,0.1980,1.0980,1.7120,2.5180,0,0.0000,0.0000,0.0000,0.0000,0.0000,0
7545,-0.0235,-0.0026,0.2005,0.0245,-0.0670,0.1724,-0.70,0.11,-0.24,0,3.737,-3.469,-3.764,-0.465,0.007,-0.014,0.989,0.000,0.000,0.000,0.1990,9,0,-1.41,-0.88,-0.18,-0.0423,-0.0607,0.2180,0.0000,0.0000,0.3000,0.2652,-3.30,-0.51,7.11,0.8560,0.1980,1.1010,1.7380,2.5030,0,0.0000,0.0000,0.0000,0.0000,0.0000,0
7596,-0.0203,0.0017,0.2067,0.0301,-0.0340,0.1554,-0.95,0.20,-0.25,0,3.737,2.060,0.346,-0.299,0.007,-0.015,0.993,0.000,0.000,0.000,0.2230,-1,0,-0.48,-0.39,-0.21,-0.0422,-0.0764,0.2209,0.0000,0.0000,0.3000,0.2658,-1.46,-0.02,7.39,0.8560,0.1980,1.1010,1.7380,2.5030,0,0.0000,0.0000,0.0000,0.0000,0.0000,0
7648,-0.0185,-0.0013,0.2199,0.0296,-0.0298,0.1773,-0.94,0.23,-0.29,0,3.743,8.832,-1.448,-1.337,0.007,-0.017,0.986,0.000,0.000,0.000,0.2160,0,-1,-1.59,-0.23,-0.23,-0.0417,-0.0768,0.2293,0.0000,0.0000,0.3000,0.2610,-1.50,0.08,8.72,0.9110,0.2110,1.0970,1.7470,2.4830,0,0.0000,0.0000,0.0000,0.0000,0.0000,0
7699,-0.0183,0.0001,0.2253,0.0237,-0.0144,0.1568,-0.57,0.25,-0.35,0,3.732,6.785,-1.268,-0.846,0.009,-0.017,0.985,0.000,0.000,0.000,0.2240,-1,-1,-1.76,-0.20,-0.24,-0.0398,-0.0759,0.2311,0.0000,0.0000,0.3000,0.2622,-0.67,-0.18,10.58,0.9110,0.2110,1.0970,1.7470,2.4830,0,0.0000,0.0000,0.0000,0.0000,0.0000,0
7751,-0.0145,-0.0016,0.2301,0.0299,-0.0139,0.1362,-0.23,0.26,-0.43,0,3.737,2.621,0.675,-0.409,0.005,-0.016,0.987,0.000,0.000,0.000,0.2310,-1,-1,-1.87,-0.14,-0.22,-0.0375,-0.0734,0.2340,0.0000,0.0000,0.3000,0.2635,-0.76,0.38,12.80,0.0000,0.2130,1.0940,1.7490,2.4760,0,0.0000,0.0000,0.0000,0.0000,0.0000,0
7803,-0.0130,-0.0007,0.2359,0.0279,-0.0078,0.1256,-0.06,0.31,-0.51,0,3.727,3.946,-1.986,-1.503,0.005,-0.013,0.990,0.000,0.000,0.000,0.2390,-4,0,-1.98,-0.18,-0.20,-0.0352,-0.0709,0.2378,0.0000,0.0000,0.3000,0.2635,-0.41,0.39,15.20,0.0000,0.2130,1.0940,1.7490,2.4760,0,0.0000,0.0000,0.0000,0.0000,0.0000,0
7855,-0.0117,-0.0008,0.2419,0.0249,-0.0067,0.1201,0.08,0.39,-0.60,0,3.737,3.131,1.172,-1.531,0.003,-0.012,0.993,0.000,0.000,0.000,0.2450,-3,-1,-2.28,0.07,-0.26,-0.0350,-0.0614,0.2419,0.0000,0.0000,0.3000,0.2630,-0.36,0.34,18.13,0.0000,0.0000,1.0840,1.7500,2.4610,0,0.0000,0.0000,0.0000,0.0000,0.0000,0
7906,-0.0125,0.0044,0.2481,0.0158,0.0084,0.1186,0.17,0.39,-0.67,0,3.727,2.697,2.388,-1.615,0.005,-0.020,0.992,0.000,0.000,0.000,0.2500,0,0,-2.29,-0.02,-0.28,-0.0324,-0.0542,0.2467,0.0000,0.0000,0.3000,0.2620,0.71,-0.14,20.18,0.0000,0.0000,1.0840,1.7500,2.4610,0,0.0000,0.0000,0.0000,0.0000,0.0000,0
7957,-0.0129,0.0060,0.2532,0.0096,0.0097,0.1110,0.39,0.28,-0.74,0,3.737,1.565,0.564,-1.818,0.007,-0.019,0.993,0.000,0.000,0.000,0.2600,-2,0,-2.15,-0.14,-0.37,-0.0302,-0.0489,0.2520,0.0000,0.0000,0.3000,0.2619,0.89,-0.46,22.34,0.0000,0.0000,1.0810,1.7400,2.4490,0,0.0000,0.0000,0.0000,0.0000,0.0000,0
8008,-0.0135,0.0073,0.2608,0.0046,0.0087,0.1178,0.52,0.22,-0.81,0,3.727,2.435,1.188,-1.902,0.006,-0.016,0.993,0.000,0.000,0.000,0.2620,0,0,-1.77,0.07,-0.74,-0.0341,-0.0505,0.2596,0.0000,0.0000,0.3000,0.2597,0.94,-0.75,24.43,0.0000,0.0000,1.0810,1.7400,2.4490,0,0.0000,0.0000,0.0000,0.0000,0.0000,0
8059,-0.0148,0.0104,0.2655,-0.0011,0.0116,0.1098,0.62,0.19,-0.89,0,3.737,4.071,2.029,-0.244,0.007,-0.013,0.996,0.000,0.000,0.000,0.2690,-1,0,-1.65,0.01,-0.84,-0.0330,-0.0462,0.2648,0.0000,0.0000,0.3000,0.2597,1.30,-1.11,26.66,0.0000,0.2290,1.0750,1.7530,2.4350,0,0.0000,0.0000,0.0000,0.0000,0.0000,0
8110,-0.0170,0.0105,0.2715,-0.0081,0.0053,0.1093,0.70,0.11,-0.94,0,3.727,-0.630,3.318,-0.495,0.004,-0.016,0.988,0.000,0.000,0.000,0.2730,-2,1,-1.21,-0.01,-1.01,-0.0344,-0.0481,0.2710,0.0000,0.0000,0.3000,0.2586,1.01,-1.62,28.30,0.0000,0.2290,1.0750,1.7530,2.4350,0,0.0000,0.0000,0.0000,0.0000,0.0000,0
8161,-0.0180,0.0114,0.2760,-0.0104,0.0011,0.1012,0.70,-0.02,-0.99,0,3.732,1.865,2.025,-0.452,0.008,-0.017,0.993,0.000,0.000,0.000,0.2790,0,2,-1.29,-0.11,-1.08,-0.0358,-0.0435,0.2760,0.0000,0.0000,0.3000,0.2586,0.88,-1.80,29.72,0.0000,0.0000,1.0720,1.7470,2.4250,0,0.0000,0.0000,0.0000,0.0000,0.0000,0
8212,-0.0218,0.0132,0.2814,-0.0181,-0.0005,0.0983,0.71,-0.13,-1.03,0,3.721,-2.607,2.931,-1.487,0.007,-0.013,0.990,0.000,0.000,0.000,0.2820,4,2,-1.12,-0.08,-1.24,-0.0395,-0.0421,0.2813,0.0000,0.0000,0.3000,0.2579,0.93,-2.45,30.93,0.0000,0.0000,1.0720,1.7470,2.4250,0,0.0000,0.0000,0.0000,0.0000,0.0000,0
8264,-0.0247,0.0136,0.2856,-0.0212,-0.0052,0.0898,0.64,-0.27,-1.07,0,3.732,-3.520,5.999,-1.637,0.006,-0.015,0.996,0.000,0.000,0.000,0.2850,-2,2,-0.93,-0.11,-1.52,-0.0442,-0.0492,0.2861,0.0000,0.0000,0.3000,0.2580,0.73,-2.80,32.18,0.0000,0.2500,1.0680,1.7570,2.4160,0,0.0000,0.0000,0.0000,0.0000,0.0000,0
8315,-0.0285,0.0119,0.2889,-0.0254,-0.0132,0.0810,0.45,-0.49,-1.12,0,3.721,-0.762,2.360,-1.542,0.006,-0.016,0.996,0.000,0.000,0.000,0.2890,0,0,-1.24,-0.32,-1.63,-0.0489,-0.0444,0.2900,0.0000,0.0000,0.3000,0.2584,0.23,-3.27,33.67,0.0000,0.2500,1.0680,1.7570,2.4160,0,0.0000,0.0000,0.0000,0.0000,0.0000,0
8367,-0.0322,0.0147,0.2922,-0.0268,-0.0090,0.0761,0.37,-0.63,-1.19,0,3.727,-1.295,2.624,-1.017,0.005,-0.015,0.998,0.000,0.000,0.000,0.2950,-2,3,-1.28,-0.44,-1.72,-0.0508,-0.0428,0.2938,0.0000,0.0000,0.3000,0.2583,0.63,-3.60,35.63,0.0000,0.2500,1.0720,1.7590,2.4060,0,0.0000,0.0000,0.0000,0.0000,0.0000,0
8418,-0.0359,0.0137,0.2966,-0.0270,-0.0132,0.0780,0.34,-0.71,-1.25,0,3.716,-1.424,-0.965,-2.241,0.008,-0.013,0.995,0.000,0.000,0.000,0.2990,1,0,-1.41,-0.42,-1.86,-0.0591,-0.0378,0.2980,0.0000,0.0000,0.3000,0.2573,0.36,-3.89,37.58,0.0000,0.2500,1.0720,1.7590,2.4060,0,0.0000,0.0000,0.0000,0.0000,0.0000,0
8469,-0.0396,0.0150,0.3009,-0.0266,-0.0113,0.0789,0.22,-0.70,-1.32,0,3.727,-1.660,1.762,-2.096,0.009,-0.011,0.997,0.000,0.000,0.000,0.3020,0,1,-1.40,-0.41,-1.96,-0.0600,-0.0386,0.3024,0.0000,0.0000,0.3000,0.2563,0.54,-4.16,39.74,0.0000,0.0000,1.0700,1.7560,2.4070,0,0.0000,0.0000,0.0000,0.0000,0.0000,0
8521,-0.0417,0.0139,0.3046,-0.0225,-0.0143,0.0762,0.16,-0.77,-1.42,0,3.721,1.179,0.175,-1.961,0.006,-0.017,0.998,0.000,0.000,0.000,0.3100,0,0,-1.45,-0.48,-2.09,-0.0627,-0.0378,0.3063,0.0000,0.0000,0.3000,0.2559,0.32,-4.12,42.47,0.0000,0.0000,1.0700,1.7560,2.4070,0,0.0000,0.0000,0.0000,0.0000,0.0000,0
8571,-0.0443,0.0124,0.3102,-0.0194,-0.0177,0.0841,0.20,-0.81,-1.50,0,3.727,-1.611,-2.644,-1.942,0.006,-0.013,0.995,0.000,0.000,0.000,0.3100,0,0,-1.39,-0.49,-2.19,-0.0643,-0.0356,0.3112,0.0000,0.0000,0.3000,0.2540,0.05,-4.19,44.90,0.0000,0.0000,1.0680,1.7560,2.4020,0,0.0000,0.0000,0.0000,0.0000,0.0000,0
8622,-0.0479,0.0124,0.3135,-0.0187,-0.0175,0.0771,0.09,-0.73,-1.60,0,3.716,-1.838,-2.970,-2.494,0.003,-0.016,0.989,0.000,0.000,0.000,0.3120,0,1,-1.47,-0.35,-2.29,-0.0656,-0.0332,0.3147,0.0000,0.0000,0.3000,0.2542,0.05,-4.41,48.06,0.0000,0.0000,1.0680,1.7560,2.4020,0,0.0000,0.0000,0.0000,0.0000,0.0000,0
8674,-0.0477,0.0124,0.3158,-0.0109,-0.0160,0.0668,-0.08,-0.61,-1.70,0,3.727,1.035,-0.303,-1.641,0.004,-0.012,0.991,0.000,0.000,0.000,0.3210,0,1,-1.41,-0.20,-2.43,-0.0667,-0.0397,0.3176,0.0000,0.0000,0.3000,0.2548,0.13,-4.01,51.12,2.4410,0.2580,1.0720,1.7580,2.3900,0,0.0000,0.0000,0.0000,0.0000,0.0000,0
8725,-0.0514,0.0092,0.3209,-0.0125,-0.0208,0.0714,-0.04,-0.56,-1.78,0,3.721,0.962,-1.644,-1.291,0.008,-0.013,0.993,0.000,0.000,0.000,0.3210,0,1,-1.35,-0.16,-2.53,-0.0686,-0.0389,0.3219,0.0000,0.0000,0.3000,0.2534,-0.34,-4.38,53.49,2.4410,0.2580,1.0720,1.7580,2.3900,0,0.0000,0.0000,0.0000,0.0000,0.0000,0
8776,-0.0539,0.0094,0.3237,-0.0121,-0.0181,0.0645,-0.05,-0.52,-1.85,0,3.727,-0.933,-1.498,-0.621,0.001,-0.019,0.990,0.000,0.000,0.000,0.3230,4,2,-1.29,-0.05,-2.62,-0.0707,-0.0382,0.3248,0.0000,0.0000,0.3000,0.2536,-0.19,-4.54,55.46,0.0000,0.2680,1.0720,1.7630,2.3790,0,0.0000,0.0000,0.0000,0.0000,0.0000,0
8827,-0.0555,0.0092,0.3259,-0.0103,-0.0162,0.0547,-0.12,-0.42,-1.87,0,3.711,-0.218,0.933,0.919,0.004,-0.009,0.994,0.000,0.000,0.000,0.3270,0,0,-1.18,0.08,-2.73,-0.0754,-0.0452,0.3272,0.0000,0.0000,0.3000,0.2542,-0.11,-4.56,56.18,0.0000,0.2680,1.0720,1.7630,2.3790,0,0.0000,0.0000,0.0000,0.0000,0.0000,0
8877,-0.0549,0.0058,0.3285,-0.0049,-0.0205,0.0511,-0.11,-0.39,-1.85,0,3.721,-1.161,0.351,2.057,0.007,-0.016,0.995,0.000,0.000,0.000,0.3300,0,0,-1.19,0.04,-2.69,-0.0771,-0.0456,0.3298,0.0000,0.0000,0.3000,0.2541,-0.57,-4.26,55.38,2.5640,0.0000,1.0740,1.7540,2.3720,0,0.0000,0.0000,0.0000,0.0000,0.0000,0
8928,-0.0558,0.0044,0.3312,-0.0029,-0.0205,0.0484,-0.13,-0.43,-1.76,0,3.716,-1.454,-3.277,0.928,0.005,-0.014,0.994,0.000,0.000,0.000,0.3350,0,0,-1.25,0.02,-2.59,-0.0788,-0.0460,0.3324,0.0000,0.0000,0.3000,0.2539,-0.68,-4.23,52.79,2.5640,0.0000,1.0740,1.7540,2.3720,0,0.0000,0.0000,0.0000,0.0000,0.0000,0
8980,-0.0576,0.0026,0.3349,-0.0027,-0.0210,0.0523,-0.17,-0.29,-1.68,0,3.727,-1.003,-2.538,1.158,0.002,-0.012,0.993,0.000,0.000,0.000,0.3370,-1,0,-1.33,0.18,-2.53,-0.0803,-0.0461,0.3357,0.0000,0.0000,0.3000,0.2528,-0.83,-4.37,50.42,0.0000,0.2680,1.0780,1.7580,2.3610,0,0.0000,0.0000,0.0000,0.0000,0.0000,0
9030,-0.0590,0.0010,0.3379,-0.0032,-0.0206,0.0506,-0.23,-0.15,-1.59,0,3.716,2.877,2.952,1.597,0.007,-0.014,0.991,0.000,0.000,0.000,0.3340,0,0,-1.43,0.23,-2.40,-0.0750,-0.0427,0.3385,0.0000,0.0000,0.3000,0.2524,-0.93,-4.51,47.83,0.0000,0.2680,1.0780,1.7580,2.3610,0,0.0000,0.0000,0.0000,0.0000,0.0000,0
9081,-0.0591,-0.0015,0.3380,-0.0017,-0.0219,0.0356,-0.12,-0.21,-1.50,0,3.721,-1.127,2.315,1.766,0.002,-0.014,0.995,0.000,0.000,0.000,0.3380,0,0,-1.28,0.08,-2.32,-0.0752,-0.0417,0.3393,0.0000,0.0000,0.3000,0.2540,-1.17,-4.41,45.04,2.5970,0.0000,1.0720,1.7570,2.3650,0,0.0000,0.0000,0.0000,0.0000,0.0000,0
9132,-0.0602,-0.0005,0.3394,-0.0019,-0.0169,0.0311,-0.15,-0.21,-1.41,0,3.711,-3.762,-3.266,2.262,0.002,-0.013,0.998,0.000,0.000,0.000,0.3380,0,0,-1.34,-0.04,-2.23,-0.0753,-0.0405,0.3408,0.0000,0.0000,0.3000,0.2542,-0.85,-4.50,42.25,2.5970,0.0000,1.0720,1.7570,2.3650,0,0.0000,0.0000,0.0000,0.0000,0.0000,0
9183,-0.0667,-0.0042,0.3397,-0.0130,-0.0217,0.0249,-0.28,-0.03,-1.29,0,3.721,0.837,-1.498,1.779,0.004,-0.014,1.000,0.000,0.000,0.000,0.3420,0,0,-1.53,0.12,-2.11,-0.0753,-0.0390,0.3417,0.0000,0.0000,0.3000,0.2548,-1.35,-5.49,38.73,0.0000,0.0000,1.0790,1.7590,2.3630,0,0.0000,0.0000,0.0000,0.0000,0.0000,0
9234,-0.0673,-0.0059,0.3416,-0.0125,-0.0209,0.0284,-0.27,-0.03,-1.20,0,3.711,-0.190,2.418,1.251,0.006,-0.016,0.999,0.000,0.000,0.000,0.3420,1,0,-1.49,0.19,-2.02,-0.0752,-0.0372,0.3434,0.0000,0.0000,0.3000,0.2541,-1.44,-5.53,35.99,0.0000,0.0000,1.0790,1.7590,2.3630,0,0.0000,0.0000,0.0000,0.0000,0.0000,0
9286,-0.0672,-0.0061,0.3428,-0.0107,-0.0166,0.0269,-0.29,-0.15,-1.15,0,3.721,0.167,2.698,0.994,0.005,-0.013,0.998,0.000,0.000,0.000,0.3480,1,0,-1.36,0.07,-2.04,-0.0758,-0.0459,0.3449,0.0000,0.0000,0.3000,0.2540,-1.25,-5.44,34.47,2.6310,0.0000,1.0760,1.7600,2.3580,0,0.0000,0.0000,0.0000,0.0000,0.0000,0
9336,-0.0688,-0.0090,0.3466,-0.0103,-0.0175,0.0362,-0.25,-0.33,-1.09,0,3.716,-0.414,-1.086,1.055,0.006,-0.016,0.995,0.000,0.000,0.000,0.3450,0,0,-1.34,-0.07,-2.00,-0.0757,-0.0465,0.3474,0.0000,0.0000,0.3000,0.2523,-1.51,-5.57,32.62,2.6310,0.0000,1.0760,1.7600,2.3580,0,0.0000,0.0000,0.0000,0.0000,0.0000,0
9388,-0.0702,-0.0089,0.3470,-0.0102,-0.0141,0.0308,-0.27,-0.30,-1.03,0,3.721,0.210,0.397,0.576,0.004,-0.012,0.996,0.000,0.000,0.000,0.3450,1,0,-1.36,-0.02,-1.95,-0.0754,-0.0466,0.3483,0.0000,0.0000,0.3000,0.2528,-1.34,-5.66,30.77,2.6120,0.0000,1.0790,1.7590,2.3520,0,0.0000,0.0000,0.0000,0.0000,0.0000,0
9439,-0.0705,-0.0093,0.3473,-0.0066,-0.0110,0.0217,-0.20,-0.29,-1.00,0,3.711,-0.139,2.945,0.080,0.004,-0.017,0.995,0.000,0.000,0.000,0.3460,0,0,-1.31,-0.03,-1.94,-0.0756,-0.0486,0.3486,0.0000,0.0000,0.3000,0.2537,-1.22,-5.49,29.89,2.6120,0.0000,1.0790,1.7590,2.3520,0,0.0000,0.0000,0.0000,0.0000,0.0000,0
9489,-0.0708,-0.0097,0.3474,-0.0046,-0.0098,0.0162,-0.16,-0.32,-0.98,0,3.716,-0.166,-1.883,-0.488,0.007,-0.014,1.000,0.000,0.000,0.000,0.3450,0,0,-1.31,-0.18,-1.94,-0.0752,-0.0488,0.3489,0.0000,0.0000,0.3000,0.2543,-1.18,-5.40,29.53,2.6090,0.0000,1.0760,1.7570,2.3550,0,0.0000,0.0000,0.0000,0.0000,0.0000,0
9540,-0.0714,-0.0115,0.3468,-0.0025,-0.0105,0.0084,-0.19,-0.24,-0.97,0,3.706,3.052,-0.250,0.906,0.006,-0.015,1.002,0.000,0.000,0.000,0.3480,0,0,-1.32,-0.09,-1.97,-0.0746,-0.0489,0.3487,0.0000,0.0000,0.3000,0.2552,-1.34,-5.33,29.13,2.6090,0.0000,1.0760,1.7570,2.3550,0,0.0000,0.0000,0.0000,0.0000,0.0000,0
9591,-0.0718,-0.0108,0.3477,-0.0011,-0.0069,0.0111,-0.08,-0.18,-0.94,0,3.716,0.267,-0.852,1.433,0.002,-0.016,1.002,0.000,0.000,0.000,0.3470,0,0,-1.17,-0.08,-1.92,-0.0738,-0.0487,0.3494,0.0000,0.0000,0.3000,0.2548,-1.12,-5.30,28.21,2.6300,0.2820,1.0850,1.7580,2.3580,0,0.0000,0.0000,0.0000,0.0000,0.0000,0
9642,-0.0719,-0.0096,0.3478,0.0003,-0.0035,0.0091,-0.09,-0.16,-0.87,0,3.706,-1.549,-3.155,1.664,0.000,-0.015,1.003,0.000,0.000,0.000,0.3520,1,0,-1.15,-0.03,-1.85,-0.0729,-0.0484,0.3496,0.0000,0.0000,0.3000,0.2550,-0.86,-5.24,26.00,2.6300,0.2820,1.0850,1.7580,2.3580,0,0.0000,0.0000,0.0000,0.0000,0.0000,0
9693,-0.0725,-0.0049,0.3501,0.0005,0.0055,0.0195,-0.06,-0.03,-0.79,0,3.716,0.371,-1.376,2.845,0.000,-0.014,1.000,0.000,0.000,0.000,0.3490,0,0,-1.18,0.17,-1.80,-0.0760,-0.0526,0.3513,0.0000,0.0000,0.3000,0.2534,-0.09,-5.31,23.80,2.6250,0.0000,1.0790,1.7610,2.3530,0,0.0000,0.0000,0.0000,0.0000,0.0000,0
9744,-0.0738,-0.0065,0.3503,-0.0014,0.0030,0.0164,0.02,0.03,-0.66,0,3.706,3.829,3.870,2.438,0.004,-0.015,1.000,0.000,0.000,0.000,0.3510,1,0,-1.16,0.24,-1.65,-0.0760,-0.0530,0.3516,0.0000,0.0000,0.3000,0.2537,-0.33,-5.49,19.91,2.6250,0.0000,1.0790,1.7610,2.3530,0,0.0000,0.0000,0.0000,0.0000,0.0000,0
9795,-0.0733,-0.0059,0.3512,-0.0006,0.0037,0.0164,0.14,-0.10,-0.50,0,3.711,1.402,0.010,3.045,0.001,-0.017,0.998,0.000,0.000,0.000,0.3480,0,0,-0.94,0.04,-1.55,-0.0760,-0.0547,0.3523,0.0000,0.0000,0.3000,0.2535,-0.24,-5.41,15.03,2.6560,0.2770,1.0800,1.7520,2.3460,0,0.0000,0.0000,0.0000,0.0000,0.0000,0
9847,-0.0724,-0.0057,0.3503,0.0016,0.0027,0.0069,0.18,-0.09,-0.33,0,3.706,-0.275,-3.291,3.379,-0.001,-0.019,1.000,0.000,0.000,0.000,0.3480,2,0,-0.87,0.03,-1.39,-0.0760,-0.0554,0.3518,0.0000,0.0000,0.3000,0.2547,-0.28,-5.22,9.85,2.6560,0.2770,1.0800,1.7520,2.3460,0,0.0000,0.0000,0.0000,0.0000,0.0000,0
9897,-0.0723,-0.0056,0.3495,0.0023,0.0013,0.0010,0.22,0.02,-0.13,0,3.711,-1.229,0.717,3.328,0.005,-0.015,1.007,0.000,0.000,0.000,0.3530,0,0,-0.84,0.20,-1.24,-0.0761,-0.0595,0.3512,0.0000,0.0000,0.3000,0.2555,-0.34,-5.16,3.94,2.6590,0.0000,1.0800,1.7580,2.3470,0,0.0000,0.0000,0.0000,0.0000,0.0000,0
9949,-0.0709,-0.0076,0.3512,0.0043,-0.0037,0.0109,0.19,-0.01,0.03,0,3.706,-1.643,0.036,3.366,0.003,-0.012,1.005,0.000,0.000,0.000,0.3510,4,-1,-0.90,0.16,-1.08,-0.0761,-0.0612,0.3525,0.0000,0.0000,0.3000,0.2541,-0.73,-4.99,-0.94,2.6590,0.0000,1.0800,1.7580,2.3470,0,0.0000,0.0000,0.0000,0.0000,0.0000,0
9999,-0.0707,-0.0092,0.3516,0.0045,-0.0076,0.0125,0.12,-0.05,0.19,0,3.711,1.041,-0.428,3.131,0.004,-0.014,1.004,0.000,0.000,0.000,0.3530,0,1,-0.89,0.13,-0.96,-0.0738,-0.0707,0.3527,0.0000,0.0000,0.3000,0.2539,-1.04,-4.97,-5.74,2.6530,0.2740,1.0820,1.7530,2.3470,0,0.0000,0.0000,0.0000,0.0000,0.0000,0
10050,-0.0658,-0.0153,0.3527,0.0127,-0.0179,0.0168,0.13,-0.06,0.34,0,3.706,-2.772,-2.574,2.977,0.005,-0.019,1.003,0.000,0.000,0.000,0.3540,0,0,-0.85,0.17,-0.79,-0.0749,-0.0727,0.3538,0.0000,0.0000,0.3000,0.2532,-1.99,-4.24,-10.16,2.6530,0.2740,1.0820,1.7530,2.3470,0,0.0000,0.0000,0.0000,0.0000,0.0000,0
10101,-0.0663,-0.0150,0.3540,0.0115,-0.0169,0.0206,0.00,0.07,0.49,0,3.711,-2.187,-2.704,1.596,0.003,-0.014,0.999,0.000,0.000,0.000,0.3550,0,0,-0.99,0.30,-0.64,-0.0747,-0.0760,0.3549,0.0000,0.0000,0.3000,0.2525,-1.92,-4.34,-14.57,2.6670,0.2780,1.0880,1.7580,2.3440,0,0.0000,0.0000,0.0000,0.0000,0.0000,0
10153,-0.0671,-0.0142,0.3552,0.0088,-0.0144,0.0217,-0.10,0.18,0.59,0,3.706,-0.292,0.476,2.158,0.006,-0.013,1.001,0.000,0.000,0.000,0.3550,0,1,-1.11,0.43,-0.56,-0.0744,-0.0793,0.3559,0.0000,0.0000,0.3000,0.2522,-1.75,-4.54,-17.56,2.6670,0.2780,1.0880,1.7580,2.3440,0,0.0000,0.0000,0.0000,0.0000,0.0000,0
10204,-0.0638,-0.0140,0.3559,0.0120,-0.0122,0.0199,-0.12,0.16,0.68,0,3.711,0.066,1.947,0.241,0.004,-0.017,0.993,0.000,0.000,0.000,0.3540,2,1,-1.22,0.45,-0.37,-0.0783,-0.0729,0.3568,0.0000,0.0000,0.3000,0.2522,-1.63,-4.14,-20.39,2.6940,0.0000,1.0810,1.7500,2.3410,0,0.0000,0.0000,0.0000,0.0000,0.0000,0
10254,-0.0631,-0.0140,0.3557,0.0111,-0.0102,0.0124,-0.09,0.09,0.72,0,3.700,-1.945,-1.630,0.382,0.005,-0.015,0.994,0.000,0.000,0.000,0.3570,0,-1,-1.19,0.36,-0.39,-0.0803,-0.0762,0.3567,0.0000,0.0000,0.3000,0.2531,-1.52,-4.12,-21.46,2.6940,0.0000,1.0810,1.7500,2.3410,0,0.0000,0.0000,0.0000,0.0000,0.0000,0
10306,-0.0688,-0.0147,0.3567,0.0008,-0.0096,0.0128,-0.16,0.14,0.74,0,3.706,0.046,0.988,0.738,0.003,-0.016,0.996,0.000,0.000,0.000,0.3530,-2,3,-1.29,0.42,-0.36,-0.0793,-0.0770,0.3574,0.0000,0.0000,0.3000,0.2528,-1.54,-5.04,-22.08,2.6710,0.0000,1.0880,1.7510,2.3410,0,0.0000,0.0000,0.0000,0.0000,0.0000,0
10356,-0.0673,-0.0176,0.3554,0.0018,-0.0120,0.0014,-0.19,0.13,0.76,0,3.700,1.210,3.297,0.769,0.004,-0.013,1.002,0.000,0.000,0.000,0.3590,1,0,-1.34,0.42,-0.29,-0.0854,-0.0735,0.3564,0.0000,0.0000,0.3000,0.2543,-1.86,-4.86,-22.70,2.6710,0.0000,1.0880,1.7510,2.3410,0,0.0000,0.0000,0.0000,0.0000,0.0000,0
10408,-0.0704,-0.0190,0.3571,-0.0040,-0.0118,0.0095,-0.14,-0.02,0.78,0,3.711,-1.854,1.703,0.638,0.001,-0.018,1.003,0.000,0.000,0.000,0.3590,0,0,-1.25,0.25,-0.27,-0.0863,-0.0755,0.3576,0.0000,0.0000,0.3000,0.2531,-1.97,-5.39,-23.25,2.6940,0.0000,1.0830,1.7530,2.3420,0,0.0000,0.0000,0.0000,0.0000,0.0000,0
10460,-0.0681,-0.0260,0.3583,0.0003,-0.0209,0.0137,-0.18,-0.15,0.80,0,3.700,-1.562,-1.627,0.007,0.006,-0.013,0.996,0.000,0.000,0.000,0.3580,0,-1,-1.35,0.16,-0.24,-0.0883,-0.0756,0.3585,0.0000,0.0000,0.3000,0.2524,-2.93,-5.03,-24.00,2.6940,0.0000,1.0830,1.7530,2.3420,0,0.0000,0.0000,0.0000,0.0000,0.0000,0
10511,-0.0699,-0.0259,0.3586,-0.0016,-0.0176,0.0102,-0.24,-0.08,0.80,0,3.706,-1.677,0.560,0.017,0.001,-0.015,0.998,0.000,0.000,0.000,0.3580,0,1,-1.43,0.17,-0.21,-0.0820,-0.0758,0.3589,0.0000,0.0000,0.3000,0.2527,-2.76,-5.24,-23.98,2.6570,0.2730,0.0000,1.7510,2.3410,0,0.0000,0.0000,0.0000,0.0000,0.0000,0
10561,-0.0701,-0.0252,0.3587,-0.0014,-0.0128,0.0079,-0.33,-0.09,0.80,0,3.700,1.341,1.603,-0.596,0.005,-0.015,0.998,0.000,0.000,0.000,0.3570,0,1,-1.51,0.16,-0.22,-0.0842,-0.0757,0.3590,0.0000,0.0000,0.3000,0.2530,-2.47,-5.25,-24.15,2.6570,0.2730,0.0000,1.7510,2.3410,0,0.0000,0.0000,0.0000,0.0000,0.0000,0
10613,-0.0683,-0.0267,0.3582,0.0023,-0.0115,0.0024,-0.31,-0.15,0.78,0,3.706,-1.146,-1.415,-0.424,0.003,-0.016,0.998,0.000,0.000,0.000,0.3580,-1,0,-1.44,0.10,-0.27,-0.0868,-0.0754,0.3587,0.0000,0.0000,0.3000,0.2536,-2.51,-4.93,-23.28,0.0000,0.0000,1.0930,1.7540,2.3360,0,0.0000,0.0000,0.0000,0.0000,0.0000,0
10664,-0.0694,-0.0257,0.3582,0.0016,-0.0064,0.0004,-0.29,-0.06,0.74,0,3.695,2.757,-0.713,-1.452,0.003,-0.014,0.998,0.000,0.000,0.000,0.3560,-1,0,-1.52,0.17,-0.27,-0.0870,-0.0726,0.3587,0.0000,0.0000,0.3000,0.2539,-2.19,-5.04,-22.05,0.0000,0.0000,1.0930,1.7540,2.3360,0,0.0000,0.0000,0.0000,0.0000,0.0000,0
10716,-0.0700,-0.0258,0.3572,0.0011,-0.0038,-0.0040,-0.22,-0.03,0.66,0,3.700,1.369,2.088,-1.684,0.002,-0.016,1.003,0.000,0.000,0.000,0.3580,-3,0,-1.39,0.20,-0.33,-0.0872,-0.0695,0.3579,0.0000,0.0000,0.3000,0.2545,-2.06,-5.09,-19.79,2.6670,0.2690,1.0830,1.7550,2.3390,0,0.0000,0.0000,0.0000,0.0000,0.0000,0
10768,-0.0684,-0.0249,0.3574,0.0040,-0.0002,-0.0012,-0.17,-0.14,0.58,0,3.695,2.257,-0.289,-1.338,0.007,-0.014,1.004,0.000,0.000,0.000,0.3600,-2,0,-1.38,0.09,-0.38,-0.0872,-0.0603,0.3578,0.0000,0.0000,0.3000,0.2542,-1.83,-4.84,-17.45,2.6670,0.2690,1.0830,1.7550,2.3390,0,0.0000,0.0000,0.0000,0.0000,0.0000,0
10819,-0.0682,-0.0240,0.3586,0.0050,0.0021,0.0057,-0.01,-0.15,0.49,0,3.706,4.716,-2.523,-1.637,0.006,-0.015,1.003,0.000,0.000,0.000,0.3600,0,-1,-1.28,0.10,-0.43,-0.0872,-0.0537,0.3585,0.0000,0.0000,0.3000,0.2532,-1.66,-4.80,-14.83,2.6820,0.0000,1.0830,1.7590,2.3430,0,0.0000,0.0000,0.0000,0.0000,0.0000,0
10869,-0.0701,-0.0210,0.3595,0.0026,0.0070,0.0096,0.11,-0.02,0.42,0,3.700,0.380,-0.513,0.025,0.004,-0.014,0.995,0.000,0.000,0.000,0.3620,0,0,-1.01,0.21,-0.52,-0.0841,-0.0533,0.3594,0.0000,0.0000,0.3000,0.2526,-1.20,-5.06,-12.73,2.6820,0.0000,1.0830,1.7590,2.3430,0,0.0000,0.0000,0.0000,0.0000,0.0000,0
10921,-0.0706,-0.0214,0.3610,0.0016,0.0048,0.0146,0.16,0.02,0.39,0,3.706,-0.947,2.093,0.156,0.003,-0.015,0.996,0.000,0.000,0.000,0.3600,0,0,-1.00,0.23,-0.51,-0.0837,-0.0494,0.3605,0.0000,0.0000,0.3000,0.2518,-1.35,-5.17,-11.59,2.6950,0.2700,1.0810,1.7570,2.3450,0,0.0000,0.0000,0.0000,0.0000,0.0000,0
10972,-0.0705,-0.0203,0.3611,0.0013,0.0050,0.0093,0.19,-0.03,0.38,0,3.695,5.189,-0.451,0.923,0.004,-0.012,0.994,0.000,0.000,0.000,0.3600,0,0,-1.04,0.12,-0.51,-0.0834,-0.0457,0.3606,0.0000,0.0000,0.3000,0.2523,-1.25,-5.17,-11.38,2.6950,0.2700,1.0810,1.7570,2.3450,0,0.0000,0.0000,0.0000,0.0000,0.0000,0
11022,-0.0706,-0.0211,0.3608,0.0011,0.0015,0.0036,0.30,-0.02,0.42,0,3.700,-1.434,0.395,1.461,0.006,-0.016,0.999,0.000,0.000,0.000,0.3580,0,0,-0.78,0.14,-0.46,-0.0831,-0.0418,0.3605,0.0000,0.0000,0.3000,0.2530,-1.48,-5.17,-12.50,2.6890,0.2750,1.0790,1.7490,2.3360,0,0.0000,0.0000,0.0000,0.0000,0.0000,0
11073,-0.0721,-0.0216,0.3596,-0.0015,-0.0019,-0.0045,0.32,-0.05,0.49,0,3.695,-1.348,0.189,0.895,0.006,-0.015,0.998,0.000,0.000,0.000,0.3590,0,0,-0.85,0.12,-0.39,-0.0826,-0.0380,0.3597,0.0000,0.0000,0.3000,0.2541,-1.67,-5.38,-14.61,2.6890,0.2750,1.0790,1.7490,2.3360,0,0.0000,0.0000,0.0000,0.0000,0.0000,0
11125,-0.0721,-0.0214,0.3591,-0.0011,-0.0039,-0.0070,0.26,-0.06,0.54,0,3.700,-1.378,-1.680,0.658,0.008,-0.013,1.004,0.000,0.000,0.000,0.3570,0,0,-0.92,0.11,-0.34,-0.0821,-0.0341,0.3594,0.0000,0.0000,0.3000,0.2544,-1.75,-5.36,-16.10,2.6670,0.0000,1.0810,1.7520,2.3380,0,0.0000,0.0000,0.0000,0.0000,0.0000,0
11176,-0.0706,-0.0213,0.3578,0.0020,-0.0055,-0.0117,0.20,-0.00,0.58,0,3.690,-1.867,-0.131,1.666,0.003,-0.019,1.001,0.000,0.000,0.000,0.3590,0,-1,-0.99,0.20,-0.31,-0.0814,-0.0301,0.3586,0.0000,0.0000,0.3000,0.2552,-1.82,-5.09,-17.34,2.6670,0.0000,1.0810,1.7520,2.3380,0,0.0000,0.0000,0.0000,0.0000,0.0000,0
11227,-0.0687,-0.0229,0.3580,0.0053,-0.0096,-0.0073,0.13,0.01,0.65,0,3.700,-0.774,0.701,1.028,0.007,-0.013,1.002,0.000,0.000,0.000,0.3620,0,0,-0.95,0.21,-0.30,-0.0820,-0.0547,0.3590,0.0000,0.0000,0.3000,0.2547,-2.14,-4.81,-19.40,2.6770,0.2680,1.0850,1.7570,2.3440,0,0.0000,0.0000,0.0000,0.0000,0.0000,0
11278,-0.0704,-0.0226,0.3596,0.0020,-0.0092,0.0024,0.10,-0.04,0.70,0,3.690,0.055,-1.018,0.734,0.007,-0.015,1.001,0.000,0.000,0.000,0.3550,0,-1,-0.99,0.17,-0.25,-0.0814,-0.0543,0.3599,0.0000,0.0000,0.3000,0.2533,-2.11,-5.11,-21.00,2.6770,0.2680,1.0850,1.7570,2.3440,0,0.0000,0.0000,0.0000,0.0000,0.0000,0
11329,-0.0703,-0.0226,0.3575,0.0022,-0.0094,-0.0069,0.08,-0.01,0.75,0,3.695,-1.107,-0.505,1.366,0.004,-0.011,1.002,0.000,0.000,0.000,0.3580,0,0,-0.98,0.22,-0.21,-0.0799,-0.0544,0.3585,0.0000,0.0000,0.3000,0.2547,-2.11,-5.07,-22.36,2.6810,0.0000,1.0790,1.7560,2.3480,0,0.0000,0.0000,0.0000,0.0000,0.0000,0
11381,-0.0685,-0.0228,0.3575,0.0050,-0.0095,-0.0043,0.01,-0.01,0.80,0,3.690,-0.234,-1.067,0.118,0.008,-0.013,1.001,0.000,0.000,0.000,0.3580,0,0,-1.04,0.24,-0.14,-0.0789,-0.0540,0.3584,0.0000,0.0000,0.3000,0.2544,-2.13,-4.81,-24.10,2.6810,0.0000,1.0790,1.7560,2.3480,0,0.0000,0.0000,0.0000,0.0000,0.0000,0
11431,-0.0667,-0.0279,0.3576,0.0075,-0.0175,-0.0026,0.04,0.04,0.81,0,3.695,-1.909,-1.279,-0.285,0.006,-0.016,1.002,0.000,0.000,0.000,0.3560,0,0,-1.05,0.30,-0.13,-0.0779,-0.0535,0.3583,0.0000,0.0000,0.3000,0.2542,-2.89,-4.56,-24.38,2.6750,0.0000,1.0900,1.7530,2.3430,0,0.0000,0.0000,0.0000,0.0000,0.0000,0
11483,-0.0668,-0.0295,0.3567,0.0064,-0.0191,-0.0056,-0.08,0.09,0.81,0,3.690,-3.196,0.360,-0.660,0.003,-0.016,1.004,0.000,0.000,0.000,0.3550,3,0,-1.14,0.36,-0.15,-0.0768,-0.0529,0.3576,0.0000,0.0000,0.3000,0.2547,-3.08,-4.61,-24.25,2.6750,0.0000,1.0900,1.7530,2.3430,0,0.0000,0.0000,0.0000,0.0000,0.0000,0
11534,-0.0690,-0.0288,0.3557,0.0016,-0.0158,-0.0082,-0.18,0.06,0.77,0,3.695,-0.678,1.462,-1.354,0.005,-0.012,0.999,0.000,0.000,0.000,0.3550,0,0,-1.21,0.37,-0.24,-0.0789,-0.0626,0.3570,0.0000,0.0000,0.3000,0.2552,-2.87,-5.00,-23.21,2.6610,0.0000,1.0950,1.7540,2.3420,0,0.0000,0.0000,0.0000,0.0000,0.0000,0
11585,-0.0665,-0.0344,0.3551,0.0054,-0.0217,-0.0087,-0.25,-0.02,0.69,0,3.690,-3.395,0.967,-1.771,0.005,-0.014,1.002,0.000,0.000,0.000,0.3570,1,0,-1.25,0.30,-0.31,-0.0787,-0.0641,0.3563,0.1804,-0.0183,0.3000,0.2554,-5.84,-17.09,-20.76,2.6610,0.0000,1.0950,1.7540,2.3420,0,0.0000,0.0000,0.0000,0.0000,0.0000,0
11635,-0.0698,-0.0337,0.3557,-0.0004,-0.0167,-0.0021,-0.38,-0.09,0.60,0,3.695,0.393,2.353,-2.139,0.008,-0.017,1.001,0.000,0.000,0.000,0.3560,0,0,-1.41,0.25,-0.41,-0.0788,-0.0659,0.3564,0.1804,-0.0183,0.3000,0.2545,-5.58,-17.63,-18.03,2.6710,0.0000,1.0910,1.7460,2.3430,0,0.0000,0.0000,0.0000,0.0000,0.0000,0
11686,-0.0688,-0.0346,0.3558,0.0017,-0.0137,0.0001,-0.36,-0.21,0.48,0,3.690,1.610,0.105,-2.370,0.006,-0.018,1.003,0.000,0.000,0.000,0.3530,0,0,-1.39,0.14,-0.52,-0.0785,-0.0672,0.3563,0.1804,-0.0183,0.3000,0.2543,-5.50,-17.49,-14.33,2.6710,0.0000,1.0910,1.7460,2.3430,0,0.0000,0.0000,0.0000,0.0000,0.0000,0
11737,-0.0703,-0.0348,0.3545,0.0009,-0.0098,-0.0053,-0.29,-0.21,0.33,0,3.695,-1.701,0.140,-2.862,0.005,-0.016,1.002,0.000,0.000,0.000,0.3550,0,0,-1.31,0.13,-0.64,-0.0782,-0.0683,0.3553,0.1804,-0.0183,0.3000,0.2551,-5.31,-17.57,-10.01,2.6370,0.0000,1.0930,1.7460,2.3470,0,0.0000,0.0000,0.0000,0.0000,0.0000,0
11788,-0.0683,-0.0347,0.3545,0.0058,-0.0064,-0.0031,-0.30,-0.19,0.22,0,3.690,0.970,-0.687,-2.021,0.007,-0.016,1.003,0.000,0.000,0.000,0.3540,0,0,-1.40,0.13,-0.78,-0.0778,-0.0693,0.3552,0.1804,-0.0183,0.3000,0.2548,-5.15,-17.25,-6.51,2.6370,0.0000,1.0930,1.7460,2.3470,0,0.0000,0.0000,0.0000,0.0000,0.0000,0
11840,-0.0680,-0.0350,0.3542,0.0073,-0.0039,-0.0025,-0.25,-0.14,0.08,0,3.695,0.669,-1.597,-3.448,0.001,-0.016,1.002,0.000,0.000,0.000,0.3530,0,0,-1.35,0.17,-0.89,-0.0773,-0.0700,0.3548,0.1804,-0.0183,0.3000,0.2548,-5.05,-17.16,-2.36,2.6750,0.2820,1.0910,1.7460,2.3460,0,0.0000,0.0000,0.0000,0.0000,0.0000,0
11890,-0.0662,-0.0356,0.3536,0.0105,-0.0027,-0.0038,-0.18,-0.03,-0.07,0,3.690,-3.230,0.777,-2.476,0.006,-0.016,1.000,0.000,0.000,0.000,0.3540,0,0,-1.31,0.26,-1.06,-0.0768,-0.0705,0.3543,0.1804,-0.0183,0.3000,0.2551,-5.03,-16.88,2.19,2.6750,0.2820,1.0910,1.7460,2.3460,0,0.0000,0.0000,0.0000,0.0000,0.0000,0
11942,-0.0662,-0.0351,0.3536,0.0100,-0.0002,-0.0024,-0.23,-0.06,-0.24,0,3.695,1.555,-0.393,-1.777,0.004,-0.019,0.999,0.000,0.000,0.000,0.3540,0,1,-1.47,0.22,-1.19,-0.0763,-0.0709,0.3541,0.1804,-0.0183,0.3000,0.2549,-4.87,-16.93,7.18,2.6830,0.2640,1.0890,1.7520,2.3520,0,0.0000,0.0000,0.0000,0.0000,0.0000,0
11992,-0.0641,-0.0363,0.3537,0.0132,-0.0006,-0.0011,-0.12,-0.05,-0.39,0,3.690,-0.671,-1.058,-2.977,0.003,-0.015,0.998,0.000,0.000,0.000,0.3540,0,0,-1.40,0.28,-1.30,-0.0813,-0.0700,0.3540,0.1804,-0.0183,0.3000,0.2548,-4.98,-16.66,11.63,2.6830,0.2640,1.0890,1.7520,2.3520,0,0.0000,0.0000,0.0000,0.0000,0.0000,0
12044,-0.0689,-0.0362,0.3538,0.0053,0.0007,-0.0003,-0.09,-0.05,-0.53,0,3.695,0.763,-1.625,-3.885,0.006,-0.012,0.998,0.000,0.000,0.000,0.3540,0,0,-1.43,0.33,-1.44,-0.0818,-0.0698,0.3539,0.1804,-0.0183,0.3000,0.2547,-4.91,-17.34,15.78,2.6720,0.0000,1.0890,1.7490,2.3430,0,0.0000,0.0000,0.0000,0.0000,0.0000,0
12094,-0.0648,-0.0364,0.3539,0.0119,0.0006,0.0004,0.02,-0.06,-0.67,0,3.684,-2.686,0.170,-1.887,0.003,-0.018,1.002,0.000,0.000,0.000,0.3530,0,0,-1.39,0.42,-1.64,-0.0822,-0.0692,0.3537,0.1804,-0.0183,0.3000,0.2546,-4.94,-16.78,20.22,2.6720,0.0000,1.0890,1.7490,2.3430,0,0.0000,0.0000,0.0000,0.0000,0.0000,0
12146,-0.0645,-0.0356,0.3535,0.0119,0.0020,-0.0016,-0.07,-0.02,-0.78,0,3.690,-0.042,-4.290,-3.618,0.006,-0.016,1.000,0.000,0.000,0.000,0.3520,0,-1,-1.52,0.42,-1.74,-0.0828,-0.0685,0.3534,0.1804,-0.0183,0.3000,0.2549,-4.81,-16.74,23.27,2.6690,0.2780,1.0830,1.7470,2.3460,0,0.0000,0.0000,0.0000,0.0000,0.0000,0
12196,-0.0653,-0.0356,0.3527,0.0098,0.0025,-0.0058,-0.05,0.08,-0.93,0,3.684,1.550,0.803,-1.707,0.008,-0.019,1.000,0.000,0.000,0.000,0.3540,0,0,-1.50,0.61,-1.91,-0.0799,-0.0699,0.3529,0.1804,-0.0183,0.3000,0.2555,-4.77,-16.86,27.75,2.6690,0.2780,1.0830,1.7470,2.3460,0,0.0000,0.0000,0.0000,0.0000,0.0000,0
12248,-0.0617,-0.0361,0.3531,0.0140,0.0021,-0.0024,-0.04,0.08,-1.02,0,3.690,2.594,-1.787,-0.828,0.005,-0.012,0.997,0.000,0.000,0.000,0.3500,0,0,-1.42,0.57,-2.00,-0.0796,-0.0694,0.3531,0.1804,-0.0183,0.3000,0.2550,-4.83,-16.46,30.56,2.6900,0.2740,1.0870,1.7480,2.3500,0,0.0000,0.0000,0.0000,0.0000,0.0000,0
12300,-0.0591,-0.0364,0.3515,0.0163,0.0016,-0.0100,0.03,0.09,-1.09,0,3.684,-0.426,-0.922,-1.611,0.005,-0.016,1.000,0.000,0.000,0.000,0.3500,0,0,-1.29,0.66,-2.04,-0.0793,-0.0686,0.3519,0.1804,-0.0183,0.3000,0.2561,-4.85,-16.12,32.60,2.6900,0.2740,1.0870,1.7480,2.3500,0,0.0000,0.0000,0.0000,0.0000,0.0000,0
12351,-0.0583,-0.0363,0.3504,0.0154,0.0013,-0.0126,0.02,0.11,-1.17,0,3.690,-0.909,-2.033,-1.682,0.006,-0.018,1.005,0.000,0.000,0.000,0.3500,1,-1,-1.31,0.71,-2.12,-0.0793,-0.0676,0.3509,0.1804,-0.0183,0.3000,0.2566,-4.85,-16.08,35.22,2.6910,0.0000,1.0930,1.7420,2.3480,0,0.0000,0.0000,0.0000,0.0000,0.0000,0
12402,-0.0584,-0.0310,0.3498,0.0131,0.0097,-0.0116,-0.05,0.13,-1.25,0,3.684,1.823,-0.061,-0.117,0.005,-0.015,1.003,0.000,0.000,0.000,0.3510,0,0,-1.30,0.79,-2.25,-0.0768,-0.0721,0.3504,0.1804,-0.0183,0.3000,0.2566,-4.07,-16.19,37.58,2.6910,0.0000,1.0930,1.7420,2.3480,0,0.0000,0.0000,0.0000,0.0000,0.0000,0
12453,-0.0571,-0.0367,0.3500,0.0128,0.0006,-0.0059,0.03,0.15,-1.26,0,3.690,3.429,-0.420,-1.279,0.004,-0.016,1.002,0.000,0.000,0.000,0.3490,-1,0,-1.20,0.80,-2.26,-0.0765,-0.0722,0.3504,0.1804,-0.0183,0.3000,0.2560,-4.93,-16.17,37.85,2.6980,0.0000,1.0960,1.7430,2.3540,0,0.0000,0.0000,0.0000,0.0000,0.0000,0
12505,-0.0566,-0.0348,0.3493,0.0113,0.0032,-0.0059,0.15,0.18,-1.32,0,3.679,-1.073,1.147,-0.324,0.005,-0.015,1.000,0.000,0.000,0.000,0.3470,0,0,-1.05,0.82,-2.30,-0.0764,-0.0705,0.3498,0.1804,-0.0183,0.3000,0.2561,-4.67,-16.19,39.52,2.6980,0.0000,1.0960,1.7430,2.3540,0,0.0000,0.0000,0.0000,0.0000,0.0000,0
12555,-0.0569,-0.0340,0.3480,0.0087,0.0028,-0.0099,0.19,0.13,-1.33,0,3.684,-1.199,-0.722,-0.987,0.004,-0.016,1.005,0.000,0.000,0.000,0.3470,0,0,-1.10,0.76,-2.31,-0.0765,-0.0700,0.3487,0.1804,-0.0183,0.3000,0.2568,-4.62,-16.29,39.89,2.6900,0.2790,1.0850,1.7460,2.3530,0,0.0000,0.0000,0.0000,0.0000,0.0000,0
12606,-0.0568,-0.0357,0.3472,0.0070,-0.0015,-0.0107,0.10,0.14,-1.36,0,3.679,0.585,-0.466,0.685,0.003,-0.018,1.004,0.000,0.000,0.000,0.3500,0,1,-1.16,0.80,-2.36,-0.0768,-0.0693,0.3480,0.1804,-0.0183,0.3000,0.2570,-4.94,-16.35,40.74,2.6900,0.2790,1.0850,1.7460,2.3530,0,0.0000,0.0000,0.0000,0.0000,0.0000,0
12658,-0.0564,-0.0358,0.3482,0.0058,-0.0023,-0.0012,0.07,0.13,-1.37,0,3.690,-0.128,1.971,-0.016,0.008,-0.017,1.002,0.000,0.000,0.000,0.3500,0,0,-1.12,0.83,-2.35,-0.0788,-0.0702,0.3484,0.1804,-0.0183,0.3000,0.2558,-5.01,-16.45,41.07,2.6780,0.0000,1.0880,1.7530,2.3500,0,0.0000,0.0000,0.0000,0.0000,0.0000,0
12708,-0.0586,-0.0356,0.3490,0.0011,-0.0025,0.0040,0.11,0.07,-1.37,0,3.679,-0.688,2.998,-0.490,0.002,-0.017,1.001,0.000,0.000,0.000,0.3450,0,0,-1.12,0.73,-2.36,-0.0799,-0.0698,0.3489,0.1804,-0.0183,0.3000,0.2551,-5.02,-16.85,41.15,2.6780,0.0000,1.0880,1.7530,2.3500,0,0.0000,0.0000,0.0000,0.0000,0.0000,0
12759,-0.0629,-0.0353,0.3472,-0.0059,-0.0028,-0.0054,0.09,-0.00,-1.37,0,3.690,-3.222,0.141,0.399,0.007,-0.014,1.003,0.000,0.000,0.000,0.3480,0,0,-1.16,0.58,-2.38,-0.0812,-0.0693,0.3477,0.1804,-0.0183,0.3000,0.2564,-4.99,-17.37,41.15,2.6840,0.2730,1.0870,1.7390,2.3540,0,0.0000,0.0000,0.0000,0.0000,0.0000,0
12810,-0.0628,-0.0367,0.3474,-0.0051,-0.0050,-0.0031,-0.07,0.02,-1.39,0,3.679,0.690,1.876,1.088,0.009,-0.012,1.000,0.000,0.000,0.000,0.3450,0,0,-1.32,0.57,-2.36,-0.0827,-0.0687,0.3478,0.1804,-0.0183,0.3000,0.2561,-5.19,-17.35,41.66,2.6840,0.2730,1.0870,1.7390,2.3540,0,0.0000,0.0000,0.0000,0.0000,0.0000,0
12861,-0.0617,-0.0389,0.3461,-0.0032,-0.0072,-0.0078,-0.06,-0.06,-1.36,0,3.684,0.791,1.573,0.972,0.006,-0.015,1.000,0.000,0.000,0.000,0.3490,0,0,-1.29,0.48,-2.31,-0.0841,-0.0678,0.3469,0.1804,-0.0183,0.3000,0.2569,-5.44,-17.14,40.72,2.6750,0.2790,1.0970,1.7430,2.3540,0,0.0000,0.0000,0.0000,0.0000,0.0000,0
12912,-0.0656,-0.0365,0.3472,-0.0082,-0.0024,-0.0010,-0.09,-0.15,-1.30,0,3.674,-0.191,3.786,0.327,0.004,-0.018,0.996,0.000,0.000,0.000,0.3480,-2,1,-1.25,0.39,-2.26,-0.0857,-0.0666,0.3474,0.1804,-0.0183,0.3000,0.2559,-5.07,-17.68,39.13,2.6750,0.2790,1.0970,1.7430,2.3540,0,0.0000,0.0000,0.0000,0.0000,0.0000,0
12964,-0.0622,-0.0402,0.3475,-0.0013,-0.0070,0.0009,-0.12,-0.22,-1.26,0,3.684,-2.897,-2.447,0.596,0.005,-0.015,1.000,0.000,0.000,0.000,0.3460,0,0,-1.26,0.17,-2.25,-0.0823,-0.0656,0.3475,0.1804,-0.0183,0.3000,0.2557,-5.56,-17.18,37.87,2.6630,0.0000,1.0970,1.7340,2.3540,0,0.0000,0.0000,0.0000,0.0000,0.0000,0
13015,-0.0637,-0.0526,0.3468,-0.0022,-0.0245,-0.0029,-0.16,-0.06,-1.24,0,3.679,1.814,-1.480,-1.095,0.003,-0.014,0.998,0.000,0.000,0.000,0.3470,2,0,-1.41,0.29,-2.21,-0.0829,-0.0643,0.3469,0.1804,-0.0183,0.3000,0.2562,-7.27,-17.29,37.24,2.6630,0.0000,1.0970,1.7340,2.3540,0,0.0000,0.0000,0.0000,0.0000,0.0000,0
13066,-0.0646,-0.0552,0.3468,-0.0030,-0.0255,-0.0033,-0.12,-0.02,-1.26,0,3.684,-6.050,2.677,-0.495,0.007,-0.015,0.997,0.000,0.000,0.000,0.3460,1,-1,-1.27,0.36,-2.28,-0.0831,-0.0667,0.3469,0.1804,-0.0183,0.3000,0.2562,-7.50,-17.38,37.65,2.6770,0.2860,1.0960,1.7480,2.3490,0,0.0000,0.0000,0.0000,0.0000,0.0000,0
13117,-0.0621,-0.0573,0.3462,0.0015,-0.0255,-0.0065,-0.33,-0.11,-1.27,0,3.674,-3.899,-1.399,-0.494,0.006,-0.018,1.001,0.000,0.000,0.000,0.3470,0,0,-1.57,0.22,-2.31,-0.0826,-0.0672,0.3464,0.1804,-0.0183,0.3000,0.2567,-7.64,-17.00,38.07,2.6770,0.2860,1.0960,1.7480,2.3490,0,0.0000,0.0000,0.0000,0.0000,0.0000,0
13169,-0.0621,-0.0569,0.3464,0.0024,-0.0196,-0.0032,-0.55,-0.10,-1.31,0,3.684,1.341,-2.738,-1.926,0.010,-0.010,1.001,0.000,0.000,0.000,0.3460,0,0,-1.76,0.29,-2.34,-0.0827,-0.0668,0.3464,0.1804,-0.0183,0.3000,0.2563,-7.34,-16.98,39.33,2.6550,0.0000,1.1000,1.7430,2.3530,0,0.0000,0.0000,0.0000,0.0000,0.0000,0
13220,-0.0619,-0.0577,0.3461,0.0033,-0.0148,-0.0031,-0.53,0.00,-1.39,0,3.679,1.140,-1.598,-1.263,0.006,-0.016,1.002,0.000,0.000,0.000,0.3470,-1,0,-1.69,0.43,-2.43,-0.0826,-0.0658,0.3461,0.1804,-0.0183,0.3000,0.2563,-7.17,-16.93,41.73,2.6550,0.0000,1.1000,1.7430,2.3530,0,0.0000,0.0000,0.0000,0.0000,0.0000,0
13271,-0.0626,-0.0582,0.3464,0.0018,-0.0100,-0.0008,-0.47,0.08,-1.48,0,3.684,2.080,3.085,-2.801,0.009,-0.019,0.998,0.000,0.000,0.000,0.3450,0,0,-1.63,0.52,-2.50,-0.0826,-0.0649,0.3463,0.1804,-0.0183,0.3000,0.2560,-6.98,-17.07,44.54,0.0000,0.2820,1.0980,1.7370,2.3610,0,0.0000,0.0000,0.0000,0.0000,0.0000,0
13322,-0.0617,-0.0552,0.3456,0.0028,-0.0010,-0.0060,-0.42,-0.02,-1.60,0,3.674,3.672,-0.608,-2.651,0.005,-0.014,0.998,0.000,0.000,0.000,0.3460,0,0,-1.52,0.36,-2.64,-0.0825,-0.0635,0.3457,0.1804,-0.0183,0.3000,0.2567,-6.33,-16.92,48.09,0.0000,0.2820,1.0980,1.7370,2.3610,0,0.0000,0.0000,0.0000,0.0000,0.0000,0
13372,-0.0613,-0.0511,0.3456,0.0038,0.0087,-0.0057,-0.25,-0.10,-1.73,0,3.684,1.993,-4.300,-2.105,0.010,-0.016,1.001,0.000,0.000,0.000,0.3440,3,0,-1.34,0.40,-2.78,-0.0825,-0.0617,0.3456,0.1804,-0.0183,0.3000,0.2567,-5.57,-16.86,52.00,2.6640,0.0000,1.0940,1.7450,2.3590,0,0.0000,0.0000,0.0000,0.0000,0.0000,0
13423,-0.0634,-0.0450,0.3447,0.0005,0.0204,-0.0091,-0.11,0.01,-1.84,0,3.674,4.704,-0.539,-2.851,0.004,-0.017,0.997,0.000,0.000,0.000,0.3420,-2,0,-1.12,0.62,-2.93,-0.0831,-0.0728,0.3452,0.1804,-0.0183,0.3000,0.2573,-4.56,-17.11,55.26,2.6640,0.0000,1.0940,1.7450,2.3590,0,0.0000,0.0000,0.0000,0.0000,0.0000,0
13474,-0.0640,-0.0463,0.3431,-0.0007,0.0180,-0.0148,-0.03,0.05,-1.97,0,3.679,3.229,-0.576,-2.422,0.007,-0.017,1.001,0.000,0.000,0.000,0.3390,0,0,-0.91,0.65,-3.06,-0.0831,-0.0713,0.3441,0.1804,-0.0183,0.3000,0.2582,-4.75,-17.14,58.96,2.6830,0.0000,1.0940,1.7390,2.3580,0,0.0000,0.0000,0.0000,0.0000,0.0000,0
13526,-0.0619,-0.0439,0.3407,0.0027,0.0206,-0.0236,0.03,0.04,-2.09,0,3.669,2.154,0.896,-2.207,0.004,-0.016,1.006,0.000,0.000,0.000,0.3400,-1,-1,-0.74,0.68,-3.18,-0.0834,-0.0719,0.3421,0.1804,-0.0183,0.3000,0.2596,-4.44,-16.78,62.84,2.6830,0.0000,1.0940,1.7390,2.3580,0,0.0000,0.0000,0.0000,0.0000,0.0000,0
13576,-0.0598,-0.0384,0.3395,0.0058,0.0277,-0.0216,0.16,0.04,-2.20,0,3.679,-1.990,-1.514,-1.354,0.005,-0.017,1.008,0.000,0.000,0.000,0.3430,-1,1,-0.66,0.60,-3.28,-0.0803,-0.0692,0.3412,0.1804,-0.0183,0.3000,0.2596,-3.71,-16.51,66.01,2.6790,0.2740,1.0820,1.7410,2.3630,0,0.0000,0.0000,0.0000,0.0000,0.0000,0
13628,-0.0588,-0.0395,0.3404,0.0066,0.0219,-0.0093,0.18,0.12,-2.27,0,3.674,1.509,0.264,-0.813,0.001,-0.016,1.004,0.000,0.000,0.000,0.3400,1,-1,-0.77,0.69,-3.33,-0.0816,-0.0675,0.3414,0.1804,-0.0183,0.3000,0.2581,-4.09,-16.50,68.24,2.6790,0.2740,1.0820,1.7410,2.3630,0,0.0000,0.0000,0.0000,0.0000,0.0000,0
13679,-0.0607,-0.0385,0.3400,0.0018,0.0202,-0.0063,0.34,0.14,-2.34,0,3.679,-2.670,-2.678,0.151,0.009,-0.013,1.003,0.000,0.000,0.000,0.3400,2,0,-0.67,0.66,-3.39,-0.0801,-0.0692,0.3409,0.1804,-0.0183,0.3000,0.2578,-4.10,-16.85,70.27,2.6880,0.0000,1.0850,1.7430,2.3670,0,0.0000,0.0000,0.0000,0.0000,0.0000,0
13731,-0.0590,-0.0385,0.3398,0.0034,0.0168,-0.0045,0.28,0.13,-2.37,0,3.674,0.075,2.028,-0.322,0.005,-0.013,1.005,0.000,0.000,0.000,0.3390,-4,-1,-0.78,0.80,-3.42,-0.0804,-0.0732,0.3405,0.1804,-0.0183,0.3000,0.2577,-4.27,-16.69,71.14,2.6880,0.0000,1.0850,1.7430,2.3670,0,0.0000,0.0000,0.0000,0.0000,0.0000,0
13782,-0.0604,-0.0454,0.3393,-0.0007,0.0102,-0.0033,0.31,0.11,-2.40,0,3.684,0.904,1.404,-0.571,0.006,-0.016,1.004,0.000,0.000,0.000,0.3400,-2,1,-0.85,0.67,-3.37,-0.0776,-0.0647,0.3401,0.1804,-0.0183,0.3000,0.2576,-5.08,-16.96,72.06,2.6970,0.0000,1.0880,1.7340,2.3620,0,0.0000,0.0000,0.0000,0.0000,0.0000,0
13834,-0.0607,-0.0385,0.3395,-0.0022,0.0111,-0.0012,0.15,0.06,-2.41,0,3.669,0.095,-0.680,-0.441,0.004,-0.015,1.003,0.000,0.000,0.000,0.3370,0,1,-0.83,0.62,-3.36,-0.0796,-0.0594,0.3401,0.1804,-0.0183,0.3000,0.2574,-4.54,-17.07,72.41,2.6970,0.0000,1.0880,1.7340,2.3620,0,0.0000,0.0000,0.0000,0.0000,0.0000,0
13885,-0.0630,-0.0353,0.3384,-0.0068,0.0145,-0.0045,0.14,-0.00,-2.46,0,3.679,1.156,4.122,-0.431,0.006,-0.015,1.003,0.000,0.000,0.000,0.3400,1,0,-0.81,0.67,-3.38,-0.0824,-0.0588,0.3392,0.1804,-0.0183,0.3000,0.2579,-4.15,-17.39,73.70,2.6800,0.0000,1.0770,1.7370,2.3610,0,0.0000,0.0000,0.0000,0.0000,0.0000,0
13936,-0.0674,-0.0353,0.3390,-0.0151,0.0120,0.0006,0.23,-0.09,-2.51,0,3.674,0.413,0.152,-1.196,0.004,-0.017,0.998,0.000,0.000,0.000,0.3390,0,0,-0.73,0.46,-3.44,-0.0828,-0.0612,0.3396,0.1804,-0.0183,0.3000,0.2573,-4.27,-18.09,75.26,2.6800,0.0000,1.0770,1.7370,2.3610,0,0.0000,0.0000,0.0000,0.0000,0.0000,0
13987,-0.0686,-0.0366,0.3390,-0.0155,0.0065,0.0017,0.18,-0.11,-2.54,0,3.679,3.279,4.233,-0.102,0.003,-0.013,1.000,0.000,0.000,0.000,0.3420,0,0,-0.71,0.45,-3.50,-0.0838,-0.0604,0.3395,0.1804,-0.0183,0.3000,0.2571,-4.63,-18.20,76.14,2.6660,0.0000,1.0810,1.7450,2.3640,0,0.0000,0.0000,0.0000,0.0000,0.0000,0
14038,-0.0685,-0.0364,0.3405,-0.0128,0.0045,0.0085,0.26,-0.26,-2.55,0,3.674,-2.699,-0.914,0.108,0.008,-0.016,0.998,0.000,0.000,0.000,0.3410,1,2,-0.54,0.23,-3.50,-0.0849,-0.0596,0.3403,0.1804,-0.0183,0.3000,0.2561,-4.74,-18.14,76.60,2.6660,0.0000,1.0810,1.7450,2.3640,0,0.0000,0.0000,0.0000,0.0000,0.0000,0
14089,-0.0717,-0.0356,0.3410,-0.0163,0.0037,0.0078,0.14,-0.26,-2.56,0,3.679,0.370,-1.586,0.168,0.004,-0.014,1.001,0.000,0.000,0.000,0.3400,2,1,-0.64,0.31,-3.50,-0.0912,-0.0655,0.3406,0.1804,-0.0183,0.3000,0.2561,-4.71,-18.51,76.66,2.6370,0.0000,1.0870,1.7440,2.3690,0,0.0000,0.0000,0.0000,0.0000,0.0000,0
14140,-0.0701,-0.0351,0.3408,-0.0093,0.0028,0.0042,0.10,-0.22,-2.55,0,3.674,0.373,-0.614,0.323,0.005,-0.014,0.997,0.000,0.000,0.000,0.3410,0,1,-0.60,0.39,-3.50,-0.0941,-0.0691,0.3405,0.1804,-0.0183,0.3000,0.2565,-4.72,-18.07,76.35,2.6370,0.0000,1.0870,1.7440,2.3690,0,0.0000,0.0000,0.0000,0.0000,0.0000,0
14192,-0.0727,-0.0371,0.3410,-0.0119,-0.0023,0.0034,0.09,-0.25,-2.52,0,3.679,2.340,0.284,-0.215,0.004,-0.018,0.998,0.000,0.000,0.000,0.3380,0,0,-0.58,0.43,-3.48,-0.0970,-0.0695,0.3407,0.1804,-0.0183,0.3000,0.2566,-5.10,-18.36,75.73,2.6580,0.0000,1.0870,1.7410,2.3630,0,0.0000,0.0000,0.0000,0.0000,0.0000,0
14244,-0.0728,-0.0380,0.3397,-0.0090,-0.0049,-0.0055,0.07,-0.23,-2.51,0,3.669,-2.566,-0.469,0.197,0.004,-0.012,0.996,0.000,0.000,0.000,0.3400,1,0,-0.46,0.42,-3.49,-0.0995,-0.0709,0.3399,0.1804,-0.0183,0.3000,0.2578,-5.27,-18.16,75.40,2.6580,0.0000,1.0870,1.7410,2.3630,0,0.0000,0.0000,0.0000,0.0000,0.0000,0
14295,-0.0777,-0.0388,0.3396,-0.0168,-0.0067,-0.0060,-0.01,-0.12,-2.48,0,3.674,-3.672,2.999,1.452,0.005,-0.012,1.001,0.000,0.000,0.000,0.3350,0,0,-0.59,0.40,-3.52,-0.0968,-0.0728,0.3399,0.1804,-0.0183,0.3000,0.2578,-5.41,-18.81,74.46,2.6370,0.0000,1.0860,1.7410,2.3640,0,0.0000,0.0000,0.0000,0.0000,0.0000,0
14346,-0.0770,-0.0426,0.3373,-0.0126,-0.0142,-0.0158,-0.07,-0.19,-2.41,0,3.663,0.759,3.653,1.548,0.006,-0.017,1.006,0.000,0.000,0.000,0.3360,0,0,-0.78,0.25,-3.45,-0.0983,-0.0744,0.3382,0.1804,-0.0183,0.3000,0.2593,-6.00,-18.49,72.32,2.6370,0.0000,1.0860,1.7410,2.3640,0,0.0000,0.0000,0.0000,0.0000,0.0000,0
14397,-0.0789,-0.0422,0.3361,-0.0137,-0.0114,-0.0157,-0.17,-0.26,-2.32,0,3.674,-3.943,-2.232,2.822,0.006,-0.008,1.005,0.000,0.000,0.000,0.3360,0,0,-0.74,0.06,-3.37,-0.0998,-0.0760,0.3373,0.1804,-0.0183,0.3000,0.2595,-5.84,-18.65,69.48,2.6380,0.0000,1.0940,1.7370,2.3740,0,0.0000,0.0000,0.0000,0.0000,0.0000,0
14448,-0.0795,-0.0433,0.3356,-0.0113,-0.0109,-0.0120,-0.30,-0.20,-2.19,0,3.663,1.433,-1.542,2.874,0.008,-0.015,1.010,0.000,0.000,0.000,0.3330,0,-1,-0.94,0.17,-3.23,-0.1012,-0.0775,0.3368,0.1804,-0.0183,0.3000,0.2592,-5.90,-18.61,65.78,2.6380,0.0000,1.0940,1.7370,2.3740,0,0.0000,0.0000,0.0000,0.0000,0.0000,0
14499,-0.0780,-0.0434,0.3340,-0.0052,-0.0075,-0.0136,-0.26,-0.12,-2.04,0,3.674,-0.227,-1.325,3.679,0.007,-0.017,1.011,0.000,0.000,0.000,0.3370,0,0,-0.91,0.20,-3.12,-0.0935,-0.0728,0.3357,0.1804,-0.0183,0.3000,0.2597,-5.74,-18.22,61.30,2.6310,0.2830,1.0920,1.7400,2.3660,0,0.0000,0.0000,0.0000,0.0000,0.0000,0
14550,-0.0760,-0.0438,0.3350,0.0008,-0.0054,-0.0020,-0.24,-0.08,-1.86,0,3.663,0.528,-2.444,3.537,0.005,-0.014,1.008,0.000,0.000,0.000,0.3300,0,0,-0.93,0.26,-2.94,-0.0930,-0.0732,0.3363,0.1804,-0.0183,0.3000,0.2583,-5.70,-17.93,55.74,2.6310,0.2830,1.0920,1.7400,2.3660,0,0.0000,0.0000,0.0000,0.0000,0.0000,0
14602,-0.0741,-0.0440,0.3327,0.0057,-0.0035,-0.0101,-0.23,0.02,-1.70,0,3.674,1.710,-2.429,3.326,0.007,-0.012,1.008,0.000,0.000,0.000,0.3370,0,0,-0.90,0.38,-2.75,-0.0925,-0.0735,0.3348,0.1804,-0.0183,0.3000,0.2596,-5.59,-17.52,50.88,2.6360,0.2850,1.0950,1.7410,2.3640,0,0.0000,0.0000,0.0000,0.0000,0.0000,0
14652,-0.0729,-0.0442,0.3344,0.0077,-0.0017,0.0041,-0.19,0.09,-1.52,0,3.663,1.119,-1.589,3.910,0.005,-0.015,1.001,0.000,0.000,0.000,0.3340,0,0,-0.81,0.51,-2.58,-0.0920,-0.0737,0.3359,0.1804,-0.0145,0.3000,0.2577,-5.83,-17.42,45.50,2.6360,0.2850,1.0950,1.7410,2.3640,0,0.0000,0.0000,0.0000,0.0000,0.0000,0
14703,-0.0702,-0.0444,0.3344,0.0119,-0.0002,0.0062,-0.13,0.13,-1.33,0,3.674,1.775,-5.100,5.544,0.006,-0.010,0.999,0.000,0.000,0.000,0.3340,0,-1,-0.76,0.58,-2.38,-0.0915,-0.0739,0.3358,0.1803,-0.0106,0.3000,0.2575,-6.04,-17.02,39.76,2.6270,0.2820,1.0930,1.7530,2.3680,0,0.0000,0.0000,0.0000,0.0000,0.0000,0
14754,-0.0661,-0.0436,0.3345,0.0181,0.0025,0.0060,-0.05,0.28,-1.08,0,3.669,2.623,-2.552,4.998,0.008,-0.014,1.001,0.000,0.000,0.000,0.3340,-1,-1,-0.68,0.83,-2.10,-0.0898,-0.0735,0.3356,0.1802,-0.0068,0.3000,0.2575,-6.13,-16.42,32.54,2.6270,0.2820,1.0930,1.7530,2.3680,0,0.0000,0.0000,0.0000,0.0000,0.0000,0
14806,-0.0633,-0.0422,0.3345,0.0198,0.0057,0.0050,-0.00,0.44,-0.83,0,3.674,4.558,-2.347,5.760,0.006,-0.013,1.001,0.000,0.000,0.000,0.3360,-2,1,-0.55,0.95,-1.84,-0.0888,-0.0729,0.3355,0.1800,-0.0030,0.3000,0.2576,-6.15,-16.09,25.01,2.6570,0.0000,1.0990,1.7380,2.3650,0,0.0000,0.0000,0.0000,0.0000,0.0000,0
14858,-0.0612,-0.0424,0.3354,0.0183,0.0043,0.0089,0.16,0.56,-0.57,0,3.669,1.891,0.628,5.253,0.007,-0.008,0.999,0.000,0.000,0.000,0.3340,0,0,-0.34,1.08,-1.51,-0.0894,-0.0711,0.3360,0.1797,0.0009,0.3000,0.2570,-6.52,-15.99,17.11,2.6570,0.0000,1.0990,1.7380,2.3650,0,0.0000,0.0000,0.0000,0.0000,0.0000,0
14908,-0.0611,-0.0392,0.3351,0.0121,0.0095,0.0044,0.23,0.53,-0.31,0,3.669,1.063,1.204,4.872,0.007,-0.016,0.998,0.000,0.000,0.000,0.3350,0,0,-0.25,1.05,-1.24,-0.0897,-0.0705,0.3357,0.1794,0.0047,0.3000,0.2575,-6.29,-16.15,9.45,2.6540,0.0000,1.0870,1.7490,2.3730,0,0.0000,0.0000,0.0000,0.0000,0.0000,0
14960,-0.0619,-0.0391,0.3352,0.0048,0.0069,0.0026,0.25,0.48,-0.08,0,3.663,-0.886,1.809,4.679,0.009,-0.013,0.998,0.000,0.000,0.000,0.3330,0,0,-0.20,0.99,-1.00,-0.0902,-0.0703,0.3356,0.1790,0.0085,0.3000,0.2577,-6.67,-16.45,2.51,2.6540,0.0000,1.0870,1.7490,2.3730,0,0.0000,0.0000,0.0000,0.0000,0.0000,0
15010,-0.0629,-0.0377,0.3342,-0.0015,0.0071,-0.0038,0.22,0.41,0.15,0,3.669,-0.822,1.647,3.636,0.012,-0.011,0.999,0.000,0.000,0.000,0.3320,0,0,-0.25,0.89,-0.75,-0.0910,-0.0702,0.3349,0.1785,0.0123,0.3000,0.2586,-6.79,-16.66,-4.48,2.6310,0.2790,1.0970,1.7460,2.3660,0,0.0000,0.0000,0.0000,0.0000,0.0000,0
15062,-0.0640,-0.0377,0.3330,-0.0071,0.0045,-0.0094,0.22,0.34,0.35,0,3.663,-0.489,3.804,4.004,0.006,-0.015,1.003,0.000,0.000,0.000,0.3310,0,1,-0.29,0.81,-0.57,-0.0919,-0.0704,0.3339,0.1780,0.0161,0.3000,0.2594,-7.16,-16.85,-10.58,2.6310,0.2790,1.0970,1.7460,2.3660,0,0.0000,0.0000,0.0000,0.0000,0.0000,0
15114,-0.0662,-0.0363,0.3318,-0.0136,0.0052,-0.0127,0.24,0.19,0.56,0,3.663,-2.356,4.012,3.480,0.008,-0.010,1.002,0.000,0.000,0.000,0.3310,1,0,-0.33,0.60,-0.37,-0.0912,-0.0691,0.3329,0.1775,0.0200,0.3000,0.2600,-7.27,-17.16,-16.70,2.5890,0.2820,1.0990,1.7440,2.3740,0,0.0000,0.0000,0.0000,0.0000,0.0000,0
15165,-0.0692,-0.0327,0.3309,-0.0199,0.0103,-0.0134,0.25,0.07,0.73,0,3.663,2.954,3.009,2.908,0.010,-0.014,1.002,0.000,0.000,0.000,0.3320,0,0,-0.45,0.39,-0.20,-0.0918,-0.0700,0.3321,0.1769,0.0238,0.3000,0.2602,-7.03,-17.52,-22.02,2.5890,0.2820,1.0990,1.7440,2.3740,0,0.0000,0.0000,0.0000,0.0000,0.0000,0
15216,-0.0693,-0.0331,0.3310,-0.0187,0.0063,-0.0093,0.30,-0.09,0.91,0,3.669,-0.429,3.344,1.651,0.011,-0.011,1.003,0.000,0.000,0.000,0.3320,0,0,-0.30,0.23,-0.05,-0.0925,-0.0705,0.3319,0.1762,0.0275,0.3000,0.2598,-7.51,-17.42,-27.36,2.5420,0.0000,1.0920,1.7420,2.3710,0,0.0000,0.0000,0.0000,0.0000,0.0000,0
15266,-0.0687,-0.0328,0.3311,-0.0145,0.0041,-0.0054,0.25,-0.27,1.02,0,3.663,1.907,2.092,1.196,0.009,-0.010,1.003,0.000,0.000,0.000,0.3300,0,0,-0.32,0.06,0.03,-0.0930,-0.0711,0.3318,0.1755,0.0313,0.3000,0.2593,-7.85,-17.13,-30.68,2.5420,0.0000,1.0920,1.7420,2.3710,0,0.0000,0.0000,0.0000,0.0000,0.0000,0
15317,-0.0702,-0.0326,0.3304,-0.0138,0.0019,-0.0061,0.26,-0.36,1.07,0,3.663,-0.448,0.130,0.140,0.008,-0.010,1.000,0.000,0.000,0.000,0.3300,1,0,-0.23,-0.04,0.09,-0.0932,-0.0719,0.3312,0.1747,0.0350,0.3000,0.2595,-8.19,-17.09,-32.04,2.4250,0.2780,1.0970,1.7550,2.3700,0,0.0000,0.0000,0.0000,0.0000,0.0000,0
15369,-0.0714,-0.0314,0.3300,-0.0120,0.0021,-0.0057,0.29,-0.36,1.09,0,3.663,1.057,-1.901,-1.363,0.011,-0.017,1.002,0.000,0.000,0.000,0.3310,0,0,-0.25,-0.05,0.10,-0.0931,-0.0725,0.3307,0.1738,0.0388,0.3000,0.2596,-8.35,-16.99,-32.65,2.4250,0.2780,1.0970,1.7550,2.3700,0,0.0000,0.0000,0.0000,0.0000,0.0000,0
15420,-0.0700,-0.0331,0.3303,-0.0048,-0.0038,-0.0027,0.27,-0.33,1.04,0,3.669,-6.535,-0.989,-1.205,0.009,-0.017,1.001,0.000,0.000,0.000,0.3260,0,0,-0.20,0.05,0.03,-0.0928,-0.0737,0.3307,0.1729,0.0425,0.3000,0.2592,-9.00,-16.50,-31.29,0.0000,0.0000,1.0950,1.7490,2.3680,0,0.0000,0.0000,0.0000,0.0000,0.0000,0
15472,-0.0704,-0.0348,0.3282,-0.0024,-0.0090,-0.0106,0.11,-0.27,0.98,0,3.663,-4.379,0.397,-1.875,0.006,-0.016,1.000,0.000,0.000,0.000,0.3310,0,0,-0.53,0.10,-0.03,-0.0923,-0.0753,0.3291,0.1720,0.0462,0.3000,0.2604,-9.56,-16.24,-29.39,0.0000,0.0000,1.0950,1.7490,2.3680,0,0.0000,0.0000,0.0000,0.0000,0.0000,0
15522,-0.0704,-0.0369,0.3292,0.0000,-0.0132,-0.0027,0.02,-0.26,0.91,0,3.669,-1.604,-0.664,-2.214,0.011,-0.013,1.001,0.000,0.000,0.000,0.3310,0,-1,-0.76,0.08,-0.13,-0.0917,-0.0770,0.3295,0.1709,0.0499,0.3000,0.2594,-10.18,-16.08,-27.22,0.0000,0.0000,1.1010,1.7450,2.3720,0,0.0000,0.0000,0.0000,0.0000,0.0000,0
15574,-0.0690,-0.0386,0.3299,0.0050,-0.0154,0.0018,-0.05,-0.23,0.82,0,3.663,-1.333,-0.733,-2.028,0.008,-0.015,0.995,0.000,0.000,0.000,0.3290,0,1,-0.88,0.11,-0.26,-0.0909,-0.0737,0.3299,0.1699,0.0536,0.3000,0.2588,-10.66,-15.69,-24.64,0.0000,0.0000,1.1010,1.7450,2.3720,0,0.0000,0.0000,0.0000,0.0000,0.0000,0
15626,-0.0670,-0.0398,0.3295,0.0102,-0.0159,-0.0011,-0.17,-0.17,0.73,0,3.669,-0.443,-1.681,-2.241,0.010,-0.014,0.997,0.000,0.000,0.000,0.3320,0,0,-0.95,0.16,-0.36,-0.0910,-0.0740,0.3294,0.1687,0.0573,0.3000,0.2591,-11.00,-15.18,-21.82,0.0000,0.0000,1.0990,1.7440,2.3750,0,0.0000,0.0000,0.0000,0.0000,0.0000,0
15677,-0.0653,-0.0388,0.3306,0.0138,-0.0114,0.0026,-0.21,-0.08,0.62,0,3.658,0.880,-3.225,-2.818,0.007,-0.016,0.999,0.000,0.000,0.000,0.3280,1,-2,-0.98,0.25,-0.48,-0.0901,-0.0744,0.3299,0.1675,0.0610,0.3000,0.2585,-10.98,-14.82,-18.66,0.0000,0.0000,1.0990,1.7440,2.3750,0,0.0000,0.0000,0.0000,0.0000,0.0000,0
15728,-0.0625,-0.0390,0.3294,0.0188,-0.0087,-0.0050,-0.20,0.04,0.50,0,3.669,-1.687,-2.689,-2.171,0.010,-0.011,0.992,0.000,0.000,0.000,0.3290,0,0,-0.91,0.39,-0.62,-0.0863,-0.0764,0.3291,0.1663,0.0646,0.3000,0.2596,-11.06,-14.22,-15.12,2.5250,0.0000,1.0930,1.7480,2.3720,0,0.0000,0.0000,0.0000,0.0000,0.0000,0
15780,-0.0609,-0.0388,0.3289,0.0199,-0.0057,-0.0083,-0.21,0.14,0.40,0,3.658,0.733,-3.141,-1.990,0.009,-0.014,0.994,0.000,0.000,0.000,0.3260,-1,-1,-1.00,0.53,-0.73,-0.0844,-0.0771,0.3285,0.1650,0.0683,0.3000,0.2600,-11.12,-13.90,-11.96,2.5250,0.0000,1.0930,1.7480,2.3720,0,0.0000,0.0000,0.0000,0.0000,0.0000,0
15830,-0.0598,-0.0402,0.3272,0.0188,-0.0061,-0.0163,-0.23,0.26,0.30,0,3.663,-4.091,-0.227,-1.354,0.008,-0.016,1.001,0.000,0.000,0.000,0.3220,0,0,-0.99,0.70,-0.83,-0.0829,-0.0745,0.3271,0.1636,0.0718,0.3000,0.2612,-11.41,-13.68,-9.01,0.0000,0.0000,1.0910,1.7440,2.3710,0,0.0000,0.0000,0.0000,0.0000,0.0000,0
15882,-0.0594,-0.0378,0.3241,0.0155,0.0011,-0.0274,-0.27,0.35,0.21,0,3.653,-1.071,0.391,-1.529,0.010,-0.014,1.002,0.000,0.000,0.000,0.3240,0,-1,-1.19,0.71,-0.90,-0.0812,-0.0742,0.3247,0.1622,0.0754,0.3000,0.2630,-11.07,-13.58,-6.43,0.0000,0.0000,1.0910,1.7440,2.3710,0,0.0000,0.0000,0.0000,0.0000,0.0000,0
15933,-0.0595,-0.0371,0.3231,0.0107,0.0049,-0.0252,-0.22,0.34,0.12,0,3.663,2.414,0.803,-1.552,0.009,-0.014,1.003,0.000,0.000,0.000,0.3210,0,0,-1.24,0.69,-0.98,-0.0796,-0.0745,0.3236,0.1607,0.0789,0.3000,0.2630,-11.07,-13.66,-3.54,2.5830,0.2720,1.0990,1.7510,2.3770,0,0.0000,0.0000,0.0000,0.0000,0.0000,0
15984,-0.0554,-0.0369,0.3211,0.0150,0.0064,-0.0269,-0.10,0.35,0.06,0,3.653,0.211,2.398,-0.991,0.009,-0.012,1.010,0.000,0.000,0.000,0.3190,0,1,-1.12,0.65,-1.06,-0.0780,-0.0741,0.3219,0.1592,0.0825,0.3000,0.2635,-11.19,-13.02,-1.77,2.5830,0.2720,1.0990,1.7510,2.3770,0,0.0000,0.0000,0.0000,0.0000,0.0000,0
16036,-0.0530,-0.0354,0.3192,0.0155,0.0098,-0.0261,-0.06,0.36,0.01,0,3.663,1.241,-0.509,-1.313,0.009,-0.016,1.011,0.000,0.000,0.000,0.3200,0,-1,-1.09,0.57,-1.13,-0.0818,-0.0745,0.3203,0.1576,0.0860,0.3000,0.2638,-11.14,-12.67,-0.40,2.5730,0.2620,1.0950,1.7370,2.3810,0,0.0000,0.0000,0.0000,0.0000,0.0000,0
16087,-0.0508,-0.0318,0.3186,0.0156,0.0168,-0.0192,-0.05,0.27,-0.04,0,3.653,4.172,-2.753,-1.448,0.009,-0.015,1.009,0.000,0.000,0.000,0.3170,0,-1,-1.03,0.59,-1.20,-0.0801,-0.0743,0.3197,0.1560,0.0895,0.3000,0.2632,-10.82,-12.40,1.06,2.5730,0.2620,1.0950,1.7370,2.3810,0,0.0000,0.0000,0.0000,0.0000,0.0000,0
16139,-0.0496,-0.0307,0.3172,0.0141,0.0175,-0.0179,0.15,0.30,-0.08,0,3.663,-0.965,-0.962,-1.686,0.010,-0.014,1.005,0.000,0.000,0.000,0.3200,0,0,-0.81,0.72,-1.27,-0.0780,-0.0742,0.3185,0.1543,0.0930,0.3000,0.2633,-10.92,-12.22,2.27,2.5470,0.0000,1.0900,1.7470,2.3730,0,0.0000,0.0000,0.0000,0.0000,0.0000,0
16189,-0.0486,-0.0277,0.3179,0.0121,0.0215,-0.0077,0.15,0.30,-0.11,0,3.658,2.734,0.109,0.029,0.012,-0.014,1.006,0.000,0.000,0.000,0.3210,4,0,-0.86,0.77,-1.35,-0.0772,-0.0738,0.3187,0.1526,0.0964,0.3000,0.2620,-10.79,-12.15,3.18,2.5470,0.0000,1.0900,1.7470,2.3730,0,0.0000,0.0000,0.0000,0.0000,0.0000,0
16241,-0.0471,-0.0310,0.3192,0.0115,0.0121,0.0034,0.24,0.30,-0.13,0,3.663,0.037,1.407,-0.184,0.008,-0.014,1.002,0.000,0.000,0.000,0.3210,-1,0,-0.62,0.78,-1.43,-0.0784,-0.0875,0.3194,0.1508,0.0998,0.3000,0.2606,-11.71,-11.97,3.77,2.5390,0.2600,1.0950,1.7380,2.3800,0,0.0000,0.0000,0.0000,0.0000,0.0000,0
16292,-0.0469,-0.0295,0.3202,0.0084,0.0128,0.0076,0.21,0.23,-0.14,0,3.658,-0.800,1.354,0.198,0.011,-0.014,0.996,0.000,0.000,0.000,0.3220,-1,0,-0.64,0.71,-1.42,-0.0783,-0.0867,0.3201,0.1490,0.1031,0.3000,0.2600,-11.81,-11.96,4.05,2.5390,0.2600,1.0950,1.7380,2.3800,0,0.0000,0.0000,0.0000,0.0000,0.0000,0
16342,-0.0488,-0.0278,0.3213,0.0018,0.0129,0.0108,0.26,0.14,-0.13,0,3.663,-0.523,3.954,0.443,0.012,-0.017,0.997,0.000,0.000,0.000,0.3160,0,0,-0.71,0.64,-1.39,-0.0782,-0.0853,0.3209,0.1471,0.1064,0.3000,0.2594,-11.91,-12.25,3.89,2.5060,0.2550,1.0920,1.7450,2.3890,0,0.0000,0.0000,0.0000,0.0000,0.0000,0
16393,-0.0485,-0.0263,0.3193,0.0013,0.0124,-0.0030,0.30,0.04,-0.12,0,3.653,-0.147,-1.011,0.461,0.005,-0.017,0.995,0.000,0.000,0.000,0.3180,0,0,-0.74,0.44,-1.37,-0.0780,-0.0867,0.3194,0.1452,0.1097,0.3000,0.2613,-11.96,-11.99,3.50,2.5060,0.2550,1.0920,1.7450,2.3890,0,0.0000,0.0000,0.0000,0.0000,0.0000,0
16445,-0.0483,-0.0262,0.3185,0.0014,0.0088,-0.0069,0.30,-0.01,-0.11,0,3.663,0.021,2.556,-1.158,0.008,-0.011,0.997,0.000,0.000,0.000,0.3190,0,0,-0.74,0.49,-1.34,-0.0779,-0.0883,0.3187,0.1432,0.1130,0.3000,0.2618,-12.28,-11.77,3.35,2.4550,0.2630,1.0910,1.7490,2.3800,0,0.0000,0.0000,0.0000,0.0000,0.0000,0
16496,-0.0479,-0.0261,0.3184,0.0024,0.0057,-0.0067,0.26,-0.10,-0.14,0,3.653,-0.997,3.768,-0.108,0.007,-0.012,0.999,0.000,0.000,0.000,0.3160,0,0,-0.74,0.36,-1.40,-0.0778,-0.0897,0.3184,0.1411,0.1163,0.3000,0.2618,-12.61,-11.52,4.19,2.4550,0.2630,1.0910,1.7490,2.3800,0,0.0000,0.0000,0.0000,0.0000,0.0000,0
16547,-0.0473,-0.0247,0.3170,0.0043,0.0059,-0.0128,0.23,-0.19,-0.17,0,3.658,1.282,1.170,-0.353,0.009,-0.012,1.001,0.000,0.000,0.000,0.3160,0,-1,-0.79,0.17,-1.41,-0.0777,-0.0911,0.3172,0.1390,0.1195,0.3000,0.2627,-12.65,-11.17,5.15,2.4000,0.0000,1.0870,1.7460,2.3810,0,0.0000,0.0000,0.0000,0.0000,0.0000,0
16599,-0.0484,-0.0212,0.3160,0.0032,0.0107,-0.0145,0.29,-0.23,-0.20,0,3.653,0.060,-1.828,-0.913,0.007,-0.014,1.003,0.000,0.000,0.000,0.3160,-8,0,-0.77,0.10,-1.42,-0.0755,-0.0854,0.3164,0.1369,0.1227,0.3000,0.2631,-12.37,-11.10,6.12,2.4000,0.0000,1.0870,1.7460,2.3810,0,0.0000,0.0000,0.0000,0.0000,0.0000,0
16649,-0.0479,-0.0254,0.3155,0.0055,-0.0011,-0.0125,0.18,-0.14,-0.25,0,3.658,-1.309,-0.565,-1.463,0.006,-0.013,1.003,0.000,0.000,0.000,0.3150,0,0,-0.82,0.19,-1.47,-0.0748,-0.0789,0.3155,0.1347,0.1258,0.3000,0.2630,-13.37,-10.78,7.39,0.0000,0.2740,1.0830,1.7430,2.3850,0,0.0000,0.0000,0.0000,0.0000,0.0000,0
16701,-0.0480,-0.0163,0.3148,0.0058,0.0156,-0.0112,0.08,-0.12,-0.33,0,3.653,2.630,0.195,-1.397,0.009,-0.016,1.006,0.000,0.000,0.000,0.3120,0,0,-0.89,0.22,-1.55,-0.0740,-0.0773,0.3149,0.1325,0.1290,0.3000,0.2630,-12.19,-10.57,9.90,0.0000,0.2740,1.0830,1.7430,2.3850,0,0.0000,0.0000,0.0000,0.0000,0.0000,0
16752,-0.0467,-0.0153,0.3131,0.0089,0.0153,-0.0136,0.13,-0.12,-0.43,0,3.658,0.448,-3.071,-1.843,0.005,-0.018,1.005,0.000,0.000,0.000,0.3140,-1,0,-0.75,0.21,-1.62,-0.0731,-0.0758,0.3137,0.1302,0.1321,0.3000,0.2636,-12.29,-10.13,12.78,2.3700,0.0000,1.0910,1.7420,2.3970,0,0.0000,0.0000,0.0000,0.0000,0.0000,0
16804,-0.0430,-0.0156,0.3130,0.0166,0.0120,-0.0095,0.16,-0.05,-0.51,0,3.653,-1.369,-4.115,-1.605,0.009,-0.014,1.003,0.000,0.000,0.000,0.3140,1,0,-0.72,0.39,-1.70,-0.0742,-0.0752,0.3136,0.1278,0.1352,0.3000,0.2631,-12.65,-9.34,15.43,2.3700,0.0000,1.0910,1.7420,2.3970,0,0.0000,0.0000,0.0000,0.0000,0.0000,0
16855,-0.0429,-0.0140,0.3132,0.0152,0.0127,-0.0042,0.12,0.12,-0.60,0,3.658,1.073,-1.457,-1.795,0.010,-0.018,1.005,0.000,0.000,0.000,0.3120,1,0,-0.77,0.61,-1.78,-0.0740,-0.0755,0.3135,0.1254,0.1382,0.3000,0.2625,-12.71,-9.21,18.13,2.5020,0.0000,1.0820,1.7490,2.3880,0,0.0000,0.0000,0.0000,0.0000,0.0000,0
16907,-0.0425,-0.0137,0.3125,0.0134,0.0111,-0.0039,0.15,0.20,-0.70,0,3.648,-0.195,-0.549,-1.064,0.007,-0.012,1.004,0.000,0.000,0.000,0.3130,-1,0,-0.70,0.68,-1.87,-0.0738,-0.0764,0.3130,0.1230,0.1412,0.3000,0.2626,-12.92,-9.06,20.87,2.5020,0.0000,1.0820,1.7490,2.3880,0,0.0000,0.0000,0.0000,0.0000,0.0000,0
16958,-0.0403,-0.0149,0.3127,0.0146,0.0065,-0.0009,0.14,0.21,-0.75,0,3.653,-2.658,36.734,-0.736,0.001,-0.013,1.002,0.000,0.000,0.000,0.3130,-2,0,-0.73,0.71,-1.92,-0.0736,-0.0747,0.3130,0.1205,0.1441,0.3000,0.2623,-13.39,-8.66,22.50,2.4970,0.2540,1.0870,1.7450,2.3870,0,0.0000,0.0000,0.0000,0.0000,0.0000,0
17009,-0.0384,-0.0160,0.3128,0.0163,0.0023,0.0009,0.07,-1.24,-0.77,0,3.653,-1.006,85.140,-1.561,0.011,-0.013,1.004,0.000,0.000,0.000,0.3090,1,10,-0.89,-1.16,-1.98,-0.0736,-0.0710,0.3131,0.1180,0.1470,0.3000,0.2621,-13.83,-8.25,23.00,2.4970,0.2540,1.0870,1.7450,2.3870,0,0.0000,0.0000,0.0000,0.0000,0.0000,0
17060,-0.0339,-0.0135,0.3110,0.0402,0.0064,-0.0069,0.06,-5.23,-0.83,0,3.658,1.573,30.040,-1.070,0.012,-0.013,1.007,0.000,0.000,0.000,0.3150,-1,0,-0.92,-5.33,-2.07,-0.0931,-0.0717,0.3142,0.1154,0.1499,0.3000,0.2632,-13.58,-6.58,24.91,0.0000,0.0000,1.0910,1.7490,2.4000,0,0.0000,0.0000,0.0000,0.0000,0.0000,0
17112,-0.0394,-0.0139,0.3127,0.0720,0.0041,0.0019,0.05,-7.28,-0.90,0,3.648,-0.863,-0.960,0.265,0.003,-0.014,1.001,0.000,0.000,0.000,0.3120,0,-2,-0.87,-6.87,-2.19,-0.0936,-0.0692,0.3148,0.1128,0.1527,0.3000,0.2620,-13.92,-5.29,26.88,0.0000,0.0000,1.0910,1.7490,2.4000,0,0.0000,0.0000,0.0000,0.0000,0.0000,0
17162,-0.0356,-0.0149,0.3124,0.1318,0.0002,-0.0015,0.05,-7.37,-0.89,0,3.658,-0.690,3.622,2.223,-0.000,-0.012,1.005,0.000,0.000,0.000,0.3150,0,-7,-0.90,-6.85,-2.13,-0.0884,-0.0692,0.3139,0.1102,0.1554,0.3000,0.2624,-14.29,-1.99,26.63,0.9090,0.0000,1.0840,1.7440,2.4220,0,0.0000,0.0000,0.0000,0.0000,0.0000,0
17214,-0.0284,-0.0145,0.3135,0.1927,-0.0004,0.0013,0.05,-7.53,-0.79,0,3.648,3.077,-2.839,2.067,-0.002,-0.015,1.002,0.000,0.000,0.000,0.3120,-1,-1,-0.91,-7.12,-1.99,-0.0700,-0.0695,0.3125,0.1075,0.1582,0.3000,0.2619,-14.47,1.62,23.84,0.9090,0.0000,1.0840,1.7440,2.4220,0,0.0000,0.0000,0.0000,0.0000,0.0000,0
17265,-0.0099,-0.0163,0.3127,0.2724,-0.0055,-0.0062,0.14,-7.45,-0.68,0,3.653,-0.402,-17.124,3.744,-0.001,-0.013,1.005,0.000,0.000,0.000,0.3110,-1,-5,-0.76,-6.93,-2.00,-0.0657,-0.0669,0.3133,0.1047,0.1609,0.3000,0.2628,-14.91,6.88,20.49,0.8890,0.1870,1.0830,0.0000,2.4200,0,0.0000,0.0000,0.0000,0.0000,0.0000,0
17316,0.0032,-0.0151,0.3116,0.3306,-0.0040,-0.0122,0.13,-6.66,-0.54,0,3.648,-1.212,-30.391,4.886,-0.007,-0.011,1.002,0.000,0.000,0.000,0.3140,0,-12,-0.78,-6.07,-1.91,-0.0505,-0.0645,0.3120,0.1020,0.1636,0.3000,0.2637,-14.85,10.64,16.22,0.8890,0.1870,1.0830,0.0000,2.4200,0,0.0000,0.0000,0.0000,0.0000,0.0000,0
17368,0.0172,-0.0157,0.3123,0.3765,-0.0066,-0.0069,0.15,-5.12,-0.33,0,3.653,-2.571,-33.776,5.742,-0.004,-0.014,1.003,0.000,0.000,0.000,0.3110,0,-5,-0.81,-4.65,-1.56,-0.0152,-0.0652,0.3091,0.0992,0.1662,0.3000,0.2630,-15.18,13.90,9.77,0.9030,0.1960,1.0740,1.7200,2.4130,0,0.0000,0.0000,0.0000,0.0000,0.0000,0
17419,0.0382,-0.0190,0.3114,0.4201,-0.0150,-0.0105,0.21,-3.41,-0.05,0,3.648,-6.281,-39.568,7.883,-0.007,-0.014,1.003,0.000,0.000,0.000,0.3080,3,-13,-0.90,-2.86,-1.14,0.0007,-0.0654,0.3101,0.0963,0.1687,0.3000,0.2636,-15.86,17.36,1.52,0.9030,0.1960,1.0740,1.7200,2.4130,0,0.0000,0.0000,0.0000,0.0000,0.0000,0
17469,0.0538,-0.0226,0.3095,0.4323,-0.0235,-0.0160,0.15,-1.41,0.29,0,3.653,-9.374,-49.996,6.028,-0.011,-0.013,1.005,0.000,0.000,0.000,0.3080,0,-8,-1.13,-0.96,-0.11,0.0392,-0.0740,0.3064,0.0935,0.1713,0.3000,0.2645,-16.53,19.02,-8.79,1.0440,0.1940,1.0720,1.8110,2.3970,0,0.0000,0.0000,0.0000,0.0000,0.0000,0
17520,0.0769,-0.0244,0.3082,0.4431,-0.0246,-0.0156,-0.32,0.94,0.61,0,3.642,-5.151,-32.791,6.659,-0.009,-0.009,1.010,0.000,0.000,0.000,0.3030,-4,-7,-1.61,1.53,0.20,0.0644,-0.0740,0.3061,0.0906,0.1737,0.3000,0.2647,-16.80,21.09,-18.18,1.0440,0.1940,1.0720,1.8110,2.3970,0,0.0000,0.0000,0.0000,0.0000,0.0000,0
17571,0.1000,-0.0295,0.3052,0.4340,-0.0315,-0.0216,-0.56,2.71,0.99,0,3.648,-1.972,-9.702,4.484,-0.004,-0.007,1.010,0.000,0.000,0.000,0.3070,0,-10,-1.94,3.22,0.09,0.0852,-0.0627,0.3049,0.0876,0.1761,0.3000,0.2659,-17.47,22.23,-29.57,0.0000,0.0000,1.0700,1.8340,2.3980,0,0.0000,0.0000,0.0000,0.0000,0.0000,0
17623,0.1190,-0.0304,0.3053,0.4035,-0.0256,-0.0121,-0.67,3.39,1.26,0,3.642,-5.818,-10.861,3.814,-0.002,-0.019,1.011,0.000,0.000,0.000,0.3040,5,-4,-2.05,3.66,0.42,0.1164,-0.0623,0.3043,0.0846,0.1786,0.3000,0.2649,-17.46,22.44,-37.72,0.0000,0.0000,1.0700,1.8340,2.3980,0,0.0000,0.0000,0.0000,0.0000,0.0000,0
17675,0.1376,-0.0327,0.3043,0.3713,-0.0230,-0.0106,-0.91,3.97,1.46,0,3.648,-2.845,-12.598,3.840,0.001,-0.011,1.008,0.000,0.000,0.000,0.3050,4,-8,-2.26,4.27,0.76,0.1288,-0.0776,0.3057,0.0815,0.1809,0.3000,0.2649,-17.61,22.48,-43.80,2.5820,0.1500,1.0700,1.8440,2.4030,0,0.0000,0.0000,0.0000,0.0000,0.0000,0
17727,0.1519,-0.0374,0.3043,0.3268,-0.0253,-0.0052,-1.01,4.60,1.66,0,3.642,-5.632,-6.362,2.759,-0.004,-0.015,1.007,0.000,0.000,0.000,0.3080,2,-4,-2.36,4.88,1.00,0.1535,-0.0898,0.3053,0.0784,0.1833,0.3000,0.2643,-18.16,21.81,-49.80,2.5820,0.1500,1.0700,1.8440,2.4030,0,0.0000,0.0000,0.0000,0.0000,0.0000,0
17778,0.1685,-0.0398,0.3059,0.2895,-0.0201,0.0058,-1.23,4.95,1.79,0,3.653,-4.789,-12.560,2.260,0.001,-0.014,1.008,0.000,0.000,0.000,0.3090,1,-3,-2.63,5.24,1.04,0.1656,-0.0961,0.3065,0.0752,0.1855,0.3000,0.2628,-18.29,21.64,-53.68,2.5960,0.1440,1.0630,1.7810,2.4070,0,0.0000,0.0000,0.0000,0.0000,0.0000,0
17829,0.1796,-0.0399,0.3077,0.2397,-0.0081,0.0133,-1.51,5.56,1.91,0,3.648,2.212,-1.780,1.573,-0.000,-0.015,1.004,0.000,0.000,0.000,0.3130,1,-2,-2.87,5.90,1.10,0.1750,-0.0993,0.3078,0.0721,0.1877,0.3000,0.2617,-17.96,20.58,-57.28,2.5960,0.1440,1.0630,1.7810,2.4070,0,0.0000,0.0000,0.0000,0.0000,0.0000,0
17881,0.1875,-0.0384,0.3106,0.1972,0.0063,0.0242,-1.42,5.84,1.98,0,3.653,2.366,9.259,2.317,0.005,-0.019,1.001,0.000,0.000,0.000,0.3080,2,-2,-2.74,6.01,1.06,0.1816,-0.1028,0.3099,0.0689,0.1899,0.3000,0.2599,-17.45,19.65,-59.46,2.5890,0.0000,1.0590,0.0000,2.4030,0,0.0000,0.0000,0.0000,0.0000,0.0000,0
17933,0.1945,-0.0395,0.3102,0.1424,0.0123,0.0135,-1.25,5.47,2.07,0,3.648,8.347,15.754,1.398,0.008,-0.017,0.996,0.000,0.000,0.000,0.3090,-4,1,-2.57,5.54,0.91,0.1875,-0.1100,0.3099,0.0656,0.1920,0.3000,0.2612,-17.28,17.91,-62.04,2.5890,0.0000,1.0590,0.0000,2.4030,0,0.0000,0.0000,0.0000,0.0000,0.0000,0
17983,0.2009,-0.0382,0.3101,0.0852,0.0238,0.0055,-0.94,4.76,2.14,0,3.648,3.041,25.727,3.142,0.006,-0.018,1.000,0.000,0.000,0.000,0.3070,-5,1,-2.27,4.75,1.47,0.1840,-0.0953,0.3098,0.0624,0.1940,0.3000,0.2620,-16.74,16.04,-64.11,2.5600,0.1420,1.0520,0.4920,2.4160,0,0.0000,0.0000,0.0000,0.0000,0.0000,0
18035,0.2037,-0.0362,0.3088,0.0533,0.0320,-0.0036,-0.84,3.46,2.33,0,3.637,5.543,27.221,1.974,0.012,-0.018,1.004,0.000,0.000,0.000,0.3000,0,1,-2.24,3.47,2.17,0.1809,-0.0775,0.3086,0.0591,0.1961,0.3000,0.2633,-16.27,14.99,-69.77,2.5600,0.1420,1.0520,0.4920,2.4160,0,0.0000,0.0000,0.0000,0.0000,0.0000,0
18087,0.2048,-0.0315,0.3046,0.0202,0.0457,-0.0225,-0.60,2.27,2.46,0,3.642,11.106,2.505,2.682,0.010,-0.018,1.011,0.000,0.000,0.000,0.2990,-1,0,-1.91,2.07,1.93,0.1775,-0.0793,0.3062,0.0558,0.1980,0.3000,0.2661,-15.30,13.72,-73.86,2.4230,0.0000,1.0350,0.4980,2.4070,0,0.0000,0.0000,0.0000,0.0000,0.0000,0
18137,0.2053,-0.0251,0.3010,-0.0041,0.0590,-0.0286,-0.09,2.03,2.58,0,3.632,12.664,2.745,1.790,0.011,-0.018,1.020,0.000,0.000,0.000,0.2970,-1,0,-1.33,1.93,2.03,0.1777,-0.0768,0.3041,0.0525,0.1999,0.3000,0.2675,-14.31,12.86,-77.42,2.4230,0.0000,1.0350,0.4980,2.4070,0,0.0000,0.0000,0.0000,0.0000,0.0000,0
18188,0.2050,-0.0200,0.2984,-0.0181,0.0662,-0.0299,0.51,1.80,2.70,0,3.637,9.178,28.793,2.127,0.008,-0.023,1.023,0.000,0.000,0.000,0.2940,-2,2,-0.69,1.78,2.09,0.1779,-0.0740,0.3022,0.0491,0.2018,0.3000,0.2681,-13.71,12.44,-81.04,2.2890,0.1480,1.0230,0.5120,2.4050,0,0.0000,0.0000,0.0000,0.0000,0.0000,0
18239,0.2027,-0.0163,0.2955,-0.0365,0.0628,-0.0280,0.97,0.56,2.83,0,3.637,7.511,21.113,0.764,0.011,-0.020,1.029,0.000,0.000,0.000,0.2900,0,5,-0.24,0.33,2.23,0.1716,-0.0682,0.3001,0.0458,0.2035,0.3000,0.2684,-13.69,11.71,-85.04,2.2890,0.1480,1.0230,0.5120,2.4050,0,0.0000,0.0000,0.0000,0.0000,0.0000,0
18291,0.2020,-0.0138,0.2922,-0.0374,0.0527,-0.0245,1.28,-0.59,2.87,0,3.642,3.139,7.375,1.242,0.007,-0.016,1.029,0.000,0.000,0.000,0.2910,-2,1,0.17,-0.67,2.07,0.1560,-0.0700,0.2978,0.0423,0.2053,0.3000,0.2687,-14.02,11.86,-86.17,0.0000,0.0000,1.0110,0.5270,2.4010,0,0.0000,0.0000,0.0000,0.0000,0.0000,0
18341,0.1981,-0.0138,0.2910,-0.0380,0.0348,-0.0124,1.54,-1.07,2.89,0,3.637,3.578,3.430,-0.108,0.012,-0.020,1.030,0.000,0.000,0.000,0.2900,-3,1,0.31,-1.07,2.21,0.1535,-0.0639,0.2969,0.0389,0.2070,0.3000,0.2676,-14.91,11.88,-86.67,0.0000,0.0000,1.0110,0.5270,2.4010,0,0.0000,0.0000,0.0000,0.0000,0.0000,0
18392,0.1976,-0.0070,0.2904,-0.0246,0.0372,-0.0005,1.55,-1.35,2.91,0,3.642,-0.257,-8.937,-2.553,0.011,-0.019,1.023,0.000,0.000,0.000,0.2930,0,-1,0.45,-1.24,2.29,0.1504,-0.0548,0.2964,0.0354,0.2086,0.3000,0.2664,-14.50,12.74,-87.44,0.8810,0.0000,0.9990,0.5310,2.4040,0,0.0000,0.0000,0.0000,0.0000,0.0000,0
18444,0.1965,-0.0037,0.2918,-0.0128,0.0293,0.0170,1.51,-0.94,2.80,0,3.637,2.843,-10.713,-2.196,0.007,-0.013,1.019,0.000,0.000,0.000,0.2940,1,0,0.46,-0.82,2.11,0.1537,-0.0550,0.2974,0.0319,0.2102,0.3000,0.2643,-14.80,13.55,-84.00,0.8810,0.0000,0.9990,0.5310,2.4040,0,0.0000,0.0000,0.0000,0.0000,0.0000,0
18494,0.1974,-0.0021,0.2937,-0.0001,0.0186,0.0309,1.60,-0.43,2.65,0,3.642,-1.974,7.700,-3.818,0.005,-0.015,1.011,0.000,0.000,0.000,0.2990,-1,0,0.63,-0.27,1.96,0.1540,-0.0584,0.2986,0.0285,0.2117,0.3000,0.2624,-15.31,14.51,-79.47,0.9810,0.0000,0.9950,0.5380,2.3990,0,0.0000,0.0000,0.0000,0.0000,0.0000,0
18546,0.1997,0.0005,0.2974,0.0112,0.0105,0.0476,1.55,-0.70,2.48,0,3.642,0.759,5.035,-5.380,0.008,-0.018,1.007,0.000,0.000,0.000,0.2980,-1,0,0.52,-0.66,1.78,0.1539,-0.0554,0.3012,0.0249,0.2132,0.3000,0.2599,-15.70,15.56,-74.36,0.9810,0.0000,0.9950,0.5380,2.3990,0,0.0000,0.0000,0.0000,0.0000,0.0000,0
18597,0.2004,0.0023,0.2995,0.0176,0.0019,0.0491,1.59,-0.94,2.23,0,3.648,-1.119,-15.044,-5.855,0.006,-0.013,0.997,0.000,0.000,0.000,0.3030,0,-1,0.53,-0.92,1.49,0.1539,-0.0524,0.3028,0.0213,0.2146,0.3000,0.2594,-16.04,16.18,-67.03,0.0000,0.0000,0.9870,0.5430,2.3930,0,0.0000,0.0000,0.0000,0.0000,0.0000,0
18649,0.2006,0.0020,0.3029,0.0234,-0.0114,0.0535,1.54,-0.33,1.93,0,3.642,-7.125,-14.734,-6.138,0.007,-0.021,0.997,0.000,0.000,0.000,0.3090,0,-4,0.47,-0.17,1.16,0.1569,-0.0525,0.3053,0.0177,0.2160,0.3000,0.2582,-16.76,16.77,-57.98,0.0000,0.0000,0.9870,0.5430,2.3930,0,0.0000,0.0000,0.0000,0.0000,0.0000,0
18699,0.2029,0.0024,0.3076,0.0294,-0.0204,0.0621,1.28,0.40,1.60,0,3.653,-0.620,3.544,-6.882,0.007,-0.016,0.988,0.000,0.000,0.000,0.3130,-1,0,0.10,0.52,0.68,0.1688,-0.0529,0.3087,0.0141,0.2173,0.3000,0.2564,-17.28,17.55,-48.14,0.0000,0.0000,0.9830,0.5420,2.3930,0,0.0000,0.0000,0.0000,0.0000,0.0000,0
18751,0.2071,0.0007,0.3123,0.0345,-0.0323,0.0647,1.04,0.28,1.29,0,3.648,-6.955,5.934,-7.128,0.006,-0.018,0.984,0.000,0.000,0.000,0.3130,0,0,0.05,0.36,0.37,0.1691,-0.0500,0.3125,0.0105,0.2186,0.3000,0.2552,-18.03,18.39,-38.72,0.0000,0.0000,0.9830,0.5420,2.3930,0,0.0000,0.0000,0.0000,0.0000,0.0000,0
18803,0.2083,0.0002,0.3148,0.0311,-0.0373,0.0546,0.71,0.02,0.94,0,3.653,-7.469,-16.716,-7.479,0.010,-0.013,0.979,0.000,0.000,0.000,0.3180,0,-2,-0.31,0.06,-0.01,0.1719,-0.0508,0.3147,0.0068,0.2198,0.3000,0.2559,-18.27,18.53,-28.23,2.1840,0.0000,0.9920,0.5320,2.3790,0,0.0000,0.0000,0.0000,0.0000,0.0000,0
18854,0.2099,-0.0027,0.3181,0.0308,-0.0460,0.0492,0.39,0.67,0.57,0,3.648,-5.896,-16.312,-6.894,0.009,-0.019,0.976,0.000,0.000,0.000,0.3230,2,-1,-0.71,0.93,-0.40,0.1752,-0.0490,0.3172,0.0031,0.2209,0.3000,0.2558,-18.87,18.88,-17.12,2.1840,0.0000,0.9920,0.5320,2.3790,0,0.0000,0.0000,0.0000,0.0000,0.0000,0
18904,0.2116,-0.0043,0.3219,0.0260,-0.0472,0.0458,0.11,1.47,0.21,0,3.653,-6.996,-0.702,-6.681,0.007,-0.009,0.980,0.000,0.000,0.000,0.3220,1,-1,-0.98,1.76,-0.74,0.1783,-0.0538,0.3201,-0.0005,0.2220,0.3000,0.2555,-19.08,19.06,-6.32,2.3780,0.0000,0.9980,0.5310,2.3760,0,0.0000,0.0000,0.0000,0.0000,0.0000,0
18955,0.2143,-0.0048,0.3234,0.0186,-0.0431,0.0316,-0.14,1.56,-0.14,0,3.642,-8.185,1.893,-6.968,0.007,-0.013,0.978,0.000,0.000,0.000,0.3230,0,0,-1.31,1.80,-1.08,0.1812,-0.0566,0.3215,-0.0042,0.2230,0.3000,0.2567,-18.87,19.08,4.16,2.3780,0.0000,0.9980,0.5310,2.3760,0,0.0000,0.0000,0.0000,0.0000,0.0000,0
19006,0.2153,-0.0090,0.3241,0.0065,-0.0474,0.0177,-0.25,1.49,-0.49,0,3.648,-10.826,8.840,-6.315,0.006,-0.014,0.979,0.000,0.000,0.000,0.3260,-1,0,-1.72,1.71,-1.44,0.1831,-0.0579,0.3222,-0.0079,0.2240,0.3000,0.2581,-19.25,18.78,14.65,2.4360,0.0000,1.0060,0.5330,2.3820,0,0.0000,0.0000,0.0000,0.0000,0.0000,0
19058,0.2160,-0.0123,0.3254,-0.0039,-0.0473,0.0102,-0.67,0.97,-0.82,0,3.642,-2.024,12.536,-6.677,0.009,-0.014,0.983,0.000,0.000,0.000,0.3240,2,4,-2.30,1.29,-1.72,0.1814,-0.0524,0.3231,-0.0116,0.2249,0.3000,0.2586,-19.43,18.60,24.68,2.4360,0.0000,1.0060,0.5330,2.3820,0,0.0000,0.0000,0.0000,0.0000,0.0000,0
19109,0.2167,-0.0122,0.3250,-0.0094,-0.0363,-0.0011,-0.79,0.36,-1.16,0,3.648,-2.581,-1.264,-6.251,0.011,-0.016,0.985,0.000,0.000,0.000,0.3230,-1,0,-2.37,0.72,-2.16,0.1725,-0.0565,0.3231,-0.0154,0.2258,0.3000,0.2600,-18.88,18.58,34.66,2.3730,0.1500,1.0140,0.5520,2.3780,0,0.0000,0.0000,0.0000,0.0000,0.0000,0
19160,0.2135,-0.0145,0.3239,-0.0189,-0.0310,-0.0121,-0.91,0.40,-1.47,0,3.637,-2.225,-10.219,-5.360,0.008,-0.015,0.991,0.000,0.000,0.000,0.3250,2,-1,-2.51,0.79,-2.45,0.1722,-0.0539,0.3222,-0.0191,0.2266,0.3000,0.2613,-18.71,18.13,44.06,2.3730,0.1500,1.0140,0.5520,2.3780,0,0.0000,0.0000,0.0000,0.0000,0.0000,0
19211,0.2133,-0.0178,0.3238,-0.0201,-0.0283,-0.0138,-0.97,0.80,-1.72,0,3.642,-1.685,-0.180,-4.123,0.011,-0.013,0.991,0.000,0.000,0.000,0.3200,0,0,-2.57,1.30,-2.72,0.1741,-0.0586,0.3224,-0.0229,0.2273,0.3000,0.2615,-18.79,18.30,51.52,2.3380,0.0000,1.0180,0.5860,2.3820,0,0.0000,0.0000,0.0000,0.0000,0.0000,0
19262,0.2135,-0.0213,0.3215,-0.0233,-0.0253,-0.0262,-1.05,0.85,-1.91,0,3.637,-6.388,2.527,-1.991,0.011,-0.013,0.998,0.000,0.000,0.000,0.3200,0,0,-2.65,1.31,-2.93,0.1732,-0.0573,0.3205,-0.0266,0.2280,0.3000,0.2633,-18.77,18.31,57.24,2.3380,0.0000,1.0180,0.5860,2.3820,0,0.0000,0.0000,0.0000,0.0000,0.0000,0
19313,0.2126,-0.0227,0.3198,-0.0292,-0.0169,-0.0299,-1.26,0.76,-2.02,0,3.642,1.791,-0.274,-1.789,0.007,-0.016,1.002,0.000,0.000,0.000,0.3180,-2,1,-2.98,1.19,-3.04,0.1720,-0.0552,0.3191,-0.0304,0.2287,0.3000,0.2640,-18.45,18.21,60.58,2.3610,0.0000,1.0230,0.6350,2.3820,0,0.0000,0.0000,0.0000,0.0000,0.0000,0
19365,0.2116,-0.0232,0.3179,-0.0339,-0.0059,-0.0325,-1.24,0.69,-2.06,0,3.637,-0.216,-0.298,2.136,0.010,-0.011,1.004,0.000,0.000,0.000,0.3140,-1,0,-2.86,1.20,-3.13,0.1727,-0.0559,0.3176,-0.0342,0.2292,0.3000,0.2647,-17.97,18.15,61.76,2.3610,0.0000,1.0230,0.6350,2.3820,0,0.0000,0.0000,0.0000,0.0000,0.0000,0
19416,0.2106,-0.0213,0.3149,-0.0373,0.0097,-0.0367,-1.20,0.68,-1.98,0,3.637,5.852,2.162,3.204,0.009,-0.016,1.007,0.000,0.000,0.000,0.3130,0,0,-2.87,1.20,-3.00,0.1722,-0.0527,0.3153,-0.0380,0.2297,0.3000,0.2657,-17.11,18.13,59.45,2.3380,0.0000,1.0200,0.0000,2.3910,0,0.0000,0.0000,0.0000,0.0000,0.0000,0
19467,0.2096,-0.0218,0.3126,-0.0405,0.0169,-0.0363,-0.89,0.64,-1.85,0,3.632,5.177,2.807,5.439,0.011,-0.010,1.014,0.000,0.000,0.000,0.3110,0,0,-2.58,1.08,-2.85,0.1708,-0.0485,0.3134,-0.0418,0.2302,0.3000,0.2661,-16.80,18.15,55.58,2.3380,0.0000,1.0200,0.0000,2.3910,0,0.0000,0.0000,0.0000,0.0000,0.0000,0
19518,0.2075,-0.0181,0.3106,-0.0453,0.0314,-0.0329,-0.75,0.45,-1.59,0,3.637,8.481,1.222,6.227,0.016,-0.017,1.015,0.000,0.000,0.000,0.3090,1,0,-2.32,0.93,-2.57,0.1693,-0.0434,0.3117,-0.0456,0.2306,0.3000,0.2661,-15.92,18.06,47.68,0.0000,0.1450,1.0190,0.0000,2.3970,0,0.0000,0.0000,0.0000,0.0000,0.0000,0
19568,0.2065,-0.0170,0.3087,-0.0461,0.0366,-0.0281,-0.31,0.38,-1.28,0,3.632,1.009,5.361,7.659,0.011,-0.013,1.012,0.000,0.000,0.000,0.3070,0,1,-1.74,0.81,-2.35,0.1726,-0.0597,0.3117,-0.0494,0.2309,0.3000,0.2659,-15.60,18.22,38.50,0.0000,0.1450,1.0190,0.0000,2.3970,0,0.0000,0.0000,0.0000,0.0000,0.0000,0
19620,0.2038,-0.0151,0.3070,-0.0500,0.0399,-0.0232,-0.13,0.25,-0.92,0,3.637,6.466,1.501,7.748,0.013,-0.016,1.014,0.000,0.000,0.000,0.3040,0,0,-1.69,0.54,-2.00,0.1710,-0.0589,0.3100,-0.0532,0.2312,0.3000,0.2657,-15.33,18.15,27.49,0.0000,0.0000,1.0060,0.0000,2.3990,0,0.0000,0.0000,0.0000,0.0000,0.0000,0
19671,0.2013,-0.0142,0.3049,-0.0522,0.0384,-0.0212,0.21,0.18,-0.53,0,3.632,5.763,0.530,8.342,0.013,-0.016,1.016,0.000,0.000,0.000,0.3050,-1,0,-1.36,0.45,-1.60,0.1703,-0.0572,0.3081,-0.0571,0.2314,0.3000,0.2659,-15.29,18.13,16.01,0.0000,0.0000,1.0060,0.0000,2.3990,0,0.0000,0.0000,0.0000,0.0000,0.0000,0
19722,0.1992,-0.0146,0.3043,-0.0523,0.0311,-0.0116,0.62,0.12,-0.13,0,3.637,4.788,2.271,7.578,0.015,-0.019,1.014,0.000,0.000,0.000,0.3030,-5,0,-1.06,0.41,-1.16,0.1709,-0.0561,0.3072,-0.0609,0.2316,0.3000,0.2650,-15.64,18.30,4.02,0.0000,0.0000,0.9930,0.6220,2.3990,0,0.0000,0.0000,0.0000,0.0000,0.0000,0
19774,0.1989,-0.0109,0.3034,-0.0481,0.0313,-0.0071,0.79,-0.01,0.24,0,3.632,4.247,-2.803,5.206,0.013,-0.015,1.015,0.000,0.000,0.000,0.3020,0,0,-0.87,0.29,-0.75,0.1709,-0.0476,0.3063,-0.0648,0.2317,0.3000,0.2647,-15.37,18.72,-7.19,0.0000,0.0000,0.9930,0.6220,2.3990,0,0.0000,0.0000,0.0000,0.0000,0.0000,0
19824,0.1973,-0.0080,0.3026,-0.0463,0.0272,-0.0039,1.03,0.04,0.49,0,3.642,5.178,2.210,4.236,0.012,-0.015,1.012,0.000,0.000,0.000,0.3060,0,1,-0.65,0.43,-0.48,0.1711,-0.0442,0.3055,-0.0686,0.2317,0.3000,0.2645,-15.33,18.95,-14.84,0.0000,0.1500,0.9930,0.6030,2.3940,0,0.0000,0.0000,0.0000,0.0000,0.0000,0
19876,0.1944,-0.0080,0.3042,-0.0476,0.0156,0.0096,1.29,-0.00,0.71,0,3.632,0.131,3.718,2.932,0.014,-0.014,1.009,0.000,0.000,0.000,0.3060,0,0,-0.35,0.34,-0.29,0.1680,-0.0472,0.3066,-0.0725,0.2317,0.3000,0.2627,-15.89,19.08,-21.38,0.0000,0.1500,0.9930,0.6030,2.3940,0,0.0000,0.0000,0.0000,0.0000,0.0000,0
19928,0.1918,-0.0080,0.3055,-0.0479,0.0036,0.0178,1.29,-0.15,0.87,0,3.642,-4.271,7.310,2.799,0.012,-0.012,1.006,0.000,0.000,0.000,0.3080,0,1,-0.34,0.15,-0.14,0.1676,-0.0456,0.3074,-0.0763,0.2316,0.3000,0.2616,-16.42,19.23,-26.18,1.5860,0.1490,0.9830,0.6000,2.3990,0,0.0000,0.0000,0.0000,0.0000,0.0000,0
19979,0.1914,-0.0071,0.3074,-0.0418,-0.0050,0.0246,1.07,-0.48,1.03,0,3.637,-1.486,17.073,3.427,0.015,-0.020,0.994,0.000,0.000,0.000,0.3060,0,2,-0.54,-0.21,0.02,0.1649,-0.0468,0.3087,-0.0802,0.2315,0.3000,0.2605,-16.75,19.78,-30.77,1.5860,0.1490,0.9830,0.6000,2.3990,0,0.0000,0.0000,0.0000,0.0000,0.0000,0
20029,0.1902,-0.0036,0.3076,-0.0357,-0.0051,0.0195,0.91,-1.20,1.25,0,3.642,-0.437,8.990,4.018,0.011,-0.016,0.998,0.000,0.000,0.000,0.3050,0,1,-0.61,-1.06,0.20,0.1616,-0.0465,0.3089,-0.0840,0.2313,0.3000,0.2610,-16.44,20.16,-37.38,0.0000,0.0000,0.9880,0.5970,2.3970,0,0.0000,0.0000,0.0000,0.0000,0.0000,0
20081,0.1892,-0.0051,0.3072,-0.0239,-0.0150,0.0116,0.92,-1.64,1.45,0,3.632,-2.772,1.461,3.777,0.009,-0.019,0.996,0.000,0.000,0.000,0.3060,0,0,-0.62,-1.50,0.41,0.1597,-0.0464,0.3086,-0.0878,0.2311,0.3000,0.2619,-16.84,20.76,-43.57,0.0000,0.0000,0.9880,0.5970,2.3970,0,0.0000,0.0000,0.0000,0.0000,0.0000,0
20131,0.1892,-0.0063,0.3070,-0.0080,-0.0230,0.0068,0.82,-1.70,1.66,0,3.642,-7.018,-2.109,4.275,0.012,-0.014,1.002,0.000,0.000,0.000,0.3070,0,-1,-0.76,-1.58,0.60,0.1600,-0.0463,0.3083,-0.0916,0.2308,0.3000,0.2625,-17.17,21.60,-49.65,0.0000,0.1520,0.9870,0.5680,2.3960,0,0.0000,0.0000,0.0000,0.0000,0.0000,0
20183,0.1915,-0.0045,0.3073,0.0120,-0.0221,0.0053,0.45,-1.53,1.88,0,3.632,-5.301,-6.467,4.078,0.011,-0.016,1.000,0.000,0.000,0.000,0.3070,1,-2,-1.11,-1.48,0.82,0.1619,-0.0463,0.3084,-0.0954,0.2304,0.3000,0.2626,-16.93,22.77,-56.44,0.0000,0.1520,0.9870,0.5680,2.3960,0,0.0000,0.0000,0.0000,0.0000,0.0000,0
20234,0.1931,-0.0040,0.3073,0.0268,-0.0212,0.0040,0.12,-1.24,2.08,0,3.637,-1.657,-9.948,4.454,0.009,-0.015,1.001,0.000,0.000,0.000,0.3090,-3,-2,-1.36,-1.17,1.06,0.1665,-0.0479,0.3083,-0.0992,0.2300,0.3000,0.2627,-16.79,23.66,-62.47,0.9970,0.0000,0.9850,0.5360,2.3990,0,0.0000,0.0000,0.0000,0.0000,0.0000,0
20285,0.1954,-0.0149,0.3083,0.0390,-0.0444,0.0075,0.00,-0.77,2.35,0,3.632,-11.882,-19.909,5.893,0.010,-0.016,0.995,0.000,0.000,0.000,0.3100,4,0,-1.49,-0.68,1.17,0.1716,-0.0424,0.3087,-0.1030,0.2295,0.3000,0.2622,-18.43,24.55,-70.51,0.9970,0.0000,0.9850,0.5360,2.3990,0,0.0000,0.0000,0.0000,0.0000,0.0000,0
20336,0.2006,-0.0109,0.3093,0.0523,-0.0304,0.0090,-0.46,0.24,2.55,0,3.642,-7.533,-18.448,3.025,0.009,-0.015,0.997,0.000,0.000,0.000,0.3100,0,-3,-2.02,0.35,1.70,0.1732,-0.0497,0.3099,-0.1068,0.2289,0.3000,0.2618,-17.53,25.00,-76.42,0.0000,0.1450,0.9950,0.5120,2.3920,0,0.0000,0.0000,0.0000,0.0000,0.0000,0
20388,0.2023,-0.0112,0.3100,0.0482,-0.0241,0.0080,-0.82,1.16,2.74,0,3.632,-2.455,-7.161,3.380,0.012,-0.017,0.991,0.000,0.000,0.000,0.3120,2,-1,-2.41,1.26,1.89,0.1812,-0.0495,0.3102,-0.1107,0.2283,0.3000,0.2618,-17.19,25.00,-82.12,0.0000,0.1450,0.9950,0.5120,2.3920,0,0.0000,0.0000,0.0000,0.0000,0.0000,0
20439,0.2069,-0.0089,0.3112,0.0437,-0.0092,0.0094,-1.02,1.55,2.87,0,3.642,0.835,-5.589,2.419,0.008,-0.015,0.993,0.000,0.000,0.000,0.3120,1,0,-2.51,1.63,2.13,0.1847,-0.0540,0.3110,-0.1144,0.2277,0.3000,0.2614,-16.32,25.00,-86.09,2.3820,0.1470,0.9910,0.5010,2.3960,0,0.0000,0.0000,0.0000,0.0000,0.0000,0
20490,0.2100,-0.0126,0.3119,0.0329,-0.0089,0.0065,-1.01,1.78,2.97,0,3.632,-2.788,7.675,2.816,0.009,-0.020,0.987,0.000,0.000,0.000,0.3130,0,0,-2.45,1.93,2.26,0.1855,-0.0566,0.3114,-0.1182,0.2270,0.3000,0.2616,-16.44,25.00,-88.96,2.3820,0.1470,0.9910,0.5010,2.3960,0,0.0000,0.0000,0.0000,0.0000,0.0000,0
20542,0.2109,-0.0149,0.3126,0.0169,-0.0059,0.0040,-1.07,1.59,3.03,0,3.637,-1.578,8.969,-0.450,0.008,-0.018,0.991,0.000,0.000,0.000,0.3100,0,2,-2.60,1.53,2.38,0.1881,-0.0563,0.3116,-0.1220,0.2262,0.3000,0.2617,-16.35,25.00,-90.78,2.4030,0.1410,0.9940,0.4970,2.3890,0,0.0000,0.0000,0.0000,0.0000,0.0000,0
20592,0.2123,-0.0116,0.3114,0.0059,0.0106,-0.0075,-1.19,1.08,3.03,0,3.632,1.560,2.595,-1.778,0.009,-0.017,0.991,0.000,0.000,0.000,0.3120,0,0,-2.66,1.15,2.19,0.1769,-0.0588,0.3107,-0.1257,0.2254,0.3000,0.2632,-15.23,25.00,-90.86,2.4030,0.1410,0.9940,0.4970,2.3890,0,0.0000,0.0000,0.0000,0.0000,0.0000,0
20643,0.2128,-0.0076,0.3113,-0.0021,0.0282,-0.0083,-1.21,0.73,3.01,0,3.637,4.502,2.986,-1.363,0.013,-0.019,0.997,0.000,0.000,0.000,0.3120,2,1,-2.58,1.03,2.10,0.1761,-0.0577,0.3104,-0.1294,0.2245,0.3000,0.2633,-14.08,25.00,-90.21,2.3040,0.0000,0.9960,0.5030,2.3970,0,0.0000,0.0000,0.0000,0.0000,0.0000,0
20695,0.2121,-0.0072,0.3113,-0.0096,0.0350,-0.0089,-0.99,0.61,2.96,0,3.626,2.774,-5.183,-1.065,0.011,-0.016,0.999,0.000,0.000,0.000,0.3090,1,-1,-2.28,0.89,1.94,0.1741,-0.0671,0.3104,-0.1332,0.2235,0.3000,0.2634,-13.64,25.00,-88.79,2.3040,0.0000,0.9960,0.5030,2.3970,0,0.0000,0.0000,0.0000,0.0000,0.0000,0
20746,0.2113,-0.0018,0.3098,-0.0159,0.0515,-0.0140,-0.89,0.81,2.91,0,3.632,4.642,-7.848,0.232,0.011,-0.022,0.998,0.000,0.000,0.000,0.3070,-4,0,-2.12,1.14,1.93,0.1756,-0.0688,0.3094,-0.1368,0.2225,0.3000,0.2642,-12.38,25.00,-87.40,2.2610,0.1420,0.9890,0.5070,2.3890,0,0.0000,0.0000,0.0000,0.0000,0.0000,0
20797,0.2114,-0.0026,0.3079,-0.0213,0.0504,-0.0205,-0.72,1.12,2.93,0,3.626,5.770,16.953,1.291,0.010,-0.020,1.003,0.000,0.000,0.000,0.3050,-5,1,-1.94,1.53,2.03,0.1750,-0.0602,0.3079,-0.1405,0.2215,0.3000,0.2652,-12.32,24.96,-88.00,2.2610,0.1420,0.9890,0.5070,2.3890,0,0.0000,0.0000,0.0000,0.0000,0.0000,0
20849,0.2120,0.0000,0.3058,-0.0265,0.0549,-0.0254,-0.48,0.48,3.02,0,3.632,-0.301,13.150,1.759,0.013,-0.025,1.008,0.000,0.000,0.000,0.3050,0,1,-1.72,0.68,2.13,0.1720,-0.0480,0.3059,-0.1443,0.2203,0.3000,0.2662,-11.78,24.92,-90.54,0.0000,0.0000,0.9860,0.5100,2.3990,0,0.0000,0.0000,0.0000,0.0000,0.0000,0
20900,0.2110,0.0106,0.3044,-0.0298,0.0760,-0.0243,-0.39,-0.06,3.09,0,3.621,6.769,-14.223,2.348,0.011,-0.019,1.008,0.000,0.000,0.000,0.3020,-5,-1,-1.71,0.00,2.16,0.1693,-0.0475,0.3051,-0.1479,0.2191,0.3000,0.2663,-9.99,24.93,-92.60,0.0000,0.0000,0.9860,0.5100,2.3990,0,0.0000,0.0000,0.0000,0.0000,0.0000,0
20952,0.2092,0.0097,0.3025,-0.0303,0.0680,-0.0239,-0.08,0.31,3.19,0,3.632,2.492,-14.112,1.084,0.009,-0.025,1.007,0.000,0.000,0.000,0.3020,1,-2,-1.43,0.70,2.39,0.1710,-0.0338,0.3032,-0.1516,0.2179,0.3000,0.2666,-10.28,24.98,-95.81,0.0000,0.0000,0.9770,0.5190,2.4000,0,0.0000,0.0000,0.0000,0.0000,0.0000,0
