time_ms,pos_x,pos_y,pos_z,vel_x,vel_y,vel_z,roll,pitch,yaw,thrust,vbat,gyro_x,gyro_y,gyro_z,acc_x,acc_y,acc_z,rate_roll,rate_pitch,rate_yaw,range_z,flow_dx,flow_dy,mekf_roll,mekf_pitch,mekf_yaw,mekf_x,mekf_y,mekf_z,our_ref_x,our_ref_y,our_ref_z,our_thrust,our_roll_cmd,our_pitch_cmd,our_yaw_rate_cmd
0,0.1332,0.8514,0.0068,0.0028,-0.0060,-0.0108,-0.84,1.21,-51.74,0,3.980,0.709,0.017,0.160,0.021,-0.019,1.000,0.000,0.000,0.000,0.0100,2,-2,0.00,0.00,0.00,0.0000,0.0000,0.0000,0.0000,0.0000,0.0000,0.0000,0.00,0.00,0.00
102,0.1328,0.8510,0.0080,-0.0004,-0.0074,-0.0024,-0.84,1.21,-51.48,0,3.991,0.217,-0.167,-0.106,0.021,-0.019,1.001,0.000,0.000,0.000,0.0080,0,1,0.00,0.00,0.00,0.0000,0.0000,0.0000,0.0000,0.0000,0.0000,0.0000,0.00,0.00,0.00
203,0.1338,0.8513,0.0079,0.0033,-0.0056,-0.0016,-0.75,1.22,-51.24,0,3.985,0.245,0.032,0.067,0.021,-0.015,1.000,0.000,0.000,0.000,0.0120,6,2,0.00,0.00,0.00,0.0000,0.0000,0.0000,0.0000,0.0000,0.0000,0.0000,0.00,0.00,0.00
305,0.1334,0.8510,0.0098,0.0001,-0.0060,0.0078,-0.83,1.22,-50.99,0,3.991,0.311,-0.319,-0.367,0.020,-0.018,0.998,0.000,0.000,0.000,0.0100,3,-2,0.00,0.00,0.00,0.0000,0.0000,0.0000,0.0000,0.0000,0.0000,0.0000,0.00,0.00,0.00
406,0.1335,0.8512,0.0102,-0.0002,-0.0048,0.0074,-0.81,1.22,-50.75,0,3.980,0.190,-0.173,0.092,0.021,-0.017,0.997,0.000,0.000,0.000,0.0110,-6,-2,0.00,0.00,0.00,0.0000,0.0000,0.0000,0.0000,0.0000,0.0000,0.0000,0.00,0.00,0.00
507,0.1324,0.8508,0.0109,-0.0064,-0.0062,0.0085,-0.75,1.23,-50.50,0,3.996,0.392,-0.230,-0.032,0.023,-0.018,0.999,0.000,0.000,0.000,0.0090,4,-3,0.00,0.00,0.00,0.0000,0.0000,0.0000,0.0000,0.0000,0.0000,0.0000,0.00,0.00,0.00
608,0.1323,0.8516,0.0104,-0.0070,-0.0022,0.0038,-0.76,1.25,-50.25,0,3.980,0.213,-0.125,0.068,0.022,-0.017,1.000,0.000,0.000,0.000,0.0090,-3,0,0.00,0.00,0.00,0.0000,0.0000,0.0000,0.0000,0.0000,0.0000,0.0000,0.00,0.00,0.00
709,0.1319,0.8507,0.0099,-0.0086,-0.0070,0.0010,-0.83,1.22,-50.01,0,3.996,0.291,-0.191,0.126,0.022,-0.018,1.000,0.000,0.000,0.000,0.0100,0,-3,0.00,0.00,0.00,0.0000,0.0000,0.0000,0.0000,0.0000,0.0000,0.0000,0.00,0.00,0.00
810,0.1322,0.8515,0.0100,-0.0069,-0.0019,0.0010,-0.83,1.22,-49.76,0,3.985,0.275,-0.237,0.063,0.023,-0.017,1.001,0.000,0.000,0.000,0.0090,-7,-2,0.00,0.00,0.00,0.0000,0.0000,0.0000,0.0000,0.0000,0.0000,0.0000,0.00,0.00,0.00
911,0.1317,0.8508,0.0096,-0.0093,-0.0063,-0.0011,-0.79,1.22,-49.52,0,3.991,0.345,-0.303,-0.081,0.022,-0.019,1.000,0.000,0.000,0.000,0.0090,-1,0,0.00,0.00,0.00,0.0000,0.0000,0.0000,0.0000,0.0000,0.0000,0.0000,0.00,0.00,0.00
1012,0.1318,0.8512,0.0093,-0.0084,-0.0037,-0.0022,-0.82,1.23,-49.28,0,3.980,0.137,-0.051,-0.180,0.018,-0.016,1.001,0.000,0.000,0.000,0.0090,-4,-7,0.00,0.00,0.00,0.0000,0.0000,0.0000,0.0000,0.0000,0.0000,0.0000,0.00,0.00,0.00
1114,0.1315,0.8509,0.0091,-0.0105,-0.0054,-0.0022,-0.78,1.20,-49.04,0,3.991,0.241,-0.004,-0.281,0.024,-0.019,0.998,0.000,0.000,0.000,0.0100,-3,0,0.00,0.00,0.00,0.0000,0.0000,0.0000,0.0000,0.0000,0.0000,0.0000,0.00,0.00,0.00
1215,0.1317,0.8512,0.0095,-0.0085,-0.0038,-0.0002,-0.78,1.23,-48.81,0,3.980,0.252,0.162,-0.368,0.021,-0.016,0.999,0.000,0.000,0.000,0.0110,-1,-1,0.00,0.00,0.00,0.0000,0.0000,0.0000,0.0000,0.0000,0.0000,0.0000,0.00,0.00,0.00
1316,0.1329,0.8514,0.0102,-0.0019,-0.0031,0.0034,-0.78,1.23,-48.58,0,3.991,0.124,-0.224,0.170,0.022,-0.018,0.999,0.000,0.000,0.000,0.0090,2,-1,0.00,0.00,0.00,0.0000,0.0000,0.0000,0.0000,0.0000,0.0000,0.0000,0.00,0.00,0.00
1417,0.1326,0.8516,0.0098,-0.0038,-0.0017,0.0008,-0.74,1.19,-48.34,0,3.980,0.295,-0.211,0.189,0.021,-0.016,0.999,0.000,0.000,0.000,0.0070,-1,1,0.00,0.00,0.00,0.0000,0.0000,0.0000,0.0000,0.0000,0.0000,0.0000,0.00,0.00,0.00
1518,0.1330,0.8511,0.0085,-0.0017,-0.0040,-0.0058,-0.74,1.22,-48.10,0,3.991,0.296,-0.044,-0.084,0.022,-0.016,1.002,0.000,0.000,0.000,0.0110,-2,-5,0.00,0.00,0.00,0.0000,0.0000,0.0000,0.0000,0.0000,0.0000,0.0000,0.00,0.00,0.00
1569,0.1322,0.8516,0.0095,-0.0058,-0.0012,0.0005,-0.74,1.22,-47.88,0,3.980,0.318,-0.155,-0.043,0.021,-0.016,1.000,0.000,0.000,0.000,0.0080,0,-1,0.00,0.00,0.00,0.0000,0.0000,0.0000,0.0000,0.0000,0.0000,0.0000,0.00,0.00,0.00
1620,0.1330,0.8513,0.0088,-0.0011,-0.0036,-0.0028,-0.76,1.22,-47.64,0,3.991,0.209,-0.008,-0.074,0.020,-0.019,1.000,0.000,0.000,0.000,0.0100,4,3,0.00,0.00,0.00,0.0000,0.0000,0.0000,0.0000,0.0000,0.0000,0.0000,0.00,0.00,0.00
1671,0.1329,0.8514,0.0093,-0.0022,-0.0030,-0.0004,-0.80,1.19,-47.42,0,3.980,0.326,0.042,-0.264,0.024,-0.017,1.001,0.000,0.000,0.000,0.0130,0,4,0.00,0.00,0.00,0.0000,0.0000,0.0000,0.0000,0.0000,0.0000,0.0000,0.00,0.00,0.00
1723,0.1322,0.8505,0.0111,-0.0056,-0.0081,0.0087,-0.76,1.21,-47.19,0,3.991,0.472,0.172,-0.187,0.021,-0.019,1.000,0.000,0.000,0.000,0.0070,-4,-1,0.00,0.00,0.00,0.0000,0.0000,0.0000,0.0000,0.0000,0.0000,0.0000,0.00,0.00,0.00
1773,0.1323,0.8506,0.0095,-0.0046,-0.0084,-0.0013,-0.77,1.17,-46.96,0,3.980,0.362,0.086,-0.029,0.021,-0.021,1.001,0.000,0.000,0.000,0.0090,8,0,0.00,0.00,0.00,0.0000,0.0000,0.0000,0.0000,0.0000,0.0000,0.0000,0.00,0.00,0.00
1824,0.1328,0.8513,0.0093,-0.0017,-0.0040,-0.0014,-0.74,1.19,-46.73,0,3.991,0.632,0.254,-0.006,0.022,-0.018,0.999,0.000,0.000,0.000,0.0090,1,2,0.00,0.00,0.00,0.0000,0.0000,0.0000,0.0000,0.0000,0.0000,0.0000,0.00,0.00,0.00
1875,0.1330,0.8507,0.0091,-0.0000,-0.0071,-0.0017,-0.78,1.22,-46.50,0,3.980,0.327,-0.274,-0.216,0.020,-0.016,1.000,0.000,0.000,0.000,0.0120,0,-2,0.00,0.00,0.00,0.0000,0.0000,0.0000,0.0000,0.0000,0.0000,0.0000,0.00,0.00,0.00
1926,0.1327,0.8513,0.0104,-0.0019,-0.0039,0.0046,-0.79,1.22,-46.27,0,3.991,0.392,-0.065,-0.162,0.021,-0.019,1.001,0.000,0.000,0.000,0.0140,0,1,0.00,0.00,0.00,0.0000,0.0000,0.0000,0.0000,0.0000,0.0000,0.0000,0.00,0.00,0.00
1978,0.1321,0.8505,0.0123,-0.0047,-0.0077,0.0124,-0.78,1.18,-46.05,0,3.980,0.384,0.148,-0.244,0.021,-0.016,1.000,0.000,0.000,0.000,0.0090,3,5,0.00,0.00,0.00,0.0000,0.0000,0.0000,0.0000,0.0000,0.0000,0.0000,0.00,0.00,0.00
2029,0.1328,0.8508,0.0112,-0.0013,-0.0053,0.0046,-0.78,1.21,-45.83,0,3.991,0.452,0.216,-0.182,0.023,-0.017,1.002,0.000,0.000,0.000,0.0100,0,0,0.00,0.00,0.00,0.0000,0.0000,0.0000,0.0000,0.0000,0.0000,0.0000,0.00,0.00,0.00
2080,0.1329,0.8509,0.0109,-0.0002,-0.0048,0.0025,-0.77,1.19,-45.61,0,3.980,0.393,-0.017,-0.234,0.020,-0.017,0.999,0.000,0.000,0.000,0.0090,3,-1,0.00,0.00,0.00,0.0000,0.0000,0.0000,0.0000,0.0000,0.0000,0.0000,0.00,0.00,0.00
2132,0.1325,0.8512,0.0101,-0.0020,-0.0027,-0.0015,-0.82,1.17,-45.39,0,3.991,0.050,0.101,0.026,0.021,-0.015,0.999,0.000,0.000,0.000,0.0120,-3,-1,0.00,0.00,0.00,0.0000,0.0000,0.0000,0.0000,0.0000,0.0000,0.0000,0.00,0.00,0.00
2183,0.1316,0.8512,0.0110,-0.0076,-0.0024,0.0023,-0.79,1.21,-45.17,0,3.980,0.215,-0.170,-0.123,0.021,-0.017,0.999,0.000,0.000,0.000,0.0110,1,3,0.00,0.00,0.00,0.0000,0.0000,0.0000,0.0000,0.0000,0.0000,0.0000,0.00,0.00,0.00
2234,0.1322,0.8512,0.0111,-0.0032,-0.0023,0.0025,-0.83,1.17,-44.95,0,3.991,0.230,0.241,-0.020,0.021,-0.019,1.001,0.000,0.000,0.000,0.0090,0,0,0.00,0.00,0.00,0.0000,0.0000,0.0000,0.0000,0.0000,0.0000,0.0000,0.00,0.00,0.00
2285,0.1325,0.8512,0.0103,-0.0014,-0.0025,-0.0015,-0.75,1.16,-44.73,0,3.980,0.355,0.072,-0.115,0.020,-0.020,0.999,0.000,0.000,0.000,0.0110,0,-5,0.00,0.00,0.00,0.0000,0.0000,0.0000,0.0000,0.0000,0.0000,0.0000,0.00,0.00,0.00
2337,0.1323,0.8510,0.0106,-0.0024,-0.0036,0.0009,-0.79,1.18,-44.52,0,3.991,0.268,-0.323,-0.032,0.020,-0.018,1.002,0.000,0.000,0.000,0.0110,-4,-3,0.00,0.00,0.00,0.0000,0.0000,0.0000,0.0000,0.0000,0.0000,0.0000,0.00,0.00,0.00
2389,0.1313,0.8510,0.0109,-0.0075,-0.0041,0.0019,-0.82,1.15,-44.30,0,3.980,0.558,-0.183,-0.176,0.022,-0.016,1.000,0.000,0.000,0.000,0.0100,0,0,0.00,0.00,0.00,0.0000,0.0000,0.0000,0.0000,0.0000,0.0000,0.0000,0.00,0.00,0.00
2441,0.1323,0.8513,0.0105,-0.0026,-0.0025,-0.0001,-0.79,1.13,-44.08,0,3.991,0.205,-0.109,0.228,0.020,-0.018,1.001,0.000,0.000,0.000,0.0110,0,2,0.00,0.00,0.00,0.0000,0.0000,0.0000,0.0000,0.0000,0.0000,0.0000,0.00,0.00,0.00
2492,0.1327,0.8508,0.0108,-0.0002,-0.0047,0.0016,-0.78,1.17,-43.87,0,3.980,0.540,-0.174,-0.244,0.019,-0.019,0.998,0.000,0.000,0.000,0.0080,0,-2,0.00,0.00,0.00,0.0000,0.0000,0.0000,0.0000,0.0000,0.0000,0.0000,0.00,0.00,0.00
2542,0.1322,0.8513,0.0096,-0.0026,-0.0029,-0.0049,-0.77,1.20,-43.65,0,3.991,0.241,-0.035,0.129,0.021,-0.016,1.002,0.000,0.000,0.000,0.0120,0,0,0.00,0.00,0.00,0.0000,0.0000,0.0000,0.0000,0.0000,0.0000,0.0000,0.00,0.00,0.00
2593,0.1308,0.8498,0.0105,-0.0101,-0.0100,0.0007,-0.78,1.13,-43.44,0,3.980,0.200,0.150,0.068,0.022,-0.018,1.001,0.000,0.000,0.000,0.0090,-5,8,0.00,0.00,0.00,0.0000,0.0000,0.0000,0.0000,0.0000,0.0000,0.0000,0.00,0.00,0.00
2644,0.1303,0.8526,0.0100,-0.0116,0.0045,-0.0019,-0.85,1.33,-43.23,0,3.991,0.244,0.139,0.178,0.022,-0.017,1.000,0.000,0.000,0.000,0.0100,7,6,0.00,0.00,0.00,0.0000,0.0000,0.0000,0.0000,0.0000,0.0000,0.0000,0.00,0.00,0.00
2695,0.1312,0.8533,0.0099,-0.0048,0.0043,-0.0015,-0.75,1.27,-43.02,0,3.980,0.267,-0.005,-0.003,0.022,-0.019,0.999,0.000,0.000,0.000,0.0100,0,1,0.00,0.00,0.00,0.0000,0.0000,0.0000,0.0000,0.0000,0.0000,0.0000,0.00,0.00,0.00
2746,0.1316,0.8569,0.0099,-0.0013,0.0201,-0.0012,-0.89,1.28,-42.82,0,3.991,0.083,-0.089,0.010,0.021,-0.017,1.000,0.000,0.000,0.000,0.0100,1,0,0.00,0.00,0.00,0.0000,0.0000,0.0000,0.0000,0.0000,0.0000,0.0000,0.00,0.00,0.00
2797,0.1310,0.8564,0.0100,-0.0042,0.0134,-0.0012,-0.86,1.26,-42.61,0,3.980,0.378,0.234,0.106,0.021,-0.017,0.999,0.000,0.000,0.000,0.0080,-2,-1,0.00,0.00,0.00,0.0000,0.0000,0.0000,0.0000,0.0000,0.0000,0.0000,0.00,0.00,0.00
2849,0.1312,0.8568,0.0090,-0.0033,0.0117,-0.0054,-0.83,1.22,-42.40,0,3.991,-0.043,-0.127,0.181,0.022,-0.017,0.998,0.000,0.000,0.000,0.0080,3,0,0.00,0.00,0.00,0.0000,0.0000,0.0000,0.0000,0.0000,0.0000,0.0000,0.00,0.00,0.00
2901,0.1316,0.8564,0.0084,-0.0015,0.0063,-0.0070,-0.84,1.21,-42.19,0,3.980,0.191,0.068,0.115,0.022,-0.016,1.000,0.000,0.000,0.000,0.0110,0,0,0.00,0.00,0.00,0.0000,0.0000,0.0000,0.0000,0.0000,0.0000,0.0000,0.00,0.00,0.00
2951,0.1307,0.8562,0.0094,-0.0054,0.0028,-0.0005,-0.83,1.15,-41.99,0,3.991,0.458,-0.270,-0.186,0.023,-0.018,0.997,0.000,0.000,0.000,0.0080,-7,-1,0.00,0.00,0.00,0.0000,0.0000,0.0000,0.0000,0.0000,0.0000,0.0000,0.00,0.00,0.00
3002,0.1310,0.8562,0.0087,-0.0041,0.0007,-0.0032,-0.82,1.19,-41.83,0,3.980,0.429,0.007,-0.157,0.020,-0.016,0.998,0.000,0.000,0.000,0.0090,0,0,0.00,0.00,0.00,0.0000,0.0000,0.0000,0.0000,0.0000,0.0000,0.0000,0.00,0.00,0.00
3053,0.1317,0.8559,0.0088,-0.0007,-0.0026,-0.0023,-0.76,1.19,-41.58,0,3.991,0.180,-0.124,-0.180,0.020,-0.018,1.000,0.000,0.000,0.000,0.0110,0,1,0.00,0.00,0.00,0.0000,0.0000,0.0000,0.0000,0.0000,0.0000,0.0000,0.00,0.00,0.00
3104,0.1308,0.8563,0.0097,-0.0057,-0.0017,0.0019,-0.77,1.19,-41.38,0,3.980,0.325,-0.095,-0.130,0.020,-0.018,1.000,0.000,0.000,0.000,0.0100,1,4,0.00,0.00,0.00,0.0000,0.0000,0.0000,0.0000,0.0000,0.0000,0.0000,0.00,0.00,0.00
3155,0.1312,0.8568,0.0100,-0.0035,-0.0001,0.0030,-0.76,1.17,-41.18,0,3.991,0.280,0.068,0.366,0.020,-0.019,0.998,0.000,0.000,0.000,0.0110,4,0,0.00,0.00,0.00,0.0000,0.0000,0.0000,0.0000,0.0000,0.0000,0.0000,0.00,0.00,0.00
3206,0.1312,0.8568,0.0106,-0.0037,-0.0015,0.0052,-0.79,1.16,-41.02,0,3.980,0.213,0.052,-0.162,0.020,-0.019,1.001,0.000,0.000,0.000,0.0110,1,-7,0.00,0.00,0.00,0.0000,0.0000,0.0000,0.0000,0.0000,0.0000,0.0000,0.00,0.00,0.00
3257,0.1314,0.8538,0.0110,-0.0024,-0.0174,0.0065,-0.70,1.08,-40.82,0,3.991,0.150,-0.132,0.050,0.022,-0.016,1.000,0.000,0.000,0.000,0.0090,0,-2,0.00,0.00,0.00,0.0000,0.0000,0.0000,0.0000,0.0000,0.0000,0.0000,0.00,0.00,0.00
3308,0.1317,0.8535,0.0104,-0.0012,-0.0174,0.0025,-0.80,1.03,-40.63,0,3.980,0.059,-0.242,0.086,0.020,-0.016,1.000,0.000,0.000,0.000,0.0100,1,0,0.00,0.00,0.00,0.0000,0.0000,0.0000,0.0000,0.0000,0.0000,0.0000,0.00,0.00,0.00
3359,0.1334,0.8535,0.0104,0.0070,-0.0158,0.0017,-0.70,1.08,-40.43,0,3.991,0.145,-0.128,0.154,0.021,-0.020,0.996,0.000,0.000,0.000,0.0080,4,0,0.00,0.00,0.00,0.0000,0.0000,0.0000,0.0000,0.0000,0.0000,0.0000,0.00,0.00,0.00
3410,0.1324,0.8540,0.0095,-0.0002,-0.0124,-0.0027,-0.73,1.13,-40.24,0,3.980,0.244,-0.067,0.088,0.021,-0.019,0.999,0.000,0.000,0.000,0.0100,1,0,0.00,0.00,0.00,0.0000,0.0000,0.0000,0.0000,0.0000,0.0000,0.0000,0.00,0.00,0.00
3462,0.1322,0.8539,0.0097,-0.0015,-0.0117,-0.0019,-0.81,1.12,-40.04,0,3.991,0.173,-0.504,-0.208,0.020,-0.018,1.001,0.000,0.000,0.000,0.0090,0,-2,0.00,0.00,0.00,0.0000,0.0000,0.0000,0.0000,0.0000,0.0000,0.0000,0.00,0.00,0.00
3513,0.1316,0.8532,0.0093,-0.0050,-0.0138,-0.0031,-0.74,1.15,-39.84,0,3.980,0.350,-0.207,-0.232,0.019,-0.018,1.000,0.000,0.000,0.000,0.0090,0,0,0.00,0.00,0.00,0.0000,0.0000,0.0000,0.0000,0.0000,0.0000,0.0000,0.00,0.00,0.00
3564,0.1319,0.8529,0.0091,-0.0033,-0.0133,-0.0035,-0.75,1.16,-39.65,0,3.991,0.334,-0.208,-0.196,0.019,-0.017,0.999,0.000,0.000,0.000,0.0080,0,0,0.00,0.00,0.00,0.0000,0.0000,0.0000,0.0000,0.0000,0.0000,0.0000,0.00,0.00,0.00
3615,0.1318,0.8530,0.0085,-0.0043,-0.0108,-0.0052,-0.76,1.16,-39.46,0,3.980,0.252,-0.292,0.199,0.022,-0.017,0.998,0.000,0.000,0.000,0.0080,-4,0,0.00,0.00,0.00,0.0000,0.0000,0.0000,0.0000,0.0000,0.0000,0.0000,0.00,0.00,0.00
3666,0.1323,0.8535,0.0081,-0.0018,-0.0078,-0.0064,-0.79,1.14,-39.26,0,3.991,0.392,-0.152,-0.065,0.023,-0.018,1.002,0.000,0.000,0.000,0.0090,4,2,0.00,0.00,0.00,0.0000,0.0000,0.0000,0.0000,0.0000,0.0000,0.0000,0.00,0.00,0.00
3717,0.1326,0.8533,0.0082,-0.0002,-0.0085,-0.0041,-0.75,1.18,-39.07,0,3.980,0.297,-0.331,-0.230,0.022,-0.015,1.000,0.000,0.000,0.000,0.0100,0,-2,0.00,0.00,0.00,0.0000,0.0000,0.0000,0.0000,0.0000,0.0000,0.0000,0.00,0.00,0.00
3768,0.1314,0.8529,0.0090,-0.0058,-0.0096,0.0010,-0.76,1.17,-38.88,0,3.991,0.226,-0.345,-0.240,0.019,-0.018,1.001,0.000,0.000,0.000,0.0070,-2,1,0.00,0.00,0.00,0.0000,0.0000,0.0000,0.0000,0.0000,0.0000,0.0000,0.00,0.00,0.00
3819,0.1317,0.8534,0.0081,-0.0040,-0.0066,-0.0032,-0.81,1.16,-38.69,0,3.980,0.577,-0.453,-0.055,0.023,-0.017,1.000,0.000,0.000,0.000,0.0110,0,-2,0.00,0.00,0.00,0.0000,0.0000,0.0000,0.0000,0.0000,0.0000,0.0000,0.00,0.00,0.00
3870,-0.0000,-0.0002,0.0110,0.0023,-0.0086,0.0002,-0.02,-0.06,-0.00,0,3.991,0.243,0.001,-0.049,0.022,-0.016,0.998,0.000,0.000,0.000,0.0100,-2,0,0.00,0.00,0.00,0.0000,0.0000,0.0000,0.0000,0.0000,0.0000,0.0000,0.00,0.00,0.00
3921,0.0003,-0.0005,0.0105,0.0130,-0.0113,-0.0009,-0.43,0.05,-0.00,0,3.980,0.290,-0.189,0.142,0.022,-0.014,1.002,0.000,0.000,0.000,0.0100,0,-1,0.00,0.00,0.00,0.0000,0.0000,0.0000,0.0000,0.0000,0.0000,0.0000,0.00,0.00,0.00
3972,0.0007,-0.0012,0.0103,0.0178,-0.0185,-0.0015,-0.13,0.12,-0.01,0,3.991,0.219,-0.312,-0.031,0.024,-0.019,0.999,0.000,0.000,0.000,0.0110,0,0,0.00,0.00,0.00,0.0000,0.0000,0.0000,0.0000,0.0000,0.0000,0.0000,0.00,0.00,0.00
4023,0.0012,-0.0015,0.0106,0.0219,-0.0190,-0.0002,-0.44,0.36,-0.01,0,3.980,0.042,-0.259,-0.012,0.022,-0.018,0.999,0.000,0.000,0.000,0.0090,-1,-4,0.00,0.00,0.00,0.0000,0.0000,0.0000,0.0000,0.0000,0.0000,0.0000,0.00,0.00,0.00
4074,0.0010,-0.0014,0.0099,0.0154,-0.0151,-0.0037,-0.54,0.65,-0.00,0,3.991,0.272,-0.297,0.156,0.020,-0.017,0.998,0.000,0.000,0.000,0.0090,0,-1,0.00,0.00,0.00,0.0000,0.0000,0.0000,0.0000,0.0000,0.0000,0.0000,0.00,0.00,0.00
4126,0.0010,-0.0016,0.0094,0.0133,-0.0145,-0.0051,-0.75,0.81,0.00,0,3.980,0.108,0.000,-0.071,0.022,-0.017,0.999,0.000,0.000,0.000,0.0120,3,-9,0.00,0.00,0.00,0.0000,0.0000,0.0000,0.0000,0.0000,0.0000,0.0000,0.00,0.00,0.00
4177,-0.0002,-0.0027,0.0106,0.0025,-0.0211,0.0015,-0.84,0.79,0.01,0,3.991,0.265,0.048,-0.245,0.020,-0.017,1.000,0.000,0.000,0.000,0.0080,-1,-5,0.00,0.00,0.00,0.0000,0.0000,0.0000,0.0000,0.0000,0.0000,0.0000,0.00,0.00,0.00
4228,0.0037,-0.0028,0.0095,0.0282,-0.0186,-0.0039,-0.84,0.09,0.00,0,3.980,0.148,-0.133,-0.204,0.022,-0.017,1.000,0.000,0.000,0.000,0.0110,2,0,0.00,0.00,0.00,0.0000,0.0000,0.0000,0.0000,0.0000,0.0000,0.0000,0.00,0.00,0.00
4279,0.0091,0.0021,0.0101,0.0562,0.0148,-0.0005,-1.03,0.43,0.01,0,3.991,0.628,-0.072,-0.214,0.022,-0.019,0.998,0.000,0.000,0.000,0.0090,1,-1,0.00,0.00,0.00,0.0000,0.0000,0.0000,0.0000,0.0000,0.0000,0.0000,0.00,0.00,0.00
4330,0.0105,-0.0017,0.0098,0.0548,-0.0121,-0.0017,-0.79,0.59,-0.00,0,3.980,-0.053,0.213,0.077,0.021,-0.017,1.000,0.000,0.000,0.000,0.0090,0,0,0.00,0.00,0.00,0.0000,0.0000,0.0000,0.0000,0.0000,0.0000,0.0000,0.00,0.00,0.00
4382,0.0101,-0.0018,0.0095,0.0427,-0.0116,-0.0021,-0.71,0.79,-0.00,0,3.991,0.283,-0.052,0.060,0.023,-0.018,0.999,0.000,0.000,0.000,0.0090,7,-1,0.00,0.00,0.00,0.0000,0.0000,0.0000,0.0000,0.0000,0.0000,0.0000,0.00,0.00,0.00
4433,0.0098,-0.0008,0.0093,0.0339,-0.0046,-0.0029,-0.67,0.84,-0.01,0,3.980,0.283,-0.188,-0.373,0.024,-0.016,0.998,0.000,0.000,0.000,0.0100,4,0,0.00,0.00,0.00,0.0000,0.0000,0.0000,0.0000,0.0000,0.0000,0.0000,0.00,0.00,0.00
4484,0.0100,-0.0016,0.0096,0.0289,-0.0080,-0.0011,-0.71,1.01,-0.01,0,3.991,0.188,-0.393,0.253,0.022,-0.016,1.000,0.000,0.000,0.000,0.0080,-4,1,0.00,0.00,0.00,0.0000,0.0000,0.0000,0.0000,0.0000,0.0000,0.0000,0.00,0.00,0.00
4535,0.0097,-0.0017,0.0089,0.0230,-0.0076,-0.0037,-0.79,1.06,-0.01,0,3.980,0.247,0.007,0.118,0.020,-0.017,1.000,0.000,0.000,0.000,0.0110,-2,0,0.00,0.00,0.00,0.0000,0.0000,0.0000,0.0000,0.0000,0.0000,0.0000,0.00,0.00,0.00
4587,0.0094,-0.0022,0.0098,0.0162,-0.0100,0.0021,-0.79,1.12,-0.01,0,3.991,0.095,-0.180,0.179,0.022,-0.019,0.997,0.000,0.000,0.000,0.0120,0,-1,0.00,0.00,0.00,0.0000,0.0000,0.0000,0.0000,0.0000,0.0000,0.0000,0.00,0.00,0.00
4639,0.0090,-0.0014,0.0109,0.0107,-0.0053,0.0065,-0.79,1.16,-0.02,0,3.980,0.384,-0.151,-0.227,0.022,-0.020,0.999,0.000,0.000,0.000,0.0090,4,6,0.00,0.00,0.00,0.0000,0.0000,0.0000,0.0000,0.0000,0.0000,0.0000,0.00,0.00,0.00
4690,0.0098,-0.0004,0.0103,0.0123,-0.0002,0.0022,-0.83,1.18,-0.01,0,3.991,0.152,-0.097,0.321,0.019,-0.020,1.000,0.000,0.000,0.000,0.0080,0,0,0.00,0.00,0.00,0.0000,0.0000,0.0000,0.0000,0.0000,0.0000,0.0000,0.00,0.00,0.00
4741,0.0094,-0.0004,0.0093,0.0080,-0.0008,-0.0029,-0.78,1.19,-0.01,0,3.980,0.220,-0.064,-0.028,0.021,-0.019,0.999,0.000,0.000,0.000,0.0090,0,-1,0.00,0.00,0.00,0.0000,0.0000,0.0000,0.0000,0.0000,0.0000,0.0000,0.00,0.00,0.00
4793,0.0089,-0.0025,0.0091,0.0031,-0.0123,-0.0035,-0.74,1.22,-0.01,0,3.991,0.168,-0.228,-0.029,0.020,-0.018,1.000,0.000,0.000,0.000,0.0100,-3,0,0.00,0.00,0.00,0.0000,0.0000,0.0000,0.0000,0.0000,0.0000,0.0000,0.00,0.00,0.00
4844,0.0092,-0.0015,0.0094,0.0032,-0.0066,-0.0013,-0.74,1.23,-0.01,0,3.980,0.582,-0.109,-0.164,0.021,-0.018,0.998,0.000,0.000,0.000,0.0120,-3,3,0.00,0.00,0.00,0.0000,0.0000,0.0000,0.0000,0.0000,0.0000,0.0000,0.00,0.00,0.00
4895,0.0098,-0.0011,0.0106,0.0063,-0.0051,0.0041,-0.73,1.24,-0.01,0,3.985,0.334,0.099,-0.210,0.020,-0.018,0.999,0.000,0.000,0.000,0.0090,-8,1,0.00,0.00,0.00,0.0000,0.0000,0.0000,0.0000,0.0000,0.0000,0.0000,0.00,0.00,0.00
4946,0.0093,-0.0028,0.0100,0.0030,-0.0134,0.0003,-0.81,1.24,-0.00,0,3.980,0.380,-0.015,0.098,0.021,-0.017,0.999,0.000,0.000,0.000,0.0110,0,2,0.00,0.00,0.00,0.0000,0.0000,0.0000,0.0000,0.0000,0.0000,0.0000,0.00,0.00,0.00
4997,0.0096,-0.0007,0.0105,0.0035,-0.0029,0.0025,-0.77,1.24,-0.00,0,3.991,0.491,0.092,0.353,0.022,-0.018,0.999,0.000,0.000,0.000,0.0060,3,0,0.00,0.00,0.00,0.0000,0.0000,0.0000,0.0000,0.0000,0.0000,0.0000,0.00,0.00,0.00
5048,0.0091,-0.0007,0.0086,0.0008,-0.0027,-0.0075,-0.73,1.24,-0.00,0,3.880,-0.197,-0.246,0.003,0.024,-0.019,0.998,0.000,0.000,0.000,0.0070,0,1,0.00,0.00,0.00,0.0000,0.0000,0.0000,0.0000,0.0000,0.0000,0.0000,0.00,0.00,0.00
5099,0.0093,-0.0027,0.0076,0.0020,-0.0135,-0.0101,-0.79,1.23,0.00,0,3.584,0.362,-1.632,1.657,0.018,-0.020,1.000,0.000,0.000,0.000,0.0110,-1,0,0.00,0.00,0.00,0.0000,0.0000,0.0000,0.0000,0.0000,0.0000,0.0000,0.00,0.00,0.00
5151,0.0093,-0.0019,0.0089,-0.0085,-0.0018,-0.0007,-0.80,1.24,-0.00,0,3.648,-1.133,-0.902,-0.189,0.012,-0.024,0.994,0.000,0.000,0.000,0.0090,6,2,0.00,0.00,0.00,0.0000,0.0000,0.0000,0.0000,0.0000,0.0000,0.0000,0.00,0.00,0.00
5202,0.0101,-0.0010,0.0090,-0.0118,0.0088,0.0005,-0.84,1.20,-0.01,0,3.684,0.461,-2.136,12.575,-0.036,-0.010,1.026,0.000,0.000,0.000,0.0080,0,3,0.00,0.00,0.00,0.0000,0.0000,0.0000,0.0000,0.0000,0.0000,0.0000,0.00,0.00,0.00
5254,0.0100,-0.0017,0.0085,-0.0182,0.0102,-0.0048,-0.88,1.13,0.36,0,3.690,4.289,-3.092,-2.235,0.038,0.008,0.989,0.000,0.000,0.000,0.0120,5,8,0.00,0.00,0.00,0.0000,0.0000,0.0000,0.0000,0.0000,0.0000,0.0000,0.00,0.00,0.00
5306,0.0102,-0.0007,0.0100,-0.0215,0.0186,0.0043,-0.84,1.11,0.75,0,3.706,6.821,-7.771,14.140,0.026,-0.036,0.967,0.000,0.000,0.000,0.0120,-8,-5,0.00,0.00,0.00,0.0000,0.0000,0.0000,0.0000,0.0000,0.0000,0.0000,0.00,0.00,0.00
5357,0.0101,0.0016,0.0112,-0.0245,0.0323,0.0045,-0.86,1.11,1.47,0,3.700,-9.532,5.389,8.241,0.001,-0.027,1.008,0.000,0.000,0.000,0.0160,-4,3,0.00,0.00,0.00,0.0000,0.0000,0.0000,0.0000,0.0000,0.0000,0.0000,0.00,0.00,0.00
5408,0.0077,0.0137,0.0130,-0.0373,0.0937,0.0116,-1.59,1.23,1.83,0,3.706,-5.600,12.584,7.113,-0.020,-0.009,0.939,0.000,0.000,0.000,0.0140,4,5,0.00,0.00,0.00,0.0000,0.0000,0.0000,0.0000,0.0000,0.0000,0.0000,0.00,0.00,0.00
5459,-0.0066,0.0168,0.0134,-0.1071,0.0945,0.0123,-0.88,1.78,2.33,0,3.695,1.369,-1.814,2.596,0.026,-0.029,1.091,0.000,0.000,0.000,0.0130,5,12,0.00,0.00,0.00,0.0000,0.0000,0.0000,0.0000,0.0000,0.0000,0.0000,0.00,0.00,0.00
5511,-0.0152,0.0060,0.0144,-0.1352,0.0252,0.0163,-0.42,1.87,2.51,0,3.700,-1.538,-0.348,5.861,0.020,-0.026,1.014,0.000,0.000,0.000,0.0120,-34,17,0.00,0.00,0.00,0.0000,0.0000,0.0000,0.0000,0.0000,0.0000,0.0000,0.00,0.00,0.00
5561,-0.0259,0.0141,0.0133,-0.1679,0.0655,0.0064,-1.05,1.95,2.79,0,3.684,9.132,3.015,3.317,0.033,-0.002,0.995,0.000,0.000,0.000,0.0120,-13,5,0.00,0.00,0.00,0.0000,0.0000,0.0000,0.0000,0.0000,0.0000,0.0000,0.00,0.00,0.00
5612,-0.0353,0.0374,0.0106,-0.1864,0.1747,-0.0107,-1.73,1.64,2.94,0,3.690,3.252,-3.624,-6.445,0.024,-0.038,1.016,0.000,0.000,0.000,0.0130,0,0,0.00,0.00,0.00,0.0000,0.0000,0.0000,0.0000,0.0000,0.0000,0.0000,0.00,0.00,0.00
5663,-0.0371,0.0431,0.0136,-0.1605,0.1681,0.0127,-1.00,1.45,2.63,0,3.684,18.070,-3.512,-6.016,0.031,-0.054,1.022,0.000,0.000,0.000,0.0120,-13,4,0.00,0.00,0.00,0.0000,0.0000,0.0000,0.0000,0.0000,0.0000,0.0000,0.00,0.00,0.00
5714,-0.0399,0.0524,0.0141,-0.1458,0.1833,0.0209,-0.63,1.21,2.40,0,3.684,-1.533,12.612,-2.833,0.019,-0.030,1.036,0.000,0.000,0.000,0.0180,-12,-5,0.00,0.00,0.00,0.0000,0.0000,0.0000,0.0000,0.0000,0.0000,0.0000,0.00,0.00,0.00
5766,-0.0427,0.0671,0.0164,-0.1322,0.2128,0.0293,-0.44,0.19,2.21,0,3.674,26.372,-3.459,-0.820,0.022,-0.010,1.007,0.000,0.000,0.000,0.0170,-6,0,0.00,0.00,0.00,0.0000,0.0000,0.0000,0.0000,0.0000,0.0000,0.0000,0.00,0.00,0.00
5817,-0.0406,0.0783,0.0184,-0.0930,0.2183,0.0365,0.80,-0.17,2.10,0,3.674,42.583,-11.613,1.814,-0.003,-0.012,1.028,0.000,0.000,0.000,0.0160,-3,-2,0.00,0.00,0.00,0.0000,0.0000,0.0000,0.0000,0.0000,0.0000,0.0000,0.00,0.00,0.00
5868,-0.0357,0.0878,0.0191,-0.0447,0.2074,0.0369,2.76,0.19,1.97,0,3.663,10.918,10.516,4.200,0.022,-0.013,0.976,0.000,0.000,0.000,0.0100,7,-2,0.00,0.00,0.00,0.0000,0.0000,0.0000,0.0000,0.0000,0.0000,0.0000,0.00,0.00,0.00
5919,-0.0278,0.0816,0.0174,0.0040,0.1068,0.0156,3.89,-0.30,2.16,0,3.648,-6.416,22.798,10.188,-0.010,0.008,0.994,0.000,0.000,0.000,0.0030,13,-3,0.00,0.00,0.00,0.0000,0.0000,0.0000,0.0000,0.0000,0.0000,0.0000,0.00,0.00,0.00
5970,-0.0301,0.0737,0.0110,-0.0064,0.0122,-0.0219,4.06,-1.00,2.84,0,3.637,-16.368,23.509,7.624,0.011,0.026,1.021,0.000,0.000,0.000,0.0000,27,4,0.00,0.00,0.00,0.0000,0.0000,0.0000,0.0000,0.0000,0.0000,0.0000,0.00,0.00,0.00
6021,-0.0251,0.0441,0.0005,0.0269,-0.1664,-0.0697,4.51,-1.96,3.58,0,3.621,-36.453,6.449,2.071,0.001,0.008,1.012,0.000,0.000,0.000,0.0000,16,-2,0.00,0.00,0.00,0.0000,0.0000,0.0000,0.0000,0.0000,0.0000,0.0000,0.00,0.00,0.00
6072,-0.0192,0.0049,-0.0120,0.0680,-0.3482,-0.1162,3.17,-2.40,3.78,0,3.611,-85.626,-20.493,-1.861,0.011,-0.002,1.063,0.000,0.000,0.000,0.0010,10,-5,0.00,0.00,0.00,0.0000,0.0000,0.0000,0.0000,0.0000,0.0000,0.0000,0.00,0.00,0.00
6123,-0.0066,-0.0255,-0.0170,0.1361,-0.4433,-0.1047,-0.53,-1.67,3.73,0,3.626,-74.391,-12.913,-6.383,0.019,-0.015,1.147,0.000,0.000,0.000,0.0000,-4,-3,0.00,0.00,0.00,0.0000,0.0000,0.0000,0.0000,0.0000,0.0000,0.0000,0.00,0.00,0.00
6174,0.0029,-0.0355,-0.0068,0.1622,-0.3766,0.0224,-5.12,-0.71,3.31,0,3.632,3.637,-10.533,-8.338,0.008,-0.021,1.047,0.000,0.000,0.000,0.0000,0,-11,0.00,0.00,0.00,0.0000,0.0000,0.0000,0.0000,0.0000,0.0000,0.0000,0.00,0.00,0.00
6225,0.0095,-0.0313,0.0021,0.1589,-0.2186,0.0976,-5.91,-0.13,2.66,0,3.632,10.840,-23.756,-13.536,0.001,-0.024,1.030,0.000,0.000,0.000,0.0000,9,20,0.00,0.00,0.00,0.0000,0.0000,0.0000,0.0000,0.0000,0.0000,0.0000,0.00,0.00,0.00
6276,0.0118,-0.0220,0.0060,0.1268,-0.0733,0.1142,-5.91,1.63,1.96,0,3.626,24.180,5.837,-11.283,0.011,-0.020,1.015,0.000,0.000,0.000,0.0070,5,-1,0.00,0.00,0.00,0.0000,0.0000,0.0000,0.0000,0.0000,0.0000,0.0000,0.00,0.00,0.00
6327,0.0028,-0.0134,0.0104,0.0415,0.0338,0.1182,-5.11,1.67,1.29,0,3.621,62.696,20.964,-7.096,0.010,-0.018,1.018,0.000,0.000,0.000,0.0190,-5,0,0.00,0.00,0.00,0.0000,0.0000,0.0000,0.0000,0.0000,0.0000,0.0000,0.00,0.00,0.00
6378,0.0017,-0.0125,0.0188,0.0110,0.0708,0.1360,-2.31,1.04,0.71,0,3.611,36.273,35.755,-7.674,0.004,-0.025,1.011,0.000,0.000,0.000,0.0240,5,-4,0.00,0.00,0.00,0.0000,0.0000,0.0000,0.0000,0.0000,0.0000,0.0000,0.00,0.00,0.00
6429,-0.0105,0.0057,0.0245,-0.0554,0.1595,0.1397,-0.48,-0.61,0.29,0,3.611,32.886,25.930,-9.862,0.012,-0.016,1.002,0.000,0.000,0.000,0.0280,6,-10,0.00,0.00,0.00,0.0000,0.0000,0.0000,0.0000,0.0000,0.0000,0.0000,0.00,0.00,0.00
6480,-0.0062,0.0029,0.0327,-0.0186,0.1134,0.1433,1.28,-2.05,-0.09,0,3.605,0.942,-0.832,-14.375,0.006,-0.015,0.991,0.000,0.000,0.000,0.0440,-15,-1,0.00,0.00,0.00,0.0000,0.0000,0.0000,0.0000,0.0000,0.0000,0.0000,0.00,0.00,0.00
6531,-0.0024,0.0099,0.0431,0.0179,0.1128,0.1558,1.24,-2.07,-0.76,0,3.611,12.981,-15.845,-7.005,0.007,-0.014,0.998,0.000,0.000,0.000,0.0540,-6,0,0.00,0.00,0.00,0.0000,0.0000,0.0000,0.0000,0.0000,0.0000,0.0000,0.00,0.00,0.00
6583,-0.0015,0.0291,0.0524,0.0340,0.1687,0.1563,1.61,-1.48,-1.20,0,3.595,47.689,-6.914,-4.005,0.006,-0.027,0.985,0.000,0.000,0.000,0.0590,-11,-2,0.00,0.00,0.00,0.0000,0.0000,0.0000,0.0000,0.0000,0.0000,0.0000,0.00,0.00,0.00
6633,-0.0002,0.0412,0.0605,0.0432,0.1754,0.1550,3.52,-1.15,-1.44,0,3.595,22.525,-3.416,-4.723,0.015,-0.030,1.013,0.000,0.000,0.000,0.0670,-15,-1,0.00,0.00,0.00,0.0000,0.0000,0.0000,0.0000,0.0000,0.0000,0.0000,0.00,0.00,0.00
6684,0.0016,0.0510,0.0689,0.0494,0.1534,0.1551,4.54,-1.20,-1.68,0,3.589,-5.587,-4.867,-2.591,0.014,-0.020,1.008,0.000,0.000,0.000,0.0790,-2,-3,0.00,0.00,0.00,0.0000,0.0000,0.0000,0.0000,0.0000,0.0000,0.0000,0.00,0.00,0.00
6735,0.0041,0.0592,0.0791,0.0583,0.1209,0.1652,4.40,-1.17,-1.85,0,3.595,2.419,-6.423,1.358,0.002,-0.014,1.012,0.000,0.000,0.000,0.0830,0,-2,0.00,0.00,0.00,0.0000,0.0000,0.0000,0.0000,0.0000,0.0000,0.0000,0.00,0.00,0.00
6786,0.0073,0.0635,0.0871,0.0675,0.0792,0.1698,4.49,-0.80,-1.76,0,3.589,-8.036,-23.010,4.506,0.005,-0.017,1.002,0.000,0.000,0.000,0.0890,7,-3,0.00,0.00,0.00,0.0000,0.0000,0.0000,0.0000,0.0000,0.0000,0.0000,0.00,0.00,0.00
6838,0.0043,0.0619,0.0946,0.0420,0.0190,0.1690,4.21,0.33,-1.54,0,3.595,-19.552,1.704,4.834,-0.005,-0.019,1.015,0.000,0.000,0.000,0.0990,0,-2,0.00,0.00,0.00,0.0000,0.0000,0.0000,0.0000,0.0000,0.0000,0.0000,0.00,0.00,0.00
6888,0.0081,0.0617,0.1035,0.0464,-0.0179,0.1746,3.23,0.42,-1.26,0,3.589,-17.676,2.594,3.909,0.004,-0.015,1.000,0.000,0.000,0.000,0.1020,3,-26,0.00,0.00,0.00,0.0000,0.0000,0.0000,0.0000,0.0000,0.3000,0.3027,-0.73,-1.90,0.00
6939,0.0059,0.0548,0.1092,0.0220,-0.0714,0.1623,2.44,0.16,-1.08,0,3.589,-34.284,6.293,6.374,-0.003,-0.012,1.024,0.000,0.000,0.000,0.1130,10,-3,3.23,0.42,-1.26,0.0081,0.0617,0.1020,0.0000,0.0000,0.3000,0.2848,0.92,-1.48,37.81
6990,0.0136,0.0523,0.1177,0.0481,-0.0847,0.1689,0.78,-0.02,-0.77,0,3.579,-14.870,-9.980,8.448,0.000,-0.011,1.003,0.000,0.000,0.000,0.1220,3,0,1.98,0.90,-0.92,0.0142,0.0417,0.1092,0.0000,0.0000,0.3000,0.2827,-0.97,-3.03,27.57
7041,0.0164,0.0470,0.1259,0.0493,-0.0959,0.1719,-0.03,0.48,-0.34,0,3.595,-13.429,-12.765,5.498,0.005,-0.010,1.010,0.000,0.000,0.000,0.1300,4,-2,-2.49,-1.20,-0.48,0.0143,0.0370,0.1362,0.0000,0.0000,0.3000,0.2773,-1.80,-3.15,14.45
7093,0.0175,0.0428,0.1349,0.0392,-0.0930,0.1768,-0.72,1.17,-0.02,0,3.584,-8.418,3.185,1.793,0.002,-0.013,1.002,0.000,0.000,0.000,0.1330,0,0,-4.02,-1.15,-0.17,0.0165,0.0323,0.1410,0.0000,0.0000,0.3000,0.2759,-1.99,-2.87,5.03
7144,0.0192,0.0393,0.1403,0.0293,-0.0831,0.1622,-1.20,0.95,0.08,0,3.584,-7.032,13.583,2.469,0.004,-0.011,1.005,0.000,0.000,0.000,0.1420,1,-1,-4.51,-0.98,-0.09,0.0179,0.0289,0.1435,0.0000,0.0000,0.3000,0.2770,-1.77,-2.51,2.61
7195,0.0219,0.0354,0.1477,0.0279,-0.0732,0.1591,-1.51,0.28,0.18,0,3.579,2.668,-2.096,3.016,0.007,-0.011,1.005,0.000,0.000,0.000,0.1490,8,0,-5.78,-0.47,-0.00,0.0182,0.0303,0.1486,0.0000,0.0000,0.3000,0.2764,-1.24,-2.47,0.04
7246,0.0231,0.0329,0.1540,0.0251,-0.0574,0.1532,-1.33,0.30,0.32,0,3.584,-0.137,-4.886,2.897,0.005,-0.012,1.003,0.000,0.000,0.000,0.1560,0,0,-3.43,-0.67,0.13,0.0186,0.0252,0.1616,0.0000,0.0000,0.3000,0.2746,-0.88,-2.39,-3.89
7298,0.0243,0.0296,0.1612,0.0222,-0.0481,0.1517,-1.31,0.55,0.45,0,3.574,2.565,5.051,-0.675,0.007,-0.011,1.007,0.000,0.000,0.000,0.1640,0,0,-3.44,-0.91,0.29,0.0188,0.0236,0.1666,0.0000,0.0000,0.3000,0.2738,-0.57,-2.28,-8.75
7349,0.0292,0.0290,0.1680,0.0331,-0.0311,0.1504,-1.24,0.27,0.43,0,3.584,7.708,0.639,-2.854,0.007,-0.010,1.008,0.000,0.000,0.000,0.1740,-2,-8,-3.30,-0.65,0.24,0.0188,0.0234,0.1728,0.0000,0.0000,0.3000,0.2728,0.18,-2.78,-7.23
7401,0.0311,0.0287,0.1771,0.0316,-0.0168,0.1594,-0.89,0.19,0.29,0,3.574,9.103,-4.503,-4.411,0.001,-0.018,1.002,0.000,0.000,0.000,0.1820,0,0,-3.04,0.70,0.23,0.0303,0.0257,0.1809,0.0000,0.0000,0.3000,0.2703,1.00,-3.52,-6.78
7452,0.0353,0.0302,0.1852,0.0387,-0.0014,0.1620,-0.49,0.36,0.08,0,3.584,2.130,-3.178,-4.908,0.002,-0.015,1.004,0.000,0.000,0.000,0.1920,-6,-9,-2.57,0.46,0.01,0.0349,0.0282,0.1887,0.0000,0.0000,0.3000,0.2685,1.89,-4.19,-0.25
7503,0.0358,0.0304,0.1949,0.0308,0.0032,0.1702,-0.35,0.47,-0.15,0,3.574,9.255,-0.988,-2.620,0.002,-0.016,0.998,0.000,0.000,0.000,0.1980,-1,-1,-2.89,0.83,-0.38,0.0445,0.0348,0.1947,0.0000,0.0000,0.3000,0.2665,2.58,-4.52,11.29
7554,0.0402,0.0337,0.2025,0.0358,0.0160,0.1656,0.04,0.51,-0.31,0,3.584,8.790,-1.017,-2.827,0.003,-0.015,0.993,0.000,0.000,0.000,0.2090,-1,-1,-2.25,0.52,-0.43,0.0498,0.0394,0.2048,0.0000,0.0000,0.3000,0.2651,3.51,-5.15,12.85
7606,0.0418,0.0368,0.2122,0.0311,0.0235,0.1707,0.42,0.60,-0.44,0,3.584,0.685,1.973,-0.663,0.004,-0.013,0.991,0.000,0.000,0.000,0.2210,-1,0,-1.63,0.24,-0.48,0.0542,0.0436,0.2147,0.0000,0.0000,0.3000,0.2627,4.19,-5.28,14.33
7658,0.0432,0.0389,0.2224,0.0259,0.0233,0.1754,0.55,0.61,-0.53,0,3.595,4.096,4.498,-1.110,0.005,-0.015,0.984,0.000,0.000,0.000,0.2310,-3,-2,-1.46,0.07,-0.39,0.0564,0.0475,0.2251,0.0000,0.0000,0.3000,0.2602,4.49,-5.25,11.75
7709,0.0438,0.0413,0.2334,0.0193,0.0227,0.1801,0.74,0.38,-0.55,0,3.579,7.007,7.087,0.598,0.005,-0.011,0.979,0.000,0.000,0.000,0.2270,0,0,-1.34,0.31,-0.48,0.0611,0.0541,0.2345,0.0000,0.0000,0.3000,0.2580,4.97,-5.31,14.41
7760,0.0454,0.0432,0.2366,0.0181,0.0192,0.1434,1.01,0.08,-0.53,0,3.584,0.307,3.949,0.328,0.004,-0.016,0.980,0.000,0.000,0.000,0.2400,-2,0,-0.98,0.66,-0.46,0.0658,0.0595,0.2394,0.0000,0.0000,0.3000,0.2610,5.13,-5.53,13.68
7811,0.0475,0.0488,0.2438,0.0207,0.0243,0.1346,1.04,-0.10,-0.54,0,3.574,1.536,-5.054,-1.070,0.004,-0.015,0.986,0.000,0.000,0.000,0.2430,0,-1,-0.65,0.37,-0.09,0.0595,0.0584,0.2471,0.0000,0.0000,0.3000,0.2605,5.31,-5.22,2.67
7863,0.0487,0.0503,0.2481,0.0216,0.0169,0.1178,1.09,0.08,-0.54,0,3.579,1.120,-3.676,0.781,0.007,-0.012,0.990,0.000,0.000,0.000,0.2470,0,0,-0.47,0.11,-0.12,0.0618,0.0596,0.2523,0.0000,0.0000,0.3000,0.2613,5.03,-5.41,3.57
7915,0.0502,0.0502,0.2524,0.0220,0.0054,0.1053,1.07,0.20,-0.53,0,3.568,-4.372,3.077,0.912,0.006,-0.016,0.996,0.000,0.000,0.000,0.2540,0,0,-0.41,-0.08,-0.08,0.0642,0.0622,0.2567,0.0000,0.0000,0.3000,0.2619,4.66,-5.58,2.27
7966,0.0516,0.0510,0.2568,0.0213,-0.0016,0.0981,0.92,0.13,-0.50,0,3.574,-0.783,-0.541,3.201,0.004,-0.013,1.005,0.000,0.000,0.000,0.2580,0,0,-0.64,0.08,-0.03,0.0667,0.0646,0.2614,0.0000,0.0000,0.3000,0.2617,4.51,-5.73,0.87
8017,0.0600,0.0574,0.2613,0.0394,0.0081,0.0957,0.80,0.09,-0.34,0,3.568,-3.936,-3.643,3.423,0.008,-0.010,1.002,0.000,0.000,0.000,0.2640,0,-2,-0.68,0.05,0.14,0.0693,0.0670,0.2660,0.0000,0.0000,0.3000,0.2611,5.15,-6.78,-4.06
8068,0.0609,0.0552,0.2660,0.0359,-0.0049,0.0956,0.72,0.27,-0.22,0,3.579,-6.748,-1.244,2.919,0.002,-0.012,0.998,0.000,0.000,0.000,0.2700,0,-1,-0.63,-0.30,0.51,0.0656,0.0599,0.2711,0.0000,0.0000,0.3000,0.2602,4.05,-6.37,-15.41
8119,0.0623,0.0560,0.2717,0.0324,-0.0076,0.0980,0.42,0.42,-0.09,0,3.568,0.282,-0.908,2.730,0.001,-0.012,0.994,0.000,0.000,0.000,0.2770,3,0,-0.98,-0.35,0.65,0.0673,0.0601,0.2762,0.0000,0.0000,0.3000,0.2590,3.96,-6.36,-19.47
8170,0.0618,0.0532,0.2778,0.0237,-0.0167,0.1033,0.40,0.51,0.05,0,3.579,-8.470,-0.313,3.594,0.005,-0.012,0.992,0.000,0.000,0.000,0.2810,3,0,-0.85,-0.41,0.80,0.0682,0.0571,0.2816,0.0000,0.0000,0.3000,0.2574,3.32,-6.05,-23.88
8221,0.0621,0.0483,0.2834,0.0176,-0.0288,0.1022,0.13,0.50,0.23,0,3.568,-4.876,2.872,3.575,0.006,-0.010,0.994,0.000,0.000,0.000,0.2880,2,1,-1.17,-0.44,0.98,0.0687,0.0526,0.2863,0.0000,0.0000,0.3000,0.2566,2.43,-5.82,-29.37
8273,0.0631,0.0454,0.2892,0.0141,-0.0324,0.1018,-0.18,0.46,0.40,0,3.584,-4.873,2.973,3.502,0.002,-0.011,0.985,0.000,0.000,0.000,0.2950,1,0,-1.35,-0.35,1.20,0.0675,0.0487,0.2918,0.0000,0.0000,0.3000,0.2556,1.99,-5.59,-36.07
8324,0.0638,0.0403,0.2959,0.0107,-0.0380,0.1041,-0.38,0.30,0.57,0,3.574,-1.205,2.727,3.086,0.009,-0.007,0.984,0.000,0.000,0.000,0.2990,0,0,-1.59,-0.20,1.38,0.0676,0.0463,0.2974,0.0000,0.0000,0.3000,0.2543,1.54,-5.46,-41.38
8376,0.0643,0.0378,0.3009,0.0085,-0.0362,0.0963,-0.51,0.13,0.75,0,3.579,-0.470,1.559,2.686,0.008,-0.011,0.984,0.000,0.000,0.000,0.3040,0,0,-1.65,-0.05,1.53,0.0680,0.0447,0.3023,0.0000,0.0000,0.3000,0.2542,1.52,-5.38,-45.97
8427,0.0639,0.0363,0.3061,0.0059,-0.0312,0.0890,-0.54,0.07,0.90,0,3.568,-2.456,-2.572,1.337,0.007,-0.013,0.979,0.000,0.000,0.000,0.3110,0,0,-1.68,0.03,1.67,0.0684,0.0437,0.3068,0.0000,0.0000,0.3000,0.2542,1.69,-5.29,-50.08
8478,0.0638,0.0360,0.3115,0.0043,-0.0241,0.0837,-0.64,0.12,0.97,0,3.579,2.446,1.662,-1.903,0.004,-0.010,0.979,0.000,0.000,0.000,0.3130,0,0,-1.80,-0.10,1.74,0.0691,0.0430,0.3117,0.0000,0.0000,0.3000,0.2538,1.99,-5.27,-52.23
8529,0.0640,0.0349,0.3153,0.0033,-0.0187,0.0728,-0.61,0.04,0.93,0,3.563,6.425,2.898,-1.668,0.002,-0.016,0.978,0.000,0.000,0.000,0.3140,0,0,-1.68,-0.01,1.64,0.0698,0.0429,0.3152,0.0000,0.0000,0.3000,0.2543,2.24,-5.26,-49.23
8580,0.0633,0.0339,0.3171,0.0014,-0.0145,0.0553,-0.33,-0.06,0.83,0,3.568,0.707,-0.510,-2.083,0.004,-0.012,0.987,0.000,0.000,0.000,0.3140,0,0,-1.35,0.13,1.55,0.0705,0.0431,0.3175,0.0000,0.0000,0.3000,0.2558,2.45,-5.19,-46.57
8632,0.0612,0.0366,0.3176,-0.0024,-0.0050,0.0370,-0.27,-0.04,0.71,0,3.558,0.684,0.329,-1.985,0.007,-0.012,0.989,0.000,0.000,0.000,0.3190,-2,-2,-1.32,0.10,1.45,0.0714,0.0436,0.3187,0.0000,0.0000,0.3000,0.2575,2.92,-5.04,-43.41
8683,0.0609,0.0398,0.3195,-0.0026,0.0040,0.0319,-0.27,-0.00,0.60,0,3.568,5.585,0.943,-2.385,0.011,-0.014,0.995,0.000,0.000,0.000,0.3190,0,0,-1.29,0.10,1.35,0.0712,0.0456,0.3206,0.0000,0.0000,0.3000,0.2577,3.49,-5.02,-40.56
8734,0.0624,0.0427,0.3205,0.0007,0.0110,0.0266,-0.08,-0.08,0.48,0,3.552,6.531,1.207,-4.099,0.007,-0.011,1.000,0.000,0.000,0.000,0.3210,-2,2,-1.01,0.15,1.23,0.0724,0.0467,0.3218,0.0000,0.0000,0.3000,0.2580,3.91,-5.25,-36.89
8786,0.0637,0.0405,0.3217,0.0038,0.0057,0.0255,0.25,-0.12,0.28,0,3.563,0.733,-1.424,-4.619,0.008,-0.012,1.003,0.000,0.000,0.000,0.3230,0,-1,-0.71,0.12,1.08,0.0701,0.0497,0.3234,0.0000,0.0000,0.3000,0.2579,3.87,-5.24,-32.34
8837,0.0605,0.0500,0.3233,-0.0013,0.0205,0.0275,0.27,-0.10,0.07,0,3.552,3.879,1.190,-3.910,0.009,-0.012,1.005,0.000,0.000,0.000,0.3220,-1,0,-0.66,0.06,0.82,0.0713,0.0510,0.3250,0.0000,0.0000,0.3000,0.2573,4.68,-5.09,-24.73
8888,0.0627,0.0526,0.3237,0.0035,0.0210,0.0246,0.41,-0.14,-0.15,0,3.563,3.977,0.720,-1.214,0.004,-0.018,1.006,0.000,0.000,0.000,0.3290,0,0,-0.48,0.11,0.63,0.0719,0.0532,0.3259,0.0000,0.0000,0.3000,0.2575,4.86,-5.36,-18.91
8939,0.0653,0.0532,0.3272,0.0093,0.0164,0.0368,0.57,-0.19,-0.24,0,3.558,-0.863,-3.620,-0.135,0.010,-0.013,1.001,0.000,0.000,0.000,0.3270,0,0,-0.27,0.15,0.57,0.0729,0.0549,0.3287,0.0000,0.0000,0.3000,0.2556,4.79,-5.76,-17.04
8990,0.0664,0.0585,0.3284,0.0119,0.0198,0.0351,0.55,-0.05,-0.24,0,3.563,1.860,-2.112,1.544,0.002,-0.020,0.997,0.000,0.000,0.000,0.3280,-1,-2,-0.32,-0.04,0.56,0.0743,0.0562,0.3302,0.0000,0.0000,0.3000,0.2555,5.06,-5.98,-16.86
9042,0.0690,0.0582,0.3297,0.0157,0.0126,0.0320,0.58,0.07,-0.18,0,3.552,-1.885,-1.085,3.949,0.004,-0.022,0.995,0.000,0.000,0.000,0.3310,0,0,-0.23,-0.11,0.59,0.0779,0.0575,0.3314,0.0000,0.0000,0.3000,0.2556,4.80,-6.43,-17.81
9093,0.0722,0.0638,0.3314,0.0193,0.0166,0.0321,0.50,0.09,0.01,0,3.563,-0.394,-0.283,5.186,0.005,-0.015,0.997,0.000,0.000,0.000,0.3300,1,-1,-0.32,-0.17,0.80,0.0799,0.0581,0.3329,0.0000,0.0000,0.3000,0.2553,5.05,-6.75,-23.98
9144,0.0746,0.0665,0.3321,0.0211,0.0161,0.0273,0.43,0.08,0.28,0,3.552,0.812,0.730,6.327,0.005,-0.014,1.001,0.000,0.000,0.000,0.3350,0,0,-0.30,-0.19,1.08,0.0814,0.0555,0.3336,0.0000,0.0000,0.3000,0.2557,4.83,-6.93,-32.40
9196,0.0773,0.0630,0.3344,0.0235,0.0047,0.0313,0.43,0.06,0.58,0,3.563,-0.705,-2.276,7.195,0.004,-0.017,0.996,0.000,0.000,0.000,0.3360,0,0,-0.26,-0.15,1.40,0.0834,0.0549,0.3355,0.0000,0.0000,0.3000,0.2549,4.25,-7.21,-42.08
9247,0.0812,0.0646,0.3364,0.0278,0.0036,0.0330,0.32,0.18,0.91,0,3.552,-1.413,-1.773,7.563,0.001,-0.016,0.995,0.000,0.000,0.000,0.3380,2,-2,-0.30,-0.27,1.78,0.0853,0.0540,0.3371,0.0000,0.0000,0.3000,0.2545,4.14,-7.57,-53.32
9298,0.0836,0.0703,0.3383,0.0280,0.0109,0.0327,0.24,0.30,1.28,0,3.563,0.593,-2.621,5.860,0.008,-0.015,0.999,0.000,0.000,0.000,0.3390,0,0,-0.34,-0.34,2.14,0.0884,0.0501,0.3387,0.0000,0.0000,0.3000,0.2542,4.21,-7.81,-64.08
9349,0.0895,0.0667,0.3399,0.0330,0.0017,0.0306,0.24,0.45,1.60,0,3.552,0.909,-2.763,3.738,0.004,-0.013,0.996,0.000,0.000,0.000,0.3440,0,0,-0.31,-0.47,2.44,0.0906,0.0481,0.3401,0.0000,0.0000,0.3000,0.2541,3.62,-8.21,-73.07
9400,0.0913,0.0679,0.3431,0.0292,0.0016,0.0371,0.24,0.66,1.81,0,3.563,-1.229,1.548,4.015,0.002,-0.018,0.992,0.000,0.000,0.000,0.3400,0,0,-0.26,-0.61,2.63,0.0928,0.0458,0.3426,0.0000,0.0000,0.3000,0.2530,3.47,-8.22,-78.81
9451,0.0956,0.0687,0.3430,0.0288,0.0010,0.0256,0.16,0.67,2.00,0,3.552,-1.760,3.283,2.524,0.005,-0.015,0.996,0.000,0.000,0.000,0.3440,0,0,-0.33,-0.53,2.83,0.0947,0.0433,0.3430,0.0000,0.0000,0.3000,0.2541,3.24,-8.31,-84.94
9502,0.0949,0.0688,0.3445,0.0198,-0.0002,0.0248,0.04,0.63,2.15,0,3.558,1.375,-0.157,1.735,0.002,-0.013,0.992,0.000,0.000,0.000,0.3460,0,0,-0.42,-0.36,2.96,0.0965,0.0405,0.3443,0.0000,0.0000,0.3000,0.2540,2.98,-8.01,-88.77
9554,0.0949,0.0728,0.3462,0.0132,0.0062,0.0243,0.08,0.60,2.26,0,3.547,-1.210,-1.273,2.367,0.006,-0.015,0.995,0.000,0.000,0.000,0.3450,0,0,-0.35,-0.37,3.05,0.0982,0.0374,0.3457,0.0000,0.0000,0.3000,0.2538,3.07,-7.83,-91.43
9605,0.0955,0.0731,0.3465,0.0081,0.0051,0.0181,0.09,0.58,2.37,0,3.558,-2.363,2.313,3.050,0.005,-0.013,0.999,0.000,0.000,0.000,0.3460,0,0,-0.41,-0.44,3.17,0.0999,0.0342,0.3462,0.0000,0.0000,0.3000,0.2543,2.78,-7.69,-95.13
9656,0.0962,0.0737,0.3469,0.0042,0.0049,0.0132,-0.02,0.49,2.52,0,3.547,-1.376,0.853,2.651,0.006,-0.011,0.999,0.000,0.000,0.000,0.3470,0,1,-0.54,-0.32,3.33,0.1016,0.0309,0.3469,0.0000,0.0000,0.3000,0.2547,2.52,-7.61,-99.77
9707,0.0963,0.0739,0.3474,-0.0001,0.0051,0.0112,-0.11,0.51,2.65,0,3.552,2.184,5.050,1.306,0.001,-0.017,0.993,0.000,0.000,0.000,0.3480,0,0,-0.77,-0.36,3.68,0.0908,0.0482,0.3479,0.0000,0.0000,0.3000,0.2547,3.79,-6.63,-110.52
9758,0.0936,0.0738,0.3481,-0.0082,0.0050,0.0098,-0.04,0.31,2.72,0,3.542,0.453,2.107,0.572,0.003,-0.016,0.999,0.000,0.000,0.000,0.3460,0,0,-0.66,-0.11,3.75,0.0903,0.0480,0.3485,0.0000,0.0000,0.3000,0.2548,3.77,-6.21,-112.42
9809,0.0913,0.0782,0.3475,-0.0137,0.0123,0.0041,-0.05,0.20,2.76,0,3.552,1.187,3.964,0.447,0.003,-0.016,1.001,0.000,0.000,0.000,0.3470,-3,1,-0.64,0.00,3.78,0.0898,0.0476,0.3482,0.0000,0.0000,0.3000,0.2554,4.09,-5.90,-113.26
9860,0.0885,0.0804,0.3474,-0.0189,0.0155,0.0026,-0.15,0.10,2.80,0,3.542,3.998,4.417,0.743,0.001,-0.020,0.997,0.000,0.000,0.000,0.3510,-3,0,-0.67,0.18,3.83,0.0880,0.0530,0.3480,0.0000,0.0000,0.3000,0.2556,4.63,-5.51,-114.81
9911,0.0862,0.0883,0.3492,-0.0219,0.0276,0.0118,0.08,-0.04,2.82,0,3.547,6.223,4.709,-0.471,0.009,-0.020,0.997,0.000,0.000,0.000,0.3470,0,0,-0.50,0.41,3.86,0.0873,0.0562,0.3491,0.0000,0.0000,0.3000,0.2544,5.47,-5.34,-115.68
9962,0.0853,0.0921,0.3486,-0.0207,0.0299,0.0048,0.37,-0.21,2.78,0,3.542,1.721,1.688,-1.619,0.006,-0.014,1.003,0.000,0.000,0.000,0.3480,0,0,-0.18,0.65,3.83,0.0870,0.0579,0.3488,0.0000,0.0000,0.3000,0.2552,5.68,-5.36,-114.92
10013,0.0832,0.1072,0.3485,-0.0205,0.0494,0.0032,0.38,-0.28,2.70,0,3.547,4.905,1.946,-2.089,0.007,-0.011,1.002,0.000,0.000,0.000,0.3470,0,0,-0.10,0.74,3.75,0.0871,0.0593,0.3488,0.0000,0.0000,0.3000,0.2554,6.71,-5.38,-112.44
10064,0.0830,0.1124,0.3479,-0.0175,0.0521,0.0003,0.61,-0.33,2.60,0,3.537,5.138,0.955,-1.063,0.003,-0.020,1.000,0.000,0.000,0.000,0.3480,-2,0,0.15,0.84,3.64,0.0878,0.0605,0.3486,0.0000,0.0000,0.3000,0.2558,6.92,-5.57,-109.24
10115,0.0832,0.1162,0.3480,-0.0120,0.0469,0.0007,0.91,-0.34,2.51,0,3.547,1.691,-2.329,-1.943,0.005,-0.015,1.002,0.000,0.000,0.000,0.3470,0,0,0.37,0.84,3.61,0.0848,0.0647,0.3487,0.0000,0.0000,0.3000,0.2557,6.98,-5.62,-108.44
10166,0.0824,0.1264,0.3476,-0.0101,0.0552,-0.0006,0.91,-0.26,2.40,0,3.537,-0.334,0.076,-2.620,0.005,-0.011,1.005,0.000,0.000,0.000,0.3470,0,0,0.46,0.73,3.51,0.0855,0.0657,0.3484,0.0000,0.0000,0.3000,0.2559,7.44,-5.75,-105.44
10217,0.0835,0.1284,0.3473,-0.0050,0.0466,0.0000,0.96,-0.26,2.28,0,3.547,2.305,-3.470,-2.481,0.002,-0.014,1.003,0.000,0.000,0.000,0.3500,0,-1,0.44,0.73,3.38,0.0867,0.0662,0.3483,0.0000,0.0000,0.3000,0.2558,7.06,-6.09,-101.44
10268,0.0858,0.1288,0.3486,0.0015,0.0354,0.0086,1.09,-0.15,2.16,0,3.542,-2.469,-1.332,-2.457,0.005,-0.013,0.999,0.000,0.000,0.000,0.3510,0,0,0.55,0.54,3.27,0.0873,0.0664,0.3492,0.0000,0.0000,0.3000,0.2547,6.58,-6.48,-98.20
10319,0.0875,0.1309,0.3501,0.0058,0.0272,0.0147,1.04,-0.11,2.03,0,3.552,-2.224,-1.739,-2.643,0.007,-0.011,1.000,0.000,0.000,0.000,0.3530,0,0,0.42,0.48,3.15,0.0891,0.0659,0.3501,0.0000,0.0000,0.3000,0.2539,6.17,-6.83,-94.42
10371,0.0902,0.1290,0.3519,0.0107,0.0130,0.0190,0.92,-0.06,1.89,0,3.542,-2.791,-3.165,-3.216,0.002,-0.012,0.998,0.000,0.000,0.000,0.3530,0,-1,0.31,0.39,3.01,0.0913,0.0648,0.3515,0.0000,0.0000,0.3000,0.2532,5.42,-7.25,-90.36
10422,0.0939,0.1298,0.3531,0.0166,0.0058,0.0190,0.77,0.06,1.76,0,3.547,-4.652,-5.569,-2.569,-0.000,-0.013,0.992,0.000,0.000,0.000,0.3520,0,0,0.12,0.19,2.88,0.0908,0.0670,0.3527,0.0000,0.0000,0.3000,0.2530,5.23,-7.51,-86.33
10473,0.0975,0.1309,0.3532,0.0210,0.0010,0.0121,0.57,0.21,1.64,0,3.537,-3.277,-1.403,-2.542,0.007,-0.012,0.991,0.000,0.000,0.000,0.3560,4,0,-0.11,-0.09,2.75,0.0926,0.0660,0.3529,0.0000,0.0000,0.3000,0.2536,4.92,-7.82,-82.40
10525,0.1022,0.1282,0.3549,0.0256,-0.0086,0.0135,0.42,0.34,1.50,0,3.547,-4.459,-3.054,-2.201,0.008,-0.011,0.990,0.000,0.000,0.000,0.3550,-2,0,-0.20,-0.19,2.73,0.0925,0.0574,0.3540,0.0000,0.0000,0.3000,0.2533,3.84,-8.05,-81.87
10576,0.1049,0.1244,0.3553,0.0252,-0.0174,0.0073,0.22,0.49,1.34,0,3.537,-4.488,-3.668,-2.642,0.007,-0.012,0.992,0.000,0.000,0.000,0.3540,0,0,-0.48,-0.35,2.61,0.0933,0.0583,0.3546,0.0000,0.0000,0.3000,0.2538,3.47,-8.07,-78.32
10627,0.1064,0.1258,0.3549,0.0218,-0.0158,-0.0006,-0.02,0.64,1.22,0,3.542,-2.260,-0.304,-1.085,0.006,-0.011,0.995,0.000,0.000,0.000,0.3510,0,0,-0.70,-0.54,2.48,0.0947,0.0560,0.3543,0.0000,0.0000,0.3000,0.2547,3.36,-7.99,-74.34
10679,0.1099,0.1258,0.3530,0.0209,-0.0145,-0.0123,-0.17,0.63,1.14,0,3.531,0.132,-2.331,-0.881,0.007,-0.010,1.002,0.000,0.000,0.000,0.3530,0,0,-0.82,-0.56,2.42,0.0960,0.0536,0.3530,0.0000,0.0000,0.3000,0.2563,3.23,-7.99,-72.69
10731,0.1119,0.1256,0.3525,0.0171,-0.0123,-0.0132,-0.22,0.71,1.10,0,3.537,2.563,-0.967,0.692,0.003,-0.013,1.002,0.000,0.000,0.000,0.3530,0,0,-0.81,-0.68,2.38,0.0973,0.0514,0.3526,0.0000,0.0000,0.3000,0.2564,3.18,-7.90,-71.37
10782,0.1116,0.1251,0.3522,0.0093,-0.0105,-0.0109,-0.22,0.72,1.12,0,3.526,0.010,2.624,1.122,0.004,-0.015,1.004,0.000,0.000,0.000,0.3460,0,0,-0.68,-0.73,2.42,0.0983,0.0492,0.3525,0.0000,0.0000,0.3000,0.2562,3.11,-7.61,-72.46
10834,0.1124,0.1269,0.3490,0.0039,-0.0049,-0.0219,-0.29,0.57,1.16,0,3.531,1.236,2.494,1.212,0.007,-0.011,1.010,0.000,0.000,0.000,0.3470,-1,0,-0.68,-0.60,2.47,0.0991,0.0468,0.3503,0.0000,0.0000,0.3000,0.2578,3.19,-7.36,-74.14
10885,0.1128,0.1341,0.3473,-0.0006,0.0098,-0.0225,-0.26,0.51,1.21,0,3.526,5.571,2.637,0.782,0.002,-0.008,1.013,0.000,0.000,0.000,0.3490,-1,1,-0.72,-0.49,2.62,0.0959,0.0602,0.3492,0.0000,0.0000,0.3000,0.2581,4.84,-6.92,-78.49
10936,0.1116,0.1392,0.3474,-0.0070,0.0192,-0.0113,-0.01,0.40,1.26,0,3.537,6.468,4.715,1.297,0.004,-0.016,1.007,0.000,0.000,0.000,0.3490,-2,0,-0.44,-0.36,2.66,0.0951,0.0612,0.3491,0.0000,0.0000,0.3000,0.2569,5.39,-6.59,-79.92
10988,0.1093,0.1457,0.3478,-0.0134,0.0289,-0.0026,0.21,0.19,1.31,0,3.526,4.228,2.495,0.924,0.004,-0.015,1.009,0.000,0.000,0.000,0.3500,0,0,-0.13,-0.12,2.74,0.0947,0.0633,0.3492,0.0000,0.0000,0.3000,0.2559,6.02,-6.28,-82.29
11040,0.1087,0.1508,0.3488,-0.0149,0.0329,0.0052,0.44,0.03,1.34,0,3.531,3.429,2.959,-0.508,0.007,-0.012,1.006,0.000,0.000,0.000,0.3480,-1,0,0.09,0.01,2.79,0.0944,0.0638,0.3499,0.0000,0.0000,0.3000,0.2549,6.28,-6.21,-83.73
11091,0.1070,0.1533,0.3487,-0.0169,0.0309,0.0057,0.59,-0.09,1.34,0,3.526,2.185,3.324,-0.432,0.005,-0.009,1.004,0.000,0.000,0.000,0.3470,0,1,0.24,0.17,2.77,0.0943,0.0661,0.3499,0.0000,0.0000,0.3000,0.2549,6.35,-6.12,-83.18
11144,0.1055,0.1606,0.3482,-0.0172,0.0362,0.0041,0.67,-0.20,1.33,0,3.537,3.725,-0.140,-0.413,0.008,-0.012,1.004,0.000,0.000,0.000,0.3500,0,0,0.35,0.32,2.77,0.0930,0.0663,0.3496,0.0000,0.0000,0.3000,0.2551,6.61,-6.00,-83.18
11195,0.1039,0.1645,0.3492,-0.0167,0.0342,0.0094,0.85,-0.27,1.33,0,3.526,2.634,-0.268,0.209,0.006,-0.011,1.002,0.000,0.000,0.000,0.3510,-2,0,0.55,0.31,2.75,0.0931,0.0662,0.3503,0.0000,0.0000,0.3000,0.2544,6.53,-6.05,-82.53
11246,0.1031,0.1660,0.3504,-0.0142,0.0270,0.0135,0.94,-0.30,1.31,0,3.537,0.202,0.010,-1.389,0.006,-0.014,0.999,0.000,0.000,0.000,0.3530,0,0,0.62,0.29,2.76,0.0925,0.0726,0.3514,0.0000,0.0000,0.3000,0.2537,6.66,-6.14,-82.91
11297,0.1036,0.1703,0.3521,-0.0095,0.0245,0.0183,0.95,-0.36,1.25,0,3.526,-0.229,-1.116,-1.492,0.010,-0.012,0.996,0.000,0.000,0.000,0.3520,-4,0,0.63,0.29,2.69,0.0930,0.0730,0.3526,0.0000,0.0000,0.3000,0.2530,6.59,-6.43,-80.78
11349,0.1023,0.1727,0.3527,-0.0079,0.0188,0.0155,0.89,-0.33,1.17,0,3.531,-0.928,-1.138,-0.279,0.005,-0.015,0.998,0.000,0.000,0.000,0.3480,-3,0,0.51,0.22,2.61,0.0918,0.0854,0.3531,0.0000,0.0000,0.3000,0.2532,7.21,-6.42,-78.22
11401,0.1020,0.1796,0.3511,-0.0048,0.0222,0.0026,0.87,-0.29,1.14,0,3.521,-0.692,-1.012,-0.954,-0.000,-0.017,0.993,0.000,0.000,0.000,0.3480,0,-1,0.42,0.16,2.59,0.0919,0.0919,0.3520,0.0000,0.0000,0.3000,0.2548,7.79,-6.53,-77.57
11453,0.1028,0.1831,0.3497,-0.0002,0.0198,-0.0064,0.82,-0.25,1.10,0,3.531,-2.459,-0.929,-1.277,0.007,-0.004,1.005,0.000,0.000,0.000,0.3510,0,-1,0.40,0.12,2.51,0.0942,0.0929,0.3509,0.0000,0.0000,0.3000,0.2560,7.71,-6.89,-75.26
11505,0.1052,0.1811,0.3501,0.0063,0.0075,-0.0029,0.74,-0.21,1.04,0,3.521,-1.896,-4.214,-1.899,0.002,-0.015,1.000,0.000,0.000,0.000,0.3490,-1,0,0.28,0.09,2.42,0.0970,0.0936,0.3511,0.0000,0.0000,0.3000,0.2555,7.19,-7.41,-72.57
11556,0.1082,0.1780,0.3495,0.0130,-0.0051,-0.0049,0.61,-0.06,0.94,0,3.526,-3.468,-3.455,-2.098,0.004,-0.008,1.004,0.000,0.000,0.000,0.3460,1,0,0.17,-0.14,2.34,0.0973,0.0964,0.3505,0.3483,0.1264,0.3000,0.2559,-9.52,16.47,-70.12
11607,0.1093,0.1809,0.3477,0.0145,-0.0041,-0.0108,0.42,0.05,0.84,0,3.521,-3.616,-0.838,-2.539,0.008,-0.014,1.005,0.000,0.000,0.000,0.3520,1,-2,0.02,-0.33,2.26,0.0978,0.0941,0.3493,0.3483,0.1264,0.3000,0.2567,-9.60,16.33,-67.70
11658,0.1111,0.1821,0.3494,0.0161,-0.0046,0.0024,0.24,0.13,0.72,0,3.526,-2.181,-1.771,-2.469,0.002,-0.011,1.004,0.000,0.000,0.000,0.3480,0,-1,-0.15,-0.34,2.06,0.1037,0.0914,0.3502,0.3483,0.1264,0.3000,0.2551,-9.88,15.96,-61.85
11710,0.1154,0.1818,0.3489,0.0214,-0.0068,0.0023,0.13,0.20,0.60,0,3.521,-2.558,0.128,-2.242,0.003,-0.012,1.005,0.000,0.000,0.000,0.3480,-4,-1,-0.26,-0.42,1.92,0.1070,0.0913,0.3498,0.3483,0.1264,0.3000,0.2552,-9.98,15.49,-57.62
11761,0.1172,0.1837,0.3486,0.0210,-0.0037,0.0024,0.08,0.29,0.50,0,3.526,2.122,-2.660,-2.266,0.004,-0.009,1.004,0.000,0.000,0.000,0.3470,0,0,-0.48,-0.41,1.80,0.1099,0.1038,0.3496,0.3483,0.1264,0.3000,0.2552,-8.95,15.32,-54.12
11812,0.1190,0.1850,0.3480,0.0200,-0.0012,0.0015,0.08,0.38,0.41,0,3.521,1.006,1.022,-1.504,0.004,-0.011,1.002,0.000,0.000,0.000,0.3490,3,-1,-0.37,-0.54,1.69,0.1122,0.1054,0.3491,0.3483,0.1264,0.3000,0.2554,-8.71,15.20,-50.69
11863,0.1204,0.1882,0.3486,0.0178,0.0049,0.0056,0.10,0.33,0.35,0,3.526,2.477,-1.856,-1.801,0.004,-0.015,1.003,0.000,0.000,0.000,0.3500,-2,-2,-0.20,-0.50,1.58,0.1136,0.0883,0.3496,0.3483,0.1264,0.3000,0.2549,-9.66,15.24,-47.43
11914,0.1223,0.1861,0.3495,0.0169,-0.0001,0.0086,0.09,0.32,0.30,0,3.521,1.742,0.811,0.414,0.005,-0.015,1.003,0.000,0.000,0.000,0.3520,0,0,-0.12,-0.57,1.48,0.1191,0.0931,0.3503,0.3483,0.1264,0.3000,0.2544,-9.57,14.93,-44.39
11965,0.1245,0.1879,0.3510,0.0169,0.0026,0.0153,0.18,0.30,0.28,0,3.531,-0.136,0.823,-0.195,0.004,-0.014,0.999,0.000,0.000,0.000,0.3520,0,0,-0.03,-0.53,1.50,0.1216,0.0920,0.3514,0.3483,0.1264,0.3000,0.2535,-9.56,14.82,-45.02
12017,0.1259,0.1888,0.3521,0.0156,0.0026,0.0166,0.20,0.26,0.26,0,3.521,2.806,-1.839,-0.740,0.001,-0.019,0.996,0.000,0.000,0.000,0.3530,-2,-1,-0.04,-0.49,1.49,0.1240,0.0905,0.3521,0.3483,0.1264,0.3000,0.2532,-9.67,14.74,-44.72
12068,0.1259,0.1922,0.3531,0.0118,0.0075,0.0162,0.22,0.27,0.24,0,3.526,1.001,-0.689,-0.159,0.005,-0.011,0.994,0.000,0.000,0.000,0.3530,0,-1,0.00,-0.61,1.56,0.1219,0.1060,0.3532,0.3483,0.1264,0.3000,0.2530,-8.34,15.06,-46.67
12119,0.1256,0.1990,0.3537,0.0077,0.0180,0.0125,0.26,0.32,0.24,0,3.521,5.176,2.302,-0.058,0.002,-0.018,0.992,0.000,0.000,0.000,0.3510,0,0,0.06,-0.63,1.54,0.1243,0.1063,0.3536,0.3483,0.1264,0.3000,0.2534,-7.80,15.07,-46.10
12170,0.1281,0.2031,0.3528,0.0092,0.0222,0.0025,0.49,0.24,0.26,0,3.526,3.125,0.889,0.164,0.001,-0.018,0.989,0.000,0.000,0.000,0.3530,0,0,0.32,-0.52,1.53,0.1256,0.1065,0.3530,0.3483,0.1264,0.3000,0.2546,-7.55,14.85,-46.02
12221,0.1286,0.2039,0.3529,0.0073,0.0177,-0.0007,0.62,0.17,0.29,0,3.516,-0.140,-0.311,0.281,0.000,-0.016,0.994,0.000,0.000,0.000,0.3490,-3,0,0.48,-0.47,1.54,0.1267,0.1060,0.3528,0.3483,0.1264,0.3000,0.2549,-7.79,14.84,-46.28
12272,0.1298,0.2060,0.3510,0.0077,0.0151,-0.0115,0.65,0.18,0.29,0,3.521,-0.249,0.301,0.366,0.006,-0.013,0.998,0.000,0.000,0.000,0.3520,0,-1,0.37,-0.51,1.69,0.1243,0.1204,0.3514,0.3483,0.1264,0.3000,0.2564,-6.84,14.92,-50.62
12323,0.1307,0.2079,0.3510,0.0073,0.0119,-0.0095,0.62,0.16,0.30,0,3.516,-0.162,0.700,0.344,0.004,-0.014,1.001,0.000,0.000,0.000,0.3520,0,-1,0.36,-0.48,1.68,0.1259,0.1212,0.3511,0.3483,0.1264,0.3000,0.2562,-6.95,14.84,-50.55
12375,0.1318,0.2124,0.3511,0.0075,0.0149,-0.0066,0.50,0.17,0.33,0,3.526,-0.192,-0.330,1.445,0.001,-0.012,0.999,0.000,0.000,0.000,0.3520,2,-2,0.36,-0.44,1.68,0.1278,0.1215,0.3509,0.3483,0.1264,0.3000,0.2559,-6.79,14.71,-50.40
12427,0.1336,0.2181,0.3513,0.0090,0.0202,-0.0037,0.54,0.20,0.38,0,3.516,3.214,-0.392,1.039,0.008,-0.007,1.003,0.000,0.000,0.000,0.3480,0,0,0.38,-0.42,1.68,0.1322,0.1175,0.3508,0.3483,0.1264,0.3000,0.2556,-6.83,14.37,-50.30
12479,0.1356,0.2189,0.3496,0.0103,0.0157,-0.0102,0.62,0.22,0.43,0,3.521,-1.314,-1.161,0.641,0.001,-0.010,0.999,0.000,0.000,0.000,0.3490,1,0,0.54,-0.44,1.73,0.1336,0.1165,0.3496,0.3483,0.1264,0.3000,0.2566,-7.09,14.16,-51.91
12530,0.1376,0.2180,0.3489,0.0114,0.0075,-0.0117,0.56,0.28,0.45,0,3.510,-2.588,-0.038,1.128,0.003,-0.016,1.000,0.000,0.000,0.000,0.3520,0,0,0.48,-0.52,1.80,0.1323,0.1147,0.3489,0.3483,0.1264,0.3000,0.2568,-7.60,14.19,-53.92
12581,0.1399,0.2187,0.3500,0.0129,0.0035,-0.0028,0.42,0.29,0.46,0,3.521,0.730,0.583,-0.141,0.006,-0.012,0.998,0.000,0.000,0.000,0.3500,0,0,0.34,-0.53,1.85,0.1329,0.1124,0.3494,0.3483,0.1264,0.3000,0.2558,-7.98,14.14,-55.65
12632,0.1414,0.2212,0.3499,0.0123,0.0046,-0.0033,0.45,0.26,0.46,0,3.510,-0.557,1.900,0.871,0.003,-0.013,1.000,0.000,0.000,0.000,0.3500,0,0,0.38,-0.50,1.85,0.1335,0.1097,0.3492,0.3483,0.1264,0.3000,0.2559,-8.12,14.13,-55.43
12683,0.1417,0.2198,0.3498,0.0096,-0.0021,-0.0038,0.42,0.23,0.48,0,3.521,-3.177,1.992,0.958,0.006,-0.011,0.998,0.000,0.000,0.000,0.3470,0,0,0.35,-0.40,1.89,0.1339,0.1065,0.3490,0.3483,0.1264,0.3000,0.2560,-8.66,14.22,-56.78
12735,0.1435,0.2199,0.3483,0.0104,-0.0052,-0.0115,0.30,0.19,0.52,0,3.510,-2.693,0.508,1.433,0.007,-0.014,0.999,0.000,0.000,0.000,0.3450,-1,-1,0.19,-0.30,1.94,0.1343,0.1028,0.3480,0.3483,0.1264,0.3000,0.2570,-9.04,14.10,-58.27
12786,0.1452,0.2219,0.3463,0.0111,-0.0033,-0.0186,0.12,0.20,0.56,0,3.516,2.144,-0.003,1.469,0.006,-0.015,1.001,0.000,0.000,0.000,0.3440,-2,0,-0.10,-0.26,2.11,0.1358,0.1235,0.3471,0.3483,0.1264,0.3000,0.2579,-7.46,13.93,-63.28
12837,0.1444,0.2248,0.3445,0.0069,0.0015,-0.0226,0.14,0.28,0.62,0,3.505,1.204,1.458,1.614,-0.000,-0.011,1.003,0.000,0.000,0.000,0.3450,0,1,-0.00,-0.26,2.19,0.1363,0.1251,0.3454,0.3483,0.1264,0.3000,0.2587,-7.10,14.05,-65.84
12890,0.1475,0.2315,0.3439,0.0098,0.0129,-0.0188,0.21,0.36,0.69,0,3.510,0.085,2.420,1.667,0.010,-0.010,1.008,0.000,0.000,0.000,0.3430,0,0,0.06,-0.20,2.29,0.1356,0.1250,0.3446,0.3483,0.1264,0.3000,0.2584,-6.57,13.98,-68.70
12941,0.1475,0.2347,0.3427,0.0064,0.0162,-0.0185,0.20,0.27,0.76,0,3.505,3.191,-2.548,1.426,0.006,-0.009,1.002,0.000,0.000,0.000,0.3460,0,0,0.06,-0.07,2.38,0.1359,0.1247,0.3437,0.3483,0.1264,0.3000,0.2585,-6.44,14.10,-71.36
12993,0.1470,0.2357,0.3437,0.0025,0.0144,-0.0075,0.35,0.30,0.82,0,3.516,2.226,1.361,1.046,0.010,-0.013,1.004,0.000,0.000,0.000,0.3420,-1,0,0.22,-0.20,2.45,0.1364,0.1240,0.3440,0.3483,0.1264,0.3000,0.2573,-6.61,14.32,-73.53
13044,0.1472,0.2398,0.3426,0.0002,0.0178,-0.0098,0.44,0.27,0.93,0,3.505,0.216,1.037,2.179,0.005,-0.012,1.006,0.000,0.000,0.000,0.3430,-1,0,0.29,-0.15,2.53,0.1352,0.1289,0.3431,0.3483,0.1264,0.3000,0.2577,-6.08,14.49,-75.94
13095,0.1486,0.2407,0.3425,0.0011,0.0141,-0.0070,0.48,0.21,1.02,0,3.510,1.279,2.480,1.041,0.006,-0.018,0.996,0.000,0.000,0.000,0.3390,0,0,0.29,-0.10,2.65,0.1353,0.1300,0.3429,0.3483,0.1264,0.3000,0.2574,-6.19,14.46,-79.36
13147,0.1488,0.2447,0.3406,-0.0002,0.0167,-0.0151,0.52,0.17,1.10,0,3.505,0.150,-0.262,1.466,0.006,-0.017,1.002,0.000,0.000,0.000,0.3420,0,0,0.36,0.03,2.70,0.1357,0.1296,0.3414,0.3483,0.1264,0.3000,0.2586,-6.07,14.43,-80.97
13198,0.1488,0.2484,0.3407,-0.0015,0.0179,-0.0096,0.52,0.15,1.13,0,3.510,1.266,0.530,-0.108,0.008,-0.008,1.007,0.000,0.000,0.000,0.3400,0,-1,0.36,0.02,2.78,0.1363,0.1286,0.3412,0.3483,0.1264,0.3000,0.2580,-6.09,14.48,-83.26
13249,0.1490,0.2495,0.3401,-0.0021,0.0141,-0.0085,0.59,0.13,1.14,0,3.500,-0.938,0.390,-0.008,0.008,-0.011,1.003,0.000,0.000,0.000,0.3370,0,0,0.40,0.05,2.75,0.1380,0.1311,0.3407,0.3483,0.1264,0.3000,0.2580,-6.09,14.40,-82.65
13300,0.1504,0.2529,0.3383,0.0000,0.0148,-0.0136,0.56,0.05,1.13,0,3.510,-1.092,-0.054,-0.175,0.009,-0.012,1.010,0.000,0.000,0.000,0.3390,0,0,0.35,0.07,2.75,0.1392,0.1302,0.3394,0.3483,0.1264,0.3000,0.2588,-6.10,14.18,-82.64
13352,0.1503,0.2519,0.3381,-0.0005,0.0069,-0.0095,0.52,0.03,1.10,0,3.505,-0.610,1.928,0.576,0.007,-0.011,1.005,0.000,0.000,0.000,0.3410,4,0,0.29,0.07,2.75,0.1408,0.1289,0.3392,0.3483,0.1264,0.3000,0.2584,-6.58,14.12,-82.37
13403,0.1537,0.2570,0.3392,0.0063,0.0122,0.0014,0.51,0.02,1.09,0,3.516,-0.811,-0.653,-0.447,0.005,-0.015,1.002,0.000,0.000,0.000,0.3400,0,0,0.32,0.13,2.85,0.1386,0.1202,0.3398,0.3483,0.1264,0.3000,0.2571,-6.98,14.04,-85.42
13454,0.1546,0.2522,0.3397,0.0073,-0.0023,0.0044,0.51,0.02,1.06,0,3.505,-1.603,-2.876,-0.653,0.008,-0.012,1.000,0.000,0.000,0.000,0.3390,1,0,0.28,0.10,2.82,0.1396,0.1163,0.3400,0.3483,0.1264,0.3000,0.2567,-7.95,13.94,-84.73
13505,0.1539,0.2540,0.3395,0.0050,-0.0020,0.0020,0.37,0.06,1.02,0,3.516,-1.847,0.423,-2.087,0.007,-0.012,1.000,0.000,0.000,0.000,0.3400,0,-1,0.16,-0.06,2.79,0.1393,0.1155,0.3402,0.3483,0.1264,0.3000,0.2570,-7.99,14.06,-83.79
13556,0.1557,0.2549,0.3398,0.0079,-0.0026,0.0020,0.29,0.05,0.95,0,3.505,-0.153,-1.690,-1.858,0.006,-0.017,0.996,0.000,0.000,0.000,0.3390,0,0,0.06,-0.03,2.67,0.1413,0.1133,0.3404,0.3483,0.1264,0.3000,0.2569,-8.18,13.80,-80.07
13607,0.1576,0.2562,0.3395,0.0104,-0.0017,-0.0012,0.19,0.13,0.88,0,3.510,-1.402,-0.430,-1.025,0.005,-0.019,0.998,0.000,0.000,0.000,0.3400,-1,0,0.05,-0.12,2.57,0.1427,0.1094,0.3400,0.3483,0.1264,0.3000,0.2573,-8.39,13.57,-77.23
13658,0.1586,0.2643,0.3396,0.0103,0.0142,-0.0024,0.09,0.17,0.82,0,3.505,2.091,-2.063,-1.293,0.006,-0.013,0.998,0.000,0.000,0.000,0.3410,0,0,-0.11,-0.16,2.51,0.1415,0.1154,0.3405,0.3483,0.1264,0.3000,0.2574,-7.23,13.65,-75.42
13709,0.1610,0.2659,0.3402,0.0129,0.0153,0.0013,0.16,0.22,0.76,0,3.510,2.232,-1.088,-1.912,0.005,-0.017,0.996,0.000,0.000,0.000,0.3390,0,0,-0.00,-0.26,2.45,0.1425,0.1132,0.3406,0.3483,0.1264,0.3000,0.2569,-7.34,13.49,-73.44
13760,0.1634,0.2669,0.3397,0.0145,0.0143,-0.0034,0.26,0.26,0.68,0,3.500,1.177,-1.604,-1.949,0.006,-0.011,0.997,0.000,0.000,0.000,0.3400,0,-1,0.11,-0.32,2.35,0.1435,0.1105,0.3400,0.3483,0.1264,0.3000,0.2575,-7.56,13.32,-70.52
13811,0.1646,0.2678,0.3397,0.0135,0.0124,-0.0034,0.33,0.28,0.59,0,3.505,-0.741,-0.267,-1.864,0.008,-0.012,1.001,0.000,0.000,0.000,0.3360,0,0,0.11,-0.39,2.24,0.1448,0.1166,0.3400,0.3483,0.1264,0.3000,0.2576,-7.22,13.28,-67.31
13862,0.1659,0.2694,0.3378,0.0124,0.0122,-0.0114,0.29,0.33,0.49,0,3.494,0.569,-1.352,-1.707,0.002,-0.016,1.001,0.000,0.000,0.000,0.3370,-2,0,0.07,-0.41,2.15,0.1459,0.1153,0.3386,0.3483,0.1264,0.3000,0.2587,-7.29,13.20,-64.46
13913,0.1676,0.2714,0.3371,0.0120,0.0128,-0.0114,0.27,0.37,0.40,0,3.505,2.142,-1.756,-2.235,0.005,-0.013,1.005,0.000,0.000,0.000,0.3380,0,0,0.04,-0.49,2.09,0.1453,0.1214,0.3378,0.3483,0.1264,0.3000,0.2588,-6.83,13.27,-62.60
13964,0.1694,0.2742,0.3371,0.0116,0.0149,-0.0067,0.37,0.40,0.30,0,3.500,-0.526,4.125,-1.710,0.004,-0.014,1.001,0.000,0.000,0.000,0.3370,0,0,0.15,-0.58,1.97,0.1458,0.1210,0.3376,0.3483,0.1264,0.3000,0.2583,-6.76,13.27,-59.17
14016,0.1709,0.2771,0.3368,0.0103,0.0169,-0.0047,0.33,0.30,0.19,0,3.505,2.060,2.398,-2.160,0.009,-0.008,1.001,0.000,0.000,0.000,0.3350,-2,0,0.12,-0.37,1.89,0.1462,0.1203,0.3372,0.3483,0.1264,0.3000,0.2582,-6.73,13.31,-56.57
14067,0.1713,0.2787,0.3358,0.0078,0.0159,-0.0078,0.36,0.23,0.10,0,3.500,2.348,-0.509,-1.251,0.007,-0.012,1.004,0.000,0.000,0.000,0.3370,-1,0,0.16,-0.25,1.82,0.1452,0.1286,0.3364,0.3483,0.1264,0.3000,0.2587,-6.17,13.47,-54.54
14118,0.1712,0.2822,0.3361,0.0048,0.0185,-0.0032,0.49,0.28,0.02,0,3.505,0.901,2.362,0.261,0.006,-0.012,0.999,0.000,0.000,0.000,0.3360,-2,0,0.27,-0.28,1.76,0.1453,0.1303,0.3364,0.3483,0.1264,0.3000,0.2582,-5.94,13.63,-52.75
14169,0.1726,0.2851,0.3359,0.0052,0.0187,-0.0032,0.54,0.21,0.01,0,3.494,1.709,2.023,-0.180,0.008,-0.014,1.002,0.000,0.000,0.000,0.3340,0,0,0.29,-0.16,1.78,0.1453,0.1336,0.3361,0.3483,0.1264,0.3000,0.2583,-5.69,13.61,-53.46
14220,0.1727,0.2864,0.3349,0.0033,0.0150,-0.0058,0.58,0.16,-0.00,0,3.505,0.828,0.086,-0.811,0.011,-0.013,0.998,0.000,0.000,0.000,0.3360,2,-1,0.38,-0.05,1.77,0.1456,0.1343,0.3353,0.3483,0.1264,0.3000,0.2587,-5.81,13.66,-53.21
14272,0.1729,0.2883,0.3352,0.0020,0.0128,-0.0034,0.63,0.10,-0.02,0,3.500,-2.077,0.357,0.665,0.003,-0.010,1.001,0.000,0.000,0.000,0.3370,1,0,0.47,-0.03,1.71,0.1484,0.1281,0.3352,0.3483,0.1264,0.3000,0.2584,-6.36,13.54,-51.22
14324,0.1741,0.2923,0.3359,0.0034,0.0159,0.0011,0.46,0.10,-0.01,0,3.505,1.503,-1.947,-0.629,0.004,-0.012,1.000,0.000,0.000,0.000,0.3330,1,-1,0.37,-0.02,1.75,0.1490,0.1255,0.3355,0.3483,0.1264,0.3000,0.2579,-6.41,13.47,-52.40
14375,0.1745,0.2963,0.3346,0.0031,0.0192,-0.0064,0.46,0.16,-0.00,0,3.494,0.806,1.496,-0.042,0.006,-0.015,0.997,0.000,0.000,0.000,0.3350,0,0,0.45,-0.11,1.70,0.1515,0.1226,0.3345,0.3483,0.1264,0.3000,0.2589,-6.44,13.27,-51.03
14426,0.1767,0.2955,0.3345,0.0061,0.0116,-0.0049,0.50,0.10,-0.01,0,3.505,0.649,-0.797,-0.578,0.002,-0.008,0.999,0.000,0.000,0.000,0.3370,-2,0,0.49,-0.04,1.70,0.1530,0.1195,0.3343,0.3483,0.1264,0.3000,0.2588,-7.01,13.03,-50.99
14477,0.1769,0.2972,0.3355,0.0053,0.0099,-0.0000,0.54,0.07,-0.03,0,3.500,-0.418,-0.886,0.314,0.011,-0.012,1.000,0.000,0.000,0.000,0.3370,-3,-1,0.42,-0.10,1.69,0.1510,0.1306,0.3354,0.3483,0.1264,0.3000,0.2580,-6.33,13.25,-50.70
14528,0.1779,0.2944,0.3362,0.0062,-0.0019,0.0031,0.53,0.09,-0.04,0,3.505,-1.885,-1.054,-0.441,0.008,-0.012,0.995,0.000,0.000,0.000,0.3340,1,0,0.35,-0.13,1.69,0.1533,0.1361,0.3357,0.3483,0.1264,0.3000,0.2576,-6.50,13.07,-50.67
14579,0.1811,0.2923,0.3352,0.0115,-0.0111,-0.0045,0.51,0.15,-0.07,0,3.494,-4.595,-1.730,-1.380,0.007,-0.015,0.993,0.000,0.000,0.000,0.3350,2,-1,0.27,-0.19,1.68,0.1539,0.1340,0.3350,0.3483,0.1264,0.3000,0.2586,-7.07,12.75,-50.29
14630,0.1814,0.2936,0.3349,0.0098,-0.0108,-0.0074,0.32,0.21,-0.15,0,3.500,-4.112,-1.930,-1.646,0.004,-0.014,0.996,0.000,0.000,0.000,0.3340,0,-1,0.07,-0.27,1.60,0.1568,0.1290,0.3345,0.3482,0.1341,0.3000,0.2590,-7.92,12.39,-47.87
14682,0.1826,0.2913,0.3341,0.0094,-0.0165,-0.0111,0.07,0.26,-0.22,0,3.489,-1.047,-1.361,-1.720,0.006,-0.006,1.002,0.000,0.000,0.000,0.3290,0,0,-0.15,-0.36,1.50,0.1598,0.1285,0.3337,0.3479,0.1418,0.3000,0.2595,-8.72,11.95,-45.08
14734,0.1845,0.2944,0.3312,0.0100,-0.0091,-0.0203,-0.02,0.33,-0.30,0,3.500,-0.392,-0.609,-1.496,-0.001,-0.022,1.002,0.000,0.000,0.000,0.3320,2,-1,-0.21,-0.43,1.41,0.1617,0.1266,0.3316,0.3473,0.1496,0.3000,0.2609,-8.97,11.48,-42.41
14786,0.1854,0.2979,0.3310,0.0088,-0.0005,-0.0176,-0.06,0.34,-0.38,0,3.489,-1.187,-0.283,-0.724,0.009,-0.013,1.008,0.000,0.000,0.000,0.3340,0,0,-0.21,-0.47,1.33,0.1634,0.1219,0.3310,0.3464,0.1573,0.3000,0.2607,-9.40,11.16,-40.03
14837,0.1879,0.2983,0.3317,0.0096,0.0013,-0.0060,-0.09,0.32,-0.44,0,3.500,0.827,0.841,-1.374,0.005,-0.008,1.005,0.000,0.000,0.000,0.3310,-1,0,-0.27,-0.48,1.30,0.1652,0.1189,0.3315,0.3453,0.1650,0.3000,0.2594,-10.06,10.78,-38.90
14889,0.1891,0.2992,0.3312,0.0094,0.0036,-0.0054,-0.02,0.30,-0.53,0,3.489,1.595,0.855,-1.140,0.005,-0.013,1.002,0.000,0.000,0.000,0.3300,0,0,-0.30,-0.46,1.26,0.1631,0.1266,0.3314,0.3440,0.1726,0.3000,0.2593,-9.89,10.64,-37.79
14941,0.1893,0.3017,0.3305,0.0062,0.0088,-0.0062,0.09,0.25,-0.60,0,3.494,2.365,-1.134,-1.721,0.007,-0.012,1.001,0.000,0.000,0.000,0.3280,0,0,-0.22,-0.42,1.20,0.1639,0.1253,0.3308,0.3425,0.1802,0.3000,0.2595,-10.21,10.40,-36.01
14992,0.1905,0.3025,0.3291,0.0062,0.0088,-0.0111,0.18,0.24,-0.66,0,3.489,1.015,0.005,-0.870,0.006,-0.012,1.001,0.000,0.000,0.000,0.3280,0,0,-0.09,-0.48,1.11,0.1648,0.1238,0.3297,0.3407,0.1878,0.3000,0.2603,-10.74,9.99,-33.33
15044,0.1894,0.3047,0.3282,0.0015,0.0110,-0.0121,0.24,0.26,-0.70,0,3.494,1.241,0.236,0.022,0.006,-0.015,1.005,0.000,0.000,0.000,0.3290,-1,0,-0.04,-0.48,1.07,0.1656,0.1221,0.3289,0.3387,0.1952,0.3000,0.2605,-11.19,9.80,-32.00
15096,0.1906,0.3056,0.3281,0.0013,0.0092,-0.0077,0.28,0.25,-0.71,0,3.489,-0.761,0.313,-0.028,0.003,-0.014,1.002,0.000,0.000,0.000,0.3280,-1,0,-0.06,-0.48,1.11,0.1630,0.1331,0.3289,0.3364,0.2027,0.3000,0.2601,-10.97,9.65,-33.37
15147,0.1904,0.3043,0.3279,-0.0010,0.0035,-0.0056,0.29,0.25,-0.70,0,3.494,-0.662,0.777,-0.911,0.006,-0.015,1.001,0.000,0.000,0.000,0.3270,3,0,-0.11,-0.47,1.12,0.1630,0.1341,0.3284,0.3339,0.2100,0.3000,0.2599,-11.59,9.39,-33.49
15199,0.1907,0.3102,0.3273,-0.0023,0.0129,-0.0064,0.22,0.19,-0.71,0,3.489,-0.150,2.081,-1.149,0.009,-0.011,1.005,0.000,0.000,0.000,0.3280,0,1,-0.11,-0.43,1.05,0.1630,0.1301,0.3279,0.3312,0.2173,0.3000,0.2601,-11.84,9.06,-31.48
15252,0.1913,0.3135,0.3274,-0.0025,0.0163,-0.0011,0.28,0.09,-0.73,0,3.494,2.760,1.855,0.283,0.010,-0.013,1.006,0.000,0.000,0.000,0.3270,0,0,-0.12,-0.33,0.99,0.1615,0.1293,0.3278,0.3283,0.2246,0.3000,0.2595,-12.16,8.80,-29.79
15304,0.1914,0.3142,0.3272,-0.0028,0.0142,-0.0002,0.32,-0.01,-0.74,0,3.489,-0.432,0.263,-0.620,0.001,-0.014,0.999,0.000,0.000,0.000,0.3270,0,0,0.03,-0.23,1.01,0.1613,0.1278,0.3277,0.3251,0.2317,0.3000,0.2595,-12.75,8.42,-30.24
15355,0.1913,0.3159,0.3271,-0.0027,0.0134,0.0003,0.35,-0.05,-0.79,0,3.494,1.834,-0.403,-1.679,0.001,-0.016,1.002,0.000,0.000,0.000,0.3250,0,0,0.00,-0.22,0.98,0.1610,0.1259,0.3275,0.3217,0.2387,0.3000,0.2594,-13.29,8.01,-29.27
15407,0.1927,0.3170,0.3261,0.0007,0.0114,-0.0057,0.40,-0.05,-0.85,0,3.489,-0.760,-0.024,-1.254,0.005,-0.013,1.004,0.000,0.000,0.000,0.3270,1,0,0.10,-0.24,0.89,0.1606,0.1236,0.3267,0.3182,0.2455,0.3000,0.2602,-13.85,7.43,-26.70
15458,0.1925,0.3193,0.3264,0.0006,0.0115,-0.0002,0.32,-0.06,-0.88,0,3.494,1.075,1.277,-1.126,-0.000,-0.018,0.999,0.000,0.000,0.000,0.3260,-1,0,0.01,-0.23,0.84,0.1617,0.1286,0.3270,0.3143,0.2523,0.3000,0.2596,-13.88,6.92,-25.26
15509,0.1949,0.3299,0.3262,0.0055,0.0293,0.0002,0.32,-0.03,-0.94,0,3.489,5.433,-2.409,-1.698,0.007,-0.016,1.001,0.000,0.000,0.000,0.3260,-1,0,0.05,-0.17,0.79,0.1616,0.1285,0.3267,0.3104,0.2588,0.3000,0.2596,-13.41,6.24,-23.63
15561,0.1954,0.3312,0.3262,0.0063,0.0262,0.0006,0.53,0.02,-1.00,0,3.494,3.292,-0.844,-1.968,0.005,-0.005,1.007,0.000,0.000,0.000,0.3280,0,0,0.31,-0.29,0.70,0.1616,0.1286,0.3266,0.3062,0.2653,0.3000,0.2596,-13.85,5.74,-21.09
15612,0.1962,0.3367,0.3270,0.0071,0.0306,0.0055,0.73,0.06,-1.08,0,3.484,-0.966,0.057,-0.976,0.004,-0.013,1.001,0.000,0.000,0.000,0.3260,0,0,0.48,-0.33,0.60,0.1616,0.1272,0.3272,0.3018,0.2716,0.3000,0.2589,-14.09,5.24,-18.01
15664,0.1973,0.3607,0.3268,0.0080,0.0720,0.0029,0.52,0.12,-1.16,0,3.489,11.065,-0.470,-0.798,0.007,-0.012,1.001,0.000,0.000,0.000,0.3260,-1,0,0.43,-0.33,0.55,0.1615,0.1251,0.3271,0.2972,0.2778,0.3000,0.2592,-12.62,4.70,-16.51
15715,0.1984,0.3641,0.3265,0.0082,0.0673,0.0006,1.03,0.12,-1.22,0,3.484,7.744,-1.467,-0.969,0.006,-0.006,0.999,0.000,0.000,0.000,0.3290,0,-1,0.93,-0.35,0.52,0.1615,0.1327,0.3273,0.2924,0.2839,0.3000,0.2594,-12.59,4.19,-15.71
15767,0.1972,0.3700,0.3276,0.0037,0.0645,0.0055,1.44,0.17,-1.26,0,3.494,1.022,0.101,-0.586,0.009,-0.011,0.993,0.000,0.000,0.000,0.3260,0,0,1.32,-0.41,0.46,0.1627,0.1322,0.3281,0.2875,0.2899,0.3000,0.2588,-13.04,3.82,-13.80
15818,0.1985,0.3712,0.3271,0.0042,0.0489,-0.0001,1.53,0.17,-1.29,0,3.484,-1.670,-0.760,-0.054,0.000,-0.012,0.999,0.000,0.000,0.000,0.3250,0,0,1.38,-0.41,0.43,0.1630,0.1306,0.3276,0.2824,0.2956,0.3000,0.2595,-14.05,3.25,-12.89
15869,0.2001,0.3730,0.3261,0.0057,0.0354,-0.0062,1.41,0.21,-1.30,0,3.489,-2.497,0.708,-0.703,0.009,-0.013,1.000,0.000,0.000,0.000,0.3250,1,-1,1.29,-0.45,0.43,0.1632,0.1282,0.3267,0.2771,0.3011,0.3000,0.2603,-15.00,2.63,-12.78
15920,0.2003,0.3703,0.3253,0.0034,0.0147,-0.0098,1.34,0.17,-1.32,0,3.484,-3.715,-2.100,-0.246,0.007,-0.008,0.998,0.000,0.000,0.000,0.3260,0,0,1.11,-0.39,0.36,0.1658,0.1312,0.3263,0.2717,0.3065,0.3000,0.2607,-15.89,2.03,-10.95
15971,0.2020,0.3657,0.3253,0.0049,-0.0075,-0.0072,1.19,0.22,-1.33,0,3.489,-10.086,-0.504,0.452,0.005,-0.012,1.002,0.000,0.000,0.000,0.3230,-1,0,0.92,-0.50,0.35,0.1666,0.1286,0.3260,0.2661,0.3118,0.3000,0.2605,-17.23,1.37,-10.51
16022,0.2020,0.3652,0.3239,0.0023,-0.0171,-0.0128,0.66,0.24,-1.34,0,3.479,-7.362,1.229,0.040,0.008,-0.008,1.003,0.000,0.000,0.000,0.3240,1,0,0.35,-0.53,0.42,0.1664,0.1325,0.3251,0.2603,0.3168,0.3000,0.2613,-17.51,0.97,-12.61
16073,0.2021,0.3572,0.3235,0.0003,-0.0380,-0.0112,0.37,0.21,-1.35,0,3.489,-7.172,0.807,-0.612,0.006,-0.006,1.002,0.000,0.000,0.000,0.3260,0,1,-0.02,-0.47,0.42,0.1666,0.1301,0.3245,0.2544,0.3217,0.3000,0.2612,-18.72,0.50,-12.68
16125,0.2042,0.3580,0.3242,0.0027,-0.0350,-0.0050,-0.04,0.19,-1.37,0,3.479,-6.949,0.600,0.103,0.005,-0.002,1.005,0.000,0.000,0.000,0.3240,0,-1,-0.40,-0.44,0.42,0.1653,0.1290,0.3248,0.2483,0.3264,0.3000,0.2605,-18.85,-0.07,-12.58
16176,0.2031,0.3529,0.3240,-0.0014,-0.0421,-0.0035,-0.29,0.19,-1.37,0,3.489,-2.054,-0.576,0.242,0.002,-0.010,1.000,0.000,0.000,0.000,0.3270,-1,0,-0.77,-0.40,0.41,0.1670,0.1282,0.3246,0.2421,0.3309,0.3000,0.2604,-19.33,-0.57,-12.39
16227,0.2039,0.3497,0.3252,-0.0011,-0.0420,0.0031,-0.47,0.17,-1.35,0,3.484,-3.072,0.727,0.106,0.002,-0.008,0.994,0.000,0.000,0.000,0.3260,1,0,-0.89,-0.43,0.44,0.1671,0.1298,0.3253,0.2358,0.3352,0.3000,0.2595,-19.40,-1.15,-13.14
16278,0.2039,0.3496,0.3257,-0.0023,-0.0341,0.0026,-0.61,0.14,-1.33,0,3.489,0.947,-0.305,-0.665,0.002,-0.010,0.996,0.000,0.000,0.000,0.3260,0,0,-1.04,-0.39,0.44,0.1671,0.1273,0.3254,0.2293,0.3394,0.3000,0.2596,-19.31,-1.65,-13.07
16329,0.2040,0.3477,0.3259,-0.0029,-0.0296,0.0021,-0.64,0.07,-1.31,0,3.484,5.125,1.702,0.830,0.006,-0.017,0.994,0.000,0.000,0.000,0.3270,0,0,-0.99,-0.41,0.40,0.1670,0.1265,0.3255,0.2227,0.3433,0.3000,0.2596,-19.24,-2.18,-12.06
16380,0.2037,0.3456,0.3264,-0.0037,-0.0257,0.0027,-0.54,0.05,-1.29,0,3.494,2.108,2.964,0.761,0.004,-0.012,0.995,0.000,0.000,0.000,0.3260,-3,0,-0.73,-0.32,0.44,0.1668,0.1258,0.3257,0.2160,0.3470,0.3000,0.2595,-19.19,-2.70,-13.29
16432,0.2036,0.3461,0.3263,-0.0038,-0.0175,-0.0016,-0.51,0.00,-1.26,0,3.479,3.803,-1.017,-0.423,0.006,-0.012,0.996,0.000,0.000,0.000,0.3230,0,-1,-0.71,-0.16,0.52,0.1673,0.1400,0.3254,0.2092,0.3505,0.3000,0.2600,-17.94,-3.30,-15.72
16483,0.2038,0.3506,0.3246,-0.0031,-0.0022,-0.0119,-0.44,0.01,-1.28,0,3.484,6.235,3.485,-0.538,0.003,-0.016,0.992,0.000,0.000,0.000,0.3210,-1,0,-0.51,-0.20,0.51,0.1689,0.1411,0.3243,0.2022,0.3538,0.3000,0.2613,-17.16,-4.00,-15.43
16534,0.2063,0.3540,0.3224,0.0024,0.0084,-0.0232,-0.24,-0.05,-1.29,0,3.473,3.143,-3.606,-0.053,0.010,-0.011,1.004,0.000,0.000,0.000,0.3200,0,-1,-0.20,-0.03,0.48,0.1690,0.1436,0.3225,0.1951,0.3569,0.3000,0.2629,-16.45,-4.81,-14.54
16586,0.2071,0.3562,0.3204,0.0040,0.0141,-0.0275,-0.04,0.07,-1.30,0,3.479,4.963,-1.994,-0.463,0.005,-0.013,1.004,0.000,0.000,0.000,0.3200,-5,-1,-0.03,-0.20,0.50,0.1712,0.1443,0.3209,0.1880,0.3598,0.3000,0.2637,-16.11,-5.59,-14.85
16638,0.2104,0.3543,0.3191,0.0099,0.0090,-0.0268,0.08,0.13,-1.31,0,3.473,0.941,-1.619,-1.149,0.002,-0.012,1.007,0.000,0.000,0.000,0.3170,0,0,0.16,-0.29,0.48,0.1737,0.1556,0.3198,0.1807,0.3624,0.3000,0.2638,-15.57,-6.60,-14.32
16689,0.2132,0.3668,0.3172,0.0135,0.0327,-0.0285,0.11,0.22,-1.35,0,3.479,6.143,-2.518,-0.592,0.007,-0.016,1.008,0.000,0.000,0.000,0.3140,2,0,0.20,-0.38,0.42,0.1748,0.1586,0.3182,0.1733,0.3649,0.3000,0.2643,-14.28,-7.40,-12.52
16740,0.2145,0.3745,0.3146,0.0127,0.0446,-0.0291,0.39,0.33,-1.39,0,3.468,6.805,0.006,-0.829,0.006,-0.013,1.016,0.000,0.000,0.000,0.3160,0,0,0.61,-0.52,0.37,0.1733,0.1478,0.3166,0.1660,0.3671,0.3000,0.2646,-14.40,-7.78,-11.25
16791,0.2160,0.3788,0.3144,0.0118,0.0470,-0.0186,0.60,0.36,-1.42,0,3.479,4.483,-0.393,0.051,0.007,-0.013,1.010,0.000,0.000,0.000,0.3150,-3,0,0.96,-0.52,0.33,0.1738,0.1470,0.3161,0.1586,0.3690,0.3000,0.2636,-14.34,-8.37,-9.98
16843,0.2181,0.3836,0.3140,0.0120,0.0474,-0.0105,0.83,0.34,-1.45,0,3.473,3.510,0.675,-1.823,0.005,-0.016,1.010,0.000,0.000,0.000,0.3140,-2,0,1.09,-0.55,0.36,0.1733,0.1588,0.3163,0.1510,0.3708,0.3000,0.2627,-13.49,-8.92,-10.93
16894,0.2183,0.3907,0.3138,0.0081,0.0506,-0.0045,0.97,0.29,-1.52,0,3.484,3.986,1.494,-2.642,0.003,-0.018,1.008,0.000,0.000,0.000,0.3190,-3,0,1.25,-0.51,0.28,0.1733,0.1626,0.3158,0.1435,0.3723,0.3000,0.2621,-13.01,-9.31,-8.44
16945,0.2198,0.3990,0.3161,0.0078,0.0554,0.0114,1.11,0.21,-1.62,0,3.473,54.599,19.530,-1.607,-0.002,-0.009,1.016,0.000,0.000,0.000,0.3170,-1,2,1.41,-0.43,0.17,0.1733,0.1687,0.3172,0.1359,0.3736,0.3000,0.2601,-12.36,-9.91,-5.03
16996,0.2216,0.3982,0.3171,0.0091,0.0378,0.0179,3.77,-0.79,-1.66,0,3.484,107.433,54.831,-4.094,0.003,-0.019,0.996,0.000,0.000,0.000,0.3200,-4,3,4.18,0.53,0.20,0.1690,0.1712,0.3181,0.1283,0.3746,0.3000,0.2593,-12.90,-10.24,-5.94
17049,0.2217,0.4043,0.3193,0.0144,0.0160,0.0245,8.82,-3.39,-1.54,0,3.479,31.256,25.839,-3.892,0.005,-0.022,0.982,0.000,0.000,0.000,0.3320,0,0,9.60,3.27,0.48,0.1619,0.1805,0.3209,0.1206,0.3754,0.3000,0.2580,-13.16,-10.59,-14.29
17101,0.2218,0.4009,0.3258,0.0375,-0.0623,0.0375,10.53,-4.79,-1.48,0,3.500,-7.937,-5.940,-1.573,0.001,-0.012,0.982,0.000,0.000,0.000,0.3380,-4,0,11.26,4.65,0.52,0.1612,0.1761,0.3243,0.1128,0.3760,0.3000,0.2560,-16.92,-12.25,-15.59
17152,0.2253,0.3990,0.3322,0.0757,-0.1429,0.0428,10.18,-4.58,-1.65,0,3.489,1.941,-5.200,-2.578,-0.001,-0.001,0.971,0.000,0.000,0.000,0.3320,-1,-2,10.55,4.46,-0.19,0.1588,0.2012,0.3351,0.1050,0.3763,0.3000,0.2534,-18.80,-14.49,5.71
17204,0.2304,0.4059,0.3333,0.1125,-0.1925,0.0211,9.87,-4.44,-1.84,0,3.489,-5.820,-3.887,-0.562,-0.004,0.001,0.969,0.000,0.000,0.000,0.3300,-11,-2,10.56,4.31,-0.78,0.1634,0.1992,0.3349,0.0973,0.3764,0.3000,0.2557,-20.70,-16.83,23.50
17255,0.2383,0.3971,0.3319,0.1495,-0.2691,-0.0101,9.37,-4.28,-1.95,0,3.473,-16.793,-18.474,0.198,-0.002,0.004,0.976,0.000,0.000,0.000,0.3280,0,-3,9.92,4.37,-2.24,0.1675,0.2164,0.3374,0.0896,0.3762,0.3000,0.2586,-22.39,-19.01,67.11
17306,0.2463,0.3879,0.3291,0.1811,-0.3361,-0.0384,8.55,-3.43,-2.10,0,3.473,-25.632,-20.856,2.277,-0.005,0.004,0.989,0.000,0.000,0.000,0.3190,8,-7,8.99,3.51,-2.80,0.1756,0.2132,0.3339,0.0820,0.3759,0.3000,0.2624,-24.76,-21.04,84.09
17357,0.2547,0.3780,0.3226,0.2041,-0.3898,-0.0710,7.22,-2.27,-2.17,0,3.463,-33.943,-22.302,3.228,-0.006,0.011,1.007,0.000,0.000,0.000,0.3170,13,-8,7.73,2.59,-3.39,0.1933,0.1886,0.3250,0.0743,0.3752,0.3000,0.2676,-25.00,-23.07,101.76
17409,0.2652,0.3702,0.3175,0.2205,-0.4213,-0.0813,5.35,-1.19,-2.20,0,3.457,-28.881,-22.665,4.080,-0.003,0.011,1.020,0.000,0.000,0.000,0.3020,10,-5,6.13,1.53,-3.56,0.2146,0.1497,0.3149,0.0666,0.3744,0.3000,0.2706,-25.00,-25.00,106.89
17460,0.2764,0.3442,0.3069,0.2292,-0.4790,-0.1072,3.95,-0.08,-2.08,0,3.447,-34.353,-20.705,4.257,-0.002,0.008,1.035,0.000,0.000,0.000,0.2990,5,-7,4.68,0.31,-3.18,0.2279,0.1218,0.3057,0.0590,0.3733,0.3000,0.2751,-25.00,-25.00,95.40
17511,0.2867,0.3363,0.2999,0.2257,-0.4727,-0.1037,1.87,1.01,-1.98,0,3.457,-33.358,-19.147,5.516,-0.003,0.010,1.045,0.000,0.000,0.000,0.2950,4,-4,2.86,-0.68,-3.78,0.2455,0.1026,0.3017,0.0515,0.3720,0.3000,0.2755,-25.00,-25.00,113.49
17562,0.2962,0.3278,0.2941,0.2123,-0.4532,-0.0884,0.15,1.92,-1.77,0,3.447,-7.662,-10.009,4.943,-0.010,0.008,1.055,0.000,0.000,0.000,0.2890,-1,-3,1.07,-1.69,-3.53,0.2564,0.0904,0.2999,0.0440,0.3704,0.3000,0.2742,-25.00,-25.00,105.81
17613,0.3069,0.3023,0.2890,0.1965,-0.4632,-0.0687,-0.25,2.42,-1.52,0,3.457,-13.703,-2.406,2.510,-0.004,0.009,1.048,0.000,0.000,0.000,0.2870,20,-4,0.51,-2.24,-3.31,0.2645,0.0941,0.3000,0.0365,0.3686,0.3000,0.2720,-25.00,-25.00,99.16
17666,0.3127,0.3180,0.2864,0.1650,-0.3607,-0.0420,-1.22,2.62,-1.39,0,3.452,1.095,0.343,2.551,-0.001,0.012,1.051,0.000,0.000,0.000,0.2910,0,0,0.05,-2.36,-2.97,0.2739,0.0351,0.2930,0.0290,0.3666,0.3000,0.2705,-25.00,-25.00,89.21
17717,0.3197,0.3305,0.2880,0.1397,-0.2664,-0.0037,-2.11,2.66,-1.25,0,3.468,41.287,3.691,2.803,-0.001,0.012,1.045,0.000,0.000,0.000,0.2890,-2,-2,0.10,-2.34,-2.84,0.2830,0.0097,0.2929,0.0216,0.3643,0.3000,0.2663,-25.00,-25.00,85.14
17768,0.3269,0.3188,0.2888,0.1186,-0.2489,0.0204,0.10,2.45,-1.09,0,3.463,39.835,5.657,1.578,-0.001,0.002,1.021,0.000,0.000,0.000,0.2890,-4,-2,1.69,-2.27,-1.77,0.2803,0.0699,0.3102,0.0143,0.3619,0.3000,0.2605,-25.00,-25.00,53.25
17820,0.3309,0.3257,0.2901,0.0936,-0.1983,0.0351,1.72,2.18,-0.93,0,3.473,12.219,9.149,2.518,0.006,0.013,1.017,0.000,0.000,0.000,0.2930,8,0,3.59,-1.99,-1.49,0.2859,0.0798,0.3087,0.0071,0.3592,0.3000,0.2592,-24.76,-25.00,44.66
17872,0.3350,0.3232,0.2932,0.0743,-0.1930,0.0494,2.25,1.85,-0.82,0,3.473,19.878,6.824,2.743,0.005,0.009,1.008,0.000,0.000,0.000,0.3000,3,0,4.30,-1.54,-1.42,0.2855,0.0594,0.3085,-0.0001,0.3562,0.3000,0.2577,-25.00,-25.00,42.56
17923,0.3375,0.2961,0.2982,0.0566,-0.2599,0.0668,3.39,1.46,-0.70,0,3.479,-0.780,6.566,1.458,0.006,0.010,0.993,0.000,0.000,0.000,0.3010,-2,0,5.30,-1.22,-1.14,0.2861,0.0509,0.3102,-0.0072,0.3530,0.3000,0.2555,-25.00,-25.00,34.09
17974,0.3406,0.2886,0.3023,0.0462,-0.2734,0.0680,3.44,1.12,-0.52,0,3.479,-20.999,5.527,3.557,0.010,0.015,0.991,0.000,0.000,0.000,0.3070,15,0,5.15,-0.93,-0.72,0.2878,0.0557,0.3133,-0.0141,0.3497,0.3000,0.2548,-25.00,-25.00,21.73
18026,0.3427,0.3006,0.3072,0.0373,-0.2303,0.0707,2.29,0.79,-0.27,0,3.484,5.502,3.500,2.989,0.003,0.016,0.988,0.000,0.000,0.000,0.3060,0,-2,4.26,-0.65,-0.89,0.2856,0.0126,0.3118,-0.0210,0.3461,0.3000,0.2547,-25.00,-25.00,26.73
18078,0.3439,0.2898,0.3095,0.0293,-0.2438,0.0599,2.16,0.68,-0.06,0,3.468,4.207,4.802,0.010,0.009,0.015,0.977,0.000,0.000,0.000,0.3060,-2,0,4.43,-0.45,-0.65,0.2913,0.0105,0.3158,-0.0278,0.3422,0.3000,0.2552,-25.00,-25.00,19.48
18130,0.3467,0.2832,0.3098,0.0274,-0.2460,0.0385,2.31,0.43,0.03,0,3.479,-7.762,6.448,-1.384,0.011,0.021,0.984,0.000,0.000,0.000,0.3090,4,0,4.51,-0.23,-0.33,0.2933,0.0165,0.3184,-0.0344,0.3383,0.3000,0.2570,-25.00,-25.00,9.76
18182,0.3484,0.2622,0.3107,0.0255,-0.2887,0.0233,2.11,0.13,-0.06,0,3.468,-11.954,-2.677,-2.071,0.004,0.016,0.984,0.000,0.000,0.000,0.3090,-3,-1,4.08,0.10,-0.29,0.2939,0.0048,0.3177,-0.0409,0.3340,0.3000,0.2587,-25.00,-25.00,8.74
18234,0.3492,0.2613,0.3107,0.0228,-0.2688,0.0108,1.44,0.23,-0.10,0,3.473,-8.323,-0.857,-0.066,0.001,0.017,0.986,0.000,0.000,0.000,0.3120,0,-1,3.31,-0.03,-0.28,0.2977,0.0136,0.3190,-0.0473,0.3296,0.3000,0.2598,-25.00,-25.00,8.53
18285,0.3502,0.2654,0.3118,0.0201,-0.2320,0.0072,0.74,0.44,-0.11,0,3.463,6.527,-2.081,0.539,0.007,0.022,1.000,0.000,0.000,0.000,0.3110,8,0,2.80,-0.07,-0.26,0.3009,0.0137,0.3187,-0.0535,0.3250,0.3000,0.2603,-25.00,-25.00,7.67
18336,0.3506,0.2446,0.3115,0.0148,-0.2642,0.0009,1.10,0.55,-0.15,0,3.473,-7.354,2.778,-0.236,0.006,0.015,0.991,0.000,0.000,0.000,0.3130,7,0,3.21,-0.19,-0.23,0.3010,-0.0102,0.3163,-0.0595,0.3202,0.3000,0.2614,-25.00,-25.00,7.02
18387,0.3530,0.2153,0.3119,0.0155,-0.3168,-0.0025,1.15,0.41,-0.19,0,3.463,-39.588,-1.926,2.178,0.003,0.023,0.998,0.000,0.000,0.000,0.3120,4,0,2.88,-0.06,-0.22,0.3012,-0.0315,0.3146,-0.0654,0.3153,0.3000,0.2621,-25.00,-25.00,6.61
18438,0.3542,0.1873,0.3117,0.0135,-0.3564,-0.0040,-0.57,0.42,-0.11,0,3.473,-37.768,-4.977,3.010,0.005,0.019,1.002,0.000,0.000,0.000,0.3150,16,0,0.84,-0.17,-0.07,0.3016,-0.0437,0.3140,-0.0711,0.3102,0.3000,0.2624,-25.00,-25.00,1.98
18490,0.3566,0.1889,0.3133,0.0133,-0.2977,0.0050,-2.68,0.60,0.04,0,3.463,-2.007,-5.358,0.814,0.010,0.028,1.001,0.000,0.000,0.000,0.3160,2,-1,-0.89,-0.43,0.02,0.3011,-0.0938,0.3114,-0.0768,0.3048,0.3000,0.2619,-25.00,-25.00,-0.46
18542,0.3587,0.1714,0.3148,0.0129,-0.2822,0.0114,-3.11,0.86,0.13,0,3.473,-10.530,-5.734,-1.411,0.001,0.016,0.990,0.000,0.000,0.000,0.3160,3,-1,-1.08,-0.70,0.08,0.3044,-0.1005,0.3142,-0.0823,0.2993,0.3000,0.2607,-25.00,-25.00,-2.45
18594,0.3611,0.1660,0.3158,0.0095,-0.2339,0.0095,-3.63,1.23,0.12,0,3.468,-12.639,-2.777,-2.632,0.004,0.023,0.999,0.000,0.000,0.000,0.3140,-2,-2,-1.67,-0.98,0.04,0.3078,-0.1100,0.3150,-0.0875,0.2936,0.3000,0.2607,-25.00,-25.00,-1.13
18645,0.3620,0.1580,0.3152,0.0003,-0.1946,0.0027,-4.26,1.41,-0.01,0,3.468,23.985,6.148,-3.185,-0.001,0.021,0.995,0.000,0.000,0.000,0.3150,0,0,-2.45,-1.10,0.02,0.3152,-0.1024,0.3157,-0.0925,0.2878,0.3000,0.2614,-25.00,-25.00,-0.69
18696,0.3643,0.1597,0.3152,-0.0051,-0.1317,-0.0012,-3.26,1.18,-0.17,0,3.463,10.164,-0.118,-2.939,0.000,0.009,0.999,0.000,0.000,0.000,0.3160,12,0,-1.22,-0.79,-0.15,0.3168,-0.1114,0.3152,-0.0974,0.2819,0.3000,0.2619,-25.00,-25.00,4.48
18747,0.3666,0.1295,0.3154,-0.0073,-0.1692,-0.0023,-2.21,1.13,-0.43,0,3.468,-27.370,-4.450,-0.607,0.002,0.013,1.008,0.000,0.000,0.000,0.3150,3,-1,-0.52,-0.83,-0.53,0.3119,-0.1526,0.3143,-0.1021,0.2758,0.3000,0.2622,-25.00,-25.00,15.83
18798,0.3684,0.1025,0.3150,-0.0102,-0.1975,-0.0030,-3.12,1.18,-0.52,0,3.463,-11.880,-5.223,0.316,-0.001,0.015,1.002,0.000,0.000,0.000,0.3140,-3,0,-1.94,-1.04,-0.50,0.3148,-0.1626,0.3144,-0.1066,0.2696,0.3000,0.2622,-25.00,-25.00,15.08
18849,0.3689,0.0930,0.3144,-0.0174,-0.1691,-0.0055,-3.84,1.44,-0.53,0,3.468,-18.117,1.091,-1.813,0.002,0.016,1.005,0.000,0.000,0.000,0.3170,10,1,-2.65,-1.30,-0.36,0.3160,-0.1563,0.3150,-0.1108,0.2633,0.3000,0.2624,-25.00,-25.00,10.73
18900,0.3698,0.0701,0.3153,-0.0241,-0.1741,-0.0004,-4.48,1.48,-0.63,0,3.463,-17.311,1.139,-4.021,0.004,0.010,1.009,0.000,0.000,0.000,0.3170,5,0,-3.43,-1.28,-0.69,0.3107,-0.1854,0.3157,-0.1149,0.2568,0.3000,0.2617,-25.00,-25.00,20.74
18952,0.3685,0.0473,0.3161,-0.0350,-0.1722,0.0054,-5.18,1.31,-0.82,0,3.468,-10.084,2.632,-1.632,-0.004,0.010,0.991,0.000,0.000,0.000,0.3190,11,0,-4.27,-1.23,-0.93,0.3100,-0.2007,0.3161,-0.1189,0.2502,0.3000,0.2610,-25.00,-25.00,27.76
19003,0.3677,0.0321,0.3176,-0.0424,-0.1465,0.0085,-5.65,1.20,-0.94,0,3.468,-19.645,15.477,-0.429,0.005,0.010,0.991,0.000,0.000,0.000,0.3240,9,2,-4.64,-1.12,-1.20,0.3074,-0.2340,0.3167,-0.1226,0.2434,0.3000,0.2605,-25.00,-25.00,36.08
19054,0.3673,0.0158,0.3208,-0.0458,-0.1222,0.0148,-6.39,0.55,-1.06,0,3.473,-6.093,11.448,-0.135,0.003,0.005,0.992,0.000,0.000,0.000,0.3230,0,0,-5.54,-0.39,-1.63,0.2974,-0.2627,0.3181,-0.1260,0.2366,0.3000,0.2596,-25.00,-25.00,48.77
19106,0.3649,-0.0096,0.3223,-0.0477,-0.1193,0.0123,-6.61,-0.09,-1.16,0,3.463,-5.664,6.795,-0.935,0.010,-0.003,0.991,0.000,0.000,0.000,0.3200,11,0,-5.85,0.19,-1.69,0.2943,-0.2734,0.3192,-0.1294,0.2296,0.3000,0.2597,-25.00,-25.00,50.70
19157,0.3639,-0.0236,0.3214,-0.0418,-0.0876,-0.0017,-6.65,-0.46,-1.25,0,3.468,-13.292,5.789,-3.169,0.002,-0.006,0.993,0.000,0.000,0.000,0.3160,-3,0,-5.98,0.59,-1.64,0.2991,-0.3073,0.3186,-0.1324,0.2225,0.3000,0.2613,-25.00,-25.00,49.08
19209,0.3632,-0.0357,0.3187,-0.0330,-0.0509,-0.0204,-7.25,-0.76,-1.39,0,3.452,-10.868,0.879,-1.600,0.008,-0.005,0.996,0.000,0.000,0.000,0.3180,-1,0,-6.75,0.88,-1.75,0.2997,-0.3027,0.3175,-0.1353,0.2153,0.3000,0.2635,-25.00,-25.00,52.62
19260,0.3630,-0.0409,0.3177,-0.0243,-0.0119,-0.0262,-7.80,-0.88,-1.53,0,3.463,10.395,-12.040,1.606,0.008,-0.009,1.002,0.000,0.000,0.000,0.3170,-5,-2,-7.36,0.91,-1.84,0.2998,-0.3012,0.3162,-0.1379,0.2081,0.3000,0.2644,-25.00,-25.00,55.22
19311,0.3633,-0.0261,0.3158,-0.0108,0.1002,-0.0335,-7.60,-0.43,-1.38,0,3.447,32.439,-8.885,4.120,0.010,-0.016,1.006,0.000,0.000,0.000,0.3130,-6,-1,-6.90,0.38,-1.41,0.3085,-0.2870,0.3140,-0.1403,0.2008,0.3000,0.2656,-21.57,-25.00,42.26
19362,0.3647,-0.0340,0.3132,-0.0025,0.1267,-0.0386,-6.12,-0.06,-1.07,0,3.452,21.401,-8.546,1.900,0.008,-0.022,1.009,0.000,0.000,0.000,0.3060,0,-1,-5.33,-0.04,-1.12,0.3122,-0.2701,0.3109,-0.1425,0.1934,0.3000,0.2667,-18.88,-25.00,33.65
19414,0.3674,-0.0326,0.3082,0.0042,0.1599,-0.0525,-4.55,0.27,-0.89,0,3.442,11.587,-8.284,0.688,-0.000,-0.023,1.021,0.000,0.000,0.000,0.3050,5,-3,-4.18,-0.45,-0.92,0.3160,-0.2691,0.3087,-0.1445,0.1859,0.3000,0.2686,-16.80,-25.00,27.61
19465,0.3694,-0.0161,0.3046,0.0057,0.2177,-0.0502,-4.02,0.61,-0.78,0,3.452,23.965,-4.129,-1.022,0.003,-0.021,1.026,0.000,0.000,0.000,0.3010,0,0,-3.44,-0.80,-0.42,0.3293,-0.2812,0.3085,-0.1462,0.1785,0.3000,0.2684,-14.61,-25.00,12.46
19516,0.3731,-0.0183,0.3013,0.0079,0.2180,-0.0438,-2.98,0.81,-0.75,0,3.442,21.702,-5.245,-1.967,0.006,-0.016,1.025,0.000,0.000,0.000,0.2990,-6,-1,-2.22,-1.02,-0.46,0.3326,-0.2763,0.3059,-0.1477,0.1710,0.3000,0.2682,-13.78,-25.00,13.69
19567,0.3753,-0.0024,0.2986,0.0048,0.2506,-0.0366,-1.71,1.06,-0.85,0,3.447,18.767,-5.647,-3.415,0.007,-0.018,1.028,0.000,0.000,0.000,0.2950,0,-2,-1.16,-1.32,-0.74,0.3296,-0.2629,0.3036,-0.1489,0.1634,0.3000,0.2679,-10.96,-25.00,22.31
19619,0.3772,0.0002,0.2961,0.0015,0.2431,-0.0336,-0.61,1.36,-0.98,0,3.442,10.237,-2.203,-1.934,0.003,-0.027,1.025,0.000,0.000,0.000,0.2920,-5,0,-0.16,-1.59,-0.80,0.3357,-0.2608,0.3017,-0.1499,0.1558,0.3000,0.2679,-10.63,-25.00,23.94
19670,0.3786,0.0052,0.2933,-0.0071,0.2311,-0.0273,0.01,1.46,-1.09,0,3.452,6.878,0.994,-1.414,0.006,-0.024,1.022,0.000,0.000,0.000,0.2930,-1,0,0.33,-1.71,-0.91,0.3361,-0.2482,0.2992,-0.1507,0.1481,0.3000,0.2677,-9.80,-25.00,27.18
19721,0.3799,0.0115,0.2925,-0.0153,0.2179,-0.0138,0.48,1.39,-1.16,0,3.447,0.459,-1.671,-2.495,0.003,-0.022,1.030,0.000,0.000,0.000,0.2920,2,-1,0.70,-1.66,-1.02,0.3358,-0.2453,0.2982,-0.1513,0.1404,0.3000,0.2664,-9.73,-25.00,30.56
19773,0.3782,0.0210,0.2920,-0.0292,0.2116,-0.0019,0.52,1.42,-1.25,0,3.452,-0.416,4.325,0.012,0.009,-0.018,1.024,0.000,0.000,0.000,0.2940,-2,0,0.79,-1.73,-1.18,0.3379,-0.2503,0.2978,-0.1516,0.1326,0.3000,0.2652,-9.87,-25.00,35.34
19824,0.3769,0.0288,0.2931,-0.0408,0.2007,0.0137,0.54,1.26,-1.27,0,3.447,2.085,8.282,1.546,0.003,-0.019,1.019,0.000,0.000,0.000,0.2970,-4,1,0.75,-1.50,-1.14,0.3383,-0.2447,0.2984,-0.1517,0.1251,0.3000,0.2634,-9.55,-25.00,34.16
19876,0.3759,0.0363,0.2957,-0.0487,0.1905,0.0318,0.62,0.85,-1.18,0,3.463,2.896,8.789,2.928,0.006,-0.019,1.010,0.000,0.000,0.000,0.2980,-2,1,0.79,-1.10,-0.99,0.3364,-0.2333,0.3001,-0.1515,0.1173,0.3000,0.2612,-8.80,-25.00,29.56
19927,0.3730,0.0479,0.2981,-0.0570,0.1909,0.0421,0.74,0.44,-1.03,0,3.452,5.539,7.556,3.396,0.012,-0.020,1.005,0.000,0.000,0.000,0.2970,1,2,0.92,-0.65,-0.81,0.3338,-0.2276,0.3016,-0.1511,0.1095,0.3000,0.2598,-7.91,-25.00,24.32
19979,0.3714,0.0527,0.2992,-0.0575,0.1736,0.0390,1.02,0.06,-0.85,0,3.463,0.178,4.893,5.737,0.006,-0.025,0.991,0.000,0.000,0.000,0.3020,0,2,1.24,-0.29,-0.70,0.3274,-0.2306,0.3024,-0.1504,0.1018,0.3000,0.2599,-8.41,-25.00,20.89
20030,0.3692,0.0642,0.3019,-0.0564,0.1733,0.0416,0.97,-0.15,-0.57,0,3.452,-1.785,-3.924,6.068,0.012,-0.011,0.996,0.000,0.000,0.000,0.3010,-1,0,1.25,-0.07,-0.40,0.3216,-0.2306,0.3040,-0.1496,0.0942,0.3000,0.2594,-7.95,-25.00,12.11
20081,0.3657,0.0697,0.3029,-0.0570,0.1582,0.0338,0.86,-0.05,-0.25,0,3.463,1.818,-0.745,6.757,0.009,-0.015,0.990,0.000,0.000,0.000,0.3050,-1,1,1.13,-0.26,-0.08,0.3216,-0.2278,0.3049,-0.1485,0.0866,0.3000,0.2600,-7.95,-25.00,2.41
20134,0.3648,0.0778,0.3050,-0.0518,0.1522,0.0313,0.89,-0.04,0.10,0,3.452,-0.229,1.001,7.586,0.006,-0.021,0.990,0.000,0.000,0.000,0.3070,-2,0,1.20,-0.31,0.28,0.3187,-0.2249,0.3063,-0.1471,0.0789,0.3000,0.2600,-7.55,-25.00,-8.37
20186,0.3625,0.0810,0.3070,-0.0505,0.1336,0.0288,0.87,-0.07,0.49,0,3.457,-5.416,0.293,7.374,0.008,-0.015,0.988,0.000,0.000,0.000,0.3060,-2,1,1.14,-0.25,0.70,0.3187,-0.2189,0.3078,-0.1455,0.0712,0.3000,0.2600,-7.52,-25.00,-20.96
20237,0.3617,0.0887,0.3075,-0.0454,0.1288,0.0188,0.60,-0.07,0.84,0,3.452,-4.477,-3.750,5.828,0.005,-0.014,0.993,0.000,0.000,0.000,0.3100,0,0,0.82,-0.25,1.10,0.3159,-0.2129,0.3080,-0.1437,0.0638,0.3000,0.2611,-6.84,-25.00,-33.11
20288,0.3588,0.0956,0.3092,-0.0465,0.1254,0.0174,0.34,0.01,1.15,0,3.457,-6.087,6.150,5.602,0.003,-0.018,0.989,0.000,0.000,0.000,0.3090,-1,2,0.59,-0.44,1.40,0.3139,-0.2132,0.3092,-0.1416,0.0564,0.3000,0.2610,-6.58,-25.00,-41.96
20339,0.3583,0.1067,0.3096,-0.0416,0.1352,0.0111,0.04,-0.16,1.40,0,3.452,-1.925,3.817,4.230,0.008,-0.016,0.999,0.000,0.000,0.000,0.3120,-5,2,0.24,-0.15,1.71,0.3091,-0.2073,0.3094,-0.1394,0.0490,0.3000,0.2616,-5.25,-25.00,-51.28
20390,0.3562,0.1107,0.3111,-0.0404,0.1280,0.0130,-0.10,-0.34,1.61,0,3.457,5.857,-3.549,0.595,0.004,-0.014,0.994,0.000,0.000,0.000,0.3080,-3,0,0.07,0.03,1.95,0.3037,-0.1961,0.3104,-0.1369,0.0418,0.3000,0.2612,-4.38,-24.68,-58.39
20443,0.3534,0.1177,0.3101,-0.0394,0.1296,0.0024,0.16,-0.28,1.69,0,3.447,0.858,-3.388,0.004,0.005,-0.015,0.996,0.000,0.000,0.000,0.3120,-2,1,0.32,-0.14,1.97,0.3027,-0.1884,0.3098,-0.1341,0.0344,0.3000,0.2625,-3.32,-24.23,-59.14
20495,0.3524,0.1255,0.3110,-0.0347,0.1319,0.0039,0.14,-0.25,1.69,0,3.457,-1.850,-0.964,-0.009,0.002,-0.013,0.995,0.000,0.000,0.000,0.3100,-4,0,0.35,-0.33,1.97,0.2996,-0.1830,0.3104,-0.1311,0.0272,0.3000,0.2622,-2.43,-23.92,-59.12
20547,0.3512,0.1333,0.3106,-0.0314,0.1337,-0.0008,0.04,-0.17,1.68,0,3.447,3.204,-1.439,-0.645,0.002,-0.015,0.998,0.000,0.000,0.000,0.3120,0,0,0.20,-0.36,1.96,0.2988,-0.1720,0.3100,-0.1279,0.0201,0.3000,0.2628,-1.17,-23.61,-58.92
20598,0.3496,0.1408,0.3112,-0.0299,0.1353,0.0007,0.17,-0.08,1.66,0,3.457,1.784,-1.545,-0.419,0.008,-0.014,1.000,0.000,0.000,0.000,0.3140,-2,1,0.36,-0.44,1.93,0.2964,-0.1685,0.3105,-0.1246,0.0132,0.3000,0.2625,-0.47,-23.20,-57.90
20649,0.3481,0.1532,0.3124,-0.0292,0.1476,0.0043,0.19,-0.05,1.64,0,3.447,4.044,-0.940,-0.969,0.006,-0.010,0.997,0.000,0.000,0.000,0.3150,-11,0,0.45,-0.50,1.91,0.2958,-0.1654,0.3116,-0.1210,0.0064,0.3000,0.2619,0.69,-22.87,-57.18
20700,0.3461,0.1620,0.3137,-0.0302,0.1497,0.0069,0.28,-0.05,1.57,0,3.457,8.085,-1.339,-2.780,0.005,-0.019,0.993,0.000,0.000,0.000,0.3120,0,0,0.52,-0.54,1.86,0.2945,-0.1408,0.3124,-0.1172,-0.0003,0.3000,0.2615,2.88,-22.40,-55.91
20752,0.3452,0.1728,0.3131,-0.0282,0.1539,-0.0004,0.74,-0.01,1.47,0,3.447,5.938,-2.812,-2.745,0.004,-0.015,0.995,0.000,0.000,0.000,0.3130,-5,0,0.93,-0.61,1.72,0.2924,-0.1345,0.3123,-0.1132,-0.0069,0.3000,0.2623,3.85,-21.90,-51.63
20804,0.3440,0.1773,0.3130,-0.0275,0.1399,-0.0029,1.08,0.04,1.36,0,3.452,-0.449,-1.610,-0.810,0.005,-0.017,0.996,0.000,0.000,0.000,0.3100,-4,0,1.21,-0.72,1.57,0.2948,-0.1234,0.3122,-0.1089,-0.0134,0.3000,0.2626,4.29,-21.65,-47.09
20856,0.3433,0.1945,0.3114,-0.0260,0.1553,-0.0128,0.98,0.16,1.29,0,3.442,3.862,-2.935,-2.864,0.009,-0.019,1.001,0.000,0.000,0.000,0.3070,-2,-2,1.15,-0.80,1.53,0.2942,-0.1133,0.3110,-0.1045,-0.0198,0.3000,0.2639,6.00,-21.16,-45.91
20907,0.3415,0.2043,0.3089,-0.0281,0.1517,-0.0221,1.22,0.30,1.19,0,3.447,7.499,-0.893,-1.946,0.008,-0.020,1.001,0.000,0.000,0.000,0.3100,-4,0,1.35,-0.91,1.35,0.2979,-0.1076,0.3094,-0.0999,-0.0260,0.3000,0.2652,6.49,-20.79,-40.49
20958,0.3423,0.2108,0.3086,-0.0254,0.1394,-0.0184,1.59,0.40,1.07,0,3.442,-1.345,-4.554,-1.767,0.007,-0.018,1.004,0.000,0.000,0.000,0.3080,-1,0,1.70,-0.95,1.27,0.2977,-0.0972,0.3089,-0.0951,-0.0320,0.3000,0.2649,6.92,-20.49,-38.01
21010,0.3411,0.2229,0.3077,-0.0280,0.1385,-0.0167,1.58,0.59,0.95,0,3.452,-0.889,-3.762,-1.395,0.005,-0.017,1.009,0.000,0.000,0.000,0.3110,-1,0,1.64,-1.18,1.16,0.2975,-0.0938,0.3082,-0.0901,-0.0378,0.3000,0.2649,7.37,-19.93,-34.87
21061,0.3408,0.2265,0.3087,-0.0302,0.1185,-0.0051,1.55,0.75,0.86,0,3.442,-1.252,-2.023,-1.955,0.005,-0.015,1.003,0.000,0.000,0.000,0.3060,-2,0,1.59,-1.37,1.08,0.2972,-0.0907,0.3088,-0.0849,-0.0436,0.3000,0.2635,6.93,-19.46,-32.34
21113,0.3399,0.2324,0.3073,-0.0347,0.1061,-0.0089,1.46,0.89,0.76,0,3.447,-3.317,-2.317,-0.165,0.003,-0.020,1.003,0.000,0.000,0.000,0.3040,-1,0,1.51,-1.46,0.99,0.2970,-0.0851,0.3078,-0.0796,-0.0493,0.3000,0.2641,6.97,-18.76,-29.57
21164,0.3379,0.2373,0.3055,-0.0426,0.0927,-0.0143,1.25,0.98,0.75,0,3.442,-5.739,-3.272,-0.468,0.007,-0.014,1.002,0.000,0.000,0.000,0.3070,-1,0,1.32,-1.57,0.97,0.2969,-0.0822,0.3065,-0.0741,-0.0546,0.3000,0.2649,6.73,-17.90,-29.06
21215,0.3372,0.2478,0.3057,-0.0469,0.0961,-0.0079,0.92,1.08,0.72,0,3.447,-3.594,-2.117,0.314,0.008,-0.011,1.007,0.000,0.000,0.000,0.3060,0,0,1.02,-1.72,0.94,0.2966,-0.0794,0.3064,-0.0685,-0.0598,0.3000,0.2642,7.30,-17.27,-28.22
21267,0.3349,0.2529,0.3056,-0.0553,0.0897,-0.0043,0.70,1.16,0.71,0,3.442,-1.511,1.020,-1.190,0.009,-0.016,1.004,0.000,0.000,0.000,0.3060,0,1,0.84,-1.83,0.95,0.2945,-0.0790,0.3062,-0.0626,-0.0649,0.3000,0.2639,7.22,-16.30,-28.64
21319,0.3324,0.2572,0.3057,-0.0639,0.0837,-0.0011,0.60,1.13,0.65,0,3.447,-1.357,-0.395,0.107,0.002,-0.014,1.005,0.000,0.000,0.000,0.3080,0,2,0.75,-1.76,0.88,0.2949,-0.0784,0.3062,-0.0566,-0.0698,0.3000,0.2635,7.15,-15.47,-26.31
21370,0.3296,0.2623,0.3067,-0.0721,0.0806,0.0050,0.55,1.06,0.63,0,3.442,-3.181,1.032,-0.451,0.008,-0.016,1.000,0.000,0.000,0.000,0.3070,-4,0,0.68,-1.80,0.91,0.2898,-0.0786,0.3068,-0.0505,-0.0745,0.3000,0.2628,7.16,-14.30,-27.19
21421,0.3272,0.2640,0.3071,-0.0780,0.0709,0.0065,0.36,1.05,0.62,0,3.447,-3.188,1.900,0.745,0.004,-0.015,1.001,0.000,0.000,0.000,0.3040,-1,1,0.44,-1.72,0.98,0.2896,-0.0692,0.3074,-0.0442,-0.0790,0.3000,0.2625,7.50,-13.52,-29.39
21472,0.3229,0.2730,0.3059,-0.0872,0.0806,-0.0008,0.15,0.99,0.65,0,3.442,-1.273,3.093,1.513,0.009,-0.015,1.000,0.000,0.000,0.000,0.3090,-1,1,0.26,-1.62,1.04,0.2866,-0.0666,0.3066,-0.0379,-0.0832,0.3000,0.2634,8.21,-12.34,-31.25
21523,0.3187,0.2781,0.3073,-0.0947,0.0815,0.0072,0.08,0.88,0.69,0,3.452,0.416,5.042,0.793,0.008,-0.018,0.999,0.000,0.000,0.000,0.3100,1,0,0.18,-1.46,1.14,0.2834,-0.0640,0.3075,-0.0314,-0.0873,0.3000,0.2624,8.56,-11.31,-34.32
21575,0.3149,0.2851,0.3088,-0.0997,0.0872,0.0123,0.18,0.68,0.69,0,3.442,2.407,1.003,-1.255,0.006,-0.016,0.997,0.000,0.000,0.000,0.3060,0,2,0.22,-1.18,1.15,0.2823,-0.0669,0.3086,-0.0248,-0.0912,0.3000,0.2616,8.73,-10.49,-34.40
21626,0.3121,0.2994,0.3079,-0.1002,0.1087,0.0052,0.24,0.65,0.66,0,3.447,8.318,1.227,0.380,0.010,-0.017,0.999,0.000,0.000,0.000,0.3080,-1,0,0.34,-1.13,1.09,0.2766,-0.0670,0.3080,-0.0180,-0.0949,0.3000,0.2625,9.74,-9.49,-32.82
21678,0.3071,0.3102,0.3081,-0.1052,0.1202,0.0039,0.51,0.57,0.65,0,3.442,10.443,3.380,0.114,0.008,-0.020,0.999,0.000,0.000,0.000,0.3070,-6,0,0.74,-1.04,1.15,0.2762,-0.0642,0.3083,-0.0111,-0.0984,0.3000,0.2626,10.49,-8.68,-34.37
21729,0.3030,0.3111,0.3078,-0.1069,0.1035,0.0009,1.08,0.48,0.62,0,3.447,5.776,-0.344,-0.698,0.008,-0.019,0.995,0.000,0.000,0.000,0.3090,0,2,1.16,-0.84,1.30,0.2770,-0.0463,0.3086,-0.0041,-0.1017,0.3000,0.2629,10.97,-8.09,-39.07
21781,0.2992,0.3148,0.3084,-0.1070,0.0908,0.0029,1.47,0.50,0.57,0,3.442,-2.262,-0.022,-0.985,0.009,-0.019,0.995,0.000,0.000,0.000,0.3080,0,0,1.46,-0.88,1.26,0.2709,-0.0463,0.3087,0.0031,-0.1047,0.3000,0.2626,10.41,-7.11,-37.94
