time_ms,pos_x,pos_y,pos_z,vel_x,vel_y,vel_z,roll,pitch,yaw,thrust,vbat,gyro_x,gyro_y,gyro_z,acc_x,acc_y,acc_z,rate_roll,rate_pitch,rate_yaw
0,0.7097,0.2331,0.0091,-0.0010,-0.0018,-0.0010,-0.38,-1.31,-23.66,0,4.133,-0.389,-0.216,-0.103,-0.026,-0.008,0.000,0.000,0.000,0.000
50,0.7092,0.2324,0.0091,-0.0039,-0.0052,-0.0007,-0.41,-1.26,-23.54,0,4.128,-0.087,-0.329,0.034,-0.023,-0.004,0.000,0.000,0.000,0.000
101,0.7090,0.2342,0.0077,-0.0054,0.0047,-0.0075,-0.38,-1.24,-23.42,0,4.133,-0.036,-0.196,-0.161,-0.024,-0.009,0.000,0.000,0.000,0.000
153,0.7094,0.2330,0.0074,-0.0029,-0.0011,-0.0067,-0.40,-1.27,-23.31,0,4.128,-0.091,0.013,0.265,-0.024,-0.006,0.000,0.000,0.000,0.000
204,0.7098,0.2338,0.0082,-0.0009,0.0034,0.0009,-0.38,-1.23,-23.19,0,4.133,-0.100,-0.175,0.199,-0.021,-0.007,0.000,0.000,0.000,0.000
254,0.7093,0.2333,0.0083,-0.0033,0.0007,0.0018,-0.41,-1.26,-23.07,0,4.128,-0.089,-0.002,-0.106,-0.023,-0.007,0.000,0.000,0.000,0.000
306,0.7097,0.2337,0.0099,-0.0007,0.0023,0.0087,-0.39,-1.31,-22.96,0,4.133,0.202,-0.264,-0.041,-0.025,-0.007,0.000,0.000,0.000,0.000
357,0.7096,0.2332,0.0104,-0.0020,-0.0002,0.0104,-0.38,-1.27,-22.84,0,4.128,-0.172,0.100,0.200,-0.025,-0.008,0.000,0.000,0.000,0.000
407,0.7087,0.2336,0.0097,-0.0067,0.0015,0.0047,-0.38,-1.32,-22.73,0,4.133,0.033,-0.023,0.005,-0.025,-0.010,0.000,0.000,0.000,0.000
459,0.7090,0.2342,0.0100,-0.0052,0.0048,0.0060,-0.40,-1.27,-22.61,0,4.128,0.038,-0.270,-0.122,-0.025,-0.008,0.000,0.000,0.000,0.000
509,0.7095,0.2337,0.0088,-0.0026,0.0020,-0.0009,-0.39,-1.31,-22.50,0,4.133,-0.182,0.253,-0.031,-0.023,-0.005,0.000,0.000,0.000,0.000
561,0.7095,0.2335,0.0093,-0.0032,0.0011,0.0024,-0.38,-1.28,-22.39,0,4.128,0.012,0.403,0.070,-0.025,-0.008,0.000,0.000,0.000,0.000
611,0.7098,0.2336,0.0097,-0.0017,0.0018,0.0046,-0.39,-1.24,-22.28,0,4.133,-0.106,-0.217,-0.148,-0.018,-0.007,0.000,0.000,0.000,0.000
663,0.7094,0.2333,0.0095,-0.0031,-0.0000,0.0033,-0.39,-1.28,-22.17,0,4.128,0.285,0.095,-0.033,-0.022,-0.007,0.000,0.000,0.000,0.000
714,0.7097,0.2337,0.0094,-0.0006,0.0021,0.0025,-0.41,-1.32,-22.06,0,4.133,-0.151,-0.009,-0.202,-0.021,-0.006,0.000,0.000,0.000,0.000
764,0.7106,0.2331,0.0096,0.0035,-0.0018,0.0033,-0.38,-1.28,-21.95,0,4.123,0.008,0.111,0.026,-0.024,-0.005,0.000,0.000,0.000,0.000
816,0.7096,0.2335,0.0087,-0.0021,0.0007,-0.0005,-0.41,-1.28,-21.84,0,4.133,-0.143,-0.181,0.128,-0.023,-0.008,0.000,0.000,0.000,0.000
867,0.7093,0.2333,0.0087,-0.0038,-0.0004,0.0004,-0.39,-1.22,-21.73,0,4.128,0.010,0.120,0.063,-0.023,-0.008,0.000,0.000,0.000,0.000
917,0.7098,0.2337,0.0102,-0.0020,0.0015,0.0089,-0.38,-1.26,-21.62,0,4.133,0.031,-0.322,0.236,-0.025,-0.006,0.000,0.000,0.000,0.000
969,0.7105,0.2329,0.0107,0.0012,-0.0026,0.0094,-0.41,-1.30,-21.51,0,4.128,0.103,0.276,-0.160,-0.024,-0.007,0.000,0.000,0.000,0.000
1020,0.7094,0.2333,0.0100,-0.0047,-0.0001,0.0061,-0.38,-1.25,-21.41,0,4.133,-0.047,0.018,-0.066,-0.025,-0.007,0.000,0.000,0.000,0.000
1071,0.7090,0.2342,0.0103,-0.0071,0.0046,0.0068,-0.38,-1.26,-21.31,0,4.128,0.065,-0.164,-0.260,-0.022,-0.009,0.000,0.000,0.000,0.000
1122,0.7094,0.2340,0.0091,-0.0048,0.0034,-0.0011,-0.38,-1.25,-21.20,0,4.133,-0.085,-0.027,0.123,-0.023,-0.007,0.000,0.000,0.000,0.000
1173,0.7088,0.2340,0.0090,-0.0082,0.0035,-0.0002,-0.39,-1.25,-21.10,0,4.128,0.000,-0.236,-0.047,-0.023,-0.007,0.000,0.000,0.000,0.000
1224,0.7096,0.2337,0.0085,-0.0034,0.0011,-0.0010,-0.38,-1.26,-20.99,0,4.133,-0.184,-0.001,0.141,-0.023,-0.007,0.000,0.000,0.000,0.000
1275,0.7094,0.2332,0.0085,-0.0042,-0.0018,0.0002,-0.38,-1.22,-20.89,0,4.128,-0.136,0.165,0.124,-0.023,-0.005,0.000,0.000,0.000,0.000
1326,0.7096,0.2335,0.0085,-0.0030,0.0001,-0.0020,-0.41,-1.26,-20.78,0,4.133,0.031,0.109,-0.318,-0.026,-0.005,0.000,0.000,0.000,0.000
1376,0.7091,0.2334,0.0084,-0.0058,-0.0005,-0.0015,-0.37,-1.23,-20.68,0,4.128,-0.050,-0.001,0.040,-0.024,-0.009,0.000,0.000,0.000,0.000
1428,0.7089,0.2342,0.0079,-0.0066,0.0033,-0.0041,-0.38,-1.24,-20.58,0,4.133,0.020,0.009,-0.135,-0.022,-0.009,0.000,0.000,0.000,0.000
1479,0.7098,0.2334,0.0077,-0.0018,-0.0014,-0.0038,-0.40,-1.28,-20.48,0,4.128,0.102,0.104,-0.083,-0.025,-0.006,0.000,0.000,0.000,0.000
1529,0.7101,0.2329,0.0079,0.0005,-0.0043,-0.0004,-0.38,-1.28,-20.38,0,4.133,-0.050,0.062,-0.092,-0.025,-0.007,0.000,0.000,0.000,0.000
1580,0.7086,0.2336,0.0079,-0.0075,0.0003,-0.0000,-0.41,-1.24,-20.28,0,4.128,0.074,-0.131,0.129,-0.026,-0.008,0.000,0.000,0.000,0.000
1632,0.7087,0.2336,0.0092,-0.0072,0.0003,0.0063,-0.41,-1.28,-20.19,0,4.133,0.036,0.260,0.025,-0.025,-0.008,0.000,0.000,0.000,0.000
1683,0.7100,0.2336,0.0095,-0.0003,0.0005,0.0064,-0.38,-1.29,-20.09,0,4.123,0.198,-0.060,-0.091,-0.023,-0.007,0.000,0.000,0.000,0.000
1734,0.7089,0.2343,0.0091,-0.0057,0.0042,0.0023,-0.42,-1.28,-19.99,0,4.133,0.121,-0.116,-0.159,-0.022,-0.006,0.000,0.000,0.000,0.000
1784,0.7108,0.2336,0.0093,0.0050,0.0004,0.0029,-0.42,-1.28,-19.89,0,4.128,-0.147,-0.005,0.177,-0.023,-0.006,0.000,0.000,0.000,0.000
1836,0.7095,0.2332,0.0087,-0.0024,-0.0019,-0.0006,-0.42,-1.28,-19.79,0,4.133,-0.059,-0.071,0.184,-0.024,-0.007,0.000,0.000,0.000,0.000
1886,0.7092,0.2333,0.0087,-0.0038,-0.0009,0.0002,-0.38,-1.26,-19.70,0,4.123,-0.084,-0.257,0.403,-0.024,-0.007,0.000,0.000,0.000,0.000
1938,0.7091,0.2340,0.0094,-0.0040,0.0029,0.0038,-0.38,-1.23,-19.60,0,4.133,-0.132,0.046,-0.259,-0.022,-0.007,0.000,0.000,0.000,0.000
1989,0.7094,0.2336,0.0089,-0.0032,0.0011,0.0013,-0.37,-1.24,-19.50,0,4.128,0.020,-0.159,-0.045,-0.024,-0.009,0.000,0.000,0.000,0.000
2040,0.7084,0.2333,0.0090,-0.0075,-0.0005,0.0024,-0.40,-1.28,-19.41,0,4.128,-0.025,0.251,-0.133,-0.024,-0.008,0.000,0.000,0.000,0.000
2091,0.7097,0.2337,0.0092,-0.0013,0.0012,0.0032,-0.39,-1.28,-19.31,0,4.128,-0.032,-0.270,0.195,-0.023,-0.008,0.000,0.000,0.000,0.000
2141,0.7095,0.2333,0.0087,-0.0022,-0.0008,0.0009,-0.39,-1.30,-19.22,0,4.133,0.181,0.555,-0.040,-0.024,-0.004,0.000,0.000,0.000,0.000
2193,0.7107,0.2336,0.0088,0.0039,0.0011,0.0015,-0.39,-1.27,-19.12,0,4.128,-0.050,0.241,-0.118,-0.024,-0.007,0.000,0.000,0.000,0.000
2244,0.7095,0.2338,0.0079,-0.0026,0.0020,-0.0023,-0.39,-1.27,-19.03,0,4.133,-0.015,-0.184,0.066,-0.024,-0.004,0.000,0.000,0.000,0.000
2295,0.7081,0.2322,0.0079,-0.0093,-0.0060,-0.0017,-0.39,-1.28,-18.94,0,4.123,0.015,0.072,0.078,-0.023,-0.006,0.000,0.000,0.000,0.000
2345,0.7087,0.2340,0.0079,-0.0066,0.0037,-0.0006,-0.40,-1.27,-18.85,0,4.133,-0.229,-0.144,-0.075,-0.022,-0.006,0.000,0.000,0.000,0.000
2396,0.7096,0.2335,0.0080,-0.0022,0.0004,0.0007,-0.37,-1.26,-18.75,0,4.128,-0.116,-0.058,0.070,-0.026,-0.006,0.000,0.000,0.000,0.000
2448,0.7095,0.2340,0.0086,-0.0027,0.0031,0.0028,-0.37,-1.27,-18.66,0,4.133,0.091,-0.034,-0.061,-0.025,-0.006,0.000,0.000,0.000,0.000
2499,0.7094,0.2329,0.0089,-0.0036,-0.0031,0.0041,-0.38,-1.27,-18.57,0,4.128,0.082,-0.085,-0.253,-0.023,-0.007,0.000,0.000,0.000,0.000
2550,0.7095,0.2338,0.0099,-0.0023,0.0013,0.0091,-0.38,-1.28,-18.48,0,4.133,0.004,0.029,-0.107,-0.022,-0.007,0.000,0.000,0.000,0.000
2601,0.7088,0.2335,0.0104,-0.0061,-0.0004,0.0104,-0.36,-1.27,-18.39,0,4.128,-0.010,0.321,-0.057,-0.024,-0.009,0.000,0.000,0.000,0.000
2651,0.7088,0.2335,0.0093,-0.0065,-0.0005,0.0032,-0.39,-1.26,-18.30,0,4.133,-0.496,0.012,0.330,-0.024,-0.003,0.000,0.000,0.000,0.000
2702,0.7107,0.2337,0.0095,0.0043,0.0008,0.0036,-0.38,-1.32,-18.21,0,4.128,-0.295,-0.102,0.291,-0.022,-0.005,0.000,0.000,0.000,0.000
2754,0.7089,0.2337,0.0089,-0.0055,0.0016,0.0005,-0.40,-1.31,-18.12,0,4.133,-0.182,-0.044,0.106,-0.024,-0.008,0.000,0.000,0.000,0.000
2804,0.7109,0.2336,0.0089,0.0038,0.0006,0.0011,-0.39,-1.28,-18.04,0,4.128,0.144,0.160,-0.063,-0.026,-0.008,0.000,0.000,0.000,0.000
2856,0.7094,0.2336,0.0094,-0.0040,0.0002,0.0032,-0.37,-1.27,-17.95,0,4.133,-0.001,-0.148,-0.064,-0.022,-0.007,0.000,0.000,0.000,0.000
2906,0.7094,0.2323,0.0096,-0.0042,-0.0071,0.0036,-0.38,-1.22,-17.86,0,4.128,-0.185,0.137,0.037,-0.024,-0.008,0.000,0.000,0.000,0.000
2957,0.7089,0.2335,0.0089,-0.0073,-0.0005,-0.0000,-0.38,-1.31,-17.77,0,4.128,-0.219,-0.152,-0.403,-0.023,-0.009,0.000,0.000,0.000,0.000
3009,0.7091,0.2341,0.0089,-0.0057,0.0028,-0.0063,-0.37,-1.26,-17.69,0,4.128,0.003,-0.010,0.088,-0.021,-0.008,0.000,0.000,0.000,0.000
3060,0.7101,0.2336,0.0076,-0.0002,-0.0003,-0.0048,-0.39,-1.27,-17.60,0,4.133,0.036,0.016,-0.217,-0.023,-0.007,0.000,0.000,0.000,0.000
3111,0.7106,0.2337,0.0074,0.0021,0.0003,-0.0039,-0.39,-1.23,-17.51,0,4.128,0.056,-0.070,-0.059,-0.023,-0.006,0.000,0.000,0.000,0.000
3162,0.7096,0.2333,0.0097,-0.0032,-0.0015,0.0079,-0.40,-1.25,-17.42,0,4.133,-0.058,-0.201,-0.222,-0.022,-0.008,0.000,0.000,0.000,0.000
3213,0.7108,0.2334,0.0101,0.0037,-0.0012,0.0083,-0.38,-1.22,-17.34,0,4.128,-0.145,-0.102,0.011,-0.023,-0.008,0.000,0.000,0.000,0.000
3264,0.7099,0.2337,0.0103,-0.0012,-0.0001,0.0081,-0.40,-1.26,-17.25,0,4.133,-0.032,0.023,0.215,-0.022,-0.008,0.000,0.000,0.000,0.000
3316,0.7089,0.2337,0.0108,-0.0065,0.0002,0.0091,-0.39,-1.25,-17.16,0,4.128,-0.095,-0.024,-0.118,-0.023,-0.006,0.000,0.000,0.000,0.000
3367,0.7089,0.2335,0.0105,-0.0075,-0.0002,0.0060,-0.39,-1.23,-17.08,0,3.727,-0.167,1.735,-0.334,-0.027,-0.022,0.000,0.000,0.000,0.000
3418,0.7097,0.2327,0.0109,0.0035,-0.0043,0.0072,-0.40,-1.23,-17.06,0,3.785,-2.176,-0.426,-0.902,-0.036,-0.005,0.000,0.000,0.000,0.000
3469,0.7089,0.2338,0.0113,0.0091,0.0016,0.0086,-0.48,-1.25,-17.05,0,3.832,-6.685,3.803,-0.638,-0.019,-0.010,0.000,0.000,0.000,0.000
3519,0.7116,0.2356,0.0116,0.0303,0.0108,0.0080,-0.74,-1.37,-17.01,0,3.853,2.044,-5.034,3.252,-0.006,-0.009,0.000,0.000,0.000,0.000
3571,0.7165,0.2369,0.0086,0.0582,0.0167,-0.0097,-0.77,-1.49,-16.93,0,3.853,3.959,-4.913,1.101,-0.038,-0.038,0.000,0.000,0.000,0.000
3622,0.7318,0.2376,0.0065,0.1310,0.0175,-0.0202,-0.66,-1.69,-16.90,0,3.859,2.904,-1.554,1.700,-0.026,-0.017,0.000,0.000,0.000,0.000
3672,0.7420,0.2344,0.0086,0.1607,-0.0026,0.0006,-0.07,-1.44,-16.74,0,3.864,5.228,-4.720,-4.500,-0.000,-0.006,0.000,0.000,0.000,0.000
3724,0.7500,0.2339,0.0087,0.1690,-0.0070,-0.0058,0.04,-1.02,-16.95,0,3.853,7.557,-9.738,-9.187,-0.008,-0.012,0.000,0.000,0.000,0.000
3775,0.7503,0.2370,0.0084,0.1352,0.0053,0.0032,0.27,-0.39,-17.39,0,3.859,-7.293,6.375,-13.167,-0.009,-0.008,0.000,0.000,0.000,0.000
3826,0.7499,0.2311,0.0092,0.1011,-0.0294,0.0009,0.88,-0.49,-18.18,0,3.853,-3.581,10.120,-13.548,-0.022,-0.002,0.000,0.000,0.000,0.000
3877,0.7487,0.2049,0.0068,0.0752,-0.1612,-0.0127,1.50,-0.80,-18.96,0,3.848,-1.025,0.197,-5.787,-0.029,-0.003,0.000,0.000,0.000,0.000
3927,0.7527,0.1837,0.0027,0.0771,-0.2388,-0.0249,1.69,-0.55,-19.35,0,3.843,-5.597,-4.586,-7.664,-0.018,0.027,0.000,0.000,0.000,0.000
3978,0.7516,0.1663,0.0040,0.0511,-0.2803,-0.0117,1.83,-0.14,-19.69,0,3.843,-13.473,-21.690,-0.396,0.002,0.003,0.000,0.000,0.000,0.000
4029,0.7599,0.1538,0.0046,0.0779,-0.2844,0.0096,0.93,0.66,-19.77,0,3.838,-53.761,-20.056,3.155,0.007,-0.019,0.000,0.000,0.000,0.000
4080,0.7718,0.1442,0.0104,0.1118,-0.2633,0.0500,-1.47,1.54,-19.51,0,3.848,-26.698,-47.425,9.710,0.021,-0.017,0.000,0.000,0.000,0.000
4132,0.7714,0.1438,0.0162,0.0751,-0.1797,0.0782,-3.43,3.96,-18.72,0,3.832,-5.306,-34.628,11.734,0.034,-0.033,0.000,0.000,0.000,0.000
4182,0.7740,0.1570,0.0065,0.0505,-0.0361,0.0030,-4.94,6.52,-17.23,0,3.822,12.909,-9.032,-0.220,0.033,-0.044,0.000,0.000,0.000,0.000
4233,0.7678,0.1833,-0.0016,-0.0297,0.1492,-0.0644,-5.42,7.84,-16.39,0,3.795,50.226,5.608,0.394,0.013,-0.032,0.000,0.000,0.000,0.000
4284,0.7485,0.2295,-0.0169,-0.1693,0.3938,-0.1548,-4.25,8.91,-15.42,0,3.769,63.502,49.347,6.311,0.025,-0.046,0.000,0.000,0.000,0.000
4335,0.7153,0.2780,-0.0641,-0.3534,0.5782,-0.3751,-2.15,7.28,-15.47,0,3.758,77.904,115.626,11.148,0.018,-0.015,0.000,0.000,0.000,0.000
4386,0.6800,0.3152,-0.0272,-0.4789,0.6350,-0.0479,1.54,1.37,-16.19,0,3.795,80.003,66.601,9.504,0.020,-0.030,0.000,0.000,0.000,0.000
4437,0.6570,0.3275,-0.0087,-0.4740,0.4961,0.1312,7.28,-3.26,-16.50,0,3.822,-31.468,50.102,4.788,-0.018,-0.035,0.000,0.000,0.000,0.000
4488,0.6248,0.3407,-0.0000,-0.5118,0.3656,0.1536,7.56,-6.32,-16.46,0,3.816,-80.009,69.968,3.526,-0.014,-0.008,0.000,0.000,0.000,0.000
4540,0.6055,0.3200,0.0064,-0.4666,0.0898,0.1510,5.42,-10.66,-16.07,0,3.806,-52.963,12.071,3.592,-0.001,-0.013,0.000,0.000,0.000,0.000
4590,0.6110,0.2829,0.0026,-0.2813,-0.1695,0.0929,3.37,-13.29,-16.14,0,3.795,-67.259,-87.044,3.108,0.005,-0.022,0.000,0.000,0.000,0.000
4641,0.6490,0.2255,-0.0214,0.0250,-0.4397,-0.0601,0.90,-11.74,-16.42,0,3.753,-86.477,-129.009,-3.260,-0.008,-0.016,0.000,0.000,0.000,0.000
4692,0.6731,0.1959,-0.0138,0.2067,-0.5112,-0.0086,-4.20,-5.35,-18.06,0,3.764,-68.563,-155.902,0.644,-0.013,-0.022,0.000,0.000,0.000,0.000
4744,0.6907,0.1867,-0.0049,0.2844,-0.4224,0.0579,-8.26,2.44,-18.36,0,3.774,15.447,-79.807,0.854,-0.003,-0.018,0.000,0.000,0.000,0.000
4795,0.7277,0.1670,-0.0051,0.4180,-0.3562,0.0429,-8.35,5.43,-17.12,0,3.758,14.839,-51.692,-0.971,0.005,-0.025,0.000,0.000,0.000,0.000
4845,0.7651,0.1549,-0.0162,0.4991,-0.2538,-0.0279,-7.80,7.52,-16.19,0,3.753,21.556,-78.479,-3.946,0.007,-0.023,0.000,0.000,0.000,0.000
4897,0.8055,0.1462,-0.0030,0.5325,-0.1240,0.0594,-7.66,11.17,-15.36,0,3.764,59.795,-41.398,-4.025,0.001,-0.017,0.000,0.000,0.000,0.000
4948,0.8217,0.1654,0.0004,0.4063,0.0819,0.0854,-5.74,14.57,-15.61,0,3.758,75.906,43.962,0.362,0.010,-0.017,0.000,0.000,0.000,0.000
4999,0.8173,0.2029,0.0077,0.1804,0.3110,0.1159,-2.64,14.51,-16.66,0,3.753,91.803,92.864,9.039,0.013,-0.030,0.000,0.000,0.000,0.000
5049,0.7801,0.2534,-0.0113,-0.1277,0.5157,0.0139,1.35,11.32,-16.91,0,3.743,79.264,131.530,9.605,0.010,-0.037,0.000,0.000,0.000,0.000
5100,0.7635,0.2729,0.0095,-0.2744,0.4769,0.1456,6.49,4.90,-18.87,0,3.753,16.971,84.336,11.103,0.009,-0.029,0.000,0.000,0.000,0.000
5151,0.7393,0.2864,0.0157,-0.3904,0.3882,0.1650,8.18,1.24,-18.20,0,3.743,-28.997,71.885,2.847,0.017,-0.021,0.000,0.000,0.000,0.000
5203,0.6951,0.3056,0.0125,-0.5529,0.3385,0.1196,7.23,-1.57,-17.14,0,3.743,-37.363,112.350,-2.747,0.010,-0.017,0.000,0.000,0.000,0.000
5254,0.6553,0.3155,0.0073,-0.6264,0.2537,0.0792,5.62,-6.39,-16.31,0,3.727,-20.637,113.653,-0.603,0.013,-0.016,0.000,0.000,0.000,0.000
5305,0.6037,0.3259,0.0233,-0.6770,0.1706,0.1611,4.97,-11.66,-15.57,0,3.743,-12.068,42.773,0.647,0.022,-0.021,0.000,0.000,0.000,0.000
5355,0.5791,0.3259,0.0372,-0.5481,0.0623,0.2168,4.42,-14.59,-15.81,0,3.748,-52.277,-10.122,1.994,0.008,-0.016,0.000,0.000,0.000,0.000
5406,0.5644,0.3185,0.0591,-0.3789,-0.0551,0.2781,2.10,-14.94,-16.36,0,3.758,-56.766,-33.494,3.010,0.009,-0.003,0.000,0.000,0.000,0.000
5458,0.5699,0.3073,0.0742,-0.1671,-0.1430,0.2836,-0.79,-14.03,-16.97,0,3.753,-17.691,-69.662,4.209,-0.002,-0.007,0.000,0.000,0.000,0.000
5508,0.5818,0.2968,0.0878,0.0184,-0.1867,0.2752,-1.96,-11.11,-17.20,0,3.758,-13.642,-96.290,4.161,-0.007,-0.011,0.000,0.000,0.000,0.000
5559,0.6012,0.2826,0.0979,0.1780,-0.2202,0.2504,-2.67,-6.97,-17.20,0,3.748,-9.515,-79.183,2.958,-0.014,-0.013,0.000,0.000,0.000,0.000
5610,0.6162,0.2750,0.1051,0.2560,-0.2064,0.2179,-3.29,-2.78,-17.08,0,3.737,-31.938,-77.063,1.629,-0.013,-0.011,0.000,0.000,0.000,0.000
5662,0.6342,0.2645,0.1119,0.3062,-0.1913,0.1933,-4.75,0.99,-16.84,0,3.727,-14.562,-60.601,0.400,-0.017,-0.005,0.000,0.000,0.000,0.000
5713,0.6467,0.2573,0.1201,0.2984,-0.1458,0.1930,-5.58,3.93,-16.45,0,3.732,13.410,-32.495,-0.527,-0.015,-0.007,0.000,0.000,0.000,0.000
5764,0.6599,0.2520,0.1302,0.2726,-0.0884,0.1990,-5.07,5.88,-16.38,0,3.727,7.979,-6.132,-0.973,-0.011,-0.018,0.000,0.000,0.000,0.000
5815,0.6719,0.2499,0.1344,0.2370,-0.0294,0.1761,-4.68,6.26,-16.35,0,3.732,13.139,0.472,-1.286,-0.008,-0.020,0.000,0.000,0.000,0.000
5866,0.6811,0.2513,0.1435,0.1887,0.0309,0.1847,-4.08,6.27,-16.44,0,3.721,23.764,7.978,-2.145,-0.004,-0.021,0.000,0.000,0.000,0.000
5917,0.6894,0.2539,0.1462,0.1486,0.0798,0.1641,-2.91,5.90,-16.55,0,3.727,18.552,20.860,-1.896,-0.002,-0.021,0.000,0.000,0.000,0.000
5968,0.6951,0.2596,0.1547,0.1040,0.1221,0.1773,-1.95,4.93,-16.69,0,3.716,15.576,23.734,-4.212,0.001,-0.021,0.000,0.000,0.000,0.000
6018,0.6996,0.2653,0.1603,0.0689,0.1475,0.1769,-1.20,3.79,-16.87,0,3.727,14.997,20.827,-4.084,0.004,-0.022,0.000,0.000,0.000,0.000
6070,0.7024,0.2755,0.1697,0.0391,0.1761,0.1940,-0.45,2.74,-17.07,0,3.727,13.798,17.352,-2.778,0.005,-0.024,0.000,0.000,0.000,0.000
6121,0.7038,0.2828,0.1798,0.0171,0.1793,0.2109,0.31,1.81,-17.26,0,3.737,7.148,15.340,-2.342,0.007,-0.022,0.000,0.000,0.000,0.000
6172,0.7050,0.2915,0.1907,0.0038,0.1801,0.2235,0.72,0.99,-17.38,0,3.727,5.219,13.207,-2.184,0.008,-0.021,0.000,0.000,0.000,0.000
6223,0.7055,0.3000,0.2031,-0.0042,0.1752,0.2388,0.88,0.41,-17.45,0,3.743,1.419,6.533,-0.336,0.007,-0.017,0.000,0.000,0.000,0.000
6274,0.7055,0.3080,0.2152,-0.0078,0.1663,0.2420,1.03,-0.04,-17.50,0,3.737,-0.453,2.857,-0.379,0.005,-0.020,0.000,0.000,0.000,0.000
6325,0.7056,0.3157,0.2266,-0.0079,0.1566,0.2352,1.03,-0.23,-17.52,0,3.748,-2.708,1.839,-0.778,0.005,-0.017,0.000,0.000,0.000,0.000
6376,0.7053,0.3235,0.2382,-0.0079,0.1481,0.2291,0.93,-0.39,-17.54,0,3.732,-2.828,-0.551,0.998,0.003,-0.015,0.000,0.000,0.000,0.000
6427,0.7049,0.3297,0.2467,-0.0073,0.1369,0.2128,0.82,-0.41,-17.52,0,3.743,-5.085,-4.649,0.586,0.005,-0.021,0.000,0.000,0.000,0.000
6478,0.7048,0.3359,0.2571,-0.0057,0.1283,0.2046,0.62,-0.28,-17.49,0,3.732,-4.141,-3.004,0.447,0.004,-0.017,0.000,0.000,0.000,0.000
6529,0.7047,0.3413,0.2632,-0.0047,0.1196,0.1793,0.49,-0.15,-17.45,0,3.737,-4.106,-3.817,-0.032,0.005,-0.020,0.000,0.000,0.000,0.000
6580,0.7050,0.3480,0.2719,-0.0032,0.1180,0.1701,0.32,-0.06,-17.44,0,3.732,-4.948,-5.635,-0.124,0.007,-0.016,0.000,0.000,0.000,0.000
6630,0.7053,0.3532,0.2799,-0.0024,0.1137,0.1611,0.18,0.14,-17.42,0,3.743,-2.070,-5.463,0.621,0.006,-0.012,0.000,0.000,0.000,0.000
6682,0.7044,0.3585,0.2878,-0.0063,0.1118,0.1540,0.10,0.34,-17.40,0,3.732,-1.837,-3.480,0.157,0.003,-0.016,0.000,0.000,0.000,0.000
6732,0.7050,0.3632,0.2949,-0.0070,0.1096,0.1436,0.07,0.43,-17.38,0,3.743,-1.691,-3.554,0.599,0.006,-0.014,0.000,0.000,0.000,0.000
6784,0.7051,0.3660,0.3019,-0.0091,0.1034,0.1334,-0.01,0.53,-17.38,0,3.732,-0.414,-4.960,0.452,0.006,-0.017,0.000,0.000,0.000,0.000
6834,0.7036,0.3712,0.3081,-0.0159,0.1051,0.1230,-0.07,0.72,-17.38,0,3.743,-3.325,-2.611,0.383,0.007,-0.017,0.000,0.000,0.000,0.000
6885,0.7033,0.3764,0.3140,-0.0201,0.1074,0.1126,-0.22,0.85,-17.35,0,3.732,1.632,3.580,0.344,0.008,-0.014,0.000,0.000,0.000,0.000
6937,0.7014,0.3846,0.3210,-0.0279,0.1170,0.1080,-0.18,0.73,-17.34,0,3.737,3.281,-1.734,-0.106,0.008,-0.015,0.000,0.000,0.000,0.000
6987,0.6993,0.3890,0.3262,-0.0348,0.1163,0.0968,-0.06,0.76,-17.33,0,3.727,2.071,1.805,0.230,0.009,-0.016,0.000,0.000,0.000,0.000
7038,0.6967,0.3949,0.3302,-0.0424,0.1183,0.0834,0.03,0.74,-17.30,0,3.737,-0.932,0.962,0.794,0.004,-0.017,0.000,0.000,0.000,0.000
7089,0.6942,0.3993,0.3341,-0.0487,0.1162,0.0733,0.05,0.63,-17.27,0,3.721,-1.010,-1.103,0.896,0.008,-0.014,0.000,0.000,0.000,0.000
7140,0.6895,0.4060,0.3334,-0.0585,0.1194,0.0461,0.05,0.66,-17.23,0,3.732,2.523,0.940,1.091,0.007,-0.014,0.000,0.000,0.000,0.000
7191,0.6864,0.4115,0.3356,-0.0639,0.1191,0.0403,0.17,0.60,-17.18,0,3.721,2.912,4.153,1.040,0.008,-0.009,0.000,0.000,0.000,0.000
7242,0.6814,0.4168,0.3383,-0.0726,0.1177,0.0390,0.21,0.45,-17.14,0,3.727,-3.192,1.830,0.530,0.005,-0.016,0.000,0.000,0.000,0.000
7294,0.6794,0.4208,0.3402,-0.0732,0.1134,0.0356,0.15,0.37,-17.12,0,3.716,0.585,0.318,0.248,0.007,-0.017,0.000,0.000,0.000,0.000
7345,0.6731,0.4269,0.3390,-0.0816,0.1139,0.0206,0.23,0.35,-17.12,0,3.721,-1.257,2.440,0.882,0.007,-0.014,0.000,0.000,0.000,0.000
7397,0.6698,0.4313,0.3400,-0.0834,0.1105,0.0198,0.21,0.30,-17.08,0,3.716,-1.657,0.116,0.076,0.007,-0.016,0.000,0.000,0.000,0.000
7447,0.6639,0.4332,0.3403,-0.0893,0.1022,0.0156,0.23,0.29,-17.05,0,3.721,0.527,0.023,0.424,0.007,-0.017,0.000,0.000,0.000,0.000
7499,0.6603,0.4388,0.3415,-0.0903,0.1020,0.0197,0.24,0.25,-17.05,0,3.716,0.653,0.884,-0.452,0.009,-0.014,0.000,0.000,0.000,0.000
7550,0.6522,0.4458,0.3420,-0.0998,0.1045,0.0194,0.26,0.24,-17.04,0,3.721,-0.525,3.649,-0.519,0.007,-0.011,0.000,0.000,0.000,0.000
7600,0.6493,0.4484,0.3430,-0.0983,0.0983,0.0214,0.22,0.11,-17.05,0,3.716,1.415,-0.539,-0.294,0.007,-0.014,0.000,0.000,0.000,0.000
7652,0.6425,0.4534,0.3457,-0.1032,0.0972,0.0306,0.22,0.13,-17.04,0,3.721,0.386,-1.583,0.079,0.007,-0.014,0.000,0.000,0.000,0.000
7703,0.6398,0.4559,0.3472,-0.1001,0.0915,0.0321,0.28,0.12,-17.05,0,3.716,-0.903,0.879,-0.634,0.007,-0.017,0.000,0.000,0.000,0.000
7753,0.6375,0.4579,0.3522,-0.0967,0.0844,0.0454,0.37,0.11,-17.06,0,3.727,-2.166,-2.601,-0.117,0.010,-0.018,0.000,0.000,0.000,0.000
7805,0.6292,0.4664,0.3544,-0.1046,0.0896,0.0430,0.27,0.20,-17.07,0,3.716,4.456,-0.823,0.625,0.007,-0.015,0.000,0.000,0.000,0.000
7855,0.6227,0.4703,0.3547,-0.1094,0.0870,0.0306,0.41,0.26,-17.06,0,3.721,-1.976,1.545,0.574,0.010,-0.011,0.000,0.000,0.000,0.000
7906,0.6172,0.4742,0.3562,-0.1123,0.0833,0.0262,0.47,0.21,-17.03,0,3.711,-1.645,0.841,-0.098,0.007,-0.011,0.000,0.000,0.000,0.000
7957,0.6092,0.4813,0.3539,-0.1194,0.0858,0.0070,0.41,0.15,-17.01,0,3.716,-1.225,-2.935,-0.431,0.008,-0.015,0.000,0.000,0.000,0.000
8008,0.6021,0.4839,0.3542,-0.1238,0.0799,0.0055,0.38,0.23,-17.01,0,3.711,2.888,2.379,-0.556,0.008,-0.014,0.000,0.000,0.000,0.000
8060,0.5991,0.4893,0.3558,-0.1208,0.0797,0.0116,0.46,0.19,-17.02,0,3.716,2.005,2.603,-0.885,0.009,-0.012,0.000,0.000,0.000,0.000
8111,0.5914,0.4941,0.3564,-0.1261,0.0777,0.0129,0.54,0.08,-17.02,0,3.711,-1.720,-0.140,-0.651,0.007,-0.016,0.000,0.000,0.000,0.000
8163,0.5855,0.4981,0.3570,-0.1272,0.0739,0.0139,0.52,0.01,-17.05,0,3.716,3.587,-0.004,-1.247,0.011,-0.013,0.000,0.000,0.000,0.000
8214,0.5804,0.5002,0.3578,-0.1261,0.0672,0.0150,0.52,0.05,-17.07,0,3.711,2.022,0.222,0.030,0.006,-0.011,0.000,0.000,0.000,0.000
8265,0.5737,0.5042,0.3585,-0.1286,0.0639,0.0150,0.63,0.04,-17.09,0,3.716,-1.294,0.025,-0.665,0.006,-0.013,0.000,0.000,0.000,0.000
8316,0.5685,0.5083,0.3587,-0.1281,0.0607,0.0117,0.63,0.00,-17.12,0,3.706,0.738,-1.489,-1.099,0.009,-0.008,0.000,0.000,0.000,0.000
8367,0.5613,0.5097,0.3601,-0.1308,0.0528,0.0149,0.59,0.06,-17.14,0,3.716,0.370,-0.350,-0.300,0.005,-0.016,0.000,0.000,0.000,0.000
8417,0.5538,0.5128,0.3609,-0.1345,0.0489,0.0149,0.64,0.16,-17.18,0,3.711,-1.270,1.922,-1.340,0.002,-0.011,0.000,0.000,0.000,0.000
8469,0.5478,0.5165,0.3601,-0.1357,0.0462,0.0055,0.68,0.01,-17.22,0,3.711,-2.978,-0.746,0.560,0.008,-0.012,0.000,0.000,0.000,0.000
8520,0.5444,0.5172,0.3603,-0.1336,0.0402,0.0037,0.57,0.05,-17.22,0,3.700,-0.213,-1.399,0.736,0.010,-0.015,0.000,0.000,0.000,0.000
8570,0.5378,0.5162,0.3563,-0.1352,0.0308,-0.0157,0.51,0.14,-17.20,0,3.706,-0.368,-0.749,-0.199,0.006,-0.014,0.000,0.000,0.000,0.000
8622,0.5333,0.5170,0.3555,-0.1333,0.0254,-0.0139,0.49,0.12,-17.22,0,3.695,-0.338,-0.919,0.391,0.005,-0.015,0.000,0.000,0.000,0.000
8672,0.5278,0.5175,0.3554,-0.1336,0.0204,-0.0063,0.52,0.13,-17.21,0,3.706,-2.882,-1.479,0.354,0.006,-0.015,0.000,0.000,0.000,0.000
8724,0.5253,0.5153,0.3553,-0.1286,0.0110,0.0005,0.37,0.21,-17.20,0,3.700,0.202,-1.503,-0.244,0.007,-0.012,0.000,0.000,0.000,0.000
8774,0.5179,0.5163,0.3544,-0.1328,0.0090,-0.0007,0.34,0.29,-17.20,0,3.706,1.743,0.433,0.159,0.005,-0.012,0.000,0.000,0.000,0.000
8825,0.5100,0.5180,0.3543,-0.1382,0.0095,0.0025,0.38,0.29,-17.20,0,3.700,-1.828,1.164,-0.277,0.006,-0.013,0.000,0.000,0.000,0.000
8876,0.5065,0.5185,0.3535,-0.1351,0.0071,0.0006,0.31,0.19,-17.22,0,3.706,2.200,0.445,-0.231,0.009,-0.010,0.000,0.000,0.000,0.000
8928,0.4970,0.5197,0.3536,-0.1428,0.0066,0.0046,0.38,0.19,-17.23,0,3.695,0.685,0.347,0.179,0.008,-0.012,0.000,0.000,0.000,0.000
8979,0.4929,0.5210,0.3533,-0.1395,0.0058,0.0050,0.44,0.11,-17.23,0,3.706,1.464,1.048,0.198,0.006,-0.010,0.000,0.000,0.000,0.000
9029,0.4878,0.5204,0.3537,-0.1382,0.0013,0.0083,0.48,0.08,-17.22,0,3.700,1.315,0.134,-0.552,0.008,-0.014,0.000,0.000,0.000,0.000
9081,0.4812,0.5211,0.3549,-0.1392,-0.0015,0.0157,0.57,0.06,-17.23,0,3.706,0.796,1.642,0.680,0.007,-0.012,0.000,0.000,0.000,0.000
9132,0.4757,0.5205,0.3558,-0.1383,-0.0067,0.0170,0.62,0.02,-17.22,0,3.700,2.504,0.731,0.356,0.007,-0.013,0.000,0.000,0.000,0.000
9182,0.4671,0.5210,0.3576,-0.1429,-0.0099,0.0226,0.63,-0.01,-17.19,0,3.706,-2.025,3.084,0.258,0.005,-0.011,0.000,0.000,0.000,0.000
9233,0.4619,0.5212,0.3587,-0.1408,-0.0135,0.0223,0.57,-0.12,-17.18,0,3.700,5.136,-0.185,0.381,0.007,-0.008,0.000,0.000,0.000,0.000
9284,0.4550,0.5206,0.3611,-0.1407,-0.0183,0.0273,0.68,-0.13,-17.13,0,3.706,0.124,0.262,1.192,0.008,-0.014,0.000,0.000,0.000,0.000
9335,0.4488,0.5202,0.3627,-0.1399,-0.0226,0.0258,0.75,-0.12,-17.11,0,3.700,-0.702,-1.014,0.203,0.006,-0.012,0.000,0.000,0.000,0.000
9386,0.4430,0.5204,0.3635,-0.1384,-0.0260,0.0192,0.75,-0.17,-17.10,0,3.706,-1.854,-1.707,0.366,0.009,-0.007,0.000,0.000,0.000,0.000
9437,0.4399,0.5175,0.3644,-0.1313,-0.0355,0.0154,0.70,-0.12,-17.08,0,3.700,1.903,1.422,-0.064,0.006,-0.011,0.000,0.000,0.000,0.000
9489,0.4299,0.5187,0.3636,-0.1388,-0.0354,0.0036,0.73,-0.13,-17.06,0,3.706,1.556,0.720,0.330,0.006,-0.009,0.000,0.000,0.000,0.000
9540,0.4265,0.5167,0.3637,-0.1324,-0.0417,-0.0004,0.75,-0.19,-17.06,0,3.695,0.922,0.879,-0.316,0.003,-0.010,0.000,0.000,0.000,0.000
9590,0.4182,0.5153,0.3629,-0.1359,-0.0467,-0.0069,0.71,-0.19,-17.05,0,3.700,-0.556,-1.464,0.711,0.005,-0.010,0.000,0.000,0.000,0.000
9641,0.4151,0.5138,0.3626,-0.1285,-0.0512,-0.0094,0.60,-0.24,-17.05,0,3.695,1.301,-0.909,-0.111,0.008,-0.009,0.000,0.000,0.000,0.000
9693,0.4102,0.5107,0.3610,-0.1251,-0.0576,-0.0156,0.57,-0.20,-17.02,0,3.695,-0.890,-1.742,0.371,0.008,-0.010,0.000,0.000,0.000,0.000
9743,0.4036,0.5068,0.3589,-0.1254,-0.0643,-0.0228,0.61,-0.13,-17.00,0,3.690,-0.729,0.761,-0.728,0.008,-0.010,0.000,0.000,0.000,0.000
9795,0.3982,0.5019,0.3583,-0.1238,-0.0730,-0.0187,0.54,-0.16,-17.00,0,3.695,-1.254,-0.501,-0.016,0.011,-0.007,0.000,0.000,0.000,0.000
9846,0.3931,0.4972,0.3574,-0.1216,-0.0798,-0.0154,0.49,-0.16,-17.01,0,3.690,-1.828,-1.905,0.322,0.004,-0.012,0.000,0.000,0.000,0.000
9897,0.3866,0.4936,0.3570,-0.1225,-0.0831,-0.0099,0.45,-0.10,-17.02,0,3.695,-2.213,1.433,-0.503,0.005,-0.012,0.000,0.000,0.000,0.000
9947,0.3821,0.4890,0.3566,-0.1191,-0.0876,-0.0065,0.33,-0.15,-17.06,0,3.690,-1.066,-0.496,-1.241,0.007,-0.012,0.000,0.000,0.000,0.000
9999,0.3759,0.4861,0.3575,-0.1195,-0.0874,0.0011,0.34,-0.18,-17.10,0,3.695,-0.076,-0.125,-1.148,0.004,-0.006,0.000,0.000,0.000,0.000
10049,0.3721,0.4810,0.3576,-0.1144,-0.0915,0.0025,0.29,-0.14,-17.16,0,3.690,1.789,1.640,-0.943,0.005,-0.011,0.000,0.000,0.000,0.000
10100,0.3636,0.4768,0.3566,-0.1201,-0.0933,-0.0023,0.34,-0.20,-17.21,0,3.695,3.118,2.105,-0.709,0.004,-0.008,0.000,0.000,0.000,0.000
10152,0.3618,0.4705,0.3565,-0.1107,-0.0998,-0.0012,0.38,-0.25,-17.23,0,3.690,-0.805,-0.664,-0.353,0.007,-0.007,0.000,0.000,0.000,0.000
10202,0.3567,0.4665,0.3543,-0.1085,-0.1012,-0.0116,0.31,-0.25,-17.25,0,3.695,-1.578,-0.801,0.393,0.007,-0.008,0.000,0.000,0.000,0.000
10254,0.3527,0.4614,0.3537,-0.1043,-0.1042,-0.0110,0.24,-0.23,-17.23,0,3.684,-3.988,-0.464,0.697,0.009,-0.013,0.000,0.000,0.000,0.000
10304,0.3490,0.4596,0.3509,-0.1000,-0.0993,-0.0200,0.18,-0.20,-17.23,0,3.690,2.315,-0.061,1.055,0.005,-0.011,0.000,0.000,0.000,0.000
10356,0.3422,0.4573,0.3500,-0.1026,-0.0955,-0.0168,0.22,-0.20,-17.19,0,3.684,4.348,1.942,0.434,0.005,-0.013,0.000,0.000,0.000,0.000
10406,0.3361,0.4567,0.3489,-0.1036,-0.0887,-0.0155,0.42,-0.31,-17.17,0,3.690,0.694,3.846,1.212,0.010,-0.013,0.000,0.000,0.000,0.000
10458,0.3291,0.4512,0.3482,-0.1064,-0.0949,-0.0119,0.51,-0.44,-17.13,0,3.684,-0.670,1.100,0.754,0.010,-0.008,0.000,0.000,0.000,0.000
10508,0.3233,0.4503,0.3491,-0.1053,-0.0910,-0.0017,0.49,-0.52,-17.10,0,3.690,2.508,2.930,0.473,0.008,-0.010,0.000,0.000,0.000,0.000
10559,0.3216,0.4407,0.3491,-0.0944,-0.1074,0.0025,0.60,-0.67,-17.07,0,3.684,0.939,0.512,-0.287,0.006,-0.010,0.000,0.000,0.000,0.000
10611,0.3155,0.4368,0.3493,-0.0936,-0.1105,0.0053,0.64,-0.67,-17.07,0,3.690,-1.779,-2.250,1.312,0.007,-0.008,0.000,0.000,0.000,0.000
10662,0.3100,0.4296,0.3506,-0.0913,-0.1201,0.0127,0.51,-0.61,-17.04,0,3.684,-3.395,1.183,0.345,0.005,-0.006,0.000,0.000,0.000,0.000
10712,0.3062,0.4265,0.3507,-0.0858,-0.1191,0.0109,0.47,-0.68,-17.04,0,3.690,1.096,-0.562,-0.013,0.003,-0.011,0.000,0.000,0.000,0.000
10763,0.3024,0.4184,0.3512,-0.0807,-0.1286,0.0092,0.41,-0.67,-17.01,0,3.684,-0.528,-1.577,-0.212,0.008,-0.010,0.000,0.000,0.000,0.000
10815,0.2985,0.4126,0.3513,-0.0764,-0.1317,0.0057,0.32,-0.55,-17.00,0,3.690,2.276,1.563,0.016,0.007,-0.010,0.000,0.000,0.000,0.000
10866,0.2954,0.4056,0.3516,-0.0712,-0.1363,0.0050,0.31,-0.53,-17.01,0,3.684,-5.184,-0.586,-0.440,0.004,-0.007,0.000,0.000,0.000,0.000
10917,0.2912,0.4025,0.3494,-0.0692,-0.1316,-0.0074,0.15,-0.50,-17.02,0,3.684,0.052,-0.123,0.808,0.005,-0.008,0.000,0.000,0.000,0.000
10967,0.2863,0.3971,0.3491,-0.0688,-0.1314,-0.0062,0.09,-0.47,-17.02,0,3.679,5.432,2.156,-0.159,0.007,-0.008,0.000,0.000,0.000,0.000
11019,0.2835,0.3919,0.3477,-0.0642,-0.1311,-0.0108,0.32,-0.56,-17.05,0,3.684,-1.515,2.536,0.110,0.005,-0.012,0.000,0.000,0.000,0.000
11069,0.2802,0.3881,0.3472,-0.0605,-0.1289,-0.0090,0.31,-0.68,-17.05,0,3.679,-0.056,0.541,0.591,0.006,-0.009,0.000,0.000,0.000,0.000
11120,0.2755,0.3812,0.3471,-0.0594,-0.1338,-0.0053,0.32,-0.70,-17.02,0,3.684,-0.281,0.710,-0.029,0.001,-0.009,0.000,0.000,0.000,0.000
11172,0.2716,0.3765,0.3470,-0.0572,-0.1331,-0.0028,0.30,-0.68,-17.04,0,3.679,-3.035,0.266,-1.038,0.006,-0.010,0.000,0.000,0.000,0.000
11223,0.2671,0.3704,0.3457,-0.0563,-0.1356,-0.0071,0.20,-0.74,-17.08,0,3.679,-1.204,-0.100,0.168,0.004,-0.009,0.000,0.000,0.000,0.000
11274,0.2656,0.3653,0.3454,-0.0482,-0.1351,-0.0045,0.19,-0.76,-17.10,0,3.679,4.096,3.152,-1.575,0.005,-0.007,0.000,0.000,0.000,0.000
11325,0.2621,0.3573,0.3457,-0.0453,-0.1414,0.0001,0.32,-0.84,-17.14,0,3.684,-3.882,-0.083,-0.323,0.007,-0.010,0.000,0.000,0.000,0.000
11376,0.2592,0.3529,0.3458,-0.0412,-0.1396,0.0018,0.21,-0.83,-17.16,0,3.679,0.309,-0.861,-0.443,0.005,-0.013,0.000,0.000,0.000,0.000
11427,0.2561,0.3438,0.3452,-0.0376,-0.1477,-0.0010,0.14,-0.78,-17.16,0,3.684,-3.358,2.955,0.870,0.000,-0.009,0.000,0.000,0.000,0.000
11478,0.2548,0.3364,0.3451,-0.0307,-0.1504,-0.0007,0.06,-0.83,-17.14,0,3.679,-2.982,-2.038,0.221,0.008,-0.007,0.000,0.000,0.000,0.000
11529,0.2525,0.3317,0.3450,-0.0264,-0.1466,-0.0005,0.01,-0.78,-17.15,0,3.679,3.488,-0.163,-0.456,0.003,-0.007,0.000,0.000,0.000,0.000
11580,0.2511,0.3223,0.3450,-0.0201,-0.1526,0.0013,0.03,-0.78,-17.17,0,3.679,-4.755,0.726,-0.459,0.004,-0.012,0.000,0.000,0.000,0.000
11631,0.2502,0.3158,0.3460,-0.0140,-0.1523,0.0040,0.03,-0.79,-17.20,0,3.679,-3.429,-2.485,-0.428,0.002,-0.011,0.000,0.000,0.000,0.000
11682,0.2498,0.3104,0.3462,-0.0073,-0.1491,0.0025,-0.16,-0.72,-17.22,0,3.674,-1.140,-0.943,0.507,0.002,-0.011,0.000,0.000,0.000,0.000
11733,0.2497,0.3015,0.3451,-0.0008,-0.1530,-0.0030,-0.12,-0.68,-17.23,0,3.679,1.154,0.969,-1.138,0.003,-0.008,0.000,0.000,0.000,0.000
11784,0.2498,0.2935,0.3449,0.0051,-0.1545,-0.0037,-0.08,-0.70,-17.27,0,3.674,-0.716,-1.776,-0.452,0.000,-0.009,0.000,0.000,0.000,0.000
11835,0.2501,0.2894,0.3432,0.0107,-0.1475,-0.0124,-0.19,-0.60,-17.31,0,3.679,0.647,-0.758,-0.926,0.002,-0.012,0.000,0.000,0.000,0.000
11886,0.2488,0.2832,0.3426,0.0119,-0.1444,-0.0113,-0.25,-0.53,-17.36,0,3.669,3.348,1.951,-0.600,0.003,-0.007,0.000,0.000,0.000,0.000
11937,0.2489,0.2776,0.3403,0.0156,-0.1405,-0.0180,-0.17,-0.56,-17.39,0,3.674,3.101,0.482,-1.310,0.003,-0.009,0.000,0.000,0.000,0.000
11987,0.2503,0.2700,0.3394,0.0219,-0.1420,-0.0162,-0.07,-0.59,-17.42,0,3.669,-3.248,-1.293,-0.459,0.005,-0.013,0.000,0.000,0.000,0.000
12038,0.2499,0.2655,0.3389,0.0233,-0.1365,-0.0128,-0.13,-0.56,-17.45,0,3.674,0.114,0.224,-0.996,0.003,-0.008,0.000,0.000,0.000,0.000
12090,0.2511,0.2554,0.3378,0.0281,-0.1440,-0.0136,-0.18,-0.51,-17.48,0,3.669,2.720,1.988,-0.472,0.004,-0.010,0.000,0.000,0.000,0.000
12140,0.2505,0.2531,0.3396,0.0283,-0.1333,0.0018,-0.16,-0.59,-17.50,0,3.674,-0.320,0.371,-0.085,0.003,-0.011,0.000,0.000,0.000,0.000
12191,0.2515,0.2456,0.3398,0.0324,-0.1352,0.0045,-0.12,-0.66,-17.54,0,3.669,0.518,1.427,-1.523,0.000,-0.010,0.000,0.000,0.000,0.000
12243,0.2536,0.2418,0.3356,0.0390,-0.1297,-0.0130,-0.16,-0.72,-17.61,0,3.669,1.188,-0.056,-1.094,0.006,-0.014,0.000,0.000,0.000,0.000
12293,0.2539,0.2339,0.3350,0.0414,-0.1337,-0.0109,-0.06,-0.71,-17.66,0,3.669,-0.989,1.907,-0.361,0.004,-0.007,0.000,0.000,0.000,0.000
12345,0.2573,0.2262,0.3346,0.0502,-0.1375,-0.0081,-0.03,-0.76,-17.71,0,3.674,-2.264,-1.824,-1.001,0.004,-0.011,0.000,0.000,0.000,0.000
12395,0.2573,0.2187,0.3343,0.0507,-0.1404,-0.0049,-0.16,-0.68,-17.74,0,3.669,-2.100,0.610,-0.251,0.002,-0.016,0.000,0.000,0.000,0.000
12447,0.2591,0.2140,0.3341,0.0549,-0.1358,-0.0031,-0.27,-0.69,-17.78,0,3.674,-0.130,-0.919,-0.319,0.007,-0.009,0.000,0.000,0.000,0.000
12498,0.2628,0.2057,0.3340,0.0632,-0.1385,-0.0005,-0.28,-0.67,-17.80,0,3.669,2.181,1.482,-1.117,0.002,-0.013,0.000,0.000,0.000,0.000
12548,0.2663,0.1985,0.3335,0.0701,-0.1385,-0.0017,-0.32,-0.65,-17.84,0,3.674,-1.486,-2.391,0.138,0.005,-0.009,0.000,0.000,0.000,0.000
12600,0.2705,0.1901,0.3335,0.0777,-0.1413,0.0004,-0.36,-0.57,-17.83,0,3.663,-1.647,-0.060,0.109,-0.000,-0.011,0.000,0.000,0.000,0.000
12651,0.2738,0.1847,0.3316,0.0815,-0.1363,-0.0072,-0.40,-0.54,-17.84,0,3.669,-0.607,-0.859,0.704,-0.000,-0.014,0.000,0.000,0.000,0.000
12702,0.2789,0.1761,0.3312,0.0890,-0.1385,-0.0047,-0.44,-0.47,-17.84,0,3.663,-0.086,-1.695,-0.969,0.000,-0.010,0.000,0.000,0.000,0.000
12752,0.2807,0.1717,0.3311,0.0878,-0.1304,-0.0013,-0.48,-0.40,-17.85,0,3.669,0.127,0.022,0.794,-0.002,-0.015,0.000,0.000,0.000,0.000
12803,0.2881,0.1624,0.3311,0.0986,-0.1336,0.0023,-0.48,-0.37,-17.82,0,3.669,-3.690,-2.590,0.430,-0.002,-0.008,0.000,0.000,0.000,0.000
12855,0.2915,0.1567,0.3329,0.0991,-0.1282,0.0101,-0.52,-0.32,-17.80,0,3.674,0.403,-1.541,-0.291,-0.001,-0.011,0.000,0.000,0.000,0.000
12906,0.2982,0.1459,0.3334,0.1063,-0.1336,0.0109,-0.60,-0.20,-17.78,0,3.669,1.126,-1.624,-0.095,-0.001,-0.011,0.000,0.000,0.000,0.000
12957,0.3053,0.1383,0.3337,0.1127,-0.1308,0.0077,-0.66,-0.08,-17.78,0,3.674,0.710,-0.686,-0.222,0.003,-0.013,0.000,0.000,0.000,0.000
13007,0.3100,0.1313,0.3314,0.1129,-0.1267,-0.0082,-0.74,-0.01,-17.77,0,3.663,-1.019,-0.320,1.320,-0.002,-0.014,0.000,0.000,0.000,0.000
13058,0.3175,0.1253,0.3322,0.1215,-0.1245,-0.0020,-0.78,0.01,-17.72,0,3.669,3.423,-0.339,0.470,-0.001,-0.013,0.000,0.000,0.000,0.000
13109,0.3214,0.1180,0.3321,0.1187,-0.1214,-0.0013,-0.64,0.02,-17.69,0,3.663,-4.732,-1.714,1.567,0.001,-0.010,0.000,0.000,0.000,0.000
13160,0.3257,0.1165,0.3297,0.1168,-0.1064,-0.0133,-0.82,0.11,-17.64,0,3.663,-0.151,1.831,1.590,-0.001,-0.009,0.000,0.000,0.000,0.000
13211,0.3287,0.1116,0.3291,0.1116,-0.0992,-0.0119,-0.85,0.09,-17.58,0,3.658,5.456,4.117,1.195,0.003,-0.015,0.000,0.000,0.000,0.000
13263,0.3341,0.1087,0.3279,0.1130,-0.0886,-0.0126,-0.61,-0.10,-17.49,0,3.663,1.205,2.614,0.264,-0.001,-0.016,0.000,0.000,0.000,0.000
13314,0.3396,0.1052,0.3274,0.1151,-0.0819,-0.0086,-0.57,-0.21,-17.44,0,3.663,-0.232,-0.669,1.695,-0.001,-0.011,0.000,0.000,0.000,0.000
13365,0.3444,0.1000,0.3275,0.1160,-0.0802,-0.0008,-0.56,-0.22,-17.33,0,3.663,1.999,1.424,1.449,-0.003,-0.016,0.000,0.000,0.000,0.000
13416,0.3522,0.0931,0.3277,0.1232,-0.0823,0.0045,-0.48,-0.23,-17.26,0,3.663,-3.354,0.834,2.711,0.003,-0.016,0.000,0.000,0.000,0.000
13467,0.3556,0.0914,0.3276,0.1202,-0.0736,0.0048,-0.54,-0.27,-17.16,0,3.663,-2.345,1.398,2.820,0.002,-0.011,0.000,0.000,0.000,0.000
13518,0.3602,0.0884,0.3279,0.1201,-0.0682,0.0060,-0.63,-0.24,-17.03,0,3.658,1.970,1.421,3.249,0.001,-0.013,0.000,0.000,0.000,0.000
13568,0.3647,0.0827,0.3267,0.1204,-0.0694,0.0012,-0.56,-0.30,-16.86,0,3.663,0.146,2.526,2.215,-0.000,-0.010,0.000,0.000,0.000,0.000
13620,0.3709,0.0803,0.3268,0.1247,-0.0634,0.0033,-0.54,-0.42,-16.74,0,3.658,-1.200,1.385,1.335,0.001,-0.009,0.000,0.000,0.000,0.000
13671,0.3749,0.0770,0.3277,0.1240,-0.0603,0.0090,-0.63,-0.44,-16.68,0,3.663,-1.034,-2.253,0.998,-0.003,-0.012,0.000,0.000,0.000,0.000
13721,0.3819,0.0718,0.3282,0.1310,-0.0615,0.0111,-0.70,-0.41,-16.61,0,3.663,-0.958,-0.589,0.301,-0.001,-0.018,0.000,0.000,0.000,0.000
13772,0.3883,0.0661,0.3299,0.1356,-0.0634,0.0166,-0.74,-0.43,-16.61,0,3.669,2.216,1.143,0.271,-0.001,-0.017,0.000,0.000,0.000,0.000
13823,0.3913,0.0637,0.3308,0.1322,-0.0575,0.0159,-0.76,-0.39,-16.61,0,3.658,-0.948,-2.394,0.163,-0.001,-0.018,0.000,0.000,0.000,0.000
13875,0.3966,0.0631,0.3290,0.1335,-0.0474,0.0026,-0.79,-0.22,-16.61,0,3.663,0.849,-1.643,0.407,0.001,-0.012,0.000,0.000,0.000,0.000
13925,0.4032,0.0639,0.3295,0.1368,-0.0349,0.0029,-0.73,-0.12,-16.60,0,3.658,1.982,0.451,0.366,0.002,-0.013,0.000,0.000,0.000,0.000
13976,0.4065,0.0616,0.3289,0.1315,-0.0311,-0.0027,-0.59,-0.16,-16.58,0,3.658,0.387,1.268,0.055,0.004,-0.015,0.000,0.000,0.000,0.000
14028,0.4139,0.0587,0.3288,0.1359,-0.0297,-0.0037,-0.55,-0.24,-16.56,0,3.653,-1.898,2.688,-0.618,-0.001,-0.013,0.000,0.000,0.000,0.000
14078,0.4227,0.0552,0.3259,0.1436,-0.0307,-0.0167,-0.67,-0.35,-16.58,0,3.658,-1.306,-2.004,-0.412,0.002,-0.015,0.000,0.000,0.000,0.000
14130,0.4284,0.0541,0.3251,0.1444,-0.0250,-0.0143,-0.80,-0.26,-16.60,0,3.653,0.502,-4.038,0.179,0.000,-0.014,0.000,0.000,0.000,0.000
14180,0.4382,0.0516,0.3250,0.1542,-0.0223,-0.0089,-0.80,-0.09,-16.60,0,3.658,1.517,-1.425,0.145,-0.000,-0.016,0.000,0.000,0.000,0.000
14232,0.4457,0.0532,0.3246,0.1564,-0.0102,-0.0058,-0.68,0.01,-16.58,0,3.653,2.259,-2.049,0.945,0.002,-0.018,0.000,0.000,0.000,0.000
14283,0.4553,0.0499,0.3233,0.1620,-0.0110,-0.0072,-0.59,0.07,-16.55,0,3.653,-0.439,-0.778,1.020,-0.002,-0.017,0.000,0.000,0.000,0.000
14334,0.4604,0.0509,0.3231,0.1556,-0.0028,-0.0038,-0.61,0.22,-16.50,0,3.653,1.708,0.176,0.195,-0.003,-0.015,0.000,0.000,0.000,0.000
14385,0.4671,0.0521,0.3216,0.1531,0.0051,-0.0068,-0.59,0.21,-16.47,0,3.658,-1.003,1.478,0.755,-0.001,-0.010,0.000,0.000,0.000,0.000
14435,0.4726,0.0507,0.3213,0.1478,0.0061,-0.0046,-0.55,0.18,-16.43,0,3.648,-1.567,2.252,0.649,0.000,-0.017,0.000,0.000,0.000,0.000
14487,0.4794,0.0518,0.3206,0.1465,0.0123,-0.0059,-0.62,0.11,-16.41,0,3.658,-0.743,2.563,-0.423,-0.001,-0.011,0.000,0.000,0.000,0.000
14537,0.4846,0.0549,0.3203,0.1421,0.0227,-0.0029,-0.62,0.08,-16.42,0,3.653,0.090,3.148,0.068,0.001,-0.018,0.000,0.000,0.000,0.000
14589,0.4922,0.0538,0.3187,0.1440,0.0227,-0.0095,-0.51,-0.01,-16.42,0,3.653,-3.987,0.270,0.471,0.000,-0.017,0.000,0.000,0.000,0.000
14639,0.4961,0.0547,0.3183,0.1374,0.0267,-0.0067,-0.57,-0.00,-16.39,0,3.653,-1.621,0.745,-0.064,0.001,-0.014,0.000,0.000,0.000,0.000
14690,0.5039,0.0551,0.3201,0.1410,0.0294,0.0056,-0.69,-0.02,-16.37,0,3.658,2.571,-2.558,0.049,0.000,-0.013,0.000,0.000,0.000,0.000
14741,0.5106,0.0552,0.3205,0.1417,0.0313,0.0087,-0.59,0.04,-16.37,0,3.653,1.411,-0.052,0.020,0.001,-0.017,0.000,0.000,0.000,0.000
14792,0.5191,0.0555,0.3227,0.1456,0.0331,0.0188,-0.49,0.02,-16.38,0,3.658,-2.008,-2.240,-0.721,-0.000,-0.015,0.000,0.000,0.000,0.000
14844,0.5284,0.0574,0.3229,0.1514,0.0379,0.0147,-0.56,0.12,-16.42,0,3.653,0.164,-2.405,-0.443,-0.000,-0.015,0.000,0.000,0.000,0.000
14894,0.5346,0.0574,0.3221,0.1486,0.0382,0.0052,-0.58,0.24,-16.44,0,3.653,1.583,-0.553,-0.193,0.002,-0.013,0.000,0.000,0.000,0.000
14946,0.5429,0.0577,0.3224,0.1500,0.0391,0.0043,-0.46,0.29,-16.46,0,3.648,-1.836,-1.919,-0.593,0.001,-0.019,0.000,0.000,0.000,0.000
14997,0.5502,0.0576,0.3197,0.1485,0.0383,-0.0087,-0.55,0.36,-16.48,0,3.653,-5.224,-2.549,-0.461,0.001,-0.015,0.000,0.000,0.000,0.000
15048,0.5570,0.0594,0.3193,0.1460,0.0427,-0.0067,-0.67,0.42,-16.51,0,3.648,0.397,-0.147,-1.165,0.003,-0.015,0.000,0.000,0.000,0.000
15099,0.5627,0.0614,0.3181,0.1405,0.0484,-0.0086,-0.71,0.45,-16.57,0,3.653,-2.275,0.790,-1.681,0.001,-0.014,0.000,0.000,0.000,0.000
15150,0.5691,0.0626,0.3178,0.1371,0.0519,-0.0061,-0.75,0.45,-16.65,0,3.648,3.199,-0.721,-1.546,0.002,-0.020,0.000,0.000,0.000,0.000
15200,0.5737,0.0645,0.3175,0.1299,0.0570,-0.0030,-0.69,0.47,-16.72,0,3.653,-0.167,-1.205,-0.856,-0.001,-0.017,0.000,0.000,0.000,0.000
15252,0.5818,0.0690,0.3185,0.1312,0.0674,0.0058,-0.67,0.48,-16.78,0,3.648,0.122,0.391,-1.102,0.007,-0.016,0.000,0.000,0.000,0.000
15303,0.5882,0.0709,0.3181,0.1291,0.0700,0.0044,-0.59,0.40,-16.87,0,3.653,-0.020,1.537,-1.514,0.003,-0.014,0.000,0.000,0.000,0.000
15354,0.5954,0.0731,0.3183,0.1292,0.0724,0.0064,-0.53,0.37,-16.95,0,3.648,2.168,-1.234,-2.590,0.004,-0.015,0.000,0.000,0.000,0.000
15405,0.6010,0.0762,0.3190,0.1258,0.0759,0.0081,-0.53,0.38,-17.05,0,3.653,2.969,-2.389,-2.095,0.005,-0.017,0.000,0.000,0.000,0.000
15456,0.6087,0.0809,0.3194,0.1272,0.0830,0.0082,-0.45,0.47,-17.13,0,3.648,0.767,-2.594,-1.280,0.005,-0.015,0.000,0.000,0.000,0.000
15507,0.6135,0.0860,0.3181,0.1207,0.0899,-0.0006,-0.43,0.63,-17.18,0,3.648,1.598,2.176,-1.077,0.003,-0.015,0.000,0.000,0.000,0.000
15557,0.6186,0.0907,0.3181,0.1149,0.0949,0.0007,-0.35,0.59,-17.24,0,3.648,-0.565,3.366,-0.957,0.001,-0.015,0.000,0.000,0.000,0.000
15608,0.6222,0.0957,0.3196,0.1062,0.0987,0.0087,-0.31,0.49,-17.32,0,3.653,2.664,0.638,-0.935,0.001,-0.020,0.000,0.000,0.000,0.000
15659,0.6260,0.1029,0.3200,0.0996,0.1077,0.0079,-0.29,0.47,-17.37,0,3.642,3.559,0.360,-0.705,0.002,-0.023,0.000,0.000,0.000,0.000
15711,0.6308,0.1088,0.3191,0.0958,0.1120,0.0019,-0.11,0.44,-17.42,0,3.648,-1.400,1.967,-0.340,0.005,-0.021,0.000,0.000,0.000,0.000
15761,0.6361,0.1110,0.3192,0.0939,0.1051,0.0007,-0.09,0.34,-17.44,0,3.648,-3.019,0.978,-1.109,0.002,-0.021,0.000,0.000,0.000,0.000
15813,0.6395,0.1212,0.3195,0.0885,0.1192,0.0012,-0.19,0.31,-17.48,0,3.648,-1.440,1.318,0.294,0.002,-0.021,0.000,0.000,0.000,0.000
15864,0.6445,0.1245,0.3195,0.0880,0.1151,0.0004,-0.30,0.27,-17.47,0,3.642,-0.257,-0.067,0.663,0.005,-0.016,0.000,0.000,0.000,0.000
15915,0.6495,0.1305,0.3212,0.0880,0.1182,0.0082,-0.27,0.24,-17.45,0,3.648,2.959,0.506,0.403,0.005,-0.018,0.000,0.000,0.000,0.000
15966,0.6550,0.1373,0.3216,0.0897,0.1224,0.0079,-0.13,0.22,-17.43,0,3.642,0.346,-1.068,0.815,0.003,-0.016,0.000,0.000,0.000,0.000
16017,0.6596,0.1412,0.3206,0.0886,0.1181,-0.0001,-0.02,0.17,-17.40,0,3.648,-3.182,-0.024,0.636,0.004,-0.013,0.000,0.000,0.000,0.000
16068,0.6665,0.1424,0.3205,0.0933,0.1076,-0.0017,-0.15,0.24,-17.35,0,3.637,-2.973,-4.801,0.378,0.008,-0.020,0.000,0.000,0.000,0.000
16119,0.6725,0.1464,0.3160,0.0952,0.1063,-0.0225,-0.33,0.37,-17.30,0,3.642,0.328,-4.167,1.386,0.002,-0.020,0.000,0.000,0.000,0.000
16169,0.6768,0.1504,0.3149,0.0912,0.1066,-0.0214,-0.32,0.57,-17.25,0,3.637,-1.524,-3.666,0.923,0.004,-0.018,0.000,0.000,0.000,0.000
16221,0.6808,0.1539,0.3130,0.0858,0.1067,-0.0231,-0.39,0.76,-17.21,0,3.637,-1.644,-0.442,0.674,0.005,-0.018,0.000,0.000,0.000,0.000
16271,0.6853,0.1592,0.3120,0.0811,0.1115,-0.0189,-0.45,0.82,-17.19,0,3.632,-2.667,-0.725,1.103,0.006,-0.018,0.000,0.000,0.000,0.000
16323,0.6890,0.1657,0.3097,0.0751,0.1195,-0.0193,-0.49,0.82,-17.18,0,3.637,0.213,-1.361,-0.307,0.004,-0.018,0.000,0.000,0.000,0.000
16374,0.6934,0.1704,0.3089,0.0711,0.1226,-0.0118,-0.59,0.87,-17.15,0,3.642,-0.044,-0.319,0.034,0.007,-0.018,0.000,0.000,0.000,0.000
16425,0.6956,0.1789,0.3097,0.0624,0.1341,-0.0012,-0.49,0.86,-17.17,0,3.642,-0.261,1.224,-0.221,0.007,-0.020,0.000,0.000,0.000,0.000
16476,0.6997,0.1863,0.3098,0.0592,0.1423,0.0043,-0.48,0.82,-17.18,0,3.637,1.886,1.397,-0.613,0.006,-0.019,0.000,0.000,0.000,0.000
16527,0.7008,0.1915,0.3088,0.0498,0.1433,0.0031,-0.41,0.76,-17.19,0,3.642,2.889,1.294,-0.395,0.004,-0.015,0.000,0.000,0.000,0.000
16577,0.7030,0.1980,0.3090,0.0441,0.1466,0.0069,-0.30,0.71,-17.19,0,3.637,2.229,0.319,0.685,0.005,-0.015,0.000,0.000,0.000,0.000
16628,0.7043,0.2067,0.3082,0.0367,0.1533,0.0047,-0.19,0.71,-17.17,0,3.642,0.795,1.533,1.575,0.006,-0.016,0.000,0.000,0.000,0.000
16680,0.7064,0.2129,0.3085,0.0321,0.1532,0.0079,-0.12,0.66,-17.12,0,3.642,0.089,1.117,1.832,0.005,-0.019,0.000,0.000,0.000,0.000
16730,0.7082,0.2207,0.3092,0.0277,0.1564,0.0115,-0.16,0.62,-17.03,0,3.642,3.071,1.446,1.451,0.005,-0.018,0.000,0.000,0.000,0.000
16781,0.7099,0.2281,0.3098,0.0239,0.1577,0.0141,-0.05,0.56,-16.94,0,3.642,2.521,-0.512,1.698,0.004,-0.017,0.000,0.000,0.000,0.000
16833,0.7114,0.2336,0.3108,0.0204,0.1539,0.0155,0.04,0.59,-16.85,0,3.642,2.636,0.337,1.817,0.005,-0.018,0.000,0.000,0.000,0.000
16884,0.7133,0.2414,0.3116,0.0177,0.1549,0.0162,0.08,0.56,-16.74,0,3.637,5.210,2.588,1.282,0.010,-0.021,0.000,0.000,0.000,0.000
16934,0.7150,0.2495,0.3106,0.0149,0.1561,0.0086,0.22,0.50,-16.66,0,3.642,-2.775,-3.081,1.475,0.005,-0.021,0.000,0.000,0.000,0.000
16986,0.7159,0.2558,0.3111,0.0106,0.1525,0.0096,0.21,0.62,-16.60,0,3.637,0.032,-0.286,0.220,0.006,-0.016,0.000,0.000,0.000,0.000
17037,0.7167,0.2609,0.3124,0.0059,0.1461,0.0160,0.21,0.66,-16.58,0,3.642,1.498,0.906,-0.147,0.008,-0.017,0.000,0.000,0.000,0.000
17088,0.7185,0.2689,0.3133,0.0037,0.1473,0.0177,0.18,0.64,-16.57,0,3.637,0.802,-1.900,0.371,0.004,-0.017,0.000,0.000,0.000,0.000
17139,0.7179,0.2767,0.3137,-0.0038,0.1488,0.0157,0.18,0.73,-16.55,0,3.642,1.368,1.625,-0.725,0.008,-0.018,0.000,0.000,0.000,0.000
17190,0.7186,0.2827,0.3145,-0.0078,0.1454,0.0155,0.28,0.71,-16.57,0,3.637,-3.464,-0.983,-0.750,0.007,-0.018,0.000,0.000,0.000,0.000
17240,0.7184,0.2889,0.3131,-0.0134,0.1425,0.0059,0.19,0.70,-16.60,0,3.642,-0.503,-1.214,-0.716,0.006,-0.018,0.000,0.000,0.000,0.000
17292,0.7180,0.2953,0.3134,-0.0187,0.1413,0.0056,0.10,0.77,-16.62,0,3.632,-1.143,0.207,-0.740,0.004,-0.017,0.000,0.000,0.000,0.000
17343,0.7172,0.3038,0.3140,-0.0246,0.1459,0.0091,0.16,0.73,-16.68,0,3.637,-1.719,0.506,-1.019,0.007,-0.016,0.000,0.000,0.000,0.000
17393,0.7168,0.3109,0.3145,-0.0288,0.1460,0.0096,0.13,0.71,-16.73,0,3.637,-0.007,1.027,-1.393,0.008,-0.019,0.000,0.000,0.000,0.000
17444,0.7158,0.3161,0.3136,-0.0336,0.1423,0.0031,0.14,0.68,-16.79,0,3.637,0.101,1.154,-1.118,0.007,-0.018,0.000,0.000,0.000,0.000
17496,0.7160,0.3210,0.3122,-0.0348,0.1375,-0.0046,0.18,0.63,-16.83,0,3.632,-1.064,0.447,-0.522,0.009,-0.018,0.000,0.000,0.000,0.000
17546,0.7134,0.3270,0.3119,-0.0419,0.1352,-0.0047,0.15,0.60,-16.84,0,3.637,-0.046,-0.837,-0.418,0.010,-0.013,0.000,0.000,0.000,0.000
17598,0.7108,0.3357,0.3117,-0.0481,0.1399,-0.0032,0.09,0.62,-16.86,0,3.632,3.475,0.327,-0.125,0.007,-0.018,0.000,0.000,0.000,0.000
17649,0.7097,0.3413,0.3111,-0.0505,0.1403,-0.0041,0.20,0.59,-16.87,0,3.637,1.942,0.564,0.122,0.008,-0.014,0.000,0.000,0.000,0.000
17701,0.7094,0.3473,0.3109,-0.0504,0.1381,-0.0019,0.31,0.52,-16.88,0,3.632,0.378,-1.096,0.318,0.008,-0.016,0.000,0.000,0.000,0.000
17751,0.7072,0.3534,0.3138,-0.0543,0.1351,0.0135,0.36,0.49,-16.86,0,3.637,0.027,-1.149,-0.214,0.008,-0.020,0.000,0.000,0.000,0.000
17802,0.7055,0.3574,0.3145,-0.0567,0.1272,0.0136,0.32,0.57,-16.88,0,3.632,-0.385,0.181,-0.042,0.008,-0.015,0.000,0.000,0.000,0.000
17853,0.7036,0.3632,0.3153,-0.0599,0.1248,0.0137,0.35,0.60,-16.88,0,3.637,-3.124,-0.980,0.261,0.009,-0.016,0.000,0.000,0.000,0.000
17904,0.7005,0.3673,0.3160,-0.0652,0.1188,0.0118,0.26,0.61,-16.89,0,3.632,-1.699,-1.420,-0.806,0.007,-0.015,0.000,0.000,0.000,0.000
17956,0.6958,0.3725,0.3166,-0.0738,0.1164,0.0093,0.17,0.66,-16.91,0,3.637,-1.471,1.225,-1.342,0.008,-0.016,0.000,0.000,0.000,0.000
18007,0.6918,0.3795,0.3170,-0.0795,0.1187,0.0068,0.21,0.55,-16.98,0,3.632,-1.349,1.963,-2.553,0.010,-0.017,0.000,0.000,0.000,0.000
18058,0.6886,0.3804,0.3155,-0.0827,0.1075,-0.0071,0.11,0.47,-17.10,0,3.637,-3.334,-0.208,-3.241,0.009,-0.013,0.000,0.000,0.000,0.000
18109,0.6844,0.3852,0.3151,-0.0868,0.1063,-0.0090,0.02,0.42,-17.27,0,3.626,-0.389,2.285,-4.411,0.005,-0.020,0.000,0.000,0.000,0.000
18160,0.6796,0.3902,0.3121,-0.0912,0.1063,-0.0225,0.05,0.35,-17.49,0,3.632,-0.147,-0.428,-4.627,0.011,-0.015,0.000,0.000,0.000,0.000
18211,0.6754,0.3925,0.3110,-0.0933,0.1002,-0.0216,-0.01,0.35,-17.70,0,3.621,-2.520,-2.941,-4.401,0.011,-0.014,0.000,0.000,0.000,0.000
18262,0.6730,0.3976,0.3102,-0.0913,0.1017,-0.0158,-0.14,0.45,-17.94,0,3.632,0.261,2.698,-4.200,0.008,-0.011,0.000,0.000,0.000,0.000
18312,0.6680,0.4020,0.3095,-0.0952,0.1026,-0.0120,-0.11,0.35,-18.16,0,3.626,2.009,-0.396,-4.215,0.005,-0.018,0.000,0.000,0.000,0.000
18363,0.6652,0.4049,0.3068,-0.0933,0.0995,-0.0196,-0.10,0.36,-18.37,0,3.632,1.707,1.777,-2.850,0.009,-0.012,0.000,0.000,0.000,0.000
18415,0.6609,0.4102,0.3059,-0.0948,0.1019,-0.0155,-0.14,0.34,-18.54,0,3.621,3.859,0.771,-2.425,0.009,-0.015,0.000,0.000,0.000,0.000
18465,0.6573,0.4157,0.3038,-0.0944,0.1046,-0.0185,0.06,0.27,-18.65,0,3.626,-1.973,-0.972,0.518,0.010,-0.015,0.000,0.000,0.000,0.000
18517,0.6536,0.4201,0.3030,-0.0942,0.1027,-0.0130,0.15,0.28,-18.66,0,3.621,1.484,-2.331,1.153,0.010,-0.012,0.000,0.000,0.000,0.000
18568,0.6500,0.4234,0.3039,-0.0941,0.0982,-0.0011,0.23,0.33,-18.63,0,3.632,2.949,-2.401,2.413,0.008,-0.010,0.000,0.000,0.000,0.000
18619,0.6438,0.4303,0.3039,-0.1006,0.1020,0.0032,0.31,0.42,-18.52,0,3.626,3.092,-0.194,2.487,0.011,-0.015,0.000,0.000,0.000,0.000
18670,0.6390,0.4341,0.3046,-0.1040,0.0977,0.0089,0.41,0.43,-18.39,0,3.632,1.939,-1.150,5.035,0.010,-0.010,0.000,0.000,0.000,0.000
18722,0.6336,0.4398,0.3051,-0.1089,0.0972,0.0119,0.50,0.42,-18.16,0,3.621,0.059,-0.887,4.706,0.011,-0.019,0.000,0.000,0.000,0.000
18773,0.6291,0.4441,0.3033,-0.1112,0.0930,0.0026,0.59,0.45,-17.92,0,3.632,0.642,-0.219,4.317,0.011,-0.013,0.000,0.000,0.000,0.000
18824,0.6249,0.4493,0.3025,-0.1131,0.0911,-0.0009,0.61,0.45,-17.68,0,3.621,3.958,0.299,5.470,0.013,-0.012,0.000,0.000,0.000,0.000
18875,0.6185,0.4518,0.3027,-0.1201,0.0828,0.0049,0.75,0.48,-17.42,0,3.626,1.017,1.911,4.672,0.007,-0.015,0.000,0.000,0.000,0.000
18926,0.6134,0.4565,0.3018,-0.1235,0.0793,0.0011,0.79,0.45,-17.20,0,3.621,-4.642,0.634,4.312,0.009,-0.012,0.000,0.000,0.000,0.000
18976,0.6094,0.4588,0.3011,-0.1234,0.0704,-0.0001,0.65,0.38,-16.99,0,3.626,-1.042,-1.874,3.276,0.008,-0.010,0.000,0.000,0.000,0.000
19027,0.6030,0.4621,0.3012,-0.1285,0.0658,0.0034,0.57,0.46,-16.81,0,3.616,1.819,-0.088,3.137,0.007,-0.014,0.000,0.000,0.000,0.000
19078,0.5959,0.4657,0.3007,-0.1350,0.0631,0.0026,0.55,0.48,-16.64,0,3.621,4.278,-0.299,3.357,0.010,-0.017,0.000,0.000,0.000,0.000
19129,0.5901,0.4689,0.3009,-0.1374,0.0598,0.0078,0.72,0.45,-16.47,0,3.616,1.338,3.739,2.527,0.013,-0.012,0.000,0.000,0.000,0.000
19181,0.5839,0.4715,0.3002,-0.1406,0.0542,0.0064,0.69,0.28,-16.33,0,3.626,4.351,-0.221,2.094,0.013,-0.013,0.000,0.000,0.000,0.000
19232,0.5768,0.4748,0.3006,-0.1446,0.0508,0.0109,0.76,0.26,-16.20,0,3.621,3.303,3.034,1.187,0.012,-0.011,0.000,0.000,0.000,0.000
19283,0.5712,0.4775,0.3038,-0.1442,0.0460,0.0267,0.78,0.15,-16.11,0,3.632,0.210,2.327,1.391,0.009,-0.013,0.000,0.000,0.000,0.000
19334,0.5647,0.4809,0.3053,-0.1452,0.0427,0.0300,0.82,0.09,-16.05,0,3.626,-1.519,0.237,1.018,0.011,-0.014,0.000,0.000,0.000,0.000
19385,0.5573,0.4831,0.3087,-0.1481,0.0370,0.0399,0.76,0.09,-16.00,0,3.632,0.170,0.238,1.142,0.009,-0.015,0.000,0.000,0.000,0.000
19436,0.5489,0.4855,0.3106,-0.1527,0.0325,0.0377,0.75,0.05,-15.95,0,3.621,1.064,1.242,-0.360,0.011,-0.016,0.000,0.000,0.000,0.000
19487,0.5436,0.4861,0.3093,-0.1491,0.0242,0.0200,0.80,-0.01,-15.95,0,3.632,-2.448,-0.033,-0.217,0.011,-0.011,0.000,0.000,0.000,0.000
19538,0.5351,0.4862,0.3102,-0.1533,0.0151,0.0160,0.71,-0.03,-15.97,0,3.621,-0.743,-0.565,0.686,0.007,-0.014,0.000,0.000,0.000,0.000
19589,0.5290,0.4865,0.3107,-0.1508,0.0086,0.0144,0.59,0.00,-15.94,0,3.632,-0.055,1.861,0.038,0.009,-0.011,0.000,0.000,0.000,0.000
19639,0.5235,0.4865,0.3114,-0.1470,0.0028,0.0122,0.53,-0.05,-15.92,0,3.626,-1.814,1.434,1.086,0.009,-0.012,0.000,0.000,0.000,0.000
19691,0.5154,0.4860,0.3133,-0.1495,-0.0031,0.0156,0.45,-0.09,-15.86,0,3.632,0.199,-0.443,1.444,0.013,-0.010,0.000,0.000,0.000,0.000
19742,0.5066,0.4863,0.3140,-0.1533,-0.0052,0.0125,0.40,-0.03,-15.78,0,3.621,-2.379,3.122,2.030,0.013,-0.012,0.000,0.000,0.000,0.000
19793,0.5006,0.4862,0.3140,-0.1497,-0.0084,0.0061,0.39,-0.09,-15.71,0,3.626,2.493,-0.874,0.585,0.010,-0.011,0.000,0.000,0.000,0.000
19843,0.4916,0.4853,0.3142,-0.1531,-0.0129,0.0026,0.48,-0.09,-15.69,0,3.616,0.232,-0.117,0.591,0.012,-0.015,0.000,0.000,0.000,0.000
19894,0.4847,0.4841,0.3122,-0.1517,-0.0181,-0.0072,0.50,-0.14,-15.66,0,3.626,-1.793,1.252,0.508,0.013,-0.015,0.000,0.000,0.000,0.000
19946,0.4787,0.4832,0.3119,-0.1476,-0.0225,-0.0068,0.50,-0.15,-15.63,0,3.621,-2.833,2.027,-0.511,0.012,-0.013,0.000,0.000,0.000,0.000
19996,0.4713,0.4819,0.3116,-0.1471,-0.0270,-0.0074,0.38,-0.15,-15.66,0,3.621,1.651,2.143,-1.894,0.009,-0.007,0.000,0.000,0.000,0.000
20047,0.4631,0.4828,0.3112,-0.1492,-0.0247,-0.0058,0.43,-0.21,-15.73,0,3.616,-1.491,1.367,-1.472,0.009,-0.013,0.000,0.000,0.000,0.000
20098,0.4574,0.4813,0.3087,-0.1441,-0.0290,-0.0148,0.47,-0.34,-15.81,0,3.621,-1.917,-0.575,-2.032,0.010,-0.009,0.000,0.000,0.000,0.000
20150,0.4510,0.4790,0.3080,-0.1403,-0.0354,-0.0127,0.38,-0.34,-15.93,0,3.611,1.489,-2.578,-1.700,0.007,-0.012,0.000,0.000,0.000,0.000
20201,0.4428,0.4765,0.3047,-0.1419,-0.0413,-0.0210,0.52,-0.18,-16.04,0,3.616,2.276,-0.491,-2.524,0.008,-0.012,0.000,0.000,0.000,0.000
20252,0.4381,0.4749,0.3038,-0.1355,-0.0448,-0.0170,0.46,-0.22,-16.16,0,3.611,-2.897,0.363,-2.130,0.009,-0.010,0.000,0.000,0.000,0.000
20302,0.4304,0.4733,0.3038,-0.1372,-0.0476,-0.0090,0.40,-0.23,-16.29,0,3.621,2.863,-0.404,-2.584,0.005,-0.009,0.000,0.000,0.000,0.000
20353,0.4254,0.4723,0.3035,-0.1317,-0.0481,-0.0035,0.50,-0.11,-16.43,0,3.616,1.553,-1.414,-3.115,0.007,-0.011,0.000,0.000,0.000,0.000
20404,0.4177,0.4681,0.3038,-0.1347,-0.0568,0.0024,0.56,-0.04,-16.56,0,3.621,-0.495,-3.180,-1.144,0.005,-0.009,0.000,0.000,0.000,0.000
20455,0.4126,0.4676,0.3041,-0.1321,-0.0558,0.0055,0.61,-0.00,-16.65,0,3.616,1.260,0.227,-1.131,0.008,-0.012,0.000,0.000,0.000,0.000
20507,0.4050,0.4643,0.3039,-0.1358,-0.0617,0.0061,0.67,0.01,-16.72,0,3.621,-4.301,-1.313,-1.007,0.006,-0.010,0.000,0.000,0.000,0.000
20558,0.3983,0.4616,0.3043,-0.1375,-0.0661,0.0079,0.63,0.08,-16.79,0,3.616,0.280,4.537,-0.805,0.008,-0.011,0.000,0.000,0.000,0.000
20608,0.3913,0.4588,0.3058,-0.1395,-0.0694,0.0139,0.65,-0.07,-16.83,0,3.621,1.211,7.370,-1.469,0.011,-0.009,0.000,0.000,0.000,0.000
20660,0.3835,0.4575,0.3065,-0.1417,-0.0699,0.0140,0.71,-0.39,-16.89,0,3.611,-1.376,1.546,-2.145,0.006,-0.009,0.000,0.000,0.000,0.000
20711,0.3756,0.4561,0.3053,-0.1420,-0.0712,0.0048,0.67,-0.60,-16.99,0,3.621,-1.814,-0.487,-3.187,0.007,-0.013,0.000,0.000,0.000,0.000
20761,0.3712,0.4504,0.3055,-0.1322,-0.0825,0.0056,0.53,-0.65,-17.11,0,3.616,1.981,1.016,-2.702,0.008,-0.012,0.000,0.000,0.000,0.000
20813,0.3623,0.4482,0.3046,-0.1334,-0.0836,-0.0002,0.59,-0.68,-17.26,0,3.621,-1.700,-1.689,-0.687,0.007,-0.014,0.000,0.000,0.000,0.000
20864,0.3557,0.4409,0.3043,-0.1293,-0.0968,-0.0009,0.50,-0.64,-17.34,0,3.611,-2.364,0.571,-2.636,0.006,-0.013,0.000,0.000,0.000,0.000
20914,0.3519,0.4321,0.3025,-0.1194,-0.1126,-0.0090,0.54,-0.64,-17.46,0,3.616,-4.611,-1.996,-2.922,0.004,-0.007,0.000,0.000,0.000,0.000
20965,0.3464,0.4287,0.3021,-0.1143,-0.1128,-0.0069,0.37,-0.60,-17.62,0,3.605,-0.292,-4.939,-3.424,0.004,-0.007,0.000,0.000,0.000,0.000
21016,0.3409,0.4248,0.2992,-0.1104,-0.1122,-0.0144,0.29,-0.39,-17.81,0,3.611,-1.073,0.554,-3.799,0.002,-0.012,0.000,0.000,0.000,0.000
21067,0.3351,0.4160,0.2986,-0.1090,-0.1228,-0.0094,0.26,-0.34,-17.99,0,3.605,-3.174,-0.229,-3.699,0.007,-0.008,0.000,0.000,0.000,0.000
21118,0.3295,0.4087,0.2979,-0.1072,-0.1283,-0.0057,0.14,-0.34,-18.20,0,3.616,-2.096,2.051,-5.242,0.003,-0.009,0.000,0.000,0.000,0.000
21169,0.3250,0.4024,0.2978,-0.1026,-0.1303,0.0000,0.01,-0.37,-18.42,0,3.605,0.124,1.729,-5.126,0.004,-0.009,0.000,0.000,0.000,0.000
21221,0.3197,0.3976,0.3000,-0.0998,-0.1273,0.0144,-0.07,-0.45,-18.63,0,3.616,0.646,0.106,-3.954,0.005,-0.012,0.000,0.000,0.000,0.000
21271,0.3150,0.3916,0.3000,-0.0954,-0.1266,0.0134,-0.08,-0.50,-18.86,0,3.611,3.490,1.537,-3.943,0.004,-0.011,0.000,0.000,0.000,0.000
21323,0.3107,0.3831,0.3009,-0.0902,-0.1329,0.0156,-0.08,-0.43,-19.07,0,3.616,0.791,2.081,-2.372,0.006,-0.009,0.000,0.000,0.000,0.000
21374,0.3065,0.3809,0.3017,-0.0862,-0.1230,0.0160,-0.01,-0.44,-19.22,0,3.611,1.614,2.037,-1.813,0.004,-0.006,0.000,0.000,0.000,0.000
21424,0.3012,0.3742,0.3018,-0.0851,-0.1250,0.0127,0.02,-0.46,-19.33,0,3.616,0.927,-0.276,-1.785,0.007,-0.012,0.000,0.000,0.000,0.000
21476,0.2969,0.3688,0.3024,-0.0819,-0.1244,0.0125,0.08,-0.48,-19.40,0,3.605,1.906,2.353,0.168,0.003,-0.010,0.000,0.000,0.000,0.000
21527,0.2931,0.3618,0.3022,-0.0779,-0.1283,0.0083,0.18,-0.56,-19.43,0,3.616,2.851,0.523,-0.131,0.003,-0.010,0.000,0.000,0.000,0.000
21578,0.2880,0.3563,0.3027,-0.0769,-0.1287,0.0086,0.24,-0.57,-19.46,0,3.611,-0.013,2.139,-0.523,0.003,-0.008,0.000,0.000,0.000,0.000
21628,0.2850,0.3484,0.3018,-0.0713,-0.1360,0.0031,0.27,-0.63,-19.48,0,3.611,2.068,1.016,-0.255,0.007,-0.012,0.000,0.000,0.000,0.000
21680,0.2815,0.3450,0.3020,-0.0669,-0.1317,0.0040,0.28,-0.71,-19.50,0,3.605,1.119,-1.023,-0.397,0.002,-0.007,0.000,0.000,0.000,0.000
21731,0.2772,0.3374,0.3038,-0.0644,-0.1377,0.0132,0.27,-0.65,-19.50,0,3.616,0.002,1.035,0.163,0.003,-0.010,0.000,0.000,0.000,0.000
21782,0.2737,0.3334,0.3044,-0.0610,-0.1344,0.0133,0.24,-0.64,-19.50,0,3.605,-1.953,2.178,0.301,0.004,-0.014,0.000,0.000,0.000,0.000
21832,0.2696,0.3301,0.3041,-0.0593,-0.1296,0.0098,0.19,-0.71,-19.48,0,3.616,2.147,-0.986,1.763,0.003,-0.009,0.000,0.000,0.000,0.000
21884,0.2655,0.3235,0.3046,-0.0572,-0.1328,0.0108,0.16,-0.68,-19.42,0,3.611,-1.084,-0.326,2.793,0.004,-0.010,0.000,0.000,0.000,0.000
21935,0.2617,0.3172,0.3043,-0.0547,-0.1351,0.0052,0.14,-0.62,-19.30,0,3.611,-0.641,-1.474,3.595,0.002,-0.010,0.000,0.000,0.000,0.000
21985,0.2582,0.3113,0.3046,-0.0521,-0.1359,0.0048,0.16,-0.63,-19.15,0,3.605,-4.979,-0.448,4.084,0.003,-0.013,0.000,0.000,0.000,0.000
22036,0.2559,0.3051,0.3021,-0.0469,-0.1373,-0.0077,0.00,-0.59,-18.95,0,3.611,-0.163,0.497,4.934,0.003,-0.007,0.000,0.000,0.000,0.000
22088,0.2520,0.2981,0.3014,-0.0462,-0.1389,-0.0067,-0.05,-0.58,-18.70,0,3.605,2.311,1.119,5.332,-0.002,-0.009,0.000,0.000,0.000,0.000
22139,0.2490,0.2907,0.3002,-0.0434,-0.1417,-0.0078,0.05,-0.63,-18.43,0,3.611,0.810,0.285,6.576,0.004,-0.009,0.000,0.000,0.000,0.000
22189,0.2465,0.2821,0.3013,-0.0392,-0.1472,0.0031,0.06,-0.67,-18.09,0,3.605,-2.436,-0.655,8.526,0.000,-0.010,0.000,0.000,0.000,0.000
22241,0.2449,0.2773,0.3005,-0.0332,-0.1430,0.0014,-0.03,-0.67,-17.70,0,3.611,-1.447,1.808,7.739,-0.000,-0.010,0.000,0.000,0.000,0.000
22292,0.2429,0.2700,0.3006,-0.0307,-0.1480,0.0031,-0.14,-0.76,-17.32,0,3.605,-4.170,2.228,7.872,-0.000,-0.008,0.000,0.000,0.000,0.000
22343,0.2405,0.2642,0.2995,-0.0266,-0.1450,-0.0015,-0.32,-0.86,-16.93,0,3.611,-5.462,0.196,7.523,0.001,-0.010,0.000,0.000,0.000,0.000
22394,0.2379,0.2577,0.2996,-0.0221,-0.1428,0.0024,-0.38,-0.91,-16.57,0,3.605,-0.768,1.827,6.600,0.003,-0.012,0.000,0.000,0.000,0.000
22445,0.2367,0.2502,0.2990,-0.0145,-0.1423,0.0030,-0.39,-0.96,-16.26,0,3.611,1.787,-0.788,5.351,0.001,-0.009,0.000,0.000,0.000,0.000
22495,0.2365,0.2417,0.2992,-0.0051,-0.1450,0.0063,-0.31,-0.95,-15.99,0,3.605,1.116,-2.059,6.640,0.002,-0.010,0.000,0.000,0.000,0.000
22546,0.2363,0.2375,0.2999,0.0030,-0.1374,0.0097,-0.34,-0.89,-15.65,0,3.611,-0.033,-0.963,7.127,-0.000,-0.011,0.000,0.000,0.000,0.000
22597,0.2361,0.2312,0.3004,0.0101,-0.1353,0.0118,-0.31,-0.86,-15.31,0,3.605,2.136,-0.100,6.949,-0.000,-0.011,0.000,0.000,0.000,0.000
22649,0.2363,0.2250,0.2995,0.0170,-0.1331,0.0046,-0.13,-0.85,-14.92,0,3.611,-0.477,-2.594,6.528,0.007,-0.014,0.000,0.000,0.000,0.000
22699,0.2372,0.2157,0.2997,0.0239,-0.1394,0.0050,-0.14,-0.74,-14.58,0,3.600,-4.304,-1.921,6.467,-0.000,-0.011,0.000,0.000,0.000,0.000
22750,0.2396,0.2083,0.2994,0.0328,-0.1406,0.0031,-0.28,-0.64,-14.26,0,3.605,-0.622,0.185,7.060,-0.000,-0.013,0.000,0.000,0.000,0.000
22802,0.2394,0.2017,0.2996,0.0343,-0.1388,0.0059,-0.35,-0.64,-13.91,0,3.605,-4.695,-0.271,6.447,0.001,-0.008,0.000,0.000,0.000,0.000
22853,0.2414,0.1971,0.2993,0.0405,-0.1320,0.0041,-0.51,-0.58,-13.58,0,3.605,-0.143,-1.225,5.498,-0.001,-0.008,0.000,0.000,0.000,0.000
22904,0.2413,0.1898,0.2995,0.0411,-0.1311,0.0061,-0.54,-0.59,-13.31,0,3.600,-2.195,1.783,3.949,-0.001,-0.008,0.000,0.000,0.000,0.000
22954,0.2446,0.1835,0.2989,0.0497,-0.1274,0.0027,-0.58,-0.62,-13.11,0,3.605,0.007,1.372,2.777,-0.003,-0.003,0.000,0.000,0.000,0.000
23005,0.2463,0.1790,0.2991,0.0537,-0.1199,0.0047,-0.64,-0.73,-12.95,0,3.600,1.349,2.144,1.354,-0.002,-0.009,0.000,0.000,0.000,0.000
23057,0.2508,0.1683,0.2996,0.0645,-0.1263,0.0077,-0.69,-0.85,-12.88,0,3.605,-3.737,-2.762,0.103,-0.000,-0.009,0.000,0.000,0.000,0.000
23107,0.2549,0.1635,0.3000,0.0742,-0.1186,0.0099,-0.87,-0.73,-12.86,0,3.600,3.303,-4.494,-0.942,-0.003,-0.009,0.000,0.000,0.000,0.000
23159,0.2580,0.1629,0.2985,0.0799,-0.1013,0.0010,-0.81,-0.55,-12.90,0,3.605,5.412,2.077,-4.369,0.000,-0.012,0.000,0.000,0.000,0.000
23210,0.2642,0.1611,0.2986,0.0904,-0.0886,0.0022,-0.59,-0.53,-13.08,0,3.595,3.623,-1.460,-6.387,0.000,-0.011,0.000,0.000,0.000,0.000
23260,0.2657,0.1625,0.2979,0.0890,-0.0723,0.0006,-0.31,-0.45,-13.41,0,3.605,7.824,-2.029,-11.963,-0.001,-0.009,0.000,0.000,0.000,0.000
23312,0.2717,0.1624,0.2980,0.0966,-0.0629,0.0030,0.01,-0.38,-13.95,0,3.595,6.067,1.628,-15.506,-0.003,-0.011,0.000,0.000,0.000,0.000
23363,0.2756,0.1626,0.2968,0.0976,-0.0563,0.0013,0.23,-0.41,-14.71,0,3.600,3.866,2.248,-17.296,0.000,-0.008,0.000,0.000,0.000,0.000
23413,0.2789,0.1618,0.2971,0.0968,-0.0543,0.0083,0.36,-0.46,-15.57,0,3.595,6.781,0.484,-18.656,-0.003,-0.006,0.000,0.000,0.000,0.000
23464,0.2842,0.1613,0.2973,0.1003,-0.0533,0.0139,0.59,-0.49,-16.49,0,3.600,-0.767,5.943,-18.783,-0.002,-0.007,0.000,0.000,0.000,0.000
23516,0.2876,0.1603,0.2982,0.0994,-0.0555,0.0204,0.69,-0.70,-17.47,0,3.600,3.294,2.437,-18.156,-0.001,-0.007,0.000,0.000,0.000,0.000
23567,0.2936,0.1587,0.2988,0.1048,-0.0600,0.0226,0.68,-0.82,-18.37,0,3.605,-3.142,-3.905,-14.294,-0.002,-0.003,0.000,0.000,0.000,0.000
23617,0.2995,0.1561,0.3001,0.1109,-0.0666,0.0260,0.59,-0.74,-19.12,0,3.600,-1.470,3.069,-11.348,-0.002,-0.003,0.000,0.000,0.000,0.000
23668,0.3058,0.1550,0.3024,0.1168,-0.0682,0.0290,0.58,-0.83,-19.69,0,3.611,-2.253,-3.193,-6.408,-0.005,-0.006,0.000,0.000,0.000,0.000
23720,0.3104,0.1549,0.3038,0.1180,-0.0667,0.0249,0.71,-0.66,-20.08,0,3.605,-3.481,-0.995,-4.524,-0.001,-0.007,0.000,0.000,0.000,0.000
23771,0.3177,0.1504,0.3050,0.1240,-0.0760,0.0193,0.54,-0.57,-20.29,0,3.605,-0.070,-2.227,-2.508,-0.001,-0.006,0.000,0.000,0.000,0.000
23822,0.3256,0.1434,0.3058,0.1304,-0.0889,0.0142,0.43,-0.46,-20.40,0,3.600,2.493,-3.427,-1.313,0.002,-0.005,0.000,0.000,0.000,0.000
23872,0.3338,0.1386,0.3041,0.1368,-0.0950,-0.0022,0.46,-0.30,-20.45,0,3.605,-7.163,-0.911,-0.114,-0.001,-0.004,0.000,0.000,0.000,0.000
23923,0.3394,0.1347,0.3039,0.1359,-0.0974,-0.0053,0.18,-0.25,-20.46,0,3.595,-5.951,-0.478,0.638,0.002,-0.003,0.000,0.000,0.000,0.000
23975,0.3442,0.1308,0.3017,0.1327,-0.0974,-0.0138,-0.04,-0.29,-20.45,0,3.600,6.128,-0.773,0.532,-0.001,0.003,0.000,0.000,0.000,0.000
24026,0.3527,0.1248,0.3010,0.1382,-0.1001,-0.0103,-0.02,-0.21,-20.38,0,3.595,4.828,-3.416,1.437,-0.002,-0.007,0.000,0.000,0.000,0.000
24077,0.3589,0.1227,0.3012,0.1385,-0.0939,-0.0031,0.02,-0.05,-20.31,0,3.600,-1.669,0.460,0.078,-0.001,-0.009,0.000,0.000,0.000,0.000
24128,0.3638,0.1199,0.3012,0.1344,-0.0899,0.0005,-0.15,-0.03,-20.28,0,3.595,-5.182,-3.300,0.659,-0.000,-0.004,0.000,0.000,0.000,0.000
24179,0.3678,0.1178,0.3025,0.1285,-0.0831,0.0090,-0.28,0.02,-20.30,0,3.605,3.104,-1.896,-0.475,-0.002,-0.002,0.000,0.000,0.000,0.000
24230,0.3752,0.1130,0.3030,0.1313,-0.0826,0.0127,-0.13,0.05,-20.33,0,3.595,0.032,1.708,-0.686,-0.002,-0.006,0.000,0.000,0.000,0.000
24281,0.3810,0.1104,0.3020,0.1298,-0.0779,0.0068,-0.16,-0.02,-20.36,0,3.600,-3.190,3.603,-0.068,-0.003,-0.006,0.000,0.000,0.000,0.000
24332,0.3867,0.1059,0.3023,0.1288,-0.0789,0.0083,-0.17,-0.17,-20.37,0,3.595,-0.345,5.156,-1.385,-0.005,-0.009,0.000,0.000,0.000,0.000
24383,0.3920,0.1048,0.3036,0.1280,-0.0717,0.0149,-0.31,-0.36,-20.40,0,3.600,6.450,1.894,-3.084,-0.002,-0.006,0.000,0.000,0.000,0.000
24434,0.3981,0.1014,0.3044,0.1311,-0.0699,0.0175,-0.20,-0.48,-20.50,0,3.595,6.166,-1.598,-3.325,-0.001,-0.010,0.000,0.000,0.000,0.000
24485,0.4086,0.0964,0.3034,0.1445,-0.0735,0.0085,-0.04,-0.40,-20.63,0,3.600,-0.116,-6.255,-3.098,-0.003,-0.009,0.000,0.000,0.000,0.000
24536,0.4162,0.0931,0.3022,0.1481,-0.0732,0.0003,-0.13,-0.27,-20.80,0,3.589,-2.036,-3.648,-3.349,-0.002,-0.009,0.000,0.000,0.000,0.000
24587,0.4260,0.0874,0.3026,0.1560,-0.0777,0.0047,-0.23,-0.09,-20.94,0,3.600,-3.327,-6.770,-2.217,-0.000,-0.010,0.000,0.000,0.000,0.000
24638,0.4316,0.0833,0.3029,0.1513,-0.0763,0.0078,-0.23,0.29,-21.06,0,3.595,-2.167,1.070,-2.945,-0.003,-0.007,0.000,0.000,0.000,0.000
24689,0.4404,0.0775,0.3020,0.1532,-0.0786,0.0030,-0.36,0.24,-21.21,0,3.600,-3.635,-0.440,-4.156,0.001,-0.007,0.000,0.000,0.000,0.000
24740,0.4454,0.0743,0.3022,0.1462,-0.0733,0.0076,-0.48,0.23,-21.40,0,3.595,1.511,-5.695,-4.839,0.000,-0.007,0.000,0.000,0.000,0.000
24791,0.4510,0.0705,0.3052,0.1413,-0.0689,0.0231,-0.53,0.56,-21.60,0,3.600,-3.507,2.735,-4.002,-0.003,-0.009,0.000,0.000,0.000,0.000
24841,0.4584,0.0668,0.3064,0.1396,-0.0633,0.0258,-0.77,0.64,-21.78,0,3.595,1.060,2.865,-3.606,0.001,-0.009,0.000,0.000,0.000,0.000
24892,0.4607,0.0655,0.3056,0.1265,-0.0513,0.0173,-0.74,0.43,-21.99,0,3.600,1.949,4.581,-3.655,-0.003,-0.007,0.000,0.000,0.000,0.000
24943,0.4701,0.0571,0.3064,0.1327,-0.0578,0.0178,-0.73,0.20,-22.19,0,3.595,-4.109,-3.199,-2.466,-0.001,-0.015,0.000,0.000,0.000,0.000
24995,0.4771,0.0536,0.3049,0.1342,-0.0528,0.0069,-0.78,0.25,-22.36,0,3.595,-5.613,1.614,-0.801,0.001,-0.012,0.000,0.000,0.000,0.000
25046,0.4831,0.0503,0.3053,0.1332,-0.0472,0.0081,-0.91,0.30,-22.43,0,3.589,-0.645,1.581,0.499,0.002,-0.013,0.000,0.000,0.000,0.000
25097,0.4896,0.0469,0.3043,0.1332,-0.0418,0.0038,-0.91,0.23,-22.45,0,3.600,0.556,1.896,0.929,0.001,-0.017,0.000,0.000,0.000,0.000
25148,0.4987,0.0430,0.3045,0.1399,-0.0389,0.0070,-0.77,0.11,-22.43,0,3.589,-0.522,-3.833,1.976,-0.001,-0.010,0.000,0.000,0.000,0.000
25199,0.5043,0.0447,0.3042,0.1379,-0.0236,0.0075,-0.79,0.20,-22.36,0,3.595,6.387,-1.578,0.978,0.002,-0.009,0.000,0.000,0.000,0.000
25250,0.5132,0.0381,0.3047,0.1428,-0.0291,0.0113,-0.66,0.30,-22.29,0,3.595,-1.436,-3.714,2.302,-0.000,-0.010,0.000,0.000,0.000,0.000
25301,0.5199,0.0358,0.3055,0.1407,-0.0250,0.0165,-0.69,0.52,-22.17,0,3.600,-2.043,1.295,3.625,-0.001,-0.017,0.000,0.000,0.000,0.000
25352,0.5280,0.0324,0.3064,0.1418,-0.0230,0.0190,-0.80,0.51,-22.00,0,3.595,1.220,2.370,4.341,-0.002,-0.011,0.000,0.000,0.000,0.000
25402,0.5340,0.0306,0.3089,0.1384,-0.0173,0.0254,-0.81,0.42,-21.79,0,3.605,-1.642,1.604,5.997,0.002,-0.012,0.000,0.000,0.000,0.000
25454,0.5422,0.0304,0.3102,0.1410,-0.0089,0.0250,-0.86,0.30,-21.49,0,3.595,-2.305,-2.112,6.955,0.000,-0.014,0.000,0.000,0.000,0.000
25505,0.5461,0.0298,0.3107,0.1340,-0.0018,0.0188,-0.85,0.32,-21.16,0,3.600,-4.168,-1.585,6.769,-0.001,-0.019,0.000,0.000,0.000,0.000
25556,0.5533,0.0263,0.3116,0.1348,-0.0016,0.0153,-1.00,0.45,-20.81,0,3.595,-1.728,1.023,6.528,0.004,-0.019,0.000,0.000,0.000,0.000
25607,0.5610,0.0220,0.3087,0.1366,-0.0025,-0.0037,-1.06,0.41,-20.47,0,3.595,0.202,0.619,5.576,0.002,-0.017,0.000,0.000,0.000,0.000
25658,0.5654,0.0246,0.3084,0.1308,0.0128,-0.0055,-1.07,0.37,-20.16,0,3.595,0.488,2.277,5.260,0.003,-0.018,0.000,0.000,0.000,0.000
25709,0.5761,0.0213,0.3082,0.1403,0.0131,-0.0058,-1.11,0.33,-19.88,0,3.595,2.617,-2.484,5.189,0.000,-0.021,0.000,0.000,0.000,0.000
25760,0.5839,0.0207,0.3080,0.1427,0.0190,-0.0059,-0.97,0.38,-19.58,0,3.595,0.497,-3.502,6.463,0.003,-0.020,0.000,0.000,0.000,0.000
25811,0.5866,0.0218,0.3074,0.1317,0.0280,-0.0072,-0.90,0.61,-19.30,0,3.595,2.242,-1.506,5.496,0.005,-0.019,0.000,0.000,0.000,0.000
25862,0.5941,0.0215,0.3070,0.1312,0.0327,-0.0073,-0.85,0.66,-19.00,0,3.589,-0.564,0.569,6.184,0.005,-0.023,0.000,0.000,0.000,0.000
25912,0.5990,0.0202,0.3049,0.1240,0.0343,-0.0159,-0.80,0.73,-18.72,0,3.595,-2.699,2.097,5.569,0.006,-0.020,0.000,0.000,0.000,0.000
25963,0.6037,0.0224,0.3023,0.1172,0.0432,-0.0249,-0.92,0.78,-18.45,0,3.584,-1.343,-0.160,4.048,0.006,-0.015,0.000,0.000,0.000,0.000
26014,0.6089,0.0246,0.3027,0.1123,0.0524,-0.0150,-0.97,0.75,-18.24,0,3.595,4.361,1.829,0.797,0.004,-0.024,0.000,0.000,0.000,0.000
26065,0.6139,0.0265,0.3020,0.1076,0.0596,-0.0134,-0.77,0.64,-18.17,0,3.584,1.133,2.846,-1.829,0.003,-0.022,0.000,0.000,0.000,0.000
26117,0.6209,0.0305,0.3008,0.1081,0.0694,-0.0142,-0.67,0.49,-18.22,0,3.589,1.544,0.626,-3.305,0.005,-0.020,0.000,0.000,0.000,0.000
26167,0.6260,0.0319,0.3002,0.1053,0.0712,-0.0120,-0.67,0.48,-18.38,0,3.584,-0.115,-0.255,-3.615,0.006,-0.022,0.000,0.000,0.000,0.000
26219,0.6287,0.0383,0.2985,0.0974,0.0838,-0.0156,-0.61,0.50,-18.58,0,3.589,2.664,3.780,-4.630,0.003,-0.022,0.000,0.000,0.000,0.000
26269,0.6334,0.0403,0.2978,0.0945,0.0846,-0.0130,-0.55,0.41,-18.80,0,3.584,-2.821,-1.451,-3.986,0.003,-0.018,0.000,0.000,0.000,0.000
26321,0.6375,0.0443,0.2986,0.0916,0.0895,-0.0044,-0.52,0.43,-19.04,0,3.595,3.249,-0.601,-4.161,0.008,-0.020,0.000,0.000,0.000,0.000
26372,0.6394,0.0475,0.2985,0.0832,0.0916,-0.0025,-0.43,0.47,-19.26,0,3.584,-0.726,2.409,-3.278,0.003,-0.016,0.000,0.000,0.000,0.000
26423,0.6433,0.0500,0.2972,0.0803,0.0915,-0.0083,-0.51,0.37,-19.45,0,3.589,-1.133,2.209,-3.879,0.001,-0.022,0.000,0.000,0.000,0.000
26473,0.6465,0.0548,0.2968,0.0773,0.0967,-0.0075,-0.51,0.26,-19.64,0,3.584,-1.848,0.111,-3.107,0.008,-0.018,0.000,0.000,0.000,0.000
26525,0.6504,0.0583,0.2967,0.0767,0.0985,-0.0058,-0.66,0.28,-19.79,0,3.589,-2.294,-1.000,-1.723,0.002,-0.016,0.000,0.000,0.000,0.000
26576,0.6562,0.0625,0.2965,0.0814,0.1027,-0.0046,-0.75,0.29,-19.89,0,3.584,2.381,0.900,-1.394,0.005,-0.017,0.000,0.000,0.000,0.000
26626,0.6579,0.0672,0.2930,0.0760,0.1081,-0.0190,-0.66,0.29,-19.97,0,3.589,-0.794,-0.161,-0.028,0.008,-0.022,0.000,0.000,0.000,0.000
26677,0.6620,0.0736,0.2921,0.0764,0.1162,-0.0176,-0.60,0.24,-20.01,0,3.579,0.721,-0.625,0.557,0.005,-0.021,0.000,0.000,0.000,0.000
26729,0.6644,0.0749,0.2909,0.0729,0.1110,-0.0182,-0.56,0.26,-19.98,0,3.584,-0.450,-0.252,1.001,0.006,-0.027,0.000,0.000,0.000,0.000
26780,0.6689,0.0777,0.2905,0.0745,0.1093,-0.0111,-0.48,0.25,-19.92,0,3.584,-0.069,-1.849,1.925,0.004,-0.023,0.000,0.000,0.000,0.000
26831,0.6704,0.0828,0.2892,0.0687,0.1127,-0.0108,-0.56,0.27,-19.80,0,3.584,0.834,-1.204,2.778,0.006,-0.022,0.000,0.000,0.000,0.000
26882,0.6754,0.0896,0.2902,0.0717,0.1204,0.0034,-0.61,0.26,-19.65,0,3.584,1.298,0.815,3.153,0.006,-0.027,0.000,0.000,0.000,0.000
26933,0.6786,0.0915,0.2886,0.0722,0.1178,-0.0015,-0.52,0.15,-19.49,0,3.584,-0.759,-0.056,4.483,0.004,-0.023,0.000,0.000,0.000,0.000
26983,0.6836,0.0960,0.2887,0.0757,0.1184,0.0049,-0.40,0.12,-19.30,0,3.579,-0.936,-1.489,4.689,0.006,-0.026,0.000,0.000,0.000,0.000
27034,0.6867,0.1017,0.2871,0.0741,0.1217,0.0018,-0.41,0.15,-19.06,0,3.579,-3.409,-1.764,6.341,0.005,-0.020,0.000,0.000,0.000,0.000
27086,0.6896,0.1043,0.2874,0.0720,0.1171,0.0101,-0.46,0.25,-18.77,0,3.579,-1.799,-3.443,8.149,0.007,-0.022,0.000,0.000,0.000,0.000
27136,0.6942,0.1076,0.2874,0.0738,0.1147,0.0143,-0.47,0.34,-18.42,0,3.584,0.870,-5.289,7.353,0.010,-0.023,0.000,0.000,0.000,0.000
27188,0.6949,0.1133,0.2883,0.0652,0.1182,0.0203,-0.37,0.51,-18.05,0,3.579,-1.668,-0.704,8.153,0.007,-0.024,0.000,0.000,0.000,0.000
27239,0.6994,0.1204,0.2880,0.0656,0.1255,0.0195,-0.54,0.52,-17.61,0,3.584,4.150,-0.506,7.501,0.008,-0.022,0.000,0.000,0.000,0.000
27289,0.7026,0.1246,0.2892,0.0622,0.1258,0.0258,-0.56,0.59,-17.16,0,3.584,4.088,-3.153,4.328,0.008,-0.026,0.000,0.000,0.000,0.000
27341,0.7058,0.1319,0.2934,0.0594,0.1342,0.0434,-0.39,0.72,-16.90,0,3.589,-1.388,-3.103,3.056,0.005,-0.020,0.000,0.000,0.000,0.000
27392,0.7095,0.1319,0.2957,0.0565,0.1224,0.0456,-0.46,0.91,-16.73,0,3.589,1.381,-0.557,1.633,0.008,-0.026,0.000,0.000,0.000,0.000
27443,0.7115,0.1392,0.2973,0.0486,0.1310,0.0422,-0.42,0.99,-16.61,0,3.589,-0.103,-0.949,1.621,0.012,-0.020,0.000,0.000,0.000,0.000
27493,0.7135,0.1420,0.2994,0.0408,0.1273,0.0403,-0.37,1.01,-16.52,0,3.584,-1.637,0.091,1.901,0.008,-0.025,0.000,0.000,0.000,0.000
27545,0.7164,0.1491,0.3002,0.0361,0.1343,0.0335,-0.41,0.96,-16.43,0,3.589,0.675,-0.895,1.541,0.008,-0.025,0.000,0.000,0.000,0.000
27595,0.7197,0.1511,0.3018,0.0337,0.1275,0.0306,-0.41,0.93,-16.35,0,3.584,-3.463,-1.734,2.427,0.009,-0.025,0.000,0.000,0.000,0.000
27646,0.7225,0.1593,0.3003,0.0301,0.1373,0.0143,-0.51,1.02,-16.24,0,3.589,-0.458,-0.146,1.873,0.012,-0.023,0.000,0.000,0.000,0.000
27698,0.7235,0.1643,0.3010,0.0222,0.1390,0.0109,-0.46,1.03,-16.18,0,3.584,1.722,-1.458,0.991,0.007,-0.023,0.000,0.000,0.000,0.000
27749,0.7263,0.1725,0.3020,0.0195,0.1485,0.0103,-0.44,1.06,-16.12,0,3.589,-0.161,0.033,-0.169,0.006,-0.025,0.000,0.000,0.000,0.000
27799,0.7273,0.1766,0.3019,0.0120,0.1458,0.0053,-0.38,1.11,-16.14,0,3.584,3.554,-0.197,-1.759,0.007,-0.023,0.000,0.000,0.000,0.000
27851,0.7289,0.1823,0.3021,0.0069,0.1472,0.0037,-0.22,1.04,-16.24,0,3.584,3.708,3.062,-4.088,0.010,-0.019,0.000,0.000,0.000,0.000
27902,0.7294,0.1893,0.3023,-0.0001,0.1503,0.0050,-0.08,0.93,-16.39,0,3.584,1.014,0.413,-3.010,0.010,-0.027,0.000,0.000,0.000,0.000
27953,0.7301,0.1955,0.3035,-0.0054,0.1499,0.0111,-0.08,0.86,-16.55,0,3.584,1.951,1.086,-3.209,0.009,-0.026,0.000,0.000,0.000,0.000
28003,0.7318,0.2015,0.3041,-0.0072,0.1486,0.0115,0.04,0.79,-16.70,0,3.584,0.242,0.192,-1.988,0.010,-0.024,0.000,0.000,0.000,0.000
28055,0.7315,0.2076,0.3024,-0.0131,0.1469,-0.0003,-0.01,0.77,-16.78,0,3.584,1.783,-0.388,-0.366,0.010,-0.026,0.000,0.000,0.000,0.000
28106,0.7324,0.2169,0.3023,-0.0154,0.1533,-0.0013,0.04,0.85,-16.82,0,3.579,2.664,2.555,-2.235,0.011,-0.023,0.000,0.000,0.000,0.000
28157,0.7330,0.2218,0.3017,-0.0181,0.1478,-0.0042,0.15,0.79,-16.90,0,3.584,-0.422,0.736,-2.030,0.011,-0.022,0.000,0.000,0.000,0.000
28207,0.7323,0.2285,0.3015,-0.0239,0.1468,-0.0041,0.19,0.73,-17.00,0,3.579,-0.644,-2.570,-4.356,0.009,-0.024,0.000,0.000,0.000,0.000
28259,0.7308,0.2352,0.3010,-0.0310,0.1452,-0.0042,0.07,0.83,-17.19,0,3.579,1.414,-0.706,-5.791,0.005,-0.024,0.000,0.000,0.000,0.000
28310,0.7294,0.2434,0.3018,-0.0374,0.1489,0.0035,-0.05,0.83,-17.44,0,3.579,0.174,3.250,-6.747,0.005,-0.020,0.000,0.000,0.000,0.000
28360,0.7274,0.2493,0.3024,-0.0440,0.1476,0.0077,-0.09,0.65,-17.74,0,3.584,-1.081,3.196,-5.615,0.010,-0.018,0.000,0.000,0.000,0.000
28411,0.7220,0.2634,0.3028,-0.0567,0.1662,0.0088,-0.19,0.58,-18.00,0,3.579,-1.572,0.075,-5.708,0.006,-0.019,0.000,0.000,0.000,0.000
28463,0.7203,0.2691,0.3025,-0.0582,0.1633,0.0069,-0.19,0.51,-18.30,0,3.584,3.705,1.768,-5.682,0.005,-0.020,0.000,0.000,0.000,0.000
28514,0.7154,0.2807,0.3028,-0.0663,0.1742,0.0074,-0.08,0.43,-18.61,0,3.574,-0.875,3.204,-6.125,0.008,-0.016,0.000,0.000,0.000,0.000
28565,0.7149,0.2847,0.2991,-0.0630,0.1657,-0.0116,-0.06,0.25,-18.97,0,3.579,2.117,4.538,-6.666,0.014,-0.018,0.000,0.000,0.000,0.000
28615,0.7106,0.2932,0.2985,-0.0675,0.1673,-0.0095,0.05,-0.00,-19.32,0,3.574,1.036,0.813,-6.780,0.011,-0.016,0.000,0.000,0.000,0.000
28666,0.7110,0.2966,0.2983,-0.0594,0.1560,-0.0049,0.18,-0.16,-19.67,0,3.579,0.699,-2.016,-6.228,0.007,-0.013,0.000,0.000,0.000,0.000
28717,0.7102,0.3034,0.2982,-0.0539,0.1517,0.0001,0.22,-0.11,-19.97,0,3.574,-5.028,-4.443,-5.377,0.007,-0.017,0.000,0.000,0.000,0.000
28768,0.7084,0.3080,0.2953,-0.0517,0.1434,-0.0090,0.03,0.01,-20.27,0,3.579,-2.404,-5.901,-4.715,0.009,-0.011,0.000,0.000,0.000,0.000
28820,0.7073,0.3129,0.2950,-0.0485,0.1380,-0.0025,-0.05,0.17,-20.53,0,3.568,-3.382,-2.834,-5.091,0.016,-0.014,0.000,0.000,0.000,0.000
28870,0.7068,0.3200,0.2958,-0.0455,0.1395,0.0074,-0.19,0.34,-20.78,0,3.579,-0.065,-6.326,-2.613,0.014,-0.009,0.000,0.000,0.000,0.000
28922,0.7035,0.3289,0.2963,-0.0497,0.1461,0.0149,-0.22,0.55,-20.93,0,3.579,0.011,-2.074,-0.706,0.010,-0.013,0.000,0.000,0.000,0.000
28973,0.7042,0.3339,0.2987,-0.0464,0.1443,0.0281,-0.13,0.60,-20.99,0,3.584,7.767,1.042,-0.539,0.013,-0.011,0.000,0.000,0.000,0.000
29023,0.7041,0.3411,0.3002,-0.0457,0.1467,0.0327,0.16,0.53,-20.98,0,3.579,7.206,-2.412,2.485,0.012,-0.014,0.000,0.000,0.000,0.000
29075,0.7013,0.3474,0.3003,-0.0515,0.1447,0.0271,0.57,0.68,-20.90,0,3.584,-0.216,-1.041,3.292,0.009,-0.009,0.000,0.000,0.000,0.000
29125,0.7014,0.3531,0.3017,-0.0523,0.1388,0.0280,0.63,0.74,-20.74,0,3.579,3.302,-3.002,5.567,0.009,-0.015,0.000,0.000,0.000,0.000
29177,0.7009,0.3640,0.3006,-0.0549,0.1443,0.0140,0.81,0.81,-20.51,0,3.579,6.198,-4.311,8.210,0.009,-0.013,0.000,0.000,0.000,0.000
29227,0.6998,0.3691,0.2986,-0.0595,0.1358,-0.0002,1.13,0.95,-20.12,0,3.574,3.584,3.361,9.977,0.014,-0.014,0.000,0.000,0.000,0.000
29279,0.6980,0.3748,0.3009,-0.0670,0.1276,0.0124,1.27,0.90,-19.72,0,3.579,2.268,-1.326,11.565,0.015,-0.009,0.000,0.000,0.000,0.000
29329,0.6953,0.3810,0.3016,-0.0757,0.1194,0.0147,1.39,0.90,-19.15,0,3.579,-1.471,-4.507,13.019,0.009,-0.011,0.000,0.000,0.000,0.000
29380,0.6924,0.3872,0.3042,-0.0847,0.1117,0.0243,1.41,1.07,-18.56,0,3.584,-0.326,0.869,10.547,0.011,-0.007,0.000,0.000,0.000,0.000
29431,0.6871,0.3946,0.3054,-0.0989,0.1080,0.0235,1.32,1.10,-18.00,0,3.579,3.653,1.986,10.442,0.009,-0.014,0.000,0.000,0.000,0.000
29482,0.6807,0.4001,0.3067,-0.1140,0.1007,0.0227,1.44,1.00,-17.47,0,3.584,-2.078,3.732,9.636,0.011,-0.013,0.000,0.000,0.000,0.000
29534,0.6748,0.4047,0.3077,-0.1257,0.0911,0.0192,1.43,0.89,-16.97,0,3.584,-5.825,3.881,9.009,0.012,-0.011,0.000,0.000,0.000,0.000
29584,0.6698,0.4093,0.3082,-0.1324,0.0827,0.0136,1.20,0.75,-16.53,0,3.584,-0.834,2.411,9.354,0.010,-0.007,0.000,0.000,0.000,0.000
29636,0.6628,0.4132,0.3080,-0.1412,0.0743,0.0063,1.10,0.63,-16.04,0,3.579,-2.071,6.661,10.479,0.011,-0.014,0.000,0.000,0.000,0.000
29687,0.6567,0.4177,0.3061,-0.1456,0.0690,-0.0077,1.03,0.44,-15.55,0,3.579,-1.780,-0.145,9.047,0.016,-0.005,0.000,0.000,0.000,0.000
29738,0.6508,0.4224,0.3056,-0.1474,0.0647,-0.0089,0.98,0.34,-15.08,0,3.574,-1.619,0.161,9.122,0.012,-0.012,0.000,0.000,0.000,0.000
29788,0.6422,0.4266,0.3053,-0.1550,0.0600,-0.0083,0.97,0.30,-14.64,0,3.579,-2.023,2.171,5.539,0.014,-0.012,0.000,0.000,0.000,0.000
29840,0.6346,0.4303,0.3049,-0.1587,0.0551,-0.0078,0.91,0.19,-14.32,0,3.574,-0.688,-2.863,2.954,0.012,-0.012,0.000,0.000,0.000,0.000
29890,0.6289,0.4337,0.3042,-0.1567,0.0503,-0.0097,0.87,0.20,-14.16,0,3.579,0.027,0.696,-0.567,0.016,-0.009,0.000,0.000,0.000,0.000
29942,0.6231,0.4369,0.3037,-0.1550,0.0459,-0.0089,0.70,0.20,-14.14,0,3.574,-0.660,2.721,-2.523,0.014,-0.007,0.000,0.000,0.000,0.000
29993,0.6158,0.4399,0.3018,-0.1567,0.0428,-0.0135,0.60,0.15,-14.26,0,3.574,4.727,0.917,-4.819,0.013,-0.015,0.000,0.000,0.000,0.000
