time_ms,pos_x,pos_y,pos_z,vel_x,vel_y,vel_z,roll,pitch,yaw,thrust,vbat,gyro_x,gyro_y,gyro_z,acc_x,acc_y,acc_z,rate_roll,rate_pitch,rate_yaw,range_z,flow_dx,flow_dy,mekf_roll,mekf_pitch,mekf_yaw,mekf_x,mekf_y,mekf_z
0,0.1889,0.0510,0.0089,-0.0027,-0.0115,0.0029,-1.67,1.11,-119.41,0,4.154,0.180,-0.122,-0.134,0.022,-0.028,0.000,0.000,0.000,0.000,0.0050,1,-2,0.00,0.00,0.00,0.0000,0.0000,0.0000
51,0.1898,0.0520,0.0072,0.0012,-0.0067,-0.0050,-1.66,1.09,-118.92,0,4.144,-0.211,-0.078,0.012,0.023,-0.026,0.000,0.000,0.000,0.000,0.0100,0,0,0.00,0.00,0.00,0.0000,0.0000,0.0000
101,0.1894,0.0524,0.0084,0.0001,-0.0051,0.0015,-1.66,1.12,-118.43,0,4.154,-0.021,-0.323,0.005,0.018,-0.029,0.000,0.000,0.000,0.000,0.0100,0,2,0.00,0.00,0.00,0.0000,0.0000,0.0000
153,0.1887,0.0509,0.0093,-0.0027,-0.0112,0.0054,-1.66,1.10,-117.94,0,4.144,0.075,-0.237,-0.629,0.023,-0.024,0.000,0.000,0.000,0.000,0.0100,3,5,0.00,0.00,0.00,0.0000,0.0000,0.0000
203,0.1896,0.0504,0.0099,0.0014,-0.0138,0.0071,-1.65,1.13,-117.45,0,4.154,-0.320,0.081,-0.079,0.024,-0.027,0.000,0.000,0.000,0.000,0.0090,0,0,0.00,0.00,0.00,0.0000,0.0000,0.0000
255,0.1894,0.0524,0.0098,0.0006,-0.0048,0.0056,-1.65,1.12,-116.97,0,4.144,-0.119,-0.058,0.064,0.022,-0.028,0.000,0.000,0.000,0.000,0.0120,-3,-6,0.00,0.00,0.00,0.0000,0.0000,0.0000
306,0.1895,0.0521,0.0112,0.0003,-0.0060,0.0114,-1.70,1.03,-116.48,0,4.154,-0.112,-0.222,0.004,0.023,-0.030,0.000,0.000,0.000,0.000,0.0090,0,0,0.00,0.00,0.00,0.0000,0.0000,0.0000
357,0.1895,0.0523,0.0107,0.0001,-0.0048,0.0077,-1.65,1.12,-116.00,0,4.144,-0.044,0.006,-0.321,0.026,-0.030,0.000,0.000,0.000,0.000,0.0100,-3,-4,0.00,0.00,0.00,0.0000,0.0000,0.0000
408,0.1895,0.0522,0.0106,-0.0006,-0.0052,0.0057,-1.69,1.06,-115.52,0,4.154,-0.415,-0.048,-0.076,0.020,-0.028,0.000,0.000,0.000,0.000,0.0090,-3,-5,0.00,0.00,0.00,0.0000,0.0000,0.0000
459,0.1894,0.0521,0.0101,-0.0007,-0.0057,0.0026,-1.69,1.05,-115.04,0,4.144,0.232,-0.029,-0.245,0.022,-0.029,0.000,0.000,0.000,0.000,0.0050,0,0,0.00,0.00,0.00,0.0000,0.0000,0.0000
509,0.1893,0.0520,0.0077,-0.0014,-0.0061,-0.0087,-1.65,1.11,-114.66,0,4.154,-0.345,0.121,0.071,0.024,-0.029,0.000,0.000,0.000,0.000,0.0100,0,0,0.00,0.00,0.00,0.0000,0.0000,0.0000
561,0.1894,0.0520,0.0084,-0.0008,-0.0068,-0.0034,-1.66,1.11,-114.08,0,4.144,-0.034,0.141,-0.275,0.024,-0.028,0.000,0.000,0.000,0.000,0.0100,0,2,0.00,0.00,0.00,0.0000,0.0000,0.0000
612,0.1891,0.0513,0.0091,-0.0021,-0.0097,0.0010,-1.66,1.12,-113.60,0,4.154,-0.135,-0.144,-0.077,0.025,-0.028,0.000,0.000,0.000,0.000,0.0080,7,9,0.00,0.00,0.00,0.0000,0.0000,0.0000
663,0.1892,0.0516,0.0086,-0.0013,-0.0085,-0.0016,-1.67,1.13,-113.22,0,4.144,0.063,0.135,-0.263,0.023,-0.026,0.000,0.000,0.000,0.000,0.0080,0,0,0.00,0.00,0.00,0.0000,0.0000,0.0000
714,0.1894,0.0520,0.0083,-0.0010,-0.0073,-0.0021,-1.66,1.12,-112.74,0,4.154,-0.330,-0.100,-0.442,0.024,-0.028,0.000,0.000,0.000,0.000,0.0100,0,0,0.00,0.00,0.00,0.0000,0.0000,0.0000
765,0.1894,0.0516,0.0090,-0.0009,-0.0087,0.0010,-1.66,1.11,-112.27,0,4.144,0.009,-0.072,-0.161,0.020,-0.027,0.000,0.000,0.000,0.000,0.0110,-3,-5,0.00,0.00,0.00,0.0000,0.0000,0.0000
816,0.1893,0.0511,0.0101,-0.0007,-0.0106,0.0061,-1.71,1.02,-111.80,0,4.154,-0.147,0.134,-0.220,0.023,-0.026,0.000,0.000,0.000,0.000,0.0060,4,5,0.00,0.00,0.00,0.0000,0.0000,0.0000
867,0.1903,0.0486,0.0084,0.0032,-0.0204,-0.0028,-1.65,1.13,-111.34,0,4.144,-0.073,0.073,-0.024,0.022,-0.027,0.000,0.000,0.000,0.000,0.0060,0,0,0.00,0.00,0.00,0.0000,0.0000,0.0000
918,0.1893,0.0514,0.0071,-0.0018,-0.0082,-0.0072,-1.66,1.13,-110.87,0,4.154,-0.236,-0.006,0.063,0.021,-0.029,0.000,0.000,0.000,0.000,0.0120,0,0,0.00,0.00,0.00,0.0000,0.0000,0.0000
969,0.1893,0.0514,0.0092,-0.0011,-0.0073,0.0030,-1.66,1.13,-110.40,0,4.144,-0.226,0.219,0.216,0.022,-0.030,0.000,0.000,0.000,0.000,0.0100,0,0,0.00,0.00,0.00,0.0000,0.0000,0.0000
1020,0.1894,0.0515,0.0097,-0.0000,-0.0072,0.0046,-1.66,1.12,-109.93,0,4.154,0.116,-0.142,-0.127,0.023,-0.027,0.000,0.000,0.000,0.000,0.0130,0,0,0.00,0.00,0.00,0.0000,0.0000,0.0000
1072,0.1894,0.0515,0.0116,-0.0000,-0.0069,0.0121,-1.66,1.13,-109.47,0,4.144,-0.151,0.039,0.056,0.021,-0.029,0.000,0.000,0.000,0.000,0.0120,0,0,0.00,0.00,0.00,0.0000,0.0000,0.0000
1123,0.1894,0.0511,0.0123,0.0005,-0.0084,0.0131,-1.66,1.12,-109.01,0,4.154,0.073,0.122,-0.180,0.020,-0.028,0.000,0.000,0.000,0.000,0.0110,0,0,0.00,0.00,0.00,0.0000,0.0000,0.0000
1174,0.1894,0.0512,0.0123,0.0000,-0.0066,0.0106,-1.65,1.12,-108.55,0,4.144,0.081,0.047,-0.169,0.021,-0.029,0.000,0.000,0.000,0.000,0.0090,0,0,0.00,0.00,0.00,0.0000,0.0000,0.0000
1225,0.1894,0.0513,0.0111,-0.0003,-0.0059,0.0033,-1.65,1.12,-108.09,0,4.154,-0.206,-0.182,0.003,0.023,-0.028,0.000,0.000,0.000,0.000,0.0100,0,0,0.00,0.00,0.00,0.0000,0.0000,0.0000
1276,0.1894,0.0510,0.0107,0.0001,-0.0070,0.0012,-1.66,1.11,-107.63,0,4.144,-0.091,-0.233,0.012,0.023,-0.029,0.000,0.000,0.000,0.000,0.0090,0,0,0.00,0.00,0.00,0.0000,0.0000,0.0000
1327,0.1894,0.0506,0.0099,0.0003,-0.0086,-0.0021,-1.66,1.10,-107.17,0,4.154,0.126,0.206,0.048,0.022,-0.027,0.000,0.000,0.000,0.000,0.0100,0,0,0.00,0.00,0.00,0.0000,0.0000,0.0000
1378,0.1894,0.0509,0.0099,0.0005,-0.0077,-0.0010,-1.66,1.10,-106.71,0,4.144,-0.075,-0.186,-0.335,0.021,-0.029,0.000,0.000,0.000,0.000,0.0090,0,0,0.00,0.00,0.00,0.0000,0.0000,0.0000
1429,0.1894,0.0505,0.0094,0.0007,-0.0093,-0.0025,-1.66,1.09,-106.25,0,4.154,0.134,-0.323,-0.278,0.021,-0.027,0.000,0.000,0.000,0.000,0.0110,0,2,0.00,0.00,0.00,0.0000,0.0000,0.0000
1480,0.1888,0.0485,0.0101,-0.0011,-0.0155,0.0011,-1.66,1.10,-105.79,0,4.144,0.052,0.133,-0.092,0.023,-0.029,0.000,0.000,0.000,0.000,0.0110,0,0,0.00,0.00,0.00,0.0000,0.0000,0.0000
1532,0.1895,0.0505,0.0106,0.0009,-0.0095,0.0037,-1.66,1.09,-105.34,0,4.154,-0.131,0.077,-0.177,0.024,-0.029,0.000,0.000,0.000,0.000,0.0080,0,-3,0.00,0.00,0.00,0.0000,0.0000,0.0000
1583,0.1894,0.0509,0.0095,0.0004,-0.0085,-0.0012,-1.65,1.06,-104.89,0,4.144,-0.310,-0.015,0.276,0.019,-0.032,0.000,0.000,0.000,0.000,0.0090,0,0,0.00,0.00,0.00,0.0000,0.0000,0.0000
1633,0.1894,0.0514,0.0092,0.0002,-0.0064,-0.0025,-1.65,1.11,-104.44,0,4.154,-0.032,-0.069,-0.006,0.025,-0.030,0.000,0.000,0.000,0.000,0.0110,0,0,0.00,0.00,0.00,0.0000,0.0000,0.0000
1685,0.1894,0.0510,0.0100,0.0000,-0.0080,0.0022,-1.66,1.10,-103.99,0,4.144,0.065,-0.264,-0.132,0.022,-0.026,0.000,0.000,0.000,0.000,0.0080,0,0,0.00,0.00,0.00,0.0000,0.0000,0.0000
1737,0.1892,0.0502,0.0091,-0.0004,-0.0111,-0.0025,-1.66,1.08,-103.53,0,4.154,0.252,0.283,-0.219,0.021,-0.029,0.000,0.000,0.000,0.000,0.0100,0,1,0.00,0.00,0.00,0.0000,0.0000,0.0000
1788,0.1892,0.0511,0.0094,0.0002,-0.0077,0.0004,-1.64,1.12,-103.09,0,4.144,-0.107,-0.136,0.173,0.022,-0.030,0.000,0.000,0.000,0.000,0.0080,0,0,0.00,0.00,0.00,0.0000,0.0000,0.0000
1838,0.1893,0.0517,0.0088,0.0003,-0.0063,-0.0022,-1.64,1.11,-102.65,0,4.154,0.016,0.154,0.217,0.024,-0.028,0.000,0.000,0.000,0.000,0.0140,-3,-6,0.00,0.00,0.00,0.0000,0.0000,0.0000
1890,0.1894,0.0518,0.0112,0.0011,-0.0064,0.0092,-1.68,1.02,-102.20,0,4.144,-0.109,0.342,0.022,0.022,-0.029,0.000,0.000,0.000,0.000,0.0110,0,-1,0.00,0.00,0.00,0.0000,0.0000,0.0000
1941,0.1894,0.0523,0.0116,0.0005,-0.0052,0.0087,-1.63,1.10,-101.76,0,4.149,0.026,-0.064,-0.056,0.022,-0.025,0.000,0.000,0.000,0.000,0.0100,0,-1,0.00,0.00,0.00,0.0000,0.0000,0.0000
1992,0.1894,0.0523,0.0112,0.0007,-0.0059,0.0053,-1.63,1.10,-101.32,0,4.144,0.085,0.259,-0.270,0.021,-0.027,0.000,0.000,0.000,0.000,0.0110,0,0,0.00,0.00,0.00,0.0000,0.0000,0.0000
2043,0.1894,0.0523,0.0113,0.0012,-0.0066,0.0054,-1.63,1.11,-100.88,0,4.154,-0.068,-0.111,0.165,0.024,-0.027,0.000,0.000,0.000,0.000,0.0110,0,0,0.00,0.00,0.00,0.0000,0.0000,0.0000
2094,0.1894,0.0519,0.0114,0.0010,-0.0084,0.0046,-1.64,1.10,-100.44,0,4.144,-0.059,-0.195,0.188,0.023,-0.026,0.000,0.000,0.000,0.000,0.0110,0,0,0.00,0.00,0.00,0.0000,0.0000,0.0000
2145,0.1895,0.0514,0.0114,0.0013,-0.0101,0.0040,-1.64,1.09,-100.00,0,4.149,0.033,-0.272,-0.157,0.022,-0.028,0.000,0.000,0.000,0.000,0.0100,0,0,0.00,0.00,0.00,0.0000,0.0000,0.0000
2196,0.1895,0.0508,0.0109,0.0013,-0.0121,0.0010,-1.64,1.08,-99.56,0,4.144,0.052,0.069,-0.223,0.023,-0.026,0.000,0.000,0.000,0.000,0.0110,-4,-5,0.00,0.00,0.00,0.0000,0.0000,0.0000
2247,0.1896,0.0502,0.0110,0.0019,-0.0137,0.0010,-1.73,0.97,-99.13,0,4.154,-0.118,-0.168,-0.125,0.023,-0.029,0.000,0.000,0.000,0.000,0.0100,0,0,0.00,0.00,0.00,0.0000,0.0000,0.0000
2298,0.1896,0.0506,0.0106,0.0013,-0.0115,-0.0008,-1.63,1.09,-98.70,0,4.144,-0.203,-0.006,-0.067,0.022,-0.027,0.000,0.000,0.000,0.000,0.0090,0,-1,0.00,0.00,0.00,0.0000,0.0000,0.0000
2349,0.1896,0.0500,0.0098,0.0011,-0.0132,-0.0032,-1.63,1.07,-98.26,0,4.154,-0.547,0.222,0.179,0.024,-0.026,0.000,0.000,0.000,0.000,0.0070,0,0,0.00,0.00,0.00,0.0000,0.0000,0.0000
2400,0.1895,0.0510,0.0083,0.0008,-0.0095,-0.0091,-1.62,1.10,-97.83,0,4.144,-0.182,0.109,0.077,0.019,-0.029,0.000,0.000,0.000,0.000,0.0090,0,0,0.00,0.00,0.00,0.0000,0.0000,0.0000
2451,0.1895,0.0505,0.0083,0.0004,-0.0101,-0.0065,-1.62,1.09,-97.40,0,4.154,0.029,0.092,-0.124,0.023,-0.026,0.000,0.000,0.000,0.000,0.0090,0,0,0.00,0.00,0.00,0.0000,0.0000,0.0000
2502,0.1895,0.0500,0.0084,0.0006,-0.0118,-0.0043,-1.62,1.08,-96.97,0,4.144,0.303,0.005,-0.401,0.021,-0.027,0.000,0.000,0.000,0.000,0.0080,0,0,0.00,0.00,0.00,0.0000,0.0000,0.0000
2553,0.1896,0.0494,0.0080,0.0009,-0.0133,-0.0045,-1.62,1.08,-96.55,0,4.154,-0.112,-0.010,0.078,0.023,-0.029,0.000,0.000,0.000,0.000,0.0080,0,0,0.00,0.00,0.00,0.0000,0.0000,0.0000
2604,0.1927,0.0425,0.0078,0.0108,-0.0335,-0.0041,-1.61,1.09,-96.13,0,4.144,0.093,-0.124,-0.141,0.022,-0.029,0.000,0.000,0.000,0.000,0.0090,-3,-3,0.00,0.00,0.00,0.0000,0.0000,0.0000
2655,0.1895,0.0498,0.0083,0.0006,-0.0109,-0.0010,-1.67,1.03,-95.71,0,4.154,0.205,-0.001,-0.178,0.021,-0.026,0.000,0.000,0.000,0.000,0.0060,0,0,0.00,0.00,0.00,0.0000,0.0000,0.0000
2707,0.1895,0.0508,0.0071,0.0008,-0.0076,-0.0059,-1.61,1.11,-95.28,0,4.144,0.111,-0.030,0.002,0.022,-0.027,0.000,0.000,0.000,0.000,0.0090,0,0,0.00,0.00,0.00,0.0000,0.0000,0.0000
2758,0.1895,0.0503,0.0078,0.0011,-0.0091,-0.0010,-1.60,1.10,-94.87,0,4.154,0.086,-0.009,-0.126,0.023,-0.028,0.000,0.000,0.000,0.000,0.0090,0,0,0.00,0.00,0.00,0.0000,0.0000,0.0000
2810,0.1896,0.0498,0.0084,0.0013,-0.0106,0.0021,-1.61,1.09,-94.45,0,4.144,-0.205,-0.201,-0.040,0.024,-0.026,0.000,0.000,0.000,0.000,0.0080,0,0,0.00,0.00,0.00,0.0000,0.0000,0.0000
2861,0.1897,0.0494,0.0083,0.0014,-0.0117,0.0015,-1.61,1.08,-94.03,0,4.149,-0.301,0.188,-0.087,0.022,-0.029,0.000,0.000,0.000,0.000,0.0090,0,0,0.00,0.00,0.00,0.0000,0.0000,0.0000
2913,0.1897,0.0488,0.0087,0.0014,-0.0135,0.0035,-1.61,1.07,-93.62,0,4.144,-0.109,0.038,-0.183,0.025,-0.028,0.000,0.000,0.000,0.000,0.0100,0,1,0.00,0.00,0.00,0.0000,0.0000,0.0000
2963,0.1896,0.0476,0.0095,0.0008,-0.0163,0.0068,-1.61,1.09,-93.20,0,4.154,0.090,0.135,0.106,0.024,-0.028,0.000,0.000,0.000,0.000,0.0060,0,0,0.00,0.00,0.00,0.0000,0.0000,0.0000
0,0.1897,0.0507,0.0081,0.0006,-0.0080,-0.0005,-1.60,1.10,-92.79,0,4.144,0.108,-0.148,-0.517,0.022,-0.026,0.000,0.000,0.000,0.000,0.0070,0,0,0.00,0.00,0.00,0.0000,0.0000,0.0000
51,0.1897,0.0503,0.0076,0.0002,-0.0095,-0.0028,-1.60,1.09,-92.38,0,4.154,0.002,0.511,0.188,0.022,-0.027,0.000,0.000,0.000,0.000,0.0110,0,0,0.00,0.00,0.00,0.0000,0.0000,0.0000
102,0.1897,0.0497,0.0091,0.0003,-0.0113,0.0051,-1.60,1.08,-91.96,0,4.144,0.061,0.023,0.126,0.024,-0.028,0.000,0.000,0.000,0.000,0.0090,0,0,0.00,0.00,0.00,0.0000,0.0000,0.0000
153,0.1897,0.0510,0.0093,0.0004,-0.0072,0.0052,-1.59,1.10,-91.55,0,4.154,-0.110,-0.264,-0.276,0.021,-0.027,0.000,0.000,0.000,0.000,0.0090,0,1,0.00,0.00,0.00,0.0000,0.0000,0.0000
204,0.1897,0.0506,0.0094,0.0000,-0.0084,0.0049,-1.60,1.10,-91.14,0,4.138,-0.223,0.324,-0.000,0.022,-0.027,0.000,0.000,0.000,0.000,0.0100,-3,-4,0.00,0.00,0.00,0.0000,0.0000,0.0000
254,0.1897,0.0511,0.0099,-0.0005,-0.0074,0.0063,-1.65,1.03,-90.74,0,4.149,0.483,-0.457,0.105,0.019,-0.025,0.000,0.000,0.000,0.000,0.0060,0,0,0.00,0.00,0.00,0.0000,0.0000,0.0000
306,0.1897,0.0517,0.0083,-0.0010,-0.0061,-0.0021,-1.59,1.12,-90.41,0,3.790,-0.205,-2.594,-2.469,0.019,-0.037,0.000,0.000,0.000,0.000,0.0080,0,0,0.00,0.00,0.00,0.0000,0.0000,0.0000
357,0.1899,0.0515,0.0081,0.0104,0.0014,-0.0023,-1.57,1.14,-90.42,0,3.859,-0.396,0.613,-0.219,0.017,-0.029,0.000,0.000,0.000,0.000,0.0090,0,3,0.00,0.00,0.00,0.0000,0.0000,0.0000
408,0.1892,0.0490,0.0084,0.0195,0.0030,-0.0021,-1.51,1.16,-90.44,0,3.874,0.503,1.068,-0.773,-0.010,-0.023,0.000,0.000,0.000,0.000,0.0100,0,11,0.00,0.00,0.00,0.0000,0.0000,0.0000
459,0.1921,0.0497,0.0091,0.0376,0.0133,0.0009,-1.57,1.21,-90.45,0,3.896,0.599,0.497,-4.330,0.014,-0.011,0.000,0.000,0.000,0.000,0.0090,-2,3,0.00,0.00,0.00,0.0000,0.0000,0.0000
510,0.1939,0.0620,0.0089,0.0508,0.0589,-0.0003,-1.60,1.33,-90.53,0,3.896,-3.369,2.383,-4.464,0.015,-0.024,0.000,0.000,0.000,0.000,0.0100,-4,6,0.00,0.00,0.00,0.0000,0.0000,0.0000
562,0.2041,0.0735,0.0086,0.0929,0.1002,-0.0019,-1.80,1.54,-90.70,0,3.906,-5.337,-1.679,4.060,0.019,-0.027,0.000,0.000,0.000,0.000,0.0090,-11,5,0.00,0.00,0.00,0.0000,0.0000,0.0000
613,0.2137,0.0806,0.0080,0.1280,0.1193,-0.0065,-1.96,1.60,-90.71,0,3.896,1.240,2.857,7.047,0.014,-0.031,0.000,0.000,0.000,0.000,0.0100,-4,2,0.00,0.00,0.00,0.0000,0.0000,0.0000
665,0.2246,0.0872,0.0080,0.1650,0.1339,-0.0088,-2.06,1.61,-90.39,0,3.906,4.476,-4.116,1.029,0.015,-0.009,0.000,0.000,0.000,0.000,0.0100,-5,5,0.00,0.00,0.00,0.0000,0.0000,0.0000
717,0.2333,0.0918,0.0091,0.1820,0.1349,-0.0029,-2.00,1.52,-90.28,0,3.896,3.898,-0.305,7.680,0.019,-0.046,0.000,0.000,0.000,0.000,0.0110,-16,16,0.00,0.00,0.00,0.0000,0.0000,0.0000
769,0.2455,0.1013,0.0091,0.2141,0.1617,-0.0046,-2.03,1.76,-89.93,0,3.901,1.079,-1.124,0.237,0.012,-0.030,0.000,0.000,0.000,0.000,0.0080,-3,7,0.00,0.00,0.00,0.0000,0.0000,0.0000
820,0.2577,0.1110,0.0079,0.2392,0.1831,-0.0142,-1.94,1.69,-89.86,0,3.890,8.278,-2.333,1.887,0.017,-0.057,0.000,0.000,0.000,0.000,0.0080,-12,0,0.00,0.00,0.00,0.0000,0.0000,0.0000
871,0.2672,0.1184,0.0096,0.2306,0.1820,0.0112,-1.45,1.53,-89.79,0,3.901,21.917,-0.897,0.113,0.025,-0.025,0.000,0.000,0.000,0.000,0.0080,-2,23,0.00,0.00,0.00,0.0000,0.0000,0.0000
922,0.2739,0.1222,0.0130,0.1925,0.1542,0.0373,0.04,1.32,-89.84,0,3.885,26.077,3.976,-1.008,0.025,-0.026,0.000,0.000,0.000,0.000,0.0090,1,1,0.00,0.00,0.00,0.0000,0.0000,0.0000
974,0.2762,0.1295,0.0144,0.1260,0.1640,0.0481,1.95,1.06,-89.93,0,3.896,-1.651,19.123,1.137,0.025,-0.005,0.000,0.000,0.000,0.000,0.0140,-4,-1,0.00,0.00,0.00,0.0000,0.0000,0.0000
1025,0.2787,0.1326,0.0174,0.0756,0.1274,0.0437,2.16,-0.09,-89.97,0,3.880,-10.502,6.989,9.193,-0.001,0.010,0.000,0.000,0.000,0.000,0.0100,16,-1,0.00,0.00,0.00,0.0000,0.0000,0.0000
1077,0.2732,0.1296,0.0149,-0.0344,0.0549,0.0131,2.39,-0.84,-89.69,0,3.880,-5.059,-16.776,6.983,0.006,0.001,0.000,0.000,0.000,0.000,0.0100,38,-11,0.00,0.00,0.00,0.0000,0.0000,0.0000
1128,0.2595,0.1266,0.0094,-0.1509,0.0158,-0.0165,3.13,-0.51,-89.37,0,3.859,-27.499,1.439,3.376,0.009,0.012,0.000,0.000,0.000,0.000,0.0110,51,-3,0.00,0.00,0.00,0.0000,0.0000,0.0000
1179,0.2368,0.1209,0.0015,-0.2939,-0.0207,-0.0598,2.87,-0.77,-89.03,0,3.864,-44.027,16.215,2.272,0.004,-0.027,0.000,0.000,0.000,0.000,0.0130,16,-5,0.00,0.00,0.00,0.0000,0.0000,0.0000
1229,0.2073,0.1165,-0.0065,-0.4263,-0.0322,-0.0973,1.78,-0.88,-88.65,0,3.843,-3.574,4.592,0.452,0.035,-0.033,0.000,0.000,0.000,0.000,0.0090,14,-4,0.00,0.00,0.00,0.0000,0.0000,0.0000
1281,0.1903,0.1141,0.0033,-0.3972,-0.0551,-0.0013,1.19,-0.70,-88.86,0,3.869,-23.986,4.716,-11.126,0.031,-0.041,0.000,0.000,0.000,0.000,0.0100,-2,-3,0.00,0.00,0.00,0.0000,0.0000,0.0000
1332,0.1797,0.1130,0.0133,-0.3250,-0.0622,0.0693,-0.90,-0.95,-89.59,0,3.869,-36.528,12.831,-11.599,0.018,-0.026,0.000,0.000,0.000,0.000,0.0110,-8,-2,0.00,0.00,0.00,0.0000,0.0000,0.0000
1382,0.1834,0.1109,0.0192,-0.1763,-0.0965,0.1040,-4.24,-1.32,-90.75,0,3.869,-24.543,3.201,-6.214,-0.020,-0.034,0.000,0.000,0.000,0.000,0.0100,-63,-11,0.00,0.00,0.00,0.0000,0.0000,0.0000
1434,0.2078,0.1104,0.0143,0.0645,-0.1233,0.0513,-7.47,-1.41,-91.89,0,3.853,85.121,-2.321,1.729,0.009,-0.034,0.000,0.000,0.000,0.000,0.0010,-68,-9,0.00,0.00,0.00,0.0000,0.0000,0.0000
1485,0.2551,0.1120,-0.0113,0.3650,-0.1427,-0.1092,-4.99,-1.35,-92.53,0,3.827,150.228,-3.047,1.859,-0.002,-0.018,0.000,0.000,0.000,0.000,0.0000,-122,-22,0.00,0.00,0.00,0.0000,0.0000,0.0000
1535,0.2833,0.1088,-0.0162,0.4576,-0.1405,-0.1106,1.13,-0.79,-92.85,0,3.811,11.023,-57.498,-4.824,-0.003,-0.000,0.000,0.000,0.000,0.000,0.0020,-28,-6,0.00,0.00,0.00,0.0000,0.0000,0.0000
1587,0.3176,0.1014,-0.0205,0.5338,-0.1635,-0.0813,1.03,2.04,-93.48,0,3.827,115.541,2.771,8.020,-0.002,-0.016,0.000,0.000,0.000,0.000,0.0000,-51,13,0.00,0.00,0.00,0.0000,0.0000,0.0000
1639,0.3533,0.0953,-0.0203,0.5811,-0.1374,-0.0456,5.70,2.03,-93.16,0,3.811,110.881,45.709,11.432,0.016,-0.006,0.000,0.000,0.000,0.000,0.0000,-5,12,0.00,0.00,0.00,0.0000,0.0000,0.0000
1690,0.3806,0.0976,-0.0062,0.4962,-0.0458,0.0598,12.07,0.39,-92.28,0,3.838,-13.489,6.619,7.878,0.016,-0.000,0.000,0.000,0.000,0.000,0.0000,69,16,0.00,0.00,0.00,0.0000,0.0000,0.0000
1740,0.3764,0.1054,0.0039,0.2087,0.0438,0.0817,14.23,0.46,-91.48,0,3.822,-102.322,-8.420,3.490,-0.001,0.002,0.000,0.000,0.000,0.000,0.0000,5,16,0.00,0.00,0.00,0.0000,0.0000,0.0000
1791,0.3503,0.1170,-0.0027,-0.0756,0.1319,-0.0043,10.07,1.36,-90.57,0,3.816,-62.626,50.250,-1.563,0.007,0.018,0.000,0.000,0.000,0.000,0.0000,21,-20,0.00,0.00,0.00,0.0000,0.0000,0.0000
1843,0.3410,0.1283,-0.0038,-0.1715,0.1807,-0.0214,7.24,-0.36,-90.59,0,3.790,-27.901,91.905,-2.091,0.012,0.011,0.000,0.000,0.000,0.000,0.0000,11,11,0.00,0.00,0.00,0.0000,0.0000,0.0000
1895,0.3366,0.1292,0.0011,-0.2218,0.0968,0.0258,5.02,-5.79,-90.66,0,3.811,-77.796,13.123,-1.165,0.002,-0.005,0.000,0.000,0.000,0.000,0.0000,26,6,0.00,0.00,0.00,0.0000,0.0000,0.0000
1946,0.3246,0.1407,0.0034,-0.2422,0.1245,0.0466,1.03,-6.30,-89.64,0,3.801,-70.152,-58.507,4.652,-0.007,0.017,0.000,0.000,0.000,0.000,0.0000,33,1,0.00,0.00,0.00,0.0000,0.0000,0.0000
1997,0.3183,0.1457,0.0053,-0.2175,0.0671,0.0757,-2.23,-4.45,-89.48,0,3.806,28.542,8.111,9.851,-0.006,-0.012,0.000,0.000,0.000,0.000,0.0030,-10,3,0.00,0.00,0.00,0.0000,0.0000,0.0000
2048,0.2861,0.1407,0.0055,-0.3106,-0.0112,0.0902,-1.26,-4.32,-88.91,0,3.801,-23.567,17.820,10.638,-0.003,-0.019,0.000,0.000,0.000,0.000,0.0120,-2,0,0.00,0.00,0.00,0.0000,0.0000,0.0000
2099,0.2846,0.1395,0.0163,-0.2305,-0.0595,0.1454,-2.05,-5.23,-88.78,0,3.811,-37.113,-34.384,12.205,0.006,-0.005,0.000,0.000,0.000,0.000,0.0200,25,-27,0.00,0.00,0.00,0.0000,0.0000,0.0000
2150,0.2894,0.1351,0.0266,-0.1304,-0.1188,0.1841,-4.27,-4.74,-88.38,0,3.801,11.967,-66.581,10.496,-0.001,-0.000,0.000,0.000,0.000,0.000,0.0270,-5,-6,0.00,0.00,0.00,0.0000,0.0000,0.0000
2201,0.2794,0.1151,0.0321,-0.1069,-0.2193,0.1841,-4.47,-2.01,-87.62,0,3.811,19.078,-51.584,4.684,-0.006,-0.007,0.000,0.000,0.000,0.000,0.0350,16,-15,0.00,0.00,0.00,0.0000,0.0000,0.0000
2252,0.2634,0.0969,0.0408,-0.1240,-0.2576,0.1889,-2.71,0.59,-86.53,0,3.801,-5.767,-29.329,7.913,-0.004,-0.007,0.000,0.000,0.000,0.000,0.0400,0,-16,0.00,0.00,0.00,0.0000,0.0000,0.0000
2302,0.2500,0.0846,0.0475,-0.1382,-0.2426,0.1744,-2.60,2.24,-86.04,0,3.806,-19.756,-12.018,4.359,-0.009,-0.002,0.000,0.000,0.000,0.000,0.0580,4,-8,0.00,0.00,0.00,0.0000,0.0000,0.0000
2353,0.2515,0.0704,0.0610,-0.0709,-0.2300,0.1955,-3.77,3.05,-85.75,0,3.801,22.070,-19.759,-1.771,-0.004,0.003,0.000,0.000,0.000,0.000,0.0670,8,-13,0.00,0.00,0.00,0.0000,0.0000,0.0000
2405,0.2425,0.0610,0.0717,-0.0751,-0.1955,0.1944,-2.84,3.84,-85.80,0,3.806,15.399,-9.726,-8.138,-0.006,-0.004,0.000,0.000,0.000,0.000,0.0760,-10,-7,0.00,0.00,0.00,0.0000,0.0000,0.0000
2456,0.2380,0.0536,0.0825,-0.0630,-0.1526,0.1892,-1.84,4.92,-86.12,0,3.790,-7.713,21.165,-9.644,-0.004,-0.005,0.000,0.000,0.000,0.000,0.0820,-7,4,0.00,0.00,0.00,0.0000,0.0000,0.0000
2506,0.2369,0.0520,0.0899,-0.0447,-0.0905,0.1706,-2.04,4.35,-86.69,0,3.795,3.551,17.514,-9.359,0.002,-0.004,0.000,0.000,0.000,0.000,0.0910,28,-1,0.00,0.00,0.00,0.0000,0.0000,0.0000
2557,0.2373,0.0520,0.0981,-0.0201,-0.0384,0.1664,-1.79,3.44,-87.46,0,3.785,17.454,24.879,-6.346,0.002,-0.005,0.000,0.000,0.000,0.000,0.0870,1,4,0.00,0.00,0.00,0.0000,0.0000,0.0000
2609,0.2271,0.0526,0.0989,-0.0558,-0.0110,0.1269,-0.86,2.39,-87.98,0,3.774,1.387,6.839,-5.030,0.008,-0.009,0.000,0.000,0.000,0.000,0.0880,12,0,0.00,0.00,0.00,0.0000,0.0000,0.0000
2659,0.2204,0.0534,0.0992,-0.0712,0.0081,0.1068,-0.29,1.67,-88.44,0,3.764,-12.464,14.895,-1.913,0.006,-0.006,0.000,0.000,0.000,0.000,0.0970,0,5,0.00,0.00,0.00,0.0000,0.0000,0.0000
2711,0.2127,0.0536,0.1025,-0.0887,0.0174,0.1137,-0.73,1.15,-88.60,0,3.769,-8.166,19.945,0.471,0.006,-0.008,0.000,0.000,0.000,0.000,0.1080,1,5,0.00,0.00,0.00,0.0000,0.0000,0.0000
2762,0.2071,0.0544,0.1107,-0.0893,0.0231,0.1461,-1.18,0.08,-88.66,0,3.769,-0.138,4.376,2.258,0.007,-0.009,0.000,0.000,0.000,0.000,0.1160,0,2,-0.73,1.15,-88.60,0.2127,0.0536,0.1080
2813,0.2005,0.0562,0.1197,-0.0926,0.0243,0.1760,-1.17,-0.31,-88.63,0,3.785,-3.785,7.551,2.315,0.006,-0.008,0.000,0.000,0.000,0.000,0.1300,0,4,-0.73,1.32,-88.49,0.2123,0.0557,0.0879
2864,0.1985,0.0588,0.1332,-0.0694,0.0279,0.2143,-1.46,-0.61,-88.49,0,3.779,0.881,6.947,1.809,0.008,-0.005,0.000,0.000,0.000,0.000,0.1340,0,1,-0.65,-0.27,-88.37,0.2123,0.0542,0.0668
2916,0.1969,0.0613,0.1425,-0.0490,0.0284,0.2194,-1.57,-0.98,-88.38,0,3.790,6.389,2.772,2.024,0.008,-0.007,0.000,0.000,0.000,0.000,0.1510,1,1,-0.51,0.42,-88.29,0.2124,0.0547,0.0432
2966,0.1966,0.0631,0.1568,-0.0269,0.0223,0.2402,-1.33,-1.15,-88.30,0,3.785,6.651,-0.113,1.004,0.004,-0.009,0.000,0.000,0.000,0.000,0.1530,0,0,-0.20,0.36,-88.19,0.2128,0.0539,0.0312
3018,0.1965,0.0647,0.1645,-0.0117,0.0164,0.2222,-1.03,-1.13,-88.24,0,3.790,6.685,2.214,-0.325,0.007,-0.014,0.000,0.000,0.000,0.000,0.1670,-4,-3,0.17,0.55,-88.14,0.2133,0.0544,0.0087
3069,0.1954,0.0656,0.1757,-0.0065,0.0081,0.2211,-0.72,-1.20,-88.27,0,3.779,8.341,-4.264,-1.174,0.003,-0.012,0.000,0.000,0.000,0.000,0.1790,-28,-20,-0.16,0.56,-88.14,0.2116,0.0537,-0.0079
3119,0.1943,0.0652,0.1864,-0.0047,-0.0036,0.2156,-0.42,-1.19,-88.32,0,3.790,1.819,-6.701,-3.832,0.007,-0.011,0.000,0.000,0.000,0.000,0.1880,-1,0,-1.01,1.34,-88.31,0.2035,0.0573,-0.0214
3171,0.2023,0.0580,0.1968,0.0280,-0.0376,0.2099,-0.13,-0.89,-88.48,0,3.779,10.698,-10.274,-4.603,-0.000,-0.012,0.000,0.000,0.000,0.000,0.1960,4,5,0.17,0.78,-88.62,0.2106,0.0508,-0.0257
3222,0.2024,0.0559,0.2057,0.0236,-0.0445,0.1980,0.35,-0.34,-88.68,0,3.790,6.508,-8.235,-4.720,-0.004,-0.013,0.000,0.000,0.000,0.000,0.2100,-3,-1,0.67,1.39,-88.82,0.2100,0.0537,-0.0864
3274,0.2006,0.0533,0.2166,0.0093,-0.0480,0.1954,0.74,0.02,-88.90,0,3.785,-0.374,-5.964,-4.305,-0.001,-0.009,0.000,0.000,0.000,0.000,0.2240,-5,0,0.94,2.25,-88.99,0.2101,0.0518,-0.1377
3326,0.2019,0.0506,0.2290,0.0059,-0.0488,0.2002,0.73,0.34,-89.12,0,3.790,-3.109,-4.362,-4.596,-0.000,-0.012,0.000,0.000,0.000,0.000,0.2280,0,0,0.86,3.14,-89.12,0.2112,0.0422,-0.1772
3376,0.2008,0.0483,0.2372,-0.0048,-0.0457,0.1835,0.67,0.55,-89.34,0,3.779,-1.790,-3.209,-5.359,0.003,-0.010,0.000,0.000,0.000,0.000,0.2390,-2,-2,0.66,3.85,-89.22,0.2132,0.0240,-0.2047
3427,0.2008,0.0458,0.2461,-0.0091,-0.0417,0.1716,0.59,0.69,-89.60,0,3.790,-1.573,-0.009,-5.029,0.004,-0.015,0.000,0.000,0.000,0.000,0.2490,8,-3,0.57,2.15,-88.79,0.2165,-0.0081,-0.2834
3478,0.2032,0.0433,0.2550,-0.0052,-0.0375,0.1623,0.57,0.71,-89.85,0,3.785,0.296,1.099,-4.273,0.003,-0.012,0.000,0.000,0.000,0.000,0.2580,0,0,0.01,-1.26,-88.14,0.2110,-0.0324,-0.3846
3530,0.1992,0.0403,0.2635,-0.0199,-0.0352,0.1536,0.58,0.68,-90.08,0,3.790,-2.866,1.017,-4.110,0.001,-0.009,0.000,0.000,0.000,0.000,0.2630,0,0,0.04,-1.46,-88.41,0.2130,-0.0181,-0.5210
3581,0.1990,0.0395,0.2700,-0.0221,-0.0270,0.1361,0.47,0.68,-90.29,0,3.779,-4.060,-0.818,-2.946,0.002,-0.013,0.000,0.000,0.000,0.000,0.2700,0,0,-0.06,-1.60,-88.83,0.2150,0.0082,-0.6074
3632,0.1883,0.0335,0.2758,-0.0519,-0.0348,0.1221,0.42,0.60,-90.45,0,3.785,-6.848,-0.992,-1.515,0.003,-0.009,0.000,0.000,0.000,0.000,0.2780,0,0,-0.21,-1.69,-89.32,0.2167,0.0456,-0.6298
3684,0.1859,0.0323,0.2822,-0.0542,-0.0285,0.1146,0.10,0.66,-90.54,0,3.779,-6.926,-0.953,-1.254,0.002,-0.012,0.000,0.000,0.000,0.000,0.2820,0,0,-0.49,-1.61,-89.80,0.2180,0.0896,-0.5961
3735,0.1753,0.0297,0.2870,-0.0747,-0.0263,0.1021,-0.20,0.63,-90.60,0,3.785,-8.412,0.029,-0.054,0.004,-0.016,0.000,0.000,0.000,0.000,0.2930,5,0,-0.81,-1.38,-90.24,0.2186,0.1341,-0.5222
3786,0.1717,0.0301,0.2933,-0.0748,-0.0188,0.1057,-0.61,0.60,-90.62,0,3.774,-8.314,1.135,0.221,0.006,-0.014,0.000,0.000,0.000,0.000,0.2910,0,1,-0.98,0.30,-90.68,0.2196,0.1845,-0.4402
3836,0.1687,0.0303,0.2962,-0.0677,-0.0111,0.0867,-1.07,0.56,-90.60,0,3.779,-4.843,1.673,0.580,0.005,-0.011,0.000,0.000,0.000,0.000,0.2970,1,0,-1.35,0.81,-91.13,0.2165,0.1928,-0.3799
3888,0.1662,0.0309,0.2999,-0.0574,-0.0042,0.0761,-1.25,0.48,-90.56,0,3.774,-2.160,3.615,1.239,0.003,-0.013,0.000,0.000,0.000,0.000,0.3020,0,0,-1.66,0.66,-91.87,0.2092,0.1763,-0.3419
3939,0.1592,0.0303,0.3038,-0.0568,-0.0015,0.0708,-1.30,0.35,-90.50,0,3.779,-1.166,2.854,1.397,0.008,-0.012,0.000,0.000,0.000,0.000,0.3110,0,1,-1.88,0.72,-92.36,0.2016,0.1657,-0.2997
3990,0.1581,0.0330,0.3101,-0.0421,0.0075,0.0777,-1.35,0.27,-90.43,0,3.774,1.970,4.043,1.599,0.004,-0.015,0.000,0.000,0.000,0.000,0.3120,-4,1,-1.92,0.82,-92.58,0.1983,0.1600,-0.2617
4041,0.1568,0.0350,0.3147,-0.0268,0.0134,0.0714,-1.28,0.19,-90.37,0,3.779,4.643,3.344,2.082,0.005,-0.014,0.000,0.000,0.000,0.000,0.3120,-9,3,-1.82,1.01,-92.71,0.1937,0.1540,-0.2334
4093,0.1564,0.0350,0.3158,-0.0178,0.0131,0.0586,-1.04,0.09,-90.26,0,3.769,4.706,2.411,2.247,0.002,-0.011,0.000,0.000,0.000,0.000,0.3160,3,-1,-1.63,1.14,-92.77,0.1883,0.1490,-0.2184
4144,0.1632,0.0391,0.3181,0.0062,0.0208,0.0505,-0.77,-0.08,-90.15,0,3.774,7.227,0.262,1.376,0.005,-0.014,0.000,0.000,0.000,0.000,0.3180,0,0,-1.65,1.17,-92.94,0.1742,0.1423,-0.2084
4195,0.1623,0.0399,0.3200,0.0101,0.0199,0.0434,-0.46,-0.15,-90.09,0,3.769,4.845,4.644,2.020,0.003,-0.018,0.000,0.000,0.000,0.000,0.3210,0,0,-1.51,1.05,-93.14,0.1657,0.1359,-0.2022
4246,0.1641,0.0421,0.3222,0.0168,0.0208,0.0409,-0.24,-0.32,-90.00,0,3.774,5.655,-0.216,1.114,0.000,-0.016,0.000,0.000,0.000,0.000,0.3200,0,0,-1.45,1.19,-93.24,0.1619,0.1333,-0.1981
4297,0.1648,0.0423,0.3227,0.0184,0.0166,0.0316,0.02,-0.33,-89.95,0,3.764,7.024,-0.071,2.026,0.002,-0.015,0.000,0.000,0.000,0.000,0.3240,-8,1,-1.31,1.11,-93.30,0.1624,0.1339,-0.1973
4348,0.1648,0.0419,0.3246,0.0163,0.0115,0.0335,0.23,-0.31,-89.88,0,3.769,-0.138,0.386,0.669,0.002,-0.018,0.000,0.000,0.000,0.000,0.3220,-1,0,-0.70,1.28,-92.83,0.1763,0.1437,-0.2114
4400,0.1735,0.0446,0.3247,0.0288,0.0131,0.0265,0.31,-0.32,-89.84,0,3.758,2.499,-1.366,0.241,0.007,-0.015,0.000,0.000,0.000,0.000,0.3240,-3,0,-0.57,1.57,-92.39,0.1712,0.1509,-0.2896
4451,0.1737,0.0443,0.3255,0.0237,0.0086,0.0260,0.38,-0.33,-89.81,0,3.769,3.513,-1.821,0.737,0.002,-0.014,0.000,0.000,0.000,0.000,0.3280,-1,0,-0.54,1.25,-92.30,0.1588,0.1349,-0.3905
4502,0.1765,0.0458,0.3278,0.0235,0.0079,0.0334,0.58,-0.26,-89.79,0,3.764,-0.564,-0.238,-0.135,0.005,-0.014,0.000,0.000,0.000,0.000,0.3330,0,0,-0.44,1.12,-92.16,0.1490,0.1324,-0.4593
4553,0.1780,0.0461,0.3317,0.0193,0.0057,0.0471,0.59,-0.24,-89.79,0,3.774,-3.779,2.221,0.017,0.005,-0.015,0.000,0.000,0.000,0.000,0.3340,0,1,-0.53,1.12,-92.05,0.1422,0.1325,-0.4804
4605,0.1789,0.0464,0.3348,0.0143,0.0036,0.0511,0.46,-0.24,-89.79,0,3.764,3.072,-1.910,0.872,0.000,-0.013,0.000,0.000,0.000,0.000,0.3340,0,-1,-0.74,1.25,-91.93,0.1391,0.1330,-0.4615
4657,0.1794,0.0481,0.3364,0.0102,0.0044,0.0465,0.51,-0.22,-89.77,0,3.769,-1.660,-0.805,0.343,0.003,-0.019,0.000,0.000,0.000,0.000,0.3340,-8,2,-0.61,1.15,-91.81,0.1359,0.1319,-0.4142
4707,0.1793,0.0485,0.3371,0.0050,0.0031,0.0366,0.38,-0.10,-89.77,0,3.758,-3.671,3.666,0.147,0.002,-0.013,0.000,0.000,0.000,0.000,0.3330,0,0,-0.55,1.17,-91.64,0.1429,0.1346,-0.3510
4758,0.1914,0.0529,0.3365,0.0223,0.0093,0.0240,0.20,-0.22,-89.73,0,3.764,5.197,-1.234,0.732,0.006,-0.012,0.000,0.000,0.000,0.000,0.3320,1,0,-0.77,1.38,-91.61,0.1385,0.1349,-0.2963
4810,0.1919,0.0531,0.3353,0.0194,0.0072,0.0131,0.42,-0.18,-89.66,0,3.758,-0.730,1.477,2.046,0.005,-0.012,0.000,0.000,0.000,0.000,0.3400,2,-1,-0.71,1.22,-91.71,0.1254,0.1288,-0.2578
4861,0.1947,0.0543,0.3382,0.0194,0.0072,0.0254,0.47,-0.20,-89.57,0,3.764,-2.544,0.516,1.531,0.004,-0.013,0.000,0.000,0.000,0.000,0.3380,0,0,-0.80,1.24,-91.65,0.1265,0.1284,-0.2355
4912,0.1846,0.0523,0.3393,-0.0034,0.0015,0.0264,0.39,-0.25,-89.47,0,3.758,-3.003,-1.107,2.137,0.000,-0.011,0.000,0.000,0.000,0.000,0.3430,0,0,-0.75,1.37,-91.45,0.1394,0.1366,-0.2356
4963,0.1855,0.0537,0.3422,-0.0047,0.0018,0.0353,0.26,-0.21,-89.36,0,3.769,-5.167,0.798,1.820,0.006,-0.012,0.000,0.000,0.000,0.000,0.3440,1,0,-0.76,1.40,-91.25,0.1453,0.1414,-0.2294
5013,0.1852,0.0538,0.3445,-0.0069,-0.0000,0.0381,0.05,-0.17,-89.28,0,3.764,-1.386,-1.138,1.119,0.000,-0.014,0.000,0.000,0.000,0.000,0.3500,0,0,-1.22,1.30,-91.39,0.1286,0.1324,-0.2374
5064,0.1840,0.0539,0.3487,-0.0088,-0.0011,0.0475,-0.03,-0.06,-89.23,0,3.769,-1.662,0.320,0.164,0.005,-0.009,0.000,0.000,0.000,0.000,0.3470,1,0,-1.71,0.93,-91.77,0.1091,0.1217,-0.2518
5115,0.1836,0.0538,0.3497,-0.0086,-0.0017,0.0385,-0.11,-0.08,-89.20,0,3.758,-2.701,0.352,0.128,0.005,-0.016,0.000,0.000,0.000,0.000,0.3480,0,0,-1.56,0.94,-91.59,0.1366,0.1324,-0.3186
5166,0.1849,0.0571,0.3503,-0.0045,0.0035,0.0280,-0.30,-0.06,-89.18,0,3.769,-2.118,-1.082,0.266,0.003,-0.014,0.000,0.000,0.000,0.000,0.3490,0,0,-1.36,1.33,-90.90,0.1583,0.1609,-0.3846
5218,0.1679,0.0518,0.3507,-0.0301,-0.0059,0.0196,-0.26,-0.11,-89.16,0,3.753,-2.520,-4.110,0.851,0.005,-0.010,0.000,0.000,0.000,0.000,0.3470,0,0,-1.14,1.67,-90.19,0.1681,0.1782,-0.4168
5269,0.1658,0.0519,0.3496,-0.0289,-0.0060,0.0082,-0.40,0.01,-89.11,0,3.764,-5.337,-3.220,0.201,0.002,-0.013,0.000,0.000,0.000,0.000,0.3520,1,0,-1.01,1.79,-89.59,0.1620,0.1790,-0.4091
5320,0.1644,0.0516,0.3511,-0.0253,-0.0059,0.0120,-0.66,0.10,-89.07,0,3.753,-1.170,0.036,1.070,0.005,-0.014,0.000,0.000,0.000,0.000,0.3530,0,0,-2.06,1.05,-90.85,0.0961,0.1323,-0.4434
5371,0.1639,0.0536,0.3525,-0.0187,-0.0015,0.0150,-0.74,0.08,-89.02,0,3.764,1.698,3.546,0.546,0.002,-0.013,0.000,0.000,0.000,0.000,0.3530,0,0,-2.68,0.41,-91.92,0.0603,0.0988,-0.4357
5423,0.1632,0.0535,0.3534,-0.0124,-0.0006,0.0146,-0.68,0.04,-89.00,0,3.753,2.089,2.880,0.524,0.003,-0.014,0.000,0.000,0.000,0.000,0.3530,0,0,-3.07,0.05,-92.80,0.0483,0.0892,-0.4044
5474,0.1622,0.0569,0.3538,-0.0074,0.0055,0.0123,-0.56,0.00,-88.98,0,3.764,2.004,1.157,-0.058,0.003,-0.012,0.000,0.000,0.000,0.000,0.3540,0,0,-3.30,-0.19,-93.35,0.0609,0.1034,-0.3552
5525,0.1620,0.0572,0.3544,-0.0025,0.0056,0.0117,-0.46,-0.07,-88.99,0,3.758,2.871,0.989,-0.947,0.007,-0.013,0.000,0.000,0.000,0.000,0.3590,0,0,-3.40,-0.35,-93.58,0.0937,0.1371,-0.3035
5576,0.1800,0.0647,0.3572,0.0298,0.0164,0.0210,-0.46,-0.13,-89.01,0,3.758,6.671,2.014,-0.291,0.000,-0.015,0.000,0.000,0.000,0.000,0.3530,0,0,-3.33,-0.37,-93.58,0.1405,0.1850,-0.2553
5627,0.1793,0.0657,0.3561,0.0299,0.0158,0.0104,-0.10,-0.22,-89.02,0,3.753,6.696,1.407,-0.306,0.004,-0.013,0.000,0.000,0.000,0.000,0.3540,0,0,-2.97,-0.23,-93.36,0.1951,0.2414,-0.2177
5678,0.1871,0.0703,0.3554,0.0407,0.0198,0.0046,0.20,-0.29,-89.03,0,3.753,-11.380,2.596,-0.391,0.004,-0.020,0.000,0.000,0.000,0.000,0.3490,1,1,-2.55,-0.04,-93.04,0.2529,0.3020,-0.1893
5729,0.1828,0.0717,0.3525,0.0295,0.0180,-0.0110,-0.23,-0.42,-89.04,0,3.748,-32.102,-0.559,-0.604,0.003,-0.013,0.000,0.000,0.000,0.000,0.3530,-2,2,-3.00,0.26,-92.73,0.3100,0.3633,-0.1714
5781,0.1784,0.0741,0.3523,0.0227,0.0168,-0.0083,-1.68,-0.40,-89.06,0,3.758,-8.261,-1.902,-0.053,-0.001,-0.013,0.000,0.000,0.000,0.000,0.3560,0,0,-4.49,0.43,-92.34,0.3643,0.4243,-0.1624
5833,0.1837,0.0785,0.3538,0.0422,0.0189,0.0040,-2.22,-0.30,-89.07,0,3.748,1.502,-0.882,-0.987,0.002,-0.015,0.000,0.000,0.000,0.000,0.3540,0,0,-4.75,0.56,-91.64,0.4130,0.4835,-0.1579
5884,0.1902,0.0790,0.3541,0.0674,0.0160,0.0073,-2.25,-0.30,-89.11,0,3.758,-0.875,-0.114,-0.804,0.003,-0.018,0.000,0.000,0.000,0.000,0.3560,0,0,-4.51,0.76,-90.78,0.4544,0.5389,-0.1559
5934,0.1959,0.0795,0.3554,0.0897,0.0135,0.0129,-2.30,-0.24,-89.17,0,3.748,5.306,-4.292,-0.210,0.003,-0.016,0.000,0.000,0.000,0.000,0.3550,-4,0,-4.39,0.99,-89.84,0.4884,0.5899,-0.1549
5986,0.2067,0.0815,0.3558,0.1181,0.0138,0.0134,-2.14,-0.02,-89.19,0,3.758,11.469,2.005,-1.090,0.002,-0.013,0.000,0.000,0.000,0.000,0.3570,-1,0,-3.98,0.99,-88.85,0.5174,0.6380,-0.1641
6038,0.2124,0.0802,0.3570,0.1350,0.0107,0.0174,-1.53,-0.02,-89.26,0,3.748,8.312,-0.892,-1.214,0.002,-0.017,0.000,0.000,0.000,0.000,0.3580,-8,0,-3.26,1.27,-88.03,0.5418,0.6820,-0.1732
6090,0.2236,0.0821,0.3582,0.1543,0.0128,0.0185,-1.20,0.05,-89.32,0,3.758,10.036,-0.491,-1.115,0.000,-0.014,0.000,0.000,0.000,0.000,0.3580,-8,1,-2.73,1.34,-87.41,0.5628,0.7217,-0.1821
6142,0.2363,0.0820,0.3589,0.1712,0.0123,0.0164,-0.73,0.21,-89.39,0,3.748,11.568,-3.666,-0.835,0.002,-0.017,0.000,0.000,0.000,0.000,0.3560,-9,1,-2.14,1.40,-87.04,0.5822,0.7576,-0.1908
6194,0.2473,0.0842,0.3581,0.1800,0.0164,0.0079,-0.30,0.31,-89.43,0,3.753,6.451,-1.171,-1.510,0.003,-0.017,0.000,0.000,0.000,0.000,0.3600,-8,1,-1.49,1.26,-86.95,0.6015,0.7903,-0.1997
6246,0.2583,0.0850,0.3593,0.1839,0.0189,0.0102,0.21,0.43,-89.50,0,3.748,5.177,-4.438,-1.259,0.001,-0.018,0.000,0.000,0.000,0.000,0.3580,0,0,-1.14,1.21,-87.22,0.6223,0.8205,-0.2066
6296,0.2675,0.0870,0.3591,0.1814,0.0239,0.0060,0.54,0.55,-89.54,0,3.748,2.308,-0.202,-0.124,0.004,-0.014,0.000,0.000,0.000,0.000,0.3550,-1,0,-0.87,0.98,-87.77,0.6445,0.8479,-0.2073
6348,0.2825,0.0885,0.3573,0.1868,0.0288,-0.0035,0.68,0.59,-89.56,0,3.743,1.799,-2.008,-0.340,0.002,-0.018,0.000,0.000,0.000,0.000,0.3550,-4,0,0.09,1.28,-87.63,0.5497,0.8317,-0.2614
6400,0.2872,0.0892,0.3560,0.1734,0.0323,-0.0081,0.80,0.61,-89.58,0,3.748,-1.664,-0.061,-0.589,0.005,-0.015,0.000,0.000,0.000,0.000,0.3570,0,0,0.40,2.05,-85.95,0.4304,0.7303,-0.3975
6451,0.3034,0.0923,0.3562,0.1795,0.0398,-0.0041,0.75,0.65,-89.62,0,3.743,1.347,0.105,-0.721,0.002,-0.014,0.000,0.000,0.000,0.000,0.3560,0,0,0.13,1.89,-86.20,0.3957,0.6897,-0.5588
6502,0.3055,0.0952,0.3560,0.1612,0.0467,-0.0004,0.85,0.62,-89.65,0,3.748,-1.970,0.966,-1.136,0.006,-0.017,0.000,0.000,0.000,0.000,0.3600,3,0,-0.14,1.61,-86.84,0.3472,0.6276,-0.6682
6553,0.3227,0.1012,0.3580,0.1704,0.0582,0.0101,0.76,0.59,-89.70,0,3.748,2.708,1.527,-0.761,0.001,-0.017,0.000,0.000,0.000,0.000,0.3580,0,2,-0.83,1.24,-88.08,0.2826,0.5522,-0.6956
6604,0.3227,0.1034,0.3585,0.1502,0.0616,0.0115,0.81,0.52,-89.74,0,3.753,-3.896,4.041,-0.613,0.002,-0.016,0.000,0.000,0.000,0.000,0.3590,0,1,-1.09,1.02,-89.44,0.2414,0.4893,-0.6457
6654,0.3286,0.1087,0.3593,0.1404,0.0695,0.0124,0.70,0.40,-89.79,0,3.748,-2.295,0.011,-0.682,0.010,-0.008,0.000,0.000,0.000,0.000,0.3630,0,1,-1.60,0.94,-90.61,0.2135,0.4342,-0.5427
6706,0.3366,0.1134,0.3616,0.1370,0.0750,0.0196,0.56,0.40,-89.81,0,3.753,-3.100,2.394,0.492,0.002,-0.015,0.000,0.000,0.000,0.000,0.3620,0,2,-1.91,0.69,-91.54,0.1974,0.3929,-0.4291
6758,0.3355,0.1164,0.3626,0.1180,0.0764,0.0175,0.45,0.28,-89.80,0,3.743,-2.366,-0.065,0.152,0.006,-0.011,0.000,0.000,0.000,0.000,0.3620,0,0,-2.20,0.65,-92.19,0.1875,0.3661,-0.3219
6809,0.3361,0.1198,0.3629,0.1050,0.0779,0.0110,0.42,0.23,-89.78,0,3.748,-10.508,-1.454,0.813,0.004,-0.014,0.000,0.000,0.000,0.000,0.3590,0,1,-2.43,0.52,-92.65,0.1796,0.3489,-0.2322
6861,0.3326,0.1237,0.3614,0.0861,0.0799,-0.0019,0.03,0.28,-89.75,0,3.743,-6.552,-0.986,0.522,0.001,-0.012,0.000,0.000,0.000,0.000,0.3650,0,0,-2.98,0.34,-92.97,0.1806,0.3371,-0.1704
6912,0.3354,0.1279,0.3631,0.0833,0.0826,0.0042,-0.33,0.34,-89.72,0,3.748,-2.264,0.092,0.994,0.004,-0.013,0.000,0.000,0.000,0.000,0.3640,0,0,-3.29,0.21,-93.22,0.1823,0.3305,-0.1253
6963,0.3359,0.1328,0.3636,0.0791,0.0870,0.0022,-0.46,0.36,-89.68,0,3.743,-3.014,-0.614,0.564,0.008,-0.011,0.000,0.000,0.000,0.000,0.3600,1,2,-3.38,0.16,-93.34,0.1794,0.3289,-0.0981
7013,0.3341,0.1376,0.3619,0.0713,0.0906,-0.0081,-0.52,0.34,-89.65,0,3.748,-4.710,-2.727,0.162,0.004,-0.012,0.000,0.000,0.000,0.000,0.3620,0,0,-3.53,0.09,-93.40,0.1734,0.3306,-0.0839
7064,0.3425,0.1436,0.3615,0.0855,0.0963,-0.0095,-0.79,0.41,-89.64,0,3.737,1.100,-2.107,-0.836,0.000,-0.013,0.000,0.000,0.000,0.000,0.3590,0,1,-3.76,-0.07,-93.41,0.1649,0.3344,-0.0824
7116,0.3432,0.1487,0.3598,0.0846,0.1002,-0.0160,-0.75,0.45,-89.66,0,3.743,3.599,2.160,0.152,0.003,-0.015,0.000,0.000,0.000,0.000,0.3590,-4,1,-3.71,-0.18,-93.42,0.1545,0.3399,-0.0914
7167,0.3410,0.1520,0.3587,0.0772,0.1003,-0.0178,-0.53,0.32,-89.67,0,3.737,-0.598,-0.019,-1.262,0.004,-0.014,0.000,0.000,0.000,0.000,0.3580,0,2,-3.54,-0.07,-93.35,0.1432,0.3466,-0.1016
7218,0.3458,0.1577,0.3577,0.0830,0.1046,-0.0179,-0.53,0.34,-89.72,0,3.743,0.435,-1.683,-0.722,0.002,-0.014,0.000,0.000,0.000,0.000,0.3550,-1,1,-3.59,-0.07,-93.31,0.1310,0.3537,-0.1150
7269,0.3496,0.1650,0.3556,0.0868,0.1119,-0.0225,-0.48,0.38,-89.78,0,3.737,3.878,0.144,-0.887,0.007,-0.015,0.000,0.000,0.000,0.000,0.3580,0,0,-3.59,-0.14,-93.23,0.1185,0.3609,-0.1307
7320,0.3516,0.1688,0.3560,0.0856,0.1113,-0.0120,-0.31,0.38,-89.83,0,3.743,2.075,-0.514,-1.152,0.006,-0.013,0.000,0.000,0.000,0.000,0.3540,0,1,-3.42,-0.11,-93.14,0.1059,0.3677,-0.1456
7371,0.3529,0.1736,0.3546,0.0812,0.1127,-0.0122,-0.11,0.34,-89.89,0,3.737,1.591,1.888,-1.475,0.008,-0.014,0.000,0.000,0.000,0.000,0.3550,0,0,-3.34,-0.12,-93.06,0.0935,0.3739,-0.1612
7422,0.3572,0.1801,0.3544,0.0823,0.1173,-0.0073,-0.07,0.36,-89.96,0,3.743,1.940,-0.083,-1.612,0.005,-0.017,0.000,0.000,0.000,0.000,0.3510,0,2,-3.29,-0.01,-93.02,0.0814,0.3792,-0.1752
7474,0.3667,0.1878,0.3525,0.0945,0.1242,-0.0120,0.01,0.38,-90.03,0,3.732,3.356,0.717,-1.523,0.005,-0.015,0.000,0.000,0.000,0.000,0.3530,-1,3,-3.22,-0.00,-92.99,0.0694,0.3834,-0.1921
7524,0.3728,0.1939,0.3523,0.0973,0.1266,-0.0069,0.18,0.32,-90.10,0,3.743,3.719,0.427,-1.799,0.001,-0.014,0.000,0.000,0.000,0.000,0.3480,-3,2,-3.07,0.04,-92.98,0.0582,0.3867,-0.1991
7576,0.3748,0.1978,0.3500,0.0891,0.1237,-0.0135,0.39,0.21,-90.19,0,3.732,1.985,0.569,-2.000,0.005,-0.014,0.000,0.000,0.000,0.000,0.3510,0,1,-2.90,0.07,-93.01,0.0470,0.3891,-0.2139
7627,0.3772,0.2037,0.3500,0.0809,0.1245,-0.0077,0.57,0.23,-90.30,0,3.737,-0.197,0.023,-1.654,0.004,-0.018,0.000,0.000,0.000,0.000,0.3480,-1,2,-2.95,0.12,-92.82,0.0418,0.3893,-0.2228
7678,0.3800,0.2084,0.3488,0.0732,0.1232,-0.0091,0.59,0.26,-90.38,0,3.732,-2.698,-0.507,-1.441,0.007,-0.018,0.000,0.000,0.000,0.000,0.3490,0,2,-3.13,0.15,-92.55,0.0624,0.3867,-0.2770
7729,0.3820,0.2158,0.3486,0.0649,0.1283,-0.0036,0.47,0.31,-90.47,0,3.737,-1.512,0.051,-2.236,0.003,-0.017,0.000,0.000,0.000,0.000,0.3500,-1,0,-3.04,0.10,-92.88,0.1019,0.3816,-0.3974
7780,0.3855,0.2232,0.3492,0.0621,0.1332,0.0033,0.34,0.33,-90.56,0,3.732,-0.653,0.419,-2.264,0.003,-0.017,0.000,0.000,0.000,0.000,0.3490,0,2,-3.06,0.06,-93.13,0.1151,0.3756,-0.4928
7831,0.3871,0.2278,0.3494,0.0559,0.1314,0.0069,0.33,0.30,-90.69,0,3.737,0.890,-0.744,-2.137,0.005,-0.016,0.000,0.000,0.000,0.000,0.3470,-1,0,-3.11,0.09,-93.22,0.1177,0.3744,-0.5363
7882,0.3901,0.2349,0.3485,0.0540,0.1352,0.0035,0.33,0.31,-90.80,0,3.732,-2.803,-1.528,-2.211,0.003,-0.019,0.000,0.000,0.000,0.000,0.3510,3,3,-3.10,0.01,-93.40,0.1214,0.3684,-0.5256
7934,0.3918,0.2402,0.3500,0.0492,0.1342,0.0108,0.26,0.37,-90.91,0,3.743,-2.114,0.743,-1.016,0.004,-0.017,0.000,0.000,0.000,0.000,0.3530,1,2,-3.33,-0.05,-93.37,0.1163,0.3692,-0.4775
7986,0.3960,0.2495,0.3520,0.0523,0.1432,0.0176,0.12,0.34,-90.98,0,3.737,3.689,-1.409,-1.209,0.005,-0.016,0.000,0.000,0.000,0.000,0.3540,0,0,-3.44,-0.03,-93.50,0.1228,0.3640,-0.4095
8036,0.3925,0.2553,0.3538,0.0365,0.1426,0.0219,0.29,0.29,-91.02,0,3.743,-1.991,0.009,-1.252,0.005,-0.020,0.000,0.000,0.000,0.000,0.3550,0,1,-3.27,-0.15,-93.65,0.1259,0.3586,-0.3342
8088,0.3992,0.2638,0.3553,0.0459,0.1481,0.0213,0.21,0.24,-91.08,0,3.737,-0.123,2.268,-1.059,0.006,-0.016,0.000,0.000,0.000,0.000,0.3570,0,0,-3.34,-0.18,-93.83,0.1309,0.3546,-0.2752
8139,0.3970,0.2692,0.3568,0.0347,0.1484,0.0209,0.19,0.17,-91.12,0,3.743,2.530,-2.530,-2.336,0.006,-0.016,0.000,0.000,0.000,0.000,0.3530,4,1,-3.36,-0.08,-93.93,0.1297,0.3529,-0.2252
8190,0.4008,0.2781,0.3557,0.0370,0.1530,0.0065,0.38,0.17,-91.20,0,3.732,2.274,0.845,-1.039,0.010,-0.019,0.000,0.000,0.000,0.000,0.3560,0,3,-3.25,-0.22,-94.04,0.1265,0.3526,-0.1907
8242,0.4058,0.2846,0.3560,0.0406,0.1480,0.0005,0.44,0.05,-91.23,0,3.737,-1.201,-2.805,-1.400,0.007,-0.015,0.000,0.000,0.000,0.000,0.3550,2,1,-3.16,-0.18,-94.06,0.1214,0.3527,-0.1700
8293,0.3996,0.2888,0.3555,0.0181,0.1441,-0.0044,0.46,0.14,-91.28,0,3.727,-1.283,-0.624,-0.548,0.004,-0.012,0.000,0.000,0.000,0.000,0.3520,1,2,-3.25,-0.33,-94.09,0.1167,0.3523,-0.1561
8344,0.4084,0.2989,0.3534,0.0318,0.1488,-0.0156,0.42,0.21,-91.32,0,3.732,1.372,1.384,-0.202,0.007,-0.018,0.000,0.000,0.000,0.000,0.3510,-8,3,-3.34,-0.36,-94.08,0.1125,0.3515,-0.1513
8395,0.4068,0.3039,0.3517,0.0222,0.1474,-0.0214,0.43,0.16,-91.33,0,3.727,0.713,-0.678,-1.331,0.007,-0.016,0.000,0.000,0.000,0.000,0.3520,-9,5,-3.29,-0.29,-94.06,0.1089,0.3504,-0.1526
8446,0.4066,0.3115,0.3510,0.0141,0.1493,-0.0191,0.48,0.23,-91.38,0,3.732,1.245,1.767,0.259,0.005,-0.014,0.000,0.000,0.000,0.000,0.3550,0,2,-3.27,-0.33,-94.10,0.1059,0.3489,-0.1573
8498,0.4130,0.3203,0.3522,0.0235,0.1541,-0.0082,0.51,0.17,-91.38,0,3.727,0.167,3.204,-0.212,0.008,-0.014,0.000,0.000,0.000,0.000,0.3490,0,1,-3.22,-0.24,-94.07,0.1036,0.3472,-0.1664
8549,0.4117,0.3283,0.3502,0.0113,0.1529,-0.0133,0.60,0.04,-91.41,0,3.732,1.310,2.069,-0.110,0.005,-0.015,0.000,0.000,0.000,0.000,0.3490,-4,4,-3.22,-0.08,-94.07,0.1018,0.3452,-0.1748
8608,0.4136,0.3349,0.3492,0.0108,0.1543,-0.0148,0.65,-0.07,-91.41,0,3.727,-0.691,-2.656,-1.172,0.004,-0.015,0.000,0.000,0.000,0.000,0.3490,0,1,-3.17,0.02,-94.08,0.0996,0.3429,-0.2076
8659,0.4165,0.3424,0.3485,0.0121,0.1535,-0.0128,0.58,0.03,-91.45,0,3.732,-1.117,1.525,-0.834,0.005,-0.014,0.000,0.000,0.000,0.000,0.3460,4,2,-3.06,-0.20,-94.50,0.1053,0.3402,-0.2116
8710,0.4119,0.3477,0.3468,-0.0055,0.1480,-0.0157,0.60,-0.03,-91.49,0,3.727,-1.015,1.015,-0.361,0.006,-0.015,0.000,0.000,0.000,0.000,0.3490,5,1,-3.00,-0.24,-94.98,0.0879,0.3408,-0.2811
8761,0.4127,0.3541,0.3473,-0.0071,0.1453,-0.0071,0.58,-0.08,-91.51,0,3.732,-3.370,0.108,-0.858,0.009,-0.012,0.000,0.000,0.000,0.000,0.3430,0,1,-3.24,-0.08,-94.59,0.0418,0.3604,-0.4054
8812,0.4087,0.3610,0.3450,-0.0206,0.1439,-0.0136,0.47,-0.04,-91.55,0,3.727,0.468,0.820,-0.318,0.006,-0.016,0.000,0.000,0.000,0.000,0.3400,0,2,-3.43,-0.05,-94.57,0.0298,0.3656,-0.5066
8864,0.4092,0.3675,0.3421,-0.0213,0.1418,-0.0214,0.44,-0.06,-91.59,0,3.727,1.346,-1.855,-0.060,0.003,-0.016,0.000,0.000,0.000,0.000,0.3410,-8,4,-3.44,0.01,-94.53,0.0181,0.3681,-0.5569
8915,0.4069,0.3748,0.3408,-0.0279,0.1417,-0.0190,0.46,0.03,-91.60,0,3.721,-2.707,-0.268,-0.797,0.008,-0.015,0.000,0.000,0.000,0.000,0.3420,4,0,-3.31,-0.05,-94.51,0.0206,0.3713,-0.5447
8966,0.4080,0.3822,0.3407,-0.0264,0.1428,-0.0105,0.42,0.02,-91.62,0,3.727,1.802,-1.038,0.386,0.006,-0.014,0.000,0.000,0.000,0.000,0.3430,7,1,-3.63,-0.12,-94.49,-0.0061,0.3641,-0.4929
9018,0.4098,0.3893,0.3415,-0.0212,0.1431,0.0003,0.45,0.04,-91.61,0,3.721,1.140,-1.845,-0.215,0.002,-0.018,0.000,0.000,0.000,0.000,0.3400,0,0,-3.70,-0.19,-94.34,-0.0252,0.3619,-0.4232
9068,0.4057,0.3959,0.3409,-0.0320,0.1425,0.0007,0.47,0.05,-91.62,0,3.727,-0.649,0.174,0.743,0.008,-0.014,0.000,0.000,0.000,0.000,0.3400,2,1,-3.70,-0.30,-94.30,-0.0277,0.3602,-0.3478
9120,0.4063,0.4030,0.3405,-0.0303,0.1430,0.0012,0.44,0.03,-91.60,0,3.721,1.823,0.017,0.973,0.006,-0.015,0.000,0.000,0.000,0.000,0.3430,-9,5,-3.64,-0.29,-94.39,-0.0118,0.3593,-0.2923
9172,0.4018,0.4089,0.3418,-0.0412,0.1402,0.0086,0.47,0.03,-91.57,0,3.732,-0.596,3.858,1.012,0.007,-0.015,0.000,0.000,0.000,0.000,0.3420,3,1,-3.47,-0.26,-94.36,-0.0052,0.3625,-0.2454
9224,0.4074,0.4194,0.3423,-0.0261,0.1494,0.0097,0.51,-0.06,-91.53,0,3.721,2.610,-0.630,0.613,0.001,-0.011,0.000,0.000,0.000,0.000,0.3400,4,3,-3.61,-0.10,-94.25,-0.0236,0.3559,-0.2269
9275,0.4076,0.4249,0.3416,-0.0260,0.1437,0.0039,0.62,-0.10,-91.49,0,3.727,3.575,2.542,0.228,0.004,-0.014,0.000,0.000,0.000,0.000,0.3380,0,0,-3.49,-0.12,-94.16,-0.0264,0.3576,-0.2156
9326,0.4006,0.4320,0.3400,-0.0450,0.1428,-0.0059,0.83,-0.18,-91.49,0,3.721,-0.814,0.757,0.132,0.005,-0.017,0.000,0.000,0.000,0.000,0.3410,4,0,-3.30,0.06,-94.00,-0.0280,0.3638,-0.2091
9377,0.3999,0.4393,0.3402,-0.0481,0.1418,-0.0046,0.79,-0.27,-91.47,0,3.727,-1.868,2.046,1.032,0.005,-0.012,0.000,0.000,0.000,0.000,0.3370,0,3,-3.35,0.03,-94.09,-0.0304,0.3534,-0.2120
9427,0.3962,0.4463,0.3385,-0.0574,0.1398,-0.0114,0.72,-0.28,-91.45,0,3.716,-1.312,1.192,0.016,0.001,-0.014,0.000,0.000,0.000,0.000,0.3400,1,2,-3.43,0.07,-94.19,-0.0285,0.3503,-0.2497
9479,0.3927,0.4524,0.3388,-0.0652,0.1353,-0.0071,0.76,-0.37,-91.44,0,3.727,-1.403,-2.050,-0.145,0.006,-0.012,0.000,0.000,0.000,0.000,0.3380,2,2,-3.49,0.22,-94.05,-0.0336,0.3635,-0.3185
9531,0.3867,0.4598,0.3381,-0.0768,0.1345,-0.0076,0.62,-0.24,-91.46,0,3.716,-5.318,-1.472,-1.617,0.006,-0.012,0.000,0.000,0.000,0.000,0.3420,-8,4,-3.58,0.11,-94.07,-0.0393,0.3637,-0.3662
9582,0.3770,0.4636,0.3397,-0.0964,0.1251,0.0031,0.35,-0.23,-91.50,0,3.727,-1.985,2.251,-0.243,0.002,-0.011,0.000,0.000,0.000,0.000,0.3430,5,0,-3.75,0.05,-94.16,-0.0278,0.3668,-0.3770
9634,0.3714,0.4702,0.3414,-0.1029,0.1240,0.0097,0.34,-0.34,-91.51,0,3.721,-0.294,-1.730,-0.736,0.004,-0.017,0.000,0.000,0.000,0.000,0.3420,2,0,-3.98,0.12,-94.25,-0.0478,0.3624,-0.3657
9686,0.3695,0.4757,0.3421,-0.0972,0.1200,0.0089,0.21,-0.23,-91.54,0,3.727,-5.136,0.698,-0.266,0.005,-0.015,0.000,0.000,0.000,0.000,0.3430,1,2,-4.04,0.02,-94.30,-0.0525,0.3623,-0.3385
9736,0.3591,0.4810,0.3428,-0.1125,0.1162,0.0066,0.04,-0.16,-91.55,0,3.721,1.628,-0.082,-0.553,0.006,-0.008,0.000,0.000,0.000,0.000,0.3410,1,0,-4.29,0.07,-94.27,-0.0512,0.3655,-0.2985
9788,0.3587,0.4871,0.3421,-0.1003,0.1155,-0.0012,-0.02,-0.23,-91.56,0,3.727,3.306,-1.235,-1.254,0.004,-0.012,0.000,0.000,0.000,0.000,0.3380,4,0,-4.23,0.05,-94.36,-0.0549,0.3636,-0.2677
9838,0.3410,0.4890,0.3399,-0.1317,0.1042,-0.0144,0.25,-0.25,-91.58,0,3.716,-6.080,-0.436,0.303,0.006,-0.012,0.000,0.000,0.000,0.000,0.3400,0,0,-4.10,-0.02,-94.40,-0.0626,0.3646,-0.2371
9890,0.3396,0.4958,0.3393,-0.1208,0.1063,-0.0165,-0.13,-0.16,-91.60,0,3.721,-1.749,0.924,0.450,0.004,-0.011,0.000,0.000,0.000,0.000,0.3390,0,1,-4.43,-0.02,-94.30,-0.0690,0.3673,-0.2197
9942,0.3281,0.4999,0.3384,-0.1331,0.1020,-0.0182,-0.23,-0.18,-91.58,0,3.716,0.475,0.129,-0.817,0.008,-0.013,0.000,0.000,0.000,0.000,0.3380,2,2,-4.46,0.01,-94.40,-0.0625,0.3642,-0.2137
9992,0.3271,0.5058,0.3375,-0.1184,0.1024,-0.0179,-0.25,-0.16,-91.60,0,3.721,3.156,-0.913,-0.501,0.004,-0.014,0.000,0.000,0.000,0.000,0.3370,4,0,-4.42,-0.01,-94.52,-0.0692,0.3645,-0.2306
10044,0.3160,0.5093,0.3365,-0.1289,0.0969,-0.0182,-0.07,-0.18,-91.61,0,3.716,-2.658,-0.423,-0.352,0.004,-0.017,0.000,0.000,0.000,0.000,0.3330,-11,4,-4.35,-0.03,-94.37,-0.0889,0.3685,-0.2907
10094,0.3036,0.5131,0.3340,-0.1422,0.0932,-0.0245,-0.25,-0.18,-91.62,0,3.721,-4.014,-1.277,-0.732,0.007,-0.015,0.000,0.000,0.000,0.000,0.3370,5,0,-4.33,-0.03,-94.40,-0.0745,0.3711,-0.3313
10146,0.3023,0.5174,0.3344,-0.1275,0.0902,-0.0154,-0.37,-0.22,-91.65,0,3.711,5.130,-0.144,-0.841,0.003,-0.014,0.000,0.000,0.000,0.000,0.3320,4,0,-4.67,-0.12,-94.41,-0.1018,0.3685,-0.3566
10197,0.2874,0.5198,0.3326,-0.1452,0.0832,-0.0176,-0.06,-0.26,-91.67,0,3.716,0.298,-0.284,-1.229,0.002,-0.017,0.000,0.000,0.000,0.000,0.3300,0,2,-4.50,-0.14,-94.43,-0.1167,0.3675,-0.3543
10248,0.2899,0.5245,0.3307,-0.1205,0.0827,-0.0214,-0.17,-0.20,-91.74,0,3.711,-3.357,0.860,-0.832,0.006,-0.017,0.000,0.000,0.000,0.000,0.3330,7,1,-4.47,-0.14,-94.42,-0.1174,0.3699,-0.3378
10300,0.2804,0.5280,0.3310,-0.1278,0.0793,-0.0123,-0.19,-0.20,-91.77,0,3.716,6.169,-0.874,-0.051,0.005,-0.016,0.000,0.000,0.000,0.000,0.3290,11,-1,-4.72,-0.11,-94.45,-0.1296,0.3680,-0.3147
10352,0.2698,0.5318,0.3295,-0.1358,0.0773,-0.0147,0.15,-0.19,-91.78,0,3.711,-2.617,0.645,0.339,0.005,-0.016,0.000,0.000,0.000,0.000,0.3270,5,0,-4.48,-0.18,-94.47,-0.1401,0.3652,-0.2889
10402,0.2698,0.5361,0.3278,-0.1184,0.0773,-0.0168,-0.11,-0.18,-91.77,0,3.716,-4.195,1.245,-0.303,0.007,-0.019,0.000,0.000,0.000,0.000,0.3220,8,0,-4.57,-0.15,-94.49,-0.1327,0.3656,-0.2640
10453,0.2603,0.5388,0.3242,-0.1255,0.0731,-0.0260,-0.24,-0.21,-91.78,0,3.706,5.368,0.196,-0.407,0.007,-0.015,0.000,0.000,0.000,0.000,0.3260,-1,2,-4.78,-0.09,-94.53,-0.1365,0.3650,-0.2508
10505,0.2561,0.5428,0.3242,-0.1174,0.0725,-0.0162,-0.10,-0.20,-91.81,0,3.716,4.298,0.769,-0.478,0.004,-0.017,0.000,0.000,0.000,0.000,0.3230,0,2,-4.48,-0.08,-94.54,-0.1362,0.3658,-0.2472
10555,0.2476,0.5461,0.3230,-0.1235,0.0699,-0.0140,0.17,-0.26,-91.82,0,3.711,0.947,1.271,-0.648,0.006,-0.018,0.000,0.000,0.000,0.000,0.3250,6,0,-4.27,-0.05,-94.56,-0.1437,0.3656,-0.2427
10607,0.2561,0.5508,0.3236,-0.0898,0.0704,-0.0022,0.14,-0.38,-91.84,0,3.716,7.962,2.968,-0.045,0.003,-0.012,0.000,0.000,0.000,0.000,0.3240,3,0,-4.29,-0.01,-94.62,-0.1563,0.3634,-0.2542
10657,0.2614,0.5567,0.3239,-0.0675,0.0731,0.0030,0.35,-0.39,-91.85,0,3.711,14.154,3.986,0.418,0.008,-0.019,0.000,0.000,0.000,0.000,0.3220,-20,9,-3.88,0.13,-94.67,-0.1595,0.3629,-0.2635
10708,0.2507,0.5577,0.3231,-0.0878,0.0638,0.0013,0.87,-0.46,-91.86,0,3.716,5.098,1.935,-0.627,0.000,-0.018,0.000,0.000,0.000,0.000,0.3250,-10,5,-3.08,0.37,-94.60,-0.1496,0.3691,-0.2740
10759,0.2610,0.5650,0.3241,-0.0618,0.0695,0.0062,1.05,-0.52,-91.88,0,3.711,4.184,3.678,-0.312,0.003,-0.015,0.000,0.000,0.000,0.000,0.3260,0,1,-2.91,0.44,-94.67,-0.1655,0.3663,-0.2789
10811,0.2634,0.5691,0.3254,-0.0587,0.0664,0.0115,1.31,-0.69,-91.89,0,3.716,9.014,2.697,-0.322,0.002,-0.014,0.000,0.000,0.000,0.000,0.3240,0,1,-2.84,0.57,-94.75,-0.1821,0.3619,-0.2917
10863,0.2606,0.5734,0.3252,-0.0689,0.0634,0.0079,1.69,-0.74,-91.94,0,3.711,-0.767,-1.147,-0.289,0.003,-0.018,0.000,0.000,0.000,0.000,0.3240,4,0,-2.40,0.70,-94.81,-0.1824,0.3641,-0.3026
10915,0.2536,0.5753,0.3249,-0.0919,0.0548,0.0033,1.81,-0.82,-91.95,0,3.716,-3.540,-3.237,-1.429,0.004,-0.012,0.000,0.000,0.000,0.000,0.3250,0,1,-2.49,0.64,-94.87,-0.1831,0.3673,-0.3021
10966,0.2506,0.5782,0.3251,-0.1021,0.0491,0.0027,1.59,-0.78,-91.99,0,3.706,-6.857,-0.679,-0.362,0.003,-0.011,0.000,0.000,0.000,0.000,0.3250,8,0,-2.63,0.49,-94.94,-0.1717,0.3723,-0.2929
11017,0.2499,0.5816,0.3251,-0.1043,0.0455,0.0007,1.30,-0.74,-92.01,0,3.716,-0.716,1.774,0.705,0.003,-0.015,0.000,0.000,0.000,0.000,0.3270,3,0,-3.01,0.46,-94.98,-0.1730,0.3742,-0.2822
11068,0.2347,0.5830,0.3260,-0.1383,0.0377,0.0027,1.26,-0.80,-91.99,0,3.706,-5.570,0.676,-0.058,0.003,-0.015,0.000,0.000,0.000,0.000,0.3220,0,1,-3.01,0.55,-94.93,-0.1668,0.3742,-0.2725
11120,0.2235,0.5843,0.3240,-0.1590,0.0304,-0.0091,1.11,-0.78,-91.99,0,3.711,-12.057,-1.046,0.600,0.001,-0.007,0.000,0.000,0.000,0.000,0.3250,6,0,-3.24,0.59,-94.92,-0.1616,0.3762,-0.2685
11170,0.2164,0.5854,0.3240,-0.1654,0.0232,-0.0094,0.63,-0.77,-91.96,0,3.706,-9.807,-4.849,0.022,0.002,-0.014,0.000,0.000,0.000,0.000,0.3240,5,0,-3.86,0.54,-94.89,-0.1642,0.3774,-0.2603
11221,0.2039,0.5858,0.3236,-0.1798,0.0155,-0.0087,0.14,-0.61,-91.93,0,3.711,-6.105,0.942,1.398,0.002,-0.009,0.000,0.000,0.000,0.000,0.3210,2,0,-4.31,0.31,-94.82,-0.1642,0.3805,-0.2583
11273,0.1876,0.5855,0.3219,-0.1978,0.0082,-0.0133,-0.18,-0.64,-91.90,0,3.706,-7.101,-0.645,1.478,0.007,-0.012,0.000,0.000,0.000,0.000,0.3230,2,0,-4.59,0.37,-94.77,-0.1663,0.3807,-0.2609
11324,0.1763,0.5850,0.3219,-0.1998,0.0004,-0.0097,-0.49,-0.71,-91.86,0,3.711,-8.013,-1.120,2.159,0.004,-0.015,0.000,0.000,0.000,0.000,0.3230,0,0,-4.94,0.33,-94.71,-0.1727,0.3807,-0.2581
11376,0.1685,0.5860,0.3220,-0.1904,-0.0029,-0.0074,-0.88,-0.59,-91.80,0,3.700,0.840,-1.928,1.599,0.005,-0.014,0.000,0.000,0.000,0.000,0.3250,0,1,-5.39,0.31,-94.53,-0.1884,0.3838,-0.2595
11428,0.1646,0.5865,0.3233,-0.1697,-0.0061,0.0001,-1.00,-0.45,-91.72,0,3.711,2.365,1.502,1.905,-0.000,-0.015,0.000,0.000,0.000,0.000,0.3210,2,-1,-5.31,0.21,-94.49,-0.1928,0.3822,-0.2616
11479,0.1557,0.5862,0.3222,-0.1624,-0.0100,-0.0048,-0.86,-0.48,-91.63,0,3.706,0.981,1.960,1.132,0.001,-0.013,0.000,0.000,0.000,0.000,0.3190,0,1,-5.22,0.27,-94.49,-0.2093,0.3820,-0.2668
11530,0.1500,0.5858,0.3204,-0.1502,-0.0141,-0.0119,-0.84,-0.55,-91.57,0,3.706,3.061,0.132,2.102,0.003,-0.014,0.000,0.000,0.000,0.000,0.3160,0,0,-5.22,0.39,-94.35,-0.2248,0.3846,-0.2881
11581,0.1409,0.5843,0.3177,-0.1477,-0.0208,-0.0201,-0.64,-0.63,-91.49,0,3.700,5.293,-0.932,2.549,0.004,-0.014,0.000,0.000,0.000,0.000,0.3210,0,0,-5.06,0.39,-94.30,-0.2334,0.3838,-0.3037
11632,0.1377,0.5836,0.3187,-0.1332,-0.0253,-0.0083,-0.42,-0.58,-91.38,0,3.711,2.812,-1.517,1.218,0.004,-0.014,0.000,0.000,0.000,0.000,0.3200,4,0,-4.81,0.33,-94.22,-0.2446,0.3842,-0.3068
11683,0.1387,0.5825,0.3191,-0.1120,-0.0295,-0.0024,-0.32,-0.50,-91.30,0,3.700,6.947,0.988,1.465,0.002,-0.015,0.000,0.000,0.000,0.000,0.3140,0,0,-4.78,0.29,-94.09,-0.2680,0.3888,-0.3055
11734,0.1376,0.5831,0.3165,-0.0990,-0.0290,-0.0111,-0.12,-0.52,-91.24,0,3.711,9.820,-1.904,1.581,0.004,-0.017,0.000,0.000,0.000,0.000,0.3190,0,-1,-4.59,0.38,-93.90,-0.2909,0.3927,-0.3024
11785,0.1185,0.5768,0.3172,-0.1311,-0.0443,-0.0035,0.55,-0.56,-91.14,0,3.700,-4.568,-1.722,1.173,0.009,-0.012,0.000,0.000,0.000,0.000,0.3140,-1,1,-4.05,0.25,-93.89,-0.2813,0.3858,-0.3108
11836,0.1183,0.5751,0.3155,-0.1214,-0.0475,-0.0094,0.43,-0.47,-91.10,0,3.706,-1.864,-0.251,0.826,0.006,-0.013,0.000,0.000,0.000,0.000,0.3150,-4,0,-4.22,0.16,-93.89,-0.2754,0.3852,-0.3268
11887,0.1010,0.5698,0.3148,-0.1501,-0.0579,-0.0080,0.33,-0.42,-91.03,0,3.700,-1.887,-0.775,0.432,0.003,-0.012,0.000,0.000,0.000,0.000,0.3150,24,-6,-4.32,0.15,-93.89,-0.2794,0.3867,-0.3455
11938,0.1000,0.5678,0.3147,-0.1390,-0.0593,-0.0047,0.49,-0.42,-90.98,0,3.706,-4.624,-1.703,0.318,0.002,-0.016,0.000,0.000,0.000,0.000,0.3120,-1,0,-4.70,0.05,-93.97,-0.3186,0.3815,-0.3483
11989,0.0740,0.5611,0.3131,-0.1818,-0.0700,-0.0085,0.15,-0.33,-90.98,0,3.700,-13.264,-1.022,0.531,0.004,-0.014,0.000,0.000,0.000,0.000,0.3130,1,-1,-4.76,0.01,-93.94,-0.2918,0.3872,-0.3638
12041,0.0886,0.5632,0.3129,-0.1301,-0.0605,-0.0040,-0.65,-0.22,-90.97,0,3.706,4.179,2.168,1.132,0.004,-0.013,0.000,0.000,0.000,0.000,0.3130,0,0,-5.31,-0.03,-93.94,-0.2800,0.3883,-0.3616
12091,0.0881,0.5625,0.3129,-0.1111,-0.0571,0.0011,-0.72,-0.27,-90.92,0,3.700,17.511,-0.934,1.497,0.003,-0.016,0.000,0.000,0.000,0.000,0.3150,-3,0,-5.13,0.09,-93.88,-0.2910,0.3878,-0.3489
12142,0.0632,0.5548,0.3140,-0.1495,-0.0702,0.0097,0.23,-0.33,-90.84,0,3.706,-0.173,0.548,0.181,0.004,-0.021,0.000,0.000,0.000,0.000,0.3130,0,0,-4.32,0.04,-93.79,-0.3042,0.3868,-0.3329
12194,0.0671,0.5531,0.3140,-0.1282,-0.0693,0.0075,0.33,-0.36,-90.80,0,3.700,-10.306,1.982,0.355,0.004,-0.015,0.000,0.000,0.000,0.000,0.3120,8,-2,-4.43,0.07,-93.75,-0.3201,0.3860,-0.3178
12246,0.0495,0.5474,0.3133,-0.1530,-0.0765,0.0028,0.02,-0.39,-90.78,0,3.706,-7.953,1.257,-1.119,0.001,-0.014,0.000,0.000,0.000,0.000,0.3140,1,0,-4.93,0.14,-93.80,-0.3145,0.3828,-0.3083
12298,0.0356,0.5423,0.3138,-0.1657,-0.0826,0.0044,-0.42,-0.43,-90.82,0,3.700,-0.983,1.486,-2.386,0.000,-0.016,0.000,0.000,0.000,0.000,0.3190,-10,2,-5.27,0.21,-93.88,-0.3104,0.3835,-0.2992
12349,0.0337,0.5400,0.3167,-0.1483,-0.0824,0.0167,-0.70,-0.42,-90.94,0,3.706,0.664,0.224,-3.136,0.002,-0.013,0.000,0.000,0.000,0.000,0.3150,3,-1,-5.26,0.29,-93.97,-0.3078,0.3852,-0.2941
12399,0.0275,0.5377,0.3166,-0.1413,-0.0823,0.0115,-0.62,-0.51,-91.08,0,3.700,-0.707,0.604,-2.773,0.005,-0.016,0.000,0.000,0.000,0.000,0.3170,-3,0,-5.33,0.25,-94.24,-0.3296,0.3843,-0.2862
12451,0.0130,0.5296,0.3173,-0.1520,-0.0954,0.0108,-0.65,-0.59,-91.24,0,3.706,-3.545,-3.481,-4.474,0.005,-0.014,0.000,0.000,0.000,0.000,0.3170,-4,-1,-5.37,0.27,-94.39,-0.3345,0.3854,-0.2943
12502,-0.0024,0.5221,0.3175,-0.1650,-0.1065,0.0066,-0.71,-0.56,-91.44,0,3.695,-2.621,-3.384,-5.924,0.003,-0.014,0.000,0.000,0.000,0.000,0.3180,-1,-1,-5.53,0.07,-94.60,-0.3363,0.3864,-0.2916
12554,-0.0107,0.5170,0.3179,-0.1654,-0.1122,0.0062,-0.84,-0.34,-91.74,0,3.700,-1.583,2.948,-6.443,0.001,-0.015,0.000,0.000,0.000,0.000,0.3150,-1,0,-5.71,-0.13,-94.86,-0.3495,0.3883,-0.2928
12604,-0.0249,0.5092,0.3166,-0.1729,-0.1206,-0.0032,-0.91,-0.43,-92.07,0,3.695,-8.838,-3.469,-1.644,0.003,-0.012,0.000,0.000,0.000,0.000,0.3160,-3,0,-5.81,-0.01,-95.23,-0.3564,0.3888,-0.2835
12655,-0.0390,0.5015,0.3162,-0.1795,-0.1288,-0.0051,-1.16,-0.35,-92.20,0,3.706,-5.107,-8.292,-0.075,0.002,-0.013,0.000,0.000,0.000,0.000,0.3170,0,-1,-6.23,-0.18,-95.30,-0.3585,0.3897,-0.2776
12707,-0.0392,0.4972,0.3164,-0.1466,-0.1252,-0.0022,-1.44,-0.02,-92.20,0,3.695,0.156,-5.260,0.777,0.002,-0.015,0.000,0.000,0.000,0.000,0.3170,0,-1,-6.52,-0.58,-95.15,-0.3699,0.3909,-0.2721
12758,-0.0425,0.4943,0.3167,-0.1312,-0.1211,-0.0003,-1.53,0.20,-92.15,0,3.700,3.669,0.126,0.548,0.001,-0.017,0.000,0.000,0.000,0.000,0.3140,-3,0,-6.54,-0.82,-95.00,-0.3811,0.3906,-0.2654
12809,-0.0444,0.4888,0.3154,-0.1081,-0.1183,-0.0074,-1.44,0.23,-92.10,0,3.695,3.675,1.962,2.777,0.004,-0.017,0.000,0.000,0.000,0.000,0.3150,-1,0,-6.37,-0.81,-94.98,-0.3893,0.3889,-0.2596
12860,-0.0489,0.4834,0.3149,-0.0952,-0.1162,-0.0082,-1.26,0.13,-91.96,0,3.700,5.637,1.759,4.296,-0.001,-0.018,0.000,0.000,0.000,0.000,0.3120,-4,-1,-6.24,-0.71,-94.85,-0.4028,0.3849,-0.2568
12911,-0.0533,0.4776,0.3132,-0.0855,-0.1158,-0.0126,-0.94,-0.03,-91.75,0,3.690,6.621,4.175,5.366,0.000,-0.019,0.000,0.000,0.000,0.000,0.3100,-1,-1,-5.98,-0.62,-94.70,-0.4103,0.3819,-0.2557
12962,-0.0489,0.4753,0.3112,-0.0584,-0.1084,-0.0171,-0.67,-0.16,-91.51,0,3.695,8.185,0.779,4.546,0.002,-0.021,0.000,0.000,0.000,0.000,0.3120,-1,-3,-5.71,-0.40,-94.42,-0.4239,0.3783,-0.2561
13014,-0.0467,0.4712,0.3110,-0.0410,-0.1065,-0.0123,-0.33,-0.21,-91.25,0,3.690,6.203,6.140,4.862,0.002,-0.018,0.000,0.000,0.000,0.000,0.3080,0,0,-5.35,-0.37,-94.19,-0.4342,0.3752,-0.2605
13064,-0.0486,0.4659,0.3091,-0.0375,-0.1083,-0.0165,-0.03,-0.46,-91.01,0,3.695,2.820,4.783,4.969,0.003,-0.018,0.000,0.000,0.000,0.000,0.3080,-4,1,-5.07,-0.01,-93.85,-0.4430,0.3751,-0.2594
13116,-0.0428,0.4612,0.3080,-0.0187,-0.1101,-0.0153,0.03,-0.65,-90.76,0,3.690,3.656,1.720,4.010,0.003,-0.018,0.000,0.000,0.000,0.000,0.3120,0,-1,-4.93,0.21,-93.68,-0.4439,0.3713,-0.2670
13168,-0.0457,0.4549,0.3094,-0.0245,-0.1177,-0.0014,0.24,-0.79,-90.55,0,3.700,6.454,-0.698,4.209,0.004,-0.016,0.000,0.000,0.000,0.000,0.3110,-4,-1,-4.78,0.29,-93.53,-0.4497,0.3722,-0.2734
13219,-0.0418,0.4512,0.3102,-0.0145,-0.1190,0.0059,0.44,-0.72,-90.33,0,3.690,1.670,0.155,4.507,0.002,-0.014,0.000,0.000,0.000,0.000,0.3060,-3,-1,-4.45,0.29,-93.28,-0.4508,0.3761,-0.2818
13270,-0.0420,0.4451,0.3085,-0.0175,-0.1252,-0.0016,0.58,-0.68,-90.12,0,3.695,-4.494,0.194,2.001,-0.000,-0.011,0.000,0.000,0.000,0.000,0.3060,9,-6,-4.37,0.31,-93.08,-0.4521,0.3782,-0.2877
13321,-0.0351,0.4412,0.3073,-0.0029,-0.1248,-0.0044,0.39,-0.75,-89.98,0,3.690,0.217,-2.326,1.652,0.004,-0.013,0.000,0.000,0.000,0.000,0.3080,8,-6,-4.68,0.29,-93.04,-0.4632,0.3780,-0.2914
13371,-0.0390,0.4328,0.3075,-0.0143,-0.1356,0.0015,0.31,-0.69,-89.87,0,3.695,-2.946,-3.403,1.672,-0.003,-0.014,0.000,0.000,0.000,0.000,0.3060,-1,-2,-4.67,0.19,-92.97,-0.4610,0.3814,-0.2899
13423,-0.0434,0.4245,0.3069,-0.0262,-0.1446,0.0022,0.22,-0.50,-89.77,0,3.690,-4.963,-3.158,0.872,-0.006,-0.014,0.000,0.000,0.000,0.000,0.3100,9,-6,-4.73,0.08,-92.80,-0.4501,0.3893,-0.2954
13473,-0.0395,0.4194,0.3087,-0.0153,-0.1435,0.0142,0.09,-0.37,-89.72,0,3.700,-4.209,0.278,1.685,-0.001,-0.010,0.000,0.000,0.000,0.000,0.3130,-3,-1,-5.04,-0.08,-92.76,-0.4614,0.3891,-0.2912
13525,-0.0453,0.4089,0.3114,-0.0282,-0.1546,0.0274,-0.14,-0.30,-89.65,0,3.690,-2.281,-5.404,-0.161,-0.001,-0.012,0.000,0.000,0.000,0.000,0.3110,-4,0,-5.17,-0.02,-92.67,-0.4524,0.3932,-0.3008
13576,-0.0449,0.4025,0.3124,-0.0225,-0.1540,0.0278,-0.36,-0.04,-89.63,0,3.700,-1.711,-0.706,-1.850,-0.003,-0.014,0.000,0.000,0.000,0.000,0.3130,-1,-2,-5.24,-0.26,-92.62,-0.4538,0.3960,-0.2997
13627,-0.0507,0.3934,0.3138,-0.0323,-0.1583,0.0280,-0.33,-0.02,-89.71,0,3.690,-0.551,0.160,-3.960,-0.000,-0.011,0.000,0.000,0.000,0.000,0.3100,0,-2,-5.38,-0.32,-92.76,-0.4677,0.3932,-0.3052
13677,-0.0513,0.3867,0.3131,-0.0277,-0.1556,0.0165,-0.33,-0.04,-89.90,0,3.695,-4.138,-3.993,-5.729,-0.000,-0.015,0.000,0.000,0.000,0.000,0.3110,5,-5,-5.43,-0.34,-93.00,-0.4762,0.3914,-0.3021
13729,-0.0509,0.3799,0.3128,-0.0198,-0.1528,0.0099,-0.44,0.08,-90.19,0,3.690,-6.545,-0.249,-6.891,0.002,-0.012,0.000,0.000,0.000,0.000,0.3140,0,-2,-5.69,-0.58,-93.28,-0.4894,0.3887,-0.3019
13781,-0.0582,0.3708,0.3138,-0.0322,-0.1557,0.0119,-0.67,0.01,-90.51,0,3.695,0.713,-2.986,-5.989,-0.004,-0.013,0.000,0.000,0.000,0.000,0.3110,0,-3,-5.98,-0.61,-93.66,-0.4879,0.3902,-0.2999
13832,-0.0611,0.3631,0.3129,-0.0308,-0.1556,0.0068,-0.67,0.04,-90.77,0,3.690,-0.525,-0.922,-4.777,-0.000,-0.013,0.000,0.000,0.000,0.000,0.3130,-4,-2,-5.95,-0.79,-93.95,-0.4964,0.3886,-0.2918
13884,-0.0559,0.3571,0.3133,-0.0075,-0.1506,0.0099,-0.72,0.14,-91.01,0,3.695,-0.547,1.291,-3.958,-0.001,-0.013,0.000,0.000,0.000,0.000,0.3160,0,0,-5.97,-0.86,-94.19,-0.5033,0.3873,-0.2929
13935,-0.0596,0.3479,0.3151,-0.0093,-0.1538,0.0184,-0.74,0.14,-91.20,0,3.690,1.667,-2.496,-2.594,-0.003,-0.013,0.000,0.000,0.000,0.000,0.3150,0,-2,-6.04,-0.81,-94.32,-0.5174,0.3843,-0.2859
13986,-0.0667,0.3379,0.3158,-0.0215,-0.1589,0.0190,-0.62,0.16,-91.34,0,3.695,-1.312,-0.404,-1.354,-0.002,-0.014,0.000,0.000,0.000,0.000,0.3170,8,-4,-5.99,-0.94,-94.37,-0.5296,0.3811,-0.2792
14037,-0.0592,0.3322,0.3172,0.0061,-0.1517,0.0201,-0.72,0.21,-91.40,0,3.690,3.217,-1.084,-1.219,0.001,-0.009,0.000,0.000,0.000,0.000,0.3180,-3,-1,-6.14,-1.00,-94.36,-0.5478,0.3742,-0.2731
14088,-0.0599,0.3241,0.3183,0.0104,-0.1512,0.0188,-0.69,0.36,-91.45,0,3.695,2.701,-1.301,-1.878,-0.002,-0.015,0.000,0.000,0.000,0.000,0.3170,-1,-3,-5.92,-1.04,-94.46,-0.5433,0.3755,-0.2714
14140,-0.0585,0.3182,0.3185,0.0180,-0.1440,0.0129,-0.51,0.39,-91.52,0,3.690,-3.213,5.080,-0.003,-0.002,-0.013,0.000,0.000,0.000,0.000,0.3190,10,-5,-5.82,-1.12,-94.48,-0.5553,0.3711,-0.2730
14190,-0.0546,0.3113,0.3192,0.0301,-0.1399,0.0112,-0.52,0.19,-91.56,0,3.695,2.897,-1.320,0.154,-0.000,-0.013,0.000,0.000,0.000,0.000,0.3170,0,-2,-6.08,-0.90,-94.40,-0.5741,0.3624,-0.2712
14242,-0.0550,0.3038,0.3186,0.0305,-0.1395,0.0043,-0.48,0.11,-91.53,0,3.684,4.479,-0.127,0.736,-0.002,-0.018,0.000,0.000,0.000,0.000,0.3180,-4,0,-5.88,-0.95,-94.43,-0.5693,0.3652,-0.2813
14293,-0.0556,0.2968,0.3184,0.0286,-0.1389,0.0009,-0.27,0.16,-91.51,0,3.695,-0.917,4.184,1.683,0.002,-0.010,0.000,0.000,0.000,0.000,0.3180,0,0,-5.64,-0.93,-94.32,-0.5745,0.3653,-0.2811
14343,-0.0508,0.2909,0.3182,0.0394,-0.1351,-0.0021,-0.26,0.02,-91.44,0,3.684,-0.937,-1.941,0.847,-0.002,-0.011,0.000,0.000,0.000,0.000,0.3180,1,-1,-5.78,-0.72,-94.14,-0.5919,0.3598,-0.2775
14395,-0.0496,0.2826,0.3180,0.0398,-0.1385,-0.0039,-0.23,0.09,-91.39,0,3.690,2.097,0.048,1.455,0.000,-0.012,0.000,0.000,0.000,0.000,0.3170,-8,-1,-5.79,-0.82,-94.13,-0.5907,0.3590,-0.2832
14446,-0.0529,0.2758,0.3173,0.0277,-0.1378,-0.0059,-0.21,0.09,-91.32,0,3.690,-1.213,-0.240,0.505,-0.003,-0.016,0.000,0.000,0.000,0.000,0.3200,-1,-1,-5.63,-0.82,-94.15,-0.5883,0.3593,-0.2799
14497,-0.0505,0.2688,0.3185,0.0310,-0.1377,0.0004,-0.17,0.03,-91.29,0,3.690,-1.582,0.421,0.793,-0.002,-0.015,0.000,0.000,0.000,0.000,0.3150,9,-4,-5.77,-0.83,-94.00,-0.6076,0.3571,-0.2890
14548,-0.0495,0.2602,0.3168,0.0315,-0.1420,-0.0063,-0.14,-0.03,-91.27,0,3.684,-3.832,-2.740,1.258,-0.005,-0.020,0.000,0.000,0.000,0.000,0.3130,-9,-3,-5.95,-0.83,-93.88,-0.6267,0.3525,-0.2924
14599,-0.0586,0.2534,0.3147,0.0062,-0.1411,-0.0147,-0.34,0.14,-91.20,0,3.690,-4.692,-1.999,2.550,-0.005,-0.018,0.000,0.000,0.000,0.000,0.3130,9,-4,-6.01,-0.95,-93.95,-0.6097,0.3573,-0.2999
14651,-0.0546,0.2455,0.3132,0.0171,-0.1420,-0.0171,-0.49,0.23,-91.10,0,3.679,-3.691,-1.137,3.644,-0.002,-0.013,0.000,0.000,0.000,0.000,0.3150,-3,-2,-6.37,-1.02,-93.59,-0.6364,0.3547,-0.3115
14702,-0.0588,0.2377,0.3135,0.0092,-0.1423,-0.0090,-0.75,0.28,-90.94,0,3.690,-5.098,-2.776,4.983,-0.005,-0.016,0.000,0.000,0.000,0.000,0.3160,0,-2,-6.52,-1.04,-93.44,-0.6337,0.3568,-0.3313
14753,-0.0555,0.2311,0.3144,0.0225,-0.1386,-0.0002,-1.02,0.42,-90.71,0,3.684,-3.769,-0.285,5.625,0.000,-0.019,0.000,0.000,0.000,0.000,0.3130,0,-2,-6.75,-1.13,-93.17,-0.6366,0.3580,-0.3366
14804,-0.0629,0.2224,0.3137,0.0085,-0.1401,-0.0013,-1.07,0.40,-90.44,0,3.690,-0.222,1.091,5.716,-0.003,-0.017,0.000,0.000,0.000,0.000,0.3130,0,-4,-6.98,-1.11,-92.84,-0.6491,0.3558,-0.3378
14856,-0.0599,0.2151,0.3133,0.0235,-0.1375,-0.0021,-1.19,0.40,-90.15,0,3.684,-7.088,-2.761,6.595,-0.003,-0.020,0.000,0.000,0.000,0.000,0.3160,0,-2,-7.03,-1.05,-92.63,-0.6595,0.3531,-0.3325
14907,-0.0586,0.2077,0.3146,0.0340,-0.1353,0.0048,-1.51,0.49,-89.85,0,3.695,-1.099,2.483,4.725,-0.003,-0.016,0.000,0.000,0.000,0.000,0.3140,-3,-1,-7.41,-1.11,-92.14,-0.6683,0.3529,-0.3183
14958,-0.0593,0.2004,0.3146,0.0393,-0.1330,0.0039,-1.60,0.43,-89.60,0,3.684,3.644,1.080,3.757,-0.004,-0.018,0.000,0.000,0.000,0.000,0.3170,-4,-1,-7.47,-0.94,-91.89,-0.6744,0.3520,-0.3024
15010,-0.0459,0.1964,0.3159,0.0808,-0.1223,0.0081,-1.61,0.38,-89.42,0,3.695,4.717,-1.280,2.263,-0.005,-0.021,0.000,0.000,0.000,0.000,0.3190,-8,-1,-7.33,-0.87,-91.69,-0.6871,0.3497,-0.2898
15060,-0.0448,0.1906,0.3177,0.0858,-0.1185,0.0113,-1.37,0.39,-89.27,0,3.684,5.774,0.634,1.604,-0.006,-0.024,0.000,0.000,0.000,0.000,0.3150,-5,-1,-7.11,-0.91,-91.48,-0.6966,0.3478,-0.2730
15112,-0.0379,0.1841,0.3168,0.1021,-0.1168,0.0011,-1.08,0.37,-89.22,0,3.690,6.457,1.481,0.100,-0.004,-0.023,0.000,0.000,0.000,0.000,0.3160,2,-3,-6.90,-0.87,-91.29,-0.7144,0.3445,-0.2667
15163,-0.0288,0.1794,0.3163,0.1199,-0.1111,-0.0054,-0.72,0.32,-89.23,0,3.679,5.175,-1.332,-0.231,-0.004,-0.024,0.000,0.000,0.000,0.000,0.3140,0,-1,-6.67,-0.80,-91.22,-0.7330,0.3401,-0.2608
15213,-0.0207,0.1734,0.3148,0.1312,-0.1094,-0.0139,-0.47,0.33,-89.25,0,3.690,3.324,-0.510,-0.098,-0.003,-0.021,0.000,0.000,0.000,0.000,0.3130,9,-3,-6.43,-0.85,-91.12,-0.7382,0.3398,-0.2563
15265,-0.0141,0.1677,0.3132,0.1359,-0.1073,-0.0197,-0.24,0.33,-89.29,0,3.674,1.943,-2.315,-0.616,-0.004,-0.020,0.000,0.000,0.000,0.000,0.3100,-4,0,-6.35,-0.88,-91.03,-0.7532,0.3357,-0.2604
15316,-0.0075,0.1618,0.3108,0.1389,-0.1057,-0.0262,-0.28,0.44,-89.31,0,3.684,-0.070,-6.943,-0.838,-0.004,-0.018,0.000,0.000,0.000,0.000,0.3170,-9,-2,-6.18,-0.98,-91.05,-0.7435,0.3381,-0.2703
15367,-0.0037,0.1569,0.3127,0.1327,-0.1014,-0.0090,-0.22,0.60,-89.36,0,3.679,0.924,-1.479,-1.239,-0.005,-0.016,0.000,0.000,0.000,0.000,0.3100,0,-2,-6.13,-1.31,-91.04,-0.7393,0.3386,-0.2713
15419,0.0069,0.1514,0.3111,0.1431,-0.0974,-0.0120,-0.09,0.69,-89.44,0,3.684,2.903,1.310,-0.309,-0.005,-0.014,0.000,0.000,0.000,0.000,0.3060,1,-2,-6.17,-1.39,-90.95,-0.7581,0.3332,-0.2889
15470,0.0156,0.1463,0.3081,0.1473,-0.0917,-0.0195,0.10,0.68,-89.51,0,3.674,1.266,-1.140,-1.848,-0.005,-0.018,0.000,0.000,0.000,0.000,0.3060,-5,-1,-6.04,-1.32,-90.94,-0.7644,0.3299,-0.2966
15522,0.0199,0.1408,0.3064,0.1392,-0.0887,-0.0193,0.21,0.60,-89.60,0,3.684,-2.172,-0.435,-1.797,-0.003,-0.016,0.000,0.000,0.000,0.000,0.3070,0,-2,-5.94,-1.38,-91.10,-0.7606,0.3304,-0.3014
15574,0.0253,0.1355,0.3059,0.1333,-0.0861,-0.0143,0.21,0.58,-89.70,0,3.674,-1.833,1.761,-1.249,0.001,-0.016,0.000,0.000,0.000,0.000,0.3060,0,-1,-6.09,-1.42,-91.12,-0.7701,0.3256,-0.3001
15625,0.0348,0.1322,0.3055,0.1390,-0.0787,-0.0085,0.09,0.56,-89.77,0,3.684,-1.161,0.478,-1.919,-0.003,-0.016,0.000,0.000,0.000,0.000,0.3050,-1,-1,-6.20,-1.34,-91.18,-0.7743,0.3222,-0.2960
15677,0.0361,0.1282,0.3050,0.1246,-0.0745,-0.0049,0.10,0.53,-89.86,0,3.674,-3.251,2.487,-3.230,-0.006,-0.017,0.000,0.000,0.000,0.000,0.3010,5,-2,-6.25,-1.33,-91.29,-0.7763,0.3204,-0.2937
15729,0.0492,0.1246,0.3028,0.1415,-0.0698,-0.0105,-0.09,0.42,-89.99,0,3.684,-0.876,1.503,-2.400,-0.001,-0.013,0.000,0.000,0.000,0.000,0.3060,-9,0,-6.46,-1.23,-91.40,-0.7883,0.3153,-0.2924
15780,0.0573,0.1222,0.3040,0.1456,-0.0637,0.0011,-0.29,0.38,-90.09,0,3.679,2.394,0.458,-2.339,-0.002,-0.015,0.000,0.000,0.000,0.000,0.3080,-8,0,-6.40,-1.17,-91.68,-0.7753,0.3190,-0.2896
15832,0.0679,0.1199,0.3061,0.1555,-0.0585,0.0139,-0.23,0.34,-90.20,0,3.684,3.686,4.135,-1.757,-0.002,-0.014,0.000,0.000,0.000,0.000,0.3050,0,1,-6.29,-1.16,-91.77,-0.7849,0.3176,-0.2865
15883,0.0815,0.1172,0.3062,0.1716,-0.0553,0.0132,-0.07,0.22,-90.32,0,3.679,-0.381,1.099,-0.877,-0.000,-0.015,0.000,0.000,0.000,0.000,0.3010,-1,-2,-6.20,-0.96,-91.74,-0.8073,0.3125,-0.2925
15934,0.0925,0.1155,0.3042,0.1781,-0.0509,0.0024,-0.02,0.15,-90.42,0,3.684,2.398,-2.388,-0.282,-0.003,-0.015,0.000,0.000,0.000,0.000,0.3040,-1,-2,-6.22,-0.94,-91.83,-0.8111,0.3096,-0.2983
15984,0.0924,0.1116,0.3043,0.1556,-0.0530,0.0045,0.22,0.24,-90.47,0,3.679,1.578,2.336,0.699,0.000,-0.016,0.000,0.000,0.000,0.000,0.3040,1,-2,-6.12,-1.05,-91.79,-0.8176,0.3106,-0.2952
16036,0.1034,0.1103,0.3044,0.1618,-0.0471,0.0057,0.37,0.26,-90.45,0,3.684,-3.757,0.951,-0.453,-0.001,-0.013,0.000,0.000,0.000,0.000,0.3040,-9,0,-6.09,-0.93,-91.73,-0.8281,0.3096,-0.2985
16088,0.1130,0.1072,0.3045,0.1632,-0.0470,0.0054,0.11,0.13,-90.44,0,3.674,2.249,0.169,0.438,-0.003,-0.013,0.000,0.000,0.000,0.000,0.3020,2,-3,-6.20,-0.87,-91.81,-0.8188,0.3131,-0.3014
16138,0.1237,0.1065,0.3035,0.1678,-0.0419,0.0014,0.23,0.13,-90.45,0,3.679,3.608,-0.210,-0.651,-0.002,-0.017,0.000,0.000,0.000,0.000,0.3060,-9,0,-6.17,-0.88,-91.75,-0.8381,0.3107,-0.2974
16190,0.1236,0.1015,0.3049,0.1447,-0.0479,0.0095,0.44,0.14,-90.48,0,3.679,-5.334,-2.332,-1.934,-0.003,-0.015,0.000,0.000,0.000,0.000,0.3080,5,-3,-5.97,-0.87,-91.78,-0.8380,0.3137,-0.3127
16241,0.1284,0.0987,0.3069,0.1341,-0.0479,0.0175,0.43,0.17,-90.57,0,3.684,-3.314,-1.432,-3.031,-0.006,-0.015,0.000,0.000,0.000,0.000,0.3110,-1,-1,-6.33,-1.00,-91.81,-0.8562,0.3117,-0.3166
16292,0.1321,0.0959,0.3097,0.1241,-0.0472,0.0254,0.20,0.25,-90.69,0,3.679,-3.839,-3.487,-3.879,-0.002,-0.013,0.000,0.000,0.000,0.000,0.3100,0,-2,-6.48,-1.07,-91.95,-0.8573,0.3142,-0.3231
16344,0.1418,0.0948,0.3108,0.1314,-0.0418,0.0237,0.03,0.35,-90.84,0,3.684,-3.211,-0.660,-3.826,-0.001,-0.013,0.000,0.000,0.000,0.000,0.3090,0,2,-6.66,-1.26,-92.13,-0.8601,0.3153,-0.3236
16396,0.1431,0.0896,0.3110,0.1182,-0.0464,0.0166,-0.03,0.42,-91.02,0,3.679,-7.298,-0.712,-2.886,0.000,-0.010,0.000,0.000,0.000,0.000,0.3070,-4,0,-6.84,-1.27,-92.25,-0.8685,0.3164,-0.3212
16446,0.1490,0.0888,0.3096,0.1195,-0.0396,0.0042,-0.37,0.41,-91.19,0,3.684,-2.110,-6.362,-1.292,-0.001,-0.012,0.000,0.000,0.000,0.000,0.3090,8,-4,-7.16,-1.34,-92.52,-0.8655,0.3164,-0.3090
16497,0.1560,0.0874,0.3095,0.1250,-0.0348,0.0014,-0.50,0.64,-91.26,0,3.674,-0.654,-4.490,0.461,-0.003,-0.011,0.000,0.000,0.000,0.000,0.3080,-5,0,-7.38,-1.69,-92.46,-0.8896,0.3093,-0.3008
16549,0.1572,0.0844,0.3089,0.1213,-0.0309,-0.0008,-0.61,0.88,-91.26,0,3.679,-3.633,2.781,-0.043,-0.003,-0.009,0.000,0.000,0.000,0.000,0.3130,-1,0,-7.34,-1.86,-92.41,-0.8852,0.3139,-0.3088
16600,0.1667,0.0829,0.3109,0.1311,-0.0251,0.0102,-0.77,0.79,-91.25,0,3.674,2.585,-3.242,0.182,-0.002,-0.009,0.000,0.000,0.000,0.000,0.3110,-9,0,-7.53,-1.72,-92.45,-0.8933,0.3110,-0.3030
16651,0.1759,0.0836,0.3115,0.1439,-0.0141,0.0118,-0.77,0.80,-91.23,0,3.684,7.462,-3.434,-0.045,-0.004,-0.011,0.000,0.000,0.000,0.000,0.3120,-4,1,-7.37,-1.89,-92.46,-0.8981,0.3089,-0.3084
16701,0.1895,0.0831,0.3122,0.1653,-0.0070,0.0134,-0.47,0.90,-91.22,0,3.674,9.024,6.810,0.948,0.002,-0.016,0.000,0.000,0.000,0.000,0.3100,-10,0,-7.08,-2.03,-92.14,-0.9202,0.2991,-0.3012
16753,0.1954,0.0822,0.3117,0.1624,-0.0020,0.0063,-0.11,0.60,-91.18,0,3.684,4.568,1.795,1.333,0.000,-0.013,0.000,0.000,0.000,0.000,0.3090,-5,0,-6.66,-1.73,-92.17,-0.9305,0.2915,-0.3067
16804,0.2032,0.0805,0.3106,0.1608,-0.0014,-0.0026,0.27,0.43,-91.13,0,3.674,-1.105,-2.399,0.186,-0.001,-0.013,0.000,0.000,0.000,0.000,0.3140,0,-2,-6.50,-1.65,-92.01,-0.9466,0.2830,-0.3013
16855,0.2138,0.0822,0.3121,0.1643,0.0067,0.0032,0.30,0.57,-91.11,0,3.679,-1.415,-0.796,-1.921,-0.004,-0.012,0.000,0.000,0.000,0.000,0.3080,-2,-1,-6.63,-1.78,-91.83,-0.9607,0.2751,-0.2961
16905,0.2265,0.0822,0.3102,0.1733,0.0111,-0.0053,0.17,0.65,-91.20,0,3.669,4.289,1.655,-1.163,-0.000,-0.012,0.000,0.000,0.000,0.000,0.3080,-4,0,-6.69,-1.82,-91.91,-0.9596,0.2748,-0.2886
16957,0.2366,0.0821,0.3089,0.1757,0.0147,-0.0073,0.32,0.63,-91.29,0,3.679,2.128,-1.482,-1.661,-0.003,-0.014,0.000,0.000,0.000,0.000,0.3120,-5,0,-6.48,-1.74,-91.94,-0.9634,0.2721,-0.2854
17007,0.2427,0.0818,0.3102,0.1710,0.0169,0.0027,0.50,0.71,-91.36,0,3.674,-0.897,-2.149,-1.216,-0.002,-0.009,0.000,0.000,0.000,0.000,0.3120,0,0,-6.38,-1.83,-91.96,-0.9674,0.2695,-0.2760
17059,0.2491,0.0822,0.3113,0.1619,0.0216,0.0100,0.46,0.71,-91.43,0,3.679,1.916,-1.241,-1.605,-0.001,-0.014,0.000,0.000,0.000,0.000,0.3100,0,0,-6.49,-1.94,-91.87,-0.9800,0.2625,-0.2738
17110,0.2571,0.0828,0.3111,0.1579,0.0263,0.0087,0.58,0.78,-91.51,0,3.674,-1.037,2.364,-0.924,-0.006,-0.011,0.000,0.000,0.000,0.000,0.3110,0,0,-6.45,-2.02,-91.80,-0.9909,0.2549,-0.2686
17161,0.2601,0.0826,0.3115,0.1419,0.0294,0.0098,0.61,0.71,-91.58,0,3.679,-6.450,2.183,0.417,0.000,-0.012,0.000,0.000,0.000,0.000,0.3090,3,-1,-6.56,-1.91,-91.73,-0.9996,0.2475,-0.2645
17213,0.2592,0.0819,0.3107,0.1184,0.0300,0.0049,0.36,0.65,-91.59,0,3.674,-4.119,-0.145,2.441,-0.001,-0.012,0.000,0.000,0.000,0.000,0.3100,0,0,-6.73,-1.79,-92.04,-0.9812,0.2584,-0.2736
17264,0.2678,0.0863,0.3106,0.1207,0.0419,0.0042,0.15,0.67,-91.49,0,3.679,-1.149,1.307,3.101,-0.000,-0.015,0.000,0.000,0.000,0.000,0.3090,0,0,-6.77,-1.79,-92.29,-0.9708,0.2706,-0.2762
17315,0.2738,0.0885,0.3100,0.1195,0.0476,0.0010,0.06,0.68,-91.35,0,3.674,-4.217,3.238,4.127,0.005,-0.011,0.000,0.000,0.000,0.000,0.3120,1,0,-6.71,-1.71,-92.42,-0.9766,0.2794,-0.2763
17366,0.2836,0.0940,0.3110,0.1257,0.0598,0.0050,-0.18,0.57,-91.14,0,3.679,-0.048,-0.272,4.789,-0.002,-0.016,0.000,0.000,0.000,0.000,0.3090,0,2,-7.13,-1.52,-91.96,-1.0308,0.2669,-0.3061
17417,0.2835,0.0959,0.3103,0.1134,0.0619,0.0010,-0.14,0.51,-90.90,0,3.669,0.039,2.189,4.874,-0.003,-0.014,0.000,0.000,0.000,0.000,0.3100,-8,4,-7.33,-1.48,-91.31,-1.0693,0.2523,-0.3865
17469,0.2851,0.0988,0.3102,0.1080,0.0660,0.0014,-0.17,0.39,-90.64,0,3.679,-4.417,-0.982,4.893,-0.001,-0.010,0.000,0.000,0.000,0.000,0.3110,0,1,-7.20,-1.31,-91.06,-1.0528,0.2529,-0.4638
17520,0.2885,0.1009,0.3107,0.1040,0.0659,0.0046,-0.22,0.24,-90.41,0,3.669,-0.528,0.456,3.435,-0.001,-0.010,0.000,0.000,0.000,0.000,0.3130,-1,2,-7.49,-1.35,-90.73,-1.0623,0.2456,-0.4934
17570,0.2969,0.1049,0.3120,0.1131,0.0694,0.0107,-0.35,0.25,-90.23,0,3.679,3.387,-0.119,2.714,-0.002,-0.012,0.000,0.000,0.000,0.000,0.3130,3,0,-7.59,-1.31,-90.47,-1.0693,0.2405,-0.4803
17622,0.3100,0.1116,0.3129,0.1323,0.0786,0.0126,-0.31,0.36,-90.10,0,3.669,3.580,2.247,1.780,-0.002,-0.012,0.000,0.000,0.000,0.000,0.3100,-9,3,-7.55,-1.33,-90.29,-1.0828,0.2352,-0.4476
17673,0.3003,0.1105,0.3121,0.1005,0.0708,0.0054,-0.16,0.31,-90.00,0,3.679,0.432,0.263,1.198,0.001,-0.011,0.000,0.000,0.000,0.000,0.3100,3,0,-7.29,-1.19,-90.21,-1.0668,0.2377,-0.4012
17724,0.3151,0.1160,0.3112,0.1215,0.0772,-0.0027,-0.09,0.27,-89.95,0,3.669,1.658,-3.138,1.581,0.002,-0.012,0.000,0.000,0.000,0.000,0.3080,-5,2,-7.41,-1.20,-90.15,-1.0834,0.2349,-0.3524
17774,0.3156,0.1186,0.3095,0.1111,0.0770,-0.0111,-0.03,0.37,-89.88,0,3.674,0.756,-3.037,0.929,-0.001,-0.010,0.000,0.000,0.000,0.000,0.3070,-9,3,-7.30,-1.33,-90.03,-1.0764,0.2371,-0.3147
17825,0.3232,0.1235,0.3078,0.1152,0.0820,-0.0170,-0.04,0.53,-89.84,0,3.669,3.664,-0.390,1.517,0.001,-0.011,0.000,0.000,0.000,0.000,0.3100,-5,2,-7.22,-1.45,-89.94,-1.0689,0.2396,-0.2804
17877,0.3303,0.1265,0.3082,0.1176,0.0837,-0.0099,0.13,0.48,-89.76,0,3.679,4.826,-1.553,0.914,-0.000,-0.013,0.000,0.000,0.000,0.000,0.3110,-5,1,-7.09,-1.47,-89.86,-1.0783,0.2380,-0.2591
17928,0.3392,0.1317,0.3092,0.1219,0.0897,-0.0023,0.35,0.55,-89.70,0,3.669,3.690,-0.843,0.844,-0.001,-0.011,0.000,0.000,0.000,0.000,0.3080,-8,4,-6.86,-1.54,-89.83,-1.0809,0.2384,-0.2438
17980,0.3469,0.1359,0.3085,0.1221,0.0935,-0.0041,0.55,0.54,-89.66,0,3.679,2.205,1.410,0.119,0.004,-0.010,0.000,0.000,0.000,0.000,0.3110,-1,2,-6.66,-1.55,-89.78,-1.0789,0.2417,-0.2348
18031,0.3565,0.1407,0.3096,0.1245,0.0977,0.0022,0.68,0.43,-89.65,0,3.669,0.695,0.666,-0.546,0.004,-0.011,0.000,0.000,0.000,0.000,0.3050,0,1,-6.58,-1.50,-89.79,-1.0860,0.2380,-0.2282
18082,0.3587,0.1478,0.3074,0.1106,0.1059,-0.0084,0.79,0.42,-89.66,0,3.674,-1.810,-1.162,0.361,0.002,-0.013,0.000,0.000,0.000,0.000,0.3080,0,0,-6.54,-1.48,-89.85,-1.0865,0.2374,-0.2296
18134,0.3535,0.1503,0.3074,0.0811,0.1031,-0.0071,0.80,0.42,-89.66,0,3.663,-5.556,-0.107,0.983,0.003,-0.015,0.000,0.000,0.000,0.000,0.3050,0,0,-6.65,-1.53,-89.82,-1.0910,0.2375,-0.2344
18185,0.3617,0.1555,0.3059,0.0837,0.1066,-0.0135,0.51,0.37,-89.64,0,3.674,-2.776,0.771,0.543,0.006,-0.009,0.000,0.000,0.000,0.000,0.3040,-5,2,-6.96,-1.52,-89.75,-1.0975,0.2358,-0.2368
18236,0.3579,0.1592,0.3045,0.0622,0.1061,-0.0171,0.37,0.36,-89.61,0,3.663,-1.368,-1.090,0.701,0.003,-0.015,0.000,0.000,0.000,0.000,0.3020,-4,3,-6.99,-1.50,-89.87,-1.0873,0.2375,-0.2448
18288,0.3599,0.1632,0.3026,0.0560,0.1062,-0.0201,0.31,0.41,-89.58,0,3.669,-4.746,-0.827,-1.013,-0.000,-0.013,0.000,0.000,0.000,0.000,0.3040,0,2,-7.02,-1.54,-89.84,-1.0953,0.2393,-0.2654
18340,0.3684,0.1700,0.3025,0.0655,0.1125,-0.0129,0.06,0.51,-89.63,0,3.663,-1.448,0.346,-2.234,0.001,-0.012,0.000,0.000,0.000,0.000,0.3070,4,0,-7.31,-1.56,-89.82,-1.1144,0.2369,-0.3137
18391,0.3683,0.1754,0.3043,0.0581,0.1159,0.0015,0.03,0.49,-89.73,0,3.679,2.083,1.166,-2.960,-0.002,-0.010,0.000,0.000,0.000,0.000,0.3110,0,1,-7.40,-1.59,-89.96,-1.1284,0.2325,-0.3405
18443,0.3705,0.1797,0.3077,0.0568,0.1168,0.0187,0.03,0.48,-89.89,0,3.669,1.617,-0.428,-4.272,0.002,-0.012,0.000,0.000,0.000,0.000,0.3010,-2,1,-7.29,-1.55,-90.10,-1.1386,0.2309,-0.3520
18494,0.3690,0.1836,0.3052,0.0468,0.1167,0.0021,0.08,0.49,-90.08,0,3.674,0.486,-1.565,-4.971,0.003,-0.017,0.000,0.000,0.000,0.000,0.3010,0,2,-7.21,-1.60,-90.30,-1.1477,0.2293,-0.3464
18545,0.3723,0.1881,0.3033,0.0480,0.1178,-0.0086,0.11,0.56,-90.32,0,3.663,1.128,-1.627,-4.786,0.005,-0.016,0.000,0.000,0.000,0.000,0.2990,4,0,-7.24,-1.70,-90.46,-1.1638,0.2258,-0.3334
18597,0.3754,0.1934,0.3008,0.0492,0.1208,-0.0184,0.18,0.60,-90.57,0,3.669,1.102,0.679,-5.003,0.003,-0.017,0.000,0.000,0.000,0.000,0.2990,0,3,-7.26,-1.84,-90.63,-1.1814,0.2194,-0.3215
18647,0.3752,0.1989,0.2991,0.0421,0.1247,-0.0196,0.23,0.61,-90.84,0,3.658,0.089,1.060,-5.244,0.002,-0.018,0.000,0.000,0.000,0.000,0.2990,-1,2,-7.19,-1.82,-90.88,-1.1842,0.2200,-0.3046
18698,0.3749,0.2046,0.2984,0.0348,0.1282,-0.0151,0.29,0.53,-91.10,0,3.669,-0.225,1.209,-4.911,0.004,-0.016,0.000,0.000,0.000,0.000,0.2980,-1,2,-7.18,-1.81,-91.17,-1.1900,0.2177,-0.2918
18750,0.3762,0.2103,0.2976,0.0313,0.1310,-0.0103,0.26,0.45,-91.32,0,3.663,-0.558,0.808,-3.918,0.006,-0.013,0.000,0.000,0.000,0.000,0.2980,0,3,-7.21,-1.80,-91.42,-1.1984,0.2146,-0.2873
18801,0.3814,0.2192,0.2976,0.0382,0.1405,-0.0022,0.20,0.40,-91.50,0,3.669,-0.366,2.043,-3.260,0.007,-0.017,0.000,0.000,0.000,0.000,0.2990,-6,2,-7.25,-1.78,-91.61,-1.2056,0.2127,-0.2798
18852,0.3786,0.2251,0.2983,0.0260,0.1412,0.0057,0.12,0.28,-91.66,0,3.663,0.743,1.266,-2.804,0.003,-0.017,0.000,0.000,0.000,0.000,0.2930,0,1,-7.23,-1.72,-91.86,-1.2055,0.2124,-0.2749
18904,0.3794,0.2304,0.2959,0.0229,0.1393,-0.0032,0.21,0.16,-91.77,0,3.669,1.526,-0.945,-1.800,0.008,-0.018,0.000,0.000,0.000,0.000,0.2980,0,3,-7.24,-1.69,-91.96,-1.2207,0.2080,-0.2765
18956,0.3821,0.2358,0.2969,0.0251,0.1368,0.0064,0.30,0.18,-91.85,0,3.663,1.207,-2.982,-0.730,0.008,-0.016,0.000,0.000,0.000,0.000,0.2990,-1,2,-7.19,-1.74,-91.98,-1.2303,0.2063,-0.2818
19008,0.3818,0.2439,0.2983,0.0188,0.1413,0.0139,0.36,0.28,-91.90,0,3.669,-1.148,1.142,-0.157,0.006,-0.014,0.000,0.000,0.000,0.000,0.2960,2,1,-7.13,-1.90,-91.99,-1.2348,0.2051,-0.2842
19059,0.3825,0.2507,0.2979,0.0153,0.1428,0.0101,0.38,0.23,-91.92,0,3.663,-1.888,2.832,-0.238,0.002,-0.020,0.000,0.000,0.000,0.000,0.2990,2,3,-7.22,-1.85,-91.99,-1.2445,0.2011,-0.2856
19111,0.3849,0.2558,0.2989,0.0167,0.1395,0.0135,0.28,0.17,-91.95,0,3.669,1.311,-2.011,-1.939,0.010,-0.017,0.000,0.000,0.000,0.000,0.2990,-1,2,-7.33,-1.71,-92.00,-1.2507,0.2001,-0.2885
19163,0.3843,0.2625,0.2996,0.0111,0.1403,0.0142,0.33,0.28,-92.04,0,3.663,0.005,-0.601,-2.254,0.002,-0.014,0.000,0.000,0.000,0.000,0.3010,0,3,-7.25,-1.83,-92.10,-1.2550,0.1987,-0.2893
19215,0.3848,0.2685,0.3009,0.0078,0.1400,0.0159,0.40,0.32,-92.15,0,3.669,-0.657,3.083,-1.469,0.004,-0.016,0.000,0.000,0.000,0.000,0.3000,1,4,-7.27,-1.87,-92.18,-1.2637,0.1973,-0.2890
19267,0.3864,0.2742,0.3011,0.0081,0.1390,0.0122,0.34,0.18,-92.23,0,3.663,2.369,-1.031,-1.019,0.004,-0.015,0.000,0.000,0.000,0.000,0.3000,0,1,-7.32,-1.73,-92.25,-1.2726,0.1946,-0.2890
19317,0.3865,0.2820,0.3010,0.0051,0.1428,0.0073,0.40,0.16,-92.29,0,3.669,-1.255,-1.968,-0.808,0.002,-0.018,0.000,0.000,0.000,0.000,0.3000,0,3,-7.21,-1.82,-92.33,-1.2791,0.1918,-0.2832
19369,0.3832,0.2874,0.3008,-0.0074,0.1398,0.0036,0.43,0.21,-92.32,0,3.658,-1.829,-1.276,0.245,0.005,-0.018,0.000,0.000,0.000,0.000,0.3040,1,1,-7.29,-1.90,-92.31,-1.2876,0.1918,-0.2869
19421,0.3839,0.2941,0.3025,-0.0082,0.1408,0.0094,0.32,0.23,-92.31,0,3.669,0.902,2.810,0.834,0.005,-0.017,0.000,0.000,0.000,0.000,0.3020,2,2,-7.40,-1.97,-92.29,-1.2959,0.1889,-0.2875
19472,0.3857,0.3014,0.3027,-0.0041,0.1435,0.0063,0.33,0.22,-92.28,0,3.663,-0.151,0.059,2.116,0.007,-0.019,0.000,0.000,0.000,0.000,0.3050,4,2,-7.39,-1.83,-92.25,-1.3056,0.1857,-0.2856
19523,0.3833,0.3074,0.3040,-0.0124,0.1420,0.0093,0.43,0.21,-92.17,0,3.669,-1.449,0.880,1.446,0.007,-0.016,0.000,0.000,0.000,0.000,0.3030,0,2,-7.43,-1.82,-92.10,-1.3165,0.1821,-0.2835
19575,0.3814,0.3144,0.3039,-0.0189,0.1435,0.0045,0.35,0.21,-92.10,0,3.658,0.902,0.774,1.421,0.008,-0.017,0.000,0.000,0.000,0.000,0.2990,2,2,-7.49,-1.78,-92.07,-1.3194,0.1814,-0.2870
19627,0.3850,0.3215,0.3016,-0.0093,0.1451,-0.0079,0.34,0.18,-92.03,0,3.663,3.023,0.423,1.514,0.009,-0.016,0.000,0.000,0.000,0.000,0.2990,-3,1,-7.47,-1.74,-91.98,-1.3306,0.1786,-0.2892
19678,0.3824,0.3286,0.2999,-0.0175,0.1462,-0.0152,0.42,0.14,-91.97,0,3.653,1.676,-0.953,0.867,0.005,-0.019,0.000,0.000,0.000,0.000,0.2970,-2,3,-7.32,-1.72,-91.94,-1.3358,0.1772,-0.2911
19730,0.3801,0.3362,0.2978,-0.0252,0.1483,-0.0222,0.54,0.19,-91.89,0,3.663,2.475,-1.120,1.695,0.011,-0.009,0.000,0.000,0.000,0.000,0.3030,5,3,-7.26,-1.75,-91.84,-1.3466,0.1767,-0.2945
19781,0.3823,0.3436,0.2994,-0.0202,0.1499,-0.0091,0.61,0.20,-91.80,0,3.658,-0.163,3.189,2.149,0.009,-0.016,0.000,0.000,0.000,0.000,0.2980,7,0,-7.22,-1.80,-91.68,-1.3645,0.1718,-0.2933
19832,0.3808,0.3518,0.2984,-0.0253,0.1534,-0.0103,0.60,0.10,-91.69,0,3.663,-2.081,4.404,1.352,0.007,-0.015,0.000,0.000,0.000,0.000,0.2990,0,3,-7.26,-1.67,-91.63,-1.3731,0.1663,-0.2951
19884,0.3754,0.3575,0.2982,-0.0401,0.1491,-0.0078,0.52,-0.06,-91.62,0,3.658,-0.637,2.497,0.871,0.006,-0.017,0.000,0.000,0.000,0.000,0.2990,-1,5,-7.32,-1.44,-91.64,-1.3694,0.1687,-0.2999
19936,0.3712,0.3638,0.2983,-0.0501,0.1448,-0.0058,0.53,-0.24,-91.58,0,3.663,-2.544,-0.322,-0.614,0.006,-0.016,0.000,0.000,0.000,0.000,0.2970,0,0,-7.35,-1.30,-91.62,-1.3748,0.1702,-0.2995
19987,0.3691,0.3720,0.2974,-0.0536,0.1451,-0.0086,0.41,-0.31,-91.59,0,3.658,-0.489,1.278,-0.715,0.005,-0.017,0.000,0.000,0.000,0.000,0.2990,0,4,-7.56,-1.36,-91.70,-1.3929,0.1684,-0.2982
20038,0.3681,0.3789,0.2979,-0.0523,0.1415,-0.0042,0.34,-0.35,-91.63,0,3.663,-0.469,2.303,-1.097,0.006,-0.015,0.000,0.000,0.000,0.000,0.2990,1,3,-7.53,-1.30,-91.75,-1.3906,0.1698,-0.3012
20090,0.3665,0.3858,0.2982,-0.0526,0.1381,-0.0017,0.34,-0.45,-91.66,0,3.658,2.111,0.671,-0.089,0.005,-0.018,0.000,0.000,0.000,0.000,0.2950,0,1,-7.56,-1.19,-91.84,-1.4015,0.1711,-0.3069
20141,0.3616,0.3926,0.2965,-0.0614,0.1340,-0.0088,0.41,-0.51,-91.66,0,3.658,-1.282,-1.075,-0.260,0.005,-0.017,0.000,0.000,0.000,0.000,0.2950,-3,5,-7.49,-1.18,-91.91,-1.4152,0.1714,-0.3185
20192,0.3602,0.3982,0.2954,-0.0607,0.1270,-0.0110,0.30,-0.46,-91.67,0,3.653,1.606,-1.931,0.623,0.008,-0.015,0.000,0.000,0.000,0.000,0.2980,7,0,-7.54,-1.20,-91.86,-1.4195,0.1745,-0.3221
20244,0.3646,0.4065,0.2964,-0.0434,0.1284,-0.0001,0.32,-0.40,-91.64,0,3.663,4.908,-0.925,2.760,0.003,-0.015,0.000,0.000,0.000,0.000,0.2940,3,2,-7.57,-1.33,-91.91,-1.4433,0.1754,-0.3237
20296,0.3579,0.4111,0.2953,-0.0575,0.1209,-0.0028,0.53,-0.37,-91.53,0,3.653,2.133,0.295,3.172,0.007,-0.019,0.000,0.000,0.000,0.000,0.2960,7,2,-7.34,-1.35,-91.78,-1.4500,0.1781,-0.3264
20348,0.3596,0.4161,0.2956,-0.0496,0.1150,0.0021,0.64,-0.38,-91.39,0,3.658,0.671,-4.500,3.207,0.012,-0.013,0.000,0.000,0.000,0.000,0.2950,1,2,-7.29,-1.30,-91.62,-1.4613,0.1794,-0.3240
20399,0.3515,0.4222,0.2955,-0.0690,0.1128,0.0038,0.70,-0.24,-91.18,0,3.653,2.571,-2.637,4.935,0.004,-0.019,0.000,0.000,0.000,0.000,0.2960,0,1,-7.23,-1.51,-91.44,-1.4600,0.1798,-0.3200
20450,0.3503,0.4288,0.2960,-0.0687,0.1137,0.0072,0.67,-0.10,-90.95,0,3.658,4.453,-2.344,3.693,0.008,-0.013,0.000,0.000,0.000,0.000,0.2920,1,0,-7.10,-1.61,-91.19,-1.4641,0.1792,-0.3122
20501,0.3404,0.4337,0.2944,-0.0923,0.1113,0.0010,0.94,-0.05,-90.72,0,3.653,0.759,-2.129,3.211,0.002,-0.019,0.000,0.000,0.000,0.000,0.2960,1,2,-6.93,-1.72,-90.98,-1.4747,0.1764,-0.3083
20553,0.3394,0.4385,0.2953,-0.0906,0.1092,0.0059,0.94,-0.07,-90.52,0,3.663,-3.305,-3.903,2.967,0.007,-0.016,0.000,0.000,0.000,0.000,0.2940,2,0,-6.91,-1.78,-90.79,-1.4810,0.1769,-0.3062
20604,0.3323,0.4432,0.2950,-0.1048,0.1065,0.0047,0.82,-0.05,-90.34,0,3.653,-1.219,-4.275,1.982,0.007,-0.014,0.000,0.000,0.000,0.000,0.2970,0,0,-7.10,-1.97,-90.61,-1.4849,0.1732,-0.3005
20656,0.3211,0.4458,0.2962,-0.1262,0.0995,0.0116,0.77,0.01,-90.21,0,3.658,-3.396,4.742,1.055,0.007,-0.021,0.000,0.000,0.000,0.000,0.2950,5,1,-7.20,-2.21,-90.45,-1.4951,0.1642,-0.2977
20707,0.3146,0.4514,0.2962,-0.1331,0.1013,0.0097,0.63,-0.08,-90.11,0,3.653,-4.778,-6.830,0.469,0.007,-0.018,0.000,0.000,0.000,0.000,0.2990,1,1,-7.34,-1.94,-90.45,-1.4936,0.1645,-0.2942
20758,0.3114,0.4572,0.2980,-0.1282,0.1025,0.0163,0.27,0.02,-90.07,0,3.663,-4.216,1.791,0.571,0.005,-0.015,0.000,0.000,0.000,0.000,0.2970,0,3,-7.57,-2.27,-90.36,-1.4977,0.1627,-0.2883
20810,0.3023,0.4602,0.2982,-0.1369,0.0971,0.0127,0.13,-0.03,-90.08,0,3.653,-3.879,3.565,-1.538,0.003,-0.017,0.000,0.000,0.000,0.000,0.2960,-2,4,-7.78,-2.17,-90.34,-1.5053,0.1585,-0.2929
20862,0.2931,0.4651,0.2977,-0.1439,0.0966,0.0064,-0.00,-0.13,-90.16,0,3.658,-2.864,3.460,-1.366,0.003,-0.017,0.000,0.000,0.000,0.000,0.2930,6,1,-7.96,-2.01,-90.48,-1.5107,0.1551,-0.2937
20913,0.2911,0.4704,0.2957,-0.1313,0.0965,-0.0035,-0.11,-0.25,-90.24,0,3.648,-1.253,-4.943,-1.221,0.009,-0.013,0.000,0.000,0.000,0.000,0.2940,0,0,-8.18,-1.89,-90.54,-1.5309,0.1440,-0.2923
20965,0.2848,0.4743,0.2947,-0.1291,0.0921,-0.0045,-0.19,-0.20,-90.31,0,3.658,0.426,0.036,-0.089,0.004,-0.017,0.000,0.000,0.000,0.000,0.2960,6,0,-8.32,-2.19,-90.54,-1.5500,0.1352,-0.2940
21016,0.2819,0.4786,0.2953,-0.1185,0.0901,0.0021,-0.15,-0.12,-90.33,0,3.653,1.273,1.974,-2.413,0.002,-0.015,0.000,0.000,0.000,0.000,0.2930,-2,1,-8.23,-2.16,-90.50,-1.5473,0.1357,-0.2994
21067,0.2745,0.4814,0.2944,-0.1201,0.0849,0.0022,-0.14,-0.24,-90.42,0,3.658,-1.535,2.237,-3.810,0.006,-0.014,0.000,0.000,0.000,0.000,0.2930,2,0,-8.12,-2.06,-90.61,-1.5534,0.1320,-0.3050
21118,0.2659,0.4844,0.2939,-0.1264,0.0793,0.0042,-0.07,-0.44,-90.58,0,3.648,2.063,0.273,-4.113,0.006,-0.018,0.000,0.000,0.000,0.000,0.2970,1,1,-8.26,-2.02,-90.78,-1.5755,0.1220,-0.3241
21170,0.2656,0.4881,0.2958,-0.1111,0.0752,0.0164,-0.06,-0.53,-90.76,0,3.658,3.291,-4.198,-3.216,0.004,-0.017,0.000,0.000,0.000,0.000,0.2980,2,0,-8.18,-2.03,-90.92,-1.5893,0.1159,-0.3344
21222,0.2588,0.4905,0.2977,-0.1140,0.0676,0.0247,0.09,-0.44,-90.87,0,3.653,3.508,-3.870,-1.362,0.004,-0.021,0.000,0.000,0.000,0.000,0.3010,-1,2,-8.06,-2.26,-90.97,-1.6049,0.1089,-0.3340
21274,0.2526,0.4930,0.3006,-0.1159,0.0617,0.0334,0.20,-0.33,-90.93,0,3.663,1.598,-1.012,1.206,0.008,-0.015,0.000,0.000,0.000,0.000,0.2980,1,2,-7.90,-2.44,-90.92,-1.6144,0.1048,-0.3274
21325,0.2527,0.4979,0.3008,-0.1033,0.0638,0.0268,0.24,-0.22,-90.89,0,3.653,1.880,0.160,3.821,0.004,-0.018,0.000,0.000,0.000,0.000,0.3020,1,0,-7.87,-2.49,-90.79,-1.6264,0.0973,-0.3148
21376,0.2440,0.4999,0.3026,-0.1147,0.0589,0.0269,0.42,-0.25,-90.74,0,3.663,5.547,-1.617,3.644,0.008,-0.011,0.000,0.000,0.000,0.000,0.3000,0,1,-7.82,-2.48,-90.59,-1.6357,0.0903,-0.3035
21428,0.2405,0.5027,0.3024,-0.1127,0.0567,0.0178,0.62,-0.20,-90.54,0,3.653,1.296,-0.713,3.359,0.007,-0.015,0.000,0.000,0.000,0.000,0.3010,1,0,-7.57,-2.54,-90.35,-1.6432,0.0858,-0.2974
21480,0.2395,0.5068,0.3024,-0.1065,0.0584,0.0116,0.64,-0.12,-90.37,0,3.658,3.235,1.615,1.202,0.006,-0.015,0.000,0.000,0.000,0.000,0.2990,0,0,-7.54,-2.57,-90.14,-1.6505,0.0794,-0.2919
21530,0.2287,0.5076,0.3011,-0.1260,0.0522,-0.0002,0.87,-0.21,-90.27,0,3.648,-0.331,0.524,1.501,0.005,-0.014,0.000,0.000,0.000,0.000,0.3000,0,2,-7.43,-2.51,-90.02,-1.6614,0.0679,-0.2818
21581,0.2249,0.5115,0.3005,-0.1268,0.0536,-0.0040,0.89,-0.27,-90.18,0,3.658,-3.489,-0.333,3.639,0.004,-0.017,0.000,0.000,0.000,0.000,0.2990,0,0,-7.41,-2.45,-90.00,-1.6583,0.0722,-0.2810
21632,0.2227,0.5142,0.2996,-0.1258,0.0531,-0.0081,0.79,-0.19,-90.03,0,3.648,0.064,0.594,3.732,0.005,-0.017,0.000,0.000,0.000,0.000,0.3010,4,0,-7.59,-2.44,-89.81,-1.6641,0.0693,-0.2798
21684,0.2113,0.5151,0.2999,-0.1438,0.0471,-0.0050,0.86,-0.26,-89.85,0,3.653,-1.258,1.396,2.095,0.005,-0.018,0.000,0.000,0.000,0.000,0.3010,3,0,-7.62,-2.41,-89.61,-1.6745,0.0611,-0.2819
21736,0.2026,0.5155,0.3002,-0.1538,0.0404,-0.0038,0.83,-0.24,-89.74,0,3.648,-8.101,5.552,0.395,0.005,-0.020,0.000,0.000,0.000,0.000,0.3010,5,0,-7.71,-2.34,-89.47,-1.6838,0.0545,-0.2922
21788,0.1961,0.5167,0.3004,-0.1573,0.0365,-0.0039,0.51,-0.31,-89.74,0,3.658,-9.314,4.259,-3.643,0.005,-0.016,0.000,0.000,0.000,0.000,0.3050,10,1,-8.12,-2.07,-89.51,-1.6878,0.0528,-0.3002
21840,0.1815,0.5168,0.3024,-0.1770,0.0299,0.0045,0.12,-0.50,-89.87,0,3.648,-5.084,-0.810,-5.487,0.003,-0.019,0.000,0.000,0.000,0.000,0.3010,2,0,-8.62,-1.90,-89.72,-1.6979,0.0488,-0.3037
21891,0.1692,0.5178,0.3018,-0.1862,0.0246,-0.0023,-0.13,-0.49,-90.14,0,3.653,-5.275,-2.453,-7.035,0.002,-0.017,0.000,0.000,0.000,0.000,0.2990,1,0,-8.80,-1.99,-90.04,-1.6946,0.0509,-0.3024
21943,0.1596,0.5194,0.3001,-0.1808,0.0206,-0.0131,-0.40,-0.33,-90.51,0,3.648,-1.968,1.011,-7.929,0.007,-0.017,0.000,0.000,0.000,0.000,0.2990,4,0,-9.04,-2.16,-90.36,-1.7026,0.0513,-0.3008
21995,0.1530,0.5206,0.2991,-0.1771,0.0197,-0.0179,-0.51,-0.34,-90.88,0,3.653,1.604,1.867,-6.969,0.002,-0.020,0.000,0.000,0.000,0.000,0.2970,3,0,-9.17,-2.18,-90.77,-1.7203,0.0501,-0.3001
22046,0.1416,0.5215,0.2973,-0.1795,0.0165,-0.0231,-0.44,-0.47,-91.24,0,3.642,-4.542,1.453,-7.237,0.003,-0.020,0.000,0.000,0.000,0.000,0.2970,4,0,-9.10,-2.15,-91.18,-1.7339,0.0515,-0.2962
22097,0.1314,0.5223,0.2962,-0.1793,0.0127,-0.0218,-0.52,-0.50,-91.62,0,3.648,-1.973,-0.014,-6.735,0.010,-0.018,0.000,0.000,0.000,0.000,0.2930,6,0,-9.34,-2.14,-91.59,-1.7467,0.0528,-0.2932
22149,0.1248,0.5222,0.2939,-0.1693,0.0067,-0.0241,-0.62,-0.59,-91.95,0,3.637,-1.350,-1.294,-2.721,0.007,-0.020,0.000,0.000,0.000,0.000,0.2930,0,0,-9.47,-2.20,-91.95,-1.7621,0.0533,-0.2947
22199,0.1156,0.5224,0.2926,-0.1652,0.0015,-0.0187,-0.70,-0.53,-92.12,0,3.648,0.564,1.306,-0.260,0.003,-0.017,0.000,0.000,0.000,0.000,0.2970,3,0,-9.60,-2.31,-92.11,-1.7812,0.0532,-0.2890
22250,0.1081,0.5231,0.2941,-0.1578,-0.0016,-0.0015,-0.72,-0.46,-92.19,0,3.642,0.748,-1.093,0.402,0.006,-0.019,0.000,0.000,0.000,0.000,0.2920,1,0,-9.51,-2.23,-92.17,-1.7821,0.0571,-0.2917
22302,0.1009,0.5229,0.2932,-0.1505,-0.0057,-0.0002,-0.61,-0.52,-92.18,0,3.648,1.250,-0.692,0.096,0.003,-0.021,0.000,0.000,0.000,0.000,0.2950,2,-1,-9.49,-2.28,-92.13,-1.7981,0.0561,-0.2977
22352,0.0928,0.5228,0.2941,-0.1471,-0.0097,0.0067,-0.54,-0.54,-92.17,0,3.642,1.586,-1.180,-0.495,0.006,-0.016,0.000,0.000,0.000,0.000,0.2950,0,0,-9.49,-2.33,-92.13,-1.8183,0.0538,-0.3069
22404,0.0879,0.5220,0.2949,-0.1373,-0.0150,0.0109,-0.50,-0.55,-92.19,0,3.653,3.573,2.654,-2.033,0.005,-0.019,0.000,0.000,0.000,0.000,0.2950,3,-1,-9.48,-2.40,-92.13,-1.8388,0.0503,-0.3166
22455,0.0837,0.5222,0.2954,-0.1272,-0.0173,0.0112,-0.36,-0.62,-92.29,0,3.642,0.344,0.650,-3.211,0.006,-0.019,0.000,0.000,0.000,0.000,0.2940,0,0,-9.28,-2.28,-92.28,-1.8458,0.0509,-0.3165
22506,0.0821,0.5217,0.2952,-0.1128,-0.0214,0.0079,-0.36,-0.60,-92.44,0,3.648,3.021,0.008,-4.748,0.007,-0.019,0.000,0.000,0.000,0.000,0.2940,0,0,-9.32,-2.29,-92.45,-1.8634,0.0476,-0.3125
22557,0.0844,0.5225,0.2950,-0.0913,-0.0220,0.0051,-0.33,-0.59,-92.66,0,3.642,11.053,4.697,-4.574,0.004,-0.016,0.000,0.000,0.000,0.000,0.2910,-1,0,-9.23,-2.34,-92.69,-1.8810,0.0437,-0.3069
22609,0.0876,0.5223,0.2933,-0.0708,-0.0248,-0.0022,0.02,-0.73,-92.92,0,3.648,7.961,5.131,-3.811,0.011,-0.017,0.000,0.000,0.000,0.000,0.2960,0,0,-8.64,-2.15,-92.98,-1.8866,0.0440,-0.3055
22659,0.0861,0.5212,0.2946,-0.0665,-0.0306,0.0068,0.44,-0.96,-93.13,0,3.642,2.972,1.645,-2.029,0.007,-0.016,0.000,0.000,0.000,0.000,0.2960,0,0,-8.27,-1.93,-93.20,-1.9008,0.0405,-0.2949
22711,0.0844,0.5199,0.2956,-0.0666,-0.0377,0.0133,0.59,-1.03,-93.24,0,3.648,2.528,-0.066,-0.319,0.004,-0.015,0.000,0.000,0.000,0.000,0.2960,-7,-1,-8.19,-1.88,-93.31,-1.9156,0.0371,-0.2934
22762,0.0869,0.5194,0.2964,-0.0585,-0.0426,0.0162,0.54,-1.01,-93.28,0,3.642,3.569,-0.761,-0.154,0.005,-0.009,0.000,0.000,0.000,0.000,0.2960,9,-3,-8.01,-1.90,-93.37,-1.9152,0.0379,-0.2895
22814,0.0964,0.5171,0.2970,-0.0360,-0.0509,0.0183,0.72,-0.97,-93.27,0,3.648,14.629,4.403,-0.846,0.007,-0.015,0.000,0.000,0.000,0.000,0.2960,0,0,-7.94,-1.96,-93.37,-1.9373,0.0352,-0.2934
22866,0.0763,0.5100,0.2973,-0.0824,-0.0682,0.0205,1.42,-1.17,-93.30,0,3.642,-2.594,0.766,-0.673,0.003,-0.015,0.000,0.000,0.000,0.000,0.2980,1,-1,-7.28,-1.74,-93.43,-1.9545,0.0337,-0.2958
22916,0.0635,0.5035,0.2985,-0.1144,-0.0842,0.0243,1.53,-1.31,-93.32,0,3.648,-13.729,-7.051,0.539,0.005,-0.013,0.000,0.000,0.000,0.000,0.2960,5,-2,-7.31,-1.70,-93.49,-1.9391,0.0354,-0.3042
22968,0.0536,0.4982,0.2983,-0.1367,-0.0963,0.0180,1.03,-1.06,-93.31,0,3.642,-6.325,-4.892,1.863,0.004,-0.013,0.000,0.000,0.000,0.000,0.2960,10,-3,-7.94,-2.04,-93.45,-1.9392,0.0389,-0.3237
23019,0.0421,0.4926,0.2979,-0.1557,-0.1062,0.0134,0.73,-0.77,-93.23,0,3.648,-9.242,-5.555,2.596,0.004,-0.014,0.000,0.000,0.000,0.000,0.2980,6,-4,-8.33,-2.27,-93.35,-1.9561,0.0421,-0.3425
23070,0.0239,0.4852,0.2985,-0.1840,-0.1166,0.0139,0.38,-0.58,-93.07,0,3.642,-19.375,-7.562,6.892,0.003,-0.010,0.000,0.000,0.000,0.000,0.2990,3,-2,-8.75,-2.52,-93.26,-1.9538,0.0480,-0.3509
23122,0.0062,0.4774,0.2993,-0.2062,-0.1252,0.0174,-0.46,-0.20,-92.75,0,3.648,-15.459,-10.257,10.694,0.005,-0.012,0.000,0.000,0.000,0.000,0.2990,0,-1,-9.65,-2.81,-92.93,-1.9473,0.0575,-0.3505
23173,-0.0017,0.4717,0.3001,-0.1972,-0.1259,0.0207,-1.29,0.27,-92.22,0,3.642,-4.718,-3.644,14.426,0.001,-0.009,0.000,0.000,0.000,0.000,0.3010,-3,0,-10.40,-3.19,-92.31,-1.9464,0.0616,-0.3363
23224,-0.0157,0.4638,0.3014,-0.1973,-0.1280,0.0255,-1.55,0.44,-91.50,0,3.648,-4.473,0.318,16.425,0.001,-0.012,0.000,0.000,0.000,0.000,0.3010,-4,0,-10.66,-3.21,-91.54,-1.9572,0.0587,-0.3187
23276,-0.0247,0.4581,0.3024,-0.1836,-0.1235,0.0259,-1.77,0.45,-90.70,0,3.648,-0.967,-3.351,15.022,0.002,-0.011,0.000,0.000,0.000,0.000,0.3040,8,-2,-10.95,-3.06,-90.76,-1.9747,0.0543,-0.3075
23327,-0.0310,0.4525,0.3043,-0.1629,-0.1188,0.0293,-1.78,0.50,-89.95,0,3.653,-3.830,6.449,13.670,-0.001,-0.009,0.000,0.000,0.000,0.000,0.3070,0,0,-11.19,-3.09,-89.75,-2.0081,0.0296,-0.2931
23378,-0.0416,0.4453,0.3069,-0.1532,-0.1177,0.0317,-1.89,0.24,-89.30,0,3.648,-3.410,8.486,11.979,0.002,-0.014,0.000,0.000,0.000,0.000,0.3100,0,0,-11.55,-2.64,-88.94,-2.0369,0.0072,-0.2811
23430,-0.0569,0.4374,0.3096,-0.1557,-0.1202,0.0324,-1.94,-0.13,-88.70,0,3.658,2.151,4.335,10.604,0.006,-0.011,0.000,0.000,0.000,0.000,0.3150,-2,-1,-11.87,-2.11,-88.31,-2.0619,-0.0099,-0.2745
23481,-0.0679,0.4299,0.3135,-0.1482,-0.1244,0.0358,-1.87,-0.28,-88.15,0,3.648,-0.943,-1.680,10.905,-0.001,-0.009,0.000,0.000,0.000,0.000,0.3130,-2,0,-11.56,-1.85,-88.33,-2.0430,0.0227,-0.2945
23533,-0.0786,0.4228,0.3145,-0.1410,-0.1281,0.0240,-1.74,-0.24,-87.61,0,3.653,-0.024,1.282,9.593,-0.002,-0.015,0.000,0.000,0.000,0.000,0.3110,0,0,-11.47,-1.86,-88.16,-2.0491,0.0520,-0.3313
23585,-0.0827,0.4181,0.3137,-0.1210,-0.1259,0.0059,-1.73,-0.32,-87.13,0,3.642,1.540,-1.876,9.382,0.002,-0.017,0.000,0.000,0.000,0.000,0.3140,-4,0,-11.67,-1.70,-87.88,-2.1023,0.0698,-0.4006
23636,-0.0829,0.4134,0.3138,-0.0933,-0.1237,-0.0041,-1.76,-0.23,-86.69,0,3.648,2.891,-3.239,8.871,0.004,-0.011,0.000,0.000,0.000,0.000,0.3080,0,-1,-11.52,-1.67,-87.42,-2.1094,0.0751,-0.4412
23688,-0.0877,0.4067,0.3107,-0.0804,-0.1263,-0.0236,-1.49,-0.19,-86.29,0,3.637,10.843,-0.448,7.703,0.008,-0.021,0.000,0.000,0.000,0.000,0.3080,-5,0,-11.50,-1.77,-87.25,-2.1419,0.1008,-0.4459
23739,-0.0835,0.4036,0.3082,-0.0493,-0.1196,-0.0358,-1.16,-0.10,-85.92,0,3.642,3.202,-4.861,6.989,0.002,-0.009,0.000,0.000,0.000,0.000,0.3060,-7,0,-11.05,-1.72,-87.05,-2.1661,0.1198,-0.4234
23791,-0.0872,0.3965,0.3055,-0.0435,-0.1225,-0.0415,-0.93,0.10,-85.55,0,3.632,0.785,-0.725,6.289,0.005,-0.017,0.000,0.000,0.000,0.000,0.3030,0,-1,-10.97,-1.89,-86.76,-2.1826,0.1318,-0.3913
23843,-0.0785,0.3929,0.3026,-0.0110,-0.1156,-0.0454,-0.91,0.18,-85.25,0,3.637,9.065,5.318,4.245,0.001,-0.016,0.000,0.000,0.000,0.000,0.3030,-4,-1,-11.09,-1.88,-86.61,-2.2061,0.1471,-0.3540
23895,-0.0824,0.3866,0.3008,-0.0117,-0.1148,-0.0402,-0.60,-0.02,-85.04,0,3.632,2.601,-0.017,2.043,0.004,-0.020,0.000,0.000,0.000,0.000,0.2980,0,-2,-10.67,-1.60,-86.63,-2.2122,0.1609,-0.3220
23946,-0.0793,0.3832,0.2979,0.0015,-0.1090,-0.0409,-0.38,-0.05,-84.95,0,3.637,3.163,-1.389,-0.224,0.000,-0.014,0.000,0.000,0.000,0.000,0.2930,4,-2,-10.60,-1.60,-86.64,-2.2198,0.1705,-0.2914
23998,-0.0791,0.3765,0.2937,0.0048,-0.1121,-0.0449,-0.19,-0.07,-84.94,0,3.632,6.169,3.660,-2.305,-0.001,-0.020,0.000,0.000,0.000,0.000,0.2950,0,-2,-10.49,-1.66,-86.65,-2.2266,0.1732,-0.2753
24049,-0.0765,0.3728,0.2927,0.0129,-0.1077,-0.0337,-0.10,-0.20,-85.04,0,3.642,1.947,2.753,-3.670,0.000,-0.015,0.000,0.000,0.000,0.000,0.2940,-2,0,-10.14,-1.50,-86.81,-2.2227,0.1731,-0.2612
24100,-0.0733,0.3694,0.2920,0.0201,-0.1044,-0.0238,0.04,-0.32,-85.21,0,3.632,-2.004,4.899,-2.773,0.000,-0.012,0.000,0.000,0.000,0.000,0.2960,0,-1,-10.02,-1.39,-86.99,-2.2203,0.1708,-0.2523
24152,-0.0760,0.3630,0.2932,0.0106,-0.1103,-0.0074,0.10,-0.53,-85.38,0,3.642,-2.052,4.492,-4.694,0.002,-0.016,0.000,0.000,0.000,0.000,0.2930,0,-1,-10.11,-1.18,-87.19,-2.2222,0.1697,-0.2516
24203,-0.0718,0.3593,0.2929,0.0190,-0.1101,-0.0034,0.02,-0.61,-85.54,0,3.637,-1.790,-0.833,-4.081,0.003,-0.010,0.000,0.000,0.000,0.000,0.2940,0,-1,-10.18,-1.01,-87.48,-2.2225,0.1679,-0.2512
24255,-0.0745,0.3536,0.2934,0.0098,-0.1161,0.0033,0.07,-0.58,-85.78,0,3.642,6.906,1.866,-5.123,0.006,-0.013,0.000,0.000,0.000,0.000,0.2920,6,-4,-10.25,-1.08,-87.61,-2.2250,0.1636,-0.2559
24305,-0.0649,0.3517,0.2930,0.0318,-0.1111,0.0029,0.26,-0.65,-86.04,0,3.637,5.526,1.352,-5.901,0.007,-0.011,0.000,0.000,0.000,0.000,0.2880,0,-1,-9.94,-1.06,-88.03,-2.2390,0.1726,-0.2548
24357,-0.0732,0.3436,0.2906,0.0052,-0.1228,-0.0073,0.60,-0.72,-86.32,0,3.642,-4.564,-2.602,-5.173,0.002,-0.011,0.000,0.000,0.000,0.000,0.2900,-3,-2,-9.64,-1.03,-88.29,-2.2431,0.1711,-0.2698
24407,-0.0664,0.3411,0.2901,0.0171,-0.1199,-0.0067,0.33,-0.62,-86.57,0,3.632,1.420,-2.831,-4.020,0.003,-0.010,0.000,0.000,0.000,0.000,0.2900,-6,-2,-9.82,-1.20,-88.43,-2.2406,0.1632,-0.2712
24458,-0.0664,0.3355,0.2899,0.0126,-0.1237,-0.0017,0.16,-0.51,-86.77,0,3.642,4.900,-1.103,-3.961,0.002,-0.012,0.000,0.000,0.000,0.000,0.2880,9,-4,-9.73,-1.36,-88.58,-2.2475,0.1615,-0.2781
24510,-0.0612,0.3295,0.2890,0.0218,-0.1275,-0.0012,0.50,-0.48,-86.94,0,3.632,-5.468,-2.403,-3.389,0.005,-0.010,0.000,0.000,0.000,0.000,0.2870,5,-5,-9.62,-1.46,-88.90,-2.2773,0.1713,-0.2874
24561,-0.0607,0.3242,0.2881,0.0177,-0.1284,-0.0016,0.39,-0.36,-87.11,0,3.642,-6.774,-6.660,-5.577,-0.000,-0.003,0.000,0.000,0.000,0.000,0.2880,-6,-4,-9.88,-1.62,-89.07,-2.2800,0.1707,-0.3040
24613,-0.0677,0.3153,0.2881,-0.0049,-0.1370,0.0036,0.03,-0.01,-87.38,0,3.632,-3.211,2.100,-8.835,-0.000,-0.005,0.000,0.000,0.000,0.000,0.2930,8,-4,-10.07,-1.97,-89.18,-2.2652,0.1628,-0.3127
24664,-0.0637,0.3087,0.2909,0.0049,-0.1368,0.0219,-0.06,-0.02,-87.78,0,3.642,-3.867,1.175,-9.772,0.003,-0.001,0.000,0.000,0.000,0.000,0.2910,0,-1,-10.33,-1.94,-89.64,-2.2932,0.1577,-0.3187
24715,-0.0629,0.3027,0.2921,0.0082,-0.1345,0.0289,-0.24,-0.07,-88.26,0,3.637,-2.182,2.091,-8.715,-0.003,-0.003,0.000,0.000,0.000,0.000,0.2930,0,-2,-10.47,-1.96,-90.11,-2.2963,0.1536,-0.3321
24766,-0.0643,0.2965,0.2938,0.0051,-0.1339,0.0318,-0.36,-0.09,-88.73,0,3.642,-0.313,-1.961,-9.511,0.002,-0.011,0.000,0.000,0.000,0.000,0.2960,-2,0,-10.54,-1.95,-90.59,-2.3021,0.1509,-0.3304
24818,-0.0595,0.2903,0.2963,0.0201,-0.1332,0.0340,-0.43,-0.03,-89.18,0,3.637,0.971,-0.803,-8.927,-0.000,-0.008,0.000,0.000,0.000,0.000,0.2970,-4,-3,-10.55,-2.13,-90.99,-2.3155,0.1434,-0.3305
24869,-0.0607,0.2851,0.2980,0.0176,-0.1296,0.0329,-0.37,0.02,-89.64,0,3.648,2.900,-0.823,-7.411,0.001,-0.009,0.000,0.000,0.000,0.000,0.2990,5,-5,-10.50,-2.28,-91.47,-2.3267,0.1410,-0.3214
24920,-0.0577,0.2797,0.2999,0.0250,-0.1261,0.0330,-0.17,0.08,-90.02,0,3.637,1.480,3.762,-5.604,0.002,-0.008,0.000,0.000,0.000,0.000,0.2960,-6,-1,-10.46,-2.42,-91.81,-2.3530,0.1328,-0.3105
24971,-0.0559,0.2737,0.2993,0.0283,-0.1242,0.0214,-0.20,0.03,-90.31,0,3.637,0.050,2.087,-1.596,0.000,-0.009,0.000,0.000,0.000,0.000,0.2940,-8,-1,-10.32,-2.26,-92.12,-2.3525,0.1330,-0.3115
25022,-0.0581,0.2664,0.2977,0.0193,-0.1272,0.0108,-0.18,-0.09,-90.43,0,3.632,-0.768,-1.186,0.893,0.003,-0.011,0.000,0.000,0.000,0.000,0.2940,-1,-2,-10.29,-2.18,-92.24,-2.3572,0.1319,-0.3014
25074,-0.0495,0.2629,0.2963,0.0402,-0.1202,0.0047,-0.24,-0.00,-90.41,0,3.637,-2.266,1.521,1.406,0.003,-0.005,0.000,0.000,0.000,0.000,0.2970,-1,-2,-10.42,-2.24,-92.12,-2.3794,0.1225,-0.3037
25125,-0.0492,0.2565,0.2970,0.0381,-0.1212,0.0100,-0.27,-0.06,-90.35,0,3.632,-1.056,4.752,0.510,0.002,-0.012,0.000,0.000,0.000,0.000,0.2980,0,-2,-10.55,-2.16,-92.05,-2.3874,0.1181,-0.3028
25176,-0.0451,0.2502,0.2979,0.0461,-0.1224,0.0138,-0.30,-0.25,-90.32,0,3.642,-3.021,2.042,-0.751,-0.003,-0.004,0.000,0.000,0.000,0.000,0.3000,0,-1,-10.61,-1.94,-92.08,-2.3957,0.1157,-0.2968
25227,-0.0446,0.2438,0.2996,0.0443,-0.1257,0.0178,-0.39,-0.40,-90.35,0,3.632,0.377,-1.567,-2.823,-0.001,-0.008,0.000,0.000,0.000,0.000,0.2970,6,-5,-10.77,-1.84,-92.10,-2.4031,0.1114,-0.2940
25277,-0.0416,0.2386,0.2990,0.0494,-0.1262,0.0096,-0.33,-0.43,-90.47,0,3.637,-2.135,0.957,-4.755,0.003,-0.008,0.000,0.000,0.000,0.000,0.2990,0,-2,-10.80,-1.97,-92.25,-2.4179,0.1109,-0.2867
25329,-0.0398,0.2301,0.2994,0.0514,-0.1349,0.0074,-0.46,-0.47,-90.70,0,3.632,0.686,-4.127,-4.469,0.000,-0.006,0.000,0.000,0.000,0.000,0.2990,-9,-2,-10.87,-1.95,-92.45,-2.4207,0.1082,-0.2934
25380,-0.0429,0.2243,0.2995,0.0399,-0.1359,0.0067,-0.48,-0.35,-90.91,0,3.637,1.318,-6.317,-3.462,0.000,-0.006,0.000,0.000,0.000,0.000,0.2990,5,-6,-10.75,-2.18,-92.59,-2.4167,0.1052,-0.2858
25432,-0.0309,0.2197,0.2996,0.0684,-0.1326,0.0054,-0.37,-0.10,-91.12,0,3.632,-0.069,-3.988,-2.756,-0.004,-0.008,0.000,0.000,0.000,0.000,0.3010,0,-2,-10.80,-2.54,-92.68,-2.4464,0.1002,-0.2883
25483,-0.0282,0.2131,0.3005,0.0702,-0.1328,0.0097,-0.37,0.08,-91.23,0,3.642,1.555,5.489,-1.309,-0.001,-0.007,0.000,0.000,0.000,0.000,0.3040,-1,-2,-10.79,-2.72,-92.72,-2.4522,0.0985,-0.2984
25535,-0.0284,0.2063,0.3028,0.0636,-0.1329,0.0186,-0.26,-0.08,-91.35,0,3.632,5.686,1.417,-2.272,-0.003,-0.009,0.000,0.000,0.000,0.000,0.3000,0,-3,-10.68,-2.47,-92.92,-2.4579,0.1018,-0.3026
25585,-0.0255,0.2008,0.3022,0.0649,-0.1309,0.0139,-0.00,-0.22,-91.48,0,3.642,2.931,1.687,-4.399,0.001,-0.013,0.000,0.000,0.000,0.000,0.3020,-5,0,-10.43,-2.45,-93.05,-2.4731,0.0968,-0.3043
25637,-0.0222,0.1941,0.3028,0.0647,-0.1329,0.0147,0.22,-0.25,-91.69,0,3.632,-1.778,4.185,-3.654,0.002,-0.008,0.000,0.000,0.000,0.000,0.3050,-3,0,-10.26,-2.38,-93.24,-2.4790,0.0924,-0.3082
25689,-0.0213,0.1867,0.3046,0.0562,-0.1371,0.0204,0.29,-0.35,-91.91,0,3.637,3.139,-0.552,-5.969,-0.001,-0.009,0.000,0.000,0.000,0.000,0.3030,9,-4,-10.37,-2.22,-93.45,-2.4888,0.0866,-0.3046
25740,-0.0155,0.1821,0.3048,0.0613,-0.1343,0.0179,0.42,-0.33,-92.19,0,3.632,3.044,-1.662,-6.240,0.000,-0.010,0.000,0.000,0.000,0.000,0.3040,-4,-1,-10.32,-2.34,-93.71,-2.5130,0.0758,-0.2965
25792,-0.0157,0.1734,0.3053,0.0502,-0.1414,0.0186,0.43,-0.28,-92.50,0,3.642,-3.486,-4.566,-4.039,0.001,-0.008,0.000,0.000,0.000,0.000,0.3070,-4,-1,-10.09,-2.46,-93.98,-2.5073,0.0763,-0.3032
25843,-0.0131,0.1670,0.3071,0.0465,-0.1416,0.0246,0.35,-0.11,-92.72,0,3.632,-7.258,-2.036,1.367,-0.001,-0.013,0.000,0.000,0.000,0.000,0.3050,-3,0,-10.22,-2.70,-94.11,-2.5077,0.0743,-0.2938
25894,-0.0205,0.1589,0.3072,0.0187,-0.1451,0.0230,0.12,0.03,-92.70,0,3.642,-11.311,-4.417,4.765,-0.001,-0.012,0.000,0.000,0.000,0.000,0.3070,10,-5,-10.60,-2.78,-93.99,-2.5165,0.0703,-0.2968
25945,-0.0087,0.1542,0.3082,0.0462,-0.1379,0.0260,-0.41,0.24,-92.50,0,3.632,-0.510,-2.339,5.903,-0.006,-0.007,0.000,0.000,0.000,0.000,0.3070,-4,-2,-11.27,-2.98,-93.65,-2.5353,0.0581,-0.2935
25996,-0.0077,0.1484,0.3086,0.0481,-0.1369,0.0259,-0.75,0.44,-92.20,0,3.642,3.329,0.309,8.113,-0.004,-0.009,0.000,0.000,0.000,0.000,0.3080,-1,-2,-11.22,-3.01,-93.39,-2.5296,0.0661,-0.2984
26047,-0.0059,0.1431,0.3094,0.0522,-0.1300,0.0248,-0.63,0.48,-91.80,0,3.637,-5.014,0.511,11.326,-0.003,-0.010,0.000,0.000,0.000,0.000,0.3120,-9,-1,-11.09,-2.90,-92.91,-2.5435,0.0559,-0.2937
26099,-0.0037,0.1357,0.3120,0.0548,-0.1249,0.0276,-0.87,0.45,-91.27,0,3.642,-1.096,3.025,12.606,-0.006,-0.008,0.000,0.000,0.000,0.000,0.3110,-3,0,-11.33,-2.77,-92.39,-2.5493,0.0567,-0.3124
26150,0.0071,0.1322,0.3124,0.0817,-0.1184,0.0213,-0.92,0.30,-90.67,0,3.637,-4.528,-1.749,12.560,-0.007,-0.014,0.000,0.000,0.000,0.000,0.3110,-4,0,-11.44,-2.48,-91.70,-2.5650,0.0462,-0.3095
26201,0.0066,0.1246,0.3126,0.0766,-0.1172,0.0099,-1.03,0.29,-90.07,0,3.642,-0.710,-5.723,9.466,-0.003,-0.015,0.000,0.000,0.000,0.000,0.3160,-12,0,-11.73,-2.43,-90.96,-2.5793,0.0337,-0.3142
26252,0.0136,0.1203,0.3144,0.0930,-0.1141,0.0102,-1.20,0.53,-89.56,0,3.632,2.605,-1.972,6.222,-0.007,-0.008,0.000,0.000,0.000,0.000,0.3130,-1,-2,-11.74,-2.60,-90.35,-2.5813,0.0244,-0.3045
26304,0.0223,0.1161,0.3140,0.1113,-0.1062,-0.0011,-0.92,0.68,-89.23,0,3.642,8.332,0.536,2.966,-0.003,-0.018,0.000,0.000,0.000,0.000,0.3140,0,-3,-11.76,-2.64,-89.91,-2.6117,0.0086,-0.2982
26354,0.0333,0.1110,0.3136,0.1303,-0.0966,-0.0121,-0.60,0.63,-89.04,0,3.632,1.170,1.727,0.606,0.001,-0.010,0.000,0.000,0.000,0.000,0.3160,-10,0,-11.43,-2.59,-89.73,-2.6311,0.0007,-0.2907
26405,0.0327,0.1051,0.3142,0.1169,-0.0945,-0.0128,-0.49,0.54,-88.95,0,3.637,0.065,-1.595,1.056,-0.003,-0.016,0.000,0.000,0.000,0.000,0.3110,-3,-1,-11.31,-2.49,-89.75,-2.6280,0.0023,-0.2847
26457,0.0423,0.1029,0.3120,0.1316,-0.0871,-0.0252,-0.39,0.59,-88.88,0,3.626,-2.541,1.911,0.026,-0.004,-0.022,0.000,0.000,0.000,0.000,0.3070,-1,0,-11.38,-2.57,-89.64,-2.6464,-0.0051,-0.2802
26508,0.0501,0.0979,0.3085,0.1392,-0.0835,-0.0396,-0.54,0.62,-88.86,0,3.632,-0.768,1.490,-1.101,0.004,-0.011,0.000,0.000,0.000,0.000,0.3070,-2,-1,-11.56,-2.47,-89.64,-2.6586,-0.0096,-0.2843
26559,0.0484,0.0935,0.3062,0.1218,-0.0795,-0.0404,-0.46,0.48,-88.96,0,3.621,-0.289,-0.801,-5.163,-0.002,-0.013,0.000,0.000,0.000,0.000,0.3050,0,-1,-11.58,-2.42,-89.79,-2.6627,-0.0055,-0.2824
26609,0.0598,0.0908,0.3041,0.1389,-0.0721,-0.0371,-0.54,0.48,-89.17,0,3.626,-4.915,-2.296,-6.527,-0.003,-0.011,0.000,0.000,0.000,0.000,0.3010,-2,-2,-11.61,-2.52,-90.04,-2.6734,-0.0067,-0.2797
26661,0.0607,0.0875,0.3013,0.1285,-0.0673,-0.0347,-0.66,0.69,-89.52,0,3.621,4.198,-3.483,-7.450,-0.005,-0.009,0.000,0.000,0.000,0.000,0.3030,-5,0,-11.82,-2.69,-90.36,-2.6786,-0.0055,-0.2850
26713,0.0766,0.0864,0.3009,0.1572,-0.0551,-0.0186,-0.64,0.91,-89.85,0,3.632,6.620,1.512,-9.292,-0.005,-0.008,0.000,0.000,0.000,0.000,0.2960,0,0,-11.58,-2.92,-90.64,-2.6854,-0.0106,-0.2827
26764,0.0807,0.0831,0.2981,0.1528,-0.0495,-0.0186,-0.30,0.84,-90.29,0,3.621,11.291,7.816,-9.718,-0.004,-0.011,0.000,0.000,0.000,0.000,0.2960,-1,0,-11.33,-2.93,-91.00,-2.7110,-0.0277,-0.2812
26816,0.0895,0.0803,0.2965,0.1584,-0.0433,-0.0136,0.18,0.49,-90.77,0,3.626,5.777,-1.102,-9.939,-0.001,-0.008,0.000,0.000,0.000,0.000,0.2990,-1,-1,-10.72,-2.66,-91.66,-2.7176,-0.0232,-0.2878
26867,0.1003,0.0792,0.2974,0.1647,-0.0366,0.0018,0.47,0.51,-91.26,0,3.621,1.934,0.478,-9.986,-0.001,-0.016,0.000,0.000,0.000,0.000,0.2970,-8,0,-10.41,-2.83,-92.25,-2.7279,-0.0150,-0.2894
26918,0.1114,0.0780,0.2974,0.1681,-0.0305,0.0093,0.49,0.54,-91.73,0,3.632,3.978,5.274,-9.699,0.002,-0.011,0.000,0.000,0.000,0.000,0.2980,-1,0,-10.26,-2.88,-92.82,-2.7322,-0.0053,-0.3042
26969,0.1194,0.0760,0.2983,0.1625,-0.0273,0.0179,0.71,0.26,-92.22,0,3.626,0.910,6.307,-8.339,-0.001,-0.014,0.000,0.000,0.000,0.000,0.3010,0,1,-10.09,-2.72,-93.34,-2.7487,-0.0103,-0.3079
27021,0.1274,0.0751,0.3004,0.1571,-0.0236,0.0278,0.80,0.04,-92.63,0,3.637,-4.026,2.825,-6.350,0.002,-0.014,0.000,0.000,0.000,0.000,0.3030,-1,0,-10.07,-2.50,-93.79,-2.7609,-0.0155,-0.3163
27073,0.1331,0.0740,0.3029,0.1458,-0.0232,0.0340,0.66,-0.14,-92.94,0,3.632,-5.801,1.373,-5.467,-0.002,-0.013,0.000,0.000,0.000,0.000,0.3020,-1,0,-10.24,-2.43,-94.16,-2.7622,-0.0156,-0.3163
27124,0.1381,0.0725,0.3038,0.1347,-0.0249,0.0301,0.44,-0.21,-93.20,0,3.637,-2.125,-2.800,-3.751,-0.001,-0.012,0.000,0.000,0.000,0.000,0.3030,0,0,-10.51,-2.42,-94.45,-2.7648,-0.0146,-0.3090
27176,0.1391,0.0710,0.3047,0.1167,-0.0270,0.0260,0.33,-0.19,-93.39,0,3.632,-5.100,-3.219,-1.777,-0.002,-0.013,0.000,0.000,0.000,0.000,0.3050,0,-1,-10.69,-2.60,-94.58,-2.7826,-0.0183,-0.3030
27227,0.1423,0.0677,0.3059,0.1077,-0.0330,0.0247,0.16,-0.02,-93.54,0,3.637,-4.911,-2.567,-3.062,-0.005,-0.012,0.000,0.000,0.000,0.000,0.3050,-4,0,-10.87,-2.74,-94.64,-2.7764,-0.0119,-0.2989
27279,0.1452,0.0645,0.3064,0.1008,-0.0368,0.0187,-0.15,0.06,-93.68,0,3.632,-3.201,-6.469,-2.547,-0.001,-0.012,0.000,0.000,0.000,0.000,0.3070,0,0,-11.07,-2.87,-94.76,-2.7811,-0.0098,-0.2910
27329,0.1483,0.0629,0.3074,0.0970,-0.0359,0.0163,-0.28,0.28,-93.83,0,3.637,-5.799,-4.327,-1.278,-0.001,-0.010,0.000,0.000,0.000,0.000,0.3070,0,-1,-11.37,-3.25,-94.74,-2.8125,-0.0255,-0.2900
27380,0.1419,0.0590,0.3078,0.0731,-0.0388,0.0106,-0.33,0.49,-93.89,0,3.626,-11.718,-5.421,0.094,-0.004,-0.012,0.000,0.000,0.000,0.000,0.3070,0,0,-11.55,-3.41,-94.79,-2.8086,-0.0162,-0.3084
27432,0.1444,0.0565,0.3077,0.0735,-0.0364,0.0047,-0.87,0.79,-93.89,0,3.632,-3.527,-1.617,2.400,-0.000,-0.010,0.000,0.000,0.000,0.000,0.3060,0,-1,-12.10,-3.63,-94.67,-2.8182,-0.0205,-0.3169
27482,0.1555,0.0564,0.3070,0.0978,-0.0265,-0.0033,-1.23,0.85,-93.76,0,3.626,5.247,2.254,4.824,-0.002,-0.012,0.000,0.000,0.000,0.000,0.3040,0,0,-12.29,-3.70,-94.54,-2.8383,-0.0279,-0.3121
27534,0.1591,0.0543,0.3053,0.1052,-0.0221,-0.0120,-1.05,0.76,-93.54,0,3.632,1.505,-4.204,5.835,-0.001,-0.015,0.000,0.000,0.000,0.000,0.3080,0,-1,-12.26,-3.63,-94.14,-2.8850,-0.0679,-0.3227
27586,0.1573,0.0528,0.3061,0.0981,-0.0171,-0.0065,-0.79,0.92,-93.26,0,3.626,-4.178,-3.439,5.488,-0.003,-0.012,0.000,0.000,0.000,0.000,0.3030,0,-1,-12.11,-3.72,-93.76,-2.8831,-0.0670,-0.3537
27637,0.1633,0.0521,0.3043,0.1076,-0.0096,-0.0127,-0.96,1.14,-93.01,0,3.632,3.523,0.254,3.371,-0.002,-0.017,0.000,0.000,0.000,0.000,0.3060,-2,0,-12.32,-3.78,-93.30,-2.8925,-0.0848,-0.3613
27689,0.1649,0.0503,0.3046,0.1078,-0.0037,-0.0062,-0.91,1.22,-92.86,0,3.626,0.716,0.286,-0.615,0.000,-0.016,0.000,0.000,0.000,0.000,0.3030,0,0,-12.22,-3.75,-92.99,-2.9178,-0.1119,-0.3751
27739,0.1697,0.0513,0.3036,0.1143,0.0084,-0.0070,-0.87,1.25,-92.86,0,3.632,0.749,3.905,-4.070,0.002,-0.013,0.000,0.000,0.000,0.000,0.3050,1,0,-12.36,-3.79,-92.76,-2.9519,-0.1574,-0.3657
27791,0.1657,0.0514,0.3041,0.1012,0.0174,0.0007,-0.71,0.99,-93.04,0,3.621,-1.477,6.313,-6.340,0.005,-0.014,0.000,0.000,0.000,0.000,0.3030,3,0,-12.26,-3.64,-93.03,-2.9549,-0.1578,-0.3594
27843,0.1797,0.0554,0.3036,0.1274,0.0322,0.0016,-0.86,0.77,-93.33,0,3.632,-2.380,0.982,-8.143,0.001,-0.014,0.000,0.000,0.000,0.000,0.3060,-19,8,-12.38,-3.43,-93.38,-2.9732,-0.1717,-0.3415
27895,0.1760,0.0557,0.3050,0.1147,0.0355,0.0097,-1.14,0.73,-93.73,0,3.621,7.136,4.853,-9.438,0.005,-0.016,0.000,0.000,0.000,0.000,0.3050,-9,4,-12.31,-3.42,-93.87,-2.9589,-0.1601,-0.3384
27946,0.1889,0.0620,0.3054,0.1363,0.0492,0.0114,-0.82,0.47,-94.21,0,3.632,12.815,8.133,-10.066,0.003,-0.018,0.000,0.000,0.000,0.000,0.3040,-1,0,-12.01,-3.33,-94.36,-2.9853,-0.1745,-0.3167
27996,0.2060,0.0677,0.3052,0.1632,0.0589,0.0076,-0.31,0.09,-94.68,0,3.621,0.727,5.637,-8.563,0.006,-0.017,0.000,0.000,0.000,0.000,0.3060,-11,3,-11.51,-3.11,-94.90,-3.0201,-0.1916,-0.3099
28047,0.2144,0.0713,0.3059,0.1663,0.0607,0.0090,-0.24,-0.13,-95.11,0,3.632,-1.816,-1.765,-7.546,0.001,-0.017,0.000,0.000,0.000,0.000,0.3040,0,0,-11.40,-2.93,-95.44,-3.0175,-0.1839,-0.3134
28099,0.2226,0.0736,0.3054,0.1667,0.0579,0.0061,-0.20,-0.15,-95.49,0,3.621,8.315,0.448,-4.347,0.003,-0.015,0.000,0.000,0.000,0.000,0.3040,-1,1,-11.57,-3.12,-95.76,-3.0356,-0.1888,-0.3075
28150,0.2342,0.0778,0.3050,0.1752,0.0593,0.0061,0.11,-0.16,-95.70,0,3.632,4.123,2.153,-1.094,0.000,-0.016,0.000,0.000,0.000,0.000,0.3030,0,1,-11.17,-3.12,-95.93,-3.0437,-0.1910,-0.2946
28201,0.2463,0.0813,0.3044,0.1815,0.0595,0.0045,0.31,-0.21,-95.74,0,3.621,1.170,-3.534,2.447,0.001,-0.014,0.000,0.000,0.000,0.000,0.3030,-8,2,-11.00,-3.02,-95.98,-3.0518,-0.1933,-0.2847
28252,0.2499,0.0827,0.3039,0.1679,0.0548,0.0038,0.37,-0.13,-95.62,0,3.632,1.205,-6.174,5.435,0.003,-0.016,0.000,0.000,0.000,0.000,0.3020,-1,1,-10.89,-3.15,-95.87,-3.0450,-0.1834,-0.2788
28303,0.2619,0.0856,0.3032,0.1718,0.0546,0.0019,0.51,0.18,-95.39,0,3.626,3.397,0.128,5.061,0.000,-0.018,0.000,0.000,0.000,0.000,0.3070,0,0,-10.90,-3.38,-95.49,-3.0559,-0.1861,-0.2700
28355,0.2651,0.0872,0.3053,0.1568,0.0540,0.0152,0.71,0.18,-95.14,0,3.632,0.553,-1.329,5.534,0.004,-0.012,0.000,0.000,0.000,0.000,0.3100,0,0,-10.88,-3.35,-95.12,-3.0775,-0.2048,-0.2677
28407,0.2702,0.0904,0.3084,0.1453,0.0571,0.0266,0.81,0.29,-94.87,0,3.626,-0.884,-4.294,5.233,-0.000,-0.015,0.000,0.000,0.000,0.000,0.3100,0,0,-11.00,-3.38,-94.70,-3.0933,-0.2242,-0.2648
28459,0.2897,0.0955,0.3102,0.1642,0.0647,0.0272,0.74,0.57,-94.63,0,3.632,3.230,0.262,4.709,0.002,-0.016,0.000,0.000,0.000,0.000,0.3080,0,1,-11.17,-3.57,-94.29,-3.1026,-0.2420,-0.2627
28510,0.2821,0.0959,0.3104,0.1255,0.0637,0.0182,0.96,0.52,-94.41,0,3.626,-6.158,-0.359,5.163,0.005,-0.011,0.000,0.000,0.000,0.000,0.3060,0,1,-10.72,-3.44,-94.38,-3.0736,-0.1938,-0.2954
28560,0.2910,0.1004,0.3088,0.1239,0.0711,0.0024,0.71,0.59,-94.12,0,3.632,-8.186,-2.507,4.302,-0.002,-0.010,0.000,0.000,0.000,0.000,0.3100,1,1,-10.81,-3.34,-94.38,-3.0714,-0.1584,-0.3422
28612,0.2922,0.1044,0.3094,0.1086,0.0772,0.0032,0.37,0.75,-93.91,0,3.621,-3.487,0.356,2.448,0.000,-0.013,0.000,0.000,0.000,0.000,0.3090,4,0,-11.28,-3.42,-94.05,-3.1105,-0.1781,-0.4325
28663,0.2865,0.1057,0.3094,0.0831,0.0781,0.0018,0.35,0.76,-93.80,0,3.632,-6.424,-1.201,2.397,0.001,-0.012,0.000,0.000,0.000,0.000,0.3050,4,0,-11.57,-3.41,-93.78,-3.1481,-0.2056,-0.4806
28714,0.2824,0.1092,0.3073,0.0646,0.0838,-0.0079,0.10,0.82,-93.70,0,3.621,-9.348,-1.158,3.231,-0.002,-0.008,0.000,0.000,0.000,0.000,0.3080,-9,4,-11.99,-3.47,-93.52,-3.1770,-0.2300,-0.4883
28764,0.2891,0.1136,0.3074,0.0714,0.0908,-0.0050,-0.50,0.93,-93.52,0,3.626,-1.462,0.539,3.258,-0.003,-0.011,0.000,0.000,0.000,0.000,0.3050,0,1,-12.37,-3.46,-93.37,-3.1739,-0.2264,-0.4608
28816,0.2905,0.1191,0.3060,0.0709,0.1000,-0.0093,-0.62,0.89,-93.38,0,3.616,-3.585,2.975,1.863,0.002,-0.012,0.000,0.000,0.000,0.000,0.3040,0,1,-12.58,-3.44,-93.10,-3.2047,-0.2499,-0.4173
28867,0.2856,0.1212,0.3047,0.0591,0.1010,-0.0123,-0.60,0.71,-93.29,0,3.626,-5.660,3.464,1.210,0.002,-0.012,0.000,0.000,0.000,0.000,0.3050,0,2,-12.87,-3.31,-92.98,-3.2257,-0.2641,-0.3693
28919,0.2861,0.1250,0.3043,0.0590,0.1034,-0.0092,-0.78,0.54,-93.23,0,3.616,0.242,-2.420,1.707,0.003,-0.010,0.000,0.000,0.000,0.000,0.3030,0,1,-13.20,-3.14,-92.92,-3.2363,-0.2722,-0.3274
28971,0.2883,0.1305,0.3034,0.0647,0.1080,-0.0083,-0.90,0.52,-93.15,0,3.626,-0.332,-0.944,0.477,0.005,-0.010,0.000,0.000,0.000,0.000,0.3040,0,2,-13.21,-3.25,-92.77,-3.2438,-0.2779,-0.2909
29022,0.2893,0.1358,0.3034,0.0675,0.1117,-0.0036,-0.89,0.59,-93.12,0,3.621,3.999,0.249,-0.125,0.003,-0.012,0.000,0.000,0.000,0.000,0.3040,-9,3,-13.23,-3.29,-92.67,-3.2493,-0.2847,-0.2606
29073,0.2853,0.1415,0.3037,0.0587,0.1165,0.0019,-0.77,0.60,-93.13,0,3.632,3.095,0.496,-0.150,0.004,-0.014,0.000,0.000,0.000,0.000,0.3110,0,2,-12.98,-3.27,-92.70,-3.2487,-0.2824,-0.2383
29125,0.2941,0.1465,0.3074,0.0768,0.1188,0.0203,-0.60,0.53,-93.15,0,3.621,3.502,-1.046,-0.955,0.002,-0.011,0.000,0.000,0.000,0.000,0.3050,-8,5,-12.89,-3.26,-92.70,-3.2672,-0.2854,-0.2238
29176,0.2985,0.1527,0.3070,0.0831,0.1233,0.0138,-0.52,0.59,-93.17,0,3.632,6.976,-0.542,-2.393,0.003,-0.015,0.000,0.000,0.000,0.000,0.3080,0,0,-12.68,-3.29,-92.71,-3.2711,-0.2879,-0.2372
29227,0.3124,0.1605,0.3080,0.1088,0.1315,0.0132,-0.28,0.59,-93.23,0,3.621,10.300,2.322,-2.400,0.005,-0.013,0.000,0.000,0.000,0.000,0.3050,-19,7,-12.30,-3.36,-92.88,-3.2803,-0.2835,-0.2461
29278,0.3113,0.1655,0.3070,0.0952,0.1325,0.0036,0.12,0.51,-93.33,0,3.626,4.494,3.144,-2.774,0.001,-0.015,0.000,0.000,0.000,0.000,0.3020,-1,2,-11.77,-3.25,-93.01,-3.2922,-0.2861,-0.2497
29328,0.3265,0.1734,0.3046,0.1161,0.1387,-0.0102,0.47,0.33,-93.48,0,3.621,3.609,1.757,-4.038,0.002,-0.015,0.000,0.000,0.000,0.000,0.3010,1,1,-11.63,-3.14,-93.15,-3.3142,-0.2938,-0.2759
29380,0.3315,0.1805,0.3024,0.1104,0.1421,-0.0194,0.67,0.28,-93.68,0,3.621,4.823,-2.413,-3.868,0.003,-0.016,0.000,0.000,0.000,0.000,0.3010,0,2,-11.45,-3.11,-93.40,-3.3227,-0.2926,-0.3002
29431,0.3381,0.1889,0.3008,0.1074,0.1477,-0.0211,0.83,0.30,-93.86,0,3.616,0.871,0.541,-1.934,0.003,-0.014,0.000,0.000,0.000,0.000,0.3050,-1,1,-11.21,-3.26,-93.57,-3.3301,-0.2919,-0.3094
29483,0.3474,0.1971,0.3021,0.1104,0.1525,-0.0081,0.85,0.26,-93.96,0,3.626,-1.175,6.995,0.931,0.003,-0.013,0.000,0.000,0.000,0.000,0.3030,0,1,-11.18,-3.26,-93.69,-3.3348,-0.2910,-0.3092
29535,0.3457,0.2013,0.3023,0.0857,0.1463,-0.0019,0.90,-0.03,-93.96,0,3.621,2.060,-1.475,3.882,0.009,-0.008,0.000,0.000,0.000,0.000,0.3040,0,3,-11.25,-2.93,-93.74,-3.3405,-0.2929,-0.3028
29586,0.3510,0.2078,0.3032,0.0806,0.1444,0.0072,0.94,-0.10,-93.81,0,3.626,-0.136,-4.443,5.787,0.003,-0.010,0.000,0.000,0.000,0.000,0.3020,-1,0,-11.17,-2.95,-93.51,-3.3447,-0.2931,-0.2911
29638,0.3555,0.2163,0.3030,0.0745,0.1475,0.0063,0.93,0.07,-93.50,0,3.621,-3.199,1.467,7.547,0.004,-0.013,0.000,0.000,0.000,0.000,0.3000,5,0,-11.20,-3.12,-93.17,-3.3487,-0.2949,-0.2838
29688,0.3510,0.2207,0.3018,0.0462,0.1414,-0.0013,0.98,0.05,-93.13,0,3.626,-2.046,-1.505,7.936,0.007,-0.010,0.000,0.000,0.000,0.000,0.3050,2,0,-11.42,-2.98,-92.79,-3.3581,-0.2978,-0.2718
29740,0.3537,0.2270,0.3033,0.0404,0.1405,0.0050,0.83,0.08,-92.73,0,3.621,-5.727,-6.284,9.246,0.003,-0.011,0.000,0.000,0.000,0.000,0.2990,3,0,-11.53,-2.97,-92.39,-3.3613,-0.2986,-0.2714
29791,0.3526,0.2337,0.3013,0.0269,0.1412,-0.0064,0.64,0.29,-92.27,0,3.621,-1.650,-3.649,8.387,0.003,-0.014,0.000,0.000,0.000,0.000,0.2980,8,1,-11.83,-3.17,-91.84,-3.3652,-0.2988,-0.2681
29843,0.3570,0.2398,0.2994,0.0306,0.1420,-0.0139,0.47,0.43,-91.80,0,3.616,0.907,-0.543,9.296,0.005,-0.014,0.000,0.000,0.000,0.000,0.3000,1,2,-11.98,-3.24,-91.34,-3.3805,-0.3037,-0.2700
29894,0.3554,0.2452,0.2991,0.0196,0.1407,-0.0119,0.43,0.36,-91.32,0,3.621,0.047,-1.698,8.814,0.004,-0.013,0.000,0.000,0.000,0.000,0.2990,1,1,-11.92,-3.16,-90.90,-3.3848,-0.3029,-0.2715
29946,0.3557,0.2526,0.2985,0.0139,0.1445,-0.0108,0.46,0.44,-90.88,0,3.616,-0.575,0.996,6.797,-0.000,-0.009,0.000,0.000,0.000,0.000,0.2990,-1,4,-11.94,-3.16,-90.45,-3.3978,-0.3052,-0.2729
29997,0.3577,0.2592,0.2984,0.0144,0.1468,-0.0085,0.40,0.44,-90.51,0,3.621,-3.841,2.856,5.779,0.007,-0.012,0.000,0.000,0.000,0.000,0.2980,-8,3,-11.99,-3.02,-90.10,-3.4089,-0.3086,-0.2792
