time_ms,pos_x,pos_y,pos_z,vel_x,vel_y,vel_z,roll,pitch,yaw,thrust,vbat,gyro_x,gyro_y,gyro_z,acc_x,acc_y,acc_z,rate_roll,rate_pitch,rate_yaw,range_z,flow_dx,flow_dy,mekf_roll,mekf_pitch,mekf_yaw,mekf_x,mekf_y,mekf_z,our_ref_x,our_ref_y,our_ref_z,our_thrust,our_roll_cmd,our_pitch_cmd,our_yaw_rate_cmd,multi_front,multi_back,multi_left,multi_right,multi_up,ai_feat_count,vo_x,vo_y,vo_sigma,pg_x,pg_y,lc_count
0,0.5009,-0.2601,0.0105,0.0046,0.0023,-0.0044,-0.97,0.89,126.10,0,3.706,-0.155,0.000,0.012,0.015,-0.018,1.000,0.000,0.000,0.000,0.0120,-3,0,0.00,0.00,0.00,0.0000,0.0000,0.0000,0.0000,0.0000,0.0000,0.0000,0.00,0.00,0.00,1.1460,0.0000,1.3400,1.0790,2.7060,0,0.0000,0.0000,0.0000,0.0000,0.0000,0
101,0.5042,-0.2626,0.0106,0.0216,-0.0117,-0.0027,-1.05,1.05,125.59,0,3.706,0.123,0.209,0.091,0.015,-0.018,1.001,0.000,0.000,0.000,0.0090,9,0,0.00,0.00,0.00,0.0000,0.0000,0.0000,0.0000,0.0000,0.0000,0.0000,0.00,0.00,0.00,1.1330,0.0000,1.3400,1.0790,2.7060,0,0.0000,0.0000,0.0000,0.0000,0.0000,0
202,0.5041,-0.2642,0.0112,0.0160,-0.0182,0.0010,-1.00,1.06,125.07,0,3.700,-0.368,-0.145,-0.056,0.014,-0.020,0.996,0.000,0.000,0.000,0.0120,24,-3,0.00,0.00,0.00,0.0000,0.0000,0.0000,0.0000,0.0000,0.0000,0.0000,0.00,0.00,0.00,1.1330,0.0000,1.3330,1.0830,2.7020,0,0.0000,0.0000,0.0000,0.0000,0.0000,0
303,0.5059,-0.2639,0.0103,0.0230,-0.0140,-0.0042,-0.80,1.02,124.56,0,3.706,0.060,0.077,-0.269,0.015,-0.017,1.000,0.000,0.000,0.000,0.0090,-1,4,0.00,0.00,0.00,0.0000,0.0000,0.0000,0.0000,0.0000,0.0000,0.0000,0.00,0.00,0.00,1.1440,0.0000,1.3330,1.0830,2.7020,0,0.0000,0.0000,0.0000,0.0000,0.0000,0
404,0.5085,-0.2602,0.0111,0.0303,0.0057,0.0003,-0.91,0.98,124.06,0,3.700,-0.075,-0.024,-0.081,0.013,-0.020,0.999,0.000,0.000,0.000,0.0090,39,3,0.00,0.00,0.00,0.0000,0.0000,0.0000,0.0000,0.0000,0.0000,0.0000,0.00,0.00,0.00,1.1440,0.0000,1.3340,1.0840,2.7010,0,0.0000,0.0000,0.0000,0.0000,0.0000,0
505,0.5093,-0.2575,0.0101,0.0290,0.0183,-0.0038,-0.49,0.88,123.54,0,3.700,-0.137,-0.087,0.165,0.016,-0.021,0.998,0.000,0.000,0.000,0.0120,-5,-3,0.00,0.00,0.00,0.0000,0.0000,0.0000,0.0000,0.0000,0.0000,0.0000,0.00,0.00,0.00,1.1380,0.0000,1.3340,1.0840,2.7010,0,0.0000,0.0000,0.0000,0.0000,0.0000,0
606,0.5180,-0.2539,0.0093,0.0651,0.0300,-0.0078,-0.66,0.90,123.05,0,3.706,0.050,-0.050,-0.058,0.015,-0.019,0.999,0.000,0.000,0.000,0.0070,-2,1,0.00,0.00,0.00,0.0000,0.0000,0.0000,0.0000,0.0000,0.0000,0.0000,0.00,0.00,0.00,1.1380,0.0000,1.3370,1.0830,2.6960,0,0.0000,0.0000,0.0000,0.0000,0.0000,0
707,0.5212,-0.2524,0.0104,0.0686,0.0308,-0.0015,-0.64,0.94,122.54,0,3.706,0.020,-0.139,0.020,0.016,-0.020,1.000,0.000,0.000,0.000,0.0100,7,-2,0.00,0.00,0.00,0.0000,0.0000,0.0000,0.0000,0.0000,0.0000,0.0000,0.00,0.00,0.00,1.1360,0.0000,1.3370,1.0830,2.6960,0,0.0000,0.0000,0.0000,0.0000,0.0000,0
809,0.5202,-0.2523,0.0089,0.0486,0.0237,-0.0072,-0.73,0.88,122.04,0,3.706,-0.111,-0.278,-0.303,0.013,-0.018,1.002,0.000,0.000,0.000,0.0130,-10,-7,0.00,0.00,0.00,0.0000,0.0000,0.0000,0.0000,0.0000,0.0000,0.0000,0.00,0.00,0.00,1.1360,0.0000,1.3370,1.0830,2.7030,0,0.0000,0.0000,0.0000,0.0000,0.0000,0
911,0.5221,-0.2518,0.0092,0.0483,0.0204,-0.0043,-0.92,0.85,121.63,0,3.706,0.169,-0.033,0.204,0.015,-0.019,1.000,0.000,0.000,0.000,0.0070,9,-2,0.00,0.00,0.00,0.0000,0.0000,0.0000,0.0000,0.0000,0.0000,0.0000,0.00,0.00,0.00,1.1320,0.0000,1.3370,1.0830,2.7030,0,0.0000,0.0000,0.0000,0.0000,0.0000,0
1012,0.5200,-0.2519,0.0113,0.0278,0.0144,0.0065,-0.92,0.84,121.14,0,3.700,-0.121,-0.080,0.158,0.015,-0.018,1.001,0.000,0.000,0.000,0.0150,0,-1,0.00,0.00,0.00,0.0000,0.0000,0.0000,0.0000,0.0000,0.0000,0.0000,0.00,0.00,0.00,1.1320,0.0000,1.3350,1.0820,2.6980,0,0.0000,0.0000,0.0000,0.0000,0.0000,0
1113,0.5198,-0.2523,0.0095,0.0192,0.0086,-0.0017,-1.08,0.86,120.64,0,3.700,0.262,0.027,-0.219,0.015,-0.020,1.001,0.000,0.000,0.000,0.0120,-1,-6,0.00,0.00,0.00,0.0000,0.0000,0.0000,0.0000,0.0000,0.0000,0.0000,0.00,0.00,0.00,1.1410,0.0970,1.3350,1.0820,2.6980,0,0.0000,0.0000,0.0000,0.0000,0.0000,0
1214,0.5218,-0.2516,0.0124,0.0255,0.0096,0.0111,-1.05,0.84,120.14,0,3.695,0.170,0.163,0.075,0.015,-0.018,1.000,0.000,0.000,0.000,0.0110,1,-4,0.00,0.00,0.00,0.0000,0.0000,0.0000,0.0000,0.0000,0.0000,0.0000,0.00,0.00,0.00,1.1410,0.0970,1.3340,1.0840,2.7020,0,0.0000,0.0000,0.0000,0.0000,0.0000,0
1315,0.5220,-0.2511,0.0127,0.0220,0.0103,0.0106,-1.06,0.84,119.65,0,3.706,0.115,-0.099,-0.508,0.015,-0.018,0.999,0.000,0.000,0.000,0.0150,3,-3,0.00,0.00,0.00,0.0000,0.0000,0.0000,0.0000,0.0000,0.0000,0.0000,0.00,0.00,0.00,1.1390,0.0000,1.3340,1.0840,2.7020,0,0.0000,0.0000,0.0000,0.0000,0.0000,0
1416,0.5215,-0.2519,0.0124,0.0141,0.0031,0.0066,-1.10,0.88,119.05,0,3.700,-0.039,-0.136,0.132,0.015,-0.019,1.000,0.000,0.000,0.000,0.0100,-14,0,0.00,0.00,0.00,0.0000,0.0000,0.0000,0.0000,0.0000,0.0000,0.0000,0.00,0.00,0.00,1.1390,0.0000,1.3320,1.0850,2.7040,0,0.0000,0.0000,0.0000,0.0000,0.0000,0
1517,0.5217,-0.2510,0.0140,0.0126,0.0057,0.0123,-1.26,0.88,118.65,0,3.706,-0.034,-0.067,0.233,0.016,-0.017,0.997,0.000,0.000,0.000,0.0100,-18,3,0.00,0.00,0.00,0.0000,0.0000,0.0000,0.0000,0.0000,0.0000,0.0000,0.00,0.00,0.00,1.1470,0.0000,1.3320,1.0850,2.7040,0,0.0000,0.0000,0.0000,0.0000,0.0000,0
1568,0.5123,-0.2542,0.0124,-0.0371,-0.0115,0.0028,-1.66,0.85,118.16,0,3.706,-0.137,-0.062,0.142,0.015,-0.019,0.999,0.000,0.000,0.000,0.0090,5,3,0.00,0.00,0.00,0.0000,0.0000,0.0000,0.0000,0.0000,0.0000,0.0000,0.00,0.00,0.00,1.1470,0.0000,1.3340,1.0830,2.7050,0,0.0000,0.0000,0.0000,0.0000,0.0000,0
1619,0.5086,-0.2559,0.0113,-0.0482,-0.0173,-0.0027,-1.51,0.86,117.67,0,3.700,-0.155,0.122,-0.181,0.015,-0.018,1.001,0.000,0.000,0.000,0.0090,-1,-9,0.00,0.00,0.00,0.0000,0.0000,0.0000,0.0000,0.0000,0.0000,0.0000,0.00,0.00,0.00,1.1410,0.0000,1.3340,1.0830,2.7050,0,0.0000,0.0000,0.0000,0.0000,0.0000,0
1670,0.5055,-0.2596,0.0099,-0.0554,-0.0326,-0.0084,-1.63,0.83,117.19,0,3.706,-0.051,0.334,0.078,0.016,-0.018,0.998,0.000,0.000,0.000,0.0110,-6,-3,0.00,0.00,0.00,0.0000,0.0000,0.0000,0.0000,0.0000,0.0000,0.0000,0.00,0.00,0.00,1.1410,0.0000,1.3340,1.0830,2.7000,0,0.0000,0.0000,0.0000,0.0000,0.0000,0
1720,0.5065,-0.2593,0.0094,-0.0401,-0.0253,-0.0083,-1.50,0.90,116.70,0,3.711,-0.117,-0.035,0.050,0.015,-0.018,0.998,0.000,0.000,0.000,0.0160,-4,-4,0.00,0.00,0.00,0.0000,0.0000,0.0000,0.0000,0.0000,0.0000,0.0000,0.00,0.00,0.00,1.1380,0.1010,1.3340,1.0830,2.7000,0,0.0000,0.0000,0.0000,0.0000,0.0000,0
1772,0.5026,-0.2559,0.0100,-0.0520,-0.0014,-0.0040,-1.45,0.68,116.22,0,3.706,0.192,-0.112,-0.254,0.016,-0.019,1.001,0.000,0.000,0.000,0.0110,7,0,0.00,0.00,0.00,0.0000,0.0000,0.0000,0.0000,0.0000,0.0000,0.0000,0.00,0.00,0.00,1.1380,0.1010,1.3320,1.0860,2.7020,0,0.0000,0.0000,0.0000,0.0000,0.0000,0
1823,0.5015,-0.2558,0.0130,-0.0466,0.0003,0.0092,-1.27,0.75,115.73,0,3.706,-0.124,-0.292,-0.215,0.014,-0.022,1.001,0.000,0.000,0.000,0.0140,-21,-7,0.00,0.00,0.00,0.0000,0.0000,0.0000,0.0000,0.0000,0.0000,0.0000,0.00,0.00,0.00,1.1490,0.0000,1.3320,1.0860,2.7020,0,0.0000,0.0000,0.0000,0.0000,0.0000,0
1874,0.5028,-0.2565,0.0126,-0.0307,-0.0035,0.0061,-1.41,0.78,115.24,0,3.706,-0.006,0.083,0.048,0.013,-0.019,1.001,0.000,0.000,0.000,0.0110,-2,1,0.00,0.00,0.00,0.0000,0.0000,0.0000,0.0000,0.0000,0.0000,0.0000,0.00,0.00,0.00,1.1490,0.0000,1.3360,1.0880,2.7010,0,0.0000,0.0000,0.0000,0.0000,0.0000,0
1926,0.4978,-0.2548,0.0138,-0.0461,0.0057,0.0098,-1.29,0.75,114.76,0,3.706,0.028,0.029,-0.118,0.015,-0.019,1.000,0.000,0.000,0.000,0.0130,-1,0,0.00,0.00,0.00,0.0000,0.0000,0.0000,0.0000,0.0000,0.0000,0.0000,0.00,0.00,0.00,1.1400,0.0000,1.3360,1.0880,2.7010,0,0.0000,0.0000,0.0000,0.0000,0.0000,0
1978,0.4961,-0.2541,0.0129,-0.0434,0.0097,0.0037,-1.24,0.74,114.27,0,3.706,-0.031,-0.240,-0.138,0.017,-0.017,1.001,0.000,0.000,0.000,0.0090,-6,6,0.00,0.00,0.00,0.0000,0.0000,0.0000,0.0000,0.0000,0.0000,0.0000,0.00,0.00,0.00,1.1400,0.0000,1.3350,1.0820,2.7000,0,0.0000,0.0000,0.0000,0.0000,0.0000,0
2030,0.4940,-0.2542,0.0131,-0.0450,0.0071,0.0041,-1.24,0.86,113.79,0,3.700,-0.188,-0.294,0.256,0.017,-0.017,0.999,0.000,0.000,0.000,0.0090,7,3,0.00,0.00,0.00,0.0000,0.0000,0.0000,0.0000,0.0000,0.0000,0.0000,0.00,0.00,0.00,1.1390,0.0000,1.3350,1.0820,2.7000,0,0.0000,0.0000,0.0000,0.0000,0.0000,0
2081,0.4949,-0.2547,0.0113,-0.0316,0.0035,-0.0049,-1.08,0.88,113.31,0,3.706,-0.074,0.289,-0.096,0.015,-0.020,1.001,0.000,0.000,0.000,0.0110,-13,1,0.00,0.00,0.00,0.0000,0.0000,0.0000,0.0000,0.0000,0.0000,0.0000,0.00,0.00,0.00,1.1390,0.0000,1.3340,1.0850,2.7000,0,0.0000,0.0000,0.0000,0.0000,0.0000,0
2132,0.4947,-0.2545,0.0099,-0.0252,0.0031,-0.0099,-1.23,0.89,112.83,0,3.700,-0.249,-0.157,-0.133,0.015,-0.021,0.997,0.000,0.000,0.000,0.0130,-4,-7,0.00,0.00,0.00,0.0000,0.0000,0.0000,0.0000,0.0000,0.0000,0.0000,0.00,0.00,0.00,1.1310,0.0000,1.3340,1.0850,2.7000,0,0.0000,0.0000,0.0000,0.0000,0.0000,0
2183,0.4909,-0.2498,0.0102,-0.0361,0.0309,-0.0069,-1.12,0.59,112.35,0,3.706,-0.121,0.109,0.017,0.014,-0.020,1.001,0.000,0.000,0.000,0.0100,0,0,0.00,0.00,0.00,0.0000,0.0000,0.0000,0.0000,0.0000,0.0000,0.0000,0.00,0.00,0.00,1.1310,0.0000,1.3390,1.0850,2.7020,0,0.0000,0.0000,0.0000,0.0000,0.0000,0
2235,0.4882,-0.2496,0.0114,-0.0417,0.0256,-0.0009,-1.15,0.68,111.87,0,3.695,0.028,-0.217,-0.075,0.014,-0.021,0.998,0.000,0.000,0.000,0.0090,2,-1,0.00,0.00,0.00,0.0000,0.0000,0.0000,0.0000,0.0000,0.0000,0.0000,0.00,0.00,0.00,1.1370,0.0000,1.3390,1.0850,2.7020,0,0.0000,0.0000,0.0000,0.0000,0.0000,0
2287,0.4903,-0.2487,0.0108,-0.0218,0.0251,-0.0034,-0.98,0.76,111.39,0,3.706,0.049,0.211,0.142,0.015,-0.019,1.000,0.000,0.000,0.000,0.0120,4,0,0.00,0.00,0.00,0.0000,0.0000,0.0000,0.0000,0.0000,0.0000,0.0000,0.00,0.00,0.00,1.1370,0.0000,1.3380,1.0810,2.6920,0,0.0000,0.0000,0.0000,0.0000,0.0000,0
2338,0.4883,-0.2499,0.0098,-0.0277,0.0142,-0.0069,-1.04,0.84,110.92,0,3.706,0.269,0.138,0.216,0.015,-0.021,1.000,0.000,0.000,0.000,0.0130,-11,-8,0.00,0.00,0.00,0.0000,0.0000,0.0000,0.0000,0.0000,0.0000,0.0000,0.00,0.00,0.00,1.1350,0.0000,1.3380,1.0810,2.6920,0,0.0000,0.0000,0.0000,0.0000,0.0000,0
2389,0.4906,-0.2492,0.0108,-0.0087,0.0139,-0.0014,-1.05,0.82,110.45,0,3.700,-0.303,-0.186,-0.055,0.018,-0.018,0.999,0.000,0.000,0.000,0.0110,10,2,0.00,0.00,0.00,0.0000,0.0000,0.0000,0.0000,0.0000,0.0000,0.0000,0.00,0.00,0.00,1.1350,0.0000,1.3360,1.0830,2.7000,0,0.0000,0.0000,0.0000,0.0000,0.0000,0
2440,0.4876,-0.2479,0.0119,-0.0208,0.0167,0.0036,-0.94,0.88,109.98,0,3.695,-0.017,0.118,-0.066,0.015,-0.018,0.998,0.000,0.000,0.000,0.0090,4,2,0.00,0.00,0.00,0.0000,0.0000,0.0000,0.0000,0.0000,0.0000,0.0000,0.00,0.00,0.00,1.1420,0.1020,1.3360,1.0830,2.7000,0,0.0000,0.0000,0.0000,0.0000,0.0000,0
2491,0.4858,-0.2435,0.0116,-0.0260,0.0362,0.0004,-0.99,0.73,109.51,0,3.706,-0.159,0.295,0.191,0.014,-0.020,1.001,0.000,0.000,0.000,0.0130,-11,-14,0.00,0.00,0.00,0.0000,0.0000,0.0000,0.0000,0.0000,0.0000,0.0000,0.00,0.00,0.00,1.1420,0.1020,1.3410,1.0850,2.6980,0,0.0000,0.0000,0.0000,0.0000,0.0000,0
2542,0.4865,-0.2430,0.0104,-0.0154,0.0308,-0.0044,-1.06,0.66,109.04,0,3.695,0.002,-0.195,-0.113,0.015,-0.021,0.998,0.000,0.000,0.000,0.0110,-6,-6,0.00,0.00,0.00,0.0000,0.0000,0.0000,0.0000,0.0000,0.0000,0.0000,0.00,0.00,0.00,1.1380,0.0000,1.3410,1.0850,2.6980,0,0.0000,0.0000,0.0000,0.0000,0.0000,0
2594,0.4837,-0.2443,0.0117,-0.0234,0.0161,0.0015,-1.11,0.83,108.58,0,3.700,-0.064,-0.144,-0.076,0.015,-0.018,0.998,0.000,0.000,0.000,0.0120,-8,-17,0.00,0.00,0.00,0.0000,0.0000,0.0000,0.0000,0.0000,0.0000,0.0000,0.00,0.00,0.00,1.1380,0.0000,1.3360,1.0860,2.6900,0,0.0000,0.0000,0.0000,0.0000,0.0000,0
2646,0.4839,-0.2433,0.0115,-0.0151,0.0171,0.0005,-1.06,0.75,108.11,0,3.700,0.172,-0.053,-0.108,0.013,-0.020,1.001,0.000,0.000,0.000,0.0130,6,3,0.00,0.00,0.00,0.0000,0.0000,0.0000,0.0000,0.0000,0.0000,0.0000,0.00,0.00,0.00,1.1420,0.1020,1.3360,1.0860,2.6900,0,0.0000,0.0000,0.0000,0.0000,0.0000,0
2697,0.4827,-0.2400,0.0118,-0.0153,0.0284,0.0015,-0.91,0.85,107.65,0,3.706,-0.239,-0.061,0.090,0.014,-0.017,0.996,0.000,0.000,0.000,0.0110,1,0,0.00,0.00,0.00,0.0000,0.0000,0.0000,0.0000,0.0000,0.0000,0.0000,0.00,0.00,0.00,1.1420,0.1020,1.3350,1.0850,2.6980,0,0.0000,0.0000,0.0000,0.0000,0.0000,0
2749,0.4837,-0.2395,0.0126,-0.0064,0.0250,0.0036,-0.90,0.88,107.19,0,3.700,0.054,0.104,-0.013,0.016,-0.020,0.999,0.000,0.000,0.000,0.0100,3,0,0.00,0.00,0.00,0.0000,0.0000,0.0000,0.0000,0.0000,0.0000,0.0000,0.00,0.00,0.00,1.1470,0.0000,1.3350,1.0850,2.6980,0,0.0000,0.0000,0.0000,0.0000,0.0000,0
2800,0.4832,-0.2402,0.0120,-0.0052,0.0155,-0.0000,-0.90,0.95,106.73,0,3.706,0.210,-0.116,0.172,0.015,-0.020,1.000,0.000,0.000,0.000,0.0090,0,-7,0.00,0.00,0.00,0.0000,0.0000,0.0000,0.0000,0.0000,0.0000,0.0000,0.00,0.00,0.00,1.1470,0.0000,1.3320,1.0810,2.6970,0,0.0000,0.0000,0.0000,0.0000,0.0000,0
2851,0.4826,-0.2423,0.0110,-0.0061,-0.0011,-0.0043,-0.98,1.00,106.28,0,3.695,-0.086,-0.172,0.238,0.015,-0.017,1.002,0.000,0.000,0.000,0.0110,1,5,0.00,0.00,0.00,0.0000,0.0000,0.0000,0.0000,0.0000,0.0000,0.0000,0.00,0.00,0.00,1.1410,0.0000,1.3320,1.0810,2.6970,0,0.0000,0.0000,0.0000,0.0000,0.0000,0
2902,0.4817,-0.2393,0.0098,-0.0080,0.0130,-0.0083,-0.97,1.00,105.82,0,3.700,0.289,-0.208,-0.224,0.015,-0.018,1.001,0.000,0.000,0.000,0.0110,2,-1,0.00,0.00,0.00,0.0000,0.0000,0.0000,0.0000,0.0000,0.0000,0.0000,0.00,0.00,0.00,1.1410,0.0000,1.3410,1.0830,2.7060,0,0.0000,0.0000,0.0000,0.0000,0.0000,0
2953,0.4818,-0.2399,0.0101,-0.0047,0.0061,-0.0055,-0.95,1.00,105.36,0,3.700,-0.261,-0.175,-0.178,0.014,-0.020,1.002,0.000,0.000,0.000,0.0120,-3,-8,0.00,0.00,0.00,0.0000,0.0000,0.0000,0.0000,0.0000,0.0000,0.0000,0.00,0.00,0.00,1.1400,0.0000,1.3410,1.0830,2.7060,0,0.0000,0.0000,0.0000,0.0000,0.0000,0
3005,0.4827,-0.2398,0.0103,0.0015,0.0043,-0.0025,-0.96,0.95,104.90,0,3.706,0.075,-0.227,-0.089,0.016,-0.020,0.998,0.000,0.000,0.000,0.0120,-13,2,0.00,0.00,0.00,0.0000,0.0000,0.0000,0.0000,0.0000,0.0000,0.0000,0.00,0.00,0.00,1.1400,0.0000,1.3380,1.0800,2.7080,0,0.0000,0.0000,0.0000,0.0000,0.0000,0
3057,0.4837,-0.2398,0.0111,0.0085,0.0028,0.0008,-1.01,1.06,104.45,0,3.695,0.158,-0.065,-0.160,0.015,-0.018,0.999,0.000,0.000,0.000,0.0140,6,2,0.00,0.00,0.00,0.0000,0.0000,0.0000,0.0000,0.0000,0.0000,0.0000,0.00,0.00,0.00,1.1320,0.0000,1.3380,1.0800,2.7080,0,0.0000,0.0000,0.0000,0.0000,0.0000,0
3108,0.4825,-0.2410,0.0117,0.0029,-0.0039,0.0030,-0.89,1.09,103.99,0,3.706,-0.117,-0.212,0.012,0.016,-0.020,0.998,0.000,0.000,0.000,0.0140,-2,0,0.00,0.00,0.00,0.0000,0.0000,0.0000,0.0000,0.0000,0.0000,0.0000,0.00,0.00,0.00,1.1320,0.0000,1.3330,1.0860,2.7010,0,0.0000,0.0000,0.0000,0.0000,0.0000,0
3159,0.4835,-0.2416,0.0130,0.0087,-0.0078,0.0070,-0.94,1.09,103.54,0,3.690,-0.243,-0.093,0.095,0.014,-0.019,0.999,0.000,0.000,0.000,0.0100,-14,-2,0.00,0.00,0.00,0.0000,0.0000,0.0000,0.0000,0.0000,0.0000,0.0000,0.00,0.00,0.00,1.1380,0.0000,1.3330,1.0860,2.7010,0,0.0000,0.0000,0.0000,0.0000,0.0000,0
3209,0.4835,-0.2416,0.0139,0.0081,-0.0077,0.0094,-1.06,1.06,103.09,0,3.706,0.164,0.019,-0.161,0.015,-0.020,1.000,0.000,0.000,0.000,0.0100,-7,9,0.00,0.00,0.00,0.0000,0.0000,0.0000,0.0000,0.0000,0.0000,0.0000,0.00,0.00,0.00,1.1380,0.0000,1.3330,1.0830,2.7040,0,0.0000,0.0000,0.0000,0.0000,0.0000,0
3261,0.4809,-0.2366,0.0124,-0.0052,0.0189,0.0008,-1.05,0.95,102.64,0,3.695,-0.078,-0.267,0.240,0.014,-0.019,0.998,0.000,0.000,0.000,0.0120,0,-6,0.00,0.00,0.00,0.0000,0.0000,0.0000,0.0000,0.0000,0.0000,0.0000,0.00,0.00,0.00,1.1390,0.0000,1.3330,1.0830,2.7040,0,0.0000,0.0000,0.0000,0.0000,0.0000,0
3312,0.4810,-0.2381,0.0113,-0.0026,0.0070,-0.0047,-0.98,0.90,102.19,0,3.706,0.069,-0.126,-0.255,0.019,-0.018,0.999,0.000,0.000,0.000,0.0130,-4,1,0.00,0.00,0.00,0.0000,0.0000,0.0000,0.0000,0.0000,0.0000,0.0000,0.00,0.00,0.00,1.1390,0.0000,1.3370,1.0860,2.6980,0,0.0000,0.0000,0.0000,0.0000,0.0000,0
3365,0.4803,-0.2387,0.0115,-0.0049,0.0021,-0.0032,-1.04,1.00,101.75,0,3.700,-0.309,0.024,0.319,0.017,-0.021,0.998,0.000,0.000,0.000,0.0120,0,0,0.00,0.00,0.00,0.0000,0.0000,0.0000,0.0000,0.0000,0.0000,0.0000,0.00,0.00,0.00,1.1440,0.0000,1.3370,1.0860,2.6980,0,0.0000,0.0000,0.0000,0.0000,0.0000,0
3416,0.4891,-0.2426,0.0122,0.0415,-0.0171,0.0002,-0.69,1.21,101.30,0,3.706,-0.091,0.001,-0.126,0.015,-0.021,0.997,0.000,0.000,0.000,0.0150,-5,-2,0.00,0.00,0.00,0.0000,0.0000,0.0000,0.0000,0.0000,0.0000,0.0000,0.00,0.00,0.00,1.1440,0.0000,1.3350,1.0820,2.7010,0,0.0000,0.0000,0.0000,0.0000,0.0000,0
3467,0.4924,-0.2417,0.0121,0.0518,-0.0098,-0.0010,-0.69,1.12,100.85,0,3.695,-0.083,0.041,0.070,0.014,-0.020,0.997,0.000,0.000,0.000,0.0120,-5,-2,0.00,0.00,0.00,0.0000,0.0000,0.0000,0.0000,0.0000,0.0000,0.0000,0.00,0.00,0.00,1.1450,0.0000,1.3350,1.0820,2.7010,0,0.0000,0.0000,0.0000,0.0000,0.0000,0
3518,0.4900,-0.2425,0.0138,0.0313,-0.0139,0.0059,-0.87,1.09,100.42,0,3.700,-0.054,0.121,-0.205,0.014,-0.020,1.000,0.000,0.000,0.000,0.0120,6,8,0.00,0.00,0.00,0.0000,0.0000,0.0000,0.0000,0.0000,0.0000,0.0000,0.00,0.00,0.00,1.1450,0.0000,1.3380,1.0820,2.6950,0,0.0000,0.0000,0.0000,0.0000,0.0000,0
3569,0.4896,-0.2417,0.0133,0.0243,-0.0073,0.0029,-0.82,1.11,99.98,0,3.700,-0.064,-0.137,0.115,0.017,-0.019,1.000,0.000,0.000,0.000,0.0120,-10,0,0.00,0.00,0.00,0.0000,0.0000,0.0000,0.0000,0.0000,0.0000,0.0000,0.00,0.00,0.00,1.1350,0.0000,1.3380,1.0820,2.6950,0,0.0000,0.0000,0.0000,0.0000,0.0000,0
3621,0.4892,-0.2422,0.0129,0.0176,-0.0082,0.0003,-1.02,1.02,99.55,0,3.700,-0.181,-0.118,0.258,0.013,-0.019,1.000,0.000,0.000,0.000,0.0110,12,0,0.00,0.00,0.00,0.0000,0.0000,0.0000,0.0000,0.0000,0.0000,0.0000,0.00,0.00,0.00,1.1350,0.0000,1.3370,1.0840,2.7000,0,0.0000,0.0000,0.0000,0.0000,0.0000,0
3673,0.4879,-0.2420,0.0125,0.0098,-0.0058,-0.0011,-0.88,0.98,99.11,0,3.700,0.073,-0.370,0.060,0.013,-0.020,0.999,0.000,0.000,0.000,0.0120,-16,-1,0.00,0.00,0.00,0.0000,0.0000,0.0000,0.0000,0.0000,0.0000,0.0000,0.00,0.00,0.00,1.1340,0.0000,1.3370,1.0840,2.7000,0,0.0000,0.0000,0.0000,0.0000,0.0000,0
3724,0.4870,-0.2414,0.0118,0.0027,-0.0031,-0.0042,-1.15,0.98,98.68,0,3.706,0.180,0.023,-0.238,0.013,-0.017,0.996,0.000,0.000,0.000,0.0140,-4,14,0.00,0.00,0.00,0.0000,0.0000,0.0000,0.0000,0.0000,0.0000,0.0000,0.00,0.00,0.00,1.1340,0.0000,1.3350,1.0780,2.6950,0,0.0000,0.0000,0.0000,0.0000,0.0000,0
3775,0.4861,-0.2410,0.0119,-0.0023,-0.0008,-0.0035,-1.10,1.05,98.24,0,3.695,-0.112,-0.207,0.136,0.014,-0.019,0.999,0.000,0.000,0.000,0.0080,-1,-1,0.00,0.00,0.00,0.0000,0.0000,0.0000,0.0000,0.0000,0.0000,0.0000,0.00,0.00,0.00,1.1390,0.0000,1.3350,1.0780,2.6950,0,0.0000,0.0000,0.0000,0.0000,0.0000,0
3826,0.4797,-0.2464,0.0126,-0.0355,-0.0286,-0.0007,-1.30,1.06,97.81,0,3.700,0.169,0.199,-0.347,0.017,-0.018,0.999,0.000,0.000,0.000,0.0120,-2,3,0.00,0.00,0.00,0.0000,0.0000,0.0000,0.0000,0.0000,0.0000,0.0000,0.00,0.00,0.00,1.1390,0.0000,1.3370,1.0830,2.6960,0,0.0000,0.0000,0.0000,0.0000,0.0000,0
3878,0.0000,0.0000,0.5455,0.0051,0.0014,-0.0001,-0.05,0.05,-0.00,0,3.700,-0.135,-0.106,-0.147,0.015,-0.020,1.000,0.000,0.000,0.000,0.0110,6,-1,0.00,0.00,0.00,0.0000,0.0000,0.0000,0.0000,0.0000,0.0000,0.0000,0.00,0.00,0.00,1.1490,0.0000,1.3370,1.0830,2.6960,0,0.0000,0.0000,0.0000,0.0000,0.0000,0
3930,0.0003,-0.0002,0.0120,0.0107,-0.0098,-0.0003,0.12,0.10,-0.00,0,3.700,-0.242,-0.451,-0.328,0.014,-0.019,0.999,0.000,0.000,0.000,0.0110,3,-2,0.00,0.00,0.00,0.0000,0.0000,0.0000,0.0000,0.0000,0.0000,0.0000,0.00,0.00,0.00,1.1490,0.0000,1.3400,1.0830,2.6980,0,0.0000,0.0000,0.0000,0.0000,0.0000,0
3982,0.0002,0.0004,0.0116,0.0064,-0.0013,-0.0011,-0.26,0.20,-0.00,0,3.700,-0.313,-0.136,-0.295,0.014,-0.017,1.000,0.000,0.000,0.000,0.0100,0,-4,0.00,0.00,0.00,0.0000,0.0000,0.0000,0.0000,0.0000,0.0000,0.0000,0.00,0.00,0.00,1.1430,0.1000,1.3400,1.0830,2.6980,0,0.0000,0.0000,0.0000,0.0000,0.0000,0
4033,0.0008,-0.0010,0.0113,0.0132,-0.0202,-0.0018,-0.62,0.22,0.00,0,3.700,-0.148,-0.113,-0.179,0.014,-0.020,1.000,0.000,0.000,0.000,0.0130,-1,-6,0.00,0.00,0.00,0.0000,0.0000,0.0000,0.0000,0.0000,0.0000,0.0000,0.00,0.00,0.00,1.1430,0.1000,1.3310,1.0840,2.6940,0,0.0000,0.0000,0.0000,0.0000,0.0000,0
4083,0.0006,-0.0012,0.0107,0.0084,-0.0196,-0.0042,-0.36,0.26,0.00,0,3.695,0.122,-0.023,0.028,0.014,-0.019,0.999,0.000,0.000,0.000,0.0090,-2,-5,0.00,0.00,0.00,0.0000,0.0000,0.0000,0.0000,0.0000,0.0000,0.0000,0.00,0.00,0.00,1.1410,0.0000,1.3310,1.0840,2.6940,0,0.0000,0.0000,0.0000,0.0000,0.0000,0
4135,0.0005,-0.0021,0.0117,0.0066,-0.0244,0.0013,-0.77,0.40,0.01,0,3.706,0.119,0.093,0.008,0.014,-0.020,1.002,0.000,0.000,0.000,0.0120,-12,8,0.00,0.00,0.00,0.0000,0.0000,0.0000,0.0000,0.0000,0.0000,0.0000,0.00,0.00,0.00,1.1410,0.0000,1.3360,1.0820,2.6960,0,0.0000,0.0000,0.0000,0.0000,0.0000,0
4186,0.0015,-0.0010,0.0104,0.0143,-0.0130,-0.0050,-1.10,0.76,0.01,0,3.700,-0.065,-0.086,0.127,0.018,-0.019,0.998,0.000,0.000,0.000,0.0120,21,5,0.00,0.00,0.00,0.0000,0.0000,0.0000,0.0000,0.0000,0.0000,0.0000,0.00,0.00,0.00,1.1440,0.0000,1.3360,1.0820,2.6960,0,0.0000,0.0000,0.0000,0.0000,0.0000,0
4237,0.0005,-0.0007,0.0112,0.0058,-0.0110,-0.0007,-0.15,0.81,-0.00,0,3.706,-0.100,-0.109,-0.078,0.016,-0.017,0.998,0.000,0.000,0.000,0.0120,4,-26,0.00,0.00,0.00,0.0000,0.0000,0.0000,0.0000,0.0000,0.0000,0.0000,0.00,0.00,0.00,1.1440,0.0000,1.3360,1.0840,2.6990,0,0.0000,0.0000,0.0000,0.0000,0.0000,0
4288,0.0027,-0.0073,0.0115,0.0226,-0.0535,0.0002,-0.10,-0.23,0.00,0,3.700,-0.063,-0.180,0.007,0.014,-0.019,1.000,0.000,0.000,0.000,0.0100,0,0,0.00,0.00,0.00,0.0000,0.0000,0.0000,0.0000,0.0000,0.0000,0.0000,0.00,0.00,0.00,1.1250,0.0000,1.3360,1.0840,2.6990,0,0.0000,0.0000,0.0000,0.0000,0.0000,0
4339,0.0113,-0.0101,0.0116,0.0719,-0.0610,-0.0005,-0.14,-0.22,0.00,0,3.700,0.107,-0.053,-0.061,0.015,-0.020,1.000,0.000,0.000,0.000,0.0120,11,8,0.00,0.00,0.00,0.0000,0.0000,0.0000,0.0000,0.0000,0.0000,0.0000,0.00,0.00,0.00,1.1250,0.0000,1.3380,1.0830,2.6960,0,0.0000,0.0000,0.0000,0.0000,0.0000,0
4390,0.0125,-0.0077,0.0113,0.0655,-0.0326,-0.0010,-0.42,0.24,-0.00,0,3.695,-0.283,-0.255,0.051,0.016,-0.020,1.001,0.000,0.000,0.000,0.0110,2,0,0.00,0.00,0.00,0.0000,0.0000,0.0000,0.0000,0.0000,0.0000,0.0000,0.00,0.00,0.00,1.1350,0.0000,1.3380,1.0830,2.6960,0,0.0000,0.0000,0.0000,0.0000,0.0000,0
4441,0.0123,-0.0108,0.0118,0.0519,-0.0439,0.0017,-0.64,0.36,-0.00,0,3.700,-0.112,0.004,-0.108,0.013,-0.019,0.999,0.000,0.000,0.000,0.0120,0,0,0.00,0.00,0.00,0.0000,0.0000,0.0000,0.0000,0.0000,0.0000,0.0000,0.00,0.00,0.00,1.1350,0.0000,1.3360,1.0830,2.7060,0,0.0000,0.0000,0.0000,0.0000,0.0000,0
4492,0.0110,-0.0051,0.0117,0.0339,-0.0020,0.0011,-1.07,0.53,-0.00,0,3.700,-0.088,-0.085,0.093,0.015,-0.017,0.999,0.000,0.000,0.000,0.0090,0,-8,0.00,0.00,0.00,0.0000,0.0000,0.0000,0.0000,0.0000,0.0000,0.0000,0.00,0.00,0.00,1.1400,0.0000,1.3360,1.0830,2.7060,0,0.0000,0.0000,0.0000,0.0000,0.0000,0
4542,0.0100,-0.0079,0.0121,0.0213,-0.0152,0.0031,-0.94,0.63,0.00,0,3.700,-0.038,0.076,-0.033,0.013,-0.019,0.996,0.000,0.000,0.000,0.0110,13,2,0.00,0.00,0.00,0.0000,0.0000,0.0000,0.0000,0.0000,0.0000,0.0000,0.00,0.00,0.00,1.1400,0.0000,1.3350,1.0800,2.7050,0,0.0000,0.0000,0.0000,0.0000,0.0000,0
4594,0.0107,-0.0077,0.0107,0.0214,-0.0111,-0.0041,-0.80,0.75,-0.00,0,3.700,-0.225,0.078,0.196,0.016,-0.020,1.000,0.000,0.000,0.000,0.0110,0,0,0.00,0.00,0.00,0.0000,0.0000,0.0000,0.0000,0.0000,0.0000,0.0000,0.00,0.00,0.00,1.1340,0.0000,1.3350,1.0800,2.7050,0,0.0000,0.0000,0.0000,0.0000,0.0000,0
4644,0.0110,-0.0081,0.0107,0.0193,-0.0104,-0.0033,-0.99,0.74,0.00,0,3.706,0.029,-0.125,-0.158,0.013,-0.016,1.000,0.000,0.000,0.000,0.0100,-8,4,0.00,0.00,0.00,0.0000,0.0000,0.0000,0.0000,0.0000,0.0000,0.0000,0.00,0.00,0.00,1.1340,0.0000,1.3380,1.0830,2.6980,0,0.0000,0.0000,0.0000,0.0000,0.0000,0
4695,0.0108,-0.0091,0.0108,0.0148,-0.0131,-0.0030,-1.08,0.85,0.01,0,3.695,-0.002,0.029,-0.192,0.012,-0.018,1.000,0.000,0.000,0.000,0.0090,-10,7,0.00,0.00,0.00,0.0000,0.0000,0.0000,0.0000,0.0000,0.0000,0.0000,0.00,0.00,0.00,1.1500,0.0000,1.3380,1.0830,2.6980,0,0.0000,0.0000,0.0000,0.0000,0.0000,0
4747,0.0107,-0.0085,0.0103,0.0117,-0.0083,-0.0044,-1.14,0.91,0.01,0,3.700,-0.181,0.125,0.051,0.015,-0.020,0.998,0.000,0.000,0.000,0.0110,-1,5,0.00,0.00,0.00,0.0000,0.0000,0.0000,0.0000,0.0000,0.0000,0.0000,0.00,0.00,0.00,1.1500,0.0000,1.3350,1.0850,2.6990,0,0.0000,0.0000,0.0000,0.0000,0.0000,0
4798,0.0099,-0.0092,0.0095,0.0057,-0.0108,-0.0066,-1.01,0.92,0.00,0,3.700,0.100,-0.147,-0.024,0.015,-0.020,1.001,0.000,0.000,0.000,0.0120,2,-1,0.00,0.00,0.00,0.0000,0.0000,0.0000,0.0000,0.0000,0.0000,0.0000,0.00,0.00,0.00,1.1360,0.0000,1.3350,1.0850,2.6990,0,0.0000,0.0000,0.0000,0.0000,0.0000,0
4849,0.0085,-0.0089,0.0102,-0.0027,-0.0050,-0.0025,-1.03,0.92,0.01,0,3.700,-0.140,0.195,0.317,0.014,-0.020,0.997,0.000,0.000,0.000,0.0110,9,-11,0.00,0.00,0.00,0.0000,0.0000,0.0000,0.0000,0.0000,0.0000,0.0000,0.00,0.00,0.00,1.1360,0.0000,1.3320,1.0830,2.7040,0,0.0000,0.0000,0.0000,0.0000,0.0000,0
4900,0.0092,-0.0086,0.0110,0.0015,-0.0020,0.0016,-0.98,0.77,0.01,0,3.700,-0.303,-0.034,0.028,0.013,-0.020,0.998,0.000,0.000,0.000,0.0110,5,-7,0.00,0.00,0.00,0.0000,0.0000,0.0000,0.0000,0.0000,0.0000,0.0000,0.00,0.00,0.00,1.1380,0.0000,1.3320,1.0830,2.7040,0,0.0000,0.0000,0.0000,0.0000,0.0000,0
4951,0.0111,-0.0109,0.0113,0.0082,-0.0128,0.0019,-0.91,0.76,0.01,0,3.700,-0.181,-0.056,-0.122,0.012,-0.023,1.000,0.000,0.000,0.000,0.0100,-9,-4,0.00,0.00,0.00,0.0000,0.0000,0.0000,0.0000,0.0000,0.0000,0.0000,0.00,0.00,0.00,1.1380,0.0000,1.3380,1.0830,2.7040,0,0.0000,0.0000,0.0000,0.0000,0.0000,0
5002,0.0131,-0.0157,0.0111,0.0161,-0.0330,0.0005,-0.94,0.72,0.01,0,3.695,-0.132,-0.486,0.356,0.016,-0.018,0.997,0.000,0.000,0.000,0.0150,9,-11,0.00,0.00,0.00,0.0000,0.0000,0.0000,0.0000,0.0000,0.0000,0.0000,0.00,0.00,0.00,1.1410,0.0000,1.3380,1.0830,2.7040,0,0.0000,0.0000,0.0000,0.0000,0.0000,0
5053,0.0139,-0.0156,0.0107,0.0170,-0.0273,-0.0014,-0.81,0.65,0.01,0,3.700,0.180,0.094,0.118,0.015,-0.018,1.000,0.000,0.000,0.000,0.0110,-7,4,0.00,0.00,0.00,0.0000,0.0000,0.0000,0.0000,0.0000,0.0000,0.0000,0.00,0.00,0.00,1.1410,0.0000,1.3400,1.0840,2.6960,0,0.0000,0.0000,0.0000,0.0000,0.0000,0
5104,0.0172,-0.0140,0.0129,0.0304,-0.0144,0.0087,-1.10,0.71,0.02,0,3.236,-0.117,-0.204,0.538,0.025,-0.015,0.996,0.000,0.000,0.000,0.0110,0,8,0.00,0.00,0.00,0.0000,0.0000,0.0000,0.0000,0.0000,0.0000,0.0000,0.00,0.00,0.00,1.1400,0.0000,1.3400,1.0840,2.6960,0,0.0000,0.0000,0.0000,0.0000,0.0000,0
5155,0.0182,-0.0128,0.0125,0.0298,-0.0055,0.0051,-1.10,0.77,0.01,0,3.315,-0.319,0.431,-0.433,0.007,-0.026,1.002,0.000,0.000,0.000,0.0120,-15,-2,0.00,0.00,0.00,0.0000,0.0000,0.0000,0.0000,0.0000,0.0000,0.0000,0.00,0.00,0.00,1.1400,0.0000,1.3370,1.0850,2.6910,0,0.0000,0.0000,0.0000,0.0000,0.0000,0
5207,0.0161,-0.0128,0.0120,0.0079,0.0041,0.0015,-1.25,0.78,0.01,0,3.362,-1.259,0.817,2.233,0.018,-0.014,1.000,0.000,0.000,0.000,0.0100,0,0,0.00,0.00,0.00,0.0000,0.0000,0.0000,0.0000,0.0000,0.0000,0.0000,0.00,0.00,0.00,1.1410,0.0000,1.3370,1.0850,2.6910,0,0.0000,0.0000,0.0000,0.0000,0.0000,0
5259,0.0217,-0.0112,0.0123,0.0263,0.0188,0.0039,-1.18,0.57,0.13,0,3.389,-0.293,0.955,-6.161,0.027,-0.001,1.001,0.000,0.000,0.000,0.0130,0,0,0.00,0.00,0.00,0.0000,0.0000,0.0000,0.0000,0.0000,0.0000,0.0000,0.00,0.00,0.00,1.1410,0.0000,1.3340,1.0830,2.7050,0,0.0000,0.0000,0.0000,0.0000,0.0000,0
5312,0.0229,-0.0100,0.0113,0.0214,0.0287,-0.0008,-1.17,0.55,0.05,0,3.394,-0.625,-0.622,17.341,0.011,-0.036,0.988,0.000,0.000,0.000,0.0120,0,0,0.00,0.00,0.00,0.0000,0.0000,0.0000,0.0000,0.0000,0.0000,0.0000,0.00,0.00,0.00,1.1390,0.0000,1.3340,1.0830,2.7050,0,0.0000,0.0000,0.0000,0.0000,0.0000,0
5363,0.0239,-0.0083,0.0122,0.0166,0.0387,0.0007,-1.15,0.56,0.60,0,3.410,-0.118,-0.900,-1.903,0.002,-0.038,0.986,0.000,0.000,0.000,0.0110,-3,-4,0.00,0.00,0.00,0.0000,0.0000,0.0000,0.0000,0.0000,0.0000,0.0000,0.00,0.00,0.00,1.1390,0.0000,1.3330,1.0790,2.6970,0,0.0000,0.0000,0.0000,0.0000,0.0000,0
5414,0.0248,-0.0115,0.0124,0.0128,0.0243,0.0032,-0.97,0.49,0.51,0,3.399,-0.405,-0.746,6.626,0.012,-0.008,1.008,0.000,0.000,0.000,0.0140,0,0,0.00,0.00,0.00,0.0000,0.0000,0.0000,0.0000,0.0000,0.0000,0.0000,0.00,0.00,0.00,1.1280,0.0000,1.3330,1.0790,2.6970,0,0.0000,0.0000,0.0000,0.0000,0.0000,0
5465,0.0245,0.0020,0.0115,0.0043,0.0815,-0.0007,-1.32,0.54,0.91,0,3.399,-1.536,1.729,14.367,0.015,-0.033,1.007,0.000,0.000,0.000,0.0100,0,0,0.00,0.00,0.00,0.0000,0.0000,0.0000,0.0000,0.0000,0.0000,0.0000,0.00,0.00,0.00,1.1280,0.0000,1.3300,1.0830,2.7040,0,0.0000,0.0000,0.0000,0.0000,0.0000,0
5516,0.0246,0.0065,0.0127,-0.0004,0.0929,0.0030,-1.31,0.50,1.48,0,3.394,0.088,1.155,4.736,0.005,-0.008,1.018,0.000,0.000,0.000,0.0120,0,0,0.00,0.00,0.00,0.0000,0.0000,0.0000,0.0000,0.0000,0.0000,0.0000,0.00,0.00,0.00,1.1170,0.1030,1.3300,1.0830,2.7040,0,0.0000,0.0000,0.0000,0.0000,0.0000,0
5567,0.0244,0.0113,0.0115,-0.0050,0.1040,-0.0009,-1.29,0.48,1.77,0,3.399,-3.237,0.308,9.320,0.003,-0.024,0.979,0.000,0.000,0.000,0.0090,0,0,0.00,0.00,0.00,0.0000,0.0000,0.0000,0.0000,0.0000,0.0000,0.0000,0.00,0.00,0.00,1.1170,0.1030,1.3230,1.0820,2.7080,0,0.0000,0.0000,0.0000,0.0000,0.0000,0
5618,0.0241,0.0168,0.0118,-0.0094,0.1150,0.0017,-1.28,0.47,2.23,0,3.378,7.231,-1.300,13.986,0.009,-0.010,1.011,0.000,0.000,0.000,0.0110,0,0,0.00,0.00,0.00,0.0000,0.0000,0.0000,0.0000,0.0000,0.0000,0.0000,0.00,0.00,0.00,1.1040,0.0000,1.3230,1.0820,2.7080,0,0.0000,0.0000,0.0000,0.0000,0.0000,0
5669,0.0235,0.0228,0.0104,-0.0139,0.1257,-0.0022,-1.21,0.49,2.77,0,3.378,4.437,-0.455,4.934,0.008,-0.020,0.998,0.000,0.000,0.000,0.0110,0,0,0.00,0.00,0.00,0.0000,0.0000,0.0000,0.0000,0.0000,0.0000,0.0000,0.00,0.00,0.00,1.1040,0.0000,1.3160,1.0820,2.6980,0,0.0000,0.0000,0.0000,0.0000,0.0000,0
5720,0.0227,0.0293,0.0106,-0.0186,0.1360,-0.0001,-1.22,0.52,2.96,0,3.368,-4.982,-1.257,-1.819,0.004,-0.035,0.988,0.000,0.000,0.000,0.0120,0,0,0.00,0.00,0.00,0.0000,0.0000,0.0000,0.0000,0.0000,0.0000,0.0000,0.00,0.00,0.00,1.1010,0.0000,1.3160,1.0820,2.6980,0,0.0000,0.0000,0.0000,0.0000,0.0000,0
5771,0.0216,0.0364,0.0107,-0.0234,0.1462,-0.0028,-1.22,0.49,2.98,0,3.373,15.438,0.494,-4.086,0.004,-0.008,1.024,0.000,0.000,0.000,0.0090,-31,-1,0.00,0.00,0.00,0.0000,0.0000,0.0000,0.0000,0.0000,0.0000,0.0000,0.00,0.00,0.00,1.1010,0.0000,1.3110,1.0830,2.6950,0,0.0000,0.0000,0.0000,0.0000,0.0000,0
5822,0.0340,0.0811,0.0102,0.0113,0.2646,0.0053,-1.72,0.25,2.74,0,3.347,29.847,0.048,-6.631,0.005,-0.041,1.039,0.000,0.000,0.000,0.0060,-20,0,0.00,0.00,0.00,0.0000,0.0000,0.0000,0.0000,0.0000,0.0000,0.0000,0.00,0.00,0.00,1.1070,0.0000,1.3110,1.0830,2.6950,0,0.0000,0.0000,0.0000,0.0000,0.0000,0
5873,0.0284,0.1247,0.0098,-0.0075,0.3536,0.0122,-0.34,0.33,2.38,0,3.357,50.757,0.737,-5.423,0.003,-0.009,1.026,0.000,0.000,0.000,0.0120,0,0,0.00,0.00,0.00,0.0000,0.0000,0.0000,0.0000,0.0000,0.0000,0.0000,0.00,0.00,0.00,1.1070,0.0000,1.3320,1.0740,2.7050,0,0.0000,0.0000,0.0000,0.0000,0.0000,0
5924,0.0331,0.1116,0.0112,0.0047,0.2666,0.0370,2.48,0.19,2.11,0,3.341,56.544,-1.800,-2.608,0.007,-0.011,0.990,0.000,0.000,0.000,0.0010,6,0,0.00,0.00,0.00,0.0000,0.0000,0.0000,0.0000,0.0000,0.0000,0.0000,0.00,0.00,0.00,1.1160,0.0000,1.3320,1.0740,2.7050,0,0.0000,0.0000,0.0000,0.0000,0.0000,0
5975,0.0320,0.0696,0.0133,0.0011,0.0816,0.0447,6.58,0.20,2.00,0,3.315,27.517,-5.586,-9.206,0.013,0.005,0.936,0.000,0.000,0.000,0.0000,37,-3,0.00,0.00,0.00,0.0000,0.0000,0.0000,0.0000,0.0000,0.0000,0.0000,0.00,0.00,0.00,1.1160,0.0000,1.4020,0.0000,2.7080,0,0.0000,0.0000,0.0000,0.0000,0.0000,0
6026,0.0360,-0.0104,-0.0049,0.0142,-0.2162,-0.0758,10.19,0.32,1.60,0,3.236,-108.127,-32.373,-15.344,0.006,0.002,0.931,0.000,0.000,0.000,0.0000,63,-4,0.00,0.00,0.00,0.0000,0.0000,0.0000,0.0000,0.0000,0.0000,0.0000,0.00,0.00,0.00,1.1420,0.0000,1.4020,0.0000,2.7080,0,0.0000,0.0000,0.0000,0.0000,0.0000,0
6077,0.0420,-0.0963,-0.0366,0.0287,-0.5115,-0.2735,8.49,1.70,0.71,0,3.209,-139.140,-20.715,-11.576,0.020,0.004,1.078,0.000,0.000,0.000,0.0000,2,35,0.00,0.00,0.00,0.0000,0.0000,0.0000,0.0000,0.0000,0.0000,0.0000,0.00,0.00,0.00,1.1420,0.0000,1.4360,0.0000,2.7150,0,0.0000,0.0000,0.0000,0.0000,0.0000,0
6128,0.0309,-0.1119,-0.0240,-0.0310,-0.5207,-0.1466,0.06,3.54,0.52,0,3.236,-68.421,31.743,-13.770,0.006,-0.007,1.111,0.000,0.000,0.000,0.0000,0,0,0.00,0.00,0.00,0.0000,0.0000,0.0000,0.0000,0.0000,0.0000,0.0000,0.00,0.00,0.00,1.3270,0.0000,1.4360,0.0000,2.7150,0,0.0000,0.0000,0.0000,0.0000,0.0000,0
6179,0.0158,-0.1156,-0.0095,-0.1060,-0.4194,0.0064,-4.73,2.51,-0.06,0,3.267,-23.751,60.461,-10.422,-0.011,-0.019,1.064,0.000,0.000,0.000,0.0000,43,36,0.00,0.00,0.00,0.0000,0.0000,0.0000,0.0000,0.0000,0.0000,0.0000,0.00,0.00,0.00,1.3270,0.0000,1.3200,1.0800,2.7040,0,0.0000,0.0000,0.0000,0.0000,0.0000,0
6231,-0.0110,-0.0900,-0.0014,-0.2158,-0.1797,0.0778,-7.48,0.86,-0.52,0,3.236,61.860,49.158,-13.899,-0.002,-0.025,1.068,0.000,0.000,0.000,0.0000,-5,15,0.00,0.00,0.00,0.0000,0.0000,0.0000,0.0000,0.0000,0.0000,0.0000,0.00,0.00,0.00,1.1520,0.0000,1.3200,1.0800,2.7040,0,0.0000,0.0000,0.0000,0.0000,0.0000,0
6283,-0.0355,-0.1093,0.0005,-0.2776,-0.1648,0.0905,-5.40,-1.15,-1.43,0,3.241,34.736,46.892,-7.317,-0.010,-0.029,1.023,0.000,0.000,0.000,0.0000,-10,13,0.00,0.00,0.00,0.0000,0.0000,0.0000,0.0000,0.0000,0.0000,0.0000,0.00,0.00,0.00,1.1520,0.0000,0.0000,1.0830,2.7190,0,0.0000,0.0000,0.0000,0.0000,0.0000,0
6333,-0.0491,-0.1034,0.0054,-0.2615,-0.0632,0.1059,-3.63,-3.66,-2.09,0,3.225,23.562,44.740,-7.182,-0.003,-0.018,1.012,0.000,0.000,0.000,0.0010,-7,4,0.00,0.00,0.00,0.0000,0.0000,0.0000,0.0000,0.0000,0.0000,0.0000,0.00,0.00,0.00,0.0000,0.0000,0.0000,1.0830,2.7190,0,0.0000,0.0000,0.0000,0.0000,0.0000,0
6385,-0.0608,-0.1019,0.0076,-0.2275,-0.0201,0.0963,-2.80,-6.01,-2.60,0,3.220,23.603,-3.041,-7.178,0.003,-0.028,1.042,0.000,0.000,0.000,0.0100,-2,16,0.00,0.00,0.00,0.0000,0.0000,0.0000,0.0000,0.0000,0.0000,0.0000,0.00,0.00,0.00,0.0000,0.0000,1.3910,1.0860,2.7100,0,0.0000,0.0000,0.0000,0.0000,0.0000,0
6436,-0.0696,-0.0967,0.0094,-0.1711,0.0259,0.0950,-1.65,-6.27,-3.09,0,3.209,15.569,-14.090,-0.202,0.001,-0.017,1.059,0.000,0.000,0.000,0.0170,-11,19,0.00,0.00,0.00,0.0000,0.0000,0.0000,0.0000,0.0000,0.0000,0.0000,0.00,0.00,0.00,0.8760,0.0000,1.3910,1.0860,2.7100,0,0.0000,0.0000,0.0000,0.0000,0.0000,0
6487,-0.0779,-0.0928,0.0144,-0.1207,0.0484,0.1154,-1.16,-5.53,-3.31,0,3.215,14.696,-17.471,2.615,-0.005,-0.013,1.034,0.000,0.000,0.000,0.0250,-4,-2,0.00,0.00,0.00,0.0000,0.0000,0.0000,0.0000,0.0000,0.0000,0.0000,0.00,0.00,0.00,0.8760,0.0000,1.4060,1.0900,2.6980,0,0.0000,0.0000,0.0000,0.0000,0.0000,0
6538,-0.0953,-0.0876,0.0206,-0.1424,0.0714,0.1305,-0.56,-4.14,-3.28,0,3.204,15.790,12.729,-0.421,-0.004,-0.022,1.012,0.000,0.000,0.000,0.0370,-12,-27,0.00,0.00,0.00,0.0000,0.0000,0.0000,0.0000,0.0000,0.0000,0.0000,0.00,0.00,0.00,1.0420,0.0000,1.4060,1.0900,2.6980,0,0.0000,0.0000,0.0000,0.0000,0.0000,0
6589,-0.0929,-0.0825,0.0302,-0.0521,0.0787,0.1553,0.13,-5.19,-3.21,0,3.209,20.230,-14.054,0.716,-0.001,-0.020,1.016,0.000,0.000,0.000,0.0450,-5,-20,0.00,0.00,0.00,0.0000,0.0000,0.0000,0.0000,0.0000,0.0000,0.0000,0.00,0.00,0.00,1.0420,0.0000,1.4140,1.0940,2.6800,0,0.0000,0.0000,0.0000,0.0000,0.0000,0
6640,-0.0730,-0.0762,0.0388,0.1157,0.0839,0.1669,0.95,-5.60,-3.14,0,3.188,11.802,-64.465,4.182,-0.005,-0.019,0.996,0.000,0.000,0.000,0.0590,-1,-13,0.00,0.00,0.00,0.0000,0.0000,0.0000,0.0000,0.0000,0.0000,0.0000,0.00,0.00,0.00,1.0340,0.0000,1.4140,1.0940,2.6800,0,0.0000,0.0000,0.0000,0.0000,0.0000,0
6692,-0.0564,-0.0724,0.0473,0.2105,0.0698,0.1655,1.76,-3.20,-3.00,0,3.199,6.984,-65.125,5.805,-0.011,-0.014,1.012,0.000,0.000,0.000,0.0630,-2,-41,0.00,0.00,0.00,0.0000,0.0000,0.0000,0.0000,0.0000,0.0000,0.0000,0.00,0.00,0.00,1.0340,0.0000,1.4260,1.0870,2.6620,0,0.0000,0.0000,0.0000,0.0000,0.0000,0
6743,-0.0413,-0.0719,0.0608,0.2540,0.0354,0.1872,2.26,-0.34,-2.77,0,3.194,0.325,-38.872,6.857,-0.015,-0.013,0.994,0.000,0.000,0.000,0.0810,1,-19,0.00,0.00,0.00,0.0000,0.0000,0.0000,0.0000,0.0000,0.0000,0.0000,0.00,0.00,0.00,1.2020,0.0000,1.4260,1.0870,2.6620,0,0.0000,0.0000,0.0000,0.0000,0.0000,0
6794,-0.0197,-0.0726,0.0675,0.3018,0.0042,0.1783,2.41,1.68,-2.53,0,3.199,-13.491,-52.959,6.925,-0.014,-0.015,0.986,0.000,0.000,0.000,0.0870,3,-34,0.00,0.00,0.00,0.0000,0.0000,0.0000,0.0000,0.0000,0.0000,0.0000,0.00,0.00,0.00,1.2020,0.0000,1.4280,1.0780,2.6230,0,0.0000,0.0000,0.0000,0.0000,0.0000,0
6845,-0.0005,-0.0732,0.0824,0.3015,-0.0193,0.1990,1.95,4.08,-2.30,0,3.194,-21.989,-37.759,7.719,-0.013,-0.009,0.998,0.000,0.000,0.000,0.1110,-5,-24,0.00,0.00,0.00,0.0000,0.0000,0.0000,0.0000,0.0000,0.3000,0.2845,-5.60,12.86,69.00,1.3480,0.0000,1.4280,1.0780,2.6230,0,0.0000,0.0000,0.0000,0.0000,0.0000,0
6895,0.0153,-0.0742,0.0934,0.2678,-0.0297,0.1990,0.75,6.21,-1.96,0,3.215,2.022,-3.817,5.738,-0.012,-0.006,0.990,0.000,0.000,0.000,0.1160,1,-9,1.95,-4.08,-2.30,-0.0005,-0.0732,0.1110,0.0000,0.0000,0.3000,0.2824,-6.15,12.54,58.81,1.3480,0.0000,1.4370,1.0710,2.6130,0,0.0000,0.0000,0.0000,0.0000,0.0000,0
6947,0.0314,-0.0730,0.1119,0.2255,-0.0189,0.2278,0.59,6.76,-1.64,0,3.215,0.545,7.982,6.051,-0.005,-0.015,0.976,0.000,0.000,0.000,0.1210,2,-6,2.09,-4.35,-2.02,0.0182,-0.0753,0.1129,0.0000,0.0000,0.3000,0.2758,-5.75,12.05,49.31,1.3790,0.0000,1.4370,1.0710,2.6130,0,0.0000,0.0000,0.0000,0.0000,0.0000,0
6998,0.0420,-0.0741,0.1239,0.1730,-0.0228,0.2187,0.60,6.39,-1.33,0,3.209,-9.246,11.050,4.367,-0.002,-0.005,0.971,0.000,0.000,0.000,0.1290,-6,-6,2.02,-2.65,-1.70,0.0262,-0.0784,0.1270,0.0000,0.0000,0.3000,0.2746,-6.02,10.52,39.84,1.3790,0.0000,1.4400,1.0590,2.6040,0,0.0000,0.0000,0.0000,0.0000,0.0000,0
7049,0.0475,-0.0739,0.1331,0.1120,-0.0184,0.1977,0.10,5.84,-1.02,0,3.199,-1.127,24.224,3.382,-0.005,-0.016,0.973,0.000,0.000,0.000,0.1310,0,0,-4.07,-1.99,-1.70,0.0356,-0.0730,0.1353,0.0000,0.0000,0.3000,0.2751,-5.80,8.19,30.61,1.3540,0.0000,1.4400,1.0590,2.6040,0,0.0000,0.0000,0.0000,0.0000,0.0000,0
7099,0.0515,-0.0702,0.1394,0.0635,0.0054,0.1672,-0.21,4.77,-0.74,0,3.199,6.706,21.454,2.832,0.009,-0.012,0.977,0.000,0.000,0.000,0.1360,-9,4,-4.15,-3.18,-1.61,0.0449,-0.0684,0.1360,0.0000,0.0000,0.3000,0.2772,-4.45,6.26,22.23,1.3540,0.0000,1.4510,1.0530,2.5850,0,0.0000,0.0000,0.0000,0.0000,0.0000,0
7151,0.0536,-0.0714,0.1432,0.0257,-0.0012,0.1372,0.07,3.68,-0.60,0,3.178,-2.226,18.274,2.541,0.000,-0.014,0.987,0.000,0.000,0.000,0.1390,-4,0,-3.78,2.50,-1.83,0.0342,-0.0617,0.1470,0.0000,0.0000,0.3000,0.2798,-4.78,4.69,18.00,1.3160,0.0000,1.4510,1.0530,2.5850,0,0.0000,0.0000,0.0000,0.0000,0.0000,0
7203,0.0542,-0.0708,0.1454,-0.0031,0.0001,0.1095,0.14,2.71,-0.52,0,3.178,-0.809,20.724,0.503,0.004,-0.006,1.003,0.000,0.000,0.000,0.1250,0,5,-3.52,1.13,-1.81,0.0333,-0.0548,0.1521,0.0000,0.0000,0.3000,0.2824,-4.65,3.43,15.46,1.3160,0.0000,1.4560,1.0410,2.5710,0,0.0000,0.0000,0.0000,0.0000,0.0000,0
7254,0.0538,-0.0732,0.1476,-0.0242,-0.0124,0.0956,0.17,1.78,-0.52,0,3.151,1.006,15.448,0.545,0.004,-0.010,1.019,0.000,0.000,0.000,0.1380,4,2,-1.75,1.02,-2.44,0.0263,-0.0538,0.1444,0.0000,0.0000,0.3000,0.2834,-5.33,2.47,15.67,1.2730,0.0000,1.4560,1.0410,2.5710,0,0.0000,0.0000,0.0000,0.0000,0.0000,0
7305,0.0521,-0.0722,0.1403,-0.0410,-0.0070,0.0487,0.19,0.92,-0.48,0,3.151,-3.584,13.133,0.383,0.007,-0.006,1.039,0.000,0.000,0.000,0.1350,5,3,-0.05,-0.09,-2.89,0.0222,-0.0572,0.1441,0.0000,0.0000,0.3000,0.2899,-4.92,1.59,14.46,1.2730,0.0000,1.4620,1.0350,2.5640,0,0.0000,0.0000,0.0000,0.0000,0.0000,0
7356,0.0512,-0.0761,0.1419,-0.0419,-0.0238,0.0585,0.19,0.15,-0.51,0,3.146,-4.239,11.636,0.494,0.005,-0.009,1.045,0.000,0.000,0.000,0.1470,5,2,0.76,-0.71,-3.09,0.0174,-0.0638,0.1406,0.0000,0.0000,0.3000,0.2885,-5.91,1.50,15.28,1.2370,0.0000,1.4620,1.0350,2.5640,0,0.0213,-0.0607,0.0000,0.0213,-0.0607,0
7407,0.0502,-0.0781,0.1408,-0.0403,-0.0290,0.0587,0.06,-0.46,-0.49,0,3.167,-9.598,10.344,0.335,0.005,-0.008,1.060,0.000,0.000,0.000,0.1470,2,2,0.94,-1.36,-3.13,0.0141,-0.0704,0.1448,0.0000,0.0000,0.3000,0.2888,-6.25,1.51,14.83,1.2370,0.0000,1.4760,1.0250,2.5530,0,0.0213,-0.0607,0.0000,0.0213,-0.0607,0
7458,0.0478,-0.0809,0.1471,-0.0377,-0.0339,0.0982,-0.36,-0.89,-0.48,0,3.167,-7.581,2.793,0.028,0.006,-0.007,1.064,0.000,0.000,0.000,0.1570,0,0,0.16,-1.83,-3.08,0.0112,-0.0734,0.1523,0.0000,0.0000,0.3000,0.2833,-6.76,1.49,14.30,1.2220,0.0000,1.4760,1.0250,2.5530,0,0.0213,-0.0607,0.0000,0.0213,-0.0607,0
7510,0.0457,-0.0875,0.1535,-0.0282,-0.0472,0.1333,-0.71,-1.21,-0.49,0,3.194,-3.842,2.588,-0.451,0.007,-0.010,1.052,0.000,0.000,0.000,0.1670,3,0,-0.23,-1.98,-3.08,0.0094,-0.0783,0.1613,0.0000,0.0000,0.3000,0.2783,-7.90,1.80,14.58,1.2220,0.0000,1.4760,1.0190,2.5400,0,0.0213,-0.0607,0.0000,0.0213,-0.0607,0
7562,0.0441,-0.0901,0.1627,-0.0180,-0.0417,0.1692,-0.87,-1.41,-0.50,0,3.204,-0.975,-1.656,-1.055,0.001,-0.008,1.041,0.000,0.000,0.000,0.1820,-10,0,-0.85,-2.23,-3.21,0.0104,-0.0779,0.1729,0.0000,0.0000,0.3000,0.2727,-7.99,2.19,14.86,1.2260,0.0000,1.4760,1.0190,2.5400,0,0.0213,-0.0607,0.0000,0.0213,-0.0607,0
7613,0.0437,-0.0907,0.1740,-0.0045,-0.0290,0.2009,-1.08,-1.38,-0.56,0,3.220,2.503,-6.555,-2.235,0.002,-0.010,1.022,0.000,0.000,0.000,0.1910,1,0,-1.84,-2.10,-3.57,0.0119,-0.0688,0.1847,0.0000,0.0000,0.3000,0.2671,-7.62,2.84,16.82,1.2260,0.0000,1.4860,1.0110,2.5200,0,0.0213,-0.0607,0.0000,0.0213,-0.0607,0
7664,0.0433,-0.0896,0.1887,0.0058,-0.0123,0.2329,-0.96,-1.09,-0.64,0,3.225,3.606,-7.065,-0.290,0.003,-0.006,1.005,0.000,0.000,0.000,0.2040,0,-3,-1.52,-1.69,-3.58,0.0127,-0.0690,0.1991,0.0000,0.0000,0.3000,0.2609,-6.94,3.36,19.29,1.2410,0.0000,1.4860,1.0110,2.5200,0,0.0213,-0.0607,0.0000,0.0213,-0.0607,0
7715,0.0436,-0.0911,0.2017,0.0136,-0.0085,0.2432,-0.73,-0.74,-0.69,0,3.230,4.054,-2.859,-0.038,0.005,-0.015,0.984,0.000,0.000,0.000,0.2190,0,-1,-1.26,-1.50,-3.56,0.0179,-0.0686,0.2123,0.0000,0.0000,0.3000,0.2574,-6.97,3.80,20.75,1.2410,0.0000,1.4920,1.0060,2.5010,0,0.0213,-0.0607,0.0000,0.0213,-0.0607,0
7766,0.0545,-0.0908,0.2152,0.0562,-0.0009,0.2432,-0.44,-0.75,-0.70,0,3.230,5.507,-8.317,-0.472,0.001,-0.007,0.975,0.000,0.000,0.000,0.2270,0,-3,-0.99,-1.29,-3.54,0.0209,-0.0682,0.2261,0.0000,0.0000,0.3000,0.2548,-6.65,6.68,20.94,1.2620,0.0000,1.4920,1.0060,2.5010,0,0.0213,-0.0607,0.0000,0.0213,-0.0607,0
7817,0.0561,-0.0910,0.2267,0.0585,0.0008,0.2427,-0.14,-0.29,-0.72,0,3.236,5.192,-12.801,-0.622,0.001,-0.011,0.966,0.000,0.000,0.000,0.2370,2,-2,-0.65,-0.96,-3.54,0.0273,-0.0681,0.2374,0.0000,0.0000,0.3000,0.2527,-6.64,6.97,21.54,1.2620,0.0000,1.5020,1.0050,2.4740,0,0.0213,-0.0607,0.0000,0.0213,-0.0607,0
7868,0.0581,-0.0901,0.2374,0.0572,0.0049,0.2230,0.05,0.43,-0.74,0,3.225,-0.308,-8.219,-0.893,-0.003,-0.014,0.956,0.000,0.000,0.000,0.2450,0,-1,-0.20,-0.28,-3.52,0.0320,-0.0720,0.2476,0.0000,0.0000,0.3000,0.2528,-6.38,7.04,22.17,1.2820,0.0000,1.5020,1.0050,2.4740,0,0.0213,-0.0607,0.0000,0.0213,-0.0607,0
7919,0.0603,-0.0913,0.2468,0.0521,-0.0001,0.2001,0.25,0.81,-0.76,0,3.230,3.174,-2.792,-0.760,0.002,-0.011,0.965,0.000,0.000,0.000,0.2580,-1,-1,-0.23,0.23,-3.55,0.0348,-0.0722,0.2560,0.0000,0.0000,0.3000,0.2535,-6.69,6.94,22.70,1.2820,0.0000,1.5080,1.0010,2.4510,0,0.0213,-0.0607,0.0000,0.0213,-0.0607,0
7970,0.0631,-0.0914,0.2544,0.0466,-0.0020,0.1724,0.34,0.96,-0.77,0,3.225,0.100,-0.589,1.105,-0.000,-0.009,0.965,0.000,0.000,0.000,0.2660,0,0,-0.15,0.43,-3.57,0.0378,-0.0702,0.2649,0.0000,0.0000,0.3000,0.2551,-6.74,6.84,23.21,1.2830,0.0000,1.5080,1.0010,2.4510,0,0.0213,-0.0607,0.0000,0.0213,-0.0607,0
8022,0.0648,-0.0916,0.2635,0.0375,-0.0051,0.1587,0.42,1.02,-0.76,0,3.225,1.281,3.163,0.014,0.006,-0.015,0.971,0.000,0.000,0.000,0.2750,3,0,-0.15,0.46,-3.51,0.0419,-0.0704,0.2727,0.0000,0.0000,0.3000,0.2548,-6.92,6.53,22.80,1.2830,0.0000,1.5170,0.9930,2.4290,0,0.0213,-0.0607,0.0000,0.0213,-0.0607,0
8073,0.0662,-0.0928,0.2715,0.0282,-0.0109,0.1442,0.48,0.99,-0.73,0,3.225,-1.513,5.243,0.252,0.003,-0.010,0.966,0.000,0.000,0.000,0.2840,-2,1,0.16,0.55,-3.52,0.0353,-0.0798,0.2801,0.0000,0.0000,0.3000,0.2549,-7.27,6.18,21.81,1.2870,0.0000,1.5170,0.9930,2.4290,0,0.0213,-0.0607,0.0000,0.0213,-0.0607,0
8125,0.0649,-0.0924,0.2793,0.0129,-0.0112,0.1317,0.29,0.86,-0.71,0,3.230,-3.004,4.504,0.506,0.002,-0.007,0.977,0.000,0.000,0.000,0.2890,2,0,-0.06,0.35,-3.39,0.0342,-0.0768,0.2876,0.0000,0.0000,0.3000,0.2548,-7.27,5.36,21.19,1.2870,0.0000,1.5200,0.9900,2.4170,0,0.0213,-0.0607,0.0000,0.0213,-0.0607,0
8176,0.0641,-0.0910,0.2873,0.0019,-0.0081,0.1234,0.15,0.63,-0.68,0,3.225,0.291,3.764,-0.039,0.002,-0.006,0.971,0.000,0.000,0.000,0.2940,0,0,-0.14,0.13,-3.41,0.0341,-0.0815,0.2934,0.0000,0.0000,0.3000,0.2542,-7.03,4.78,20.53,1.2830,0.0000,1.5200,0.9900,2.4170,0,0.0213,-0.0607,0.0000,0.0213,-0.0607,0
8227,0.0651,-0.0928,0.2934,-0.0006,-0.0131,0.1101,0.18,0.35,-0.68,0,3.225,-0.673,3.255,-0.094,0.000,-0.010,0.967,0.000,0.000,0.000,0.3000,0,1,-0.13,-0.06,-3.41,0.0345,-0.0840,0.2984,0.0000,0.0000,0.3000,0.2545,-7.40,4.73,20.40,1.2830,0.0000,1.5300,0.9790,2.4090,0,0.0213,-0.0607,0.0000,0.0213,-0.0607,0
8278,0.0602,-0.0828,0.2983,-0.0165,0.0142,0.0953,0.01,0.30,-0.70,0,3.220,0.290,4.663,-0.510,0.004,-0.009,0.972,0.000,0.000,0.000,0.3010,14,0,-0.29,-0.13,-3.27,0.0305,-0.0799,0.3030,0.0000,0.0000,0.3000,0.2551,-5.36,3.59,21.04,1.2770,0.0000,1.5300,0.9790,2.4090,0,0.0213,-0.0607,0.0000,0.0213,-0.0607,0
8329,0.0577,-0.0824,0.3031,-0.0233,0.0134,0.0840,0.14,0.16,-0.72,0,3.215,1.832,5.079,-0.151,0.003,-0.013,0.980,0.000,0.000,0.000,0.3050,0,0,0.27,-0.38,-3.66,0.0285,-0.1089,0.3057,0.0000,0.0000,0.3000,0.2554,-5.36,3.08,21.60,1.2770,0.0000,1.5400,0.9740,2.3970,0,0.0213,-0.0607,0.0000,0.0213,-0.0607,0
8381,0.0573,-0.1043,0.3055,-0.0225,-0.0434,0.0658,0.53,-0.11,-0.73,0,3.209,-10.137,2.626,-0.856,0.001,-0.007,0.979,0.000,0.000,0.000,0.3110,4,0,0.37,-0.63,-3.67,0.0279,-0.1170,0.3082,0.0000,0.0000,0.3000,0.2569,-9.57,3.07,21.90,1.2610,0.0000,1.5400,0.9740,2.3970,0,0.0213,-0.0607,0.0000,0.0213,-0.0607,0
8433,0.0553,-0.1106,0.3080,-0.0240,-0.0576,0.0524,0.27,-0.28,-0.77,0,3.209,-11.938,0.481,-1.420,0.003,-0.006,0.986,0.000,0.000,0.000,0.3080,15,-1,-0.25,-0.76,-3.66,0.0275,-0.1204,0.3117,0.0000,0.0000,0.3000,0.2579,-10.64,2.85,23.21,1.2610,0.0000,1.5480,0.9590,2.3950,0,0.0213,-0.0607,0.0000,0.0213,-0.0607,0
8484,0.0541,-0.1144,0.3116,-0.0217,-0.0618,0.0506,-0.29,-0.33,-0.83,0,3.204,-6.978,0.356,-1.012,0.007,-0.012,0.988,0.000,0.000,0.000,0.3100,5,0,-0.41,-0.82,-3.92,0.0274,-0.1537,0.3110,0.0000,0.0000,0.3000,0.2574,-11.12,2.88,24.89,1.2510,0.0000,1.5480,0.9590,2.3950,0,0.0213,-0.0607,0.0000,0.0274,-0.1407,0
8535,0.0533,-0.1302,0.3119,-0.0187,-0.0880,0.0358,-0.59,-0.36,-0.89,0,3.204,-9.847,2.055,-1.633,0.002,-0.011,0.996,0.000,0.000,0.000,0.3100,6,1,-0.74,-0.82,-3.97,0.0268,-0.1684,0.3117,0.0000,0.0000,0.3000,0.2590,-13.33,2.95,26.83,1.2510,0.0000,1.5530,0.9510,2.3940,0,0.0213,-0.0607,0.0000,0.0274,-0.1407,0
8586,0.0523,-0.1372,0.3125,-0.0156,-0.0888,0.0266,-0.98,-0.41,-0.97,0,3.194,-10.111,-0.233,-0.560,0.002,-0.011,0.997,0.000,0.000,0.000,0.3150,2,0,-1.18,-0.86,-4.04,0.0235,-0.1857,0.3118,0.0000,0.0000,0.3000,0.2599,-13.80,3.02,29.00,1.2380,0.0000,1.5530,0.9510,2.3940,0,0.0213,-0.0607,0.0000,0.0274,-0.1407,0
8638,0.0507,-0.1505,0.3123,-0.0141,-0.1003,0.0187,-1.41,-0.41,-1.03,0,3.199,-5.225,-4.127,-0.615,0.005,-0.015,1.010,0.000,0.000,0.000,0.3160,1,0,-1.79,-0.83,-4.05,0.0233,-0.1936,0.3143,0.0000,0.0000,0.3000,0.2607,-15.16,2.96,31.02,1.2380,0.0000,1.5650,0.9380,2.3910,0,0.0213,-0.0607,0.0000,0.0274,-0.1407,0
8690,0.0494,-0.1595,0.3145,-0.0122,-0.0977,0.0253,-1.72,-0.31,-1.08,0,3.199,-2.231,-1.836,-1.369,0.001,-0.013,1.008,0.000,0.000,0.000,0.3160,2,0,-2.19,-0.59,-4.07,0.0232,-0.1978,0.3168,0.0000,0.0000,0.3000,0.2596,-15.71,2.97,32.45,1.2290,0.0000,1.5650,0.9380,2.3910,0,0.0213,-0.0607,0.0000,0.0274,-0.1407,0
8741,0.0488,-0.1635,0.3165,-0.0093,-0.0819,0.0316,-1.82,-0.23,-1.14,0,3.199,-2.985,-0.142,-0.392,0.002,-0.011,1.005,0.000,0.000,0.000,0.3150,0,0,-2.35,-0.47,-4.14,0.0228,-0.2041,0.3184,0.0000,0.0000,0.3000,0.2585,-15.33,3.08,34.16,1.2290,0.0000,1.5700,0.9410,2.3900,0,0.0213,-0.0607,0.0000,0.0274,-0.1407,0
8792,0.0479,-0.1725,0.3177,-0.0080,-0.0778,0.0321,-1.84,-0.20,-1.17,0,3.199,1.716,-3.235,0.279,0.003,-0.011,1.005,0.000,0.000,0.000,0.3200,0,0,-2.51,-0.46,-4.16,0.0238,-0.2126,0.3191,0.0000,0.0000,0.3000,0.2583,-15.77,3.09,35.03,1.2300,0.0000,1.5700,0.9410,2.3900,0,0.0213,-0.0607,0.0000,0.0274,-0.1407,0
8843,0.0457,-0.1751,0.3179,-0.0100,-0.0601,0.0282,-1.82,-0.08,-1.18,0,3.199,4.031,-0.200,0.516,0.004,-0.011,1.005,0.000,0.000,0.000,0.3190,0,0,-2.42,-0.30,-4.14,0.0251,-0.2203,0.3211,0.0000,0.0000,0.3000,0.2587,-15.14,2.83,35.33,1.2300,0.0000,1.5800,0.9240,2.3770,0,0.0213,-0.0607,0.0000,0.0274,-0.1407,0
8894,0.0452,-0.1770,0.3203,-0.0092,-0.0430,0.0348,-1.61,-0.04,-1.17,0,3.194,6.094,0.907,0.026,0.001,-0.013,0.999,0.000,0.000,0.000,0.3250,0,0,-2.21,-0.29,-4.11,0.0267,-0.2271,0.3224,0.0000,0.0000,0.3000,0.2575,-14.56,2.84,35.20,1.2330,0.0000,1.5800,0.9240,2.3770,0,0.0213,-0.0607,0.0000,0.0274,-0.1407,0
8946,0.0439,-0.1787,0.3212,-0.0103,-0.0289,0.0311,-1.36,-0.08,-1.16,0,3.199,4.262,-0.989,1.127,0.001,-0.014,1.003,0.000,0.000,0.000,0.3220,-9,3,-1.90,-0.34,-4.11,0.0285,-0.2336,0.3251,0.0000,0.0000,0.3000,0.2577,-14.03,2.70,34.71,1.2330,0.0000,1.5780,0.9340,2.3720,0,0.0213,-0.0607,0.0000,0.0274,-0.1407,0
8996,0.0434,-0.1798,0.3245,-0.0094,-0.0172,0.0389,-1.22,-0.05,-1.12,0,3.194,7.233,-0.453,1.045,0.004,-0.014,1.003,0.000,0.000,0.000,0.3230,-8,2,-2.33,-0.04,-4.18,0.0099,-0.1705,0.3272,0.0000,0.0000,0.3000,0.2563,-13.65,2.72,33.62,1.2390,0.0000,1.5780,0.9340,2.3720,0,0.0213,-0.0607,0.0000,0.0274,-0.1407,0
9048,0.0395,-0.1692,0.3250,-0.0153,0.0148,0.0336,-0.97,0.02,-1.08,0,3.194,11.556,3.221,0.258,0.003,-0.017,1.004,0.000,0.000,0.000,0.3270,0,0,-2.05,0.00,-4.11,0.0077,-0.1587,0.3255,0.0000,0.0000,0.3000,0.2567,-11.44,2.15,32.38,1.2390,0.0000,1.5740,0.9310,2.3790,0,0.0213,-0.0607,0.0000,0.0274,-0.1407,0
9099,0.0386,-0.1611,0.3255,-0.0155,0.0356,0.0284,-0.35,-0.10,-1.03,0,3.194,10.933,3.122,-0.594,0.004,-0.017,1.002,0.000,0.000,0.000,0.3290,9,0,-1.45,-0.17,-4.10,0.0066,-0.1512,0.3276,0.0000,0.0000,0.3000,0.2572,-9.88,2.07,30.93,1.2430,0.0000,1.5740,0.9310,2.3790,0,0.0213,-0.0607,0.0000,0.0274,-0.1407,0
9150,0.0373,-0.1603,0.3276,-0.0157,0.0366,0.0323,0.35,-0.23,-1.04,0,3.194,3.559,0.739,-0.400,-0.001,-0.016,1.004,0.000,0.000,0.000,0.3260,7,-1,-0.42,-0.36,-4.39,0.0052,-0.1748,0.3359,0.0000,0.0000,0.3000,0.2564,-9.81,1.98,31.11,1.2430,0.0000,1.5760,0.9330,2.3700,0,0.0213,-0.0607,0.0000,0.0274,-0.1407,0
9201,0.0333,-0.1476,0.3297,-0.0199,0.0558,0.0350,0.42,-0.25,-1.07,0,3.188,5.851,3.407,-0.489,-0.001,-0.015,0.999,0.000,0.000,0.000,0.3320,0,1,-0.10,-0.42,-4.47,0.0051,-0.1850,0.3350,0.0000,0.0000,0.3000,0.2557,-8.03,1.49,32.01,1.2490,0.0000,1.5760,0.9330,2.3700,0,0.0213,-0.0607,0.0000,0.0274,-0.1407,0
9253,0.0342,-0.1548,0.3295,-0.0146,0.0346,0.0276,0.63,-0.34,-1.06,0,3.188,2.711,1.529,0.059,-0.000,-0.008,1.003,0.000,0.000,0.000,0.3330,0,0,0.18,-0.57,-4.49,0.0033,-0.1866,0.3363,0.0000,0.0000,0.3000,0.2565,-9.52,1.80,31.80,1.2490,0.0000,1.5700,0.9360,2.3710,0,0.0213,-0.0607,0.0000,0.0274,-0.1407,0
9304,0.0323,-0.1487,0.3320,-0.0139,0.0377,0.0319,0.74,-0.41,-1.06,0,3.188,-0.859,0.467,0.874,0.005,-0.013,1.004,0.000,0.000,0.000,0.3350,0,0,0.32,-0.65,-4.49,0.0027,-0.1898,0.3373,0.0000,0.0000,0.3000,0.2556,-8.98,1.71,31.86,1.2520,0.0000,1.5700,0.9360,2.3710,0,0.0213,-0.0607,0.0000,0.0274,-0.1407,0
9355,0.0307,-0.1475,0.3340,-0.0123,0.0302,0.0356,0.69,-0.39,-1.02,0,3.194,3.388,-0.204,0.635,0.000,-0.011,1.001,0.000,0.000,0.000,0.3350,0,0,0.27,-0.68,-4.44,0.0025,-0.1935,0.3386,0.0000,0.0000,0.3000,0.2548,-9.28,1.67,30.75,1.2520,0.0000,1.5660,0.9380,2.3660,0,0.0213,-0.0607,0.0000,0.0274,-0.1407,0
9406,0.0301,-0.1462,0.3363,-0.0090,0.0241,0.0378,0.82,-0.38,-0.98,0,3.188,-0.047,0.831,0.974,0.000,-0.012,0.997,0.000,0.000,0.000,0.3390,-9,2,0.45,-0.67,-4.41,0.0025,-0.1976,0.3394,0.0000,0.0000,0.3000,0.2541,-9.50,1.80,29.29,1.2630,0.0000,1.5660,0.9380,2.3660,0,0.0213,-0.0607,0.0000,0.0274,-0.1407,0
9456,0.0300,-0.1466,0.3373,-0.0054,0.0145,0.0339,0.76,-0.36,-0.94,0,3.188,-3.114,-1.248,1.428,0.004,-0.012,1.003,0.000,0.000,0.000,0.3370,0,0,-0.08,-0.60,-4.17,-0.0026,-0.1506,0.3431,0.0000,0.0000,0.3000,0.2543,-9.98,1.97,28.07,1.2630,0.0000,1.5740,0.9380,2.3610,0,0.0213,-0.0607,0.0000,0.0274,-0.1407,0
9508,0.0272,-0.1373,0.3397,-0.0069,0.0224,0.0364,0.69,-0.33,-0.86,0,3.188,0.920,0.532,1.323,-0.000,-0.011,0.995,0.000,0.000,0.000,0.3450,0,0,-0.23,-0.54,-4.10,-0.0032,-0.1453,0.3432,0.0000,0.0000,0.3000,0.2536,-8.97,1.69,25.95,1.2650,0.0000,1.5740,0.9380,2.3610,0,0.0213,-0.0607,0.0000,0.0274,-0.1407,0
9559,0.0271,-0.1371,0.3399,-0.0038,0.0150,0.0285,0.72,-0.33,-0.80,0,3.188,-3.419,-3.383,0.622,0.002,-0.010,0.998,0.000,0.000,0.000,0.3400,0,0,-0.18,-0.57,-4.03,-0.0034,-0.1404,0.3454,0.0000,0.0000,0.3000,0.2544,-9.28,1.83,24.08,1.2650,0.0000,1.5720,0.9350,2.3480,0,0.0213,-0.0607,0.0000,0.0274,-0.1407,0
9610,0.0265,-0.1364,0.3438,-0.0019,0.0088,0.0379,0.59,-0.19,-0.77,0,3.183,-4.705,-0.572,0.664,0.000,-0.014,1.000,0.000,0.000,0.000,0.3470,0,0,-0.36,-0.40,-4.00,-0.0034,-0.1357,0.3454,0.0000,0.0000,0.3000,0.2527,-9.59,1.89,23.06,1.2710,0.0000,1.5720,0.9350,2.3480,0,0.0213,-0.0607,0.0000,0.0274,-0.1407,0
9662,0.0275,-0.1378,0.3435,0.0014,0.0010,0.0271,0.38,-0.15,-0.75,0,3.188,-2.442,-1.141,0.222,-0.001,-0.014,1.002,0.000,0.000,0.000,0.3480,4,0,-0.60,-0.37,-3.97,-0.0032,-0.1311,0.3473,0.0000,0.0000,0.3000,0.2539,-10.02,2.11,22.43,1.2710,0.0000,1.5760,0.9290,2.3530,0,0.0213,-0.0607,0.0000,0.0274,-0.1407,0
9713,0.0317,-0.1498,0.3466,0.0097,-0.0229,0.0328,0.38,-0.16,-0.73,0,3.188,-4.031,-3.604,0.848,0.001,-0.011,0.994,0.000,0.000,0.000,0.3440,3,-1,-0.43,-0.31,-4.00,-0.0051,-0.1556,0.3508,0.0000,0.0000,0.3000,0.2527,-12.04,2.84,22.02,1.2750,0.0000,1.5760,0.9290,2.3530,0,0.0213,-0.0607,0.0000,0.0274,-0.1407,0
9765,0.0293,-0.1482,0.3488,0.0059,-0.0209,0.0335,0.15,0.04,-0.70,0,3.183,-6.605,-1.579,1.325,0.003,-0.008,0.996,0.000,0.000,0.000,0.3470,0,0,-0.61,-0.13,-3.97,-0.0045,-0.1594,0.3500,0.0000,0.0000,0.3000,0.2522,-11.87,2.49,21.07,1.2750,0.0000,1.5850,0.9190,2.3550,0,0.0213,-0.0607,0.0000,0.0274,-0.1407,0
9816,0.0301,-0.1544,0.3480,0.0063,-0.0304,0.0209,-0.08,0.12,-0.65,0,3.183,-2.345,0.234,2.430,0.003,-0.007,0.996,0.000,0.000,0.000,0.3520,7,0,-0.95,-0.05,-3.90,-0.0041,-0.1616,0.3502,0.0000,0.0000,0.3000,0.2537,-12.67,2.55,19.43,1.2790,0.0000,1.5850,0.9190,2.3550,0,0.0213,-0.0607,0.0000,0.0274,-0.1407,0
9867,0.0317,-0.1580,0.3484,0.0077,-0.0328,0.0166,-0.18,0.10,-0.55,0,3.183,-3.968,0.634,2.343,-0.000,-0.013,0.998,0.000,0.000,0.000,0.3550,2,1,-0.91,-0.06,-3.86,-0.0053,-0.1755,0.3510,0.0000,0.0000,0.3000,0.2541,-13.02,2.73,16.62,1.2790,0.0000,1.5870,0.9130,2.3450,0,0.0213,-0.0607,0.0000,0.0274,-0.1407,0
9918,0.0315,-0.1688,0.3510,0.0060,-0.0457,0.0234,-0.34,0.09,-0.45,0,3.183,-8.234,0.358,2.668,-0.002,-0.011,0.992,0.000,0.000,0.000,0.3530,1,0,-1.10,-0.07,-3.74,-0.0067,-0.1812,0.3531,0.0000,0.0000,0.3000,0.2529,-14.42,2.65,13.39,1.2750,0.0000,1.5870,0.9130,2.3450,0,0.0213,-0.0607,0.0000,0.0274,-0.1407,0
9969,0.0314,-0.1712,0.3541,0.0048,-0.0423,0.0298,-0.71,0.07,-0.33,0,3.178,-3.097,1.189,2.214,0.008,-0.010,0.996,0.000,0.000,0.000,0.3530,0,0,-1.53,-0.09,-3.60,-0.0069,-0.1857,0.3540,0.0000,0.0000,0.3000,0.2516,-14.51,2.59,9.88,1.2750,0.0000,1.5930,0.9070,2.3470,0,0.0213,-0.0607,0.0000,0.0274,-0.1407,0
10020,0.0299,-0.1779,0.3549,0.0013,-0.0439,0.0235,-0.87,0.08,-0.22,0,3.178,-1.982,1.386,2.054,0.001,-0.019,0.988,0.000,0.000,0.000,0.3560,0,0,-1.69,-0.16,-3.49,-0.0070,-0.1902,0.3545,0.0000,0.0000,0.3000,0.2521,-15.02,2.31,6.52,1.2820,0.0000,1.5930,0.9070,2.3470,0,0.0213,-0.0607,0.0000,0.0274,-0.1407,0
10071,0.0304,-0.1832,0.3549,0.0016,-0.0421,0.0143,-0.85,-0.02,-0.13,0,3.178,-0.949,0.494,1.612,0.007,-0.013,0.993,0.000,0.000,0.000,0.3540,0,-1,-1.79,-0.23,-3.39,-0.0069,-0.1945,0.3554,0.0000,0.0000,0.3000,0.2531,-15.24,2.35,3.82,1.2820,0.0000,1.5990,0.9030,2.3470,0,0.0213,-0.0607,0.0000,0.0274,-0.1407,0
10122,0.0306,-0.1873,0.3560,0.0021,-0.0384,0.0121,-0.95,-0.08,-0.05,0,3.178,-0.944,-1.188,1.749,0.004,-0.014,0.994,0.000,0.000,0.000,0.3530,2,0,-1.95,-0.28,-3.22,-0.0038,-0.1865,0.3555,0.0000,0.0000,0.3000,0.2531,-15.35,2.39,1.43,1.2740,0.0000,1.5990,0.9030,2.3470,0,0.0213,-0.0607,0.0000,0.0274,-0.1407,0
10173,0.0304,-0.1857,0.3555,0.0021,-0.0249,0.0050,-0.95,-0.05,0.05,0,3.172,1.504,-1.026,2.084,0.002,-0.017,1.006,0.000,0.000,0.000,0.3530,0,0,-1.97,-0.21,-3.15,-0.0034,-0.1900,0.3549,0.0000,0.0000,0.3000,0.2540,-14.58,2.37,-1.38,1.2740,0.0000,1.5940,0.8950,2.3390,0,0.0213,-0.0607,0.0000,0.0274,-0.1407,0
10225,0.0308,-0.1874,0.3544,0.0028,-0.0179,-0.0012,-0.88,0.02,0.16,0,3.172,2.695,-2.158,2.010,-0.000,-0.011,1.003,0.000,0.000,0.000,0.3540,1,-1,-1.89,-0.17,-3.04,-0.0022,-0.1910,0.3544,0.0000,0.0000,0.3000,0.2549,-14.34,2.42,-4.82,1.2830,0.0000,1.5940,0.8950,2.3390,0,0.0213,-0.0607,0.0000,0.0274,-0.1407,0
10276,0.0291,-0.1844,0.3537,-0.0006,-0.0042,-0.0027,-0.77,0.08,0.26,0,3.172,4.208,-0.428,1.141,-0.003,-0.013,1.005,0.000,0.000,0.000,0.3570,2,-1,-1.73,-0.06,-2.94,-0.0002,-0.1939,0.3545,0.0000,0.0000,0.3000,0.2552,-13.49,2.13,-7.66,1.2830,0.0000,1.5970,0.8950,2.3450,0,0.0213,-0.0607,0.0000,0.0274,-0.1407,0
10327,0.0288,-0.1844,0.3537,-0.0019,0.0023,0.0001,-0.56,0.12,0.33,0,3.172,5.097,0.449,1.289,-0.000,-0.014,1.005,0.000,0.000,0.000,0.3560,3,0,-1.48,-0.05,-2.89,0.0021,-0.1978,0.3556,0.0000,0.0000,0.3000,0.2548,-13.21,2.04,-9.82,1.2880,0.0000,1.5970,0.8950,2.3450,0,0.0213,-0.0607,0.0000,0.0274,-0.1407,0
10378,0.0298,-0.1851,0.3555,-0.0011,0.0054,0.0097,-0.26,0.13,0.39,0,3.178,1.328,0.568,1.223,0.000,-0.012,1.007,0.000,0.000,0.000,0.3550,1,0,-1.17,-0.07,-2.87,0.0023,-0.2043,0.3562,0.0000,0.0000,0.3000,0.2535,-13.18,2.17,-11.75,1.2880,0.0000,1.6030,0.8960,2.3410,0,0.0213,-0.0607,0.0000,0.0274,-0.1407,0
10429,0.0300,-0.1836,0.3563,-0.0016,0.0098,0.0130,-0.16,0.11,0.43,0,3.178,2.905,2.250,0.611,0.001,-0.014,1.004,0.000,0.000,0.000,0.3570,2,0,-1.09,-0.09,-2.83,0.0027,-0.2073,0.3565,0.0000,0.0000,0.3000,0.2530,-12.90,2.17,-13.04,1.2830,0.0000,1.6030,0.8960,2.3410,0,0.0213,-0.0607,0.0000,0.0274,-0.1407,0
10480,0.0303,-0.1822,0.3563,-0.0018,0.0127,0.0125,-0.00,0.06,0.44,0,3.178,4.527,1.588,-0.217,0.005,-0.017,1.002,0.000,0.000,0.000,0.3580,0,0,-0.91,-0.20,-2.83,0.0028,-0.2128,0.3574,0.0000,0.0000,0.3000,0.2530,-12.67,2.18,-13.22,1.2830,0.0000,1.6030,0.8960,2.3450,0,0.0213,-0.0607,0.0000,0.0274,-0.1407,0
10531,0.0299,-0.1869,0.3573,-0.0028,0.0033,0.0149,0.19,-0.01,0.44,0,3.172,1.503,1.523,-0.343,0.001,-0.012,1.001,0.000,0.000,0.000,0.3590,3,0,-0.68,-0.28,-2.84,0.0040,-0.2156,0.3584,0.0000,0.0000,0.3000,0.2526,-13.46,2.11,-13.12,1.2880,0.0000,1.6030,0.8960,2.3450,0,0.0213,-0.0607,0.0000,0.0274,-0.1407,0
10582,0.0298,-0.1844,0.3583,-0.0024,0.0058,0.0164,0.29,-0.05,0.41,0,3.172,-1.761,0.205,-1.159,-0.003,-0.012,1.002,0.000,0.000,0.000,0.3570,0,0,-0.56,-0.33,-2.91,0.0013,-0.2246,0.3594,0.0000,0.0000,0.3000,0.2522,-13.20,2.12,-12.16,1.2880,0.0000,1.6050,0.8910,2.3380,0,0.0213,-0.0607,0.0000,0.0274,-0.1407,0
10633,0.0299,-0.1877,0.3595,-0.0017,-0.0027,0.0172,0.19,-0.06,0.36,0,3.172,-2.675,-1.651,-1.343,0.003,-0.015,0.996,0.000,0.000,0.000,0.3640,0,0,-0.65,-0.34,-2.97,0.0020,-0.2286,0.3596,0.0000,0.0000,0.3000,0.2519,-13.84,2.16,-10.84,1.2830,0.0000,1.6050,0.8910,2.3380,0,0.0213,-0.0607,0.0000,0.0274,-0.1407,0
10684,0.0299,-0.1861,0.3589,-0.0010,-0.0011,0.0092,0.08,-0.06,0.29,0,3.178,-2.366,-0.388,-2.239,0.000,-0.012,0.998,0.000,0.000,0.000,0.3600,3,0,-0.78,-0.25,-3.04,0.0030,-0.2328,0.3617,0.0000,0.0000,0.3000,0.2529,-13.60,2.19,-8.71,1.2830,0.0000,1.6030,0.8900,2.3340,0,0.0213,-0.0607,0.0000,0.0274,-0.1407,0
10735,0.0299,-0.1885,0.3619,-0.0003,-0.0056,0.0180,0.02,-0.06,0.20,0,3.172,-1.254,1.185,-1.652,0.003,-0.014,0.992,0.000,0.000,0.000,0.3600,0,0,-0.92,-0.20,-3.15,-0.0005,-0.2350,0.3621,0.0000,0.0000,0.3000,0.2513,-14.06,2.25,-5.91,1.2760,0.0000,1.6030,0.8900,2.3340,0,0.0213,-0.0607,0.0000,0.0274,-0.1407,0
10786,0.0294,-0.1873,0.3616,-0.0007,-0.0028,0.0098,-0.07,-0.12,0.11,0,3.172,-0.890,0.248,-1.307,-0.005,-0.013,0.992,0.000,0.000,0.000,0.3600,0,0,-0.98,-0.26,-3.24,-0.0001,-0.2387,0.3621,0.0000,0.0000,0.3000,0.2523,-13.80,2.17,-3.37,1.2760,0.0000,1.6030,0.8940,2.3370,0,0.0213,-0.0607,0.0000,0.0274,-0.1407,0
10837,0.0294,-0.1883,0.3612,0.0005,-0.0037,0.0037,-0.10,-0.14,0.04,0,3.167,0.014,-0.870,-1.260,0.004,-0.010,0.993,0.000,0.000,0.000,0.3620,0,0,-1.03,-0.27,-3.30,0.0002,-0.2423,0.3617,0.0000,0.0000,0.3000,0.2530,-13.88,2.23,-1.11,1.2720,0.0000,1.6030,0.8940,2.3370,0,0.0213,-0.0607,0.0000,0.0274,-0.1407,0
10890,0.0295,-0.1884,0.3607,0.0015,-0.0028,-0.0007,-0.11,-0.08,-0.03,0,3.172,-0.428,-0.836,-1.492,0.003,-0.011,0.996,0.000,0.000,0.000,0.3620,0,0,-1.02,-0.22,-3.37,0.0009,-0.2459,0.3618,0.0000,0.0000,0.3000,0.2536,-13.82,2.28,1.05,1.2720,0.0000,1.6050,0.8920,2.3340,0,0.0213,-0.0607,0.0000,0.0274,-0.1407,0
10941,0.0303,-0.1882,0.3613,0.0035,-0.0013,0.0007,-0.14,-0.03,-0.08,0,3.172,2.027,1.733,-0.628,0.003,-0.003,0.999,0.000,0.000,0.000,0.3600,0,0,-1.05,-0.18,-3.44,0.0017,-0.2491,0.3618,0.0000,0.0000,0.3000,0.2533,-13.75,2.44,2.33,1.2670,0.0000,1.6050,0.8920,2.3340,0,0.0213,-0.0607,0.0000,0.0274,-0.1407,0
10992,0.0307,-0.1876,0.3617,0.0041,0.0009,0.0013,-0.08,-0.07,-0.11,0,3.167,0.166,0.144,-0.893,0.000,-0.013,1.001,0.000,0.000,0.000,0.3630,0,0,-0.94,-0.26,-3.48,0.0027,-0.2520,0.3611,0.0000,0.0000,0.3000,0.2532,-13.61,2.50,3.43,1.2670,0.0000,1.6030,0.8900,2.3320,0,0.0213,-0.0607,0.0000,0.0274,-0.1407,0
11043,0.0306,-0.1891,0.3609,0.0043,-0.0017,-0.0012,-0.00,-0.09,-0.13,0,3.172,-3.290,-2.602,-0.446,0.003,-0.014,0.997,0.000,0.000,0.000,0.3620,5,0,-0.94,-0.27,-3.52,0.0038,-0.2548,0.3616,0.0000,0.0000,0.3000,0.2536,-13.82,2.50,3.89,1.2630,0.0000,1.6030,0.8900,2.3320,0,0.0213,-0.0607,0.0000,0.0274,-0.1407,0
11094,0.0316,-0.1849,0.3619,0.0062,0.0062,0.0025,-0.07,0.01,-0.15,0,3.172,1.160,-0.648,-0.332,0.005,-0.009,0.997,0.000,0.000,0.000,0.3590,-6,0,-1.11,-0.08,-3.55,-0.0038,-0.2564,0.3616,0.0000,0.0000,0.3000,0.2530,-13.19,2.67,4.55,1.2630,0.0000,1.6080,0.8910,2.3330,0,0.0213,-0.0607,0.0000,0.0274,-0.1407,0
11146,0.0320,-0.1818,0.3620,0.0062,0.0125,0.0007,-0.11,0.09,-0.17,0,3.162,2.062,1.870,0.503,-0.002,-0.010,0.999,0.000,0.000,0.000,0.3600,-2,0,-1.09,-0.05,-3.54,-0.0034,-0.2549,0.3606,0.0000,0.0000,0.3000,0.2531,-12.68,2.70,5.18,1.2620,0.0000,1.6080,0.8910,2.3330,0,0.0213,-0.0607,0.0000,0.0274,-0.1407,0
11198,0.0335,-0.1910,0.3605,0.0078,-0.0046,-0.0066,0.07,0.01,-0.15,0,3.167,-2.712,-1.322,1.214,0.002,-0.010,1.004,0.000,0.000,0.000,0.3600,0,0,-1.01,-0.15,-3.50,-0.0031,-0.2542,0.3600,0.0000,0.0000,0.3000,0.2542,-14.06,2.87,4.62,1.2620,0.0000,1.6100,0.8890,2.3360,0,0.0213,-0.0607,0.0000,0.0274,-0.1407,0
11250,0.0332,-0.1914,0.3599,0.0065,-0.0061,-0.0070,0.02,0.04,-0.11,0,3.167,-0.246,-1.969,0.805,0.001,-0.014,1.001,0.000,0.000,0.000,0.3590,9,-2,-1.15,-0.08,-3.44,-0.0028,-0.2545,0.3597,0.0000,0.0000,0.3000,0.2544,-14.15,2.78,3.28,1.2630,0.0000,1.6100,0.8890,2.3360,0,0.0213,-0.0607,0.0000,0.0274,-0.1407,0
11301,0.0350,-0.1896,0.3597,0.0088,-0.0030,-0.0060,0.07,0.07,-0.06,0,3.167,1.321,0.602,1.672,0.002,-0.013,0.999,0.000,0.000,0.000,0.3610,0,0,-0.95,-0.02,-3.52,-0.0002,-0.2740,0.3597,0.0000,0.0000,0.3000,0.2543,-13.89,3.03,1.92,1.2630,0.0000,1.6090,0.8830,2.3390,0,0.0213,-0.0607,0.0000,0.0274,-0.1407,0
11352,0.0374,-0.2022,0.3590,0.0117,-0.0253,-0.0075,0.15,0.06,0.01,0,3.167,-6.681,-1.525,2.364,0.003,-0.008,0.999,0.000,0.000,0.000,0.3580,2,0,-0.88,-0.05,-3.43,0.0010,-0.2794,0.3599,0.0000,0.0000,0.3000,0.2546,-15.75,3.35,-0.35,1.2620,0.0000,1.6090,0.8830,2.3390,0,0.0213,-0.0607,0.0000,0.0274,-0.1407,0
11403,0.0386,-0.2000,0.3597,0.0122,-0.0196,-0.0031,-0.15,0.11,0.13,0,3.167,-3.444,-3.171,3.337,0.008,-0.014,1.006,0.000,0.000,0.000,0.3600,0,0,-1.24,0.05,-3.30,0.0002,-0.2823,0.3592,0.0000,0.0000,0.3000,0.2540,-15.38,3.46,-3.87,1.2620,0.0000,1.6110,0.8820,2.3420,0,0.0213,-0.0607,0.0000,0.0274,-0.1407,0
11456,0.0395,-0.1979,0.3587,0.0116,-0.0119,-0.0064,-0.48,0.20,0.27,0,3.162,3.476,-0.035,4.172,0.006,-0.015,0.997,0.000,0.000,0.000,0.3570,0,0,-1.42,0.20,-3.13,0.0012,-0.2870,0.3593,0.0000,0.0000,0.3000,0.2545,-14.86,3.49,-8.13,1.2700,0.0000,1.6110,0.8820,2.3420,0,0.0213,-0.0607,0.0000,0.0274,-0.1407,0
11507,0.0398,-0.1963,0.3590,0.0096,-0.0042,-0.0036,-0.36,0.15,0.45,0,3.167,4.792,-0.389,4.700,0.004,-0.010,0.999,0.000,0.000,0.000,0.3590,-3,0,-1.24,0.20,-2.90,0.0022,-0.2912,0.3584,0.0000,0.0000,0.3000,0.2541,-14.43,3.43,-13.40,1.2700,0.0000,1.6060,0.8800,2.3350,0,0.0213,-0.0607,0.0000,0.0274,-0.1407,0
11558,0.0399,-0.1930,0.3579,0.0080,0.0047,-0.0081,-0.12,0.15,0.63,0,3.167,2.694,1.834,3.182,0.004,-0.009,1.005,0.000,0.000,0.000,0.3560,-20,3,-1.17,0.24,-2.51,0.0013,-0.2737,0.3589,0.0000,0.0000,0.3000,0.2548,-13.76,3.35,-18.99,1.2710,0.0000,1.6060,0.8800,2.3350,0,0.0213,-0.0607,0.0000,0.0274,-0.1407,0
11609,0.0424,-0.2073,0.3580,0.0104,-0.0216,-0.0046,-0.25,0.17,0.81,0,3.162,0.490,-0.452,3.127,0.002,-0.009,1.001,0.000,0.000,0.000,0.3570,0,0,-1.27,0.19,-2.12,-0.0004,-0.2459,0.3559,0.2814,-0.1798,0.3000,0.2544,-6.87,-16.29,-24.35,1.2710,0.0000,1.6170,0.8800,2.3430,0,0.0213,-0.0607,0.0000,0.0274,-0.1407,0
11660,0.0382,-0.1800,0.3567,0.0007,0.0311,-0.0090,-0.22,0.13,0.95,0,3.157,10.163,0.221,2.220,0.006,-0.011,1.002,0.000,0.000,0.000,0.3570,0,0,-1.25,0.21,-1.96,-0.0006,-0.2383,0.3557,0.2814,-0.1798,0.3000,0.2551,-2.34,-16.96,-28.38,1.2790,0.0000,1.6170,0.8800,2.3430,0,0.0213,-0.0607,0.0000,0.0274,-0.1407,0
11711,0.0386,-0.1821,0.3564,0.0005,0.0253,-0.0081,0.24,0.06,1.04,0,3.162,2.025,2.392,1.382,0.003,-0.015,1.002,0.000,0.000,0.000,0.3570,0,-1,-0.73,0.19,-1.85,-0.0008,-0.2304,0.3557,0.2814,-0.1798,0.3000,0.2551,-2.77,-16.95,-31.15,1.2790,0.0000,1.6190,0.8780,2.3400,0,0.0213,-0.0607,0.0000,0.0274,-0.1407,0
11763,0.0389,-0.1793,0.3563,0.0006,0.0257,-0.0067,0.45,-0.02,1.10,0,3.157,0.513,0.951,0.391,0.005,-0.007,1.003,0.000,0.000,0.000,0.3580,-1,0,-0.45,0.03,-1.97,0.0023,-0.2452,0.3579,0.2814,-0.1798,0.3000,0.2550,-2.55,-16.94,-32.87,1.2770,0.0000,1.6190,0.8780,2.3400,0,0.0213,-0.0607,0.0000,0.0274,-0.1407,0
11814,0.0391,-0.1810,0.3564,0.0011,0.0175,-0.0044,0.41,-0.02,1.13,0,3.157,0.966,-0.598,-0.422,0.003,-0.009,1.000,0.000,0.000,0.000,0.3560,-1,0,-0.42,-0.02,-1.94,0.0028,-0.2420,0.3581,0.2814,-0.1798,0.3000,0.2547,-3.08,-16.92,-33.97,1.2770,0.0000,1.6170,0.8790,2.3400,0,0.0213,-0.0607,0.0000,0.0274,-0.1407,0
11865,0.0403,-0.1781,0.3570,0.0034,0.0167,-0.0005,0.47,0.01,1.14,0,3.157,2.798,-0.331,0.149,0.005,-0.013,0.993,0.000,0.000,0.000,0.3530,0,0,-0.37,0.02,-1.96,0.0033,-0.2388,0.3575,0.2814,-0.1798,0.3000,0.2542,-2.91,-16.78,-34.21,1.2760,0.0000,1.6170,0.8790,2.3400,0,0.0213,-0.0607,0.0000,0.0274,-0.1407,0
11916,0.0409,-0.1785,0.3564,0.0043,0.0105,-0.0041,0.51,-0.07,1.15,0,3.151,-2.690,1.004,0.826,0.005,-0.012,0.996,0.000,0.000,0.000,0.3520,1,0,-0.23,0.03,-1.96,0.0042,-0.2359,0.3559,0.2814,-0.1798,0.3000,0.2547,-3.23,-16.66,-34.63,1.2760,0.0000,1.6230,0.8720,2.3380,0,0.0213,-0.0607,0.0000,0.0274,-0.1407,0
11967,0.0425,-0.1796,0.3545,0.0076,0.0042,-0.0144,0.43,-0.09,1.20,0,3.141,-4.871,-2.878,2.477,-0.001,-0.014,1.001,0.000,0.000,0.000,0.3530,0,1,-0.30,-0.01,-1.96,0.0031,-0.2417,0.3543,0.2814,-0.1798,0.3000,0.2561,-3.60,-16.33,-35.90,1.2660,0.0000,1.6230,0.8720,2.3380,0,0.0213,-0.0607,0.0000,0.0274,-0.1407,0
12018,0.0397,-0.1591,0.3526,0.0022,0.0403,-0.0194,-0.00,0.01,1.29,0,3.151,1.119,1.547,2.330,0.000,-0.005,1.009,0.000,0.000,0.000,0.3540,-2,0,-0.55,0.16,-1.82,0.0015,-0.2413,0.3533,0.2814,-0.1798,0.3000,0.2570,-0.37,-16.70,-38.71,1.2660,0.0000,1.6290,0.8810,2.3410,0,0.0213,-0.0607,0.0000,0.0274,-0.1407,0
12069,0.0398,-0.1596,0.3519,0.0023,0.0355,-0.0172,-0.02,-0.03,1.41,0,3.151,10.805,-0.145,2.571,0.003,-0.011,1.001,0.000,0.000,0.000,0.3560,-1,-1,-0.52,0.08,-1.68,0.0017,-0.2368,0.3532,0.2814,-0.1798,0.3000,0.2569,-0.64,-16.70,-42.30,1.2650,0.0000,1.6290,0.8810,2.3410,0,0.0213,-0.0607,0.0000,0.0274,-0.1407,0
12120,0.0396,-0.1586,0.3523,0.0020,0.0338,-0.0102,0.41,-0.01,1.53,0,3.157,2.112,-0.979,2.184,0.002,-0.010,1.001,0.000,0.000,0.000,0.3530,-4,0,0.02,0.07,-1.55,0.0041,-0.2340,0.3537,0.2814,-0.1798,0.3000,0.2561,-0.65,-16.78,-45.96,1.2650,0.0000,1.6280,0.8680,2.3400,0,0.0213,-0.0607,0.0000,0.0274,-0.1407,0
12171,0.0405,-0.1605,0.3537,0.0036,0.0233,-0.0003,0.53,0.04,1.65,0,3.157,-2.114,-0.748,1.370,0.001,-0.007,0.999,0.000,0.000,0.000,0.3530,0,0,0.06,0.12,-1.38,0.0047,-0.2235,0.3532,0.2814,-0.1798,0.3000,0.2547,-1.30,-16.73,-49.51,1.2610,0.0000,1.6280,0.8680,2.3400,0,0.0213,-0.0607,0.0000,0.0274,-0.1407,0
12222,0.0399,-0.1475,0.3533,0.0018,0.0419,-0.0024,0.31,0.06,1.73,0,3.157,4.772,1.976,1.136,-0.002,-0.007,1.002,0.000,0.000,0.000,0.3510,0,0,-0.05,0.16,-1.31,0.0052,-0.2204,0.3529,0.2814,-0.1798,0.3000,0.2550,0.55,-16.84,-51.98,1.2610,0.0000,1.6370,0.8690,2.3480,0,0.0213,-0.0607,0.0000,0.0274,-0.1407,0
12273,0.0404,-0.1479,0.3531,0.0023,0.0338,-0.0037,0.49,-0.03,1.77,0,3.157,3.585,1.086,-0.784,0.006,-0.010,0.993,0.000,0.000,0.000,0.3520,3,0,0.20,0.06,-1.26,0.0055,-0.2175,0.3521,0.2814,-0.1798,0.3000,0.2552,0.12,-16.78,-53.15,1.2540,0.0000,1.6370,0.8690,2.3480,0,0.0213,-0.0607,0.0000,0.0274,-0.1407,0
12325,0.0407,-0.1461,0.3518,0.0030,0.0299,-0.0095,0.80,-0.13,1.76,0,3.157,-4.547,-1.106,-0.934,0.002,-0.005,0.995,0.000,0.000,0.000,0.3530,1,-1,0.53,0.01,-1.41,0.0035,-0.2388,0.3518,0.2814,-0.1798,0.3000,0.2561,0.07,-16.68,-52.77,1.2540,0.0000,1.6410,0.8620,2.3440,0,0.0213,-0.0607,0.0000,0.0274,-0.1407,0
12377,0.0422,-0.1466,0.3514,0.0069,0.0202,-0.0117,0.61,-0.14,1.72,0,3.157,-5.433,-0.915,-1.620,0.002,-0.004,0.994,0.000,0.000,0.000,0.3470,-18,0,0.30,0.05,-1.49,0.0052,-0.2416,0.3515,0.2814,-0.1798,0.3000,0.2564,-0.44,-16.39,-51.67,1.2380,0.0000,1.6410,0.8620,2.3440,0,0.0213,-0.0607,0.0000,0.0274,-0.1407,0
12428,0.0411,-0.1527,0.3517,0.0053,0.0016,-0.0090,0.15,-0.03,1.67,0,3.151,-2.379,0.713,-1.183,0.003,-0.006,1.000,0.000,0.000,0.000,0.3490,0,0,-0.25,0.11,-1.35,0.0070,-0.2065,0.3510,0.2814,-0.1798,0.3000,0.2560,-1.77,-16.56,-50.07,1.2380,0.0000,1.6490,0.8570,2.3460,0,0.0213,-0.0607,0.0000,0.0274,-0.1407,0
12479,0.0431,-0.1569,0.3489,0.0093,-0.0107,-0.0198,0.24,-0.05,1.62,0,3.151,-4.857,-3.006,-0.555,0.005,-0.002,1.001,0.000,0.000,0.000,0.3460,0,0,-0.38,0.07,-1.42,0.0076,-0.2014,0.3496,0.2814,-0.1798,0.3000,0.2577,-2.66,-16.15,-48.73,1.2300,0.0000,1.6490,0.8570,2.3460,0,0.0213,-0.0607,0.0000,0.0274,-0.1407,0
12530,0.0444,-0.1536,0.3480,0.0114,-0.0045,-0.0193,-0.00,0.04,1.60,0,3.146,-7.836,-5.843,0.528,0.003,-0.009,1.008,0.000,0.000,0.000,0.3490,0,0,-0.62,0.22,-1.44,0.0083,-0.1962,0.3477,0.2814,-0.1798,0.3000,0.2578,-2.11,-15.96,-47.88,1.2300,0.0000,1.6520,0.8520,2.3460,0,0.0213,-0.0607,0.0000,0.0274,-0.1407,0
12581,0.0476,-0.1687,0.3462,0.0165,-0.0354,-0.0219,-0.24,0.27,1.61,0,3.151,-5.974,1.050,0.553,0.003,-0.009,1.007,0.000,0.000,0.000,0.3450,5,0,-1.02,0.52,-1.41,0.0090,-0.1909,0.3474,0.2814,-0.1798,0.3000,0.2585,-4.67,-15.49,-48.43,1.2230,0.0000,1.6520,0.8520,2.3460,0,0.0213,-0.0607,0.0000,0.0274,-0.1407,0
12633,0.0495,-0.1660,0.3467,0.0166,-0.0244,-0.0113,-0.48,0.26,1.64,0,3.151,-6.475,0.591,0.454,0.005,-0.003,1.012,0.000,0.000,0.000,0.3440,0,-1,-1.05,0.48,-1.63,0.0059,-0.2298,0.3483,0.2814,-0.1798,0.3000,0.2572,-3.97,-15.43,-49.30,1.2230,0.0000,1.6610,0.8420,2.3560,0,0.0213,-0.0607,0.0000,0.0274,-0.1407,0
12685,0.0498,-0.1658,0.3455,0.0132,-0.0165,-0.0099,-0.85,0.22,1.68,0,3.151,-1.613,0.182,-0.074,0.003,-0.007,1.009,0.000,0.000,0.000,0.3440,8,0,-1.39,0.44,-1.61,0.0071,-0.2312,0.3471,0.2814,-0.1798,0.3000,0.2573,-3.58,-15.57,-50.52,1.2130,0.0000,1.6610,0.8420,2.3560,0,0.0213,-0.0607,0.0000,0.0274,-0.1407,0
12736,0.0511,-0.1718,0.3444,0.0123,-0.0204,-0.0073,-0.84,0.24,1.66,0,3.151,1.152,0.426,-1.133,0.006,-0.011,1.008,0.000,0.000,0.000,0.3460,-2,0,-1.38,0.43,-1.73,0.0065,-0.2434,0.3454,0.2814,-0.1798,0.3000,0.2572,-4.19,-15.53,-49.66,1.2130,0.0000,1.6570,0.8370,2.3550,0,0.0213,-0.0607,0.0000,0.0274,-0.1407,0
12787,0.0544,-0.1820,0.3440,0.0161,-0.0329,-0.0038,-0.70,0.14,1.60,0,3.151,-2.406,1.582,-3.290,0.004,-0.009,1.001,0.000,0.000,0.000,0.3430,-1,0,-1.37,0.41,-1.73,0.0067,-0.2419,0.3462,0.2814,-0.1798,0.3000,0.2569,-5.53,-15.16,-47.97,1.2030,0.0000,1.6570,0.8370,2.3550,0,0.0213,-0.0607,0.0000,0.0274,-0.1407,0
12839,0.0560,-0.1835,0.3449,0.0167,-0.0270,0.0026,-0.76,0.04,1.46,0,3.146,1.629,0.229,-5.229,0.001,-0.008,1.001,0.000,0.000,0.000,0.3410,-2,0,-1.51,0.34,-1.87,0.0069,-0.2410,0.3455,0.2814,-0.1798,0.3000,0.2561,-5.37,-15.07,-43.65,1.2030,0.0000,1.6680,0.8340,2.3540,0,0.0213,-0.0607,0.0000,0.0274,-0.1407,0
12890,0.0557,-0.1818,0.3441,0.0138,-0.0144,-0.0004,-0.72,0.06,1.23,0,3.141,5.953,1.754,-7.569,0.003,-0.004,0.996,0.000,0.000,0.000,0.3440,0,0,-1.46,0.33,-2.09,0.0071,-0.2370,0.3442,0.2814,-0.1798,0.3000,0.2565,-4.64,-15.20,-36.90,1.1860,0.0000,1.6680,0.8340,2.3540,0,0.0213,-0.0607,0.0000,0.0274,-0.1407,0
12941,0.0575,-0.1804,0.3425,0.0156,-0.0043,-0.0061,-0.49,0.03,0.88,0,3.135,3.710,-4.424,-9.354,-0.002,-0.010,0.999,0.000,0.000,0.000,0.3450,1,-1,-1.16,0.25,-2.48,0.0070,-0.2362,0.3439,0.2814,-0.1798,0.3000,0.2574,-4.04,-14.95,-26.41,1.1860,0.0000,1.6680,0.8320,2.3550,0,0.0213,-0.0607,0.0000,0.0274,-0.1407,0
12993,0.0585,-0.1878,0.3430,0.0159,-0.0164,-0.0041,-0.21,0.16,0.50,0,3.135,-1.861,-0.312,-8.688,0.004,-0.016,0.997,0.000,0.000,0.000,0.3430,3,-1,-0.92,0.45,-2.98,0.0108,-0.2415,0.3442,0.2814,-0.1798,0.3000,0.2571,-5.15,-14.89,-15.04,1.1730,0.0000,1.6680,0.8320,2.3550,0,0.0213,-0.0607,0.0000,0.0274,-0.1407,0
13045,0.0604,-0.1879,0.3438,0.0169,-0.0128,-0.0002,-0.23,0.17,0.09,0,3.135,-4.896,-1.230,-7.691,0.002,-0.003,1.008,0.000,0.000,0.000,0.3420,0,0,-0.97,0.46,-3.48,0.0125,-0.2481,0.3436,0.2814,-0.1798,0.3000,0.2566,-5.00,-14.75,-2.68,1.1730,0.0000,1.6640,0.8340,2.3530,0,0.0213,-0.0607,0.0000,0.0274,-0.1407,0
13096,0.0611,-0.1875,0.3434,0.0150,-0.0084,-0.0011,-0.50,0.21,-0.30,0,3.135,6.777,-0.845,-8.149,-0.001,-0.007,1.002,0.000,0.000,0.000,0.3420,-2,-1,-1.22,0.53,-3.88,0.0132,-0.2493,0.3430,0.2814,-0.1798,0.3000,0.2567,-4.76,-14.78,8.91,1.1520,0.0000,1.6640,0.8340,2.3530,0,0.0213,-0.0607,0.0000,0.0274,-0.1407,0
13147,0.0612,-0.1860,0.3427,0.0118,-0.0003,-0.0015,-0.27,0.24,-0.71,0,3.130,10.356,-4.594,-7.556,0.003,-0.016,0.997,0.000,0.000,0.000,0.3390,-4,0,-0.93,0.56,-4.19,0.0173,-0.2409,0.3426,0.2814,-0.1798,0.3000,0.2569,-4.26,-14.91,21.37,1.1520,0.0000,1.6670,0.8340,2.3590,0,0.0213,-0.0607,0.0000,0.0274,-0.1407,0
13198,0.0618,-0.1837,0.3423,0.0096,0.0072,-0.0029,0.14,0.41,-1.10,0,3.130,-5.387,1.867,-6.669,0.006,-0.010,1.000,0.000,0.000,0.000,0.3380,1,0,-0.46,0.81,-4.50,0.0186,-0.2321,0.3412,0.2814,-0.1798,0.3000,0.2571,-3.73,-14.96,33.06,1.1340,0.0000,1.6670,0.8340,2.3590,0,0.0213,-0.0607,0.0000,0.0274,-0.1407,0
13250,0.0647,-0.1828,0.3405,0.0117,0.0077,-0.0109,0.03,0.38,-1.42,0,3.120,-5.194,0.338,-3.366,0.006,-0.009,1.010,0.000,0.000,0.000,0.3420,4,-1,-0.70,0.72,-4.89,0.0185,-0.2336,0.3399,0.2814,-0.1798,0.3000,0.2583,-3.62,-14.61,42.67,1.1340,0.0000,1.6690,0.8390,2.3500,0,0.0213,-0.0607,0.0000,0.0274,-0.1407,0
13302,0.0627,-0.1822,0.3388,0.0027,0.0080,-0.0132,-0.13,0.37,-1.62,0,3.120,3.778,-2.698,1.495,0.005,-0.009,1.004,0.000,0.000,0.000,0.3400,0,-1,-0.88,0.69,-5.19,0.0198,-0.2434,0.3406,0.2814,-0.1798,0.3000,0.2589,-3.56,-15.12,48.47,1.1310,0.0000,1.6690,0.8390,2.3500,0,0.0213,-0.0607,0.0000,0.0274,-0.1407,0
13354,0.0629,-0.1820,0.3399,-0.0002,0.0093,-0.0024,-0.01,0.48,-1.58,0,3.120,1.852,2.771,3.925,0.002,-0.012,1.003,0.000,0.000,0.000,0.3400,0,0,-0.69,0.81,-5.11,0.0226,-0.2437,0.3405,0.2814,-0.1798,0.3000,0.2575,-3.50,-15.31,47.54,1.1310,0.0000,1.6700,0.8400,2.3590,0,0.0213,-0.0607,0.0000,0.0274,-0.1407,0
13405,0.0620,-0.1813,0.3399,-0.0063,0.0100,-0.0008,0.09,0.41,-1.43,0,3.125,0.120,0.863,4.131,0.002,-0.009,1.002,0.000,0.000,0.000,0.3410,-1,0,-0.60,0.66,-4.91,0.0232,-0.2440,0.3404,0.2814,-0.1798,0.3000,0.2573,-3.42,-15.66,42.84,1.1330,0.0000,1.6700,0.8400,2.3590,0,0.0213,-0.0607,0.0000,0.0274,-0.1407,0
13456,0.0610,-0.1830,0.3399,-0.0113,0.0044,0.0014,0.10,0.36,-1.24,0,3.130,-0.009,1.406,4.018,0.003,-0.010,1.009,0.000,0.000,0.000,0.3400,0,0,-0.62,0.62,-4.64,0.0231,-0.2393,0.3407,0.2814,-0.1798,0.3000,0.2571,-3.81,-15.97,37.17,1.1330,0.0000,1.6670,0.8390,2.3570,0,0.0213,-0.0607,0.0000,0.0274,-0.1407,0
13507,0.0601,-0.1811,0.3406,-0.0150,0.0073,0.0073,0.12,0.35,-1.01,0,3.135,1.118,1.112,5.948,0.006,-0.010,1.004,0.000,0.000,0.000,0.3400,0,0,-0.63,0.55,-4.44,0.0232,-0.2386,0.3409,0.2814,-0.1798,0.3000,0.2563,-3.55,-16.24,30.45,1.1440,0.0000,1.6670,0.8390,2.3570,0,0.0213,-0.0607,0.0000,0.0274,-0.1407,0
13558,0.0594,-0.1804,0.3407,-0.0177,0.0068,0.0093,0.22,0.28,-0.71,0,3.130,2.690,1.410,7.094,0.003,-0.008,1.001,0.000,0.000,0.000,0.3420,0,0,-0.57,0.49,-4.13,0.0231,-0.2378,0.3411,0.2814,-0.1798,0.3000,0.2561,-3.53,-16.42,21.38,1.1440,0.0000,1.6630,0.8430,2.3560,0,0.0213,-0.0607,0.0000,0.0274,-0.1407,0
13609,0.0579,-0.1804,0.3409,-0.0215,0.0042,0.0089,0.25,0.26,-0.44,0,3.135,0.457,4.344,7.588,0.005,-0.012,1.000,0.000,0.000,0.000,0.3410,1,2,-0.44,0.42,-3.77,0.0230,-0.2370,0.3418,0.2814,-0.1798,0.3000,0.2561,-3.65,-16.70,13.24,1.1530,0.0000,1.6630,0.8430,2.3560,0,0.0213,-0.0607,0.0000,0.0274,-0.1407,0
13660,0.0558,-0.1764,0.3419,-0.0254,0.0100,0.0125,0.31,0.10,-0.05,0,3.130,4.200,4.984,7.640,0.005,-0.013,1.001,0.000,0.000,0.000,0.3410,-3,0,-0.37,0.23,-3.44,0.0155,-0.2431,0.3421,0.2814,-0.1798,0.3000,0.2555,-3.09,-17.05,1.65,1.1530,0.0000,1.6580,0.8430,2.3520,0,0.0213,-0.0607,0.0000,0.0274,-0.1407,0
13711,0.0505,-0.1678,0.3421,-0.0347,0.0258,0.0105,0.31,-0.14,0.35,0,3.135,4.697,5.019,6.903,-0.001,-0.010,0.996,0.000,0.000,0.000,0.3410,0,2,-0.19,-0.03,-3.02,0.0149,-0.2400,0.3424,0.2814,-0.1798,0.3000,0.2557,-1.71,-17.80,-10.54,1.1720,0.0000,1.6580,0.8430,2.3520,0,0.0213,-0.0607,0.0000,0.0274,-0.1407,0
13763,0.0517,-0.1707,0.3420,-0.0267,0.0135,0.0075,0.56,-0.40,0.67,0,3.130,2.082,2.248,4.211,0.003,-0.010,0.997,0.000,0.000,0.000,0.3440,-4,0,0.05,-0.27,-2.65,0.0113,-0.2399,0.3423,0.2814,-0.1798,0.3000,0.2560,-2.50,-17.35,-20.16,1.1720,0.0000,1.6640,0.8380,2.3540,0,0.0213,-0.0607,0.0000,0.0274,-0.1407,0
13816,0.0497,-0.1762,0.3418,-0.0244,-0.0049,0.0040,0.72,-0.57,0.89,0,3.125,-6.728,-2.549,2.522,0.005,-0.015,0.994,0.000,0.000,0.000,0.3420,0,0,0.11,-0.39,-2.42,0.0108,-0.2334,0.3432,0.2814,-0.1798,0.3000,0.2564,-3.78,-17.36,-26.72,1.1700,0.0000,1.6640,0.8380,2.3540,0,0.0213,-0.0607,0.0000,0.0274,-0.1407,0
13867,0.0494,-0.1777,0.3431,-0.0177,-0.0140,0.0062,0.58,-0.51,1.06,0,3.130,-5.801,-3.779,3.202,0.001,-0.008,1.001,0.000,0.000,0.000,0.3430,2,-1,-0.25,-0.26,-2.28,0.0097,-0.2326,0.3430,0.2814,-0.1798,0.3000,0.2560,-4.34,-17.12,-31.70,1.1700,0.0000,1.6640,0.8430,2.3580,0,0.0213,-0.0607,0.0000,0.0274,-0.1407,0
13918,0.0483,-0.1740,0.3428,-0.0144,-0.0082,0.0041,0.23,-0.29,1.25,0,3.130,-1.509,-1.195,3.169,0.006,-0.009,0.996,0.000,0.000,0.000,0.3440,0,0,-0.48,-0.10,-2.18,0.0134,-0.2399,0.3433,0.2814,-0.1798,0.3000,0.2562,-3.79,-17.03,-37.47,1.1890,0.0000,1.6640,0.8430,2.3580,0,0.0213,-0.0607,0.0000,0.0274,-0.1407,0
13969,0.0484,-0.1758,0.3431,-0.0104,-0.0128,0.0036,0.11,-0.19,1.41,0,3.130,-5.676,-0.036,2.373,0.002,-0.013,1.005,0.000,0.000,0.000,0.3430,1,0,-0.56,-0.04,-2.01,0.0137,-0.2409,0.3437,0.2814,-0.1798,0.3000,0.2562,-4.13,-16.85,-42.39,1.1890,0.0000,1.6650,0.8350,2.3530,0,0.0213,-0.0607,0.0000,0.0274,-0.1407,0
14020,0.0479,-0.1732,0.3437,-0.0089,-0.0065,0.0067,-0.18,-0.12,1.54,0,3.125,5.879,-1.813,3.741,0.005,-0.008,1.000,0.000,0.000,0.000,0.3450,1,0,-0.84,-0.04,-1.89,0.0133,-0.2431,0.3437,0.2814,-0.1798,0.3000,0.2558,-3.65,-16.85,-46.22,1.1960,0.0000,1.6650,0.8350,2.3530,0,0.0213,-0.0607,0.0000,0.0274,-0.1407,0
14071,0.0495,-0.1760,0.3437,-0.0033,-0.0106,0.0056,-0.02,-0.11,1.69,0,3.135,3.565,-1.738,4.404,0.005,-0.007,0.998,0.000,0.000,0.000,0.3410,-2,0,-0.53,0.05,-1.69,0.0134,-0.2454,0.3444,0.2814,-0.1798,0.3000,0.2559,-4.05,-16.49,-50.67,1.1960,0.0000,1.6700,0.8360,2.3530,0,0.0213,-0.0607,0.0000,0.0274,-0.1407,0
14123,0.0491,-0.1756,0.3446,-0.0029,-0.0084,0.0082,0.12,-0.05,1.89,0,3.125,-4.041,-2.925,4.922,0.005,-0.007,0.995,0.000,0.000,0.000,0.3450,-1,0,-0.39,0.14,-1.47,0.0137,-0.2420,0.3436,0.2814,-0.1798,0.3000,0.2554,-3.92,-16.53,-56.61,1.2100,0.0000,1.6700,0.8360,2.3530,0,0.0213,-0.0607,0.0000,0.0274,-0.1407,0
14175,0.0506,-0.1753,0.3430,0.0010,-0.0079,-0.0030,-0.03,0.02,2.10,0,3.135,3.692,-1.309,3.783,0.005,-0.009,0.997,0.000,0.000,0.000,0.3440,0,0,-0.62,0.29,-1.21,0.0139,-0.2398,0.3440,0.2814,-0.1798,0.3000,0.2569,-3.85,-16.17,-63.08,1.2100,0.0000,1.6650,0.8330,2.3580,0,0.0213,-0.0607,0.0000,0.0274,-0.1407,0
14227,0.0502,-0.1756,0.3438,-0.0001,-0.0078,-0.0002,0.10,0.07,2.31,0,3.130,1.642,1.175,3.298,0.004,-0.013,0.995,0.000,0.000,0.000,0.3450,0,0,-0.43,0.36,-1.01,0.0143,-0.2396,0.3440,0.2814,-0.1798,0.3000,0.2565,-3.88,-16.27,-69.29,1.2210,0.0000,1.6650,0.8330,2.3580,0,0.0213,-0.0607,0.0000,0.0274,-0.1407,0
14278,0.0505,-0.1759,0.3439,0.0001,-0.0087,-0.0012,0.21,0.01,2.49,0,3.135,-0.912,-2.450,2.205,0.004,-0.007,1.000,0.000,0.000,0.000,0.3440,-8,1,-0.34,0.30,-0.84,0.0146,-0.2395,0.3441,0.2814,-0.1798,0.3000,0.2566,-3.94,-16.24,-74.55,1.2210,0.0000,1.6740,0.8340,2.3520,0,0.0213,-0.0607,0.0000,0.0274,-0.1407,0
14329,0.0513,-0.1753,0.3443,0.0019,-0.0083,-0.0003,0.05,0.03,2.59,0,3.135,-0.232,-1.992,0.447,0.006,-0.017,0.999,0.000,0.000,0.000,0.3440,4,-1,-0.60,0.46,-0.62,0.0104,-0.2060,0.3438,0.2814,-0.1798,0.3000,0.2564,-3.88,-16.12,-77.66,1.2120,0.0000,1.6740,0.8340,2.3520,0,0.0213,-0.0607,0.0000,0.0274,-0.1407,0
14380,0.0508,-0.1704,0.3441,0.0004,0.0019,-0.0028,0.04,0.09,2.63,0,3.135,2.384,1.987,-1.829,0.004,-0.011,0.997,0.000,0.000,0.000,0.3390,0,0,-0.54,0.55,-0.64,0.0114,-0.2091,0.3448,0.2814,-0.1798,0.3000,0.2567,-3.03,-16.21,-79.03,1.2120,0.0000,1.6680,0.8350,2.3550,0,0.0213,-0.0607,0.0000,0.0274,-0.1407,0
14431,0.0520,-0.1730,0.3439,0.0021,-0.0038,-0.0044,0.12,0.02,2.61,0,3.120,1.801,1.817,-2.087,0.003,-0.014,0.995,0.000,0.000,0.000,0.3420,14,-3,-0.42,0.45,-0.74,0.0110,-0.2049,0.3429,0.2814,-0.1798,0.3000,0.2569,-3.49,-16.04,-78.35,1.2150,0.0000,1.6680,0.8350,2.3550,0,0.0213,-0.0607,0.0000,0.0274,-0.1407,0
14482,0.0525,-0.1711,0.3410,0.0028,0.0001,-0.0185,0.26,-0.10,2.52,0,3.125,-2.294,-0.554,-2.776,0.003,-0.014,0.994,0.000,0.000,0.000,0.3420,-2,0,0.04,0.27,-1.20,0.0192,-0.2529,0.3446,0.2814,-0.1798,0.3000,0.2590,-3.14,-15.86,-75.51,1.2150,0.0000,1.6660,0.8340,2.3510,0,0.0213,-0.0607,0.0000,0.0274,-0.1407,0
14534,0.0576,-0.1833,0.3405,0.0137,-0.0256,-0.0199,0.20,-0.07,2.37,0,3.125,-6.357,-2.601,-3.024,0.003,-0.011,0.994,0.000,0.000,0.000,0.3380,2,0,-0.13,0.31,-1.29,0.0201,-0.2529,0.3445,0.2814,-0.1798,0.3000,0.2592,-5.23,-15.03,-71.22,1.2080,0.0000,1.6660,0.8340,2.3510,0,0.0213,-0.0607,0.0000,0.0274,-0.1407,0
14586,0.0582,-0.1798,0.3403,0.0142,-0.0169,-0.0191,-0.10,-0.01,2.20,0,3.125,-2.377,-2.339,-3.142,0.004,-0.014,1.001,0.000,0.000,0.000,0.3370,0,0,-0.46,0.45,-1.45,0.0205,-0.2593,0.3419,0.2814,-0.1798,0.3000,0.2592,-4.57,-14.97,-65.93,1.2080,0.0000,1.6720,0.8320,2.3500,0,0.0213,-0.0607,0.0000,0.0274,-0.1407,0
14637,0.0597,-0.1885,0.3382,0.0157,-0.0326,-0.0247,-0.18,0.09,2.03,0,3.120,-2.021,-0.363,-3.457,0.001,-0.014,1.003,0.000,0.000,0.000,0.3390,-4,0,-0.58,0.57,-1.61,0.0214,-0.2655,0.3396,0.2814,-0.1798,0.3000,0.2602,-5.91,-14.75,-60.91,1.1980,0.0000,1.6720,0.8320,2.3500,0,0.0213,-0.0607,0.0000,0.0274,-0.1407,0
14688,0.0631,-0.2004,0.3365,0.0204,-0.0525,-0.0262,-0.22,0.10,1.86,0,3.125,-9.366,-0.692,-4.096,0.002,-0.016,1.002,0.000,0.000,0.000,0.3370,-1,2,-0.87,0.61,-1.60,0.0216,-0.2434,0.3402,0.2814,-0.1760,0.3000,0.2607,-7.93,-14.24,-55.72,1.1980,0.0000,1.6660,0.8320,2.3540,0,0.0213,-0.0607,0.0000,0.0274,-0.1407,0
14739,0.0637,-0.1964,0.3364,0.0186,-0.0366,-0.0214,-0.64,0.14,1.67,0,3.120,-1.054,-2.469,-3.495,0.004,-0.013,1.003,0.000,0.000,0.000,0.3370,-3,0,-1.37,0.67,-1.77,0.0179,-0.2414,0.3384,0.2813,-0.1722,0.3000,0.2601,-7.18,-14.25,-50.03,1.1860,0.0000,1.6660,0.8320,2.3540,0,0.0213,-0.0607,0.0000,0.0274,-0.1407,0
14790,0.0632,-0.1966,0.3358,0.0144,-0.0276,-0.0183,-0.86,0.21,1.48,0,3.130,2.786,-1.126,-2.534,0.006,-0.012,1.006,0.000,0.000,0.000,0.3340,-4,0,-1.46,0.80,-1.90,0.0180,-0.2346,0.3369,0.2812,-0.1683,0.3000,0.2599,-7.05,-14.42,-44.45,1.1860,0.0000,1.6660,0.8410,2.3670,0,0.0213,-0.0607,0.0000,0.0274,-0.1407,0
14842,0.0642,-0.1966,0.3355,0.0131,-0.0184,-0.0140,-0.70,0.24,1.33,0,3.125,2.187,0.603,-2.795,0.008,-0.017,1.000,0.000,0.000,0.000,0.3330,-2,0,-1.38,0.85,-1.95,0.0183,-0.2242,0.3349,0.2809,-0.1644,0.3000,0.2595,-6.90,-14.38,-39.88,1.1800,0.0000,1.6660,0.8410,2.3670,0,0.0213,-0.0607,0.0000,0.0274,-0.1407,0
14894,0.0647,-0.1932,0.3341,0.0108,-0.0043,-0.0173,-0.62,0.21,1.20,0,3.125,4.120,-0.008,-2.588,0.003,-0.007,1.005,0.000,0.000,0.000,0.3300,-15,2,-1.28,0.82,-2.08,0.0184,-0.2182,0.3332,0.2807,-0.1605,0.3000,0.2601,-6.25,-14.34,-35.93,1.1800,0.0000,1.6630,0.8390,2.3630,0,0.0213,-0.0607,0.0000,0.0274,-0.1407,0
14946,0.0671,-0.2003,0.3327,0.0131,-0.0148,-0.0177,-0.56,0.19,1.08,0,3.120,5.868,-2.580,-2.574,0.008,-0.010,0.997,0.000,0.000,0.000,0.3290,5,0,-1.31,0.85,-1.87,0.0153,-0.1753,0.3291,0.2803,-0.1567,0.3000,0.2604,-7.49,-13.99,-32.54,1.1700,0.0000,1.6630,0.8390,2.3630,0,0.0213,-0.0607,0.0000,0.0274,-0.1407,0
14997,0.0662,-0.1963,0.3305,0.0087,-0.0026,-0.0235,-0.09,0.24,0.97,0,3.120,-1.318,1.823,-1.991,0.003,-0.011,1.005,0.000,0.000,0.000,0.3280,-7,1,-0.84,0.98,-2.24,0.0139,-0.1885,0.3309,0.2800,-0.1529,0.3000,0.2615,-6.88,-14.12,-29.02,1.1700,0.0000,1.6620,0.8350,2.3620,0,0.0213,-0.0607,0.0000,0.0274,-0.1407,0
15048,0.0663,-0.1941,0.3286,0.0059,0.0036,-0.0249,-0.20,0.22,0.87,0,3.109,1.730,2.891,-2.539,0.008,-0.015,1.005,0.000,0.000,0.000,0.3270,1,0,-0.99,0.89,-2.21,0.0119,-0.1670,0.3282,0.2795,-0.1491,0.3000,0.2620,-6.68,-14.14,-26.00,1.1630,0.0000,1.6620,0.8350,2.3620,0,0.0213,-0.0607,0.0000,0.0274,-0.1407,0
15099,0.0635,-0.1858,0.3272,-0.0021,0.0215,-0.0232,-0.16,0.11,0.77,0,3.114,6.265,0.918,-1.452,0.006,-0.013,1.009,0.000,0.000,0.000,0.3270,-1,0,-0.82,0.73,-2.46,0.0113,-0.1693,0.3279,0.2790,-0.1453,0.3000,0.2621,-5.52,-14.60,-23.05,1.1630,0.0000,1.6630,0.8440,2.3710,0,0.0213,-0.0607,0.0000,0.0274,-0.1407,0
15150,0.0636,-0.1870,0.3261,-0.0025,0.0177,-0.0191,0.11,0.08,0.70,0,3.114,4.179,2.381,-1.609,0.007,-0.015,1.008,0.000,0.000,0.000,0.3260,-4,0,-0.48,0.67,-2.57,0.0113,-0.1658,0.3272,0.2785,-0.1415,0.3000,0.2618,-6.05,-14.54,-21.03,1.1550,0.0000,1.6630,0.8440,2.3710,0,0.0213,-0.0607,0.0000,0.0274,-0.1407,0
15202,0.0638,-0.1863,0.3258,-0.0022,0.0155,-0.0130,0.31,-0.00,0.64,0,3.120,-0.206,-0.277,-0.972,0.005,-0.014,1.011,0.000,0.000,0.000,0.3260,0,1,-0.30,0.54,-2.59,0.0119,-0.1528,0.3261,0.2778,-0.1377,0.3000,0.2612,-6.37,-14.45,-19.27,1.1550,0.0000,1.6640,0.8430,2.3730,0,0.0213,-0.0607,0.0000,0.0274,-0.1407,0
15253,0.0639,-0.1855,0.3253,-0.0017,0.0126,-0.0092,0.36,-0.02,0.60,0,3.114,-1.006,-0.849,-0.538,0.005,-0.014,1.003,0.000,0.000,0.000,0.3190,1,0,-0.26,0.56,-2.71,0.0086,-0.1528,0.3262,0.2772,-0.1339,0.3000,0.2609,-6.71,-14.34,-17.90,1.1540,0.0000,1.6640,0.8430,2.3730,0,0.0213,-0.0607,0.0000,0.0274,-0.1407,0
15304,0.0631,-0.1832,0.3254,-0.0030,0.0131,-0.0044,0.35,-0.00,0.56,0,3.114,-0.373,0.982,-0.277,0.006,-0.014,1.010,0.000,0.000,0.000,0.3260,0,0,-0.26,0.59,-2.82,0.0083,-0.1563,0.3241,0.2764,-0.1301,0.3000,0.2604,-6.79,-14.39,-16.84,1.1540,0.0000,1.6630,0.8440,2.3660,0,0.0213,-0.0607,0.0000,0.0274,-0.1407,0
15355,0.0627,-0.1841,0.3220,-0.0035,0.0068,-0.0141,0.33,0.00,0.53,0,3.109,-2.979,0.015,0.034,0.006,-0.013,1.009,0.000,0.000,0.000,0.3260,2,0,-0.28,0.54,-2.83,0.0066,-0.1520,0.3246,0.2756,-0.1264,0.3000,0.2621,-7.35,-14.25,-15.90,1.1540,0.0000,1.6630,0.8440,2.3660,0,0.0213,-0.0607,0.0000,0.0274,-0.1407,0
15406,0.0627,-0.1827,0.3235,-0.0031,0.0065,-0.0022,0.27,-0.00,0.51,0,3.120,-1.470,0.367,-0.258,0.004,-0.014,1.003,0.000,0.000,0.000,0.3240,-1,0,-0.31,0.51,-3.00,0.0093,-0.1694,0.3257,0.2748,-0.1227,0.3000,0.2605,-7.56,-14.21,-15.21,1.1540,0.0000,1.6620,0.8460,2.3720,0,0.0213,-0.0607,0.0000,0.0274,-0.1407,0
15457,0.0625,-0.1849,0.3247,-0.0032,-0.0008,0.0049,0.17,0.04,0.50,0,3.114,-2.772,-0.869,0.151,0.007,-0.012,0.999,0.000,0.000,0.000,0.3270,0,0,-0.40,0.48,-3.00,0.0092,-0.1669,0.3257,0.2739,-0.1190,0.3000,0.2595,-8.34,-14.18,-15.08,1.1460,0.0000,1.6620,0.8460,2.3720,0,0.0213,-0.0607,0.0000,0.0274,-0.1407,0
15508,0.0622,-0.1836,0.3246,-0.0039,0.0007,0.0040,0.12,0.05,0.51,0,3.120,-1.485,0.190,-0.493,0.007,-0.012,1.002,0.000,0.000,0.000,0.3240,1,0,-0.54,0.53,-2.99,0.0082,-0.1663,0.3265,0.2729,-0.1152,0.3000,0.2596,-8.41,-14.11,-15.18,1.1460,0.0000,1.6590,0.8420,2.3650,0,0.0213,-0.0607,0.0000,0.0274,-0.1407,0
15560,0.0620,-0.1864,0.3260,-0.0043,-0.0061,0.0102,0.05,0.04,0.50,0,3.114,1.506,1.703,-1.903,0.005,-0.013,1.001,0.000,0.000,0.000,0.3230,2,0,-0.58,0.50,-3.06,0.0096,-0.1713,0.3262,0.2719,-0.1115,0.3000,0.2587,-9.21,-14.08,-14.88,1.1450,0.0000,1.6590,0.8420,2.3650,0,0.0213,-0.0607,0.0000,0.0274,-0.1407,0
15611,0.0622,-0.1861,0.3254,-0.0036,-0.0050,0.0055,-0.01,-0.02,0.45,0,3.114,-3.427,0.604,-0.880,0.008,-0.016,1.000,0.000,0.000,0.000,0.3260,0,0,-0.48,0.41,-3.19,0.0091,-0.1760,0.3255,0.2708,-0.1078,0.3000,0.2593,-9.36,-13.87,-13.64,1.1450,0.0000,1.6640,0.8450,2.3690,0,0.0213,-0.0607,0.0000,0.0274,-0.1407,0
15662,0.0625,-0.1893,0.3245,-0.0023,-0.0107,0.0014,-0.19,-0.07,0.42,0,3.109,-0.458,-2.386,-0.568,0.007,-0.009,0.999,0.000,0.000,0.000,0.3270,-1,2,-0.65,0.38,-3.24,0.0085,-0.1775,0.3260,0.2697,-0.1042,0.3000,0.2599,-10.06,-13.64,-12.58,1.1390,0.0000,1.6640,0.8450,2.3690,0,0.0213,-0.0607,0.0000,0.0274,-0.1407,0
15713,0.0625,-0.1897,0.3253,-0.0019,-0.0093,0.0054,-0.29,0.00,0.40,0,3.120,3.111,-0.772,-1.229,0.003,-0.011,1.000,0.000,0.000,0.000,0.3260,0,-1,-0.72,0.54,-3.21,0.0021,-0.1713,0.3267,0.2685,-0.1005,0.3000,0.2593,-10.27,-13.53,-11.89,1.1390,0.0000,1.6650,0.8390,2.3650,0,0.0213,-0.0607,0.0000,0.0274,-0.1407,0
15764,0.0619,-0.1876,0.3265,-0.0030,-0.0010,0.0089,-0.22,0.04,0.36,0,3.114,-0.309,-0.524,-0.009,0.005,-0.007,1.000,0.000,0.000,0.000,0.3260,0,-1,-0.56,0.56,-3.28,0.0034,-0.1714,0.3269,0.2673,-0.0969,0.3000,0.2587,-10.00,-13.52,-10.69,1.1400,0.0000,1.6650,0.8390,2.3650,0,0.0213,-0.0607,0.0000,0.0274,-0.1407,0
15815,0.0633,-0.1891,0.3267,-0.0003,-0.0024,0.0070,-0.25,0.02,0.32,0,3.114,-4.926,-0.599,-1.965,0.006,-0.013,1.000,0.000,0.000,0.000,0.3270,1,0,-0.58,0.56,-3.28,0.0052,-0.1715,0.3270,0.2660,-0.0933,0.3000,0.2589,-10.40,-13.17,-9.73,1.1400,0.0000,1.6680,0.8370,2.3730,0,0.0213,-0.0607,0.0000,0.0274,-0.1407,0
15866,0.0643,-0.1871,0.3266,0.0017,0.0042,0.0042,-0.37,0.04,0.27,0,3.109,2.868,-0.564,-1.140,0.006,-0.012,0.996,0.000,0.000,0.000,0.3240,0,-1,-0.81,0.59,-3.40,0.0048,-0.1739,0.3273,0.2646,-0.0897,0.3000,0.2592,-10.17,-12.85,-7.99,1.1350,0.0000,1.6680,0.8370,2.3730,0,0.0213,-0.0607,0.0000,0.0274,-0.1407,0
15917,0.0644,-0.1886,0.3270,0.0013,0.0038,0.0024,-0.32,0.03,0.21,0,3.114,1.715,-0.558,-0.033,0.003,-0.012,0.996,0.000,0.000,0.000,0.3280,-4,0,-0.67,0.60,-3.46,0.0072,-0.1742,0.3265,0.2632,-0.0861,0.3000,0.2593,-10.51,-12.72,-6.17,1.1350,0.0000,1.6700,0.8380,2.3670,0,0.0213,-0.0607,0.0000,0.0274,-0.1407,0
15968,0.0665,-0.1883,0.3255,0.0050,0.0062,-0.0058,-0.19,0.06,0.15,0,3.109,-4.844,-0.423,-2.440,0.002,-0.012,1.000,0.000,0.000,0.000,0.3220,-16,2,-0.65,0.63,-3.40,0.0078,-0.1636,0.3269,0.2617,-0.0826,0.3000,0.2605,-10.56,-12.21,-4.65,1.1270,0.0000,1.6700,0.8380,2.3670,0,0.0213,-0.0607,0.0000,0.0274,-0.1407,0
16020,0.0686,-0.1919,0.3264,0.0082,-0.0008,-0.0026,-0.36,0.08,0.05,0,3.109,-0.775,-1.342,-1.355,0.008,-0.012,1.002,0.000,0.000,0.000,0.3220,-2,0,-1.17,0.68,-3.27,0.0053,-0.1179,0.3241,0.2602,-0.0790,0.3000,0.2600,-11.38,-11.80,-1.54,1.1270,0.0000,1.6670,0.8380,2.3740,0,0.0213,-0.0607,0.0000,0.0274,-0.1407,0
16072,0.0706,-0.2005,0.3240,0.0110,-0.0174,-0.0136,-0.20,0.08,-0.05,0,3.104,-0.093,-1.472,-3.502,0.003,-0.011,1.002,0.000,0.000,0.000,0.3260,-1,0,-1.19,0.74,-3.36,0.0055,-0.1112,0.3235,0.2586,-0.0755,0.3000,0.2616,-12.86,-11.30,1.65,1.1170,0.0000,1.6670,0.8380,2.3740,0,0.0213,-0.0607,0.0000,0.0274,-0.1407,0
16123,0.0714,-0.1982,0.3223,0.0108,-0.0095,-0.0165,-0.25,0.11,-0.20,0,3.109,-1.702,-1.043,-4.110,0.005,-0.012,1.006,0.000,0.000,0.000,0.3260,-2,0,-1.16,0.81,-3.57,0.0056,-0.1075,0.3245,0.2570,-0.0720,0.3000,0.2622,-12.53,-11.08,6.14,1.1170,0.0000,1.6760,0.8360,2.3730,0,0.0213,-0.0607,0.0000,0.0274,-0.1407,0
16174,0.0708,-0.1949,0.3234,0.0075,0.0004,-0.0063,-0.39,0.20,-0.35,0,3.109,1.038,0.284,-2.528,0.005,-0.016,1.006,0.000,0.000,0.000,0.3220,-1,0,-1.23,0.86,-3.79,0.0058,-0.1007,0.3252,0.2553,-0.0686,0.3000,0.2609,-12.13,-11.17,10.40,1.1150,0.0000,1.6760,0.8360,2.3730,0,0.0213,-0.0607,0.0000,0.0274,-0.1407,0
16225,0.0715,-0.1961,0.3245,0.0066,0.0007,0.0020,-0.29,0.21,-0.48,0,3.114,0.071,2.555,-3.628,0.006,-0.014,1.003,0.000,0.000,0.000,0.3200,0,1,-1.14,0.84,-3.95,0.0060,-0.0973,0.3248,0.2536,-0.0652,0.3000,0.2598,-12.46,-11.04,14.34,1.1150,0.0000,1.6760,0.8380,2.3740,0,0.0213,-0.0607,0.0000,0.0274,-0.1407,0
16276,0.0731,-0.1969,0.3234,0.0081,0.0007,-0.0015,-0.19,0.13,-0.61,0,3.109,1.828,0.086,-2.184,0.001,-0.013,1.002,0.000,0.000,0.000,0.3200,-10,1,-1.09,0.73,-4.20,0.0028,-0.0970,0.3239,0.2518,-0.0618,0.3000,0.2604,-12.68,-10.67,18.42,1.1040,0.0000,1.6760,0.8380,2.3740,0,0.0213,-0.0607,0.0000,0.0274,-0.1407,0
16327,0.0742,-0.2001,0.3216,0.0086,-0.0048,-0.0063,-0.20,0.11,-0.72,0,3.114,2.600,-2.072,-2.693,0.003,-0.015,1.007,0.000,0.000,0.000,0.3220,0,0,-1.14,0.73,-4.14,0.0021,-0.0653,0.3218,0.2500,-0.0585,0.3000,0.2612,-13.32,-10.37,21.52,1.1040,0.0000,1.6740,0.8390,2.3660,0,0.0213,-0.0607,0.0000,0.0274,-0.1407,0
16378,0.0744,-0.1950,0.3205,0.0071,0.0066,-0.0078,-0.04,0.13,-0.84,0,3.114,-0.725,0.791,-1.822,0.005,-0.019,1.002,0.000,0.000,0.000,0.3240,0,0,-1.01,0.83,-4.27,0.0003,-0.0539,0.3218,0.2481,-0.0551,0.3000,0.2616,-12.63,-10.24,25.22,1.1010,0.0000,1.6740,0.8390,2.3660,0,0.0213,-0.0607,0.0000,0.0274,-0.1407,0
16429,0.0756,-0.1947,0.3210,0.0083,0.0069,-0.0020,-0.04,0.13,-0.94,0,3.120,-0.365,-1.541,-2.333,0.004,-0.014,1.003,0.000,0.000,0.000,0.3220,0,0,-1.04,0.80,-4.37,-0.0017,-0.0426,0.3225,0.2461,-0.0518,0.3000,0.2609,-12.84,-9.96,28.24,1.1010,0.0000,1.6730,0.8390,2.3740,0,0.0213,-0.0607,0.0000,0.0274,-0.1407,0
16480,0.0771,-0.1944,0.3225,0.0096,0.0070,0.0067,-0.07,0.16,-1.06,0,3.120,1.513,-0.046,-2.654,0.003,-0.009,1.001,0.000,0.000,0.000,0.3220,0,0,-1.06,0.88,-4.49,-0.0040,-0.0311,0.3225,0.2442,-0.0485,0.3000,0.2597,-13.07,-9.66,31.87,1.1030,0.0000,1.6730,0.8390,2.3740,0,0.0213,-0.0607,0.0000,0.0274,-0.1407,0
16531,0.0786,-0.1997,0.3226,0.0106,-0.0044,0.0072,0.04,0.16,-1.20,0,3.120,-3.993,0.547,-4.126,0.002,-0.012,1.002,0.000,0.000,0.000,0.3190,-1,1,-0.98,0.88,-4.62,-0.0066,-0.0194,0.3226,0.2421,-0.0453,0.3000,0.2596,-14.14,-9.32,36.07,1.1030,0.0000,1.6750,0.8420,2.3730,0,0.0213,-0.0607,0.0000,0.0274,-0.1407,0
16582,0.0801,-0.1962,0.3226,0.0113,0.0026,0.0059,-0.12,0.12,-1.40,0,3.114,-1.458,-1.629,-4.781,0.004,-0.011,1.000,0.000,0.000,0.000,0.3220,-1,0,-0.86,0.77,-5.17,0.0044,-0.0747,0.3258,0.2400,-0.0421,0.3000,0.2597,-13.76,-9.00,42.09,1.0950,0.0000,1.6750,0.8420,2.3730,0,0.0213,-0.0607,0.0000,0.0274,-0.1407,0
16633,0.0792,-0.1939,0.3210,0.0074,0.0080,-0.0023,-0.21,0.21,-1.61,0,3.120,3.130,-0.687,-4.305,-0.001,-0.010,0.998,0.000,0.000,0.000,0.3200,-12,1,-0.93,0.85,-5.41,0.0038,-0.0726,0.3254,0.2379,-0.0389,0.3000,0.2609,-13.50,-9.01,48.35,1.0950,0.0000,1.6730,0.8470,2.3710,0,0.0213,-0.0607,0.0000,0.0274,-0.1407,0
16684,0.0790,-0.1940,0.3214,0.0047,0.0085,-0.0001,-0.19,0.21,-1.83,0,3.114,3.407,-0.352,-2.864,0.004,-0.014,0.996,0.000,0.000,0.000,0.3210,0,0,-0.88,0.89,-5.49,0.0030,-0.0576,0.3261,0.2357,-0.0358,0.3000,0.2606,-13.68,-8.97,54.80,1.0940,0.0000,1.6730,0.8470,2.3710,0,0.0213,-0.0607,0.0000,0.0274,-0.1407,0
16736,0.0784,-0.1800,0.3207,0.0015,0.0360,-0.0043,0.11,0.19,-2.02,0,3.114,4.686,-2.408,-1.443,0.003,-0.018,1.002,0.000,0.000,0.000,0.3190,-2,0,-0.70,0.91,-5.64,0.0016,-0.0522,0.3248,0.2334,-0.0326,0.3000,0.2612,-11.64,-8.94,60.46,1.0940,0.0000,1.6720,0.8530,2.3740,0,0.0213,-0.0607,0.0000,0.0274,-0.1407,0
16788,0.0782,-0.1781,0.3206,-0.0008,0.0352,-0.0041,0.52,0.28,-2.09,0,3.109,0.279,-0.783,-0.344,0.002,-0.009,0.997,0.000,0.000,0.000,0.3250,-2,0,-0.43,1.01,-5.74,0.0031,-0.0505,0.3233,0.2311,-0.0294,0.3000,0.2612,-11.74,-8.86,62.62,1.0900,0.0000,1.6720,0.8530,2.3740,0,0.0213,-0.0607,0.0000,0.0274,-0.1407,0
16841,0.0785,-0.1741,0.3196,-0.0025,0.0356,-0.0072,0.57,0.38,-2.10,0,3.114,1.174,2.037,-1.291,0.007,-0.012,1.001,0.000,0.000,0.000,0.3210,-1,0,-0.42,1.04,-5.74,0.0026,-0.0449,0.3237,0.2287,-0.0263,0.3000,0.2617,-11.60,-8.70,62.88,1.0900,0.0000,1.6730,0.8480,2.3710,0,0.0213,-0.0607,0.0000,0.0274,-0.1407,0
16892,0.0787,-0.1772,0.3220,-0.0050,0.0204,0.0047,0.66,0.26,-2.11,0,3.109,-4.210,1.751,-1.952,0.006,-0.003,0.992,0.000,0.000,0.000,0.3190,4,0,-0.35,0.93,-5.83,0.0022,-0.0412,0.3229,0.2264,-0.0233,0.3000,0.2600,-12.75,-8.65,63.34,1.0920,0.0000,1.6730,0.8480,2.3710,0,0.0213,-0.0607,0.0000,0.0274,-0.1407,0
16943,0.0788,-0.1792,0.3217,-0.0067,0.0086,0.0018,0.64,0.13,-2.20,0,3.109,-7.001,0.448,-2.571,0.002,-0.014,1.001,0.000,0.000,0.000,0.3190,1,0,-0.48,0.83,-6.05,0.0010,-0.0471,0.3218,0.2239,-0.0204,0.3000,0.2603,-13.57,-8.51,65.93,1.0920,0.0000,1.6740,0.8470,2.3740,0,0.0213,-0.0607,0.0000,0.0274,-0.1407,0
16994,0.0771,-0.1937,0.3204,-0.0105,-0.0272,-0.0054,0.38,0.09,-2.30,0,3.104,-8.668,9.065,-2.600,0.000,-0.017,1.001,0.000,0.000,0.000,0.3230,8,0,-0.81,0.80,-6.22,0.0002,-0.0486,0.3206,0.2215,-0.0174,0.3000,0.2614,-16.23,-8.56,69.10,1.0870,0.0000,1.6740,0.8470,2.3740,0,0.0213,-0.0607,0.0000,0.0274,-0.1407,0
17045,0.0765,-0.1922,0.3194,-0.0116,-0.0241,-0.0080,-0.06,-0.46,-2.42,0,3.114,-14.491,82.303,-3.332,0.002,-0.011,1.000,0.000,0.000,0.000,0.3220,0,12,-1.11,0.33,-6.56,-0.0021,-0.0663,0.3211,0.2190,-0.0145,0.3000,0.2618,-16.13,-8.43,72.45,1.0870,0.0000,1.6780,0.8500,2.3690,0,0.0213,-0.0607,0.0000,0.0274,-0.1407,0
17096,0.0784,-0.1924,0.3209,-0.0012,-0.0205,-0.0009,-0.85,-3.96,-2.59,0,3.109,-8.810,53.440,-3.585,0.010,-0.006,1.000,0.000,0.000,0.000,0.3270,4,1,-1.88,-3.67,-6.79,-0.0314,-0.0636,0.3226,0.2164,-0.0117,0.3000,0.2608,-16.19,-7.62,77.58,1.0560,0.0000,1.6780,0.8500,2.3690,0,0.0213,-0.0607,0.0000,0.0274,-0.1407,0
17147,0.0736,-0.1937,0.3215,0.0212,-0.0156,0.0019,-1.25,-6.90,-2.80,0,3.114,-0.338,3.078,-1.307,0.003,-0.011,0.995,0.000,0.000,0.000,0.3300,-4,-1,-2.28,-6.40,-7.01,-0.0366,-0.0736,0.3239,0.2138,-0.0089,0.3000,0.2604,-16.24,-6.71,83.99,1.0560,0.0000,1.6810,0.8450,2.3830,0,0.0213,-0.0607,0.0000,0.0274,-0.1407,0
17198,0.0763,-0.1977,0.3242,0.0799,-0.0148,0.0097,-1.34,-7.30,-2.90,0,3.120,1.293,0.981,-0.214,-0.001,-0.007,0.989,0.000,0.000,0.000,0.3300,0,-1,-2.43,-6.58,-7.38,-0.0331,-0.0640,0.3257,0.2112,-0.0061,0.3000,0.2590,-16.70,-3.54,86.94,1.0440,0.0000,1.6810,0.8450,2.3830,0,0.0213,-0.0607,0.0000,0.0274,-0.1407,0
17250,0.0835,-0.1978,0.3274,0.1459,-0.0069,0.0138,-1.31,-7.37,-2.88,0,3.125,7.046,-6.117,2.222,-0.005,-0.009,0.986,0.000,0.000,0.000,0.3270,-3,-3,-2.36,-6.64,-7.36,-0.0301,-0.0643,0.3265,0.2085,-0.0033,0.3000,0.2580,-16.57,0.35,86.30,1.0440,0.0000,1.6840,0.8500,2.4060,0,0.0213,-0.0607,0.0000,0.0274,-0.1407,0
17301,0.0906,-0.1911,0.3291,0.2057,0.0161,0.0091,-1.09,-7.12,-2.84,0,3.114,10.162,-26.037,3.991,-0.004,-0.010,0.981,0.000,0.000,0.000,0.3240,0,-10,-2.07,-6.35,-7.55,-0.0198,-0.0567,0.3253,0.2057,-0.0006,0.3000,0.2581,-15.24,3.96,85.08,1.0240,0.0000,1.6840,0.8500,2.4060,0,0.0213,-0.0607,0.0000,0.0274,-0.1407,0
17352,0.0992,-0.1802,0.3282,0.2581,0.0456,-0.0070,-0.71,-5.93,-2.65,0,3.109,10.627,-29.647,5.914,-0.008,-0.013,0.981,0.000,0.000,0.000,0.3210,-21,-2,-1.46,-5.17,-6.85,0.0097,-0.0599,0.3212,0.2030,0.0020,0.3000,0.2601,-13.23,7.23,79.61,1.0240,0.0000,1.6830,0.8550,2.4020,0,0.0213,-0.0607,0.0000,0.0274,-0.1407,0
17403,0.1171,-0.1770,0.3254,0.3164,0.0517,-0.0282,-0.43,-4.35,-2.49,0,3.099,16.865,-34.255,8.045,-0.005,-0.017,0.988,0.000,0.000,0.000,0.3130,-11,-10,-1.55,-3.57,-10.20,0.0277,-0.0000,0.3181,0.2002,0.0046,0.3000,0.2629,-12.73,11.28,74.80,1.0070,0.0000,1.6830,0.8550,2.4020,0,0.0213,-0.0607,0.0000,0.0274,-0.1407,0
17454,0.1285,-0.1437,0.3216,0.3421,0.1234,-0.0468,0.13,-2.72,-2.27,0,3.088,38.177,-31.392,7.872,-0.008,-0.014,1.002,0.000,0.000,0.000,0.3080,-11,-4,-0.83,-1.93,-10.68,0.0641,0.0283,0.3088,0.1973,0.0072,0.3000,0.2656,-7.26,13.30,68.03,1.0070,0.0000,1.6830,0.8600,2.3960,0,0.0213,-0.0607,0.0000,0.0274,-0.1407,0
17505,0.1486,-0.1428,0.3150,0.3714,0.1074,-0.0675,2.00,-1.14,-1.86,0,3.077,25.762,-27.556,6.056,-0.010,-0.021,1.009,0.000,0.000,0.000,0.3100,1,-6,1.01,-0.30,-11.14,0.0826,0.0584,0.3031,0.1944,0.0097,0.3000,0.2691,-7.96,15.91,55.79,0.9930,0.0000,1.6830,0.8600,2.3960,0,0.0213,-0.0607,0.0000,0.0274,-0.1407,0
17556,0.1640,-0.1291,0.3085,0.3738,0.1111,-0.0784,3.31,0.29,-1.65,0,3.083,2.642,-26.139,4.922,-0.006,-0.015,1.025,0.000,0.000,0.000,0.3070,1,-10,2.46,1.14,-9.88,0.1005,0.0538,0.3044,0.1915,0.0122,0.3000,0.2715,-6.92,17.06,49.61,0.9930,0.0000,1.6810,0.8500,2.3980,0,0.0213,-0.0607,0.0000,0.0274,-0.1407,0
17607,0.1784,-0.1156,0.3056,0.3602,0.1042,-0.0672,3.47,1.48,-1.53,0,3.083,19.091,-15.297,5.330,-0.002,-0.007,1.026,0.000,0.000,0.000,0.3050,-8,-3,2.67,2.42,-9.20,0.1305,0.0466,0.3026,0.1886,0.0146,0.3000,0.2708,-6.46,17.64,45.75,0.9680,0.0000,1.6810,0.8500,2.3980,0,0.0213,-0.0607,0.0000,0.0274,-0.1407,0
17658,0.1966,-0.1125,0.3036,0.3472,0.0703,-0.0500,4.20,2.36,-1.32,0,3.083,5.976,-13.050,4.066,-0.005,-0.013,1.032,0.000,0.000,0.000,0.3020,-7,-7,3.56,3.26,-9.16,0.1437,0.0696,0.3020,0.1856,0.0170,0.3000,0.2693,-7.94,18.54,39.73,0.9680,0.0000,1.6890,0.8440,2.4010,0,0.0213,-0.0607,0.0000,0.0274,-0.1407,0
17710,0.2090,-0.0972,0.3021,0.3141,0.0636,-0.0341,4.49,3.01,-1.16,0,3.083,5.916,-6.395,2.346,-0.008,-0.006,1.028,0.000,0.000,0.000,0.3030,-1,-4,3.80,3.88,-9.23,0.1691,0.0875,0.3002,0.1825,0.0194,0.3000,0.2679,-7.37,18.25,34.77,0.9360,0.0000,1.6890,0.8440,2.4010,0,0.0213,-0.0607,0.0000,0.0274,-0.1407,0
17761,0.2228,-0.0977,0.3009,0.2833,0.0168,-0.0201,4.82,3.40,-1.07,0,3.088,0.194,-3.532,0.938,-0.007,-0.007,1.029,0.000,0.000,0.000,0.3000,-5,-1,4.14,4.24,-9.09,0.1813,0.0882,0.3008,0.1794,0.0216,0.3000,0.2666,-9.68,18.13,31.95,0.9360,0.0000,1.7030,0.8220,2.4120,0,0.0213,-0.0607,0.0000,0.0274,-0.1407,0
17812,0.2318,-0.0733,0.3014,0.2413,0.0400,-0.0025,4.51,3.65,-1.00,0,3.093,8.930,1.573,1.150,-0.002,-0.005,1.026,0.000,0.000,0.000,0.3040,-12,0,4.07,4.51,-8.63,0.1850,0.1044,0.3009,0.1763,0.0239,0.3000,0.2646,-7.12,17.28,29.93,0.8950,0.0000,1.7030,0.8220,2.4120,0,0.0213,-0.0607,0.0000,0.0274,-0.1407,0
17863,0.2386,-0.0678,0.3009,0.1965,0.0131,0.0066,4.64,3.69,-0.89,0,3.099,4.212,4.650,2.731,-0.002,-0.002,1.017,0.000,0.000,0.000,0.3010,10,-3,4.26,4.57,-7.58,0.1876,0.1447,0.3023,0.1732,0.0261,0.3000,0.2637,-8.11,16.07,26.61,0.8950,0.0000,1.7280,0.7910,2.4190,0,0.0213,-0.0607,0.0000,0.0274,-0.1407,0
17914,0.2475,-0.0788,0.3030,0.1641,-0.0582,0.0200,5.33,3.50,-0.89,0,3.099,-19.473,10.022,2.408,-0.001,-0.003,1.010,0.000,0.000,0.000,0.2990,0,0,4.82,4.18,-8.84,0.1963,0.1070,0.3052,0.1700,0.0282,0.3000,0.2619,-12.30,15.58,26.72,0.8550,0.0000,1.7280,0.7910,2.4190,0,0.0213,-0.0607,0.0000,0.0274,-0.1407,0
17965,0.2548,-0.0945,0.3028,0.1332,-0.1339,0.0178,4.90,3.09,-0.78,0,3.099,-40.446,7.300,1.615,-0.000,0.003,1.014,0.000,0.000,0.000,0.3010,10,0,3.81,3.68,-8.68,0.1996,0.1068,0.3045,0.1668,0.0303,0.3000,0.2622,-16.77,14.93,23.27,0.8550,0.0000,1.7590,0.7480,2.4160,0,0.0213,-0.0607,0.0000,0.0274,-0.1407,0
18016,0.2593,-0.0947,0.3019,0.1025,-0.1529,0.0134,3.00,2.74,-0.62,0,3.104,-20.987,14.083,0.298,-0.005,0.012,1.014,0.000,0.000,0.000,0.2930,4,1,2.04,3.28,-9.69,0.1920,0.0614,0.3033,0.1636,0.0324,0.3000,0.2628,-17.65,14.08,18.59,0.8320,0.0000,1.7590,0.7480,2.4160,0,0.0213,-0.0607,0.0000,0.0274,-0.1407,0
18067,0.2623,-0.1073,0.3022,0.0750,-0.1871,0.0176,1.46,2.06,-0.55,0,3.099,-18.627,14.033,0.731,0.002,0.003,1.014,0.000,0.000,0.000,0.2950,13,1,0.99,2.57,-9.65,0.1876,0.0507,0.3011,0.1603,0.0344,0.3000,0.2623,-20.01,13.32,16.46,0.8320,0.0000,1.7970,0.6850,2.4040,0,0.0213,-0.0607,0.0000,0.1903,0.0600,0
18118,0.2647,-0.1176,0.2987,0.0537,-0.2018,0.0064,0.82,1.47,-0.54,0,3.099,-24.559,7.068,3.516,-0.001,0.005,1.021,0.000,0.000,0.000,0.2940,10,0,0.22,1.85,-10.46,0.1812,0.0152,0.2976,0.1570,0.0363,0.3000,0.2642,-21.20,12.69,16.22,0.8160,0.0000,1.7970,0.6850,2.4040,0,0.0213,-0.0607,0.0000,0.1903,0.0600,0
18169,0.2663,-0.1366,0.2971,0.0395,-0.2303,0.0060,-0.24,1.03,-0.44,0,3.104,-26.923,6.174,5.680,-0.001,0.009,1.020,0.000,0.000,0.000,0.2970,5,0,-0.94,1.47,-10.83,0.1772,-0.0132,0.2957,0.1537,0.0382,0.3000,0.2645,-23.53,12.39,13.29,0.8160,0.0000,1.8380,0.6250,2.3960,0,0.0213,-0.0607,0.0000,0.1903,0.0600,0
18221,0.2688,-0.1534,0.2960,0.0330,-0.2403,0.0096,-1.50,0.75,-0.24,0,3.104,-27.900,8.322,6.369,0.002,0.008,1.022,0.000,0.000,0.000,0.2980,13,0,-2.33,1.13,-10.58,0.1740,-0.0283,0.2976,0.1503,0.0401,0.3000,0.2643,-24.98,12.54,7.10,0.8130,0.0000,1.8380,0.6250,2.3960,0,0.0213,-0.0607,0.0000,0.1903,0.0600,0
18273,0.2709,-0.1669,0.2972,0.0289,-0.2285,0.0220,-2.79,0.30,0.05,0,3.104,-13.775,2.262,5.814,0.001,0.005,1.023,0.000,0.000,0.000,0.3000,2,-1,-3.64,0.69,-10.91,0.1683,-0.0660,0.2977,0.1468,0.0419,0.3000,0.2628,-25.00,12.82,-1.55,0.8130,0.0000,1.8870,0.5630,2.3990,0,0.0213,-0.0607,0.0000,0.1903,0.0600,0
18325,0.2713,-0.1825,0.2989,0.0240,-0.2150,0.0332,-3.68,0.12,0.37,0,3.114,-4.970,4.179,7.159,0.005,-0.002,1.010,0.000,0.000,0.000,0.3040,2,0,-4.43,0.50,-10.38,0.1690,-0.0725,0.3020,0.1434,0.0437,0.3000,0.2612,-25.00,12.95,-10.99,0.8040,0.0000,1.8870,0.5630,2.3990,0,0.0213,-0.0607,0.0000,0.1903,0.0600,0
18376,0.2735,-0.1935,0.3011,0.0259,-0.1857,0.0411,-3.94,-0.00,0.70,0,3.120,-7.909,0.431,6.923,-0.000,-0.002,1.001,0.000,0.000,0.000,0.3110,-2,0,-4.74,0.23,-9.88,0.1675,-0.0783,0.3056,0.1400,0.0454,0.3000,0.2600,-25.00,13.50,-20.98,0.8040,0.0000,1.9180,0.5240,2.3980,0,0.0213,-0.0607,0.0000,0.1903,0.0600,0
18427,0.2741,-0.1937,0.3047,0.0237,-0.1282,0.0490,-4.41,-0.10,1.09,0,3.125,2.622,-1.015,4.731,0.003,-0.001,0.999,0.000,0.000,0.000,0.3150,-6,0,-5.23,0.15,-9.29,0.1676,-0.0732,0.3101,0.1365,0.0470,0.3000,0.2584,-23.68,13.78,-32.66,0.7990,0.0000,1.9180,0.5240,2.3980,0,0.0213,-0.0607,0.0000,0.1903,0.0600,0
18478,0.2747,-0.1940,0.3102,0.0221,-0.0762,0.0610,-4.50,-0.12,1.39,0,3.135,22.337,-0.943,2.741,0.002,-0.001,0.989,0.000,0.000,0.000,0.3110,-1,-1,-5.23,0.15,-8.76,0.1698,-0.0561,0.3136,0.1330,0.0486,0.3000,0.2561,-21.81,14.12,-41.61,0.7990,0.0000,1.9470,0.4920,2.3910,0,0.0213,-0.0607,0.0000,0.1903,0.0600,0
18529,0.2782,-0.2116,0.3156,0.0296,-0.0831,0.0673,-3.33,-0.17,1.48,0,3.130,11.457,-6.909,1.725,-0.001,-0.009,0.974,0.000,0.000,0.000,0.3100,8,-1,-4.10,0.15,-8.47,0.1730,-0.0529,0.3152,0.1295,0.0501,0.3000,0.2544,-23.38,15.06,-44.41,0.7950,0.0000,1.9470,0.4920,2.3910,0,0.0213,-0.0607,0.0000,0.1903,0.0600,0
18580,0.2809,-0.2192,0.3160,0.0333,-0.0681,0.0453,-2.46,0.06,1.58,0,3.125,-14.728,-3.747,1.103,0.005,-0.006,0.983,0.000,0.000,0.000,0.3180,5,-1,-3.36,0.47,-8.41,0.1722,-0.0767,0.3172,0.1259,0.0516,0.3000,0.2567,-23.10,15.54,-47.35,0.7950,0.0000,1.9660,0.4680,2.3860,0,0.0213,-0.0607,0.0000,0.1903,0.0600,0
18631,0.2832,-0.2261,0.3149,0.0334,-0.0568,0.0211,-2.88,0.32,1.66,0,3.125,-3.196,1.043,-0.138,0.002,-0.004,0.983,0.000,0.000,0.000,0.3200,0,0,-4.02,0.64,-8.32,0.1729,-0.0915,0.3190,0.1224,0.0530,0.3000,0.2595,-22.88,15.79,-49.76,0.7930,0.0000,1.9660,0.4680,2.3860,0,0.0213,-0.0607,0.0000,0.1903,0.0600,0
18683,0.2872,-0.2404,0.3173,0.0364,-0.0639,0.0209,-3.22,0.35,1.67,0,3.125,-5.629,-2.232,-0.391,0.005,-0.006,0.981,0.000,0.000,0.000,0.3200,-3,-1,-4.18,0.58,-8.33,0.1729,-0.0928,0.3202,0.1188,0.0544,0.3000,0.2591,-24.10,16.47,-50.21,0.7930,0.0000,1.9900,0.4440,2.3730,0,0.0213,-0.0607,0.0000,0.1903,0.0600,0
18734,0.2911,-0.2480,0.3195,0.0385,-0.0517,0.0168,-3.34,0.42,1.69,0,3.125,-10.175,-3.172,0.325,0.003,-0.007,0.980,0.000,0.000,0.000,0.3220,8,-3,-4.55,0.66,-8.14,0.1788,-0.0804,0.3201,0.1152,0.0557,0.3000,0.2591,-24.11,17.06,-50.71,0.7850,0.0000,1.9900,0.4440,2.3730,0,0.0213,-0.0607,0.0000,0.1903,0.0600,0
18785,0.2935,-0.2496,0.3203,0.0356,-0.0228,0.0081,-3.67,0.56,1.69,0,3.125,-0.019,-6.082,1.153,0.003,0.002,0.992,0.000,0.000,0.000,0.3270,5,0,-4.93,0.77,-7.95,0.1831,-0.0980,0.3223,0.1116,0.0570,0.3000,0.2599,-23.02,17.31,-50.71,0.7850,0.0000,2.0020,0.4280,2.3740,0,0.0213,-0.0607,0.0000,0.1903,0.0600,0
18836,0.2985,-0.2573,0.3214,0.0383,-0.0109,0.0047,-3.74,0.85,1.75,0,3.125,4.552,-7.274,2.297,0.006,-0.015,0.984,0.000,0.000,0.000,0.3250,0,0,-4.85,1.09,-7.99,0.1819,-0.1096,0.3244,0.1079,0.0582,0.3000,0.2601,-23.02,17.99,-52.58,0.7830,0.0000,2.0020,0.4280,2.3740,0,0.0213,-0.0607,0.0000,0.1903,0.0600,0
18887,0.3019,-0.2586,0.3243,0.0343,0.0161,0.0086,-3.58,1.13,1.89,0,3.125,5.443,-2.310,1.200,0.004,-0.013,0.986,0.000,0.000,0.000,0.3210,1,-1,-4.62,1.45,-7.84,0.1832,-0.1080,0.3243,0.1043,0.0593,0.3000,0.2591,-22.11,18.35,-56.77,0.7830,0.0000,2.0150,0.4200,2.3850,0,0.0213,-0.0607,0.0000,0.1903,0.0600,0
18939,0.3045,-0.2576,0.3249,0.0266,0.0439,0.0019,-3.30,1.27,1.98,0,3.120,8.037,0.188,1.392,0.003,-0.011,0.985,0.000,0.000,0.000,0.3210,1,-2,-4.26,1.54,-7.73,0.1850,-0.1175,0.3233,0.1005,0.0604,0.3000,0.2597,-20.87,18.40,-59.43,0.7790,0.0000,2.0150,0.4200,2.3850,0,0.0213,-0.0607,0.0000,0.1903,0.0600,0
18991,0.3066,-0.2578,0.3228,0.0175,0.0634,-0.0144,-2.96,1.27,2.05,0,3.114,11.216,-2.005,-1.403,0.005,-0.014,0.994,0.000,0.000,0.000,0.3220,-2,-1,-3.82,1.49,-7.50,0.1892,-0.1192,0.3216,0.0968,0.0615,0.3000,0.2619,-19.94,18.26,-61.54,0.7790,0.0000,2.0200,0.4190,2.3760,0,0.0213,-0.0607,0.0000,0.1903,0.0600,0
19042,0.3099,-0.2585,0.3210,0.0125,0.0753,-0.0239,-2.33,1.33,2.02,0,3.109,4.735,-6.424,-3.724,0.007,-0.017,0.993,0.000,0.000,0.000,0.3190,0,-1,-3.26,1.58,-7.46,0.1924,-0.1138,0.3204,0.0931,0.0624,0.3000,0.2632,-19.41,18.42,-60.61,0.7740,0.0000,2.0200,0.4190,2.3760,0,0.0213,-0.0607,0.0000,0.1903,0.0600,0
19093,0.3115,-0.2531,0.3203,0.0035,0.0970,-0.0265,-1.98,1.58,1.88,0,3.114,3.326,2.878,-3.703,0.006,-0.021,1.000,0.000,0.000,0.000,0.3180,-7,0,-2.99,1.91,-7.59,0.1950,-0.1130,0.3187,0.0894,0.0634,0.3000,0.2636,-18.15,18.36,-56.36,0.7740,0.0000,2.0170,0.4210,2.3810,0,0.0213,-0.0607,0.0000,0.1903,0.0600,0
19144,0.3134,-0.2511,0.3182,-0.0055,0.1049,-0.0322,-1.78,1.58,1.71,0,3.109,10.800,0.711,-5.454,0.008,-0.018,0.998,0.000,0.000,0.000,0.3100,-7,0,-2.91,1.76,-7.61,0.1976,-0.0939,0.3163,0.0856,0.0642,0.3000,0.2646,-17.63,18.28,-51.38,0.7700,0.0000,2.0170,0.4210,2.3810,0,0.0213,-0.0607,0.0000,0.1903,0.0600,0
19196,0.3136,-0.2459,0.3166,-0.0171,0.1175,-0.0330,-1.25,1.51,1.47,0,3.104,8.082,0.354,-4.780,0.005,-0.022,1.008,0.000,0.000,0.000,0.3090,-1,0,-2.43,1.73,-7.72,0.2003,-0.0736,0.3114,0.0818,0.0650,0.3000,0.2650,-16.75,18.03,-43.98,0.7700,0.0000,2.0130,0.4250,2.3850,0,0.0213,-0.0607,0.0000,0.1903,0.0600,0
19249,0.3133,-0.2396,0.3117,-0.0282,0.1267,-0.0453,-0.76,1.53,1.21,0,3.093,6.778,4.944,-4.695,0.005,-0.015,1.011,0.000,0.000,0.000,0.3080,0,0,-1.95,1.72,-8.04,0.2008,-0.0700,0.3094,0.0780,0.0658,0.3000,0.2673,-15.82,17.67,-36.35,0.7660,0.0000,2.0130,0.4250,2.3850,0,0.0213,-0.0607,0.0000,0.1903,0.0600,0
19300,0.3141,-0.2337,0.3084,-0.0351,0.1312,-0.0453,-0.43,1.31,0.97,0,3.099,6.059,2.308,-3.886,0.006,-0.016,1.018,0.000,0.000,0.000,0.3030,-5,1,-1.58,1.47,-8.30,0.2008,-0.0598,0.3073,0.0742,0.0665,0.3000,0.2679,-15.21,17.63,-29.23,0.7660,0.0000,2.0090,0.4330,2.3910,0,0.0213,-0.0607,0.0000,0.1903,0.0600,0
19351,0.3134,-0.2328,0.3061,-0.0430,0.1201,-0.0387,-0.06,1.16,0.78,0,3.088,8.167,4.137,-2.261,0.007,-0.017,1.013,0.000,0.000,0.000,0.3030,0,2,-1.21,1.34,-8.58,0.2008,-0.0584,0.3054,0.0704,0.0671,0.3000,0.2676,-15.64,17.52,-23.53,0.7650,0.0000,2.0090,0.4330,2.3910,0,0.0213,-0.0607,0.0000,0.1903,0.0600,0
19402,0.3125,-0.2263,0.3030,-0.0490,0.1208,-0.0372,0.31,0.99,0.66,0,3.099,0.641,3.698,-2.138,0.009,-0.017,1.022,0.000,0.000,0.000,0.3030,0,0,-0.75,1.15,-8.83,0.1965,-0.0557,0.3039,0.0666,0.0677,0.3000,0.2681,-15.16,17.44,-19.89,0.7650,0.0000,2.0040,0.4360,2.3910,0,0.0213,-0.0607,0.0000,0.1903,0.0600,0
19453,0.3084,-0.2153,0.3013,-0.0606,0.1304,-0.0296,0.38,0.83,0.57,0,3.099,6.745,4.637,-5.511,0.011,-0.012,1.020,0.000,0.000,0.000,0.2980,0,1,-0.72,0.96,-8.95,0.1946,-0.0478,0.3032,0.0628,0.0682,0.3000,0.2676,-14.04,16.96,-17.09,0.7620,0.0000,2.0040,0.4360,2.3910,0,0.0213,-0.0607,0.0000,0.1903,0.0600,0
19504,0.3064,-0.2143,0.3011,-0.0643,0.1139,-0.0165,0.70,0.61,0.33,0,3.104,3.827,9.650,-6.229,0.013,-0.019,1.014,0.000,0.000,0.000,0.2990,-3,3,-0.25,0.70,-9.39,0.1942,-0.0593,0.3025,0.0590,0.0686,0.3000,0.2662,-14.75,17.01,-9.90,0.7620,0.0000,1.9980,0.4410,2.3980,0,0.0213,-0.0607,0.0000,0.1903,0.0600,0
19556,0.3054,-0.2119,0.2989,-0.0634,0.0997,-0.0145,1.06,0.16,0.05,0,3.099,-8.379,11.384,-7.332,0.006,-0.016,1.021,0.000,0.000,0.000,0.2990,1,2,-0.07,0.24,-9.69,0.1887,-0.0511,0.3018,0.0552,0.0690,0.3000,0.2664,-15.18,17.22,-1.55,0.7570,0.0000,1.9980,0.4410,2.3980,0,0.0213,-0.0607,0.0000,0.1903,0.0600,0
19607,0.3035,-0.2084,0.2986,-0.0603,0.0874,-0.0048,0.77,-0.44,-0.28,0,3.104,-0.418,-0.770,-7.213,0.005,-0.015,1.021,0.000,0.000,0.000,0.2990,-3,0,-0.47,-0.34,-10.11,0.1835,-0.0515,0.3017,0.0514,0.0694,0.3000,0.2654,-15.52,17.54,8.46,0.7570,0.0000,2.0000,0.4450,2.3980,0,0.0213,-0.0607,0.0000,0.1903,0.0600,0
19658,0.3009,-0.2081,0.2989,-0.0554,0.0718,0.0078,0.67,-0.59,-0.65,0,3.099,-0.397,-6.244,-5.037,0.005,-0.010,1.010,0.000,0.000,0.000,0.2990,0,0,-0.53,-0.31,-10.47,0.1840,-0.0441,0.3020,0.0475,0.0696,0.3000,0.2640,-16.22,17.92,19.40,0.7510,0.0000,2.0000,0.4450,2.3980,0,0.0213,-0.0607,0.0000,0.1903,0.0600,0
19709,0.2992,-0.2041,0.2995,-0.0484,0.0665,0.0147,0.68,-0.31,-0.93,0,3.109,-1.558,3.255,-0.632,0.007,-0.012,1.010,0.000,0.000,0.000,0.2990,1,0,-0.55,0.01,-10.73,0.1822,-0.0402,0.3024,0.0437,0.0699,0.3000,0.2631,-16.21,18.42,27.76,0.7510,0.0000,2.0040,0.4530,2.3980,0,0.0213,-0.0607,0.0000,0.1903,0.0600,0
19760,0.2975,-0.2023,0.3001,-0.0442,0.0575,0.0181,0.67,-0.43,-1.02,0,3.109,-2.721,0.498,1.791,0.005,-0.015,1.006,0.000,0.000,0.000,0.2990,7,-1,-0.55,-0.20,-10.76,0.1840,-0.0494,0.3032,0.0399,0.0700,0.3000,0.2626,-16.48,18.76,30.52,0.7610,0.0000,2.0040,0.4530,2.3980,0,0.0213,-0.0607,0.0000,0.1903,0.0600,0
19811,0.2965,-0.2024,0.3005,-0.0376,0.0451,0.0193,0.62,-0.50,-0.97,0,3.109,-5.396,-6.494,2.876,0.004,-0.013,1.011,0.000,0.000,0.000,0.3040,0,0,-0.58,-0.24,-10.62,0.1830,-0.0630,0.3032,0.0361,0.0701,0.3000,0.2624,-16.99,19.23,29.07,0.7610,0.0000,2.0000,0.4550,2.3960,0,0.0213,-0.0607,0.0000,0.1903,0.0600,0
19862,0.2951,-0.2023,0.3008,-0.0330,0.0360,0.0197,0.27,-0.22,-0.84,0,3.114,-3.760,-1.055,2.065,0.005,-0.011,1.000,0.000,0.000,0.000,0.3040,5,0,-0.86,0.09,-10.47,0.1823,-0.0651,0.3051,0.0322,0.0702,0.3000,0.2623,-17.34,19.59,25.09,0.7720,0.0000,2.0000,0.4550,2.3960,0,0.0213,-0.0607,0.0000,0.1903,0.0600,0
19913,0.2935,-0.2005,0.3035,-0.0314,0.0342,0.0297,0.11,-0.10,-0.72,0,3.114,-4.145,-1.382,3.118,0.004,-0.017,1.005,0.000,0.000,0.000,0.3040,-5,1,-0.96,0.14,-10.30,0.1798,-0.0789,0.3060,0.0284,0.0701,0.3000,0.2607,-17.36,19.91,21.54,0.7720,0.0000,1.9930,0.4590,2.3870,0,0.0213,-0.0607,0.0000,0.1903,0.0600,0
19964,0.2931,-0.2020,0.3053,-0.0279,0.0261,0.0316,-0.14,-0.04,-0.58,0,3.109,-6.685,-4.957,4.842,0.006,-0.010,0.990,0.000,0.000,0.000,0.3010,0,0,-1.27,0.22,-10.20,0.1794,-0.0714,0.3081,0.0246,0.0701,0.3000,0.2602,-17.79,20.31,17.50,0.7780,0.0000,1.9930,0.4590,2.3870,0,0.0213,-0.0607,0.0000,0.1903,0.0600,0
20015,0.2907,-0.1962,0.3062,-0.0301,0.0380,0.0270,-0.46,0.13,-0.38,0,3.109,-0.043,-3.428,3.238,0.003,-0.010,0.994,0.000,0.000,0.000,0.3070,0,0,-1.61,0.47,-9.95,0.1788,-0.0730,0.3073,0.0208,0.0699,0.3000,0.2605,-16.82,20.29,11.34,0.7780,0.0000,1.9910,0.4620,2.3890,0,0.0213,-0.0607,0.0000,0.1903,0.0600,0
20066,0.2905,-0.1955,0.3047,-0.0286,0.0388,0.0114,-0.44,0.31,-0.22,0,3.109,-2.481,4.463,-2.284,0.008,-0.010,0.990,0.000,0.000,0.000,0.3070,0,1,-1.61,0.64,-9.78,0.1780,-0.0741,0.3083,0.0169,0.0697,0.3000,0.2625,-16.56,20.43,6.56,0.7810,0.0000,1.9910,0.4620,2.3890,0,0.0213,-0.0607,0.0000,0.1903,0.0600,0
20117,0.2888,-0.1856,0.3064,-0.0314,0.0612,0.0125,-0.65,0.14,-0.28,0,3.109,11.880,1.527,-7.520,0.012,-0.010,1.000,0.000,0.000,0.000,0.3110,2,-1,-1.75,0.42,-9.91,0.1764,-0.0719,0.3086,0.0131,0.0695,0.3000,0.2620,-14.90,20.47,8.48,0.7810,0.0000,1.9810,0.4690,2.3890,0,0.0213,-0.0607,0.0000,0.1903,0.0600,0
20168,0.2884,-0.2058,0.3074,-0.0296,0.0117,0.0147,0.10,-0.03,-0.58,0,3.104,-3.075,-8.928,-9.614,0.009,-0.014,0.988,0.000,0.000,0.000,0.3090,3,0,-1.12,0.34,-10.28,0.1768,-0.0744,0.3101,0.0093,0.0692,0.3000,0.2616,-18.32,20.79,17.47,0.7840,0.0000,1.9810,0.4690,2.3890,0,0.0213,-0.0607,0.0000,0.1903,0.0600,0
20220,0.2885,-0.2022,0.3099,-0.0264,0.0175,0.0187,0.23,0.30,-1.07,0,3.114,-23.742,-2.683,-12.476,0.007,-0.015,0.990,0.000,0.000,0.000,0.3080,4,1,-1.24,0.80,-10.75,0.1757,-0.0790,0.3103,0.0054,0.0688,0.3000,0.2607,-17.83,21.23,32.18,0.7840,0.0000,1.9830,0.4730,2.3870,0,0.0213,-0.0607,0.0000,0.1903,0.0600,0
20271,0.2877,-0.1979,0.3102,-0.0276,0.0254,0.0100,-0.83,0.44,-1.66,0,3.099,0.758,0.783,-12.683,0.004,-0.010,0.988,0.000,0.000,0.000,0.3070,-1,0,-2.41,0.98,-11.39,0.1722,-0.0860,0.3099,0.0016,0.0684,0.3000,0.2616,-17.08,21.31,49.85,0.7910,0.0000,1.9830,0.4730,2.3870,0,0.0213,-0.0607,0.0000,0.1903,0.0600,0
20324,0.2874,-0.2003,0.3094,-0.0282,0.0235,0.0000,-0.92,0.24,-2.33,0,3.109,1.623,-2.105,-11.772,0.004,-0.014,0.988,0.000,0.000,0.000,0.3090,2,0,-2.39,0.96,-12.03,0.1721,-0.0848,0.3088,-0.0023,0.0679,0.3000,0.2628,-17.16,21.40,69.75,0.7910,0.0000,1.9840,0.4820,2.3880,0,0.0213,-0.0607,0.0000,0.1903,0.0600,0
20375,0.2870,-0.1983,0.3080,-0.0277,0.0326,-0.0114,-0.68,0.27,-2.93,0,3.104,-1.861,5.573,-10.152,0.009,-0.014,0.995,0.000,0.000,0.000,0.3070,-9,2,-2.26,1.09,-12.65,0.1707,-0.0891,0.3084,-0.0061,0.0673,0.3000,0.2643,-16.47,21.51,87.83,0.7950,0.0000,1.9840,0.4820,2.3880,0,0.0213,-0.0607,0.0000,0.1903,0.0600,0
20426,0.2866,-0.1984,0.3079,-0.0273,0.0346,-0.0123,-0.79,0.13,-3.47,0,3.104,-2.794,7.580,-8.031,0.008,-0.015,0.992,0.000,0.000,0.000,0.3060,11,0,-2.50,0.85,-13.15,0.1706,-0.0683,0.3069,-0.0099,0.0667,0.3000,0.2644,-16.30,21.72,103.96,0.7950,0.0000,1.9900,0.4940,2.3880,0,0.0213,-0.0607,0.0000,0.1903,0.0600,0
20477,0.2852,-0.1936,0.3068,-0.0278,0.0469,-0.0178,-0.74,-0.21,-3.87,0,3.104,-4.215,10.136,-6.900,0.008,-0.017,0.993,0.000,0.000,0.000,0.3050,-3,0,-2.42,0.47,-13.65,0.1642,-0.0931,0.3083,-0.0137,0.0661,0.3000,0.2652,-15.32,21.78,116.23,0.7880,0.0000,1.9900,0.4940,2.3880,0,0.0213,-0.0607,0.0000,0.1903,0.0600,0
20528,0.2852,-0.2105,0.3055,-0.0227,0.0099,-0.0232,-0.89,-0.61,-4.25,0,3.099,-12.244,-7.146,-7.150,0.009,-0.014,1.001,0.000,0.000,0.000,0.3040,-2,-1,-2.70,-0.04,-13.99,0.1656,-0.0858,0.3065,-0.0174,0.0653,0.3000,0.2661,-17.85,22.14,127.42,0.7880,0.0000,1.9800,0.5140,2.3920,0,0.0213,-0.0607,0.0000,0.1903,0.0600,0
20580,0.2869,-0.2091,0.3042,-0.0109,0.0180,-0.0250,-1.51,-0.53,-4.62,0,3.099,-9.791,-1.837,-10.799,0.007,-0.012,1.002,0.000,0.000,0.000,0.3040,0,0,-3.35,0.32,-14.28,0.1692,-0.0811,0.3046,-0.0212,0.0646,0.3000,0.2665,-17.30,22.90,138.47,0.7890,0.0000,1.9800,0.5140,2.3920,0,0.0213,-0.0607,0.0000,0.1903,0.0600,0
20631,0.2872,-0.2053,0.3030,-0.0040,0.0363,-0.0240,-2.02,-0.30,-5.14,0,3.104,-4.767,5.748,-12.903,0.010,-0.015,1.004,0.000,0.000,0.000,0.3040,-6,0,-3.85,0.45,-14.84,0.1696,-0.0777,0.3032,-0.0250,0.0637,0.3000,0.2666,-16.17,23.39,154.29,0.7890,0.0000,1.9790,0.5350,2.3970,0,0.0213,-0.0607,0.0000,0.1903,0.0600,0
20682,0.2875,-0.2022,0.3024,0.0015,0.0555,-0.0211,-2.42,-0.56,-5.79,0,3.104,-0.234,-6.853,-12.677,0.008,-0.014,1.012,0.000,0.000,0.000,0.3010,-5,0,-4.16,0.19,-15.49,0.1747,-0.0625,0.3015,-0.0287,0.0628,0.3000,0.2664,-15.05,23.85,173.61,0.7850,0.0000,1.9790,0.5350,2.3970,0,0.0213,-0.0607,0.0000,0.1903,0.0600,0
20734,0.2895,-0.1898,0.3023,0.0120,0.0969,-0.0153,-2.58,-0.25,-6.44,0,3.099,8.630,-5.251,-14.170,0.007,-0.007,1.011,0.000,0.000,0.000,0.3020,-1,0,-4.20,0.58,-16.11,0.1783,-0.0498,0.2997,-0.0324,0.0619,0.3000,0.2658,-12.34,24.62,193.24,0.7850,0.0000,1.9640,0.5610,2.3930,0,0.0213,-0.0607,0.0000,0.1903,0.0600,0
20785,0.2899,-0.1792,0.3010,0.0160,0.1305,-0.0137,-2.23,0.12,-7.16,0,3.099,20.925,-0.391,-13.472,0.006,-0.016,1.006,0.000,0.000,0.000,0.2990,-6,0,-3.70,0.90,-16.82,0.1796,-0.0450,0.3005,-0.0361,0.0609,0.3000,0.2659,-10.01,25.00,214.77,0.7920,0.0000,1.9640,0.5610,2.3930,0,0.0213,-0.0607,0.0000,0.1903,0.0600,0
20836,0.2904,-0.1740,0.3011,0.0168,0.1455,-0.0052,-1.23,0.13,-7.86,0,3.104,15.799,-1.757,-10.000,0.006,-0.016,1.006,0.000,0.000,0.000,0.2990,-7,0,-2.66,0.96,-17.48,0.1844,-0.0292,0.2989,-0.0398,0.0598,0.3000,0.2650,-8.88,25.00,235.80,0.7920,0.0000,1.9460,0.6020,2.3950,0,0.0213,-0.0607,0.0000,0.1903,0.0600,0
20887,0.2935,-0.1650,0.2998,0.0222,0.1593,-0.0068,-0.32,0.21,-8.40,0,3.099,14.192,-5.553,-3.614,0.007,-0.010,1.000,0.000,0.000,0.000,0.2970,-7,-1,-1.89,1.06,-17.95,0.1903,-0.0105,0.2976,-0.0435,0.0587,0.3000,0.2654,-7.50,25.00,251.98,0.7950,0.0000,1.9460,0.6020,2.3950,0,0.0213,-0.0607,0.0000,0.1903,0.0600,0
