time_ms,pos_x,pos_y,pos_z,vel_x,vel_y,vel_z,roll,pitch,yaw,thrust,vbat,gyro_x,gyro_y,gyro_z,acc_x,acc_y,acc_z,rate_roll,rate_pitch,rate_yaw,range_z,flow_dx,flow_dy,mekf_roll,mekf_pitch,mekf_yaw,mekf_x,mekf_y,mekf_z,our_ref_x,our_ref_y,our_ref_z,our_thrust,our_roll_cmd,our_pitch_cmd,our_yaw_rate_cmd,multi_front,multi_back,multi_left,multi_right,multi_up,ai_feat_count,vo_x,vo_y,vo_sigma,pg_x,pg_y,lc_count
0,-0.7244,0.4432,0.0113,0.0033,-0.0021,0.0039,-0.84,0.78,-16.98,0,3.853,-0.263,0.040,-0.140,0.014,-0.015,1.003,0.000,0.000,0.000,0.0090,3,6,0.00,0.00,0.00,0.0000,0.0000,0.0000,0.0000,0.0000,0.0000,0.0000,0.00,0.00,0.00,1.0920,0.1360,1.3280,1.0650,2.7060,0,0.0000,0.0000,0.0000,0.0000,0.0000,0
100,-0.7248,0.4434,0.0109,0.0010,-0.0009,0.0015,-0.85,0.83,-16.89,0,3.859,-0.290,0.128,0.084,0.013,-0.016,1.001,0.000,0.000,0.000,0.0130,2,1,0.00,0.00,0.00,0.0000,0.0000,0.0000,0.0000,0.0000,0.0000,0.0000,0.00,0.00,0.00,1.0920,0.1360,1.3290,1.0670,2.7030,0,0.0000,0.0000,0.0000,0.0000,0.0000,0
201,-0.7255,0.4434,0.0100,-0.0030,-0.0015,-0.0021,-0.86,0.81,-16.81,0,3.853,0.146,-0.042,0.136,0.013,-0.017,1.002,0.000,0.000,0.000,0.0110,1,-5,0.00,0.00,0.00,0.0000,0.0000,0.0000,0.0000,0.0000,0.0000,0.0000,0.00,0.00,0.00,1.0950,0.1320,1.3290,1.0670,2.7030,0,0.0000,0.0000,0.0000,0.0000,0.0000,0
302,-0.7254,0.4431,0.0115,-0.0016,-0.0028,0.0050,-0.85,0.74,-16.73,0,3.853,-0.207,-0.191,0.075,0.015,-0.013,1.002,0.000,0.000,0.000,0.0110,6,4,0.00,0.00,0.00,0.0000,0.0000,0.0000,0.0000,0.0000,0.0000,0.0000,0.00,0.00,0.00,1.0950,0.1320,1.3350,1.0670,2.7030,0,0.0000,0.0000,0.0000,0.0000,0.0000,0
403,-0.7242,0.4442,0.0115,0.0059,0.0036,0.0043,-0.86,0.79,-16.65,0,3.853,0.447,-0.250,-0.067,0.015,-0.016,0.999,0.000,0.000,0.000,0.0130,-8,0,0.00,0.00,0.00,0.0000,0.0000,0.0000,0.0000,0.0000,0.0000,0.0000,0.00,0.00,0.00,1.0890,0.1360,1.3350,1.0670,2.7030,0,0.0000,0.0000,0.0000,0.0000,0.0000,0
504,-0.7256,0.4432,0.0115,-0.0015,-0.0017,0.0037,-0.94,0.79,-16.57,0,3.853,-0.144,-0.185,-0.118,0.014,-0.016,0.999,0.000,0.000,0.000,0.0120,3,5,0.00,0.00,0.00,0.0000,0.0000,0.0000,0.0000,0.0000,0.0000,0.0000,0.00,0.00,0.00,1.0890,0.1360,1.3290,1.0650,2.7110,0,0.0000,0.0000,0.0000,0.0000,0.0000,0
606,-0.7253,0.4426,0.0125,0.0002,-0.0049,0.0068,-0.81,0.82,-16.48,0,3.848,0.133,-0.033,-0.257,0.013,-0.016,0.999,0.000,0.000,0.000,0.0110,5,-1,0.00,0.00,0.00,0.0000,0.0000,0.0000,0.0000,0.0000,0.0000,0.0000,0.00,0.00,0.00,1.0950,0.1350,1.3290,1.0650,2.7110,0,0.0000,0.0000,0.0000,0.0000,0.0000,0
708,-0.7252,0.4440,0.0126,0.0015,0.0028,0.0059,-0.84,0.77,-16.40,0,3.859,-0.141,0.113,0.001,0.013,-0.018,0.999,0.000,0.000,0.000,0.0090,7,-2,0.00,0.00,0.00,0.0000,0.0000,0.0000,0.0000,0.0000,0.0000,0.0000,0.00,0.00,0.00,1.0950,0.1350,1.3320,1.0700,2.7070,0,0.0000,0.0000,0.0000,0.0000,0.0000,0
808,-0.7256,0.4451,0.0121,-0.0008,0.0083,0.0026,-0.86,0.78,-16.32,0,3.853,-0.034,-0.219,0.172,0.016,-0.018,1.002,0.000,0.000,0.000,0.0110,-9,0,0.00,0.00,0.00,0.0000,0.0000,0.0000,0.0000,0.0000,0.0000,0.0000,0.00,0.00,0.00,1.0920,0.1380,1.3320,1.0700,2.7070,0,0.0000,0.0000,0.0000,0.0000,0.0000,0
909,-0.7260,0.4430,0.0107,-0.0025,-0.0037,-0.0032,-0.92,0.80,-16.24,0,3.853,0.162,-0.208,-0.112,0.014,-0.015,1.001,0.000,0.000,0.000,0.0120,3,-4,0.00,0.00,0.00,0.0000,0.0000,0.0000,0.0000,0.0000,0.0000,0.0000,0.00,0.00,0.00,1.0920,0.1380,1.3320,1.0660,2.6980,0,0.0000,0.0000,0.0000,0.0000,0.0000,0
1010,-0.7252,0.4439,0.0108,0.0016,0.0014,-0.0015,-0.85,0.74,-16.16,0,3.853,-0.078,0.166,-0.112,0.014,-0.013,1.001,0.000,0.000,0.000,0.0110,0,3,0.00,0.00,0.00,0.0000,0.0000,0.0000,0.0000,0.0000,0.0000,0.0000,0.00,0.00,0.00,1.0940,0.1310,1.3320,1.0660,2.6980,0,0.0000,0.0000,0.0000,0.0000,0.0000,0
1111,-0.7257,0.4430,0.0114,-0.0017,-0.0034,0.0016,-0.84,0.82,-16.08,0,3.853,0.186,-0.003,-0.126,0.016,-0.014,1.001,0.000,0.000,0.000,0.0100,-8,0,0.00,0.00,0.00,0.0000,0.0000,0.0000,0.0000,0.0000,0.0000,0.0000,0.00,0.00,0.00,1.0940,0.1310,1.3320,1.0690,2.7050,0,0.0000,0.0000,0.0000,0.0000,0.0000,0
1212,-0.7259,0.4430,0.0113,-0.0023,-0.0028,0.0015,-0.91,0.80,-16.00,0,3.853,0.029,-0.178,0.044,0.011,-0.017,1.002,0.000,0.000,0.000,0.0120,-1,-5,0.00,0.00,0.00,0.0000,0.0000,0.0000,0.0000,0.0000,0.0000,0.0000,0.00,0.00,0.00,1.0870,0.1360,1.3320,1.0690,2.7050,0,0.0000,0.0000,0.0000,0.0000,0.0000,0
1313,-0.7257,0.4432,0.0107,-0.0011,-0.0021,-0.0007,-0.86,0.75,-15.92,0,3.859,-0.124,-0.037,0.000,0.013,-0.016,1.000,0.000,0.000,0.000,0.0100,0,3,0.00,0.00,0.00,0.0000,0.0000,0.0000,0.0000,0.0000,0.0000,0.0000,0.00,0.00,0.00,1.0870,0.1360,1.3340,1.0610,2.7140,0,0.0000,0.0000,0.0000,0.0000,0.0000,0
1414,-0.7258,0.4430,0.0114,-0.0014,-0.0030,0.0024,-0.84,0.82,-15.84,0,3.848,0.230,-0.209,-0.245,0.015,-0.015,1.004,0.000,0.000,0.000,0.0100,5,0,0.00,0.00,0.00,0.0000,0.0000,0.0000,0.0000,0.0000,0.0000,0.0000,0.00,0.00,0.00,1.0950,0.1360,1.3340,1.0610,2.7140,0,0.0000,0.0000,0.0000,0.0000,0.0000,0
1516,-0.7244,0.4439,0.0108,0.0066,0.0022,0.0003,-0.85,0.75,-15.76,0,3.853,-0.192,-0.220,-0.002,0.012,-0.015,1.002,0.000,0.000,0.000,0.0110,-16,-5,0.00,0.00,0.00,0.0000,0.0000,0.0000,0.0000,0.0000,0.0000,0.0000,0.00,0.00,0.00,1.0950,0.1360,1.3310,1.0670,2.7030,0,0.0000,0.0000,0.0000,0.0000,0.0000,0
1568,-0.7264,0.4430,0.0104,-0.0058,-0.0027,-0.0012,-0.98,0.78,-15.69,0,3.853,-0.182,-0.058,-0.137,0.016,-0.016,0.999,0.000,0.000,0.000,0.0130,-9,0,0.00,0.00,0.00,0.0000,0.0000,0.0000,0.0000,0.0000,0.0000,0.0000,0.00,0.00,0.00,1.0960,0.1380,1.3310,1.0670,2.7030,0,0.0000,0.0000,0.0000,0.0000,0.0000,0
1619,-0.7254,0.4429,0.0108,0.0005,-0.0039,0.0009,-0.92,0.78,-15.62,0,3.853,-0.190,-0.047,-0.051,0.012,-0.014,1.001,0.000,0.000,0.000,0.0130,0,1,0.00,0.00,0.00,0.0000,0.0000,0.0000,0.0000,0.0000,0.0000,0.0000,0.00,0.00,0.00,1.0960,0.1380,1.3270,1.0690,2.6980,0,0.0000,0.0000,0.0000,0.0000,0.0000,0
1670,-0.7261,0.4434,0.0120,-0.0038,-0.0014,0.0060,-0.84,0.82,-15.53,0,3.853,0.096,-0.244,0.243,0.014,-0.015,1.001,0.000,0.000,0.000,0.0080,-5,6,0.00,0.00,0.00,0.0000,0.0000,0.0000,0.0000,0.0000,0.0000,0.0000,0.00,0.00,0.00,1.0940,0.1360,1.3270,1.0690,2.6980,0,0.0000,0.0000,0.0000,0.0000,0.0000,0
1721,-0.7252,0.4429,0.0128,0.0018,-0.0034,0.0087,-0.88,0.82,-15.46,0,3.853,-0.150,-0.046,0.185,0.012,-0.016,1.001,0.000,0.000,0.000,0.0100,0,5,0.00,0.00,0.00,0.0000,0.0000,0.0000,0.0000,0.0000,0.0000,0.0000,0.00,0.00,0.00,1.0940,0.1360,1.3310,1.0670,2.7070,0,0.0000,0.0000,0.0000,0.0000,0.0000,0
1772,-0.7245,0.4425,0.0108,0.0063,-0.0056,-0.0016,-0.83,0.78,-15.38,0,3.848,-0.218,-0.028,-0.167,0.014,-0.017,0.998,0.000,0.000,0.000,0.0120,-6,3,0.00,0.00,0.00,0.0000,0.0000,0.0000,0.0000,0.0000,0.0000,0.0000,0.00,0.00,0.00,1.0970,0.1370,1.3310,1.0670,2.7070,0,0.0000,0.0000,0.0000,0.0000,0.0000,0
1823,-0.7256,0.4436,0.0104,-0.0004,0.0009,-0.0027,-0.92,0.82,-15.31,0,3.853,0.072,-0.164,-0.129,0.014,-0.014,1.000,0.000,0.000,0.000,0.0110,-2,4,0.00,0.00,0.00,0.0000,0.0000,0.0000,0.0000,0.0000,0.0000,0.0000,0.00,0.00,0.00,1.0970,0.1370,1.3260,1.0650,2.7040,0,0.0000,0.0000,0.0000,0.0000,0.0000,0
1874,-0.7253,0.4431,0.0111,0.0010,-0.0022,0.0012,-0.87,0.82,-15.23,0,3.853,-0.064,-0.328,-0.072,0.016,-0.015,1.002,0.000,0.000,0.000,0.0130,3,3,0.00,0.00,0.00,0.0000,0.0000,0.0000,0.0000,0.0000,0.0000,0.0000,0.00,0.00,0.00,1.0960,0.1380,1.3260,1.0650,2.7040,0,0.0000,0.0000,0.0000,0.0000,0.0000,0
1925,-0.7255,0.4436,0.0111,0.0006,0.0009,0.0016,-0.84,0.82,-15.15,0,3.853,-0.051,-0.013,0.107,0.012,-0.016,1.000,0.000,0.000,0.000,0.0120,6,6,0.00,0.00,0.00,0.0000,0.0000,0.0000,0.0000,0.0000,0.0000,0.0000,0.00,0.00,0.00,1.0960,0.1380,1.3320,1.0650,2.7030,0,0.0000,0.0000,0.0000,0.0000,0.0000,0
1976,-0.7251,0.4435,0.0122,0.0031,0.0011,0.0064,-0.81,0.83,-15.07,0,3.853,0.275,0.086,0.063,0.015,-0.017,1.001,0.000,0.000,0.000,0.0100,-7,1,0.00,0.00,0.00,0.0000,0.0000,0.0000,0.0000,0.0000,0.0000,0.0000,0.00,0.00,0.00,1.0930,0.1360,1.3320,1.0650,2.7030,0,0.0000,0.0000,0.0000,0.0000,0.0000,0
2028,-0.7253,0.4438,0.0125,0.0015,0.0014,0.0067,-0.93,0.79,-15.00,0,3.853,-0.313,-0.056,0.508,0.012,-0.017,1.002,0.000,0.000,0.000,0.0100,1,1,0.00,0.00,0.00,0.0000,0.0000,0.0000,0.0000,0.0000,0.0000,0.0000,0.00,0.00,0.00,1.0930,0.1360,1.3320,1.0610,2.7100,0,0.0000,0.0000,0.0000,0.0000,0.0000,0
2080,-0.7250,0.4448,0.0115,0.0027,0.0066,0.0015,-0.90,0.80,-14.93,0,3.848,0.061,0.012,0.075,0.013,-0.015,1.002,0.000,0.000,0.000,0.0120,-7,-4,0.00,0.00,0.00,0.0000,0.0000,0.0000,0.0000,0.0000,0.0000,0.0000,0.00,0.00,0.00,1.0910,0.1360,1.3320,1.0610,2.7100,0,0.0000,0.0000,0.0000,0.0000,0.0000,0
2132,-0.7257,0.4429,0.0109,-0.0015,-0.0034,-0.0012,-0.89,0.75,-14.85,0,3.853,-0.167,0.271,0.241,0.014,-0.016,1.000,0.000,0.000,0.000,0.0110,5,1,0.00,0.00,0.00,0.0000,0.0000,0.0000,0.0000,0.0000,0.0000,0.0000,0.00,0.00,0.00,1.0910,0.1360,1.3270,1.0650,2.7060,0,0.0000,0.0000,0.0000,0.0000,0.0000,0
2183,-0.7258,0.4451,0.0115,-0.0018,0.0085,0.0025,-0.86,0.83,-14.78,0,3.853,-0.134,-0.149,-0.043,0.015,-0.016,1.000,0.000,0.000,0.000,0.0100,-3,-1,0.00,0.00,0.00,0.0000,0.0000,0.0000,0.0000,0.0000,0.0000,0.0000,0.00,0.00,0.00,1.0980,0.1390,1.3270,1.0650,2.7060,0,0.0000,0.0000,0.0000,0.0000,0.0000,0
2234,-0.7254,0.4441,0.0114,0.0007,0.0023,0.0021,-0.90,0.78,-14.71,0,3.853,0.081,-0.167,0.135,0.014,-0.018,1.001,0.000,0.000,0.000,0.0110,0,0,0.00,0.00,0.00,0.0000,0.0000,0.0000,0.0000,0.0000,0.0000,0.0000,0.00,0.00,0.00,1.0980,0.1390,1.3310,1.0650,2.7110,0,0.0000,0.0000,0.0000,0.0000,0.0000,0
2285,-0.7257,0.4430,0.0108,-0.0007,-0.0045,-0.0006,-0.82,0.80,-14.64,0,3.848,-0.026,0.259,-0.028,0.013,-0.015,1.001,0.000,0.000,0.000,0.0120,0,0,0.00,0.00,0.00,0.0000,0.0000,0.0000,0.0000,0.0000,0.0000,0.0000,0.00,0.00,0.00,1.0950,0.1370,1.3310,1.0650,2.7110,0,0.0000,0.0000,0.0000,0.0000,0.0000,0
2337,-0.7257,0.4430,0.0109,-0.0006,-0.0045,0.0003,-0.82,0.80,-14.57,0,3.853,-0.021,-0.106,0.055,0.013,-0.016,1.004,0.000,0.000,0.000,0.0120,1,0,0.00,0.00,0.00,0.0000,0.0000,0.0000,0.0000,0.0000,0.0000,0.0000,0.00,0.00,0.00,1.0950,0.1370,1.3290,1.0690,2.6980,0,0.0000,0.0000,0.0000,0.0000,0.0000,0
2388,-0.7258,0.4435,0.0115,-0.0012,-0.0011,0.0043,-0.83,0.80,-14.50,0,3.848,0.079,0.158,-0.170,0.015,-0.017,1.000,0.000,0.000,0.000,0.0130,0,0,0.00,0.00,0.00,0.0000,0.0000,0.0000,0.0000,0.0000,0.0000,0.0000,0.00,0.00,0.00,1.0970,0.1350,1.3290,1.0690,2.6980,0,0.0000,0.0000,0.0000,0.0000,0.0000,0
2440,-0.7257,0.4429,0.0120,-0.0007,-0.0041,0.0056,-0.82,0.80,-14.43,0,3.853,0.002,0.102,-0.211,0.015,-0.016,0.999,0.000,0.000,0.000,0.0110,2,-1,0.00,0.00,0.00,0.0000,0.0000,0.0000,0.0000,0.0000,0.0000,0.0000,0.00,0.00,0.00,1.0970,0.1350,1.3300,1.0640,2.7050,0,0.0000,0.0000,0.0000,0.0000,0.0000,0
2491,-0.7266,0.4437,0.0128,-0.0047,-0.0006,0.0079,-0.83,0.83,-14.36,0,3.848,-0.068,-0.170,0.141,0.012,-0.013,1.001,0.000,0.000,0.000,0.0090,2,0,0.00,0.00,0.00,0.0000,0.0000,0.0000,0.0000,0.0000,0.0000,0.0000,0.00,0.00,0.00,1.0950,0.1360,1.3300,1.0640,2.7050,0,0.0000,0.0000,0.0000,0.0000,0.0000,0
2542,-0.7253,0.4429,0.0123,0.0021,-0.0043,0.0043,-0.81,0.78,-14.29,0,3.853,-0.001,-0.359,0.042,0.014,-0.014,1.001,0.000,0.000,0.000,0.0160,19,-4,0.00,0.00,0.00,0.0000,0.0000,0.0000,0.0000,0.0000,0.0000,0.0000,0.00,0.00,0.00,1.0950,0.1360,1.3320,1.0670,2.7080,0,0.0000,0.0000,0.0000,0.0000,0.0000,0
2593,-0.7262,0.4438,0.0109,-0.0029,0.0010,-0.0020,-0.68,0.79,-14.22,0,3.848,0.138,0.021,-0.390,0.014,-0.014,1.003,0.000,0.000,0.000,0.0110,1,-4,0.00,0.00,0.00,0.0000,0.0000,0.0000,0.0000,0.0000,0.0000,0.0000,0.00,0.00,0.00,1.0960,0.1390,1.3320,1.0670,2.7080,0,0.0000,0.0000,0.0000,0.0000,0.0000,0
2644,-0.7273,0.4408,0.0135,-0.0075,-0.0122,0.0104,-0.75,0.79,-14.15,0,3.853,-0.283,-0.020,0.280,0.014,-0.015,0.999,0.000,0.000,0.000,0.0110,-1,3,0.00,0.00,0.00,0.0000,0.0000,0.0000,0.0000,0.0000,0.0000,0.0000,0.00,0.00,0.00,1.0960,0.1390,1.3250,1.0650,2.7060,0,0.0000,0.0000,0.0000,0.0000,0.0000,0
2696,-0.7270,0.4380,0.0127,-0.0058,-0.0245,0.0058,-0.70,0.82,-14.08,0,3.848,0.053,-0.452,-0.408,0.013,-0.018,1.001,0.000,0.000,0.000,0.0120,8,7,0.00,0.00,0.00,0.0000,0.0000,0.0000,0.0000,0.0000,0.0000,0.0000,0.00,0.00,0.00,1.0910,0.1360,1.3250,1.0650,2.7060,0,0.0000,0.0000,0.0000,0.0000,0.0000,0
2747,-0.7252,0.4398,0.0123,0.0052,-0.0121,0.0031,-0.73,0.80,-14.01,0,3.853,0.002,-0.204,0.090,0.014,-0.016,1.002,0.000,0.000,0.000,0.0130,0,0,0.00,0.00,0.00,0.0000,0.0000,0.0000,0.0000,0.0000,0.0000,0.0000,0.00,0.00,0.00,1.0910,0.1360,1.3260,1.0700,2.6990,0,0.0000,0.0000,0.0000,0.0000,0.0000,0
2798,-0.7274,0.4394,0.0124,-0.0068,-0.0127,0.0039,-0.78,0.82,-13.94,0,3.848,-0.075,-0.288,0.376,0.014,-0.016,1.002,0.000,0.000,0.000,0.0120,12,-4,0.00,0.00,0.00,0.0000,0.0000,0.0000,0.0000,0.0000,0.0000,0.0000,0.00,0.00,0.00,1.0940,0.1360,1.3260,1.0700,2.6990,0,0.0000,0.0000,0.0000,0.0000,0.0000,0
2850,-0.7265,0.4355,0.0129,-0.0021,-0.0313,0.0057,-0.55,0.71,-13.88,0,3.853,-0.050,-0.182,0.178,0.013,-0.016,1.000,0.000,0.000,0.000,0.0110,-3,-5,0.00,0.00,0.00,0.0000,0.0000,0.0000,0.0000,0.0000,0.0000,0.0000,0.00,0.00,0.00,1.0940,0.1360,1.3240,1.0670,2.7040,0,0.0000,0.0000,0.0000,0.0000,0.0000,0
2901,-0.7256,0.4365,0.0130,0.0021,-0.0197,0.0052,-0.79,0.70,-13.81,0,3.853,0.125,-0.272,-0.191,0.013,-0.016,1.000,0.000,0.000,0.000,0.0120,0,-5,0.00,0.00,0.00,0.0000,0.0000,0.0000,0.0000,0.0000,0.0000,0.0000,0.00,0.00,0.00,1.1030,0.1350,1.3240,1.0670,2.7040,0,0.0000,0.0000,0.0000,0.0000,0.0000,0
2953,-0.7256,0.4360,0.0122,0.0016,-0.0187,0.0014,-0.78,0.71,-13.75,0,3.853,0.105,-0.484,-0.503,0.014,-0.017,1.002,0.000,0.000,0.000,0.0120,1,-2,0.00,0.00,0.00,0.0000,0.0000,0.0000,0.0000,0.0000,0.0000,0.0000,0.00,0.00,0.00,1.1030,0.1350,1.3360,1.0650,2.7010,0,0.0000,0.0000,0.0000,0.0000,0.0000,0
3005,-0.7253,0.4363,0.0122,0.0025,-0.0138,0.0011,-0.82,0.75,-13.68,0,3.853,-0.082,-0.164,-0.087,0.014,-0.016,1.002,0.000,0.000,0.000,0.0090,7,3,0.00,0.00,0.00,0.0000,0.0000,0.0000,0.0000,0.0000,0.0000,0.0000,0.00,0.00,0.00,1.0920,0.1370,1.3360,1.0650,2.7010,0,0.0000,0.0000,0.0000,0.0000,0.0000,0
3056,-0.7258,0.4363,0.0122,-0.0004,-0.0114,0.0013,-0.77,0.83,-13.61,0,3.853,-0.025,-0.193,-0.391,0.013,-0.016,1.000,0.000,0.000,0.000,0.0120,0,3,0.00,0.00,0.00,0.0000,0.0000,0.0000,0.0000,0.0000,0.0000,0.0000,0.00,0.00,0.00,1.0920,0.1370,1.3320,1.0640,2.7060,0,0.0000,0.0000,0.0000,0.0000,0.0000,0
3107,-0.7256,0.4362,0.0107,0.0009,-0.0095,-0.0054,-0.86,0.83,-13.55,0,3.853,-0.144,-0.080,-0.039,0.013,-0.017,1.000,0.000,0.000,0.000,0.0080,12,-21,0.00,0.00,0.00,0.0000,0.0000,0.0000,0.0000,0.0000,0.0000,0.0000,0.00,0.00,0.00,1.0990,0.1340,1.3320,1.0640,2.7060,0,0.0000,0.0000,0.0000,0.0000,0.0000,0
3158,-0.7255,0.4364,0.0111,0.0005,-0.0066,-0.0013,-0.76,0.60,-13.49,0,3.853,0.168,-0.169,-0.191,0.014,-0.017,1.001,0.000,0.000,0.000,0.0090,-3,-8,0.00,0.00,0.00,0.0000,0.0000,0.0000,0.0000,0.0000,0.0000,0.0000,0.00,0.00,0.00,1.0990,0.1340,1.3320,1.0630,2.6950,0,0.0000,0.0000,0.0000,0.0000,0.0000,0
3209,-0.7222,0.4326,0.0097,0.0145,-0.0224,-0.0066,-0.82,0.61,-13.42,0,3.853,0.001,-0.128,-0.256,0.014,-0.016,1.000,0.000,0.000,0.000,0.0110,13,3,0.00,0.00,0.00,0.0000,0.0000,0.0000,0.0000,0.0000,0.0000,0.0000,0.00,0.00,0.00,1.1010,0.1360,1.3320,1.0630,2.6950,0,0.0000,0.0000,0.0000,0.0000,0.0000,0
3261,-0.7204,0.4331,0.0091,0.0212,-0.0160,-0.0069,-0.74,0.69,-13.35,0,3.853,-0.028,-0.287,-0.020,0.014,-0.016,1.001,0.000,0.000,0.000,0.0080,0,2,0.00,0.00,0.00,0.0000,0.0000,0.0000,0.0000,0.0000,0.0000,0.0000,0.00,0.00,0.00,1.1010,0.1360,1.3280,1.0640,2.7000,0,0.0000,0.0000,0.0000,0.0000,0.0000,0
3312,-0.7196,0.4301,0.0099,0.0210,-0.0277,-0.0020,-0.78,0.67,-13.29,0,3.848,0.098,0.008,-0.286,0.014,-0.017,1.003,0.000,0.000,0.000,0.0130,1,5,0.00,0.00,0.00,0.0000,0.0000,0.0000,0.0000,0.0000,0.0000,0.0000,0.00,0.00,0.00,1.0910,0.1340,1.3280,1.0640,2.7000,0,0.0000,0.0000,0.0000,0.0000,0.0000,0
3363,-0.7189,0.4302,0.0089,0.0197,-0.0222,-0.0053,-0.81,0.73,-13.23,0,3.853,-0.009,-0.006,-0.073,0.013,-0.014,0.999,0.000,0.000,0.000,0.0120,-4,-5,0.00,0.00,0.00,0.0000,0.0000,0.0000,0.0000,0.0000,0.0000,0.0000,0.00,0.00,0.00,1.0910,0.1340,1.3320,1.0680,2.7010,0,0.0000,0.0000,0.0000,0.0000,0.0000,0
3414,-0.7191,0.4302,0.0108,0.0147,-0.0169,0.0045,-0.87,0.69,-13.17,0,3.853,-0.169,-0.072,-0.133,0.015,-0.013,1.002,0.000,0.000,0.000,0.0100,2,0,0.00,0.00,0.00,0.0000,0.0000,0.0000,0.0000,0.0000,0.0000,0.0000,0.00,0.00,0.00,1.0930,0.1360,1.3320,1.0680,2.7010,0,0.0000,0.0000,0.0000,0.0000,0.0000,0
3465,-0.7193,0.4303,0.0117,0.0096,-0.0138,0.0081,-0.83,0.78,-13.10,0,3.853,-0.411,-0.074,0.028,0.012,-0.017,0.999,0.000,0.000,0.000,0.0110,-8,6,0.00,0.00,0.00,0.0000,0.0000,0.0000,0.0000,0.0000,0.0000,0.0000,0.00,0.00,0.00,1.0930,0.1360,1.3300,1.0640,2.7050,0,0.0000,0.0000,0.0000,0.0000,0.0000,0
3516,-0.7187,0.4299,0.0113,0.0108,-0.0125,0.0053,-0.94,0.84,-13.03,0,3.853,-0.035,-0.019,0.166,0.012,-0.017,1.001,0.000,0.000,0.000,0.0100,0,-5,0.00,0.00,0.00,0.0000,0.0000,0.0000,0.0000,0.0000,0.0000,0.0000,0.00,0.00,0.00,1.0940,0.1340,1.3300,1.0640,2.7050,0,0.0000,0.0000,0.0000,0.0000,0.0000,0
3567,-0.7190,0.4301,0.0114,0.0069,-0.0102,0.0053,-0.87,0.76,-12.98,0,3.853,-0.199,-0.291,0.124,0.014,-0.014,1.000,0.000,0.000,0.000,0.0100,4,1,0.00,0.00,0.00,0.0000,0.0000,0.0000,0.0000,0.0000,0.0000,0.0000,0.00,0.00,0.00,1.0940,0.1340,1.3280,1.0690,2.6980,0,0.0000,0.0000,0.0000,0.0000,0.0000,0
3618,-0.7179,0.4307,0.0110,0.0101,-0.0048,0.0032,-0.88,0.80,-12.91,0,3.853,-0.022,0.154,-0.210,0.013,-0.016,1.000,0.000,0.000,0.000,0.0100,2,4,0.00,0.00,0.00,0.0000,0.0000,0.0000,0.0000,0.0000,0.0000,0.0000,0.00,0.00,0.00,1.0940,0.1360,1.3280,1.0690,2.6980,0,0.0000,0.0000,0.0000,0.0000,0.0000,0
3669,-0.7184,0.4315,0.0107,0.0050,0.0010,0.0018,-0.93,0.88,-12.85,0,3.853,-0.110,-0.176,-0.037,0.015,-0.014,1.001,0.000,0.000,0.000,0.0110,6,-2,0.00,0.00,0.00,0.0000,0.0000,0.0000,0.0000,0.0000,0.0000,0.0000,0.00,0.00,0.00,1.0940,0.1360,1.3270,1.0680,2.7020,0,0.0000,0.0000,0.0000,0.0000,0.0000,0
3720,-0.7198,0.4281,0.0104,-0.0038,-0.0163,0.0008,-0.73,0.85,-12.79,0,3.853,-0.219,-0.344,-0.109,0.016,-0.015,0.999,0.000,0.000,0.000,0.0130,0,-3,0.00,0.00,0.00,0.0000,0.0000,0.0000,0.0000,0.0000,0.0000,0.0000,0.00,0.00,0.00,1.0940,0.1360,1.3270,1.0680,2.7020,0,0.0000,0.0000,0.0000,0.0000,0.0000,0
3771,-0.7179,0.4322,0.0110,0.0061,0.0074,0.0042,-0.98,0.81,-12.72,0,3.853,0.054,-0.055,-0.343,0.014,-0.016,1.002,0.000,0.000,0.000,0.0110,-6,9,0.00,0.00,0.00,0.0000,0.0000,0.0000,0.0000,0.0000,0.0000,0.0000,0.00,0.00,0.00,1.0940,0.1360,1.3230,1.0640,2.7030,0,0.0000,0.0000,0.0000,0.0000,0.0000,0
3822,-0.7172,0.4316,0.0123,0.0079,0.0032,0.0091,-1.00,0.89,-12.66,0,3.853,-0.125,-0.091,0.151,0.015,-0.017,1.000,0.000,0.000,0.000,0.0130,-5,14,0.00,0.00,0.00,0.0000,0.0000,0.0000,0.0000,0.0000,0.0000,0.0000,0.00,0.00,0.00,1.0930,0.1370,1.3230,1.0640,2.7030,0,0.0000,0.0000,0.0000,0.0000,0.0000,0
3873,-0.0000,-0.0000,-0.4543,-0.0005,-0.0067,0.0001,-0.04,0.16,0.00,0,3.853,-0.132,-0.348,0.127,0.013,-0.017,1.002,0.000,0.000,0.000,0.0120,5,1,0.00,0.00,0.00,0.0000,0.0000,0.0000,0.0000,0.0000,0.0000,0.0000,0.00,0.00,0.00,1.0930,0.1370,1.3330,1.0640,2.7090,0,0.0000,0.0000,0.0000,0.0000,0.0000,0
3924,-0.0007,-0.0001,0.0131,-0.0093,-0.0059,0.0007,0.10,0.13,-0.00,0,3.848,-0.120,-0.179,-0.148,0.013,-0.016,1.000,0.000,0.000,0.000,0.0120,9,-3,0.00,0.00,0.00,0.0000,0.0000,0.0000,0.0000,0.0000,0.0000,0.0000,0.00,0.00,0.00,1.1000,0.1350,1.3330,1.0640,2.7090,0,0.0000,0.0000,0.0000,0.0000,0.0000,0
3975,-0.0011,0.0001,0.0126,-0.0039,-0.0024,0.0004,0.06,-0.04,-0.00,0,3.853,0.037,0.078,0.024,0.013,-0.015,0.999,0.000,0.000,0.000,0.0080,-6,0,0.00,0.00,0.00,0.0000,0.0000,0.0000,0.0000,0.0000,0.0000,0.0000,0.00,0.00,0.00,1.1000,0.1350,1.3340,1.0660,2.7090,0,0.0000,0.0000,0.0000,0.0000,0.0000,0
4026,-0.0002,-0.0009,0.0124,0.0119,-0.0162,0.0003,-0.49,-0.13,-0.01,0,3.853,0.010,0.087,0.077,0.015,-0.018,0.997,0.000,0.000,0.000,0.0090,1,3,0.00,0.00,0.00,0.0000,0.0000,0.0000,0.0000,0.0000,0.0000,0.0000,0.00,0.00,0.00,1.0960,0.1360,1.3340,1.0660,2.7090,0,0.0000,0.0000,0.0000,0.0000,0.0000,0
4077,-0.0005,-0.0013,0.0104,0.0110,-0.0177,-0.0078,-0.24,0.22,-0.01,0,3.853,-0.183,-0.115,-0.050,0.012,-0.016,1.003,0.000,0.000,0.000,0.0100,15,-6,0.00,0.00,0.00,0.0000,0.0000,0.0000,0.0000,0.0000,0.0000,0.0000,0.00,0.00,0.00,1.0960,0.1360,1.3260,1.0670,2.7130,0,0.0000,0.0000,0.0000,0.0000,0.0000,0
4128,-0.0017,0.0003,0.0094,0.0001,-0.0014,-0.0100,-0.11,0.18,-0.01,0,3.853,0.012,-0.025,-0.423,0.014,-0.014,1.000,0.000,0.000,0.000,0.0080,8,0,0.00,0.00,0.00,0.0000,0.0000,0.0000,0.0000,0.0000,0.0000,0.0000,0.00,0.00,0.00,1.1000,0.1360,1.3260,1.0670,2.7130,0,0.0000,0.0000,0.0000,0.0000,0.0000,0
4179,-0.0009,0.0002,0.0095,0.0080,-0.0008,-0.0067,-0.49,0.35,-0.01,0,3.853,0.042,-0.011,0.224,0.014,-0.015,1.000,0.000,0.000,0.000,0.0100,-6,5,0.00,0.00,0.00,0.0000,0.0000,0.0000,0.0000,0.0000,0.0000,0.0000,0.00,0.00,0.00,1.1000,0.1360,1.3320,1.0680,2.7120,0,0.0000,0.0000,0.0000,0.0000,0.0000,0
4230,0.0002,-0.0015,0.0085,0.0167,-0.0142,-0.0093,-0.76,0.43,-0.01,0,3.853,-0.029,-0.051,0.267,0.014,-0.015,1.002,0.000,0.000,0.000,0.0090,-6,-1,0.00,0.00,0.00,0.0000,0.0000,0.0000,0.0000,0.0000,0.0000,0.0000,0.00,0.00,0.00,1.0960,0.1350,1.3320,1.0680,2.7120,0,0.0000,0.0000,0.0000,0.0000,0.0000,0
4281,-0.0012,-0.0016,0.0090,0.0062,-0.0135,-0.0046,-0.80,0.47,-0.01,0,3.853,-0.315,-0.266,0.187,0.012,-0.016,0.999,0.000,0.000,0.000,0.0100,1,2,0.00,0.00,0.00,0.0000,0.0000,0.0000,0.0000,0.0000,0.0000,0.0000,0.00,0.00,0.00,1.0960,0.1350,1.3300,1.0690,2.7000,0,0.0000,0.0000,0.0000,0.0000,0.0000,0
4333,-0.0013,-0.0015,0.0088,0.0057,-0.0117,-0.0037,-0.66,0.58,-0.01,0,3.853,0.080,-0.072,0.037,0.014,-0.015,1.000,0.000,0.000,0.000,0.0110,-1,0,0.00,0.00,0.00,0.0000,0.0000,0.0000,0.0000,0.0000,0.0000,0.0000,0.00,0.00,0.00,1.0950,0.1370,1.3300,1.0690,2.7000,0,0.0000,0.0000,0.0000,0.0000,0.0000,0
4384,-0.0011,-0.0005,0.0094,0.0073,-0.0042,0.0004,-0.82,0.55,-0.01,0,3.853,0.135,-0.081,0.002,0.015,-0.016,1.001,0.000,0.000,0.000,0.0100,0,-3,0.00,0.00,0.00,0.0000,0.0000,0.0000,0.0000,0.0000,0.0000,0.0000,0.00,0.00,0.00,1.0950,0.1370,1.3230,1.0660,2.7100,0,0.0000,0.0000,0.0000,0.0000,0.0000,0
4434,-0.0009,0.0007,0.0102,0.0079,0.0029,0.0044,-0.88,0.52,-0.01,0,3.853,-0.092,-0.229,0.289,0.011,-0.015,0.999,0.000,0.000,0.000,0.0110,-6,6,0.00,0.00,0.00,0.0000,0.0000,0.0000,0.0000,0.0000,0.0000,0.0000,0.00,0.00,0.00,1.0950,0.1380,1.3230,1.0660,2.7100,0,0.0000,0.0000,0.0000,0.0000,0.0000,0
4485,-0.0010,-0.0014,0.0103,0.0064,-0.0100,0.0042,-0.84,0.70,-0.01,0,3.853,-0.212,0.024,-0.077,0.014,-0.017,1.002,0.000,0.000,0.000,0.0110,0,-4,0.00,0.00,0.00,0.0000,0.0000,0.0000,0.0000,0.0000,0.0000,0.0000,0.00,0.00,0.00,1.0950,0.1380,1.3300,1.0620,2.7070,0,0.0000,0.0000,0.0000,0.0000,0.0000,0
4536,-0.0010,-0.0014,0.0110,0.0068,-0.0097,0.0069,-0.77,0.55,-0.01,0,3.853,-0.030,-0.251,0.197,0.012,-0.016,1.001,0.000,0.000,0.000,0.0100,-3,4,0.00,0.00,0.00,0.0000,0.0000,0.0000,0.0000,0.0000,0.0000,0.0000,0.00,0.00,0.00,1.0920,0.1350,1.3300,1.0620,2.7070,0,0.0000,0.0000,0.0000,0.0000,0.0000,0
4588,-0.0011,-0.0009,0.0114,0.0059,-0.0063,0.0074,-0.86,0.70,-0.01,0,3.853,-0.123,-0.286,-0.221,0.016,-0.014,1.003,0.000,0.000,0.000,0.0100,-6,1,0.00,0.00,0.00,0.0000,0.0000,0.0000,0.0000,0.0000,0.0000,0.0000,0.00,0.00,0.00,1.0920,0.1350,1.3260,1.0630,2.7010,0,0.0000,0.0000,0.0000,0.0000,0.0000,0
4638,-0.0014,-0.0008,0.0111,0.0043,-0.0049,0.0058,-0.90,0.69,-0.01,0,3.853,0.045,-0.109,-0.094,0.014,-0.013,1.001,0.000,0.000,0.000,0.0120,15,3,0.00,0.00,0.00,0.0000,0.0000,0.0000,0.0000,0.0000,0.0000,0.0000,0.00,0.00,0.00,1.0990,0.1360,1.3260,1.0630,2.7010,0,0.0000,0.0000,0.0000,0.0000,0.0000,0
4689,-0.0016,0.0009,0.0109,0.0025,0.0051,0.0042,-0.73,0.74,-0.02,0,3.848,0.364,0.109,0.005,0.013,-0.017,1.000,0.000,0.000,0.000,0.0120,6,-2,0.00,0.00,0.00,0.0000,0.0000,0.0000,0.0000,0.0000,0.0000,0.0000,0.00,0.00,0.00,1.0990,0.1360,1.3320,1.0690,2.7070,0,0.0000,0.0000,0.0000,0.0000,0.0000,0
4740,-0.0019,0.0016,0.0118,0.0005,0.0087,0.0075,-0.89,0.70,-0.02,0,3.853,-0.226,-0.028,0.262,0.013,-0.015,1.000,0.000,0.000,0.000,0.0120,0,-1,0.00,0.00,0.00,0.0000,0.0000,0.0000,0.0000,0.0000,0.0000,0.0000,0.00,0.00,0.00,1.0940,0.1320,1.3320,1.0690,2.7070,0,0.0000,0.0000,0.0000,0.0000,0.0000,0
4792,-0.0005,-0.0008,0.0124,0.0080,-0.0040,0.0092,-0.84,0.65,-0.02,0,3.848,-0.368,0.005,0.298,0.015,-0.016,1.000,0.000,0.000,0.000,0.0100,0,3,0.00,0.00,0.00,0.0000,0.0000,0.0000,0.0000,0.0000,0.0000,0.0000,0.00,0.00,0.00,1.0940,0.1320,1.3350,1.0670,2.7040,0,0.0000,0.0000,0.0000,0.0000,0.0000,0
4843,-0.0015,-0.0012,0.0127,0.0027,-0.0063,0.0089,-0.83,0.75,-0.02,0,3.853,-0.037,-0.219,-0.161,0.013,-0.015,1.002,0.000,0.000,0.000,0.0090,1,0,0.00,0.00,0.00,0.0000,0.0000,0.0000,0.0000,0.0000,0.0000,0.0000,0.00,0.00,0.00,1.0940,0.1330,1.3350,1.0670,2.7040,0,0.0000,0.0000,0.0000,0.0000,0.0000,0
4895,-0.0015,0.0009,0.0117,0.0026,0.0055,0.0038,-0.92,0.72,-0.02,0,3.853,0.090,0.185,-0.140,0.014,-0.018,1.003,0.000,0.000,0.000,0.0120,-4,0,0.00,0.00,0.00,0.0000,0.0000,0.0000,0.0000,0.0000,0.0000,0.0000,0.00,0.00,0.00,1.0940,0.1330,1.3280,1.0680,2.7070,0,0.0000,0.0000,0.0000,0.0000,0.0000,0
4947,-0.0005,-0.0015,0.0105,0.0070,-0.0076,-0.0012,-0.87,0.69,-0.02,0,3.853,0.041,0.064,0.393,0.015,-0.016,1.001,0.000,0.000,0.000,0.0090,8,0,0.00,0.00,0.00,0.0000,0.0000,0.0000,0.0000,0.0000,0.0000,0.0000,0.00,0.00,0.00,1.0970,0.1360,1.3280,1.0680,2.7070,0,0.0000,0.0000,0.0000,0.0000,0.0000,0
4998,-0.0017,0.0010,0.0113,0.0012,0.0049,0.0028,-0.84,0.75,-0.02,0,3.848,-0.193,0.027,0.037,0.013,-0.016,1.000,0.000,0.000,0.000,0.0110,1,-4,0.00,0.00,0.00,0.0000,0.0000,0.0000,0.0000,0.0000,0.0000,0.0000,0.00,0.00,0.00,1.0970,0.1360,1.3280,1.0650,2.7040,0,0.0000,0.0000,0.0000,0.0000,0.0000,0
5049,-0.0015,-0.0005,0.0103,0.0027,-0.0030,-0.0010,-0.86,0.70,-0.02,0,3.853,-0.185,-0.182,0.145,0.016,-0.017,1.001,0.000,0.000,0.000,0.0110,1,1,0.00,0.00,0.00,0.0000,0.0000,0.0000,0.0000,0.0000,0.0000,0.0000,0.00,0.00,0.00,1.0960,0.1350,1.3280,1.0650,2.7040,0,0.0000,0.0000,0.0000,0.0000,0.0000,0
5100,-0.0015,-0.0002,0.0107,0.0021,-0.0016,0.0019,-0.87,0.77,-0.02,0,3.410,1.674,-1.199,1.740,0.017,-0.008,1.008,0.000,0.000,0.000,0.0090,0,8,0.00,0.00,0.00,0.0000,0.0000,0.0000,0.0000,0.0000,0.0000,0.0000,0.00,0.00,0.00,1.0960,0.1350,1.3320,1.0650,2.7040,0,0.0000,0.0000,0.0000,0.0000,0.0000,0
5151,-0.0016,0.0002,0.0109,-0.0010,0.0036,0.0026,-0.89,0.80,-0.02,0,3.457,0.462,-1.230,1.128,0.004,-0.013,1.005,0.000,0.000,0.000,0.0110,-22,-1,0.00,0.00,0.00,0.0000,0.0000,0.0000,0.0000,0.0000,0.0000,0.0000,0.00,0.00,0.00,1.0910,0.1360,1.3320,1.0650,2.7040,0,0.0000,0.0000,0.0000,0.0000,0.0000,0
5202,-0.0016,-0.0005,0.0102,-0.0079,0.0072,-0.0009,-1.05,0.77,-0.01,0,3.494,1.236,-0.037,8.780,0.020,-0.014,0.992,0.000,0.000,0.000,0.0100,-3,0,0.00,0.00,0.00,0.0000,0.0000,0.0000,0.0000,0.0000,0.0000,0.0000,0.00,0.00,0.00,1.0910,0.1360,1.3290,1.0650,2.7030,0,0.0000,0.0000,0.0000,0.0000,0.0000,0
5254,-0.0021,0.0086,0.0104,-0.0133,0.0527,-0.0001,-1.12,0.77,0.23,0,3.526,0.400,-0.577,-1.739,-0.020,0.022,0.999,0.000,0.000,0.000,0.0080,-26,2,0.00,0.00,0.00,0.0000,0.0000,0.0000,0.0000,0.0000,0.0000,0.0000,0.00,0.00,0.00,1.0990,0.1410,1.3290,1.0650,2.7030,0,0.0000,0.0000,0.0000,0.0000,0.0000,0
5306,-0.0023,0.0134,0.0101,-0.0169,0.0720,-0.0014,-1.43,0.77,0.22,0,3.526,0.715,-0.923,14.580,-0.012,0.006,0.980,0.000,0.000,0.000,0.0120,-26,4,0.00,0.00,0.00,0.0000,0.0000,0.0000,0.0000,0.0000,0.0000,0.0000,0.00,0.00,0.00,1.0990,0.1410,1.3320,1.0610,2.7020,0,0.0000,0.0000,0.0000,0.0000,0.0000,0
5358,-0.0039,0.0325,0.0066,-0.0261,0.1544,-0.0217,-1.97,0.79,0.83,0,3.526,0.941,-5.975,16.797,0.023,-0.032,1.023,0.000,0.000,0.000,0.0110,-47,11,0.00,0.00,0.00,0.0000,0.0000,0.0000,0.0000,0.0000,0.0000,0.0000,0.00,0.00,0.00,1.0860,0.1660,1.3320,1.0610,2.7020,0,0.0000,0.0000,0.0000,0.0000,0.0000,0
5409,-0.0081,0.0567,0.0038,-0.0471,0.2526,-0.0341,-2.77,1.02,1.87,0,3.521,8.081,-7.583,6.134,0.002,-0.043,1.002,0.000,0.000,0.000,0.0110,-6,4,0.00,0.00,0.00,0.0000,0.0000,0.0000,0.0000,0.0000,0.0000,0.0000,0.00,0.00,0.00,1.0860,0.1660,1.3280,1.0670,2.6930,0,0.0000,0.0000,0.0000,0.0000,0.0000,0
5460,-0.0131,0.0833,0.0021,-0.0664,0.3283,-0.0349,-2.67,1.05,2.26,0,3.521,2.969,-1.621,-2.212,0.011,-0.036,0.997,0.000,0.000,0.000,0.0100,-7,-4,0.00,0.00,0.00,0.0000,0.0000,0.0000,0.0000,0.0000,0.0000,0.0000,0.00,0.00,0.00,1.0870,0.2640,1.3280,1.0670,2.6930,0,0.0000,0.0000,0.0000,0.0000,0.0000,0
5511,-0.0162,0.0946,0.0081,-0.0723,0.3207,0.0058,-2.38,0.99,2.26,0,3.531,-0.192,0.020,-3.748,-0.001,-0.049,1.002,0.000,0.000,0.000,0.0110,-17,0,0.00,0.00,0.00,0.0000,0.0000,0.0000,0.0000,0.0000,0.0000,0.0000,0.00,0.00,0.00,1.0870,0.2640,1.3280,1.0690,2.7070,0,0.0000,0.0000,0.0000,0.0000,0.0000,0
5562,-0.0155,0.0975,0.0134,-0.0609,0.2827,0.0377,-1.75,0.87,2.03,0,3.542,31.274,-1.688,-5.754,0.012,-0.014,1.031,0.000,0.000,0.000,0.0100,-23,14,0.00,0.00,0.00,0.0000,0.0000,0.0000,0.0000,0.0000,0.0000,0.0000,0.00,0.00,0.00,1.0970,0.1830,1.3280,1.0690,2.7070,0,0.0000,0.0000,0.0000,0.0000,0.0000,0
5613,-0.0126,0.0991,0.0183,-0.0382,0.2299,0.0772,0.10,0.76,1.81,0,3.526,24.915,5.499,11.604,0.002,-0.020,0.993,0.000,0.000,0.000,0.0150,16,15,0.00,0.00,0.00,0.0000,0.0000,0.0000,0.0000,0.0000,0.0000,0.0000,0.00,0.00,0.00,1.0970,0.1830,1.3460,1.0610,2.6990,0,0.0000,0.0000,0.0000,0.0000,0.0000,0
5664,-0.0248,0.0964,0.0191,-0.0968,0.1558,0.0686,2.25,1.16,2.20,0,3.521,-3.595,2.582,13.249,0.006,-0.005,0.971,0.000,0.000,0.000,0.0130,19,5,0.00,0.00,0.00,0.0000,0.0000,0.0000,0.0000,0.0000,0.0000,0.0000,0.00,0.00,0.00,1.1090,0.2790,1.3460,1.0610,2.6990,0,0.0000,0.0000,0.0000,0.0000,0.0000,0
5715,-0.0325,0.0740,0.0182,-0.1198,-0.0088,0.0384,3.48,1.19,2.81,0,3.500,-25.723,2.912,14.404,0.007,0.007,0.981,0.000,0.000,0.000,0.0150,27,5,0.00,0.00,0.00,0.0000,0.0000,0.0000,0.0000,0.0000,0.0000,0.0000,0.00,0.00,0.00,1.1090,0.2790,1.4170,1.0390,2.7090,0,0.0000,0.0000,0.0000,0.0000,0.0000,0
5766,-0.0370,0.0423,0.0093,-0.1217,-0.1847,-0.0270,3.43,1.10,3.43,0,3.484,-46.782,1.066,16.820,0.025,0.002,0.955,0.000,0.000,0.000,0.0130,52,9,0.00,0.00,0.00,0.0000,0.0000,0.0000,0.0000,0.0000,0.0000,0.0000,0.00,0.00,0.00,1.0950,0.2720,1.4170,1.0390,2.7090,0,0.0000,0.0000,0.0000,0.0000,0.0000,0
5817,-0.0415,0.0186,0.0060,-0.1211,-0.2787,-0.0518,2.14,1.07,4.20,0,3.479,-6.110,25.174,2.175,0.017,-0.007,0.954,0.000,0.000,0.000,0.0110,6,0,0.00,0.00,0.00,0.0000,0.0000,0.0000,0.0000,0.0000,0.0000,0.0000,0.00,0.00,0.00,1.0950,0.2720,1.3860,1.0640,2.7040,0,0.0000,0.0000,0.0000,0.0000,0.0000,0
5868,-0.0409,-0.0065,0.0064,-0.0936,-0.3460,0.0070,2.00,-0.08,4.31,0,3.484,-19.778,14.343,-4.128,0.015,-0.018,1.014,0.000,0.000,0.000,0.0110,35,-9,0.00,0.00,0.00,0.0000,0.0000,0.0000,0.0000,0.0000,0.0000,0.0000,0.00,0.00,0.00,1.0310,0.0000,1.3860,1.0640,2.7040,0,0.0000,0.0000,0.0000,0.0000,0.0000,0
5919,-0.0394,-0.0189,0.0122,-0.0597,-0.3339,0.0428,1.15,-0.92,4.00,0,3.479,-52.809,-17.693,-13.733,0.016,-0.011,1.029,0.000,0.000,0.000,0.0120,1,-24,0.00,0.00,0.00,0.0000,0.0000,0.0000,0.0000,0.0000,0.0000,0.0000,0.00,0.00,0.00,1.0310,0.0000,1.3710,1.0710,2.7010,0,0.0000,0.0000,0.0000,0.0000,0.0000,0
5971,-0.0325,-0.0309,0.0156,-0.0033,-0.3132,0.0626,-1.96,-0.89,3.18,0,3.484,-35.401,-2.317,-14.350,0.004,-0.020,0.960,0.000,0.000,0.000,0.0050,-23,-13,0.00,0.00,0.00,0.0000,0.0000,0.0000,0.0000,0.0000,0.0000,0.0000,0.00,0.00,0.00,1.0780,0.0000,1.3710,1.0710,2.7010,0,0.0000,0.0000,0.0000,0.0000,0.0000,0
6021,-0.0182,-0.0221,0.0198,0.0713,-0.1742,0.0710,-4.70,-1.33,2.22,0,3.457,30.396,12.840,-13.469,-0.001,-0.033,0.947,0.000,0.000,0.000,0.0010,-75,-26,0.00,0.00,0.00,0.0000,0.0000,0.0000,0.0000,0.0000,0.0000,0.0000,0.00,0.00,0.00,1.0780,0.0000,0.0000,1.0760,2.7120,0,0.0000,0.0000,0.0000,0.0000,0.0000,0
6072,-0.0059,0.0203,0.0073,0.1213,0.1013,-0.0204,-5.68,-2.28,1.21,0,3.405,54.998,-7.022,-14.116,-0.001,-0.030,1.001,0.000,0.000,0.000,0.0080,-37,-15,0.00,0.00,0.00,0.0000,0.0000,0.0000,0.0000,0.0000,0.0000,0.0000,0.00,0.00,0.00,1.0630,0.0000,0.0000,1.0760,2.7120,0,0.0000,0.0000,0.0000,0.0000,0.0000,0
6123,0.0132,0.0946,-0.0347,0.2032,0.4496,-0.2457,-5.00,-2.63,0.24,0,3.362,106.904,-44.076,-7.778,0.011,-0.020,1.112,0.000,0.000,0.000,0.0130,-136,-42,0.00,0.00,0.00,0.0000,0.0000,0.0000,0.0000,0.0000,0.0000,0.0000,0.00,0.00,0.00,1.0630,0.0000,1.2930,1.0770,2.7050,0,0.0000,0.0000,0.0000,0.0000,0.0000,0
6174,0.0336,0.1362,-0.0399,0.2709,0.5798,-0.1997,-1.07,-1.30,-0.14,0,3.415,84.725,-13.091,1.106,0.005,0.014,1.123,0.000,0.000,0.000,0.0000,-41,-17,0.00,0.00,0.00,0.0000,0.0000,0.0000,0.0000,0.0000,0.0000,0.0000,0.00,0.00,0.00,1.1050,0.1440,1.2930,1.0770,2.7050,0,0.0000,0.0000,0.0000,0.0000,0.0000,0
6225,0.0452,0.1788,-0.0274,0.2677,0.6623,-0.0369,2.37,-0.42,-0.28,0,3.410,173.744,-65.626,3.467,-0.014,-0.021,1.088,0.000,0.000,0.000,0.0000,-28,-21,0.00,0.00,0.00,0.0000,0.0000,0.0000,0.0000,0.0000,0.0000,0.0000,0.00,0.00,0.00,1.1050,0.1440,1.4150,0.0000,2.7030,0,0.0000,0.0000,0.0000,0.0000,0.0000,0
6277,0.0622,0.2169,-0.0147,0.2802,0.6504,0.0840,10.47,2.87,-0.47,0,3.442,8.335,-60.584,3.495,0.002,-0.010,0.993,0.000,0.000,0.000,0.0030,10,-2,0.00,0.00,0.00,0.0000,0.0000,0.0000,0.0000,0.0000,0.0000,0.0000,0.00,0.00,0.00,1.1800,0.1250,1.4150,0.0000,2.7030,0,0.0000,0.0000,0.0000,0.0000,0.0000,0
6328,0.0701,0.2365,0.0062,0.2135,0.4802,0.1805,13.13,6.24,-0.73,0,3.442,-7.773,31.766,6.354,0.007,-0.009,1.002,0.000,0.000,0.000,0.0090,-17,17,0.00,0.00,0.00,0.0000,0.0000,0.0000,0.0000,0.0000,0.0000,0.0000,0.00,0.00,0.00,1.1800,0.1250,1.8360,0.0730,2.8010,0,0.0000,0.0000,0.0000,0.0000,0.0000,0
6379,0.0706,0.2387,0.0166,0.1168,0.2685,0.1884,13.14,5.62,0.07,0,3.426,-28.938,43.254,5.565,0.019,-0.009,0.973,0.000,0.000,0.000,0.0150,0,14,0.00,0.00,0.00,0.0000,0.0000,0.0000,0.0000,0.0000,0.0000,0.0000,0.00,0.00,0.00,1.2570,0.1580,1.8360,0.0730,2.8010,0,0.0000,0.0000,0.0000,0.0000,0.0000,0
6430,0.0686,0.2410,0.0208,0.0439,0.1200,0.1487,11.99,3.89,0.81,0,3.405,-70.939,8.733,1.837,0.015,0.005,0.970,0.000,0.000,0.000,0.0190,-1,6,0.00,0.00,0.00,0.0000,0.0000,0.0000,0.0000,0.0000,0.0000,0.0000,0.00,0.00,0.00,1.2570,0.1580,1.8590,0.0000,2.7890,0,0.0000,0.0000,0.0000,0.0000,0.0000,0
6482,0.0563,0.2431,0.0233,-0.0482,0.0201,0.1027,8.63,3.71,1.41,0,3.394,-47.714,35.744,-3.380,0.012,0.012,0.999,0.000,0.000,0.000,0.0210,6,-6,0.00,0.00,0.00,0.0000,0.0000,0.0000,0.0000,0.0000,0.0000,0.0000,0.00,0.00,0.00,1.2260,0.5410,1.8590,0.0000,2.7890,0,0.0000,0.0000,0.0000,0.0000,0.0000,0
6533,0.0524,0.2443,0.0254,-0.0799,-0.0433,0.0763,6.13,1.91,1.39,0,3.384,-59.363,42.101,2.078,0.018,0.006,1.019,0.000,0.000,0.000,0.0230,0,-10,0.00,0.00,0.00,0.0000,0.0000,0.0000,0.0000,0.0000,0.0000,0.0000,0.00,0.00,0.00,1.2260,0.5410,1.8960,0.0000,2.7310,0,0.0000,0.0000,0.0000,0.0000,0.0000,0
6585,0.0581,0.2477,0.0279,-0.0514,-0.0641,0.0678,2.96,-0.46,1.39,0,3.373,-28.541,14.794,7.672,0.010,0.013,1.082,0.000,0.000,0.000,0.0260,1,-14,0.00,0.00,0.00,0.0000,0.0000,0.0000,0.0000,0.0000,0.0000,0.0000,0.00,0.00,0.00,1.2070,0.5780,1.8960,0.0000,2.7310,0,0.0000,0.0000,0.0000,0.0000,0.0000,0
6636,0.0665,0.2455,0.0291,0.0009,-0.0844,0.0833,1.41,-1.68,1.43,0,3.368,10.597,-5.353,8.310,0.009,0.004,1.096,0.000,0.000,0.000,0.0330,-16,5,0.00,0.00,0.00,0.0000,0.0000,0.0000,0.0000,0.0000,0.0000,0.0000,0.00,0.00,0.00,1.2070,0.5780,1.8330,0.9350,2.6850,0,0.0000,0.0000,0.0000,0.0000,0.0000,0
6687,0.0678,0.2432,0.0327,0.0175,-0.0885,0.1256,1.60,-1.34,1.99,0,3.373,-18.318,-0.724,11.500,0.004,0.001,1.063,0.000,0.000,0.000,0.0420,4,-3,0.00,0.00,0.00,0.0000,0.0000,0.0000,0.0000,0.0000,0.0000,0.0000,0.00,0.00,0.00,1.2770,0.6300,1.8330,0.9350,2.6850,0,0.0000,0.0000,0.0000,0.0000,0.0000,0
6738,0.0656,0.2454,0.0400,0.0139,-0.0709,0.1604,0.76,-1.18,2.54,0,3.384,-24.520,-13.690,7.064,0.029,0.009,1.054,0.000,0.000,0.000,0.0470,-31,0,0.00,0.00,0.00,0.0000,0.0000,0.0000,0.0000,0.0000,0.0000,0.0000,0.00,0.00,0.00,1.2770,0.6300,1.9500,0.8730,2.6640,0,0.0000,0.0000,0.0000,0.0000,0.0000,0
6789,0.0656,0.2463,0.0492,0.0182,-0.0531,0.1910,-0.88,-0.64,2.96,0,3.384,-10.625,6.792,7.295,0.004,0.021,1.049,0.000,0.000,0.000,0.0550,0,0,0.00,0.00,0.00,0.0000,0.0000,0.0000,0.0000,0.0000,0.0000,0.0000,0.00,0.00,0.00,1.4910,0.6250,1.9500,0.8730,2.6640,0,0.0000,0.0000,0.0000,0.0000,0.0000,0
6840,0.0723,0.2613,0.0567,0.0496,0.0354,0.1983,-1.58,-0.81,3.22,0,3.384,43.836,-8.479,-0.538,0.006,0.016,1.029,0.000,0.000,0.000,0.0690,21,-3,0.00,0.00,0.00,0.0000,0.0000,0.0000,0.0000,0.0000,0.0000,0.0000,0.00,0.00,0.00,1.4910,0.6250,1.9980,0.8090,2.6450,0,0.0000,0.0000,0.0000,0.0000,0.0000,0
6891,0.0719,0.2512,0.0665,0.0409,-0.0136,0.2195,0.99,-0.35,3.29,0,3.389,3.368,-3.328,-3.276,0.022,0.012,1.013,0.000,0.000,0.000,0.0930,-2,3,0.00,0.00,0.00,0.0000,0.0000,0.0000,0.0000,0.0000,0.0000,0.0000,0.00,0.00,0.00,1.5050,0.6130,1.9980,0.8090,2.6450,0,0.0000,0.0000,0.0000,0.0000,0.0000,0
6943,0.0690,0.2500,0.0784,0.0168,-0.0187,0.2346,1.02,0.06,3.07,0,3.410,-24.677,-6.058,-5.657,0.017,0.022,1.013,0.000,0.000,0.000,0.0950,12,11,0.00,0.00,0.00,0.0000,0.0000,0.0000,0.0000,0.0000,0.0000,0.0000,0.00,0.00,0.00,1.5050,0.6130,2.1460,0.7330,2.6370,0,0.0000,0.0000,0.0000,0.0000,0.0000,0
6995,0.0639,0.2533,0.0978,-0.0145,-0.0035,0.2731,-0.07,0.65,2.73,0,3.399,5.783,17.034,-8.405,0.013,0.023,1.004,0.000,0.000,0.000,0.1060,-25,6,0.00,0.00,0.00,0.0000,0.0000,0.0000,0.0000,0.0000,0.3000,0.2736,16.55,3.68,-82.03,1.4060,0.5870,2.1460,0.7330,2.6370,0,0.0000,0.0000,0.0000,0.0000,0.0000,0
7047,0.0591,0.2543,0.1087,-0.0386,0.0029,0.2653,-0.20,-0.09,2.24,0,3.405,13.610,23.711,-9.856,0.016,0.016,0.983,0.000,0.000,0.000,0.1200,-8,5,-0.07,-0.65,2.73,0.0639,0.2533,0.1060,0.0000,0.0000,0.3000,0.2724,16.95,2.27,-67.28,1.4060,0.5870,2.2210,0.6500,2.6150,0,0.0000,0.0000,0.0000,0.0000,0.0000,0
7099,0.0533,0.2546,0.1208,-0.0582,0.0003,0.2555,0.63,-1.10,1.77,0,3.399,-1.083,10.440,-8.995,0.017,0.017,0.980,0.000,0.000,0.000,0.1340,18,6,0.16,-1.54,2.22,0.0513,0.2705,0.1153,0.0000,0.0000,0.3000,0.2712,16.94,0.99,-53.06,1.3400,0.5420,2.2210,0.6500,2.6150,0,0.0000,0.0000,0.0000,0.0000,0.0000,0
7150,0.0478,0.2557,0.1315,-0.0631,0.0008,0.2391,0.80,-1.48,1.41,0,3.405,-5.406,2.772,-8.045,0.018,0.018,0.978,0.000,0.000,0.000,0.1400,24,10,13.95,-0.30,1.97,0.0441,0.2442,0.1662,0.0000,0.0000,0.3000,0.2709,17.04,0.40,-42.42,1.3400,0.5420,2.3090,0.5630,2.5980,0,0.0000,0.0000,0.0000,0.0000,0.0000,0
7201,0.0428,0.2555,0.1445,-0.0606,-0.0036,0.2344,0.56,-1.61,0.99,0,3.399,-4.728,3.953,-7.518,0.006,0.024,0.985,0.000,0.000,0.000,0.1550,5,5,21.25,2.44,1.47,0.0331,0.2169,0.1148,0.0000,0.0000,0.3000,0.2690,16.96,0.17,-29.79,1.3080,0.4840,2.3090,0.5630,2.5980,0,0.0000,0.0000,0.0000,0.0000,0.0000,0
7252,0.0358,0.2565,0.1523,-0.0666,0.0013,0.2094,0.07,-1.67,0.55,0,3.405,-5.407,3.006,-6.122,0.013,0.030,0.982,0.000,0.000,0.000,0.1520,-4,-7,14.75,2.01,1.31,0.0213,0.1810,0.1780,0.0000,0.0000,0.3000,0.2702,17.17,-0.59,-16.63,1.3080,0.4840,2.3830,0.4650,2.5760,0,0.0000,0.0000,0.0000,0.0000,0.0000,0
7303,0.0307,0.2513,0.1639,-0.0611,-0.0217,0.2065,-0.12,-1.89,0.25,0,3.389,1.294,3.079,-2.178,0.013,0.031,0.981,0.000,0.000,0.000,0.1610,-15,0,4.12,-4.48,0.36,0.0296,0.1721,0.2158,0.0000,0.0000,0.3000,0.2684,15.98,-0.68,-7.37,0.0000,0.3110,2.3830,0.4650,2.5760,0,0.0000,0.0000,0.0000,0.0000,0.0000,0
7355,0.0298,0.2497,0.1668,-0.0381,-0.0234,0.1661,-0.19,-2.07,0.07,0,3.384,-2.077,0.472,-4.453,0.014,0.024,0.985,0.000,0.000,0.000,0.1680,8,-4,-6.64,-4.31,-0.48,0.0334,0.2192,0.1810,0.0000,0.0000,0.3000,0.2722,15.59,0.30,-2.18,0.0000,0.3110,2.4440,0.3620,2.5630,0,0.0000,0.0000,0.0000,0.0000,0.0000,0
7407,0.0311,0.2514,0.1720,-0.0091,-0.0109,0.1447,-0.16,-2.17,-0.03,0,3.384,-11.602,-12.475,-6.644,0.009,0.029,1.000,0.000,0.000,0.000,0.1790,-5,-3,-2.01,-5.18,0.29,0.0421,0.1973,0.2196,0.0000,0.0000,0.3000,0.2735,16.16,1.71,0.75,0.0000,0.2730,2.4440,0.3620,2.5630,0,0.0000,0.0000,0.0000,0.0000,0.0000,0
7459,0.0314,0.2425,0.1764,0.0098,-0.0415,0.1288,-0.50,-1.70,-0.26,0,3.384,-5.838,-16.720,-4.025,0.009,0.032,1.014,0.000,0.000,0.000,0.1860,7,0,-3.77,-3.96,-0.59,0.0470,0.2105,0.2145,0.0000,0.0000,0.3000,0.2744,14.27,2.57,7.84,0.0000,0.2730,2.5320,0.2670,2.5400,0,0.0000,0.0000,0.0000,0.0000,0.0000,0
7510,0.0317,0.2400,0.1842,0.0208,-0.0393,0.1390,-0.79,-0.87,-0.45,0,3.384,7.140,-6.260,-0.692,0.006,0.033,0.999,0.000,0.000,0.000,0.1960,31,0,-1.72,-2.01,-0.94,0.0469,0.1992,0.2239,0.0000,0.0000,0.3000,0.2718,14.33,3.12,13.50,0.8200,0.2940,2.5320,0.2670,2.5400,0,0.0000,0.0000,0.0000,0.0000,0.0000,0
7561,0.0321,0.2283,0.1914,0.0247,-0.0694,0.1415,-0.05,-0.45,-0.41,0,3.389,-29.958,-16.572,2.720,0.006,0.030,1.009,0.000,0.000,0.000,0.2040,6,-2,4.64,-1.06,-0.15,0.0461,0.1429,0.2207,0.0000,0.0000,0.3000,0.2702,12.35,3.34,12.44,0.8200,0.2940,2.5990,0.1670,2.5140,0,0.0000,0.0000,0.0000,0.0000,0.0000,0
7613,0.0330,0.2220,0.2009,0.0261,-0.0749,0.1551,-1.33,0.28,-0.36,0,3.389,-65.062,-4.615,3.118,-0.006,0.030,1.030,0.000,0.000,0.000,0.2140,27,0,2.39,-0.13,-0.24,0.0502,0.1289,0.2281,0.0000,0.0000,0.3000,0.2670,11.84,3.51,10.67,0.0000,0.2990,2.5990,0.1670,2.5140,0,0.0000,0.0000,0.0000,0.0000,0.0000,0
7663,0.0339,0.2084,0.2096,0.0217,-0.0931,0.1699,-4.16,0.67,-0.12,0,3.389,-15.281,18.980,10.997,0.057,0.072,0.991,0.000,0.000,0.000,0.2250,22,3,1.64,0.49,-0.37,0.0472,0.0767,0.2159,0.0000,0.0000,0.3000,0.2637,10.24,3.41,3.49,0.0000,0.2990,2.6480,0.0580,2.2480,0,0.0000,0.0000,0.0000,0.0000,0.0000,0
7714,0.0345,0.1928,0.2206,0.0155,-0.0917,0.1858,-4.86,-0.34,0.84,0,3.294,163.174,-159.366,-132.222,0.144,-0.278,0.924,0.000,0.000,0.000,0.2350,-10,1,2.06,0.21,-0.43,0.0387,0.0302,0.2115,0.0000,0.0000,0.3000,0.2599,9.37,3.21,-25.11,0.0000,0.1390,2.6480,0.0580,2.2480,0,0.0000,0.0000,0.0000,0.0000,0.0000,0
7765,0.0307,0.1766,0.2304,0.0057,-0.1154,0.1608,4.73,1.85,0.22,0,3.246,105.938,17.060,-4.244,0.119,0.149,0.753,0.000,0.000,0.000,0.2480,-2,-6,7.81,7.99,-7.03,0.0451,0.0346,0.2661,0.0000,0.0000,0.3000,0.2608,7.11,2.47,-6.67,0.0000,0.1390,0.0000,0.0290,0.0000,0,0.0000,0.0000,0.0000,0.0000,0.0000,0
7816,0.0286,0.1661,0.2376,-0.0125,-0.1674,0.0518,11.89,2.11,-0.11,0,3.315,191.045,-90.073,29.240,0.001,-0.063,0.828,0.000,0.000,0.000,0.2630,-32,-6,11.71,6.79,-5.66,0.0631,0.0350,0.2739,0.0000,0.0000,0.3000,0.2712,3.78,1.39,3.36,0.4550,0.1800,0.0000,0.0290,0.0000,0,0.0000,0.0000,0.0000,0.0000,0.0000,0
7868,0.0265,0.1353,0.2397,-0.0349,-0.3212,-0.0684,21.67,6.66,-0.01,0,3.310,-135.340,51.239,35.102,0.007,-0.061,0.929,0.000,0.000,0.000,0.2590,22,8,16.68,12.17,0.16,0.0979,0.1026,0.3054,0.0000,0.0000,0.3000,0.2838,-5.09,0.22,0.24,0.4550,0.1800,0.0000,0.0430,0.1030,0,0.0000,0.0000,0.0000,0.0000,0.0000,0
7919,0.0255,0.1390,0.2456,-0.0766,-0.4166,-0.0962,17.68,6.24,2.00,0,3.347,-433.000,99.542,37.866,0.030,-0.037,1.046,0.000,0.000,0.000,0.2180,24,14,11.66,10.43,-0.50,0.0654,0.0430,0.3000,0.0000,0.0000,0.3000,0.2857,-8.88,-1.65,-59.88,0.6820,0.2000,0.0000,0.0430,0.1030,0,0.0689,0.0646,0.0000,0.0689,0.0646,0
7970,0.0219,0.1566,0.2466,-0.1100,-0.4140,-0.0793,-3.46,1.75,4.79,0,3.399,-366.098,21.623,33.244,0.031,-0.014,1.088,0.000,0.000,0.000,0.2230,17,3,-9.56,6.51,-0.26,0.0182,-0.0101,0.2733,0.0000,0.0000,0.3000,0.2837,-7.71,-3.35,-143.65,0.6820,0.2000,0.0000,0.0560,0.1320,0,0.0689,0.0646,0.0000,0.0689,0.0646,0
8021,0.0151,0.2180,0.2269,-0.1273,-0.1107,-0.1494,-23.98,-0.53,6.32,0,3.384,-101.111,21.409,27.758,0.017,0.016,1.062,0.000,0.000,0.000,0.1900,-9,8,-28.07,4.87,-0.07,0.0098,-0.0488,0.2657,0.0000,0.0000,0.3000,0.2950,9.06,-4.37,-189.67,0.0000,0.1910,0.0000,0.0560,0.1320,0,0.0689,0.0646,0.0000,0.0689,0.0646,0
8072,0.0092,0.2130,0.2152,-0.1448,0.1027,-0.1919,-30.95,-2.06,6.99,0,3.278,221.898,27.735,19.837,0.018,-0.006,1.099,0.000,0.000,0.000,0.2130,-28,2,-34.99,1.05,3.27,0.0204,-0.0164,0.2244,0.0000,0.0000,0.3000,0.3018,16.87,-5.35,-209.78,0.0000,0.1910,0.0000,0.0520,0.0000,0,0.0689,0.0646,0.0000,0.0689,0.0646,0
8123,0.0027,0.2290,0.1821,-0.1547,0.3786,-0.3154,-22.40,-3.76,7.38,0,3.315,336.924,5.541,-0.010,0.020,-0.080,1.116,0.000,0.000,0.000,0.1880,2,4,-25.15,-3.32,6.68,0.0427,0.0548,0.1752,0.0000,0.0000,0.3000,0.3214,25.00,-5.77,-221.41,0.0000,0.1410,0.0000,0.0520,0.0000,0,0.0689,0.0646,0.0000,0.0689,0.0646,0
8175,-0.0034,0.1996,0.1842,-0.1381,0.4137,-0.2027,-4.64,-4.10,7.32,0,3.289,163.088,-9.929,-18.881,0.007,-0.082,1.130,0.000,0.000,0.000,0.1740,-38,-3,-6.70,-3.47,6.56,0.0248,0.0311,0.2006,0.0000,0.0000,0.3000,0.3088,25.00,-5.71,-219.50,0.0000,0.1410,0.0000,0.0820,0.0000,0,0.0689,0.0646,0.0000,0.0689,0.0646,0
8227,-0.0006,0.1503,0.1787,-0.0776,0.2482,-0.1411,5.58,-3.86,6.56,0,3.304,-20.409,-7.173,-28.453,-0.003,-0.045,1.163,0.000,0.000,0.000,0.1760,-3,-3,0.26,-3.50,7.38,0.0367,0.1248,0.1809,0.0000,0.0000,0.3000,0.3032,18.70,-3.19,-196.67,0.7940,0.2110,0.0000,0.0820,0.0000,0,0.0689,0.0646,0.0000,0.0689,0.0646,0
8279,-0.0008,0.1692,0.1719,-0.0276,0.2123,-0.0767,5.91,-3.74,5.21,0,3.315,7.266,-4.297,-35.460,0.000,-0.033,1.195,0.000,0.000,0.000,0.1720,-23,-12,0.14,-3.32,7.28,0.0418,0.1307,0.2045,0.0000,0.0000,0.3000,0.2975,18.75,-1.19,-156.38,0.7940,0.2110,2.4300,0.0000,0.3260,0,0.0689,0.0646,0.0000,0.0689,0.0646,0
8330,0.0004,0.1731,0.1721,0.0185,0.1425,0.0183,5.60,-3.79,3.51,0,3.331,24.398,-18.355,-33.007,0.003,-0.032,1.170,0.000,0.000,0.000,0.1740,-7,-4,0.20,-3.78,6.79,0.0698,0.1637,0.1914,0.0000,0.0000,0.3000,0.2872,16.89,0.84,-105.28,0.8040,0.2900,2.4300,0.0000,0.3260,0,0.0689,0.0646,0.0000,0.0689,0.0646,0
8381,0.0093,0.1873,0.1750,0.0765,0.1062,0.1015,6.65,-3.18,1.77,0,3.347,-8.433,-31.580,-20.637,0.004,-0.033,1.151,0.000,0.000,0.000,0.1830,-1,-6,1.86,-2.79,5.42,0.0768,0.1757,0.2040,0.0000,0.0000,0.3000,0.2777,16.83,4.04,-52.99,0.8040,0.2900,2.6980,0.1330,0.0000,0,0.0689,0.0646,0.0000,0.0689,0.0646,0
8432,0.0154,0.1889,0.1814,0.1103,0.0339,0.1724,6.47,-1.76,0.45,0,3.362,-37.916,-23.917,-13.516,0.001,-0.013,1.122,0.000,0.000,0.000,0.1910,7,-8,2.01,-1.19,4.87,0.0900,0.1729,0.2138,0.0000,0.0000,0.3000,0.2689,14.37,6.13,-13.48,0.8930,0.3530,2.6980,0.1330,0.0000,0,0.0689,0.0646,0.0000,0.0689,0.0646,0
8484,0.0230,0.1951,0.1916,0.1286,-0.0075,0.2341,4.67,-0.43,-0.38,0,3.373,9.541,-13.534,-2.536,0.002,-0.018,1.056,0.000,0.000,0.000,0.2010,3,-4,0.83,-0.03,4.78,0.1086,0.1517,0.2210,0.0000,0.0000,0.3000,0.2603,13.40,7.72,11.41,0.8930,0.3530,2.7510,0.1300,0.0000,0,0.0689,0.0646,0.0000,0.0689,0.0646,0
8536,0.0315,0.1905,0.2040,0.1359,-0.0586,0.2697,4.65,0.40,-0.64,0,3.384,-47.206,-17.854,-0.616,0.002,-0.006,1.021,0.000,0.000,0.000,0.2180,26,-5,1.61,0.80,4.83,0.1172,0.1407,0.2300,0.0000,0.0000,0.3000,0.2541,11.02,8.86,19.17,0.0000,0.4760,2.7510,0.1300,0.0000,0,0.0689,0.0646,0.0000,0.0689,0.0646,0
8588,0.0383,0.1916,0.2153,0.1307,-0.0834,0.2730,2.73,1.06,-0.69,0,3.394,-88.586,-2.063,-5.840,0.004,0.015,1.065,0.000,0.000,0.000,0.2240,5,-2,0.33,1.82,5.30,0.1325,0.0792,0.2307,0.0000,0.0000,0.3000,0.2516,10.02,9.19,20.80,0.0000,0.4760,2.7320,0.1060,0.0000,0,0.0689,0.0646,0.0000,0.0689,0.0646,0
8639,0.0454,0.1894,0.2306,0.1231,-0.0870,0.2951,-1.91,1.16,-1.00,0,3.399,-8.956,3.000,-5.659,-0.008,0.014,1.081,0.000,0.000,0.000,0.2390,11,-2,-4.35,2.04,5.02,0.1376,0.0697,0.2478,0.0000,0.0000,0.3000,0.2464,9.90,9.53,29.91,0.7510,0.0000,2.7320,0.1060,0.0000,0,0.0689,0.0646,0.0000,0.0689,0.0646,0
8690,0.0499,0.1737,0.2414,0.1094,-0.1006,0.3134,-2.62,1.11,-1.22,0,3.405,8.558,-20.523,2.996,0.002,0.012,1.045,0.000,0.000,0.000,0.2520,12,-7,-4.55,1.97,4.73,0.1435,0.0457,0.2612,0.0000,0.0000,0.3000,0.2423,8.21,9.34,36.68,0.7510,0.0000,2.6310,0.0960,0.0000,0,0.0689,0.0646,0.0000,0.0689,0.0646,0
8741,0.0550,0.1658,0.2566,0.0987,-0.0865,0.3367,-2.24,1.89,-1.03,0,3.352,519.806,310.563,19.693,-0.284,0.344,0.645,0.000,0.000,0.000,0.2760,-31,20,-3.84,2.80,5.08,0.1606,0.0204,0.2751,0.0000,0.0000,0.3000,0.2369,8.52,9.40,30.84,0.6840,0.0000,2.6310,0.0960,0.0000,0,0.0689,0.0646,0.0000,0.0689,0.0646,0
8793,0.0639,0.1375,0.2698,0.0977,-0.1441,0.2516,13.16,-6.75,0.36,0,3.399,435.760,322.208,-17.848,0.088,-0.073,0.921,0.000,0.000,0.000,0.3530,-68,-9,22.14,-12.12,7.96,0.1097,0.0692,0.3161,0.0000,0.0000,0.3000,0.2437,3.26,9.76,-10.72,0.6840,0.0000,0.0000,0.0430,0.0000,0,0.0689,0.0646,0.0000,0.0689,0.0646,0
8845,0.0626,0.1200,0.2842,0.1483,-0.2985,0.1757,41.66,-17.25,5.48,0,3.336,425.589,-135.591,50.039,-1.149,1.176,-0.815,0.000,0.000,0.000,0.5780,0,0,45.47,-29.27,14.25,0.1225,0.1759,0.3995,0.0000,0.0000,0.3000,0.2491,-5.76,11.88,-164.51,0.0000,0.1100,0.0000,0.0430,0.0000,0,0.0689,0.0646,0.0000,0.0689,0.0646,0
8897,0.0754,0.1043,0.2985,0.2096,-0.3308,-0.1473,59.15,-13.92,1.03,0,3.352,-186.144,-274.621,-116.151,0.067,0.060,0.567,0.000,0.000,0.000,0.4660,15,-21,65.77,-22.95,9.60,0.1107,0.2408,0.5094,0.0000,0.0000,0.3000,0.2813,-7.53,13.93,-30.88,0.0000,0.1100,0.0000,0.0000,0.0000,0,0.0689,0.0646,0.0000,0.0689,0.0646,0
8949,0.0777,0.1012,0.3044,0.1624,-0.1834,-0.5726,42.80,-15.65,-9.30,0,3.241,-426.755,-435.974,-45.711,-0.029,0.004,0.934,0.000,0.000,0.000,0.3200,12,-16,52.20,-21.81,-6.14,0.2120,0.1451,0.5484,0.0000,0.0000,0.3000,0.3261,-1.11,10.48,279.07,0.0000,0.0000,0.0000,0.0000,0.0000,0,0.0689,0.0646,0.0000,0.0689,0.0646,0
9000,0.0867,0.1054,0.2965,0.1795,-0.4179,-0.6269,27.68,-3.73,-20.63,0,3.225,452.842,246.486,184.504,-0.158,0.245,0.532,0.000,0.000,0.000,0.3260,-31,20,25.86,-6.59,-23.64,0.2528,0.0737,0.4866,0.0000,0.0000,0.3000,0.3335,-9.47,11.35,618.76,0.0000,0.0000,0.0000,0.0490,0.0000,0,0.0689,0.0646,0.0000,0.0689,0.0646,0
9051,0.0935,0.0627,0.2614,0.1599,-0.6291,-0.8618,51.22,-7.24,-5.85,0,3.362,619.713,530.039,67.927,0.026,-0.017,0.741,0.000,0.000,0.000,0.8160,-68,70,50.52,-9.09,-7.22,0.1920,0.1651,0.5137,0.0000,0.0000,0.3000,0.3655,-17.47,10.07,175.56,0.0000,0.1100,0.0000,0.0490,0.0000,0,0.0689,0.0646,0.0000,0.0689,0.0646,0
9103,0.0964,0.0316,0.2113,0.2063,-0.9037,-1.2234,85.61,-11.65,19.64,0,3.157,-713.130,-437.631,-310.451,1.207,-0.465,-0.876,0.000,0.000,0.000,1.5630,31,-26,88.17,-6.97,22.40,0.0795,0.0253,0.7202,0.0000,0.0000,0.3000,0.4140,-24.01,10.39,-589.35,0.0000,0.1100,0.0000,0.0000,0.0350,0,0.0689,0.0646,0.0000,0.0689,0.0646,0
9155,0.1077,-0.0440,0.1878,0.2435,-1.1035,-1.5207,75.52,-18.77,20.60,0,3.315,-202.676,-1227.137,-189.729,-0.223,0.412,0.547,0.000,0.000,0.000,0.1630,-3,-4,42.09,-19.64,-9.39,0.1321,-0.2037,1.0445,0.0000,0.0000,0.3000,0.4506,-25.00,11.00,-617.97,0.0000,0.0000,0.0000,0.0000,0.0350,0,0.0689,0.0646,0.0000,0.0689,0.0646,0
9205,-0.0737,-0.0927,0.1157,0.0270,-1.4483,-1.9167,65.77,0.87,-7.36,0,3.236,371.646,805.148,1180.996,-3.039,13.818,-1.211,0.000,0.000,0.000,0.3370,-38,63,33.16,29.70,-57.28,0.1244,0.0709,0.8144,0.0000,0.0000,0.3000,0.5070,-25.00,-2.03,220.84,0.0000,0.0000,0.0000,0.0230,0.0190,0,0.0689,0.0646,0.0000,0.0689,0.0646,0
9256,-0.2113,-0.1407,-0.0316,-0.1949,-1.5790,-2.8646,93.43,27.76,9.19,0,3.246,-1192.804,30.812,246.732,0.939,-0.935,-1.730,0.000,0.000,0.000,1.4530,0,0,13.24,16.13,35.83,-0.3454,0.1768,0.8293,0.0000,0.0000,0.3000,0.6372,-25.00,-9.84,-275.55,0.0000,0.0000,0.0000,0.0230,0.0190,0,0.0689,0.0646,0.0000,0.0689,0.0646,0
9308,0.3509,-0.9627,0.3433,1.6173,-3.4024,-0.3886,52.70,26.07,39.08,0,3.220,-973.919,-536.312,141.600,0.310,0.591,0.264,0.000,0.000,0.000,0.0950,-14,-58,-50.95,11.37,44.63,-0.7700,0.3882,0.8820,0.0000,0.0000,0.3000,0.2989,-25.00,25.00,-1172.34,0.0000,0.0000,0.0000,0.0740,0.0150,0,0.0689,0.0646,0.0000,0.0689,0.0646,0
9358,0.1579,-0.8264,0.2299,1.2042,-2.9014,-1.7729,38.58,52.76,8.70,0,3.790,740.879,-327.550,212.786,0.753,0.310,0.596,0.000,0.000,0.000,0.1920,-27,-10,-114.39,4.61,74.22,-1.1105,0.8350,0.4667,0.0000,0.0000,0.3000,0.4698,-25.00,25.00,-261.05,0.0000,0.0480,0.0000,0.0740,0.0150,0,0.0689,0.0646,0.0000,-0.6624,0.5206,0
9409,0.0664,-0.8521,0.0247,0.8646,-2.5828,-2.9630,110.15,65.68,-45.24,0,3.790,525.745,126.483,118.656,-0.029,-0.077,0.093,0.000,0.000,0.000,2.5340,-32,5,-75.56,10.25,90.40,-0.5403,1.2136,0.4908,0.0000,0.0000,0.3000,0.6372,-25.00,18.11,1357.30,0.0000,0.0480,0.0000,0.1680,0.0490,0,0.0689,0.0646,0.0000,-0.6624,0.5206,0
9460,0.0778,-0.9660,-0.1044,0.8520,-2.8398,-2.8627,128.55,75.72,-36.47,0,3.790,262.494,-483.857,18.438,1.541,-0.308,0.357,0.000,0.000,0.000,0.6160,-32,-62,-43.35,31.28,75.50,-1.0678,2.3519,0.6912,0.0000,0.0000,0.3000,0.6507,-25.00,17.83,1093.98,0.2400,0.0070,0.0000,0.1680,0.0490,0,0.0689,0.0646,0.0000,-0.6624,0.5206,0
9511,0.0937,-1.0491,-0.2204,1.1125,-3.0311,-2.5282,168.74,65.37,-59.24,0,3.790,117.026,-501.160,-344.315,2.671,-0.299,-0.501,0.000,0.000,0.000,1.3810,-15,-30,-43.50,55.75,93.24,-1.3116,3.0714,0.9374,0.0000,0.0000,0.3000,0.6365,-25.00,23.04,1777.29,0.2400,0.0070,0.0000,0.0000,0.0730,0,0.0689,0.0646,0.0000,-0.6624,0.5206,0
9562,0.1500,-1.1128,-0.3123,1.2909,-3.0441,-2.6211,178.13,40.83,-57.12,0,3.795,-1.319,-669.966,-171.366,0.009,-0.033,0.050,0.000,0.000,0.000,0.0000,-9,-90,113.74,86.10,-58.60,-1.6232,3.9696,1.4856,0.0000,0.0000,0.3000,0.6639,-25.00,25.00,1713.59,0.0670,0.0120,0.0000,0.0000,0.0730,0,0.0689,0.0646,0.0000,-0.6624,0.5206,0
9613,0.2152,-0.8975,-0.3549,1.3603,-2.3546,-2.5087,-178.60,15.22,-51.25,0,3.795,-163.321,-165.496,-185.687,-0.166,-0.316,-4.102,0.000,0.000,0.000,3.0400,14,-22,158.10,49.71,-105.71,-1.9750,4.4383,2.0544,0.0000,0.0000,0.3000,0.6598,-25.00,25.00,1537.40,0.0670,0.0120,0.0710,0.0000,0.0000,0,0.0689,0.0646,0.0000,-0.6624,0.5206,0
9664,0.3986,-0.9072,-0.3121,1.7081,-2.2537,-1.4498,179.83,-10.13,-38.85,0,3.795,165.205,33.993,-236.174,-0.002,-0.017,-0.054,0.000,0.000,0.000,0.2450,9,0,138.35,28.93,-89.57,-2.3672,5.3113,3.3456,0.0000,0.0000,0.3000,0.5374,-25.00,25.00,1165.61,0.0430,0.0000,0.0710,0.0000,0.0000,0,0.0689,0.0646,0.0000,-0.6624,0.5206,0
9715,1.0681,-1.4592,-0.2082,2.4728,-2.7710,-0.4888,-176.58,2.95,-21.06,0,3.801,3.764,123.878,-139.279,0.023,-0.017,0.095,0.000,0.000,0.000,0.2680,5,-11,145.16,34.61,-83.83,-1.3805,6.5393,2.6530,0.0000,0.0000,0.3000,0.4140,-25.00,25.00,631.75,0.0430,0.0000,0.0680,0.0000,0.0040,0,0.0689,0.0646,0.0000,-0.6624,0.5206,0
9766,2.2774,-2.3460,0.0823,3.3432,-3.0398,1.5013,174.89,27.18,-3.53,0,3.801,-194.257,-131.578,-141.585,-0.034,0.015,-1.061,0.000,0.000,0.000,0.2650,1,3,146.39,27.69,-84.54,-1.1130,6.4767,3.2523,0.0000,0.0000,0.3000,0.1441,-25.00,25.00,105.95,0.0000,0.0000,0.0680,0.0000,0.0040,0,0.0689,0.0646,0.0000,-0.6624,0.5206,0
9817,2.6915,-2.6336,0.2673,3.2763,-2.8513,2.0290,170.20,22.15,5.38,0,3.801,-41.374,-18.633,-114.877,-0.003,0.058,-1.118,0.000,0.000,0.000,0.2750,5,1,137.62,13.11,-89.04,-0.3827,6.3983,3.8112,0.0000,0.0000,0.3000,0.0522,-25.00,25.00,-161.50,0.0000,0.0000,0.0450,0.0320,0.0000,0,0.0689,0.0646,0.0000,-0.6624,0.5206,0
9868,2.8816,-2.7768,0.3877,2.8895,-2.6487,2.1035,165.65,23.77,13.12,0,3.801,14.893,5.420,-0.258,-0.046,0.064,-1.006,0.000,0.000,0.000,0.2750,0,0,129.15,4.07,-88.82,1.5008,4.9175,4.0142,0.0000,0.0000,0.3000,0.0214,-25.00,25.00,-393.48,0.0170,0.0320,0.0450,0.0320,0.0000,0,0.0689,0.0646,0.0000,-0.6624,0.5206,0
9919,3.0299,-2.9061,0.5056,2.5689,-2.4986,2.1547,164.18,24.07,14.53,0,3.801,-8.289,-1.655,-0.261,0.002,-0.090,-1.024,0.000,0.000,0.000,0.2740,0,0,117.38,-3.03,-94.31,3.7969,1.1837,3.3851,0.0000,0.0000,0.3000,-0.0064,-25.00,25.00,-436.03,0.0170,0.0320,0.0500,0.0260,0.0140,0,0.0689,0.0646,0.0000,-0.6624,0.5206,0
9971,3.1525,-3.0274,0.6169,2.3068,-2.3789,2.1453,163.52,24.18,14.79,0,3.801,-6.303,-2.030,-0.106,-0.023,0.031,-1.007,0.000,0.000,0.000,0.2780,0,0,104.28,-9.37,-102.13,5.6808,-2.9019,2.0578,0.0000,0.0000,0.3000,-0.0265,-25.00,25.00,-443.80,0.0340,0.0400,0.0500,0.0260,0.0140,0,0.0689,0.0646,0.0000,-0.6624,0.5206,0
10023,3.2592,-3.1395,0.7303,2.0341,-2.2409,2.1389,162.23,24.17,15.04,0,3.806,19.881,4.855,-0.506,-0.015,0.016,-1.010,0.000,0.000,0.000,0.2750,0,1,97.21,-12.30,-106.66,6.5373,-5.2266,0.8005,0.0000,0.0000,0.3000,-0.0472,-25.00,25.00,-451.05,0.0340,0.0400,0.0570,0.0260,0.0110,0,0.0689,0.0646,0.0000,-0.6624,0.5206,0
10075,3.3517,-3.2453,0.8415,1.7660,-2.1183,2.1173,162.14,24.44,15.37,0,3.801,-16.072,-4.455,0.145,-0.016,0.014,-1.011,0.000,0.000,0.000,0.2780,1,-1,96.91,-9.64,-105.96,5.6481,-7.6320,0.5480,0.0000,0.0000,0.3000,-0.0659,-25.00,25.00,-461.14,0.0390,0.0370,0.0570,0.0260,0.0110,0,0.0689,0.0646,0.0000,-0.6624,0.5206,0
10126,3.4306,-3.3445,0.9499,1.5094,-1.9775,2.0862,160.74,24.23,15.48,0,3.806,8.801,2.469,-0.202,-0.021,0.028,-1.007,0.000,0.000,0.000,0.2770,0,0,94.84,2.73,-113.99,4.6839,-9.3518,0.4534,0.0000,0.0000,0.3000,-0.0830,-25.00,25.00,-464.25,0.0390,0.0370,0.0580,0.0350,0.0120,0,0.0689,0.0646,0.0000,-0.6624,0.5206,0
10177,3.4956,-3.4358,1.0568,1.2494,-1.8480,2.0493,160.30,24.25,15.67,0,3.806,-0.257,-0.264,-0.011,-0.001,-0.047,-1.019,0.000,0.000,0.000,0.2750,0,-1,95.27,2.55,-113.78,4.4947,-9.9494,0.1556,0.0000,0.0000,0.3000,-0.0992,-25.00,25.00,-470.19,0.0370,0.0410,0.0580,0.0350,0.0120,0,0.0689,0.0646,0.0000,-0.6624,0.5206,0
10228,3.5520,-3.5259,1.1608,0.9993,-1.7186,2.0017,159.76,24.20,15.83,0,3.806,-7.359,-2.108,0.002,-0.018,0.016,-1.010,0.000,0.000,0.000,0.2760,0,-1,94.49,4.99,-117.31,3.0016,-11.0188,0.3231,0.0000,0.0000,0.3000,-0.1137,-25.00,25.00,-474.87,0.0370,0.0410,0.0600,0.0350,0.0120,0,0.0689,0.0646,0.0000,-0.6624,0.5206,0
10280,3.5916,-3.6033,1.2621,0.7466,-1.5724,1.9544,158.70,24.03,15.94,0,3.806,10.248,2.821,-0.319,-0.016,0.015,-1.012,0.000,0.000,0.000,0.2780,-1,-1,93.38,7.72,-118.09,2.9943,-11.8468,0.3567,0.0000,0.0000,0.3000,-0.1278,-25.00,25.00,-478.23,0.0370,0.0450,0.0600,0.0350,0.0120,0,0.0689,0.0646,0.0000,-0.6624,0.5206,0
10331,3.6206,-3.6760,1.3595,0.4983,-1.4371,1.9010,158.49,24.06,16.13,0,3.811,-14.127,-3.714,-0.094,-0.004,-0.024,-1.020,0.000,0.000,0.000,0.2770,0,-1,95.00,10.43,-119.70,2.5794,-12.7648,0.5160,0.0000,0.0000,0.3000,-0.1404,-25.00,25.00,-483.88,0.0370,0.0450,0.0590,0.0330,0.0110,0,0.0689,0.0646,0.0000,-0.6624,0.5206,0
10383,3.6362,-3.7399,1.4546,0.2507,-1.2805,1.8448,157.62,23.90,16.24,0,3.806,-2.601,-0.945,-0.031,-0.018,0.017,-1.010,0.000,0.000,0.000,0.2780,0,0,95.77,12.83,-120.71,2.4408,-13.7292,0.7507,0.0000,0.0000,0.3000,-0.1523,-25.00,25.00,-487.25,0.0370,0.0400,0.0590,0.0330,0.0110,0,0.0689,0.0646,0.0000,-0.6624,0.5206,0
10434,3.6398,-3.7956,1.5465,0.0049,-1.1296,1.7844,156.83,23.75,16.34,0,3.806,9.820,2.698,-0.523,-0.015,0.013,-1.011,0.000,0.000,0.000,0.2790,-1,1,95.52,12.61,-120.76,2.1858,-14.3235,0.7608,0.0000,0.0000,0.3000,-0.1632,-25.00,25.00,-490.19,0.0370,0.0400,0.0590,0.0310,0.0100,0,0.0689,0.0646,0.0000,-0.6624,0.5206,0
10485,3.6329,-3.8471,1.6342,-0.2385,-0.9827,1.7205,156.63,23.76,16.52,0,3.801,-11.807,-3.224,0.345,-0.014,0.002,-1.012,0.000,0.000,0.000,0.2740,0,-2,97.55,13.29,-120.91,1.8568,-15.0584,1.1313,0.0000,0.0000,0.3000,-0.1729,-25.00,25.00,-495.52,0.0400,0.0360,0.0590,0.0310,0.0100,0,0.0689,0.0646,0.0000,-0.6624,0.5206,0
10536,3.6137,-3.8885,1.7194,-0.4787,-0.8162,1.6532,155.71,23.57,16.59,0,3.806,0.924,-0.030,-0.151,-0.016,0.015,-1.011,0.000,0.000,0.000,0.2790,-1,0,98.16,15.61,-120.33,2.4763,-16.1285,1.4295,0.0000,0.0000,0.3000,-0.1817,-25.00,25.00,-497.68,0.0400,0.0360,0.0590,0.0320,0.0090,0,0.0689,0.0646,0.0000,-0.6624,0.5206,0
10588,3.5824,-3.9233,1.8024,-0.7238,-0.6558,1.5810,155.12,23.44,16.69,0,3.806,11.251,2.695,-0.050,-0.011,-0.002,-1.017,0.000,0.000,0.000,0.2760,0,0,100.58,17.65,-120.57,2.7558,-17.2001,1.8197,0.0000,0.0000,0.3000,-0.1896,-25.00,25.00,-500.83,0.0390,0.0410,0.0590,0.0320,0.0090,0,0.0689,0.0646,0.0000,-0.6624,0.5206,0
10640,3.5401,-3.9500,1.8800,-0.9626,-0.4934,1.5079,154.76,23.38,16.83,0,3.811,-4.639,-1.086,0.198,-0.016,0.015,-1.011,0.000,0.000,0.000,0.2750,0,0,100.69,17.29,-120.50,2.5667,-17.6963,1.9606,0.0000,0.0000,0.3000,-0.1964,-25.00,25.00,-504.98,0.0390,0.0410,0.0600,0.0300,0.0120,0,0.0689,0.0646,0.0000,-0.6624,0.5206,0
10692,3.4864,-3.9681,1.9541,-1.1992,-0.3193,1.4304,153.91,23.20,16.89,0,3.806,8.334,2.019,-0.395,-0.016,0.013,-1.011,0.000,0.000,0.000,0.2750,0,0,99.60,16.69,-120.59,2.3714,-18.0859,1.9861,0.0000,0.0000,0.3000,-0.2020,-25.00,25.00,-506.68,0.0370,0.0410,0.0600,0.0300,0.0120,0,0.0689,0.0646,0.0000,-0.6624,0.5206,0
10744,3.4214,-3.9793,2.0243,-1.4357,-0.1528,1.3509,153.64,23.15,17.03,0,3.811,-7.398,-1.906,0.122,-0.014,0.011,-1.011,0.000,0.000,0.000,0.2770,0,1,98.64,15.93,-120.31,2.2771,-18.4227,1.8618,0.0000,0.0000,0.3000,-0.2067,-25.00,25.00,-511.02,0.0370,0.0410,0.0560,0.0320,0.0110,0,0.0689,0.0646,0.0000,-0.6624,0.5206,0
10795,3.3440,-3.9817,2.0901,-1.6731,0.0269,1.2666,152.79,22.96,17.08,0,3.806,5.890,1.388,0.271,-0.014,0.014,-1.009,0.000,0.000,0.000,0.2770,0,0,95.81,12.77,-119.91,1.5196,-18.3906,2.0355,0.0000,0.0000,0.3000,-0.2100,-25.00,25.00,-512.47,0.0000,0.0380,0.0560,0.0320,0.0110,0,0.0689,0.0646,0.0000,-0.6624,0.5206,0
10846,3.2595,-3.9736,2.1549,-1.8983,0.2053,1.1841,152.45,22.86,17.20,0,3.811,-6.758,-2.024,0.429,-0.014,0.006,-1.014,0.000,0.000,0.000,0.2750,0,1,95.55,12.45,-119.49,1.7463,-18.7904,2.0926,0.0000,0.0000,0.3000,-0.2133,-25.00,25.00,-515.91,0.0000,0.0380,0.0580,0.0310,0.0110,0,0.0689,0.0646,0.0000,-0.6624,0.5206,0
10898,3.1622,-3.9567,2.2144,-2.1273,0.3950,1.0958,151.68,22.64,17.24,0,3.801,6.339,1.741,-0.195,-0.016,0.010,-1.013,0.000,0.000,0.000,0.2820,-1,-3,101.57,15.12,-124.64,-0.9398,-17.9889,2.3815,0.0000,0.0000,0.3000,-0.2150,-25.00,25.00,-517.20,0.0350,0.0400,0.0580,0.0310,0.0110,0,0.0689,0.0646,0.0000,-0.6624,0.5206,0
10949,3.0532,-3.9313,2.2692,-2.3569,0.5793,1.0047,151.30,22.56,17.36,0,3.811,-4.336,-0.972,-0.302,-0.016,0.010,-1.009,0.000,0.000,0.000,0.2770,1,0,100.98,15.73,-123.49,0.2679,-17.9637,2.5177,0.0000,0.0000,0.3000,-0.2156,-25.00,25.00,-520.87,0.0350,0.0400,0.0590,0.0350,0.0130,0,0.0689,0.0646,0.0000,-0.6624,0.5206,0
11000,2.9346,-3.8942,2.3238,-2.5822,0.7803,0.9116,150.58,22.33,17.40,0,3.806,5.278,0.947,-0.215,-0.013,0.001,-1.013,0.000,0.000,0.000,0.2770,0,0,100.42,15.83,-123.24,0.9336,-17.5375,2.5774,0.0000,0.0000,0.3000,-0.2158,-25.00,25.00,-521.91,0.0350,0.0400,0.0590,0.0350,0.0130,0,0.0689,0.0646,0.0000,-0.6624,0.5206,0
11052,2.8056,-3.8505,2.3720,-2.8066,0.9722,0.8161,150.10,22.21,17.49,0,3.811,-0.291,0.108,0.130,-0.017,0.009,-1.011,0.000,0.000,0.000,0.2760,-1,0,100.22,15.82,-123.67,0.5525,-16.8201,2.4551,0.0000,0.0000,0.3000,-0.2146,-25.00,25.00,-524.69,0.0350,0.0400,0.0600,0.0300,0.0110,0,0.0689,0.0646,0.0000,-0.6624,0.5206,0
11102,2.6617,-3.7969,2.4121,-3.0361,1.1719,0.7115,149.52,22.05,17.55,0,3.806,-3.281,-0.867,-0.051,-0.009,-0.010,-1.016,0.000,0.000,0.000,0.2740,0,-1,99.49,15.82,-123.86,0.5113,-15.6968,2.2904,0.0000,0.0000,0.3000,-0.2109,-25.00,25.00,-526.59,0.0000,0.0390,0.0600,0.0300,0.0110,0,0.0689,0.0646,0.0000,-0.6624,0.5206,0
11153,2.5210,-3.7323,2.4600,-3.2416,1.3778,0.6202,148.96,21.83,17.58,0,3.811,2.825,0.865,-0.082,-0.015,0.008,-1.012,0.000,0.000,0.000,0.2790,0,0,98.26,15.95,-123.92,0.2202,-15.2207,2.1448,0.0000,0.0000,0.3000,-0.2101,-25.00,25.00,-527.50,0.0000,0.0390,0.0590,0.0320,0.0100,0,0.0689,0.0646,0.0000,-0.6624,0.5206,0
11204,2.3733,-3.6585,2.5070,-3.4420,1.5834,0.5298,148.52,21.63,17.63,0,3.811,-2.797,-0.877,0.048,-0.014,0.007,-1.012,0.000,0.000,0.000,0.2800,-1,1,96.89,16.39,-123.59,0.0844,-14.8493,1.9238,0.0000,0.0000,0.3000,-0.2092,-25.00,25.00,-528.82,0.0370,0.0430,0.0590,0.0320,0.0100,0,0.0689,0.0646,0.0000,-0.6624,0.5206,0
11255,2.2046,-3.5757,2.5400,-3.6577,1.7928,0.4231,147.92,21.42,17.65,0,3.816,1.567,0.598,-0.036,-0.012,0.001,-1.013,0.000,0.000,0.000,0.2800,0,0,96.30,16.38,-123.65,0.0411,-14.7050,1.8532,0.0000,0.0000,0.3000,-0.2039,-25.00,-25.00,-529.40,0.0370,0.0430,0.0550,0.0330,0.0120,0,0.0689,0.0646,0.0000,-0.6624,0.5206,0
11306,2.0330,-3.4825,2.5753,-3.8620,2.0036,0.3213,147.44,21.26,17.70,0,3.806,-0.332,0.133,0.116,-0.015,0.006,-1.010,0.000,0.000,0.000,0.2780,-4,0,95.10,16.75,-123.12,0.3039,-14.7569,1.6830,0.0000,0.0000,0.3000,-0.1996,-25.00,-25.00,-531.05,0.0330,0.0380,0.0550,0.0330,0.0120,0,0.0689,0.0646,0.0000,-0.6624,0.5206,0
11357,1.8423,-3.3770,2.5964,-4.0778,2.2212,0.2046,146.88,21.07,17.74,0,3.816,-0.798,-0.225,-0.013,-0.012,-0.000,-1.013,0.000,0.000,0.000,0.2790,0,-1,95.28,16.56,-123.47,0.0116,-14.6222,1.6575,0.0000,0.0000,0.3000,-0.1910,-25.00,-25.00,-532.35,0.0330,0.0380,0.0550,0.0330,0.0100,0,0.0689,0.0646,0.0000,-0.6624,0.5206,0
11408,1.6584,-3.2622,2.6358,-4.2687,2.4434,0.1089,146.41,20.83,17.73,0,3.811,1.228,0.335,0.229,-0.014,0.005,-1.012,0.000,0.000,0.000,0.2750,-3,0,94.20,16.78,-123.08,0.2759,-14.7118,1.5412,0.0000,0.0000,0.3000,-0.1881,-25.00,-25.00,-532.03,0.0380,0.0420,0.0550,0.0330,0.0100,0,0.0689,0.0646,0.0000,-0.6624,0.5206,0
11459,1.4732,-3.1398,2.6757,-4.4486,2.6626,0.0166,145.97,20.56,17.72,0,3.816,-0.942,-0.556,-0.101,-0.016,0.003,-1.013,0.000,0.000,0.000,0.2750,-1,1,93.36,16.98,-122.71,0.5544,-14.8141,1.4283,0.0000,0.0000,0.3000,-0.1857,-25.00,-25.00,-531.62,0.0380,0.0420,0.0540,0.0340,0.0100,0,0.0689,0.0646,0.0000,-0.6624,0.5206,0
11510,1.2806,-3.0080,2.7136,-4.6268,2.8853,-0.0782,145.52,20.29,17.68,0,3.811,0.297,0.055,-0.143,-0.013,0.003,-1.014,0.000,0.000,0.000,0.2770,0,0,92.46,17.14,-122.37,0.9057,-14.9549,1.3105,0.0000,0.0000,0.3000,-0.1826,-25.00,-25.00,-530.50,0.0350,0.0420,0.0540,0.0340,0.0100,0,0.0689,0.0646,0.0000,-0.6624,0.5206,0
11561,1.0855,-2.8644,2.7534,-4.7956,3.1112,-0.1700,145.19,20.09,17.66,0,3.816,0.287,-0.076,-0.208,-0.012,0.004,-1.011,0.000,0.000,0.000,0.2740,0,-1,90.78,17.38,-121.44,1.9568,-15.3769,1.0842,0.0000,0.0000,0.3000,-0.1802,-25.00,-25.00,-529.92,0.0350,0.0420,0.0610,0.0360,0.0080,0,0.0689,0.0646,0.0000,-0.6624,0.5206,0
11613,0.8745,-2.7110,2.7825,-4.9728,3.3382,-0.2729,144.77,19.81,17.62,0,3.811,-0.725,-0.279,-0.059,-0.012,0.002,-1.016,0.000,0.000,0.000,0.2780,0,0,91.59,17.40,-122.07,1.3953,-15.1851,1.0690,2.9103,-3.2654,0.3000,-0.1746,25.00,-25.00,-528.57,0.0390,0.0410,0.0610,0.0360,0.0080,0,0.0689,0.0646,0.0000,-0.6624,0.5206,0
11665,0.6711,-2.5494,2.8258,-5.1298,3.5669,-0.3609,144.33,19.55,17.59,0,3.816,0.414,0.000,-0.128,-0.013,0.004,-1.014,0.000,0.000,0.000,0.2740,0,0,90.40,17.53,-121.45,2.2847,-15.5570,0.8680,2.9103,-3.2654,0.3000,-0.1733,25.00,-25.00,-527.57,0.0390,0.0410,0.0550,0.0350,0.0120,0,0.0689,0.0646,0.0000,1.8951,-15.3409,0
11717,0.4207,-2.3698,2.8197,-5.3302,3.8023,-0.4970,143.83,19.39,17.63,0,3.811,0.296,0.222,-0.013,-0.013,0.003,-1.010,0.000,0.000,0.000,0.2760,0,1,89.33,17.61,-120.85,3.2534,-15.9697,0.6241,2.9103,-3.2654,0.3000,-0.1574,25.00,-25.00,-528.84,0.0380,0.0410,0.0550,0.0350,0.0120,0,0.0689,0.0646,0.0000,1.8951,-15.3409,0
11768,0.1922,-2.1893,2.8487,-5.4944,4.0315,-0.5975,143.48,19.08,17.55,0,3.816,-0.489,-0.102,-0.261,-0.012,0.006,-1.012,0.000,0.000,0.000,0.2760,-1,1,91.51,17.77,-122.23,1.8935,-15.4953,0.6879,2.9103,-3.2654,0.3000,-0.1520,25.00,-25.00,-526.39,0.0380,0.0410,0.0620,0.0310,0.0130,0,0.0689,0.0646,0.0000,1.8951,-15.3409,0
11819,-0.0615,-1.9874,2.8556,-5.6742,4.2734,-0.7205,143.02,18.87,17.54,0,3.811,0.150,-0.118,-0.038,-0.013,0.000,-1.013,0.000,0.000,0.000,0.2780,-1,0,90.73,17.80,-121.80,2.7039,-15.8539,0.5372,2.9103,-3.2654,0.3000,-0.1401,25.00,-25.00,-526.21,0.0340,0.0430,0.0620,0.0310,0.0130,0,0.0689,0.0646,0.0000,1.8951,-15.3409,0
11870,-0.2941,-1.7852,2.8891,-5.8226,4.5072,-0.8164,142.66,18.59,17.48,0,3.816,-0.023,-0.076,0.018,-0.012,0.005,-1.009,0.000,0.000,0.000,0.2770,0,0,90.53,17.78,-121.66,3.3321,-16.1674,0.4119,2.9103,-3.2654,0.3000,-0.1361,25.00,-25.00,-524.55,0.0340,0.0430,0.0560,0.0280,0.0140,0,0.0689,0.0646,0.0000,1.8951,-15.3409,0
11921,-0.5721,-1.5583,2.8674,-6.0099,4.7543,-0.9632,142.10,18.48,17.55,0,3.816,-0.172,-0.177,0.078,-0.012,0.002,-1.013,0.000,0.000,0.000,0.2750,-5,2,90.29,17.81,-121.53,3.9143,-16.4625,0.2212,2.9103,-3.2654,0.3000,-0.1161,25.00,-25.00,-526.50,0.0360,0.0390,0.0560,0.0280,0.0140,0,0.0689,0.0646,0.0000,1.8951,-15.3409,0
11973,-0.8551,-1.3250,2.8483,-6.1918,4.9997,-1.1048,141.67,18.23,17.51,0,3.816,0.019,-0.113,-0.276,-0.013,0.006,-1.012,0.000,0.000,0.000,0.2750,0,0,91.99,17.75,-122.37,3.8108,-16.5289,0.2886,2.9103,-3.2654,0.3000,-0.0972,25.00,-25.00,-525.32,0.0360,0.0390,0.0550,0.0310,0.0100,0,0.0689,0.0646,0.0000,1.8951,-15.3409,0
12025,-1.0975,-1.0985,2.8910,-6.3226,5.2318,-1.1905,141.33,18.01,17.46,0,3.816,-0.103,0.104,-0.129,-0.013,0.003,-1.012,0.000,0.000,0.000,0.2770,0,1,91.97,17.74,-122.36,4.3392,-16.8138,0.1315,2.9103,-3.2654,0.3000,-0.0960,25.00,-25.00,-523.85,0.0360,0.0470,0.0550,0.0310,0.0100,0,0.0689,0.0646,0.0000,1.8951,-15.3409,0
12076,-1.3453,-0.8664,2.9361,-6.4507,5.4613,-1.2742,141.13,17.64,17.31,0,3.816,-0.140,-0.051,-0.091,-0.012,0.002,-1.012,0.000,0.000,0.000,0.2790,0,0,93.27,17.55,-122.81,4.9855,-17.1855,0.1881,2.9103,-3.2654,0.3000,-0.0955,25.00,-25.00,-519.38,0.0360,0.0470,0.0600,0.0340,0.0100,0,0.0689,0.0646,0.0000,1.8951,-15.3409,0
12127,-1.5986,-0.6229,2.9772,-6.5772,5.6936,-1.3627,140.75,17.42,17.28,0,3.811,-0.074,-0.017,-0.220,-0.011,0.002,-1.012,0.000,0.000,0.000,0.2740,0,0,93.43,17.52,-122.90,5.4810,-17.4716,0.0631,2.9103,-3.2654,0.3000,-0.0937,25.00,-25.00,-518.33,0.0380,0.0420,0.0600,0.0340,0.0100,0,0.0689,0.0646,0.0000,1.8951,-15.3409,0
12179,-1.8702,-0.3605,2.9944,-6.7130,5.9336,-1.4724,140.41,17.16,17.22,0,3.822,-0.027,-0.068,0.316,-0.014,0.002,-1.012,0.000,0.000,0.000,0.2760,0,0,93.87,17.46,-123.10,5.9434,-17.7564,-0.0760,2.9103,-3.2654,0.3000,-0.0851,25.00,-25.00,-516.47,0.0380,0.0420,0.0590,0.0360,0.0130,0,0.0689,0.0646,0.0000,1.8951,-15.3409,0
12230,-2.1363,-0.0988,3.0411,-6.8346,6.1663,-1.5578,140.16,16.87,17.11,0,3.816,-0.278,-0.449,0.253,-0.013,0.004,-1.011,0.000,0.000,0.000,0.2750,0,0,94.64,17.38,-123.44,6.3705,-18.0373,-0.2067,2.9103,-3.2654,0.3000,-0.0847,25.00,-25.00,-513.27,0.0370,0.0400,0.0590,0.0360,0.0130,0,0.0689,0.0646,0.0000,5.7769,-17.7083,0
12281,-2.4829,0.2162,2.9587,-7.0255,6.4331,-1.7497,139.60,16.76,17.16,0,3.816,-0.081,0.087,0.108,-0.014,0.003,-1.013,0.000,0.000,0.000,0.2770,-1,0,95.68,17.25,-123.89,6.8382,-18.3453,-0.3114,2.9103,-3.2654,0.3000,-0.0484,25.00,-25.00,-514.66,0.0370,0.0400,0.0590,0.0330,0.0110,0,0.0689,0.0646,0.0000,5.7769,-17.7083,0
12332,-2.7997,0.5239,2.9259,-7.1803,6.6863,-1.8987,139.31,16.49,17.08,0,3.816,-0.144,-0.022,0.154,-0.012,0.002,-1.013,0.000,0.000,0.000,0.2770,0,0,97.59,17.67,-124.43,8.4952,-19.0054,0.0454,2.9103,-3.2654,0.3000,-0.0261,25.00,-25.00,-512.28,0.0360,0.0420,0.0590,0.0330,0.0110,0,0.0689,0.0646,0.0000,5.7769,-17.7083,0
12383,-3.0897,0.8171,2.9461,-7.3034,6.9218,-2.0020,138.91,16.30,17.05,0,3.816,0.093,-0.107,-0.475,-0.014,0.003,-1.011,0.000,0.000,0.000,0.2770,-1,0,97.97,17.61,-124.61,9.1122,-19.3254,-0.0461,2.9103,-3.2654,0.3000,-0.0188,25.00,-25.00,-511.65,0.0360,0.0420,0.0610,0.0320,0.0090,0,0.0689,0.0646,0.0000,5.7769,-17.7083,0
12434,-3.4210,1.1377,2.9118,-7.4554,7.1707,-2.1484,138.67,16.03,16.96,0,3.816,-0.078,-0.288,-0.002,-0.015,0.003,-1.012,0.000,0.000,0.000,0.2810,-1,0,100.30,16.15,-125.26,11.9920,-20.7816,0.1047,2.9103,-3.2654,0.3000,0.0035,25.00,-25.00,-508.78,0.0380,0.0410,0.0610,0.0320,0.0090,0,0.0689,0.0646,0.0000,5.7769,-17.7083,0
12486,-3.6417,1.3874,3.0650,-7.5031,7.3590,-2.1449,138.69,15.63,16.75,0,3.816,-0.062,-0.058,0.160,-0.014,0.004,-1.013,0.000,0.000,0.000,0.2750,0,1,100.65,15.90,-125.14,13.5744,-21.5280,0.1576,2.9103,-3.2654,0.3000,-0.0258,25.00,-25.00,-502.54,0.0380,0.0410,0.0600,0.0360,0.0100,0,0.0689,0.0646,0.0000,5.7769,-17.7083,0
12538,-3.9121,1.6787,3.1375,-7.5893,7.5725,-2.2081,138.56,15.30,16.61,0,3.816,-0.190,0.228,-0.002,-0.012,0.002,-1.011,0.000,0.000,0.000,0.2740,0,0,101.47,15.68,-125.08,15.2202,-22.2828,0.2689,2.9103,-3.2654,0.3000,-0.0327,25.00,-25.00,-498.34,0.0000,0.0420,0.0600,0.0360,0.0100,0,0.0689,0.0646,0.0000,5.7769,-17.7083,0
12590,-4.2264,2.0063,3.1427,-7.7080,7.8063,-2.3258,138.15,15.13,16.61,0,3.822,0.258,-0.056,-0.277,-0.014,0.002,-1.012,0.000,0.000,0.000,0.2790,-1,0,101.47,15.68,-125.07,16.1166,-22.7560,0.2739,2.9103,-3.2654,0.3000,-0.0209,25.00,-25.00,-498.21,0.0000,0.0420,0.0600,0.0340,0.0110,0,0.0689,0.0646,0.0000,5.7769,-17.7083,0
12641,-4.5444,2.3418,3.1603,-7.8208,8.0396,-2.4336,138.04,14.81,16.47,0,3.816,0.235,-0.376,0.043,-0.012,0.001,-1.013,0.000,0.000,0.000,0.2810,0,0,103.34,15.73,-125.07,18.0763,-23.5223,0.6018,2.9103,-3.2654,0.3000,-0.0126,25.00,-25.00,-494.08,0.0000,0.0390,0.0600,0.0340,0.0110,0,0.0689,0.0646,0.0000,5.7769,-17.7083,0
12692,-4.8720,2.6855,3.1720,-7.9350,8.2724,-2.5452,137.68,14.64,16.44,0,3.822,-0.091,-0.274,-0.018,-0.012,0.003,-1.012,0.000,0.000,0.000,0.2750,-1,0,102.75,15.81,-124.88,19.0779,-24.0294,0.6329,2.9103,-3.2654,0.3000,-0.0028,25.00,-25.00,-493.30,0.0000,0.0390,0.0590,0.0320,0.0110,0,0.0689,0.0646,0.0000,5.7769,-17.7083,0
12743,-5.1959,3.0266,3.1870,-8.0428,8.4965,-2.6521,137.60,14.32,16.31,0,3.816,-0.109,-0.206,-0.055,-0.012,-0.001,-1.011,0.000,0.000,0.000,0.2760,0,-1,103.70,15.72,-125.02,20.5721,-24.7411,0.9052,2.9103,-3.2654,0.3000,0.0059,25.00,-25.00,-489.41,0.0430,0.0390,0.0590,0.0320,0.0110,0,0.0689,0.0646,0.0000,5.7769,-17.7083,0
12795,-5.5649,3.4229,3.1172,-8.1830,8.7539,-2.8248,137.23,14.15,16.29,0,3.822,0.037,-0.139,-0.252,-0.012,0.002,-1.012,0.000,0.000,0.000,0.2770,0,0,102.55,15.73,-124.58,21.8577,-25.4265,1.0062,2.9103,-3.2654,0.3000,0.0378,25.00,-25.00,-488.77,0.0430,0.0390,0.0590,0.0310,0.0100,0,0.0689,0.0646,0.0000,5.7769,-17.7083,0
12846,-5.7939,3.6504,3.3427,-8.1998,8.8851,-2.7695,137.31,13.78,16.12,0,3.822,-0.179,-0.077,0.591,-0.012,0.002,-1.011,0.000,0.000,0.000,0.2780,0,1,100.96,15.84,-124.00,23.1846,-26.1226,1.0136,2.9103,-3.2654,0.3000,-0.0108,25.00,-25.00,-483.48,0.0380,0.0410,0.0590,0.0310,0.0100,0,0.0689,0.0646,0.0000,5.7769,-17.7083,0
12898,-6.1787,4.0582,3.2663,-8.3407,9.1385,-2.9463,137.08,13.57,16.05,0,3.822,-0.141,-0.241,0.188,-0.013,0.003,-1.013,0.000,0.000,0.000,0.2790,0,-1,100.24,16.00,-123.73,23.9759,-26.6050,1.1870,2.9103,-3.2654,0.3000,0.0227,25.00,-25.00,-481.41,0.0380,0.0410,0.0570,0.0310,0.0100,0,0.0689,0.0646,0.0000,5.7769,-17.7083,0
12949,-6.5582,4.4768,3.1930,-8.4715,9.3933,-3.1191,136.72,13.40,16.03,0,3.816,-0.194,-0.159,-0.172,-0.014,0.003,-1.014,0.000,0.000,0.000,0.2760,0,1,97.85,16.06,-122.84,25.6366,-27.5230,1.1874,2.9103,-3.2654,0.3000,0.0552,25.00,-25.00,-480.93,0.0370,0.0430,0.0570,0.0310,0.0100,0,0.0689,0.0646,0.0000,24.5603,-26.9208,0
13001,-6.8807,4.7962,3.2744,-8.5487,9.5730,-3.1720,136.69,13.10,15.91,0,3.816,-0.032,-0.151,-0.176,-0.013,0.003,-1.009,0.000,0.000,0.000,0.2750,-1,0,95.23,16.06,-121.82,27.8091,-28.6866,1.1283,2.9103,-3.2654,0.3000,0.0455,25.00,-25.00,-477.22,0.0370,0.0430,0.0610,0.0330,0.0100,0,0.0689,0.0646,0.0000,24.5603,-26.9208,0
13052,-7.1412,5.0294,3.4935,-8.5703,9.6888,-3.1223,136.90,12.73,15.74,0,3.816,0.235,0.028,0.029,-0.012,0.004,-1.013,0.000,0.000,0.000,0.2750,0,0,92.58,16.01,-120.75,30.4356,-30.0600,1.0034,2.9103,-3.2654,0.3000,-0.0012,25.00,-25.00,-472.06,0.0370,0.0410,0.0610,0.0330,0.0100,0,0.0689,0.0646,0.0000,24.5603,-26.9208,0
13103,-7.4924,5.3786,3.5315,-8.6614,9.8795,-3.2092,0.00,0.00,0.00,0,3.816,0.149,-0.268,-0.244,-0.011,0.001,-1.010,0.000,0.000,0.000,0.2740,0,0,90.11,15.86,-119.68,33.8440,-31.7806,0.7742,2.9103,-3.2654,0.3000,0.0010,25.00,-25.00,0.00,0.0370,0.0410,0.0560,0.0330,0.0090,0,0.0689,0.0646,0.0000,24.5603,-26.9208,0
13154,-0.0001,0.0001,-0.0934,-0.0053,0.0016,-0.7698,-0.02,0.03,-0.00,0,3.822,0.097,-0.230,-0.313,-0.014,0.003,-1.013,0.000,0.000,0.000,0.2790,0,0,88.43,15.70,-118.95,36.9622,-33.3630,0.5035,2.9103,-3.2654,0.3000,0.4226,25.00,-25.00,0.09,0.0370,0.0420,0.0560,0.0330,0.0090,0,0.0689,0.0646,0.0000,24.5603,-26.9208,0
13205,-0.0006,0.0001,0.2108,-0.0123,0.0029,-1.7562,-0.00,0.02,-0.01,0,3.816,-0.039,-0.313,-0.071,-0.014,0.003,-1.011,0.000,0.000,0.000,0.2760,-3,0,87.74,15.61,-118.65,39.1934,-34.5343,0.2530,2.9103,-3.2654,0.3000,0.4716,25.00,-25.00,0.23,0.0370,0.0420,0.0580,0.0360,0.0100,0,0.0689,0.0646,0.0000,24.5603,-26.9208,0
13256,-0.0014,0.0004,0.1357,-0.0187,0.0050,-2.6986,-0.11,-0.06,-0.01,0,3.816,-0.099,0.042,0.057,-0.015,0.003,-1.010,0.000,0.000,0.000,0.2760,0,1,88.84,16.01,-119.19,38.0436,-34.1438,0.3669,2.9103,-3.2654,0.3000,0.5876,25.00,-25.00,0.35,0.0360,0.0400,0.0580,0.0360,0.0100,0,0.0689,0.0646,0.0000,24.5603,-26.9208,0
13307,-0.0028,0.0008,0.0419,-0.0300,0.0093,-3.4877,0.13,-0.27,-0.01,0,3.816,-0.176,-0.003,0.056,-0.013,0.003,-1.014,0.000,0.000,0.000,0.2750,0,1,88.89,16.03,-119.24,39.2262,-34.8501,0.2257,2.9103,-3.2654,0.3000,0.6906,25.00,-25.00,0.37,0.0360,0.0400,0.0580,0.0350,0.0120,0,0.0689,0.0646,0.0000,24.5603,-26.9208,0
13359,-0.0054,0.0015,-0.0425,-0.0417,0.0125,-3.9961,0.17,-0.44,-0.01,0,3.816,0.011,-0.043,-0.240,-0.014,0.003,-1.011,0.000,0.000,0.000,0.2810,-4,2,89.68,16.05,-119.60,39.8870,-35.3478,0.1423,2.9103,-3.2654,0.3000,0.7614,25.00,-25.00,0.35,0.0340,0.0420,0.0580,0.0350,0.0120,0,0.0689,0.0646,0.0000,24.5603,-26.9208,0
13411,-0.0084,0.0024,-0.0624,-0.0518,0.0148,-4.0472,0.01,-0.48,-0.02,0,3.822,-0.027,-0.138,-0.044,-0.012,0.002,-1.012,0.000,0.000,0.000,0.2760,-1,2,90.87,16.05,-120.10,40.4690,-35.8271,0.1272,2.9103,-3.2654,0.3000,0.7707,25.00,-25.00,0.49,0.0340,0.0420,0.0570,0.0340,0.0100,0,0.0689,0.0646,0.0000,24.5603,-26.9208,0
13463,-0.0136,0.0037,-0.1284,-0.0653,0.0176,-4.2760,0.15,-0.58,-0.02,0,3.822,-0.352,0.044,-0.049,-0.012,0.004,-1.015,0.000,0.000,0.000,0.2740,-1,0,91.96,16.05,-120.52,41.4949,-36.4995,0.1446,2.9103,-3.2654,0.3000,0.8079,25.00,-25.00,0.48,0.0350,0.0400,0.0570,0.0340,0.0100,0,0.0689,0.0646,0.0000,24.5603,-26.9208,0
13514,-0.0202,0.0055,-0.1428,-0.0774,0.0207,-4.2796,0.21,-0.81,-0.02,0,3.822,-0.146,-0.120,0.231,-0.013,0.004,-1.012,0.000,0.000,0.000,0.2780,-1,1,92.83,16.03,-120.77,43.0814,-37.4061,0.1806,2.9103,-3.2654,0.3000,0.8110,25.00,-25.00,0.71,0.0350,0.0400,0.0550,0.0310,0.0110,0,0.0689,0.0646,0.0000,24.5603,-26.9208,0
13565,-0.0246,0.0067,-0.1100,-0.0845,0.0225,-4.0748,0.22,-0.75,-0.02,0,3.822,0.221,-0.278,0.042,-0.013,0.005,-1.009,0.000,0.000,0.000,0.2770,0,0,93.47,16.04,-120.89,45.1372,-38.5073,0.2182,2.9103,-3.2654,0.3000,0.7827,25.00,-25.00,0.62,0.0390,0.0380,0.0550,0.0310,0.0110,0,0.0689,0.0646,0.0000,24.5603,-26.9208,0
13616,-0.0314,0.0082,-0.1135,-0.0943,0.0252,-4.0536,0.21,-0.70,-0.02,0,3.822,-0.145,0.097,0.166,-0.012,0.003,-1.012,0.000,0.000,0.000,0.2770,-1,1,93.57,16.04,-120.93,46.6086,-39.3452,0.1357,2.9103,-3.2654,0.3000,0.7811,25.00,-25.00,0.59,0.0390,0.0380,0.0560,0.0350,0.0120,0,0.0689,0.0646,0.0000,24.5603,-26.9208,0
13667,-0.0366,0.0098,-0.1172,-0.1076,0.0277,-4.0534,0.22,-0.70,-0.02,0,3.816,-0.316,-0.151,-0.012,-0.013,0.002,-1.012,0.000,0.000,0.000,0.2750,0,0,94.80,16.17,-121.09,49.8522,-40.9559,0.3535,2.9103,-3.2654,0.3000,0.7817,25.00,-25.00,0.63,0.0380,0.0390,0.0560,0.0350,0.0120,0,0.0689,0.0646,0.0000,48.3177,-40.0953,0
13719,-0.0453,0.0118,-0.1215,-0.1190,0.0301,-4.0647,0.21,-0.56,-0.02,0,3.822,-0.135,0.009,-0.003,-0.012,0.005,-1.013,0.000,0.000,0.000,0.2780,0,-2,94.68,16.17,-121.07,51.4418,-41.8457,0.3001,2.9103,-3.2654,0.3000,0.7838,25.00,-25.00,0.65,0.0380,0.0390,0.0590,0.0310,0.0100,0,0.0689,0.0646,0.0000,48.3177,-40.0953,0
13771,-0.0521,0.0131,-0.1274,-0.1360,0.0340,-4.0865,0.19,-0.55,-0.03,0,3.822,-0.087,0.102,-0.227,-0.015,0.004,-1.011,0.000,0.000,0.000,0.2770,0,1,95.91,16.10,-121.33,54.6997,-43.5506,0.5129,2.9103,-3.2654,0.3000,0.7872,25.00,-25.00,0.77,0.0380,0.0410,0.0590,0.0310,0.0100,0,0.0689,0.0646,0.0000,48.3177,-40.0953,0
13823,-0.0634,0.0159,-0.1351,-0.1507,0.0368,-4.1150,0.18,-0.31,-0.03,0,3.822,-0.013,0.003,0.065,-0.013,0.003,-1.013,0.000,0.000,0.000,0.2780,0,2,95.83,16.06,-121.24,56.9374,-44.7387,0.5717,2.9103,-3.2654,0.3000,0.7918,25.00,-25.00,0.81,0.0380,0.0410,0.0600,0.0310,0.0100,0,0.0689,0.0646,0.0000,48.3177,-40.0953,0
13874,-0.0721,0.0178,-0.1363,-0.1773,0.0422,-4.1080,0.12,0.05,-0.03,0,3.822,-0.129,-0.100,0.205,-0.012,0.005,-1.011,0.000,0.000,0.000,0.2740,0,-3,95.82,16.04,-121.17,59.0965,-45.8787,0.6514,2.9103,-3.2654,0.3000,0.7913,25.00,-25.00,0.86,0.0350,0.0380,0.0600,0.0310,0.0100,0,0.0689,0.0646,0.0000,48.3177,-40.0953,0
13925,-0.0809,0.0198,-0.1371,-0.2179,0.0498,-4.0955,0.05,0.33,-0.03,0,3.822,0.112,-0.208,0.008,-0.012,0.004,-1.014,0.000,0.000,0.000,0.2730,0,0,95.69,16.00,-121.08,61.1459,-46.9723,0.7347,2.9103,-3.2654,0.3000,0.7900,25.00,-25.00,0.95,0.0350,0.0380,0.0580,0.0340,0.0110,0,0.0689,0.0646,0.0000,48.3177,-40.0953,0
13976,-0.1025,0.0241,-0.1350,-0.2467,0.0555,-4.0479,-0.08,1.09,-0.03,0,3.822,0.206,-0.006,-0.048,-0.014,0.004,-1.013,0.000,0.000,0.000,0.2770,0,-1,94.91,16.00,-120.85,62.9164,-47.9658,0.6799,2.9103,-3.2654,0.3000,0.7845,25.00,-25.00,1.00,0.0380,0.0360,0.0580,0.0340,0.0110,0,0.0689,0.0646,0.0000,48.3177,-40.0953,0
14027,-0.1106,0.0259,-0.1356,-0.3363,0.0726,-4.0240,-0.12,1.34,-0.04,0,3.822,-0.275,-0.125,-0.195,-0.014,0.002,-1.013,0.000,0.000,0.000,0.2740,0,0,95.21,16.08,-120.86,64.8440,-48.9731,0.8564,2.9103,-3.2654,0.3000,0.7821,25.00,-25.00,1.14,0.0380,0.0360,0.0550,0.0320,0.0100,0,0.0689,0.0646,0.0000,48.3177,-40.0953,0
14078,-0.1405,0.0318,-0.1273,-0.4080,0.0860,-3.9649,-0.28,2.22,-0.04,0,3.822,-0.123,-0.561,0.032,-0.015,0.002,-1.012,0.000,0.000,0.000,0.2750,0,0,94.29,16.07,-120.58,66.8274,-50.0531,0.8051,2.9103,-3.2654,0.3000,0.7741,25.00,-25.00,1.05,0.0000,0.0420,0.0550,0.0320,0.0100,0,0.0689,0.0646,0.0000,48.3177,-40.0953,0
14130,-0.1802,0.0393,-0.1216,-0.4941,0.1020,-3.9206,-0.42,2.99,-0.04,0,3.822,-0.045,-0.012,0.055,-0.014,0.003,-1.013,0.000,0.000,0.000,0.2750,0,0,93.35,16.08,-120.31,68.9704,-51.2073,0.6956,2.9103,-3.2654,0.3000,0.7682,25.00,-25.00,1.08,0.0000,0.0420,0.0590,0.0330,0.0120,0,0.0689,0.0646,0.0000,48.3177,-40.0953,0
14182,-0.2265,0.0487,-0.1183,-0.5989,0.1193,-3.8953,-0.59,4.05,-0.02,0,3.816,0.203,0.052,0.193,-0.013,0.004,-1.011,0.000,0.000,0.000,0.2780,0,-2,92.55,16.08,-120.04,71.1979,-52.3998,0.5315,2.9103,-3.2654,0.3000,0.7649,25.00,-25.00,0.74,0.0360,0.0390,0.0590,0.0330,0.0120,0,0.0689,0.0646,0.0000,48.3177,-40.0953,0
14233,-0.2772,0.0584,-0.1220,-0.7760,0.1511,-3.8845,-0.68,4.74,-0.03,0,3.822,0.075,-0.197,-0.024,-0.015,0.003,-1.012,0.000,0.000,0.000,0.2810,0,0,93.25,16.53,-120.30,72.3171,-53.0836,0.7316,2.9103,-3.2654,0.3000,0.7644,25.00,-25.00,1.02,0.0360,0.0390,0.0590,0.0290,0.0130,0,0.0689,0.0646,0.0000,48.3177,-40.0953,0
14284,-0.3616,0.0746,-0.1204,-0.9730,0.1842,-3.8001,-0.99,6.72,-0.02,0,3.822,0.088,-0.375,-0.268,-0.014,0.002,-1.015,0.000,0.000,0.000,0.2780,0,0,92.64,16.54,-120.06,74.4612,-54.1767,0.6434,2.9103,-3.2654,0.3000,0.7550,25.00,-25.00,0.65,0.0390,0.0390,0.0590,0.0290,0.0130,0,0.0689,0.0646,0.0000,48.3177,-40.0953,0
14335,-0.4183,0.0860,-0.1617,-1.3737,0.2533,-3.9527,-1.33,8.92,-0.01,0,3.822,-0.095,-0.051,0.107,-0.013,0.003,-1.012,0.000,0.000,0.000,0.2750,-4,2,92.05,16.55,-119.81,76.6791,-55.2724,0.5133,2.9103,-3.2654,0.3000,0.7793,25.00,-25.00,0.44,0.0390,0.0390,0.0560,0.0310,0.0090,0,0.0689,0.0646,0.0000,48.3177,-40.0953,0
14386,-0.5095,0.1023,-0.2246,-1.7727,0.3249,-4.2082,-0.96,7.34,-0.17,0,3.822,0.030,-0.213,-0.216,-0.011,0.004,-1.014,0.000,0.000,0.000,0.2790,0,0,93.28,16.71,-120.70,77.4066,-56.3821,0.7224,2.9103,-3.2654,0.3000,0.8188,25.00,-25.00,5.13,0.0360,0.0400,0.0560,0.0310,0.0090,0,0.0689,0.0646,0.0000,75.4792,-55.3254,0
14437,-0.8256,0.1633,-0.0768,-2.0078,0.3503,-2.9700,-0.48,5.60,-0.43,0,3.822,0.044,-0.258,-0.037,-0.013,0.003,-1.014,0.000,0.000,0.000,0.2800,0,0,92.68,16.68,-120.47,79.5458,-57.4855,0.6503,2.9103,-3.2654,0.3000,0.6571,25.00,-25.00,12.86,0.0360,0.0400,0.0570,0.0310,0.0130,0,0.0689,0.0646,0.0000,75.4792,-55.3254,0
14488,-0.9382,0.1832,-0.1783,-2.3541,0.4156,-3.6285,-0.67,6.59,-0.55,0,3.822,0.053,0.002,0.258,-0.014,0.003,-1.012,0.000,0.000,0.000,0.2770,0,0,92.11,16.67,-120.26,81.6798,-58.5876,0.5363,2.9103,-3.2654,0.3000,0.7474,25.00,-25.00,16.46,0.0360,0.0390,0.0570,0.0310,0.0130,0,0.0689,0.0646,0.0000,75.4792,-55.3254,0
14539,-1.1961,0.2342,-0.1455,-2.6844,0.4687,-3.1352,-0.19,5.06,-0.93,0,3.822,0.125,0.261,-0.066,-0.014,0.001,-1.011,0.000,0.000,0.000,0.2770,-3,3,91.67,16.69,-120.09,83.8076,-59.7019,0.3842,2.9103,-3.2654,0.3000,0.6879,25.00,-25.00,27.88,0.0360,0.0390,0.0570,0.0320,0.0110,0,0.0689,0.0646,0.0000,75.4792,-55.3254,0
14590,-1.4069,0.2754,-0.1921,-3.0077,0.5294,-3.3664,0.34,2.74,-1.49,0,3.822,0.085,-0.136,0.119,-0.012,0.005,-1.010,0.000,0.000,0.000,0.2760,0,-1,92.62,17.33,-120.50,85.7317,-60.9661,0.6306,2.9103,-3.2654,0.3000,0.7217,25.00,-25.00,44.75,0.0340,0.0360,0.0570,0.0320,0.0110,0,0.0689,0.0646,0.0000,75.4792,-55.3254,0
14641,-1.6989,0.3375,-0.1255,-3.3035,0.5952,-2.9046,0.73,1.14,-2.03,0,3.822,-0.060,0.244,0.029,-0.015,0.005,-1.013,0.000,0.000,0.000,0.2770,0,0,92.30,17.06,-120.51,87.9450,-62.3221,0.5836,2.9103,-3.2654,0.3000,0.6592,25.00,-25.00,60.92,0.0340,0.0360,0.0600,0.0340,0.0110,0,0.0689,0.0646,0.0000,75.4792,-55.3254,0
14692,-1.9757,0.4002,-0.0758,-3.6546,0.6811,-2.7928,0.84,1.06,-2.46,0,3.822,-0.063,-0.365,-0.051,-0.013,0.002,-1.012,0.000,0.000,0.000,0.2770,0,-1,91.82,17.04,-120.27,90.2093,-63.4351,0.4836,2.9103,-3.2615,0.3000,0.6378,25.00,-25.00,73.68,0.0360,0.0390,0.0600,0.0340,0.0110,0,0.0689,0.0646,0.0000,75.4792,-55.3254,0
14743,-2.2723,0.4717,-0.0635,-4.0566,0.7758,-2.6826,1.51,-1.58,-3.19,0,3.822,-0.019,-0.113,-0.237,-0.013,0.002,-1.013,0.000,0.000,0.000,0.2760,-4,1,92.65,16.83,-120.84,92.1015,-64.9710,0.6464,2.9102,-3.2577,0.3000,0.6235,25.00,-25.00,95.68,0.0360,0.0390,0.0580,0.0340,0.0100,0,0.0689,0.0646,0.0000,75.4792,-55.3254,0
14794,-2.5983,0.5590,0.0505,-4.3461,0.8715,-2.3917,1.99,-4.36,-4.00,0,3.822,-0.021,-0.099,0.133,-0.014,0.001,-1.012,0.000,0.000,0.000,0.2760,0,0,92.22,16.61,-120.63,94.5438,-66.2105,0.6261,2.9100,-3.2539,0.3000,0.5706,25.00,-25.00,120.05,0.0000,0.0370,0.0580,0.0340,0.0100,0,0.0689,0.0646,0.0000,75.4792,-55.3254,0
14845,-2.8914,0.6388,0.1330,-4.4710,0.9422,-2.4323,2.33,-6.68,-4.44,0,3.827,0.014,-0.290,-0.044,-0.012,0.002,-1.013,0.000,0.000,0.000,0.2770,0,-1,91.64,16.51,-120.48,96.7980,-67.4988,0.5251,2.9098,-3.2501,0.3000,0.5594,25.00,-25.00,133.15,0.0000,0.0370,0.0550,0.0310,0.0110,0,0.0689,0.0646,0.0000,75.4792,-55.3254,0
14896,-3.1824,0.7109,0.0776,-4.7111,1.0088,-2.8499,3.01,-9.13,-5.07,0,3.822,-0.043,-0.047,-0.077,-0.011,0.003,-1.014,0.000,0.000,0.000,0.2780,0,0,92.03,16.46,-120.31,99.3404,-68.4547,0.6479,2.9096,-3.2462,0.3000,0.6150,25.00,-25.00,152.06,0.0330,0.0380,0.0550,0.0310,0.0110,0,0.0689,0.0646,0.0000,75.4792,-55.3254,0
14948,-3.5181,0.8188,0.1381,-4.7960,1.0685,-2.3193,3.28,-11.34,-5.56,0,3.827,-0.166,-0.036,0.160,-0.013,0.002,-1.013,0.000,0.000,0.000,0.2790,0,0,91.44,16.34,-120.17,101.7071,-69.8368,0.5497,2.9092,-3.2423,0.3000,0.5462,25.00,-25.00,166.76,0.0330,0.0380,0.0570,0.0340,0.0080,0,0.0689,0.0646,0.0000,75.4792,-55.3254,0
14999,-3.8371,0.9155,0.1324,-4.9660,1.1397,-2.3390,3.66,-12.98,-6.09,0,3.822,0.009,-0.192,-0.122,-0.010,0.004,-1.012,0.000,0.000,0.000,0.2790,-1,0,90.96,16.26,-120.08,104.0207,-71.2205,0.4165,2.9088,-3.2385,0.3000,0.5494,25.00,-25.00,182.68,0.0390,0.0400,0.0570,0.0340,0.0080,0,0.0689,0.0646,0.0000,75.4792,-55.3254,0
15051,-4.1588,1.0222,0.1385,-5.0479,1.2020,-2.2215,4.24,-17.60,-6.83,0,3.822,0.085,-0.175,-0.223,-0.013,0.003,-1.012,0.000,0.000,0.000,0.2760,0,1,91.78,16.53,-120.00,106.4132,-72.0144,0.6040,2.9084,-3.2347,0.3000,0.5356,25.00,-25.00,205.00,0.0390,0.0400,0.0550,0.0320,0.0090,0,0.0689,0.0646,0.0000,75.4792,-55.3254,0
15102,-4.4811,1.1340,0.1609,-5.0838,1.2553,-1.9429,4.70,-20.66,-7.21,0,3.822,-0.252,-0.328,-0.036,-0.013,0.003,-1.012,0.000,0.000,0.000,0.2780,-4,0,91.47,16.35,-119.91,108.8611,-73.3925,0.5497,2.9079,-3.2309,0.3000,0.5012,25.00,-25.00,216.36,0.0380,0.0400,0.0550,0.0320,0.0090,0,0.0689,0.0646,0.0000,106.5748,-72.1325,0
15153,-4.7885,1.2160,0.1096,-5.2890,1.3206,-2.4174,4.94,-21.62,-7.31,0,3.827,-0.159,-0.232,0.357,-0.015,0.002,-1.011,0.000,0.000,0.000,0.2790,0,0,91.38,16.23,-119.89,111.2936,-74.7570,0.5201,2.9073,-3.2271,0.3000,0.5622,25.00,-25.00,219.16,0.0380,0.0400,0.0560,0.0350,0.0130,0,0.0689,0.0646,0.0000,106.5748,-72.1325,0
15204,-5.1993,1.3274,0.1662,-5.5594,1.3808,-1.9862,5.34,-22.60,-7.19,0,3.816,-0.069,0.012,-0.263,-0.013,0.001,-1.012,0.000,0.000,0.000,0.2770,0,0,90.96,16.19,-119.80,113.7001,-76.1220,0.4013,2.9067,-3.2233,0.3000,0.5049,25.00,-25.00,215.65,0.0380,0.0390,0.0560,0.0350,0.0130,0,0.0689,0.0646,0.0000,106.5748,-72.1325,0
15255,-5.5168,1.4241,0.1254,-5.7125,1.4512,-2.3771,5.55,-24.29,-7.37,0,3.827,0.157,0.134,0.044,-0.012,0.002,-1.012,0.000,0.000,0.000,0.2770,0,-1,90.74,16.15,-119.75,116.0939,-77.4741,0.2649,2.9061,-3.2196,0.3000,0.5549,25.00,-25.00,221.20,0.0380,0.0390,0.0550,0.0340,0.0120,0,0.0689,0.0646,0.0000,106.5748,-72.1325,0
15306,-5.8852,1.5565,0.1485,-5.8283,1.5270,-2.1612,6.15,-29.29,-7.71,0,3.822,0.058,-0.374,-0.298,-0.011,0.004,-1.012,0.000,0.000,0.000,0.2790,0,-1,91.84,16.58,-119.97,118.4044,-78.6365,0.5155,2.9053,-3.2158,0.3000,0.5272,25.00,-25.00,231.24,0.0350,0.0380,0.0550,0.0340,0.0120,0,0.0689,0.0646,0.0000,106.5748,-72.1325,0
15359,-6.2746,1.6548,0.1165,-6.1066,1.5939,-2.3905,6.66,-31.11,-7.46,0,3.822,-0.240,-0.143,0.096,-0.013,0.001,-1.013,0.000,0.000,0.000,0.2760,0,0,91.83,16.40,-120.06,121.0252,-80.2579,0.4818,2.9045,-3.2120,0.3000,0.5580,25.00,-25.00,223.89,0.0350,0.0380,0.0580,0.0290,0.0080,0,0.0689,0.0646,0.0000,106.5748,-72.1325,0
15411,-6.7148,1.7983,0.1327,-6.3542,1.6904,-2.2145,7.12,-32.62,-7.35,0,3.816,-0.091,0.155,0.321,-0.013,0.002,-1.012,0.000,0.000,0.000,0.2780,0,0,91.52,16.38,-119.96,123.5302,-81.6083,0.3813,2.9037,-3.2082,0.3000,0.5359,25.00,-25.00,220.50,0.0380,0.0370,0.0580,0.0290,0.0080,0,0.0689,0.0646,0.0000,106.5748,-72.1325,0
15463,-7.1548,1.9123,0.0682,-6.7532,1.8019,-2.7198,7.41,-33.09,-7.22,0,3.827,0.152,0.086,-0.164,-0.013,0.005,-1.012,0.000,0.000,0.000,0.2780,0,0,91.35,16.39,-119.89,126.0420,-82.9755,0.2560,2.9027,-3.2044,0.3000,0.6027,25.00,-25.00,216.65,0.0380,0.0370,0.0560,0.0330,0.0100,0,0.0689,0.0646,0.0000,106.5748,-72.1325,0
15514,-7.6450,2.1244,0.0984,-6.9740,1.9633,-2.3190,8.23,-38.03,-7.35,0,3.822,0.079,-0.071,0.061,-0.014,0.005,-1.014,0.000,0.000,0.000,0.2800,0,0,91.39,16.38,-119.90,128.5187,-84.3456,0.1357,2.9018,-3.2006,0.3000,0.5537,25.00,-25.00,220.36,0.0390,0.0370,0.0560,0.0330,0.0100,0,0.0689,0.0646,0.0000,106.5748,-72.1325,0
15565,-8.1674,2.2685,0.0790,-7.3841,2.0809,-2.4129,8.93,-40.30,-6.94,0,3.827,-0.150,-0.104,-0.030,-0.009,0.002,-1.011,0.000,0.000,0.000,0.2770,0,0,91.63,16.39,-119.98,131.0116,-85.7433,0.0424,2.9007,-3.1969,0.3000,0.5675,25.00,-25.00,208.10,0.0390,0.0370,0.0580,0.0330,0.0090,0,0.0689,0.0646,0.0000,106.5748,-72.1325,0
15616,-8.7094,2.4314,0.0269,-7.8516,2.2358,-2.6576,9.64,-41.81,-6.59,0,3.822,0.148,-0.003,-0.380,-0.013,0.003,-1.012,0.000,0.000,0.000,0.2740,0,-2,91.97,16.38,-120.09,133.5354,-87.1644,-0.0204,2.8997,-3.1933,0.3000,0.6038,25.00,-25.00,197.80,0.0360,0.0390,0.0580,0.0330,0.0090,0,0.0689,0.0646,0.0000,106.5748,-72.1325,0
15667,-9.3451,2.6602,0.0305,-8.3224,2.4356,-2.4131,10.66,-47.15,-6.78,0,3.827,0.236,-0.048,-0.012,-0.013,0.003,-1.014,0.000,0.000,0.000,0.2780,-1,0,93.20,17.96,-120.63,136.2625,-89.0027,0.4120,2.8985,-3.1896,0.3000,0.5767,25.00,-25.00,203.33,0.0360,0.0390,0.0560,0.0340,0.0090,0,0.0689,0.0646,0.0000,106.5748,-72.1325,0
15719,-10.0065,2.9433,0.0953,-8.7343,2.6838,-1.9847,12.35,-52.25,-5.61,0,3.822,0.078,-0.019,-0.177,-0.012,0.004,-1.012,0.000,0.000,0.000,0.2770,0,0,94.13,17.37,-122.41,137.9862,-93.4213,0.4650,2.8973,-3.1859,0.3000,0.5182,25.00,-25.00,168.43,0.0380,0.0390,0.0560,0.0340,0.0090,0,0.0689,0.0646,0.0000,106.5748,-72.1325,0
15771,-10.7102,3.1274,0.1041,-9.3050,2.8433,-1.9307,13.62,-55.03,-4.55,0,3.827,-0.044,-0.215,-0.089,-0.013,0.002,-1.011,0.000,0.000,0.000,0.2800,0,-1,93.89,17.38,-122.22,140.6572,-94.6754,0.4141,2.8961,-3.1823,0.3000,0.5107,25.00,-25.00,136.64,0.0380,0.0390,0.0600,0.0380,0.0100,0,0.0689,0.0646,0.0000,106.5748,-72.1325,0
15822,-11.3377,3.2457,0.0175,-9.8761,2.9430,-2.5780,0.00,0.00,0.00,0,3.822,-0.048,-0.204,-0.120,-0.013,0.004,-1.013,0.000,0.000,0.000,0.2780,0,-1,95.38,17.42,-123.89,143.5648,-99.2853,0.7911,2.8948,-3.1786,0.3000,0.5969,25.00,-25.00,0.00,0.0400,0.0410,0.0600,0.0380,0.0100,0,0.0689,0.0646,0.0000,106.5748,-72.1325,0
15873,-0.0001,0.0000,0.2642,-0.0049,0.0017,-0.7892,-0.00,-0.01,0.00,0,3.827,-0.284,-0.189,0.147,-0.015,0.005,-1.010,0.000,0.000,0.000,0.2770,-1,0,95.39,17.03,-123.81,146.9781,-101.1134,0.9316,2.8934,-3.1750,0.3000,0.3571,25.00,-25.00,-0.05,0.0400,0.0410,0.0570,0.0300,0.0130,0,0.0689,0.0646,0.0000,106.5748,-72.1325,0
15924,-0.0005,0.0001,0.2073,-0.0112,0.0030,-1.7707,-0.02,-0.02,0.00,0,3.827,-0.102,0.049,0.095,-0.013,0.003,-1.014,0.000,0.000,0.000,0.2790,0,0,95.20,16.71,-123.51,150.3890,-102.5366,1.0786,2.8920,-3.1715,0.3000,0.4739,25.00,-25.00,-0.04,0.0360,0.0410,0.0570,0.0300,0.0130,0,0.0689,0.0646,0.0000,147.7138,-100.9544,0
15976,-0.0012,0.0004,0.1335,-0.0185,0.0049,-2.6439,0.01,-0.10,-0.00,0,3.827,-0.060,-0.131,0.367,-0.012,0.002,-1.013,0.000,0.000,0.000,0.2810,0,1,94.10,16.48,-123.47,152.3970,-104.5891,1.0291,2.8905,-3.1679,0.3000,0.5821,25.00,-25.00,0.01,0.0360,0.0410,0.0580,0.0360,0.0110,0,0.0689,0.0646,0.0000,147.7138,-100.9544,0
16026,-0.0026,0.0007,0.0412,-0.0295,0.0070,-3.3764,0.07,-0.34,0.01,0,3.822,0.074,-0.421,-0.326,-0.013,0.003,-1.013,0.000,0.000,0.000,0.2770,-1,0,93.85,16.54,-122.93,155.7105,-105.4097,1.1921,2.8890,-3.1645,0.3000,0.6787,25.00,-25.00,-0.18,0.0000,0.0360,0.0580,0.0360,0.0110,0,0.0689,0.0646,0.0000,147.7138,-100.9544,0
16077,-0.0052,0.0016,-0.0127,-0.0413,0.0112,-3.7027,0.11,-0.51,0.00,0,3.827,0.067,-0.114,-0.248,-0.013,0.004,-1.013,0.000,0.000,0.000,0.2750,0,1,92.67,15.93,-122.71,158.2549,-107.3787,1.1509,2.8874,-3.1609,0.3000,0.7241,25.00,-25.00,-0.06,0.0000,0.0360,0.0600,0.0320,0.0120,0,0.0689,0.0646,0.0000,147.7138,-100.9544,0
16128,-0.0085,0.0024,-0.0731,-0.0520,0.0138,-4.0107,0.17,-0.60,-0.00,0,3.822,0.019,-0.071,-0.117,-0.010,0.005,-1.010,0.000,0.000,0.000,0.2770,0,1,91.29,15.34,-122.62,160.8925,-109.9606,1.0168,2.8858,-3.1575,0.3000,0.7688,25.00,-25.00,0.03,0.0400,0.0400,0.0600,0.0320,0.0120,0,0.0689,0.0646,0.0000,147.7138,-100.9544,0
16179,-0.0131,0.0035,-0.0859,-0.0622,0.0164,-4.0247,0.19,-0.69,0.00,0,3.827,-0.184,-0.180,-0.092,-0.013,0.005,-1.014,0.000,0.000,0.000,0.2760,0,2,90.01,14.87,-122.73,163.6365,-113.0515,0.8065,2.8842,-3.1541,0.3000,0.7727,25.00,-25.00,-0.03,0.0400,0.0400,0.0590,0.0330,0.0100,0,0.0689,0.0646,0.0000,147.7138,-100.9544,0
16230,-0.0186,0.0047,-0.1263,-0.0740,0.0193,-4.2165,0.17,-0.74,0.00,0,3.827,-0.124,0.148,0.127,-0.013,0.004,-1.011,0.000,0.000,0.000,0.2780,0,-1,89.11,14.62,-122.88,166.4393,-115.9903,0.5823,2.8824,-3.1506,0.3000,0.8011,25.00,-25.00,-0.05,0.0410,0.0410,0.0590,0.0330,0.0100,0,0.0689,0.0646,0.0000,147.7138,-100.9544,0
16281,-0.0246,0.0067,-0.1222,-0.0841,0.0221,-4.1588,0.20,-0.84,0.00,0,3.827,-0.071,-0.007,0.035,-0.015,0.005,-1.010,0.000,0.000,0.000,0.2790,0,0,88.70,14.51,-122.89,169.2244,-118.2042,0.4005,2.8806,-3.1473,0.3000,0.7941,25.00,-25.00,-0.01,0.0410,0.0410,0.0590,0.0360,0.0100,0,0.0689,0.0646,0.0000,147.7138,-100.9544,0
16332,-0.0310,0.0083,-0.1501,-0.0954,0.0255,-4.2890,0.17,-0.76,-0.00,0,3.827,0.105,-0.001,-0.033,-0.013,0.004,-1.012,0.000,0.000,0.000,0.2780,-1,1,88.49,14.47,-122.95,172.0821,-120.4291,0.1945,2.8788,-3.1439,0.3000,0.8134,25.00,-25.00,0.05,0.0370,0.0380,0.0590,0.0360,0.0100,0,0.0689,0.0646,0.0000,147.7138,-100.9544,0
16383,-0.0378,0.0101,-0.1388,-0.1079,0.0290,-4.1733,0.15,-0.78,0.00,0,3.827,0.139,-0.198,0.094,-0.013,0.004,-1.010,0.000,0.000,0.000,0.2800,0,0,89.22,14.65,-122.58,174.5496,-120.4712,0.2724,2.8769,-3.1406,0.3000,0.7988,25.00,-25.00,-0.05,0.0370,0.0380,0.0570,0.0340,0.0080,0,0.0689,0.0646,0.0000,147.7138,-100.9544,0
16434,-0.0455,0.0124,-0.1589,-0.1203,0.0324,-4.2510,0.11,-0.61,0.00,0,3.822,-0.042,0.029,0.253,-0.014,0.007,-1.013,0.000,0.000,0.000,0.2780,0,0,89.24,14.65,-122.59,177.4080,-122.2973,0.1218,2.8750,-3.1373,0.3000,0.8110,25.00,-25.00,-0.04,0.0380,0.0400,0.0570,0.0340,0.0080,0,0.0689,0.0646,0.0000,147.7138,-100.9544,0
16485,-0.0521,0.0140,-0.1401,-0.1384,0.0386,-4.1097,0.07,-0.51,0.00,0,3.827,0.086,0.305,0.017,-0.013,0.004,-1.011,0.000,0.000,0.000,0.2790,0,0,89.48,14.68,-122.60,180.2768,-123.9780,-0.0075,2.8730,-3.1340,0.3000,0.7922,25.00,-25.00,-0.05,0.0380,0.0400,0.0590,0.0360,0.0110,0,0.0689,0.0646,0.0000,147.7138,-100.9544,0
16536,-0.0619,0.0168,-0.1572,-0.1543,0.0440,-4.1987,-0.01,-0.37,0.00,0,3.827,-0.105,-0.124,-0.049,-0.014,0.000,-1.010,0.000,0.000,0.000,0.2760,-1,-1,89.94,14.69,-122.64,183.1805,-125.6342,-0.0897,2.8710,-3.1308,0.3000,0.8050,25.00,-25.00,-0.06,0.0380,0.0390,0.0590,0.0360,0.0110,0,0.0689,0.0646,0.0000,147.7138,-100.9544,0
16587,-0.0729,0.0205,-0.1398,-0.1753,0.0500,-4.0894,-0.01,-0.39,-0.00,0,3.827,-0.074,0.206,0.238,-0.013,0.002,-1.011,0.000,0.000,0.000,0.2750,0,-1,91.61,15.17,-123.10,186.2245,-127.6976,0.2876,2.8689,-3.1275,0.3000,0.7899,25.00,-25.00,0.03,0.0380,0.0390,0.0550,0.0340,0.0090,0,0.0689,0.0646,0.0000,147.7138,-100.9544,0
16638,-0.0871,0.0247,-0.1630,-0.1932,0.0554,-4.2168,-0.14,-0.01,-0.00,0,3.827,0.033,-0.110,0.227,-0.013,0.002,-1.011,0.000,0.000,0.000,0.2750,0,-1,92.22,15.06,-123.64,189.7564,-131.1496,0.3045,2.8668,-3.1244,0.3000,0.8080,25.00,-25.00,0.01,0.0360,0.0400,0.0550,0.0340,0.0090,0,0.0689,0.0646,0.0000,147.7138,-100.9544,0
16689,-0.0984,0.0285,-0.1447,-0.2386,0.0698,-4.0939,-0.29,0.46,0.00,0,3.827,0.065,-0.380,-0.094,-0.011,0.004,-1.013,0.000,0.000,0.000,0.2800,-3,0,93.11,14.94,-124.24,193.7283,-134.8469,0.4341,2.8646,-3.1212,0.3000,0.7913,25.00,-25.00,-0.05,0.0360,0.0400,0.0580,0.0330,0.0090,0,0.0689,0.0646,0.0000,147.7138,-100.9544,0
16740,-0.1184,0.0345,-0.1585,-0.2812,0.0848,-4.1642,-0.61,1.22,0.01,0,3.827,0.082,-0.321,0.111,-0.012,0.004,-1.014,0.000,0.000,0.000,0.2750,0,0,93.75,14.88,-124.57,197.7885,-137.9004,0.6048,2.8623,-3.1181,0.3000,0.8015,25.00,-25.00,-0.16,0.0000,0.0390,0.0580,0.0330,0.0090,0,0.0689,0.0646,0.0000,194.7655,-135.9132,0
16792,-0.1320,0.0392,-0.1381,-0.3915,0.1212,-4.0237,-0.94,2.36,0.01,0,3.827,0.079,0.206,0.017,-0.012,0.005,-1.013,0.000,0.000,0.000,0.2790,0,0,93.38,14.88,-124.52,200.4756,-139.8268,0.5702,2.8601,-3.1150,0.3000,0.7825,25.00,-25.00,-0.39,0.0000,0.0390,0.0590,0.0300,0.0100,0,0.0689,0.0646,0.0000,194.7655,-135.9132,0
16844,-0.1596,0.0483,-0.1527,-0.5074,0.1602,-4.0891,-1.21,3.16,0.02,0,3.827,-0.138,0.188,0.324,-0.015,0.004,-1.010,0.000,0.000,0.000,0.2740,0,1,92.97,14.88,-124.44,203.1742,-141.7982,0.4710,2.8577,-3.1119,0.3000,0.7923,25.00,-25.00,-0.72,0.0340,0.0400,0.0590,0.0300,0.0100,0,0.0689,0.0646,0.0000,194.7655,-135.9132,0
16896,-0.2104,0.0657,-0.1518,-0.6181,0.1954,-4.0622,-1.20,3.30,0.02,0,3.827,-0.077,-0.142,-0.011,-0.015,0.004,-1.013,0.000,0.000,0.000,0.2790,-1,0,93.88,15.70,-124.64,207.3400,-144.2987,0.7980,2.8553,-3.1089,0.3000,0.7892,25.00,-25.00,-0.69,0.0340,0.0400,0.0560,0.0310,0.0110,0,0.0689,0.0646,0.0000,194.7655,-135.9132,0
16948,-0.2518,0.0797,-0.1757,-0.7929,0.2524,-4.1763,-1.43,4.04,0.03,0,3.827,0.046,-0.202,-0.483,-0.015,0.004,-1.014,0.000,0.000,0.000,0.2790,0,0,94.13,15.44,-125.39,209.3000,-148.1141,0.9027,2.8528,-3.1058,0.3000,0.8061,25.00,-25.00,-0.90,0.0340,0.0380,0.0560,0.0310,0.0110,0,0.0689,0.0646,0.0000,194.7655,-135.9132,0
16999,-0.3488,0.1128,-0.1511,-0.9365,0.2954,-3.9755,-1.86,5.46,0.04,0,3.827,0.099,-0.041,-0.118,-0.012,0.003,-1.012,0.000,0.000,0.000,0.2760,0,-2,93.38,15.43,-124.95,212.7261,-149.5194,0.8417,2.8503,-3.1029,0.3000,0.7797,25.00,-25.00,-1.21,0.0340,0.0380,0.0570,0.0340,0.0090,0,0.0689,0.0646,0.0000,194.7655,-135.9132,0
17050,-0.4470,0.1470,-0.1548,-1.1785,0.3657,-3.8800,-1.84,6.02,-0.04,0,3.822,-0.175,-0.309,-0.083,-0.011,0.002,-1.014,0.000,0.000,0.000,0.2780,-1,-2,93.98,15.62,-125.61,214.8326,-152.8785,1.0943,2.8478,-3.1000,0.3000,0.7701,25.00,-25.00,1.34,0.0390,0.0350,0.0570,0.0340,0.0090,0,0.0689,0.0646,0.0000,194.7655,-135.9132,0
17101,-0.5429,0.1793,-0.1865,-1.5279,0.4721,-3.9640,-2.17,7.42,-0.13,0,3.827,-0.124,-0.246,0.232,-0.013,0.001,-1.012,0.000,0.000,0.000,0.2790,0,0,93.52,15.34,-125.54,217.7957,-155.1163,1.1544,2.8452,-3.0971,0.3000,0.7852,25.00,-25.00,3.91,0.0390,0.0350,0.0530,0.0380,0.0090,0,0.0689,0.0646,0.0000,194.7655,-135.9132,0
17152,-0.7178,0.2382,-0.1756,-1.9399,0.5911,-3.6636,-2.20,8.00,-0.32,0,3.827,0.048,-0.135,-0.111,-0.013,0.003,-1.014,0.000,0.000,0.000,0.2750,0,0,92.38,15.22,-125.29,220.8755,-157.4333,1.0341,2.8426,-3.0943,0.3000,0.7507,25.00,-25.00,9.69,0.0390,0.0370,0.0530,0.0380,0.0090,0,0.0689,0.0646,0.0000,194.7655,-135.9132,0
17203,-0.8477,0.2789,-0.2806,-2.3238,0.7167,-4.1512,-2.11,7.55,-0.54,0,3.827,-0.050,-0.321,0.020,-0.013,0.003,-1.013,0.000,0.000,0.000,0.2770,-1,0,91.21,15.11,-125.13,224.1228,-160.2171,0.7810,2.8400,-3.0916,0.3000,0.8232,25.00,-25.00,16.10,0.0390,0.0370,0.0600,0.0330,0.0100,0,0.0689,0.0646,0.0000,194.7655,-135.9132,0
17255,-1.1586,0.3890,-0.2072,-2.6416,0.7935,-3.2698,-0.48,4.34,-1.38,0,3.827,0.094,0.272,0.072,-0.014,0.004,-1.013,0.000,0.000,0.000,0.2790,0,0,91.35,15.60,-125.03,227.1165,-161.7842,0.8834,2.8373,-3.0888,0.3000,0.7141,25.00,-25.00,41.33,0.0360,0.0360,0.0600,0.0330,0.0100,0,0.0689,0.0646,0.0000,194.7655,-135.9132,0
17305,-1.4090,0.4757,-0.1369,-2.9098,0.8908,-3.0438,-0.41,4.16,-2.00,0,3.827,0.013,-0.245,-0.379,-0.013,0.004,-1.012,0.000,0.000,0.000,0.2760,0,0,90.63,15.47,-124.74,230.8049,-163.9205,0.7312,2.8346,-3.0861,0.3000,0.6764,25.00,-25.00,59.89,0.0360,0.0360,0.0560,0.0350,0.0110,6,0.0689,0.0646,0.0000,194.7655,-135.9132,0
17357,-1.5956,0.5374,-0.2391,-3.3354,1.0503,-3.7679,-0.65,4.86,-2.53,0,3.822,-0.170,-0.147,-0.065,-0.013,0.003,-1.011,0.000,0.000,0.000,0.2800,-1,0,89.94,15.37,-124.47,234.8361,-166.1868,0.5047,2.8318,-3.0835,0.3000,0.7739,25.00,-25.00,75.96,0.0330,0.0390,0.0560,0.0350,0.0110,6,0.0689,0.0646,0.0000,231.4977,-163.9421,0
17409,-1.9455,0.6880,-0.1209,-3.6806,1.2014,-2.8890,1.08,0.85,-4.09,0,3.822,-0.261,-0.082,0.033,-0.014,0.004,-1.014,0.000,0.000,0.000,0.2770,0,-1,90.70,15.66,-124.98,236.1252,-168.5920,0.6599,2.8290,-3.0808,0.3000,0.6567,25.00,-25.00,122.80,0.0330,0.0390,0.0580,0.0350,0.0120,6,0.0689,0.0646,0.0000,231.4977,-163.9421,0
17461,-2.1815,0.7865,-0.0746,-4.0527,1.3777,-3.0209,1.69,-0.61,-5.30,0,3.827,-0.132,0.010,0.169,-0.013,0.003,-1.013,0.000,0.000,0.000,0.2760,0,0,90.43,15.35,-124.96,239.4947,-171.0947,0.5654,2.8261,-3.0782,0.3000,0.6622,25.00,-25.00,159.15,0.0350,0.0380,0.0580,0.0350,0.0120,6,0.0689,0.0646,0.0000,231.4977,-163.9421,0
17512,-2.5502,0.9613,-0.0656,-4.3770,1.5710,-2.9584,2.10,-1.13,-6.14,0,3.827,0.088,-0.093,-0.399,-0.014,0.001,-1.012,0.000,0.000,0.000,0.2750,0,1,89.99,15.26,-124.84,242.8848,-173.4074,0.3987,2.8232,-3.0757,0.3000,0.6537,25.00,-25.00,184.32,0.0350,0.0380,0.0580,0.0320,0.0090,6,0.0689,0.0646,0.0000,231.4977,-163.9421,0
17563,-2.8829,1.1426,0.0191,-4.6003,1.7445,-2.6305,3.63,-5.26,-7.94,0,3.827,-0.077,-0.231,0.087,-0.013,0.004,-1.011,0.000,0.000,0.000,0.2740,-1,0,90.75,15.26,-124.98,246.2945,-175.4753,0.5357,2.8202,-3.0732,0.3000,0.6023,25.00,-25.00,238.33,0.0390,0.0390,0.0580,0.0320,0.0090,6,0.0689,0.0646,0.0000,231.4977,-163.9421,0
17615,-3.1318,1.2567,0.0061,-4.8996,1.9076,-3.0432,4.40,-6.86,-9.24,0,3.822,0.069,-0.025,-0.018,-0.015,0.003,-1.011,0.000,0.000,0.000,0.2780,0,0,90.71,15.06,-124.93,249.9630,-177.7660,0.4913,2.8172,-3.0708,0.3000,0.6493,25.00,-25.00,277.25,0.0390,0.0390,0.0540,0.0330,0.0110,6,0.0689,0.0646,0.0000,231.4977,-163.9421,0
17666,-3.4770,1.5168,0.1654,-4.9325,2.1063,-2.1206,5.29,-10.32,-10.67,0,3.822,-0.065,-0.176,0.192,-0.012,0.004,-1.013,0.000,0.000,0.000,0.2800,-1,-1,90.41,14.98,-124.91,253.2027,-180.2545,0.3571,2.8142,-3.0684,0.3000,0.5196,25.00,-25.00,320.20,0.0380,0.0390,0.0540,0.0330,0.0110,6,0.0689,0.0646,0.0000,231.4977,-163.9421,0
17718,-3.7609,1.6912,0.1456,-4.9849,2.2175,-2.3390,6.32,-14.19,-11.96,0,3.827,0.395,-0.046,-0.188,-0.011,0.003,-1.008,0.000,0.000,0.000,0.2780,0,2,91.24,15.08,-124.81,257.6521,-181.7853,0.5496,2.8111,-3.0660,0.3000,0.5469,25.00,-25.00,358.69,0.0380,0.0390,0.0580,0.0330,0.0120,6,0.0689,0.0646,0.0000,231.4977,-163.9421,0
17769,-4.0367,1.9030,0.1733,-4.8304,2.2597,-1.9178,7.46,-18.76,-13.02,0,3.832,-0.165,-0.360,-0.161,-0.013,0.003,-1.010,0.000,0.000,0.000,0.2770,0,0,91.28,14.93,-124.79,261.3273,-184.1531,0.5441,2.8081,-3.0637,0.3000,0.4962,25.00,-25.00,390.64,0.0380,0.0390,0.0580,0.0330,0.0120,6,0.0689,0.0646,0.0000,231.4977,-163.9421,0
17820,-4.4029,2.0905,0.1756,-5.1795,2.4149,-1.9407,7.95,-17.96,-13.04,0,3.822,-0.115,-0.179,-0.188,-0.013,0.002,-1.013,0.000,0.000,0.000,0.2790,2,-2,90.92,14.84,-124.76,264.5836,-186.6381,0.4269,2.8050,-3.0615,0.3000,0.4982,25.00,-25.00,391.12,0.0380,0.0390,0.0570,0.0320,0.0100,6,0.0689,0.0646,0.0000,231.4977,-163.9421,0
17871,-4.7363,2.3128,0.1684,-5.3457,2.5913,-2.0385,8.63,-21.11,-14.28,0,3.827,0.022,-0.003,-0.144,-0.014,0.003,-1.012,0.000,0.000,0.000,0.2780,-1,-1,91.69,14.88,-124.79,268.8417,-188.6562,0.6281,2.8018,-3.0593,0.3000,0.5102,25.00,-25.00,428.48,0.0000,0.0380,0.0570,0.0320,0.0100,6,0.0689,0.0646,0.0000,231.4977,-163.9421,0
17922,-4.9772,2.5252,0.1532,-5.2272,2.6777,-2.1755,9.30,-24.94,-15.05,0,3.827,0.091,-0.208,-0.225,-0.011,0.003,-1.010,0.000,0.000,0.000,0.2790,-1,-1,91.66,14.71,-124.77,272.5264,-191.1270,0.6391,2.7986,-3.0571,0.3000,0.5278,25.00,-25.00,451.48,0.0000,0.0380,0.0560,0.0340,0.0110,6,0.0689,0.0646,0.0000,231.4977,-163.9421,0
17973,-5.3258,2.7183,0.1652,-5.3881,2.7684,-2.0823,10.23,-27.36,-14.75,0,3.827,-0.190,-0.258,-0.106,-0.013,0.003,-1.011,0.000,0.000,0.000,0.2750,-1,1,91.65,14.55,-124.74,276.2526,-193.5317,0.6608,2.7954,-3.0550,0.3000,0.5155,25.00,-25.00,442.44,0.0360,0.0390,0.0560,0.0340,0.0110,6,0.0689,0.0646,0.0000,231.4977,-163.9421,0
18025,-5.6380,2.8957,0.1423,-5.5118,2.8607,-2.2927,11.01,-29.75,-14.56,0,3.827,-0.091,0.268,0.095,-0.013,0.004,-1.010,0.000,0.000,0.000,0.2770,-1,1,91.57,14.44,-124.70,280.0222,-195.9705,0.6743,2.7922,-3.0530,0.3000,0.5425,25.00,-25.00,436.84,0.0360,0.0390,0.0560,0.0340,0.0080,6,0.0689,0.0646,0.0000,231.4977,-163.9421,0
18076,-5.9621,3.0888,0.1228,-5.6510,2.9734,-2.4539,11.83,-32.35,-14.38,0,3.827,0.015,-0.124,-0.261,-0.013,0.005,-1.011,0.000,0.000,0.000,0.2790,0,0,91.45,14.36,-124.64,283.6917,-198.3826,0.6764,2.7889,-3.0510,0.3000,0.5636,25.00,-25.00,431.27,0.0390,0.0400,0.0560,0.0340,0.0080,6,0.0689,0.0646,0.0000,231.4977,-163.9421,0
18128,-6.3625,3.3053,0.1437,-5.8769,3.0913,-2.2941,12.69,-33.69,-13.80,0,3.827,-0.221,0.048,0.201,-0.011,0.003,-1.010,0.000,0.000,0.000,0.2760,-1,0,90.92,14.28,-124.65,286.9968,-201.4048,0.5244,2.7856,-3.0490,0.3000,0.5424,25.00,-25.00,413.98,0.0390,0.0400,0.0570,0.0360,0.0100,6,0.0689,0.0646,0.0000,231.4977,-163.9421,0
18179,-6.7596,3.5634,0.1243,-6.1380,3.2925,-2.3580,13.67,-37.34,-14.11,0,3.827,0.107,-0.320,-0.096,-0.013,0.002,-1.011,0.000,0.000,0.000,0.2790,1,1,91.36,14.38,-124.57,290.9620,-203.1950,0.6604,2.7822,-3.0471,0.3000,0.5530,25.00,-25.00,423.24,0.0340,0.0380,0.0570,0.0360,0.0100,6,0.0689,0.0646,0.0000,231.4977,-163.9421,0
18231,-7.1421,3.8111,0.0790,-6.4036,3.5049,-2.6622,14.97,-39.65,-13.37,0,3.832,0.064,0.203,-0.137,-0.013,0.002,-1.013,0.000,0.000,0.000,0.2800,0,0,91.26,14.30,-124.60,294.5797,-205.8881,0.6340,2.7788,-3.0452,0.3000,0.5944,25.00,-25.00,401.21,0.0340,0.0380,0.0570,0.0330,0.0110,6,0.0689,0.0646,0.0000,231.4977,-163.9421,0
18283,-7.6240,4.1075,0.0555,-6.7649,3.7526,-2.6626,15.88,-40.48,-12.82,0,3.827,-0.068,-0.019,-0.077,-0.012,0.004,-1.014,0.000,0.000,0.000,0.2780,0,0,90.78,14.26,-124.52,298.2178,-208.6726,0.4856,2.7754,-3.0434,0.3000,0.5989,25.00,-25.00,384.56,0.0350,0.0380,0.0570,0.0330,0.0110,6,0.0689,0.0646,0.0000,231.4977,-163.9421,0
18334,-8.1325,4.3952,0.0036,-7.2097,4.0166,-2.8650,17.32,-42.62,-12.17,0,3.827,0.115,-0.120,0.026,-0.013,0.004,-1.012,0.000,0.000,0.000,0.2800,2,-2,90.45,14.23,-124.47,301.8822,-211.3456,0.3057,2.7719,-3.0417,0.3000,0.6306,25.00,-25.00,365.13,0.0350,0.0380,0.0570,0.0310,0.0080,6,0.0689,0.0646,0.0000,231.4977,-163.9421,0
18386,-8.6372,4.9107,0.0304,-7.4405,4.4573,-2.3165,20.29,-49.60,-11.15,0,3.832,-0.150,0.214,0.040,-0.014,0.004,-1.014,0.000,0.000,0.000,0.2780,0,0,91.39,14.59,-124.68,305.3592,-213.6643,0.5617,2.7684,-3.0400,0.3000,0.5663,25.00,-25.00,334.52,0.0370,0.0440,0.0570,0.0310,0.0080,6,0.0689,0.0646,0.0000,231.4977,-163.9421,0
18438,-9.2747,5.2082,0.0447,-7.9679,4.6846,-2.1774,22.64,-51.40,-8.95,0,3.832,0.089,-0.085,-0.312,-0.012,0.003,-1.012,0.000,0.000,0.000,0.2780,0,0,91.10,14.58,-124.55,309.2448,-216.0699,0.4576,2.7649,-3.0383,0.3000,0.5485,25.00,-25.00,268.43,0.0370,0.0440,0.0570,0.0360,0.0110,6,0.0689,0.0646,0.0000,231.4977,-163.9421,0
18489,-9.9622,5.4090,-0.0085,-8.6687,4.8513,-2.5483,24.43,-53.86,-8.52,0,3.827,0.002,-0.061,0.100,-0.013,0.001,-1.013,0.000,0.000,0.000,0.2790,-1,0,90.85,14.56,-124.43,313.1272,-218.3755,0.3098,2.7614,-3.0367,0.3000,0.5986,25.00,-25.00,255.69,0.0370,0.0430,0.0570,0.0360,0.0110,6,0.0689,0.0646,0.0000,231.4977,-163.9421,0
