time_ms,pos_x,pos_y,pos_z,vel_x,vel_y,vel_z,roll,pitch,yaw,thrust,vbat,gyro_x,gyro_y,gyro_z,acc_x,acc_y,acc_z,rate_roll,rate_pitch,rate_yaw,range_z,flow_dx,flow_dy,mekf_roll,mekf_pitch,mekf_yaw,mekf_x,mekf_y,mekf_z,our_ref_x,our_ref_y,our_ref_z,our_thrust,our_roll_cmd,our_pitch_cmd,our_yaw_rate_cmd,multi_front,multi_back,multi_left,multi_right,multi_up,ai_feat_count,vo_x,vo_y,vo_sigma,pg_x,pg_y,lc_count
0,-0.2656,-0.3556,0.0087,-0.0008,0.0014,0.0059,0.08,-0.97,-0.33,0,4.028,-0.102,0.308,-0.096,-0.018,0.003,1.001,0.000,0.000,0.000,0.0070,0,0,0.00,0.00,0.00,0.0000,0.0000,0.0000,0.0000,0.0000,0.0000,0.0000,0.00,0.00,0.00,0.9670,0.0000,1.1450,0.0000,2.7020,0,0.0000,0.0000,0.0000,0.0000,0.0000,0
101,-0.2656,-0.3553,0.0081,-0.0014,0.0025,0.0023,0.06,-0.97,-0.32,0,4.028,0.075,0.422,-0.189,-0.018,0.004,1.003,0.000,0.000,0.000,0.0060,1,2,0.00,0.00,0.00,0.0000,0.0000,0.0000,0.0000,0.0000,0.0000,0.0000,0.00,0.00,0.00,0.9660,0.5900,1.1410,0.6730,2.7080,0,0.0000,0.0000,0.0000,0.0000,0.0000,0
202,-0.2659,-0.3558,0.0072,-0.0028,-0.0003,-0.0015,0.09,-0.94,-0.33,0,4.022,0.030,-0.037,-0.076,-0.018,0.003,0.998,0.000,0.000,0.000,0.0060,2,1,0.00,0.00,0.00,0.0000,0.0000,0.0000,0.0000,0.0000,0.0000,0.0000,0.00,0.00,0.00,0.9660,0.5900,1.1410,0.6730,2.7080,0,0.0000,0.0000,0.0000,0.0000,0.0000,0
303,-0.2664,-0.3548,0.0066,-0.0053,0.0058,-0.0038,0.06,-0.93,-0.32,0,4.033,0.063,0.031,-0.035,-0.019,0.002,1.000,0.000,0.000,0.000,0.0070,-5,-5,0.00,0.00,0.00,0.0000,0.0000,0.0000,0.0000,0.0000,0.0000,0.0000,0.00,0.00,0.00,0.9690,0.5390,1.1400,0.0000,2.7080,0,0.0000,0.0000,0.0000,0.0000,0.0000,0
404,-0.2659,-0.3560,0.0066,-0.0023,-0.0012,-0.0032,0.05,-1.00,-0.32,0,4.022,-0.115,0.076,-0.090,-0.016,0.001,1.002,0.000,0.000,0.000,0.0080,0,0,0.00,0.00,0.00,0.0000,0.0000,0.0000,0.0000,0.0000,0.0000,0.0000,0.00,0.00,0.00,0.9690,0.5390,1.1400,0.0000,2.7080,0,0.0000,0.0000,0.0000,0.0000,0.0000,0
505,-0.2657,-0.3553,0.0072,-0.0016,0.0020,-0.0002,0.07,-0.95,-0.33,0,4.028,-0.239,0.146,-0.119,-0.016,0.003,1.003,0.000,0.000,0.000,0.0070,-6,4,0.00,0.00,0.00,0.0000,0.0000,0.0000,0.0000,0.0000,0.0000,0.0000,0.00,0.00,0.00,0.9650,0.0000,1.1450,0.6980,2.7040,0,0.0000,0.0000,0.0000,0.0000,0.0000,0
606,-0.2657,-0.3557,0.0071,-0.0015,-0.0008,0.0006,0.03,-0.92,-0.32,0,4.022,-0.142,-0.102,0.200,-0.017,0.001,0.999,0.000,0.000,0.000,0.0050,1,1,0.00,0.00,0.00,0.0000,0.0000,0.0000,0.0000,0.0000,0.0000,0.0000,0.00,0.00,0.00,0.9650,0.0000,1.1450,0.6980,2.7040,0,0.0000,0.0000,0.0000,0.0000,0.0000,0
708,-0.2657,-0.3557,0.0061,-0.0015,-0.0012,-0.0042,0.10,-0.94,-0.33,0,4.028,-0.071,-0.305,-0.281,-0.018,0.002,1.001,0.000,0.000,0.000,0.0070,0,3,0.00,0.00,0.00,0.0000,0.0000,0.0000,0.0000,0.0000,0.0000,0.0000,0.00,0.00,0.00,0.9670,0.5590,1.1440,0.7140,2.7020,0,0.0000,0.0000,0.0000,0.0000,0.0000,0
809,-0.2657,-0.3557,0.0064,-0.0016,-0.0010,-0.0014,0.08,-0.91,-0.33,0,4.022,-0.012,-0.048,0.040,-0.018,0.001,1.002,0.000,0.000,0.000,0.0070,1,-1,0.00,0.00,0.00,0.0000,0.0000,0.0000,0.0000,0.0000,0.0000,0.0000,0.00,0.00,0.00,0.9670,0.5590,1.1440,0.7140,2.7020,0,0.0000,0.0000,0.0000,0.0000,0.0000,0
910,-0.2661,-0.3555,0.0067,-0.0040,0.0004,0.0007,0.09,-0.93,-0.33,0,4.028,0.125,0.013,-0.233,-0.020,0.002,1.001,0.000,0.000,0.000,0.0090,4,0,0.00,0.00,0.00,0.0000,0.0000,0.0000,0.0000,0.0000,0.0000,0.0000,0.00,0.00,0.00,0.9670,0.0000,1.1400,0.0000,2.7030,0,0.0000,0.0000,0.0000,0.0000,0.0000,0
1011,-0.2657,-0.3549,0.0078,-0.0022,0.0035,0.0064,0.09,-0.94,-0.33,0,4.022,0.113,-0.051,-0.263,-0.019,0.002,1.001,0.000,0.000,0.000,0.0080,0,-1,0.00,0.00,0.00,0.0000,0.0000,0.0000,0.0000,0.0000,0.0000,0.0000,0.00,0.00,0.00,0.9670,0.0000,1.1400,0.0000,2.7030,0,0.0000,0.0000,0.0000,0.0000,0.0000,0
1112,-0.2661,-0.3557,0.0082,-0.0049,-0.0009,0.0073,0.08,-0.93,-0.34,0,4.028,-0.229,0.202,-0.003,-0.018,0.001,1.001,0.000,0.000,0.000,0.0050,1,2,0.00,0.00,0.00,0.0000,0.0000,0.0000,0.0000,0.0000,0.0000,0.0000,0.00,0.00,0.00,0.9650,0.0000,1.1420,0.0000,2.6990,0,0.0000,0.0000,0.0000,0.0000,0.0000,0
1213,-0.2661,-0.3557,0.0070,-0.0042,-0.0007,0.0008,0.09,-0.91,-0.34,0,4.022,0.079,-0.137,-0.202,-0.015,0.003,1.003,0.000,0.000,0.000,0.0080,1,1,0.00,0.00,0.00,0.0000,0.0000,0.0000,0.0000,0.0000,0.0000,0.0000,0.00,0.00,0.00,0.9650,0.0000,1.1420,0.0000,2.6990,0,0.0000,0.0000,0.0000,0.0000,0.0000,0
1314,-0.2658,-0.3555,0.0076,-0.0026,0.0000,0.0036,0.09,-0.93,-0.34,0,4.028,-0.049,-0.141,0.174,-0.016,0.001,0.998,0.000,0.000,0.000,0.0090,-5,-1,0.00,0.00,0.00,0.0000,0.0000,0.0000,0.0000,0.0000,0.0000,0.0000,0.00,0.00,0.00,0.9700,0.5540,1.1390,0.7630,2.7000,0,0.0000,0.0000,0.0000,0.0000,0.0000,0
1415,-0.2660,-0.3557,0.0085,-0.0034,-0.0006,0.0071,0.03,-0.95,-0.34,0,4.022,-0.088,-0.081,0.010,-0.018,0.001,1.003,0.000,0.000,0.000,0.0050,0,-2,0.00,0.00,0.00,0.0000,0.0000,0.0000,0.0000,0.0000,0.0000,0.0000,0.00,0.00,0.00,0.9700,0.5540,1.1390,0.7630,2.7000,0,0.0000,0.0000,0.0000,0.0000,0.0000,0
1516,-0.2662,-0.3557,0.0070,-0.0050,-0.0009,-0.0007,0.09,-0.95,-0.34,0,4.033,-0.331,0.153,0.108,-0.018,0.001,1.002,0.000,0.000,0.000,0.0090,0,0,0.00,0.00,0.00,0.0000,0.0000,0.0000,0.0000,0.0000,0.0000,0.0000,0.00,0.00,0.00,0.9680,0.0000,1.1460,0.0000,2.7050,0,0.0000,0.0000,0.0000,0.0000,0.0000,0
1567,-0.2662,-0.3548,0.0080,-0.0051,0.0037,0.0045,0.05,-0.93,-0.34,0,4.022,0.184,-0.222,-0.216,-0.020,0.002,1.001,0.000,0.000,0.000,0.0090,3,0,0.00,0.00,0.00,0.0000,0.0000,0.0000,0.0000,0.0000,0.0000,0.0000,0.00,0.00,0.00,0.9680,0.0000,1.1460,0.0000,2.7050,0,0.0000,0.0000,0.0000,0.0000,0.0000,0
1618,-0.2660,-0.3550,0.0087,-0.0040,0.0027,0.0073,0.09,-0.94,-0.34,0,4.028,-0.155,-0.123,-0.204,-0.017,0.005,1.002,0.000,0.000,0.000,0.0090,1,0,0.00,0.00,0.00,0.0000,0.0000,0.0000,0.0000,0.0000,0.0000,0.0000,0.00,0.00,0.00,0.9670,0.5260,1.1410,0.0000,2.7100,0,0.0000,0.0000,0.0000,0.0000,0.0000,0
1669,-0.2660,-0.3578,0.0092,-0.0034,-0.0100,0.0085,0.16,-0.95,-0.34,0,4.022,-0.276,-0.250,-0.030,-0.019,0.003,1.002,0.000,0.000,0.000,0.0090,0,0,0.00,0.00,0.00,0.0000,0.0000,0.0000,0.0000,0.0000,0.0000,0.0000,0.00,0.00,0.00,0.9670,0.5260,1.1410,0.0000,2.7100,0,0.0000,0.0000,0.0000,0.0000,0.0000,0
1720,-0.2662,-0.3550,0.0096,-0.0043,0.0062,0.0089,0.02,-0.94,-0.34,0,4.022,-0.041,-0.099,0.103,-0.019,0.003,1.000,0.000,0.000,0.000,0.0110,0,-3,0.00,0.00,0.00,0.0000,0.0000,0.0000,0.0000,0.0000,0.0000,0.0000,0.00,0.00,0.00,0.9660,0.0000,1.1440,0.0000,2.7080,0,0.0000,0.0000,0.0000,0.0000,0.0000,0
1770,-0.2665,-0.3550,0.0107,-0.0052,0.0059,0.0124,0.02,-0.96,-0.33,0,4.022,-0.164,-0.099,-0.180,-0.021,-0.000,0.999,0.000,0.000,0.000,0.0080,1,0,0.00,0.00,0.00,0.0000,0.0000,0.0000,0.0000,0.0000,0.0000,0.0000,0.00,0.00,0.00,0.9660,0.0000,1.1440,0.0000,2.7080,0,0.0000,0.0000,0.0000,0.0000,0.0000,0
1822,-0.2664,-0.3552,0.0099,-0.0055,0.0044,0.0062,0.05,-0.93,-0.34,0,4.028,-0.019,-0.074,-0.016,-0.017,0.002,1.001,0.000,0.000,0.000,0.0050,4,5,0.00,0.00,0.00,0.0000,0.0000,0.0000,0.0000,0.0000,0.0000,0.0000,0.00,0.00,0.00,0.9720,0.0000,1.1470,0.6870,2.7060,0,0.0000,0.0000,0.0000,0.0000,0.0000,0
1873,-0.2662,-0.3543,0.0078,-0.0040,0.0089,-0.0037,0.04,-0.90,-0.33,0,4.022,0.286,0.051,-0.101,-0.020,0.005,1.003,0.000,0.000,0.000,0.0100,1,-4,0.00,0.00,0.00,0.0000,0.0000,0.0000,0.0000,0.0000,0.0000,0.0000,0.00,0.00,0.00,0.9720,0.0000,1.1470,0.6870,2.7060,0,0.0000,0.0000,0.0000,0.0000,0.0000,0
1924,-0.2664,-0.3550,0.0089,-0.0045,0.0036,0.0036,0.06,-0.98,-0.34,0,4.028,-0.087,-0.307,-0.330,-0.017,0.002,1.002,0.000,0.000,0.000,0.0070,6,-2,0.00,0.00,0.00,0.0000,0.0000,0.0000,0.0000,0.0000,0.0000,0.0000,0.00,0.00,0.00,0.9640,0.5690,1.1450,0.0000,2.7090,0,0.0000,0.0000,0.0000,0.0000,0.0000,0
1975,-0.2664,-0.3550,0.0082,-0.0045,0.0037,0.0002,0.11,-0.96,-0.34,0,4.022,-0.048,-0.025,-0.185,-0.017,0.004,1.001,0.000,0.000,0.000,0.0080,0,0,0.00,0.00,0.00,0.0000,0.0000,0.0000,0.0000,0.0000,0.0000,0.0000,0.00,0.00,0.00,0.9640,0.5690,1.1450,0.0000,2.7090,0,0.0000,0.0000,0.0000,0.0000,0.0000,0
2026,-0.2662,-0.3550,0.0082,-0.0030,0.0035,0.0006,0.05,-0.95,-0.34,0,4.028,0.050,-0.177,0.109,-0.016,0.003,1.002,0.000,0.000,0.000,0.0070,-7,-5,0.00,0.00,0.00,0.0000,0.0000,0.0000,0.0000,0.0000,0.0000,0.0000,0.00,0.00,0.00,0.9670,0.6000,1.1450,0.0000,2.7080,0,0.0000,0.0000,0.0000,0.0000,0.0000,0
2077,-0.2667,-0.3541,0.0076,-0.0053,0.0073,-0.0004,-0.04,-0.98,-0.33,0,4.022,-0.181,0.142,0.221,-0.017,0.003,1.001,0.000,0.000,0.000,0.0070,4,1,0.00,0.00,0.00,0.0000,0.0000,0.0000,0.0000,0.0000,0.0000,0.0000,0.00,0.00,0.00,0.9670,0.6000,1.1450,0.0000,2.7080,0,0.0000,0.0000,0.0000,0.0000,0.0000,0
2128,-0.2663,-0.3550,0.0073,-0.0024,0.0017,-0.0019,0.11,-0.94,-0.34,0,4.028,-0.008,0.103,0.359,-0.019,-0.001,1.001,0.000,0.000,0.000,0.0100,10,3,0.00,0.00,0.00,0.0000,0.0000,0.0000,0.0000,0.0000,0.0000,0.0000,0.00,0.00,0.00,0.9670,0.0000,1.1440,0.0000,2.7080,0,0.0000,0.0000,0.0000,0.0000,0.0000,0
2179,-0.2667,-0.3550,0.0086,-0.0044,0.0016,0.0041,0.17,-0.90,-0.34,0,4.022,-0.216,0.094,-0.043,-0.017,0.000,0.999,0.000,0.000,0.000,0.0050,0,0,0.00,0.00,0.00,0.0000,0.0000,0.0000,0.0000,0.0000,0.0000,0.0000,0.00,0.00,0.00,0.9670,0.0000,1.1440,0.0000,2.7080,0,0.0000,0.0000,0.0000,0.0000,0.0000,0
2230,-0.2665,-0.3552,0.0071,-0.0027,-0.0004,-0.0033,0.08,-0.94,-0.33,0,4.028,-0.254,0.173,0.054,-0.016,0.003,1.001,0.000,0.000,0.000,0.0070,0,-3,0.00,0.00,0.00,0.0000,0.0000,0.0000,0.0000,0.0000,0.0000,0.0000,0.00,0.00,0.00,0.9680,0.0000,1.1440,0.6860,2.7060,0,0.0000,0.0000,0.0000,0.0000,0.0000,0
2281,-0.2665,-0.3549,0.0069,-0.0022,0.0012,-0.0022,0.07,-0.97,-0.33,0,4.022,-0.009,-0.082,-0.151,-0.021,0.003,1.001,0.000,0.000,0.000,0.0100,4,0,0.00,0.00,0.00,0.0000,0.0000,0.0000,0.0000,0.0000,0.0000,0.0000,0.00,0.00,0.00,0.9680,0.0000,1.1440,0.6860,2.7060,0,0.0000,0.0000,0.0000,0.0000,0.0000,0
2332,-0.2662,-0.3541,0.0084,-0.0017,0.0061,0.0056,0.07,-0.95,-0.33,0,4.028,-0.102,-0.119,0.224,-0.018,0.001,1.003,0.000,0.000,0.000,0.0070,1,1,0.00,0.00,0.00,0.0000,0.0000,0.0000,0.0000,0.0000,0.0000,0.0000,0.00,0.00,0.00,0.9640,0.5760,1.1440,0.7150,2.7060,0,0.0000,0.0000,0.0000,0.0000,0.0000,0
2383,-0.2665,-0.3547,0.0081,-0.0028,0.0016,0.0039,0.08,-0.93,-0.33,0,4.022,-0.199,-0.288,-0.118,-0.018,0.002,1.003,0.000,0.000,0.000,0.0070,0,7,0.00,0.00,0.00,0.0000,0.0000,0.0000,0.0000,0.0000,0.0000,0.0000,0.00,0.00,0.00,0.9640,0.5760,1.1440,0.7150,2.7060,0,0.0000,0.0000,0.0000,0.0000,0.0000,0
2434,-0.2663,-0.3634,0.0078,-0.0013,-0.0416,0.0024,0.38,-0.89,-0.34,0,4.033,-0.315,0.074,-0.130,-0.019,0.002,0.999,0.000,0.000,0.000,0.0080,0,-3,0.00,0.00,0.00,0.0000,0.0000,0.0000,0.0000,0.0000,0.0000,0.0000,0.00,0.00,0.00,0.9660,0.5630,1.1410,0.6280,2.7170,0,0.0000,0.0000,0.0000,0.0000,0.0000,0
2486,-0.2679,-0.3616,0.0083,-0.0101,-0.0242,0.0048,0.23,-0.92,-0.33,0,4.022,-0.193,-0.033,-0.036,-0.018,0.002,1.001,0.000,0.000,0.000,0.0070,3,-6,0.00,0.00,0.00,0.0000,0.0000,0.0000,0.0000,0.0000,0.0000,0.0000,0.00,0.00,0.00,0.9660,0.5630,1.1410,0.6280,2.7170,0,0.0000,0.0000,0.0000,0.0000,0.0000,0
2537,-0.2673,-0.3616,0.0079,-0.0061,-0.0189,0.0028,0.21,-0.99,-0.34,0,4.028,0.154,0.008,-0.121,-0.018,0.001,1.001,0.000,0.000,0.000,0.0070,1,0,0.00,0.00,0.00,0.0000,0.0000,0.0000,0.0000,0.0000,0.0000,0.0000,0.00,0.00,0.00,0.9680,0.5980,1.1450,0.6830,2.7030,0,0.0000,0.0000,0.0000,0.0000,0.0000,0
2588,-0.2672,-0.3698,0.0074,-0.0043,-0.0557,0.0004,0.45,-0.95,-0.35,0,4.028,0.031,0.029,-0.028,-0.017,0.002,0.999,0.000,0.000,0.000,0.0090,8,-1,0.00,0.00,0.00,0.0000,0.0000,0.0000,0.0000,0.0000,0.0000,0.0000,0.00,0.00,0.00,0.9680,0.5980,1.1450,0.6830,2.7030,0,0.0000,0.0000,0.0000,0.0000,0.0000,0
2639,-0.2670,-0.3684,0.0085,-0.0029,-0.0355,0.0055,0.34,-0.97,-0.35,0,4.028,-0.214,-0.012,-0.103,-0.018,0.002,1.001,0.000,0.000,0.000,0.0110,1,4,0.00,0.00,0.00,0.0000,0.0000,0.0000,0.0000,0.0000,0.0000,0.0000,0.00,0.00,0.00,0.9650,0.5930,1.1450,0.6820,2.7100,0,0.0000,0.0000,0.0000,0.0000,0.0000,0
2690,-0.2670,-0.3701,0.0101,-0.0027,-0.0360,0.0108,0.26,-0.92,-0.34,0,4.022,0.033,0.164,-0.077,-0.016,0.003,1.002,0.000,0.000,0.000,0.0090,-2,0,0.00,0.00,0.00,0.0000,0.0000,0.0000,0.0000,0.0000,0.0000,0.0000,0.00,0.00,0.00,0.9650,0.5930,1.1450,0.6820,2.7100,0,0.0000,0.0000,0.0000,0.0000,0.0000,0
2741,-0.2670,-0.3703,0.0102,-0.0018,-0.0295,0.0096,0.17,-0.97,-0.34,0,4.028,-0.338,0.132,-0.022,-0.019,0.001,1.002,0.000,0.000,0.000,0.0080,-2,-1,0.00,0.00,0.00,0.0000,0.0000,0.0000,0.0000,0.0000,0.0000,0.0000,0.00,0.00,0.00,0.9680,0.0000,1.1430,0.0000,2.7040,0,0.0000,0.0000,0.0000,0.0000,0.0000,0
2793,-0.2672,-0.3702,0.0095,-0.0024,-0.0220,0.0054,0.11,-0.97,-0.34,0,4.022,0.133,-0.394,-0.163,-0.020,0.003,1.000,0.000,0.000,0.000,0.0080,4,2,0.00,0.00,0.00,0.0000,0.0000,0.0000,0.0000,0.0000,0.0000,0.0000,0.00,0.00,0.00,0.9680,0.0000,1.1430,0.0000,2.7040,0,0.0000,0.0000,0.0000,0.0000,0.0000,0
2844,-0.2670,-0.3694,0.0091,-0.0015,-0.0131,0.0025,0.09,-1.00,-0.34,0,4.028,-0.128,-0.065,0.287,-0.017,0.003,1.001,0.000,0.000,0.000,0.0100,1,5,0.00,0.00,0.00,0.0000,0.0000,0.0000,0.0000,0.0000,0.0000,0.0000,0.00,0.00,0.00,0.9660,0.5390,1.1450,0.0000,2.6970,0,0.0000,0.0000,0.0000,0.0000,0.0000,0
2896,-0.2672,-0.3702,0.0097,-0.0025,-0.0130,0.0050,-0.02,-0.92,-0.33,0,4.022,-0.071,-0.007,-0.092,-0.017,0.002,1.001,0.000,0.000,0.000,0.0080,0,-2,0.00,0.00,0.00,0.0000,0.0000,0.0000,0.0000,0.0000,0.0000,0.0000,0.00,0.00,0.00,0.9660,0.5390,1.1450,0.0000,2.6970,0,0.0000,0.0000,0.0000,0.0000,0.0000,0
2947,-0.2672,-0.3702,0.0091,-0.0020,-0.0103,0.0013,-0.04,-0.99,-0.33,0,4.028,-0.127,0.193,0.006,-0.018,0.005,1.003,0.000,0.000,0.000,0.0100,0,6,0.00,0.00,0.00,0.0000,0.0000,0.0000,0.0000,0.0000,0.0000,0.0000,0.00,0.00,0.00,0.9670,0.5920,1.1410,0.0000,2.7100,0,0.0000,0.0000,0.0000,0.0000,0.0000,0
2998,-0.2672,-0.3705,0.0097,-0.0022,-0.0085,0.0044,-0.04,-0.99,-0.32,0,4.022,0.159,-0.231,0.175,-0.015,0.003,1.000,0.000,0.000,0.000,0.0090,5,0,0.00,0.00,0.00,0.0000,0.0000,0.0000,0.0000,0.0000,0.0000,0.0000,0.00,0.00,0.00,0.9670,0.5920,1.1410,0.0000,2.7100,0,0.0000,0.0000,0.0000,0.0000,0.0000,0
3049,-0.2672,-0.3695,0.0096,-0.0026,-0.0006,0.0039,0.01,-0.96,-0.33,0,4.028,0.213,-0.024,-0.214,-0.018,0.002,1.004,0.000,0.000,0.000,0.0100,-9,0,0.00,0.00,0.00,0.0000,0.0000,0.0000,0.0000,0.0000,0.0000,0.0000,0.00,0.00,0.00,0.9630,0.5660,1.1420,0.0000,2.7060,0,0.0000,0.0000,0.0000,0.0000,0.0000,0
3100,-0.2671,-0.3706,0.0100,-0.0011,-0.0054,0.0052,-0.08,-0.98,-0.33,0,4.022,-0.090,0.222,0.093,-0.019,-0.000,0.998,0.000,0.000,0.000,0.0060,2,-1,0.00,0.00,0.00,0.0000,0.0000,0.0000,0.0000,0.0000,0.0000,0.0000,0.00,0.00,0.00,0.9630,0.5660,1.1420,0.0000,2.7060,0,0.0000,0.0000,0.0000,0.0000,0.0000,0
3151,-0.2671,-0.3700,0.0083,-0.0012,-0.0010,-0.0031,-0.07,-0.95,-0.33,0,4.028,0.123,0.245,0.102,-0.016,0.001,1.001,0.000,0.000,0.000,0.0090,0,2,0.00,0.00,0.00,0.0000,0.0000,0.0000,0.0000,0.0000,0.0000,0.0000,0.00,0.00,0.00,0.9650,0.5380,1.1450,0.6950,2.6990,0,0.0000,0.0000,0.0000,0.0000,0.0000,0
3202,-0.2671,-0.3706,0.0086,-0.0016,-0.0037,-0.0005,0.01,-0.94,-0.33,0,4.022,-0.493,-0.053,0.096,-0.019,0.002,1.001,0.000,0.000,0.000,0.0060,0,0,0.00,0.00,0.00,0.0000,0.0000,0.0000,0.0000,0.0000,0.0000,0.0000,0.00,0.00,0.00,0.9650,0.5380,1.1450,0.6950,2.6990,0,0.0000,0.0000,0.0000,0.0000,0.0000,0
3253,-0.2673,-0.3706,0.0073,-0.0030,-0.0022,-0.0056,-0.01,-0.99,-0.32,0,4.028,-0.324,0.129,-0.195,-0.018,0.002,0.999,0.000,0.000,0.000,0.0080,-5,-3,0.00,0.00,0.00,0.0000,0.0000,0.0000,0.0000,0.0000,0.0000,0.0000,0.00,0.00,0.00,0.9680,0.5720,1.1410,0.0000,2.7030,0,0.0000,0.0000,0.0000,0.0000,0.0000,0
3304,-0.2671,-0.3701,0.0074,-0.0018,0.0013,-0.0030,-0.07,-0.98,-0.32,0,4.022,-0.162,-0.133,-0.082,-0.018,0.000,1.001,0.000,0.000,0.000,0.0080,0,0,0.00,0.00,0.00,0.0000,0.0000,0.0000,0.0000,0.0000,0.0000,0.0000,0.00,0.00,0.00,0.9680,0.5720,1.1410,0.0000,2.7030,0,0.0000,0.0000,0.0000,0.0000,0.0000,0
3355,-0.2673,-0.3697,0.0077,-0.0028,0.0037,-0.0004,-0.04,-0.94,-0.33,0,4.028,-0.154,-0.148,-0.088,-0.016,0.003,1.001,0.000,0.000,0.000,0.0070,0,4,0.00,0.00,0.00,0.0000,0.0000,0.0000,0.0000,0.0000,0.0000,0.0000,0.00,0.00,0.00,0.9660,0.6020,1.1400,0.0000,2.7040,0,0.0000,0.0000,0.0000,0.0000,0.0000,0
3406,-0.2676,-0.3744,0.0073,-0.0036,-0.0180,-0.0013,0.13,-0.90,-0.34,0,4.022,-0.194,0.020,0.343,-0.017,0.002,1.000,0.000,0.000,0.000,0.0100,2,0,0.00,0.00,0.00,0.0000,0.0000,0.0000,0.0000,0.0000,0.0000,0.0000,0.00,0.00,0.00,0.9660,0.6020,1.1400,0.0000,2.7040,0,0.0000,0.0000,0.0000,0.0000,0.0000,0
3457,-0.2683,-0.3816,0.0086,-0.0065,-0.0472,0.0049,0.36,-0.92,-0.34,0,4.028,-0.198,0.156,0.064,-0.018,0.002,1.003,0.000,0.000,0.000,0.0070,-2,1,0.00,0.00,0.00,0.0000,0.0000,0.0000,0.0000,0.0000,0.0000,0.0000,0.00,0.00,0.00,0.9640,0.5410,1.1430,0.5990,2.7010,0,0.0000,0.0000,0.0000,0.0000,0.0000,0
3508,-0.2678,-0.3819,0.0082,-0.0033,-0.0394,0.0031,0.24,-0.93,-0.34,0,4.022,0.026,-0.057,-0.224,-0.019,0.000,1.000,0.000,0.000,0.000,0.0080,4,5,0.00,0.00,0.00,0.0000,0.0000,0.0000,0.0000,0.0000,0.0000,0.0000,0.00,0.00,0.00,0.9640,0.5410,1.1430,0.5990,2.7010,0,0.0000,0.0000,0.0000,0.0000,0.0000,0
3559,-0.2680,-0.3805,0.0083,-0.0042,-0.0244,0.0037,0.17,-0.90,-0.33,0,4.028,0.095,0.052,-0.179,-0.016,0.001,1.000,0.000,0.000,0.000,0.0090,6,-3,0.00,0.00,0.00,0.0000,0.0000,0.0000,0.0000,0.0000,0.0000,0.0000,0.00,0.00,0.00,0.9640,0.5830,1.1410,0.0000,2.7040,0,0.0000,0.0000,0.0000,0.0000,0.0000,0
3611,-0.2682,-0.3813,0.0089,-0.0041,-0.0226,0.0058,0.17,-0.97,-0.34,0,4.017,-0.153,-0.114,-0.158,-0.020,0.000,1.002,0.000,0.000,0.000,0.0060,2,0,0.00,0.00,0.00,0.0000,0.0000,0.0000,0.0000,0.0000,0.0000,0.0000,0.00,0.00,0.00,0.9640,0.5830,1.1410,0.0000,2.7040,0,0.0000,0.0000,0.0000,0.0000,0.0000,0
3662,-0.2678,-0.3804,0.0078,-0.0018,-0.0130,-0.0000,0.06,-0.96,-0.33,0,4.028,-0.057,-0.095,-0.268,-0.017,0.003,1.000,0.000,0.000,0.000,0.0070,2,0,0.00,0.00,0.00,0.0000,0.0000,0.0000,0.0000,0.0000,0.0000,0.0000,0.00,0.00,0.00,0.9700,0.5710,1.1410,0.0000,2.7030,0,0.0000,0.0000,0.0000,0.0000,0.0000,0
3713,-0.2678,-0.3810,0.0074,-0.0019,-0.0115,-0.0017,0.05,-0.96,-0.33,0,4.022,-0.058,-0.119,0.015,-0.020,0.002,1.001,0.000,0.000,0.000,0.0110,0,0,0.00,0.00,0.00,0.0000,0.0000,0.0000,0.0000,0.0000,0.0000,0.0000,0.00,0.00,0.00,0.9700,0.5710,1.1410,0.0000,2.7030,0,0.0000,0.0000,0.0000,0.0000,0.0000,0
3764,-0.2681,-0.3815,0.0091,-0.0031,-0.0112,0.0064,0.04,-0.95,-0.33,0,4.028,0.423,-0.139,0.079,-0.019,0.003,0.999,0.000,0.000,0.000,0.0080,0,8,0.00,0.00,0.00,0.0000,0.0000,0.0000,0.0000,0.0000,0.0000,0.0000,0.00,0.00,0.00,0.9680,0.5540,1.1470,0.0000,2.7020,0,0.0000,0.0000,0.0000,0.0000,0.0000,0
3815,-0.2679,-0.3811,0.0089,-0.0026,-0.0052,0.0038,-0.00,-0.88,-0.33,0,4.022,0.069,0.159,-0.107,-0.017,0.000,0.999,0.000,0.000,0.000,0.0080,0,1,0.00,0.00,0.00,0.0000,0.0000,0.0000,0.0000,0.0000,0.0000,0.0000,0.00,0.00,0.00,0.9680,0.5540,1.1470,0.0000,2.7020,0,0.0000,0.0000,0.0000,0.0000,0.0000,0
3866,0.0000,-0.0000,0.2984,0.0018,-0.0010,-0.0001,0.00,-0.00,-0.00,0,4.028,-0.183,0.027,0.015,-0.022,0.003,1.001,0.000,0.000,0.000,0.0080,2,-2,0.00,0.00,0.00,0.0000,0.0000,0.0000,0.0000,0.0000,0.0000,0.0000,0.00,0.00,0.00,0.9670,0.5720,1.1450,0.6940,2.7030,0,0.0000,0.0000,0.0000,0.0000,0.0000,0
3917,-0.0001,0.0004,0.0081,-0.0081,0.0071,0.0005,-0.02,-0.10,0.00,0,4.022,0.051,-0.140,0.038,-0.019,0.004,1.000,0.000,0.000,0.000,0.0070,3,1,0.00,0.00,0.00,0.0000,0.0000,0.0000,0.0000,0.0000,0.0000,0.0000,0.00,0.00,0.00,0.9670,0.5720,1.1450,0.6940,2.7030,0,0.0000,0.0000,0.0000,0.0000,0.0000,0
3969,-0.0006,0.0008,0.0076,-0.0148,0.0113,0.0001,-0.02,-0.04,0.00,0,4.028,-0.051,0.272,-0.079,-0.019,0.001,1.003,0.000,0.000,0.000,0.0100,7,2,0.00,0.00,0.00,0.0000,0.0000,0.0000,0.0000,0.0000,0.0000,0.0000,0.00,0.00,0.00,0.9650,0.5750,1.1430,0.7340,2.7060,0,0.0000,0.0000,0.0000,0.0000,0.0000,0
4020,-0.0004,0.0001,0.0087,-0.0107,-0.0002,0.0043,0.51,-0.29,0.01,0,4.022,-0.103,-0.258,0.001,-0.020,0.002,1.000,0.000,0.000,0.000,0.0070,2,-2,0.00,0.00,0.00,0.0000,0.0000,0.0000,0.0000,0.0000,0.0000,0.0000,0.00,0.00,0.00,0.9650,0.5750,1.1430,0.7340,2.7060,0,0.0000,0.0000,0.0000,0.0000,0.0000,0
4071,-0.0017,0.0001,0.0084,-0.0222,-0.0010,0.0019,0.25,-0.40,0.01,0,4.028,0.001,0.385,0.208,-0.017,0.002,1.001,0.000,0.000,0.000,0.0080,0,4,0.00,0.00,0.00,0.0000,0.0000,0.0000,0.0000,0.0000,0.0000,0.0000,0.00,0.00,0.00,0.9670,0.0000,1.1440,0.6070,2.7100,0,0.0000,0.0000,0.0000,0.0000,0.0000,0
4122,0.0001,-0.0004,0.0084,-0.0038,-0.0059,0.0025,0.24,-0.58,0.01,0,4.022,-0.106,-0.058,0.193,-0.018,0.003,1.002,0.000,0.000,0.000,0.0100,1,0,0.00,0.00,0.00,0.0000,0.0000,0.0000,0.0000,0.0000,0.0000,0.0000,0.00,0.00,0.00,0.9670,0.0000,1.1440,0.6070,2.7100,0,0.0000,0.0000,0.0000,0.0000,0.0000,0
4173,-0.0005,-0.0002,0.0095,-0.0088,-0.0032,0.0080,0.23,-0.72,0.01,0,4.028,-0.106,0.153,-0.124,-0.021,0.003,1.002,0.000,0.000,0.000,0.0070,1,2,0.00,0.00,0.00,0.0000,0.0000,0.0000,0.0000,0.0000,0.0000,0.0000,0.00,0.00,0.00,0.9650,0.0000,1.1430,0.0000,2.7020,0,0.0000,0.0000,0.0000,0.0000,0.0000,0
4224,-0.0007,-0.0002,0.0086,-0.0095,-0.0025,0.0031,0.20,-0.70,0.01,0,4.022,-0.201,-0.086,0.087,-0.018,0.003,1.003,0.000,0.000,0.000,0.0070,0,-5,0.00,0.00,0.00,0.0000,0.0000,0.0000,0.0000,0.0000,0.0000,0.0000,0.00,0.00,0.00,0.9650,0.0000,1.1430,0.0000,2.7020,0,0.0000,0.0000,0.0000,0.0000,0.0000,0
4276,-0.0012,0.0080,0.0079,-0.0122,0.0489,-0.0005,-0.55,-0.89,-0.01,0,4.028,0.041,-0.012,-0.127,-0.018,0.002,1.000,0.000,0.000,0.000,0.0090,3,-6,0.00,0.00,0.00,0.0000,0.0000,0.0000,0.0000,0.0000,0.0000,0.0000,0.00,0.00,0.00,0.9670,0.0000,1.1430,0.6780,2.6970,0,0.0000,0.0000,0.0000,0.0000,0.0000,0
4327,-0.0011,0.0074,0.0088,-0.0099,0.0363,0.0042,-0.24,-0.95,-0.00,0,4.022,-0.192,-0.085,-0.032,-0.017,-0.001,1.000,0.000,0.000,0.000,0.0100,0,2,0.00,0.00,0.00,0.0000,0.0000,0.0000,0.0000,0.0000,0.0000,0.0000,0.00,0.00,0.00,0.9670,0.0000,1.1430,0.6780,2.6970,0,0.0000,0.0000,0.0000,0.0000,0.0000,0
4378,-0.0007,0.0068,0.0099,-0.0067,0.0255,0.0085,-0.15,-0.82,-0.00,0,4.028,-0.300,-0.016,0.074,-0.020,0.000,1.002,0.000,0.000,0.000,0.0050,9,1,0.00,0.00,0.00,0.0000,0.0000,0.0000,0.0000,0.0000,0.0000,0.0000,0.00,0.00,0.00,0.9640,0.5710,1.1430,0.0000,2.7040,0,0.0000,0.0000,0.0000,0.0000,0.0000,0
4429,-0.0009,0.0067,0.0079,-0.0079,0.0204,-0.0010,0.08,-0.84,0.00,0,4.028,0.027,0.151,-0.079,-0.017,0.001,1.002,0.000,0.000,0.000,0.0090,1,1,0.00,0.00,0.00,0.0000,0.0000,0.0000,0.0000,0.0000,0.0000,0.0000,0.00,0.00,0.00,0.9640,0.5710,1.1430,0.0000,2.7040,0,0.0000,0.0000,0.0000,0.0000,0.0000,0
4480,-0.0015,0.0081,0.0085,-0.0098,0.0251,0.0026,-0.11,-0.82,-0.00,0,4.028,0.076,-0.094,-0.112,-0.019,0.002,1.001,0.000,0.000,0.000,0.0090,-6,0,0.00,0.00,0.00,0.0000,0.0000,0.0000,0.0000,0.0000,0.0000,0.0000,0.00,0.00,0.00,0.9650,0.0000,1.1430,0.0000,2.7080,0,0.0000,0.0000,0.0000,0.0000,0.0000,0
4532,-0.0020,0.0084,0.0089,-0.0119,0.0227,0.0042,-0.17,-0.84,-0.01,0,4.022,-0.063,-0.200,-0.031,-0.020,0.002,1.002,0.000,0.000,0.000,0.0060,0,0,0.00,0.00,0.00,0.0000,0.0000,0.0000,0.0000,0.0000,0.0000,0.0000,0.00,0.00,0.00,0.9650,0.0000,1.1430,0.0000,2.7080,0,0.0000,0.0000,0.0000,0.0000,0.0000,0
4583,-0.0015,0.0076,0.0077,-0.0077,0.0140,-0.0014,0.02,-0.88,-0.01,0,4.028,-0.130,-0.150,-0.048,-0.017,0.001,0.999,0.000,0.000,0.000,0.0110,4,-3,0.00,0.00,0.00,0.0000,0.0000,0.0000,0.0000,0.0000,0.0000,0.0000,0.00,0.00,0.00,0.9650,0.0000,1.1460,0.0000,2.7020,0,0.0000,0.0000,0.0000,0.0000,0.0000,0
4634,-0.0020,0.0085,0.0093,-0.0099,0.0153,0.0058,0.08,-0.92,-0.00,0,4.022,-0.394,-0.244,0.127,-0.016,0.005,1.001,0.000,0.000,0.000,0.0080,-1,3,0.00,0.00,0.00,0.0000,0.0000,0.0000,0.0000,0.0000,0.0000,0.0000,0.00,0.00,0.00,0.9650,0.0000,1.1460,0.0000,2.7020,0,0.0000,0.0000,0.0000,0.0000,0.0000,0
4686,-0.0012,0.0078,0.0089,-0.0043,0.0087,0.0035,0.07,-0.89,-0.00,0,4.028,0.077,0.172,-0.112,-0.019,0.001,1.000,0.000,0.000,0.000,0.0110,-4,-2,0.00,0.00,0.00,0.0000,0.0000,0.0000,0.0000,0.0000,0.0000,0.0000,0.00,0.00,0.00,0.9660,0.5710,1.1420,0.6330,2.6920,0,0.0000,0.0000,0.0000,0.0000,0.0000,0
4737,-0.0014,0.0076,0.0101,-0.0048,0.0053,0.0083,0.07,-0.95,-0.00,0,4.022,0.022,-0.083,-0.284,-0.018,0.002,1.002,0.000,0.000,0.000,0.0090,-3,3,0.00,0.00,0.00,0.0000,0.0000,0.0000,0.0000,0.0000,0.0000,0.0000,0.00,0.00,0.00,0.9660,0.5710,1.1420,0.6330,2.6920,0,0.0000,0.0000,0.0000,0.0000,0.0000,0
4788,-0.0011,0.0076,0.0099,-0.0037,0.0039,0.0060,0.09,-0.90,0.00,0,4.028,-0.210,0.008,0.053,-0.017,0.003,1.004,0.000,0.000,0.000,0.0080,2,-5,0.00,0.00,0.00,0.0000,0.0000,0.0000,0.0000,0.0000,0.0000,0.0000,0.00,0.00,0.00,0.9660,0.0000,1.1430,0.0000,2.7050,0,0.0000,0.0000,0.0000,0.0000,0.0000,0
4839,-0.0018,0.0080,0.0093,-0.0070,0.0047,0.0034,0.13,-0.97,0.00,0,4.022,-0.076,0.035,-0.136,-0.018,0.001,0.999,0.000,0.000,0.000,0.0080,0,-2,0.00,0.00,0.00,0.0000,0.0000,0.0000,0.0000,0.0000,0.0000,0.0000,0.00,0.00,0.00,0.9660,0.0000,1.1430,0.0000,2.7050,0,0.0000,0.0000,0.0000,0.0000,0.0000,0
4890,-0.0018,0.0080,0.0088,-0.0070,0.0035,0.0007,0.12,-0.93,-0.00,0,4.028,0.178,-0.106,-0.030,-0.017,0.000,1.000,0.000,0.000,0.000,0.0070,3,1,0.00,0.00,0.00,0.0000,0.0000,0.0000,0.0000,0.0000,0.0000,0.0000,0.00,0.00,0.00,0.9640,0.0000,1.1460,0.7090,2.7040,0,0.0000,0.0000,0.0000,0.0000,0.0000,0
4941,-0.0018,0.0082,0.0080,-0.0070,0.0037,-0.0022,0.14,-0.90,-0.01,0,4.022,-0.109,-0.077,-0.120,-0.020,0.001,1.003,0.000,0.000,0.000,0.0090,-3,1,0.00,0.00,0.00,0.0000,0.0000,0.0000,0.0000,0.0000,0.0000,0.0000,0.00,0.00,0.00,0.9640,0.0000,1.1460,0.7090,2.7040,0,0.0000,0.0000,0.0000,0.0000,0.0000,0
4992,-0.0009,0.0075,0.0085,-0.0015,-0.0012,0.0018,0.11,-0.95,-0.02,0,4.028,0.233,0.146,-0.072,-0.018,-0.000,1.001,0.000,0.000,0.000,0.0090,-11,1,0.00,0.00,0.00,0.0000,0.0000,0.0000,0.0000,0.0000,0.0000,0.0000,0.00,0.00,0.00,0.9660,0.5350,1.1420,0.0000,2.7110,0,0.0000,0.0000,0.0000,0.0000,0.0000,0
5044,-0.0012,0.0075,0.0088,-0.0029,-0.0018,0.0032,0.01,-0.93,-0.02,0,4.022,-0.196,-0.102,-0.269,-0.018,0.001,1.003,0.000,0.000,0.000,0.0070,-3,2,0.00,0.00,0.00,0.0000,0.0000,0.0000,0.0000,0.0000,0.0000,0.0000,0.00,0.00,0.00,0.9660,0.5350,1.1420,0.0000,2.7110,0,0.0000,0.0000,0.0000,0.0000,0.0000,0
5095,-0.0014,0.0075,0.0081,-0.0050,-0.0020,-0.0000,0.10,-0.91,-0.02,0,3.658,-1.434,-0.580,-1.064,-0.030,-0.015,1.009,0.000,0.000,0.000,0.0080,-2,-3,0.00,0.00,0.00,0.0000,0.0000,0.0000,0.0000,0.0000,0.0000,0.0000,0.00,0.00,0.00,0.9690,0.6050,1.1450,0.0000,2.7030,0,0.0000,0.0000,0.0000,0.0000,0.0000,0
5146,-0.0018,0.0083,0.0081,-0.0032,0.0008,0.0008,0.06,-0.94,-0.02,0,3.727,-0.924,0.181,-0.087,-0.032,-0.006,1.003,0.000,0.000,0.000,0.0080,0,3,0.00,0.00,0.00,0.0000,0.0000,0.0000,0.0000,0.0000,0.0000,0.0000,0.00,0.00,0.00,0.9690,0.6050,1.1450,0.0000,2.7030,0,0.0000,0.0000,0.0000,0.0000,0.0000,0
5197,-0.0014,0.0086,0.0082,0.0066,0.0020,0.0019,0.01,-0.88,-0.01,0,3.764,0.778,-0.042,-0.984,-0.023,-0.008,1.002,0.000,0.000,0.000,0.0080,1,-1,0.00,0.00,0.00,0.0000,0.0000,0.0000,0.0000,0.0000,0.0000,0.0000,0.00,0.00,0.00,0.9640,0.0000,1.1440,0.9790,2.7120,0,0.0000,0.0000,0.0000,0.0000,0.0000,0
5248,-0.0016,0.0077,0.0082,0.0113,-0.0027,0.0000,0.02,-0.85,-0.06,0,3.779,-0.104,-0.535,-6.694,-0.021,-0.029,1.009,0.000,0.000,0.000,0.0110,2,-3,0.00,0.00,0.00,0.0000,0.0000,0.0000,0.0000,0.0000,0.0000,0.0000,0.00,0.00,0.00,0.9640,0.0000,1.1440,0.9790,2.7120,0,0.0000,0.0000,0.0000,0.0000,0.0000,0
5300,-0.0021,0.0023,0.0096,0.0120,-0.0293,0.0081,0.19,-0.80,-0.29,0,3.785,-0.500,-1.545,-1.439,-0.004,-0.015,1.016,0.000,0.000,0.000,0.0090,5,-2,0.00,0.00,0.00,0.0000,0.0000,0.0000,0.0000,0.0000,0.0000,0.0000,0.00,0.00,0.00,0.9640,0.5370,1.1410,0.0000,2.7050,0,0.0000,0.0000,0.0000,0.0000,0.0000,0
5351,-0.0004,-0.0052,0.0093,0.0236,-0.0603,0.0056,0.41,-0.80,-0.33,0,3.785,-2.650,-0.886,-18.595,-0.002,-0.019,0.981,0.000,0.000,0.000,0.0090,12,3,0.00,0.00,0.00,0.0000,0.0000,0.0000,0.0000,0.0000,0.0000,0.0000,0.00,0.00,0.00,0.9640,0.5370,1.1410,0.0000,2.7050,0,0.0000,0.0000,0.0000,0.0000,0.0000,0
5403,0.0050,-0.0140,0.0086,0.0495,-0.0922,-0.0025,0.64,-0.86,-0.98,0,3.785,-1.049,2.308,-8.124,-0.016,-0.001,1.026,0.000,0.000,0.000,0.0110,27,-2,0.00,0.00,0.00,0.0000,0.0000,0.0000,0.0000,0.0000,0.0000,0.0000,0.00,0.00,0.00,0.9660,0.0000,1.1390,1.2300,2.7030,0,0.0000,0.0000,0.0000,0.0000,0.0000,0
5454,0.0063,-0.0231,0.0093,0.0505,-0.1174,-0.0007,0.90,-0.82,-1.34,0,3.779,2.006,4.279,-1.251,-0.019,0.008,0.989,0.000,0.000,0.000,0.0090,0,0,0.00,0.00,0.00,0.0000,0.0000,0.0000,0.0000,0.0000,0.0000,0.0000,0.00,0.00,0.00,0.9660,0.0000,1.1390,1.2300,2.7030,0,0.0000,0.0000,0.0000,0.0000,0.0000,0
5505,0.0097,-0.0332,0.0089,0.0609,-0.1427,-0.0015,0.92,-0.76,-1.38,0,3.785,1.236,-0.307,0.410,-0.010,-0.013,0.996,0.000,0.000,0.000,0.0100,10,-17,0.00,0.00,0.00,0.0000,0.0000,0.0000,0.0000,0.0000,0.0000,0.0000,0.00,0.00,0.00,0.9580,0.0000,1.1360,1.2630,2.7060,0,0.0000,0.0000,0.0000,0.0000,0.0000,0
5556,0.0130,-0.0406,0.0095,0.0675,-0.1510,0.0053,0.92,-0.86,-1.34,0,3.779,-9.236,6.906,4.729,-0.012,-0.018,1.033,0.000,0.000,0.000,0.0140,4,-5,0.00,0.00,0.00,0.0000,0.0000,0.0000,0.0000,0.0000,0.0000,0.0000,0.00,0.00,0.00,0.9580,0.0000,1.1360,1.2630,2.7060,0,0.0000,0.0000,0.0000,0.0000,0.0000,0
5607,0.0247,-0.0506,0.0110,0.1115,-0.1684,0.0064,0.95,-0.87,-0.94,0,3.774,-13.112,-6.842,13.453,-0.008,0.007,1.011,0.000,0.000,0.000,0.0100,26,2,0.00,0.00,0.00,0.0000,0.0000,0.0000,0.0000,0.0000,0.0000,0.0000,0.00,0.00,0.00,0.9580,0.4600,1.1390,1.2690,2.7010,0,0.0000,0.0000,0.0000,0.0000,0.0000,0
5658,0.0330,-0.0632,0.0106,0.1325,-0.1953,0.0136,0.50,-0.72,-0.27,0,3.774,-18.713,1.370,12.492,-0.013,-0.026,0.988,0.000,0.000,0.000,0.0140,8,-2,0.00,0.00,0.00,0.0000,0.0000,0.0000,0.0000,0.0000,0.0000,0.0000,0.00,0.00,0.00,0.9580,0.4600,1.1390,1.2690,2.7010,0,0.0000,0.0000,0.0000,0.0000,0.0000,0
5709,0.0329,-0.0703,0.0144,0.1072,-0.1824,0.0317,-0.79,-0.56,0.42,0,3.769,-21.755,-14.365,17.102,-0.007,-0.021,1.006,0.000,0.000,0.000,0.0130,-4,-4,0.00,0.00,0.00,0.0000,0.0000,0.0000,0.0000,0.0000,0.0000,0.0000,0.00,0.00,0.00,0.9640,0.5160,1.1410,1.2980,2.7070,0,0.0000,0.0000,0.0000,0.0000,0.0000,0
5760,0.0328,-0.0684,0.0169,0.0850,-0.1234,0.0420,-2.10,-0.15,1.33,0,3.769,-22.647,-13.699,19.547,0.001,-0.024,1.035,0.000,0.000,0.000,0.0170,-12,-26,0.00,0.00,0.00,0.0000,0.0000,0.0000,0.0000,0.0000,0.0000,0.0000,0.00,0.00,0.00,0.9640,0.5160,1.1410,1.2980,2.7070,0,0.0000,0.0000,0.0000,0.0000,0.0000,0
5811,0.0418,-0.0594,0.0186,0.1088,-0.0358,0.0517,-3.77,0.12,2.38,0,3.753,-0.010,-47.544,20.430,0.004,-0.046,0.995,0.000,0.000,0.000,0.0050,-15,-16,0.00,0.00,0.00,0.0000,0.0000,0.0000,0.0000,0.0000,0.0000,0.0000,0.00,0.00,0.00,0.9640,0.0000,1.1410,1.3130,2.7060,0,0.0000,0.0000,0.0000,0.0000,0.0000,0
5862,0.0559,-0.0418,0.0112,0.1466,0.0820,0.0094,-4.42,2.00,3.66,0,3.737,50.171,-61.653,21.002,0.024,-0.042,1.000,0.000,0.000,0.000,0.0000,-55,-21,0.00,0.00,0.00,0.0000,0.0000,0.0000,0.0000,0.0000,0.0000,0.0000,0.00,0.00,0.00,0.9640,0.0000,1.1410,1.3130,2.7060,0,0.0000,0.0000,0.0000,0.0000,0.0000,0
5913,0.0602,-0.0240,0.0037,0.1127,0.1738,-0.0318,-3.19,5.19,5.00,0,3.716,64.963,-57.092,15.531,0.025,-0.031,1.004,0.000,0.000,0.000,0.0000,-24,3,0.00,0.00,0.00,0.0000,0.0000,0.0000,0.0000,0.0000,0.0000,0.0000,0.00,0.00,0.00,0.9840,0.0000,1.1570,0.0000,2.7020,0,0.0000,0.0000,0.0000,0.0000,0.0000,0
5964,0.0617,0.0143,-0.0094,0.0513,0.3307,-0.0988,-1.96,7.60,6.28,0,3.721,0.153,18.342,19.065,0.032,-0.020,1.048,0.000,0.000,0.000,0.0000,-23,21,0.00,0.00,0.00,0.0000,0.0000,0.0000,0.0000,0.0000,0.0000,0.0000,0.00,0.00,0.00,0.9840,0.0000,1.1570,0.0000,2.7020,0,0.0000,0.0000,0.0000,0.0000,0.0000,0
6016,0.0431,0.0308,-0.0111,-0.1116,0.3384,-0.0701,-1.96,7.39,6.99,0,3.721,79.309,16.258,3.613,0.021,-0.016,1.066,0.000,0.000,0.000,0.0000,-9,0,0.00,0.00,0.00,0.0000,0.0000,0.0000,0.0000,0.0000,0.0000,0.0000,0.00,0.00,0.00,1.0290,0.1640,1.1690,1.3280,2.7010,0,0.0000,0.0000,0.0000,0.0000,0.0000,0
6067,0.0496,0.0471,-0.0030,-0.1061,0.3346,0.0161,2.03,5.58,7.18,0,3.732,30.087,16.745,-1.535,0.016,-0.019,1.065,0.000,0.000,0.000,0.0000,9,-5,0.00,0.00,0.00,0.0000,0.0000,0.0000,0.0000,0.0000,0.0000,0.0000,0.00,0.00,0.00,1.0290,0.1640,1.1690,1.3280,2.7010,0,0.0000,0.0000,0.0000,0.0000,0.0000,0
6118,0.0588,0.0467,0.0053,-0.0700,0.2217,0.0798,4.55,4.17,6.65,0,3.732,-12.431,12.903,-7.653,0.012,-0.007,1.016,0.000,0.000,0.000,0.0000,17,-11,0.00,0.00,0.00,0.0000,0.0000,0.0000,0.0000,0.0000,0.0000,0.0000,0.00,0.00,0.00,1.0250,0.2140,1.1690,0.2240,2.7080,0,0.0000,0.0000,0.0000,0.0000,0.0000,0
6169,0.0680,0.0319,0.0073,-0.0331,0.0568,0.0842,4.90,2.91,5.72,0,3.716,-48.673,10.767,-11.674,0.013,-0.007,1.008,0.000,0.000,0.000,0.0000,-3,-15,0.00,0.00,0.00,0.0000,0.0000,0.0000,0.0000,0.0000,0.0000,0.0000,0.00,0.00,0.00,1.0250,0.2140,1.1690,0.2240,2.7080,0,0.0000,0.0000,0.0000,0.0000,0.0000,0
6220,0.0794,0.0117,0.0038,0.0076,-0.0901,0.0543,3.03,2.12,4.78,0,3.706,-69.504,-12.167,-15.629,0.002,-0.017,1.024,0.000,0.000,0.000,0.0080,10,-16,0.00,0.00,0.00,0.0000,0.0000,0.0000,0.0000,0.0000,0.0000,0.0000,0.00,0.00,0.00,1.0370,0.2710,1.1790,1.2370,2.6840,0,0.0000,0.0000,0.0000,0.0000,0.0000,0
6271,0.0735,0.0106,0.0093,-0.0405,-0.0987,0.0703,-0.34,2.88,4.07,0,3.716,-40.815,5.323,-16.564,0.009,-0.006,1.046,0.000,0.000,0.000,0.0160,12,-15,0.00,0.00,0.00,0.0000,0.0000,0.0000,0.0000,0.0000,0.0000,0.0000,0.00,0.00,0.00,1.0370,0.2710,1.1790,1.2370,2.6840,0,0.0000,0.0000,0.0000,0.0000,0.0000,0
6322,0.0738,0.0039,0.0162,-0.0542,-0.1049,0.0991,-2.25,2.39,3.14,0,3.716,-5.898,35.204,-16.929,0.007,-0.013,1.013,0.000,0.000,0.000,0.0230,5,57,0.00,0.00,0.00,0.0000,0.0000,0.0000,0.0000,0.0000,0.0000,0.0000,0.00,0.00,0.00,1.0650,0.3140,1.1940,1.2990,2.6740,0,0.0000,0.0000,0.0000,0.0000,0.0000,0
6373,0.0749,-0.0022,0.0249,-0.0540,-0.0901,0.1254,-2.65,1.34,2.32,0,3.700,5.697,-4.429,-14.555,0.017,-0.012,0.987,0.000,0.000,0.000,0.0270,0,20,0.00,0.00,0.00,0.0000,0.0000,0.0000,0.0000,0.0000,0.0000,0.0000,0.00,0.00,0.00,1.0650,0.3140,1.1940,1.2990,2.6740,0,0.0000,0.0000,0.0000,0.0000,0.0000,0
6425,0.0339,-0.0096,0.0245,-0.2556,-0.0877,0.0883,-2.44,2.42,1.62,0,3.700,-10.533,68.122,-11.835,-0.008,-0.018,1.003,0.000,0.000,0.000,0.0400,5,27,0.00,0.00,0.00,0.0000,0.0000,0.0000,0.0000,0.0000,0.0000,0.0000,0.00,0.00,0.00,1.0870,0.6020,1.1980,1.2910,2.6590,0,0.0000,0.0000,0.0000,0.0000,0.0000,0
6477,0.0023,-0.0161,0.0282,-0.3692,-0.0814,0.0709,-2.70,-0.06,0.81,0,3.690,-14.087,102.565,-11.902,0.013,-0.013,1.034,0.000,0.000,0.000,0.0410,6,42,0.00,0.00,0.00,0.0000,0.0000,0.0000,0.0000,0.0000,0.0000,0.0000,0.00,0.00,0.00,1.0870,0.6020,1.1980,1.2910,2.6590,0,0.0000,0.0000,0.0000,0.0000,0.0000,0
6529,-0.0235,-0.0198,0.0352,-0.4030,-0.0568,0.0911,-3.34,-4.75,-0.12,0,3.700,2.672,31.371,-11.415,0.018,-0.007,1.016,0.000,0.000,0.000,0.0670,-5,14,0.00,0.00,0.00,0.0000,0.0000,0.0000,0.0000,0.0000,0.0000,0.0000,0.00,0.00,0.00,1.1070,0.7240,1.2070,1.2810,2.6680,0,0.0000,0.0000,0.0000,0.0000,0.0000,0
6580,-0.0467,-0.0218,0.0555,-0.3738,-0.0225,0.1709,-3.39,-6.63,-0.79,0,3.716,16.501,13.710,-8.535,0.009,-0.007,1.004,0.000,0.000,0.000,0.0820,-4,5,0.00,0.00,0.00,0.0000,0.0000,0.0000,0.0000,0.0000,0.0000,0.0000,0.00,0.00,0.00,1.1070,0.7240,1.2070,1.2810,2.6680,0,0.0000,0.0000,0.0000,0.0000,0.0000,0
6631,-0.0617,-0.0193,0.0780,-0.2979,0.0234,0.2413,-2.79,-7.75,-1.23,0,3.716,21.606,19.962,-7.354,0.014,-0.013,0.973,0.000,0.000,0.000,0.0870,-9,10,0.00,0.00,0.00,0.0000,0.0000,0.0000,0.0000,0.0000,0.0000,0.0000,0.00,0.00,0.00,1.0770,0.7720,1.2100,1.2620,2.6730,0,0.0000,0.0000,0.0000,0.0000,0.0000,0
6682,-0.0695,-0.0182,0.0943,-0.2034,0.0417,0.2514,-1.74,-8.78,-1.60,0,3.711,17.729,-26.864,-4.648,0.007,-0.015,0.953,0.000,0.000,0.000,0.0940,1,-1,0.00,0.00,0.00,0.0000,0.0000,0.0000,0.0000,0.0000,0.0000,0.0000,0.00,0.00,0.00,1.0770,0.7720,1.2100,1.2620,2.6730,0,0.0000,0.0000,0.0000,0.0000,0.0000,0
6734,-0.0732,-0.0147,0.1050,-0.1102,0.0588,0.2215,-0.84,-7.71,-1.72,0,3.706,8.763,-40.257,-3.154,0.006,-0.014,0.954,0.000,0.000,0.000,0.0960,0,-10,0.00,0.00,0.00,0.0000,0.0000,0.0000,0.0000,0.0000,0.0000,0.0000,0.00,0.00,0.00,1.0800,0.7160,1.2040,1.2370,2.6680,0,0.0000,0.0000,0.0000,0.0000,0.0000,0
6785,-0.0740,-0.0146,0.1099,-0.0349,0.0504,0.1705,-0.38,-5.77,-1.72,0,3.690,3.311,-27.677,0.441,0.003,-0.014,0.972,0.000,0.000,0.000,0.0970,-3,-8,0.00,0.00,0.00,0.0000,0.0000,0.0000,0.0000,0.0000,0.0000,0.0000,0.00,0.00,0.00,1.0800,0.7160,1.2040,1.2370,2.6680,0,0.0000,0.0000,0.0000,0.0000,0.0000,0
6837,-0.0700,-0.0140,0.1105,0.0316,0.0440,0.1191,-0.21,-4.57,-1.70,0,3.684,-0.877,-32.153,-5.340,-0.001,-0.022,0.992,0.000,0.000,0.000,0.0970,-5,-4,0.00,0.00,0.00,0.0000,0.0000,0.0000,0.0000,0.0000,0.0000,0.0000,0.00,0.00,0.00,1.1150,0.7490,1.1970,1.2420,2.6300,0,0.0000,0.0000,0.0000,0.0000,0.0000,0
6888,-0.0641,-0.0132,0.1087,0.0836,0.0382,0.0760,-0.15,-3.03,-1.91,0,3.669,7.679,-38.821,-0.242,-0.001,-0.013,1.025,0.000,0.000,0.000,0.0930,-5,-11,0.00,0.00,0.00,0.0000,0.0000,0.0000,0.0000,0.0000,0.0000,0.0000,0.00,0.00,0.00,1.1150,0.7490,1.1970,1.2420,2.6300,0,0.0000,0.0000,0.0000,0.0000,0.0000,0
6939,-0.0595,-0.0108,0.1042,0.1068,0.0418,0.0444,0.07,-1.26,-1.97,0,3.669,3.026,-38.679,0.134,-0.004,-0.012,1.052,0.000,0.000,0.000,0.0940,-2,-12,0.00,0.00,0.00,0.0000,0.0000,0.0000,0.0000,0.0000,0.0000,0.0000,0.00,0.00,0.00,1.1450,0.7210,1.1860,1.2530,2.6150,0,0.0000,0.0000,0.0000,0.0000,0.0000,0
6990,-0.0546,-0.0086,0.1015,0.1123,0.0414,0.0423,0.30,0.75,-1.98,0,3.663,4.028,-18.590,-1.370,-0.004,-0.009,1.074,0.000,0.000,0.000,0.0930,-4,-2,0.00,0.00,0.00,0.0000,0.0000,0.0000,0.0000,0.0000,0.0000,0.0000,0.00,0.00,0.00,1.1450,0.7210,1.1860,1.2530,2.6150,0,0.0000,0.0000,0.0000,0.0000,0.0000,0
7041,-0.0476,-0.0064,0.0997,0.1118,0.0405,0.0527,0.42,1.73,-2.05,0,3.669,6.113,0.517,-0.590,-0.003,-0.020,1.088,0.000,0.000,0.000,0.0990,-6,-8,0.00,0.00,0.00,0.0000,0.0000,0.0000,0.0000,0.0000,0.0000,0.0000,0.00,0.00,0.00,1.1820,0.7340,1.1780,1.2590,2.6030,0,0.0000,0.0000,0.0000,0.0000,0.0000,0
7092,-0.0432,-0.0038,0.1027,0.0923,0.0399,0.0912,0.61,1.85,-2.08,0,3.669,4.299,-10.222,1.167,0.001,-0.014,1.062,0.000,0.000,0.000,0.1020,1,-3,0.00,0.00,0.00,0.0000,0.0000,0.0000,0.0000,0.0000,0.3000,0.2923,1.45,1.17,62.53,1.1820,0.7340,1.1780,1.2590,2.6030,0,0.0000,0.0000,0.0000,0.0000,0.0000,0
7143,-0.0388,-0.0010,0.1073,0.0754,0.0382,0.1214,0.89,2.28,-2.03,0,3.679,4.332,-0.115,2.138,0.003,-0.018,1.069,0.000,0.000,0.000,0.1130,-1,-3,0.61,-1.85,-2.08,-0.0432,-0.0038,0.1020,0.0000,0.0000,0.3000,0.2882,1.57,0.74,60.76,1.1910,0.6990,1.1730,1.2720,2.5970,0,0.0000,0.0000,0.0000,0.0000,0.0000,0
7194,-0.0354,0.0007,0.1164,0.0541,0.0305,0.1627,1.09,2.26,-1.93,0,3.679,-2.986,1.485,3.551,0.006,-0.017,1.047,0.000,0.000,0.000,0.1180,-2,0,0.74,-1.98,-1.98,-0.0373,-0.0012,0.1110,0.0000,0.0000,0.3000,0.2820,1.38,0.04,58.00,1.1910,0.6990,1.1730,1.2720,2.5970,0,0.0000,0.0000,0.0000,0.0000,0.0000,0
7246,-0.0330,0.0027,0.1252,0.0344,0.0241,0.1901,1.01,2.13,-1.76,0,3.684,0.891,7.796,4.117,0.003,-0.017,1.037,0.000,0.000,0.000,0.1320,-10,-1,-0.43,0.03,-1.81,-0.0374,0.0013,0.1230,0.0000,0.0000,0.3000,0.2774,1.26,-0.68,52.89,1.1990,0.7580,1.1630,1.2880,2.5720,0,0.0000,0.0000,0.0000,0.0000,0.0000,0
7297,-0.0319,0.0049,0.1377,0.0147,0.0219,0.2200,0.91,1.72,-1.48,0,3.684,0.537,11.974,3.713,0.005,-0.008,1.024,0.000,0.000,0.000,0.1390,2,0,-6.23,-0.18,-1.63,-0.0356,0.0133,0.1331,0.0000,0.0000,0.3000,0.2718,1.33,-1.51,44.27,1.1990,0.7580,1.1630,1.2880,2.5720,0,0.0000,0.0000,0.0000,0.0000,0.0000,0
7348,-0.0320,0.0068,0.1487,-0.0029,0.0177,0.2308,1.03,1.15,-1.30,0,3.695,-1.603,8.086,3.009,0.002,-0.015,1.006,0.000,0.000,0.000,0.1590,1,0,-1.18,-0.27,-1.55,-0.0343,0.0143,0.1624,0.0000,0.0000,0.3000,0.2686,1.29,-2.34,38.97,1.2010,0.7420,1.1590,1.3040,2.5600,0,0.0000,0.0000,0.0000,0.0000,0.0000,0
7399,-0.0339,0.0051,0.1644,-0.0201,-0.0019,0.2532,0.98,0.81,-1.17,0,3.690,-6.453,11.671,3.731,0.007,-0.017,0.993,0.000,0.000,0.000,0.1680,-1,0,0.32,-0.42,-1.42,-0.0343,0.0132,0.1726,0.0000,0.0000,0.3000,0.2632,0.27,-3.33,35.06,1.2010,0.7420,1.1590,1.3040,2.5600,0,0.0000,0.0000,0.0000,0.0000,0.0000,0
7450,-0.0349,0.0049,0.1776,-0.0255,-0.0091,0.2536,0.65,0.28,-0.97,0,3.695,-4.981,12.603,3.489,0.002,-0.009,0.983,0.000,0.000,0.000,0.1830,-4,3,-0.25,-0.85,-1.23,-0.0341,0.0147,0.1832,0.0000,0.0000,0.3000,0.2607,-0.08,-3.69,29.13,1.1960,0.7820,1.1550,1.3290,2.5270,0,0.0000,0.0000,0.0000,0.0000,0.0000,0
7501,-0.0367,0.0042,0.1915,-0.0292,-0.0147,0.2525,0.36,-0.22,-0.75,0,3.690,-4.003,4.203,4.496,0.006,-0.016,0.970,0.000,0.000,0.000,0.1870,-2,0,-1.58,-0.46,-1.02,-0.0389,0.0221,0.1956,0.0000,0.0000,0.3000,0.2582,-0.40,-4.04,22.53,1.1960,0.7820,1.1550,1.3290,2.5270,0,0.0000,0.0000,0.0000,0.0000,0.0000,0
7552,-0.0382,0.0031,0.2003,-0.0272,-0.0192,0.2243,0.23,-0.60,-0.56,0,3.695,-3.203,4.127,3.269,0.002,-0.017,0.970,0.000,0.000,0.000,0.2000,-1,3,-1.77,-0.88,-0.80,-0.0388,0.0260,0.2030,0.0000,0.0000,0.3000,0.2596,-0.69,-4.03,16.71,1.2070,0.7510,1.1550,1.3490,2.5080,0,0.0000,0.0000,0.0000,0.0000,0.0000,0
7604,-0.0398,0.0034,0.2099,-0.0233,-0.0162,0.2055,0.05,-0.80,-0.35,0,3.690,-4.290,2.778,3.095,-0.001,-0.011,0.976,0.000,0.000,0.000,0.2100,0,-2,-1.70,-0.49,-0.63,-0.0448,0.0283,0.2117,0.0000,0.0000,0.3000,0.2598,-0.53,-3.95,10.64,1.2070,0.7510,1.1550,1.3490,2.5080,0,0.0000,0.0000,0.0000,0.0000,0.0000,0
7655,-0.0410,0.0037,0.2189,-0.0174,-0.0123,0.1889,-0.24,-0.85,-0.19,0,3.690,1.849,-0.174,2.734,0.004,-0.012,0.977,0.000,0.000,0.000,0.2200,-2,0,-1.57,-1.25,-0.46,-0.0402,0.0283,0.2207,0.0000,0.0000,0.3000,0.2599,-0.32,-3.76,5.67,1.2180,0.7820,1.1600,1.3860,2.4880,0,0.0000,0.0000,0.0000,0.0000,0.0000,0
7706,-0.0406,0.0033,0.2277,-0.0064,-0.0095,0.1758,-0.15,-0.94,-0.04,0,3.684,0.465,-5.303,1.801,0.001,-0.016,0.970,0.000,0.000,0.000,0.2280,0,0,-1.59,-1.20,-0.33,-0.0400,0.0330,0.2288,0.0000,0.0000,0.3000,0.2597,-0.21,-3.21,1.20,1.2180,0.7820,1.1600,1.3860,2.4880,0,0.0000,0.0000,0.0000,0.0000,0.0000,0
7757,-0.0405,0.0038,0.2355,0.0019,-0.0054,0.1600,-0.14,-0.78,0.06,0,3.684,1.505,-2.897,0.437,0.004,-0.008,0.985,0.000,0.000,0.000,0.2360,0,0,-1.56,-0.93,-0.23,-0.0389,0.0368,0.2361,0.0000,0.0000,0.3000,0.2599,0.01,-2.81,-1.88,1.2420,0.7560,1.1530,1.4140,2.4740,0,0.0000,0.0000,0.0000,0.0000,0.0000,0
7809,-0.0394,0.0051,0.2427,0.0113,0.0010,0.1488,-0.09,-0.70,0.09,0,3.684,2.434,-1.127,0.777,0.008,-0.014,0.982,0.000,0.000,0.000,0.2470,-6,0,-1.49,-0.78,-0.20,-0.0372,0.0412,0.2433,0.0000,0.0000,0.3000,0.2597,0.41,-2.29,-2.80,1.2420,0.7560,1.1530,1.4140,2.4740,0,0.0000,0.0000,0.0000,0.0000,0.0000,0
7860,-0.0393,0.0038,0.2514,0.0148,-0.0026,0.1467,-0.05,-0.48,0.14,0,3.690,3.415,-0.188,0.310,0.003,-0.015,0.984,0.000,0.000,0.000,0.2560,-3,-1,-1.43,-0.38,-0.18,-0.0425,0.0475,0.2513,0.0000,0.0000,0.3000,0.2583,0.15,-2.12,-4.27,1.2870,0.7940,1.1470,1.4470,2.4470,0,0.0000,0.0000,0.0000,0.0000,0.0000,0
7911,-0.0392,0.0052,0.2601,0.0166,0.0020,0.1454,0.07,-0.32,0.16,0,3.684,-2.046,-1.690,0.688,0.003,-0.014,0.983,0.000,0.000,0.000,0.2610,0,0,-1.32,-0.42,-0.16,-0.0409,0.0540,0.2592,0.0000,0.0000,0.3000,0.2568,0.47,-2.04,-4.72,1.2870,0.7940,1.1470,1.4470,2.4470,0,0.0000,0.0000,0.0000,0.0000,0.0000,0
7962,-0.0392,-0.0132,0.2668,0.0162,-0.0537,0.1339,0.47,-0.12,0.13,0,3.684,-5.798,-1.759,0.625,0.004,-0.011,0.981,0.000,0.000,0.000,0.2660,1,-2,-1.42,-0.34,-0.12,-0.0397,0.0600,0.2660,0.0000,0.0000,0.3000,0.2568,-3.54,-2.06,-3.78,0.0000,0.7660,1.1450,1.4510,2.4340,0,0.0000,0.0000,0.0000,0.0000,0.0000,0
8013,-0.0367,-0.0146,0.2722,0.0217,-0.0535,0.1186,0.22,-0.08,0.12,0,3.679,-10.888,-1.227,0.369,0.001,-0.014,0.982,0.000,0.000,0.000,0.2740,0,-2,-1.14,-0.35,-0.13,-0.0359,0.0525,0.2728,0.0000,0.0000,0.3000,0.2575,-3.62,-1.61,-3.63,0.0000,0.7660,1.1450,1.4510,2.4340,0,0.0000,0.0000,0.0000,0.0000,0.0000,0
8065,-0.0349,-0.0145,0.2782,0.0242,-0.0467,0.1106,-0.37,-0.02,0.12,0,3.690,-5.068,-3.017,-1.335,0.002,-0.016,0.984,0.000,0.000,0.000,0.2830,-1,-2,-1.64,-0.36,-0.12,-0.0318,0.0537,0.2787,0.0000,0.0000,0.3000,0.2572,-3.29,-1.36,-3.69,0.0000,0.8010,1.1380,1.5390,2.4200,0,0.0000,0.0000,0.0000,0.0000,0.0000,0
8116,-0.0318,-0.0141,0.2854,0.0287,-0.0363,0.1098,-0.69,0.16,0.09,0,3.679,4.017,-0.217,-1.210,0.005,-0.015,0.982,0.000,0.000,0.000,0.2850,0,0,-1.92,-0.27,-0.18,-0.0271,0.0566,0.2852,0.0000,0.0000,0.3000,0.2559,-2.77,-0.93,-2.70,0.0000,0.8010,1.1380,1.5390,2.4200,0,0.0000,0.0000,0.0000,0.0000,0.0000,0
8167,-0.0282,-0.0116,0.2900,0.0326,-0.0197,0.0983,-0.64,0.23,0.03,0,3.684,4.515,-2.356,-1.427,0.005,-0.016,0.983,0.000,0.000,0.000,0.2920,0,0,-1.72,-0.25,-0.24,-0.0233,0.0596,0.2900,0.0000,0.0000,0.3000,0.2563,-1.79,-0.48,-0.91,0.0000,0.7760,1.1380,1.5750,2.4160,0,0.0000,0.0000,0.0000,0.0000,0.0000,0
8219,-0.0242,-0.0118,0.2952,0.0367,-0.0132,0.0919,-0.46,0.28,-0.05,0,3.679,3.531,-1.933,-1.352,0.003,-0.015,0.981,0.000,0.000,0.000,0.2960,-1,-2,-1.49,-0.13,-0.31,-0.0193,0.0630,0.2952,0.0000,0.0000,0.3000,0.2560,-1.49,0.01,1.40,0.0000,0.7760,1.1380,1.5750,2.4160,0,0.0000,0.0000,0.0000,0.0000,0.0000,0
8270,-0.0214,-0.0111,0.2995,0.0364,-0.0065,0.0826,-0.33,0.41,-0.13,0,3.684,2.220,-4.298,-0.782,0.005,-0.010,0.986,0.000,0.000,0.000,0.2990,0,0,-1.08,0.16,-0.43,-0.0224,0.0579,0.2999,0.0000,0.0000,0.3000,0.2562,-1.12,0.20,3.76,2.0870,0.7780,1.1250,1.5960,2.3990,0,0.0000,0.0000,0.0000,0.0000,0.0000,0
8321,-0.0170,-0.0084,0.3028,0.0389,0.0029,0.0720,-0.23,0.56,-0.20,0,3.674,3.073,0.532,-1.710,0.004,-0.015,0.988,0.000,0.000,0.000,0.3030,-2,0,-0.97,0.38,-0.47,-0.0199,0.0598,0.3034,0.0000,0.0000,0.3000,0.2567,-0.47,0.63,5.90,2.0870,0.7780,1.1250,1.5960,2.3990,0,0.0000,0.0000,0.0000,0.0000,0.0000,0
8372,-0.0127,-0.0054,0.3060,0.0399,0.0114,0.0651,-0.13,0.64,-0.29,0,3.679,5.002,0.143,-1.393,0.005,-0.014,0.993,0.000,0.000,0.000,0.3070,-2,-1,-0.86,0.46,-0.52,-0.0215,0.0636,0.3068,0.0000,0.0000,0.3000,0.2569,0.16,0.99,8.62,2.1980,0.7790,1.1180,1.6000,2.3960,0,0.0000,0.0000,0.0000,0.0000,0.0000,0
8423,-0.0101,-0.0022,0.3093,0.0360,0.0178,0.0615,0.06,0.67,-0.38,0,3.674,5.228,-0.486,-1.265,0.001,-0.016,0.990,0.000,0.000,0.000,0.3070,1,0,-0.65,0.43,-0.57,-0.0193,0.0679,0.3101,0.0000,0.0000,0.3000,0.2566,0.70,0.99,11.33,2.1980,0.7790,1.1180,1.6000,2.3960,0,0.0000,0.0000,0.0000,0.0000,0.0000,0
8475,-0.0088,0.0021,0.3108,0.0295,0.0244,0.0509,0.33,0.71,-0.46,0,3.679,5.248,-0.428,-1.231,0.008,-0.014,0.995,0.000,0.000,0.000,0.3140,-1,0,-0.30,0.48,-0.68,-0.0187,0.0672,0.3123,0.0000,0.0000,0.3000,0.2575,1.33,0.77,13.83,2.2490,0.7710,1.1150,1.5910,2.3870,0,0.0000,0.0000,0.0000,0.0000,0.0000,0
8525,-0.0059,0.0067,0.3149,0.0269,0.0288,0.0547,0.50,0.67,-0.53,0,3.669,3.822,-0.139,-1.317,0.008,-0.018,0.995,0.000,0.000,0.000,0.3140,0,0,-0.05,0.52,-0.72,-0.0183,0.0698,0.3155,0.0000,0.0000,0.3000,0.2563,1.87,0.86,15.89,2.2490,0.7710,1.1150,1.5910,2.3870,0,0.0000,0.0000,0.0000,0.0000,0.0000,0
8577,-0.0051,0.0084,0.3168,0.0200,0.0249,0.0491,0.69,0.63,-0.58,0,3.679,2.838,2.507,-1.631,0.008,-0.018,0.995,0.000,0.000,0.000,0.3160,-1,0,0.14,0.52,-0.78,-0.0173,0.0713,0.3178,0.0000,0.0000,0.3000,0.2565,1.81,0.58,17.29,2.3030,0.7700,1.1050,1.5810,2.3860,0,0.0000,0.0000,0.0000,0.0000,0.0000,0
8628,-0.0037,0.0147,0.3188,0.0159,0.0299,0.0443,0.74,0.50,-0.64,0,3.669,1.129,3.792,-0.249,0.007,-0.014,0.998,0.000,0.000,0.000,0.3160,-1,0,0.26,0.43,-0.82,-0.0186,0.0737,0.3198,0.0000,0.0000,0.3000,0.2567,2.51,0.48,19.07,2.3030,0.7700,1.1050,1.5810,2.3860,0,0.0000,0.0000,0.0000,0.0000,0.0000,0
8679,-0.0032,0.0186,0.3189,0.0126,0.0307,0.0356,0.77,0.38,-0.68,0,3.674,0.745,0.299,-1.218,0.008,-0.016,1.000,0.000,0.000,0.000,0.3160,0,0,0.29,0.25,-0.81,-0.0185,0.0760,0.3210,0.0000,0.0000,0.3000,0.2576,2.82,0.36,20.27,0.0000,0.7690,1.1040,1.5690,2.3800,0,0.0000,0.0000,0.0000,0.0000,0.0000,0
8730,-0.0028,0.0204,0.3191,0.0090,0.0249,0.0284,0.87,0.23,-0.71,0,3.669,-0.598,1.372,-1.543,0.003,-0.010,1.005,0.000,0.000,0.000,0.3210,0,0,0.33,0.23,-0.87,-0.0180,0.0766,0.3216,0.0000,0.0000,0.3000,0.2583,2.66,0.22,21.28,0.0000,0.7690,1.1040,1.5690,2.3800,0,0.0000,0.0000,0.0000,0.0000,0.0000,0
8781,-0.0036,0.0208,0.3212,0.0042,0.0163,0.0327,0.89,0.21,-0.78,0,3.674,-2.554,0.262,-1.320,0.005,-0.007,1.005,0.000,0.000,0.000,0.3180,0,0,0.30,0.16,-0.95,-0.0176,0.0768,0.3236,0.0000,0.0000,0.3000,0.2575,2.28,-0.07,23.45,0.0000,0.7670,1.0980,1.5790,2.3760,0,0.0000,0.0000,0.0000,0.0000,0.0000,0
8832,-0.0042,0.0227,0.3212,0.0010,0.0112,0.0283,0.72,0.10,-0.85,0,3.663,-0.314,2.902,-0.264,0.011,-0.016,1.011,0.000,0.000,0.000,0.3170,0,0,0.17,0.15,-1.02,-0.0171,0.0767,0.3240,0.0000,0.0000,0.3000,0.2579,2.17,-0.27,25.55,0.0000,0.7670,1.0980,1.5790,2.3760,0,0.0000,0.0000,0.0000,0.0000,0.0000,0
8884,-0.0065,0.0206,0.3203,-0.0042,0.0001,0.0215,0.64,-0.03,-0.88,0,3.674,-2.463,4.339,0.039,0.005,-0.015,1.006,0.000,0.000,0.000,0.3260,0,1,0.16,-0.00,-1.03,-0.0165,0.0760,0.3241,0.0000,0.0000,0.3000,0.2588,1.48,-0.68,26.30,2.2370,0.7680,1.0940,1.5960,2.3770,0,0.0000,0.0000,0.0000,0.0000,0.0000,0
8935,-0.0046,0.0182,0.3245,0.0003,-0.0105,0.0372,0.50,-0.20,-0.89,0,3.663,-5.340,0.031,0.079,0.005,-0.014,1.009,0.000,0.000,0.000,0.3200,0,0,-0.04,-0.13,-0.87,-0.0234,0.0808,0.3269,0.0000,0.0000,0.3000,0.2564,0.81,-0.33,26.65,2.2370,0.7680,1.0940,1.5960,2.3770,0,0.0000,0.0000,0.0000,0.0000,0.0000,0
8987,-0.0061,0.0145,0.3236,-0.0009,-0.0198,0.0301,0.29,-0.26,-0.90,0,3.669,-6.768,-2.772,0.205,0.003,-0.012,1.007,0.000,0.000,0.000,0.3300,1,0,-0.31,-0.13,-0.87,-0.0238,0.0804,0.3272,0.0000,0.0000,0.3000,0.2573,0.10,-0.50,27.15,2.2050,0.7680,1.0960,1.6290,2.3720,0,0.0000,0.0000,0.0000,0.0000,0.0000,0
9038,-0.0057,0.0126,0.3282,0.0019,-0.0241,0.0467,0.06,-0.18,-0.92,0,3.663,-1.858,-4.630,-1.547,0.004,-0.016,1.002,0.000,0.000,0.000,0.3270,0,0,-0.65,0.01,-0.87,-0.0238,0.0787,0.3305,0.0000,0.0000,0.3000,0.2546,-0.25,-0.34,27.62,2.2050,0.7680,1.0960,1.6290,2.3720,0,0.0000,0.0000,0.0000,0.0000,0.0000,0
9089,-0.0064,0.0105,0.3295,0.0021,-0.0261,0.0443,-0.11,-0.13,-0.94,0,3.674,0.375,1.920,-0.961,0.007,-0.018,0.999,0.000,0.000,0.000,0.3300,3,0,-0.74,0.25,-0.94,-0.0238,0.0777,0.3319,0.0000,0.0000,0.3000,0.2546,-0.50,-0.38,28.26,2.2510,0.7730,1.0920,1.6470,2.3740,0,0.0000,0.0000,0.0000,0.0000,0.0000,0
9141,-0.0060,0.0090,0.3318,0.0038,-0.0255,0.0457,-0.12,-0.24,-0.94,0,3.663,-3.071,-1.098,1.426,0.002,-0.008,0.998,0.000,0.000,0.000,0.3310,0,0,-0.63,0.15,-1.02,-0.0239,0.0713,0.3336,0.0000,0.0000,0.3000,0.2540,-0.58,-0.27,28.11,2.2510,0.7730,1.0920,1.6470,2.3740,0,0.0000,0.0000,0.0000,0.0000,0.0000,0
9192,-0.0058,0.0040,0.3332,0.0058,-0.0307,0.0409,-0.26,-0.21,-0.89,0,3.669,0.207,-3.680,0.637,0.004,-0.010,0.996,0.000,0.000,0.000,0.3360,1,0,-0.79,0.21,-0.95,-0.0239,0.0688,0.3350,0.0000,0.0000,0.3000,0.2543,-1.20,-0.15,26.80,2.2280,0.7690,1.0920,1.6480,2.3640,0,0.0000,0.0000,0.0000,0.0000,0.0000,0
9243,-0.0063,0.0011,0.3364,0.0061,-0.0310,0.0452,-0.31,-0.05,-0.86,0,3.663,-3.314,-0.588,0.669,0.004,-0.013,0.996,0.000,0.000,0.000,0.3370,0,0,-0.80,0.39,-0.91,-0.0240,0.0676,0.3373,0.0000,0.0000,0.3000,0.2532,-1.43,-0.18,25.88,2.2280,0.7690,1.0920,1.6480,2.3640,0,0.0000,0.0000,0.0000,0.0000,0.0000,0
9294,-0.0069,-0.0035,0.3385,0.0051,-0.0336,0.0432,-0.41,-0.01,-0.84,0,3.669,-1.730,-1.277,0.798,0.000,-0.014,0.994,0.000,0.000,0.000,0.3380,1,0,-0.97,0.42,-0.87,-0.0241,0.0655,0.3392,0.0000,0.0000,0.3000,0.2531,-1.90,-0.27,25.05,0.0000,0.7750,1.0930,1.6700,2.3540,0,0.0000,0.0000,0.0000,0.0000,0.0000,0
9345,-0.0053,-0.0051,0.3401,0.0076,-0.0300,0.0387,-0.47,-0.02,-0.80,0,3.663,-1.683,-3.361,0.507,0.010,-0.013,0.996,0.000,0.000,0.000,0.3390,0,0,-1.06,0.48,-0.83,-0.0240,0.0641,0.3406,0.0000,0.0000,0.3000,0.2532,-1.83,-0.03,23.89,0.0000,0.7750,1.0930,1.6700,2.3540,0,0.0000,0.0000,0.0000,0.0000,0.0000,0
9397,-0.0048,-0.0073,0.3411,0.0079,-0.0273,0.0322,-0.56,-0.00,-0.75,0,3.669,1.342,-3.384,0.304,0.008,-0.011,0.999,0.000,0.000,0.000,0.3450,0,0,-1.15,0.65,-0.80,-0.0241,0.0624,0.3417,0.0000,0.0000,0.3000,0.2537,-1.87,0.02,22.50,0.0000,0.7790,1.0960,1.6730,2.3560,0,0.0000,0.0000,0.0000,0.0000,0.0000,0
9448,-0.0021,-0.0073,0.3444,0.0118,-0.0204,0.0382,-0.54,0.05,-0.70,0,3.663,2.037,-0.514,1.709,0.007,-0.014,0.991,0.000,0.000,0.000,0.3460,-1,0,-1.08,0.83,-0.78,-0.0244,0.0609,0.3443,0.0000,0.0000,0.3000,0.2525,-1.54,0.41,20.96,0.0000,0.7790,1.0960,1.6730,2.3560,0,0.0000,0.0000,0.0000,0.0000,0.0000,0
9499,0.0006,-0.0051,0.3467,0.0149,-0.0105,0.0380,-0.45,0.11,-0.63,0,3.663,3.147,0.382,1.561,0.006,-0.017,0.994,0.000,0.000,0.000,0.3450,1,0,-1.07,0.84,-0.61,-0.0236,0.0673,0.3463,0.0000,0.0000,0.3000,0.2520,-0.89,0.76,18.99,2.4250,0.7750,1.0980,1.6800,2.3500,0,0.0000,0.0000,0.0000,0.0000,0.0000,0
9550,0.0022,-0.0041,0.3475,0.0155,-0.0046,0.0291,-0.31,0.14,-0.56,0,3.663,3.239,-1.783,1.722,0.004,-0.018,0.995,0.000,0.000,0.000,0.3500,0,0,-0.89,0.81,-0.55,-0.0238,0.0661,0.3473,0.0000,0.0000,0.3000,0.2529,-0.53,0.90,16.76,2.4250,0.7750,1.0980,1.6800,2.3500,0,0.0000,0.0000,0.0000,0.0000,0.0000,0
9601,0.0015,-0.0001,0.3498,0.0120,0.0051,0.0311,-0.23,0.20,-0.48,0,3.663,1.627,-0.711,0.781,-0.000,-0.011,0.991,0.000,0.000,0.000,0.3500,0,0,-0.73,0.90,-0.46,-0.0245,0.0660,0.3493,0.0000,0.0000,0.3000,0.2522,0.24,0.68,14.36,0.0000,0.7780,1.0890,1.6690,2.3480,0,0.0000,0.0000,0.0000,0.0000,0.0000,0
9652,0.0017,0.0015,0.3512,0.0099,0.0091,0.0272,-0.11,0.19,-0.44,0,3.658,2.968,-1.305,-0.120,0.003,-0.014,0.991,0.000,0.000,0.000,0.3500,0,0,-0.64,0.94,-0.42,-0.0255,0.0660,0.3506,0.0000,0.0000,0.3000,0.2523,0.56,0.60,13.11,0.0000,0.7780,1.0890,1.6690,2.3480,0,0.0000,0.0000,0.0000,0.0000,0.0000,0
9703,0.0021,0.0030,0.3516,0.0082,0.0117,0.0200,0.07,0.15,-0.44,0,3.663,1.947,2.222,-0.420,0.007,-0.015,0.999,0.000,0.000,0.000,0.3520,0,0,-0.49,1.01,-0.43,-0.0268,0.0659,0.3513,0.0000,0.0000,0.3000,0.2530,0.79,0.54,13.11,0.0000,0.7740,1.0850,1.6720,2.3480,0,0.0000,0.0000,0.0000,0.0000,0.0000,0
9754,0.0008,0.0060,0.3527,0.0042,0.0150,0.0186,0.17,0.11,-0.44,0,3.658,0.750,1.017,0.113,0.000,-0.014,0.999,0.000,0.000,0.000,0.3530,-1,0,-0.39,0.89,-0.45,-0.0284,0.0656,0.3523,0.0000,0.0000,0.3000,0.2530,1.18,0.25,13.14,0.0000,0.7740,1.0850,1.6720,2.3480,0,0.0000,0.0000,0.0000,0.0000,0.0000,0
9805,0.0010,0.0067,0.3536,0.0033,0.0136,0.0182,0.22,0.08,-0.44,0,3.658,1.207,4.228,0.416,0.003,-0.014,1.001,0.000,0.000,0.000,0.3480,0,0,-0.41,0.75,-0.40,-0.0211,0.0706,0.3535,0.0000,0.0000,0.3000,0.2529,1.16,0.22,13.13,0.0000,0.7800,1.0850,1.6690,2.3510,0,0.0000,0.0000,0.0000,0.0000,0.0000,0
9856,-0.0007,0.0083,0.3517,-0.0002,0.0130,0.0043,0.32,0.03,-0.42,0,3.653,-0.103,4.381,0.713,0.006,-0.017,1.000,0.000,0.000,0.000,0.3510,0,1,-0.35,0.54,-0.38,-0.0215,0.0710,0.3526,0.0000,0.0000,0.3000,0.2547,1.24,-0.08,12.72,0.0000,0.7800,1.0850,1.6690,2.3510,0,0.0000,0.0000,0.0000,0.0000,0.0000,0
9908,-0.0021,0.0083,0.3515,-0.0027,0.0094,0.0025,0.36,-0.08,-0.40,0,3.653,1.363,4.060,0.839,0.008,-0.016,1.009,0.000,0.000,0.000,0.3500,0,1,-0.35,0.33,-0.33,-0.0233,0.0710,0.3528,0.0000,0.0000,0.3000,0.2549,1.07,-0.30,11.86,0.0000,0.7800,1.0810,1.6720,2.3520,0,0.0000,0.0000,0.0000,0.0000,0.0000,0
9959,-0.0076,0.0078,0.3509,-0.0103,0.0049,0.0016,0.39,-0.12,-0.37,0,3.653,-0.260,0.873,0.984,0.002,-0.010,1.005,0.000,0.000,0.000,0.3500,0,0,-0.28,0.13,-0.28,-0.0251,0.0709,0.3527,0.0000,0.0000,0.3000,0.2551,0.81,-1.07,10.96,0.0000,0.7800,1.0810,1.6720,2.3520,0,0.0000,0.0000,0.0000,0.0000,0.0000,0
10011,-0.0080,0.0079,0.3506,-0.0089,0.0014,0.0016,0.35,-0.22,-0.34,0,3.658,-0.324,2.146,1.015,0.005,-0.013,1.002,0.000,0.000,0.000,0.3520,0,1,-0.29,0.09,-0.23,-0.0262,0.0706,0.3527,0.0000,0.0000,0.3000,0.2552,0.64,-1.03,10.05,2.3550,0.7760,1.0830,1.6680,2.3470,0,0.0000,0.0000,0.0000,0.0000,0.0000,0
10062,-0.0075,0.0063,0.3514,-0.0057,-0.0040,0.0067,0.32,-0.26,-0.29,0,3.653,-2.273,1.439,1.609,0.006,-0.015,1.002,0.000,0.000,0.000,0.3530,0,0,-0.32,-0.01,-0.16,-0.0284,0.0709,0.3532,0.0000,0.0000,0.3000,0.2545,0.27,-0.83,8.77,2.3550,0.7760,1.0830,1.6680,2.3470,0,0.0000,0.0000,0.0000,0.0000,0.0000,0
10113,-0.0093,0.0061,0.3525,-0.0057,-0.0066,0.0124,0.26,-0.25,-0.24,0,3.658,-2.903,2.259,0.603,0.006,-0.011,1.007,0.000,0.000,0.000,0.3490,0,0,-0.44,-0.09,-0.08,-0.0295,0.0703,0.3540,0.0000,0.0000,0.3000,0.2537,0.12,-0.97,7.20,2.3360,0.7800,1.0780,1.6720,2.3370,0,0.0000,0.0000,0.0000,0.0000,0.0000,0
10164,-0.0074,0.0062,0.3514,-0.0003,-0.0081,0.0068,0.10,-0.30,-0.20,0,3.653,-2.880,2.290,0.961,0.005,-0.012,1.004,0.000,0.000,0.000,0.3540,1,0,-0.58,-0.20,-0.05,-0.0304,0.0697,0.3533,0.0000,0.0000,0.3000,0.2545,0.06,-0.57,6.12,2.3360,0.7800,1.0780,1.6720,2.3370,0,0.0000,0.0000,0.0000,0.0000,0.0000,0
10216,-0.0115,0.0006,0.3530,-0.0040,-0.0168,0.0145,-0.03,-0.26,-0.18,0,3.658,-2.051,0.214,0.843,0.002,-0.011,0.999,0.000,0.000,0.000,0.3520,0,0,-0.72,-0.34,-0.02,-0.0290,0.0675,0.3544,0.0000,0.0000,0.3000,0.2533,-0.77,-1.05,5.27,2.2870,0.7820,1.0850,1.6910,2.3460,0,0.0000,0.0000,0.0000,0.0000,0.0000,0
10267,-0.0100,-0.0059,0.3532,0.0005,-0.0250,0.0126,-0.08,-0.19,-0.15,0,3.653,-3.450,-1.635,0.329,0.006,-0.017,1.001,0.000,0.000,0.000,0.3540,0,0,-0.82,-0.35,0.02,-0.0290,0.0665,0.3545,0.0000,0.0000,0.3000,0.2535,-1.65,-0.72,4.60,2.2870,0.7820,1.0850,1.6910,2.3460,0,0.0000,0.0000,0.0000,0.0000,0.0000,0
10319,-0.0103,-0.0080,0.3541,0.0018,-0.0255,0.0144,-0.24,-0.19,-0.15,0,3.658,-2.252,-1.331,-0.172,0.007,-0.012,1.004,0.000,0.000,0.000,0.3530,0,0,-1.00,-0.27,0.04,-0.0288,0.0655,0.3551,0.0000,0.0000,0.3000,0.2531,-1.83,-0.69,4.64,0.0000,0.7840,1.0960,1.6940,2.3400,0,0.0000,0.0000,0.0000,0.0000,0.0000,0
10370,-0.0063,-0.0092,0.3543,0.0094,-0.0235,0.0126,-0.37,-0.19,-0.14,0,3.653,-0.601,-0.177,-0.039,0.002,-0.013,0.999,0.000,0.000,0.000,0.3530,0,0,-1.12,-0.20,0.03,-0.0282,0.0646,0.3553,0.0000,0.0000,0.3000,0.2533,-1.82,-0.02,4.34,0.0000,0.7840,1.0960,1.6940,2.3400,0,0.0000,0.0000,0.0000,0.0000,0.0000,0
10422,-0.0065,-0.0086,0.3541,0.0100,-0.0179,0.0091,-0.43,-0.12,-0.13,0,3.658,1.959,-5.857,-0.006,0.005,-0.013,0.999,0.000,0.000,0.000,0.3560,2,-1,-1.15,-0.19,0.03,-0.0275,0.0639,0.3553,0.0000,0.0000,0.3000,0.2537,-1.50,-0.00,4.01,2.3650,0.7840,1.0950,1.6990,2.3420,0,0.0000,0.0000,0.0000,0.0000,0.0000,0
10473,-0.0011,-0.0167,0.3554,0.0185,-0.0253,0.0122,-0.30,0.01,-0.12,0,3.653,-2.808,-3.635,0.198,0.004,-0.017,0.994,0.000,0.000,0.000,0.3540,0,0,-1.01,0.12,0.05,-0.0275,0.0595,0.3562,0.0000,0.0000,0.3000,0.2531,-2.45,0.81,3.75,2.3650,0.7840,1.0950,1.6990,2.3420,0,0.0000,0.0000,0.0000,0.0000,0.0000,0
10524,-0.0024,-0.0260,0.3552,0.0151,-0.0347,0.0076,-0.38,0.12,-0.12,0,3.653,-2.685,-0.460,0.447,0.003,-0.008,1.000,0.000,0.000,0.000,0.3540,1,0,-1.15,0.31,0.06,-0.0267,0.0582,0.3560,0.0000,0.0000,0.3000,0.2537,-3.59,0.54,3.59,2.4550,0.7850,1.0980,1.6940,2.3400,0,0.0000,0.0000,0.0000,0.0000,0.0000,0
10575,-0.0021,-0.0298,0.3549,0.0135,-0.0348,0.0048,-0.53,0.17,-0.10,0,3.653,-3.773,0.185,-0.432,0.005,-0.019,0.999,0.000,0.000,0.000,0.3560,0,0,-1.28,0.34,0.08,-0.0267,0.0565,0.3558,0.0000,0.0000,0.3000,0.2540,-3.87,0.48,2.94,2.4550,0.7850,1.0980,1.6940,2.3400,0,0.0000,0.0000,0.0000,0.0000,0.0000,0
10626,-0.0011,-0.0310,0.3556,0.0126,-0.0294,0.0059,-0.71,0.20,-0.09,0,3.658,0.732,1.054,0.063,0.006,-0.018,1.004,0.000,0.000,0.000,0.3550,0,0,-1.47,0.33,0.06,-0.0262,0.0554,0.3561,0.0000,0.0000,0.3000,0.2537,-3.69,0.52,2.73,0.0000,0.7840,1.0950,1.7010,2.3440,0,0.0000,0.0000,0.0000,0.0000,0.0000,0
10677,0.0010,-0.0311,0.3556,0.0132,-0.0215,0.0050,-0.71,0.18,-0.08,0,3.648,2.862,-1.820,0.561,0.005,-0.014,0.999,0.000,0.000,0.000,0.3570,0,0,-1.44,0.28,0.06,-0.0257,0.0545,0.3562,0.0000,0.0000,0.3000,0.2538,-3.32,0.70,2.37,0.0000,0.7840,1.0950,1.7010,2.3440,0,0.0000,0.0000,0.0000,0.0000,0.0000,0
10728,0.0029,-0.0321,0.3565,0.0136,-0.0153,0.0085,-0.55,0.18,-0.05,0,3.658,4.336,-1.107,0.065,0.006,-0.018,0.995,0.000,0.000,0.000,0.3560,0,0,-1.29,0.37,0.09,-0.0251,0.0539,0.3568,0.0000,0.0000,0.3000,0.2533,-3.10,0.86,1.60,0.0000,0.7800,1.0990,1.7020,2.3350,0,0.0000,0.0000,0.0000,0.0000,0.0000,0
10779,0.0049,-0.0295,0.3567,0.0142,-0.0057,0.0063,-0.40,0.19,-0.04,0,3.648,0.188,-1.266,0.373,0.004,-0.010,0.998,0.000,0.000,0.000,0.3560,0,0,-1.07,0.42,0.10,-0.0246,0.0535,0.3568,0.0000,0.0000,0.3000,0.2535,-2.44,1.04,1.35,0.0000,0.7800,1.0990,1.7020,2.3350,0,0.0000,0.0000,0.0000,0.0000,0.0000,0
10830,0.0048,-0.0263,0.3566,0.0114,0.0032,0.0034,-0.34,0.29,-0.02,0,3.653,3.788,1.104,0.479,0.004,-0.008,0.999,0.000,0.000,0.000,0.3550,0,0,-1.06,0.49,0.12,-0.0242,0.0532,0.3567,0.0000,0.0000,0.3000,0.2538,-1.77,0.89,0.49,0.0000,0.7770,1.0970,1.6990,2.3390,0,0.0000,0.0000,0.0000,0.0000,0.0000,0
10881,0.0051,-0.0214,0.3559,0.0087,0.0134,-0.0000,-0.20,0.24,0.01,0,3.648,2.607,2.320,1.399,0.007,-0.015,1.002,0.000,0.000,0.000,0.3550,0,0,-0.87,0.43,0.14,-0.0238,0.0532,0.3563,0.0000,0.0000,0.3000,0.2543,-0.91,0.78,-0.31,0.0000,0.7770,1.0970,1.6990,2.3390,0,0.0000,0.0000,0.0000,0.0000,0.0000,0
10932,0.0048,-0.0189,0.3555,0.0056,0.0179,-0.0018,-0.02,0.23,0.06,0,3.653,3.590,1.838,1.136,0.007,-0.011,1.004,0.000,0.000,0.000,0.3530,0,0,-0.74,0.31,0.21,-0.0235,0.0532,0.3560,0.0000,0.0000,0.3000,0.2546,-0.51,0.61,-1.91,2.5630,0.7830,1.0930,1.6900,2.3400,0,0.0000,0.0000,0.0000,0.0000,0.0000,0
10983,0.0030,-0.0169,0.3542,0.0005,0.0199,-0.0060,0.12,0.17,0.10,0,3.642,3.528,3.310,0.775,0.008,-0.012,1.002,0.000,0.000,0.000,0.3540,0,1,-0.55,0.22,0.27,-0.0231,0.0533,0.3552,0.0000,0.0000,0.3000,0.2553,-0.26,0.22,-3.15,2.5630,0.7830,1.0930,1.6900,2.3400,0,0.0000,0.0000,0.0000,0.0000,0.0000,0
11035,0.0011,-0.0148,0.3538,-0.0039,0.0204,-0.0047,0.30,0.05,0.14,0,3.653,2.710,2.024,0.832,0.007,-0.018,1.004,0.000,0.000,0.000,0.3540,0,0,-0.37,0.08,0.29,-0.0282,0.0533,0.3549,0.0000,0.0000,0.3000,0.2552,-0.09,-0.12,-4.07,2.5550,0.7830,1.0890,1.6810,2.3420,0,0.0000,0.0000,0.0000,0.0000,0.0000,0
11086,0.0001,-0.0093,0.3537,-0.0054,0.0252,-0.0034,0.34,-0.04,0.17,0,3.648,0.091,0.615,0.513,0.001,-0.012,1.004,0.000,0.000,0.000,0.3560,0,-1,-0.23,-0.02,0.33,-0.0284,0.0530,0.3547,0.0000,0.0000,0.3000,0.2551,0.54,-0.27,-5.23,2.5550,0.7830,1.0890,1.6810,2.3420,0,0.0000,0.0000,0.0000,0.0000,0.0000,0
11138,-0.0036,-0.0075,0.3548,-0.0103,0.0231,0.0038,0.37,-0.06,0.22,0,3.648,1.875,1.837,-0.040,0.003,-0.013,1.001,0.000,0.000,0.000,0.3530,-2,2,-0.23,-0.07,0.34,-0.0274,0.0528,0.3554,0.0000,0.0000,0.3000,0.2541,0.57,-0.78,-6.75,2.3980,0.7800,1.0830,1.6780,2.3410,0,0.0000,0.0000,0.0000,0.0000,0.0000,0
11189,-0.0003,-0.0077,0.3540,-0.0039,0.0179,0.0005,0.42,-0.11,0.26,0,3.642,1.010,1.410,0.575,0.011,-0.012,1.003,0.000,0.000,0.000,0.3530,0,0,-0.16,-0.14,0.36,-0.0287,0.0538,0.3550,0.0000,0.0000,0.3000,0.2546,0.31,-0.23,-7.70,2.3980,0.7800,1.0830,1.6780,2.3410,0,0.0000,0.0000,0.0000,0.0000,0.0000,0
11240,-0.0090,-0.0066,0.3536,-0.0160,0.0144,-0.0005,0.48,-0.16,0.29,0,3.648,-0.150,1.550,0.628,0.005,-0.017,1.005,0.000,0.000,0.000,0.3530,0,0,-0.11,-0.22,0.39,-0.0286,0.0536,0.3546,0.0000,0.0000,0.3000,0.2548,0.22,-1.45,-8.61,0.0000,0.7830,1.0930,1.6690,2.3430,0,0.0000,0.0000,0.0000,0.0000,0.0000,0
11291,-0.0085,-0.0104,0.3533,-0.0124,0.0033,-0.0008,0.51,-0.25,0.33,0,3.642,-3.199,1.354,0.774,0.003,-0.018,1.006,0.000,0.000,0.000,0.3550,0,0,-0.11,-0.30,0.42,-0.0282,0.0529,0.3545,0.0000,0.0000,0.3000,0.2549,-0.60,-1.24,-9.94,0.0000,0.7830,1.0930,1.6690,2.3430,0,0.0000,0.0000,0.0000,0.0000,0.0000,0
11342,-0.0095,-0.0142,0.3541,-0.0110,-0.0071,0.0038,0.40,-0.29,0.36,0,3.648,-5.526,-0.530,-0.249,0.008,-0.012,1.002,0.000,0.000,0.000,0.3530,2,0,-0.28,-0.36,0.46,-0.0277,0.0519,0.3550,0.0000,0.0000,0.3000,0.2542,-1.38,-1.25,-10.87,2.2990,0.7870,1.0940,1.6800,2.3460,0,0.0000,0.0000,0.0000,0.0000,0.0000,0
11393,-0.0093,-0.0166,0.3538,-0.0074,-0.0133,0.0024,0.22,-0.31,0.35,0,3.642,-1.891,1.317,-0.843,0.004,-0.009,0.998,0.000,0.000,0.000,0.3530,1,0,-0.54,-0.31,0.49,-0.0297,0.0490,0.3549,0.0000,0.0000,0.3000,0.2544,-1.86,-1.06,-10.47,2.2990,0.7870,1.0940,1.6800,2.3460,0,0.0000,0.0000,0.0000,0.0000,0.0000,0
11444,-0.0090,-0.0232,0.3535,-0.0038,-0.0240,0.0005,0.07,-0.34,0.31,0,3.648,-4.359,-1.687,-0.762,0.004,-0.011,0.998,0.000,0.000,0.000,0.3540,2,0,-0.63,-0.37,0.45,-0.0293,0.0469,0.3547,0.0000,0.0000,0.3000,0.2547,-2.86,-0.86,-9.45,2.3310,0.7830,1.0980,1.6770,2.3420,0,0.0000,0.0000,0.0000,0.0000,0.0000,0
11495,-0.0088,-0.0264,0.3538,-0.0004,-0.0274,0.0018,-0.12,-0.28,0.28,0,3.642,-5.832,-1.806,-0.580,0.004,-0.016,0.999,0.000,0.000,0.000,0.3540,0,0,-0.84,-0.29,0.43,-0.0288,0.0434,0.3547,0.0000,0.0000,0.3000,0.2545,-3.26,-0.68,-8.45,2.3310,0.7830,1.0980,1.6770,2.3420,0,0.0000,0.0000,0.0000,0.0000,0.0000,0
11546,-0.0098,-0.0306,0.3540,0.0002,-0.0303,0.0035,-0.45,-0.19,0.23,0,3.648,-2.025,-0.617,-0.887,0.005,-0.015,1.002,0.000,0.000,0.000,0.3530,1,0,-1.14,-0.19,0.40,-0.0280,0.0411,0.3546,0.0000,0.0000,0.3000,0.2542,-3.70,-0.73,-6.93,2.3260,0.7880,1.0950,1.6910,2.3400,0,0.0000,0.0000,0.0000,0.0000,0.0000,0
11598,-0.0102,-0.0346,0.3537,0.0011,-0.0306,0.0017,-0.56,-0.12,0.18,0,3.637,0.267,2.123,0.389,0.005,-0.012,1.002,0.000,0.000,0.000,0.3530,0,0,-1.24,-0.14,0.36,-0.0285,0.0395,0.3543,0.2469,-0.0104,0.3000,0.2545,-6.87,-17.97,-5.34,2.3260,0.7880,1.0950,1.6910,2.3400,0,0.0000,0.0000,0.0000,0.0000,0.0000,0
11649,-0.0090,-0.0391,0.3534,0.0041,-0.0310,0.0003,-0.57,-0.15,0.18,0,3.642,-1.446,-1.545,-0.082,0.004,-0.011,1.000,0.000,0.000,0.000,0.3490,0,-1,-1.23,-0.26,0.38,-0.0276,0.0378,0.3541,0.2469,-0.0104,0.3000,0.2547,-7.21,-17.75,-5.45,0.0000,0.7810,1.1090,1.6860,2.3470,0,0.0000,0.0000,0.0000,0.0000,0.0000,0
11700,-0.0091,-0.0445,0.3512,0.0048,-0.0328,-0.0095,-0.60,-0.16,0.19,0,3.637,-1.675,-3.205,0.512,0.007,-0.013,1.003,0.000,0.000,0.000,0.3510,0,0,-1.33,-0.19,0.36,-0.0254,0.0388,0.3526,0.2469,-0.0104,0.3000,0.2562,-7.64,-17.62,-5.75,0.0000,0.7810,1.1090,1.6860,2.3470,0,0.0000,0.0000,0.0000,0.0000,0.0000,0
11752,-0.0081,-0.0459,0.3507,0.0070,-0.0275,-0.0086,-0.67,-0.02,0.22,0,3.642,0.012,-1.393,-0.484,0.007,-0.007,1.005,0.000,0.000,0.000,0.3500,0,0,-1.41,-0.02,0.39,-0.0238,0.0382,0.3520,0.2469,-0.0104,0.3000,0.2562,-7.49,-17.47,-6.51,2.3840,0.7880,1.1140,1.6830,2.3510,0,0.0000,0.0000,0.0000,0.0000,0.0000,0
11802,-0.0053,-0.0460,0.3500,0.0112,-0.0197,-0.0081,-0.70,0.05,0.22,0,3.637,1.230,-0.169,0.283,0.003,-0.015,1.007,0.000,0.000,0.000,0.3470,0,0,-1.41,0.05,0.37,-0.0221,0.0380,0.3514,0.2469,-0.0104,0.3000,0.2562,-7.12,-17.10,-6.64,2.3840,0.7880,1.1140,1.6830,2.3510,0,0.0000,0.0000,0.0000,0.0000,0.0000,0
11854,-0.0054,-0.0462,0.3482,0.0097,-0.0125,-0.0110,-0.67,0.08,0.24,0,3.642,3.627,-0.063,0.163,0.006,-0.013,1.008,0.000,0.000,0.000,0.3500,0,0,-1.35,0.06,0.38,-0.0203,0.0381,0.3501,0.2469,-0.0104,0.3000,0.2569,-6.78,-17.13,-7.10,2.4040,0.7900,1.1120,1.6940,2.3480,0,0.0000,0.0000,0.0000,0.0000,0.0000,0
11905,-0.0020,-0.0469,0.3487,0.0142,-0.0074,-0.0032,-0.52,0.08,0.27,0,3.632,3.083,-0.547,0.419,0.006,-0.013,1.006,0.000,0.000,0.000,0.3500,0,0,-1.16,0.06,0.39,-0.0183,0.0384,0.3502,0.2469,-0.0104,0.3000,0.2559,-6.61,-16.77,-7.97,2.4040,0.7900,1.1120,1.6940,2.3480,0,0.0000,0.0000,0.0000,0.0000,0.0000,0
11956,-0.0027,-0.0455,0.3493,0.0110,-0.0002,0.0023,-0.37,0.12,0.30,0,3.642,2.071,-1.122,0.317,0.008,-0.012,1.002,0.000,0.000,0.000,0.3500,0,0,-1.00,0.09,0.41,-0.0162,0.0390,0.3504,0.2469,-0.0104,0.3000,0.2552,-6.18,-17.01,-8.88,0.0000,0.7840,1.1120,1.6840,2.3510,0,0.0000,0.0000,0.0000,0.0000,0.0000,0
12007,-0.0025,-0.0442,0.3498,0.0092,0.0050,0.0052,-0.26,0.17,0.31,0,3.637,2.450,-0.034,-0.016,0.003,-0.017,0.997,0.000,0.000,0.000,0.3480,-1,0,-0.90,0.15,0.43,-0.0140,0.0397,0.3506,0.2469,-0.0104,0.3000,0.2548,-5.85,-17.11,-9.23,0.0000,0.7840,1.1120,1.6840,2.3510,0,0.0000,0.0000,0.0000,0.0000,0.0000,0
12058,-0.0023,-0.0427,0.3491,0.0074,0.0092,0.0012,-0.15,0.17,0.31,0,3.642,3.254,0.484,0.407,0.008,-0.009,1.002,0.000,0.000,0.000,0.3510,0,0,-0.77,0.22,0.38,-0.0252,0.0392,0.3501,0.2469,-0.0104,0.3000,0.2554,-5.53,-17.14,-9.41,0.0000,0.7850,1.1150,1.6830,2.3530,0,0.0000,0.0000,0.0000,0.0000,0.0000,0
12109,-0.0023,-0.0403,0.3501,0.0055,0.0135,0.0057,0.01,0.11,0.35,0,3.632,3.935,2.019,0.975,0.009,-0.014,1.001,0.000,0.000,0.000,0.3500,0,0,-0.60,0.20,0.40,-0.0249,0.0398,0.3506,0.2469,-0.0104,0.3000,0.2547,-5.16,-17.27,-10.37,0.0000,0.7850,1.1150,1.6830,2.3530,0,0.0000,0.0000,0.0000,0.0000,0.0000,0
12160,-0.0020,-0.0378,0.3503,0.0046,0.0164,0.0060,0.16,0.09,0.38,0,3.642,0.256,-1.947,1.289,0.003,-0.014,0.999,0.000,0.000,0.000,0.3470,0,0,-0.40,0.10,0.44,-0.0246,0.0404,0.3506,0.2469,-0.0104,0.3000,0.2546,-4.85,-17.30,-11.39,0.0000,0.7850,1.1060,1.6740,2.3510,0,0.0000,0.0000,0.0000,0.0000,0.0000,0
12212,-0.0020,-0.0358,0.3489,0.0035,0.0171,-0.0032,0.20,0.12,0.41,0,3.632,2.611,0.942,0.813,0.002,-0.012,0.999,0.000,0.000,0.000,0.3480,0,1,-0.39,0.19,0.51,-0.0242,0.0407,0.3497,0.2469,-0.0104,0.3000,0.2559,-4.65,-17.27,-12.36,0.0000,0.7850,1.1060,1.6740,2.3510,0,0.0000,0.0000,0.0000,0.0000,0.0000,0
12263,-0.0020,-0.0352,0.3483,0.0022,0.0149,-0.0054,0.28,0.14,0.45,0,3.642,2.526,2.193,0.486,0.003,-0.011,0.998,0.000,0.000,0.000,0.3500,0,0,-0.25,0.18,0.57,-0.0269,0.0404,0.3491,0.2469,-0.0104,0.3000,0.2562,-4.71,-17.31,-13.64,2.4590,0.7830,1.1050,1.6630,2.3500,0,0.0000,0.0000,0.0000,0.0000,0.0000,0
12314,-0.0049,-0.0370,0.3489,-0.0041,0.0079,-0.0025,0.42,0.07,0.48,0,3.626,-2.172,0.581,0.531,0.008,-0.014,1.003,0.000,0.000,0.000,0.3460,0,1,-0.12,0.07,0.59,-0.0273,0.0403,0.3493,0.2469,-0.0104,0.3000,0.2558,-5.18,-17.81,-14.39,2.4590,0.7830,1.1050,1.6630,2.3500,0,0.0000,0.0000,0.0000,0.0000,0.0000,0
12365,-0.0051,-0.0366,0.3473,-0.0045,0.0043,-0.0077,0.35,0.01,0.51,0,3.637,-2.521,0.445,1.159,0.008,-0.015,1.002,0.000,0.000,0.000,0.3470,0,0,-0.23,0.05,0.64,-0.0290,0.0402,0.3483,0.2469,-0.0104,0.3000,0.2567,-5.31,-17.79,-15.37,2.3290,0.7900,1.1150,1.6620,2.3540,0,0.0000,0.0000,0.0000,0.0000,0.0000,0
12416,-0.0064,-0.0406,0.3468,-0.0062,-0.0061,-0.0074,0.28,-0.06,0.57,0,3.632,-2.404,0.134,1.699,0.003,-0.014,1.001,0.000,0.000,0.000,0.3460,0,1,-0.36,0.03,0.70,-0.0295,0.0396,0.3478,0.2469,-0.0104,0.3000,0.2567,-6.09,-17.94,-17.10,2.3290,0.7900,1.1150,1.6620,2.3540,0,0.0000,0.0000,0.0000,0.0000,0.0000,0
12467,-0.0054,-0.0417,0.3461,-0.0030,-0.0098,-0.0075,0.20,-0.12,0.65,0,3.637,-3.081,1.771,0.463,0.007,-0.013,1.011,0.000,0.000,0.000,0.3460,0,1,-0.50,0.04,0.80,-0.0315,0.0398,0.3472,0.2469,-0.0104,0.3000,0.2569,-6.34,-17.73,-19.37,0.0000,0.7870,1.1080,1.6650,2.3510,0,0.0000,0.0000,0.0000,0.0000,0.0000,0
12518,-0.0051,-0.0465,0.3458,-0.0013,-0.0190,-0.0050,0.04,-0.13,0.68,0,3.632,-0.838,1.067,0.609,0.004,-0.013,1.006,0.000,0.000,0.000,0.3430,1,0,-0.65,-0.04,0.84,-0.0333,0.0394,0.3469,0.2469,-0.0104,0.3000,0.2567,-7.12,-17.66,-20.40,0.0000,0.7870,1.1080,1.6650,2.3510,0,0.0000,0.0000,0.0000,0.0000,0.0000,0
12570,-0.0069,-0.0464,0.3442,-0.0031,-0.0174,-0.0092,-0.06,-0.11,0.71,0,3.637,-1.671,0.012,0.317,0.004,-0.017,1.006,0.000,0.000,0.000,0.3440,0,0,-0.68,-0.10,0.86,-0.0338,0.0375,0.3459,0.2469,-0.0104,0.3000,0.2574,-7.02,-17.81,-21.39,0.0000,0.7870,1.1220,1.6730,2.3500,0,0.0000,0.0000,0.0000,0.0000,0.0000,0
12621,-0.0070,-0.0490,0.3437,-0.0022,-0.0198,-0.0069,-0.16,-0.12,0.74,0,3.632,-1.698,1.333,-0.136,0.003,-0.010,1.005,0.000,0.000,0.000,0.3440,-1,0,-0.77,-0.10,0.88,-0.0344,0.0364,0.3455,0.2469,-0.0104,0.3000,0.2572,-7.32,-17.79,-22.07,0.0000,0.7870,1.1220,1.6730,2.3500,0,0.0000,0.0000,0.0000,0.0000,0.0000,0
12672,-0.0058,-0.0501,0.3436,0.0013,-0.0184,-0.0032,-0.29,-0.14,0.75,0,3.637,0.892,0.944,0.021,0.005,-0.011,1.011,0.000,0.000,0.000,0.3420,0,0,-0.90,-0.18,0.86,-0.0340,0.0405,0.3453,0.2469,-0.0104,0.3000,0.2569,-7.34,-17.59,-22.54,2.3010,0.7820,1.1220,1.6720,2.3540,0,0.0000,0.0000,0.0000,0.0000,0.0000,0
12731,-0.0043,-0.0523,0.3427,0.0050,-0.0185,-0.0037,-0.31,-0.14,0.76,0,3.632,-1.115,-1.900,-0.541,0.005,-0.010,1.001,0.000,0.000,0.000,0.3460,0,0,-0.85,-0.23,0.86,-0.0341,0.0408,0.3448,0.2469,-0.0104,0.3000,0.2571,-7.50,-17.32,-22.82,2.3010,0.7820,1.1220,1.6720,2.3540,0,0.0000,0.0000,0.0000,0.0000,0.0000,0
12783,-0.0037,-0.0527,0.3443,0.0067,-0.0149,0.0058,-0.37,-0.07,0.75,0,3.637,-1.156,-2.572,-0.312,0.006,-0.010,1.005,0.000,0.000,0.000,0.3430,0,0,-0.92,-0.11,0.83,-0.0339,0.0413,0.3456,0.2469,-0.0104,0.3000,0.2557,-7.40,-17.29,-22.35,2.2370,0.7830,1.1190,1.6700,2.3520,0,0.0000,0.0000,0.0000,0.0000,0.0000,0
12834,-0.0054,-0.0606,0.3440,0.0032,-0.0253,0.0045,-0.35,0.03,0.73,0,3.632,-0.851,1.383,-0.450,0.008,-0.012,1.002,0.000,0.000,0.000,0.3420,0,0,-0.98,0.02,0.82,-0.0335,0.0420,0.3453,0.2469,-0.0104,0.3000,0.2559,-8.45,-17.55,-21.89,2.2370,0.7830,1.1190,1.6700,2.3520,0,0.0000,0.0000,0.0000,0.0000,0.0000,0
12885,-0.0054,-0.0639,0.3432,0.0027,-0.0263,0.0002,-0.40,0.03,0.70,0,3.637,-3.909,-0.292,-0.728,0.004,-0.012,1.002,0.000,0.000,0.000,0.3420,0,0,-1.02,-0.05,0.79,-0.0329,0.0427,0.3447,0.2469,-0.0104,0.3000,0.2566,-8.71,-17.53,-21.07,2.3150,0.7850,1.1270,1.6820,2.3560,0,0.0000,0.0000,0.0000,0.0000,0.0000,0
12936,-0.0052,-0.0658,0.3426,0.0025,-0.0240,-0.0023,-0.55,-0.01,0.67,0,3.632,1.847,0.980,-1.533,0.005,-0.013,1.002,0.000,0.000,0.000,0.3430,0,0,-1.22,-0.03,0.76,-0.0322,0.0436,0.3442,0.2469,-0.0104,0.3000,0.2569,-8.73,-17.50,-20.17,2.3150,0.7850,1.1270,1.6820,2.3560,0,0.0000,0.0000,0.0000,0.0000,0.0000,0
12987,-0.0036,-0.0660,0.3427,0.0054,-0.0189,-0.0016,-0.53,-0.03,0.60,0,3.637,-0.003,-1.292,-1.840,0.004,-0.016,1.002,0.000,0.000,0.000,0.3450,0,0,-1.13,-0.08,0.68,-0.0314,0.0448,0.3442,0.2469,-0.0104,0.3000,0.2568,-8.50,-17.28,-18.05,2.3110,0.7800,1.1220,1.6790,2.3590,0,0.0000,0.0000,0.0000,0.0000,0.0000,0
13038,-0.0023,-0.0662,0.3438,0.0076,-0.0131,0.0038,-0.49,-0.02,0.52,0,3.632,0.284,-1.503,-1.172,0.006,-0.010,0.999,0.000,0.000,0.000,0.3450,0,-1,-1.13,-0.02,0.58,-0.0304,0.0460,0.3448,0.2469,-0.0104,0.3000,0.2561,-8.27,-17.15,-15.63,2.3110,0.7800,1.1220,1.6790,2.3590,0,0.0000,0.0000,0.0000,0.0000,0.0000,0
13090,-0.0019,-0.0668,0.3445,0.0078,-0.0090,0.0064,-0.44,-0.00,0.46,0,3.632,3.833,2.083,-1.096,0.006,-0.013,0.997,0.000,0.000,0.000,0.3430,0,0,-1.07,0.09,0.53,-0.0341,0.0377,0.3453,0.2469,-0.0104,0.3000,0.2556,-8.13,-17.15,-13.76,0.0000,0.7880,1.1250,1.6790,2.3550,0,0.0000,0.0000,0.0000,0.0000,0.0000,0
13141,0.0005,-0.0616,0.3440,0.0115,0.0054,0.0014,-0.38,-0.00,0.40,0,3.626,5.761,0.178,-0.701,0.005,-0.014,0.997,0.000,0.000,0.000,0.3400,-1,-1,-0.87,-0.02,0.47,-0.0335,0.0378,0.3448,0.2469,-0.0104,0.3000,0.2563,-7.06,-16.79,-12.10,0.0000,0.7880,1.1250,1.6790,2.3550,0,0.0000,0.0000,0.0000,0.0000,0.0000,0
13192,-0.0006,-0.0588,0.3421,0.0083,0.0134,-0.0086,-0.20,0.08,0.38,0,3.632,3.204,-2.437,-0.092,0.006,-0.014,1.006,0.000,0.000,0.000,0.3380,0,0,-0.58,-0.04,0.44,-0.0322,0.0390,0.3434,0.2469,-0.0104,0.3000,0.2577,-6.44,-16.91,-11.33,2.3450,0.7860,1.1250,1.6580,2.3580,0,0.0000,0.0000,0.0000,0.0000,0.0000,0
13242,0.0031,-0.0562,0.3397,0.0137,0.0188,-0.0163,-0.06,0.16,0.36,0,3.626,3.004,-1.811,-0.737,0.002,-0.012,1.006,0.000,0.000,0.000,0.3390,0,0,-0.42,0.09,0.44,-0.0311,0.0394,0.3417,0.2469,-0.0104,0.3000,0.2590,-5.97,-16.36,-10.93,2.3450,0.7860,1.1250,1.6580,2.3580,0,0.0000,0.0000,0.0000,0.0000,0.0000,0
13294,0.0049,-0.0546,0.3387,0.0144,0.0205,-0.0152,0.10,0.21,0.33,0,3.626,3.454,-0.761,-0.710,0.006,-0.013,1.010,0.000,0.000,0.000,0.3360,0,0,-0.27,0.18,0.40,-0.0300,0.0397,0.3408,0.2469,-0.0104,0.3000,0.2590,-5.77,-16.21,-9.91,2.3470,0.7860,1.1300,1.6590,2.3590,0,0.0000,0.0000,0.0000,0.0000,0.0000,0
13345,0.0046,-0.0502,0.3368,0.0110,0.0261,-0.0185,0.27,0.23,0.30,0,3.626,2.364,0.123,-0.529,0.003,-0.013,1.009,0.000,0.000,0.000,0.3410,-1,0,-0.09,0.22,0.37,-0.0289,0.0398,0.3394,0.2469,-0.0104,0.3000,0.2598,-5.19,-16.34,-8.92,2.3470,0.7860,1.1300,1.6590,2.3590,0,0.0000,0.0000,0.0000,0.0000,0.0000,0
13396,0.0044,-0.0447,0.3383,0.0077,0.0321,-0.0035,0.39,0.21,0.27,0,3.626,2.197,1.146,-0.946,0.007,-0.012,1.005,0.000,0.000,0.000,0.3360,0,0,0.00,0.24,0.36,-0.0311,0.0426,0.3401,0.2469,-0.0104,0.3000,0.2579,-4.54,-16.62,-8.00,2.3780,0.7840,0.0000,1.6500,2.3610,0,0.0000,0.0000,0.0000,0.0000,0.0000,0
13447,0.0048,-0.0394,0.3371,0.0058,0.0362,-0.0054,0.47,0.15,0.23,0,3.621,1.675,0.646,-0.550,0.007,-0.013,1.006,0.000,0.000,0.000,0.3360,0,0,0.12,0.18,0.31,-0.0307,0.0429,0.3391,0.2469,-0.0104,0.3000,0.2583,-3.96,-16.65,-6.89,2.3780,0.7840,0.0000,1.6500,2.3610,0,0.0000,0.0000,0.0000,0.0000,0.0000,0
13498,0.0037,-0.0386,0.3364,0.0019,0.0302,-0.0055,0.58,0.10,0.20,0,3.626,2.991,0.329,-0.567,0.005,-0.013,1.004,0.000,0.000,0.000,0.3350,0,0,0.20,0.15,0.28,-0.0303,0.0427,0.3384,0.2469,-0.0104,0.3000,0.2584,-4.19,-16.89,-6.12,2.2770,0.7810,1.1160,1.6290,2.3550,0,0.0000,0.0000,0.0000,0.0000,0.0000,0
13549,0.0054,-0.0376,0.3355,0.0042,0.0244,-0.0056,0.70,0.04,0.18,0,3.621,-0.882,0.374,-1.074,0.004,-0.012,1.003,0.000,0.000,0.000,0.3360,0,0,0.35,0.13,0.26,-0.0298,0.0422,0.3376,0.2469,-0.0104,0.3000,0.2586,-4.40,-16.67,-5.40,2.2770,0.7810,1.1160,1.6290,2.3550,0,0.0000,0.0000,0.0000,0.0000,0.0000,0
13600,0.0056,-0.0365,0.3356,0.0038,0.0184,-0.0020,0.65,0.01,0.13,0,3.626,-2.301,0.793,-0.927,0.007,-0.015,1.006,0.000,0.000,0.000,0.3350,3,0,0.31,0.11,0.20,-0.0292,0.0412,0.3373,0.2469,-0.0104,0.3000,0.2582,-4.61,-16.70,-4.02,2.2760,0.7840,1.1180,1.6230,2.3620,0,0.0000,0.0000,0.0000,0.0000,0.0000,0
13651,0.0058,-0.0358,0.3353,0.0038,0.0129,-0.0007,0.58,0.01,0.09,0,3.621,-2.655,1.130,-1.156,0.001,-0.012,1.004,0.000,0.000,0.000,0.3360,0,0,0.21,0.09,0.19,-0.0310,0.0379,0.3368,0.2469,-0.0104,0.3000,0.2581,-4.82,-16.70,-2.81,2.2760,0.7840,1.1180,1.6230,2.3620,0,0.0000,0.0000,0.0000,0.0000,0.0000,0
13702,0.0053,-0.0440,0.3357,0.0024,-0.0083,0.0037,0.49,0.02,0.04,0,3.626,-4.695,0.320,-1.229,0.003,-0.015,1.002,0.000,0.000,0.000,0.3330,1,1,0.07,0.04,0.13,-0.0309,0.0356,0.3368,0.2469,-0.0104,0.3000,0.2576,-6.42,-16.83,-1.19,2.3150,0.7860,1.1240,1.6280,2.3650,0,0.0000,0.0000,0.0000,0.0000,0.0000,0
13753,0.0058,-0.0497,0.3346,0.0029,-0.0223,-0.0003,0.27,-0.06,-0.02,0,3.621,-6.231,0.737,-0.893,0.006,-0.011,1.005,0.000,0.000,0.000,0.3340,1,0,-0.18,0.04,0.11,-0.0324,0.0338,0.3359,0.2469,-0.0104,0.3000,0.2582,-7.48,-16.74,0.48,2.3150,0.7860,1.1240,1.6280,2.3650,0,0.0000,0.0000,0.0000,0.0000,0.0000,0
13804,0.0058,-0.0514,0.3343,0.0033,-0.0257,-0.0005,-0.04,-0.05,-0.06,0,3.626,-4.408,-0.321,-0.620,0.010,-0.011,1.002,0.000,0.000,0.000,0.3350,1,0,-0.50,0.00,0.06,-0.0326,0.0310,0.3356,0.2469,-0.0104,0.3000,0.2583,-7.76,-16.72,1.90,0.0000,0.7860,1.1330,1.6330,2.3660,0,0.0000,0.0000,0.0000,0.0000,0.0000,0
13855,0.0044,-0.0590,0.3347,0.0008,-0.0373,0.0028,-0.18,0.03,-0.10,0,3.621,-5.190,0.987,-0.103,0.005,-0.012,1.002,0.000,0.000,0.000,0.3350,1,0,-0.72,0.02,0.03,-0.0325,0.0280,0.3356,0.2469,-0.0104,0.3000,0.2578,-8.85,-16.95,3.12,0.0000,0.7860,1.1330,1.6330,2.3660,0,0.0000,0.0000,0.0000,0.0000,0.0000,0
13906,0.0043,-0.0628,0.3350,0.0003,-0.0393,0.0039,-0.44,0.01,-0.11,0,3.626,-4.477,2.061,0.360,0.002,-0.010,1.002,0.000,0.000,0.000,0.3340,1,0,-0.98,-0.03,0.03,-0.0324,0.0250,0.3356,0.2469,-0.0104,0.3000,0.2577,-9.21,-17.00,3.23,0.0000,0.7850,1.1290,1.6520,2.3630,0,0.0000,0.0000,0.0000,0.0000,0.0000,0
13957,0.0057,-0.0642,0.3347,0.0030,-0.0347,0.0030,-0.71,-0.03,-0.11,0,3.621,-0.489,-1.661,-0.946,0.000,-0.015,1.004,0.000,0.000,0.000,0.3350,0,0,-1.21,-0.14,0.04,-0.0323,0.0219,0.3354,0.2469,-0.0104,0.3000,0.2578,-9.10,-16.78,3.24,0.0000,0.7850,1.1290,1.6520,2.3630,0,0.0000,0.0000,0.0000,0.0000,0.0000,0
14008,0.0056,-0.0671,0.3350,0.0026,-0.0312,0.0052,-0.78,0.02,-0.13,0,3.626,0.430,1.550,-0.714,0.002,-0.012,0.999,0.000,0.000,0.000,0.3390,0,1,-1.23,-0.05,-0.00,-0.0320,0.0193,0.3356,0.2469,-0.0104,0.3000,0.2575,-9.15,-16.83,3.91,2.4360,0.7850,1.1270,1.6710,2.3590,0,0.0000,0.0000,0.0000,0.0000,0.0000,0
14059,0.0071,-0.0730,0.3372,0.0052,-0.0330,0.0146,-0.73,0.03,-0.18,0,3.621,-3.303,-0.418,-0.421,0.006,-0.012,0.993,0.000,0.000,0.000,0.3390,0,0,-1.25,-0.10,-0.04,-0.0357,0.0216,0.3370,0.2469,-0.0104,0.3000,0.2561,-9.70,-16.70,5.35,2.4360,0.7850,1.1270,1.6710,2.3590,0,0.0000,0.0000,0.0000,0.0000,0.0000,0
14110,0.0054,-0.0744,0.3387,0.0014,-0.0265,0.0165,-0.79,0.05,-0.22,0,3.621,1.564,0.620,0.418,0.005,-0.014,0.993,0.000,0.000,0.000,0.3370,0,0,-1.41,-0.08,-0.06,-0.0361,0.0205,0.3379,0.2469,-0.0104,0.3000,0.2556,-9.51,-17.01,6.71,0.0000,0.7880,1.1340,1.6640,2.3600,0,0.0000,0.0000,0.0000,0.0000,0.0000,0
14161,0.0056,-0.0739,0.3386,0.0014,-0.0166,0.0097,-0.73,-0.02,-0.23,0,3.621,3.754,3.632,-0.445,0.005,-0.009,0.990,0.000,0.000,0.000,0.3360,-1,0,-1.33,-0.11,-0.04,-0.0363,0.0197,0.3377,0.2469,-0.0104,0.3000,0.2563,-8.98,-16.96,6.91,0.0000,0.7880,1.1340,1.6640,2.3600,0,0.0000,0.0000,0.0000,0.0000,0.0000,0
14212,0.0056,-0.0733,0.3376,0.0014,-0.0077,-0.0009,-0.63,0.00,-0.24,0,3.621,3.492,2.284,1.219,0.007,-0.014,0.993,0.000,0.000,0.000,0.3370,0,0,-1.18,-0.29,-0.08,-0.0362,0.0244,0.3370,0.2469,-0.0104,0.3000,0.2577,-8.48,-16.88,7.27,0.0000,0.7860,1.1310,1.6560,2.3630,0,0.0000,0.0000,0.0000,0.0000,0.0000,0
14263,0.0053,-0.0696,0.3372,0.0007,0.0050,-0.0056,-0.48,0.01,-0.21,0,3.616,1.973,-2.717,0.881,0.008,-0.012,0.996,0.000,0.000,0.000,0.3350,0,0,-1.00,-0.41,-0.02,-0.0359,0.0251,0.3366,0.2469,-0.0104,0.3000,0.2583,-7.60,-16.90,6.39,0.0000,0.7860,1.1310,1.6560,2.3630,0,0.0000,0.0000,0.0000,0.0000,0.0000,0
14315,0.0066,-0.0684,0.3358,0.0033,0.0106,-0.0118,-0.29,0.04,-0.18,0,3.616,3.245,-2.614,0.162,0.006,-0.010,1.000,0.000,0.000,0.000,0.3330,0,0,-0.90,-0.27,0.03,-0.0352,0.0260,0.3355,0.2469,-0.0104,0.3000,0.2592,-7.23,-16.64,5.42,0.0000,0.7880,1.1310,1.6280,2.3580,0,0.0000,0.0000,0.0000,0.0000,0.0000,0
14366,0.0069,-0.0656,0.3339,0.0033,0.0173,-0.0188,-0.12,0.08,-0.16,0,3.616,2.907,-0.667,0.174,0.005,-0.015,1.005,0.000,0.000,0.000,0.3320,0,0,-0.73,-0.14,0.04,-0.0343,0.0271,0.3341,0.2469,-0.0104,0.3000,0.2603,-6.69,-16.56,4.75,0.0000,0.7880,1.1310,1.6280,2.3580,0,0.0000,0.0000,0.0000,0.0000,0.0000,0
14417,0.0067,-0.0631,0.3322,0.0019,0.0217,-0.0207,0.00,0.13,-0.14,0,3.621,2.696,0.210,0.780,0.005,-0.012,1.008,0.000,0.000,0.000,0.3330,0,0,-0.58,-0.10,0.05,-0.0331,0.0280,0.3329,0.2469,-0.0104,0.3000,0.2608,-6.29,-16.61,4.28,0.0000,0.7760,1.1310,1.6310,2.3680,0,0.0000,0.0000,0.0000,0.0000,0.0000,0
14468,0.0082,-0.0593,0.3317,0.0036,0.0267,-0.0149,0.12,0.10,-0.11,0,3.616,3.111,1.520,0.352,0.008,-0.012,1.008,0.000,0.000,0.000,0.3330,-2,0,-0.44,-0.11,0.09,-0.0318,0.0289,0.3325,0.2469,-0.0104,0.3000,0.2603,-5.81,-16.47,3.25,0.0000,0.7760,1.1310,1.6310,2.3680,0,0.0000,0.0000,0.0000,0.0000,0.0000,0
14519,0.0084,-0.0558,0.3318,0.0029,0.0298,-0.0090,0.25,0.04,-0.09,0,3.616,4.734,0.547,0.849,0.008,-0.015,1.007,0.000,0.000,0.000,0.3310,0,0,-0.29,-0.14,0.08,-0.0381,0.0312,0.3325,0.2469,-0.0104,0.3000,0.2596,-5.42,-16.53,2.66,2.3460,0.7820,1.1310,1.6230,2.3680,0,0.0000,0.0000,0.0000,0.0000,0.0000,0
14570,0.0087,-0.0521,0.3311,0.0029,0.0317,-0.0079,0.47,0.07,-0.06,0,3.616,2.252,-0.124,0.675,0.008,-0.013,1.006,0.000,0.000,0.000,0.3300,0,1,-0.05,-0.17,0.13,-0.0378,0.0320,0.3320,0.2469,-0.0104,0.3000,0.2596,-5.08,-16.51,1.72,2.3460,0.7820,1.1310,1.6230,2.3680,0,0.0000,0.0000,0.0000,0.0000,0.0000,0
14621,0.0099,-0.0512,0.3303,0.0044,0.0265,-0.0073,0.63,0.14,-0.04,0,3.621,0.232,-1.015,0.584,0.002,-0.012,1.004,0.000,0.000,0.000,0.3290,0,0,0.07,-0.14,0.18,-0.0390,0.0321,0.3314,0.2469,-0.0104,0.3000,0.2597,-5.26,-16.37,1.11,2.3160,0.7800,1.1290,1.6010,2.3680,0,0.0000,0.0000,0.0000,0.0000,0.0000,0
14672,0.0097,-0.0511,0.3294,0.0027,0.0191,-0.0081,0.61,0.18,-0.02,0,3.611,-2.533,-0.458,-0.668,0.004,-0.010,1.005,0.000,0.000,0.000,0.3270,0,0,0.08,-0.09,0.21,-0.0389,0.0321,0.3307,0.2468,-0.0066,0.3000,0.2600,-5.86,-16.39,0.71,2.3160,0.7800,1.1290,1.6010,2.3680,0,0.0000,0.0000,0.0000,0.0000,0.0000,0
14723,0.0115,-0.0503,0.3279,0.0044,0.0139,-0.0100,0.50,0.16,-0.03,0,3.621,0.963,2.303,-0.763,0.006,-0.007,1.007,0.000,0.000,0.000,0.3300,0,0,-0.05,-0.07,0.18,-0.0386,0.0318,0.3296,0.2468,-0.0027,0.3000,0.2605,-6.31,-16.12,0.90,2.3760,0.7780,1.1280,1.5990,2.3730,0,0.0000,0.0000,0.0000,0.0000,0.0000,0
14775,0.0118,-0.0549,0.3285,0.0033,-0.0002,-0.0026,0.50,0.12,-0.05,0,3.616,-2.133,-0.931,-0.151,0.002,-0.015,1.001,0.000,0.000,0.000,0.3260,2,1,-0.00,-0.19,0.14,-0.0381,0.0314,0.3298,0.2466,0.0012,0.3000,0.2595,-7.58,-16.14,1.42,2.3760,0.7780,1.1280,1.5990,2.3730,0,0.0000,0.0000,0.0000,0.0000,0.0000,0
14826,0.0130,-0.0560,0.3272,0.0044,-0.0065,-0.0069,0.42,0.18,-0.05,0,3.621,-4.705,0.854,0.574,0.007,-0.013,1.006,0.000,0.000,0.000,0.3300,0,0,-0.09,-0.10,0.20,-0.0420,0.0281,0.3288,0.2464,0.0050,0.3000,0.2603,-8.20,-15.91,1.49,0.0000,0.7790,1.1300,1.6130,2.3680,0,0.0000,0.0000,0.0000,0.0000,0.0000,0
14877,0.0141,-0.0603,0.3283,0.0046,-0.0172,0.0014,0.20,0.16,-0.03,0,3.611,-5.562,-0.499,0.137,0.005,-0.011,1.003,0.000,0.000,0.000,0.3260,0,1,-0.33,-0.14,0.23,-0.0422,0.0264,0.3293,0.2461,0.0088,0.3000,0.2592,-9.30,-15.83,0.91,0.0000,0.7790,1.1300,1.6130,2.3680,0,0.0000,0.0000,0.0000,0.0000,0.0000,0
14928,0.0130,-0.0640,0.3272,0.0009,-0.0242,-0.0025,-0.05,0.17,-0.03,0,3.616,-3.800,0.439,-0.110,0.003,-0.015,1.001,0.000,0.000,0.000,0.3240,2,1,-0.63,-0.10,0.25,-0.0439,0.0265,0.3286,0.2458,0.0126,0.3000,0.2598,-10.12,-15.96,0.78,0.0000,0.7870,1.1360,1.6160,2.3740,0,0.0000,0.0000,0.0000,0.0000,0.0000,0
14979,0.0139,-0.0677,0.3256,0.0013,-0.0286,-0.0072,-0.23,0.15,-0.02,0,3.611,-3.692,0.622,0.086,0.004,-0.009,1.003,0.000,0.000,0.000,0.3260,1,0,-0.81,-0.11,0.26,-0.0453,0.0234,0.3273,0.2454,0.0164,0.3000,0.2606,-10.80,-15.77,0.55,0.0000,0.7870,1.1360,1.6160,2.3740,0,0.0000,0.0000,0.0000,0.0000,0.0000,0
15030,0.0117,-0.0738,0.3256,-0.0042,-0.0356,-0.0029,-0.39,0.12,-0.00,0,3.616,-3.430,-0.846,-0.089,0.008,-0.008,1.004,0.000,0.000,0.000,0.3260,0,0,-0.99,-0.15,0.26,-0.0456,0.0210,0.3269,0.2450,0.0202,0.3000,0.2601,-11.81,-16.10,0.13,2.3660,0.7820,1.1420,1.6320,2.3720,0,0.0000,0.0000,0.0000,0.0000,0.0000,0
15081,0.0120,-0.0765,0.3257,-0.0041,-0.0342,0.0003,-0.54,0.08,-0.00,0,3.616,-2.901,1.571,0.750,0.004,-0.012,1.002,0.000,0.000,0.000,0.3270,0,1,-1.17,-0.10,0.26,-0.0459,0.0193,0.3267,0.2445,0.0240,0.3000,0.2598,-12.19,-16.02,0.05,2.3660,0.7820,1.1420,1.6320,2.3720,0,0.0000,0.0000,0.0000,0.0000,0.0000,0
15132,0.0123,-0.0814,0.3264,-0.0037,-0.0361,0.0051,-0.63,-0.02,0.01,0,3.616,1.598,2.895,-0.091,0.006,-0.011,1.000,0.000,0.000,0.000,0.3290,0,-1,-1.34,-0.16,0.29,-0.0486,0.0203,0.3269,0.2439,0.0278,0.3000,0.2591,-12.90,-15.94,-0.41,2.3540,0.7860,1.1460,1.6380,2.3690,0,0.0000,0.0000,0.0000,0.0000,0.0000,0
15183,0.0088,-0.0829,0.3280,-0.0100,-0.0307,0.0111,-0.65,-0.07,0.01,0,3.611,-0.468,0.422,0.128,0.003,-0.013,0.999,0.000,0.000,0.000,0.3260,0,0,-1.26,-0.32,0.29,-0.0473,0.0201,0.3277,0.2433,0.0316,0.3000,0.2581,-13.05,-16.42,-0.41,2.3540,0.7860,1.1460,1.6380,2.3690,0,0.0000,0.0000,0.0000,0.0000,0.0000,0
15234,0.0105,-0.0867,0.3275,-0.0053,-0.0299,0.0056,-0.65,-0.06,0.01,0,3.616,-0.228,0.493,0.038,0.002,-0.008,0.998,0.000,0.000,0.000,0.3250,0,0,-1.28,-0.35,0.29,-0.0471,0.0198,0.3273,0.2427,0.0354,0.3000,0.2588,-13.48,-15.97,-0.24,2.3080,0.7900,1.1440,1.6290,2.3670,0,0.0000,0.0000,0.0000,0.0000,0.0000,0
15286,0.0100,-0.0893,0.3264,-0.0052,-0.0269,-0.0019,-0.67,-0.07,0.01,0,3.605,0.189,2.574,-0.114,0.010,-0.009,1.000,0.000,0.000,0.000,0.3200,1,0,-1.29,-0.37,0.30,-0.0467,0.0200,0.3267,0.2419,0.0392,0.3000,0.2598,-13.73,-15.84,-0.24,2.3080,0.7900,1.1440,1.6290,2.3670,0,0.0000,0.0000,0.0000,0.0000,0.0000,0
15338,0.0102,-0.0909,0.3231,-0.0039,-0.0221,-0.0156,-0.69,-0.10,0.01,0,3.611,0.800,0.465,0.503,0.007,-0.014,1.008,0.000,0.000,0.000,0.3240,2,0,-1.25,-0.49,0.29,-0.0485,0.0154,0.3246,0.2411,0.0430,0.3000,0.2620,-13.75,-15.55,-0.20,2.2830,0.7880,1.1470,1.6360,2.3720,0,0.0000,0.0000,0.0000,0.0000,0.0000,0
15389,0.0103,-0.0902,0.3229,-0.0026,-0.0125,-0.0107,-0.60,-0.06,0.02,0,3.605,1.543,1.570,0.216,0.006,-0.012,1.007,0.000,0.000,0.000,0.3210,-1,0,-1.18,-0.51,0.33,-0.0481,0.0124,0.3243,0.2403,0.0467,0.3000,0.2615,-13.54,-15.41,-0.68,2.2830,0.7880,1.1470,1.6360,2.3720,0,0.0000,0.0000,0.0000,0.0000,0.0000,0
15440,0.0100,-0.0911,0.3216,-0.0024,-0.0077,-0.0108,-0.53,-0.08,0.04,0,3.611,1.829,0.695,0.420,0.003,-0.012,1.007,0.000,0.000,0.000,0.3240,0,0,-1.12,-0.59,0.32,-0.0477,0.0136,0.3233,0.2394,0.0505,0.3000,0.2617,-13.61,-15.30,-1.15,2.3100,0.7840,1.1480,1.6270,2.3770,0,0.0000,0.0000,0.0000,0.0000,0.0000,0
15491,0.0099,-0.0891,0.3224,-0.0017,0.0015,-0.0015,-0.48,-0.09,0.06,0,3.611,2.777,-0.315,0.093,-0.000,-0.014,1.000,0.000,0.000,0.000,0.3240,-1,0,-1.03,-0.62,0.34,-0.0465,0.0135,0.3237,0.2384,0.0541,0.3000,0.2606,-13.35,-15.24,-1.68,2.3100,0.7840,1.1480,1.6270,2.3770,0,0.0000,0.0000,0.0000,0.0000,0.0000,0
15542,0.0098,-0.0879,0.3232,-0.0012,0.0075,0.0050,-0.37,-0.04,0.06,0,3.616,5.102,0.848,-0.539,0.006,-0.013,1.005,0.000,0.000,0.000,0.3270,0,0,-0.91,-0.58,0.30,-0.0478,0.0165,0.3240,0.2374,0.0578,0.3000,0.2597,-13.28,-15.16,-1.77,2.2370,0.7870,1.1440,1.6160,2.3790,0,0.0000,0.0000,0.0000,0.0000,0.0000,0
15593,0.0096,-0.0846,0.3254,-0.0011,0.0161,0.0152,-0.13,-0.07,0.04,0,3.611,5.279,1.211,-0.391,0.005,-0.012,0.998,0.000,0.000,0.000,0.3220,0,0,-0.65,-0.63,0.27,-0.0465,0.0173,0.3252,0.2363,0.0615,0.3000,0.2582,-12.98,-15.13,-1.24,2.2370,0.7870,1.1440,1.6160,2.3790,0,0.0000,0.0000,0.0000,0.0000,0.0000,0
15644,0.0110,-0.0829,0.3244,0.0023,0.0189,0.0069,0.11,-0.05,0.02,0,3.616,2.764,-2.050,-0.926,0.007,-0.008,0.997,0.000,0.000,0.000,0.3270,-1,0,-0.38,-0.69,0.25,-0.0448,0.0180,0.3246,0.2352,0.0652,0.3000,0.2593,-12.92,-14.71,-0.58,0.0000,0.7840,1.1420,1.6110,2.3720,0,0.0000,0.0000,0.0000,0.0000,0.0000,0
15695,0.0096,-0.0815,0.3260,-0.0005,0.0191,0.0113,0.20,-0.01,-0.01,0,3.611,-0.300,-5.185,-1.072,0.001,-0.016,0.995,0.000,0.000,0.000,0.3230,0,1,-0.25,-0.54,0.17,-0.0493,0.0199,0.3257,0.2340,0.0688,0.3000,0.2585,-13.09,-14.84,0.39,0.0000,0.7840,1.1420,1.6110,2.3720,0,0.0000,0.0000,0.0000,0.0000,0.0000,0
15746,0.0104,-0.0801,0.3250,0.0012,0.0182,0.0028,0.27,0.07,-0.05,0,3.611,1.177,-0.246,-1.115,0.008,-0.015,0.999,0.000,0.000,0.000,0.3240,0,0,-0.26,-0.26,0.12,-0.0501,0.0203,0.3250,0.2328,0.0724,0.3000,0.2596,-13.20,-14.53,1.46,2.2580,0.7860,1.1530,1.5940,2.3740,0,0.0000,0.0000,0.0000,0.0000,0.0000,0
15797,0.0103,-0.0784,0.3246,0.0006,0.0176,-0.0006,0.33,0.02,-0.12,0,3.605,-0.981,0.983,-1.477,0.009,-0.013,1.000,0.000,0.000,0.000,0.3240,0,0,-0.20,-0.25,0.06,-0.0492,0.0206,0.3247,0.2315,0.0760,0.3000,0.2600,-13.32,-14.41,3.61,2.2580,0.7860,1.1530,1.5940,2.3740,0,0.0000,0.0000,0.0000,0.0000,0.0000,0
15848,0.0103,-0.0776,0.3242,0.0004,0.0147,-0.0020,0.36,0.01,-0.19,0,3.611,0.173,-0.326,-1.132,0.002,-0.009,1.000,0.000,0.000,0.000,0.3240,0,0,-0.25,-0.30,-0.01,-0.0480,0.0207,0.3244,0.2301,0.0796,0.3000,0.2603,-13.61,-14.27,5.65,0.0000,0.7880,1.1520,1.5820,2.3750,0,0.0000,0.0000,0.0000,0.0000,0.0000,0
15899,0.0103,-0.0769,0.3240,0.0003,0.0116,-0.0025,0.35,-0.00,-0.25,0,3.605,-1.478,2.080,-0.363,0.004,-0.011,0.999,0.000,0.000,0.000,0.3220,0,-2,-0.25,-0.28,-0.07,-0.0465,0.0207,0.3242,0.2287,0.0832,0.3000,0.2603,-13.92,-14.13,7.42,0.0000,0.7880,1.1520,1.5820,2.3750,0,0.0000,0.0000,0.0000,0.0000,0.0000,0
15950,0.0106,-0.0794,0.3229,0.0008,0.0026,-0.0071,0.34,-0.02,-0.29,0,3.611,-2.296,0.035,-1.051,0.005,-0.009,1.000,0.000,0.000,0.000,0.3240,0,0,-0.33,-0.38,-0.09,-0.0451,0.0212,0.3234,0.2273,0.0867,0.3000,0.2611,-14.67,-13.91,8.55,2.3140,0.7790,1.1520,1.5880,2.3840,0,0.0000,0.0000,0.0000,0.0000,0.0000,0
16001,0.0119,-0.0832,0.3232,0.0030,-0.0081,-0.0038,0.30,0.04,-0.35,0,3.605,-5.452,-1.222,-0.510,0.008,-0.012,1.001,0.000,0.000,0.000,0.3200,0,0,-0.44,-0.38,-0.15,-0.0432,0.0211,0.3234,0.2257,0.0902,0.3000,0.2606,-15.63,-13.60,10.51,2.3140,0.7790,1.1520,1.5880,2.3840,0,0.0000,0.0000,0.0000,0.0000,0.0000,0
16053,0.0135,-0.0845,0.3214,0.0057,-0.0121,-0.0089,0.10,0.04,-0.38,0,3.611,-2.126,-0.756,-0.525,0.005,-0.009,1.009,0.000,0.000,0.000,0.3210,1,0,-0.72,-0.32,-0.17,-0.0409,0.0209,0.3222,0.2242,0.0938,0.3000,0.2615,-16.05,-13.17,11.51,0.0000,0.7870,1.1450,1.5760,2.3850,0,0.0000,0.0000,0.0000,0.0000,0.0000,0
16104,0.0132,-0.0881,0.3209,0.0041,-0.0187,-0.0067,-0.03,0.09,-0.42,0,3.600,-1.973,-1.407,-0.739,0.005,-0.011,1.008,0.000,0.000,0.000,0.3170,1,0,-0.81,-0.23,-0.16,-0.0442,0.0187,0.3220,0.2225,0.0972,0.3000,0.2614,-16.79,-13.12,12.49,0.0000,0.7870,1.1450,1.5760,2.3850,0,0.0000,0.0000,0.0000,0.0000,0.0000,0
16155,0.0163,-0.0890,0.3187,0.0091,-0.0181,-0.0121,-0.17,0.08,-0.43,0,3.605,-3.718,-0.569,-0.913,0.008,-0.011,1.006,0.000,0.000,0.000,0.3180,0,0,-0.91,-0.15,-0.19,-0.0434,0.0172,0.3205,0.2209,0.1006,0.3000,0.2624,-16.97,-12.49,13.05,2.3120,0.7840,1.1490,1.5950,2.3820,0,0.0000,0.0000,0.0000,0.0000,0.0000,0
16206,0.0156,-0.0926,0.3179,0.0061,-0.0218,-0.0100,-0.31,0.12,-0.48,0,3.600,-1.920,-0.804,0.029,0.005,-0.014,1.009,0.000,0.000,0.000,0.3170,0,0,-1.10,-0.12,-0.23,-0.0419,0.0165,0.3198,0.2191,0.1041,0.3000,0.2623,-17.56,-12.51,14.39,2.3120,0.7840,1.1490,1.5950,2.3820,0,0.0000,0.0000,0.0000,0.0000,0.0000,0
16257,0.0156,-0.0958,0.3171,0.0044,-0.0231,-0.0075,-0.39,0.15,-0.48,0,3.611,-0.989,1.246,-0.561,0.007,-0.013,1.007,0.000,0.000,0.000,0.3190,0,0,-1.19,-0.08,-0.23,-0.0403,0.0159,0.3191,0.2174,0.1074,0.3000,0.2622,-18.02,-12.44,14.48,0.0000,0.7870,1.1530,1.6060,2.3850,0,0.0000,0.0000,0.0000,0.0000,0.0000,0
16308,0.0157,-0.0978,0.3178,0.0032,-0.0215,0.0010,-0.44,0.08,-0.49,0,3.605,-0.489,0.448,-0.715,0.005,-0.011,1.007,0.000,0.000,0.000,0.3200,1,0,-1.25,-0.15,-0.26,-0.0385,0.0156,0.3193,0.2155,0.1108,0.3000,0.2611,-18.35,-12.36,14.78,0.0000,0.7870,1.1530,1.6060,2.3850,0,0.0000,0.0000,0.0000,0.0000,0.0000,0
16359,0.0159,-0.0997,0.3191,0.0026,-0.0194,0.0098,-0.47,0.05,-0.52,0,3.611,-1.738,1.141,0.054,0.003,-0.011,1.003,0.000,0.000,0.000,0.3200,0,0,-1.25,-0.11,-0.32,-0.0436,0.0130,0.3201,0.2137,0.1142,0.3000,0.2599,-18.65,-12.26,15.58,2.3400,0.7860,1.1620,1.5960,2.3920,0,0.0000,0.0000,0.0000,0.0000,0.0000,0
16410,0.0160,-0.1005,0.3200,0.0021,-0.0151,0.0126,-0.47,0.06,-0.53,0,3.605,1.843,2.192,0.625,0.008,-0.013,1.000,0.000,0.000,0.000,0.3200,0,0,-1.34,-0.17,-0.32,-0.0430,0.0127,0.3206,0.2117,0.1175,0.3000,0.2595,-18.73,-12.12,15.80,2.3400,0.7860,1.1620,1.5960,2.3920,0,0.0000,0.0000,0.0000,0.0000,0.0000,0
16461,0.0158,-0.0994,0.3206,0.0010,-0.0078,0.0120,-0.43,0.09,-0.51,0,3.605,2.669,1.973,0.140,0.008,-0.010,0.996,0.000,0.000,0.000,0.3170,0,0,-1.25,-0.28,-0.29,-0.0422,0.0126,0.3209,0.2097,0.1207,0.3000,0.2594,-18.54,-12.02,15.20,0.0000,0.7900,1.1550,1.6030,2.3900,0,0.0000,0.0000,0.0000,0.0000,0.0000,0
16512,0.0158,-0.0986,0.3193,0.0005,-0.0022,0.0022,-0.30,0.08,-0.51,0,3.600,3.542,-1.248,-0.008,0.003,-0.013,0.999,0.000,0.000,0.000,0.3140,-2,0,-1.11,-0.38,-0.29,-0.0410,0.0127,0.3201,0.2077,0.1240,0.3000,0.2607,-18.34,-11.80,15.32,0.0000,0.7900,1.1550,1.6030,2.3900,0,0.0000,0.0000,0.0000,0.0000,0.0000,0
16563,0.0158,-0.0986,0.3167,-0.0002,0.0001,-0.0095,-0.20,0.13,-0.51,0,3.605,1.585,3.269,0.469,0.007,-0.011,1.005,0.000,0.000,0.000,0.3150,-1,0,-0.96,-0.28,-0.34,-0.0439,0.0167,0.3184,0.2056,0.1272,0.3000,0.2625,-18.31,-11.57,15.21,2.3000,0.7890,1.1570,1.5980,2.3860,0,0.0000,0.0000,0.0000,0.0000,0.0000,0
16614,0.0164,-0.0958,0.3155,0.0000,0.0066,-0.0099,-0.09,0.05,-0.48,0,3.595,2.048,1.401,1.143,0.003,-0.009,1.009,0.000,0.000,0.000,0.3160,-1,0,-0.88,-0.45,-0.32,-0.0435,0.0186,0.3174,0.2035,0.1304,0.3000,0.2627,-18.02,-11.33,14.44,2.3000,0.7890,1.1570,1.5980,2.3860,0,0.0000,0.0000,0.0000,0.0000,0.0000,0
16665,0.0166,-0.0957,0.3154,0.0000,0.0067,-0.0039,0.02,0.04,-0.42,0,3.605,2.858,2.758,2.436,0.005,-0.014,1.012,0.000,0.000,0.000,0.3170,-1,0,-0.78,-0.52,-0.27,-0.0428,0.0207,0.3171,0.2013,0.1335,0.3000,0.2621,-18.22,-11.15,12.75,0.0000,0.7880,1.1640,1.5850,2.3850,0,0.0000,0.0000,0.0000,0.0000,0.0000,0
16716,0.0164,-0.0931,0.3161,-0.0009,0.0105,0.0048,0.19,0.05,-0.34,0,3.600,5.852,3.389,2.399,0.002,-0.015,1.009,0.000,0.000,0.000,0.3160,-1,0,-0.64,-0.66,-0.15,-0.0421,0.0231,0.3175,0.1991,0.1366,0.3000,0.2610,-18.13,-11.06,10.20,0.0000,0.7880,1.1640,1.5850,2.3850,0,0.0000,0.0000,0.0000,0.0000,0.0000,0
16766,0.0164,-0.0913,0.3164,-0.0011,0.0107,0.0080,0.46,-0.02,-0.22,0,3.605,5.151,-1.151,2.742,0.002,-0.016,1.005,0.000,0.000,0.000,0.3170,0,0,-0.35,-0.82,-0.04,-0.0414,0.0256,0.3176,0.1969,0.1397,0.3000,0.2606,-18.21,-10.89,6.61,2.2610,0.7860,1.1520,1.5760,2.3850,0,0.0000,0.0000,0.0000,0.0000,0.0000,0
16818,0.0166,-0.0890,0.3171,-0.0007,0.0098,0.0118,0.69,0.06,-0.06,0,3.605,-1.649,1.441,3.142,0.007,-0.016,1.005,0.000,0.000,0.000,0.3200,1,0,-0.09,-0.77,0.10,-0.0398,0.0274,0.3181,0.1945,0.1428,0.3000,0.2601,-18.30,-10.69,1.88,2.2610,0.7860,1.1520,1.5760,2.3850,0,0.0000,0.0000,0.0000,0.0000,0.0000,0
16870,0.0178,-0.0890,0.3192,0.0011,0.0033,0.0209,0.66,0.06,0.10,0,3.605,-3.169,-2.402,2.376,0.004,-0.014,1.005,0.000,0.000,0.000,0.3150,0,0,-0.13,-0.81,0.32,-0.0416,0.0233,0.3197,0.1921,0.1458,0.3000,0.2587,-18.84,-10.37,-2.93,2.2510,0.7830,1.1550,1.5790,2.3830,0,0.0000,0.0000,0.0000,0.0000,0.0000,0
16921,0.0177,-0.0919,0.3180,0.0003,-0.0077,0.0128,0.63,0.11,0.21,0,3.600,-2.222,0.693,2.005,0.002,-0.013,1.005,0.000,0.000,0.000,0.3160,0,0,-0.29,-0.68,0.45,-0.0400,0.0230,0.3193,0.1897,0.1488,0.3000,0.2598,-19.58,-10.17,-6.26,2.2510,0.7830,1.1550,1.5790,2.3830,0,0.0000,0.0000,0.0000,0.0000,0.0000,0
16973,0.0188,-0.0959,0.3176,0.0014,-0.0195,0.0092,0.54,0.19,0.30,0,3.605,-13.950,23.031,3.589,-0.001,-0.018,0.999,0.000,0.000,0.000,0.3160,1,5,-0.40,-0.72,0.55,-0.0379,0.0226,0.3192,0.1872,0.1517,0.3000,0.2603,-20.45,-9.81,-8.95,2.2280,0.7770,1.1510,1.5900,2.3850,0,0.0000,0.0000,0.0000,0.0000,0.0000,0
17024,0.0220,-0.0992,0.3173,0.0063,-0.0281,0.0065,0.00,-0.77,0.45,0,3.600,-42.659,88.770,2.738,0.004,-0.009,0.998,0.000,0.000,0.000,0.3200,3,5,-1.11,-1.75,0.84,-0.0593,0.0209,0.3199,0.1847,0.1547,0.3000,0.2606,-21.14,-9.14,-13.64,2.2280,0.7770,1.1510,1.5900,2.3850,0,0.0000,0.0000,0.0000,0.0000,0.0000,0
17076,0.0186,-0.1011,0.3190,0.0121,-0.0262,0.0123,-1.88,-4.86,0.53,0,3.605,-22.250,49.440,3.791,0.007,-0.014,1.005,0.000,0.000,0.000,0.3160,2,3,-3.26,-6.24,0.88,-0.0668,0.0166,0.3212,0.1821,0.1576,0.3000,0.2597,-21.40,-8.92,-15.98,0.0000,0.7830,1.1660,1.6580,2.3870,0,0.0000,0.0000,0.0000,0.0000,0.0000,0
17127,0.0171,-0.1022,0.3181,0.0546,-0.0068,0.0057,-3.13,-7.72,0.59,0,3.595,-4.862,-0.851,3.700,-0.000,-0.016,1.000,0.000,0.000,0.000,0.3120,0,-1,-4.38,-8.78,0.99,-0.0715,0.0134,0.3211,0.1795,0.1604,0.3000,0.2606,-20.74,-6.80,-17.63,0.0000,0.7830,1.1660,1.6580,2.3870,0,0.0000,0.0000,0.0000,0.0000,0.0000,0
17178,0.0179,-0.1027,0.3152,0.1143,0.0199,-0.0108,-3.41,-7.95,0.77,0,3.600,-3.651,4.597,4.098,-0.001,-0.013,1.007,0.000,0.000,0.000,0.3170,-1,-1,-4.59,-8.76,1.21,-0.0688,0.0137,0.3186,0.1768,0.1632,0.3000,0.2629,-19.64,-3.68,-23.00,1.1370,0.6970,1.1760,1.6990,2.4170,0,0.0000,0.0000,0.0000,0.0000,0.0000,0
17230,0.0234,-0.1026,0.3156,0.1683,0.0418,-0.0091,-3.62,-8.09,0.96,0,3.595,-0.431,-6.268,3.621,-0.009,-0.020,1.006,0.000,0.000,0.000,0.3160,-2,-5,-4.77,-8.98,1.26,-0.0642,0.0164,0.3183,0.1741,0.1659,0.3000,0.2626,-18.88,-0.53,-28.69,1.1370,0.6970,1.1760,1.6990,2.4170,0,0.0000,0.0000,0.0000,0.0000,0.0000,0
17281,0.0316,-0.1004,0.3153,0.2331,0.0726,-0.0105,-3.56,-7.93,1.17,0,3.600,8.674,-24.908,3.958,-0.007,-0.021,1.004,0.000,0.000,0.000,0.3190,0,-4,-4.78,-8.70,1.47,-0.0506,0.0223,0.3162,0.1714,0.1686,0.3000,0.2628,-17.55,3.33,-34.97,1.1080,0.4760,1.1690,1.7130,2.4140,0,0.0000,0.0000,0.0000,0.0000,0.0000,0
17332,0.0459,-0.0941,0.3165,0.3018,0.1085,-0.0068,-3.11,-6.77,1.45,0,3.600,13.335,-34.124,4.802,-0.010,-0.016,0.998,0.000,0.000,0.000,0.3190,-3,-11,-4.21,-7.47,2.16,-0.0374,0.0252,0.3170,0.1687,0.1713,0.3000,0.2622,-15.77,7.77,-43.39,1.1080,0.4760,1.1690,1.7130,2.4140,0,0.0000,0.0000,0.0000,0.0000,0.0000,0
17383,0.0620,-0.0894,0.3174,0.3578,0.1337,-0.0035,-2.56,-5.16,1.79,0,3.600,11.686,-38.646,6.836,-0.006,-0.025,0.999,0.000,0.000,0.000,0.3170,-2,-5,-3.47,-5.86,2.86,-0.0073,0.0359,0.3139,0.1659,0.1739,0.3000,0.2617,-14.52,11.70,-53.79,1.1130,0.0000,1.1610,1.7240,2.4060,0,0.0000,0.0000,0.0000,0.0000,0.0000,0
17434,0.0833,-0.0833,0.3170,0.4061,0.1544,-0.0073,-1.89,-3.22,2.18,0,3.600,10.766,-37.987,5.664,-0.008,-0.017,1.002,0.000,0.000,0.000,0.3210,0,-10,-2.84,-3.87,3.16,0.0098,0.0433,0.3150,0.1630,0.1764,0.3000,0.2622,-13.30,15.48,-65.53,1.1130,0.0000,1.1610,1.7240,2.4060,0,0.0000,0.0000,0.0000,0.0000,0.0000,0
17485,0.1035,-0.0775,0.3187,0.4311,0.1663,0.0035,-1.35,-1.25,2.57,0,3.605,8.671,-37.194,3.094,-0.011,-0.019,0.998,0.000,0.000,0.000,0.3170,-3,-14,-2.20,-2.02,4.37,0.0397,0.0489,0.3152,0.1601,0.1790,0.3000,0.2607,-12.57,18.18,-77.18,1.2240,0.0000,1.1350,1.7250,2.3840,0,0.0000,0.0000,0.0000,0.0000,0.0000,0
17536,0.1271,-0.0700,0.3181,0.4355,0.1738,-0.0011,-0.84,0.59,2.78,0,3.600,8.007,-35.712,-0.574,-0.011,-0.014,1.000,0.000,0.000,0.000,0.3190,-1,-8,-1.76,-0.24,4.97,0.0804,0.0623,0.3119,0.1572,0.1815,0.3000,0.2613,-11.83,20.04,-83.38,1.2240,0.0000,1.1350,1.7250,2.3840,0,0.0000,0.0000,0.0000,0.0000,0.0000,0
17588,0.1438,-0.0629,0.3185,0.4266,0.1787,0.0019,-0.32,2.34,2.77,0,3.600,4.917,-25.792,-2.790,-0.010,-0.019,1.007,0.000,0.000,0.000,0.3110,-4,-9,-1.33,1.59,5.13,0.1067,0.0692,0.3137,0.1542,0.1839,0.3000,0.2609,-11.27,20.96,-83.23,0.0000,0.0000,1.1070,1.7350,2.3910,0,0.0000,0.0000,0.0000,0.0000,0.0000,0
17639,0.1623,-0.0558,0.3151,0.4017,0.1765,-0.0137,0.02,3.71,2.61,0,3.600,8.965,-15.867,-5.658,-0.004,-0.020,1.004,0.000,0.000,0.000,0.3200,0,-2,-1.09,2.93,4.83,0.1331,0.0829,0.3119,0.1512,0.1863,0.3000,0.2632,-10.91,21.12,-78.38,0.0000,0.0000,1.1070,1.7350,2.3910,0,0.0000,0.0000,0.0000,0.0000,0.0000,0
17690,0.1813,-0.0478,0.3171,0.3684,0.1726,0.0009,0.58,4.59,2.36,0,3.600,6.058,-8.490,-6.515,-0.007,-0.017,1.005,0.000,0.000,0.000,0.3140,-5,-3,-0.56,3.86,4.38,0.1420,0.0838,0.3163,0.1482,0.1886,0.3000,0.2613,-10.74,21.28,-70.71,2.2360,0.2380,1.0880,1.7520,2.3910,0,0.0000,0.0000,0.0000,0.0000,0.0000,0
17741,0.1965,-0.0438,0.3157,0.3239,0.1544,-0.0043,0.97,5.04,2.03,0,3.595,3.023,-2.455,-6.789,-0.003,-0.016,1.010,0.000,0.000,0.000,0.3170,-3,-6,-0.26,4.36,3.84,0.1508,0.0989,0.3162,0.1451,0.1910,0.3000,0.2621,-11.38,20.54,-60.84,2.2360,0.2380,1.0880,1.7520,2.3910,0,0.0000,0.0000,0.0000,0.0000,0.0000,0
17793,0.2082,-0.0383,0.3162,0.2719,0.1392,-0.0011,1.20,5.20,1.69,0,3.600,3.134,2.094,-6.549,-0.005,-0.018,1.002,0.000,0.000,0.000,0.3180,1,-1,-0.09,4.47,3.52,0.1695,0.1099,0.3165,0.1420,0.1932,0.3000,0.2616,-11.83,19.35,-50.67,2.6430,0.0000,1.0560,1.7600,2.4000,0,0.0000,0.0000,0.0000,0.0000,0.0000,0
17844,0.2205,-0.0312,0.3170,0.2268,0.1283,0.0029,1.37,5.13,1.36,0,3.595,1.506,6.834,-6.530,-0.003,-0.017,1.005,0.000,0.000,0.000,0.3140,0,-1,0.19,4.42,2.92,0.1731,0.1054,0.3182,0.1388,0.1954,0.3000,0.2610,-11.98,18.50,-40.75,2.6430,0.0000,1.0560,1.7600,2.4000,0,0.0000,0.0000,0.0000,0.0000,0.0000,0
17896,0.2288,-0.0265,0.3157,0.1777,0.1119,-0.0041,1.43,4.84,1.04,0,3.595,-1.619,13.050,-6.000,-0.002,-0.013,1.002,0.000,0.000,0.000,0.3120,-9,-3,0.34,4.11,2.42,0.1763,0.1045,0.3176,0.1356,0.1976,0.3000,0.2621,-12.46,17.09,-31.17,0.0000,0.0000,1.0320,1.7670,2.4030,0,0.0000,0.0000,0.0000,0.0000,0.0000,0
17947,0.2368,-0.0243,0.3137,0.1370,0.0907,-0.0123,1.34,4.16,0.76,0,3.589,-3.881,14.209,-6.212,-0.006,-0.010,1.004,0.000,0.000,0.000,0.3110,0,0,0.07,3.44,2.89,0.1828,0.1381,0.3159,0.1324,0.1997,0.3000,0.2633,-13.30,16.01,-22.72,0.0000,0.0000,1.0320,1.7670,2.4030,0,0.0000,0.0000,0.0000,0.0000,0.0000,0
17998,0.2431,-0.0146,0.3118,0.1008,0.0928,-0.0178,1.19,3.53,0.44,0,3.589,0.454,8.813,-6.702,-0.000,-0.013,1.016,0.000,0.000,0.000,0.3020,-3,0,-0.11,2.71,2.57,0.1882,0.1466,0.3144,0.1292,0.2018,0.3000,0.2643,-12.61,15.03,-13.24,0.0000,0.1760,1.0110,1.7790,2.3940,0,0.0000,0.0000,0.0000,0.0000,0.0000,0
18049,0.2476,-0.0090,0.3063,0.0703,0.0854,-0.0347,1.21,3.02,0.16,0,3.584,3.169,11.038,-5.209,0.000,-0.010,1.017,0.000,0.000,0.000,0.3040,0,0,0.00,2.34,1.93,0.1790,0.1416,0.3115,0.1259,0.2038,0.3000,0.2671,-12.52,14.08,-4.80,0.0000,0.1760,1.0110,1.7790,2.3940,0,0.0000,0.0000,0.0000,0.0000,0.0000,0
18100,0.2482,-0.0018,0.3039,0.0374,0.0834,-0.0310,1.33,2.48,-0.07,0,3.584,10.975,13.028,-3.261,0.006,-0.011,1.024,0.000,0.000,0.000,0.2990,1,2,0.17,1.78,1.66,0.1799,0.1473,0.3094,0.1227,0.2057,0.3000,0.2672,-12.23,12.92,2.08,1.8060,0.1780,1.0060,1.7800,2.4070,0,0.0000,0.0000,0.0000,0.0000,0.0000,0
18151,0.2491,0.0006,0.3003,0.0140,0.0672,-0.0319,1.76,1.88,-0.26,0,3.584,1.049,14.744,-2.460,0.007,-0.012,1.023,0.000,0.000,0.000,0.2990,0,2,0.86,1.15,0.95,0.1731,0.1314,0.3069,0.1193,0.2076,0.3000,0.2679,-12.83,12.16,7.83,1.8060,0.1780,1.0060,1.7800,2.4070,0,0.0000,0.0000,0.0000,0.0000,0.0000,0
18203,0.2485,0.0043,0.2987,-0.0048,0.0540,-0.0216,1.84,1.21,-0.36,0,3.589,-3.370,8.286,-1.133,0.002,-0.013,1.024,0.000,0.000,0.000,0.3000,0,1,0.93,0.42,0.83,0.1685,0.1316,0.3051,0.1159,0.2095,0.3000,0.2672,-13.28,11.57,10.71,0.0000,0.1830,0.9920,1.7790,2.4090,0,0.0000,0.0000,0.0000,0.0000,0.0000,0
18254,0.2463,0.0078,0.2986,-0.0203,0.0420,-0.0062,1.64,0.70,-0.43,0,3.589,-3.062,8.714,-2.241,0.003,-0.013,1.029,0.000,0.000,0.000,0.2990,2,3,0.75,-0.01,0.78,0.1658,0.1315,0.3045,0.1125,0.2113,0.3000,0.2655,-13.73,11.05,13.00,0.0000,0.1830,0.9920,1.7790,2.4090,0,0.0000,0.0000,0.0000,0.0000,0.0000,0
18306,0.2443,0.0106,0.2989,-0.0288,0.0308,0.0077,1.54,0.26,-0.53,0,3.589,-1.825,10.953,-2.276,0.007,-0.009,1.019,0.000,0.000,0.000,0.2990,2,1,0.63,-0.42,0.65,0.1584,0.1265,0.3041,0.1091,0.2131,0.3000,0.2639,-14.20,10.85,15.84,1.1380,0.1770,0.9890,1.7860,2.4020,0,0.0000,0.0000,0.0000,0.0000,0.0000,0
18357,0.2425,0.0104,0.2996,-0.0317,0.0138,0.0192,1.48,-0.28,-0.64,0,3.589,-2.750,8.840,-1.604,0.003,-0.010,1.010,0.000,0.000,0.000,0.3000,0,2,0.56,-0.99,0.47,0.1558,0.1208,0.3042,0.1056,0.2148,0.3000,0.2626,-15.10,10.91,19.12,1.1380,0.1770,0.9890,1.7860,2.4020,0,0.0000,0.0000,0.0000,0.0000,0.0000,0
18408,0.2408,0.0111,0.3007,-0.0301,0.0020,0.0266,1.33,-0.74,-0.69,0,3.589,-3.273,6.523,-1.557,0.003,-0.011,1.008,0.000,0.000,0.000,0.3020,0,1,0.40,-1.42,0.48,0.1502,0.1208,0.3048,0.1022,0.2164,0.3000,0.2616,-15.69,11.17,20.72,0.0000,0.1960,0.9870,1.7840,2.4060,0,0.0000,0.0000,0.0000,0.0000,0.0000,0
18459,0.2399,0.0114,0.3027,-0.0222,-0.0084,0.0334,1.17,-1.06,-0.76,0,3.595,-1.800,2.579,-0.549,0.008,-0.009,1.001,0.000,0.000,0.000,0.3010,0,0,0.21,-1.75,0.43,0.1473,0.1206,0.3058,0.0987,0.2180,0.3000,0.2605,-16.25,11.77,22.78,0.0000,0.1960,0.9870,1.7840,2.4060,0,0.0000,0.0000,0.0000,0.0000,0.0000,0
18511,0.2386,0.0114,0.3032,-0.0145,-0.0170,0.0290,1.08,-1.23,-0.81,0,3.595,-2.139,3.139,-1.396,-0.000,-0.010,0.990,0.000,0.000,0.000,0.3070,3,0,0.12,-1.88,0.41,0.1459,0.1178,0.3061,0.0951,0.2195,0.3000,0.2608,-16.66,12.28,24.30,0.0000,0.1870,0.9830,1.7810,2.3970,0,0.0000,0.0000,0.0000,0.0000,0.0000,0
18562,0.2385,0.0095,0.3063,-0.0030,-0.0287,0.0347,0.98,-1.33,-0.89,0,3.595,-6.388,-3.053,-1.137,0.001,-0.010,0.990,0.000,0.000,0.000,0.3100,-1,-1,0.03,-2.05,0.31,0.1472,0.1106,0.3075,0.0916,0.2210,0.3000,0.2596,-17.42,13.11,26.56,0.0000,0.1870,0.9830,1.7810,2.3970,0,0.0000,0.0000,0.0000,0.0000,0.0000,0
18613,0.2381,0.0069,0.3095,0.0066,-0.0394,0.0370,0.65,-1.21,-0.96,0,3.595,-3.405,-3.252,-0.083,-0.003,-0.004,0.989,0.000,0.000,0.000,0.3080,2,-2,-0.33,-1.91,0.19,0.1496,0.1111,0.3095,0.0880,0.2224,0.3000,0.2588,-18.15,13.82,28.67,1.0760,0.1970,0.9900,1.7800,2.4010,0,0.0000,0.0000,0.0000,0.0000,0.0000,0
18664,0.2401,0.0054,0.3103,0.0206,-0.0441,0.0281,0.43,-0.93,-1.00,0,3.589,-3.047,-8.460,0.247,-0.000,-0.009,0.989,0.000,0.000,0.000,0.3090,-3,-3,-0.49,-1.77,0.16,0.1548,0.1057,0.3097,0.0845,0.2238,0.3000,0.2596,-18.45,14.80,29.91,1.0760,0.1970,0.9900,1.7800,2.4010,0,0.0000,0.0000,0.0000,0.0000,0.0000,0
18715,0.2419,0.0042,0.3106,0.0300,-0.0444,0.0183,0.22,-0.58,-1.00,0,3.595,-1.886,-6.356,1.230,-0.004,-0.007,0.993,0.000,0.000,0.000,0.3070,-1,0,-0.71,-1.37,0.01,0.1631,0.1113,0.3099,0.0809,0.2251,0.3000,0.2606,-18.51,15.54,29.87,1.1140,0.1940,0.9950,1.7890,2.3900,0,0.0000,0.0000,0.0000,0.0000,0.0000,0
18766,0.2455,0.0021,0.3096,0.0402,-0.0462,0.0064,0.04,-0.22,-0.93,0,3.595,-1.763,-9.132,2.516,-0.002,-0.009,0.993,0.000,0.000,0.000,0.3140,0,-2,-0.83,-1.02,0.07,0.1639,0.1137,0.3095,0.0773,0.2264,0.3000,0.2621,-18.66,16.39,27.80,1.1140,0.1940,0.9950,1.7890,2.3900,0,0.0000,0.0000,0.0000,0.0000,0.0000,0
18817,0.2478,0.0007,0.3120,0.0428,-0.0445,0.0136,-0.09,0.18,-0.80,0,3.589,-2.702,-7.014,3.836,-0.003,-0.011,0.992,0.000,0.000,0.000,0.3130,2,0,-0.92,-0.57,0.19,0.1699,0.1135,0.3108,0.0736,0.2276,0.3000,0.2608,-18.79,16.98,23.98,0.0000,0.1920,0.9980,1.7810,2.3910,0,0.0000,0.0000,0.0000,0.0000,0.0000,0
18868,0.2520,-0.0001,0.3130,0.0470,-0.0396,0.0121,-0.23,0.51,-0.60,0,3.589,-0.347,-2.419,4.725,-0.003,-0.008,0.990,0.000,0.000,0.000,0.3130,0,-1,-1.03,-0.19,0.46,0.1705,0.1084,0.3117,0.0700,0.2287,0.3000,0.2608,-18.67,17.69,18.11,0.0000,0.1920,0.9980,1.7810,2.3910,0,0.0000,0.0000,0.0000,0.0000,0.0000,0
18919,0.2540,-0.0022,0.3134,0.0420,-0.0379,0.0076,-0.30,0.70,-0.37,0,3.595,-4.014,-10.190,4.925,0.004,-0.011,0.996,0.000,0.000,0.000,0.3130,2,-2,-1.05,-0.06,0.70,0.1737,0.1083,0.3119,0.0663,0.2298,0.3000,0.2612,-18.73,17.83,11.22,0.0000,0.1740,0.9950,1.7660,2.3870,0,0.0000,0.0000,0.0000,0.0000,0.0000,0
18970,0.2573,-0.0024,0.3135,0.0397,-0.0307,0.0038,-0.44,1.06,-0.15,0,3.589,-0.734,-7.728,2.175,0.004,-0.011,0.997,0.000,0.000,0.000,0.3120,-2,-1,-1.23,0.44,0.98,0.1799,0.1026,0.3120,0.0626,0.2308,0.3000,0.2616,-18.42,18.17,4.50,0.0000,0.1740,0.9950,1.7660,2.3870,0,0.0000,0.0000,0.0000,0.0000,0.0000,0
19021,0.2602,-0.0035,0.3128,0.0340,-0.0258,-0.0012,-0.56,1.31,-0.03,0,3.589,2.732,-1.165,1.128,0.001,-0.010,1.002,0.000,0.000,0.000,0.3070,2,-1,-1.31,0.84,1.09,0.1830,0.1084,0.3118,0.0589,0.2318,0.3000,0.2623,-18.26,18.32,0.92,1.3190,0.1730,1.0030,1.7340,2.3870,0,0.0000,0.0000,0.0000,0.0000,0.0000,0
19072,0.2624,-0.0043,0.3099,0.0249,-0.0203,-0.0143,-0.45,1.37,0.01,0,3.584,1.752,-4.178,0.455,0.003,-0.011,1.001,0.000,0.000,0.000,0.3100,1,0,-1.13,0.90,1.14,0.1861,0.1024,0.3102,0.0552,0.2327,0.3000,0.2642,-17.97,18.19,-0.28,1.3190,0.1730,1.0030,1.7340,2.3870,0,0.0000,0.0000,0.0000,0.0000,0.0000,0
19123,0.2648,-0.0057,0.3094,0.0173,-0.0177,-0.0124,-0.38,1.44,0.02,0,3.584,-0.810,-2.607,-0.134,0.003,-0.013,1.009,0.000,0.000,0.000,0.3080,1,0,-1.03,1.13,1.15,0.1863,0.0993,0.3098,0.0515,0.2336,0.3000,0.2641,-17.97,18.28,-0.54,0.0000,0.1690,1.0010,1.7520,2.3950,0,0.0000,0.0000,0.0000,0.0000,0.0000,0
19175,0.2668,-0.0054,0.3082,0.0089,-0.0113,-0.0120,-0.42,1.55,0.02,0,3.584,3.587,0.506,-1.295,0.006,-0.009,1.013,0.000,0.000,0.000,0.3070,0,0,-1.06,1.28,1.13,0.1864,0.0961,0.3091,0.0477,0.2344,0.3000,0.2643,-17.67,18.29,-0.66,0.0000,0.1690,1.0010,1.7520,2.3950,0,0.0000,0.0000,0.0000,0.0000,0.0000,0
19226,0.2666,-0.0066,0.3072,-0.0053,-0.0094,-0.0094,-0.26,1.52,-0.03,0,3.584,3.714,2.974,-0.786,0.001,-0.010,1.016,0.000,0.000,0.000,0.3060,0,2,-0.87,1.25,1.06,0.1879,0.0950,0.3085,0.0439,0.2352,0.3000,0.2642,-17.67,17.93,0.79,0.0000,0.1730,1.0060,1.7200,2.3920,0,0.0000,0.0000,0.0000,0.0000,0.0000,0
19277,0.2669,-0.0050,0.3064,-0.0164,-0.0017,-0.0053,-0.15,1.34,-0.07,0,3.584,3.026,4.311,-0.565,0.005,-0.009,1.017,0.000,0.000,0.000,0.3100,-3,0,-0.70,1.17,1.04,0.1771,0.0968,0.3081,0.0401,0.2359,0.3000,0.2639,-17.25,17.74,2.09,0.0000,0.1730,1.0060,1.7200,2.3920,0,0.0000,0.0000,0.0000,0.0000,0.0000,0
19328,0.2640,-0.0093,0.3081,-0.0325,-0.0117,0.0110,-0.00,1.12,-0.08,0,3.589,4.397,6.723,0.852,0.007,-0.008,1.011,0.000,0.000,0.000,0.3060,0,1,-0.59,0.94,1.11,0.1763,0.1043,0.3095,0.0363,0.2365,0.3000,0.2618,-18.09,17.26,2.48,0.0000,0.1700,1.0060,1.7390,2.3980,0,0.0000,0.0000,0.0000,0.0000,0.0000,0
19380,0.2639,-0.0070,0.3078,-0.0375,-0.0049,0.0124,0.09,0.80,-0.05,0,3.584,-2.012,4.147,1.128,0.004,-0.013,1.009,0.000,0.000,0.000,0.3070,0,1,-0.36,0.61,1.14,0.1735,0.1044,0.3095,0.0326,0.2371,0.3000,0.2618,-17.64,17.29,1.43,0.0000,0.1700,1.0060,1.7390,2.3980,0,0.0000,0.0000,0.0000,0.0000,0.0000,0
19431,0.2615,-0.0058,0.3081,-0.0454,-0.0020,0.0154,0.10,0.58,0.02,0,3.589,-2.592,3.530,3.459,0.006,-0.015,1.009,0.000,0.000,0.000,0.3100,2,0,-0.46,0.40,1.19,0.1707,0.1044,0.3099,0.0288,0.2376,0.3000,0.2614,-17.45,17.07,-0.50,0.0000,0.1690,1.0080,1.7280,2.3960,0,0.0000,0.0000,0.0000,0.0000,0.0000,0
19482,0.2595,-0.0061,0.3098,-0.0495,-0.0033,0.0230,0.08,0.34,0.17,0,3.584,2.694,7.518,3.812,0.007,-0.010,1.000,0.000,0.000,0.000,0.3090,-1,0,-0.56,0.20,1.28,0.1706,0.0987,0.3113,0.0249,0.2381,0.3000,0.2602,-17.59,17.09,-5.05,0.0000,0.1690,1.0080,1.7280,2.3960,0,0.0000,0.0000,0.0000,0.0000,0.0000,0
19533,0.2576,-0.0073,0.3105,-0.0509,-0.0063,0.0228,0.22,-0.02,0.37,0,3.589,-0.935,3.166,4.989,0.006,-0.013,1.001,0.000,0.000,0.000,0.3120,0,0,-0.44,-0.19,1.51,0.1703,0.1016,0.3119,0.0211,0.2385,0.3000,0.2601,-17.78,17.17,-11.10,0.0000,0.1820,1.0110,1.7410,2.4000,0,0.0000,0.0000,0.0000,0.0000,0.0000,0
19585,0.2549,-0.0041,0.3123,-0.0510,0.0007,0.0255,0.15,-0.28,0.60,0,3.584,-0.322,4.538,5.731,0.005,-0.012,1.003,0.000,0.000,0.000,0.3070,1,1,-0.49,-0.36,1.77,0.1691,0.1014,0.3133,0.0173,0.2388,0.3000,0.2595,-17.28,17.29,-18.15,0.0000,0.1820,1.0110,1.7410,2.4000,0,0.0000,0.0000,0.0000,0.0000,0.0000,0
19636,0.2536,-0.0068,0.3108,-0.0457,-0.0074,0.0141,0.20,-0.53,0.88,0,3.589,1.449,3.004,5.827,0.008,-0.014,1.003,0.000,0.000,0.000,0.3080,3,0,-0.48,-0.58,2.04,0.1668,0.0973,0.3126,0.0134,0.2391,0.3000,0.2610,-17.69,17.59,-26.42,0.0000,0.1880,1.0110,1.7660,2.3870,0,0.0000,0.0000,0.0000,0.0000,0.0000,0
19687,0.2530,-0.0077,0.3100,-0.0374,-0.0099,0.0077,0.24,-0.71,1.12,0,3.584,-4.972,-1.069,6.095,0.008,-0.014,1.005,0.000,0.000,0.000,0.3120,0,-1,-0.36,-0.74,2.30,0.1669,0.0902,0.3122,0.0096,0.2393,0.3000,0.2618,-17.76,18.10,-33.64,0.0000,0.1880,1.0110,1.7660,2.3870,0,0.0000,0.0000,0.0000,0.0000,0.0000,0
19739,0.2517,-0.0100,0.3114,-0.0299,-0.0157,0.0137,0.07,-0.75,1.45,0,3.589,-2.708,-2.788,5.946,0.007,-0.009,1.001,0.000,0.000,0.000,0.3120,0,-1,-0.63,-0.71,2.60,0.1693,0.0897,0.3133,0.0058,0.2395,0.3000,0.2609,-18.19,18.65,-43.61,0.0000,0.1910,1.0240,1.7730,2.3880,0,0.0000,0.0000,0.0000,0.0000,0.0000,0
19789,0.2516,-0.0096,0.3124,-0.0206,-0.0128,0.0164,-0.09,-0.62,1.76,0,3.589,-1.626,-4.930,4.723,0.005,-0.010,0.996,0.000,0.000,0.000,0.3150,7,0,-0.77,-0.58,2.91,0.1720,0.0894,0.3139,0.0019,0.2396,0.3000,0.2604,-18.03,19.32,-52.75,0.0000,0.1910,1.0240,1.7730,2.3880,0,0.0000,0.0000,0.0000,0.0000,0.0000,0
19841,0.2519,-0.0092,0.3145,-0.0129,-0.0090,0.0222,-0.09,-0.42,2.01,0,3.589,-3.520,-3.397,2.302,0.006,-0.010,0.999,0.000,0.000,0.000,0.3140,0,0,-0.75,-0.33,3.14,0.1733,0.0715,0.3151,-0.0019,0.2396,0.3000,0.2594,-17.86,19.98,-60.37,0.0000,0.1900,1.0290,1.7800,2.3870,0,0.0000,0.0000,0.0000,0.0000,0.0000,0
19892,0.2521,-0.0193,0.3152,-0.0075,-0.0309,0.0186,-0.16,-0.31,2.19,0,3.584,-9.421,-2.304,2.617,0.008,-0.013,0.993,0.000,0.000,0.000,0.3160,0,0,-0.93,-0.15,3.27,0.1753,0.0668,0.3157,-0.0057,0.2396,0.3000,0.2597,-19.38,20.44,-65.64,0.0000,0.1900,1.0290,1.7800,2.3870,0,0.0000,0.0000,0.0000,0.0000,0.0000,0
19943,0.2540,-0.0192,0.3163,0.0005,-0.0250,0.0162,-0.60,-0.23,2.31,0,3.589,-4.080,-4.684,0.428,0.006,-0.011,0.996,0.000,0.000,0.000,0.3130,0,-1,-1.41,-0.04,3.40,0.1774,0.0623,0.3165,-0.0096,0.2396,0.3000,0.2597,-19.07,21.14,-69.25,1.0950,0.1870,1.0370,1.7880,2.3880,0,0.0000,0.0000,0.0000,0.0000,0.0000,0
19994,0.2551,-0.0198,0.3153,0.0046,-0.0184,0.0055,-0.85,0.02,2.34,0,3.584,3.225,-1.759,-1.754,0.003,-0.011,0.995,0.000,0.000,0.000,0.3140,5,0,-1.72,0.22,3.45,0.1745,0.0753,0.3165,-0.0134,0.2394,0.3000,0.2611,-18.69,21.50,-70.09,1.0950,0.1870,1.0370,1.7880,2.3880,0,0.0000,0.0000,0.0000,0.0000,0.0000,0
20045,0.2569,-0.0258,0.3149,0.0079,-0.0246,0.0010,-0.66,0.18,2.28,0,3.584,-4.635,-2.355,-2.874,0.005,-0.013,0.999,0.000,0.000,0.000,0.3120,0,-1,-1.50,0.32,3.34,0.1757,0.0671,0.3164,-0.0172,0.2392,0.3000,0.2616,-19.24,21.94,-68.33,0.0000,0.1850,1.0320,1.7710,2.3820,0,0.0000,0.0000,0.0000,0.0000,0.0000,0
20096,0.2589,-0.0302,0.3134,0.0098,-0.0259,-0.0075,-0.84,0.29,2.16,0,3.584,-9.016,-4.633,-3.985,0.002,-0.011,0.997,0.000,0.000,0.000,0.3160,1,-1,-1.75,0.44,3.21,0.1780,0.0665,0.3153,-0.0210,0.2390,0.3000,0.2628,-19.43,22.27,-64.95,0.0000,0.1850,1.0320,1.7710,2.3820,0,0.0000,0.0000,0.0000,0.0000,0.0000,0
20147,0.2608,-0.0269,0.3144,0.0101,-0.0075,-0.0018,-1.31,0.49,1.95,0,3.584,0.927,-2.568,-4.572,0.003,-0.013,1.002,0.000,0.000,0.000,0.3150,0,0,-2.20,0.67,3.01,0.1805,0.0642,0.3156,-0.0249,0.2387,0.3000,0.2620,-18.43,22.70,-58.62,0.0000,0.1910,1.0400,0.0000,2.3880,0,0.0000,0.0000,0.0000,0.0000,0.0000,0
20198,0.2633,-0.0267,0.3146,0.0100,0.0045,0.0006,-1.35,0.61,1.66,0,3.579,2.216,0.131,-6.649,0.003,-0.017,1.000,0.000,0.000,0.000,0.3130,0,-1,-2.15,0.81,2.78,0.1818,0.0635,0.3155,-0.0286,0.2383,0.3000,0.2617,-17.86,23.09,-49.93,0.0000,0.1910,1.0400,0.0000,2.3880,0,0.0000,0.0000,0.0000,0.0000,0.0000,0
20249,0.2641,-0.0273,0.3138,0.0052,0.0134,-0.0032,-1.21,0.66,1.41,0,3.584,0.064,-1.887,-6.672,0.009,-0.017,0.998,0.000,0.000,0.000,0.3120,2,0,-2.03,0.81,2.46,0.1840,0.0640,0.3147,-0.0324,0.2379,0.3000,0.2623,-17.41,23.13,-42.24,0.0000,0.1820,1.0240,1.7130,2.3920,0,0.0000,0.0000,0.0000,0.0000,0.0000,0
20300,0.2671,-0.0229,0.3128,0.0059,0.0315,-0.0071,-1.17,0.67,1.07,0,3.579,2.286,0.306,-5.528,0.004,-0.017,1.001,0.000,0.000,0.000,0.3120,1,0,-1.99,0.92,2.07,0.1846,0.0600,0.3139,-0.0363,0.2374,0.3000,0.2629,-16.23,23.51,-32.23,0.0000,0.1820,1.0240,1.7130,2.3920,0,0.0000,0.0000,0.0000,0.0000,0.0000,0
20351,0.2676,-0.0224,0.3121,0.0006,0.0388,-0.0081,-1.13,0.71,0.79,0,3.579,7.019,-0.452,-4.930,0.008,-0.016,1.009,0.000,0.000,0.000,0.3080,-1,0,-1.86,0.92,1.76,0.1850,0.0577,0.3131,-0.0400,0.2369,0.3000,0.2631,-15.78,23.53,-23.68,1.2190,0.1810,1.0110,1.7440,2.3950,0,0.0000,0.0000,0.0000,0.0000,0.0000,0
20402,0.2686,-0.0206,0.3097,-0.0031,0.0474,-0.0143,-0.88,0.82,0.56,0,3.579,5.912,0.996,-3.409,0.007,-0.016,1.006,0.000,0.000,0.000,0.3100,0,0,-1.51,0.95,1.54,0.1850,0.0601,0.3114,-0.0439,0.2363,0.3000,0.2642,-15.15,23.58,-16.66,1.2190,0.1810,1.0110,1.7440,2.3950,0,0.0000,0.0000,0.0000,0.0000,0.0000,0
20454,0.2700,-0.0134,0.3093,-0.0065,0.0651,-0.0105,-0.67,0.80,0.37,0,3.584,4.123,2.158,-3.429,0.008,-0.017,1.008,0.000,0.000,0.000,0.3110,-2,0,-1.21,0.91,1.36,0.1850,0.0608,0.3109,-0.0477,0.2356,0.3000,0.2639,-13.82,23.77,-10.98,0.0000,0.1720,1.0110,1.7260,2.3910,0,0.0000,0.0000,0.0000,0.0000,0.0000,0
20505,0.2708,-0.0112,0.3097,-0.0102,0.0679,-0.0037,-0.47,0.76,0.18,0,3.579,3.505,-0.616,-2.389,0.005,-0.020,1.004,0.000,0.000,0.000,0.3100,0,0,-1.03,0.79,1.26,0.1850,0.0676,0.3109,-0.0514,0.2349,0.3000,0.2631,-13.49,23.95,-5.46,0.0000,0.1720,1.0110,1.7260,2.3910,0,0.0000,0.0000,0.0000,0.0000,0.0000,0
20555,0.2692,-0.0088,0.3098,-0.0191,0.0690,-0.0003,-0.29,0.80,0.04,0,3.584,1.086,-0.314,-1.630,0.012,-0.014,1.002,0.000,0.000,0.000,0.3070,-2,1,-0.85,0.83,1.14,0.1846,0.0694,0.3108,-0.0551,0.2342,0.3000,0.2627,-13.21,23.75,-1.18,0.0000,0.1740,0.9970,1.7470,2.3890,0,0.0000,0.0000,0.0000,0.0000,0.0000,0
20607,0.2693,-0.0013,0.3084,-0.0230,0.0801,-0.0050,-0.16,0.70,-0.05,0,3.574,7.361,3.352,-0.714,0.004,-0.015,1.004,0.000,0.000,0.000,0.3050,0,1,-0.81,0.86,1.08,0.1816,0.0739,0.3097,-0.0589,0.2333,0.3000,0.2635,-12.07,23.76,1.64,0.0000,0.1740,0.9970,1.7470,2.3890,0,0.0000,0.0000,0.0000,0.0000,0.0000,0
20658,0.2684,0.0075,0.3065,-0.0278,0.0919,-0.0102,0.14,0.55,-0.09,0,3.584,10.126,3.057,-0.697,0.009,-0.018,1.008,0.000,0.000,0.000,0.3050,-3,0,-0.42,0.70,1.01,0.1794,0.0746,0.3083,-0.0626,0.2325,0.3000,0.2644,-10.79,23.65,2.68,0.0000,0.1670,0.9940,1.7500,2.3830,0,0.0000,0.0000,0.0000,0.0000,0.0000,0
20709,0.2662,0.0083,0.3054,-0.0337,0.0814,-0.0090,0.64,0.39,-0.10,0,3.574,1.217,-3.880,-1.385,0.006,-0.017,1.008,0.000,0.000,0.000,0.3050,-4,-1,0.06,0.53,1.05,0.1786,0.0816,0.3073,-0.0663,0.2315,0.3000,0.2645,-11.10,23.49,2.95,0.0000,0.1670,0.9940,1.7500,2.3830,0,0.0000,0.0000,0.0000,0.0000,0.0000,0
20760,0.2656,0.0113,0.3049,-0.0345,0.0729,-0.0056,0.82,0.41,-0.13,0,3.579,2.000,2.812,0.152,0.006,-0.012,1.011,0.000,0.000,0.000,0.3020,1,1,0.07,0.71,1.07,0.1801,0.0916,0.3067,-0.0700,0.2305,0.3000,0.2642,-11.18,23.66,3.91,0.0000,0.1730,0.9900,1.7370,2.3920,0,0.0000,0.0000,0.0000,0.0000,0.0000,0
20811,0.2646,0.0170,0.3033,-0.0363,0.0706,-0.0069,0.87,0.37,-0.13,0,3.574,-2.915,0.477,-0.130,0.009,-0.017,1.012,0.000,0.000,0.000,0.3040,-2,0,0.21,0.58,1.01,0.1778,0.0896,0.3057,-0.0737,0.2295,0.3000,0.2647,-10.76,23.70,3.95,0.0000,0.1730,0.9900,1.7370,2.3920,0,0.0000,0.0000,0.0000,0.0000,0.0000,0
20862,0.2626,0.0143,0.3035,-0.0395,0.0495,0.0005,0.76,0.31,-0.13,0,3.579,-7.142,3.039,0.606,0.010,-0.016,1.012,0.000,0.000,0.000,0.3030,1,0,0.04,0.55,1.04,0.1774,0.0950,0.3056,-0.0773,0.2284,0.3000,0.2638,-11.81,23.73,3.96,0.0000,0.1750,0.9800,1.7600,2.3980,0,0.0000,0.0000,0.0000,0.0000,0.0000,0
20913,0.2616,0.0155,0.3034,-0.0399,0.0407,0.0040,0.43,0.23,-0.10,0,3.579,-10.130,-2.786,1.737,0.011,-0.012,1.007,0.000,0.000,0.000,0.3060,1,0,-0.29,0.38,1.02,0.1774,0.0925,0.3056,-0.0810,0.2272,0.3000,0.2635,-12.02,23.88,3.06,0.0000,0.1750,0.9800,1.7600,2.3980,0,0.0000,0.0000,0.0000,0.0000,0.0000,0
20964,0.2603,0.0161,0.3050,-0.0402,0.0349,0.0139,0.03,0.22,-0.03,0,3.584,-7.925,-3.065,2.558,0.006,-0.010,1.003,0.000,0.000,0.000,0.3060,-1,-1,-0.79,0.52,1.06,0.1774,0.0897,0.3066,-0.0846,0.2260,0.3000,0.2621,-12.17,24.11,0.80,0.0000,0.1710,0.9840,1.7800,2.3930,0,0.0000,0.0000,0.0000,0.0000,0.0000,0
21015,0.2581,0.0152,0.3062,-0.0427,0.0289,0.0172,-0.27,0.31,0.07,0,3.579,-6.373,1.045,3.626,0.007,-0.012,1.002,0.000,0.000,0.000,0.3070,1,1,-1.21,0.65,1.20,0.1800,0.0926,0.3073,-0.0882,0.2247,0.3000,0.2615,-12.40,24.13,-2.18,0.0000,0.1710,0.9840,1.7800,2.3930,0,0.0000,0.0000,0.0000,0.0000,0.0000,0
