time_ms,pos_x,pos_y,pos_z,vel_x,vel_y,vel_z,roll,pitch,yaw,thrust,vbat,gyro_x,gyro_y,gyro_z,acc_x,acc_y,acc_z,rate_roll,rate_pitch,rate_yaw,range_z,flow_dx,flow_dy,mekf_roll,mekf_pitch,mekf_yaw,mekf_x,mekf_y,mekf_z,our_ref_x,our_ref_y,our_ref_z,our_thrust,our_roll_cmd,our_pitch_cmd,our_yaw_rate_cmd,multi_front,multi_back,multi_left,multi_right,multi_up,ai_feat_count,vo_x,vo_y,vo_sigma,pg_x,pg_y,lc_count
0,0.2159,1.0459,0.0121,0.0170,0.0891,-0.0013,-0.02,-0.09,-5.42,0,3.980,0.134,0.089,-0.251,-0.002,0.010,1.000,0.000,0.000,0.000,0.0110,-8,3,0.00,0.00,0.00,0.0000,0.0000,0.0000,0.0000,0.0000,0.0000,0.0000,0.00,0.00,0.00,0.8720,0.0000,1.1010,1.2650,2.6960,12,0.0000,0.0000,0.0000,0.0000,0.0000,0
100,0.2173,1.0566,0.0110,0.0195,0.1262,-0.0074,-0.24,-0.08,-5.40,0,3.991,-0.122,0.138,0.060,-0.000,0.009,1.003,0.000,0.000,0.000,0.0120,0,3,0.00,0.00,0.00,0.0000,0.0000,0.0000,0.0000,0.0000,0.0000,0.0000,0.00,0.00,0.00,0.8740,0.5710,1.0970,1.2650,2.7020,12,0.0000,0.0000,0.0000,0.0000,0.0000,0
201,0.2174,1.0569,0.0119,0.0152,0.1003,-0.0003,-0.02,-0.07,-5.38,0,3.985,0.016,-0.389,-0.202,-0.003,0.011,1.001,0.000,0.000,0.000,0.0140,-3,2,0.00,0.00,0.00,0.0000,0.0000,0.0000,0.0000,0.0000,0.0000,0.0000,0.00,0.00,0.00,0.8740,0.5710,1.0970,1.2690,2.7020,12,0.0000,0.0000,0.0000,0.0000,0.0000,0
302,0.2167,1.0576,0.0133,0.0078,0.0819,0.0073,0.18,-0.05,-5.36,0,3.991,-0.090,0.138,-0.297,-0.001,0.008,1.001,0.000,0.000,0.000,0.0110,5,0,0.00,0.00,0.00,0.0000,0.0000,0.0000,0.0000,0.0000,0.0000,0.0000,0.00,0.00,0.00,0.8740,0.0000,1.1000,1.2690,2.7080,12,0.0000,0.0000,0.0000,0.0000,0.0000,0
403,0.2169,1.0579,0.0128,0.0065,0.0645,0.0037,0.33,-0.03,-5.34,0,3.985,-0.169,0.386,0.109,-0.003,0.010,1.002,0.000,0.000,0.000,0.0090,-17,0,0.00,0.00,0.00,0.0000,0.0000,0.0000,0.0000,0.0000,0.0000,0.0000,0.00,0.00,0.00,0.8740,0.0000,1.1000,1.2690,2.7080,12,0.0000,0.0000,0.0000,0.0000,0.0000,0
504,0.2190,1.0662,0.0109,0.0150,0.0935,-0.0071,0.14,-0.07,-5.31,0,3.991,-0.093,-0.079,0.038,-0.005,0.010,0.998,0.000,0.000,0.000,0.0150,0,2,0.00,0.00,0.00,0.0000,0.0000,0.0000,0.0000,0.0000,0.0000,0.0000,0.00,0.00,0.00,0.8710,0.0000,1.0990,1.2690,2.7030,12,0.0000,0.0000,0.0000,0.0000,0.0000,0
606,0.2188,1.0662,0.0128,0.0101,0.0732,0.0042,0.32,-0.06,-5.28,0,3.985,0.013,0.038,-0.259,-0.000,0.008,0.999,0.000,0.000,0.000,0.0110,-5,4,0.00,0.00,0.00,0.0000,0.0000,0.0000,0.0000,0.0000,0.0000,0.0000,0.00,0.00,0.00,0.8710,0.0000,1.0990,1.2640,2.7030,15,0.0000,0.0000,0.0000,0.0000,0.0000,0
708,0.2186,1.0672,0.0123,0.0070,0.0616,0.0004,0.43,-0.07,-5.26,0,3.991,0.079,0.011,-0.289,-0.001,0.010,1.001,0.000,0.000,0.000,0.0110,5,3,0.00,0.00,0.00,0.0000,0.0000,0.0000,0.0000,0.0000,0.0000,0.0000,0.00,0.00,0.00,0.8750,0.0000,1.1020,1.2640,2.7010,15,0.0000,0.0000,0.0000,0.0000,0.0000,0
810,0.2181,1.0707,0.0118,0.0019,0.0661,-0.0026,0.46,-0.04,-5.24,0,3.980,-0.026,-0.124,0.107,-0.001,0.010,1.001,0.000,0.000,0.000,0.0110,0,0,0.00,0.00,0.00,0.0000,0.0000,0.0000,0.0000,0.0000,0.0000,0.0000,0.00,0.00,0.00,0.8750,0.0000,1.1020,1.2670,2.7010,15,0.0000,0.0000,0.0000,0.0000,0.0000,0
912,0.2212,1.0880,0.0102,0.0170,0.1403,-0.0124,-0.10,0.01,-5.21,0,3.991,-0.167,0.190,0.050,-0.002,0.009,0.999,0.000,0.000,0.000,0.0110,8,10,0.00,0.00,0.00,0.0000,0.0000,0.0000,0.0000,0.0000,0.0000,0.0000,0.00,0.00,0.00,0.8740,0.0000,1.1010,1.2670,2.6910,15,0.0000,0.0000,0.0000,0.0000,0.0000,0
1013,0.2183,1.0861,0.0113,-0.0032,0.0994,-0.0018,0.12,-0.03,-5.19,0,3.985,-0.138,-0.112,-0.252,-0.005,0.011,0.996,0.000,0.000,0.000,0.0110,-4,4,0.00,0.00,0.00,0.0000,0.0000,0.0000,0.0000,0.0000,0.0000,0.0000,0.00,0.00,0.00,0.8740,0.0000,1.1010,1.2650,2.6910,15,0.0000,0.0000,0.0000,0.0000,0.0000,0
1114,0.2205,1.0867,0.0115,0.0065,0.0794,-0.0001,0.37,-0.02,-5.17,0,3.991,-0.010,0.217,0.005,0.001,0.009,1.000,0.000,0.000,0.000,0.0090,0,0,0.00,0.00,0.00,0.0000,0.0000,0.0000,0.0000,0.0000,0.0000,0.0000,0.00,0.00,0.00,0.8720,0.0000,1.0970,1.2650,2.7040,15,0.0000,0.0000,0.0000,0.0000,0.0000,0
1215,0.2200,1.0841,0.0107,0.0031,0.0480,-0.0030,0.62,-0.02,-5.15,0,3.980,-0.209,0.091,-0.169,-0.002,0.009,1.000,0.000,0.000,0.000,0.0140,-1,-1,0.00,0.00,0.00,0.0000,0.0000,0.0000,0.0000,0.0000,0.0000,0.0000,0.00,0.00,0.00,0.8720,0.0000,1.0970,1.2690,2.7040,15,0.0000,0.0000,0.0000,0.0000,0.0000,0
1317,0.2179,1.0797,0.0122,-0.0085,0.0135,0.0062,0.98,-0.07,-5.13,0,3.991,-0.164,-0.083,0.192,-0.002,0.008,0.999,0.000,0.000,0.000,0.0110,-2,-9,0.00,0.00,0.00,0.0000,0.0000,0.0000,0.0000,0.0000,0.0000,0.0000,0.00,0.00,0.00,0.8720,0.0000,1.0960,1.2690,2.6980,20,0.0000,0.0000,0.0000,0.0000,0.0000,0
1418,0.2225,1.0836,0.0121,0.0162,0.0291,0.0037,0.85,-0.11,-5.11,0,3.980,0.161,0.121,0.213,-0.000,0.009,1.000,0.000,0.000,0.000,0.0150,13,15,0.00,0.00,0.00,0.0000,0.0000,0.0000,0.0000,0.0000,0.0000,0.0000,0.00,0.00,0.00,0.8720,0.0000,1.0960,1.2660,2.6980,20,0.0000,0.0000,0.0000,0.0000,0.0000,0
1519,0.2118,1.0760,0.0136,-0.0408,-0.0187,0.0101,1.08,0.23,-5.07,0,3.991,0.041,0.083,0.036,0.001,0.010,1.000,0.000,0.000,0.000,0.0110,-4,0,0.00,0.00,0.00,0.0000,0.0000,0.0000,0.0000,0.0000,0.0000,0.0000,0.00,0.00,0.00,0.8740,0.5410,1.0990,1.2660,2.7030,20,0.0000,0.0000,0.0000,0.0000,0.0000,0
1571,0.2124,1.0807,0.0131,-0.0300,0.0066,0.0054,0.79,0.19,-5.05,0,3.980,-0.068,-0.080,0.003,-0.000,0.010,1.000,0.000,0.000,0.000,0.0110,-4,2,0.00,0.00,0.00,0.0000,0.0000,0.0000,0.0000,0.0000,0.0000,0.0000,0.00,0.00,0.00,0.8740,0.5410,1.0990,1.2650,2.7030,20,0.0000,0.0000,0.0000,0.0000,0.0000,0
1622,0.2079,1.0827,0.0123,-0.0484,0.0132,0.0001,0.60,0.28,-5.01,0,3.985,-0.091,-0.260,-0.188,-0.001,0.010,1.000,0.000,0.000,0.000,0.0100,7,-1,0.00,0.00,0.00,0.0000,0.0000,0.0000,0.0000,0.0000,0.0000,0.0000,0.00,0.00,0.00,0.8680,0.5640,1.0950,1.2650,2.7060,20,0.0000,0.0000,0.0000,0.0000,0.0000,0
1672,0.2079,1.0854,0.0115,-0.0386,0.0199,-0.0038,0.71,0.17,-5.00,0,3.985,-0.140,0.217,-0.065,-0.001,0.010,1.001,0.000,0.000,0.000,0.0070,4,1,0.00,0.00,0.00,0.0000,0.0000,0.0000,0.0000,0.0000,0.0000,0.0000,0.00,0.00,0.00,0.8680,0.5640,1.0950,1.2650,2.7060,20,0.0000,0.0000,0.0000,0.0000,0.0000,0
1723,0.2103,1.0801,0.0094,-0.0185,-0.0159,-0.0131,1.06,0.10,-4.99,0,3.991,0.167,-0.135,-0.216,-0.001,0.010,1.002,0.000,0.000,0.000,0.0110,-5,-6,0.00,0.00,0.00,0.0000,0.0000,0.0000,0.0000,0.0000,0.0000,0.0000,0.00,0.00,0.00,0.8720,0.0000,1.0960,1.2650,2.6960,20,0.0000,0.0000,0.0000,0.0000,0.0000,0
1774,0.2077,1.0787,0.0097,-0.0269,-0.0210,-0.0085,0.98,0.06,-4.97,0,3.980,0.148,0.066,0.053,-0.001,0.010,1.000,0.000,0.000,0.000,0.0130,-22,5,0.00,0.00,0.00,0.0000,0.0000,0.0000,0.0000,0.0000,0.0000,0.0000,0.00,0.00,0.00,0.8720,0.0000,1.0960,1.2640,2.6960,20,0.0000,0.0000,0.0000,0.0000,0.0000,0
1825,0.2084,1.0837,0.0111,-0.0172,0.0095,0.0012,0.45,-0.02,-4.94,0,3.991,0.037,-0.004,-0.204,-0.002,0.009,1.001,0.000,0.000,0.000,0.0090,0,-2,0.00,0.00,0.00,0.0000,0.0000,0.0000,0.0000,0.0000,0.0000,0.0000,0.00,0.00,0.00,0.8720,0.0000,1.0980,1.2640,2.7030,20,0.0000,0.0000,0.0000,0.0000,0.0000,0
1876,0.2178,1.0869,0.0103,0.0359,0.0187,-0.0029,0.57,-0.32,-4.94,0,3.985,0.119,-0.063,0.122,0.000,0.008,1.001,0.000,0.000,0.000,0.0090,0,5,0.00,0.00,0.00,0.0000,0.0000,0.0000,0.0000,0.0000,0.0000,0.0000,0.00,0.00,0.00,0.8720,0.0000,1.0980,1.2700,2.7030,20,0.0000,0.0000,0.0000,0.0000,0.0000,0
1927,0.2158,1.0873,0.0098,0.0196,0.0150,-0.0047,0.63,-0.28,-4.92,0,3.991,0.206,-0.002,-0.229,-0.003,0.011,1.000,0.000,0.000,0.000,0.0120,0,0,0.00,0.00,0.00,0.0000,0.0000,0.0000,0.0000,0.0000,0.0000,0.0000,0.00,0.00,0.00,0.8770,0.0000,1.0990,1.2700,2.6980,28,0.0000,0.0000,0.0000,0.0000,0.0000,0
1979,0.2178,1.0843,0.0106,0.0259,-0.0044,0.0002,0.76,-0.29,-4.89,0,3.985,0.257,-0.063,-0.308,-0.003,0.011,0.999,0.000,0.000,0.000,0.0130,12,-6,0.00,0.00,0.00,0.0000,0.0000,0.0000,0.0000,0.0000,0.0000,0.0000,0.00,0.00,0.00,0.8770,0.0000,1.0990,1.2680,2.6980,28,0.0000,0.0000,0.0000,0.0000,0.0000,0
2031,0.2186,1.0783,0.0116,0.0251,-0.0368,0.0039,1.00,-0.31,-4.87,0,3.991,0.036,0.025,0.062,-0.001,0.010,1.001,0.000,0.000,0.000,0.0110,0,3,0.00,0.00,0.00,0.0000,0.0000,0.0000,0.0000,0.0000,0.0000,0.0000,0.00,0.00,0.00,0.8720,0.5420,1.0960,1.2680,2.6940,28,0.0000,0.0000,0.0000,0.0000,0.0000,0
2083,0.2202,1.0773,0.0115,0.0285,-0.0355,0.0030,0.95,-0.38,-4.85,0,3.980,0.062,0.299,0.128,-0.003,0.011,1.001,0.000,0.000,0.000,0.0120,-4,1,0.00,0.00,0.00,0.0000,0.0000,0.0000,0.0000,0.0000,0.0000,0.0000,0.00,0.00,0.00,0.8720,0.5420,1.0960,1.2620,2.6940,28,0.0000,0.0000,0.0000,0.0000,0.0000,0
2134,0.2215,1.0831,0.0122,0.0293,0.0029,0.0056,0.58,-0.28,-4.84,0,3.991,-0.067,0.057,0.070,-0.001,0.006,1.000,0.000,0.000,0.000,0.0110,-8,2,0.00,0.00,0.00,0.0000,0.0000,0.0000,0.0000,0.0000,0.0000,0.0000,0.00,0.00,0.00,0.8710,0.5400,1.0990,1.2620,2.6960,28,0.0000,0.0000,0.0000,0.0000,0.0000,0
2185,0.2216,1.0842,0.0119,0.0235,0.0055,0.0031,0.56,-0.24,-4.82,0,3.985,0.214,0.163,-0.135,-0.002,0.008,1.003,0.000,0.000,0.000,0.0120,0,4,0.00,0.00,0.00,0.0000,0.0000,0.0000,0.0000,0.0000,0.0000,0.0000,0.00,0.00,0.00,0.8710,0.5400,1.0990,1.2620,2.6960,28,0.0000,0.0000,0.0000,0.0000,0.0000,0
2236,0.2206,1.0772,0.0122,0.0129,-0.0345,0.0042,0.87,-0.22,-4.78,0,3.991,-0.115,0.251,0.015,-0.001,0.008,1.000,0.000,0.000,0.000,0.0120,-3,2,0.00,0.00,0.00,0.0000,0.0000,0.0000,0.0000,0.0000,0.0000,0.0000,0.00,0.00,0.00,0.8770,0.0000,1.1010,1.2620,2.7050,28,0.0000,0.0000,0.0000,0.0000,0.0000,0
2287,0.2210,1.0713,0.0122,0.0112,-0.0577,0.0024,1.02,-0.18,-4.75,0,3.985,-0.227,-0.277,0.030,-0.001,0.010,1.000,0.000,0.000,0.000,0.0110,26,0,0.00,0.00,0.00,0.0000,0.0000,0.0000,0.0000,0.0000,0.0000,0.0000,0.00,0.00,0.00,0.8770,0.0000,1.1010,1.2670,2.7050,28,0.0000,0.0000,0.0000,0.0000,0.0000,0
2338,0.2206,1.0645,0.0114,0.0067,-0.0842,-0.0029,1.15,-0.06,-4.72,0,3.991,-0.126,-0.161,-0.121,-0.001,0.008,1.002,0.000,0.000,0.000,0.0110,-6,0,0.00,0.00,0.00,0.0000,0.0000,0.0000,0.0000,0.0000,0.0000,0.0000,0.00,0.00,0.00,0.8680,0.4870,1.1000,1.2670,2.7090,28,0.0000,0.0000,0.0000,0.0000,0.0000,0
2390,0.2188,1.0667,0.0117,-0.0033,-0.0565,-0.0002,0.98,-0.04,-4.70,0,3.985,0.158,0.192,-0.202,0.001,0.010,0.999,0.000,0.000,0.000,0.0120,18,1,0.00,0.00,0.00,0.0000,0.0000,0.0000,0.0000,0.0000,0.0000,0.0000,0.00,0.00,0.00,0.8680,0.4870,1.1000,1.2560,2.7090,28,0.0000,0.0000,0.0000,0.0000,0.0000,0
2441,0.2226,1.0639,0.0119,0.0177,-0.0601,0.0007,0.94,-0.20,-4.69,0,3.991,-0.018,0.255,-0.537,-0.001,0.008,1.001,0.000,0.000,0.000,0.0120,0,0,0.00,0.00,0.00,0.0000,0.0000,0.0000,0.0000,0.0000,0.0000,0.0000,0.00,0.00,0.00,0.8690,0.6120,1.0990,1.2560,2.7060,28,0.0000,0.0000,0.0000,0.0000,0.0000,0
2493,0.2228,1.0610,0.0120,0.0149,-0.0641,0.0009,0.92,-0.13,-4.66,0,3.985,-0.229,0.052,-0.035,-0.000,0.008,0.998,0.000,0.000,0.000,0.0120,-1,-24,0.00,0.00,0.00,0.0000,0.0000,0.0000,0.0000,0.0000,0.0000,0.0000,0.00,0.00,0.00,0.8690,0.6120,1.0990,1.2700,2.7060,28,0.0000,0.0000,0.0000,0.0000,0.0000,0
2544,0.2271,1.0578,0.0120,0.0371,-0.0684,0.0001,0.91,-0.33,-4.65,0,3.991,-0.057,0.047,0.004,-0.002,0.008,1.001,0.000,0.000,0.000,0.0110,-6,-2,0.00,0.00,0.00,0.0000,0.0000,0.0000,0.0000,0.0000,0.0000,0.0000,0.00,0.00,0.00,0.8720,0.0000,1.0980,1.2700,2.6990,28,0.0000,0.0000,0.0000,0.0000,0.0000,0
2595,0.2269,1.0580,0.0119,0.0281,-0.0527,-0.0002,0.79,-0.24,-4.63,0,3.985,0.143,-0.253,-0.121,-0.000,0.010,0.997,0.000,0.000,0.000,0.0110,-14,0,0.00,0.00,0.00,0.0000,0.0000,0.0000,0.0000,0.0000,0.0000,0.0000,0.00,0.00,0.00,0.8720,0.0000,1.0980,1.2660,2.6990,28,0.0000,0.0000,0.0000,0.0000,0.0000,0
2646,0.2279,1.0577,0.0117,0.0281,-0.0422,-0.0010,0.67,-0.21,-4.61,0,3.991,0.159,0.128,-0.292,-0.000,0.009,1.001,0.000,0.000,0.000,0.0120,-2,2,0.00,0.00,0.00,0.0000,0.0000,0.0000,0.0000,0.0000,0.0000,0.0000,0.00,0.00,0.00,0.8740,0.0000,1.0950,1.2660,2.7020,28,0.0000,0.0000,0.0000,0.0000,0.0000,0
2697,0.2273,1.0518,0.0118,0.0184,-0.0641,-0.0003,0.82,-0.14,-4.59,0,3.980,-0.158,0.097,-0.121,-0.003,0.009,0.998,0.000,0.000,0.000,0.0100,10,2,0.00,0.00,0.00,0.0000,0.0000,0.0000,0.0000,0.0000,0.0000,0.0000,0.00,0.00,0.00,0.8740,0.0000,1.0950,1.2700,2.7020,28,0.0000,0.0000,0.0000,0.0000,0.0000,0
2748,0.2275,1.0498,0.0110,0.0146,-0.0616,-0.0041,0.74,-0.09,-4.57,0,3.991,-0.150,-0.027,0.070,-0.002,0.009,1.000,0.000,0.000,0.000,0.0150,7,0,0.00,0.00,0.00,0.0000,0.0000,0.0000,0.0000,0.0000,0.0000,0.0000,0.00,0.00,0.00,0.8720,0.6030,1.0970,1.2700,2.6980,28,0.0000,0.0000,0.0000,0.0000,0.0000,0
2799,0.2272,1.0499,0.0129,0.0092,-0.0479,0.0062,0.70,-0.07,-4.54,0,3.980,0.110,0.046,-0.167,-0.001,0.009,1.000,0.000,0.000,0.000,0.0100,-24,3,0.00,0.00,0.00,0.0000,0.0000,0.0000,0.0000,0.0000,0.0000,0.0000,0.00,0.00,0.00,0.8720,0.6030,1.0970,1.2670,2.6980,21,0.0000,0.0000,0.0000,0.0000,0.0000,0
2850,0.2279,1.0567,0.0120,0.0104,0.0006,0.0010,0.33,-0.01,-4.53,0,3.991,-0.137,0.049,-0.007,-0.002,0.009,0.999,0.000,0.000,0.000,0.0110,-10,0,0.00,0.00,0.00,0.0000,0.0000,0.0000,0.0000,0.0000,0.0000,0.0000,0.00,0.00,0.00,0.8720,0.5530,1.1000,1.2670,2.6990,21,0.0000,0.0000,0.0000,0.0000,0.0000,0
2901,0.2282,1.0619,0.0114,0.0089,0.0308,-0.0020,0.09,-0.02,-4.50,0,3.980,-0.162,-0.104,0.080,-0.002,0.009,1.000,0.000,0.000,0.000,0.0130,4,7,0.00,0.00,0.00,0.0000,0.0000,0.0000,0.0000,0.0000,0.0000,0.0000,0.00,0.00,0.00,0.8720,0.5530,1.1000,1.2660,2.6990,21,0.0000,0.0000,0.0000,0.0000,0.0000,0
2952,0.2289,1.0582,0.0123,0.0091,0.0070,0.0025,0.28,-0.04,-4.47,0,3.991,-0.159,0.073,0.203,-0.000,0.010,1.000,0.000,0.000,0.000,0.0100,0,5,0.00,0.00,0.00,0.0000,0.0000,0.0000,0.0000,0.0000,0.0000,0.0000,0.00,0.00,0.00,0.8700,0.0000,1.0980,1.2660,2.6960,21,0.0000,0.0000,0.0000,0.0000,0.0000,0
3003,0.2295,1.0593,0.0113,0.0096,0.0127,-0.0026,0.30,-0.03,-4.46,0,3.980,-0.163,0.085,0.004,-0.001,0.010,1.000,0.000,0.000,0.000,0.0140,5,2,0.00,0.00,0.00,0.0000,0.0000,0.0000,0.0000,0.0000,0.0000,0.0000,0.00,0.00,0.00,0.8700,0.0000,1.0980,1.2640,2.6960,21,0.0000,0.0000,0.0000,0.0000,0.0000,0
3055,0.2295,1.0589,0.0125,0.0067,0.0100,0.0038,0.32,-0.01,-4.44,0,3.991,-0.018,0.112,-0.378,-0.001,0.010,0.999,0.000,0.000,0.000,0.0090,-15,5,0.00,0.00,0.00,0.0000,0.0000,0.0000,0.0000,0.0000,0.0000,0.0000,0.00,0.00,0.00,0.8720,0.5180,1.0990,1.2640,2.7010,21,0.0000,0.0000,0.0000,0.0000,0.0000,0
3106,0.2290,1.0579,0.0111,0.0016,0.0053,-0.0043,0.34,0.01,-4.42,0,3.985,0.053,-0.037,0.009,-0.002,0.010,0.999,0.000,0.000,0.000,0.0110,-14,0,0.00,0.00,0.00,0.0000,0.0000,0.0000,0.0000,0.0000,0.0000,0.0000,0.00,0.00,0.00,0.8720,0.5180,1.0990,1.2690,2.7010,21,0.0000,0.0000,0.0000,0.0000,0.0000,0
3157,0.2303,1.0657,0.0108,0.0073,0.0459,-0.0057,0.13,-0.04,-4.39,0,3.991,-0.075,-0.067,0.292,0.000,0.010,1.000,0.000,0.000,0.000,0.0120,1,5,0.00,0.00,0.00,0.0000,0.0000,0.0000,0.0000,0.0000,0.0000,0.0000,0.00,0.00,0.00,0.8740,0.0000,1.0990,1.2690,2.7010,21,0.0000,0.0000,0.0000,0.0000,0.0000,0
3209,0.2300,1.0649,0.0114,0.0039,0.0371,-0.0014,0.33,0.09,-4.39,0,3.985,0.007,-0.290,-0.114,0.001,0.012,0.999,0.000,0.000,0.000,0.0130,9,4,0.00,0.00,0.00,0.0000,0.0000,0.0000,0.0000,0.0000,0.0000,0.0000,0.00,0.00,0.00,0.8740,0.0000,1.0990,1.2690,2.7010,21,0.0000,0.0000,0.0000,0.0000,0.0000,0
3260,0.2270,1.0553,0.0123,-0.0108,-0.0169,0.0033,0.55,0.08,-4.37,0,3.991,0.009,-0.135,-0.323,-0.001,0.012,0.998,0.000,0.000,0.000,0.0080,31,18,0.00,0.00,0.00,0.0000,0.0000,0.0000,0.0000,0.0000,0.0000,0.0000,0.00,0.00,0.00,0.8680,0.0000,1.1000,1.2690,2.6960,21,0.0000,0.0000,0.0000,0.0000,0.0000,0
3311,0.2228,1.0431,0.0098,-0.0320,-0.0762,-0.0104,1.04,0.20,-4.37,0,3.980,0.116,0.090,-0.219,-0.002,0.010,0.998,0.000,0.000,0.000,0.0090,30,3,0.00,0.00,0.00,0.0000,0.0000,0.0000,0.0000,0.0000,0.0000,0.0000,0.00,0.00,0.00,0.8680,0.0000,1.1000,1.2670,2.6960,21,0.0000,0.0000,0.0000,0.0000,0.0000,0
3363,0.2211,1.0434,0.0097,-0.0352,-0.0613,-0.0087,0.89,0.19,-4.35,0,3.985,-0.011,-0.194,-0.029,-0.003,0.011,1.001,0.000,0.000,0.000,0.0120,1,0,0.00,0.00,0.00,0.0000,0.0000,0.0000,0.0000,0.0000,0.0000,0.0000,0.00,0.00,0.00,0.8720,0.5040,1.0950,1.2670,2.7010,21,0.0000,0.0000,0.0000,0.0000,0.0000,0
3413,0.2231,1.0450,0.0108,-0.0195,-0.0416,-0.0014,0.74,0.10,-4.32,0,3.980,-0.057,0.161,0.112,-0.002,0.010,1.000,0.000,0.000,0.000,0.0120,13,-1,0.00,0.00,0.00,0.0000,0.0000,0.0000,0.0000,0.0000,0.0000,0.0000,0.00,0.00,0.00,0.8720,0.5040,1.0950,1.2650,2.7010,21,0.0000,0.0000,0.0000,0.0000,0.0000,0
3465,0.2228,1.0445,0.0114,-0.0172,-0.0351,0.0017,0.59,0.07,-4.30,0,3.985,-0.196,0.185,0.267,-0.002,0.010,1.001,0.000,0.000,0.000,0.0100,11,0,0.00,0.00,0.00,0.0000,0.0000,0.0000,0.0000,0.0000,0.0000,0.0000,0.00,0.00,0.00,0.8700,0.0000,1.0970,1.2650,2.7050,31,0.0000,0.0000,0.0000,0.0000,0.0000,0
3517,0.2232,1.0448,0.0110,-0.0122,-0.0260,-0.0008,0.53,0.02,-4.28,0,3.985,-0.338,0.011,0.040,-0.001,0.012,1.001,0.000,0.000,0.000,0.0090,8,3,0.00,0.00,0.00,0.0000,0.0000,0.0000,0.0000,0.0000,0.0000,0.0000,0.00,0.00,0.00,0.8700,0.0000,1.0970,1.2640,2.7050,31,0.0000,0.0000,0.0000,0.0000,0.0000,0
3568,0.2221,1.0484,0.0102,-0.0155,-0.0016,-0.0045,0.30,0.22,-4.25,0,3.991,-0.243,-0.376,0.078,-0.001,0.012,0.999,0.000,0.000,0.000,0.0110,-2,1,0.00,0.00,0.00,0.0000,0.0000,0.0000,0.0000,0.0000,0.0000,0.0000,0.00,0.00,0.00,0.8700,0.5310,1.1020,1.2640,2.7010,31,0.0000,0.0000,0.0000,0.0000,0.0000,0
3619,0.2187,1.0512,0.0104,-0.0284,0.0139,-0.0025,0.31,0.14,-4.23,0,3.980,0.044,0.049,-0.006,-0.001,0.010,1.000,0.000,0.000,0.000,0.0120,-20,3,0.00,0.00,0.00,0.0000,0.0000,0.0000,0.0000,0.0000,0.0000,0.0000,0.00,0.00,0.00,0.8700,0.5310,1.1020,1.2690,2.7010,31,0.0000,0.0000,0.0000,0.0000,0.0000,0
3670,0.2189,1.0520,0.0111,-0.0220,0.0187,0.0021,0.25,0.10,-4.21,0,3.985,0.000,-0.052,0.081,-0.002,0.007,1.000,0.000,0.000,0.000,0.0110,0,2,0.00,0.00,0.00,0.0000,0.0000,0.0000,0.0000,0.0000,0.0000,0.0000,0.00,0.00,0.00,0.8690,0.5390,1.1000,1.2690,2.6950,31,0.0000,0.0000,0.0000,0.0000,0.0000,0
3721,0.2181,1.0526,0.0112,-0.0218,0.0186,0.0024,0.29,0.08,-4.19,0,3.980,-0.106,-0.054,-0.057,-0.001,0.009,1.001,0.000,0.000,0.000,0.0110,-10,2,0.00,0.00,0.00,0.0000,0.0000,0.0000,0.0000,0.0000,0.0000,0.0000,0.00,0.00,0.00,0.8690,0.5390,1.1000,1.2610,2.6950,31,0.0000,0.0000,0.0000,0.0000,0.0000,0
3773,0.2162,1.0590,0.0110,-0.0273,0.0507,0.0008,-0.02,0.09,-4.16,0,3.985,0.002,0.317,-0.124,-0.000,0.009,1.000,0.000,0.000,0.000,0.0110,-1,1,0.00,0.00,0.00,0.0000,0.0000,0.0000,0.0000,0.0000,0.0000,0.0000,0.00,0.00,0.00,0.8680,0.5070,1.0990,1.2610,2.7000,31,0.0000,0.0000,0.0000,0.0000,0.0000,0
3824,0.2170,1.0724,0.0105,-0.0177,0.1118,-0.0028,-0.38,0.06,-4.13,0,3.985,-0.247,0.050,-0.148,-0.003,0.009,1.000,0.000,0.000,0.000,0.0120,10,0,0.00,0.00,0.00,0.0000,0.0000,0.0000,0.0000,0.0000,0.0000,0.0000,0.00,0.00,0.00,0.8680,0.5070,1.0990,1.2740,2.7000,31,0.0000,0.0000,0.0000,0.0000,0.0000,0
3876,-0.0000,-0.0000,0.0121,-0.0012,-0.0010,-0.0000,-0.08,-0.00,0.00,0,3.980,-0.035,0.439,0.076,-0.003,0.009,1.000,0.000,0.000,0.000,0.0140,10,9,0.00,0.00,0.00,0.0000,0.0000,0.0000,0.0000,0.0000,0.0000,0.0000,0.00,0.00,0.00,0.8720,0.0000,1.0980,1.2740,2.7070,31,0.0000,0.0000,0.0000,0.0000,0.0000,0
3928,0.0000,-0.0007,0.0133,0.0002,-0.0127,0.0005,0.36,0.16,0.00,0,3.980,0.214,-0.039,0.094,-0.001,0.009,1.002,0.000,0.000,0.000,0.0120,-8,0,0.00,0.00,0.00,0.0000,0.0000,0.0000,0.0000,0.0000,0.0000,0.0000,0.00,0.00,0.00,0.8720,0.0000,1.0980,1.2630,2.7070,31,0.0000,0.0000,0.0000,0.0000,0.0000,0
3979,0.0014,0.0013,0.0128,0.0204,0.0257,-0.0011,1.14,-0.04,0.01,0,3.985,0.323,-0.022,-0.066,0.000,0.010,1.003,0.000,0.000,0.000,0.0130,-3,5,0.00,0.00,0.00,0.0000,0.0000,0.0000,0.0000,0.0000,0.0000,0.0000,0.00,0.00,0.00,0.8720,0.0000,1.0970,1.2630,2.6980,31,0.0000,0.0000,0.0000,0.0000,0.0000,0
4030,0.0002,-0.0028,0.0132,0.0006,-0.0234,0.0005,0.74,-0.05,0.00,0,3.980,0.111,-0.046,0.011,-0.002,0.007,0.998,0.000,0.000,0.000,0.0110,-21,5,0.00,0.00,0.00,0.0000,0.0000,0.0000,0.0000,0.0000,0.0000,0.0000,0.00,0.00,0.00,0.8720,0.0000,1.0970,1.2680,2.6980,31,0.0000,0.0000,0.0000,0.0000,0.0000,0
4081,0.0018,0.0061,0.0121,0.0140,0.0765,-0.0088,-1.71,-0.20,-0.00,0,3.991,-0.197,0.204,0.101,-0.000,0.010,0.999,0.000,0.000,0.000,0.0090,-2,1,0.00,0.00,0.00,0.0000,0.0000,0.0000,0.0000,0.0000,0.0000,0.0000,0.00,0.00,0.00,0.8750,0.5050,1.0990,1.2680,2.6990,31,0.0000,0.0000,0.0000,0.0000,0.0000,0
4133,0.0018,0.0064,0.0108,0.0098,0.0600,-0.0121,-0.82,-0.13,-0.00,0,3.980,-0.129,0.000,-0.019,-0.003,0.012,1.000,0.000,0.000,0.000,0.0110,5,-12,0.00,0.00,0.00,0.0000,0.0000,0.0000,0.0000,0.0000,0.0000,0.0000,0.00,0.00,0.00,0.8750,0.5050,1.0990,1.2700,2.6990,31,0.0000,0.0000,0.0000,0.0000,0.0000,0
4184,0.0049,0.0062,0.0109,0.0320,0.0455,-0.0082,-0.37,-0.38,0.00,0,3.985,-0.055,0.084,0.073,-0.001,0.007,1.002,0.000,0.000,0.000,0.0100,-3,1,0.00,0.00,0.00,0.0000,0.0000,0.0000,0.0000,0.0000,0.0000,0.0000,0.00,0.00,0.00,0.8740,0.0000,1.1000,1.2700,2.7020,31,0.0000,0.0000,0.0000,0.0000,0.0000,0
4235,-0.0016,0.0148,0.0100,-0.0221,0.0983,-0.0118,-1.20,0.31,-0.00,0,3.980,-0.274,-0.081,0.280,-0.001,0.010,0.999,0.000,0.000,0.000,0.0110,-8,-3,0.00,0.00,0.00,0.0000,0.0000,0.0000,0.0000,0.0000,0.0000,0.0000,0.00,0.00,0.00,0.8740,0.0000,1.1000,1.2720,2.7020,90,0.0000,0.0000,0.0000,0.0000,0.0000,0
4287,0.0021,0.0239,0.0101,0.0074,0.1378,-0.0081,-1.12,-0.08,0.00,0,3.991,-0.205,0.272,0.206,-0.002,0.012,1.000,0.000,0.000,0.000,0.0130,-3,-20,0.00,0.00,0.00,0.0000,0.0000,0.0000,0.0000,0.0000,0.0000,0.0000,0.00,0.00,0.00,0.8690,0.0000,1.0950,1.2720,2.6990,90,0.0000,0.0000,0.0000,0.0000,0.0000,0
4338,0.0054,0.0220,0.0120,0.0282,0.1008,0.0035,-0.68,-0.42,0.01,0,3.980,-0.163,0.032,-0.024,-0.002,0.010,1.000,0.000,0.000,0.000,0.0110,-9,-7,0.00,0.00,0.00,0.0000,0.0000,0.0000,0.0000,0.0000,0.0000,0.0000,0.00,0.00,0.00,0.8690,0.0000,1.0950,1.2580,2.6990,90,0.0000,0.0000,0.0000,0.0000,0.0000,0
4390,0.0052,0.0196,0.0122,0.0211,0.0653,0.0052,-0.54,-0.22,0.01,0,3.991,0.018,0.130,0.234,-0.002,0.009,1.000,0.000,0.000,0.000,0.0120,-1,6,0.00,0.00,0.00,0.0000,0.0000,0.0000,0.0000,0.0000,0.0000,0.0000,0.00,0.00,0.00,0.8710,0.0000,1.0960,1.2580,2.7100,90,0.0000,0.0000,0.0000,0.0000,0.0000,0
4441,0.0042,0.0232,0.0125,0.0105,0.0706,0.0058,-0.08,-0.16,0.01,0,3.980,0.132,-0.069,-0.158,0.002,0.007,1.002,0.000,0.000,0.000,0.0140,-1,2,0.00,0.00,0.00,0.0000,0.0000,0.0000,0.0000,0.0000,0.0000,0.0000,0.00,0.00,0.00,0.8710,0.0000,1.0960,1.2640,2.7100,90,0.0000,0.0000,0.0000,0.0000,0.0000,0
4492,0.0039,0.0245,0.0135,0.0073,0.0629,0.0095,0.12,-0.11,0.00,0,3.991,-0.029,0.146,0.136,-0.004,0.010,1.003,0.000,0.000,0.000,0.0130,-3,0,0.00,0.00,0.00,0.0000,0.0000,0.0000,0.0000,0.0000,0.0000,0.0000,0.00,0.00,0.00,0.8750,0.5050,1.1000,1.2640,2.6980,90,0.0000,0.0000,0.0000,0.0000,0.0000,0
4543,0.0037,0.0238,0.0137,0.0035,0.0466,0.0092,0.25,-0.08,0.00,0,3.980,-0.103,0.432,-0.060,0.001,0.009,1.000,0.000,0.000,0.000,0.0120,-10,5,0.00,0.00,0.00,0.0000,0.0000,0.0000,0.0000,0.0000,0.0000,0.0000,0.00,0.00,0.00,0.8750,0.5050,1.1000,1.2630,2.6980,90,0.0000,0.0000,0.0000,0.0000,0.0000,0
4594,0.0037,0.0239,0.0134,0.0023,0.0372,0.0056,0.37,-0.07,0.00,0,3.985,0.067,0.113,-0.307,-0.003,0.010,0.998,0.000,0.000,0.000,0.0090,25,14,0.00,0.00,0.00,0.0000,0.0000,0.0000,0.0000,0.0000,0.0000,0.0000,0.00,0.00,0.00,0.8680,0.0000,1.0990,1.2630,2.6990,90,0.0000,0.0000,0.0000,0.0000,0.0000,0
4646,0.0069,0.0122,0.0117,0.0179,-0.0348,-0.0039,1.06,-0.18,0.00,0,3.980,-0.003,-0.330,-0.104,-0.002,0.008,1.002,0.000,0.000,0.000,0.0120,-9,2,0.00,0.00,0.00,0.0000,0.0000,0.0000,0.0000,0.0000,0.0000,0.0000,0.00,0.00,0.00,0.8680,0.0000,1.0990,1.2700,2.6990,90,0.0000,0.0000,0.0000,0.0000,0.0000,0
4697,0.0071,0.0082,0.0118,0.0159,-0.0489,-0.0025,1.06,-0.14,0.00,0,3.991,-0.018,-0.166,0.151,-0.002,0.007,0.999,0.000,0.000,0.000,0.0100,-4,0,0.00,0.00,0.00,0.0000,0.0000,0.0000,0.0000,0.0000,0.0000,0.0000,0.00,0.00,0.00,0.8740,0.5960,1.1010,1.2700,2.6930,90,0.0000,0.0000,0.0000,0.0000,0.0000,0
4748,0.0062,0.0136,0.0112,0.0090,-0.0168,-0.0056,0.79,-0.09,0.00,0,3.980,-0.057,0.063,0.036,-0.002,0.009,1.002,0.000,0.000,0.000,0.0110,2,2,0.00,0.00,0.00,0.0000,0.0000,0.0000,0.0000,0.0000,0.0000,0.0000,0.00,0.00,0.00,0.8740,0.5960,1.1010,1.2690,2.6930,90,0.0000,0.0000,0.0000,0.0000,0.0000,0
4800,0.0074,0.0125,0.0109,0.0121,-0.0204,-0.0054,0.73,-0.09,0.01,0,3.991,-0.099,0.120,-0.277,-0.003,0.011,0.999,0.000,0.000,0.000,0.0140,-20,-2,0.00,0.00,0.00,0.0000,0.0000,0.0000,0.0000,0.0000,0.0000,0.0000,0.00,0.00,0.00,0.8720,0.0000,1.0970,1.2690,2.7110,90,0.0000,0.0000,0.0000,0.0000,0.0000,0
4852,0.0093,0.0236,0.0121,0.0192,0.0366,0.0011,0.26,-0.18,-0.00,0,3.980,-0.084,0.164,0.127,-0.002,0.010,1.000,0.000,0.000,0.000,0.0140,-8,4,0.00,0.00,0.00,0.0000,0.0000,0.0000,0.0000,0.0000,0.0000,0.0000,0.00,0.00,0.00,0.8720,0.0000,1.0970,1.2670,2.7110,90,0.0000,0.0000,0.0000,0.0000,0.0000,0
4903,0.0118,0.0264,0.0130,0.0272,0.0452,0.0056,0.19,-0.32,-0.02,0,3.985,0.070,0.003,0.125,-0.000,0.010,1.001,0.000,0.000,0.000,0.0120,10,6,0.00,0.00,0.00,0.0000,0.0000,0.0000,0.0000,0.0000,0.0000,0.0000,0.00,0.00,0.00,0.8690,0.5090,1.1000,1.2670,2.7010,111,0.0000,0.0000,0.0000,0.0000,0.0000,0
4954,0.0116,0.0241,0.0131,0.0201,0.0251,0.0049,0.38,-0.23,-0.01,0,3.980,0.103,0.259,0.098,-0.001,0.011,0.998,0.000,0.000,0.000,0.0120,0,6,0.00,0.00,0.00,0.0000,0.0000,0.0000,0.0000,0.0000,0.0000,0.0000,0.00,0.00,0.00,0.8690,0.5090,1.1000,1.2680,2.7010,111,0.0000,0.0000,0.0000,0.0000,0.0000,0
5005,0.0129,0.0166,0.0128,0.0207,-0.0146,0.0018,0.55,-0.19,-0.00,0,3.985,0.193,0.030,-0.345,-0.002,0.010,0.998,0.000,0.000,0.000,0.0100,-4,0,0.00,0.00,0.00,0.0000,0.0000,0.0000,0.0000,0.0000,0.0000,0.0000,0.00,0.00,0.00,0.8720,0.0000,1.0970,1.2680,2.7020,111,0.0000,0.0000,0.0000,0.0000,0.0000,0
5056,0.0139,0.0211,0.0118,0.0212,0.0068,-0.0044,0.53,-0.15,-0.01,0,3.885,-0.110,-0.277,0.016,-0.004,0.010,0.999,0.000,0.000,0.000,0.0110,10,-3,0.00,0.00,0.00,0.0000,0.0000,0.0000,0.0000,0.0000,0.0000,0.0000,0.00,0.00,0.00,0.8720,0.0000,1.0970,1.2710,2.7020,111,0.0000,0.0000,0.0000,0.0000,0.0000,0
5107,0.0151,0.0167,0.0113,0.0231,-0.0182,-0.0064,0.81,-0.23,-0.02,0,3.648,-0.568,1.977,2.919,-0.018,0.011,1.009,0.000,0.000,0.000,0.0100,-26,-3,0.00,0.00,0.00,0.0000,0.0000,0.0000,0.0000,0.0000,0.0000,0.0000,0.00,0.00,0.00,0.8690,0.0000,1.1030,1.2710,2.6960,111,0.0000,0.0000,0.0000,0.0000,0.0000,0
5159,0.0151,0.0227,0.0108,0.0187,0.0136,-0.0066,0.41,-0.14,-0.00,0,3.700,-0.216,-0.210,0.178,-0.008,0.004,1.008,0.000,0.000,0.000,0.0130,17,0,0.00,0.00,0.00,0.0000,0.0000,0.0000,0.0000,0.0000,0.0000,0.0000,0.00,0.00,0.00,0.8690,0.0000,1.1030,1.2670,2.6960,111,0.0000,0.0000,0.0000,0.0000,0.0000,0
5210,0.0168,0.0143,0.0115,0.0237,-0.0355,-0.0006,0.83,-0.17,-0.01,0,3.737,-2.648,1.746,-6.060,-0.003,-0.006,0.981,0.000,0.000,0.000,0.0090,-4,-4,0.00,0.00,0.00,0.0000,0.0000,0.0000,0.0000,0.0000,0.0000,0.0000,0.00,0.00,0.00,0.8750,0.0000,1.0980,1.2670,2.6940,111,0.0000,0.0000,0.0000,0.0000,0.0000,0
5261,0.0172,0.0140,0.0105,0.0212,-0.0347,-0.0055,0.82,-0.10,-0.03,0,3.748,-0.517,1.515,5.057,-0.019,0.002,1.003,0.000,0.000,0.000,0.0100,26,0,0.00,0.00,0.00,0.0000,0.0000,0.0000,0.0000,0.0000,0.0000,0.0000,0.00,0.00,0.00,0.8750,0.0000,1.0980,1.2650,2.6940,111,0.0000,0.0000,0.0000,0.0000,0.0000,0
5312,0.0181,0.0097,0.0101,0.0217,-0.0551,-0.0060,0.85,-0.17,0.22,0,3.753,-3.689,2.565,5.960,0.002,0.001,1.010,0.000,0.000,0.000,0.0130,10,4,0.00,0.00,0.00,0.0000,0.0000,0.0000,0.0000,0.0000,0.0000,0.0000,0.00,0.00,0.00,0.8700,0.6210,1.1000,1.2650,2.7070,111,0.0000,0.0000,0.0000,0.0000,0.0000,0
5363,0.0184,0.0042,0.0110,0.0190,-0.0760,-0.0008,0.93,-0.15,0.49,0,3.753,0.785,1.162,9.065,-0.005,-0.016,0.976,0.000,0.000,0.000,0.0120,6,-4,0.00,0.00,0.00,0.0000,0.0000,0.0000,0.0000,0.0000,0.0000,0.0000,0.00,0.00,0.00,0.8700,0.6210,1.1000,1.2740,2.7070,111,0.0000,0.0000,0.0000,0.0000,0.0000,0
5414,0.0224,0.0022,0.0115,0.0361,-0.0759,-0.0016,0.98,-0.59,0.88,0,3.753,1.133,-1.046,10.884,-0.016,0.006,0.998,0.000,0.000,0.000,0.0100,1,1,0.00,0.00,0.00,0.0000,0.0000,0.0000,0.0000,0.0000,0.0000,0.0000,0.00,0.00,0.00,0.8620,0.0000,1.0960,1.2740,2.6940,111,0.0000,0.0000,0.0000,0.0000,0.0000,0
5465,0.0368,-0.0018,0.0102,0.0976,-0.0839,-0.0084,0.80,-0.71,1.41,0,3.748,-0.675,-0.021,5.059,-0.007,-0.004,1.021,0.000,0.000,0.000,0.0090,5,-5,0.00,0.00,0.00,0.0000,0.0000,0.0000,0.0000,0.0000,0.0000,0.0000,0.00,0.00,0.00,0.8620,0.0000,1.0960,1.2670,2.6940,111,0.0000,0.0000,0.0000,0.0000,0.0000,0
5517,0.0428,0.0033,0.0099,0.1113,-0.0468,-0.0081,0.60,-1.05,1.77,0,3.753,3.411,0.526,3.405,-0.009,-0.014,1.025,0.000,0.000,0.000,0.0110,-4,-1,0.00,0.00,0.00,0.0000,0.0000,0.0000,0.0000,0.0000,0.0000,0.0000,0.00,0.00,0.00,0.8520,0.7090,1.1010,1.2670,2.6980,111,0.0000,0.0000,0.0000,0.0000,0.0000,0
5567,0.0493,0.0033,0.0104,0.1199,-0.0389,-0.0022,0.48,-0.81,1.95,0,3.748,3.920,1.495,-2.409,-0.016,0.011,1.009,0.000,0.000,0.000,0.0130,-1,1,0.00,0.00,0.00,0.0000,0.0000,0.0000,0.0000,0.0000,0.0000,0.0000,0.00,0.00,0.00,0.8520,0.7090,1.1010,1.2770,2.6980,111,0.0000,0.0000,0.0000,0.0000,0.0000,0
5618,0.0504,0.0019,0.0120,0.1024,-0.0392,0.0090,0.39,-0.64,1.96,0,3.748,6.923,-2.836,4.963,-0.017,-0.009,1.004,0.000,0.000,0.000,0.0110,5,6,0.00,0.00,0.00,0.0000,0.0000,0.0000,0.0000,0.0000,0.0000,0.0000,0.00,0.00,0.00,0.8440,0.6830,1.0960,1.2770,2.6930,111,0.0000,0.0000,0.0000,0.0000,0.0000,0
5669,0.0486,0.0021,0.0124,0.0728,-0.0321,0.0101,0.42,-0.33,2.04,0,3.737,-2.519,2.218,3.757,-0.005,0.018,1.058,0.000,0.000,0.000,0.0110,-3,-3,0.00,0.00,0.00,0.0000,0.0000,0.0000,0.0000,0.0000,0.0000,0.0000,0.00,0.00,0.00,0.8440,0.6830,1.0960,1.2780,2.6930,114,0.0000,0.0000,0.0000,0.0000,0.0000,0
5721,0.0500,0.0104,0.0123,0.0645,0.0168,0.0115,-0.27,-0.54,2.32,0,3.737,-0.123,0.968,-1.594,-0.017,0.000,0.977,0.000,0.000,0.000,0.0100,-6,-28,0.00,0.00,0.00,0.0000,0.0000,0.0000,0.0000,0.0000,0.0000,0.0000,0.00,0.00,0.00,0.8440,0.6980,1.0990,1.2780,2.7030,114,0.0000,0.0000,0.0000,0.0000,0.0000,0
5773,0.0680,0.0156,0.0103,0.1414,0.0405,-0.0106,-0.48,-0.98,2.31,0,3.727,0.161,-1.465,-1.255,-0.014,-0.010,1.007,0.000,0.000,0.000,0.0100,10,0,0.00,0.00,0.00,0.0000,0.0000,0.0000,0.0000,0.0000,0.0000,0.0000,0.00,0.00,0.00,0.8440,0.6980,1.0990,1.2830,2.7030,114,0.0000,0.0000,0.0000,0.0000,0.0000,0
5824,0.0760,0.0058,0.0102,0.1520,-0.0175,-0.0046,0.13,-0.84,2.37,0,3.727,-3.738,-0.753,-1.151,-0.020,0.004,1.013,0.000,0.000,0.000,0.0130,6,-2,0.00,0.00,0.00,0.0000,0.0000,0.0000,0.0000,0.0000,0.0000,0.0000,0.00,0.00,0.00,0.8420,0.6440,1.1020,1.2830,2.6960,114,0.0000,0.0000,0.0000,0.0000,0.0000,0
5876,0.0843,0.0084,0.0115,0.1605,-0.0008,0.0056,-0.37,-0.97,2.31,0,3.721,-9.264,-10.590,0.855,-0.008,0.006,1.036,0.000,0.000,0.000,0.0100,10,5,0.00,0.00,0.00,0.0000,0.0000,0.0000,0.0000,0.0000,0.0000,0.0000,0.00,0.00,0.00,0.8420,0.6440,1.1020,1.2890,2.6960,114,0.0000,0.0000,0.0000,0.0000,0.0000,0
5928,0.0932,0.0140,0.0115,0.1693,0.0299,0.0193,-0.88,-0.36,2.32,0,3.727,-21.415,-20.897,-4.578,-0.003,-0.005,1.005,0.000,0.000,0.000,0.0150,8,3,0.00,0.00,0.00,0.0000,0.0000,0.0000,0.0000,0.0000,0.0000,0.0000,0.00,0.00,0.00,0.8450,0.6580,1.0990,1.2890,2.6990,114,0.0000,0.0000,0.0000,0.0000,0.0000,0
5980,0.0933,0.0002,0.0151,0.1258,-0.0377,0.0430,-1.47,1.28,2.16,0,3.716,-11.529,-42.895,-1.852,0.001,-0.011,0.981,0.000,0.000,0.000,0.0070,0,-21,0.00,0.00,0.00,0.0000,0.0000,0.0000,0.0000,0.0000,0.0000,0.0000,0.00,0.00,0.00,0.8450,0.6580,1.0990,1.2900,2.6990,114,0.0000,0.0000,0.0000,0.0000,0.0000,0
6031,0.0967,-0.0037,0.0131,0.1019,-0.0351,0.0248,-1.91,3.19,2.08,0,3.706,6.059,-33.731,1.128,0.019,-0.033,0.959,0.000,0.000,0.000,0.0000,-9,5,0.00,0.00,0.00,0.0000,0.0000,0.0000,0.0000,0.0000,0.0000,0.0000,0.00,0.00,0.00,0.8640,0.0000,1.0940,1.2900,2.7020,114,0.0000,0.0000,0.0000,0.0000,0.0000,0
6082,0.0900,0.0014,0.0076,0.0147,0.0144,-0.0210,-2.09,5.65,2.14,0,3.690,5.747,-26.212,-1.721,0.035,-0.031,0.992,0.000,0.000,0.000,0.0000,-11,29,0.00,0.00,0.00,0.0000,0.0000,0.0000,0.0000,0.0000,0.0000,0.0000,0.00,0.00,0.00,0.8640,0.0000,1.0940,1.3180,2.7020,114,0.0000,0.0000,0.0000,0.0000,0.0000,0
6133,0.0757,0.0087,0.0010,-0.1059,0.0597,-0.0564,-1.94,7.61,2.05,0,3.690,-27.704,26.598,-8.253,0.010,-0.015,1.014,0.000,0.000,0.000,0.0000,-9,12,0.00,0.00,0.00,0.0000,0.0000,0.0000,0.0000,0.0000,0.0000,0.0000,0.00,0.00,0.00,0.8810,0.1450,1.0950,1.3180,2.7050,114,0.0000,0.0000,0.0000,0.0000,0.0000,0
6185,0.0731,0.0147,-0.0005,-0.1491,0.0892,-0.0465,-3.02,6.48,1.73,0,3.679,30.333,28.186,-10.569,0.017,-0.024,1.038,0.000,0.000,0.000,0.0000,26,-27,0.00,0.00,0.00,0.0000,0.0000,0.0000,0.0000,0.0000,0.0000,0.0000,0.00,0.00,0.00,0.8810,0.1450,1.0950,1.3050,2.7050,114,0.0000,0.0000,0.0000,0.0000,0.0000,0
6236,0.0869,0.0023,0.0036,-0.0869,0.0231,-0.0060,-1.05,4.04,0.95,0,3.684,13.148,47.102,-9.030,0.008,-0.026,1.029,0.000,0.000,0.000,0.0000,-6,-8,0.00,0.00,0.00,0.0000,0.0000,0.0000,0.0000,0.0000,0.0000,0.0000,0.00,0.00,0.00,0.8910,0.2860,1.0940,1.3050,2.7110,105,0.0000,0.0000,0.0000,0.0000,0.0000,0
6287,0.0968,0.0097,0.0026,-0.0436,0.0604,0.0060,-0.52,1.57,0.79,0,3.674,-20.694,11.120,-11.011,0.009,-0.022,1.026,0.000,0.000,0.000,0.0000,-15,-26,0.00,0.00,0.00,0.0000,0.0000,0.0000,0.0000,0.0000,0.0000,0.0000,0.00,0.00,0.00,0.8910,0.2860,1.0940,1.2900,2.7110,105,0.0000,0.0000,0.0000,0.0000,0.0000,0
6338,0.1067,0.0180,0.0012,0.0120,0.0925,0.0083,-1.39,0.07,0.44,0,3.674,30.042,-30.793,-14.202,0.009,-0.029,1.044,0.000,0.000,0.000,0.0000,-18,-38,0.00,0.00,0.00,0.0000,0.0000,0.0000,0.0000,0.0000,0.0000,0.0000,0.00,0.00,0.00,0.8960,0.5400,1.0930,1.2900,2.6850,105,0.0000,0.0000,0.0000,0.0000,0.0000,0
6390,0.1238,0.0207,-0.0001,0.0933,0.0932,0.0181,-0.10,0.82,-0.06,0,3.669,-0.169,-17.978,-9.691,0.014,-0.028,1.042,0.000,0.000,0.000,0.0010,1,-10,0.00,0.00,0.00,0.0000,0.0000,0.0000,0.0000,0.0000,0.0000,0.0000,0.00,0.00,0.00,0.8960,0.5400,1.0930,1.3040,2.6850,105,0.0000,0.0000,0.0000,0.0000,0.0000,0
6441,0.1488,0.0240,-0.0018,0.1883,0.0851,0.0224,0.48,0.90,-0.49,0,3.669,-20.701,-48.552,-4.434,0.008,-0.016,1.039,0.000,0.000,0.000,0.0120,4,31,0.00,0.00,0.00,0.0000,0.0000,0.0000,0.0000,0.0000,0.0000,0.0000,0.00,0.00,0.00,0.9470,0.0000,1.0940,1.3040,2.6820,105,0.0000,0.0000,0.0000,0.0000,0.0000,0
6493,0.1492,0.0217,0.0081,0.1275,0.0487,0.0868,-0.30,3.88,-0.84,0,3.663,-7.265,-43.260,-2.605,0.004,-0.013,1.052,0.000,0.000,0.000,0.0210,-2,25,0.00,0.00,0.00,0.0000,0.0000,0.0000,0.0000,0.0000,0.0000,0.0000,0.00,0.00,0.00,0.9470,0.0000,1.0940,1.2930,2.6820,105,0.0000,0.0000,0.0000,0.0000,0.0000,0
6545,0.1150,0.0232,0.0150,-0.1147,0.0481,0.1111,-0.74,7.41,-0.99,0,3.669,5.637,48.273,-0.217,0.003,-0.021,1.035,0.000,0.000,0.000,0.0300,-1,9,0.00,0.00,0.00,0.0000,0.0000,0.0000,0.0000,0.0000,0.0000,0.0000,0.00,0.00,0.00,1.0630,0.2260,1.0910,1.2930,2.6830,105,0.0000,0.0000,0.0000,0.0000,0.0000,0
6596,0.1070,0.0244,0.0262,-0.1820,0.0482,0.1517,-0.54,5.31,-1.03,0,3.669,0.013,93.400,-0.001,0.022,-0.014,1.034,0.000,0.000,0.000,0.0360,0,-30,0.00,0.00,0.00,0.0000,0.0000,0.0000,0.0000,0.0000,0.0000,0.0000,0.00,0.00,0.00,1.0630,0.2260,1.0910,1.3150,2.6830,105,0.0000,0.0000,0.0000,0.0000,0.0000,0
6647,0.1283,0.0253,0.0412,-0.0537,0.0442,0.1959,-0.43,-0.52,-1.06,0,3.674,-1.619,18.377,4.637,0.029,-0.023,1.008,0.000,0.000,0.000,0.0470,0,-5,0.00,0.00,0.00,0.0000,0.0000,0.0000,0.0000,0.0000,0.0000,0.0000,0.00,0.00,0.00,0.0000,0.0000,1.0930,1.3150,2.6580,105,0.0000,0.0000,0.0000,0.0000,0.0000,0
6698,0.1362,0.0267,0.0506,0.0064,0.0428,0.1953,-0.41,-2.15,-0.87,0,3.663,-0.452,-33.556,9.877,0.009,-0.025,0.990,0.000,0.000,0.000,0.0530,-7,11,0.00,0.00,0.00,0.0000,0.0000,0.0000,0.0000,0.0000,0.0000,0.0000,0.00,0.00,0.00,0.0000,0.0000,1.0930,1.3240,2.6580,105,0.0000,0.0000,0.0000,0.0000,0.0000,0
6750,0.1301,0.0287,0.0593,-0.0163,0.0461,0.1868,-0.44,-0.24,-0.37,0,3.674,11.559,-12.027,8.676,0.014,-0.018,0.989,0.000,0.000,0.000,0.0680,0,10,0.00,0.00,0.00,0.0000,0.0000,0.0000,0.0000,0.0000,0.0000,0.0000,0.00,0.00,0.00,1.0490,0.7230,1.1000,1.3240,2.6270,105,0.0000,0.0000,0.0000,0.0000,0.0000,0
6802,0.1172,0.0302,0.0697,-0.0809,0.0443,0.1836,0.16,1.13,0.07,0,3.663,-0.460,35.701,5.252,0.007,-0.024,0.974,0.000,0.000,0.000,0.0790,0,19,0.00,0.00,0.00,0.0000,0.0000,0.0000,0.0000,0.0000,0.0000,0.0000,0.00,0.00,0.00,1.0490,0.7230,1.1000,1.3270,2.6270,105,0.0000,0.0000,0.0000,0.0000,0.0000,0
6853,0.0949,0.0303,0.0781,-0.1774,0.0328,0.1692,0.27,0.32,0.41,0,3.663,-3.525,25.843,3.623,0.013,-0.024,0.986,0.000,0.000,0.000,0.0900,-1,21,0.00,0.00,0.00,0.0000,0.0000,0.0000,0.0000,0.0000,0.0000,0.0000,0.00,0.00,0.00,1.0870,0.7370,1.1050,1.3270,2.6150,105,0.0000,0.0000,0.0000,0.0000,0.0000,0
6905,0.0741,0.0266,0.0873,-0.2349,0.0049,0.1665,0.23,-0.79,0.61,0,3.658,-9.455,40.851,1.245,0.017,-0.016,0.980,0.000,0.000,0.000,0.0840,9,13,0.00,0.00,0.00,0.0000,0.0000,0.0000,0.0000,0.0000,0.0000,0.0000,0.00,0.00,0.00,1.0870,0.7370,1.1050,1.3290,2.6150,105,0.0000,0.0000,0.0000,0.0000,0.0000,0
6956,0.0609,0.0247,0.0911,-0.2338,-0.0079,0.1335,-0.13,-2.68,0.72,0,3.658,2.641,25.502,-1.285,0.017,-0.014,0.998,0.000,0.000,0.000,0.0960,0,10,0.00,0.00,0.00,0.0000,0.0000,0.0000,0.0000,0.0000,0.0000,0.0000,0.00,0.00,0.00,1.1080,0.7670,1.1050,1.3290,2.6090,105,0.0000,0.0000,0.0000,0.0000,0.0000,0
7007,0.0499,0.0248,0.0982,-0.2068,-0.0058,0.1330,-0.10,-4.13,0.73,0,3.653,1.638,-4.164,-2.173,0.020,-0.023,0.992,0.000,0.000,0.000,0.1050,-4,15,0.00,0.00,0.00,0.0000,0.0000,0.0000,0.0000,0.0000,0.3000,0.2886,1.34,-5.64,-21.88,1.1080,0.7670,1.1050,1.3430,2.6090,105,0.0000,0.0000,0.0000,0.0000,0.0000,0
7058,0.0372,0.0257,0.1057,-0.1873,0.0008,0.1318,-0.07,-4.10,0.62,0,3.658,-5.536,-0.317,-3.450,0.009,-0.020,1.003,0.000,0.000,0.000,0.1130,-1,6,-0.10,4.13,0.73,0.0499,0.0248,0.1050,0.0000,0.0000,0.3000,0.2874,1.69,-5.65,-18.62,1.1300,0.7870,1.1050,1.3430,2.6030,101,0.0000,0.0000,0.0000,0.0000,0.0000,0
7110,0.0253,0.0271,0.1135,-0.1688,0.0088,0.1369,-0.44,-3.87,0.46,0,3.648,-1.336,10.426,-3.320,0.011,-0.016,1.009,0.000,0.000,0.000,0.1170,0,11,-0.45,4.42,0.56,0.0382,0.0272,0.1097,0.0000,0.0000,0.3000,0.2854,2.14,-5.65,-13.67,1.1300,0.7870,1.1050,1.3470,2.6030,101,0.0000,0.0000,0.0000,0.0000,0.0000,0
7161,0.0140,0.0281,0.1199,-0.1509,0.0157,0.1354,-0.60,-4.22,0.29,0,3.653,6.894,-2.369,-3.728,0.011,-0.018,1.002,0.000,0.000,0.000,0.1310,1,9,-0.08,5.89,0.34,0.0254,0.0271,0.1096,0.0000,0.0000,0.3000,0.2843,2.52,-5.63,-8.60,1.1630,0.7670,1.0990,1.3470,2.5930,101,0.0000,0.0000,0.0000,0.0000,0.0000,0
7213,0.0045,0.0283,0.1298,-0.1279,0.0171,0.1511,-0.27,-4.13,0.12,0,3.653,9.230,-11.573,-3.455,0.007,-0.018,1.001,0.000,0.000,0.000,0.1340,-1,2,0.87,5.33,0.10,0.0105,0.0260,0.1264,0.0000,0.0000,0.3000,0.2808,2.63,-5.32,-3.69,1.1630,0.7670,1.0990,1.3580,2.5930,101,0.0000,0.0000,0.0000,0.0000,0.0000,0
7265,-0.0025,0.0269,0.1372,-0.1003,0.0074,0.1497,0.19,-3.53,-0.02,0,3.658,-2.163,-8.431,-4.780,0.005,-0.026,0.994,0.000,0.000,0.000,0.1420,1,5,0.15,1.28,-0.02,0.0020,0.0268,0.1488,0.0000,0.0000,0.3000,0.2795,2.12,-4.59,0.49,1.1850,0.7620,1.0960,1.3580,2.5760,101,0.0000,0.0000,0.0000,0.0000,0.0000,0
7316,-0.0083,0.0275,0.1447,-0.0775,0.0065,0.1474,0.14,-3.13,-0.21,0,3.648,-3.286,-8.835,-3.935,0.007,-0.019,1.001,0.000,0.000,0.000,0.1480,0,0,0.26,1.09,-0.27,-0.0045,0.0255,0.1543,0.0000,0.0000,0.3000,0.2784,2.12,-3.99,6.19,1.1850,0.7620,1.0960,1.3610,2.5760,101,0.0000,0.0000,0.0000,0.0000,0.0000,0
7367,-0.0117,0.0279,0.1515,-0.0526,0.0061,0.1439,-0.02,-2.79,-0.41,0,3.653,3.996,-10.963,-4.058,0.009,-0.015,0.998,0.000,0.000,0.000,0.1470,1,1,0.09,1.47,-0.47,-0.0118,0.0239,0.1600,0.0000,0.0000,0.3000,0.2775,2.14,-3.13,12.22,1.2130,0.7550,1.0940,1.3610,2.5680,101,0.0000,0.0000,0.0000,0.0000,0.0000,0
7418,-0.0158,0.0282,0.1546,-0.0379,0.0061,0.1229,0.12,-2.19,-0.62,0,3.642,1.748,-9.718,-3.338,0.005,-0.018,1.007,0.000,0.000,0.000,0.1510,8,-2,-0.18,-0.50,-0.74,-0.0039,0.0245,0.1623,0.0000,0.0000,0.3000,0.2792,2.15,-2.73,18.59,1.2130,0.7550,1.0940,1.3650,2.5680,101,0.0000,0.0000,0.0000,0.0000,0.0000,0
7469,-0.0167,0.0288,0.1574,-0.0175,0.0055,0.1084,0.28,-1.62,-0.79,0,3.648,-2.061,-10.020,-2.712,0.005,-0.020,1.008,0.000,0.000,0.000,0.1640,0,0,1.12,-0.55,-0.49,-0.0012,0.0163,0.1627,0.0000,0.0000,0.3000,0.2802,2.15,-1.88,23.63,1.2410,0.7560,1.0900,1.3650,2.5500,101,0.0000,0.0000,0.0000,0.0000,0.0000,0
7521,-0.0193,0.0321,0.1644,-0.0125,0.0163,0.1196,0.07,-1.12,-1.02,0,3.642,-1.293,-6.824,-2.661,0.002,-0.022,1.013,0.000,0.000,0.000,0.1620,2,-2,1.01,-0.04,-0.64,-0.0006,0.0104,0.1700,0.0000,0.0000,0.3000,0.2777,2.88,-1.84,30.56,1.2410,0.7560,1.0900,1.3760,2.5500,101,0.0000,0.0000,0.0000,0.0000,0.0000,0
7572,-0.0186,0.0344,0.1679,0.0011,0.0214,0.1135,-0.03,-0.77,-1.18,0,3.642,5.326,-6.198,-0.660,0.008,-0.017,1.015,0.000,0.000,0.000,0.1690,-28,1,-0.13,0.15,-1.28,0.0018,0.0134,0.1763,0.0000,0.0000,0.3000,0.2777,3.25,-1.19,35.38,0.0000,0.7470,1.0870,1.3760,2.5320,101,0.0000,0.0000,0.0000,0.0000,0.0000,0
7624,-0.0179,0.0430,0.1727,0.0092,0.0513,0.1159,0.00,-0.49,-1.33,0,3.637,5.327,-6.560,-0.563,0.005,-0.013,1.017,0.000,0.000,0.000,0.1720,-1,-3,-3.17,0.71,-2.83,0.0033,0.0417,0.1745,0.0000,0.0000,0.3000,0.2766,5.17,-0.79,39.85,0.0000,0.7470,1.0870,1.3790,2.5320,101,0.0000,0.0000,0.0000,0.0000,0.0000,0
7675,-0.0166,0.0491,0.1755,0.0159,0.0668,0.1134,0.04,-0.22,-1.47,0,3.642,11.016,-7.790,1.097,0.003,-0.015,1.021,0.000,0.000,0.000,0.1820,-4,-2,-2.23,0.74,-2.47,0.0067,0.0456,0.1883,0.0000,0.0000,0.3000,0.2763,6.27,-0.40,44.25,0.0000,0.7520,1.0770,1.3790,2.5240,101,0.0000,0.0000,0.0000,0.0000,0.0000,0
7726,-0.0149,0.0691,0.1819,0.0208,0.1251,0.1243,0.44,0.10,-1.51,0,3.637,22.517,-2.813,-0.433,0.004,-0.015,1.023,0.000,0.000,0.000,0.1870,-6,-3,-1.57,1.01,-2.31,0.0101,0.0533,0.1947,0.0000,0.0000,0.3000,0.2739,10.23,-0.07,45.42,0.0000,0.7520,1.0770,1.3800,2.5240,101,0.0000,0.0000,0.0000,0.0000,0.0000,0
7777,-0.0120,0.0699,0.1885,0.0266,0.1026,0.1346,1.60,0.25,-1.49,0,3.648,13.710,-1.766,0.597,0.003,-0.019,1.015,0.000,0.000,0.000,0.1970,-1,-1,-0.55,0.94,-2.26,0.0153,0.0638,0.1998,0.0000,0.0000,0.3000,0.2716,9.38,0.39,44.61,0.0000,0.7670,1.0780,1.3800,2.5120,101,0.0000,0.0000,0.0000,0.0000,0.0000,0
7829,-0.0097,0.0707,0.1968,0.0276,0.0754,0.1489,2.40,0.34,-1.46,0,3.642,-3.116,-1.882,0.207,-0.000,-0.016,1.007,0.000,0.000,0.000,0.2030,-1,-3,0.53,1.07,-2.14,0.0174,0.0669,0.2087,0.0000,0.0000,0.3000,0.2685,8.31,0.60,43.94,0.0000,0.7670,1.0780,1.3760,2.5120,101,0.0000,0.0000,0.0000,0.0000,0.0000,0
7880,-0.0073,0.0714,0.2044,0.0279,0.0472,0.1535,2.26,0.39,-1.44,0,3.653,-7.524,-0.696,2.012,0.006,-0.017,1.002,0.000,0.000,0.000,0.2140,6,-2,0.59,0.98,-2.03,0.0228,0.0687,0.2154,0.0000,0.0000,0.3000,0.2665,7.14,0.78,43.23,0.0000,0.7750,1.0750,1.3760,2.4870,107,0.0000,0.0000,0.0000,0.0000,0.0000,0
7930,-0.0037,0.0706,0.2136,0.0315,0.0185,0.1621,1.94,0.39,-1.37,0,3.648,-7.909,-3.183,2.610,0.003,-0.016,0.999,0.000,0.000,0.000,0.2210,0,-1,0.92,0.96,-1.77,0.0262,0.0572,0.2228,0.0000,0.0000,0.3000,0.2639,5.82,1.22,41.13,0.0000,0.7750,1.0750,1.3690,2.4870,107,0.0231,0.0577,0.0000,0.0231,0.0577,0
7981,-0.0024,0.0730,0.2221,0.0273,0.0080,0.1643,1.54,0.57,-1.26,0,3.653,-7.660,-3.598,1.868,0.004,-0.015,0.995,0.000,0.000,0.000,0.2280,-2,-2,0.48,1.15,-1.65,0.0283,0.0569,0.2307,0.0000,0.0000,0.3000,0.2620,5.54,1.12,37.77,1.7090,0.7790,1.0810,1.3690,2.4700,107,0.0231,0.0577,0.0000,0.0231,0.0577,0
8033,0.0012,0.0731,0.2301,0.0298,-0.0046,0.1604,1.16,0.68,-1.17,0,3.648,-8.571,3.405,1.987,0.002,-0.016,0.990,0.000,0.000,0.000,0.2360,4,0,-0.12,1.26,-1.60,0.0328,0.0610,0.2386,0.0000,0.0000,0.3000,0.2609,4.98,1.50,34.99,1.7090,0.7790,1.0810,1.3710,2.4700,107,0.0231,0.0577,0.0000,0.0231,0.0577,0
8083,0.0034,0.0648,0.2378,0.0265,-0.0383,0.1548,0.94,0.59,-1.08,0,3.653,-10.890,0.043,1.678,-0.001,-0.015,0.987,0.000,0.000,0.000,0.2460,13,-1,-0.28,1.16,-1.45,0.0323,0.0520,0.2452,0.0000,0.0000,0.3000,0.2601,2.81,1.50,32.49,0.0000,0.7850,1.0970,1.3710,2.4560,107,0.0231,0.0577,0.0000,0.0231,0.0577,0
8134,0.0053,0.0594,0.2463,0.0231,-0.0561,0.1535,0.49,0.61,-1.01,0,3.648,-14.250,-4.252,0.291,0.003,-0.010,0.988,0.000,0.000,0.000,0.2520,3,-2,-0.01,1.12,-1.28,0.0337,0.0221,0.2510,0.0000,0.0000,0.3000,0.2586,1.59,1.49,30.38,0.0000,0.7850,1.0970,1.3680,2.4560,107,0.0231,0.0577,0.0000,0.0231,0.0577,0
8185,0.0079,0.0573,0.2537,0.0223,-0.0577,0.1478,-0.20,0.71,-0.98,0,3.648,-4.348,4.862,0.961,0.005,-0.013,0.987,0.000,0.000,0.000,0.2620,-1,0,-0.81,1.23,-1.28,0.0383,0.0144,0.2586,0.0000,0.0000,0.3000,0.2579,1.37,1.64,29.42,0.0000,0.7750,1.1140,1.3680,2.4410,107,0.0231,0.0577,0.0000,0.0231,0.0577,0
8236,0.0094,0.0523,0.2620,0.0183,-0.0613,0.1456,-0.55,0.47,-0.92,0,3.648,-8.178,-1.213,1.309,0.002,-0.014,0.982,0.000,0.000,0.000,0.2670,0,-1,-1.33,1.02,-1.25,0.0384,0.0165,0.2677,0.0000,0.0000,0.3000,0.2565,0.85,1.57,27.59,0.0000,0.7750,1.1140,1.3650,2.4410,107,0.0231,0.0577,0.0000,0.0231,0.0577,0
8287,0.0110,0.0478,0.2688,0.0165,-0.0603,0.1367,-0.95,0.33,-0.84,0,3.648,-2.630,-2.211,1.826,0.003,-0.010,0.985,0.000,0.000,0.000,0.2750,2,-1,-1.90,1.04,-1.19,0.0409,0.0164,0.2742,0.0000,0.0000,0.3000,0.2562,0.57,1.60,25.10,0.0000,0.7810,1.1160,1.3650,2.4260,107,0.0231,0.0577,0.0000,0.0231,0.0577,0
8338,0.0140,0.0394,0.2764,0.0197,-0.0676,0.1334,-1.02,0.36,-0.76,0,3.648,-1.973,1.830,-0.014,0.002,-0.014,0.986,0.000,0.000,0.000,0.2850,0,-1,-2.02,1.11,-1.08,0.0433,0.0110,0.2805,0.0000,0.0000,0.3000,0.2551,-0.39,1.97,22.81,0.0000,0.7810,1.1160,1.3590,2.4260,107,0.0231,0.0577,0.0000,0.0231,0.0577,0
8389,0.0161,0.0362,0.2844,0.0199,-0.0592,0.1332,-1.10,0.29,-0.75,0,3.653,-3.224,-0.135,0.422,0.005,-0.014,0.978,0.000,0.000,0.000,0.2900,0,-1,-2.20,0.97,-1.07,0.0460,0.0109,0.2877,0.0000,0.0000,0.3000,0.2536,-0.22,2.15,22.40,0.0000,0.7910,1.1330,1.3590,2.4150,107,0.0231,0.0577,0.0000,0.0231,0.0577,0
8440,0.0185,0.0304,0.2916,0.0213,-0.0576,0.1266,-1.18,0.27,-0.75,0,3.648,2.946,-1.697,-0.504,0.004,-0.011,0.979,0.000,0.000,0.000,0.2930,0,0,-2.42,0.94,-1.02,0.0487,0.0110,0.2938,0.0000,0.0000,0.3000,0.2530,-0.57,2.40,22.60,0.0000,0.7910,1.1330,1.3620,2.4150,107,0.0231,0.0577,0.0000,0.0231,0.0577,0
8492,0.0208,0.0266,0.2961,0.0224,-0.0509,0.1085,-1.08,0.31,-0.75,0,3.648,3.245,-0.665,-0.896,0.005,-0.016,0.976,0.000,0.000,0.000,0.2990,0,0,-2.27,1.03,-1.05,0.0497,0.0097,0.2985,0.0000,0.0000,0.3000,0.2541,-0.52,2.61,22.55,0.0000,0.7770,1.1340,1.3620,2.4080,90,0.0231,0.0577,0.0000,0.0231,0.0577,0
8544,0.0229,0.0228,0.3011,0.0224,-0.0456,0.0965,-0.93,0.31,-0.76,0,3.642,-0.389,-2.022,-0.734,0.003,-0.012,0.983,0.000,0.000,0.000,0.2990,-3,0,-2.10,1.07,-1.09,0.0503,0.0091,0.3030,0.0000,0.0000,0.3000,0.2544,-0.54,2.76,22.92,0.0000,0.7770,1.1340,1.3600,2.4080,90,0.0231,0.0577,0.0000,0.0231,0.0577,0
8596,0.0257,0.0222,0.3030,0.0239,-0.0339,0.0744,-0.98,0.35,-0.77,0,3.642,1.697,-1.095,-1.074,-0.001,-0.017,0.988,0.000,0.000,0.000,0.3020,2,-1,-2.32,1.20,-1.17,0.0495,0.0221,0.3054,0.0000,0.0000,0.3000,0.2565,-0.01,3.01,23.22,0.0000,0.7940,1.1340,1.3600,2.4000,90,0.0231,0.0577,0.0000,0.0231,0.0577,0
8647,0.0286,0.0202,0.3051,0.0252,-0.0272,0.0598,-0.84,0.43,-0.80,0,3.637,6.814,-0.358,-1.522,0.004,-0.014,0.993,0.000,0.000,0.000,0.3100,-2,0,-2.14,1.22,-1.18,0.0508,0.0203,0.3081,0.0000,0.0000,0.3000,0.2576,0.17,3.27,23.92,0.0000,0.7940,1.1340,1.3590,2.4000,90,0.0231,0.0577,0.0000,0.0231,0.0577,0
8698,0.0297,0.0180,0.3092,0.0213,-0.0225,0.0620,-0.54,0.46,-0.83,0,3.642,3.292,0.900,-1.486,0.002,-0.014,0.992,0.000,0.000,0.000,0.3130,-2,-1,-1.83,1.24,-1.25,0.0506,0.0250,0.3116,0.0000,0.0000,0.3000,0.2567,0.24,3.17,24.94,0.0000,0.7830,1.1430,1.3590,2.3900,90,0.0231,0.0577,0.0000,0.0231,0.0577,0
8750,0.0323,0.0193,0.3131,0.0213,-0.0124,0.0620,-0.46,0.35,-0.87,0,3.637,4.040,1.733,-0.214,0.007,-0.013,0.996,0.000,0.000,0.000,0.3160,-4,-1,-1.70,1.15,-1.26,0.0523,0.0304,0.3150,0.0000,0.0000,0.3000,0.2559,0.82,3.37,26.05,0.0000,0.7830,1.1430,1.3530,2.3900,90,0.0231,0.0577,0.0000,0.0231,0.0577,0
8801,0.0360,0.0180,0.3163,0.0244,-0.0101,0.0610,-0.30,0.31,-0.90,0,3.642,4.914,-4.106,-1.272,0.001,-0.011,0.995,0.000,0.000,0.000,0.3190,1,-2,-1.58,1.01,-1.22,0.0545,0.0406,0.3179,0.0000,0.0000,0.3000,0.2554,0.84,3.80,27.00,0.0000,0.8030,1.1390,1.3530,2.3900,90,0.0231,0.0577,0.0000,0.0231,0.0577,0
8852,0.0393,0.0152,0.3198,0.0263,-0.0125,0.0601,-0.07,0.37,-0.93,0,3.637,-0.133,0.464,-0.171,0.002,-0.019,0.991,0.000,0.000,0.000,0.3180,-1,0,-1.22,1.14,-1.17,0.0591,0.0395,0.3215,0.0000,0.0000,0.3000,0.2549,0.52,4.14,27.81,0.0000,0.8030,1.1390,1.3560,2.3900,90,0.0231,0.0577,0.0000,0.0231,0.0577,0
8903,0.0407,0.0133,0.3208,0.0235,-0.0150,0.0467,-0.02,0.36,-0.99,0,3.637,-1.130,2.225,-1.499,0.007,-0.021,0.996,0.000,0.000,0.000,0.3240,-5,-1,-1.21,1.12,-1.18,0.0592,0.0430,0.3230,0.0000,0.0000,0.3000,0.2561,0.26,4.08,29.61,3.0730,0.7890,1.1400,1.3560,2.3810,90,0.0231,0.0577,0.0000,0.0231,0.0577,0
8955,0.0435,0.0158,0.3239,0.0241,-0.0078,0.0481,-0.02,0.36,-1.05,0,3.637,3.268,0.962,-1.122,0.005,-0.017,0.998,0.000,0.000,0.000,0.3230,1,0,-1.41,0.96,-1.23,0.0622,0.0575,0.3254,0.0000,0.0000,0.3000,0.2554,0.80,4.32,31.51,3.0730,0.7890,1.1400,1.3500,2.3810,90,0.0231,0.0577,0.0000,0.0231,0.0577,0
9006,0.0449,0.0145,0.3250,0.0219,-0.0093,0.0406,0.06,0.34,-1.11,0,3.637,3.887,0.921,-2.216,0.003,-0.017,1.001,0.000,0.000,0.000,0.3260,1,-1,-1.12,0.91,-1.28,0.0621,0.0550,0.3275,0.0000,0.0000,0.3000,0.2560,0.62,4.32,33.26,0.0000,0.8100,1.1410,1.3500,2.3760,90,0.0231,0.0577,0.0000,0.0231,0.0577,0
9057,0.0478,0.0121,0.3269,0.0230,-0.0137,0.0390,0.19,0.28,-1.17,0,3.632,0.846,0.339,-1.287,0.004,-0.016,0.996,0.000,0.000,0.000,0.3270,2,0,-0.82,0.83,-1.35,0.0650,0.0522,0.3296,0.0000,0.0000,0.3000,0.2558,0.24,4.58,35.14,0.0000,0.8100,1.1410,1.3500,2.3760,90,0.0231,0.0577,0.0000,0.0231,0.0577,0
9108,0.0505,0.0135,0.3281,0.0239,-0.0111,0.0339,0.21,0.28,-1.22,0,3.637,-1.879,-1.029,-0.739,0.008,-0.013,1.000,0.000,0.000,0.000,0.3260,1,0,-0.66,0.81,-1.40,0.0648,0.0460,0.3311,0.0000,0.0000,0.3000,0.2561,0.47,4.81,36.65,3.0630,0.7950,1.1360,1.3500,2.3710,90,0.0231,0.0577,0.0000,0.0231,0.0577,0
9159,0.0523,0.0124,0.3285,0.0226,-0.0137,0.0278,0.15,0.38,-1.25,0,3.632,-0.866,1.102,0.342,0.005,-0.020,1.004,0.000,0.000,0.000,0.3310,0,0,-0.71,0.87,-1.42,0.0647,0.0427,0.3316,0.0000,0.0000,0.3000,0.2567,0.26,4.87,37.58,3.0630,0.7950,1.1360,1.3470,2.3710,90,0.0231,0.0577,0.0000,0.0231,0.0577,0
9210,0.0544,0.0110,0.3305,0.0215,-0.0161,0.0328,0.09,0.38,-1.25,0,3.637,1.291,0.571,-0.272,0.006,-0.017,1.007,0.000,0.000,0.000,0.3340,0,-1,-0.75,0.81,-1.41,0.0644,0.0432,0.3335,0.0000,0.0000,0.3000,0.2558,0.04,4.98,37.64,0.0000,0.8010,1.1320,1.3470,2.3650,90,0.0231,0.0577,0.0000,0.0231,0.0577,0
9261,0.0574,0.0105,0.3334,0.0221,-0.0162,0.0406,0.14,0.33,-1.26,0,3.632,1.125,0.516,0.139,0.008,-0.020,0.999,0.000,0.000,0.000,0.3340,1,0,-0.67,0.71,-1.40,0.0702,0.0423,0.3359,0.0000,0.0000,0.3000,0.2544,0.01,5.26,37.77,0.0000,0.8010,1.1320,1.3510,2.3650,90,0.0231,0.0577,0.0000,0.0231,0.0577,0
9313,0.0594,0.0094,0.3350,0.0214,-0.0179,0.0402,0.17,0.28,-1.25,0,3.637,-2.945,0.644,0.237,0.005,-0.013,0.995,0.000,0.000,0.000,0.3360,0,1,-0.59,0.69,-1.38,0.0702,0.0397,0.3375,0.0000,0.0000,0.3000,0.2541,-0.16,5.38,37.49,0.0000,0.8190,1.1320,1.3510,2.3660,90,0.0231,0.0577,0.0000,0.0231,0.0577,0
9364,0.0607,0.0089,0.3369,0.0193,-0.0185,0.0394,0.08,0.24,-1.23,0,3.632,-2.549,-1.154,1.816,0.005,-0.019,1.000,0.000,0.000,0.000,0.3390,0,0,-0.74,0.69,-1.37,0.0674,0.0397,0.3391,0.0000,0.0000,0.3000,0.2538,-0.23,5.37,36.78,0.0000,0.8190,1.1320,1.3580,2.3660,90,0.0231,0.0577,0.0000,0.0231,0.0577,0
9415,0.0639,0.0079,0.3391,0.0219,-0.0188,0.0390,-0.07,0.24,-1.18,0,3.637,0.826,-1.536,0.883,0.008,-0.017,0.999,0.000,0.000,0.000,0.3410,2,-1,-0.88,0.75,-1.28,0.0669,0.0391,0.3410,0.0000,0.0000,0.3000,0.2535,-0.31,5.74,35.40,0.0000,0.8050,1.1380,1.3580,2.3580,90,0.0231,0.0577,0.0000,0.0231,0.0577,0
9466,0.0659,0.0065,0.3414,0.0216,-0.0192,0.0408,-0.02,0.28,-1.14,0,3.632,-0.023,1.027,0.646,0.007,-0.021,0.999,0.000,0.000,0.000,0.3440,2,0,-0.76,0.76,-1.20,0.0722,0.0311,0.3429,0.0000,0.0000,0.3000,0.2528,-0.44,5.89,34.06,0.0000,0.8050,1.1380,1.3570,2.3580,90,0.0231,0.0577,0.0000,0.0231,0.0577,0
9517,0.0668,0.0028,0.3439,0.0189,-0.0245,0.0429,0.04,0.30,-1.11,0,3.637,-1.405,3.150,0.798,0.006,-0.017,0.996,0.000,0.000,0.000,0.3440,1,0,-0.73,0.71,-1.16,0.0722,0.0256,0.3451,0.0000,0.0000,0.3000,0.2521,-0.97,5.84,33.26,0.0000,0.8200,1.1390,1.3570,2.3580,76,0.0231,0.0577,0.0000,0.0231,0.0577,0
9569,0.0686,0.0034,0.3455,0.0181,-0.0212,0.0388,-0.01,0.19,-1.07,0,3.632,-0.170,1.327,0.037,0.008,-0.020,0.991,0.000,0.000,0.000,0.3500,1,0,-0.80,0.55,-1.12,0.0721,0.0222,0.3466,0.0000,0.0000,0.3000,0.2523,-0.77,5.93,32.25,0.0000,0.8200,1.1390,1.3610,2.3580,76,0.0231,0.0577,0.0000,0.0721,0.0252,0
9621,0.0669,0.0029,0.3487,0.0118,-0.0200,0.0426,-0.08,0.11,-1.06,0,3.637,-1.679,0.363,0.232,0.008,-0.015,0.993,0.000,0.000,0.000,0.3470,0,0,-0.81,0.48,-1.11,0.0720,0.0188,0.3493,0.0000,0.0000,0.3000,0.2512,-0.75,5.53,31.92,0.0000,0.8060,1.1370,1.3610,2.3510,76,0.0231,0.0577,0.0000,0.0721,0.0252,0
9673,0.0693,0.0028,0.3495,0.0142,-0.0176,0.0331,-0.14,0.15,-1.03,0,3.626,-2.819,-0.899,0.700,0.009,-0.016,0.997,0.000,0.000,0.000,0.3490,-1,0,-0.89,0.47,-1.10,0.0720,0.0156,0.3501,0.0000,0.0000,0.3000,0.2521,-0.64,5.80,31.02,0.0000,0.8060,1.1370,1.3620,2.3510,76,0.0231,0.0577,0.0000,0.0721,0.0252,0
9725,0.0690,0.0015,0.3503,0.0110,-0.0171,0.0261,-0.14,0.22,-1.03,0,3.632,0.058,2.306,-0.218,0.009,-0.018,0.994,0.000,0.000,0.000,0.3490,1,0,-1.16,0.51,-1.14,0.0721,0.0258,0.3514,0.0000,0.0000,0.3000,0.2527,-0.70,5.61,31.04,0.0000,0.8080,1.1340,1.3620,2.3520,76,0.0231,0.0577,0.0000,0.0721,0.0252,0
9777,0.0704,0.0001,0.3506,0.0107,-0.0170,0.0191,-0.18,0.17,-1.06,0,3.626,-0.386,2.810,-1.520,0.009,-0.018,0.999,0.000,0.000,0.000,0.3520,1,0,-1.14,0.39,-1.14,0.0721,0.0230,0.3518,0.0000,0.0000,0.3000,0.2534,-0.80,5.68,31.79,0.0000,0.8080,1.1340,1.3610,2.3520,76,0.0231,0.0577,0.0000,0.0721,0.0252,0
9827,0.0700,-0.0001,0.3518,0.0080,-0.0144,0.0199,-0.17,0.01,-1.11,0,3.632,0.546,1.039,-0.804,0.006,-0.015,0.995,0.000,0.000,0.000,0.3520,-1,0,-1.14,0.25,-1.21,0.0720,0.0201,0.3529,0.0000,0.0000,0.3000,0.2531,-0.68,5.53,33.36,0.0000,0.8170,1.1390,1.3610,2.3440,76,0.0231,0.0577,0.0000,0.0721,0.0252,0
9878,0.0692,0.0008,0.3526,0.0058,-0.0100,0.0185,-0.15,-0.05,-1.17,0,3.621,-0.048,1.056,-0.581,0.006,-0.021,0.998,0.000,0.000,0.000,0.3530,0,0,-1.15,0.20,-1.28,0.0721,0.0226,0.3536,0.0000,0.0000,0.3000,0.2531,-0.40,5.36,34.99,0.0000,0.8170,1.1390,1.3660,2.3440,76,0.0231,0.0577,0.0000,0.0721,0.0252,0
9930,0.0695,0.0004,0.3534,0.0064,-0.0087,0.0165,-0.14,-0.10,-1.21,0,3.632,0.428,-0.118,-1.698,0.007,-0.015,0.994,0.000,0.000,0.000,0.3540,1,-1,-1.15,0.15,-1.31,0.0722,0.0220,0.3543,0.0000,0.0000,0.3000,0.2532,-0.37,5.41,36.27,0.0000,0.8060,1.1410,1.3660,2.3460,76,0.0231,0.0577,0.0000,0.0721,0.0252,0
9981,0.0694,-0.0011,0.3542,0.0068,-0.0097,0.0146,-0.11,-0.10,-1.27,0,3.621,-0.787,-1.361,-1.735,0.006,-0.016,0.997,0.000,0.000,0.000,0.3530,0,0,-1.10,0.12,-1.36,0.0764,0.0181,0.3549,0.0000,0.0000,0.3000,0.2532,-0.53,5.43,38.12,0.0000,0.8060,1.1410,1.3580,2.3460,76,0.0231,0.0577,0.0000,0.0721,0.0252,0
10033,0.0704,0.0005,0.3541,0.0085,-0.0053,0.0088,-0.14,-0.05,-1.35,0,3.626,0.139,-2.787,-1.647,0.004,-0.018,0.997,0.000,0.000,0.000,0.3540,-3,0,-1.14,0.19,-1.45,0.0774,0.0170,0.3549,0.0000,0.0000,0.3000,0.2538,-0.20,5.57,40.48,0.0000,0.8240,1.1360,1.3580,2.3440,76,0.0231,0.0577,0.0000,0.0721,0.0252,0
10085,0.0713,0.0003,0.3543,0.0098,-0.0037,0.0068,-0.15,0.06,-1.44,0,3.616,0.752,-1.084,-1.934,0.009,-0.016,1.001,0.000,0.000,0.000,0.3540,0,-1,-1.26,0.36,-1.68,0.0763,0.0310,0.3551,0.0000,0.0000,0.3000,0.2540,-0.13,5.69,43.10,0.0000,0.8240,1.1360,1.3620,2.3440,76,0.0231,0.0577,0.0000,0.0721,0.0252,0
10136,0.0732,-0.0028,0.3544,0.0117,-0.0074,0.0058,-0.13,0.12,-1.52,0,3.626,1.418,-0.152,-0.294,0.011,-0.017,0.999,0.000,0.000,0.000,0.3550,-2,0,-1.21,0.40,-1.76,0.0789,0.0315,0.3552,0.0000,0.0000,0.3000,0.2541,-0.54,5.92,45.57,3.0720,0.8090,1.1390,1.3620,2.3440,97,0.0231,0.0577,0.0000,0.0721,0.0252,0
10188,0.0723,-0.0006,0.3549,0.0081,-0.0019,0.0067,-0.09,0.15,-1.57,0,3.621,0.769,2.544,-0.227,0.008,-0.016,1.004,0.000,0.000,0.000,0.3550,-2,2,-1.17,0.42,-1.82,0.0794,0.0370,0.3554,0.0000,0.0000,0.3000,0.2539,-0.11,5.69,47.24,3.0720,0.8090,1.1390,1.3610,2.3440,97,0.0231,0.0577,0.0000,0.0721,0.0252,0
10240,0.0711,-0.0001,0.3552,0.0040,-0.0002,0.0079,-0.01,0.10,-1.61,0,3.626,1.594,1.985,-0.134,0.011,-0.017,1.001,0.000,0.000,0.000,0.3530,0,0,-1.16,0.34,-1.88,0.0744,0.0432,0.3557,0.0000,0.0000,0.3000,0.2537,0.01,5.41,48.45,0.0000,0.8120,1.1350,1.3610,2.3440,97,0.0231,0.0577,0.0000,0.0721,0.0252,0
10291,0.0726,-0.0022,0.3545,0.0054,-0.0038,0.0036,0.08,0.06,-1.64,0,3.616,0.327,1.260,-0.257,0.010,-0.020,1.000,0.000,0.000,0.000,0.3550,0,1,-1.07,0.23,-1.89,0.0745,0.0464,0.3553,0.0000,0.0000,0.3000,0.2543,-0.33,5.58,49.07,0.0000,0.8120,1.1350,1.3560,2.3440,97,0.0231,0.0577,0.0000,0.0721,0.0252,0
10342,0.0702,-0.0010,0.3549,0.0006,-0.0024,0.0054,0.08,0.00,-1.64,0,3.626,-1.284,-0.352,0.747,0.004,-0.020,1.003,0.000,0.000,0.000,0.3570,0,0,-0.99,0.21,-1.85,0.0696,0.0416,0.3557,0.0000,0.0000,0.3000,0.2540,-0.17,5.18,49.29,0.0000,0.8130,1.1300,1.3560,2.3440,97,0.0231,0.0577,0.0000,0.0721,0.0252,0
10393,0.0702,-0.0007,0.3560,0.0005,-0.0026,0.0107,0.06,0.01,-1.64,0,3.626,1.081,-0.247,0.313,0.008,-0.018,1.004,0.000,0.000,0.000,0.3590,-2,0,-1.06,0.23,-1.81,0.0690,0.0433,0.3566,0.0000,0.0000,0.3000,0.2532,-0.15,5.19,49.19,0.0000,0.8130,1.1300,1.3500,2.3440,97,0.0231,0.0577,0.0000,0.0721,0.0252,0
10444,0.0700,0.0016,0.3578,0.0000,0.0009,0.0192,0.13,0.03,-1.64,0,3.626,0.799,0.065,0.890,0.009,-0.017,1.003,0.000,0.000,0.000,0.3580,0,2,-1.04,0.23,-1.83,0.0699,0.0493,0.3579,0.0000,0.0000,0.3000,0.2520,0.19,5.18,49.18,0.0000,0.8080,1.1400,1.3500,2.3400,97,0.0231,0.0577,0.0000,0.0721,0.0252,0
10496,0.0713,-0.0028,0.3586,0.0017,-0.0077,0.0195,0.19,0.01,-1.59,0,3.626,-0.071,-1.835,1.210,0.008,-0.020,0.997,0.000,0.000,0.000,0.3580,0,-1,-0.98,0.26,-1.78,0.0654,0.0505,0.3588,0.0000,0.0000,0.3000,0.2518,-0.56,5.36,47.57,0.0000,0.8080,1.1400,1.3560,2.3400,97,0.0231,0.0577,0.0000,0.0721,0.0252,0
10546,0.0732,-0.0028,0.3590,0.0048,-0.0086,0.0165,0.19,0.05,-1.53,0,3.626,-0.709,-1.670,0.124,0.006,-0.014,0.999,0.000,0.000,0.000,0.3590,0,0,-0.98,0.33,-1.70,0.0676,0.0510,0.3593,0.0000,0.0000,0.3000,0.2521,-0.60,5.65,45.88,0.0000,0.8100,1.1440,1.3560,2.3450,97,0.0231,0.0577,0.0000,0.0721,0.0252,0
10597,0.0718,-0.0015,0.3596,0.0014,-0.0070,0.0150,0.12,0.12,-1.50,0,3.621,-1.345,0.221,1.017,0.009,-0.020,0.995,0.000,0.000,0.000,0.3560,-1,0,-1.01,0.41,-1.69,0.0673,0.0529,0.3599,0.0000,0.0000,0.3000,0.2521,-0.43,5.37,45.00,0.0000,0.8100,1.1440,1.3550,2.3450,97,0.0231,0.0577,0.0000,0.0721,0.0252,0
10648,0.0728,-0.0022,0.3585,0.0019,-0.0084,0.0042,0.09,0.13,-1.43,0,3.626,-0.596,-0.961,1.232,0.006,-0.018,0.997,0.000,0.000,0.000,0.3570,1,-1,-1.08,0.39,-1.64,0.0678,0.0546,0.3592,0.0000,0.0000,0.3000,0.2535,-0.55,5.45,43.00,0.0000,0.8100,1.1380,1.3550,2.3460,97,0.0231,0.0577,0.0000,0.0721,0.0252,0
10699,0.0724,-0.0032,0.3579,-0.0000,-0.0101,-0.0018,0.03,0.17,-1.36,0,3.616,-1.195,0.228,1.457,0.004,-0.023,1.000,0.000,0.000,0.000,0.3550,0,0,-1.08,0.42,-1.54,0.0700,0.0528,0.3589,0.0000,0.0000,0.3000,0.2542,-0.70,5.31,40.79,0.0000,0.8100,1.1380,1.3550,2.3460,97,0.0231,0.0577,0.0000,0.0721,0.0252,0
10751,0.0723,-0.0028,0.3564,-0.0016,-0.0088,-0.0092,-0.03,0.18,-1.29,0,3.621,-0.897,1.472,1.383,0.009,-0.022,1.002,0.000,0.000,0.000,0.3570,0,0,-1.14,0.41,-1.47,0.0702,0.0538,0.3579,0.0000,0.0000,0.3000,0.2553,-0.61,5.21,38.74,0.0000,0.8060,1.1400,1.3550,2.3420,89,0.0231,0.0577,0.0000,0.0721,0.0252,0
10802,0.0688,-0.0010,0.3564,-0.0090,-0.0047,-0.0069,-0.11,0.16,-1.21,0,3.616,-0.057,1.832,1.680,0.006,-0.018,1.006,0.000,0.000,0.000,0.3570,0,0,-1.19,0.33,-1.39,0.0705,0.0549,0.3577,0.0000,0.0000,0.3000,0.2550,-0.28,4.60,36.23,0.0000,0.8060,1.1400,1.3600,2.3420,89,0.0231,0.0577,0.0000,0.0721,0.0252,0
10853,0.0692,-0.0010,0.3565,-0.0088,-0.0034,-0.0015,-0.08,0.10,-1.12,0,3.621,0.371,1.534,1.055,0.006,-0.017,1.006,0.000,0.000,0.000,0.3580,-5,0,-1.19,0.24,-1.31,0.0708,0.0560,0.3578,0.0000,0.0000,0.3000,0.2544,-0.21,4.65,33.72,0.0000,0.8060,1.1450,1.3600,2.3370,89,0.0231,0.0577,0.0000,0.0721,0.0252,0
10904,0.0688,-0.0013,0.3572,-0.0092,-0.0029,0.0044,-0.04,0.01,-1.07,0,3.616,0.340,1.371,0.694,0.007,-0.018,1.005,0.000,0.000,0.000,0.3590,0,0,-1.28,0.17,-1.36,0.0701,0.0730,0.3580,0.0000,0.0000,0.3000,0.2537,-0.21,4.62,32.11,0.0000,0.8060,1.1450,1.3600,2.3370,89,0.0231,0.0577,0.0000,0.0721,0.0252,0
10955,0.0672,-0.0014,0.3582,-0.0111,-0.0026,0.0102,-0.02,-0.06,-1.03,0,3.621,0.580,1.402,0.168,0.009,-0.016,1.001,0.000,0.000,0.000,0.3600,0,0,-1.26,0.10,-1.33,0.0703,0.0769,0.3588,0.0000,0.0000,0.3000,0.2528,-0.20,4.42,30.90,0.0000,0.8190,1.1360,1.3600,2.3380,89,0.0231,0.0577,0.0000,0.0721,0.0252,0
11006,0.0659,-0.0027,0.3594,-0.0118,-0.0044,0.0146,-0.00,-0.12,-1.01,0,3.621,1.007,1.707,0.326,0.007,-0.018,1.003,0.000,0.000,0.000,0.3580,-2,0,-1.23,0.03,-1.32,0.0707,0.0810,0.3597,0.0000,0.0000,0.3000,0.2521,-0.39,4.31,30.25,0.0000,0.8190,1.1360,1.3620,2.3380,89,0.0231,0.0577,0.0000,0.0721,0.0252,0
11057,0.0665,-0.0030,0.3593,-0.0086,-0.0047,0.0108,0.04,-0.20,-0.99,0,3.621,-0.255,0.398,0.800,0.006,-0.016,1.000,0.000,0.000,0.000,0.3630,-1,-1,-1.14,-0.05,-1.26,0.0699,0.0807,0.3601,0.0000,0.0000,0.3000,0.2526,-0.42,4.50,29.71,0.0000,0.8040,1.1390,1.3620,2.3410,89,0.0231,0.0577,0.0000,0.0721,0.0252,0
11109,0.0658,-0.0031,0.3614,-0.0072,-0.0049,0.0185,0.06,-0.24,-0.97,0,3.621,-0.349,-0.253,0.453,0.008,-0.017,1.001,0.000,0.000,0.000,0.3590,-1,0,-1.16,-0.08,-1.22,0.0715,0.0842,0.3617,0.0000,0.0000,0.3000,0.2513,-0.44,4.55,29.13,0.0000,0.8040,1.1390,1.3580,2.3410,89,0.0231,0.0577,0.0000,0.0721,0.0252,0
11159,0.0648,-0.0026,0.3609,-0.0064,-0.0041,0.0110,0.03,-0.24,-0.96,0,3.621,0.278,0.486,-0.029,0.010,-0.016,1.000,0.000,0.000,0.000,0.3590,-7,0,-1.17,-0.07,-1.20,0.0721,0.0875,0.3616,0.0000,0.0000,0.3000,0.2522,-0.37,4.49,28.69,0.0000,0.8150,1.1360,1.3580,2.3360,89,0.0231,0.0577,0.0000,0.0721,0.0252,0
11211,0.0648,-0.0015,0.3604,-0.0038,-0.0018,0.0050,0.01,-0.24,-0.96,0,3.616,-0.752,-0.629,-0.214,0.007,-0.019,0.998,0.000,0.000,0.000,0.3630,0,0,-1.26,-0.09,-1.34,0.0731,0.1014,0.3611,0.0000,0.0000,0.3000,0.2530,-0.18,4.61,28.71,0.0000,0.8150,1.1360,1.3620,2.3360,89,0.0231,0.0577,0.0000,0.0721,0.0252,0
11263,0.0635,-0.0035,0.3618,-0.0038,-0.0054,0.0099,0.04,-0.21,-0.99,0,3.621,-0.800,-0.816,0.473,0.006,-0.018,0.996,0.000,0.000,0.000,0.3600,1,0,-1.30,-0.05,-1.36,0.0745,0.1075,0.3621,0.0000,0.0000,0.3000,0.2522,-0.50,4.53,29.58,0.0000,0.8000,1.1370,1.3620,2.3320,89,0.0231,0.0577,0.0000,0.0721,0.0252,0
11314,0.0640,-0.0123,0.3613,-0.0009,-0.0210,0.0040,0.06,-0.17,-0.99,0,3.616,-4.668,-1.052,0.192,0.008,-0.013,1.003,0.000,0.000,0.000,0.3590,0,-1,-1.21,0.01,-1.14,0.0727,0.0981,0.3628,0.0000,0.0000,0.3000,0.2529,-1.90,4.70,29.82,0.0000,0.8000,1.1370,1.3610,2.3320,89,0.0231,0.0577,0.0000,0.0721,0.0252,0
11365,0.0646,-0.0126,0.3604,0.0013,-0.0199,-0.0021,-0.08,-0.08,-1.03,0,3.616,-4.688,-0.176,-0.526,0.007,-0.015,0.999,0.000,0.000,0.000,0.3590,0,0,-1.43,0.05,-1.10,0.0751,0.0994,0.3622,0.0000,0.0000,0.3000,0.2537,-1.87,4.83,30.77,0.0000,0.8170,1.1390,1.3610,2.3310,89,0.0231,0.0577,0.0000,0.0721,0.0252,0
11416,0.0645,-0.0142,0.3596,0.0017,-0.0199,-0.0055,-0.27,-0.08,-1.04,0,3.611,0.553,-0.425,0.240,0.009,-0.020,1.000,0.000,0.000,0.000,0.3610,-1,0,-1.67,0.06,-1.13,0.0766,0.1023,0.3616,0.0000,0.0000,0.3000,0.2542,-1.98,4.83,31.11,0.0000,0.8170,1.1390,1.3620,2.3310,89,0.0231,0.0577,0.0000,0.0721,0.0252,0
11467,0.0658,-0.0149,0.3601,0.0044,-0.0170,-0.0024,-0.31,-0.06,-1.05,0,3.616,-1.759,0.190,-1.396,0.009,-0.013,1.002,0.000,0.000,0.000,0.3590,0,0,-1.62,0.11,-1.11,0.0749,0.1027,0.3618,0.0000,0.0000,0.3000,0.2538,-1.90,5.06,31.48,0.0000,0.8050,1.1450,1.3620,2.3410,89,0.0231,0.0577,0.0000,0.0721,0.0252,0
11518,0.0657,-0.0157,0.3595,0.0045,-0.0142,-0.0037,-0.40,-0.05,-1.09,0,3.611,-1.883,0.281,0.404,0.007,-0.016,1.005,0.000,0.000,0.000,0.3590,1,0,-1.71,0.10,-1.18,0.0761,0.1057,0.3612,0.0000,0.0000,0.3000,0.2541,-1.81,5.06,32.82,0.0000,0.8050,1.1450,1.3620,2.3410,89,0.0231,0.0577,0.0000,0.0721,0.0252,0
11570,0.0658,-0.0146,0.3592,0.0047,-0.0076,-0.0031,-0.51,-0.06,-1.09,0,3.616,0.441,-0.966,0.525,0.008,-0.015,1.004,0.000,0.000,0.000,0.3620,0,-1,-1.73,0.11,-1.07,0.0745,0.0988,0.3611,0.3189,-0.0026,0.3000,0.2541,-4.87,-17.50,32.66,0.0000,0.8180,1.1450,1.3620,2.3390,89,0.0231,0.0577,0.0000,0.0721,0.0252,0
11620,0.0678,-0.0136,0.3604,0.0086,-0.0011,0.0048,-0.44,-0.04,-1.10,0,3.616,1.407,0.300,-0.576,0.010,-0.012,1.006,0.000,0.000,0.000,0.3590,0,0,-1.70,0.14,-1.02,0.0769,0.0994,0.3618,0.3189,-0.0026,0.3000,0.2530,-4.50,-17.27,32.92,0.0000,0.8180,1.1450,1.3630,2.3390,89,0.0231,0.0577,0.0000,0.0721,0.0252,0
11672,0.0681,-0.0125,0.3599,0.0087,0.0045,0.0029,-0.33,-0.02,-1.13,0,3.616,5.278,-1.902,-1.238,0.009,-0.017,1.005,0.000,0.000,0.000,0.3610,0,0,-1.63,0.13,-1.05,0.0784,0.1014,0.3615,0.3189,-0.0026,0.3000,0.2533,-4.14,-17.23,33.98,0.0000,0.8060,1.1410,1.3630,2.3420,89,0.0231,0.0577,0.0000,0.0721,0.0252,0
11723,0.0679,-0.0107,0.3606,0.0077,0.0096,0.0074,-0.12,0.01,-1.16,0,3.616,2.921,0.477,1.034,0.007,-0.016,1.007,0.000,0.000,0.000,0.3600,0,0,-1.35,0.23,-1.11,0.0801,0.1036,0.3619,0.3189,-0.0026,0.3000,0.2526,-3.78,-17.33,34.89,0.0000,0.8060,1.1410,1.3590,2.3420,89,0.0231,0.0577,0.0000,0.0721,0.0252,0
11774,0.0683,-0.0077,0.3606,0.0074,0.0153,0.0082,-0.02,-0.04,-1.11,0,3.616,3.303,-0.198,1.192,0.006,-0.019,1.003,0.000,0.000,0.000,0.3600,-2,0,-1.20,0.20,-1.06,0.0818,0.1061,0.3621,0.3189,-0.0026,0.3000,0.2525,-3.27,-17.33,33.34,0.0000,0.8200,1.1310,1.3590,2.3320,89,0.0231,0.0577,0.0000,0.0721,0.0252,0
11826,0.0693,-0.0079,0.3607,0.0090,0.0135,0.0077,0.13,-0.03,-1.08,0,3.611,2.464,-0.279,-0.277,0.008,-0.018,1.000,0.000,0.000,0.000,0.3620,-2,0,-1.01,0.26,-1.03,0.0757,0.1055,0.3623,0.3189,-0.0026,0.3000,0.2526,-3.38,-17.19,32.46,0.0000,0.8200,1.1310,1.3630,2.3320,89,0.0231,0.0577,0.0000,0.0721,0.0252,0
11877,0.0690,-0.0038,0.3616,0.0077,0.0185,0.0101,0.25,0.02,-1.08,0,3.616,-0.984,-0.048,1.842,0.006,-0.018,0.994,0.000,0.000,0.000,0.3580,0,0,-0.90,0.28,-1.05,0.0761,0.1092,0.3629,0.3189,-0.0026,0.3000,0.2521,-2.84,-17.30,32.45,0.0000,0.8040,1.1300,1.3630,2.3410,82,0.0231,0.0577,0.0000,0.0721,0.0252,0
11928,0.0693,-0.0031,0.3603,0.0075,0.0167,0.0005,0.30,0.01,-1.00,0,3.611,1.748,2.509,1.684,0.004,-0.015,0.999,0.000,0.000,0.000,0.3600,1,0,-0.95,0.28,-0.96,0.0765,0.1114,0.3618,0.3189,-0.0026,0.3000,0.2534,-2.86,-17.21,29.98,0.0000,0.8040,1.1300,1.3600,2.3410,82,0.0231,0.0577,0.0000,0.0721,0.0252,0
11980,0.0700,-0.0024,0.3601,0.0079,0.0139,-0.0012,0.38,-0.04,-0.92,0,3.611,-0.581,-0.386,1.454,0.008,-0.016,1.001,0.000,0.000,0.000,0.3580,0,0,-0.81,0.16,-0.84,0.0762,0.1076,0.3617,0.3189,-0.0026,0.3000,0.2536,-2.94,-17.14,27.64,0.0000,0.8230,1.1350,1.3600,2.3330,82,0.0231,0.0577,0.0000,0.0721,0.0252,0
12031,0.0704,-0.0018,0.3591,0.0082,0.0107,-0.0066,0.36,-0.03,-0.87,0,3.611,-1.955,-1.417,0.930,0.006,-0.015,0.999,0.000,0.000,0.000,0.3610,4,0,-0.84,0.18,-0.76,0.0766,0.1084,0.3608,0.3189,-0.0026,0.3000,0.2544,-3.05,-17.06,26.10,0.0000,0.8230,1.1350,1.3640,2.3330,82,0.0231,0.0577,0.0000,0.0721,0.0252,0
12082,0.0699,-0.0027,0.3597,0.0067,0.0050,-0.0019,0.28,0.04,-0.85,0,3.611,-3.554,0.589,0.003,0.006,-0.020,0.996,0.000,0.000,0.000,0.3620,0,0,-0.83,0.25,-0.62,0.0760,0.0961,0.3610,0.3189,-0.0026,0.3000,0.2538,-3.40,-17.19,25.45,0.0000,0.8060,1.1350,1.3640,2.3410,82,0.0231,0.0577,0.0000,0.0721,0.0252,0
12133,0.0714,-0.0003,0.3607,0.0085,0.0067,0.0027,0.15,0.06,-0.84,0,3.611,-1.050,0.217,1.242,0.011,-0.014,0.998,0.000,0.000,0.000,0.3600,0,0,-1.01,0.22,-0.62,0.0763,0.0939,0.3614,0.3189,-0.0026,0.3000,0.2531,-3.15,-17.06,25.32,0.0000,0.8060,1.1350,1.3640,2.3410,44,0.0231,0.0577,0.0000,0.0721,0.0252,0
12184,0.0710,-0.0030,0.3605,0.0064,0.0000,0.0003,0.08,0.12,-0.82,0,3.616,-0.994,-1.754,0.034,0.007,-0.014,1.000,0.000,0.000,0.000,0.3610,1,-1,-1.06,0.21,-0.56,0.0768,0.0917,0.3610,0.3189,-0.0026,0.3000,0.2534,-3.67,-17.17,24.54,0.0000,0.8180,1.1270,1.3640,2.3380,44,0.0231,0.0577,0.0000,0.0721,0.0252,0
12236,0.0726,-0.0044,0.3607,0.0077,-0.0032,0.0012,0.02,0.21,-0.83,0,3.611,-2.592,-0.164,0.439,0.008,-0.016,0.998,0.000,0.000,0.000,0.3610,1,0,-1.13,0.29,-0.57,0.0792,0.0921,0.3610,0.3189,-0.0026,0.3000,0.2532,-3.93,-17.02,25.02,0.0000,0.8180,1.1270,1.3720,2.3380,44,0.0231,0.0577,0.0000,0.0721,0.0252,0
12286,0.0729,-0.0060,0.3609,0.0060,-0.0059,0.0014,-0.10,0.21,-0.82,0,3.611,-0.161,2.284,1.696,0.007,-0.018,0.996,0.000,0.000,0.000,0.3600,0,0,-1.26,0.30,-0.54,0.0798,0.0899,0.3610,0.3189,-0.0026,0.3000,0.2532,-4.17,-17.08,24.62,0.0000,0.7990,1.1300,1.3720,2.3390,44,0.0231,0.0577,0.0000,0.0721,0.0252,0
12337,0.0712,-0.0060,0.3605,0.0007,-0.0046,-0.0020,-0.15,0.16,-0.77,0,3.611,-1.151,-0.770,-0.429,0.011,-0.016,0.997,0.000,0.000,0.000,0.3570,1,0,-1.27,0.18,-0.46,0.0808,0.0883,0.3605,0.3189,-0.0026,0.3000,0.2536,-4.11,-17.41,23.13,0.0000,0.7990,1.1300,1.3680,2.3390,44,0.0231,0.0577,0.0000,0.0721,0.0252,0
12388,0.0700,-0.0052,0.3589,-0.0027,-0.0016,-0.0110,-0.18,0.12,-0.73,0,3.611,0.694,1.178,2.013,0.008,-0.017,0.998,0.000,0.000,0.000,0.3580,0,0,-1.32,0.24,-0.48,0.0800,0.0862,0.3592,0.3189,-0.0026,0.3000,0.2549,-3.88,-17.56,22.04,0.0000,0.8000,1.1280,1.3680,2.3410,44,0.0231,0.0577,0.0000,0.0721,0.0252,0
12440,0.0686,-0.0070,0.3581,-0.0058,-0.0031,-0.0138,-0.14,0.11,-0.68,0,3.605,0.316,3.141,0.550,0.008,-0.017,0.994,0.000,0.000,0.000,0.3570,2,1,-1.29,0.18,-0.38,0.0809,0.0848,0.3583,0.3189,-0.0026,0.3000,0.2553,-4.08,-17.76,20.29,0.0000,0.8000,1.1280,1.3690,2.3410,44,0.0231,0.0577,0.0000,0.0721,0.0252,0
12491,0.0654,-0.0069,0.3571,-0.0115,-0.0014,-0.0167,-0.16,-0.05,-0.62,0,3.611,-0.903,2.737,1.340,0.006,-0.015,1.002,0.000,0.000,0.000,0.3540,0,0,-1.24,0.05,-0.34,0.0769,0.0795,0.3573,0.3189,-0.0026,0.3000,0.2558,-3.98,-18.19,18.66,0.0000,0.7980,1.1330,1.3690,2.3440,44,0.0231,0.0577,0.0000,0.0721,0.0252,0
12542,0.0635,-0.0067,0.3551,-0.0135,0.0003,-0.0226,-0.19,-0.15,-0.59,0,3.605,-1.461,0.314,0.197,0.010,-0.017,1.004,0.000,0.000,0.000,0.3560,1,0,-1.28,-0.09,-0.28,0.0769,0.0775,0.3556,0.3189,-0.0026,0.3000,0.2568,-3.87,-18.34,17.58,0.0000,0.7980,1.1330,1.3700,2.3440,44,0.0231,0.0577,0.0000,0.0721,0.0252,0
12593,0.0610,-0.0066,0.3548,-0.0153,0.0018,-0.0179,-0.19,-0.19,-0.58,0,3.611,1.971,-0.140,-0.065,0.005,-0.015,1.004,0.000,0.000,0.000,0.3530,0,0,-1.36,-0.10,-0.27,0.0767,0.0757,0.3550,0.3189,-0.0026,0.3000,0.2564,-3.80,-18.61,17.45,0.0000,0.8100,1.1360,1.3700,2.3450,44,0.0231,0.0577,0.0000,0.0721,0.0252,0
12644,0.0589,-0.0054,0.3534,-0.0160,0.0051,-0.0183,-0.11,-0.19,-0.58,0,3.605,1.570,1.744,-0.148,0.008,-0.018,1.003,0.000,0.000,0.000,0.3530,0,0,-1.26,-0.09,-0.27,0.0771,0.0742,0.3538,0.3189,-0.0026,0.3000,0.2567,-3.55,-18.76,17.28,0.0000,0.8100,1.1360,1.3710,2.3450,44,0.0231,0.0577,0.0000,0.0721,0.0252,0
12695,0.0588,-0.0047,0.3527,-0.0132,0.0069,-0.0159,-0.03,-0.24,-0.58,0,3.611,1.817,0.603,0.721,0.006,-0.017,1.007,0.000,0.000,0.000,0.3540,1,0,-1.18,-0.18,-0.28,0.0777,0.0727,0.3530,0.3189,-0.0026,0.3000,0.2566,-3.41,-18.66,17.32,0.0000,0.7970,1.1320,1.3710,2.3390,44,0.0231,0.0577,0.0000,0.0721,0.0252,0
12746,0.0588,-0.0035,0.3527,-0.0100,0.0087,-0.0098,0.04,-0.27,-0.56,0,3.605,1.274,-0.450,0.121,0.008,-0.021,1.001,0.000,0.000,0.000,0.3520,0,0,-1.09,-0.20,-0.26,0.0758,0.0719,0.3529,0.3189,-0.0026,0.3000,0.2559,-3.24,-18.57,16.90,0.0000,0.7970,1.1320,1.3670,2.3390,44,0.0231,0.0577,0.0000,0.0721,0.0252,0
12797,0.0574,-0.0024,0.3521,-0.0093,0.0096,-0.0085,0.08,-0.26,-0.57,0,3.611,1.444,0.106,0.100,0.005,-0.015,1.002,0.000,0.000,0.000,0.3470,1,0,-1.02,-0.17,-0.25,0.0764,0.0706,0.3523,0.3189,-0.0026,0.3000,0.2559,-3.13,-18.63,16.98,0.0000,0.8150,1.1350,1.3670,2.3440,44,0.0231,0.0577,0.0000,0.0721,0.0252,0
12849,0.0578,-0.0046,0.3496,-0.0058,0.0045,-0.0175,0.13,-0.27,-0.57,0,3.600,2.522,-1.538,0.206,0.010,-0.020,1.001,0.000,0.000,0.000,0.3520,3,0,-0.94,-0.17,-0.24,0.0760,0.0685,0.3503,0.3189,-0.0026,0.3000,0.2573,-3.51,-18.37,17.08,0.0000,0.8150,1.1350,1.3670,2.3440,44,0.0231,0.0577,0.0000,0.0721,0.0252,0
12899,0.0573,-0.0064,0.3501,-0.0041,-0.0002,-0.0091,0.20,-0.21,-0.57,0,3.605,-0.239,-0.303,1.546,0.004,-0.014,1.003,0.000,0.000,0.000,0.3540,-3,0,-0.78,-0.08,-0.18,0.0763,0.0630,0.3503,0.3189,-0.0026,0.3000,0.2563,-3.88,-18.40,17.15,0.0000,0.8000,1.1290,1.3670,2.3460,44,0.0231,0.0577,0.0000,0.0721,0.0252,0
12951,0.0586,-0.0010,0.3516,0.0004,0.0071,0.0013,0.22,-0.22,-0.51,0,3.605,1.093,-0.604,1.577,0.008,-0.016,1.001,0.000,0.000,0.000,0.3480,5,0,-0.84,-0.07,-0.17,0.0769,0.0670,0.3512,0.3189,-0.0026,0.3000,0.2549,-3.16,-18.21,15.42,0.0000,0.8000,1.1290,1.3610,2.3460,44,0.0231,0.0577,0.0000,0.0721,0.0252,0
13002,0.0585,-0.0026,0.3500,0.0019,0.0019,-0.0066,0.24,-0.21,-0.42,0,3.605,-0.662,-3.210,2.259,0.007,-0.012,0.999,0.000,0.000,0.000,0.3500,4,0,-0.71,-0.03,0.01,0.0772,0.0562,0.3500,0.3189,-0.0026,0.3000,0.2561,-3.51,-18.08,12.51,3.0710,0.8110,1.1300,1.3610,2.3510,44,0.0231,0.0577,0.0000,0.0721,0.0252,0
13054,0.0577,-0.0040,0.3497,0.0020,-0.0029,-0.0073,0.23,-0.10,-0.32,0,3.600,-3.309,-2.223,2.178,0.001,-0.013,1.000,0.000,0.000,0.000,0.3480,0,-1,-0.69,0.14,0.20,0.0775,0.0460,0.3495,0.3189,-0.0026,0.3000,0.2562,-3.84,-18.12,9.55,3.0710,0.8110,1.1300,1.3660,2.3510,52,0.0231,0.0577,0.0000,0.0721,0.0252,0
13106,0.0588,0.0045,0.3487,0.0046,0.0109,-0.0103,0.05,0.04,-0.20,0,3.605,-0.332,-0.214,2.130,0.005,-0.014,1.001,0.000,0.000,0.000,0.3500,0,0,-0.89,0.24,0.28,0.0803,0.0446,0.3488,0.3189,-0.0026,0.3000,0.2567,-2.55,-17.90,6.15,0.0000,0.7960,1.1330,1.3660,2.3510,52,0.0231,0.0577,0.0000,0.0721,0.0252,0
13157,0.0596,0.0021,0.3489,0.0053,0.0052,-0.0064,0.05,0.11,-0.09,0,3.600,0.865,-1.150,2.909,0.006,-0.015,1.004,0.000,0.000,0.000,0.3480,-2,0,-0.91,0.25,0.39,0.0816,0.0407,0.3488,0.3189,-0.0026,0.3000,0.2562,-3.01,-17.86,2.67,0.0000,0.7960,1.1330,1.3740,2.3510,52,0.0231,0.0577,0.0000,0.0721,0.0252,0
13208,0.0590,0.0042,0.3483,0.0028,0.0082,-0.0067,0.11,0.20,0.04,0,3.605,0.546,0.206,2.095,0.006,-0.016,1.000,0.000,0.000,0.000,0.3460,0,0,-0.98,0.32,0.44,0.0797,0.0547,0.3488,0.3189,-0.0026,0.3000,0.2564,-2.71,-18.00,-1.25,0.0000,0.8050,1.1300,1.3740,2.3550,52,0.0231,0.0577,0.0000,0.0721,0.0252,0
13259,0.0589,0.0031,0.3471,0.0008,0.0047,-0.0105,0.10,0.23,0.17,0,3.600,0.200,2.011,2.810,0.003,-0.019,1.003,0.000,0.000,0.000,0.3470,1,1,-0.95,0.31,0.54,0.0805,0.0542,0.3477,0.3189,-0.0026,0.3000,0.2570,-2.95,-18.05,-5.11,0.0000,0.8050,1.1300,1.3800,2.3550,52,0.0231,0.0577,0.0000,0.0721,0.0252,0
13310,0.0595,0.0028,0.3467,-0.0000,0.0028,-0.0079,0.18,0.14,0.30,0,3.605,0.847,1.251,2.485,0.007,-0.020,1.004,0.000,0.000,0.000,0.3480,0,0,-0.93,0.24,0.71,0.0759,0.0510,0.3473,0.3189,-0.0026,0.3000,0.2568,-3.07,-18.07,-8.96,0.0000,0.7940,1.1320,1.3800,2.3470,52,0.0231,0.0577,0.0000,0.0721,0.0252,0
13362,0.0585,0.0026,0.3470,-0.0032,0.0008,-0.0028,0.21,0.04,0.41,0,3.600,-0.166,3.035,1.594,0.006,-0.020,0.999,0.000,0.000,0.000,0.3430,1,0,-0.88,0.17,0.84,0.0756,0.0498,0.3473,0.3189,-0.0026,0.3000,0.2562,-3.18,-18.32,-12.33,0.0000,0.7940,1.1320,1.3840,2.3470,52,0.0231,0.0577,0.0000,0.0721,0.0252,0
13413,0.0568,0.0029,0.3451,-0.0064,-0.0008,-0.0111,0.19,-0.10,0.49,0,3.605,0.455,2.013,1.455,0.007,-0.020,1.005,0.000,0.000,0.000,0.3480,0,0,-0.89,0.01,0.92,0.0759,0.0476,0.3458,0.3189,-0.0026,0.3000,0.2574,-3.23,-18.49,-14.78,0.0000,0.8070,1.1280,1.3840,2.3510,52,0.0231,0.0577,0.0000,0.0721,0.0252,0
13464,0.0554,0.0042,0.3460,-0.0077,0.0002,-0.0028,0.21,-0.18,0.57,0,3.600,0.586,2.315,1.746,0.006,-0.015,1.001,0.000,0.000,0.000,0.3450,2,0,-0.86,-0.09,0.99,0.0760,0.0461,0.3463,0.3189,-0.0026,0.3000,0.2564,-3.09,-18.71,-17.12,0.0000,0.8070,1.1280,1.3830,2.3510,52,0.0231,0.0577,0.0000,0.0721,0.0252,0
13515,0.0548,0.0029,0.3455,-0.0066,-0.0039,-0.0037,0.18,-0.24,0.68,0,3.605,3.113,-0.427,2.071,0.008,-0.016,0.998,0.000,0.000,0.000,0.3440,1,0,-0.81,-0.21,1.10,0.0758,0.0408,0.3458,0.3189,-0.0026,0.3000,0.2566,-3.38,-18.69,-20.37,0.0000,0.7910,1.1330,1.3830,2.3560,52,0.0231,0.0577,0.0000,0.0721,0.0252,0
13566,0.0533,0.0012,0.3447,-0.0068,-0.0082,-0.0075,0.21,-0.20,0.82,0,3.600,-2.753,-3.275,2.703,0.009,-0.015,1.004,0.000,0.000,0.000,0.3420,0,0,-0.64,-0.18,1.21,0.0761,0.0379,0.3450,0.3189,-0.0026,0.3000,0.2571,-3.70,-18.76,-24.46,0.0000,0.7910,1.1330,1.3850,2.3560,52,0.0231,0.0577,0.0000,0.0721,0.0252,0
13617,0.0529,0.0019,0.3432,-0.0053,-0.0078,-0.0135,0.11,-0.14,0.92,0,3.600,-4.258,-3.932,2.615,0.006,-0.020,1.000,0.000,0.000,0.000,0.3420,0,0,-0.78,-0.02,1.35,0.0768,0.0353,0.3439,0.3189,-0.0026,0.3000,0.2581,-3.62,-18.67,-27.74,0.0000,0.8040,1.1330,1.3850,2.3590,52,0.0231,0.0577,0.0000,0.0721,0.0252,0
13668,0.0528,-0.0018,0.3422,-0.0039,-0.0145,-0.0135,0.01,-0.11,1.04,0,3.595,-3.244,1.518,2.379,0.009,-0.014,1.002,0.000,0.000,0.000,0.3460,0,0,-1.00,0.18,1.49,0.0778,0.0326,0.3430,0.3189,-0.0026,0.3000,0.2582,-4.20,-18.60,-31.13,0.0000,0.8040,1.1330,1.3890,2.3590,52,0.0231,0.0577,0.0000,0.0721,0.0252,0
13719,0.0516,-0.0055,0.3435,-0.0047,-0.0195,-0.0032,-0.13,-0.19,1.15,0,3.605,-1.896,-1.739,1.509,0.009,-0.018,1.001,0.000,0.000,0.000,0.3440,-1,0,-1.17,0.10,1.61,0.0788,0.0300,0.3436,0.3189,-0.0026,0.3000,0.2569,-4.73,-18.81,-34.35,0.0000,0.7880,1.1350,1.3890,2.3520,52,0.0231,0.0577,0.0000,0.0721,0.0252,0
13770,0.0514,-0.0086,0.3437,-0.0033,-0.0223,-0.0010,-0.20,-0.14,1.26,0,3.600,-5.899,-3.378,3.444,0.007,-0.019,1.004,0.000,0.000,0.000,0.3400,1,0,-1.36,0.22,1.62,0.0745,0.0424,0.3437,0.3189,-0.0026,0.3000,0.2566,-5.09,-18.79,-37.90,0.0000,0.7880,1.1350,1.3900,2.3520,52,0.0231,0.0577,0.0000,0.0721,0.0252,0
13821,0.0520,-0.0097,0.3420,-0.0011,-0.0203,-0.0079,-0.44,0.01,1.41,0,3.605,-1.264,1.401,4.203,0.003,-0.015,1.000,0.000,0.000,0.000,0.3440,1,0,-1.65,0.39,1.81,0.0747,0.0415,0.3426,0.3189,-0.0026,0.3000,0.2577,-5.05,-18.58,-42.24,0.0000,0.8020,1.1420,1.3900,2.3580,52,0.0231,0.0577,0.0000,0.0721,0.0252,0
13872,0.0514,-0.0122,0.3426,-0.0023,-0.0195,-0.0030,-0.52,-0.03,1.58,0,3.600,2.327,1.080,2.417,0.007,-0.018,0.999,0.000,0.000,0.000,0.3410,-3,1,-1.70,0.31,2.02,0.0749,0.0404,0.3429,0.3189,-0.0026,0.3000,0.2570,-5.21,-18.72,-47.48,0.0000,0.8020,1.1420,1.4070,2.3580,29,0.0231,0.0577,0.0000,0.0721,0.0252,0
13923,0.0490,-0.0091,0.3418,-0.0066,-0.0070,-0.0066,-0.46,-0.05,1.74,0,3.600,0.678,-0.862,3.320,0.009,-0.019,1.003,0.000,0.000,0.000,0.3420,1,1,-1.62,0.27,2.12,0.0733,0.0452,0.3420,0.3189,-0.0026,0.3000,0.2576,-4.38,-19.03,-52.12,0.0000,0.7880,1.1400,1.4070,2.3590,29,0.0231,0.0577,0.0000,0.0721,0.0252,0
13975,0.0483,-0.0133,0.3416,-0.0071,-0.0103,-0.0053,-0.41,-0.05,1.89,0,3.595,1.828,-0.427,3.499,0.006,-0.018,1.000,0.000,0.000,0.000,0.3410,0,0,-1.57,0.32,2.29,0.0714,0.0441,0.3419,0.3189,-0.0026,0.3000,0.2574,-4.84,-19.10,-56.83,0.0000,0.7880,1.1400,1.4120,2.3590,29,0.0231,0.0577,0.0000,0.0721,0.0252,0
14026,0.0480,-0.0114,0.3412,-0.0068,-0.0023,-0.0056,-0.34,-0.02,2.03,0,3.600,3.355,1.116,3.448,0.010,-0.017,0.997,0.000,0.000,0.000,0.3400,0,0,-1.47,0.34,2.47,0.0709,0.0453,0.3415,0.3189,-0.0026,0.3000,0.2576,-4.32,-19.11,-61.02,0.0000,0.7940,1.1350,1.4120,2.3530,29,0.0231,0.0577,0.0000,0.0721,0.0252,0
14078,0.0468,-0.0106,0.3404,-0.0083,0.0020,-0.0082,-0.18,-0.07,2.21,0,3.595,2.629,2.161,3.175,0.006,-0.020,1.000,0.000,0.000,0.000,0.3380,1,0,-1.30,0.28,2.64,0.0704,0.0468,0.3407,0.3189,-0.0026,0.3000,0.2580,-4.05,-19.23,-66.34,0.0000,0.7940,1.1350,1.4180,2.3530,29,0.0231,0.0577,0.0000,0.0721,0.0252,0
14130,0.0452,-0.0107,0.3391,-0.0099,0.0031,-0.0132,-0.05,-0.12,2.37,0,3.600,2.444,-1.687,3.190,0.006,-0.017,1.001,0.000,0.000,0.000,0.3360,2,1,-1.10,0.15,2.82,0.0716,0.0393,0.3397,0.3189,-0.0026,0.3000,0.2588,-3.99,-19.34,-71.19,0.0000,0.8000,1.1350,1.4180,2.3570,29,0.0231,0.0577,0.0000,0.0721,0.0252,0
14181,0.0430,-0.0128,0.3372,-0.0126,-0.0011,-0.0181,0.04,-0.06,2.52,0,3.589,1.954,0.851,2.349,0.006,-0.020,0.999,0.000,0.000,0.000,0.3400,0,0,-0.96,0.25,2.99,0.0703,0.0361,0.3381,0.3189,-0.0026,0.3000,0.2596,-4.33,-19.54,-75.61,0.0000,0.8000,1.1350,1.4230,2.3570,29,0.0231,0.0577,0.0000,0.0721,0.0252,0
14232,0.0427,-0.0064,0.3379,-0.0114,0.0114,-0.0107,0.07,-0.08,2.64,0,3.600,0.484,0.000,3.077,0.008,-0.013,1.001,0.000,0.000,0.000,0.3380,-1,0,-0.86,0.20,3.11,0.0700,0.0352,0.3382,0.3189,-0.0026,0.3000,0.2587,-3.29,-19.57,-79.31,0.0000,0.7980,1.1350,1.4230,2.3610,29,0.0231,0.0577,0.0000,0.0721,0.0252,0
14283,0.0419,-0.0075,0.3375,-0.0112,0.0079,-0.0100,0.07,-0.10,2.78,0,3.589,1.710,-1.081,1.799,0.008,-0.019,0.997,0.000,0.000,0.000,0.3370,2,0,-0.87,0.20,3.26,0.0700,0.0388,0.3378,0.3189,-0.0026,0.3000,0.2587,-3.54,-19.63,-83.36,0.0000,0.7980,1.1350,1.4320,2.3610,29,0.0231,0.0577,0.0000,0.0721,0.0252,0
14334,0.0388,-0.0082,0.3370,-0.0156,0.0049,-0.0107,0.12,-0.08,2.88,0,3.600,0.635,-1.568,1.104,0.007,-0.014,0.999,0.000,0.000,0.000,0.3370,1,0,-0.75,0.25,3.36,0.0702,0.0354,0.3370,0.3189,-0.0026,0.3000,0.2589,-3.73,-20.00,-86.32,0.0000,0.7970,1.1360,1.4320,2.3640,29,0.0231,0.0577,0.0000,0.0721,0.0252,0
14385,0.0380,-0.0090,0.3366,-0.0148,0.0018,-0.0096,0.09,-0.10,2.93,0,3.589,0.617,0.322,0.157,0.005,-0.015,1.002,0.000,0.000,0.000,0.3380,3,1,-0.71,0.33,3.42,0.0703,0.0332,0.3365,0.3189,-0.0026,0.3000,0.2588,-3.93,-20.02,-88.04,0.0000,0.7970,1.1360,1.4330,2.3640,29,0.0231,0.0577,0.0000,0.0721,0.0252,0
14436,0.0357,-0.0090,0.3370,-0.0169,0.0008,-0.0037,0.07,-0.14,2.95,0,3.600,1.572,0.935,0.220,0.009,-0.015,1.001,0.000,0.000,0.000,0.3370,0,0,-0.63,0.33,3.44,0.0686,0.0263,0.3364,0.3189,-0.0026,0.3000,0.2581,-3.99,-20.31,-88.56,0.0000,0.7950,1.1300,1.4330,2.3600,33,0.0231,0.0577,0.0000,0.0721,0.0252,0
14487,0.0360,-0.0081,0.3369,-0.0135,0.0018,-0.0019,0.10,-0.14,2.95,0,3.600,-0.311,0.428,-0.416,0.006,-0.017,1.002,0.000,0.000,0.000,0.3370,0,0,-0.55,0.28,3.45,0.0684,0.0237,0.3362,0.3189,-0.0026,0.3000,0.2579,-3.88,-20.17,-88.45,0.0000,0.7950,1.1300,1.4270,2.3600,33,0.0231,0.0577,0.0000,0.0721,0.0252,0
14538,0.0325,-0.0084,0.3369,-0.0180,0.0003,-0.0005,0.08,-0.15,2.94,0,3.600,-0.205,-0.985,-0.442,0.010,-0.016,1.006,0.000,0.000,0.000,0.3360,0,1,-0.57,0.26,3.43,0.0683,0.0210,0.3361,0.3189,-0.0026,0.3000,0.2578,-3.98,-20.59,-88.30,0.0000,0.7880,1.1340,1.4270,2.3660,33,0.0231,0.0577,0.0000,0.0721,0.0252,0
14589,0.0313,-0.0093,0.3365,-0.0172,-0.0023,-0.0009,0.10,-0.20,2.94,0,3.589,-0.388,1.233,0.294,0.008,-0.020,1.001,0.000,0.000,0.000,0.3360,1,0,-0.65,0.33,3.41,0.0643,0.0282,0.3362,0.3189,-0.0026,0.3000,0.2579,-4.17,-20.63,-88.11,0.0000,0.7880,1.1340,1.4240,2.3660,33,0.0231,0.0577,0.0000,0.0721,0.0252,0
14641,0.0308,-0.0115,0.3362,-0.0149,-0.0070,-0.0020,0.10,-0.21,2.94,0,3.600,-0.817,-0.239,-0.318,0.006,-0.019,0.998,0.000,0.000,0.000,0.3320,1,0,-0.66,0.27,3.42,0.0640,0.0260,0.3360,0.3189,0.0013,0.3000,0.2581,-4.81,-20.51,-88.19,0.0000,0.7890,1.1340,1.4240,2.3690,33,0.0231,0.0577,0.0000,0.0721,0.0252,0
14692,0.0290,-0.0109,0.3343,-0.0152,-0.0059,-0.0113,0.04,-0.21,2.92,0,3.589,-1.884,2.522,-0.247,0.005,-0.022,0.998,0.000,0.000,0.000,0.3330,2,0,-0.69,0.28,3.41,0.0639,0.0236,0.3346,0.3188,0.0051,0.3000,0.2594,-4.97,-20.48,-87.53,0.0000,0.7890,1.1340,1.4210,2.3690,33,0.0231,0.0577,0.0000,0.0721,0.0252,0
14744,0.0286,-0.0117,0.3333,-0.0127,-0.0070,-0.0139,-0.09,-0.19,2.91,0,3.595,1.163,2.230,-0.868,0.008,-0.016,1.003,0.000,0.000,0.000,0.3350,0,0,-0.77,0.15,3.39,0.0639,0.0188,0.3337,0.3186,0.0090,0.3000,0.2599,-5.34,-20.31,-87.22,0.0000,0.7920,1.1400,1.4210,2.3620,33,0.0231,0.0577,0.0000,0.0721,0.0252,0
14795,0.0280,-0.0121,0.3336,-0.0111,-0.0062,-0.0086,-0.05,-0.20,2.86,0,3.595,-0.688,0.548,-0.702,0.006,-0.015,1.002,0.000,0.000,0.000,0.3320,3,0,-0.71,0.03,3.35,0.0637,0.0161,0.3338,0.3184,0.0128,0.3000,0.2593,-5.61,-20.27,-85.86,0.0000,0.7920,1.1400,1.4120,2.3620,33,0.0231,0.0577,0.0000,0.0721,0.0252,0
14846,0.0267,-0.0107,0.3326,-0.0109,-0.0022,-0.0100,-0.09,-0.26,2.82,0,3.595,3.647,-0.366,-0.621,0.004,-0.020,1.001,0.000,0.000,0.000,0.3310,0,0,-0.71,0.00,3.31,0.0644,0.0086,0.3329,0.3182,0.0167,0.3000,0.2596,-5.58,-20.26,-84.73,0.0000,0.7910,1.1370,1.4120,2.3640,33,0.0231,0.0577,0.0000,0.0721,0.0252,0
14897,0.0267,-0.0091,0.3315,-0.0076,0.0026,-0.0121,0.01,-0.29,2.80,0,3.589,-1.240,2.036,-0.765,0.003,-0.015,1.006,0.000,0.000,0.000,0.3350,3,0,-0.52,0.02,3.28,0.0646,0.0047,0.3320,0.3178,0.0205,0.3000,0.2600,-5.49,-20.03,-83.92,0.0000,0.7910,1.1370,1.4060,2.3640,33,0.0231,0.0577,0.0000,0.0721,0.0252,0
14948,0.0248,-0.0085,0.3327,-0.0086,0.0032,-0.0015,0.08,-0.28,2.74,0,3.600,-1.989,2.463,-2.194,0.006,-0.020,1.001,0.000,0.000,0.000,0.3310,1,0,-0.57,-0.08,3.25,0.0649,-0.0013,0.3326,0.3175,0.0243,0.3000,0.2587,-5.72,-20.22,-82.20,0.0000,0.7890,1.1440,1.4060,2.3670,33,0.0231,0.0577,0.0000,0.0721,0.0252,0
14999,0.0254,-0.0121,0.3319,-0.0041,-0.0056,-0.0045,0.05,-0.31,2.65,0,3.589,-2.595,-0.664,-1.682,0.007,-0.018,1.001,0.000,0.000,0.000,0.3320,-1,0,-0.68,-0.21,3.13,0.0652,-0.0052,0.3321,0.3170,0.0281,0.3000,0.2591,-6.64,-19.89,-79.56,0.0000,0.7890,1.1440,1.4010,2.3670,33,0.0231,0.0577,0.0000,0.0721,0.0252,0
15050,0.0239,-0.0105,0.3318,-0.0046,-0.0017,-0.0035,-0.07,-0.23,2.56,0,3.595,0.268,-1.640,-2.418,0.005,-0.014,1.003,0.000,0.000,0.000,0.3290,1,0,-0.85,-0.17,3.03,0.0654,-0.0049,0.3322,0.3165,0.0319,0.3000,0.2590,-6.60,-19.93,-76.71,0.0000,0.7860,1.1380,1.4010,2.3620,42,0.0231,0.0577,0.0000,0.0721,0.0252,0
15101,0.0236,-0.0117,0.3304,-0.0029,-0.0036,-0.0087,-0.06,-0.14,2.45,0,3.589,-0.625,-0.659,-1.975,0.009,-0.014,1.002,0.000,0.000,0.000,0.3330,4,0,-0.84,-0.08,2.90,0.0657,-0.0082,0.3311,0.3160,0.0357,0.3000,0.2599,-7.01,-19.74,-73.47,0.0000,0.7860,1.1380,1.3990,2.3620,42,0.0231,0.0577,0.0000,0.0721,0.0252,0
15152,0.0245,-0.0109,0.3313,0.0004,-0.0013,-0.0008,-0.03,-0.13,2.34,0,3.595,1.207,1.223,-1.769,0.008,-0.020,0.999,0.000,0.000,0.000,0.3290,0,0,-0.82,-0.04,2.85,0.0665,-0.0188,0.3315,0.3154,0.0394,0.3000,0.2589,-7.13,-19.53,-70.33,0.0000,0.7880,1.1390,1.3990,2.3700,42,0.0231,0.0577,0.0000,0.0721,0.0252,0
15204,0.0230,-0.0134,0.3303,-0.0018,-0.0064,-0.0049,0.04,-0.19,2.25,0,3.589,-1.898,0.142,-1.133,0.005,-0.019,1.001,0.000,0.000,0.000,0.3320,0,0,-0.76,-0.10,2.76,0.0677,-0.0240,0.3306,0.3147,0.0432,0.3000,0.2595,-7.79,-19.59,-67.51,0.0000,0.7880,1.1390,1.3880,2.3700,42,0.0231,0.0577,0.0000,0.0721,0.0252,0
15256,0.0221,-0.0126,0.3309,-0.0019,-0.0041,-0.0004,-0.04,-0.20,2.16,0,3.595,0.004,-0.313,-1.770,0.004,-0.012,1.004,0.000,0.000,0.000,0.3300,0,0,-0.86,-0.11,2.70,0.0690,-0.0294,0.3309,0.3139,0.0471,0.3000,0.2589,-7.90,-19.60,-64.83,0.0000,0.7870,1.1420,1.3880,2.3720,42,0.0231,0.0577,0.0000,0.0721,0.0252,0
15308,0.0210,-0.0136,0.3305,-0.0024,-0.0056,-0.0021,-0.07,-0.21,2.08,0,3.589,0.175,0.767,-1.842,0.003,-0.015,1.002,0.000,0.000,0.000,0.3270,0,0,-0.86,-0.09,2.61,0.0706,-0.0346,0.3306,0.3131,0.0509,0.3000,0.2591,-8.29,-19.58,-62.29,0.0000,0.7870,1.1420,1.3840,2.3720,42,0.0231,0.0577,0.0000,0.0721,0.0252,0
15360,0.0210,-0.0126,0.3288,-0.0004,-0.0023,-0.0088,-0.07,-0.23,1.98,0,3.595,-0.403,-1.273,-2.948,0.005,-0.015,1.002,0.000,0.000,0.000,0.3300,0,0,-0.85,-0.13,2.51,0.0722,-0.0399,0.3295,0.3123,0.0547,0.3000,0.2602,-8.28,-19.33,-59.29,0.0000,0.7830,1.1380,1.3840,2.3660,42,0.0231,0.0577,0.0000,0.0721,0.0252,0
15411,0.0210,-0.0127,0.3291,0.0015,-0.0015,-0.0047,-0.10,-0.17,1.84,0,3.589,1.610,0.262,-3.406,0.008,-0.016,1.004,0.000,0.000,0.000,0.3280,2,0,-0.87,-0.06,2.36,0.0740,-0.0450,0.3296,0.3114,0.0584,0.3000,0.2597,-8.52,-19.18,-55.09,0.0000,0.7830,1.1380,1.3770,2.3660,42,0.0231,0.0577,0.0000,0.0721,0.0252,0
15462,0.0211,-0.0159,0.3284,0.0028,-0.0078,-0.0051,-0.01,-0.13,1.69,0,3.595,1.148,1.193,-3.766,0.006,-0.017,1.003,0.000,0.000,0.000,0.3290,-1,0,-0.92,-0.02,2.10,0.0636,-0.0248,0.3297,0.3104,0.0621,0.3000,0.2598,-9.27,-19.00,-50.61,0.0000,0.7840,1.1360,1.3770,2.3710,42,0.0231,0.0577,0.0000,0.0721,0.0252,0
15513,0.0212,-0.0123,0.3285,0.0038,0.0004,-0.0029,0.03,-0.17,1.52,0,3.589,0.577,0.166,-2.809,0.004,-0.013,1.000,0.000,0.000,0.000,0.3260,0,0,-0.87,-0.07,1.90,0.0638,-0.0252,0.3295,0.3094,0.0658,0.3000,0.2596,-8.89,-18.86,-45.50,0.0000,0.7840,1.1360,1.3720,2.3710,42,0.0231,0.0577,0.0000,0.0721,0.0252,0
15564,0.0214,-0.0138,0.3273,0.0052,-0.0032,-0.0087,0.10,-0.18,1.36,0,3.595,0.806,-1.335,-3.903,0.011,-0.020,0.997,0.000,0.000,0.000,0.3280,-1,0,-0.84,-0.08,1.76,0.0642,-0.0262,0.3285,0.3083,0.0695,0.3000,0.2605,-9.37,-18.62,-40.90,0.0000,0.7820,1.1400,1.3720,2.3690,42,0.0231,0.0577,0.0000,0.0721,0.0252,0
15616,0.0214,-0.0123,0.3273,0.0061,-0.0003,-0.0072,0.09,-0.13,1.18,0,3.584,-2.310,-0.257,-3.778,0.008,-0.015,1.004,0.000,0.000,0.000,0.3260,0,0,-0.83,-0.00,1.54,0.0641,-0.0243,0.3281,0.3072,0.0732,0.3000,0.2603,-9.38,-18.47,-35.30,0.0000,0.7820,1.1400,1.3630,2.3690,42,0.0231,0.0577,0.0000,0.0721,0.0252,0
15667,0.0214,-0.0138,0.3264,0.0065,-0.0041,-0.0092,0.01,-0.04,1.00,0,3.589,-4.052,-1.134,-1.944,0.003,-0.017,1.000,0.000,0.000,0.000,0.3280,0,1,-0.95,0.01,1.34,0.0648,-0.0245,0.3274,0.3060,0.0768,0.3000,0.2607,-9.88,-18.31,-29.86,0.0000,0.7810,1.1420,1.3630,2.3670,42,0.0231,0.0577,0.0000,0.0721,0.0252,0
15719,0.0210,-0.0111,0.3268,0.0051,0.0021,-0.0049,-0.18,0.03,0.88,0,3.589,1.177,-1.441,-2.224,0.006,-0.017,1.005,0.000,0.000,0.000,0.3290,0,0,-1.16,0.10,1.25,0.0623,-0.0245,0.3274,0.3047,0.0805,0.3000,0.2601,-9.67,-18.31,-26.47,0.0000,0.7810,1.1420,1.3580,2.3670,42,0.0231,0.0577,0.0000,0.0721,0.0252,0
15770,0.0223,-0.0126,0.3277,0.0068,0.0008,0.0017,-0.21,0.08,0.79,0,3.589,3.193,-1.280,-1.448,0.007,-0.019,0.998,0.000,0.000,0.000,0.3280,0,0,-1.10,0.18,1.14,0.0623,-0.0246,0.3280,0.3034,0.0841,0.3000,0.2592,-10.09,-18.09,-23.67,0.0000,0.7810,1.1410,1.3580,2.3710,42,0.0231,0.0577,0.0000,0.0721,0.0252,0
15821,0.0226,-0.0125,0.3279,0.0060,0.0024,0.0016,-0.10,0.13,0.73,0,3.584,0.187,-1.881,-0.227,0.007,-0.015,1.003,0.000,0.000,0.000,0.3250,-2,0,-0.94,0.25,1.07,0.0623,-0.0247,0.3280,0.3020,0.0877,0.3000,0.2592,-10.24,-17.97,-21.79,0.0000,0.7810,1.1410,1.3570,2.3710,42,0.0231,0.0577,0.0000,0.0721,0.0252,0
15873,0.0202,-0.0096,0.3266,-0.0002,0.0084,-0.0035,-0.10,0.22,0.69,0,3.589,-0.508,1.686,1.410,-0.001,-0.015,1.000,0.000,0.000,0.000,0.3270,1,0,-0.97,0.35,1.04,0.0620,-0.0188,0.3272,0.3006,0.0913,0.3000,0.2600,-9.96,-18.21,-20.82,0.0000,0.7790,1.1320,1.3570,2.3750,42,0.0231,0.0577,0.0000,0.0721,0.0252,0
15924,0.0207,-0.0113,0.3267,-0.0011,0.0054,-0.0024,-0.10,0.16,0.74,0,3.584,3.209,3.433,0.810,0.005,-0.012,0.998,0.000,0.000,0.000,0.3260,3,0,-0.99,0.26,1.11,0.0619,-0.0191,0.3272,0.2991,0.0949,0.3000,0.2599,-10.45,-18.09,-22.18,0.0000,0.7790,1.1320,1.3510,2.3750,43,0.0231,0.0577,0.0000,0.0721,0.0252,0
15975,0.0191,-0.0144,0.3263,-0.0050,-0.0007,-0.0036,0.03,0.04,0.79,0,3.589,0.254,-1.011,0.391,0.005,-0.020,1.000,0.000,0.000,0.000,0.3250,2,0,-0.78,0.08,1.15,0.0619,-0.0226,0.3269,0.2976,0.0984,0.3000,0.2601,-11.16,-18.21,-23.62,3.0800,0.7830,1.1400,1.3510,2.3760,43,0.0231,0.0577,0.0000,0.0721,0.0252,0
16026,0.0176,-0.0103,0.3256,-0.0076,0.0063,-0.0065,0.03,0.08,0.82,0,3.584,-1.229,0.221,1.669,0.005,-0.019,0.999,0.000,0.000,0.000,0.3250,4,0,-0.74,0.13,1.18,0.0620,-0.0260,0.3262,0.2960,0.1019,0.3000,0.2605,-10.75,-18.24,-24.69,3.0800,0.7830,1.1400,1.3520,2.3760,43,0.0231,0.0577,0.0000,0.0721,0.0252,0
16077,0.0163,-0.0101,0.3251,-0.0099,0.0057,-0.0076,-0.02,0.09,0.88,0,3.584,1.442,3.055,1.444,0.008,-0.021,1.003,0.000,0.000,0.000,0.3240,2,1,-0.75,0.12,1.27,0.0622,-0.0340,0.3255,0.2944,0.1054,0.3000,0.2607,-10.97,-18.26,-26.33,0.0000,0.7770,1.1320,1.3520,2.3760,43,0.0231,0.0577,0.0000,0.0721,0.0252,0
16129,0.0148,-0.0082,0.3243,-0.0125,0.0087,-0.0085,0.07,-0.00,0.94,0,3.584,0.920,3.617,1.987,0.004,-0.017,1.005,0.000,0.000,0.000,0.3250,4,1,-0.66,-0.02,1.35,0.0603,-0.0394,0.3248,0.2927,0.1088,0.3000,0.2610,-10.91,-18.31,-28.17,0.0000,0.7770,1.1320,1.3540,2.3760,43,0.0231,0.0577,0.0000,0.0721,0.0252,0
16181,0.0112,-0.0129,0.3244,-0.0174,-0.0016,-0.0052,0.15,-0.19,1.04,0,3.589,-1.598,0.737,2.373,0.004,-0.015,1.002,0.000,0.000,0.000,0.3230,0,0,-0.56,-0.19,1.47,0.0582,-0.0498,0.3245,0.2910,0.1123,0.3000,0.2606,-11.93,-18.62,-31.26,0.0000,0.7760,1.1340,1.3540,2.3750,43,0.0231,0.0577,0.0000,0.0721,0.0252,0
16233,0.0093,-0.0129,0.3236,-0.0183,-0.0023,-0.0059,0.05,-0.27,1.18,0,3.584,-2.272,1.017,2.107,0.007,-0.018,1.005,0.000,0.000,0.000,0.3220,0,0,-0.64,-0.23,1.59,0.0579,-0.0553,0.3239,0.2891,0.1158,0.3000,0.2608,-12.16,-18.61,-35.29,0.0000,0.7760,1.1340,1.3510,2.3750,43,0.0231,0.0577,0.0000,0.0721,0.0252,0
16284,0.0078,-0.0136,0.3227,-0.0171,-0.0038,-0.0080,-0.03,-0.27,1.28,0,3.584,2.035,1.868,2.369,0.004,-0.020,1.001,0.000,0.000,0.000,0.3230,0,0,-0.76,-0.28,1.70,0.0578,-0.0608,0.3233,0.2873,0.1191,0.3000,0.2612,-12.47,-18.47,-38.54,0.0000,0.7710,1.1400,1.3510,2.3750,43,0.0231,0.0577,0.0000,0.0721,0.0252,0
16335,0.0062,-0.0142,0.3226,-0.0165,-0.0044,-0.0056,0.03,-0.35,1.38,0,3.584,0.633,1.439,1.456,0.005,-0.018,1.001,0.000,0.000,0.000,0.3220,1,0,-0.65,-0.38,1.82,0.0580,-0.0665,0.3231,0.2854,0.1225,0.3000,0.2610,-12.74,-18.41,-41.29,0.0000,0.7710,1.1400,1.3630,2.3750,43,0.0231,0.0577,0.0000,0.0721,0.0252,0
16387,0.0054,-0.0146,0.3222,-0.0134,-0.0053,-0.0054,0.09,-0.44,1.47,0,3.584,-1.317,-1.762,1.474,0.005,-0.011,1.004,0.000,0.000,0.000,0.3210,-1,0,-0.76,-0.45,1.80,0.0563,-0.0487,0.3236,0.2834,0.1258,0.3000,0.2610,-13.00,-18.16,-44.17,0.0000,0.7730,1.1270,1.3630,2.3770,43,0.0231,0.0577,0.0000,0.0721,0.0252,0
16438,0.0042,-0.0110,0.3215,-0.0108,0.0018,-0.0070,0.05,-0.40,1.57,0,3.584,-2.870,-1.587,1.382,0.003,-0.013,1.005,0.000,0.000,0.000,0.3190,1,0,-0.84,-0.36,1.87,0.0565,-0.0486,0.3228,0.2814,0.1291,0.3000,0.2613,-12.63,-17.94,-46.99,0.0000,0.7730,1.1270,1.3680,2.3770,43,0.0231,0.0577,0.0000,0.0721,0.0252,0
16489,0.0037,-0.0115,0.3202,-0.0075,0.0009,-0.0092,-0.10,-0.27,1.63,0,3.584,0.573,-0.435,1.032,0.005,-0.015,1.006,0.000,0.000,0.000,0.3220,-3,0,-0.98,-0.27,1.95,0.0569,-0.0505,0.3218,0.2794,0.1323,0.3000,0.2618,-12.87,-17.63,-48.93,0.0000,0.7690,1.1320,1.3680,2.3800,43,0.0231,0.0577,0.0000,0.0721,0.0252,0
16540,0.0040,-0.0085,0.3208,-0.0042,0.0082,-0.0014,-0.10,-0.15,1.69,0,3.579,4.606,-1.493,0.249,0.003,-0.018,1.002,0.000,0.000,0.000,0.3230,2,0,-1.00,-0.25,1.95,0.0571,-0.0466,0.3218,0.2773,0.1355,0.3000,0.2609,-12.57,-17.36,-50.64,0.0000,0.7690,1.1320,1.3670,2.3800,43,0.0231,0.0577,0.0000,0.0721,0.0252,0
16591,0.0040,-0.0105,0.3218,-0.0024,0.0041,0.0063,0.11,-0.14,1.72,0,3.584,-0.243,1.045,0.430,0.006,-0.018,1.002,0.000,0.000,0.000,0.3200,1,0,-0.73,-0.17,2.00,0.0577,-0.0500,0.3225,0.2752,0.1387,0.3000,0.2598,-13.13,-17.16,-51.62,0.0000,0.7730,1.1240,1.3670,2.3800,43,0.0231,0.0577,0.0000,0.0721,0.0252,0
16642,0.0037,-0.0085,0.3212,-0.0016,0.0071,0.0028,0.09,-0.09,1.75,0,3.584,1.358,-0.910,0.844,0.006,-0.017,0.998,0.000,0.000,0.000,0.3200,0,0,-0.73,-0.22,2.03,0.0581,-0.0523,0.3221,0.2730,0.1418,0.3000,0.2603,-13.01,-16.94,-52.64,0.0000,0.7730,1.1240,1.3680,2.3800,43,0.0231,0.0577,0.0000,0.0721,0.0252,0
16694,0.0053,-0.0086,0.3208,0.0030,0.0054,0.0010,0.13,-0.03,1.79,0,3.584,1.947,-2.528,0.283,0.008,-0.014,1.003,0.000,0.000,0.000,0.3210,3,0,-0.66,-0.17,2.08,0.0593,-0.0537,0.3216,0.2707,0.1450,0.3000,0.2606,-13.27,-16.43,-53.66,0.0000,0.7690,1.1230,1.3680,2.3860,36,0.0231,0.0577,0.0000,0.0721,0.0252,0
16746,0.0046,-0.0081,0.3209,0.0013,0.0049,0.0013,0.18,0.12,1.81,0,3.579,0.603,0.211,1.356,0.007,-0.012,1.001,0.000,0.000,0.000,0.3220,0,0,-0.51,-0.02,2.16,0.0580,-0.0626,0.3215,0.2684,0.1481,0.3000,0.2605,-13.44,-16.37,-54.22,0.0000,0.7690,1.1230,1.3720,2.3860,36,0.0231,0.0577,0.0000,0.0721,0.0252,0
16798,0.0052,0.0026,0.3214,0.0016,0.0263,0.0042,0.06,0.08,1.86,0,3.589,3.763,-2.123,0.260,0.006,-0.014,1.002,0.000,0.000,0.000,0.3200,0,0,-0.48,-0.03,2.23,0.0591,-0.0657,0.3218,0.2660,0.1512,0.3000,0.2601,-11.94,-16.15,-55.78,0.0000,0.7740,1.1300,1.3720,2.3770,36,0.0231,0.0577,0.0000,0.0721,0.0252,0
16850,0.0051,0.0037,0.3210,0.0006,0.0254,0.0014,0.22,0.12,1.88,0,3.579,3.222,0.595,0.189,0.002,-0.014,1.004,0.000,0.000,0.000,0.3190,-1,1,-0.28,0.08,2.24,0.0603,-0.0689,0.3214,0.2636,0.1543,0.3000,0.2605,-12.07,-15.98,-56.49,0.0000,0.7740,1.1300,1.3740,2.3770,36,0.0231,0.0577,0.0000,0.0721,0.0252,0
16902,0.0049,0.0047,0.3202,-0.0009,0.0229,-0.0016,0.43,0.17,1.90,0,3.584,0.999,-0.375,-0.416,0.003,-0.016,1.002,0.000,0.000,0.000,0.3180,0,0,-0.22,0.10,2.22,0.0537,-0.0573,0.3215,0.2611,0.1573,0.3000,0.2610,-12.26,-15.84,-56.98,0.0000,0.7680,1.1240,1.3740,2.3790,36,0.0231,0.0577,0.0000,0.0721,0.0252,0
16954,0.0048,0.0065,0.3192,-0.0023,0.0210,-0.0048,0.47,0.14,1.90,0,3.579,-2.906,1.934,0.950,0.007,-0.017,1.003,0.000,0.000,0.000,0.3150,-1,0,-0.17,0.12,2.20,0.0534,-0.0581,0.3206,0.2586,0.1602,0.3000,0.2615,-12.37,-15.67,-57.11,0.0000,0.7680,1.1240,1.3730,2.3790,36,0.0231,0.0577,0.0000,0.0721,0.0252,0
17005,0.0046,0.0071,0.3172,-0.0035,0.0160,-0.0120,0.38,-0.10,1.91,0,3.584,6.175,84.431,-0.097,0.001,-0.009,1.010,0.000,0.000,0.000,0.3180,0,12,-0.35,0.01,2.23,0.0533,-0.0549,0.3190,0.2561,0.1632,0.3000,0.2627,-12.67,-15.47,-57.39,0.0000,0.7690,1.1170,1.3730,2.3810,36,0.0231,0.0577,0.0000,0.0721,0.0252,0
17057,0.0070,0.0052,0.3172,0.0046,0.0064,-0.0060,0.71,-4.04,1.96,0,3.579,5.032,119.751,-2.004,0.014,-0.010,1.012,0.000,0.000,0.000,0.3220,-3,5,-0.03,-4.15,2.40,0.0363,-0.0555,0.3206,0.2535,0.1661,0.3000,0.2620,-13.41,-14.79,-58.89,0.0000,0.7690,1.1170,1.3700,2.3810,36,0.0231,0.0577,0.0000,0.0721,0.0252,0
17109,0.0067,0.0061,0.3192,0.0374,0.0034,0.0075,0.91,-9.65,1.97,0,3.595,0.041,34.327,-2.163,0.010,-0.014,1.007,0.000,0.000,0.000,0.3360,-3,0,0.17,-10.32,2.26,0.0268,-0.0510,0.3229,0.2508,0.1689,0.3000,0.2602,-13.73,-13.23,-58.95,0.0000,0.7730,1.1150,1.3700,2.4130,36,0.0231,0.0577,0.0000,0.0721,0.0252,0
17160,0.0044,0.0100,0.3268,0.1052,0.0071,0.0376,0.87,-11.44,1.88,0,3.584,1.522,-12.967,-1.605,-0.000,-0.019,0.990,0.000,0.000,0.000,0.3350,8,-2,0.04,-12.11,1.81,0.0269,-0.0455,0.3277,0.2482,0.1717,0.3000,0.2555,-13.70,-10.26,-56.45,0.0000,0.7730,1.1150,1.3690,2.4130,36,0.0231,0.0577,0.0000,0.0721,0.0252,0
17211,0.0120,0.0005,0.3312,0.2014,-0.0206,0.0410,1.10,-10.90,1.87,0,3.595,-1.993,-8.430,-1.747,-0.003,-0.013,0.988,0.000,0.000,0.000,0.3340,-3,-3,0.57,-11.42,3.38,0.0365,-0.0600,0.3307,0.2455,0.1744,0.3000,0.2543,-15.82,-4.94,-56.01,1.1970,0.7630,1.1180,1.3690,2.4250,36,0.0231,0.0577,0.0000,0.0721,0.0252,0
17263,0.0251,0.0119,0.3334,0.2952,0.0026,0.0284,0.82,-10.62,1.64,0,3.584,-3.778,-19.053,-2.684,-0.006,-0.016,0.980,0.000,0.000,0.000,0.3300,1,-11,0.19,-11.00,2.27,0.0458,-0.0546,0.3324,0.2427,0.1771,0.3000,0.2552,-14.08,0.80,-49.16,1.1970,0.7630,1.1180,1.3750,2.4250,36,0.0231,0.0577,0.0000,0.0721,0.0252,0
17314,0.0443,0.0117,0.3322,0.3895,-0.0025,0.0006,0.65,-9.66,1.55,0,3.584,0.372,-48.081,-2.682,-0.011,-0.012,0.984,0.000,0.000,0.000,0.3250,2,-8,-0.04,-10.12,2.04,0.0763,-0.0564,0.3272,0.2399,0.1798,0.3000,0.2585,-14.31,6.88,-46.43,1.1900,0.7930,1.1330,1.3750,2.4190,36,0.0231,0.0577,0.0000,0.0721,0.0252,0
17365,0.0615,0.0103,0.3288,0.4605,-0.0087,-0.0282,0.62,-7.37,1.40,0,3.579,-3.936,-53.146,-1.898,-0.018,-0.015,0.993,0.000,0.000,0.000,0.3190,2,-16,0.04,-7.68,2.28,0.1022,-0.0608,0.3238,0.2371,0.1824,0.3000,0.2622,-14.61,11.46,-42.14,1.1900,0.7930,1.1330,1.4070,2.4190,36,0.0231,0.0577,0.0000,0.0721,0.0252,0
17416,0.0893,0.0070,0.3232,0.5311,-0.0192,-0.0560,0.45,-4.63,1.32,0,3.563,-3.802,-50.383,-1.177,-0.015,-0.006,1.010,0.000,0.000,0.000,0.2990,1,-18,-0.15,-5.10,2.22,0.1488,-0.0650,0.3145,0.2343,0.1849,0.3000,0.2663,-15.20,16.43,-39.67,1.3080,0.8340,1.1450,1.4070,2.4010,36,0.0231,0.0577,0.0000,0.0721,0.0252,0
17468,0.1091,0.0085,0.3105,0.5547,-0.0163,-0.1049,0.23,-2.03,1.29,0,3.563,-6.085,-45.685,-0.930,-0.016,-0.008,1.031,0.000,0.000,0.000,0.2860,-1,-7,-0.38,-2.66,1.86,0.2002,-0.0669,0.3004,0.2314,0.1875,0.3000,0.2740,-14.70,18.39,-38.81,1.3080,0.8340,1.1450,1.4820,2.4010,45,0.0231,0.0577,0.0000,0.0721,0.0252,0
17520,0.1261,0.0137,0.2962,0.5475,-0.0025,-0.1419,-0.19,0.22,1.17,0,3.558,-4.499,-33.827,-0.620,-0.017,-0.007,1.055,0.000,0.000,0.000,0.2880,0,-16,-0.74,-0.17,1.44,0.2186,-0.0641,0.2977,0.2284,0.1900,0.3000,0.2806,-13.59,18.92,-35.24,0.0000,0.8670,1.1470,1.4820,2.4010,45,0.0231,0.0577,0.0000,0.0721,0.0252,0
17571,0.1554,0.0169,0.2877,0.5506,0.0074,-0.1303,-0.32,1.99,1.10,0,3.552,8.751,-28.896,-2.286,-0.018,-0.013,1.070,0.000,0.000,0.000,0.2930,0,-9,-0.99,1.51,1.20,0.2627,-0.0636,0.2895,0.2254,0.1924,0.3000,0.2810,-13.08,20.93,-33.11,0.0000,0.8670,1.1470,1.5890,2.4010,45,0.0231,0.0577,0.0000,0.0721,0.0252,0
17622,0.1808,0.0161,0.2866,0.5276,0.0064,-0.0755,0.08,3.37,1.00,0,3.568,3.033,-23.122,-2.756,-0.014,-0.013,1.069,0.000,0.000,0.000,0.2960,0,-11,-0.54,3.03,1.08,0.2899,-0.0632,0.2907,0.2224,0.1948,0.3000,0.2753,-13.55,22.11,-29.99,0.0000,0.8840,1.1480,1.5890,2.4040,45,0.0231,0.0577,0.0000,0.0721,0.0252,0
17673,0.2047,0.0158,0.2887,0.4905,0.0037,-0.0180,0.24,4.65,0.84,0,3.568,0.655,-13.675,-4.151,-0.012,-0.009,1.056,0.000,0.000,0.000,0.2960,0,-12,-0.38,4.20,0.91,0.3229,-0.0629,0.2926,0.2193,0.1971,0.3000,0.2687,-14.12,22.75,-25.09,0.0000,0.8840,1.1480,1.6200,2.4040,45,0.0231,0.0577,0.0000,0.0721,0.0252,0
17725,0.2248,0.0165,0.2920,0.4399,0.0024,0.0268,0.33,5.39,0.63,0,3.584,5.906,-1.941,-5.042,-0.014,-0.007,1.039,0.000,0.000,0.000,0.3000,1,-3,-0.34,4.86,0.66,0.3590,-0.0627,0.2948,0.2162,0.1994,0.3000,0.2632,-14.52,22.57,-19.00,2.9190,0.9000,1.1530,1.6200,2.4070,45,0.0231,0.0577,0.0000,0.0721,0.0252,0
17776,0.2391,0.0150,0.2970,0.3741,-0.0055,0.0609,0.62,5.53,0.39,0,3.579,2.210,5.218,-5.162,-0.005,-0.012,1.018,0.000,0.000,0.000,0.3080,0,-6,-0.00,5.08,0.48,0.3682,-0.0651,0.3020,0.2131,0.2016,0.3000,0.2586,-15.33,21.32,-11.65,2.9190,0.9000,1.1530,1.6580,2.4070,45,0.0231,0.0577,0.0000,0.0721,0.0252,0
17828,0.2588,0.0147,0.3042,0.3299,-0.0112,0.0909,0.80,5.27,0.11,0,3.595,-4.683,3.809,-4.826,-0.006,-0.014,1.006,0.000,0.000,0.000,0.3130,0,-1,0.12,4.84,0.26,0.3875,-0.0649,0.3082,0.2099,0.2039,0.3000,0.2540,-15.98,21.29,-3.43,0.0000,0.9220,1.1450,1.6580,2.4000,45,0.0231,0.0577,0.0000,0.0721,0.0252,0
17880,0.2708,0.0140,0.3116,0.2749,-0.0181,0.1067,0.69,5.07,-0.15,0,3.589,-0.154,7.820,-4.301,-0.003,-0.015,0.987,0.000,0.000,0.000,0.3160,0,0,-0.12,4.73,0.15,0.3911,-0.0641,0.3152,0.2067,0.2060,0.3000,0.2509,-16.63,20.17,4.48,0.0000,0.9220,1.1450,1.6550,2.4000,45,0.0231,0.0577,0.0000,0.0721,0.0252,0
17931,0.2836,0.0121,0.3169,0.2326,-0.0263,0.1014,0.70,4.75,-0.34,0,3.595,-1.856,13.811,-3.538,-0.000,-0.013,0.978,0.000,0.000,0.000,0.3130,4,-1,-0.11,4.33,-0.08,0.4049,-0.0655,0.3198,0.2035,0.2081,0.3000,0.2505,-17.26,19.43,10.16,2.8560,0.9560,1.1440,1.6550,2.3970,45,0.0231,0.0577,0.0000,0.0721,0.0252,0
17982,0.2942,0.0078,0.3186,0.1932,-0.0402,0.0754,0.66,4.14,-0.54,0,3.584,-5.477,9.603,-3.246,-0.003,-0.003,0.976,0.000,0.000,0.000,0.3180,3,-1,-0.10,3.80,-0.52,0.3847,-0.0817,0.3222,0.2002,0.2102,0.3000,0.2529,-18.10,18.47,16.33,2.8560,0.9560,1.1440,1.6680,2.3970,45,0.0231,0.0577,0.0000,0.0721,0.0252,0
18034,0.3024,0.0075,0.3205,0.1572,-0.0404,0.0546,0.44,3.68,-0.69,0,3.589,-5.125,3.483,-2.105,0.002,-0.012,0.977,0.000,0.000,0.000,0.3240,8,0,-0.33,3.31,-0.84,0.3877,-0.0908,0.3237,0.1969,0.2122,0.3000,0.2548,-18.09,17.54,20.67,2.8260,0.9640,1.1540,1.6680,2.3830,45,0.0231,0.0577,0.0000,0.0721,0.0252,0
18084,0.3101,0.0028,0.3238,0.1284,-0.0510,0.0468,0.20,3.38,-0.82,0,3.584,-3.044,9.644,-0.389,0.003,-0.016,0.977,0.000,0.000,0.000,0.3220,0,0,-0.45,3.15,-1.62,0.3865,-0.1157,0.3251,0.1936,0.2141,0.3000,0.2550,-18.93,17.00,24.46,2.8260,0.9640,1.1540,1.6810,2.3830,45,0.0231,0.0577,0.0000,0.0721,0.0252,0
18136,0.3162,0.0009,0.3243,0.1016,-0.0501,0.0275,0.01,2.95,-0.85,0,3.584,-6.706,8.785,0.249,0.003,-0.013,0.983,0.000,0.000,0.000,0.3220,3,0,-0.60,2.67,-1.64,0.3876,-0.1241,0.3257,0.1903,0.2160,0.3000,0.2570,-18.96,16.35,25.44,2.8050,0.9700,1.1530,1.6810,2.3820,54,0.0231,0.0577,0.0000,0.0721,0.0252,0
18188,0.3203,-0.0009,0.3241,0.0761,-0.0477,0.0107,-0.33,2.45,-0.83,0,3.579,-3.581,6.802,0.593,0.005,-0.012,0.986,0.000,0.000,0.000,0.3190,-2,1,-1.02,2.21,-1.36,0.2632,-0.1345,0.3260,0.1868,0.2179,0.3000,0.2589,-18.93,15.63,24.88,2.8050,0.9700,1.1530,1.6880,2.3820,54,0.2633,-0.1277,0.0333,0.3879,-0.1149,0
18240,0.3225,-0.0056,0.3220,0.0525,-0.0506,-0.0095,-0.51,2.14,-0.83,0,3.579,-4.536,6.704,2.799,0.005,-0.014,0.991,0.000,0.000,0.000,0.3220,-2,0,-1.28,1.87,-0.98,0.2618,-0.1356,0.3245,0.1834,0.2197,0.3000,0.2615,-19.24,14.85,25.00,2.7870,0.9800,1.1660,1.6880,2.3770,54,0.2633,-0.1277,0.0333,0.3879,-0.1149,0
18291,0.3244,-0.0080,0.3215,0.0336,-0.0454,-0.0147,-0.71,1.82,-0.67,0,3.574,-5.324,8.076,4.867,0.004,-0.013,0.998,0.000,0.000,0.000,0.3180,4,1,-1.58,1.50,-0.54,0.2610,-0.1345,0.3237,0.1800,0.2214,0.3000,0.2621,-19.21,14.35,20.24,2.7870,0.9800,1.1660,1.6920,2.3770,54,0.2633,-0.1277,0.0333,0.3879,-0.1149,0
18342,0.3248,-0.0134,0.3194,0.0162,-0.0477,-0.0241,-0.87,1.39,-0.54,0,3.579,-3.912,7.444,5.911,0.005,-0.015,1.005,0.000,0.000,0.000,0.3180,0,2,-1.80,1.09,-0.58,0.2581,-0.1430,0.3218,0.1765,0.2231,0.3000,0.2635,-19.61,13.79,16.17,2.7720,0.9760,1.1620,1.6920,2.3860,54,0.2633,-0.1277,0.0333,0.3879,-0.1149,0
18393,0.3247,-0.0166,0.3178,0.0033,-0.0420,-0.0268,-1.06,1.03,-0.25,0,3.568,-6.346,5.846,6.736,0.005,-0.017,1.006,0.000,0.000,0.000,0.3190,0,0,-2.02,0.72,-0.21,0.2532,-0.1442,0.3203,0.1730,0.2247,0.3000,0.2641,-19.59,13.44,7.54,2.7720,0.9760,1.1620,1.6900,2.3860,54,0.2633,-0.1277,0.0333,0.3879,-0.1149,0
18445,0.3240,-0.0170,0.3176,-0.0068,-0.0284,-0.0190,-1.33,0.68,0.05,0,3.579,0.561,6.062,6.904,0.006,-0.010,1.009,0.000,0.000,0.000,0.3190,-3,0,-2.35,0.41,0.13,0.2497,-0.1468,0.3195,0.1695,0.2263,0.3000,0.2633,-19.16,13.23,-1.43,0.0000,0.9840,1.1730,1.6900,2.3850,54,0.2633,-0.1277,0.0333,0.3879,-0.1149,0
18497,0.3231,-0.0183,0.3176,-0.0131,-0.0169,-0.0113,-1.37,0.30,0.41,0,3.574,4.977,3.833,6.918,0.008,-0.017,1.006,0.000,0.000,0.000,0.3160,0,0,-2.43,0.01,0.92,0.2543,-0.1333,0.3192,0.1659,0.2278,0.3000,0.2625,-18.87,13.19,-12.20,0.0000,0.9840,1.1730,1.6820,2.3850,54,0.2633,-0.1277,0.0333,0.3879,-0.1149,0
18549,0.3236,-0.0182,0.3166,-0.0122,-0.0038,-0.0107,-1.19,-0.02,0.75,0,3.579,3.496,-1.083,7.054,0.004,-0.018,1.003,0.000,0.000,0.000,0.3170,0,-1,-2.17,-0.20,1.27,0.2527,-0.1312,0.3181,0.1623,0.2293,0.3000,0.2626,-18.35,13.52,-22.62,0.0000,0.9860,1.1670,1.6820,2.3850,54,0.2633,-0.1277,0.0333,0.3879,-0.1149,0
18600,0.3233,-0.0179,0.3164,-0.0114,0.0068,-0.0080,-1.01,-0.09,1.09,0,3.574,6.076,5.522,6.659,0.006,-0.011,1.005,0.000,0.000,0.000,0.3150,-4,0,-1.95,-0.20,1.64,0.2576,-0.1341,0.3179,0.1588,0.2307,0.3000,0.2624,-17.94,13.81,-32.81,0.0000,0.9860,1.1670,1.6760,2.3850,54,0.2633,-0.1277,0.0333,0.3879,-0.1149,0
18651,0.3230,-0.0121,0.3155,-0.0097,0.0283,-0.0085,-0.81,-0.29,1.43,0,3.579,8.676,2.140,3.539,0.005,-0.016,1.004,0.000,0.000,0.000,0.3110,-2,0,-1.68,-0.49,2.04,0.2575,-0.1258,0.3168,0.1552,0.2321,0.3000,0.2626,-16.67,14.11,-42.82,2.7020,0.9870,1.1700,1.6760,2.3900,54,0.2633,-0.1277,0.0333,0.3879,-0.1149,0
18702,0.3233,-0.0161,0.3132,-0.0054,0.0210,-0.0159,-0.33,-0.43,1.66,0,3.568,3.288,-1.136,4.439,0.003,-0.018,1.002,0.000,0.000,0.000,0.3150,2,0,-1.25,-0.60,2.23,0.2576,-0.1205,0.3149,0.1516,0.2334,0.3000,0.2638,-17.21,14.51,-49.83,2.7020,0.9870,1.1700,1.6820,2.3900,54,0.2633,-0.1277,0.0333,0.3879,-0.1149,0
18754,0.3206,-0.0140,0.3136,-0.0082,0.0258,-0.0089,-0.13,-0.34,1.89,0,3.579,3.272,-2.506,2.940,0.006,-0.016,1.002,0.000,0.000,0.000,0.3140,2,0,-1.03,-0.55,2.41,0.2579,-0.1237,0.3150,0.1479,0.2346,0.3000,0.2630,-16.96,14.51,-56.70,2.6800,0.9940,1.1740,1.6820,2.3820,122,0.2633,-0.1277,0.0333,0.3879,-0.1149,0
18806,0.3222,-0.0127,0.3134,-0.0010,0.0264,-0.0069,0.01,-0.28,2.05,0,3.568,1.007,0.158,2.172,0.003,-0.013,1.003,0.000,0.000,0.000,0.3110,-2,0,-0.81,-0.41,2.54,0.2583,-0.1280,0.3147,0.1442,0.2358,0.3000,0.2628,-16.89,15.20,-61.60,2.6800,0.9940,1.1740,1.6650,2.3820,122,0.2633,-0.1277,0.0333,0.3879,-0.1149,0
18857,0.3232,-0.0098,0.3121,0.0036,0.0302,-0.0110,0.06,-0.23,2.16,0,3.579,-0.041,-3.890,0.881,0.006,-0.018,1.007,0.000,0.000,0.000,0.3170,1,0,-0.78,-0.42,2.65,0.2583,-0.1227,0.3135,0.1405,0.2369,0.3000,0.2635,-16.53,15.69,-64.75,2.6650,0.9900,1.1650,1.6650,2.3890,122,0.2633,-0.1277,0.0333,0.3879,-0.1149,0
18908,0.3251,-0.0094,0.3139,0.0095,0.0268,0.0017,0.12,-0.09,2.20,0,3.568,3.622,-3.357,-1.557,0.003,-0.018,1.002,0.000,0.000,0.000,0.3130,3,-1,-0.75,-0.21,2.69,0.2586,-0.1249,0.3146,0.1368,0.2380,0.3000,0.2618,-16.78,16.42,-65.88,2.6650,0.9900,1.1650,1.6820,2.3890,122,0.2633,-0.1277,0.0333,0.3879,-0.1149,0
18959,0.3306,-0.0095,0.3136,0.0221,0.0217,0.0011,0.29,0.02,2.13,0,3.579,3.626,-6.206,-3.861,0.006,-0.019,1.000,0.000,0.000,0.000,0.3150,-1,-3,-0.51,-0.05,2.63,0.2619,-0.1329,0.3143,0.1331,0.2390,0.3000,0.2619,-17.01,17.57,-63.86,0.0000,0.9860,1.1590,1.6820,2.3920,122,0.2633,-0.1277,0.0333,0.3879,-0.1149,0
19011,0.3344,-0.0042,0.3142,0.0282,0.0289,0.0038,0.42,0.24,2.00,0,3.574,-2.547,-9.381,-2.596,0.004,-0.013,1.004,0.000,0.000,0.000,0.3150,0,-1,-0.35,0.22,2.46,0.2705,-0.1298,0.3146,0.1294,0.2400,0.3000,0.2615,-16.40,18.35,-59.88,0.0000,0.9860,1.1590,1.6760,2.3920,122,0.2633,-0.1277,0.0333,0.3879,-0.1149,0
19063,0.3363,-0.0027,0.3147,0.0271,0.0256,0.0057,0.35,0.56,1.84,0,3.579,2.095,-9.415,-2.768,0.006,-0.017,1.002,0.000,0.000,0.000,0.3140,0,-1,-0.48,0.71,2.32,0.2736,-0.1297,0.3150,0.1256,0.2409,0.3000,0.2612,-16.48,18.71,-55.12,2.7140,0.9840,1.1590,1.6760,2.3870,122,0.2633,-0.1277,0.0333,0.3879,-0.1149,0
19114,0.3395,-0.0017,0.3146,0.0260,0.0216,0.0031,0.46,0.97,1.69,0,3.574,2.294,-3.383,-3.059,0.003,-0.015,0.999,0.000,0.000,0.000,0.3140,0,0,-0.38,1.20,2.19,0.2767,-0.1296,0.3150,0.1219,0.2418,0.3000,0.2615,-16.57,19.09,-50.80,2.7140,0.9840,1.1590,1.6860,2.3870,122,0.2633,-0.1277,0.0333,0.3879,-0.1149,0
19165,0.3428,0.0018,0.3144,0.0226,0.0231,0.0005,0.60,1.10,1.53,0,3.579,-1.109,-0.665,-3.173,0.008,-0.021,0.995,0.000,0.000,0.000,0.3100,0,-1,-0.26,1.38,2.03,0.2792,-0.1302,0.3150,0.1181,0.2425,0.3000,0.2618,-16.27,19.38,-45.77,2.7430,0.9780,1.1580,1.6860,2.3850,122,0.2633,-0.1277,0.0333,0.3879,-0.1149,0
19216,0.3448,0.0024,0.3124,0.0159,0.0166,-0.0115,0.63,1.17,1.38,0,3.568,-1.996,-0.291,-2.300,0.005,-0.017,1.001,0.000,0.000,0.000,0.3100,0,0,-0.33,1.42,1.89,0.2797,-0.1281,0.3135,0.1143,0.2433,0.3000,0.2635,-16.41,19.36,-41.40,2.7430,0.9780,1.1580,1.6850,2.3850,122,0.2633,-0.1277,0.0333,0.3879,-0.1149,0
19267,0.3462,0.0031,0.3109,0.0078,0.0111,-0.0164,0.56,1.24,1.26,0,3.574,0.895,-5.289,-1.711,0.007,-0.017,1.000,0.000,0.000,0.000,0.3080,0,0,-0.43,1.44,1.77,0.2810,-0.1289,0.3123,0.1106,0.2439,0.3000,0.2643,-16.55,19.30,-37.85,2.7380,0.9740,1.1500,1.6850,2.3910,122,0.2633,-0.1277,0.0333,0.3879,-0.1149,0
19319,0.3494,0.0052,0.3090,0.0039,0.0100,-0.0208,0.58,1.35,1.17,0,3.568,-1.442,-0.461,-0.219,0.005,-0.016,1.006,0.000,0.000,0.000,0.3080,7,-1,-0.38,1.71,1.69,0.2819,-0.1299,0.3106,0.1068,0.2445,0.3000,0.2651,-16.41,19.52,-35.03,2.7380,0.9740,1.1500,1.6840,2.3910,122,0.2633,-0.1277,0.0333,0.3879,-0.1149,0
19371,0.3510,-0.0015,0.3078,-0.0040,-0.0109,-0.0187,0.59,1.41,1.12,0,3.574,-3.691,-0.885,-0.259,0.004,-0.019,1.003,0.000,0.000,0.000,0.3130,3,1,-0.31,1.71,1.41,0.2857,-0.1543,0.3093,0.1029,0.2451,0.3000,0.2651,-17.72,19.55,-33.46,2.7380,0.9630,1.1530,1.6840,2.3990,122,0.2633,-0.1277,0.0333,0.3879,-0.1149,0
19423,0.3489,0.0030,0.3096,-0.0197,-0.0048,-0.0024,0.42,1.45,1.08,0,3.574,-2.691,1.380,-0.555,0.004,-0.018,1.007,0.000,0.000,0.000,0.3090,0,1,-0.49,1.77,1.38,0.2845,-0.1619,0.3099,0.0990,0.2456,0.3000,0.2630,-17.29,19.15,-32.52,2.7380,0.9630,1.1530,1.6840,2.3990,122,0.2633,-0.1277,0.0333,0.3879,-0.1149,0
19475,0.3488,0.0002,0.3093,-0.0296,-0.0135,-0.0004,0.28,1.44,1.07,0,3.574,-2.882,6.840,-1.102,0.009,-0.015,1.005,0.000,0.000,0.000,0.3070,-1,0,-0.66,1.70,1.42,0.2825,-0.1647,0.3099,0.0951,0.2460,0.3000,0.2629,-17.83,19.00,-32.00,2.7450,0.9610,1.1520,1.6840,2.3930,122,0.2633,-0.1277,0.0333,0.3879,-0.1149,0
19526,0.3481,0.0011,0.3083,-0.0391,-0.0121,-0.0034,0.15,1.12,1.04,0,3.568,-2.349,4.234,-0.326,0.008,-0.019,0.999,0.000,0.000,0.000,0.3090,0,1,-0.85,1.34,1.47,0.2820,-0.1645,0.3095,0.0913,0.2464,0.3000,0.2634,-17.66,18.76,-31.08,2.7450,0.9610,1.1520,1.6820,2.3930,122,0.2633,-0.1277,0.0333,0.3879,-0.1149,0
19577,0.3460,0.0002,0.3085,-0.0483,-0.0137,-0.0000,0.03,0.85,1.03,0,3.574,-3.783,0.866,-0.544,0.007,-0.018,1.002,0.000,0.000,0.000,0.3050,0,0,-1.00,1.13,1.51,0.2794,-0.1660,0.3094,0.0875,0.2467,0.3000,0.2630,-17.79,18.51,-30.90,2.7340,0.9710,1.1580,1.6820,2.3910,99,0.2633,-0.1277,0.0333,0.3879,-0.1149,0
19628,0.3410,-0.0018,0.3069,-0.0607,-0.0169,-0.0068,-0.13,0.72,1.01,0,3.568,-0.952,6.166,-0.774,0.009,-0.013,1.008,0.000,0.000,0.000,0.3080,0,1,-1.19,1.09,1.49,0.2772,-0.1698,0.3080,0.0837,0.2470,0.3000,0.2640,-17.96,17.85,-30.34,2.7340,0.9710,1.1580,1.6800,2.3910,99,0.2633,-0.1277,0.0333,0.3879,-0.1149,0
19679,0.3387,-0.0027,0.3073,-0.0646,-0.0159,-0.0001,-0.21,0.43,0.97,0,3.574,-0.293,9.334,-0.527,0.009,-0.017,1.011,0.000,0.000,0.000,0.3060,0,4,-1.30,0.76,1.58,0.2771,-0.1648,0.3083,0.0799,0.2472,0.3000,0.2632,-17.99,17.84,-29.14,2.7280,0.9700,1.1550,1.6800,2.3930,99,0.2633,-0.1277,0.0333,0.3879,-0.1149,0
19730,0.3323,-0.0027,0.3067,-0.0745,-0.0125,0.0007,-0.22,-0.00,0.94,0,3.568,-0.926,7.377,0.070,0.009,-0.015,1.008,0.000,0.000,0.000,0.3080,3,0,-1.32,0.33,1.55,0.2685,-0.1656,0.3079,0.0760,0.2473,0.3000,0.2632,-17.80,17.26,-28.29,2.7280,0.9700,1.1550,1.6850,2.3930,99,0.2633,-0.1277,0.0333,0.3879,-0.1149,0
19782,0.3305,-0.0062,0.3074,-0.0696,-0.0170,0.0063,-0.22,-0.38,0.94,0,3.574,-0.883,4.876,-0.754,0.009,-0.016,1.002,0.000,0.000,0.000,0.3070,0,1,-1.33,-0.07,1.48,0.2675,-0.1726,0.3085,0.0722,0.2474,0.3000,0.2625,-18.23,17.65,-28.25,2.6790,0.9780,1.1660,1.6850,2.3960,99,0.2633,-0.1277,0.0333,0.3879,-0.1149,0
19834,0.3264,-0.0060,0.3075,-0.0678,-0.0133,0.0064,-0.23,-0.56,0.93,0,3.568,-2.072,6.957,-0.302,0.008,-0.014,1.002,0.000,0.000,0.000,0.3070,0,0,-1.38,-0.32,1.45,0.2645,-0.1732,0.3086,0.0683,0.2474,0.3000,0.2625,-18.01,17.72,-27.80,2.6790,0.9780,1.1660,1.6720,2.3960,99,0.2633,-0.1277,0.0333,0.3879,-0.1149,0
19886,0.3246,-0.0040,0.3075,-0.0590,-0.0054,0.0059,-0.31,-0.89,0.92,0,3.574,2.740,5.863,0.799,0.009,-0.011,1.004,0.000,0.000,0.000,0.3100,0,0,-1.49,-0.68,1.43,0.2621,-0.1749,0.3086,0.0644,0.2474,0.3000,0.2625,-17.50,18.22,-27.72,2.6610,0.9880,1.1630,1.6720,2.3940,99,0.2633,-0.1277,0.0333,0.3879,-0.1149,0
19937,0.3206,-0.0061,0.3089,-0.0539,-0.0072,0.0124,-0.17,-1.14,0.94,0,3.568,0.944,0.271,0.797,0.008,-0.012,1.003,0.000,0.000,0.000,0.3090,0,0,-1.35,-0.98,1.46,0.2603,-0.1762,0.3096,0.0605,0.2473,0.3000,0.2615,-17.72,18.49,-28.28,2.6610,0.9880,1.1630,1.6780,2.3940,99,0.2633,-0.1277,0.0333,0.3879,-0.1149,0
19988,0.3147,-0.0040,0.3094,-0.0513,-0.0001,0.0121,-0.15,-1.22,0.98,0,3.574,-0.122,3.170,1.060,0.006,-0.014,1.000,0.000,0.000,0.000,0.3080,1,0,-1.30,-1.00,1.50,0.2591,-0.1772,0.3101,0.0567,0.2471,0.3000,0.2615,-17.22,18.47,-29.32,2.6510,0.9910,1.1690,1.6780,2.3870,99,0.2633,-0.1277,0.0333,0.3879,-0.1149,0
20039,0.3149,-0.0075,0.3092,-0.0351,-0.0066,0.0075,-0.16,-1.31,1.01,0,3.568,1.162,-3.503,0.197,0.009,-0.017,1.001,0.000,0.000,0.000,0.3060,0,0,-1.31,-1.18,1.57,0.2615,-0.1779,0.3100,0.0529,0.2469,0.3000,0.2620,-17.63,19.38,-30.38,2.6510,0.9910,1.1690,1.6720,2.3870,99,0.2633,-0.1277,0.0333,0.3879,-0.1149,0
20091,0.3135,-0.0088,0.3080,-0.0238,-0.0074,-0.0007,-0.15,-1.23,1.03,0,3.574,-0.696,-4.448,0.229,0.002,-0.017,1.002,0.000,0.000,0.000,0.3070,2,-2,-1.25,-1.00,1.58,0.2622,-0.1785,0.3093,0.0490,0.2466,0.3000,0.2631,-17.62,19.93,-30.79,0.0000,0.9860,1.1680,1.6720,2.3970,99,0.2633,-0.1277,0.0333,0.3879,-0.1149,0
20142,0.3164,-0.0108,0.3075,-0.0049,-0.0097,-0.0027,-0.16,-1.08,1.04,0,3.563,-2.852,-2.515,0.674,0.007,-0.015,1.001,0.000,0.000,0.000,0.3070,0,-1,-1.25,-0.79,1.66,0.2662,-0.1823,0.3090,0.0452,0.2463,0.3000,0.2634,-17.76,21.10,-31.10,0.0000,0.9860,1.1680,1.6750,2.3970,99,0.2633,-0.1277,0.0333,0.3879,-0.1149,0
20194,0.3204,-0.0092,0.3072,0.0128,-0.0036,-0.0017,-0.23,-0.90,1.06,0,3.574,-4.127,-9.066,1.138,0.007,-0.021,1.005,0.000,0.000,0.000,0.3090,1,-4,-1.40,-0.67,1.69,0.2688,-0.1829,0.3087,0.0413,0.2459,0.3000,0.2634,-17.33,22.29,-31.72,2.6660,0.9800,1.1670,1.6750,2.3920,101,0.2633,-0.1277,0.0333,0.3879,-0.1149,0
20246,0.3268,-0.0116,0.3080,0.0321,-0.0059,0.0047,-0.46,-0.54,1.14,0,3.563,-3.075,-17.011,0.007,0.005,-0.019,1.005,0.000,0.000,0.000,0.3080,2,-3,-1.61,-0.24,1.81,0.2765,-0.1846,0.3090,0.0375,0.2454,0.3000,0.2625,-17.56,23.74,-34.08,2.6660,0.9800,1.1670,1.6740,2.3920,101,0.2633,-0.1277,0.0333,0.3879,-0.1149,0
20297,0.3291,-0.0133,0.3082,0.0368,-0.0051,0.0059,-0.59,0.16,1.18,0,3.568,-2.064,-10.802,0.849,0.004,-0.013,1.005,0.000,0.000,0.000,0.3090,-1,0,-1.74,0.62,1.90,0.2838,-0.1882,0.3091,0.0336,0.2449,0.3000,0.2624,-17.57,24.30,-35.27,0.0000,0.9840,1.1660,1.6740,2.3940,101,0.2633,-0.1277,0.0333,0.3879,-0.1149,0
20348,0.3320,-0.0134,0.3088,0.0363,0.0005,0.0083,-0.65,0.66,1.20,0,3.568,-7.265,-8.300,0.314,0.003,-0.019,1.004,0.000,0.000,0.000,0.3080,-3,-2,-1.87,1.20,1.91,0.2855,-0.1868,0.3098,0.0299,0.2444,0.3000,0.2620,-17.27,24.69,-35.87,0.0000,0.9840,1.1660,1.6730,2.3940,101,0.2633,-0.1277,0.0333,0.3879,-0.1149,0
20399,0.3400,-0.0142,0.3087,0.0433,0.0051,0.0068,-0.94,1.05,1.17,0,3.568,-5.161,-10.462,-2.031,0.006,-0.018,1.003,0.000,0.000,0.000,0.3070,0,0,-2.29,1.60,1.94,0.2906,-0.1804,0.3098,0.0261,0.2437,0.3000,0.2622,-17.03,25.00,-35.14,2.7450,0.9760,1.1700,1.6730,2.3900,101,0.2633,-0.1277,0.0333,0.3879,-0.1149,0
20450,0.3416,-0.0140,0.3082,0.0326,0.0134,0.0044,-1.28,1.43,1.12,0,3.563,0.674,-5.026,-1.463,0.005,-0.016,1.004,0.000,0.000,0.000,0.3110,-1,0,-2.55,2.14,1.86,0.2940,-0.1785,0.3095,0.0223,0.2430,0.3000,0.2625,-16.54,25.00,-33.62,2.7450,0.9760,1.1700,1.6850,2.3900,101,0.2633,-0.1277,0.0333,0.3879,-0.1149,0
20502,0.3421,-0.0139,0.3097,0.0176,0.0225,0.0116,-1.29,1.76,1.06,0,3.563,2.286,-2.502,-2.174,0.006,-0.019,1.001,0.000,0.000,0.000,0.3080,-2,0,-2.50,2.45,1.71,0.2904,-0.1784,0.3107,0.0185,0.2423,0.3000,0.2615,-16.10,25.00,-31.79,2.7590,0.9720,1.1690,1.6850,2.3890,101,0.2633,-0.1277,0.0333,0.3879,-0.1149,0
20553,0.3434,-0.0126,0.3093,0.0071,0.0318,0.0074,-1.22,1.85,0.96,0,3.568,-0.702,3.166,-3.165,0.006,-0.024,0.998,0.000,0.000,0.000,0.3070,-2,0,-2.39,2.58,1.63,0.2904,-0.1734,0.3104,0.0148,0.2415,0.3000,0.2620,-15.48,25.00,-28.82,2.7590,0.9720,1.1690,1.6830,2.3890,101,0.2633,-0.1277,0.0333,0.3879,-0.1149,0
20605,0.3458,-0.0061,0.3085,-0.0034,0.0522,0.0006,-1.25,1.71,0.82,0,3.568,3.938,6.903,-4.106,0.005,-0.020,1.004,0.000,0.000,0.000,0.3090,0,0,-2.43,2.42,1.49,0.2901,-0.1679,0.3097,0.0110,0.2406,0.3000,0.2629,-13.99,24.93,-24.51,2.7660,0.9770,1.1590,1.6830,2.3910,101,0.2633,-0.1277,0.0333,0.3879,-0.1149,0
20656,0.3448,-0.0068,0.3087,-0.0195,0.0551,0.0018,-1.08,1.49,0.64,0,3.563,7.091,4.540,-4.339,0.005,-0.015,1.005,0.000,0.000,0.000,0.3070,1,-1,-2.22,2.07,1.27,0.2884,-0.1633,0.3098,0.0073,0.2397,0.3000,0.2627,-13.81,24.47,-19.12,2.7660,0.9770,1.1590,1.6900,2.3910,101,0.2633,-0.1277,0.0333,0.3879,-0.1149,0
20707,0.3444,-0.0046,0.3081,-0.0305,0.0621,-0.0006,-0.72,1.28,0.44,0,3.568,4.196,7.059,-3.344,0.004,-0.026,1.000,0.000,0.000,0.000,0.3110,1,2,-1.74,1.79,0.87,0.2953,-0.1744,0.3107,0.0035,0.2387,0.3000,0.2631,-13.22,24.19,-13.10,2.7560,0.9610,1.1500,1.6900,2.3870,101,0.2633,-0.1277,0.0333,0.3879,-0.1149,0
20758,0.3413,-0.0014,0.3094,-0.0441,0.0675,0.0077,-0.49,0.95,0.25,0,3.568,5.086,8.112,-3.591,0.005,-0.023,0.999,0.000,0.000,0.000,0.3080,0,0,-1.49,1.46,0.57,0.2908,-0.1759,0.3114,-0.0002,0.2377,0.3000,0.2620,-12.71,23.78,-7.56,2.7560,0.9610,1.1500,1.6870,2.3870,101,0.2633,-0.1277,0.0333,0.3879,-0.1149,0
20809,0.3391,0.0018,0.3090,-0.0520,0.0708,0.0048,-0.25,0.58,0.07,0,3.568,4.142,6.671,-3.842,0.009,-0.020,0.998,0.000,0.000,0.000,0.3120,-2,2,-1.23,1.05,0.38,0.2884,-0.1746,0.3109,-0.0038,0.2366,0.3000,0.2623,-12.20,23.52,-2.05,2.7420,0.9780,1.1500,1.6870,2.3870,101,0.2633,-0.1277,0.0333,0.3879,-0.1149,0
20861,0.3349,0.0044,0.3105,-0.0602,0.0707,0.0104,-0.04,0.25,-0.12,0,3.568,0.144,7.860,-3.760,0.007,-0.024,1.001,0.000,0.000,0.000,0.3150,0,0,-1.04,0.72,0.23,0.2847,-0.1692,0.3117,-0.0075,0.2355,0.3000,0.2615,-11.95,23.22,3.59,2.7420,0.9780,1.1500,1.6990,2.3870,101,0.2633,-0.1277,0.0333,0.3879,-0.1149,0
20912,0.3307,0.0076,0.3128,-0.0648,0.0702,0.0194,-0.02,-0.10,-0.32,0,3.574,-0.660,8.481,-3.692,0.012,-0.020,0.996,0.000,0.000,0.000,0.3150,0,0,-1.03,0.32,0.03,0.2816,-0.1671,0.3132,-0.0111,0.2343,0.3000,0.2600,-11.69,23.10,9.56,2.7260,0.9690,1.1410,1.6990,2.3890,101,0.2633,-0.1277,0.0333,0.3879,-0.1149,0
20964,0.3263,0.0127,0.3144,-0.0666,0.0745,0.0205,-0.11,-0.42,-0.53,0,3.568,0.139,3.719,-4.590,0.009,-0.025,0.991,0.000,0.000,0.000,0.3140,0,0,-1.06,-0.11,-0.17,0.2787,-0.1651,0.3143,-0.0148,0.2330,0.3000,0.2596,-11.02,23.00,16.00,2.7260,0.9690,1.1410,1.7060,2.3890,101,0.2633,-0.1277,0.0333,0.3879,-0.1149,0
21015,0.3222,0.0148,0.3148,-0.0651,0.0715,0.0143,-0.15,-0.59,-0.75,0,3.574,-2.913,6.003,-4.905,0.012,-0.022,0.988,0.000,0.000,0.000,0.3130,0,1,-1.06,-0.30,-0.41,0.2761,-0.1632,0.3146,-0.0184,0.2317,0.3000,0.2602,-10.86,22.97,22.46,2.7020,0.9860,1.1340,1.7060,2.3900,121,0.2633,-0.1277,0.0333,0.3879,-0.1149,0
21066,0.3160,0.0195,0.3144,-0.0674,0.0755,0.0036,-0.29,-0.82,-0.97,0,3.568,-2.175,0.797,-3.295,0.006,-0.018,0.992,0.000,0.000,0.000,0.3170,0,1,-1.16,-0.64,-0.68,0.2798,-0.1689,0.3143,-0.0220,0.2303,0.3000,0.2615,-10.17,22.61,29.04,2.7020,0.9860,1.1340,1.7150,2.3900,121,0.2633,-0.1277,0.0333,0.3879,-0.1149,0
