time_ms,pos_x,pos_y,pos_z,vel_x,vel_y,vel_z,roll,pitch,yaw,thrust,vbat,gyro_x,gyro_y,gyro_z,acc_x,acc_y,acc_z,rate_roll,rate_pitch,rate_yaw,range_z,flow_dx,flow_dy,mekf_roll,mekf_pitch,mekf_yaw,mekf_x,mekf_y,mekf_z,our_ref_x,our_ref_y,our_ref_z,our_thrust,our_roll_cmd,our_pitch_cmd,our_yaw_rate_cmd,multi_front,multi_back,multi_left,multi_right,multi_up,ai_feat_count,vo_x,vo_y,vo_sigma,pg_x,pg_y,lc_count
0,0.0506,-0.0159,0.0102,0.0242,-0.0973,-0.0060,-0.88,0.77,-0.15,0,4.075,-0.116,0.206,-0.030,0.017,-0.023,1.000,0.000,0.000,0.000,0.0110,-1,0,0.00,0.00,0.00,0.0000,0.0000,0.0000,0.0000,0.0000,0.0000,0.0000,0.00,0.00,0.00,1.2090,0.0000,1.3970,1.1090,2.7010,307,0.0000,0.0000,0.0000,0.0000,0.0000,0
101,0.0489,-0.0110,0.0116,0.0120,-0.0531,0.0029,-1.06,0.85,-0.17,0,4.091,-0.145,0.060,-0.154,0.015,-0.022,1.000,0.000,0.000,0.000,0.0150,-5,-1,0.00,0.00,0.00,0.0000,0.0000,0.0000,0.0000,0.0000,0.0000,0.0000,0.00,0.00,0.00,1.2100,0.0000,1.3930,1.1110,2.7000,307,0.0000,0.0000,0.0000,0.0000,0.0000,0
202,0.0483,-0.0119,0.0135,0.0071,-0.0472,0.0107,-1.14,0.86,-0.17,0,4.080,0.013,-0.048,0.238,0.016,-0.021,0.999,0.000,0.000,0.000,0.0120,-1,1,0.00,0.00,0.00,0.0000,0.0000,0.0000,0.0000,0.0000,0.0000,0.0000,0.00,0.00,0.00,1.2100,0.0000,1.3930,1.1110,2.7000,307,0.0000,0.0000,0.0000,0.0000,0.0000,0
303,0.0497,-0.0138,0.0133,0.0130,-0.0462,0.0077,-1.11,0.80,-0.17,0,4.086,-0.154,0.309,0.111,0.014,-0.023,1.000,0.000,0.000,0.000,0.0110,-30,10,0.00,0.00,0.00,0.0000,0.0000,0.0000,0.0000,0.0000,0.0000,0.0000,0.00,0.00,0.00,1.2210,0.0000,1.3940,1.1090,2.6940,307,0.0000,0.0000,0.0000,0.0000,0.0000,0
405,0.0497,-0.0110,0.0127,0.0100,-0.0221,0.0035,-1.48,0.94,-0.19,0,4.075,0.160,0.302,-0.191,0.019,-0.021,1.002,0.000,0.000,0.000,0.0100,-5,0,0.00,0.00,0.00,0.0000,0.0000,0.0000,0.0000,0.0000,0.0000,0.0000,0.00,0.00,0.00,1.2210,0.0000,1.3940,1.1090,2.6940,307,0.0000,0.0000,0.0000,0.0000,0.0000,0
505,0.0478,0.0058,0.0109,0.0004,0.0674,-0.0056,-1.83,0.93,-0.20,0,4.086,-0.018,-0.005,0.436,0.017,-0.020,0.999,0.000,0.000,0.000,0.0140,-15,-27,0.00,0.00,0.00,0.0000,0.0000,0.0000,0.0000,0.0000,0.0000,0.0000,0.00,0.00,0.00,1.2170,0.0000,1.3930,1.1080,2.7010,322,0.0000,0.0000,0.0000,0.0000,0.0000,0
607,0.0464,-0.0003,0.0132,-0.0080,0.0242,0.0062,-1.59,0.71,-0.16,0,4.075,-0.128,-0.011,0.107,0.016,-0.020,1.000,0.000,0.000,0.000,0.0120,-5,-1,0.00,0.00,0.00,0.0000,0.0000,0.0000,0.0000,0.0000,0.0000,0.0000,0.00,0.00,0.00,1.2170,0.0000,1.3930,1.1080,2.7010,322,0.0000,0.0000,0.0000,0.0000,0.0000,0
709,0.0516,-0.0035,0.0135,0.0168,-0.0002,0.0065,-1.24,0.81,-0.16,0,4.091,0.004,-0.095,-0.060,0.017,-0.020,1.001,0.000,0.000,0.000,0.0100,3,0,0.00,0.00,0.00,0.0000,0.0000,0.0000,0.0000,0.0000,0.0000,0.0000,0.00,0.00,0.00,1.2070,0.0000,1.3950,1.1080,2.6970,322,0.0000,0.0000,0.0000,0.0000,0.0000,0
811,0.0516,-0.0038,0.0121,0.0138,-0.0006,-0.0003,-1.37,0.76,-0.16,0,4.080,-0.228,0.249,0.074,0.016,-0.020,0.998,0.000,0.000,0.000,0.0130,0,1,0.00,0.00,0.00,0.0000,0.0000,0.0000,0.0000,0.0000,0.0000,0.0000,0.00,0.00,0.00,1.2070,0.0000,1.3950,1.1080,2.6970,322,0.0000,0.0000,0.0000,0.0000,0.0000,0
912,0.0518,-0.0046,0.0127,0.0115,-0.0044,0.0025,-1.25,0.83,-0.17,0,4.086,-0.015,-0.072,-0.124,0.017,-0.022,0.998,0.000,0.000,0.000,0.0100,0,0,0.00,0.00,0.00,0.0000,0.0000,0.0000,0.0000,0.0000,0.0000,0.0000,0.00,0.00,0.00,1.2170,0.0000,1.3930,1.1100,2.7000,322,0.0000,0.0000,0.0000,0.0000,0.0000,0
1012,0.0517,-0.0045,0.0116,0.0083,-0.0023,-0.0028,-1.32,0.82,-0.17,0,4.075,-0.112,-0.046,0.257,0.016,-0.021,0.999,0.000,0.000,0.000,0.0110,0,-1,0.00,0.00,0.00,0.0000,0.0000,0.0000,0.0000,0.0000,0.0000,0.0000,0.00,0.00,0.00,1.2170,0.0000,1.3930,1.1100,2.7000,322,0.0000,0.0000,0.0000,0.0000,0.0000,0
1113,0.0510,-0.0048,0.0112,0.0029,-0.0035,-0.0035,-1.23,0.92,-0.17,0,4.086,-0.134,0.004,-0.074,0.016,-0.022,1.001,0.000,0.000,0.000,0.0120,-1,2,0.00,0.00,0.00,0.0000,0.0000,0.0000,0.0000,0.0000,0.0000,0.0000,0.00,0.00,0.00,1.2130,0.0000,1.3920,1.1100,2.6980,322,0.0000,0.0000,0.0000,0.0000,0.0000,0
1215,0.0516,-0.0046,0.0115,0.0041,-0.0027,-0.0018,-1.24,0.86,-0.17,0,4.075,-0.084,-0.131,0.111,0.020,-0.021,1.000,0.000,0.000,0.000,0.0100,-2,0,0.00,0.00,0.00,0.0000,0.0000,0.0000,0.0000,0.0000,0.0000,0.0000,0.00,0.00,0.00,1.2130,0.0000,1.3920,1.1100,2.6980,322,0.0000,0.0000,0.0000,0.0000,0.0000,0
1315,0.0520,-0.0048,0.0107,0.0056,-0.0032,-0.0048,-1.23,0.91,-0.17,0,4.091,0.202,0.174,0.260,0.018,-0.019,1.000,0.000,0.000,0.000,0.0140,-1,1,0.00,0.00,0.00,0.0000,0.0000,0.0000,0.0000,0.0000,0.0000,0.0000,0.00,0.00,0.00,1.2130,0.0000,1.3940,1.1130,2.7020,251,0.0000,0.0000,0.0000,0.0000,0.0000,0
1417,0.0529,-0.0145,0.0119,0.0092,-0.0502,0.0020,-0.86,0.88,-0.17,0,4.075,0.051,-0.071,-0.098,0.016,-0.021,1.000,0.000,0.000,0.000,0.0100,-4,0,0.00,0.00,0.00,0.0000,0.0000,0.0000,0.0000,0.0000,0.0000,0.0000,0.00,0.00,0.00,1.2130,0.0000,1.3940,1.1130,2.7020,251,0.0000,0.0000,0.0000,0.0000,0.0000,0
1518,0.0530,-0.0254,0.0104,0.0081,-0.0941,-0.0063,-0.59,0.90,-0.17,0,4.086,-0.337,-0.157,0.055,0.015,-0.024,0.999,0.000,0.000,0.000,0.0110,3,-2,0.00,0.00,0.00,0.0000,0.0000,0.0000,0.0000,0.0000,0.0000,0.0000,0.00,0.00,0.00,1.2090,0.0000,1.3900,1.1090,2.7010,251,0.0000,0.0000,0.0000,0.0000,0.0000,0
1568,0.0524,-0.0250,0.0109,0.0025,-0.0754,-0.0021,-0.87,0.89,-0.17,0,4.075,-0.167,0.118,0.181,0.016,-0.022,1.000,0.000,0.000,0.000,0.0150,-1,4,0.00,0.00,0.00,0.0000,0.0000,0.0000,0.0000,0.0000,0.0000,0.0000,0.00,0.00,0.00,1.2090,0.0000,1.3900,1.1090,2.7010,251,0.0000,0.0000,0.0000,0.0000,0.0000,0
1619,0.0530,-0.0250,0.0133,0.0050,-0.0612,0.0099,-0.89,0.90,-0.17,0,4.086,-0.128,-0.062,-0.123,0.019,-0.023,0.998,0.000,0.000,0.000,0.0130,2,5,0.00,0.00,0.00,0.0000,0.0000,0.0000,0.0000,0.0000,0.0000,0.0000,0.00,0.00,0.00,1.2080,0.0000,1.3890,1.1180,2.6990,251,0.0000,0.0000,0.0000,0.0000,0.0000,0
1671,0.0534,-0.0243,0.0138,0.0062,-0.0460,0.0097,-1.22,0.89,-0.17,0,4.070,-0.084,-0.025,-0.115,0.017,-0.023,1.000,0.000,0.000,0.000,0.0130,-1,3,0.00,0.00,0.00,0.0000,0.0000,0.0000,0.0000,0.0000,0.0000,0.0000,0.00,0.00,0.00,1.2080,0.0000,1.3890,1.1180,2.6990,251,0.0000,0.0000,0.0000,0.0000,0.0000,0
1721,0.0534,-0.0199,0.0140,0.0056,-0.0171,0.0088,-1.38,0.89,-0.17,0,4.091,0.083,0.011,0.274,0.016,-0.020,0.999,0.000,0.000,0.000,0.0100,-2,-1,0.00,0.00,0.00,0.0000,0.0000,0.0000,0.0000,0.0000,0.0000,0.0000,0.00,0.00,0.00,1.2190,0.0000,1.3940,1.1100,2.6970,251,0.0000,0.0000,0.0000,0.0000,0.0000,0
1773,0.0536,-0.0172,0.0125,0.0057,-0.0000,-0.0003,-1.37,0.87,-0.17,0,4.075,0.094,0.197,0.218,0.016,-0.021,1.000,0.000,0.000,0.000,0.0100,-4,-1,0.00,0.00,0.00,0.0000,0.0000,0.0000,0.0000,0.0000,0.0000,0.0000,0.00,0.00,0.00,1.2190,0.0000,1.3940,1.1100,2.6970,251,0.0000,0.0000,0.0000,0.0000,0.0000,0
1825,0.0545,-0.0163,0.0114,0.0084,0.0041,-0.0048,-1.32,0.88,-0.16,0,4.086,-0.043,0.236,-0.065,0.018,-0.020,1.000,0.000,0.000,0.000,0.0110,0,0,0.00,0.00,0.00,0.0000,0.0000,0.0000,0.0000,0.0000,0.0000,0.0000,0.00,0.00,0.00,1.2110,0.0000,1.3930,1.1110,2.7000,251,0.0000,0.0000,0.0000,0.0000,0.0000,0
1876,0.0547,-0.0153,0.0110,0.0079,0.0095,-0.0053,-1.39,0.88,-0.16,0,4.080,-0.104,0.242,0.008,0.018,-0.022,1.000,0.000,0.000,0.000,0.0110,2,0,0.00,0.00,0.00,0.0000,0.0000,0.0000,0.0000,0.0000,0.0000,0.0000,0.00,0.00,0.00,1.2110,0.0000,1.3930,1.1110,2.7000,0,0.0000,0.0000,0.0000,0.0000,0.0000,0
1927,0.0546,-0.0156,0.0108,0.0058,0.0066,-0.0043,-1.35,0.90,-0.16,0,4.086,0.065,0.172,0.212,0.018,-0.021,0.999,0.000,0.000,0.000,0.0110,0,0,0.00,0.00,0.00,0.0000,0.0000,0.0000,0.0000,0.0000,0.0000,0.0000,0.00,0.00,0.00,1.2090,0.0000,1.3970,1.1120,2.7080,0,0.0000,0.0000,0.0000,0.0000,0.0000,0
1979,0.0544,-0.0072,0.0106,0.0037,0.0470,-0.0050,-1.55,0.88,-0.16,0,4.075,-0.102,-0.086,0.101,0.016,-0.020,1.002,0.000,0.000,0.000,0.0120,1,0,0.00,0.00,0.00,0.0000,0.0000,0.0000,0.0000,0.0000,0.0000,0.0000,0.00,0.00,0.00,1.2090,0.0000,1.3970,1.1120,2.7080,0,0.0000,0.0000,0.0000,0.0000,0.0000,0
2031,0.0546,-0.0099,0.0115,0.0040,0.0270,0.0004,-1.44,0.90,-0.15,0,4.086,-0.005,-0.172,0.191,0.018,-0.021,1.000,0.000,0.000,0.000,0.0150,8,0,0.00,0.00,0.00,0.0000,0.0000,0.0000,0.0000,0.0000,0.0000,0.0000,0.00,0.00,0.00,1.2210,0.0000,1.3910,1.1140,2.7020,0,0.0000,0.0000,0.0000,0.0000,0.0000,0
2082,0.0549,-0.0087,0.0132,0.0052,0.0278,0.0082,-1.35,0.93,-0.16,0,4.075,-0.419,-0.056,0.050,0.015,-0.020,0.997,0.000,0.000,0.000,0.0130,6,3,0.00,0.00,0.00,0.0000,0.0000,0.0000,0.0000,0.0000,0.0000,0.0000,0.00,0.00,0.00,1.2210,0.0000,1.3910,1.1140,2.7020,0,0.0000,0.0000,0.0000,0.0000,0.0000,0
2133,0.0551,-0.0089,0.0135,0.0053,0.0232,0.0074,-1.32,0.92,-0.16,0,4.091,-0.059,-0.025,-0.138,0.017,-0.022,1.002,0.000,0.000,0.000,0.0110,9,2,0.00,0.00,0.00,0.0000,0.0000,0.0000,0.0000,0.0000,0.0000,0.0000,0.00,0.00,0.00,1.2180,0.0000,1.3900,1.1110,2.6980,0,0.0000,0.0000,0.0000,0.0000,0.0000,0
2185,0.0544,-0.0086,0.0127,0.0019,0.0216,0.0021,-1.27,0.92,-0.16,0,4.075,-0.124,-0.158,-0.219,0.016,-0.022,0.998,0.000,0.000,0.000,0.0130,-7,4,0.00,0.00,0.00,0.0000,0.0000,0.0000,0.0000,0.0000,0.0000,0.0000,0.00,0.00,0.00,1.2180,0.0000,1.3900,1.1110,2.6980,0,0.0000,0.0000,0.0000,0.0000,0.0000,0
2236,0.0544,0.0004,0.0128,0.0015,0.0613,0.0006,-1.58,0.96,-0.17,0,4.091,-0.062,0.280,-0.239,0.018,-0.021,1.000,0.000,0.000,0.000,0.0130,-3,3,0.00,0.00,0.00,0.0000,0.0000,0.0000,0.0000,0.0000,0.0000,0.0000,0.00,0.00,0.00,1.2090,0.0000,1.3930,1.1070,2.6980,0,0.0000,0.0000,0.0000,0.0000,0.0000,0
2287,0.0530,0.0033,0.0130,-0.0052,0.0636,0.0018,-1.68,0.94,-0.17,0,4.075,-0.284,0.107,-0.152,0.017,-0.020,1.001,0.000,0.000,0.000,0.0140,5,-3,0.00,0.00,0.00,0.0000,0.0000,0.0000,0.0000,0.0000,0.0000,0.0000,0.00,0.00,0.00,1.2090,0.0000,1.3930,1.1070,2.6980,0,0.0000,0.0000,0.0000,0.0000,0.0000,0
2338,0.0526,0.0116,0.0134,-0.0060,0.0930,0.0028,-1.78,0.95,-0.17,0,4.091,0.054,0.147,-0.102,0.016,-0.021,0.999,0.000,0.000,0.000,0.0110,-5,-1,0.00,0.00,0.00,0.0000,0.0000,0.0000,0.0000,0.0000,0.0000,0.0000,0.00,0.00,0.00,1.2170,0.0000,1.3920,1.1090,2.7050,0,0.0000,0.0000,0.0000,0.0000,0.0000,0
2390,0.0531,0.0106,0.0129,-0.0028,0.0704,0.0013,-1.84,0.94,-0.17,0,4.075,0.031,0.010,-0.229,0.015,-0.020,1.000,0.000,0.000,0.000,0.0100,1,0,0.00,0.00,0.00,0.0000,0.0000,0.0000,0.0000,0.0000,0.0000,0.0000,0.00,0.00,0.00,1.2170,0.0000,1.3920,1.1090,2.7050,0,0.0000,0.0000,0.0000,0.0000,0.0000,0
2442,0.0523,0.0115,0.0120,-0.0062,0.0579,-0.0020,-1.43,0.95,-0.17,0,4.091,-0.309,0.083,0.190,0.015,-0.022,1.003,0.000,0.000,0.000,0.0120,2,3,0.00,0.00,0.00,0.0000,0.0000,0.0000,0.0000,0.0000,0.0000,0.0000,0.00,0.00,0.00,1.2160,0.0000,1.3900,1.1110,2.6980,0,0.0000,0.0000,0.0000,0.0000,0.0000,0
2493,0.0521,0.0123,0.0120,-0.0060,0.0504,-0.0008,-1.23,0.91,-0.17,0,4.075,0.398,0.013,-0.396,0.016,-0.020,1.001,0.000,0.000,0.000,0.0140,5,-1,0.00,0.00,0.00,0.0000,0.0000,0.0000,0.0000,0.0000,0.0000,0.0000,0.00,0.00,0.00,1.2160,0.0000,1.3900,1.1110,2.6980,0,0.0000,0.0000,0.0000,0.0000,0.0000,0
2544,0.0505,-0.0068,0.0127,-0.0125,-0.0555,0.0045,-0.60,0.98,-0.19,0,4.086,0.069,0.147,0.177,0.015,-0.021,1.000,0.000,0.000,0.000,0.0130,7,0,0.00,0.00,0.00,0.0000,0.0000,0.0000,0.0000,0.0000,0.0000,0.0000,0.00,0.00,0.00,1.2070,0.0000,1.3940,1.1130,2.7040,0,0.0000,0.0000,0.0000,0.0000,0.0000,0
2596,0.0509,-0.0062,0.0134,-0.0081,-0.0433,0.0065,-0.74,0.93,-0.19,0,4.075,-0.085,0.087,-0.343,0.015,-0.021,1.002,0.000,0.000,0.000,0.0100,-8,0,0.00,0.00,0.00,0.0000,0.0000,0.0000,0.0000,0.0000,0.0000,0.0000,0.00,0.00,0.00,1.2070,0.0000,1.3940,1.1130,2.7040,0,0.0000,0.0000,0.0000,0.0000,0.0000,0
2646,0.0510,-0.0072,0.0121,-0.0055,-0.0428,-0.0009,-0.79,0.93,-0.19,0,4.086,0.019,-0.114,0.123,0.013,-0.021,0.998,0.000,0.000,0.000,0.0100,0,1,0.00,0.00,0.00,0.0000,0.0000,0.0000,0.0000,0.0000,0.0000,0.0000,0.00,0.00,0.00,1.2200,0.0000,1.3950,1.1100,2.7040,0,0.0000,0.0000,0.0000,0.0000,0.0000,0
2698,0.0508,-0.0064,0.0112,-0.0052,-0.0304,-0.0044,-0.82,0.91,-0.19,0,4.075,-0.060,0.028,0.023,0.016,-0.022,1.002,0.000,0.000,0.000,0.0130,-2,0,0.00,0.00,0.00,0.0000,0.0000,0.0000,0.0000,0.0000,0.0000,0.0000,0.00,0.00,0.00,1.2200,0.0000,1.3950,1.1100,2.7040,0,0.0000,0.0000,0.0000,0.0000,0.0000,0
2749,0.0508,-0.0066,0.0120,-0.0031,-0.0261,0.0008,-0.94,0.87,-0.20,0,4.091,-0.041,0.057,0.119,0.017,-0.022,0.999,0.000,0.000,0.000,0.0090,5,-2,0.00,0.00,0.00,0.0000,0.0000,0.0000,0.0000,0.0000,0.0000,0.0000,0.00,0.00,0.00,1.2170,0.0000,1.3920,1.1080,2.6940,0,0.0000,0.0000,0.0000,0.0000,0.0000,0
2800,0.0502,-0.0059,0.0106,-0.0052,-0.0185,-0.0055,-1.01,0.90,-0.19,0,4.075,-0.076,0.045,-0.006,0.016,-0.021,1.001,0.000,0.000,0.000,0.0120,2,-3,0.00,0.00,0.00,0.0000,0.0000,0.0000,0.0000,0.0000,0.0000,0.0000,0.00,0.00,0.00,1.2170,0.0000,1.3920,1.1080,2.6940,0,0.0000,0.0000,0.0000,0.0000,0.0000,0
2851,0.0508,-0.0041,0.0114,0.0003,-0.0072,0.0001,-1.07,0.87,-0.19,0,4.091,0.005,0.097,-0.232,0.019,-0.020,1.000,0.000,0.000,0.000,0.0110,5,0,0.00,0.00,0.00,0.0000,0.0000,0.0000,0.0000,0.0000,0.0000,0.0000,0.00,0.00,0.00,1.2170,0.0000,1.3940,1.1110,2.6990,0,0.0000,0.0000,0.0000,0.0000,0.0000,0
2901,0.0502,-0.0105,0.0111,-0.0024,-0.0392,-0.0009,-0.81,0.84,-0.19,0,4.075,-0.186,0.117,0.060,0.017,-0.021,0.998,0.000,0.000,0.000,0.0130,-9,1,0.00,0.00,0.00,0.0000,0.0000,0.0000,0.0000,0.0000,0.0000,0.0000,0.00,0.00,0.00,1.2170,0.0000,1.3940,1.1110,2.6990,0,0.0000,0.0000,0.0000,0.0000,0.0000,0
2953,0.0504,-0.0122,0.0122,-0.0002,-0.0414,0.0038,-0.91,0.88,-0.18,0,4.091,-0.127,-0.156,0.080,0.016,-0.019,1.001,0.000,0.000,0.000,0.0130,0,1,0.00,0.00,0.00,0.0000,0.0000,0.0000,0.0000,0.0000,0.0000,0.0000,0.00,0.00,0.00,1.2140,0.0000,1.3920,1.1110,2.6990,0,0.0000,0.0000,0.0000,0.0000,0.0000,0
3004,0.0506,-0.0110,0.0129,0.0017,-0.0288,0.0065,-1.00,0.84,-0.20,0,4.075,0.262,0.082,-0.179,0.016,-0.021,1.001,0.000,0.000,0.000,0.0140,15,1,0.00,0.00,0.00,0.0000,0.0000,0.0000,0.0000,0.0000,0.0000,0.0000,0.00,0.00,0.00,1.2140,0.0000,1.3920,1.1110,2.6990,0,0.0000,0.0000,0.0000,0.0000,0.0000,0
3056,0.0508,-0.0059,0.0138,0.0028,0.0031,0.0097,-1.09,0.85,-0.20,0,4.086,0.194,0.083,-0.164,0.016,-0.023,1.000,0.000,0.000,0.000,0.0110,-1,2,0.00,0.00,0.00,0.0000,0.0000,0.0000,0.0000,0.0000,0.0000,0.0000,0.00,0.00,0.00,1.2210,0.0000,1.3930,1.1100,2.7040,0,0.0000,0.0000,0.0000,0.0000,0.0000,0
3106,0.0512,-0.0081,0.0131,0.0046,-0.0094,0.0049,-1.28,0.87,-0.21,0,4.075,0.150,-0.035,-0.053,0.020,-0.021,1.001,0.000,0.000,0.000,0.0120,1,-1,0.00,0.00,0.00,0.0000,0.0000,0.0000,0.0000,0.0000,0.0000,0.0000,0.00,0.00,0.00,1.2210,0.0000,1.3930,1.1100,2.7040,0,0.0000,0.0000,0.0000,0.0000,0.0000,0
3158,0.0518,-0.0131,0.0129,0.0081,-0.0344,0.0025,-0.89,0.85,-0.19,0,4.086,-0.028,0.025,-0.130,0.014,-0.018,1.000,0.000,0.000,0.000,0.0100,2,0,0.00,0.00,0.00,0.0000,0.0000,0.0000,0.0000,0.0000,0.0000,0.0000,0.00,0.00,0.00,1.2150,0.0000,1.3920,1.1100,2.7050,0,0.0000,0.0000,0.0000,0.0000,0.0000,0
3208,0.0516,-0.0120,0.0118,0.0061,-0.0213,-0.0024,-1.05,0.81,-0.21,0,4.075,0.069,0.028,-0.070,0.017,-0.021,0.999,0.000,0.000,0.000,0.0120,-9,1,0.00,0.00,0.00,0.0000,0.0000,0.0000,0.0000,0.0000,0.0000,0.0000,0.00,0.00,0.00,1.2150,0.0000,1.3920,1.1100,2.7050,0,0.0000,0.0000,0.0000,0.0000,0.0000,0
3259,0.0520,-0.0188,0.0119,0.0073,-0.0524,-0.0012,-1.00,0.86,-0.20,0,4.086,-0.062,-0.039,0.223,0.017,-0.021,0.999,0.000,0.000,0.000,0.0140,0,-1,0.00,0.00,0.00,0.0000,0.0000,0.0000,0.0000,0.0000,0.0000,0.0000,0.00,0.00,0.00,1.2120,0.0000,1.3950,1.1110,2.6950,0,0.0000,0.0000,0.0000,0.0000,0.0000,0
3310,0.0518,-0.0155,0.0132,0.0059,-0.0251,0.0060,-0.95,0.84,-0.20,0,4.075,-0.123,0.007,-0.206,0.015,-0.019,1.001,0.000,0.000,0.000,0.0140,-3,1,0.00,0.00,0.00,0.0000,0.0000,0.0000,0.0000,0.0000,0.0000,0.0000,0.00,0.00,0.00,1.2120,0.0000,1.3950,1.1110,2.6950,0,0.0000,0.0000,0.0000,0.0000,0.0000,0
3361,0.0516,-0.0190,0.0139,0.0040,-0.0377,0.0084,-0.98,0.83,-0.20,0,4.080,0.325,-0.082,-0.223,0.017,-0.021,1.001,0.000,0.000,0.000,0.0090,-25,-3,0.00,0.00,0.00,0.0000,0.0000,0.0000,0.0000,0.0000,0.0000,0.0000,0.00,0.00,0.00,1.2160,0.0000,1.3910,1.1080,2.7030,0,0.0000,0.0000,0.0000,0.0000,0.0000,0
3412,0.0505,-0.0089,0.0120,-0.0021,0.0251,-0.0022,-1.43,0.89,-0.22,0,4.075,0.083,-0.168,-0.106,0.018,-0.022,1.000,0.000,0.000,0.000,0.0120,-3,0,0.00,0.00,0.00,0.0000,0.0000,0.0000,0.0000,0.0000,0.0000,0.0000,0.00,0.00,0.00,1.2160,0.0000,1.3910,1.1080,2.7030,0,0.0000,0.0000,0.0000,0.0000,0.0000,0
3464,0.0507,-0.0088,0.0120,-0.0001,0.0209,-0.0013,-1.45,0.89,-0.22,0,4.086,0.109,0.029,0.048,0.018,-0.024,1.001,0.000,0.000,0.000,0.0120,0,0,0.00,0.00,0.00,0.0000,0.0000,0.0000,0.0000,0.0000,0.0000,0.0000,0.00,0.00,0.00,1.2110,0.0000,1.3940,1.1110,2.6960,0,0.0000,0.0000,0.0000,0.0000,0.0000,0
3514,0.0505,-0.0086,0.0121,-0.0007,0.0179,-0.0005,-1.41,0.89,-0.21,0,4.075,0.015,0.108,0.341,0.017,-0.020,1.000,0.000,0.000,0.000,0.0100,-1,3,0.00,0.00,0.00,0.0000,0.0000,0.0000,0.0000,0.0000,0.0000,0.0000,0.00,0.00,0.00,1.2110,0.0000,1.3940,1.1110,2.6960,1,0.0000,0.0000,0.0000,0.0000,0.0000,0
3565,0.0509,-0.0072,0.0111,0.0022,0.0214,-0.0045,-1.37,0.91,-0.21,0,4.080,-0.026,-0.163,-0.048,0.016,-0.022,0.999,0.000,0.000,0.000,0.0110,3,0,0.00,0.00,0.00,0.0000,0.0000,0.0000,0.0000,0.0000,0.0000,0.0000,0.00,0.00,0.00,1.2140,0.0000,1.3950,1.1060,2.6990,1,0.0000,0.0000,0.0000,0.0000,0.0000,0
3617,0.0503,-0.0059,0.0109,-0.0007,0.0245,-0.0045,-1.17,0.82,-0.20,0,4.075,-0.171,0.188,0.266,0.017,-0.018,1.002,0.000,0.000,0.000,0.0130,2,-5,0.00,0.00,0.00,0.0000,0.0000,0.0000,0.0000,0.0000,0.0000,0.0000,0.00,0.00,0.00,1.2140,0.0000,1.3950,1.1060,2.6990,1,0.0000,0.0000,0.0000,0.0000,0.0000,0
3667,0.0520,-0.0260,0.0118,0.0086,-0.0799,0.0014,-0.59,0.82,-0.19,0,4.086,-0.070,0.041,0.085,0.015,-0.020,1.000,0.000,0.000,0.000,0.0150,0,0,0.00,0.00,0.00,0.0000,0.0000,0.0000,0.0000,0.0000,0.0000,0.0000,0.00,0.00,0.00,1.2080,0.0000,1.3910,1.1130,2.6990,1,0.0000,0.0000,0.0000,0.0000,0.0000,0
3718,0.0514,-0.0261,0.0137,0.0040,-0.0672,0.0109,-0.58,0.84,-0.19,0,4.075,0.267,-0.165,-0.053,0.017,-0.021,1.002,0.000,0.000,0.000,0.0120,-1,0,0.00,0.00,0.00,0.0000,0.0000,0.0000,0.0000,0.0000,0.0000,0.0000,0.00,0.00,0.00,1.2080,0.0000,1.3910,1.1130,2.6990,1,0.0000,0.0000,0.0000,0.0000,0.0000,0
3770,0.0516,-0.0267,0.0136,0.0051,-0.0560,0.0083,-0.92,0.84,-0.20,0,4.086,-0.131,0.039,-0.168,0.017,-0.019,1.001,0.000,0.000,0.000,0.0140,-3,0,0.00,0.00,0.00,0.0000,0.0000,0.0000,0.0000,0.0000,0.0000,0.0000,0.00,0.00,0.00,1.2190,0.0000,1.3910,1.1120,2.6960,1,0.0000,0.0000,0.0000,0.0000,0.0000,0
3820,0.0514,-0.0260,0.0143,0.0037,-0.0420,0.0098,-1.27,0.86,-0.21,0,4.075,-0.133,0.219,0.049,0.015,-0.021,1.004,0.000,0.000,0.000,0.0120,2,0,0.00,0.00,0.00,0.0000,0.0000,0.0000,0.0000,0.0000,0.0000,0.0000,0.00,0.00,0.00,1.2190,0.0000,1.3910,1.1120,2.6960,1,0.0000,0.0000,0.0000,0.0000,0.0000,0
3872,0.0000,-0.0000,0.0000,0.0011,-0.0014,0.0002,0.00,-0.00,-0.00,0,4.086,-0.067,-0.012,-0.003,0.016,-0.022,0.999,0.000,0.000,0.000,0.0130,5,2,0.00,0.00,0.00,0.0000,0.0000,0.0000,0.0000,0.0000,0.0000,0.0000,0.00,0.00,0.00,1.2220,0.0000,1.3900,1.1110,2.7010,1,0.0000,0.0000,0.0000,0.0000,0.0000,0
3923,0.0005,-0.0030,0.0124,0.0139,-0.0643,-0.0013,0.57,-0.15,0.00,0,4.075,0.214,0.110,-0.239,0.017,-0.023,1.000,0.000,0.000,0.000,0.0080,-15,-1,0.00,0.00,0.00,0.0000,0.0000,0.0000,0.0000,0.0000,0.0000,0.0000,0.00,0.00,0.00,1.2220,0.0000,1.3900,1.1110,2.7010,1,0.0000,0.0000,0.0000,0.0000,0.0000,0
3974,0.0011,-0.0077,0.0099,0.0185,-0.0956,-0.0052,0.20,0.11,-0.00,0,4.091,0.149,-0.062,-0.177,0.014,-0.023,1.000,0.000,0.000,0.000,0.0110,-14,0,0.00,0.00,0.00,0.0000,0.0000,0.0000,0.0000,0.0000,0.0000,0.0000,0.00,0.00,0.00,1.2100,0.0000,1.3930,1.1070,2.7010,1,0.0000,0.0000,0.0000,0.0000,0.0000,0
4025,0.0011,-0.0093,0.0107,0.0125,-0.0770,-0.0007,-0.14,0.20,-0.00,0,4.075,-0.021,-0.293,0.065,0.016,-0.022,1.000,0.000,0.000,0.000,0.0080,-1,2,0.00,0.00,0.00,0.0000,0.0000,0.0000,0.0000,0.0000,0.0000,0.0000,0.00,0.00,0.00,1.2100,0.0000,1.3930,1.1070,2.7010,1,0.0000,0.0000,0.0000,0.0000,0.0000,0
4075,0.0011,-0.0091,0.0099,0.0102,-0.0486,-0.0032,-1.02,0.45,0.01,0,4.086,0.015,0.037,-0.106,0.017,-0.022,1.000,0.000,0.000,0.000,0.0100,2,0,0.00,0.00,0.00,0.0000,0.0000,0.0000,0.0000,0.0000,0.0000,0.0000,0.00,0.00,0.00,1.2160,0.0000,1.3900,1.1100,2.7000,1,0.0000,0.0000,0.0000,0.0000,0.0000,0
4127,0.0012,-0.0091,0.0099,0.0082,-0.0302,-0.0022,-0.74,0.57,0.00,0,4.075,0.246,0.305,-0.107,0.018,-0.021,1.001,0.000,0.000,0.000,0.0110,9,-1,0.00,0.00,0.00,0.0000,0.0000,0.0000,0.0000,0.0000,0.0000,0.0000,0.00,0.00,0.00,1.2160,0.0000,1.3900,1.1100,2.7000,1,0.0000,0.0000,0.0000,0.0000,0.0000,0
4178,0.0016,-0.0125,0.0106,0.0102,-0.0426,0.0023,-0.87,0.87,0.01,0,4.086,-0.044,-0.111,0.270,0.015,-0.022,0.999,0.000,0.000,0.000,0.0090,1,-1,0.00,0.00,0.00,0.0000,0.0000,0.0000,0.0000,0.0000,0.0000,0.0000,0.00,0.00,0.00,1.2150,0.0000,1.3900,1.1120,2.7040,1,0.0000,0.0000,0.0000,0.0000,0.0000,0
4230,0.0011,-0.0093,0.0100,0.0058,-0.0061,-0.0012,-2.10,0.64,0.03,0,4.075,-0.089,-0.032,0.118,0.016,-0.021,1.000,0.000,0.000,0.000,0.0090,0,0,0.00,0.00,0.00,0.0000,0.0000,0.0000,0.0000,0.0000,0.0000,0.0000,0.00,0.00,0.00,1.2150,0.0000,1.3900,1.1120,2.7040,1,0.0000,0.0000,0.0000,0.0000,0.0000,0
4281,0.0025,-0.0040,0.0095,0.0137,0.0315,-0.0033,-2.17,0.68,0.03,0,4.086,0.016,-0.015,0.016,0.017,-0.022,0.999,0.000,0.000,0.000,0.0130,2,0,0.00,0.00,0.00,0.0000,0.0000,0.0000,0.0000,0.0000,0.0000,0.0000,0.00,0.00,0.00,1.2180,0.0000,1.3910,1.1100,2.6910,1,0.0000,0.0000,0.0000,0.0000,0.0000,0
4332,0.0016,-0.0137,0.0118,0.0054,-0.0301,0.0079,-1.42,0.74,0.01,0,4.075,-0.152,-0.217,-0.212,0.017,-0.020,1.001,0.000,0.000,0.000,0.0110,-6,0,0.00,0.00,0.00,0.0000,0.0000,0.0000,0.0000,0.0000,0.0000,0.0000,0.00,0.00,0.00,1.2180,0.0000,1.3910,1.1100,2.6910,1,0.0000,0.0000,0.0000,0.0000,0.0000,0
4383,0.0020,-0.0149,0.0119,0.0072,-0.0290,0.0063,-1.37,0.86,0.00,0,4.091,-0.056,0.082,0.096,0.015,-0.020,1.000,0.000,0.000,0.000,0.0130,1,-1,0.00,0.00,0.00,0.0000,0.0000,0.0000,0.0000,0.0000,0.0000,0.0000,0.00,0.00,0.00,1.2120,0.0000,1.3920,1.1100,2.6950,1,0.0000,0.0000,0.0000,0.0000,0.0000,0
4434,0.0011,-0.0129,0.0127,0.0014,-0.0112,0.0090,-1.39,0.95,-0.01,0,4.075,0.062,0.126,-0.077,0.017,-0.023,1.001,0.000,0.000,0.000,0.0100,0,1,0.00,0.00,0.00,0.0000,0.0000,0.0000,0.0000,0.0000,0.0000,0.0000,0.00,0.00,0.00,1.2120,0.0000,1.3920,1.1100,2.6950,1,0.0000,0.0000,0.0000,0.0000,0.0000,0
4486,0.0016,-0.0127,0.0118,0.0044,-0.0060,0.0035,-1.44,0.92,-0.01,0,4.086,-0.070,0.023,-0.220,0.015,-0.022,0.997,0.000,0.000,0.000,0.0110,0,1,0.00,0.00,0.00,0.0000,0.0000,0.0000,0.0000,0.0000,0.0000,0.0000,0.00,0.00,0.00,1.2200,0.0000,1.3910,1.1080,2.7010,1,0.0000,0.0000,0.0000,0.0000,0.0000,0
4537,0.0007,0.0001,0.0112,-0.0008,0.0633,-0.0010,-2.08,0.95,0.01,0,4.075,0.152,0.139,-0.054,0.016,-0.023,1.001,0.000,0.000,0.000,0.0120,-3,1,0.00,0.00,0.00,0.0000,0.0000,0.0000,0.0000,0.0000,0.0000,0.0000,0.00,0.00,0.00,1.2200,0.0000,1.3910,1.1080,2.7010,1,0.0000,0.0000,0.0000,0.0000,0.0000,0
4588,-0.0001,-0.0018,0.0119,-0.0048,0.0438,0.0034,-1.82,0.96,-0.00,0,4.086,0.158,-0.239,-0.455,0.015,-0.021,0.998,0.000,0.000,0.000,0.0100,-1,1,0.00,0.00,0.00,0.0000,0.0000,0.0000,0.0000,0.0000,0.0000,0.0000,0.00,0.00,0.00,1.2130,0.0000,1.3910,1.1110,2.7060,1,0.0000,0.0000,0.0000,0.0000,0.0000,0
4640,0.0005,-0.0025,0.0113,-0.0012,0.0337,0.0002,-1.86,0.89,0.00,0,4.075,-0.254,-0.313,0.202,0.017,-0.020,0.999,0.000,0.000,0.000,0.0110,7,1,0.00,0.00,0.00,0.0000,0.0000,0.0000,0.0000,0.0000,0.0000,0.0000,0.00,0.00,0.00,1.2130,0.0000,1.3910,1.1110,2.7060,1,0.0000,0.0000,0.0000,0.0000,0.0000,0
4691,0.0029,-0.0061,0.0115,0.0118,0.0107,0.0015,-1.42,0.87,-0.01,0,4.091,-0.074,-0.059,-0.113,0.017,-0.021,0.998,0.000,0.000,0.000,0.0120,5,0,0.00,0.00,0.00,0.0000,0.0000,0.0000,0.0000,0.0000,0.0000,0.0000,0.00,0.00,0.00,1.2210,0.0000,1.3940,1.1110,2.7000,1,0.0000,0.0000,0.0000,0.0000,0.0000,0
4742,0.0028,-0.0066,0.0118,0.0096,0.0076,0.0025,-1.44,0.80,-0.01,0,4.075,-0.184,-0.232,-0.019,0.017,-0.020,1.003,0.000,0.000,0.000,0.0080,-7,3,0.00,0.00,0.00,0.0000,0.0000,0.0000,0.0000,0.0000,0.0000,0.0000,0.00,0.00,0.00,1.2210,0.0000,1.3940,1.1110,2.7000,1,0.0000,0.0000,0.0000,0.0000,0.0000,0
4793,0.0032,0.0009,0.0101,0.0099,0.0429,-0.0061,-1.68,0.89,-0.00,0,4.086,0.011,0.030,-0.038,0.018,-0.021,0.999,0.000,0.000,0.000,0.0100,5,0,0.00,0.00,0.00,0.0000,0.0000,0.0000,0.0000,0.0000,0.0000,0.0000,0.00,0.00,0.00,1.2140,0.0000,1.3880,1.1120,2.7040,1,0.0000,0.0000,0.0000,0.0000,0.0000,0
4845,0.0032,-0.0062,0.0102,0.0083,0.0016,-0.0033,-1.24,0.88,-0.02,0,4.070,0.452,0.047,-0.155,0.018,-0.019,1.000,0.000,0.000,0.000,0.0120,-4,-2,0.00,0.00,0.00,0.0000,0.0000,0.0000,0.0000,0.0000,0.0000,0.0000,0.00,0.00,0.00,1.2140,0.0000,1.3880,1.1120,2.7040,1,0.0000,0.0000,0.0000,0.0000,0.0000,0
4897,0.0032,-0.0194,0.0105,0.0068,-0.0623,-0.0021,-0.83,0.89,-0.03,0,4.091,-0.036,0.191,0.101,0.016,-0.022,0.999,0.000,0.000,0.000,0.0100,-1,0,0.00,0.00,0.00,0.0000,0.0000,0.0000,0.0000,0.0000,0.0000,0.0000,0.00,0.00,0.00,1.2160,0.0000,1.3900,1.1090,2.7030,1,0.0000,0.0000,0.0000,0.0000,0.0000,0
4947,0.0031,-0.0189,0.0104,0.0051,-0.0485,-0.0013,-0.96,0.89,-0.03,0,4.075,0.170,-0.134,-0.024,0.019,-0.021,1.001,0.000,0.000,0.000,0.0120,4,0,0.00,0.00,0.00,0.0000,0.0000,0.0000,0.0000,0.0000,0.0000,0.0000,0.00,0.00,0.00,1.2160,0.0000,1.3900,1.1090,2.7030,3,0.0000,0.0000,0.0000,0.0000,0.0000,0
4998,0.0038,-0.0132,0.0114,0.0079,-0.0115,0.0035,-1.15,0.88,-0.03,0,4.086,0.069,-0.130,-0.150,0.018,-0.020,1.002,0.000,0.000,0.000,0.0100,0,3,0.00,0.00,0.00,0.0000,0.0000,0.0000,0.0000,0.0000,0.0000,0.0000,0.00,0.00,0.00,1.2190,0.0000,1.3940,1.1130,2.7000,3,0.0000,0.0000,0.0000,0.0000,0.0000,0
5050,0.0040,-0.0140,0.0109,0.0076,-0.0124,0.0006,-1.16,0.84,-0.03,0,4.075,-0.284,-0.111,0.026,0.017,-0.022,1.000,0.000,0.000,0.000,0.0120,11,1,0.00,0.00,0.00,0.0000,0.0000,0.0000,0.0000,0.0000,0.0000,0.0000,0.00,0.00,0.00,1.2190,0.0000,1.3940,1.1130,2.7000,3,0.0000,0.0000,0.0000,0.0000,0.0000,0
5100,0.0057,-0.0220,0.0114,0.0153,-0.0498,0.0033,-0.79,0.83,-0.04,0,3.632,-0.139,-1.017,0.980,0.009,-0.031,1.001,0.000,0.000,0.000,0.0100,3,-1,0.00,0.00,0.00,0.0000,0.0000,0.0000,0.0000,0.0000,0.0000,0.0000,0.00,0.00,0.00,1.2030,0.0000,1.3930,1.1100,2.7010,3,0.0000,0.0000,0.0000,0.0000,0.0000,0
5151,0.0057,-0.0240,0.0109,0.0065,-0.0417,-0.0002,-0.77,0.81,-0.04,0,3.700,0.256,0.168,-0.801,0.019,-0.019,1.002,0.000,0.000,0.000,0.0120,2,2,0.00,0.00,0.00,0.0000,0.0000,0.0000,0.0000,0.0000,0.0000,0.0000,0.00,0.00,0.00,1.2030,0.0000,1.3930,1.1100,2.7010,3,0.0000,0.0000,0.0000,0.0000,0.0000,0
5203,0.0061,-0.0232,0.0116,0.0008,-0.0195,0.0030,-1.05,0.79,-0.03,0,3.748,-0.978,0.785,1.411,0.025,0.003,0.991,0.000,0.000,0.000,0.0140,-19,-4,0.00,0.00,0.00,0.0000,0.0000,0.0000,0.0000,0.0000,0.0000,0.0000,0.00,0.00,0.00,1.2090,0.0000,1.3880,1.1090,2.6990,3,0.0000,0.0000,0.0000,0.0000,0.0000,0
5253,0.0061,-0.0188,0.0129,-0.0060,0.0147,0.0078,-1.37,0.70,-0.01,0,3.758,0.580,-1.330,-0.741,0.002,-0.008,0.999,0.000,0.000,0.000,0.0130,-2,5,0.00,0.00,0.00,0.0000,0.0000,0.0000,0.0000,0.0000,0.0000,0.0000,0.00,0.00,0.00,1.2090,0.0000,1.3880,1.1090,2.6990,3,0.0000,0.0000,0.0000,0.0000,0.0000,0
5305,0.0039,-0.0154,0.0133,-0.0225,0.0364,0.0084,-1.36,0.83,0.05,0,3.769,2.805,-1.039,-5.966,0.020,-0.008,1.025,0.000,0.000,0.000,0.0100,0,-2,0.00,0.00,0.00,0.0000,0.0000,0.0000,0.0000,0.0000,0.0000,0.0000,0.00,0.00,0.00,1.2120,0.0000,1.3940,1.1090,2.6990,3,0.0000,0.0000,0.0000,0.0000,0.0000,0
5356,0.0035,-0.0155,0.0123,-0.0257,0.0365,0.0009,-1.30,0.85,0.03,0,3.764,-0.404,2.623,5.884,0.018,0.002,1.034,0.000,0.000,0.000,0.0120,15,3,0.00,0.00,0.00,0.0000,0.0000,0.0000,0.0000,0.0000,0.0000,0.0000,0.00,0.00,0.00,1.2120,0.0000,1.3940,1.1090,2.6990,3,0.0000,0.0000,0.0000,0.0000,0.0000,0
5407,0.0039,-0.0138,0.0123,-0.0242,0.0453,0.0029,-1.18,0.73,0.24,0,3.769,-0.595,-2.729,21.222,0.021,-0.021,1.005,0.000,0.000,0.000,0.0100,-14,3,0.00,0.00,0.00,0.0000,0.0000,0.0000,0.0000,0.0000,0.0000,0.0000,0.00,0.00,0.00,1.2120,0.0000,1.3900,1.1100,2.6970,3,0.0000,0.0000,0.0000,0.0000,0.0000,0
5457,0.0045,-0.0176,0.0118,-0.0205,0.0252,0.0015,-1.03,0.63,1.29,0,3.764,-0.551,0.056,5.701,0.021,-0.009,1.004,0.000,0.000,0.000,0.0120,-5,1,0.00,0.00,0.00,0.0000,0.0000,0.0000,0.0000,0.0000,0.0000,0.0000,0.00,0.00,0.00,1.2120,0.0000,1.3900,1.1100,2.6970,3,0.0000,0.0000,0.0000,0.0000,0.0000,0
5509,-0.0007,-0.0144,0.0119,-0.0460,0.0413,0.0007,-1.04,0.70,1.65,0,3.774,4.009,-1.485,-3.095,0.018,-0.048,0.997,0.000,0.000,0.000,0.0150,0,2,0.00,0.00,0.00,0.0000,0.0000,0.0000,0.0000,0.0000,0.0000,0.0000,0.00,0.00,0.00,1.2160,0.0000,1.3690,1.1010,2.6990,3,0.0000,0.0000,0.0000,0.0000,0.0000,0
5559,-0.0004,-0.0189,0.0139,-0.0392,0.0166,0.0104,-0.88,0.57,1.66,0,3.758,1.372,4.635,-3.956,-0.001,-0.033,1.002,0.000,0.000,0.000,0.0100,0,0,0.00,0.00,0.00,0.0000,0.0000,0.0000,0.0000,0.0000,0.0000,0.0000,0.00,0.00,0.00,1.2160,0.0000,1.3690,1.1010,2.6990,0,0.0000,0.0000,0.0000,0.0000,0.0000,0
5610,-0.0010,-0.0180,0.0124,-0.0380,0.0226,-0.0007,-0.79,0.56,1.29,0,3.764,0.597,4.738,-4.126,-0.001,-0.031,0.977,0.000,0.000,0.000,0.0110,0,0,0.00,0.00,0.00,0.0000,0.0000,0.0000,0.0000,0.0000,0.0000,0.0000,0.00,0.00,0.00,1.2130,0.0000,1.3700,1.1040,2.7020,0,0.0000,0.0000,0.0000,0.0000,0.0000,0
5662,-0.0030,-0.0167,0.0116,-0.0429,0.0292,-0.0057,-0.78,0.54,1.07,0,3.753,-2.939,4.693,-5.378,0.006,-0.032,1.003,0.000,0.000,0.000,0.0100,0,0,0.00,0.00,0.00,0.0000,0.0000,0.0000,0.0000,0.0000,0.0000,0.0000,0.00,0.00,0.00,1.2130,0.0000,1.3700,1.1040,2.7020,0,0.0000,0.0000,0.0000,0.0000,0.0000,0
5713,-0.0052,-0.0151,0.0107,-0.0476,0.0357,-0.0048,-0.76,0.54,0.75,0,3.753,2.819,2.417,-3.084,0.010,-0.025,0.995,0.000,0.000,0.000,0.0090,0,0,0.00,0.00,0.00,0.0000,0.0000,0.0000,0.0000,0.0000,0.0000,0.0000,0.00,0.00,0.00,1.2070,0.0000,1.3800,1.1140,2.6990,0,0.0000,0.0000,0.0000,0.0000,0.0000,0
5764,-0.0077,-0.0132,0.0098,-0.0523,0.0423,-0.0044,-0.76,0.54,0.51,0,3.737,8.276,-0.621,-3.640,0.017,-0.021,0.995,0.000,0.000,0.000,0.0120,0,0,0.00,0.00,0.00,0.0000,0.0000,0.0000,0.0000,0.0000,0.0000,0.0000,0.00,0.00,0.00,1.2070,0.0000,1.3800,1.1140,2.6990,0,0.0000,0.0000,0.0000,0.0000,0.0000,0
5815,-0.0105,-0.0109,0.0107,-0.0568,0.0489,0.0016,-0.72,0.46,0.30,0,3.743,2.332,-0.247,-10.591,0.002,-0.020,1.037,0.000,0.000,0.000,0.0100,0,0,0.00,0.00,0.00,0.0000,0.0000,0.0000,0.0000,0.0000,0.0000,0.0000,0.00,0.00,0.00,1.1990,0.0000,1.3850,1.1150,2.7000,0,0.0000,0.0000,0.0000,0.0000,0.0000,0
5866,-0.0135,-0.0082,0.0104,-0.0613,0.0553,0.0026,-0.71,0.48,-0.09,0,3.732,11.598,6.383,-6.662,-0.007,-0.019,0.947,0.000,0.000,0.000,0.0100,0,0,0.00,0.00,0.00,0.0000,0.0000,0.0000,0.0000,0.0000,0.0000,0.0000,0.00,0.00,0.00,1.1990,0.0000,1.3850,1.1150,2.7000,0,0.0000,0.0000,0.0000,0.0000,0.0000,0
5916,-0.0166,-0.0053,0.0104,-0.0655,0.0617,-0.0016,-0.71,0.52,-0.51,0,3.732,9.667,4.404,-4.897,0.005,-0.028,1.020,0.000,0.000,0.000,0.0120,0,0,0.00,0.00,0.00,0.0000,0.0000,0.0000,0.0000,0.0000,0.0000,0.0000,0.00,0.00,0.00,1.2040,0.0000,1.3870,1.1180,2.6990,0,0.0000,0.0000,0.0000,0.0000,0.0000,0
5967,-0.0200,-0.0021,0.0111,-0.0703,0.0682,0.0077,-1.26,0.30,-0.69,0,3.721,7.082,6.410,0.053,0.013,-0.030,1.021,0.000,0.000,0.000,0.0120,-17,-10,0.00,0.00,0.00,0.0000,0.0000,0.0000,0.0000,0.0000,0.0000,0.0000,0.00,0.00,0.00,1.2040,0.0000,1.3870,1.1180,2.6990,0,0.0000,0.0000,0.0000,0.0000,0.0000,0
6019,-0.0119,0.0278,0.0119,-0.0365,0.1568,0.0170,-0.95,-0.26,-0.63,0,3.716,23.572,4.667,2.934,0.003,-0.030,1.052,0.000,0.000,0.000,0.0090,-62,-33,0.00,0.00,0.00,0.0000,0.0000,0.0000,0.0000,0.0000,0.0000,0.0000,0.00,0.00,0.00,1.2020,0.0000,1.3890,1.1240,2.7010,0,0.0000,0.0000,0.0000,0.0000,0.0000,0
6070,0.0212,0.0621,0.0111,0.0728,0.2428,0.0248,-0.81,-1.67,-0.54,0,3.700,83.160,-11.843,-5.491,0.003,-0.018,1.052,0.000,0.000,0.000,0.0120,-16,-11,0.00,0.00,0.00,0.0000,0.0000,0.0000,0.0000,0.0000,0.0000,0.0000,0.00,0.00,0.00,1.2020,0.0000,1.3890,1.1240,2.7010,0,0.0000,0.0000,0.0000,0.0000,0.0000,0
6122,0.0689,0.1233,0.0041,0.2209,0.3899,-0.0065,2.31,-2.06,-0.68,0,3.700,71.705,-16.453,-5.972,-0.001,-0.012,0.999,0.000,0.000,0.000,0.0020,8,-17,0.00,0.00,0.00,0.0000,0.0000,0.0000,0.0000,0.0000,0.0000,0.0000,0.00,0.00,0.00,1.1650,0.0000,1.4010,0.0000,2.7010,0,0.0000,0.0000,0.0000,0.0000,0.0000,0
6174,0.0857,0.1200,0.0053,0.2527,0.2900,0.0083,7.02,-1.23,-0.83,0,3.684,9.150,-58.102,-4.490,0.002,-0.001,0.984,0.000,0.000,0.000,0.0000,17,-7,0.00,0.00,0.00,0.0000,0.0000,0.0000,0.0000,0.0000,0.0000,0.0000,0.00,0.00,0.00,1.1650,0.0000,1.4010,0.0000,2.7010,0,0.0000,0.0000,0.0000,0.0000,0.0000,0
6225,0.0973,0.0803,0.0027,0.2550,0.0545,-0.0142,9.32,1.19,-1.13,0,3.674,-69.529,-62.772,2.073,0.006,0.001,0.972,0.000,0.000,0.000,0.0000,90,-11,0.00,0.00,0.00,0.0000,0.0000,0.0000,0.0000,0.0000,0.0000,0.0000,0.00,0.00,0.00,1.2310,0.0000,1.4480,0.0000,2.7210,0,0.0000,0.0000,0.0000,0.0000,0.0000,0
6276,0.0930,0.0111,-0.0122,0.1864,-0.2560,-0.0977,8.17,4.58,-1.35,0,3.637,-133.085,-23.534,3.909,0.004,-0.014,1.062,0.000,0.000,0.000,0.0000,50,12,0.00,0.00,0.00,0.0000,0.0000,0.0000,0.0000,0.0000,0.0000,0.0000,0.00,0.00,0.00,1.2310,0.0000,1.4480,0.0000,2.7210,0,0.0000,0.0000,0.0000,0.0000,0.0000,0
6327,0.0755,-0.0532,-0.0280,0.0516,-0.4881,-0.1447,2.93,6.99,-0.88,0,3.632,-81.653,70.564,-3.252,0.007,-0.006,1.162,0.000,0.000,0.000,0.0000,74,60,0.00,0.00,0.00,0.0000,0.0000,0.0000,0.0000,0.0000,0.0000,0.0000,0.00,0.00,0.00,1.3460,0.1560,1.4290,1.1160,2.7020,0,0.0000,0.0000,0.0000,0.0000,0.0000,0
6385,0.0422,-0.1117,-0.0422,-0.1404,-0.6355,-0.1188,-1.05,5.15,-0.55,0,3.632,-103.633,82.022,-5.515,0.005,-0.017,1.150,0.000,0.000,0.000,0.0000,23,27,0.00,0.00,0.00,0.0000,0.0000,0.0000,0.0000,0.0000,0.0000,0.0000,0.00,0.00,0.00,1.3460,0.1560,1.4290,1.1160,2.7020,0,0.0000,0.0000,0.0000,0.0000,0.0000,0
6437,-0.0012,-0.1561,-0.0385,-0.3295,-0.6614,-0.0016,-5.93,1.91,-0.55,0,3.669,-79.737,87.753,-4.486,0.005,-0.009,1.103,0.000,0.000,0.000,0.0110,9,17,0.00,0.00,0.00,0.0000,0.0000,0.0000,0.0000,0.0000,0.0000,0.0000,0.00,0.00,0.00,0.0000,0.1610,0.0000,1.1190,2.7230,0,0.0000,0.0000,0.0000,0.0000,0.0000,0
6488,-0.0347,-0.1869,-0.0130,-0.4118,-0.5651,0.1795,-10.99,-2.18,-1.13,0,3.690,-1.523,83.940,-0.179,0.005,-0.009,1.052,0.000,0.000,0.000,0.0260,-10,24,0.00,0.00,0.00,0.0000,0.0000,0.0000,0.0000,0.0000,0.0000,0.0000,0.00,0.00,0.00,0.0000,0.1610,0.0000,1.1190,2.7230,0,0.0000,0.0000,0.0000,0.0000,0.0000,0
6539,-0.0589,-0.1995,0.0212,-0.3908,-0.3708,0.3336,-12.56,-6.39,-1.84,0,3.721,29.482,44.149,2.511,0.015,-0.016,0.974,0.000,0.000,0.000,0.0450,-11,6,0.00,0.00,0.00,0.0000,0.0000,0.0000,0.0000,0.0000,0.0000,0.0000,0.00,0.00,0.00,1.1930,0.0000,0.3110,1.1330,2.7730,0,0.0000,0.0000,0.0000,0.0000,0.0000,0
6590,-0.0718,-0.1890,0.0529,-0.2894,-0.1246,0.4035,-12.25,-9.31,-2.30,0,3.711,55.816,-25.298,5.618,0.005,-0.026,0.933,0.000,0.000,0.000,0.0550,-36,-8,0.00,0.00,0.00,0.0000,0.0000,0.0000,0.0000,0.0000,0.0000,0.0000,0.00,0.00,0.00,1.1930,0.0000,0.3110,1.1330,2.7730,0,0.0000,0.0000,0.0000,0.0000,0.0000,0
6641,-0.0684,-0.1636,0.0683,-0.1354,0.0992,0.3516,-10.35,-9.09,-1.83,0,3.695,101.980,-38.946,6.771,-0.005,-0.023,0.928,0.000,0.000,0.000,0.0680,-24,-6,0.00,0.00,0.00,0.0000,0.0000,0.0000,0.0000,0.0000,0.0000,0.0000,0.00,0.00,0.00,1.1100,0.0000,0.0000,1.1480,2.7410,0,0.0000,0.0000,0.0000,0.0000,0.0000,0
6692,-0.0556,-0.1305,0.0769,0.0149,0.2836,0.2761,-5.97,-7.67,-1.20,0,3.679,99.061,-35.428,3.574,-0.005,-0.030,0.929,0.000,0.000,0.000,0.0770,-21,-6,0.00,0.00,0.00,0.0000,0.0000,0.0000,0.0000,0.0000,0.0000,0.0000,0.00,0.00,0.00,1.1100,0.0000,0.0000,1.1480,2.7410,0,0.0000,0.0000,0.0000,0.0000,0.0000,0
6744,-0.0423,-0.1010,0.0817,0.1231,0.3850,0.2061,-1.38,-6.22,-1.03,0,3.674,76.636,-49.120,1.720,-0.013,-0.033,0.953,0.000,0.000,0.000,0.0800,-43,-25,0.00,0.00,0.00,0.0000,0.0000,0.0000,0.0000,0.0000,0.0000,0.0000,0.00,0.00,0.00,1.1610,0.0000,1.4040,1.1940,2.6570,0,0.0000,0.0000,0.0000,0.0000,0.0000,0
6795,-0.0318,-0.0786,0.0880,0.1841,0.4021,0.1634,2.38,-4.08,-0.97,0,3.653,52.617,-50.421,1.561,-0.013,-0.036,0.986,0.000,0.000,0.000,0.0860,-7,8,0.00,0.00,0.00,0.0000,0.0000,0.0000,0.0000,0.0000,0.0000,0.0000,0.00,0.00,0.00,1.1610,0.0000,1.4040,1.1940,2.6570,0,0.0000,0.0000,0.0000,0.0000,0.0000,0
6846,-0.0234,-0.0539,0.0927,0.2011,0.4010,0.1371,5.46,-1.06,-0.99,0,3.663,47.694,-52.377,5.536,-0.006,-0.036,0.990,0.000,0.000,0.000,0.0870,-20,-5,0.00,0.00,0.00,0.0000,0.0000,0.0000,0.0000,0.0000,0.0000,0.0000,0.00,0.00,0.00,1.1900,0.0000,1.3970,1.2060,2.6270,0,0.0000,0.0000,0.0000,0.0000,0.0000,0
6898,-0.0260,-0.0546,0.1018,0.1364,0.2590,0.1437,8.07,1.82,-0.85,0,3.653,-7.862,-14.904,8.664,-0.013,-0.029,0.984,0.000,0.000,0.000,0.0890,-15,-16,0.00,0.00,0.00,0.0000,0.0000,0.0000,0.0000,0.0000,0.0000,0.0000,0.00,0.00,0.00,1.1900,0.0000,1.3970,1.2060,2.6270,0,0.0000,0.0000,0.0000,0.0000,0.0000,0
6949,-0.0201,-0.0445,0.1009,0.1218,0.1925,0.0953,7.82,2.48,-0.62,0,3.637,-29.767,11.800,9.395,-0.006,-0.018,1.007,0.000,0.000,0.000,0.0850,-6,-9,0.00,0.00,0.00,0.0000,0.0000,0.0000,0.0000,0.0000,0.0000,0.0000,0.00,0.00,0.00,1.3150,0.1470,1.3800,1.2070,2.6430,0,0.0000,0.0000,0.0000,0.0000,0.0000,0
7000,-0.0081,-0.0358,0.0967,0.1384,0.1361,0.0496,6.34,1.76,-0.25,0,3.621,-14.453,-18.837,9.701,-0.005,-0.019,1.048,0.000,0.000,0.000,0.0860,-5,-15,0.00,0.00,0.00,0.0000,0.0000,0.0000,0.0000,0.0000,0.0000,0.0000,0.00,0.00,0.00,1.3150,0.1470,1.3800,1.2070,2.6430,0,0.0000,0.0000,0.0000,0.0000,0.0000,0
7051,0.0018,-0.0309,0.0931,0.1408,0.0806,0.0336,5.59,2.47,0.10,0,3.626,-19.660,-15.205,9.466,-0.015,-0.017,1.058,0.000,0.000,0.000,0.0870,3,-16,0.00,0.00,0.00,0.0000,0.0000,0.0000,0.0000,0.0000,0.0000,0.0000,0.00,0.00,0.00,1.3630,0.0000,1.3580,1.2220,2.6250,0,0.0000,0.0000,0.0000,0.0000,0.0000,0
7102,0.0104,-0.0275,0.0919,0.1276,0.0351,0.0415,4.79,3.34,0.46,0,3.621,-24.562,-7.550,8.248,0.001,-0.015,1.070,0.000,0.000,0.000,0.0910,2,-4,0.00,0.00,0.00,0.0000,0.0000,0.0000,0.0000,0.0000,0.0000,0.0000,0.00,0.00,0.00,1.3630,0.0000,1.3580,1.2220,2.6250,0,0.0000,0.0000,0.0000,0.0000,0.0000,0
7152,0.0191,-0.0261,0.0937,0.1120,-0.0039,0.0683,3.57,3.61,0.85,0,3.632,-28.686,13.115,3.636,-0.004,-0.013,1.075,0.000,0.000,0.000,0.0930,10,-6,0.00,0.00,0.00,0.0000,0.0000,0.0000,0.0000,0.0000,0.0000,0.0000,0.00,0.00,0.00,1.4040,0.0000,1.3480,1.2210,2.6170,0,0.0000,0.0000,0.0000,0.0000,0.0000,0
7204,0.0237,-0.0265,0.0973,0.0790,-0.0306,0.0993,2.16,3.20,1.08,0,3.626,-22.438,10.234,0.316,0.004,-0.011,1.067,0.000,0.000,0.000,0.1100,5,-2,0.00,0.00,0.00,0.0000,0.0000,0.0000,0.0000,0.0000,0.3000,0.2925,-2.97,4.84,-32.39,1.4040,0.0000,1.3480,1.2210,2.6170,4,0.0000,0.0000,0.0000,0.0000,0.0000,0
7256,0.0278,-0.0302,0.1083,0.0543,-0.0555,0.1571,1.01,2.68,1.15,0,3.642,-10.083,12.414,-1.463,0.002,-0.011,1.067,0.000,0.000,0.000,0.1070,-4,1,2.16,-3.20,1.08,0.0237,-0.0265,0.1100,0.0000,0.0000,0.3000,0.2841,-4.39,4.17,-34.43,1.3990,0.0000,1.3470,1.2110,2.6030,4,0.0000,0.0000,0.0000,0.0000,0.0000,0
7308,0.0298,-0.0307,0.1138,0.0372,-0.0529,0.1766,0.46,2.02,1.05,0,3.637,-9.497,7.937,-3.962,-0.001,-0.012,1.044,0.000,0.000,0.000,0.1140,0,0,1.34,-3.71,1.01,0.0202,-0.0172,0.1103,0.0000,0.0000,0.3000,0.2810,-4.35,3.61,-31.46,1.3990,0.0000,1.3470,1.2110,2.6030,4,0.0000,0.0000,0.0000,0.0000,0.0000,0
7359,0.0333,-0.0349,0.1227,0.0245,-0.0625,0.1945,-0.07,1.55,0.92,0,3.653,-10.898,8.489,-3.582,0.003,-0.020,1.034,0.000,0.000,0.000,0.1260,0,3,0.84,-4.13,0.81,0.0212,-0.0143,0.1155,0.0000,0.0000,0.3000,0.2774,-5.11,3.31,-27.70,1.3900,0.0000,1.3580,1.2090,2.5860,4,0.0000,0.0000,0.0000,0.0000,0.0000,0
7411,0.0341,-0.0381,0.1336,0.0113,-0.0606,0.2158,-0.67,1.09,0.78,0,3.642,-5.050,12.857,-2.966,0.001,-0.013,1.031,0.000,0.000,0.000,0.1320,2,0,1.67,-1.63,0.72,0.0172,-0.0161,0.1293,0.0000,0.0000,0.3000,0.2731,-5.32,2.83,-23.48,1.3900,0.0000,1.3580,1.2090,2.5860,4,0.0000,0.0000,0.0000,0.0000,0.0000,0
7462,0.0351,-0.0411,0.1417,0.0055,-0.0558,0.2174,-0.84,0.50,0.59,0,3.658,-0.199,5.814,-4.122,0.004,-0.011,1.014,0.000,0.000,0.000,0.1500,0,0,1.93,-2.59,0.58,0.0171,-0.0180,0.1380,0.0000,0.0000,0.3000,0.2714,-5.34,2.65,-17.62,1.3730,0.0000,1.3650,1.2010,2.5630,4,0.0000,0.0000,0.0000,0.0000,0.0000,0
7513,0.0352,-0.0456,0.1558,0.0014,-0.0563,0.2401,-0.87,0.17,0.39,0,3.653,-2.911,2.052,-3.918,0.002,-0.013,1.006,0.000,0.000,0.000,0.1570,2,-1,1.89,-2.92,0.38,0.0189,-0.0211,0.1529,0.0000,0.0000,0.3000,0.2663,-5.78,2.52,-11.73,1.3730,0.0000,1.3650,1.2010,2.5630,4,0.0000,0.0000,0.0000,0.0000,0.0000,0
7564,0.0348,-0.0460,0.1662,-0.0018,-0.0385,0.2364,-1.16,0.10,0.22,0,3.663,4.165,3.273,-6.011,-0.001,-0.015,0.998,0.000,0.000,0.000,0.1690,5,2,0.74,-2.48,0.19,0.0198,-0.0218,0.1660,0.0000,0.0000,0.3000,0.2647,-5.01,2.36,-6.73,1.3640,0.0000,1.3740,1.1930,2.5380,4,0.0000,0.0000,0.0000,0.0000,0.0000,0
7616,0.0355,-0.0453,0.1783,0.0012,-0.0191,0.2383,-1.17,0.00,0.03,0,3.653,11.216,4.192,-5.926,0.004,-0.012,0.993,0.000,0.000,0.000,0.1800,1,1,1.66,-1.99,-0.14,0.0197,-0.0277,0.1780,0.0000,0.0000,0.3000,0.2622,-4.10,2.57,-0.87,1.3640,0.0000,1.3740,1.1930,2.5380,4,0.0000,0.0000,0.0000,0.0000,0.0000,0
7668,0.0336,-0.0415,0.1864,-0.0058,0.0055,0.2299,-0.60,-0.18,-0.21,0,3.663,10.271,1.427,-4.319,0.002,-0.015,0.988,0.000,0.000,0.000,0.1930,0,0,1.81,-1.83,-0.44,0.0195,-0.0312,0.1898,0.0000,0.0000,0.3000,0.2616,-2.69,2.11,6.36,1.3620,0.0000,1.3900,1.1910,2.5150,4,0.0000,0.0000,0.0000,0.0000,0.0000,0
7719,0.0327,-0.0401,0.1989,-0.0068,0.0155,0.2291,-0.15,-0.27,-0.41,0,3.658,5.854,2.904,-3.472,0.004,-0.014,0.981,0.000,0.000,0.000,0.2080,0,0,2.34,-1.92,-0.66,0.0212,-0.0370,0.2012,0.0000,0.0000,0.3000,0.2593,-2.14,2.01,12.36,1.3620,0.0000,1.3900,1.1910,2.5150,4,0.0000,0.0000,0.0000,0.0000,0.0000,0
7771,0.0320,-0.0367,0.2146,-0.0049,0.0263,0.2292,0.12,-0.38,-0.58,0,3.658,6.933,1.522,-1.888,0.002,-0.014,0.973,0.000,0.000,0.000,0.2050,2,-1,2.64,-2.09,-0.83,0.0240,-0.0445,0.2138,0.0000,0.0000,0.3000,0.2564,-1.39,2.09,17.25,1.3620,0.0000,1.3960,1.1890,2.4930,2,0.0000,0.0000,0.0000,0.0000,0.0000,0
7822,0.0304,-0.0373,0.2179,-0.0079,0.0194,0.1941,0.52,-0.42,-0.66,0,3.653,3.664,0.481,-0.731,0.002,-0.017,0.981,0.000,0.000,0.000,0.2280,-3,1,1.52,-1.62,-0.79,0.0204,-0.0336,0.2225,0.0000,0.0000,0.3000,0.2595,-1.75,1.80,19.94,1.3620,0.0000,1.3960,1.1890,2.4930,2,0.0192,-0.0312,0.0000,0.0192,-0.0312,0
7873,0.0310,-0.0382,0.2295,-0.0015,0.0093,0.1934,0.68,-0.37,-0.69,0,3.658,0.555,-1.360,0.141,-0.001,-0.012,0.980,0.000,0.000,0.000,0.2300,0,0,1.39,-1.53,-0.79,0.0209,-0.0334,0.2318,0.0000,0.0000,0.3000,0.2574,-2.31,2.17,20.61,1.3620,0.0000,1.4070,1.1740,2.4690,2,0.0192,-0.0312,0.0000,0.0192,-0.0312,0
7925,0.0308,-0.0388,0.2373,0.0009,0.0000,0.1763,0.76,-0.28,-0.69,0,3.653,-3.001,-1.343,0.831,0.001,-0.014,0.982,0.000,0.000,0.000,0.2380,0,0,1.42,-1.45,-0.78,0.0229,-0.0364,0.2399,0.0000,0.0000,0.3000,0.2578,-2.80,2.27,20.81,1.3620,0.0000,1.4070,1.1740,2.4690,2,0.0192,-0.0312,0.0000,0.0192,-0.0312,0
7976,0.0303,-0.0393,0.2446,0.0014,-0.0073,0.1604,0.66,-0.27,-0.67,0,3.658,-2.982,0.189,0.051,0.001,-0.012,0.981,0.000,0.000,0.000,0.2460,4,0,1.26,-1.38,-0.74,0.0256,-0.0402,0.2472,0.0000,0.0000,0.3000,0.2582,-3.18,2.26,20.09,1.3660,0.0000,1.4100,1.1720,2.4470,2,0.0192,-0.0312,0.0000,0.0192,-0.0312,0
8027,0.0296,-0.0414,0.2515,0.0011,-0.0175,0.1461,0.57,-0.30,-0.66,0,3.648,-6.727,-2.376,0.708,-0.001,-0.012,0.983,0.000,0.000,0.000,0.2560,8,0,0.92,-0.96,-0.72,0.0204,-0.0412,0.2543,0.0000,0.0000,0.3000,0.2584,-3.81,2.19,19.93,1.3660,0.0000,1.4100,1.1720,2.4470,2,0.0192,-0.0312,0.0000,0.0192,-0.0312,0
8079,0.0282,-0.0455,0.2594,-0.0009,-0.0308,0.1418,0.36,-0.18,-0.63,0,3.658,-6.612,-1.948,1.860,0.000,-0.013,0.982,0.000,0.000,0.000,0.2650,2,1,0.91,-0.81,-0.82,0.0211,-0.0520,0.2620,0.0000,0.0000,0.3000,0.2574,-4.76,2.00,19.03,1.3730,0.1800,1.4250,1.1600,2.4350,2,0.0192,-0.0312,0.0000,0.0192,-0.0312,0
8131,0.0278,-0.0528,0.2676,-0.0008,-0.0492,0.1393,0.09,-0.09,-0.54,0,3.653,-4.818,-0.104,3.315,0.004,-0.008,0.982,0.000,0.000,0.000,0.2750,7,0,0.52,-0.61,-0.72,0.0205,-0.0585,0.2696,0.0000,0.0000,0.3000,0.2561,-6.19,1.99,16.09,1.3730,0.1800,1.4250,1.1600,2.4350,2,0.0192,-0.0312,0.0000,0.0192,-0.0312,0
8181,0.0263,-0.0592,0.2766,-0.0041,-0.0602,0.1399,-0.11,-0.13,-0.40,0,3.658,-8.885,-0.873,3.828,0.004,-0.011,0.982,0.000,0.000,0.000,0.2780,4,0,0.58,-0.58,-0.72,0.0208,-0.0726,0.2767,0.0000,0.0000,0.3000,0.2543,-7.22,1.73,11.95,1.3860,0.0000,1.4290,1.1430,2.4250,2,0.0192,-0.0312,0.0000,0.0192,-0.0312,0
8233,0.0246,-0.0669,0.2827,-0.0072,-0.0715,0.1275,-0.43,-0.08,-0.21,0,3.653,-8.430,-1.168,4.472,0.003,-0.013,0.976,0.000,0.000,0.000,0.2870,3,1,0.17,-0.51,-0.55,0.0212,-0.0838,0.2829,0.0000,0.0000,0.3000,0.2545,-8.31,1.45,6.38,1.3860,0.0000,1.4290,1.1430,2.4250,2,0.0192,-0.0312,0.0000,0.0192,-0.0312,0
8284,0.0240,-0.0750,0.2897,-0.0072,-0.0796,0.1204,-0.82,-0.07,0.00,0,3.658,-5.491,2.429,4.527,0.002,-0.006,0.979,0.000,0.000,0.000,0.2940,4,1,-0.33,-0.34,-0.33,0.0194,-0.0928,0.2896,0.0000,0.0000,0.3000,0.2540,-9.30,1.41,-0.10,1.3930,0.0000,1.4320,1.1290,2.4000,2,0.0192,-0.0312,0.0000,0.0192,-0.0312,0
8335,0.0224,-0.0827,0.2963,-0.0098,-0.0824,0.1132,-1.10,-0.11,0.25,0,3.653,-8.506,-1.429,6.515,0.003,-0.012,0.977,0.000,0.000,0.000,0.2980,1,0,-0.57,-0.38,-0.17,0.0171,-0.1044,0.2958,0.0000,0.0000,0.3000,0.2535,-9.99,1.17,-7.47,1.3930,0.0000,1.4320,1.1290,2.4000,2,0.0192,-0.0312,0.0000,0.0192,-0.0312,0
8386,0.0206,-0.0882,0.3014,-0.0122,-0.0771,0.1003,-1.46,-0.07,0.53,0,3.658,-4.584,1.210,4.890,0.002,-0.010,0.981,0.000,0.000,0.000,0.3030,1,2,-1.18,-0.32,0.29,0.0174,-0.1084,0.3014,0.0000,0.0000,0.3000,0.2539,-10.11,0.92,-15.99,1.4020,0.0000,1.4390,1.1170,2.3970,2,0.0192,-0.0312,0.0000,0.0192,-0.0312,0
8437,0.0190,-0.0944,0.3060,-0.0140,-0.0713,0.0892,-1.63,-0.08,0.76,0,3.648,4.671,-1.797,4.586,-0.000,-0.010,0.981,0.000,0.000,0.000,0.3090,2,1,-1.54,-0.25,0.51,0.0120,-0.1121,0.3063,0.0000,0.0000,0.3000,0.2543,-10.27,0.71,-22.94,1.4020,0.0000,1.4390,1.1170,2.3970,2,0.0192,-0.0312,0.0000,0.0192,-0.0312,0
8489,0.0163,-0.0979,0.3108,-0.0181,-0.0582,0.0833,-1.48,-0.05,1.00,0,3.658,1.756,1.393,3.409,0.005,-0.011,0.985,0.000,0.000,0.000,0.3170,3,2,-1.32,-0.12,0.72,0.0091,-0.1185,0.3110,0.0000,0.0000,0.3000,0.2540,-9.91,0.32,-30.12,1.4130,0.0000,1.4420,1.1070,2.3940,2,0.0192,-0.0312,0.0000,0.0192,-0.0312,0
8540,0.0142,-0.1038,0.3169,-0.0208,-0.0533,0.0842,-1.41,-0.05,1.18,0,3.642,2.431,4.120,2.853,0.002,-0.010,0.984,0.000,0.000,0.000,0.3120,0,1,-1.17,-0.09,0.73,0.0029,-0.1279,0.3163,0.0000,0.0000,0.3000,0.2527,-10.15,0.03,-35.50,1.4130,0.0000,1.4420,1.1070,2.3940,2,0.0192,-0.0312,0.0000,0.0192,-0.0312,0
8591,0.0114,-0.1068,0.3178,-0.0242,-0.0427,0.0616,-1.31,-0.18,1.32,0,3.653,3.074,1.270,1.902,0.003,-0.019,0.984,0.000,0.000,0.000,0.3200,0,1,-1.18,-0.28,0.97,-0.0000,-0.1277,0.3185,0.0000,0.0000,0.3000,0.2550,-9.77,-0.33,-39.60,1.4280,0.1930,1.4390,1.0960,2.3800,7,0.0192,-0.0312,0.0000,0.0192,-0.0312,0
8643,0.0095,-0.1080,0.3212,-0.0245,-0.0299,0.0563,-1.16,-0.25,1.41,0,3.642,7.116,0.005,2.571,0.006,-0.011,0.989,0.000,0.000,0.000,0.3250,0,3,-1.13,-0.33,1.13,-0.0031,-0.1278,0.3219,0.0000,0.0000,0.3000,0.2549,-9.26,-0.49,-42.29,1.4280,0.1930,1.4390,1.0960,2.3800,7,0.0192,-0.0312,0.0000,0.0192,-0.0312,0
8694,0.0053,-0.1109,0.3252,-0.0290,-0.0237,0.0556,-0.82,-0.24,1.50,0,3.653,3.464,-0.436,1.216,0.002,-0.014,0.992,0.000,0.000,0.000,0.3290,0,1,-0.83,-0.20,1.14,-0.0133,-0.1278,0.3254,0.0000,0.0000,0.3000,0.2543,-9.19,-1.01,-45.07,1.4270,0.0000,1.4440,1.0990,2.3800,7,0.0192,-0.0312,0.0000,0.0192,-0.0312,0
8745,0.0022,-0.1122,0.3291,-0.0306,-0.0173,0.0560,-0.60,-0.33,1.54,0,3.642,2.867,3.372,0.422,0.005,-0.014,0.987,0.000,0.000,0.000,0.3290,0,1,-0.70,-0.18,1.26,-0.0164,-0.1278,0.3291,0.0000,0.0000,0.3000,0.2535,-9.01,-1.32,-46.21,1.4270,0.0000,1.4440,1.0990,2.3800,7,0.0192,-0.0312,0.0000,0.0192,-0.0312,0
8797,-0.0011,-0.1131,0.3312,-0.0318,-0.0126,0.0473,-0.44,-0.45,1.57,0,3.648,3.118,-0.033,0.182,0.000,-0.015,0.988,0.000,0.000,0.000,0.3300,0,1,-0.60,-0.36,1.32,-0.0196,-0.1278,0.3315,0.0000,0.0000,0.3000,0.2540,-8.84,-1.61,-46.95,1.4370,0.0000,1.4420,1.0960,2.3750,7,0.0192,-0.0312,0.0000,0.0192,-0.0312,0
8848,-0.0050,-0.1134,0.3324,-0.0334,-0.0083,0.0369,-0.29,-0.48,1.59,0,3.637,2.634,1.160,0.240,-0.001,-0.019,0.993,0.000,0.000,0.000,0.3280,0,0,-0.48,-0.35,1.36,-0.0228,-0.1276,0.3331,0.0000,0.0000,0.3000,0.2549,-8.62,-1.97,-47.67,1.4370,0.0000,1.4420,1.0960,2.3750,7,0.0192,-0.0312,0.0000,0.0192,-0.0312,0
8899,-0.0072,-0.1133,0.3316,-0.0305,-0.0047,0.0209,-0.17,-0.56,1.60,0,3.642,1.815,1.946,0.338,0.002,-0.016,0.999,0.000,0.000,0.000,0.3320,0,0,-0.34,-0.41,1.37,-0.0257,-0.1298,0.3333,0.0000,0.0000,0.3000,0.2568,-8.39,-1.98,-47.94,1.4370,0.0000,1.4400,1.0950,2.3680,7,0.0192,-0.0312,0.0000,0.0192,-0.0312,0
8951,-0.0106,-0.1138,0.3326,-0.0298,-0.0037,0.0187,-0.07,-0.62,1.62,0,3.637,2.331,0.484,0.204,0.001,-0.014,1.002,0.000,0.000,0.000,0.3360,0,0,-0.25,-0.51,1.39,-0.0284,-0.1323,0.3345,0.0000,0.0000,0.3000,0.2568,-8.38,-2.19,-48.55,1.4370,0.0000,1.4400,1.0950,2.3680,7,0.0192,-0.0312,0.0000,0.0192,-0.0312,0
9003,-0.0138,-0.1143,0.3350,-0.0285,-0.0037,0.0259,0.05,-0.60,1.62,0,3.648,0.905,0.265,-0.255,0.003,-0.016,1.001,0.000,0.000,0.000,0.3370,0,0,-0.13,-0.54,1.40,-0.0308,-0.1351,0.3366,0.0000,0.0000,0.3000,0.2556,-8.45,-2.37,-48.70,1.4410,0.0000,1.4430,1.0990,2.3570,7,0.0192,-0.0312,0.0000,0.0192,-0.0312,0
9055,-0.0173,-0.1148,0.3370,-0.0278,-0.0044,0.0300,0.11,-0.60,1.62,0,3.637,-0.890,1.189,0.098,0.002,-0.019,1.000,0.000,0.000,0.000,0.3320,0,0,-0.08,-0.55,1.39,-0.0329,-0.1382,0.3384,0.0000,0.0000,0.3000,0.2548,-8.55,-2.60,-48.62,1.4410,0.0000,1.4430,1.0990,2.3570,7,0.0192,-0.0312,0.0000,0.0192,-0.0312,0
9106,-0.0193,-0.1148,0.3358,-0.0240,-0.0049,0.0182,0.08,-0.60,1.63,0,3.642,-0.922,1.176,0.632,0.000,-0.015,1.008,0.000,0.000,0.000,0.3370,1,1,-0.13,-0.61,1.39,-0.0347,-0.1417,0.3380,0.0000,0.0000,0.3000,0.2563,-8.53,-2.55,-48.83,1.4430,0.0000,1.4400,1.0970,2.3630,7,0.0192,-0.0312,0.0000,0.0192,-0.0312,0
9158,-0.0219,-0.1148,0.3372,-0.0217,-0.0049,0.0215,0.06,-0.61,1.64,0,3.637,0.131,-1.924,-0.680,0.001,-0.019,1.001,0.000,0.000,0.000,0.3370,0,1,-0.38,-0.74,1.66,-0.0289,-0.1232,0.3396,0.0000,0.0000,0.3000,0.2557,-8.55,-2.63,-49.11,1.4430,0.0000,1.4400,1.0970,2.3630,7,0.0192,-0.0312,0.0000,0.0192,-0.0312,0
9208,-0.0241,-0.1183,0.3380,-0.0186,-0.0116,0.0226,0.07,-0.55,1.61,0,3.642,-0.640,0.094,-1.533,-0.000,-0.016,1.007,0.000,0.000,0.000,0.3430,0,0,-0.38,-0.63,1.62,-0.0299,-0.1240,0.3403,0.0000,0.0000,0.3000,0.2554,-9.13,-2.64,-48.26,1.4460,0.0000,1.4460,1.0940,2.3590,7,0.0192,-0.0312,0.0000,0.0192,-0.0312,0
9260,-0.0255,-0.1196,0.3414,-0.0149,-0.0132,0.0346,0.04,-0.55,1.56,0,3.637,-2.435,-0.925,-1.898,0.002,-0.014,1.001,0.000,0.000,0.000,0.3390,1,0,-0.41,-0.63,1.54,-0.0300,-0.1252,0.3429,0.0000,0.0000,0.3000,0.2534,-9.36,-2.58,-46.68,1.4460,0.0000,1.4460,1.0940,2.3590,4,0.0192,-0.0312,0.0000,0.0192,-0.0312,0
9312,-0.0257,-0.1251,0.3417,-0.0094,-0.0225,0.0291,-0.02,-0.51,1.47,0,3.642,-2.691,-2.740,-2.481,-0.001,-0.013,1.001,0.000,0.000,0.000,0.3430,1,-1,-0.53,-0.58,1.44,-0.0299,-0.1270,0.3435,0.0000,0.0000,0.3000,0.2540,-10.18,-2.32,-44.15,1.4470,0.0000,1.4460,1.0950,2.3540,4,0.0192,-0.0312,0.0000,-0.0301,-0.1255,0
9363,-0.0264,-0.1246,0.3435,-0.0060,-0.0188,0.0312,-0.21,-0.37,1.35,0,3.637,0.763,-0.938,-2.082,-0.001,-0.017,0.999,0.000,0.000,0.000,0.3450,0,0,-0.66,-0.45,1.32,-0.0283,-0.1292,0.3450,0.0000,0.0000,0.3000,0.2534,-9.99,-2.22,-40.40,1.4470,0.0000,1.4460,1.0950,2.3540,4,0.0192,-0.0312,0.0000,-0.0301,-0.1255,0
9415,-0.0257,-0.1255,0.3455,-0.0013,-0.0172,0.0330,-0.21,-0.31,1.23,0,3.642,-0.837,-2.516,-1.816,0.001,-0.016,0.998,0.000,0.000,0.000,0.3430,0,0,-0.63,-0.40,1.22,-0.0273,-0.1312,0.3467,0.0000,0.0000,0.3000,0.2528,-10.01,-1.94,-36.93,1.4470,0.0000,1.4490,1.0940,2.3550,4,0.0192,-0.0312,0.0000,-0.0301,-0.1255,0
9466,-0.0245,-0.1259,0.3458,0.0032,-0.0144,0.0266,-0.24,-0.20,1.12,0,3.637,0.114,-2.229,-1.245,0.005,-0.016,0.999,0.000,0.000,0.000,0.3490,1,-1,-0.67,-0.27,1.12,-0.0262,-0.1332,0.3471,0.0000,0.0000,0.3000,0.2535,-9.88,-1.63,-33.61,1.4470,0.0000,1.4490,1.0940,2.3550,4,0.0192,-0.0312,0.0000,-0.0301,-0.1255,0
9517,-0.0253,-0.1297,0.3485,0.0030,-0.0178,0.0325,-0.25,-0.08,1.04,0,3.642,0.006,-0.735,-0.867,0.006,-0.013,0.998,0.000,0.000,0.000,0.3420,0,1,-0.70,-0.15,1.08,-0.0253,-0.1324,0.3491,0.0000,0.0000,0.3000,0.2523,-10.35,-1.71,-31.33,1.4410,0.0000,1.4550,1.0890,2.3550,4,0.0192,-0.0312,0.0000,-0.0301,-0.1255,0
9568,-0.0247,-0.1296,0.3468,0.0042,-0.0139,0.0168,-0.23,-0.01,0.99,0,3.632,0.606,0.963,-0.877,0.002,-0.015,0.997,0.000,0.000,0.000,0.3490,0,1,-0.71,-0.09,1.01,-0.0260,-0.1332,0.3483,0.0000,0.0000,0.3000,0.2543,-10.09,-1.60,-29.56,1.4410,0.0000,1.4550,1.0890,2.3550,4,0.0192,-0.0312,0.0000,-0.0301,-0.1255,0
9619,-0.0246,-0.1297,0.3485,0.0040,-0.0112,0.0201,-0.21,-0.00,0.96,0,3.642,-0.920,-2.722,-0.592,-0.003,-0.013,1.000,0.000,0.000,0.000,0.3520,0,0,-0.69,-0.11,0.94,-0.0271,-0.1340,0.3496,0.0000,0.0000,0.3000,0.2536,-10.00,-1.60,-28.82,1.4500,0.0000,1.4490,1.1000,2.3490,4,0.0192,-0.0312,0.0000,-0.0301,-0.1255,0
9670,-0.0250,-0.1294,0.3510,0.0031,-0.0078,0.0264,-0.25,0.10,0.93,0,3.626,0.173,-0.816,-0.630,-0.004,-0.017,0.996,0.000,0.000,0.000,0.3480,-1,0,-0.74,0.03,0.91,-0.0265,-0.1353,0.3515,0.0000,0.0000,0.3000,0.2525,-9.86,-1.68,-27.92,1.4500,0.0000,1.4490,1.1000,2.3490,4,0.0192,-0.0312,0.0000,-0.0301,-0.1255,0
9722,-0.0256,-0.1305,0.3506,0.0009,-0.0070,0.0169,-0.24,0.15,0.92,0,3.632,1.811,0.618,-0.003,0.002,-0.014,1.002,0.000,0.000,0.000,0.3490,1,0,-0.80,0.08,0.94,-0.0268,-0.1307,0.3515,0.0000,0.0000,0.3000,0.2536,-9.86,-1.82,-27.45,1.4460,0.0000,1.4520,1.0930,2.3500,4,0.0192,-0.0312,0.0000,-0.0301,-0.1255,0
9773,-0.0258,-0.1266,0.3505,-0.0007,0.0022,0.0114,-0.17,0.12,0.90,0,3.626,0.906,1.926,0.872,-0.001,-0.015,1.001,0.000,0.000,0.000,0.3490,0,0,-0.68,0.05,0.91,-0.0267,-0.1327,0.3517,0.0000,0.0000,0.3000,0.2542,-9.12,-1.91,-27.11,1.4460,0.0000,1.4520,1.0930,2.3500,4,0.0192,-0.0312,0.0000,-0.0301,-0.1255,0
9825,-0.0240,-0.1300,0.3502,0.0013,-0.0022,0.0089,-0.11,0.08,0.95,0,3.637,-0.765,1.197,0.711,0.001,-0.014,1.003,0.000,0.000,0.000,0.3510,1,0,-0.64,-0.04,0.96,-0.0265,-0.1333,0.3518,0.0000,0.0000,0.3000,0.2545,-9.56,-1.69,-28.53,1.4460,0.0000,1.4540,1.0920,2.3470,4,0.0192,-0.0312,0.0000,-0.0301,-0.1255,0
9876,-0.0267,-0.1283,0.3510,-0.0037,0.0016,0.0118,-0.12,0.04,1.00,0,3.626,0.801,0.608,1.471,0.000,-0.012,1.005,0.000,0.000,0.000,0.3530,1,0,-0.65,-0.10,0.96,-0.0269,-0.1362,0.3524,0.0000,0.0000,0.3000,0.2540,-9.29,-2.13,-29.95,1.4460,0.0000,1.4540,1.0920,2.3470,4,0.0192,-0.0312,0.0000,-0.0301,-0.1255,0
9927,-0.0284,-0.1271,0.3525,-0.0066,0.0048,0.0175,-0.11,0.06,1.06,0,3.637,1.748,0.706,1.176,-0.006,-0.015,1.001,0.000,0.000,0.000,0.3530,1,1,-0.60,-0.13,1.01,-0.0268,-0.1387,0.3536,0.0000,0.0000,0.3000,0.2531,-9.08,-2.40,-31.70,1.4470,0.0000,1.4540,0.0000,2.3470,4,0.0192,-0.0312,0.0000,-0.0301,-0.1255,0
9978,-0.0285,-0.1274,0.3535,-0.0066,0.0047,0.0194,-0.03,0.03,1.11,0,3.632,-0.256,1.251,0.449,0.001,-0.017,1.001,0.000,0.000,0.000,0.3530,-1,0,-0.49,-0.14,1.03,-0.0291,-0.1415,0.3544,0.0000,0.0000,0.3000,0.2527,-9.12,-2.41,-33.24,1.4470,0.0000,1.4540,0.0000,2.3470,4,0.0192,-0.0312,0.0000,-0.0301,-0.1255,0
10030,-0.0308,-0.1293,0.3541,-0.0099,0.0015,0.0186,0.02,-0.03,1.13,0,3.637,0.145,0.916,0.901,0.002,-0.017,1.005,0.000,0.000,0.000,0.3500,0,0,-0.55,-0.21,1.10,-0.0291,-0.1396,0.3551,0.0000,0.0000,0.3000,0.2527,-9.42,-2.74,-33.87,1.4550,0.0000,1.4550,1.0940,2.3430,3,0.0192,-0.0312,0.0000,-0.0301,-0.1255,0
10081,-0.0322,-0.1296,0.3530,-0.0113,0.0007,0.0102,0.03,-0.04,1.17,0,3.621,-1.308,3.491,1.206,-0.002,-0.019,1.002,0.000,0.000,0.000,0.3530,-1,0,-0.54,-0.26,1.14,-0.0292,-0.1411,0.3546,0.0000,0.0000,0.3000,0.2538,-9.43,-2.90,-35.05,1.4550,0.0000,1.4550,1.0940,2.3430,3,0.0192,-0.0312,0.0000,-0.0301,-0.1255,0
10132,-0.0328,-0.1295,0.3534,-0.0108,0.0004,0.0109,0.02,-0.18,1.21,0,3.637,2.364,-0.578,1.300,0.001,-0.015,1.003,0.000,0.000,0.000,0.3530,0,1,-0.68,-0.44,1.29,-0.0290,-0.1343,0.3551,0.0000,0.0000,0.3000,0.2537,-9.45,-2.92,-36.19,1.4560,0.0000,1.4460,1.1040,2.3400,3,0.0192,-0.0312,0.0000,-0.0301,-0.1255,0
10183,-0.0321,-0.1280,0.3537,-0.0073,0.0028,0.0107,0.08,-0.20,1.25,0,3.626,1.241,-0.298,0.051,-0.000,-0.010,1.000,0.000,0.000,0.000,0.3580,2,-2,-0.56,-0.39,1.33,-0.0313,-0.1344,0.3554,0.0000,0.0000,0.3000,0.2536,-9.23,-2.70,-37.46,1.4560,0.0000,1.4460,1.1040,2.3400,3,0.0192,-0.0312,0.0000,-0.0301,-0.1255,0
10234,-0.0336,-0.1305,0.3564,-0.0073,-0.0023,0.0211,0.14,-0.14,1.28,0,3.637,-2.141,2.043,0.484,0.003,-0.015,0.997,0.000,0.000,0.000,0.3580,0,0,-0.45,-0.42,1.34,-0.0262,-0.1393,0.3571,0.0000,0.0000,0.3000,0.2520,-9.71,-2.82,-38.26,1.4550,0.0000,1.4480,1.0930,2.3360,3,0.0192,-0.0312,0.0000,-0.0301,-0.1255,0
10285,-0.0370,-0.1277,0.3581,-0.0109,0.0012,0.0230,0.13,-0.23,1.29,0,3.626,0.441,1.044,0.196,0.002,-0.015,0.995,0.000,0.000,0.000,0.3570,0,0,-0.56,-0.52,1.37,-0.0250,-0.1406,0.3583,0.0000,0.0000,0.3000,0.2515,-9.36,-3.26,-38.74,1.4550,0.0000,1.4480,1.0930,2.3360,3,0.0192,-0.0312,0.0000,-0.0301,-0.1255,0
10337,-0.0372,-0.1278,0.3584,-0.0086,0.0001,0.0181,0.11,-0.28,1.29,0,3.637,-0.036,0.999,-0.513,-0.000,-0.014,0.992,0.000,0.000,0.000,0.3580,0,0,-0.54,-0.58,1.38,-0.0235,-0.1420,0.3587,0.0000,0.0000,0.3000,0.2519,-9.41,-3.16,-38.75,1.4620,0.0000,1.4480,1.0960,2.3420,3,0.0192,-0.0312,0.0000,-0.0301,-0.1255,0
10388,-0.0384,-0.1278,0.3589,-0.0074,-0.0007,0.0136,0.11,-0.30,1.25,0,3.626,1.174,0.541,-1.226,-0.001,-0.016,0.997,0.000,0.000,0.000,0.3600,0,0,-0.54,-0.63,1.35,-0.0218,-0.1435,0.3590,0.0000,0.0000,0.3000,0.2523,-9.44,-3.18,-37.39,1.4620,0.0000,1.4480,1.0960,2.3420,3,0.0192,-0.0312,0.0000,-0.0301,-0.1255,0
10439,-0.0387,-0.1279,0.3599,-0.0049,-0.0017,0.0137,0.14,-0.28,1.20,0,3.637,-1.344,1.145,-0.910,0.003,-0.013,0.997,0.000,0.000,0.000,0.3600,0,0,-0.48,-0.65,1.29,-0.0199,-0.1452,0.3598,0.0000,0.0000,0.3000,0.2521,-9.50,-3.09,-35.99,1.4570,0.0000,1.4440,1.1050,2.3370,3,0.0192,-0.0312,0.0000,-0.0301,-0.1255,0
10491,-0.0387,-0.1261,0.3605,-0.0020,0.0005,0.0107,0.08,-0.29,1.14,0,3.626,-1.284,-1.896,-1.957,0.000,-0.015,0.995,0.000,0.000,0.000,0.3590,0,0,-0.55,-0.71,1.24,-0.0175,-0.1470,0.3603,0.0000,0.0000,0.3000,0.2523,-9.26,-2.94,-34.33,1.4570,0.0000,1.4440,1.1050,2.3370,3,0.0192,-0.0312,0.0000,-0.0301,-0.1255,0
10542,-0.0407,-0.1275,0.3602,-0.0029,-0.0023,0.0053,0.04,-0.23,1.08,0,3.637,-1.340,-0.461,-1.090,-0.001,-0.019,0.995,0.000,0.000,0.000,0.3610,0,0,-0.62,-0.61,1.14,-0.0149,-0.1488,0.3602,0.0000,0.0000,0.3000,0.2530,-9.47,-3.13,-32.35,1.4560,0.0000,1.4470,1.0940,2.3380,3,0.0192,-0.0312,0.0000,-0.0301,-0.1255,0
10593,-0.0408,-0.1276,0.3608,-0.0009,-0.0026,0.0051,0.00,-0.23,1.04,0,3.626,0.269,-1.508,0.277,-0.003,-0.015,0.996,0.000,0.000,0.000,0.3600,0,-1,-0.69,-0.59,1.08,-0.0120,-0.1509,0.3605,0.0000,0.0000,0.3000,0.2529,-9.50,-3.04,-31.06,1.4560,0.0000,1.4470,1.0940,2.3380,3,0.0192,-0.0312,0.0000,-0.0301,-0.1255,0
10645,-0.0405,-0.1274,0.3605,0.0016,-0.0019,0.0011,-0.02,-0.26,1.01,0,3.632,-0.233,-2.368,-0.479,-0.006,-0.020,0.993,0.000,0.000,0.000,0.3620,0,-1,-0.77,-0.40,1.04,-0.0288,-0.1369,0.3607,0.0000,0.0000,0.3000,0.2533,-9.44,-2.89,-30.38,1.4560,0.0000,1.4500,1.0980,2.3350,1,0.0192,-0.0312,0.0000,-0.0301,-0.1255,0
10697,-0.0384,-0.1275,0.3613,0.0068,-0.0018,0.0027,-0.01,-0.22,1.00,0,3.626,-0.240,-4.469,0.532,0.003,-0.014,0.994,0.000,0.000,0.000,0.3620,3,0,-0.78,-0.29,1.02,-0.0277,-0.1371,0.3610,0.0000,0.0000,0.3000,0.2530,-9.46,-2.49,-30.03,1.4560,0.0000,1.4500,1.0980,2.3350,1,0.0192,-0.0312,0.0000,-0.0301,-0.1255,0
10749,-0.0350,-0.1292,0.3617,0.0133,-0.0041,0.0024,0.03,-0.08,1.01,0,3.632,-0.407,0.181,0.233,0.003,-0.013,0.997,0.000,0.000,0.000,0.3630,0,0,-0.76,-0.05,1.03,-0.0270,-0.1395,0.3613,0.0000,0.0000,0.3000,0.2530,-9.69,-1.92,-30.23,1.4560,0.0000,1.4520,1.0920,2.3320,1,0.0192,-0.0312,0.0000,-0.0301,-0.1255,0
10800,-0.0337,-0.1350,0.3624,0.0149,-0.0128,0.0040,0.04,-0.03,1.03,0,3.626,-2.513,0.089,0.861,0.002,-0.015,0.996,0.000,0.000,0.000,0.3630,2,0,-0.78,-0.06,1.05,-0.0260,-0.1404,0.3616,0.0000,0.0000,0.3000,0.2527,-10.53,-1.75,-30.77,1.4560,0.0000,1.4520,1.0920,2.3320,1,0.0192,-0.0312,0.0000,-0.0301,-0.1255,0
10851,-0.0316,-0.1391,0.3628,0.0172,-0.0181,0.0037,-0.08,0.05,1.05,0,3.632,0.782,-2.908,1.632,0.000,-0.013,0.999,0.000,0.000,0.000,0.3590,-1,0,-0.87,-0.05,1.04,-0.0262,-0.1444,0.3618,0.0000,0.0000,0.3000,0.2526,-11.07,-1.48,-31.57,1.4560,0.0000,1.4480,1.0960,2.3410,1,0.0192,-0.0312,0.0000,-0.0301,-0.1255,0
10903,-0.0329,-0.1445,0.3611,0.0132,-0.0242,-0.0061,-0.13,0.15,1.12,0,3.621,-3.566,-1.081,1.431,0.001,-0.018,0.995,0.000,0.000,0.000,0.3600,0,0,-0.86,0.10,1.14,-0.0257,-0.1442,0.3607,0.0000,0.0000,0.3000,0.2540,-11.68,-1.77,-33.68,1.4560,0.0000,1.4480,1.0960,2.3410,1,0.0192,-0.0312,0.0000,-0.0301,-0.1255,0
10954,-0.0321,-0.1433,0.3602,0.0119,-0.0194,-0.0112,-0.25,0.26,1.21,0,3.626,-0.736,1.776,2.358,0.002,-0.016,1.001,0.000,0.000,0.000,0.3600,0,0,-1.04,0.15,1.22,-0.0251,-0.1455,0.3601,0.0000,0.0000,0.3000,0.2547,-11.35,-1.77,-36.33,1.4640,0.0000,1.4510,1.0920,2.3370,1,0.0192,-0.0312,0.0000,-0.0301,-0.1255,0
11005,-0.0302,-0.1444,0.3596,0.0116,-0.0173,-0.0118,-0.34,0.22,1.33,0,3.621,0.519,-0.413,2.281,0.001,-0.017,1.003,0.000,0.000,0.000,0.3580,0,0,-1.08,0.06,1.34,-0.0244,-0.1468,0.3596,0.0000,0.0000,0.3000,0.2549,-11.32,-1.64,-39.79,1.4640,0.0000,1.4510,1.0920,2.3370,1,0.0192,-0.0312,0.0000,-0.0301,-0.1255,0
11055,-0.0297,-0.1452,0.3583,0.0097,-0.0145,-0.0143,-0.32,0.25,1.46,0,3.626,-0.402,-1.884,3.548,0.000,-0.017,1.006,0.000,0.000,0.000,0.3600,0,-1,-1.05,0.08,1.45,-0.0237,-0.1480,0.3587,0.0000,0.0000,0.3000,0.2554,-11.23,-1.69,-43.71,1.4640,0.0000,1.4530,0.0000,2.3400,1,0.0192,-0.0312,0.0000,-0.0301,-0.1255,0
11107,-0.0276,-0.1453,0.3585,0.0101,-0.0110,-0.0097,-0.33,0.29,1.61,0,3.621,1.487,0.631,3.278,0.002,-0.016,1.000,0.000,0.000,0.000,0.3570,0,0,-1.11,0.16,1.69,-0.0219,-0.1446,0.3588,0.0000,0.0000,0.3000,0.2549,-11.09,-1.53,-48.21,1.4640,0.0000,1.4530,0.0000,2.3400,1,0.0192,-0.0312,0.0000,-0.0301,-0.1255,0
11158,-0.0261,-0.1451,0.3574,0.0092,-0.0072,-0.0115,-0.28,0.29,1.75,0,3.626,1.939,1.133,2.848,0.003,-0.016,1.003,0.000,0.000,0.000,0.3550,0,0,-1.04,0.12,1.86,-0.0211,-0.1447,0.3580,0.0000,0.0000,0.3000,0.2552,-10.88,-1.46,-52.63,1.4670,0.0000,1.4460,1.0850,2.3390,1,0.0192,-0.0312,0.0000,-0.0301,-0.1255,0
11209,-0.0277,-0.1457,0.3557,0.0035,-0.0056,-0.0153,-0.22,0.26,1.90,0,3.616,0.053,-0.503,3.527,0.007,-0.018,1.008,0.000,0.000,0.000,0.3570,0,0,-0.94,0.06,2.01,-0.0202,-0.1448,0.3568,0.0000,0.0000,0.3000,0.2560,-10.83,-1.84,-57.00,1.4670,0.0000,1.4460,1.0850,2.3390,1,0.0192,-0.0312,0.0000,-0.0301,-0.1255,0
11260,-0.0297,-0.1436,0.3558,-0.0018,-0.0003,-0.0088,-0.18,0.18,2.06,0,3.626,0.108,-0.101,3.551,0.004,-0.016,1.007,0.000,0.000,0.000,0.3580,0,0,-0.94,0.09,2.19,-0.0192,-0.1450,0.3567,0.0000,0.0000,0.3000,0.2553,-10.46,-2.25,-61.67,1.4680,0.0000,1.4500,1.0830,2.3390,1,0.0192,-0.0312,0.0000,-0.0301,-0.1255,0
11311,-0.0321,-0.1392,0.3565,-0.0069,0.0080,-0.0011,-0.20,0.13,2.21,0,3.616,5.153,2.501,2.712,0.003,-0.019,1.003,0.000,0.000,0.000,0.3550,0,0,-0.93,0.09,2.37,-0.0182,-0.1451,0.3571,0.0000,0.0000,0.3000,0.2543,-9.80,-2.68,-66.31,1.4680,0.0000,1.4500,1.0830,2.3390,1,0.0192,-0.0312,0.0000,-0.0301,-0.1255,0
11362,-0.0309,-0.1340,0.3558,-0.0055,0.0167,-0.0018,-0.02,-0.02,2.35,0,3.626,4.595,0.353,2.755,0.006,-0.013,1.002,0.000,0.000,0.000,0.3550,-2,1,-0.67,-0.04,2.50,-0.0171,-0.1453,0.3566,0.0000,0.0000,0.3000,0.2545,-9.01,-2.53,-70.42,1.4710,0.0000,1.4440,1.0820,2.3410,1,0.0192,-0.0312,0.0000,-0.0301,-0.1255,0
11413,-0.0327,-0.1314,0.3554,-0.0075,0.0189,-0.0026,0.20,-0.05,2.47,0,3.621,3.593,0.422,1.797,0.002,-0.016,1.005,0.000,0.000,0.000,0.3580,0,0,-0.48,0.01,2.62,-0.0247,-0.1392,0.3563,0.0000,0.0000,0.3000,0.2547,-8.72,-2.75,-73.97,1.4710,0.0000,1.4440,1.0820,2.3410,1,0.0192,-0.0312,0.0000,-0.0301,-0.1255,0
11465,-0.0360,-0.1296,0.3566,-0.0112,0.0180,0.0052,0.37,-0.09,2.57,0,3.632,1.738,2.531,2.447,-0.000,-0.016,1.000,0.000,0.000,0.000,0.3580,0,0,-0.30,-0.02,2.71,-0.0251,-0.1384,0.3570,0.0000,0.0000,0.3000,0.2536,-8.67,-3.19,-76.96,1.4720,0.0000,1.4410,1.0860,2.3410,6,0.0192,-0.0312,0.0000,-0.0301,-0.1255,0
11516,-0.0393,-0.1285,0.3575,-0.0142,0.0150,0.0079,0.47,-0.19,2.67,0,3.621,0.441,1.608,1.853,0.007,-0.016,0.996,0.000,0.000,0.000,0.3570,0,0,-0.21,-0.15,2.84,-0.0254,-0.1378,0.3576,0.0000,0.0000,0.3000,0.2531,-8.76,-3.58,-80.02,1.4720,0.0000,1.4410,1.0860,2.3410,6,0.0192,-0.0312,0.0000,-0.0301,-0.1255,0
11567,-0.0414,-0.1210,0.3575,-0.0146,0.0217,0.0041,0.51,-0.25,2.74,0,3.626,-0.402,0.721,0.815,0.006,-0.017,0.996,0.000,0.000,0.000,0.3580,-2,0,-0.19,-0.23,2.93,-0.0256,-0.1376,0.3576,0.0000,0.0000,0.3000,0.2535,-7.88,-3.75,-82.30,1.4730,0.0000,1.4480,1.0850,2.3320,6,0.0192,-0.0312,0.0000,-0.0301,-0.1255,0
11619,-0.0402,-0.1293,0.3579,-0.0094,0.0037,0.0033,0.49,-0.29,2.82,0,3.621,-0.710,0.699,0.997,-0.003,-0.016,0.995,0.000,0.000,0.000,0.3570,0,1,-0.26,-0.26,3.02,-0.0258,-0.1329,0.3578,0.2177,-0.1324,0.3000,0.2535,-3.38,-18.54,-84.53,1.4730,0.0000,1.4480,1.0850,2.3320,6,0.0192,-0.0312,0.0000,-0.0301,-0.1255,0
11671,-0.0414,-0.1290,0.3575,-0.0081,0.0001,-0.0026,0.42,-0.31,2.89,0,3.621,-5.682,0.079,2.376,0.003,-0.014,0.996,0.000,0.000,0.000,0.3570,0,-1,-0.29,-0.29,3.07,-0.0266,-0.1322,0.3575,0.2177,-0.1324,0.3000,0.2542,-3.53,-18.52,-86.65,1.4750,0.0000,1.4400,1.0770,2.3380,6,0.0192,-0.0312,0.0000,-0.0301,-0.1255,0
11723,-0.0412,-0.1278,0.3571,-0.0047,-0.0012,-0.0057,0.28,-0.27,2.95,0,3.616,-2.808,-1.662,0.889,0.006,-0.016,0.998,0.000,0.000,0.000,0.3570,0,1,-0.58,-0.31,3.19,-0.0256,-0.1317,0.3572,0.2177,-0.1324,0.3000,0.2546,-3.50,-18.33,-88.51,1.4750,0.0000,1.4400,1.0770,2.3380,6,0.0192,-0.0312,0.0000,-0.0301,-0.1255,0
11774,-0.0391,-0.1271,0.3568,0.0011,-0.0018,-0.0061,0.16,-0.15,3.01,0,3.626,-3.528,0.162,2.107,0.004,-0.016,1.001,0.000,0.000,0.000,0.3570,0,0,-0.73,-0.21,3.24,-0.0265,-0.1315,0.3569,0.2177,-0.1324,0.3000,0.2547,-3.47,-17.94,-90.30,1.4830,0.0000,1.4440,0.0000,2.3440,6,0.0192,-0.0312,0.0000,-0.0301,-0.1255,0
11826,-0.0360,-0.1302,0.3566,0.0072,-0.0080,-0.0066,0.12,-0.08,3.06,0,3.616,-1.396,-1.139,0.308,0.004,-0.016,0.998,0.000,0.000,0.000,0.3560,0,-1,-0.91,-0.21,3.34,-0.0261,-0.1312,0.3567,0.2177,-0.1324,0.3000,0.2548,-4.00,-17.46,-91.88,1.4830,0.0000,1.4440,0.0000,2.3440,6,0.0192,-0.0312,0.0000,-0.0301,-0.1255,0
11877,-0.0361,-0.1298,0.3560,0.0070,-0.0072,-0.0094,-0.01,-0.00,3.13,0,3.621,1.772,-2.729,0.131,0.002,-0.017,1.004,0.000,0.000,0.000,0.3560,0,0,-0.98,-0.17,3.37,-0.0236,-0.1312,0.3562,0.2177,-0.1324,0.3000,0.2552,-3.92,-17.45,-93.91,1.4790,0.0000,1.4430,1.0780,2.3470,6,0.0192,-0.0312,0.0000,-0.0301,-0.1255,0
11928,-0.0350,-0.1344,0.3555,0.0081,-0.0141,-0.0094,-0.02,0.05,3.18,0,3.616,-1.303,-0.716,-0.779,0.005,-0.015,0.998,0.000,0.000,0.000,0.3550,0,0,-0.89,-0.03,3.38,-0.0224,-0.1310,0.3560,0.2177,-0.1324,0.3000,0.2553,-4.59,-17.32,-95.37,1.4790,0.0000,1.4430,1.0780,2.3470,6,0.0192,-0.0312,0.0000,-0.0301,-0.1255,0
11979,-0.0321,-0.1379,0.3548,0.0116,-0.0189,-0.0115,-0.08,0.09,3.16,0,3.621,-0.864,-0.761,-1.175,0.004,-0.014,0.999,0.000,0.000,0.000,0.3550,0,-1,-0.95,0.00,3.34,-0.0210,-0.1307,0.3554,0.2177,-0.1324,0.3000,0.2557,-5.07,-16.96,-94.88,1.4720,0.0000,1.4470,1.0770,2.3430,6,0.0192,-0.0312,0.0000,-0.0301,-0.1255,0
12030,-0.0332,-0.1395,0.3545,0.0082,-0.0197,-0.0108,-0.21,0.13,3.19,0,3.616,-1.019,-2.639,1.620,0.005,-0.014,1.000,0.000,0.000,0.000,0.3550,0,0,-0.99,0.05,3.27,-0.0204,-0.1312,0.3550,0.2177,-0.1324,0.3000,0.2557,-5.22,-17.19,-95.67,1.4720,0.0000,1.4470,1.0770,2.3430,6,0.0192,-0.0312,0.0000,-0.0301,-0.1255,0
12082,-0.0320,-0.1420,0.3543,0.0083,-0.0208,-0.0089,-0.30,0.19,3.25,0,3.616,3.659,-2.038,-2.753,0.005,-0.015,1.002,0.000,0.000,0.000,0.3540,0,1,-1.04,0.18,3.35,-0.0190,-0.1310,0.3547,0.2177,-0.1324,0.3000,0.2555,-5.46,-17.12,-97.53,1.4760,0.0000,1.4420,0.0000,2.3450,6,0.0192,-0.0312,0.0000,-0.0301,-0.1255,0
12134,-0.0310,-0.1429,0.3538,0.0074,-0.0173,-0.0080,-0.30,0.22,3.22,0,3.611,2.002,0.505,-0.318,0.007,-0.014,0.999,0.000,0.000,0.000,0.3500,0,0,-0.85,0.33,3.16,-0.0225,-0.1313,0.3542,0.2177,-0.1324,0.3000,0.2555,-5.35,-17.10,-96.68,1.4760,0.0000,1.4420,0.0000,2.3450,6,0.0192,-0.0312,0.0000,-0.0301,-0.1255,0
12185,-0.0307,-0.1436,0.3517,0.0058,-0.0153,-0.0153,-0.30,0.14,3.20,0,3.616,-1.198,0.632,-1.366,0.001,-0.018,0.998,0.000,0.000,0.000,0.3530,0,0,-0.74,0.31,3.15,-0.0222,-0.1311,0.3525,0.2177,-0.1324,0.3000,0.2567,-5.28,-17.08,-96.04,1.4760,0.0000,1.4480,1.0760,2.3450,6,0.0192,-0.0312,0.0000,-0.0301,-0.1255,0
12237,-0.0288,-0.1437,0.3517,0.0073,-0.0117,-0.0111,-0.35,0.13,3.16,0,3.611,3.127,-1.265,-0.895,0.005,-0.016,1.004,0.000,0.000,0.000,0.3490,0,1,-0.80,0.27,3.08,-0.0219,-0.1311,0.3521,0.2177,-0.1324,0.3000,0.2562,-5.12,-16.92,-94.81,1.4760,0.0000,1.4480,1.0760,2.3450,6,0.0192,-0.0312,0.0000,-0.0301,-0.1255,0
12288,-0.0260,-0.1433,0.3500,0.0108,-0.0073,-0.0152,-0.34,0.12,3.14,0,3.611,1.089,-0.558,0.483,0.003,-0.015,1.004,0.000,0.000,0.000,0.3510,0,0,-0.64,0.37,3.00,-0.0259,-0.1313,0.3507,0.2177,-0.1324,0.3000,0.2570,-4.87,-16.54,-94.06,1.4730,0.0000,1.4460,1.0780,2.3580,6,0.0192,-0.0312,0.0000,-0.0301,-0.1255,0
12339,-0.0274,-0.1439,0.3498,0.0061,-0.0044,-0.0112,-0.25,0.09,3.11,0,3.611,2.311,-2.061,-0.777,-0.001,-0.015,1.004,0.000,0.000,0.000,0.3490,0,0,-0.59,0.40,3.02,-0.0266,-0.1314,0.3503,0.2177,-0.1324,0.3000,0.2566,-4.78,-16.86,-93.37,1.4730,0.0000,1.4460,1.0780,2.3580,6,0.0192,-0.0312,0.0000,-0.0301,-0.1255,0
12390,-0.0288,-0.1427,0.3491,0.0025,-0.0006,-0.0119,-0.18,0.13,3.08,0,3.621,1.347,0.674,-0.322,0.004,-0.012,1.007,0.000,0.000,0.000,0.3480,0,0,-0.47,0.51,2.99,-0.0275,-0.1317,0.3495,0.2177,-0.1324,0.3000,0.2568,-4.52,-17.10,-92.29,1.4680,0.0000,1.4460,1.0750,2.3550,6,0.0192,-0.0312,0.0000,-0.0301,-0.1255,0
12442,-0.0269,-0.1428,0.3480,0.0043,0.0010,-0.0107,-0.12,0.10,3.03,0,3.611,4.822,2.081,-1.042,0.002,-0.017,1.007,0.000,0.000,0.000,0.3480,0,0,-0.40,0.47,2.97,-0.0286,-0.1321,0.3488,0.2177,-0.1324,0.3000,0.2568,-4.44,-16.90,-90.88,1.4680,0.0000,1.4460,1.0750,2.3550,6,0.0192,-0.0312,0.0000,-0.0301,-0.1255,0
12494,-0.0269,-0.1415,0.3476,0.0033,0.0040,-0.0070,0.01,0.03,3.00,0,3.611,0.809,-1.972,-0.428,0.000,-0.022,1.001,0.000,0.000,0.000,0.3450,0,0,-0.15,0.37,2.91,-0.0297,-0.1327,0.3484,0.2177,-0.1324,0.3000,0.2565,-4.21,-16.96,-90.05,1.4650,0.0000,1.4460,1.0780,2.3510,6,0.0192,-0.0312,0.0000,-0.0301,-0.1255,0
12544,-0.0257,-0.1335,0.3461,0.0051,0.0182,-0.0118,-0.01,0.08,2.97,0,3.605,3.631,-2.525,-0.891,0.001,-0.011,1.007,0.000,0.000,0.000,0.3460,0,0,-0.10,0.47,2.89,-0.0310,-0.1338,0.3472,0.2177,-0.1324,0.3000,0.2573,-2.94,-16.76,-89.16,1.4650,0.0000,1.4460,1.0780,2.3510,1,0.0192,-0.0312,0.0000,-0.0301,-0.1255,0
12596,-0.0218,-0.1312,0.3456,0.0108,0.0207,-0.0089,0.02,0.13,2.95,0,3.616,7.255,-1.322,-0.412,-0.002,-0.019,1.005,0.000,0.000,0.000,0.3440,-1,0,0.08,0.59,2.85,-0.0325,-0.1352,0.3467,0.2177,-0.1324,0.3000,0.2571,-2.66,-16.27,-88.37,1.4670,0.0000,1.4400,1.0850,2.3490,1,0.0192,-0.0312,0.0000,-0.0301,-0.1255,0
12647,-0.0221,-0.1302,0.3445,0.0081,0.0194,-0.0079,0.32,0.11,2.92,0,3.611,2.768,-1.464,-1.268,0.001,-0.017,1.001,0.000,0.000,0.000,0.3490,-1,1,0.38,0.60,2.96,-0.0242,-0.1238,0.3462,0.2177,-0.1324,0.3000,0.2572,-2.65,-16.40,-87.48,1.4670,0.0000,1.4400,1.0850,2.3490,1,0.0192,-0.0312,0.0000,-0.0301,-0.1255,0
12698,-0.0244,-0.1286,0.3465,0.0025,0.0175,0.0052,0.44,0.17,2.87,0,3.621,-2.443,-0.175,-0.930,0.004,-0.018,1.001,0.000,0.000,0.000,0.3450,0,-1,0.51,0.68,2.91,-0.0250,-0.1235,0.3470,0.2177,-0.1324,0.3000,0.2554,-2.65,-16.92,-86.21,1.4650,0.0000,1.4440,1.0820,2.3520,1,0.0192,-0.0312,0.0000,-0.0301,-0.1255,0
12749,-0.0229,-0.1281,0.3460,0.0037,0.0142,0.0026,0.38,0.23,2.81,0,3.611,-3.878,6.608,-2.256,0.005,-0.017,1.003,0.000,0.000,0.000,0.3470,0,0,0.39,0.68,2.85,-0.0249,-0.1241,0.3464,0.2177,-0.1324,0.3000,0.2558,-2.77,-16.75,-84.44,1.4650,0.0000,1.4440,1.0820,2.3520,1,0.0192,-0.0312,0.0000,-0.0301,-0.1255,0
12800,-0.0221,-0.1274,0.3466,0.0030,0.0108,0.0067,0.33,0.07,2.72,0,3.611,-0.779,0.906,-0.829,0.003,-0.014,1.005,0.000,0.000,0.000,0.3440,0,0,0.19,0.34,2.74,-0.0254,-0.1255,0.3467,0.2177,-0.1324,0.3000,0.2552,-2.89,-16.76,-81.55,1.4640,0.0000,1.4460,1.0830,2.3530,1,0.0192,-0.0312,0.0000,-0.0301,-0.1255,0
12850,-0.0238,-0.1296,0.3457,-0.0007,0.0033,0.0014,0.37,0.06,2.63,0,3.611,-4.524,1.728,-0.030,0.001,-0.017,1.002,0.000,0.000,0.000,0.3500,2,0,0.15,0.30,2.70,-0.0259,-0.1273,0.3460,0.2177,-0.1324,0.3000,0.2560,-3.39,-16.99,-78.81,1.4640,0.0000,1.4460,1.0830,2.3530,0,0.0192,-0.0312,0.0000,-0.0301,-0.1255,0
12902,-0.0233,-0.1328,0.3478,-0.0001,-0.0057,0.0103,0.25,-0.00,2.55,0,3.616,-6.936,2.530,-2.693,0.001,-0.017,0.999,0.000,0.000,0.000,0.3460,1,0,-0.08,0.19,2.67,-0.0251,-0.1297,0.3474,0.2177,-0.1324,0.3000,0.2546,-4.08,-17.02,-76.50,1.4590,0.0000,1.4450,1.0850,2.3540,0,0.0192,-0.0312,0.0000,-0.0301,-0.1255,0
12953,-0.0224,-0.1311,0.3473,0.0015,-0.0044,0.0044,0.06,-0.07,2.46,0,3.611,0.899,-3.778,-1.942,0.005,-0.020,0.995,0.000,0.000,0.000,0.3470,1,-1,-0.43,0.06,2.52,-0.0252,-0.1327,0.3473,0.2177,-0.1324,0.3000,0.2553,-3.88,-16.85,-73.74,1.4590,0.0000,1.4450,1.0850,2.3540,0,0.0192,-0.0312,0.0000,-0.0301,-0.1255,0
13004,-0.0230,-0.1317,0.3473,0.0009,-0.0055,0.0024,0.08,-0.06,2.37,0,3.616,-1.193,0.692,0.086,0.006,-0.015,0.996,0.000,0.000,0.000,0.3440,0,0,-0.39,0.24,2.41,-0.0239,-0.1359,0.3473,0.2177,-0.1324,0.3000,0.2555,-3.97,-16.91,-71.13,1.4600,0.0000,1.4490,1.0840,2.3520,0,0.0192,-0.0312,0.0000,-0.0301,-0.1255,0
13055,-0.0217,-0.1367,0.3458,0.0034,-0.0138,-0.0064,-0.04,-0.08,2.31,0,3.605,-2.235,-2.896,-0.388,-0.001,-0.018,0.997,0.000,0.000,0.000,0.3430,1,0,-0.45,0.21,2.42,-0.0236,-0.1392,0.3463,0.2177,-0.1324,0.3000,0.2568,-4.71,-16.64,-69.29,1.4600,0.0000,1.4490,1.0840,2.3520,0,0.0192,-0.0312,0.0000,-0.0301,-0.1255,0
13106,-0.0224,-0.1369,0.3441,0.0028,-0.0126,-0.0132,-0.25,-0.03,2.29,0,3.611,-3.034,-1.194,-0.609,-0.002,-0.018,1.002,0.000,0.000,0.000,0.3420,0,0,-0.59,0.35,2.43,-0.0235,-0.1396,0.3451,0.2177,-0.1324,0.3000,0.2578,-4.65,-16.65,-68.66,1.4490,0.0000,1.4470,1.0800,2.3620,0,0.0192,-0.0312,0.0000,-0.0301,-0.1255,0
13157,-0.0213,-0.1374,0.3426,0.0047,-0.0103,-0.0170,-0.35,0.03,2.22,0,3.605,-2.151,1.436,-0.646,0.006,-0.016,1.004,0.000,0.000,0.000,0.3420,-1,0,-0.74,0.42,2.40,-0.0235,-0.1426,0.3439,0.2177,-0.1324,0.3000,0.2585,-4.57,-16.45,-66.74,1.4490,0.0000,1.4470,1.0800,2.3620,0,0.0192,-0.0312,0.0000,-0.0301,-0.1255,0
13207,-0.0198,-0.1398,0.3417,0.0067,-0.0109,-0.0151,-0.37,0.02,2.20,0,3.616,0.269,1.747,-0.274,0.007,-0.015,1.004,0.000,0.000,0.000,0.3470,-1,1,-0.92,0.34,2.45,-0.0232,-0.1372,0.3431,0.2177,-0.1324,0.3000,0.2585,-4.77,-16.27,-66.04,1.4530,0.0000,1.4480,1.0840,2.3580,0,0.0192,-0.0312,0.0000,-0.0301,-0.1255,0
13259,-0.0181,-0.1397,0.3437,0.0089,-0.0067,-0.0008,-0.34,-0.00,2.20,0,3.605,0.189,-2.376,0.086,0.002,-0.018,1.006,0.000,0.000,0.000,0.3410,0,0,-0.93,0.26,2.46,-0.0250,-0.1362,0.3440,0.2177,-0.1324,0.3000,0.2565,-4.59,-16.18,-65.99,1.4530,0.0000,1.4480,1.0840,2.3580,0,0.0192,-0.0312,0.0000,-0.0301,-0.1255,0
13310,-0.0188,-0.1387,0.3424,0.0068,-0.0014,-0.0041,-0.32,0.08,2.20,0,3.616,4.353,-1.528,-0.056,0.002,-0.018,1.004,0.000,0.000,0.000,0.3440,0,0,-0.92,0.39,2.47,-0.0255,-0.1369,0.3431,0.2177,-0.1324,0.3000,0.2571,-4.26,-16.29,-65.97,1.4500,0.0000,1.4490,1.0810,2.3570,0,0.0192,-0.0312,0.0000,-0.0301,-0.1255,0
13360,-0.0179,-0.1391,0.3430,0.0072,0.0005,0.0006,-0.23,0.10,2.20,0,3.605,2.365,2.809,0.277,0.005,-0.017,1.000,0.000,0.000,0.000,0.3380,1,-1,-0.69,0.47,2.46,-0.0261,-0.1376,0.3434,0.2177,-0.1324,0.3000,0.2565,-4.21,-16.25,-66.06,1.4500,0.0000,1.4490,1.0810,2.3570,0,0.0192,-0.0312,0.0000,-0.0301,-0.1255,0
13412,-0.0175,-0.1341,0.3406,0.0065,0.0120,-0.0098,-0.12,-0.00,2.21,0,3.611,0.571,-3.055,-0.511,0.004,-0.013,1.005,0.000,0.000,0.000,0.3440,0,0,-0.57,0.28,2.49,-0.0205,-0.1392,0.3418,0.2177,-0.1324,0.3000,0.2581,-3.27,-16.16,-66.33,1.4560,0.0000,1.4420,1.0870,2.3540,0,0.0192,-0.0312,0.0000,-0.0301,-0.1255,0
13462,-0.0144,-0.1341,0.3419,0.0115,0.0120,-0.0016,-0.06,0.20,2.20,0,3.605,0.456,-2.161,0.739,0.003,-0.015,1.004,0.000,0.000,0.000,0.3450,0,0,-0.54,0.44,2.47,-0.0200,-0.1403,0.3425,0.2177,-0.1324,0.3000,0.2570,-3.28,-15.80,-66.08,1.4560,0.0000,1.4420,1.0870,2.3540,0,0.0192,-0.0312,0.0000,-0.0301,-0.1255,0
13514,-0.0137,-0.1313,0.3434,0.0101,0.0164,0.0072,0.06,0.32,2.17,0,3.616,5.119,1.736,-1.768,0.001,-0.017,1.000,0.000,0.000,0.000,0.3440,0,-1,-0.52,0.55,2.51,-0.0196,-0.1415,0.3434,0.2177,-0.1324,0.3000,0.2557,-2.89,-15.90,-65.07,1.4540,0.0000,1.4480,1.0890,2.3620,0,0.0192,-0.0312,0.0000,-0.0301,-0.1255,0
13565,-0.0133,-0.1319,0.3440,0.0074,0.0133,0.0085,0.17,0.23,2.15,0,3.611,-1.709,0.161,-0.943,0.002,-0.016,0.994,0.000,0.000,0.000,0.3460,-1,0,-0.28,0.44,2.46,-0.0165,-0.1388,0.3440,0.2177,-0.1324,0.3000,0.2555,-3.09,-16.01,-64.36,1.4540,0.0000,1.4480,1.0890,2.3620,0,0.0192,-0.0312,0.0000,-0.0301,-0.1255,0
13615,-0.0120,-0.1311,0.3452,0.0073,0.0120,0.0100,0.17,0.22,2.12,0,3.611,0.029,-0.079,0.233,0.004,-0.014,0.995,0.000,0.000,0.000,0.3390,-1,-1,-0.38,0.43,2.43,-0.0161,-0.1381,0.3448,0.2177,-0.1324,0.3000,0.2551,-3.10,-15.95,-63.71,1.4570,0.0000,1.4460,1.0880,2.3640,0,0.0192,-0.0312,0.0000,-0.0301,-0.1255,0
13667,-0.0123,-0.1287,0.3426,0.0039,0.0139,-0.0074,0.22,0.32,2.07,0,3.600,1.646,2.432,-1.943,0.002,-0.012,1.003,0.000,0.000,0.000,0.3400,0,0,-0.39,0.42,2.47,-0.0143,-0.1369,0.3431,0.2177,-0.1324,0.3000,0.2574,-2.80,-15.98,-62.06,1.4570,0.0000,1.4460,1.0880,2.3640,0,0.0192,-0.0312,0.0000,-0.0301,-0.1255,0
13718,-0.0109,-0.1270,0.3410,0.0036,0.0139,-0.0135,0.29,0.26,2.03,0,3.611,0.739,2.076,-1.253,0.002,-0.022,0.997,0.000,0.000,0.000,0.3430,0,0,-0.31,0.30,2.36,-0.0137,-0.1372,0.3420,0.2177,-0.1324,0.3000,0.2584,-2.67,-15.86,-60.82,1.4510,0.0000,1.4410,1.0840,2.3640,0,0.0192,-0.0312,0.0000,-0.0301,-0.1255,0
13769,-0.0109,-0.1258,0.3414,0.0010,0.0124,-0.0091,0.33,0.18,1.96,0,3.600,-4.298,-0.258,-0.050,0.007,-0.016,1.002,0.000,0.000,0.000,0.3380,0,1,-0.27,0.19,2.30,-0.0131,-0.1380,0.3421,0.2177,-0.1324,0.3000,0.2578,-2.66,-16.01,-58.67,1.4510,0.0000,1.4410,1.0840,2.3640,0,0.0192,-0.0312,0.0000,-0.0301,-0.1255,0
13819,-0.0081,-0.1224,0.3394,0.0051,0.0153,-0.0162,0.20,0.15,1.91,0,3.611,3.105,0.934,-2.021,0.004,-0.015,1.003,0.000,0.000,0.000,0.3430,0,0,-0.51,0.25,2.33,-0.0179,-0.1359,0.3407,0.2177,-0.1324,0.3000,0.2590,-2.27,-15.57,-57.15,1.4500,0.0000,1.4430,1.0970,2.3570,0,0.0192,-0.0312,0.0000,-0.0301,-0.1255,0
13871,-0.0096,-0.1244,0.3405,0.0002,0.0080,-0.0070,0.30,0.17,1.85,0,3.600,-0.157,2.809,-1.180,0.003,-0.018,1.000,0.000,0.000,0.000,0.3390,0,0,-0.36,0.20,2.22,-0.0184,-0.1364,0.3412,0.2177,-0.1324,0.3000,0.2578,-2.77,-15.96,-55.54,1.4500,0.0000,1.4430,1.0970,2.3570,0,0.0192,-0.0312,0.0000,-0.0301,-0.1255,0
13923,-0.0092,-0.1229,0.3395,-0.0002,0.0079,-0.0108,0.28,0.07,1.79,0,3.605,-4.333,-0.355,-0.881,0.003,-0.017,1.001,0.000,0.000,0.000,0.3390,0,0,-0.37,0.05,2.16,-0.0189,-0.1373,0.3403,0.2177,-0.1324,0.3000,0.2584,-2.66,-15.92,-53.66,1.4450,0.0000,1.4440,1.0960,2.3640,0,0.0192,-0.0312,0.0000,-0.0301,-0.1255,0
13973,-0.0103,-0.1237,0.3388,-0.0028,0.0031,-0.0118,0.17,0.06,1.75,0,3.595,0.883,-1.029,-0.451,0.002,-0.017,1.005,0.000,0.000,0.000,0.3380,0,0,-0.59,0.07,2.12,-0.0193,-0.1384,0.3397,0.2177,-0.1324,0.3000,0.2586,-2.95,-16.10,-52.39,1.4450,0.0000,1.4440,1.0960,2.3640,0,0.0192,-0.0312,0.0000,-0.0301,-0.1255,0
14024,-0.0102,-0.1253,0.3380,-0.0028,-0.0020,-0.0113,0.20,0.00,1.70,0,3.605,-3.247,0.121,-0.305,0.007,-0.015,1.006,0.000,0.000,0.000,0.3410,1,0,-0.55,0.12,2.09,-0.0197,-0.1397,0.3390,0.2177,-0.1324,0.3000,0.2587,-3.31,-16.09,-51.08,1.4450,0.0000,1.4430,1.0950,2.3580,0,0.0192,-0.0312,0.0000,-0.0301,-0.1255,0
14075,-0.0101,-0.1247,0.3390,-0.0022,-0.0021,-0.0023,0.09,-0.04,1.67,0,3.600,-1.882,-1.057,-1.316,0.004,-0.018,0.997,0.000,0.000,0.000,0.3380,0,-1,-0.73,0.11,2.10,-0.0186,-0.1379,0.3396,0.2177,-0.1324,0.3000,0.2575,-3.28,-16.13,-49.97,1.4450,0.0000,1.4430,1.0950,2.3580,1,0.0192,-0.0312,0.0000,-0.0301,-0.1255,0
14127,-0.0113,-0.1239,0.3385,-0.0041,-0.0013,-0.0039,0.02,-0.04,1.64,0,3.611,0.803,-0.891,-1.253,0.004,-0.018,1.000,0.000,0.000,0.000,0.3380,0,0,-0.83,0.16,2.03,-0.0178,-0.1386,0.3390,0.2177,-0.1324,0.3000,0.2578,-3.18,-16.28,-49.22,1.4400,0.0000,1.4410,1.0910,2.3650,1,0.0192,-0.0312,0.0000,-0.0301,-0.1255,0
14178,-0.0097,-0.1251,0.3381,-0.0003,-0.0035,-0.0046,-0.01,-0.05,1.60,0,3.600,1.869,-0.794,-0.801,0.001,-0.017,0.997,0.000,0.000,0.000,0.3380,1,0,-0.79,0.20,1.97,-0.0175,-0.1396,0.3386,0.2177,-0.1324,0.3000,0.2580,-3.37,-16.00,-47.87,1.4400,0.0000,1.4410,1.0910,2.3650,1,0.0192,-0.0312,0.0000,-0.0301,-0.1255,0
14229,-0.0107,-0.1234,0.3379,-0.0020,0.0001,-0.0050,-0.01,-0.13,1.52,0,3.605,-1.767,-0.177,-1.158,0.002,-0.015,1.000,0.000,0.000,0.000,0.3340,0,-1,-0.69,0.25,1.92,-0.0175,-0.1414,0.3382,0.2177,-0.1324,0.3000,0.2580,-3.08,-16.14,-45.47,1.4400,0.0000,1.4470,1.0960,2.3670,1,0.0192,-0.0312,0.0000,-0.0301,-0.1255,0
14280,-0.0099,-0.1247,0.3358,0.0004,-0.0021,-0.0147,-0.05,-0.10,1.46,0,3.595,-1.607,-1.391,-0.271,0.003,-0.014,1.000,0.000,0.000,0.000,0.3330,0,-1,-0.78,0.24,1.87,-0.0161,-0.1422,0.3366,0.2177,-0.1324,0.3000,0.2595,-3.25,-15.90,-43.81,1.4400,0.0000,1.4470,1.0960,2.3670,1,0.0192,-0.0312,0.0000,-0.0301,-0.1255,0
14332,-0.0072,-0.1243,0.3338,0.0065,-0.0009,-0.0196,-0.07,-0.08,1.42,0,3.600,-0.376,-1.766,-0.167,0.002,-0.016,1.004,0.000,0.000,0.000,0.3330,1,-1,-0.87,0.30,1.87,-0.0143,-0.1428,0.3350,0.2177,-0.1324,0.3000,0.2604,-3.16,-15.41,-42.57,1.4370,0.0000,1.4500,1.0970,2.3610,0,0.0192,-0.0312,0.0000,-0.0301,-0.1255,0
14384,-0.0056,-0.1231,0.3326,0.0094,0.0023,-0.0203,-0.09,0.03,1.43,0,3.600,-0.204,-1.684,-1.077,0.005,-0.012,1.006,0.000,0.000,0.000,0.3360,0,0,-0.88,0.38,1.87,-0.0121,-0.1450,0.3339,0.2177,-0.1324,0.3000,0.2607,-2.92,-15.16,-42.87,1.4370,0.0000,1.4500,1.0970,2.3610,0,0.0192,-0.0312,0.0000,-0.0301,-0.1255,0
14436,-0.0032,-0.1228,0.3335,0.0128,0.0034,-0.0091,-0.11,0.13,1.40,0,3.605,1.140,-1.827,-0.180,0.003,-0.020,1.001,0.000,0.000,0.000,0.3320,-1,0,-0.89,0.47,1.81,-0.0111,-0.1463,0.3341,0.2177,-0.1324,0.3000,0.2593,-2.86,-14.93,-42.11,1.4400,0.0000,1.4480,1.0920,2.3750,0,0.0192,-0.0312,0.0000,-0.0301,-0.1255,0
14487,-0.0026,-0.1227,0.3325,0.0114,0.0042,-0.0105,-0.08,0.26,1.39,0,3.600,0.874,-0.451,-0.404,-0.000,-0.012,1.005,0.000,0.000,0.000,0.3350,0,0,-0.88,0.58,1.83,-0.0120,-0.1415,0.3332,0.2177,-0.1324,0.3000,0.2596,-2.81,-14.93,-41.83,1.4400,0.0000,1.4480,1.0920,2.3750,0,0.0192,-0.0312,0.0000,-0.0301,-0.1255,0
14539,-0.0013,-0.1214,0.3333,0.0106,0.0068,-0.0021,-0.07,0.27,1.37,0,3.605,2.285,1.129,-1.668,0.001,-0.018,1.002,0.000,0.000,0.000,0.3320,0,0,-0.83,0.60,1.81,-0.0118,-0.1414,0.3335,0.2177,-0.1324,0.3000,0.2586,-2.60,-14.95,-41.16,1.4440,0.0000,1.4470,1.0960,2.3680,0,0.0192,-0.0312,0.0000,-0.0301,-0.1255,0
14590,-0.0008,-0.1210,0.3326,0.0082,0.0073,-0.0040,-0.03,0.26,1.32,0,3.595,4.458,1.894,-2.590,0.006,-0.011,1.000,0.000,0.000,0.000,0.3290,0,0,-0.71,0.54,1.73,-0.0119,-0.1414,0.3329,0.2177,-0.1324,0.3000,0.2589,-2.55,-15.00,-39.51,1.4440,0.0000,1.4470,1.0960,2.3680,0,0.0192,-0.0312,0.0000,-0.0301,-0.1255,0
14641,-0.0004,-0.1199,0.3307,0.0061,0.0088,-0.0113,0.12,0.21,1.24,0,3.600,-0.463,-0.618,-1.675,0.004,-0.014,1.003,0.000,0.000,0.000,0.3280,0,-1,-0.48,0.45,1.59,-0.0121,-0.1414,0.3315,0.2177,-0.1324,0.3000,0.2601,-2.39,-15.01,-37.19,1.4400,0.0000,1.4470,0.0000,2.3740,0,0.0192,-0.0312,0.0000,-0.0301,-0.1255,0
14692,-0.0003,-0.1180,0.3289,0.0040,0.0105,-0.0158,0.09,0.15,1.16,0,3.595,1.154,-1.210,-0.198,0.001,-0.009,1.010,0.000,0.000,0.000,0.3280,-2,0,-0.51,0.45,1.53,-0.0077,-0.1410,0.3301,0.2176,-0.1286,0.3000,0.2609,-2.44,-15.00,-34.86,1.4400,0.0000,1.4470,0.0000,2.3740,0,0.0192,-0.0312,0.0000,-0.0301,-0.1255,0
14743,0.0016,-0.1144,0.3279,0.0059,0.0157,-0.0131,0.14,0.17,1.11,0,3.600,3.248,0.441,-1.363,0.003,-0.013,1.010,0.000,0.000,0.000,0.3280,0,0,-0.47,0.52,1.54,-0.0073,-0.1389,0.3293,0.2175,-0.1248,0.3000,0.2608,-2.20,-14.74,-33.19,1.4340,0.0000,1.4470,1.1000,2.3780,0,0.0192,-0.0312,0.0000,-0.0301,-0.1255,0
14794,0.0033,-0.1125,0.3274,0.0074,0.0163,-0.0085,0.30,0.14,1.05,0,3.600,2.232,-2.987,-1.817,0.003,-0.015,1.004,0.000,0.000,0.000,0.3300,0,-1,-0.30,0.49,1.47,-0.0071,-0.1386,0.3289,0.2174,-0.1209,0.3000,0.2604,-2.31,-14.53,-31.56,1.4340,0.0000,1.4470,1.1000,2.3780,0,0.0192,-0.0312,0.0000,-0.0301,-0.1255,0
14846,0.0058,-0.1120,0.3285,0.0104,0.0129,0.0016,0.44,0.20,0.98,0,3.605,-2.624,-0.976,-1.163,0.005,-0.018,1.004,0.000,0.000,0.000,0.3270,0,-2,-0.18,0.63,1.38,-0.0048,-0.1385,0.3293,0.2172,-0.1170,0.3000,0.2591,-2.72,-14.23,-29.44,1.4260,0.0000,1.4460,1.1020,2.3630,0,0.0192,-0.0312,0.0000,-0.0301,-0.1255,0
14898,0.0063,-0.1115,0.3279,0.0086,0.0092,0.0001,0.39,0.25,0.90,0,3.595,0.963,0.105,-2.622,0.001,-0.016,1.000,0.000,0.000,0.000,0.3290,0,1,-0.32,0.65,1.32,-0.0015,-0.1387,0.3288,0.2169,-0.1131,0.3000,0.2594,-3.13,-14.20,-27.03,1.4260,0.0000,1.4460,1.1020,2.3630,0,0.0192,-0.0312,0.0000,-0.0301,-0.1255,0
14949,0.0094,-0.1112,0.3285,0.0116,0.0055,0.0047,0.41,0.26,0.83,0,3.605,-0.363,-1.204,-3.443,0.004,-0.016,0.999,0.000,0.000,0.000,0.3300,0,0,-0.27,0.67,1.19,-0.0028,-0.1389,0.3290,0.2166,-0.1093,0.3000,0.2587,-3.56,-13.81,-24.95,1.4300,0.0000,1.4520,1.1040,2.3770,0,0.0192,-0.0312,0.0000,-0.0301,-0.1255,0
15000,0.0090,-0.1112,0.3295,0.0079,0.0018,0.0082,0.33,0.28,0.71,0,3.595,-1.724,-2.155,-1.184,0.002,-0.016,0.999,0.000,0.000,0.000,0.3270,0,0,-0.29,0.73,1.02,-0.0026,-0.1397,0.3294,0.2162,-0.1055,0.3000,0.2582,-4.01,-13.96,-21.21,1.4300,0.0000,1.4520,1.1040,2.3770,0,0.0192,-0.0312,0.0000,-0.0301,-0.1255,0
15052,0.0087,-0.1108,0.3286,0.0045,-0.0003,0.0021,0.26,0.33,0.61,0,3.605,-0.815,2.664,-3.873,0.005,-0.012,0.998,0.000,0.000,0.000,0.3280,1,0,-0.38,0.84,0.96,-0.0027,-0.1408,0.3288,0.2158,-0.1016,0.3000,0.2590,-4.33,-14.01,-18.37,1.4270,0.0000,1.4550,1.0960,2.3760,3,0.0192,-0.0312,0.0000,-0.0301,-0.1255,0
15104,0.0026,-0.1148,0.3284,-0.0102,-0.0099,-0.0004,0.18,0.30,0.51,0,3.595,-5.079,6.291,-3.222,0.003,-0.016,0.998,0.000,0.000,0.000,0.3300,-4,1,-0.42,0.70,0.76,-0.0019,-0.1416,0.3285,0.2152,-0.0978,0.3000,0.2593,-5.34,-14.98,-15.23,1.4270,0.0000,1.4550,1.0960,2.3760,3,0.0192,-0.0312,0.0000,-0.0301,-0.1255,0
15155,0.0044,-0.1223,0.3292,-0.0083,-0.0250,0.0031,0.10,0.18,0.38,0,3.605,-4.645,4.143,-1.842,0.007,-0.011,0.995,0.000,0.000,0.000,0.3280,1,1,-0.73,0.38,0.66,-0.0032,-0.1368,0.3289,0.2147,-0.0940,0.3000,0.2588,-6.85,-14.71,-11.46,1.4220,0.0000,1.4550,1.1060,2.3670,3,0.0192,-0.0312,0.0000,-0.0301,-0.1255,0
15206,0.0041,-0.1180,0.3287,-0.0092,-0.0158,-0.0001,-0.10,0.04,0.29,0,3.595,-1.867,1.156,-1.868,0.005,-0.015,1.000,0.000,0.000,0.000,0.3300,1,0,-0.95,0.18,0.55,-0.0052,-0.1384,0.3285,0.2141,-0.0902,0.3000,0.2592,-6.36,-14.66,-8.82,1.4220,0.0000,1.4550,1.1060,2.3670,3,0.0192,-0.0312,0.0000,-0.0301,-0.1255,0
15258,0.0032,-0.1199,0.3294,-0.0102,-0.0166,0.0022,-0.24,-0.07,0.20,0,3.605,-0.098,0.532,-0.676,0.003,-0.016,0.995,0.000,0.000,0.000,0.3260,0,1,-1.03,0.12,0.44,-0.0056,-0.1403,0.3289,0.2134,-0.0864,0.3000,0.2588,-6.79,-14.70,-6.06,1.4140,0.0000,1.4550,1.0960,2.3770,3,0.0192,-0.0312,0.0000,-0.0301,-0.1255,0
15309,0.0033,-0.1217,0.3278,-0.0085,-0.0164,-0.0066,-0.24,-0.12,0.12,0,3.595,-2.322,-1.827,-2.231,0.007,-0.015,1.000,0.000,0.000,0.000,0.3270,0,0,-1.04,0.10,0.40,-0.0080,-0.1406,0.3277,0.2127,-0.0827,0.3000,0.2601,-7.13,-14.45,-3.65,1.4140,0.0000,1.4550,1.0960,2.3770,3,0.0192,-0.0312,0.0000,-0.0301,-0.1255,0
15360,0.0017,-0.1219,0.3271,-0.0096,-0.0131,-0.0075,-0.37,-0.10,0.05,0,3.600,-0.909,-1.370,-1.350,0.003,-0.010,1.004,0.000,0.000,0.000,0.3250,0,-1,-1.16,0.20,0.28,-0.0089,-0.1410,0.3271,0.2119,-0.0789,0.3000,0.2603,-7.24,-14.50,-1.53,1.4110,0.0000,1.4610,1.1030,2.3740,3,0.0192,-0.0312,0.0000,-0.0301,-0.1255,0
15411,0.0012,-0.1229,0.3258,-0.0089,-0.0104,-0.0109,-0.45,-0.08,-0.03,0,3.589,1.859,-0.776,-2.914,0.002,-0.013,1.005,0.000,0.000,0.000,0.3240,-1,0,-1.21,0.23,0.25,-0.0040,-0.1408,0.3262,0.2110,-0.0752,0.3000,0.2609,-7.41,-14.36,1.00,1.4110,0.0000,1.4610,1.1030,2.3740,3,0.0192,-0.0312,0.0000,-0.0301,-0.1255,0
15462,0.0029,-0.1230,0.3245,-0.0045,-0.0060,-0.0135,-0.44,-0.09,-0.18,0,3.600,0.684,-2.180,-2.283,0.004,-0.011,1.002,0.000,0.000,0.000,0.3230,0,0,-1.13,0.27,0.11,-0.0039,-0.1387,0.3253,0.2101,-0.0714,0.3000,0.2614,-7.44,-13.92,5.26,1.4020,0.0000,1.4600,0.0000,2.3760,3,0.0192,-0.0312,0.0000,-0.0301,-0.1255,0
15514,0.0029,-0.1213,0.3232,-0.0034,0.0010,-0.0148,-0.43,-0.08,-0.28,0,3.595,2.099,-1.157,-2.034,0.001,-0.013,1.007,0.000,0.000,0.000,0.3290,-1,0,-1.09,0.39,-0.00,-0.0037,-0.1380,0.3243,0.2091,-0.0676,0.3000,0.2618,-7.24,-13.74,8.53,1.4020,0.0000,1.4600,0.0000,2.3760,3,0.0192,-0.0312,0.0000,-0.0301,-0.1255,0
15565,0.0026,-0.1179,0.3256,-0.0030,0.0107,0.0022,-0.41,-0.01,-0.38,0,3.605,2.352,0.593,-2.016,0.007,-0.009,1.008,0.000,0.000,0.000,0.3280,0,0,-0.99,0.45,-0.10,-0.0037,-0.1355,0.3256,0.2081,-0.0640,0.3000,0.2595,-6.86,-13.74,11.43,1.4040,0.0000,1.4560,1.1120,2.3780,3,0.0192,-0.0312,0.0000,-0.0301,-0.1255,0
15617,0.0022,-0.1106,0.3269,-0.0034,0.0263,0.0099,-0.33,0.06,-0.47,0,3.595,5.837,0.615,-1.414,0.003,-0.012,1.003,0.000,0.000,0.000,0.3270,0,0,-0.87,0.42,-0.20,-0.0037,-0.1340,0.3266,0.2070,-0.0602,0.3000,0.2585,-5.88,-13.72,14.13,1.4040,0.0000,1.4560,1.1120,2.3780,3,0.0192,-0.0312,0.0000,-0.0301,-0.1255,0
15667,0.0041,-0.1095,0.3274,-0.0001,0.0282,0.0113,-0.07,0.01,-0.56,0,3.600,6.587,2.860,-2.989,0.003,-0.016,1.001,0.000,0.000,0.000,0.3240,-4,0,-0.57,0.39,-0.28,-0.0039,-0.1325,0.3271,0.2059,-0.0566,0.3000,0.2582,-5.95,-13.33,16.70,1.4050,0.0000,1.4590,1.1120,2.3750,3,0.0192,-0.0312,0.0000,-0.0301,-0.1255,0
15719,0.0045,-0.1047,0.3262,0.0008,0.0343,0.0035,0.21,-0.13,-0.70,0,3.595,6.778,0.017,-3.061,0.003,-0.015,1.001,0.000,0.000,0.000,0.3280,-1,-1,-0.30,0.24,-0.38,-0.0030,-0.1211,0.3265,0.2047,-0.0530,0.3000,0.2593,-5.54,-13.09,20.98,1.4050,0.0000,1.4590,1.1120,2.3750,3,0.0192,-0.0312,0.0000,-0.0301,-0.1255,0
15769,0.0052,-0.0927,0.3273,0.0029,0.0502,0.0073,0.54,-0.16,-0.87,0,3.600,3.826,-0.869,-3.235,0.006,-0.018,0.995,0.000,0.000,0.000,0.3240,-2,0,0.05,0.23,-0.54,-0.0016,-0.1180,0.3273,0.2035,-0.0494,0.3000,0.2587,-4.18,-12.84,26.06,1.4010,0.0000,1.4610,1.1260,2.3740,3,0.0192,-0.0312,0.0000,-0.0301,-0.1255,0
15821,0.0098,-0.0912,0.3259,0.0122,0.0437,-0.0019,0.76,-0.17,-1.03,0,3.589,3.510,-2.055,-2.407,0.004,-0.015,0.998,0.000,0.000,0.000,0.3220,0,-1,0.23,0.27,-0.69,-0.0014,-0.1134,0.3265,0.2022,-0.0458,0.3000,0.2599,-4.60,-11.91,30.75,1.4010,0.0000,1.4610,1.1260,2.3740,3,0.0192,-0.0312,0.0000,-0.0301,-0.1255,0
15872,0.0108,-0.0886,0.3238,0.0137,0.0376,-0.0121,0.94,-0.02,-1.13,0,3.595,1.021,-1.455,-1.300,0.004,-0.015,0.999,0.000,0.000,0.000,0.3240,0,0,0.42,0.37,-0.83,0.0006,-0.1125,0.3251,0.2008,-0.0422,0.3000,0.2614,-4.91,-11.57,33.86,1.3940,0.0000,1.4610,1.1230,2.3760,3,0.0192,-0.0312,0.0000,-0.0301,-0.1255,0
15923,0.0108,-0.0878,0.3234,0.0121,0.0280,-0.0123,1.01,0.10,-1.19,0,3.589,-2.644,-2.189,-0.884,0.003,-0.015,1.003,0.000,0.000,0.000,0.3230,1,0,0.47,0.44,-0.89,0.0011,-0.1108,0.3246,0.1994,-0.0386,0.3000,0.2615,-5.53,-11.50,35.84,1.3940,0.0000,1.4610,1.1230,2.3760,3,0.0192,-0.0312,0.0000,-0.0301,-0.1255,0
15973,0.0126,-0.0870,0.3227,0.0135,0.0187,-0.0107,0.92,0.09,-1.24,0,3.595,-2.251,1.620,-0.154,0.003,-0.017,1.002,0.000,0.000,0.000,0.3230,1,0,0.38,0.56,-0.95,0.0005,-0.1154,0.3240,0.1979,-0.0351,0.3000,0.2615,-6.14,-11.17,37.23,1.3930,0.0000,1.4590,1.1260,2.3810,3,0.0192,-0.0312,0.0000,-0.0301,-0.1255,0
16025,0.0154,-0.0893,0.3224,0.0166,0.0052,-0.0080,0.80,0.06,-1.28,0,3.589,-6.001,-3.962,0.201,0.006,-0.015,1.005,0.000,0.000,0.000,0.3250,0,0,0.28,0.48,-0.97,0.0005,-0.1176,0.3235,0.1964,-0.0316,0.3000,0.2612,-7.15,-10.70,38.32,1.3930,0.0000,1.4590,1.1260,2.3810,3,0.0192,-0.0312,0.0000,-0.0301,-0.1255,0
16076,0.0160,-0.0906,0.3234,0.0152,-0.0041,0.0002,0.58,0.21,-1.29,0,3.600,-2.890,1.141,0.402,0.001,-0.015,0.999,0.000,0.000,0.000,0.3230,0,0,-0.03,0.68,-0.96,0.0005,-0.1191,0.3239,0.1948,-0.0281,0.3000,0.2601,-7.93,-10.61,38.58,1.3930,0.0000,1.4650,1.1250,2.3790,3,0.0192,-0.0312,0.0000,-0.0301,-0.1255,0
16127,0.0188,-0.0918,0.3233,0.0170,-0.0105,0.0003,0.41,0.26,-1.26,0,3.589,-3.880,-0.727,0.300,0.003,-0.011,0.999,0.000,0.000,0.000,0.3190,0,0,-0.18,0.62,-0.94,0.0002,-0.1211,0.3236,0.1932,-0.0246,0.3000,0.2602,-8.54,-10.18,37.84,1.3930,0.0000,1.4650,1.1250,2.3790,3,0.0192,-0.0312,0.0000,-0.0301,-0.1255,0
16178,0.0181,-0.0947,0.3211,0.0118,-0.0182,-0.0099,0.23,0.30,-1.23,0,3.595,-6.853,-0.079,0.663,0.006,-0.015,1.004,0.000,0.000,0.000,0.3240,2,0,-0.38,0.66,-0.92,-0.0004,-0.1232,0.3221,0.1915,-0.0212,0.3000,0.2617,-9.26,-10.25,37.01,1.3930,0.0000,1.4650,1.1240,2.3830,3,0.0192,-0.0312,0.0000,-0.0301,-0.1255,0
16230,0.0216,-0.0952,0.3221,0.0153,-0.0185,-0.0015,-0.09,0.25,-1.19,0,3.589,-2.881,0.883,1.837,0.005,-0.012,1.002,0.000,0.000,0.000,0.3210,0,1,-0.75,0.65,-0.89,0.0018,-0.1223,0.3226,0.1898,-0.0177,0.3000,0.2606,-9.56,-9.72,35.76,1.3930,0.0000,1.4650,1.1240,2.3830,3,0.0192,-0.0312,0.0000,-0.0301,-0.1255,0
16281,0.0216,-0.0974,0.3215,0.0118,-0.0196,-0.0028,-0.27,0.23,-1.11,0,3.600,-0.029,1.114,0.642,0.006,-0.018,0.997,0.000,0.000,0.000,0.3230,0,0,-0.91,0.61,-0.79,0.0005,-0.1234,0.3220,0.1880,-0.0143,0.3000,0.2608,-9.96,-9.71,33.26,1.3910,0.0000,1.4720,1.1200,2.3700,1,0.0192,-0.0312,0.0000,-0.0301,-0.1255,0
16331,0.0207,-0.0986,0.3222,0.0071,-0.0180,0.0017,-0.28,0.20,-1.04,0,3.589,-1.715,1.039,2.058,0.003,-0.013,1.003,0.000,0.000,0.000,0.3240,0,0,-0.91,0.55,-0.75,-0.0001,-0.1250,0.3222,0.1862,-0.0110,0.3000,0.2602,-10.21,-9.84,31.17,1.3910,0.0000,1.4720,1.1200,2.3700,1,0.0192,-0.0312,0.0000,-0.0301,-0.1255,0
16383,0.0219,-0.1017,0.3232,0.0076,-0.0201,0.0068,-0.33,0.15,-0.96,0,3.600,-2.961,0.016,0.859,0.008,-0.015,1.001,0.000,0.000,0.000,0.3220,0,0,-0.99,0.50,-0.65,-0.0010,-0.1267,0.3227,0.1843,-0.0076,0.3000,0.2595,-10.74,-9.58,28.85,1.3920,0.0000,1.4680,1.1190,2.3730,1,0.0192,-0.0312,0.0000,-0.0301,-0.1255,0
16434,0.0220,-0.1068,0.3229,0.0058,-0.0262,0.0049,-0.43,0.16,-0.90,0,3.589,-0.264,-0.620,0.707,0.002,-0.015,0.997,0.000,0.000,0.000,0.3230,0,0,-1.15,0.50,-0.61,-0.0018,-0.1282,0.3225,0.1824,-0.0043,0.3000,0.2597,-11.57,-9.48,27.12,1.3920,0.0000,1.4680,1.1190,2.3730,1,0.0192,-0.0312,0.0000,-0.0301,-0.1255,0
16485,0.0223,-0.1081,0.3232,0.0043,-0.0224,0.0049,-0.47,0.20,-0.85,0,3.600,-3.211,-0.461,0.364,0.005,-0.012,0.998,0.000,0.000,0.000,0.3220,2,0,-1.16,0.53,-0.57,-0.0028,-0.1296,0.3226,0.1804,-0.0011,0.3000,0.2597,-11.68,-9.35,25.57,1.3920,0.0000,1.4690,1.1080,2.3770,1,0.0192,-0.0312,0.0000,-0.0301,-0.1255,0
16536,0.0234,-0.1101,0.3228,0.0053,-0.0217,0.0013,-0.60,0.20,-0.82,0,3.589,0.016,-0.004,1.331,0.004,-0.012,1.000,0.000,0.000,0.000,0.3190,0,0,-1.32,0.52,-0.53,0.0008,-0.1312,0.3224,0.1783,0.0022,0.3000,0.2601,-11.96,-9.02,24.54,1.3920,0.0000,1.4690,1.1080,2.3770,1,0.0192,-0.0312,0.0000,-0.0301,-0.1255,0
16587,0.0236,-0.1131,0.3210,0.0030,-0.0192,-0.0074,-0.65,0.21,-0.75,0,3.595,1.153,-0.699,1.201,0.003,-0.014,1.002,0.000,0.000,0.000,0.3240,0,0,-1.32,0.52,-0.46,0.0006,-0.1322,0.3212,0.1763,0.0054,0.3000,0.2614,-12.18,-8.89,22.62,1.3980,0.0000,1.4690,1.1070,2.3760,3,0.0192,-0.0312,0.0000,-0.0301,-0.1255,0
16637,0.0239,-0.1121,0.3221,0.0018,-0.0096,0.0002,-0.67,0.20,-0.69,0,3.589,2.219,3.008,2.127,0.004,-0.010,1.000,0.000,0.000,0.000,0.3200,-2,1,-1.26,0.55,-0.40,0.0002,-0.1329,0.3219,0.1741,0.0085,0.3000,0.2604,-11.91,-8.77,20.57,1.3980,0.0000,1.4690,1.1070,2.3760,3,0.0192,-0.0312,0.0000,-0.0301,-0.1255,0
16689,0.0227,-0.1113,0.3210,-0.0023,-0.0021,-0.0050,-0.57,0.14,-0.58,0,3.600,3.246,-1.764,2.534,0.004,-0.011,1.001,0.000,0.000,0.000,0.3230,0,0,-1.20,0.41,-0.27,-0.0012,-0.1284,0.3212,0.1719,0.0117,0.3000,0.2611,-11.67,-8.82,17.26,1.3950,0.0000,1.4670,1.1010,2.3830,3,0.0192,-0.0312,0.0000,-0.0301,-0.1255,0
16740,0.0218,-0.1072,0.3218,-0.0048,0.0111,-0.0004,-0.47,0.12,-0.45,0,3.589,5.353,0.872,3.253,0.003,-0.015,0.997,0.000,0.000,0.000,0.3230,0,0,-1.04,0.50,-0.14,-0.0022,-0.1272,0.3216,0.1697,0.0148,0.3000,0.2605,-10.99,-8.83,13.49,1.3950,0.0000,1.4670,1.1010,2.3830,3,0.0192,-0.0312,0.0000,-0.0301,-0.1255,0
16791,0.0207,-0.1039,0.3224,-0.0075,0.0199,0.0016,-0.17,0.03,-0.30,0,3.600,3.039,2.764,4.127,0.003,-0.015,0.996,0.000,0.000,0.000,0.3220,-1,0,-0.76,0.45,0.03,-0.0032,-0.1259,0.3220,0.1674,0.0179,0.3000,0.2602,-10.56,-8.85,9.02,1.4080,0.0000,1.4590,1.1120,2.3770,3,0.0192,-0.0312,0.0000,-0.0301,-0.1255,0
16842,0.0173,-0.0986,0.3222,-0.0137,0.0297,-0.0000,-0.01,-0.04,-0.15,0,3.589,2.046,1.970,4.655,0.006,-0.011,1.001,0.000,0.000,0.000,0.3210,0,1,-0.61,0.28,0.27,-0.0018,-0.1250,0.3219,0.1651,0.0209,0.3000,0.2604,-9.91,-9.16,4.49,1.4080,0.0000,1.4590,1.1120,2.3770,3,0.0192,-0.0312,0.0000,-0.0301,-0.1255,0
16892,0.0181,-0.0937,0.3216,-0.0109,0.0373,-0.0030,0.19,-0.11,0.03,0,3.595,7.788,-0.272,2.087,0.002,-0.014,0.999,0.000,0.000,0.000,0.3170,-1,0,-0.50,0.19,0.49,-0.0031,-0.1243,0.3215,0.1628,0.0239,0.3000,0.2608,-9.37,-8.76,-0.91,1.4060,0.0000,1.4510,1.1080,2.3810,3,0.0192,-0.0312,0.0000,-0.0301,-0.1255,0
16943,0.0166,-0.0924,0.3193,-0.0118,0.0345,-0.0140,0.51,-0.13,0.20,0,3.584,2.448,3.215,2.451,0.004,-0.015,0.999,0.000,0.000,0.000,0.3170,1,0,-0.12,0.20,0.60,-0.0035,-0.1225,0.3199,0.1603,0.0269,0.3000,0.2624,-9.53,-8.64,-5.91,1.4060,0.0000,1.4510,1.1080,2.3810,3,0.0192,-0.0312,0.0000,-0.0301,-0.1255,0
16994,0.0165,-0.0893,0.3177,-0.0097,0.0334,-0.0189,0.63,-0.20,0.35,0,3.589,0.716,-1.005,2.894,0.000,-0.012,1.004,0.000,0.000,0.000,0.3190,0,0,0.02,0.03,0.72,-0.0038,-0.1236,0.3186,0.1579,0.0298,0.3000,0.2633,-9.51,-8.32,-10.52,1.4090,0.0000,1.4460,1.1140,2.3780,3,0.0192,-0.0312,0.0000,-0.0301,-0.1255,0
17046,0.0145,-0.0883,0.3174,-0.0106,0.0255,-0.0129,0.64,-0.29,0.53,0,3.584,12.764,60.975,3.731,-0.000,-0.010,1.006,0.000,0.000,0.000,0.3170,-1,7,0.06,0.08,0.87,-0.0043,-0.1237,0.3183,0.1554,0.0327,0.3000,0.2627,-9.99,-8.31,-15.81,1.4090,0.0000,1.4460,1.1140,2.3780,3,0.0192,-0.0312,0.0000,-0.0301,-0.1255,0
17097,0.0194,-0.0846,0.3169,0.0041,0.0268,-0.0104,1.22,-2.97,0.76,0,3.589,15.961,75.844,2.387,0.006,-0.014,1.012,0.000,0.000,0.000,0.3180,0,6,0.70,-2.93,1.14,-0.0244,-0.1208,0.3186,0.1528,0.0356,0.3000,0.2625,-9.84,-7.08,-22.69,1.4050,0.0000,1.4440,1.1140,2.3840,3,0.0192,-0.0312,0.0000,-0.0301,-0.1255,0
17147,0.0162,-0.0865,0.3170,0.0306,0.0071,-0.0044,2.04,-6.52,0.96,0,3.584,5.392,13.138,0.591,0.011,-0.016,1.007,0.000,0.000,0.000,0.3180,0,-3,1.54,-6.72,1.40,-0.0359,-0.1211,0.3189,0.1502,0.0384,0.3000,0.2618,-11.05,-5.87,-28.65,1.4050,0.0000,1.4440,1.1140,2.3840,3,0.0192,-0.0312,0.0000,-0.0301,-0.1255,0
17199,0.0146,-0.0860,0.3174,0.0688,-0.0055,-0.0024,2.35,-7.45,1.02,0,3.595,-1.692,-7.332,0.922,-0.000,-0.008,1.002,0.000,0.000,0.000,0.3180,0,-3,1.79,-7.44,1.32,-0.0320,-0.1215,0.3183,0.1476,0.0411,0.3000,0.2615,-11.76,-3.97,-30.60,1.3060,0.0000,1.4430,1.1120,2.4060,3,0.0192,-0.0312,0.0000,-0.0301,-0.1255,0
17249,0.0217,-0.0873,0.3175,0.1366,-0.0255,-0.0042,2.22,-7.14,1.07,0,3.584,-7.301,-4.744,0.147,0.001,-0.009,1.008,0.000,0.000,0.000,0.3180,1,-2,1.68,-7.10,1.18,-0.0256,-0.1219,0.3175,0.1449,0.0439,0.3000,0.2617,-12.88,-0.04,-32.04,1.3060,0.0000,1.4430,1.1120,2.4060,3,0.0192,-0.0312,0.0000,-0.0301,-0.1255,0
17301,0.0331,-0.0862,0.3175,0.2050,-0.0375,-0.0054,1.80,-6.95,1.05,0,3.595,-4.339,-19.364,-1.265,-0.002,-0.004,1.008,0.000,0.000,0.000,0.3150,1,-9,1.32,-6.86,1.21,-0.0187,-0.1249,0.3173,0.1422,0.0466,0.3000,0.2618,-13.49,4.23,-31.56,1.2890,0.0000,1.4520,1.1030,2.4050,3,0.0192,-0.0312,0.0000,-0.0301,-0.1255,0
17353,0.0443,-0.0895,0.3160,0.2636,-0.0542,-0.0117,1.49,-6.04,0.99,0,3.584,-9.987,-33.018,-1.244,-0.005,-0.008,1.006,0.000,0.000,0.000,0.3150,2,-6,1.04,-5.97,0.77,0.0043,-0.1277,0.3140,0.1394,0.0493,0.3000,0.2628,-14.55,7.95,-29.85,1.2890,0.0000,1.4520,1.1030,2.4050,0,0.0192,-0.0312,0.0000,-0.0301,-0.1255,0
17404,0.0626,-0.0936,0.3150,0.3240,-0.0688,-0.0138,1.10,-4.38,0.87,0,3.589,-8.169,-33.389,-5.547,-0.008,-0.004,1.008,0.000,0.000,0.000,0.3120,1,-12,0.53,-4.27,0.77,0.0227,-0.1333,0.3131,0.1366,0.0519,0.3000,0.2632,-15.57,12.16,-25.97,1.2660,0.0000,1.4720,1.0890,2.3960,0,0.0192,-0.0312,0.0000,-0.0301,-0.1255,0
17455,0.0777,-0.0980,0.3131,0.3574,-0.0794,-0.0168,0.65,-2.65,0.58,0,3.579,-7.411,-32.016,-7.123,-0.008,-0.010,1.008,0.000,0.000,0.000,0.3130,6,-8,0.06,-2.69,0.04,0.0554,-0.1365,0.3093,0.1337,0.0545,0.3000,0.2639,-16.41,14.84,-17.50,1.2660,0.0000,1.4720,1.0890,2.3960,0,0.0192,-0.0312,0.0000,-0.0301,-0.1255,0
17507,0.0999,-0.1009,0.3124,0.3885,-0.0816,-0.0123,0.26,-1.01,0.20,0,3.589,-8.873,-37.735,-10.311,-0.007,-0.004,1.016,0.000,0.000,0.000,0.3110,0,-5,-0.22,-1.07,0.45,0.0839,-0.1531,0.3088,0.1308,0.0570,0.3000,0.2635,-16.84,17.86,-6.12,1.2570,0.0000,1.4960,1.0780,2.3860,0,0.0192,-0.0312,0.0000,-0.0301,-0.1255,0
17559,0.1160,-0.1013,0.3115,0.3891,-0.0741,-0.0071,-0.30,0.84,-0.33,0,3.579,-3.658,-27.542,-11.756,-0.007,-0.008,1.016,0.000,0.000,0.000,0.3090,0,-10,-0.72,0.95,-0.32,0.0992,-0.1540,0.3106,0.1278,0.0596,0.3000,0.2631,-16.69,19.15,10.02,1.2570,0.0000,1.4960,1.0780,2.3860,0,0.0192,-0.0312,0.0000,-0.0301,-0.1255,0
17610,0.1299,-0.0966,0.3103,0.3690,-0.0512,-0.0040,-0.58,2.27,-0.92,0,3.589,9.211,-14.947,-12.826,-0.006,-0.005,1.012,0.000,0.000,0.000,0.3090,-3,-4,-0.92,2.33,-1.20,0.1278,-0.1550,0.3095,0.1248,0.0620,0.3000,0.2630,-15.52,19.41,27.63,1.2520,0.0000,1.5250,1.0590,2.3890,0,0.0192,-0.0312,0.0000,-0.0301,-0.1255,0
17662,0.1509,-0.1022,0.3096,0.3575,-0.0549,0.0004,-0.03,3.05,-1.53,0,3.584,7.655,-15.006,-13.324,-0.005,-0.009,1.013,0.000,0.000,0.000,0.3120,3,-8,-0.48,3.16,-2.11,0.1401,-0.1474,0.3109,0.1218,0.0644,0.3000,0.2627,-16.18,20.48,45.83,1.2520,0.0000,1.5250,1.0590,2.3890,0,0.0192,-0.0312,0.0000,-0.0301,-0.1255,0
17713,0.1640,-0.0976,0.3110,0.3202,-0.0348,0.0121,0.28,3.84,-2.21,0,3.595,4.706,-9.204,-13.245,-0.007,-0.010,1.008,0.000,0.000,0.000,0.3130,3,-7,0.01,3.91,-2.73,0.1645,-0.1575,0.3116,0.1188,0.0667,0.3000,0.2612,-15.20,20.07,66.40,1.2320,0.0000,1.5520,1.0590,2.3890,0,0.0192,-0.0312,0.0000,-0.0301,-0.1255,0
17764,0.1757,-0.0952,0.3126,0.2781,-0.0251,0.0192,0.58,4.34,-2.88,0,3.584,8.259,-1.658,-10.500,-0.005,-0.012,1.000,0.000,0.000,0.000,0.3150,-5,0,0.34,4.35,-3.42,0.1857,-0.1679,0.3125,0.1157,0.0690,0.3000,0.2601,-14.78,19.33,86.33,1.2320,0.0000,1.5520,1.0590,2.3890,0,0.0192,-0.0312,0.0000,-0.0301,-0.1255,0
17815,0.1883,-0.0972,0.3146,0.2396,-0.0297,0.0251,0.97,4.37,-3.41,0,3.595,7.223,5.519,-9.490,-0.000,-0.008,1.000,0.000,0.000,0.000,0.3150,9,-6,0.66,4.52,-3.67,0.1887,-0.1522,0.3159,0.1126,0.0713,0.3000,0.2591,-15.29,18.80,102.43,1.1960,0.0000,1.5770,1.0560,2.3920,0,0.0192,-0.0312,0.0000,-0.0301,-0.1255,0
17867,0.1974,-0.0969,0.3158,0.1954,-0.0306,0.0233,1.42,4.15,-3.89,0,3.584,0.910,0.834,-5.440,-0.001,-0.012,0.998,0.000,0.000,0.000,0.3210,0,-1,1.27,4.18,-4.73,0.2030,-0.1832,0.3163,0.1094,0.0735,0.3000,0.2590,-15.42,17.72,116.77,1.1960,0.0000,1.5770,1.0560,2.3920,0,0.0192,-0.0312,0.0000,-0.0301,-0.1255,0
17918,0.2068,-0.1068,0.3192,0.1608,-0.0625,0.0313,1.50,3.95,-4.21,0,3.595,-9.527,9.499,-3.318,-0.001,-0.010,0.997,0.000,0.000,0.000,0.3210,-3,-1,1.28,4.19,-4.76,0.2074,-0.1828,0.3193,0.1062,0.0757,0.3000,0.2575,-17.67,17.16,126.18,1.1410,0.0000,1.6040,1.0450,2.3900,0,0.0192,-0.0312,0.0000,-0.0301,-0.1255,0
17969,0.2114,-0.1022,0.3213,0.1193,-0.0506,0.0319,1.06,3.55,-4.36,0,3.584,-4.244,9.565,-0.867,0.001,-0.007,0.995,0.000,0.000,0.000,0.3160,0,0,0.67,3.73,-4.39,0.2141,-0.1722,0.3217,0.1030,0.0778,0.3000,0.2571,-16.98,15.89,130.76,1.1410,0.0000,1.6040,1.0450,2.3900,0,0.0192,-0.0312,0.0000,-0.0301,-0.1255,0
18021,0.2163,-0.1062,0.3199,0.0873,-0.0609,0.0148,0.82,3.11,-4.39,0,3.595,-4.608,11.464,1.435,0.002,-0.014,0.995,0.000,0.000,0.000,0.3230,0,0,0.46,3.25,-4.43,0.2190,-0.1765,0.3209,0.0998,0.0798,0.3000,0.2592,-17.65,14.92,131.57,1.0790,0.0000,1.6230,1.0210,2.3860,1,0.0192,-0.0312,0.0000,-0.0301,-0.1255,0
18072,0.2197,-0.1094,0.3219,0.0599,-0.0658,0.0171,0.68,2.65,-4.33,0,3.579,-6.794,11.315,1.699,0.004,-0.009,0.992,0.000,0.000,0.000,0.3150,1,0,0.22,2.65,-4.48,-0.0660,0.0633,0.3222,0.0965,0.0818,0.3000,0.2586,-18.20,14.20,129.80,1.0790,0.0000,1.6230,1.0210,2.3860,1,-0.0692,0.0679,0.0330,0.2190,-0.1766,0
18123,0.2231,-0.1188,0.3192,0.0394,-0.0868,-0.0023,0.39,2.14,-4.25,0,3.589,-13.155,6.093,3.233,0.002,-0.013,0.999,0.000,0.000,0.000,0.3170,5,0,-0.25,2.14,-3.77,-0.0678,0.0675,0.3208,0.0932,0.0838,0.3000,0.2612,-19.60,13.62,127.44,1.0480,0.0000,1.6350,1.0230,2.3880,1,-0.0692,0.0679,0.0330,0.2190,-0.1766,0
18175,0.2241,-0.1260,0.3180,0.0196,-0.0975,-0.0094,-0.16,1.79,-4.13,0,3.574,-11.506,5.899,4.620,0.002,-0.006,1.002,0.000,0.000,0.000,0.3150,10,-1,-0.87,1.83,-3.86,-0.0688,0.0606,0.3202,0.0898,0.0857,0.3000,0.2622,-20.51,13.01,123.76,1.0480,0.0000,1.6350,1.0230,2.3880,1,-0.0692,0.0679,0.0330,0.2190,-0.1766,0
18226,0.2238,-0.1284,0.3162,0.0013,-0.0874,-0.0155,-0.73,1.47,-3.91,0,3.584,-11.316,7.847,3.875,0.005,-0.005,1.007,0.000,0.000,0.000,0.3150,14,-5,-1.34,1.51,-4.22,-0.0700,0.0450,0.3189,0.0865,0.0875,0.3000,0.2632,-20.24,12.37,117.29,1.0260,0.0000,1.6480,1.0010,2.3840,1,-0.0692,0.0679,0.0330,0.2190,-0.1766,0
18276,0.2241,-0.1348,0.3150,-0.0096,-0.0848,-0.0156,-1.30,1.04,-3.73,0,3.579,-9.179,5.498,3.667,0.007,-0.006,1.009,0.000,0.000,0.000,0.3180,11,-1,-1.73,1.04,-4.81,-0.0659,0.0191,0.3170,0.0831,0.0893,0.3000,0.2634,-20.58,12.14,111.99,1.0260,0.0000,1.6480,1.0010,2.3840,1,-0.0692,0.0679,0.0330,0.2190,-0.1766,0
18327,0.2258,-0.1417,0.3159,-0.0114,-0.0795,-0.0049,-1.72,0.67,-3.58,0,3.589,-6.088,2.571,2.628,0.004,-0.006,1.006,0.000,0.000,0.000,0.3170,1,0,-2.07,0.76,-5.09,-0.0664,-0.0059,0.3156,0.0797,0.0911,0.3000,0.2621,-20.96,12.49,107.35,1.0070,0.0000,1.6580,0.9880,2.3880,1,-0.0692,0.0679,0.0330,0.2190,-0.1766,0
18379,0.2262,-0.1521,0.3163,-0.0133,-0.0816,-0.0004,-2.11,0.50,-3.46,0,3.574,-7.830,1.766,1.810,0.004,-0.011,1.006,0.000,0.000,0.000,0.3160,3,-1,-2.44,0.63,-4.78,-0.0664,-0.0130,0.3171,0.0763,0.0928,0.3000,0.2615,-21.79,12.72,103.77,1.0070,0.0000,1.6580,0.9880,2.3880,1,-0.0692,0.0679,0.0330,0.2190,-0.1766,0
18431,0.2264,-0.1574,0.3162,-0.0139,-0.0672,0.0019,-2.51,0.37,-3.36,0,3.589,-3.156,2.474,1.416,0.003,-0.011,1.003,0.000,0.000,0.000,0.3180,4,0,-2.86,0.51,-4.63,-0.0646,-0.0231,0.3172,0.0727,0.0944,0.3000,0.2613,-21.61,12.97,100.87,0.9990,0.0000,1.6640,0.9810,2.3870,1,-0.0692,0.0679,0.0330,0.2190,-0.1766,0
18482,0.2265,-0.1599,0.3172,-0.0135,-0.0445,0.0075,-2.70,0.22,-3.29,0,3.584,-0.137,1.920,1.118,0.004,-0.010,1.000,0.000,0.000,0.000,0.3170,-2,-1,-3.01,0.39,-4.61,-0.0655,-0.0350,0.3178,0.0693,0.0960,0.3000,0.2605,-20.94,13.29,98.61,0.9990,0.0000,1.6640,0.9810,2.3870,1,-0.0692,0.0679,0.0330,0.2190,-0.1766,0
18533,0.2268,-0.1620,0.3174,-0.0113,-0.0220,0.0068,-2.73,0.19,-3.22,0,3.589,4.649,-1.962,-0.375,0.007,-0.007,1.000,0.000,0.000,0.000,0.3190,-1,-1,-3.11,0.26,-4.33,-0.0620,-0.0317,0.3185,0.0657,0.0975,0.3000,0.2605,-20.18,13.67,96.72,0.9900,0.0000,1.6670,0.0000,2.3900,1,-0.0692,0.0679,0.0330,0.2190,-0.1766,0
18583,0.2266,-0.1598,0.3184,-0.0110,0.0084,0.0093,-2.55,0.25,-3.21,0,3.574,12.068,-2.092,-1.266,0.002,-0.014,0.998,0.000,0.000,0.000,0.3160,0,0,-2.92,0.35,-4.22,-0.0587,-0.0298,0.3191,0.0622,0.0990,0.3000,0.2600,-18.84,13.95,96.22,0.9900,0.0000,1.6670,0.0000,2.3900,1,-0.0692,0.0679,0.0330,0.2190,-0.1766,0
18635,0.2271,-0.1570,0.3176,-0.0091,0.0347,0.0022,-2.07,0.26,-3.26,0,3.584,13.634,0.812,-4.110,0.006,-0.016,0.993,0.000,0.000,0.000,0.3130,3,-2,-2.31,0.45,-4.27,-0.0575,-0.0330,0.3185,0.0586,0.1004,0.3000,0.2610,-17.52,14.28,97.77,0.9930,0.0000,1.6650,0.0000,2.3800,1,-0.0692,0.0679,0.0330,0.2190,-0.1766,0
18687,0.2283,-0.1529,0.3154,-0.0060,0.0563,-0.0102,-1.46,0.17,-3.41,0,3.579,13.428,-0.321,-3.012,0.006,-0.014,0.999,0.000,0.000,0.000,0.3180,0,0,-1.57,0.39,-4.42,-0.0518,-0.0420,0.3168,0.0550,0.1018,0.3000,0.2627,-16.26,14.66,102.38,0.9930,0.0000,1.6650,0.0000,2.3800,1,-0.0692,0.0679,0.0330,0.2190,-0.1766,0
18739,0.2281,-0.1472,0.3162,-0.0063,0.0743,-0.0056,-0.82,0.19,-3.58,0,3.584,16.904,-2.939,-2.395,0.006,-0.013,0.996,0.000,0.000,0.000,0.3150,-1,0,-0.87,0.41,-4.58,-0.0497,-0.0455,0.3170,0.0513,0.1032,0.3000,0.2621,-15.18,14.94,107.32,0.9860,0.0000,1.6610,0.9840,2.3870,1,-0.0692,0.0679,0.0330,0.2190,-0.1766,0
18789,0.2294,-0.1413,0.3153,-0.0036,0.0847,-0.0099,0.19,0.30,-3.75,0,3.579,16.276,1.625,-2.861,0.003,-0.017,0.995,0.000,0.000,0.000,0.3150,-3,0,-0.06,0.59,-4.73,-0.0522,-0.0372,0.3166,0.0478,0.1044,0.3000,0.2627,-14.34,15.35,112.37,0.9860,0.0000,1.6610,0.9840,2.3870,1,-0.0692,0.0679,0.0330,0.2190,-0.1766,0
18841,0.2289,-0.1336,0.3147,-0.0068,0.0917,-0.0125,0.83,0.27,-3.84,0,3.584,9.788,-0.001,-3.268,0.003,-0.017,0.996,0.000,0.000,0.000,0.3170,-2,1,0.71,0.52,-4.84,-0.0513,-0.0319,0.3159,0.0441,0.1056,0.3000,0.2631,-13.53,15.42,115.27,0.9870,0.0000,1.6600,0.9910,2.3810,1,-0.0692,0.0679,0.0330,0.2190,-0.1766,0
18892,0.2303,-0.1281,0.3152,-0.0050,0.0864,-0.0100,1.38,0.23,-3.99,0,3.579,9.353,-0.565,-0.336,0.004,-0.014,0.997,0.000,0.000,0.000,0.3150,-2,0,1.19,0.53,-5.00,-0.0528,-0.0275,0.3158,0.0404,0.1068,0.3000,0.2627,-13.44,15.86,119.65,0.9870,0.0000,1.6600,0.9910,2.3810,1,-0.0692,0.0679,0.0330,0.2190,-0.1766,0
18943,0.2302,-0.1264,0.3146,-0.0071,0.0682,-0.0116,1.84,0.21,-4.05,0,3.584,1.823,0.762,2.102,0.003,-0.013,1.001,0.000,0.000,0.000,0.3140,1,0,1.63,0.56,-4.99,-0.0523,-0.0230,0.3152,0.0368,0.1078,0.3000,0.2630,-14.15,16.01,121.50,0.9830,0.0000,1.6620,0.9900,2.3900,1,-0.0692,0.0679,0.0330,0.2190,-0.1766,0
18995,0.2323,-0.1266,0.3138,-0.0034,0.0437,-0.0146,1.98,0.19,-3.97,0,3.574,-6.640,-3.319,3.554,0.004,-0.011,0.999,0.000,0.000,0.000,0.3120,0,0,1.74,0.52,-4.89,-0.0526,-0.0256,0.3143,0.0330,0.1089,0.3000,0.2635,-15.24,16.53,118.99,0.9830,0.0000,1.6620,0.9900,2.3900,1,-0.0692,0.0679,0.0330,0.2190,-0.1766,0
19047,0.2320,-0.1266,0.3123,-0.0065,0.0223,-0.0184,1.82,0.29,-3.82,0,3.579,-5.426,0.205,4.026,0.002,-0.010,1.005,0.000,0.000,0.000,0.3070,0,0,1.39,0.70,-4.71,-0.0531,-0.0278,0.3129,0.0292,0.1099,0.3000,0.2642,-16.15,16.59,114.47,0.9850,0.0000,1.6610,0.9870,2.3860,1,-0.0692,0.0679,0.0330,0.2190,-0.1766,0
19098,0.2302,-0.1247,0.3089,-0.0135,0.0107,-0.0290,1.48,0.33,-3.63,0,3.568,-5.278,2.802,4.810,0.001,-0.007,1.010,0.000,0.000,0.000,0.3090,2,0,1.10,0.70,-4.51,-0.0538,-0.0308,0.3105,0.0255,0.1108,0.3000,0.2660,-16.43,16.33,108.76,0.9850,0.0000,1.6610,0.9870,2.3860,1,-0.0692,0.0679,0.0330,0.2190,-0.1766,0
19150,0.2292,-0.1245,0.3079,-0.0174,-0.0017,-0.0237,1.25,0.30,-3.40,0,3.579,-4.962,2.591,2.933,0.004,-0.013,1.011,0.000,0.000,0.000,0.3080,0,1,0.79,0.54,-4.27,-0.0511,-0.0279,0.3097,0.0218,0.1117,0.3000,0.2656,-16.99,16.37,102.05,0.9820,0.0000,1.6640,0.9780,2.3970,1,-0.0692,0.0679,0.0330,0.2190,-0.1766,0
19201,0.2292,-0.1320,0.3070,-0.0184,-0.0283,-0.0180,1.05,0.19,-3.25,0,3.574,-9.747,0.286,3.856,0.005,-0.012,1.013,0.000,0.000,0.000,0.3070,0,1,0.52,0.42,-4.08,-0.0529,-0.0292,0.3089,0.0180,0.1125,0.3000,0.2651,-18.62,16.60,97.38,0.9820,0.0000,1.6640,0.9780,2.3970,1,-0.0692,0.0679,0.0330,0.2190,-0.1766,0
19251,0.2270,-0.1297,0.3064,-0.0236,-0.0275,-0.0111,0.57,0.23,-3.06,0,3.584,-10.671,-1.280,5.298,0.004,-0.008,1.016,0.000,0.000,0.000,0.3090,1,1,0.01,0.41,-3.86,-0.0549,-0.0304,0.3083,0.0143,0.1132,0.3000,0.2645,-18.49,16.53,91.78,0.9810,0.0000,1.6660,0.9740,2.3900,1,-0.0692,0.0679,0.0330,0.2190,-0.1766,0
19303,0.2269,-0.1444,0.3073,-0.0228,-0.0626,0.0010,0.17,0.20,-2.83,0,3.579,-11.267,4.616,4.227,0.003,-0.009,1.005,0.000,0.000,0.000,0.3100,3,1,-0.53,0.48,-3.57,-0.0574,-0.0335,0.3088,0.0105,0.1139,0.3000,0.2630,-20.96,16.90,84.98,0.9810,0.0000,1.6660,0.9740,2.3900,1,-0.0692,0.0679,0.0330,0.2190,-0.1766,0
19354,0.2264,-0.1505,0.3088,-0.0227,-0.0696,0.0110,-0.43,0.05,-2.60,0,3.584,-15.903,2.540,5.285,0.002,-0.013,1.003,0.000,0.000,0.000,0.3070,0,1,-1.08,0.25,-3.36,-0.0605,-0.0407,0.3096,0.0067,0.1145,0.3000,0.2617,-21.71,17.20,78.11,0.9780,0.0000,1.6710,0.9680,2.3910,1,-0.0692,0.0679,0.0330,0.2190,-0.1766,0
19405,0.2269,-0.1587,0.3085,-0.0183,-0.0760,0.0086,-1.06,-0.14,-2.35,0,3.574,-16.294,1.066,3.267,0.007,-0.009,0.999,0.000,0.000,0.000,0.3070,3,1,-1.92,0.12,-3.08,-0.0632,-0.0415,0.3094,0.0029,0.1151,0.3000,0.2620,-22.44,17.66,70.54,0.9780,0.0000,1.6710,0.9680,2.3910,1,-0.0692,0.0679,0.0330,0.2190,-0.1766,0
19456,0.2252,-0.1661,0.3081,-0.0183,-0.0738,0.0061,-1.92,-0.16,-2.16,0,3.584,-14.236,-3.514,4.690,0.003,-0.013,0.996,0.000,0.000,0.000,0.3110,0,0,-2.71,0.06,-2.93,-0.0665,-0.0492,0.3091,-0.0009,0.1156,0.3000,0.2623,-22.76,17.78,64.79,0.9810,0.0000,1.6730,0.0000,2.3920,2,-0.0692,0.0679,0.0330,0.2190,-0.1766,0
19508,0.2243,-0.1716,0.3098,-0.0164,-0.0615,0.0106,-2.58,-0.11,-1.95,0,3.579,-6.247,4.025,2.148,0.004,-0.009,0.997,0.000,0.000,0.000,0.3110,2,0,-3.44,0.23,-2.68,-0.0687,-0.0520,0.3100,-0.0047,0.1161,0.3000,0.2615,-22.65,18.12,58.63,0.9810,0.0000,1.6730,0.0000,2.3920,2,-0.0692,0.0679,0.0330,0.2190,-0.1766,0
19559,0.2242,-0.1751,0.3108,-0.0131,-0.0412,0.0108,-2.91,-0.21,-1.83,0,3.584,0.041,-1.986,1.803,0.004,-0.012,0.992,0.000,0.000,0.000,0.3130,-4,0,-3.74,-0.03,-2.52,-0.0656,-0.0575,0.3107,-0.0085,0.1164,0.3000,0.2613,-22.04,18.51,54.95,0.9820,0.0000,1.6740,0.9570,2.3960,2,-0.0692,0.0679,0.0330,0.2190,-0.1766,0
19610,0.2237,-0.1784,0.3122,-0.0100,-0.0203,0.0110,-3.07,-0.29,-1.75,0,3.579,2.342,-3.478,0.779,0.003,-0.015,0.989,0.000,0.000,0.000,0.3120,-1,0,-3.80,0.07,-2.42,-0.0655,-0.0494,0.3112,-0.0124,0.1168,0.3000,0.2610,-21.38,18.88,52.49,0.9820,0.0000,1.6740,0.9570,2.3960,2,-0.0692,0.0679,0.0330,0.2190,-0.1766,0
19662,0.2232,-0.1722,0.3124,-0.0075,0.0200,0.0037,-2.94,-0.14,-1.69,0,3.584,9.268,2.471,-0.205,0.007,-0.011,0.995,0.000,0.000,0.000,0.3070,5,0,-3.68,0.24,-2.36,-0.0656,-0.0465,0.3112,-0.0163,0.1171,0.3000,0.2618,-19.24,19.15,50.83,0.9860,0.0000,1.6710,0.9530,2.3960,2,-0.0692,0.0679,0.0330,0.2190,-0.1766,0
19714,0.2251,-0.1614,0.3098,-0.0006,0.0659,-0.0129,-2.61,-0.13,-1.67,0,3.574,17.665,-3.789,0.308,0.005,-0.016,0.998,0.000,0.000,0.000,0.3090,-4,0,-3.10,0.10,-2.34,-0.0660,-0.0582,0.3106,-0.0202,0.1173,0.3000,0.2641,-16.41,19.65,50.15,0.9860,0.0000,1.6710,0.9530,2.3960,2,-0.0692,0.0679,0.0330,0.2190,-0.1766,0
19766,0.2242,-0.1580,0.3088,-0.0013,0.0871,-0.0157,-1.94,0.12,-1.68,0,3.579,21.077,-1.284,1.017,0.003,-0.021,0.999,0.000,0.000,0.000,0.3060,4,-2,-2.24,0.30,-2.32,-0.0657,-0.0476,0.3096,-0.0241,0.1174,0.3000,0.2645,-15.21,19.79,50.33,0.9840,0.0000,1.6620,0.0000,2.3920,2,-0.0692,0.0679,0.0330,0.2190,-0.1766,0
19817,0.2233,-0.1484,0.3067,-0.0040,0.1128,-0.0214,-0.97,0.26,-1.64,0,3.563,23.015,4.199,-0.069,0.003,-0.014,1.006,0.000,0.000,0.000,0.3040,5,-2,-1.05,0.32,-2.08,-0.0601,-0.0582,0.3084,-0.0279,0.1175,0.3000,0.2655,-13.35,19.79,49.33,0.9840,0.0000,1.6620,0.0000,2.3920,2,-0.0692,0.0679,0.0330,0.2190,-0.1766,0
19869,0.2238,-0.1407,0.3046,-0.0040,0.1232,-0.0246,0.16,0.11,-1.64,0,3.574,15.087,2.147,-1.077,0.004,-0.023,1.006,0.000,0.000,0.000,0.3050,-1,-1,0.22,0.07,-1.95,-0.0545,-0.0721,0.3062,-0.0317,0.1176,0.3000,0.2663,-12.31,20.00,49.11,0.9870,0.0000,1.6530,0.9710,2.3960,2,-0.0692,0.0679,0.0330,0.2190,-0.1766,0
19920,0.2257,-0.1399,0.3038,0.0002,0.1078,-0.0193,1.04,-0.03,-1.66,0,3.563,8.467,-4.634,-1.122,0.004,-0.018,1.008,0.000,0.000,0.000,0.3040,-7,0,0.97,-0.04,-1.99,-0.0514,-0.0695,0.3056,-0.0356,0.1176,0.3000,0.2659,-12.91,20.56,49.73,0.9870,0.0000,1.6530,0.9710,2.3960,2,-0.0692,0.0679,0.0330,0.2190,-0.1766,0
19971,0.2258,-0.1315,0.3032,0.0002,0.1053,-0.0139,1.45,0.17,-1.72,0,3.574,6.764,-4.518,-2.139,0.004,-0.018,1.010,0.000,0.000,0.000,0.3050,-14,2,1.26,0.20,-2.12,-0.0507,-0.0495,0.3060,-0.0394,0.1175,0.3000,0.2654,-12.42,20.84,51.70,0.9860,0.0000,1.6440,0.9740,2.3980,2,-0.0692,0.0679,0.0330,0.2190,-0.1766,0
20022,0.2271,-0.1249,0.3036,0.0010,0.0947,-0.0040,1.71,0.42,-1.83,0,3.568,6.593,1.595,-2.381,0.006,-0.016,1.017,0.000,0.000,0.000,0.3010,-3,-1,1.36,0.47,-2.33,-0.0551,-0.0084,0.3061,-0.0432,0.1173,0.3000,0.2643,-12.45,21.26,54.99,0.9860,0.0000,1.6440,0.9740,2.3980,2,-0.0692,0.0679,0.0330,0.2190,-0.1766,0
20074,0.2265,-0.1143,0.3023,-0.0040,0.0927,-0.0032,2.05,0.36,-1.95,0,3.574,8.374,1.839,-2.989,0.004,-0.012,1.013,0.000,0.000,0.000,0.3030,0,0,1.69,0.37,-2.46,-0.0517,0.0006,0.3049,-0.0471,0.1171,0.3000,0.2644,-11.76,21.25,58.57,0.9860,0.0000,1.6460,0.9830,2.3990,2,-0.0692,0.0679,0.0330,0.2190,-0.1766,0
20126,0.2286,-0.1067,0.3026,-0.0021,0.0823,0.0050,2.42,0.24,-2.10,0,3.568,2.159,0.545,-3.736,0.002,-0.016,1.005,0.000,0.000,0.000,0.3040,0,0,2.12,0.27,-2.61,-0.0508,0.0073,0.3049,-0.0510,0.1169,0.3000,0.2635,-11.69,21.76,62.97,0.9860,0.0000,1.6460,0.9830,2.3990,2,-0.0692,0.0679,0.0330,0.2190,-0.1766,0
20177,0.2294,-0.1045,0.3036,-0.0023,0.0580,0.0117,2.58,0.17,-2.27,0,3.579,2.911,-4.011,-3.963,0.002,-0.012,1.007,0.000,0.000,0.000,0.3030,-5,1,2.24,0.23,-2.80,-0.0499,0.0124,0.3052,-0.0549,0.1166,0.3000,0.2626,-12.61,22.10,67.97,0.9800,0.0000,1.6460,0.9850,2.3960,2,-0.0692,0.0679,0.0330,0.2190,-0.1766,0
20229,0.2301,-0.1043,0.3039,-0.0029,0.0297,0.0128,2.72,0.37,-2.44,0,3.568,-7.007,-0.388,-2.057,0.004,-0.013,1.004,0.000,0.000,0.000,0.3010,0,0,2.36,0.47,-2.93,-0.0553,0.0215,0.3051,-0.0587,0.1162,0.3000,0.2624,-13.80,22.36,73.30,0.9800,0.0000,1.6460,0.9850,2.3960,2,-0.0692,0.0679,0.0330,0.2190,-0.1766,0
20279,0.2287,-0.0909,0.3031,-0.0101,0.0365,0.0086,2.29,0.51,-2.56,0,3.579,-0.445,3.540,-1.917,0.005,-0.014,1.009,0.000,0.000,0.000,0.3040,2,0,2.00,0.49,-3.04,-0.0558,0.0247,0.3044,-0.0625,0.1158,0.3000,0.2630,-12.48,22.17,76.66,0.9780,0.0000,1.6550,0.9790,2.4040,3,-0.0692,0.0679,0.0330,0.2190,-0.1766,0
20331,0.2279,-0.0938,0.3040,-0.0154,0.0073,0.0142,2.22,0.40,-2.63,0,3.574,-3.122,1.857,-1.988,0.006,-0.013,1.002,0.000,0.000,0.000,0.3070,4,0,2.04,0.29,-3.18,-0.0557,0.0173,0.3050,-0.0663,0.1153,0.3000,0.2622,-13.94,22.19,78.94,0.9780,0.0000,1.6550,0.9790,2.4040,3,-0.0692,0.0679,0.0330,0.2190,-0.1766,0
20382,0.2271,-0.1010,0.3061,-0.0194,-0.0287,0.0228,2.20,0.28,-2.71,0,3.574,-19.452,4.331,-0.104,0.006,-0.010,0.999,0.000,0.000,0.000,0.3050,5,1,1.92,0.19,-3.29,-0.0564,0.0103,0.3059,-0.0701,0.1147,0.3000,0.2609,-15.99,22.31,81.44,0.9720,0.0000,1.6620,0.9740,2.3960,3,-0.0692,0.0679,0.0330,0.2190,-0.1766,0
20433,0.2271,-0.1083,0.3066,-0.0198,-0.0590,0.0187,1.43,0.03,-2.74,0,3.574,-22.725,0.361,1.733,0.006,-0.009,0.997,0.000,0.000,0.000,0.3070,-2,3,0.98,-0.01,-3.24,-0.0588,0.0000,0.3057,-0.0739,0.1141,0.3000,0.2612,-17.68,22.49,82.14,0.9720,0.0000,1.6620,0.9740,2.3960,3,-0.0692,0.0679,0.0330,0.2190,-0.1766,0
20484,0.2266,-0.1167,0.3075,-0.0190,-0.0807,0.0175,0.38,-0.08,-2.67,0,3.574,-17.583,-6.706,2.158,0.007,-0.008,0.998,0.000,0.000,0.000,0.3060,0,0,-0.23,0.01,-2.98,-0.0642,0.0024,0.3073,-0.0776,0.1134,0.3000,0.2612,-19.06,22.72,80.00,0.9640,0.0000,1.6720,0.9630,2.3950,3,-0.0692,0.0679,0.0330,0.2190,-0.1766,0
20535,0.2252,-0.1216,0.3075,-0.0199,-0.0845,0.0127,-0.54,0.23,-2.54,0,3.574,-17.317,-0.961,5.313,0.004,-0.009,0.999,0.000,0.000,0.000,0.3060,5,2,-1.13,0.35,-2.87,-0.0661,-0.0017,0.3074,-0.0814,0.1127,0.3000,0.2617,-19.41,22.78,76.15,0.9640,0.0000,1.6720,0.9630,2.3950,3,-0.0692,0.0679,0.0330,0.2190,-0.1766,0
20586,0.2235,-0.1239,0.3072,-0.0235,-0.0740,0.0077,-1.35,0.37,-2.28,0,3.579,-12.854,3.093,7.594,0.007,-0.006,1.003,0.000,0.000,0.000,0.3060,10,-2,-1.96,0.41,-2.54,-0.0711,-0.0137,0.3074,-0.0852,0.1119,0.3000,0.2623,-18.97,22.70,68.36,0.9660,0.0000,1.6830,0.9530,2.4000,3,-0.0692,0.0679,0.0330,0.2190,-0.1766,0
20638,0.2198,-0.1276,0.3070,-0.0316,-0.0607,0.0055,-1.98,0.19,-1.90,0,3.568,-8.370,-0.132,7.820,0.008,-0.010,1.006,0.000,0.000,0.000,0.3090,0,-1,-2.50,0.20,-2.20,-0.0693,-0.0348,0.3073,-0.0889,0.1111,0.3000,0.2626,-18.53,22.35,57.13,0.9660,0.0000,1.6830,0.9530,2.4000,3,-0.0692,0.0679,0.0330,0.2190,-0.1766,0
20690,0.2210,-0.1356,0.3083,-0.0264,-0.0539,0.0121,-2.46,0.16,-1.52,0,3.579,-9.124,-1.989,8.149,0.002,-0.009,1.007,0.000,0.000,0.000,0.3040,7,1,-2.97,0.17,-1.79,-0.0676,-0.0373,0.3088,-0.0927,0.1102,0.3000,0.2616,-18.71,22.92,45.53,0.9640,0.0000,1.6840,0.9540,2.3990,3,-0.0692,0.0679,0.0330,0.2190,-0.1766,0
20740,0.2215,-0.1347,0.3068,-0.0232,-0.0246,0.0052,-2.88,0.19,-1.11,0,3.574,-3.734,3.474,7.609,0.004,-0.010,1.005,0.000,0.000,0.000,0.3110,1,0,-3.36,0.26,-1.37,-0.0705,-0.0543,0.3080,-0.0964,0.1092,0.3000,0.2627,-17.23,23.22,33.32,0.9640,0.0000,1.6840,0.9540,2.3990,3,-0.0692,0.0679,0.0330,0.2190,-0.1766,0
20791,0.2207,-0.1415,0.3092,-0.0231,-0.0131,0.0166,-3.08,-0.01,-0.74,0,3.589,0.980,-0.475,6.596,0.005,-0.013,1.001,0.000,0.000,0.000,0.3140,0,0,-3.57,0.06,-0.99,-0.0708,-0.0584,0.3098,-0.1001,0.1082,0.3000,0.2610,-17.17,23.52,22.26,0.9650,0.0000,1.6810,0.9490,2.4020,3,-0.0692,0.0679,0.0330,0.2190,-0.1766,0
20843,0.2200,-0.1419,0.3123,-0.0216,0.0123,0.0265,-3.08,-0.04,-0.41,0,3.579,-1.516,4.309,4.087,0.003,-0.011,0.992,0.000,0.000,0.000,0.3110,0,0,-3.52,0.06,-0.65,-0.0718,-0.0633,0.3120,-0.1038,0.1072,0.3000,0.2593,-16.07,23.88,12.21,0.9650,0.0000,1.6810,0.9490,2.4020,3,-0.0692,0.0679,0.0330,0.2190,-0.1766,0
