time_ms,vel_x,vel_y,vel_z,roll,pitch,yaw,range_z,gyro_x,gyro_y,gyro_z,ekf_x,ekf_y,acc_x,acc_y,acc_z,flow_dx,flow_dy
0,0.0014,0.0029,0.0032,-0.40,1.58,-51.51,0.010,-0.273,-0.057,-0.165,-1.5169,1.4192,0.0281,-0.0028,1.0011,0.00,7.00
100,0.0043,-0.0088,0.0035,-0.36,1.49,-51.46,0.010,-0.021,0.117,0.117,-1.5163,1.4178,0.0284,-0.0039,1.0020,5.00,-8.00
202,0.0074,-0.0045,0.0036,-0.41,1.50,-51.41,0.006,0.068,-0.324,-0.069,-1.5172,1.4190,0.0267,-0.0049,1.0034,-2.00,0.00
302,0.0049,0.0064,0.0039,-0.44,1.58,-51.36,0.006,0.069,-0.189,-0.049,-1.5170,1.4169,0.0275,-0.0036,1.0018,-7.00,7.00
404,0.0081,-0.0020,0.0042,-0.42,1.51,-51.31,0.006,-0.060,0.236,-0.074,-1.5167,1.4172,0.0277,-0.0040,1.0017,6.00,-8.00
506,0.0028,0.0043,-0.0046,-0.42,1.58,-51.26,0.006,-0.052,-0.192,0.008,-1.5164,1.4193,0.0279,-0.0038,1.0009,0.00,4.00
607,0.0042,-0.0067,-0.0043,-0.37,1.50,-51.21,0.006,0.034,-0.162,-0.164,-1.5164,1.4172,0.0283,-0.0057,0.9999,-3.00,-3.00
709,0.0061,-0.0048,-0.0041,-0.39,1.50,-51.16,0.006,-0.013,0.081,-0.157,-1.5169,1.4178,0.0290,-0.0059,1.0026,6.00,4.00
811,0.0072,0.0069,-0.0039,-0.46,1.57,-51.11,0.011,-0.087,0.024,0.265,-1.5160,1.4178,0.0292,-0.0065,1.0025,-8.00,0.00
913,0.0075,-0.0047,-0.0033,-0.40,1.50,-51.06,0.011,-0.162,-0.006,-0.219,-1.5175,1.4176,0.0296,-0.0047,1.0025,0.00,4.00
1015,0.0045,-0.0007,-0.0030,-0.40,1.54,-51.02,0.011,-0.286,-0.105,0.348,-1.5162,1.4187,0.0299,-0.0055,1.0016,3.00,-4.00
1117,0.0093,-0.0009,0.0031,-0.43,1.51,-50.97,0.011,-0.026,0.186,0.051,-1.5167,1.4194,0.0283,-0.0071,1.0025,2.00,-3.00
1217,0.0009,-0.0016,0.0032,-0.37,1.55,-50.92,0.009,-0.021,-0.190,-0.263,-1.5167,1.4183,0.0277,-0.0081,1.0022,-2.00,7.00
1318,0.0081,0.0043,0.0033,-0.44,1.55,-50.87,0.009,-0.277,-0.210,0.117,-1.5166,1.4176,0.0271,-0.0052,1.0009,4.00,-3.00
1420,0.0050,0.0075,0.0036,-0.44,1.59,-50.82,0.009,-0.199,-0.272,-0.211,-1.5172,1.4190,0.0297,-0.0054,0.9998,-3.00,3.00
1520,0.0051,0.0014,0.0026,-0.41,1.55,-50.77,0.009,0.201,-0.106,-0.244,-1.5175,1.4180,0.0292,-0.0073,1.0008,-4.00,-2.00
1622,0.0056,-0.0027,0.0029,-0.39,1.52,-50.72,0.009,-0.195,-0.365,-0.031,-1.5174,1.4188,0.0292,-0.0069,1.0013,2.00,2.00
1723,0.0023,0.0048,0.0032,-0.41,1.59,-50.67,0.009,-0.278,-0.200,-0.167,-1.5165,1.4190,0.0285,-0.0059,0.9994,1.00,-2.00
1824,0.0008,-0.0009,0.0035,-0.38,1.56,-50.63,0.011,-0.135,-0.076,0.119,-1.5171,1.4191,0.0282,-0.0046,1.0024,-1.00,-2.00
1925,0.0012,0.0039,0.0037,-0.40,1.59,-50.58,0.011,-0.069,-0.249,0.135,-1.5170,1.4187,0.0306,-0.0062,1.0023,3.00,-1.00
2026,0.0062,0.0049,0.0038,-0.44,1.57,-50.53,0.011,-0.012,-0.159,-0.073,-1.5166,1.4185,0.0309,-0.0046,1.0023,3.00,-2.00
2127,0.0029,0.0049,0.0070,-0.42,1.59,-50.48,0.011,0.008,0.209,-0.021,-1.5169,1.4179,0.0298,-0.0061,0.9993,-2.00,0.00
2228,0.0035,0.0021,0.0071,-0.41,1.57,-50.43,0.011,-0.179,0.193,0.102,-1.5171,1.4172,0.0281,-0.0072,0.9998,-4.00,3.00
2329,0.0057,0.0010,0.0072,-0.42,1.55,-50.38,0.011,0.103,-0.213,-0.215,-1.5168,1.4175,0.0272,-0.0077,1.0008,6.00,-1.00
2431,0.0038,-0.0021,0.0074,-0.39,1.54,-50.33,0.011,-0.029,0.048,-0.195,-1.5166,1.4185,0.0270,-0.0043,1.0042,-2.00,-2.00
2531,0.0026,-0.0059,0.0087,-0.36,1.52,-50.29,0.011,-0.028,0.079,-0.212,-1.5174,1.4176,0.0264,-0.0052,1.0015,2.00,3.00
2632,0.0046,-0.0043,0.0090,-0.38,1.52,-50.24,0.011,-0.284,0.064,0.031,-1.5168,1.4175,0.0287,-0.0061,1.0013,-1.00,-3.00
2733,0.0060,0.0012,0.0090,-0.42,1.55,-50.19,0.011,-0.251,-0.338,-0.028,-1.5175,1.4177,0.0273,-0.0051,0.9995,-1.00,7.00
2835,0.0013,-0.0041,0.0091,-0.36,1.54,-50.14,0.009,-0.201,-0.194,0.227,-1.5170,1.4174,0.0265,-0.0057,0.9988,-4.00,-7.00
2935,0.0043,-0.0044,0.0091,-0.38,1.53,-50.10,0.009,-0.393,0.132,0.163,-1.5177,1.4186,0.0269,-0.0050,0.9989,3.00,-1.00
0,0.0003,-0.0029,0.0095,-0.37,1.55,-50.05,0.009,0.092,-0.491,-0.133,-1.5162,1.4180,0.0293,-0.0051,0.9999,1.00,8.00
51,0.0034,-0.0044,0.0046,-0.38,1.53,-50.00,0.009,0.045,0.025,-0.188,-1.5165,1.4175,0.0283,-0.0039,1.0016,2.00,-7.00
103,-0.0009,0.0025,0.0047,-0.39,1.59,-49.95,0.010,-0.373,-0.025,0.387,-1.5177,1.4186,0.0304,-0.0037,1.0028,-5.00,-1.00
155,0.0079,-0.0006,0.0049,-0.43,1.53,-49.90,0.010,-0.109,-0.098,0.465,-1.5171,1.4173,0.0321,-0.0036,1.0029,0.00,4.00
206,0.0057,-0.0036,0.0049,-0.40,1.52,-49.85,0.010,-0.249,-0.187,-0.158,-1.5162,1.4178,0.0299,-0.0037,1.0016,0.00,4.00
257,-0.0013,0.0031,0.0037,-0.39,1.60,-49.81,0.010,-0.134,-0.341,0.149,-1.5167,1.4184,0.0282,-0.0039,1.0015,-7.00,0.00
308,0.0023,-0.0047,0.0038,-0.38,1.53,-49.76,0.010,-0.206,-0.105,0.359,-1.5172,1.4190,0.0293,-0.0027,1.0007,2.00,0.00
360,0.0076,-0.0015,0.0039,-0.42,1.52,-49.71,0.010,-0.100,0.035,0.198,-1.5162,1.4199,0.0278,-0.0045,0.9980,6.00,0.00
411,0.0046,0.0022,0.0042,-0.42,1.56,-49.66,0.012,-0.090,0.077,-0.008,-1.5165,1.4197,0.0274,-0.0063,0.9998,0.00,-8.00
463,0.0019,0.0054,0.0045,-0.42,1.60,-49.62,0.012,-0.047,-0.154,0.340,-1.5174,1.4189,0.0251,-0.0040,1.0004,1.00,4.00
514,0.0083,0.0104,0.0047,-0.49,1.60,-49.57,0.012,-0.070,0.172,0.002,-1.5164,1.4177,0.0270,-0.0045,0.9997,0.00,4.00
565,0.0064,0.0087,0.0082,-0.46,1.60,-49.52,0.012,0.115,0.024,-0.411,-1.5170,1.4182,0.0310,-0.0056,1.0030,-1.00,-8.00
616,0.0013,0.0041,0.0086,-0.40,1.59,-49.47,0.010,-0.034,-0.232,-0.055,-1.5176,1.4188,0.0291,-0.0078,1.0025,3.00,0.00
668,0.0074,-0.0028,0.0086,-0.40,1.52,-49.42,0.010,-0.176,-0.246,-0.131,-1.5164,1.4177,0.0281,-0.0064,1.0005,-5.00,8.00
719,0.0034,0.0001,0.0085,-0.39,1.56,-49.37,0.010,-0.362,-0.040,-0.047,-1.5168,1.4173,0.0299,-0.0052,1.0024,-3.00,0.00
771,0.0003,0.0036,0.0051,-0.39,1.60,-49.33,0.010,0.119,-0.021,-0.110,-1.5171,1.4192,0.0282,-0.0055,1.0014,4.00,-3.00
823,0.0071,-0.0023,0.0052,-0.40,1.52,-49.28,0.010,-0.182,-0.077,-0.043,-1.5166,1.4196,0.0265,-0.0087,1.0006,-1.00,3.00
874,0.0045,-0.0045,0.0055,-0.38,1.52,-49.23,0.010,-0.296,-0.208,-0.111,-1.5168,1.4186,0.0294,-0.0077,0.9998,0.00,-5.00
925,0.0028,0.0059,0.0058,-0.42,1.60,-49.18,0.011,0.183,-0.021,-0.195,-1.5171,1.4192,0.0301,-0.0063,1.0007,4.00,1.00
977,0.0052,0.0078,0.0059,-0.45,1.60,-49.14,0.011,-0.078,-0.028,-0.078,-1.5164,1.4184,0.0297,-0.0053,1.0006,-6.00,4.00
1028,0.0040,0.0020,0.0064,-0.41,1.57,-49.09,0.011,-0.110,-0.076,-0.127,-1.5172,1.4180,0.0301,-0.0055,1.0029,0.00,-1.00
1080,0.0027,0.0052,0.0057,-0.42,1.60,-49.04,0.011,-0.043,-0.417,-0.251,-1.5168,1.4194,0.0274,-0.0051,0.9999,1.00,-2.00
1131,0.0062,0.0007,0.0060,-0.42,1.55,-49.00,0.011,-0.133,-0.097,0.081,-1.5166,1.4193,0.0273,-0.0065,1.0019,2.00,0.00
1182,0.0018,-0.0014,0.0061,-0.38,1.56,-48.95,0.011,-0.259,-0.035,-0.184,-1.5165,1.4189,0.0295,-0.0046,1.0018,3.00,-4.00
1234,0.0040,0.0061,0.0061,-0.44,1.59,-48.90,0.011,-0.100,0.254,-0.331,-1.5168,1.4186,0.0288,-0.0058,1.0013,-6.00,7.00
1285,0.0048,0.0050,0.0053,-0.44,1.58,-48.86,0.011,0.017,-0.180,-0.011,-1.5168,1.4176,0.0269,-0.0049,1.0004,7.00,-3.00
1337,0.0054,0.0023,0.0055,-0.43,1.56,-48.81,0.011,0.031,-0.044,-0.153,-1.5168,1.4194,0.0281,-0.0044,1.0006,-2.00,-5.00
1388,0.0037,0.0007,0.0058,-0.41,1.56,-48.76,0.011,-0.250,-0.366,-0.240,-1.5174,1.4181,0.0300,-0.0075,0.9998,-6.00,8.00
1439,0.0040,-0.0047,0.0059,-0.38,1.53,-48.72,0.009,-0.226,-0.198,0.074,-1.5165,1.4176,0.0293,-0.0074,1.0005,0.00,0.00
1490,0.0039,0.0057,0.0061,-0.43,1.59,-48.67,0.009,-0.167,-0.245,-0.059,-1.5166,1.4195,0.0286,-0.0045,1.0026,4.00,-8.00
1542,0.0003,-0.0022,0.0065,-0.37,1.56,-48.63,0.009,0.128,0.153,-0.310,-1.5166,1.4196,0.0283,-0.0047,1.0042,-4.00,2.00
1593,0.0057,-0.0049,0.0006,-0.39,1.52,-48.58,0.009,-0.071,-0.315,-0.183,-1.5161,1.4178,0.0278,-0.0045,1.0031,6.00,4.00
1644,0.0048,0.0065,0.0007,-0.45,1.59,-48.53,0.009,0.013,0.001,-0.107,-1.5157,1.4187,0.0258,-0.0064,1.0019,-1.00,-1.00
1696,0.0050,0.0066,0.0008,-0.45,1.59,-48.48,0.009,0.029,-0.041,0.231,-1.5172,1.4185,0.0284,-0.0048,1.0032,1.00,-5.00
1747,0.0075,-0.0040,0.0010,-0.41,1.51,-48.44,0.009,0.023,0.130,-0.114,-1.5169,1.4184,0.0277,-0.0051,1.0020,2.00,8.00
1798,0.0093,0.0009,-0.0021,-0.44,1.54,-48.39,0.009,-0.123,-0.123,0.218,-1.5164,1.4175,0.0275,-0.0050,1.0017,-1.00,0.00
1849,0.0007,-0.0001,-0.0016,-0.38,1.58,-48.35,0.009,-0.118,0.010,-0.105,-1.5178,1.4185,0.0316,-0.0076,1.0033,0.00,-7.00
1901,0.0025,-0.0001,-0.0012,-0.39,1.57,-48.30,0.009,-0.133,-0.099,-0.025,-1.5177,1.4186,0.0298,-0.0086,1.0016,-4.00,7.00
1952,0.0054,-0.0051,-0.0009,-0.38,1.52,-48.25,0.010,-0.083,0.074,0.142,-1.5167,1.4176,0.0266,-0.0092,0.9994,1.00,-7.00
2003,-0.0026,0.0006,-0.0005,-0.37,1.60,-48.20,0.010,-0.122,-0.237,0.026,-1.5170,1.4192,0.0282,-0.0059,1.0009,-4.00,7.00
2055,-0.0015,0.0014,-0.0003,-0.38,1.60,-48.16,0.010,-0.130,0.025,-0.157,-1.5162,1.4180,0.0278,-0.0042,1.0000,4.00,0.00
2106,0.0040,-0.0045,0.0001,-0.38,1.53,-48.11,0.010,0.314,-0.176,0.070,-1.5166,1.4196,0.0302,-0.0050,0.9998,1.00,-3.00
2158,0.0021,0.0047,0.0005,-0.42,1.60,-48.07,0.012,-0.121,0.118,0.043,-1.5172,1.4191,0.0312,-0.0075,1.0018,-2.00,-4.00
2209,0.0066,-0.0026,0.0009,-0.41,1.53,-48.02,0.012,0.312,-0.261,0.126,-1.5169,1.4185,0.0296,-0.0067,1.0006,1.00,1.00
2260,0.0042,0.0065,0.0009,-0.45,1.60,-47.97,0.012,0.105,-0.189,-0.239,-1.5161,1.4181,0.0311,-0.0056,1.0005,1.00,-1.00
2311,0.0005,0.0032,0.0054,-0.41,1.59,-47.93,0.012,-0.291,-0.393,0.167,-1.5164,1.4182,0.0290,-0.0040,1.0012,-4.00,7.00
2362,0.0021,-0.0002,0.0056,-0.40,1.56,-47.88,0.012,-0.276,-0.124,-0.101,-1.5164,1.4179,0.0264,-0.0032,1.0016,-5.00,0.00
2413,0.0072,-0.0021,0.0056,-0.41,1.53,-47.83,0.012,0.011,-0.013,0.155,-1.5167,1.4195,0.0273,-0.0044,1.0015,10.00,-7.00
2464,0.0054,-0.0021,0.0058,-0.40,1.54,-47.79,0.011,-0.040,-0.244,0.228,-1.5160,1.4202,0.0287,-0.0054,1.0012,0.00,7.00
2516,0.0052,-0.0039,0.0060,-0.39,1.53,-47.74,0.011,-0.103,0.063,-0.035,-1.5166,1.4178,0.0292,-0.0060,1.0006,-8.00,-3.00
2567,0.0032,0.0052,0.0061,-0.43,1.60,-47.70,0.011,-0.248,-0.015,0.042,-1.5175,1.4188,0.0284,-0.0039,1.0005,12.00,3.00
2619,0.0076,0.0089,0.0057,-0.48,1.60,-47.65,0.011,0.037,-0.135,-0.012,-1.5159,1.4195,0.0275,-0.0040,1.0011,-2.00,0.00
2670,0.0044,-0.0048,0.0063,-0.38,1.54,-47.60,0.011,-0.082,-0.141,-0.223,-1.5181,1.4183,0.0293,-0.0061,1.0017,-3.00,0.00
2721,-0.0011,0.0014,0.0066,-0.38,1.60,-47.56,0.011,-0.176,-0.217,-0.284,-1.5178,1.4185,0.0283,-0.0060,1.0016,2.00,-3.00
2772,0.0082,0.0051,0.0068,-0.46,1.57,-47.51,0.011,-0.206,-0.240,0.002,-1.5173,1.4190,0.0276,-0.0069,1.0031,-1.00,-4.00
2823,-0.0043,-0.0018,0.0060,-0.35,1.60,-47.46,0.011,-0.223,0.106,-0.035,-1.5172,1.4183,0.0303,-0.0058,1.0010,4.00,0.00
2874,-0.0022,-0.0001,0.0061,-0.37,1.60,-47.42,0.011,-0.397,-0.220,0.306,-1.5165,1.4178,0.0280,-0.0054,1.0026,-1.00,-1.00
2925,0.0006,0.0024,0.0063,-0.40,1.59,-47.37,0.011,-0.199,-0.264,-0.196,-1.5171,1.4173,0.0280,-0.0047,1.0030,-9.00,8.00
2976,0.0014,-0.0016,0.0065,-0.38,1.57,-47.33,0.009,-0.061,0.133,0.321,-1.5168,1.4172,0.0289,-0.0035,1.0037,0.00,0.00
3027,0.0053,-0.0041,0.0067,-0.39,1.53,-47.28,0.009,-0.086,0.219,-0.304,-1.5166,1.4196,0.0314,-0.0025,1.0006,0.00,0.00
3078,0.0017,-0.0070,0.0070,-0.36,1.53,-47.23,0.009,-0.073,-0.036,-0.314,-1.5165,1.4197,0.0309,-0.0037,0.9998,6.00,-2.00
3129,0.0035,-0.0070,0.0013,-0.37,1.53,-47.19,0.009,0.169,0.015,-0.332,-1.5165,1.4198,0.0280,-0.0059,1.0019,-1.00,2.00
3180,0.0048,0.0067,0.0016,-0.45,1.60,-47.14,0.010,-0.060,0.066,-0.303,-1.5172,1.4185,0.0297,-0.0029,1.0015,-2.00,-3.00
3231,0.0050,0.0069,0.0019,-0.45,1.60,-47.10,0.010,0.001,-0.076,-0.215,-1.5173,1.4190,0.0269,-0.0044,1.0027,-3.00,4.00
3282,0.0054,0.0072,0.0023,-0.46,1.60,-47.06,0.010,-0.071,0.037,0.163,-1.5165,1.4188,0.0285,-0.0059,1.0019,2.00,-4.00
3334,0.0018,0.0000,0.0012,-0.39,1.57,-47.01,0.010,-0.192,-0.183,0.079,-1.5166,1.4199,0.0298,-0.0056,1.0041,8.00,-4.00
3384,0.0014,0.0026,0.0012,-0.40,1.59,-46.97,0.010,-0.374,0.079,0.118,-1.5164,1.4189,0.0293,-0.0058,1.0023,-10.00,4.00
3435,0.0058,0.0015,0.0014,-0.42,1.56,-46.92,0.010,-0.160,-0.320,-0.199,-1.5171,1.4171,0.0299,-0.0062,1.0021,0.00,3.00
3487,0.0052,0.0075,0.0015,-0.45,1.60,-46.88,0.012,-0.014,-0.077,-0.030,-1.5161,1.4193,0.0278,-0.0032,1.0031,4.00,0.00
3538,0.0067,0.0023,0.0019,-0.43,1.56,-46.83,0.012,-0.287,-0.151,0.038,-1.5165,1.4197,0.0281,-0.0058,1.0025,4.00,-5.00
3589,0.0028,-0.0078,0.0023,-0.35,1.52,-46.78,0.012,-0.195,0.094,0.116,-1.5171,1.4191,0.0278,-0.0081,1.0012,28.00,22.00
3641,0.0082,0.0041,0.0061,-0.45,1.56,-46.74,0.012,-0.143,0.081,0.325,-1.5171,1.4178,0.0299,-0.0036,1.0050,0.00,-1.00
3692,0.0056,0.0065,0.0064,-0.45,1.59,-46.69,0.009,-0.319,0.024,0.383,-1.5247,1.4170,0.0309,-0.0038,1.0064,-3.00,2.00
3742,0.0021,0.0029,0.0068,-0.41,1.59,-46.65,0.009,-0.276,-0.068,0.249,-1.5245,1.4169,0.0285,-0.0040,1.0023,4.00,3.00
3793,0.0029,-0.0045,0.0072,-0.37,1.54,-46.60,0.009,-0.006,-0.038,-0.038,-1.5243,1.4176,0.0275,-0.0054,1.0007,-1.00,-2.00
3844,-0.0381,-0.0081,0.0017,-0.11,1.75,-46.56,0.009,-0.319,-0.076,0.222,-1.5254,1.4175,0.0277,-0.0056,1.0021,5.00,-5.00
3895,-0.0358,-0.0087,0.0021,-0.13,1.72,-46.51,0.009,-0.058,-0.174,0.211,-1.5249,1.4173,0.0293,-0.0056,1.0009,0.00,-1.00
3946,-0.0331,-0.0043,0.0028,-0.17,1.73,-46.47,0.009,0.185,-0.060,-0.250,-1.5250,1.4159,0.0305,-0.0067,1.0006,-8.00,4.00
3997,-0.0370,-0.0048,0.0032,-0.15,1.75,-46.42,0.010,-0.068,-0.186,-0.267,-1.5248,1.4157,0.0287,-0.0076,1.0026,4.00,0.00
4048,-0.0327,-0.0054,0.0039,-0.17,1.72,-46.37,0.010,-0.096,0.035,-0.090,-1.5242,1.4175,0.0275,-0.0051,1.0001,3.00,0.00
4099,-0.0313,-0.0132,0.0041,-0.14,1.67,-46.33,0.010,-0.215,-0.080,-0.208,-1.5248,1.4169,0.0289,-0.0053,1.0019,-3.00,1.00
4150,-0.0291,-0.0134,0.0029,-0.16,1.65,-46.29,0.010,-0.324,-0.106,0.135,-1.5252,1.4165,0.0304,-0.0067,1.0027,3.00,0.00
4201,-0.0242,-0.0031,0.0035,-0.25,1.68,-46.24,0.009,-0.068,-0.136,-0.317,-1.5249,1.4171,0.0298,-0.0043,1.0031,-7.00,1.00
4253,-0.0263,-0.0063,0.0035,-0.22,1.68,-46.20,0.009,-0.226,-0.106,0.018,-1.5253,1.4166,0.0289,-0.0035,1.0015,3.00,-5.00
4303,-0.0275,-0.0085,0.0036,-0.20,1.67,-46.15,0.009,0.075,-0.014,-0.069,-1.5244,1.4178,0.0285,-0.0053,1.0034,0.00,2.00
4354,-0.0245,-0.0051,0.0003,-0.25,1.67,-46.11,0.009,0.117,-0.123,-0.296,-1.5242,1.4166,0.0274,-0.0074,1.0020,1.00,-2.00
4406,-0.0257,-0.0073,0.0004,-0.23,1.66,-46.06,0.009,-0.197,-0.242,0.031,-1.5245,1.4169,0.0263,-0.0046,1.0017,4.00,-1.00
4457,-0.0196,-0.0008,0.0010,-0.30,1.67,-46.02,0.009,0.003,0.094,0.036,-1.5243,1.4165,0.0264,-0.0047,1.0022,-8.00,2.00
4509,-0.0170,-0.0073,0.0014,-0.28,1.62,-45.98,0.011,-0.547,-0.062,-0.122,-1.5248,1.4158,0.0293,-0.0054,1.0011,0.00,3.00
4559,-0.0175,-0.0052,0.0017,-0.29,1.63,-45.93,0.011,-0.109,-0.004,0.077,-1.5239,1.4172,0.0294,-0.0055,1.0020,7.00,0.00
4610,-0.0157,-0.0074,0.0020,-0.29,1.61,-45.89,0.011,0.129,-0.100,0.119,-1.5243,1.4176,0.0288,-0.0061,1.0012,-3.00,-4.00
4662,-0.0175,-0.0111,0.0043,-0.26,1.60,-45.85,0.011,0.017,-0.035,-0.252,-1.5253,1.4166,0.0294,-0.0038,1.0030,0.00,1.00
4714,-0.0117,-0.0023,0.0047,-0.34,1.61,-45.80,0.010,0.011,-0.204,-0.145,-1.5243,1.4165,0.0298,-0.0021,1.0034,-5.00,3.00
4766,-0.0135,0.0005,0.0048,-0.35,1.63,-45.76,0.010,-0.030,0.060,0.043,-1.5245,1.4166,0.0276,-0.0058,1.0029,0.00,1.00
4817,-0.0184,-0.0050,0.0050,-0.29,1.63,-45.71,0.010,-0.152,0.125,-0.099,-1.5242,1.4178,0.0274,-0.0051,1.0026,5.00,-2.00
4868,-0.0116,-0.0058,0.0037,-0.33,1.59,-45.67,0.010,-0.053,0.043,0.118,-1.5243,1.4179,0.0281,-0.0045,1.0018,1.00,-4.00
4919,-0.0117,-0.0048,0.0039,-0.33,1.59,-45.63,0.010,0.020,-0.352,0.061,-1.5248,1.4169,0.0287,-0.0045,1.0003,-6.00,-1.00
4970,-0.0093,0.0019,0.0042,-0.38,1.62,-45.58,0.010,0.024,-0.073,-0.397,-1.5243,1.4162,0.0296,-0.0045,0.9985,3.00,5.00
5022,-0.0092,0.0027,0.0045,-0.39,1.62,-45.54,0.011,-0.190,-0.203,0.087,-1.5233,1.4169,0.0278,-0.0029,1.0012,2.00,2.00
5073,-0.0110,-0.0028,0.0049,-0.34,1.60,-45.49,0.011,-0.073,-0.303,-0.253,-1.5245,1.4172,0.0282,-0.0046,0.9998,0.00,-3.00
5125,-0.0081,-0.0065,0.0052,-0.34,1.56,-45.45,0.011,-0.579,-0.175,0.219,-1.5251,1.4172,0.0283,-0.0059,1.0010,-1.00,-3.00
5176,-0.0019,-0.0021,0.0062,-0.40,1.55,-45.41,0.011,0.033,-0.175,-0.258,-1.5246,1.4168,0.0293,-0.0035,1.0013,-1.00,3.00
5227,-0.0079,-0.0002,0.0064,-0.38,1.60,-45.36,0.009,0.070,0.034,0.047,-1.5241,1.4165,0.0288,-0.0058,1.0009,4.00,0.00
5278,-0.0104,-0.0002,0.0063,-0.36,1.61,-45.32,0.009,-0.238,-0.202,0.578,-1.5243,1.4171,0.0290,-0.0061,1.0007,-3.00,1.00
5329,-0.0073,-0.0023,0.0064,-0.37,1.58,-45.27,0.009,-0.184,-0.099,0.137,-1.5249,1.4165,0.0302,-0.0037,1.0013,-3.00,0.00
5381,-0.0034,-0.0037,0.0017,-0.38,1.55,-45.23,0.009,0.083,0.002,-0.387,-1.5246,1.4171,0.0314,-0.0052,1.0013,-1.00,-4.00
5433,-0.0047,-0.0004,0.0018,-0.40,1.58,-45.19,0.009,-0.209,-0.298,0.044,-1.5242,1.4175,0.0290,-0.0069,1.0024,9.00,8.00
5484,-0.0073,-0.0034,0.0020,-0.36,1.58,-45.14,0.009,0.002,-0.155,0.030,-1.5235,1.4171,0.0304,-0.0053,1.0008,-3.00,-3.00
5535,-0.0052,-0.0001,0.0022,-0.39,1.59,-45.10,0.009,0.178,0.142,-0.135,-1.5259,1.4169,0.0299,-0.0058,1.0048,2.00,-1.00
5586,-0.0025,0.0022,0.0022,-0.42,1.58,-45.05,0.009,-0.212,0.213,-0.104,-1.5250,1.4169,0.0292,-0.0029,1.0050,-4.00,4.00
5638,0.0020,-0.0002,0.0025,-0.43,1.55,-45.01,0.009,-0.088,-0.222,-0.145,-1.5252,1.4165,0.0272,-0.0029,1.0012,-3.00,-4.00
5689,-0.0110,-0.0011,-0.0004,-0.35,1.62,-44.97,0.009,-0.283,-0.288,0.025,-1.5252,1.4177,0.0299,-0.0062,1.0005,0.00,-4.00
5741,-0.0056,-0.0011,0.0000,-0.38,1.59,-44.92,0.010,0.113,-0.152,0.028,-1.5242,1.4175,0.0271,-0.0039,1.0016,2.00,4.00
5792,-0.0059,-0.0034,0.0002,-0.37,1.57,-44.88,0.010,-0.162,0.264,-0.112,-1.5236,1.4170,0.0286,-0.0051,1.0010,1.00,2.00
5844,-0.0054,0.0030,0.0006,-0.41,1.61,-44.84,0.010,-0.118,-0.160,-0.289,-1.5245,1.4172,0.0290,-0.0061,1.0027,0.00,-5.00
5895,0.0007,0.0022,0.0016,-0.44,1.57,-44.79,0.010,-0.060,0.209,0.172,-1.5249,1.4174,0.0301,-0.0063,1.0016,5.00,-1.00
5946,0.0041,-0.0007,0.0018,-0.44,1.54,-44.75,0.010,-0.384,-0.056,-0.066,-1.5242,1.4167,0.0298,-0.0052,1.0000,0.00,0.00
5997,-0.0005,0.0009,0.0019,-0.42,1.57,-44.71,0.010,-0.256,0.156,0.242,-1.5248,1.4158,0.0294,-0.0047,1.0020,0.00,5.00
6049,-0.0026,0.0018,0.0021,-0.42,1.59,-44.66,0.009,-0.219,0.073,0.182,-1.5248,1.4158,0.0262,-0.0043,1.0048,-4.00,0.00
6100,0.0017,-0.0020,0.0023,-0.42,1.54,-44.62,0.009,-0.114,-0.086,-0.197,-1.5255,1.4165,0.0265,-0.0045,1.0016,0.00,3.00
6152,-0.0013,-0.0067,0.0025,-0.38,1.53,-44.58,0.009,-0.154,-0.005,0.278,-1.5249,1.4171,0.0254,-0.0036,1.0008,3.00,-3.00
6204,-0.0010,-0.0069,0.0005,-0.38,1.53,-44.53,0.009,-0.133,0.054,0.146,-1.5253,1.4175,0.0294,-0.0046,1.0007,-2.00,3.00
6255,-0.0048,-0.0025,0.0006,-0.38,1.57,-44.49,0.008,-0.237,0.289,-0.073,-1.5253,1.4166,0.0273,-0.0041,1.0020,-2.00,0.00
6306,-0.0010,0.0009,0.0009,-0.42,1.57,-44.44,0.008,0.043,0.090,0.161,-1.5255,1.4174,0.0284,-0.0038,1.0016,-3.00,-3.00
6357,-0.0032,0.0036,0.0012,-0.43,1.60,-44.40,0.008,-0.238,-0.112,-0.014,-1.5252,1.4177,0.0283,-0.0041,1.0015,3.00,-2.00
6409,-0.0029,-0.0012,-0.0020,-0.40,1.57,-44.35,0.008,0.018,0.009,-0.210,-1.5243,1.4177,0.0266,-0.0062,1.0014,5.00,-3.00
6460,-0.0035,0.0033,-0.0019,-0.42,1.59,-44.31,0.008,0.040,-0.166,-0.235,-1.5244,1.4170,0.0291,-0.0064,1.0019,-5.00,0.00
6511,-0.0015,0.0049,-0.0018,-0.44,1.59,-44.27,0.008,0.058,-0.121,0.093,-1.5247,1.4158,0.0304,-0.0060,1.0020,1.00,4.00
6563,0.0038,0.0049,-0.0016,-0.47,1.56,-44.22,0.007,-0.221,-0.432,0.083,-1.5240,1.4165,0.0273,-0.0042,1.0008,-2.00,-3.00
6613,0.0032,0.0009,-0.0014,-0.44,1.54,-44.18,0.007,0.032,-0.284,-0.135,-1.5247,1.4169,0.0293,-0.0064,1.0022,1.00,3.00
6665,0.0018,-0.0056,-0.0011,-0.39,1.51,-44.14,0.007,-0.102,-0.005,-0.412,-1.5240,1.4168,0.0268,-0.0059,1.0026,-4.00,1.00
6716,0.0059,-0.0012,-0.0051,-0.44,1.51,-44.10,0.007,-0.089,-0.011,0.259,-1.5246,1.4171,0.0280,-0.0080,1.0024,9.00,-1.00
6768,0.0016,0.0012,-0.0049,-0.43,1.55,-44.05,0.009,-0.176,-0.064,0.158,-1.5241,1.4178,0.0261,-0.0064,1.0021,-8.00,2.00
6818,0.0060,0.0003,-0.0046,-0.45,1.52,-44.01,0.009,-0.039,0.115,-0.259,-1.5253,1.4164,0.0281,-0.0048,1.0023,1.00,2.00
6869,0.0026,0.0020,-0.0044,-0.44,1.55,-43.97,0.009,-0.212,-0.337,0.166,-1.5244,1.4178,0.0279,-0.0052,1.0022,-2.00,-1.00
6921,0.0051,0.0062,-0.0018,-0.48,1.56,-43.93,0.009,-0.142,-0.063,0.134,-1.5248,1.4180,0.0277,-0.0067,1.0007,9.00,-7.00
6972,-0.0014,-0.0023,-0.0013,-0.39,1.55,-43.88,0.009,-0.203,-0.152,0.225,-1.5244,1.4181,0.0304,-0.0054,1.0012,-3.00,0.00
7022,0.0033,0.0059,-0.0010,-0.47,1.57,-43.84,0.009,-0.040,0.055,-0.249,-1.5247,1.4158,0.0293,-0.0074,1.0006,-6.00,4.00
7073,0.0007,0.0065,-0.0008,-0.46,1.58,-43.80,0.010,0.007,-0.061,0.046,-1.5243,1.4163,0.0276,-0.0063,1.0001,5.00,0.00
7124,0.0033,0.0072,-0.0005,-0.48,1.57,-43.76,0.010,-0.157,0.030,0.015,-1.5240,1.4177,0.0292,-0.0034,1.0009,-1.00,4.00
7175,0.0020,-0.0060,0.0001,-0.39,1.50,-43.71,0.010,-0.117,0.120,-0.001,-1.5247,1.4170,0.0281,-0.0045,1.0017,-3.00,-3.00
7226,0.0044,-0.0032,0.0039,-0.42,1.51,-43.67,0.010,-0.109,-0.129,0.128,-1.5252,1.4177,0.0248,-0.0050,1.0038,6.00,-4.00
7278,0.0058,0.0050,0.0040,-0.48,1.55,-43.63,0.013,-0.238,0.137,0.248,-1.5243,1.4177,0.0260,-0.0060,1.0031,-7.00,3.00
7329,0.0019,0.0006,0.0043,-0.43,1.54,-43.58,0.013,-0.186,0.260,0.193,-1.5246,1.4163,0.0283,-0.0051,1.0017,4.00,0.00
7381,-0.0006,0.0044,0.0043,-0.44,1.58,-43.54,0.013,-0.221,0.003,-0.292,-1.5240,1.4178,0.0280,-0.0044,0.9998,-4.00,2.00
7432,0.0045,0.0046,0.0128,-0.46,1.55,-43.50,0.013,-0.121,-0.119,0.013,-1.5246,1.4172,0.0295,-0.0029,1.0023,9.00,-7.00
7483,0.0032,-0.0033,0.0131,-0.41,1.51,-43.45,0.013,-0.243,0.103,-0.210,-1.5243,1.4181,0.0288,-0.0035,1.0021,0.00,0.00
7533,0.0061,0.0051,0.0135,-0.47,1.54,-43.41,0.013,-0.079,-0.022,0.007,-1.5246,1.4158,0.0284,-0.0021,1.0016,-8.00,5.00
7584,0.0028,0.0018,0.0139,-0.44,1.53,-43.37,0.010,0.029,-0.066,-0.030,-1.5245,1.4157,0.0282,-0.0052,1.0043,1.00,4.00
7635,0.0043,0.0066,0.0141,-0.47,1.55,-43.33,0.010,-0.028,-0.235,-0.009,-1.5241,1.4177,0.0285,-0.0042,1.0032,0.00,0.00
7686,0.0031,-0.0061,0.0144,-0.39,1.49,-43.28,0.010,-0.364,0.237,-0.166,-1.5248,1.4181,0.0290,-0.0045,0.9997,1.00,-3.00
7737,0.0037,-0.0061,0.0110,-0.39,1.49,-43.24,0.010,-0.107,-0.340,-0.085,-1.5248,1.4182,0.0298,-0.0043,1.0026,1.00,-2.00
7789,0.0060,0.0050,0.0114,-0.47,1.54,-43.20,0.010,0.051,-0.080,0.147,-1.5245,1.4175,0.0282,-0.0052,1.0038,0.00,1.00
7839,0.0020,0.0074,0.0116,-0.46,1.57,-43.16,0.010,-0.179,-0.317,-0.220,-1.5243,1.4170,0.0289,-0.0070,1.0020,-4.00,0.00
7890,0.0022,0.0076,0.0120,-0.46,1.57,-43.12,0.010,-0.050,-0.273,-0.178,-1.5245,1.4172,0.0271,-0.0058,1.0024,6.00,2.00
7941,0.0043,0.0039,0.0091,-0.45,1.54,-43.08,0.010,-0.173,-0.128,-0.030,-1.5239,1.4179,0.0270,-0.0047,1.0026,0.00,-7.00
7993,0.0053,0.0012,0.0092,-0.44,1.52,-43.04,0.010,-0.169,-0.079,0.200,-1.5251,1.4172,0.0283,-0.0040,1.0000,-4.00,1.00
8045,0.0046,0.0020,0.0095,-0.44,1.53,-42.99,0.010,-0.194,-0.171,0.142,-1.5240,1.4161,0.0277,-0.0049,1.0018,-1.00,3.00
8096,0.0079,0.0055,0.0098,-0.48,1.53,-42.95,0.009,0.012,-0.270,-0.220,-1.5236,1.4169,0.0293,-0.0038,1.0039,1.00,5.00
8147,0.0011,0.0016,0.0102,-0.42,1.55,-42.91,0.009,-0.329,-0.383,0.108,-1.5239,1.4175,0.0276,-0.0046,1.0023,5.00,0.00
8199,0.0072,-0.0040,0.0106,-0.42,1.48,-42.87,0.009,0.274,-0.004,-0.199,-1.5248,1.4181,0.0274,-0.0055,1.0032,-3.00,-7.00
8251,0.0093,0.0005,0.0056,-0.45,1.50,-42.83,0.009,-0.084,0.046,-0.155,-1.5256,1.4173,0.0301,-0.0063,1.0014,-3.00,1.00
8303,0.0074,0.0039,0.0056,-0.46,1.53,-42.79,0.011,-0.086,0.043,0.217,-1.5240,1.4168,0.0284,-0.0068,1.0025,2.00,6.00
8354,0.0022,0.0070,0.0058,-0.45,1.58,-42.75,0.011,-0.329,-0.109,0.133,-1.5237,1.4174,0.0271,-0.0076,1.0012,1.00,-3.00
8405,-0.0015,0.0025,0.0062,-0.40,1.58,-42.71,0.011,0.160,-0.153,-0.095,-1.5250,1.4179,0.0275,-0.0065,1.0031,-4.00,0.00
8457,0.0071,-0.0004,0.0072,-0.43,1.51,-42.66,0.011,-0.192,-0.195,0.197,-1.5247,1.4174,0.0279,-0.0075,1.0015,0.00,-5.00
8507,0.0084,0.0031,0.0076,-0.46,1.52,-42.62,0.011,-0.253,-0.234,0.313,-1.5241,1.4180,0.0275,-0.0058,1.0021,1.00,0.00
8558,0.0016,0.0058,0.0078,-0.44,1.57,-42.58,0.011,-0.408,-0.100,0.326,-1.5233,1.4173,0.0270,-0.0051,1.0021,4.00,4.00
8610,0.0034,0.0023,0.0081,-0.42,1.54,-42.54,0.009,0.111,-0.301,-0.240,-1.5234,1.4171,0.0270,-0.0065,1.0015,-2.00,0.00
8661,0.0064,0.0056,0.0083,-0.46,1.54,-42.50,0.009,-0.240,-0.099,0.032,-1.5247,1.4170,0.0302,-0.0060,0.9994,1.00,0.00
8713,0.0105,0.0015,0.0087,-0.46,1.50,-42.45,0.009,-0.136,0.336,-0.070,-1.5244,1.4173,0.0294,-0.0059,1.0004,-4.00,-1.00
8763,0.0093,0.0004,0.0040,-0.45,1.50,-42.41,0.009,-0.293,-0.054,-0.009,-1.5245,1.4172,0.0279,-0.0062,1.0034,0.00,0.00
8814,0.0024,0.0001,0.0043,-0.41,1.54,-42.37,0.009,-0.076,-0.397,-0.349,-1.5238,1.4177,0.0268,-0.0061,1.0010,0.00,1.00
8866,0.0040,0.0020,0.0045,-0.43,1.54,-42.33,0.009,0.025,-0.103,0.034,-1.5237,1.4177,0.0269,-0.0051,0.9998,0.00,-1.00
