time_ms,pos_x,pos_y,pos_z,vel_x,vel_y,vel_z,roll,pitch,yaw,thrust,vbat,gyro_x,gyro_y,gyro_z,acc_x,acc_y,acc_z,rate_roll,rate_pitch,rate_yaw,range_z,flow_dx,flow_dy,mekf_roll,mekf_pitch,mekf_yaw,mekf_x,mekf_y,mekf_z,our_ref_x,our_ref_y,our_ref_z,our_thrust,our_roll_cmd,our_pitch_cmd,our_yaw_rate_cmd,multi_front,multi_back,multi_left,multi_right,multi_up,ai_feat_count,vo_x,vo_y,vo_sigma,pg_x,pg_y,lc_count
0,-0.5346,1.6645,0.0095,-0.0012,-0.0126,0.0051,-1.32,0.51,2.72,0,3.816,0.077,-0.016,-0.145,0.009,-0.026,1.001,0.000,0.000,0.000,0.0090,-3,1,0.00,0.00,0.00,0.0000,0.0000,0.0000,0.0000,0.0000,0.0000,0.0000,0.00,0.00,0.00,1.0560,0.5620,1.4110,1.0780,2.7040,0,0.0000,0.0000,0.0000,0.0000,0.0000,0
101,-0.5338,1.6645,0.0094,0.0040,-0.0115,0.0037,-1.31,0.43,2.71,0,3.827,-0.065,0.125,0.028,0.008,-0.024,0.998,0.000,0.000,0.000,0.0090,4,0,0.00,0.00,0.00,0.0000,0.0000,0.0000,0.0000,0.0000,0.0000,0.0000,0.00,0.00,0.00,1.0610,0.5640,1.4080,1.0780,2.7040,0,0.0000,0.0000,0.0000,0.0000,0.0000,0
202,-0.5358,1.6644,0.0094,-0.0066,-0.0114,0.0028,-1.26,0.50,2.70,0,3.816,0.118,0.088,0.126,0.006,-0.024,1.002,0.000,0.000,0.000,0.0070,-2,0,0.00,0.00,0.00,0.0000,0.0000,0.0000,0.0000,0.0000,0.0000,0.0000,0.00,0.00,0.00,1.0610,0.5640,1.4080,1.0860,2.7040,0,0.0000,0.0000,0.0000,0.0000,0.0000,0
302,-0.5357,1.6630,0.0085,-0.0047,-0.0171,-0.0022,-1.27,0.49,2.68,0,3.822,-0.018,-0.258,0.058,0.008,-0.025,1.000,0.000,0.000,0.000,0.0100,-4,-1,0.00,0.00,0.00,0.0000,0.0000,0.0000,0.0000,0.0000,0.0000,0.0000,0.00,0.00,0.00,1.0600,0.5750,1.4130,1.0860,2.6910,0,0.0000,0.0000,0.0000,0.0000,0.0000,0
404,-0.5362,1.6632,0.0091,-0.0066,-0.0132,0.0013,-1.33,0.49,2.67,0,3.816,0.405,0.172,0.121,0.007,-0.026,1.002,0.000,0.000,0.000,0.0050,0,-2,0.00,0.00,0.00,0.0000,0.0000,0.0000,0.0000,0.0000,0.0000,0.0000,0.00,0.00,0.00,1.0600,0.5750,1.4130,1.0860,2.6910,0,0.0000,0.0000,0.0000,0.0000,0.0000,0
505,-0.5356,1.6632,0.0074,-0.0021,-0.0112,-0.0073,-1.30,0.44,2.65,0,3.827,-0.023,-0.043,0.244,0.007,-0.026,1.000,0.000,0.000,0.000,0.0070,-1,4,0.00,0.00,0.00,0.0000,0.0000,0.0000,0.0000,0.0000,0.0000,0.0000,0.00,0.00,0.00,1.0590,0.5580,1.4210,1.0860,2.7000,0,0.0000,0.0000,0.0000,0.0000,0.0000,0
606,-0.5349,1.6636,0.0070,0.0019,-0.0076,-0.0074,-1.34,0.47,2.64,0,3.816,-0.128,0.110,0.282,0.009,-0.025,0.999,0.000,0.000,0.000,0.0100,-4,0,0.00,0.00,0.00,0.0000,0.0000,0.0000,0.0000,0.0000,0.0000,0.0000,0.00,0.00,0.00,1.0590,0.5580,1.4210,1.0820,2.7000,0,0.0000,0.0000,0.0000,0.0000,0.0000,0
708,-0.5349,1.6629,0.0081,0.0028,-0.0116,0.0011,-1.34,0.43,2.63,0,3.827,0.053,0.130,0.140,0.008,-0.025,1.000,0.000,0.000,0.000,0.0110,1,3,0.00,0.00,0.00,0.0000,0.0000,0.0000,0.0000,0.0000,0.0000,0.0000,0.00,0.00,0.00,1.0570,0.5590,1.4130,1.0820,2.6980,0,0.0000,0.0000,0.0000,0.0000,0.0000,0
809,-0.5350,1.6635,0.0094,0.0025,-0.0065,0.0078,-1.33,0.46,2.62,0,3.816,-0.009,0.294,-0.179,0.007,-0.025,0.998,0.000,0.000,0.000,0.0100,9,4,0.00,0.00,0.00,0.0000,0.0000,0.0000,0.0000,0.0000,0.0000,0.0000,0.00,0.00,0.00,1.0570,0.5590,1.4130,1.0830,2.6980,0,0.0000,0.0000,0.0000,0.0000,0.0000,0
911,-0.5348,1.6654,0.0099,0.0035,0.0048,0.0082,-1.34,0.45,2.60,0,3.822,0.169,-0.275,0.178,0.008,-0.029,1.000,0.000,0.000,0.000,0.0090,6,3,0.00,0.00,0.00,0.0000,0.0000,0.0000,0.0000,0.0000,0.0000,0.0000,0.00,0.00,0.00,1.0620,0.5630,1.4120,1.0830,2.7060,0,0.0000,0.0000,0.0000,0.0000,0.0000,0
1013,-0.5352,1.6645,0.0098,0.0020,-0.0002,0.0056,-1.33,0.47,2.59,0,3.816,0.127,0.106,0.041,0.008,-0.026,1.000,0.000,0.000,0.000,0.0100,-1,3,0.00,0.00,0.00,0.0000,0.0000,0.0000,0.0000,0.0000,0.0000,0.0000,0.00,0.00,0.00,1.0620,0.5630,1.4120,1.0850,2.7060,0,0.0000,0.0000,0.0000,0.0000,0.0000,0
1114,-0.5351,1.6630,0.0101,0.0023,-0.0082,0.0059,-1.34,0.46,2.58,0,3.827,-0.006,-0.104,0.344,0.009,-0.027,1.000,0.000,0.000,0.000,0.0080,1,-4,0.00,0.00,0.00,0.0000,0.0000,0.0000,0.0000,0.0000,0.0000,0.0000,0.00,0.00,0.00,1.0580,0.5650,1.4060,1.0850,2.6930,0,0.0000,0.0000,0.0000,0.0000,0.0000,0
1215,-0.5359,1.6643,0.0094,-0.0012,-0.0012,0.0016,-1.38,0.42,2.57,0,3.816,-0.162,-0.261,-0.281,0.010,-0.026,1.000,0.000,0.000,0.000,0.0120,-1,0,0.00,0.00,0.00,0.0000,0.0000,0.0000,0.0000,0.0000,0.0000,0.0000,0.00,0.00,0.00,1.0580,0.5650,1.4060,1.0840,2.6930,0,0.0000,0.0000,0.0000,0.0000,0.0000,0
1316,-0.5347,1.6636,0.0106,0.0057,-0.0042,0.0079,-1.38,0.42,2.56,0,3.827,0.006,0.041,0.294,0.007,-0.025,1.001,0.000,0.000,0.000,0.0100,3,-1,0.00,0.00,0.00,0.0000,0.0000,0.0000,0.0000,0.0000,0.0000,0.0000,0.00,0.00,0.00,1.0610,0.5630,1.4230,1.0840,2.7020,0,0.0000,0.0000,0.0000,0.0000,0.0000,0
1417,-0.5352,1.6643,0.0106,0.0023,0.0001,0.0059,-1.36,0.43,2.55,0,3.822,-0.158,-0.209,-0.059,0.011,-0.028,0.999,0.000,0.000,0.000,0.0100,1,-3,0.00,0.00,0.00,0.0000,0.0000,0.0000,0.0000,0.0000,0.0000,0.0000,0.00,0.00,0.00,1.0610,0.5630,1.4230,1.0810,2.7020,0,0.0000,0.0000,0.0000,0.0000,0.0000,0
1518,-0.5357,1.6641,0.0105,0.0003,-0.0014,0.0043,-1.37,0.44,2.54,0,3.827,0.083,-0.016,-0.209,0.009,-0.024,1.001,0.000,0.000,0.000,0.0110,0,1,0.00,0.00,0.00,0.0000,0.0000,0.0000,0.0000,0.0000,0.0000,0.0000,0.00,0.00,0.00,1.0600,0.5710,1.4060,1.0810,2.6950,0,0.0000,0.0000,0.0000,0.0000,0.0000,0
1569,-0.5345,1.6639,0.0109,0.0062,-0.0023,0.0055,-1.37,0.43,2.53,0,3.811,0.038,-0.188,-0.114,0.011,-0.026,1.000,0.000,0.000,0.000,0.0090,-2,-1,0.00,0.00,0.00,0.0000,0.0000,0.0000,0.0000,0.0000,0.0000,0.0000,0.00,0.00,0.00,1.0600,0.5710,1.4060,1.0830,2.6950,0,0.0000,0.0000,0.0000,0.0000,0.0000,0
1620,-0.5354,1.6633,0.0102,0.0009,-0.0049,0.0002,-1.37,0.46,2.52,0,3.827,0.128,0.112,-0.253,0.007,-0.025,1.000,0.000,0.000,0.000,0.0100,-2,4,0.00,0.00,0.00,0.0000,0.0000,0.0000,0.0000,0.0000,0.0000,0.0000,0.00,0.00,0.00,1.0560,0.5660,1.4200,1.0830,2.7030,0,0.0000,0.0000,0.0000,0.0000,0.0000,0
1671,-0.5359,1.6631,0.0102,-0.0019,-0.0060,-0.0001,-1.36,0.52,2.51,0,3.816,0.119,-0.062,-0.157,0.010,-0.027,0.999,0.000,0.000,0.000,0.0100,-4,0,0.00,0.00,0.00,0.0000,0.0000,0.0000,0.0000,0.0000,0.0000,0.0000,0.00,0.00,0.00,1.0560,0.5660,1.4200,1.0800,2.7030,0,0.0000,0.0000,0.0000,0.0000,0.0000,0
1722,-0.5350,1.6631,0.0101,0.0034,-0.0054,0.0000,-1.38,0.44,2.49,0,3.827,-0.080,-0.103,-0.206,0.007,-0.025,1.003,0.000,0.000,0.000,0.0090,0,2,0.00,0.00,0.00,0.0000,0.0000,0.0000,0.0000,0.0000,0.0000,0.0000,0.00,0.00,0.00,1.0600,0.5640,1.4130,1.0800,2.6990,0,0.0000,0.0000,0.0000,0.0000,0.0000,0
1773,-0.5349,1.6638,0.0097,0.0036,-0.0022,-0.0023,-1.36,0.47,2.49,0,3.816,0.326,0.057,-0.172,0.010,-0.024,0.999,0.000,0.000,0.000,0.0120,-9,-4,0.00,0.00,0.00,0.0000,0.0000,0.0000,0.0000,0.0000,0.0000,0.0000,0.00,0.00,0.00,1.0600,0.5640,1.4130,1.0800,2.6990,0,0.0000,0.0000,0.0000,0.0000,0.0000,0
1824,-0.5358,1.6616,0.0107,-0.0015,-0.0138,0.0040,-1.37,0.44,2.48,0,3.822,-0.013,-0.109,0.045,0.008,-0.026,1.002,0.000,0.000,0.000,0.0070,-2,-3,0.00,0.00,0.00,0.0000,0.0000,0.0000,0.0000,0.0000,0.0000,0.0000,0.00,0.00,0.00,1.0570,0.5770,1.4190,1.0800,2.7010,0,0.0000,0.0000,0.0000,0.0000,0.0000,0
1875,-0.5356,1.6630,0.0093,-0.0002,-0.0056,-0.0037,-1.36,0.44,2.47,0,3.816,-0.134,-0.104,-0.287,0.010,-0.027,0.999,0.000,0.000,0.000,0.0100,-7,9,0.00,0.00,0.00,0.0000,0.0000,0.0000,0.0000,0.0000,0.0000,0.0000,0.00,0.00,0.00,1.0570,0.5770,1.4190,1.0800,2.7010,0,0.0000,0.0000,0.0000,0.0000,0.0000,0
1926,-0.5347,1.6636,0.0096,0.0042,-0.0025,-0.0007,-1.43,0.52,2.46,0,3.827,-0.003,-0.059,-0.054,0.010,-0.027,0.998,0.000,0.000,0.000,0.0110,5,-3,0.00,0.00,0.00,0.0000,0.0000,0.0000,0.0000,0.0000,0.0000,0.0000,0.00,0.00,0.00,1.0630,0.5760,1.4190,1.0800,2.6940,0,0.0000,0.0000,0.0000,0.0000,0.0000,0
1977,-0.5369,1.6647,0.0102,-0.0061,0.0025,0.0023,-1.36,0.49,2.44,0,3.816,-0.139,-0.023,0.545,0.007,-0.028,1.000,0.000,0.000,0.000,0.0090,2,9,0.00,0.00,0.00,0.0000,0.0000,0.0000,0.0000,0.0000,0.0000,0.0000,0.00,0.00,0.00,1.0630,0.5760,1.4190,1.0800,2.6940,0,0.0000,0.0000,0.0000,0.0000,0.0000,0
2028,-0.5348,1.6647,0.0098,0.0042,0.0027,-0.0004,-1.39,0.52,2.44,0,3.827,-0.108,0.157,0.368,0.008,-0.025,1.000,0.000,0.000,0.000,0.0090,0,3,0.00,0.00,0.00,0.0000,0.0000,0.0000,0.0000,0.0000,0.0000,0.0000,0.00,0.00,0.00,1.0600,0.5590,1.4120,1.0800,2.7010,0,0.0000,0.0000,0.0000,0.0000,0.0000,0
2079,-0.5348,1.6630,0.0095,0.0049,-0.0067,-0.0012,-1.34,0.46,2.43,0,3.816,-0.010,0.096,0.051,0.008,-0.024,0.999,0.000,0.000,0.000,0.0120,6,0,0.00,0.00,0.00,0.0000,0.0000,0.0000,0.0000,0.0000,0.0000,0.0000,0.00,0.00,0.00,1.0600,0.5590,1.4120,1.0820,2.7010,0,0.0000,0.0000,0.0000,0.0000,0.0000,0
2130,-0.5355,1.6645,0.0105,0.0004,0.0017,0.0047,-1.34,0.46,2.42,0,3.822,-0.204,-0.118,0.098,0.009,-0.027,1.003,0.000,0.000,0.000,0.0110,-3,-3,0.00,0.00,0.00,0.0000,0.0000,0.0000,0.0000,0.0000,0.0000,0.0000,0.00,0.00,0.00,1.0600,0.5700,1.4120,1.0820,2.7020,0,0.0000,0.0000,0.0000,0.0000,0.0000,0
2181,-0.5357,1.6632,0.0109,-0.0003,-0.0050,0.0057,-1.37,0.44,2.41,0,3.816,0.172,-0.017,0.205,0.010,-0.025,1.000,0.000,0.000,0.000,0.0100,3,1,0.00,0.00,0.00,0.0000,0.0000,0.0000,0.0000,0.0000,0.0000,0.0000,0.00,0.00,0.00,1.0600,0.5700,1.4120,1.0820,2.7020,0,0.0000,0.0000,0.0000,0.0000,0.0000,0
2232,-0.5348,1.6647,0.0107,0.0040,0.0036,0.0034,-1.37,0.45,2.40,0,3.827,0.351,-0.251,-0.270,0.007,-0.024,1.001,0.000,0.000,0.000,0.0080,-1,-3,0.00,0.00,0.00,0.0000,0.0000,0.0000,0.0000,0.0000,0.0000,0.0000,0.00,0.00,0.00,1.0590,0.5690,1.4200,1.0820,2.6970,0,0.0000,0.0000,0.0000,0.0000,0.0000,0
2284,-0.5357,1.6638,0.0097,-0.0008,-0.0016,-0.0021,-1.37,0.45,2.39,0,3.816,-0.068,0.151,0.152,0.008,-0.023,1.004,0.000,0.000,0.000,0.0100,-5,-1,0.00,0.00,0.00,0.0000,0.0000,0.0000,0.0000,0.0000,0.0000,0.0000,0.00,0.00,0.00,1.0590,0.5690,1.4200,1.0820,2.6970,0,0.0000,0.0000,0.0000,0.0000,0.0000,0
2335,-0.5352,1.6629,0.0098,0.0017,-0.0057,-0.0006,-1.37,0.46,2.38,0,3.822,-0.131,-0.061,0.200,0.009,-0.026,1.001,0.000,0.000,0.000,0.0090,-1,0,0.00,0.00,0.00,0.0000,0.0000,0.0000,0.0000,0.0000,0.0000,0.0000,0.00,0.00,0.00,1.0580,0.5640,1.4170,1.0820,2.6970,0,0.0000,0.0000,0.0000,0.0000,0.0000,0
2386,-0.5350,1.6638,0.0095,0.0027,-0.0012,-0.0018,-1.37,0.46,2.37,0,3.822,0.003,0.244,-0.053,0.007,-0.026,0.998,0.000,0.000,0.000,0.0110,-2,0,0.00,0.00,0.00,0.0000,0.0000,0.0000,0.0000,0.0000,0.0000,0.0000,0.00,0.00,0.00,1.0580,0.5640,1.4170,1.0810,2.6970,0,0.0000,0.0000,0.0000,0.0000,0.0000,0
2437,-0.5350,1.6629,0.0101,0.0027,-0.0057,0.0017,-1.35,0.46,2.36,0,3.827,0.034,0.083,0.090,0.007,-0.024,0.999,0.000,0.000,0.000,0.0100,3,-2,0.00,0.00,0.00,0.0000,0.0000,0.0000,0.0000,0.0000,0.0000,0.0000,0.00,0.00,0.00,1.0530,0.5570,1.4150,1.0810,2.6950,0,0.0000,0.0000,0.0000,0.0000,0.0000,0
2488,-0.5355,1.6638,0.0101,-0.0003,-0.0009,0.0014,-1.34,0.45,2.36,0,3.816,0.021,0.329,0.228,0.008,-0.025,1.002,0.000,0.000,0.000,0.0100,20,-8,0.00,0.00,0.00,0.0000,0.0000,0.0000,0.0000,0.0000,0.0000,0.0000,0.00,0.00,0.00,1.0530,0.5570,1.4150,1.0840,2.6950,0,0.0000,0.0000,0.0000,0.0000,0.0000,0
2539,-0.5355,1.6595,0.0101,-0.0004,-0.0242,0.0014,-1.01,0.40,2.34,0,3.827,0.073,0.037,0.326,0.007,-0.025,1.001,0.000,0.000,0.000,0.0120,6,2,0.00,0.00,0.00,0.0000,0.0000,0.0000,0.0000,0.0000,0.0000,0.0000,0.00,0.00,0.00,1.0580,0.5600,1.4080,1.0840,2.7040,0,0.0000,0.0000,0.0000,0.0000,0.0000,0
2590,-0.5329,1.6563,0.0110,0.0119,-0.0343,0.0056,-1.08,0.40,2.33,0,3.816,-0.477,-0.019,0.320,0.009,-0.025,0.999,0.000,0.000,0.000,0.0090,-8,4,0.00,0.00,0.00,0.0000,0.0000,0.0000,0.0000,0.0000,0.0000,0.0000,0.00,0.00,0.00,1.0580,0.5600,1.4080,1.0850,2.7040,0,0.0000,0.0000,0.0000,0.0000,0.0000,0
2641,-0.5323,1.6541,0.0104,0.0136,-0.0394,0.0011,-1.19,0.41,2.33,0,3.822,-0.076,0.115,0.225,0.007,-0.028,1.000,0.000,0.000,0.000,0.0090,3,0,0.00,0.00,0.00,0.0000,0.0000,0.0000,0.0000,0.0000,0.0000,0.0000,0.00,0.00,0.00,1.0600,0.5670,1.4100,1.0850,2.6980,0,0.0000,0.0000,0.0000,0.0000,0.0000,0
2693,-0.5320,1.6562,0.0100,0.0137,-0.0211,-0.0006,-1.24,0.37,2.32,0,3.816,0.134,-0.049,-0.244,0.009,-0.024,0.999,0.000,0.000,0.000,0.0110,1,-3,0.00,0.00,0.00,0.0000,0.0000,0.0000,0.0000,0.0000,0.0000,0.0000,0.00,0.00,0.00,1.0600,0.5670,1.4100,1.0850,2.6980,0,0.0000,0.0000,0.0000,0.0000,0.0000,0
2744,-0.5308,1.6562,0.0105,0.0178,-0.0161,0.0023,-1.29,0.32,2.30,0,3.822,0.028,0.310,0.052,0.009,-0.022,1.001,0.000,0.000,0.000,0.0120,-9,1,0.00,0.00,0.00,0.0000,0.0000,0.0000,0.0000,0.0000,0.0000,0.0000,0.00,0.00,0.00,1.0610,0.5680,1.4180,1.0850,2.7050,0,0.0000,0.0000,0.0000,0.0000,0.0000,0
2795,-0.5315,1.6550,0.0112,0.0107,-0.0190,0.0053,-1.36,0.41,2.29,0,3.816,0.122,-0.145,-0.271,0.008,-0.026,0.999,0.000,0.000,0.000,0.0090,-10,7,0.00,0.00,0.00,0.0000,0.0000,0.0000,0.0000,0.0000,0.0000,0.0000,0.00,0.00,0.00,1.0610,0.5680,1.4180,1.0820,2.7050,0,0.0000,0.0000,0.0000,0.0000,0.0000,0
2846,-0.5319,1.6611,0.0104,0.0066,0.0180,-0.0001,-1.66,0.49,2.28,0,3.827,-0.226,-0.111,-0.124,0.009,-0.026,1.001,0.000,0.000,0.000,0.0100,2,0,0.00,0.00,0.00,0.0000,0.0000,0.0000,0.0000,0.0000,0.0000,0.0000,0.00,0.00,0.00,1.0550,0.5600,1.4170,1.0820,2.7010,0,0.0000,0.0000,0.0000,0.0000,0.0000,0
2897,-0.5335,1.6647,0.0102,-0.0023,0.0324,-0.0008,-1.65,0.49,2.27,0,3.816,-0.202,-0.013,0.059,0.010,-0.026,1.000,0.000,0.000,0.000,0.0080,0,0,0.00,0.00,0.00,0.0000,0.0000,0.0000,0.0000,0.0000,0.0000,0.0000,0.00,0.00,0.00,1.0550,0.5600,1.4170,1.0810,2.7010,0,0.0000,0.0000,0.0000,0.0000,0.0000,0
2949,-0.5344,1.6635,0.0093,-0.0071,0.0203,-0.0051,-1.57,0.53,2.26,0,3.822,-0.103,-0.007,0.118,0.008,-0.027,0.998,0.000,0.000,0.000,0.0100,14,8,0.00,0.00,0.00,0.0000,0.0000,0.0000,0.0000,0.0000,0.0000,0.0000,0.00,0.00,0.00,1.0580,0.5680,1.4240,1.0810,2.6930,0,0.0000,0.0000,0.0000,0.0000,0.0000,0
3000,-0.5323,1.6657,0.0094,0.0055,0.0284,-0.0036,-1.47,0.50,2.25,0,3.816,-0.109,-0.025,-0.138,0.008,-0.025,1.000,0.000,0.000,0.000,0.0090,0,-2,0.00,0.00,0.00,0.0000,0.0000,0.0000,0.0000,0.0000,0.0000,0.0000,0.00,0.00,0.00,1.0580,0.5680,1.4240,1.0780,2.6930,0,0.0000,0.0000,0.0000,0.0000,0.0000,0
3051,-0.5338,1.6628,0.0093,-0.0022,0.0087,-0.0036,-1.44,0.48,2.24,0,3.822,0.099,-0.029,-0.032,0.010,-0.028,1.001,0.000,0.000,0.000,0.0070,-5,3,0.00,0.00,0.00,0.0000,0.0000,0.0000,0.0000,0.0000,0.0000,0.0000,0.00,0.00,0.00,1.0600,0.5620,1.4160,1.0780,2.6960,0,0.0000,0.0000,0.0000,0.0000,0.0000,0
3103,-0.5324,1.6603,0.0083,0.0062,-0.0096,-0.0080,-1.35,0.47,2.23,0,3.816,-0.095,-0.115,-0.075,0.010,-0.026,1.001,0.000,0.000,0.000,0.0090,2,0,0.00,0.00,0.00,0.0000,0.0000,0.0000,0.0000,0.0000,0.0000,0.0000,0.00,0.00,0.00,1.0600,0.5620,1.4160,1.0800,2.6960,0,0.0000,0.0000,0.0000,0.0000,0.0000,0
3154,-0.5331,1.6613,0.0084,0.0023,-0.0032,-0.0050,-1.33,0.48,2.22,0,3.827,-0.120,0.006,-0.089,0.006,-0.028,0.999,0.000,0.000,0.000,0.0100,-3,2,0.00,0.00,0.00,0.0000,0.0000,0.0000,0.0000,0.0000,0.0000,0.0000,0.00,0.00,0.00,1.0570,0.5780,1.4140,1.0800,2.7050,0,0.0000,0.0000,0.0000,0.0000,0.0000,0
3205,-0.5324,1.6607,0.0089,0.0051,-0.0071,-0.0012,-1.32,0.48,2.20,0,3.816,0.056,-0.045,-0.123,0.008,-0.025,0.999,0.000,0.000,0.000,0.0090,0,4,0.00,0.00,0.00,0.0000,0.0000,0.0000,0.0000,0.0000,0.0000,0.0000,0.00,0.00,0.00,1.0570,0.5780,1.4140,1.0860,2.7050,0,0.0000,0.0000,0.0000,0.0000,0.0000,0
3256,-0.5322,1.6612,0.0089,0.0053,-0.0035,-0.0009,-1.35,0.48,2.20,0,3.822,0.084,0.009,0.263,0.007,-0.022,1.001,0.000,0.000,0.000,0.0080,-2,0,0.00,0.00,0.00,0.0000,0.0000,0.0000,0.0000,0.0000,0.0000,0.0000,0.00,0.00,0.00,1.0600,0.5660,1.4130,1.0860,2.6950,0,0.0000,0.0000,0.0000,0.0000,0.0000,0
3308,-0.5330,1.6602,0.0085,0.0002,-0.0082,-0.0022,-1.33,0.47,2.19,0,3.822,0.182,-0.044,-0.199,0.008,-0.025,0.999,0.000,0.000,0.000,0.0090,-5,5,0.00,0.00,0.00,0.0000,0.0000,0.0000,0.0000,0.0000,0.0000,0.0000,0.00,0.00,0.00,1.0600,0.5660,1.4130,1.0800,2.6950,0,0.0000,0.0000,0.0000,0.0000,0.0000,0
3359,-0.5332,1.6638,0.0087,-0.0010,0.0104,-0.0008,-1.50,0.52,2.18,0,3.816,0.039,-0.005,0.319,0.011,-0.026,1.002,0.000,0.000,0.000,0.0090,-8,4,0.00,0.00,0.00,0.0000,0.0000,0.0000,0.0000,0.0000,0.0000,0.0000,0.00,0.00,0.00,1.0580,0.5700,1.4090,1.0800,2.7030,0,0.0000,0.0000,0.0000,0.0000,0.0000,0
3411,-0.5327,1.6640,0.0089,0.0019,0.0089,0.0007,-1.50,0.49,2.17,0,3.816,0.034,-0.310,-0.069,0.008,-0.025,1.001,0.000,0.000,0.000,0.0080,4,4,0.00,0.00,0.00,0.0000,0.0000,0.0000,0.0000,0.0000,0.0000,0.0000,0.00,0.00,0.00,1.0580,0.5700,1.4090,1.0820,2.7030,0,0.0000,0.0000,0.0000,0.0000,0.0000,0
3462,-0.5370,1.6650,0.0086,-0.0178,0.0114,-0.0006,-1.41,0.63,2.16,0,3.822,-0.028,0.156,0.205,0.010,-0.026,1.001,0.000,0.000,0.000,0.0100,-5,3,0.00,0.00,0.00,0.0000,0.0000,0.0000,0.0000,0.0000,0.0000,0.0000,0.00,0.00,0.00,1.0570,0.5720,1.4120,1.0820,2.7000,0,0.0000,0.0000,0.0000,0.0000,0.0000,0
3513,-0.5369,1.6629,0.0092,-0.0127,-0.0024,0.0034,-1.38,0.58,2.16,0,3.816,0.002,0.116,0.144,0.009,-0.024,1.003,0.000,0.000,0.000,0.0110,0,4,0.00,0.00,0.00,0.0000,0.0000,0.0000,0.0000,0.0000,0.0000,0.0000,0.00,0.00,0.00,1.0570,0.5720,1.4120,1.0810,2.7000,0,0.0000,0.0000,0.0000,0.0000,0.0000,0
3563,-0.5367,1.6631,0.0101,-0.0083,-0.0023,0.0076,-1.33,0.54,2.15,0,3.822,-0.061,-0.027,-0.078,0.008,-0.026,1.000,0.000,0.000,0.000,0.0110,-8,3,0.00,0.00,0.00,0.0000,0.0000,0.0000,0.0000,0.0000,0.0000,0.0000,0.00,0.00,0.00,1.0550,0.5630,1.4120,1.0810,2.7000,0,0.0000,0.0000,0.0000,0.0000,0.0000,0
3615,-0.5377,1.6631,0.0108,-0.0114,-0.0031,0.0096,-1.40,0.55,2.14,0,3.816,-0.278,-0.197,0.225,0.010,-0.026,0.998,0.000,0.000,0.000,0.0080,5,0,0.00,0.00,0.00,0.0000,0.0000,0.0000,0.0000,0.0000,0.0000,0.0000,0.00,0.00,0.00,1.0550,0.5630,1.4120,1.0830,2.7000,0,0.0000,0.0000,0.0000,0.0000,0.0000,0
3666,-0.5372,1.6648,0.0099,-0.0054,0.0046,0.0029,-1.35,0.47,2.13,0,3.822,-0.121,-0.013,-0.088,0.010,-0.025,1.000,0.000,0.000,0.000,0.0100,1,0,0.00,0.00,0.00,0.0000,0.0000,0.0000,0.0000,0.0000,0.0000,0.0000,0.00,0.00,0.00,1.0600,0.5660,1.4160,1.0830,2.6990,0,0.0000,0.0000,0.0000,0.0000,0.0000,0
3717,-0.5372,1.6644,0.0101,-0.0036,0.0014,0.0031,-1.36,0.46,2.12,0,3.816,-0.210,-0.092,0.173,0.010,-0.025,1.001,0.000,0.000,0.000,0.0110,-7,2,0.00,0.00,0.00,0.0000,0.0000,0.0000,0.0000,0.0000,0.0000,0.0000,0.00,0.00,0.00,1.0600,0.5660,1.4160,1.0850,2.6990,0,0.0000,0.0000,0.0000,0.0000,0.0000,0
3767,-0.5369,1.6634,0.0106,-0.0004,-0.0048,0.0053,-1.38,0.46,2.11,0,3.827,-0.129,-0.109,-0.046,0.008,-0.024,1.002,0.000,0.000,0.000,0.0080,0,8,0.00,0.00,0.00,0.0000,0.0000,0.0000,0.0000,0.0000,0.0000,0.0000,0.00,0.00,0.00,1.0590,0.5680,1.4120,1.0850,2.6970,0,0.0000,0.0000,0.0000,0.0000,0.0000,0
3819,-0.5372,1.6640,0.0097,-0.0007,-0.0016,-0.0003,-1.34,0.51,2.11,0,3.816,-0.096,0.245,-0.017,0.008,-0.024,0.998,0.000,0.000,0.000,0.0100,-4,0,0.00,0.00,0.00,0.0000,0.0000,0.0000,0.0000,0.0000,0.0000,0.0000,0.00,0.00,0.00,1.0590,0.5680,1.4120,1.0810,2.6970,0,0.0000,0.0000,0.0000,0.0000,0.0000,0
3870,0.0000,0.0000,0.0100,0.0085,0.0000,-0.0001,-0.04,-0.01,-0.00,0,3.827,0.002,0.119,-0.113,0.008,-0.026,1.001,0.000,0.000,0.000,0.0090,-2,0,0.00,0.00,0.00,0.0000,0.0000,0.0000,0.0000,0.0000,0.0000,0.0000,0.00,0.00,0.00,1.0590,0.5570,1.4090,1.0810,2.6980,0,0.0000,0.0000,0.0000,0.0000,0.0000,0
3922,0.0003,-0.0003,0.0095,0.0082,-0.0123,-0.0009,-0.03,0.06,-0.01,0,3.816,-0.268,-0.002,-0.112,0.010,-0.029,0.998,0.000,0.000,0.000,0.0070,4,0,0.00,0.00,0.00,0.0000,0.0000,0.0000,0.0000,0.0000,0.0000,0.0000,0.00,0.00,0.00,1.0590,0.5570,1.4090,1.0840,2.6980,0,0.0000,0.0000,0.0000,0.0000,0.0000,0
3973,0.0008,0.0002,0.0086,0.0125,-0.0061,-0.0034,-0.27,0.05,-0.00,0,3.822,-0.187,-0.207,0.219,0.006,-0.024,1.000,0.000,0.000,0.000,0.0100,4,9,0.00,0.00,0.00,0.0000,0.0000,0.0000,0.0000,0.0000,0.0000,0.0000,0.00,0.00,0.00,1.0600,0.5720,1.4160,1.0840,2.6960,0,0.0000,0.0000,0.0000,0.0000,0.0000,0
4024,0.0011,0.0003,0.0091,0.0128,-0.0071,0.0001,-0.50,0.57,0.01,0,3.811,-0.151,-0.124,0.009,0.006,-0.023,1.002,0.000,0.000,0.000,0.0060,1,4,0.00,0.00,0.00,0.0000,0.0000,0.0000,0.0000,0.0000,0.0000,0.0000,0.00,0.00,0.00,1.0600,0.5720,1.4160,1.0810,2.6960,0,0.0000,0.0000,0.0000,0.0000,0.0000,0
4075,0.0014,-0.0004,0.0078,0.0136,-0.0143,-0.0066,-0.73,0.25,0.01,0,3.827,-0.026,-0.189,-0.253,0.007,-0.027,0.999,0.000,0.000,0.000,0.0110,1,1,0.00,0.00,0.00,0.0000,0.0000,0.0000,0.0000,0.0000,0.0000,0.0000,0.00,0.00,0.00,1.0620,0.5630,1.4150,1.0810,2.7070,0,0.0000,0.0000,0.0000,0.0000,0.0000,0
4127,0.0013,-0.0006,0.0091,0.0102,-0.0152,0.0024,-0.79,0.30,0.01,0,3.816,-0.192,0.139,-0.043,0.008,-0.022,1.000,0.000,0.000,0.000,0.0100,-4,2,0.00,0.00,0.00,0.0000,0.0000,0.0000,0.0000,0.0000,0.0000,0.0000,0.00,0.00,0.00,1.0620,0.5630,1.4150,1.0840,2.7070,0,0.0000,0.0000,0.0000,0.0000,0.0000,0
4178,0.0010,-0.0009,0.0096,0.0056,-0.0156,0.0046,-1.08,0.45,0.02,0,3.827,0.038,0.017,-0.065,0.007,-0.024,0.998,0.000,0.000,0.000,0.0110,5,3,0.00,0.00,0.00,0.0000,0.0000,0.0000,0.0000,0.0000,0.0000,0.0000,0.00,0.00,0.00,1.0600,0.5790,1.4150,1.0840,2.7050,0,0.0000,0.0000,0.0000,0.0000,0.0000,0
4230,0.0012,-0.0007,0.0104,0.0068,-0.0129,0.0070,-0.88,0.47,0.02,0,3.816,-0.079,0.114,0.167,0.010,-0.024,1.001,0.000,0.000,0.000,0.0120,4,6,0.00,0.00,0.00,0.0000,0.0000,0.0000,0.0000,0.0000,0.0000,0.0000,0.00,0.00,0.00,1.0600,0.5790,1.4150,1.0820,2.7050,0,0.0000,0.0000,0.0000,0.0000,0.0000,0
4281,0.0015,0.0005,0.0114,0.0078,-0.0026,0.0105,-1.13,0.52,0.02,0,3.822,-0.090,0.259,-0.363,0.009,-0.025,1.000,0.000,0.000,0.000,0.0100,0,-8,0.00,0.00,0.00,0.0000,0.0000,0.0000,0.0000,0.0000,0.0000,0.0000,0.00,0.00,0.00,1.0620,0.5660,1.4050,1.0820,2.7020,0,0.0000,0.0000,0.0000,0.0000,0.0000,0
4332,-0.0008,-0.0004,0.0112,-0.0082,-0.0092,0.0073,-1.19,0.39,0.03,0,3.816,0.235,-0.032,-0.043,0.010,-0.025,1.000,0.000,0.000,0.000,0.0100,-14,1,0.00,0.00,0.00,0.0000,0.0000,0.0000,0.0000,0.0000,0.0000,0.0000,0.00,0.00,0.00,1.0620,0.5660,1.4050,1.0840,2.7020,0,0.0000,0.0000,0.0000,0.0000,0.0000,0
4384,0.0014,-0.0030,0.0109,0.0064,-0.0246,0.0045,-1.31,0.42,0.03,0,3.827,0.218,0.002,-0.223,0.007,-0.027,1.001,0.000,0.000,0.000,0.0080,0,0,0.00,0.00,0.00,0.0000,0.0000,0.0000,0.0000,0.0000,0.0000,0.0000,0.00,0.00,0.00,1.0560,0.5760,1.4090,1.0840,2.6970,0,0.0000,0.0000,0.0000,0.0000,0.0000,0
4435,0.0011,-0.0007,0.0099,0.0038,-0.0091,-0.0024,-1.23,0.43,0.03,0,3.816,-0.143,0.098,0.006,0.010,-0.023,1.000,0.000,0.000,0.000,0.0100,-1,7,0.00,0.00,0.00,0.0000,0.0000,0.0000,0.0000,0.0000,0.0000,0.0000,0.00,0.00,0.00,1.0560,0.5760,1.4090,1.0810,2.6970,0,0.0000,0.0000,0.0000,0.0000,0.0000,0
4486,0.0020,-0.0019,0.0098,0.0080,-0.0153,-0.0017,-1.20,0.52,0.02,0,3.827,0.344,-0.142,-0.067,0.008,-0.024,0.999,0.000,0.000,0.000,0.0090,5,-4,0.00,0.00,0.00,0.0000,0.0000,0.0000,0.0000,0.0000,0.0000,0.0000,0.00,0.00,0.00,1.0610,0.5730,1.4140,1.0810,2.7020,0,0.0000,0.0000,0.0000,0.0000,0.0000,0
4537,-0.0011,0.0014,0.0095,-0.0099,0.0045,-0.0030,-1.32,0.51,0.02,0,3.816,0.249,0.254,0.038,0.009,-0.026,0.999,0.000,0.000,0.000,0.0100,0,0,0.00,0.00,0.00,0.0000,0.0000,0.0000,0.0000,0.0000,0.0000,0.0000,0.00,0.00,0.00,1.0610,0.5730,1.4140,1.0840,2.7020,0,0.0000,0.0000,0.0000,0.0000,0.0000,0
4588,0.0003,0.0009,0.0097,-0.0014,0.0010,-0.0012,-1.36,0.50,0.03,0,3.822,0.157,0.115,0.176,0.008,-0.025,1.001,0.000,0.000,0.000,0.0110,2,2,0.00,0.00,0.00,0.0000,0.0000,0.0000,0.0000,0.0000,0.0000,0.0000,0.00,0.00,0.00,1.0600,0.5670,1.4130,1.0840,2.6960,0,0.0000,0.0000,0.0000,0.0000,0.0000,0
4639,0.0011,-0.0007,0.0102,0.0025,-0.0079,0.0023,-1.25,0.48,0.03,0,3.816,-0.268,-0.020,0.042,0.011,-0.023,0.996,0.000,0.000,0.000,0.0070,4,-4,0.00,0.00,0.00,0.0000,0.0000,0.0000,0.0000,0.0000,0.0000,0.0000,0.00,0.00,0.00,1.0600,0.5670,1.4130,1.0820,2.6960,0,0.0000,0.0000,0.0000,0.0000,0.0000,0
4691,-0.0002,0.0009,0.0089,-0.0039,0.0009,-0.0049,-1.32,0.47,0.03,0,3.822,0.008,-0.154,-0.084,0.009,-0.026,0.999,0.000,0.000,0.000,0.0100,0,0,0.00,0.00,0.00,0.0000,0.0000,0.0000,0.0000,0.0000,0.0000,0.0000,0.00,0.00,0.00,1.0600,0.5630,1.4180,1.0820,2.7030,0,0.0000,0.0000,0.0000,0.0000,0.0000,0
4742,0.0006,-0.0004,0.0093,0.0005,-0.0056,-0.0020,-1.31,0.48,0.03,0,3.816,0.086,-0.054,-0.211,0.009,-0.024,1.000,0.000,0.000,0.000,0.0100,-2,-9,0.00,0.00,0.00,0.0000,0.0000,0.0000,0.0000,0.0000,0.0000,0.0000,0.00,0.00,0.00,1.0600,0.5630,1.4180,1.0820,2.7030,0,0.0000,0.0000,0.0000,0.0000,0.0000,0
4794,-0.0010,-0.0009,0.0096,-0.0076,-0.0075,0.0006,-1.32,0.45,0.03,0,3.822,-0.255,0.103,0.222,0.006,-0.025,1.001,0.000,0.000,0.000,0.0080,4,2,0.00,0.00,0.00,0.0000,0.0000,0.0000,0.0000,0.0000,0.0000,0.0000,0.00,0.00,0.00,1.0580,0.5700,1.4050,1.0820,2.7030,0,0.0000,0.0000,0.0000,0.0000,0.0000,0
4845,0.0011,-0.0003,0.0089,0.0025,-0.0045,-0.0021,-1.28,0.49,0.03,0,3.816,-0.114,0.016,0.150,0.009,-0.027,1.000,0.000,0.000,0.000,0.0080,-8,2,0.00,0.00,0.00,0.0000,0.0000,0.0000,0.0000,0.0000,0.0000,0.0000,0.00,0.00,0.00,1.0580,0.5700,1.4050,1.0830,2.7030,0,0.0000,0.0000,0.0000,0.0000,0.0000,0
4896,0.0008,-0.0013,0.0085,0.0013,-0.0089,-0.0037,-1.38,0.50,0.03,0,3.822,0.137,0.084,-0.146,0.007,-0.024,1.000,0.000,0.000,0.000,0.0100,-3,0,0.00,0.00,0.00,0.0000,0.0000,0.0000,0.0000,0.0000,0.0000,0.0000,0.00,0.00,0.00,1.0590,0.5670,1.4150,1.0830,2.7020,0,0.0000,0.0000,0.0000,0.0000,0.0000,0
4947,0.0010,-0.0014,0.0091,0.0021,-0.0094,0.0004,-1.32,0.46,0.03,0,3.816,-0.051,-0.185,0.083,0.009,-0.024,0.999,0.000,0.000,0.000,0.0090,-6,0,0.00,0.00,0.00,0.0000,0.0000,0.0000,0.0000,0.0000,0.0000,0.0000,0.00,0.00,0.00,1.0590,0.5670,1.4150,1.0820,2.7020,0,0.0000,0.0000,0.0000,0.0000,0.0000,0
4998,0.0037,-0.0002,0.0091,0.0152,-0.0024,0.0001,-1.41,0.35,0.03,0,3.827,-0.334,0.002,0.060,0.009,-0.027,0.999,0.000,0.000,0.000,0.0110,0,9,0.00,0.00,0.00,0.0000,0.0000,0.0000,0.0000,0.0000,0.0000,0.0000,0.00,0.00,0.00,1.0560,0.5750,1.4210,1.0820,2.7000,0,0.0000,0.0000,0.0000,0.0000,0.0000,0
5049,0.0036,-0.0011,0.0100,0.0129,-0.0078,0.0047,-1.30,0.47,0.03,0,3.816,0.023,0.218,0.364,0.008,-0.024,1.000,0.000,0.000,0.000,0.0080,14,1,0.00,0.00,0.00,0.0000,0.0000,0.0000,0.0000,0.0000,0.0000,0.0000,0.00,0.00,0.00,1.0560,0.5750,1.4210,1.0820,2.7000,0,0.0000,0.0000,0.0000,0.0000,0.0000,0
5100,0.0026,0.0023,0.0094,0.0065,0.0100,0.0011,-1.31,0.44,0.03,0,3.421,-0.167,-0.011,-0.377,0.007,-0.030,0.995,0.000,0.000,0.000,0.0060,13,-5,0.00,0.00,0.00,0.0000,0.0000,0.0000,0.0000,0.0000,0.0000,0.0000,0.00,0.00,0.00,1.0610,0.5590,1.4050,1.0820,2.6960,0,0.0000,0.0000,0.0000,0.0000,0.0000,0
5151,0.0012,0.0021,0.0080,-0.0021,0.0108,-0.0055,-1.32,0.44,0.04,0,3.494,0.495,0.289,-0.275,0.005,-0.033,0.998,0.000,0.000,0.000,0.0070,0,1,0.00,0.00,0.00,0.0000,0.0000,0.0000,0.0000,0.0000,0.0000,0.0000,0.00,0.00,0.00,1.0610,0.5590,1.4050,1.0800,2.6960,0,0.0000,0.0000,0.0000,0.0000,0.0000,0
5203,0.0026,0.0023,0.0075,0.0004,0.0203,-0.0071,-1.43,0.44,0.04,0,3.552,0.066,-0.392,-3.394,0.016,-0.017,1.006,0.000,0.000,0.000,0.0090,24,3,0.00,0.00,0.00,0.0000,0.0000,0.0000,0.0000,0.0000,0.0000,0.0000,0.00,0.00,0.00,1.0560,0.5600,1.4010,1.0800,2.7010,0,0.0000,0.0000,0.0000,0.0000,0.0000,0
5255,0.0029,0.0019,0.0081,-0.0017,0.0235,0.0009,-1.14,0.45,-0.04,0,3.574,-0.250,0.030,1.890,-0.021,0.006,1.000,0.000,0.000,0.000,0.0100,-24,3,0.00,0.00,0.00,0.0000,0.0000,0.0000,0.0000,0.0000,0.0000,0.0000,0.00,0.00,0.00,1.0560,0.5600,1.4010,1.0800,2.7010,0,0.0000,0.0000,0.0000,0.0000,0.0000,0
5306,0.0031,0.0095,0.0087,-0.0026,0.0709,0.0041,-1.89,0.43,0.02,0,3.584,0.931,0.326,-11.370,-0.016,-0.028,0.999,0.000,0.000,0.000,0.0110,-4,0,0.00,0.00,0.00,0.0000,0.0000,0.0000,0.0000,0.0000,0.0000,0.0000,0.00,0.00,0.00,1.0560,0.5490,1.4200,1.0800,2.6990,0,0.0000,0.0000,0.0000,0.0000,0.0000,0
5358,0.0027,0.0158,0.0098,-0.0065,0.0947,0.0072,-1.74,0.41,-0.39,0,3.589,-0.460,-1.407,-6.776,0.007,-0.000,0.985,0.000,0.000,0.000,0.0110,0,0,0.00,0.00,0.00,0.0000,0.0000,0.0000,0.0000,0.0000,0.0000,0.0000,0.00,0.00,0.00,1.0560,0.5490,1.4200,1.0830,2.6990,0,0.0000,0.0000,0.0000,0.0000,0.0000,0
5409,0.0030,0.0159,0.0110,-0.0063,0.0844,0.0123,-1.54,0.41,-0.82,0,3.589,0.297,1.010,-6.100,-0.004,-0.029,1.014,0.000,0.000,0.000,0.0110,-4,1,0.00,0.00,0.00,0.0000,0.0000,0.0000,0.0000,0.0000,0.0000,0.0000,0.00,0.00,0.00,1.0600,0.5260,1.3710,1.0830,2.7020,0,0.0000,0.0000,0.0000,0.0000,0.0000,0
5460,0.0021,0.0166,0.0118,-0.0122,0.0764,0.0132,-1.34,0.43,-1.14,0,3.589,-1.133,-3.054,-1.302,0.004,-0.040,0.979,0.000,0.000,0.000,0.0080,-9,10,0.00,0.00,0.00,0.0000,0.0000,0.0000,0.0000,0.0000,0.0000,0.0000,0.00,0.00,0.00,1.0600,0.5260,1.3710,1.0810,2.7020,0,0.0000,0.0000,0.0000,0.0000,0.0000,0
5511,0.0035,0.0152,0.0109,-0.0042,0.0598,0.0085,-1.17,0.44,-1.21,0,3.584,1.229,-1.108,-1.697,0.007,-0.041,1.006,0.000,0.000,0.000,0.0090,0,4,0.00,0.00,0.00,0.0000,0.0000,0.0000,0.0000,0.0000,0.0000,0.0000,0.00,0.00,0.00,1.0600,0.2500,1.3710,1.0810,2.6940,0,0.0000,0.0000,0.0000,0.0000,0.0000,0
5562,0.0032,0.0217,0.0102,-0.0061,0.0856,0.0002,-1.20,0.36,-1.29,0,3.579,2.792,1.194,3.868,-0.002,-0.026,0.982,0.000,0.000,0.000,0.0100,2,-6,0.00,0.00,0.00,0.0000,0.0000,0.0000,0.0000,0.0000,0.0000,0.0000,0.00,0.00,0.00,1.0600,0.2500,1.3710,1.0790,2.6940,0,0.0000,0.0000,0.0000,0.0000,0.0000,0
5614,0.0014,0.0226,0.0104,-0.0154,0.0792,-0.0018,-1.01,0.31,-1.22,0,3.579,-0.851,-1.082,6.455,0.009,-0.019,0.979,0.000,0.000,0.000,0.0090,-5,-5,0.00,0.00,0.00,0.0000,0.0000,0.0000,0.0000,0.0000,0.0000,0.0000,0.00,0.00,0.00,1.0580,0.4680,1.3730,1.0790,2.6990,0,0.0000,0.0000,0.0000,0.0000,0.0000,0
5666,0.0019,0.0171,0.0103,-0.0118,0.0370,-0.0005,-0.69,0.25,-1.05,0,3.574,-0.833,1.279,2.720,0.002,-0.013,1.012,0.000,0.000,0.000,0.0080,0,0,0.00,0.00,0.00,0.0000,0.0000,0.0000,0.0000,0.0000,0.0000,0.0000,0.00,0.00,0.00,1.0580,0.4680,1.3730,1.0820,2.6990,0,0.0000,0.0000,0.0000,0.0000,0.0000,0
5717,0.0027,0.0190,0.0093,-0.0073,0.0422,-0.0077,-0.62,0.25,-0.92,0,3.568,0.379,2.667,3.591,-0.005,-0.008,0.992,0.000,0.000,0.000,0.0110,0,0,0.00,0.00,0.00,0.0000,0.0000,0.0000,0.0000,0.0000,0.0000,0.0000,0.00,0.00,0.00,1.0600,0.2500,1.3810,1.0820,2.7040,0,0.0000,0.0000,0.0000,0.0000,0.0000,0
5768,0.0023,0.0213,0.0098,-0.0094,0.0478,-0.0046,-0.62,0.26,-0.73,0,3.563,-4.737,5.400,-0.695,-0.005,-0.016,0.980,0.000,0.000,0.000,0.0110,0,0,0.00,0.00,0.00,0.0000,0.0000,0.0000,0.0000,0.0000,0.0000,0.0000,0.00,0.00,0.00,1.0600,0.2500,1.3810,1.0820,2.7040,0,0.0000,0.0000,0.0000,0.0000,0.0000,0
5820,0.0017,0.0239,0.0102,-0.0117,0.0532,0.0015,-0.62,0.28,-0.68,0,3.558,7.192,-9.900,1.134,0.013,-0.031,0.969,0.000,0.000,0.000,0.0090,-23,5,0.00,0.00,0.00,0.0000,0.0000,0.0000,0.0000,0.0000,0.0000,0.0000,0.00,0.00,0.00,1.0600,0.3880,1.3860,1.0820,2.7060,0,0.0000,0.0000,0.0000,0.0000,0.0000,0
5871,0.0021,0.0203,0.0100,-0.0097,0.0292,0.0012,-0.61,0.47,-0.62,0,3.552,13.711,3.206,5.427,0.000,-0.035,1.014,0.000,0.000,0.000,0.0090,0,0,0.00,0.00,0.00,0.0000,0.0000,0.0000,0.0000,0.0000,0.0000,0.0000,0.00,0.00,0.00,1.0600,0.3880,1.3860,1.0910,2.7060,0,0.0000,0.0000,0.0000,0.0000,0.0000,0
5922,-0.0013,0.0371,0.0095,-0.0246,0.0927,0.0054,-0.21,0.58,-0.38,0,3.547,27.709,1.621,2.554,0.013,-0.012,1.022,0.000,0.000,0.000,0.0090,7,-1,0.00,0.00,0.00,0.0000,0.0000,0.0000,0.0000,0.0000,0.0000,0.0000,0.00,0.00,0.00,1.0600,0.4740,1.4010,1.0910,2.6990,0,0.0000,0.0000,0.0000,0.0000,0.0000,0
5973,-0.0007,0.0345,0.0099,-0.0216,0.0648,0.0131,1.16,0.49,-0.24,0,3.542,31.646,-8.959,-6.000,0.018,-0.011,1.034,0.000,0.000,0.000,0.0090,-14,-3,0.00,0.00,0.00,0.0000,0.0000,0.0000,0.0000,0.0000,0.0000,0.0000,0.00,0.00,0.00,1.0600,0.4740,1.4010,1.0850,2.6990,0,0.0000,0.0000,0.0000,0.0000,0.0000,0
6024,-0.0070,0.0456,0.0100,-0.0473,0.0920,0.0185,2.10,1.00,-0.45,0,3.542,-1.281,6.251,-0.762,0.006,0.001,1.000,0.000,0.000,0.000,0.0110,0,2,0.00,0.00,0.00,0.0000,0.0000,0.0000,0.0000,0.0000,0.0000,0.0000,0.00,0.00,0.00,1.0620,0.2650,1.4940,1.0850,2.7010,0,0.0000,0.0000,0.0000,0.0000,0.0000,0
6076,-0.0026,0.0525,0.0113,-0.0271,0.0842,0.0243,2.74,0.68,-0.51,0,3.531,36.303,22.818,4.093,0.009,-0.014,1.023,0.000,0.000,0.000,0.0050,10,0,0.00,0.00,0.00,0.0000,0.0000,0.0000,0.0000,0.0000,0.0000,0.0000,0.00,0.00,0.00,1.0620,0.2650,1.4940,1.0630,2.7010,0,0.0000,0.0000,0.0000,0.0000,0.0000,0
6128,-0.0007,0.0510,0.0093,-0.0192,0.0383,0.0092,4.50,-0.05,-0.38,0,3.526,-36.886,-0.802,-0.507,0.008,-0.010,0.924,0.000,0.000,0.000,0.0000,16,-3,0.00,0.00,0.00,0.0000,0.0000,0.0000,0.0000,0.0000,0.0000,0.0000,0.00,0.00,0.00,1.0600,0.0000,1.6500,1.0630,2.7040,0,0.0000,0.0000,0.0000,0.0000,0.0000,0
6179,0.0034,0.0308,0.0043,0.0032,-0.0913,-0.0240,3.70,0.04,-0.42,0,3.505,-36.455,-5.742,6.577,0.007,-0.004,1.047,0.000,0.000,0.000,0.0000,49,0,0.00,0.00,0.00,0.0000,0.0000,0.0000,0.0000,0.0000,0.0000,0.0000,0.00,0.00,0.00,1.0600,0.0000,1.6500,1.0280,2.7040,0,0.0000,0.0000,0.0000,0.0000,0.0000,0
6230,0.0081,0.0012,-0.0022,0.0216,-0.2304,-0.0434,2.69,0.25,-0.25,0,3.494,-36.831,2.367,0.244,0.014,-0.009,1.083,0.000,0.000,0.000,0.0000,16,-1,0.00,0.00,0.00,0.0000,0.0000,0.0000,0.0000,0.0000,0.0000,0.0000,0.00,0.00,0.00,1.0640,0.5350,1.4410,1.0280,2.6930,0,0.0000,0.0000,0.0000,0.0000,0.0000,0
6282,0.0069,-0.0284,-0.0062,0.0089,-0.3300,-0.0274,0.96,0.09,-0.15,0,3.500,-68.603,-6.051,-1.343,0.014,-0.011,1.108,0.000,0.000,0.000,0.0000,26,13,0.00,0.00,0.00,0.0000,0.0000,0.0000,0.0000,0.0000,0.0000,0.0000,0.00,0.00,0.00,1.0640,0.5350,1.4410,1.0870,2.6930,0,0.0000,0.0000,0.0000,0.0000,0.0000,0
6333,0.0035,-0.0458,-0.0038,-0.0102,-0.3408,0.0285,-2.07,0.62,-0.07,0,3.505,-44.045,-1.593,-1.148,0.000,-0.011,1.082,0.000,0.000,0.000,0.0000,2,2,0.00,0.00,0.00,0.0000,0.0000,0.0000,0.0000,0.0000,0.0000,0.0000,0.00,0.00,0.00,1.0620,0.5260,0.0000,1.0870,2.6870,0,0.0000,0.0000,0.0000,0.0000,0.0000,0
6383,-0.0060,-0.0521,0.0014,-0.0588,-0.2672,0.0903,-5.14,0.95,-0.07,0,3.505,17.176,11.073,2.914,0.012,-0.014,1.042,0.000,0.000,0.000,0.0140,5,27,0.00,0.00,0.00,0.0000,0.0000,0.0000,0.0000,0.0000,0.0000,0.0000,0.00,0.00,0.00,1.0620,0.5260,0.0000,1.0930,2.6870,0,0.0000,0.0000,0.0000,0.0000,0.0000,0
6435,-0.0108,-0.0574,0.0105,-0.0745,-0.1828,0.1416,-5.07,0.48,-0.02,0,3.510,4.877,34.939,3.653,-0.003,-0.020,1.040,0.000,0.000,0.000,0.0260,-6,26,0.00,0.00,0.00,0.0000,0.0000,0.0000,0.0000,0.0000,0.0000,0.0000,0.00,0.00,0.00,1.0730,0.2220,1.3340,1.0930,2.6840,0,0.0000,0.0000,0.0000,0.0000,0.0000,0
6486,-0.0264,-0.0540,0.0213,-0.1372,-0.0763,0.1738,-5.22,-0.75,-0.01,0,3.510,16.458,34.813,3.186,0.003,-0.016,1.014,0.000,0.000,0.000,0.0360,-20,9,0.00,0.00,0.00,0.0000,0.0000,0.0000,0.0000,0.0000,0.0000,0.0000,0.00,0.00,0.00,1.0730,0.2220,1.3340,1.0950,2.6840,0,0.0000,0.0000,0.0000,0.0000,0.0000,0
6537,-0.0335,-0.0414,0.0320,-0.1297,0.0471,0.1983,-5.00,-2.58,0.04,0,3.505,56.064,1.139,3.811,0.005,-0.019,0.986,0.000,0.000,0.000,0.0490,-31,0,0.00,0.00,0.00,0.0000,0.0000,0.0000,0.0000,0.0000,0.0000,0.0000,0.00,0.00,0.00,1.0540,0.0000,1.3660,1.0950,2.6620,0,0.0000,0.0000,0.0000,0.0000,0.0000,0
6588,-0.0369,-0.0290,0.0448,-0.0944,0.1325,0.2097,-2.71,-2.94,0.21,0,3.505,47.742,-3.075,5.881,-0.002,-0.021,0.982,0.000,0.000,0.000,0.0620,-13,-2,0.00,0.00,0.00,0.0000,0.0000,0.0000,0.0000,0.0000,0.0000,0.0000,0.00,0.00,0.00,1.0540,0.0000,1.3660,1.1140,2.6620,0,0.0000,0.0000,0.0000,0.0000,0.0000,0
6639,-0.0339,-0.0079,0.0562,-0.0331,0.2226,0.2106,-0.54,-3.11,0.56,0,3.505,39.145,7.215,4.745,-0.006,-0.020,0.980,0.000,0.000,0.000,0.0740,-22,-6,0.00,0.00,0.00,0.0000,0.0000,0.0000,0.0000,0.0000,0.0000,0.0000,0.00,0.00,0.00,1.0570,0.1280,1.4910,1.1140,2.6450,0,0.0000,0.0000,0.0000,0.0000,0.0000,0
6691,-0.0298,0.0066,0.0699,0.0190,0.2430,0.2206,1.33,-3.60,0.78,0,3.505,34.433,-27.313,3.888,-0.000,-0.021,0.986,0.000,0.000,0.000,0.0820,-10,-6,0.00,0.00,0.00,0.0000,0.0000,0.0000,0.0000,0.0000,0.0000,0.0000,0.00,0.00,0.00,1.0570,0.1280,1.4910,1.1440,2.6450,0,0.0000,0.0000,0.0000,0.0000,0.0000,0
6742,-0.0233,0.0196,0.0808,0.0730,0.2369,0.2102,3.18,-2.53,0.95,0,3.505,14.664,-30.860,3.668,-0.005,-0.015,0.974,0.000,0.000,0.000,0.0980,-7,-6,0.00,0.00,0.00,0.0000,0.0000,0.0000,0.0000,0.0000,0.0000,0.0000,0.00,0.00,0.00,1.0640,0.1190,1.6960,1.1440,2.6300,0,0.0000,0.0000,0.0000,0.0000,0.0000,0
6794,-0.0191,0.0310,0.0949,0.0938,0.2101,0.2165,4.06,-0.92,1.01,0,3.505,13.052,-21.942,2.106,-0.004,-0.020,0.980,0.000,0.000,0.000,0.0960,-33,0,0.00,0.00,0.00,0.0000,0.0000,0.0000,0.0000,0.0000,0.0000,0.0000,0.00,0.00,0.00,1.0640,0.1190,1.6960,1.1620,2.6300,0,0.0000,0.0000,0.0000,0.0000,0.0000,0
6845,-0.0187,0.0298,0.1026,0.0779,0.1219,0.1909,4.81,0.47,1.11,0,3.500,-4.191,-18.236,2.973,-0.006,-0.019,0.980,0.000,0.000,0.000,0.1040,-3,-8,0.00,0.00,0.00,0.0000,0.0000,0.0000,0.0000,0.0000,0.3000,0.2816,7.29,2.19,-33.27,1.0880,0.1210,1.7120,1.1620,2.6150,0,0.0000,0.0000,0.0000,0.0000,0.0000,0
6896,-0.0198,0.0389,0.1094,0.0505,0.1006,0.1629,4.77,1.46,1.21,0,3.494,-19.846,4.076,2.796,-0.004,-0.009,0.976,0.000,0.000,0.000,0.1100,-1,-1,4.81,-0.47,1.11,-0.0187,0.0298,0.1040,0.0000,0.0000,0.3000,0.2833,6.91,0.91,-36.33,1.0880,0.1210,1.7120,1.1780,2.6150,0,0.0000,0.0000,0.0000,0.0000,0.0000,0
6947,-0.0130,0.0421,0.1141,0.0636,0.0579,0.1323,3.80,1.20,1.29,0,3.489,-15.406,-1.486,2.224,-0.005,-0.008,0.989,0.000,0.000,0.000,0.1170,0,-4,3.62,-0.71,1.26,-0.0168,0.0340,0.1078,0.0000,0.0000,0.3000,0.2858,5.23,1.91,-38.65,1.1020,0.1110,1.6730,1.1780,2.5990,0,0.0000,0.0000,0.0000,0.0000,0.0000,0
6999,-0.0143,0.0449,0.1196,0.0333,0.0293,0.1205,2.99,1.45,1.42,0,3.484,-14.673,0.770,1.506,-0.004,-0.009,1.007,0.000,0.000,0.000,0.1240,3,1,2.39,-2.33,1.35,-0.0118,0.0338,0.1128,0.0000,0.0000,0.3000,0.2860,4.18,0.51,-42.63,1.1020,0.1110,1.6730,1.1950,2.5990,0,0.0000,0.0000,0.0000,0.0000,0.0000,0
7051,-0.0072,0.0479,0.1248,0.0502,0.0134,0.1148,2.27,1.20,1.42,0,3.484,-15.080,6.772,2.020,0.002,-0.010,1.005,0.000,0.000,0.000,0.1240,4,-4,2.61,0.55,1.47,-0.0115,0.0297,0.1255,0.0000,0.0000,0.3000,0.2856,3.69,1.71,-42.63,1.0960,0.1070,1.6360,1.1950,2.5840,0,0.0000,0.0000,0.0000,0.0000,0.0000,0
7103,-0.0009,0.0466,0.1283,0.0605,-0.0134,0.1068,1.62,0.67,1.45,0,3.479,-6.801,-4.916,1.967,0.004,-0.011,1.021,0.000,0.000,0.000,0.1300,0,-4,2.00,-1.61,1.58,-0.0071,0.0248,0.1298,0.0000,0.0000,0.3000,0.2859,2.45,2.56,-43.42,1.0960,0.1070,1.6360,1.1940,2.5840,0,0.0000,0.0000,0.0000,0.0000,0.0000,0
7154,0.0031,0.0459,0.1322,0.0605,-0.0264,0.1055,1.12,0.83,1.58,0,3.479,-10.294,-6.153,3.254,-0.000,-0.014,1.020,0.000,0.000,0.000,0.1370,1,2,-0.27,-1.69,1.64,-0.0019,0.0237,0.1366,0.0000,0.0000,0.3000,0.2853,1.85,2.82,-47.30,1.0890,0.1050,1.5930,1.1940,2.5670,0,0.0000,0.0000,0.0000,0.0000,0.0000,0
7206,0.0077,0.0450,0.1378,0.0607,-0.0338,0.1159,0.61,1.11,1.73,0,3.479,-9.839,-1.905,3.913,0.000,-0.005,1.033,0.000,0.000,0.000,0.1350,4,-5,-1.16,0.60,1.67,-0.0030,0.0219,0.1450,0.0000,0.0000,0.3000,0.2831,1.48,3.15,-52.05,1.0890,0.1050,1.5930,1.1910,2.5670,0,0.0000,0.0000,0.0000,0.0000,0.0000,0
7257,-0.0012,0.0449,0.1403,0.0003,-0.0325,0.1106,0.04,1.49,1.98,0,3.473,-5.220,7.349,2.659,-0.002,-0.005,1.024,0.000,0.000,0.000,0.1460,2,-2,-0.97,-0.45,2.03,0.0035,0.0173,0.1500,0.0000,0.0000,0.3000,0.2832,1.52,-0.07,-59.45,1.0920,0.1060,1.5570,1.1910,2.5660,0,0.0000,0.0000,0.0000,0.0000,0.0000,0
7308,0.0037,0.0424,0.1467,0.0090,-0.0366,0.1248,-0.24,0.98,2.06,0,3.473,-4.476,10.259,2.280,0.008,-0.007,1.026,0.000,0.000,0.000,0.1520,1,1,-1.30,-0.66,2.13,0.0066,0.0147,0.1558,0.0000,0.0000,0.3000,0.2805,1.20,0.64,-61.66,1.0920,0.1060,1.5570,1.1960,2.5660,0,0.0000,0.0000,0.0000,0.0000,0.0000,0
7360,0.0082,0.0398,0.1527,0.0185,-0.0386,0.1332,-0.42,0.35,2.12,0,3.479,-3.219,1.338,1.419,0.005,-0.008,1.026,0.000,0.000,0.000,0.1600,3,0,-1.68,-0.48,2.03,0.0056,0.0132,0.1627,0.0000,0.0000,0.3000,0.2785,0.94,1.37,-63.58,1.0790,0.0960,1.5730,1.1960,2.5450,0,0.0000,0.0000,0.0000,0.0000,0.0000,0
7411,0.0104,0.0383,0.1604,0.0209,-0.0335,0.1494,-0.55,0.25,2.19,0,3.479,1.349,-1.698,0.372,0.005,-0.010,1.023,0.000,0.000,0.000,0.1650,0,-2,-1.52,-0.32,2.01,0.0058,0.0089,0.1701,0.0000,0.0000,0.3000,0.2753,1.08,1.64,-65.63,1.0790,0.0960,1.5730,1.1890,2.5450,0,0.0000,0.0000,0.0000,0.0000,0.0000,0
7462,0.0151,0.0373,0.1668,0.0339,-0.0267,0.1525,-0.56,0.20,2.22,0,3.479,3.211,-1.221,-0.303,0.004,-0.010,1.014,0.000,0.000,0.000,0.1750,2,-2,-1.68,-0.40,2.11,0.0089,0.0092,0.1771,0.0000,0.0000,0.3000,0.2737,1.33,2.55,-66.75,1.0830,0.1080,1.5870,1.1890,2.5230,0,0.0000,0.0000,0.0000,0.0000,0.0000,0
7513,0.0192,0.0360,0.1754,0.0417,-0.0224,0.1644,-0.37,0.15,2.21,0,3.484,2.222,-3.426,-1.142,0.006,-0.004,1.012,0.000,0.000,0.000,0.1880,0,0,-1.32,-0.42,2.13,0.0125,0.0063,0.1853,0.0000,0.0000,0.3000,0.2708,1.45,3.22,-66.21,1.0830,0.1080,1.5870,1.1840,2.5230,0,0.0000,0.0000,0.0000,0.0000,0.0000,0
7564,0.0234,0.0345,0.1856,0.0486,-0.0210,0.1806,-0.28,0.28,2.17,0,3.489,1.199,-4.128,-1.133,0.005,-0.013,1.003,0.000,0.000,0.000,0.1970,1,-3,-1.21,-0.24,2.07,0.0159,0.0052,0.1953,0.0000,0.0000,0.3000,0.2671,1.43,3.87,-65.24,1.0870,0.0870,1.6280,1.1840,2.5100,0,0.0000,0.0000,0.0000,0.0000,0.0000,0
7616,0.0288,0.0340,0.1964,0.0574,-0.0171,0.1921,-0.19,0.41,2.12,0,3.489,-0.296,-4.591,-1.307,0.003,-0.005,0.993,0.000,0.000,0.000,0.2070,2,-4,-1.17,0.03,1.99,0.0183,0.0046,0.2053,0.0000,0.0000,0.3000,0.2639,1.60,4.71,-63.67,1.0870,0.0870,1.6280,1.1880,2.5100,0,0.0000,0.0000,0.0000,0.0000,0.0000,0
7667,0.0320,0.0325,0.2064,0.0550,-0.0180,0.1938,-0.12,0.65,2.06,0,3.484,3.126,-3.149,-2.019,0.002,-0.018,0.984,0.000,0.000,0.000,0.2130,0,-2,-1.06,0.08,1.99,0.0248,0.0022,0.2151,0.0000,0.0000,0.3000,0.2618,1.47,4.86,-61.88,1.0960,0.0990,1.6530,1.1880,2.4940,0,0.0000,0.0000,0.0000,0.0000,0.0000,0
7717,0.0358,0.0308,0.2156,0.0532,-0.0202,0.1854,0.02,0.80,1.96,0,3.484,-1.218,-0.027,-2.417,0.004,-0.011,0.982,0.000,0.000,0.000,0.2270,3,-1,-0.95,0.25,1.90,0.0290,0.0021,0.2231,0.0000,0.0000,0.3000,0.2610,1.24,5.06,-58.95,1.0960,0.0990,1.6530,1.1840,2.4940,0,0.0000,0.0000,0.0000,0.0000,0.0000,0
7768,0.0394,0.0302,0.2257,0.0502,-0.0189,0.1819,0.04,0.79,1.82,0,3.489,2.388,-0.053,-2.908,0.003,-0.007,0.977,0.000,0.000,0.000,0.2210,0,0,-0.80,0.32,1.70,0.0320,-0.0030,0.2327,0.0000,0.0000,0.3000,0.2595,1.27,5.20,-54.70,1.0980,0.0800,1.6710,1.1840,2.4700,0,0.0000,0.0000,0.0000,0.0000,0.0000,0
7820,0.0417,0.0292,0.2296,0.0435,-0.0198,0.1467,0.12,0.78,1.67,0,3.479,-0.794,-0.375,-2.137,0.003,-0.014,0.980,0.000,0.000,0.000,0.2310,0,-4,-0.68,0.33,1.55,0.0356,-0.0050,0.2370,0.0000,0.0000,0.3000,0.2625,1.14,4.99,-50.10,1.0980,0.0800,1.6710,1.1820,2.4700,0,0.0000,0.0000,0.0000,0.0000,0.0000,0
7871,0.0456,0.0281,0.2348,0.0431,-0.0210,0.1273,0.12,0.70,1.55,0,3.484,-4.150,1.495,-2.203,0.002,-0.006,0.991,0.000,0.000,0.000,0.2390,-1,-3,-0.90,0.28,1.52,0.0413,-0.0018,0.2420,0.0000,0.0000,0.3000,0.2636,1.00,5.22,-46.57,1.1000,0.0750,1.6880,1.1820,2.4620,0,0.0371,-0.0013,0.0000,0.0371,-0.0013,0
7922,0.0488,0.0261,0.2406,0.0405,-0.0250,0.1188,0.10,0.69,1.47,0,3.479,-0.977,0.305,-1.901,0.005,-0.009,0.995,0.000,0.000,0.000,0.2470,0,0,-1.18,0.13,1.45,0.0474,-0.0001,0.2473,0.0000,0.0000,0.3000,0.2635,0.68,5.33,-44.07,1.1000,0.0750,1.6880,1.1770,2.4620,0,0.0371,-0.0013,0.0000,0.0371,-0.0013,0
7973,0.0510,0.0261,0.2472,0.0355,-0.0224,0.1187,0.04,0.72,1.40,0,3.484,-5.269,2.139,-0.591,0.005,-0.009,0.994,0.000,0.000,0.000,0.2550,0,0,-1.23,0.12,1.35,0.0521,0.0004,0.2532,0.0000,0.0000,0.3000,0.2622,0.80,5.28,-41.94,1.1000,0.0650,1.6920,1.1770,2.4450,0,0.0371,-0.0013,0.0000,0.0371,-0.0013,0
8024,0.0528,0.0245,0.2544,0.0296,-0.0239,0.1227,-0.07,0.71,1.33,0,3.479,0.823,0.903,-0.592,0.007,-0.012,0.994,0.000,0.000,0.000,0.2580,0,-1,-1.50,0.01,1.32,0.0570,0.0013,0.2597,0.0000,0.0000,0.3000,0.2604,0.62,5.16,-39.99,1.1000,0.0650,1.6920,1.1730,2.4450,0,0.0371,-0.0013,0.0000,0.0371,-0.0013,0
8076,0.0532,0.0231,0.2599,0.0210,-0.0244,0.1179,-0.02,0.63,1.27,0,3.484,-3.887,1.693,-0.089,0.005,-0.012,0.995,0.000,0.000,0.000,0.2690,0,-4,-1.37,0.32,1.12,0.0486,-0.0011,0.2659,0.0000,0.0000,0.3000,0.2599,0.50,4.79,-38.02,1.1060,0.0620,1.7090,1.1730,2.4360,0,0.0371,-0.0013,0.0000,0.0371,-0.0013,0
8128,0.0536,0.0217,0.2677,0.0142,-0.0247,0.1241,-0.04,0.54,1.22,0,3.479,3.520,-1.394,-1.246,0.007,-0.011,0.990,0.000,0.000,0.000,0.2740,2,0,-1.57,0.11,1.16,0.0543,-0.0004,0.2731,0.0000,0.0000,0.3000,0.2578,0.39,4.54,-36.70,1.1060,0.0620,1.7090,1.1680,2.4360,0,0.0371,-0.0013,0.0000,0.0371,-0.0013,0
8180,0.0563,0.0192,0.2745,0.0148,-0.0280,0.1235,0.00,0.49,1.14,0,3.484,0.663,2.784,-1.817,0.004,-0.012,0.982,0.000,0.000,0.000,0.2800,1,2,-1.29,0.23,1.04,0.0558,-0.0028,0.2792,0.0000,0.0000,0.3000,0.2566,0.05,4.78,-34.30,1.0980,0.0590,1.7160,1.1680,2.4290,0,0.0371,-0.0013,0.0000,0.0371,-0.0013,0
8232,0.0557,0.0175,0.2808,0.0076,-0.0287,0.1192,0.00,0.40,1.08,0,3.479,-0.336,0.711,-0.907,0.004,-0.011,0.982,0.000,0.000,0.000,0.2850,0,0,-1.21,0.22,0.85,0.0534,-0.0044,0.2848,0.0000,0.0000,0.3000,0.2558,-0.10,4.41,-32.28,1.0980,0.0590,1.7160,1.1650,2.4290,0,0.0371,-0.0013,0.0000,0.0371,-0.0013,0
8283,0.0549,0.0156,0.2864,0.0019,-0.0297,0.1099,-0.04,0.30,1.03,0,3.484,-0.289,1.705,-0.873,0.003,-0.013,0.979,0.000,0.000,0.000,0.2920,0,1,-1.23,0.19,0.80,0.0545,-0.0043,0.2897,0.0000,0.0000,0.3000,0.2558,-0.29,4.08,-30.83,1.1010,0.0530,1.7260,1.1650,2.4090,0,0.0371,-0.0013,0.0000,0.0371,-0.0013,0
8334,0.0546,0.0139,0.2922,-0.0014,-0.0300,0.1036,-0.08,0.22,0.99,0,3.479,0.995,2.918,-0.584,0.003,-0.009,0.978,0.000,0.000,0.000,0.2930,0,0,-1.23,0.22,0.69,0.0501,-0.0046,0.2947,0.0000,0.0000,0.3000,0.2554,-0.43,3.91,-29.75,1.1010,0.0530,1.7260,1.1620,2.4090,0,0.0371,-0.0013,0.0000,0.0371,-0.0013,0
8385,0.0525,0.0140,0.2958,-0.0076,-0.0256,0.0876,-0.08,0.12,0.97,0,3.479,2.187,1.870,0.478,0.002,-0.016,0.983,0.000,0.000,0.000,0.2990,1,0,-1.18,0.07,0.66,0.0499,-0.0041,0.2981,0.0000,0.0000,0.3000,0.2564,-0.21,3.44,-29.06,1.1060,0.0510,1.7380,1.1620,2.4030,0,0.0371,-0.0013,0.0000,0.0371,-0.0013,0
8437,0.0501,0.0129,0.2999,-0.0131,-0.0246,0.0778,-0.01,0.03,0.97,0,3.473,-0.107,1.133,1.516,0.004,-0.011,0.983,0.000,0.000,0.000,0.3030,0,0,-0.99,-0.03,0.66,0.0501,-0.0075,0.3018,0.0000,0.0000,0.3000,0.2567,-0.23,3.00,-29.12,1.1060,0.0510,1.7380,1.1540,2.4030,0,0.0371,-0.0013,0.0000,0.0371,-0.0013,0
8489,0.0483,0.0123,0.3036,-0.0157,-0.0230,0.0696,-0.06,-0.07,0.99,0,3.479,-0.356,2.665,1.190,-0.001,-0.012,0.986,0.000,0.000,0.000,0.3060,0,1,-1.00,-0.09,0.74,0.0502,-0.0077,0.3052,0.0000,0.0000,0.3000,0.2569,-0.20,2.74,-29.64,1.1080,0.0430,1.7420,1.1540,2.3970,0,0.0371,-0.0013,0.0000,0.0371,-0.0013,0
8541,0.0457,0.0116,0.3068,-0.0189,-0.0215,0.0616,-0.08,-0.17,1.02,0,3.473,-1.130,0.754,1.250,0.003,-0.010,0.990,0.000,0.000,0.000,0.3120,2,0,-1.02,-0.17,0.78,0.0471,-0.0076,0.3082,0.0000,0.0000,0.3000,0.2571,-0.18,2.40,-30.65,1.1080,0.0430,1.7420,1.1550,2.3970,0,0.0371,-0.0013,0.0000,0.0371,-0.0013,0
8592,0.0438,0.0100,0.3110,-0.0196,-0.0221,0.0624,-0.04,-0.25,1.06,0,3.479,1.279,0.821,1.559,0.006,-0.010,0.990,0.000,0.000,0.000,0.3110,0,0,-1.01,-0.22,0.83,0.0470,-0.0110,0.3119,0.0000,0.0000,0.3000,0.2563,-0.33,2.24,-31.89,1.1180,0.0410,1.7500,1.1550,2.3910,0,0.0371,-0.0013,0.0000,0.0371,-0.0013,0
8644,0.0423,0.0064,0.3129,-0.0184,-0.0267,0.0530,-0.07,-0.35,1.11,0,3.473,-2.692,0.705,1.409,0.001,-0.008,0.996,0.000,0.000,0.000,0.3110,0,1,-0.95,-0.26,0.91,0.0468,-0.0114,0.3140,0.0000,0.0000,0.3000,0.2569,-0.81,2.19,-33.33,1.1180,0.0410,1.7500,1.1500,2.3910,0,0.0371,-0.0013,0.0000,0.0371,-0.0013,0
8696,0.0393,0.0063,0.3137,-0.0197,-0.0231,0.0415,-0.22,-0.39,1.14,0,3.473,-1.923,-0.110,0.438,0.006,-0.013,0.999,0.000,0.000,0.000,0.3140,1,1,-1.10,-0.25,0.97,0.0435,-0.0112,0.3153,0.0000,0.0000,0.3000,0.2580,-0.64,1.90,-34.07,1.1160,0.0450,1.7500,1.1500,2.3990,0,0.0371,-0.0013,0.0000,0.0371,-0.0013,0
8747,0.0364,0.0052,0.3152,-0.0206,-0.0211,0.0371,-0.25,-0.37,1.16,0,3.468,-2.233,0.381,1.016,-0.000,-0.014,0.998,0.000,0.000,0.000,0.3150,0,0,-1.16,-0.22,0.98,0.0415,-0.0131,0.3170,0.0000,0.0000,0.3000,0.2582,-0.62,1.64,-34.69,1.1160,0.0450,1.7500,1.1470,2.3990,0,0.0371,-0.0013,0.0000,0.0371,-0.0013,0
8798,0.0347,0.0035,0.3163,-0.0189,-0.0203,0.0327,-0.29,-0.44,1.19,0,3.473,1.531,1.273,0.898,0.001,-0.009,1.003,0.000,0.000,0.000,0.3190,0,0,-1.28,-0.24,1.03,0.0408,-0.0133,0.3183,0.0000,0.0000,0.3000,0.2585,-0.71,1.60,-35.67,1.1200,0.0420,1.7470,1.1470,2.3830,0,0.0371,-0.0013,0.0000,0.0371,-0.0013,0
8850,0.0314,0.0033,0.3186,-0.0198,-0.0161,0.0369,-0.32,-0.46,1.24,0,3.468,1.191,-2.006,0.457,0.000,-0.016,1.005,0.000,0.000,0.000,0.3200,1,0,-1.20,-0.31,1.08,0.0401,-0.0132,0.3205,0.0000,0.0000,0.3000,0.2576,-0.52,1.33,-37.24,1.1200,0.0420,1.7470,1.1430,2.3830,0,0.0371,-0.0013,0.0000,0.0371,-0.0013,0
8901,0.0307,0.0015,0.3204,-0.0158,-0.0154,0.0398,-0.26,-0.41,1.28,0,3.473,-0.124,-2.246,1.020,0.004,-0.010,1.007,0.000,0.000,0.000,0.3260,0,0,-1.08,-0.22,1.12,0.0414,-0.0174,0.3225,0.0000,0.0000,0.3000,0.2569,-0.62,1.47,-38.40,1.1280,0.0410,1.7580,1.1430,2.3780,0,0.0371,-0.0013,0.0000,0.0371,-0.0013,0
8952,0.0290,0.0014,0.3242,-0.0141,-0.0118,0.0508,-0.28,-0.34,1.32,0,3.468,-1.438,0.396,0.049,0.003,-0.006,1.001,0.000,0.000,0.000,0.3200,2,0,-1.09,-0.11,1.17,0.0415,-0.0178,0.3259,0.0000,0.0000,0.3000,0.2550,-0.45,1.45,-39.66,1.1280,0.0410,1.7580,1.1460,2.3780,0,0.0371,-0.0013,0.0000,0.0371,-0.0013,0
9003,0.0286,-0.0002,0.3241,-0.0110,-0.0114,0.0386,-0.28,-0.34,1.34,0,3.468,-0.134,-0.335,-0.987,0.004,-0.011,1.002,0.000,0.000,0.000,0.3270,0,0,-1.09,-0.13,1.17,0.0415,-0.0230,0.3265,0.0000,0.0000,0.3000,0.2564,-0.55,1.56,-40.17,1.1310,0.0420,1.7610,1.1460,2.3760,0,0.0371,-0.0013,0.0000,0.0371,-0.0013,0
9054,0.0270,-0.0025,0.3266,-0.0104,-0.0120,0.0423,-0.29,-0.27,1.33,0,3.468,-1.247,-1.137,-1.492,0.001,-0.016,1.000,0.000,0.000,0.000,0.3280,0,0,-1.09,-0.11,1.12,0.0418,-0.0241,0.3290,0.0000,0.0000,0.3000,0.2555,-0.75,1.47,-39.97,1.1310,0.0420,1.7610,1.1370,2.3760,0,0.0371,-0.0013,0.0000,0.0371,-0.0013,0
9104,0.0279,-0.0026,0.3286,-0.0056,-0.0086,0.0423,-0.33,-0.21,1.31,0,3.468,1.529,-1.474,-0.630,0.002,-0.010,1.003,0.000,0.000,0.000,0.3300,-1,0,-1.16,-0.05,1.05,0.0421,-0.0250,0.3309,0.0000,0.0000,0.3000,0.2551,-0.59,1.78,-39.19,1.1310,0.0410,1.7600,1.1370,2.3680,0,0.0371,-0.0013,0.0000,0.0371,-0.0013,0
9156,0.0273,-0.0045,0.3306,-0.0047,-0.0086,0.0427,-0.29,-0.15,1.26,0,3.468,3.576,-0.249,-1.956,0.002,-0.010,1.002,0.000,0.000,0.000,0.3320,0,0,-1.15,0.04,1.02,0.0412,-0.0203,0.3330,0.0000,0.0000,0.3000,0.2547,-0.73,1.78,-37.86,1.1310,0.0410,1.7600,1.1370,2.3680,0,0.0371,-0.0013,0.0000,0.0371,-0.0013,0
9207,0.0274,-0.0031,0.3326,-0.0029,-0.0031,0.0425,-0.21,-0.12,1.17,0,3.473,0.441,-2.013,-2.865,0.004,-0.007,0.997,0.000,0.000,0.000,0.3340,1,0,-0.96,0.06,0.91,0.0414,-0.0195,0.3350,0.0000,0.0000,0.3000,0.2543,-0.36,1.88,-35.05,1.1310,0.0410,1.7540,1.1370,2.3610,0,0.0371,-0.0013,0.0000,0.0371,-0.0013,0
9258,0.0274,-0.0017,0.3346,-0.0017,0.0015,0.0406,-0.20,-0.09,1.02,0,3.468,-0.259,0.710,-3.247,-0.000,-0.011,0.998,0.000,0.000,0.000,0.3370,0,0,-0.89,0.17,0.76,0.0413,-0.0225,0.3370,0.0000,0.0000,0.3000,0.2541,-0.03,1.94,-30.71,1.1310,0.0410,1.7540,1.1360,2.3610,0,0.0371,-0.0013,0.0000,0.0371,-0.0013,0
9309,0.0272,-0.0032,0.3369,-0.0012,0.0002,0.0410,-0.14,-0.11,0.83,0,3.468,0.353,1.557,-4.135,-0.000,-0.002,0.993,0.000,0.000,0.000,0.3350,-2,0,-0.90,0.13,0.59,0.0414,-0.0223,0.3391,0.0000,0.0000,0.3000,0.2537,-0.21,1.95,-24.86,1.1290,0.0390,1.7550,1.1360,2.3600,0,0.0371,-0.0013,0.0000,0.0371,-0.0013,0
9361,0.0270,-0.0006,0.3374,-0.0004,0.0057,0.0306,-0.09,-0.11,0.60,0,3.463,2.113,1.456,-4.784,0.003,-0.012,0.999,0.000,0.000,0.000,0.3390,-2,0,-0.94,0.06,0.40,0.0413,-0.0171,0.3397,0.0000,0.0000,0.3000,0.2547,0.25,1.97,-17.91,1.1290,0.0390,1.7550,1.1320,2.3600,0,0.0371,-0.0013,0.0000,0.0371,-0.0013,0
9412,0.0268,0.0041,0.3391,0.0002,0.0135,0.0296,-0.00,-0.14,0.36,0,3.468,1.487,1.843,-4.805,0.003,-0.011,0.994,0.000,0.000,0.000,0.3390,-5,0,-0.86,-0.02,0.16,0.0414,-0.0129,0.3411,0.0000,0.0000,0.3000,0.2545,0.98,1.98,-10.93,1.1210,0.0360,1.7530,1.1320,2.3470,0,0.0371,-0.0013,0.0000,0.0371,-0.0013,0
9463,0.0275,0.0002,0.3400,0.0025,0.0052,0.0256,0.12,-0.22,0.13,0,3.463,1.715,-0.167,-3.771,0.007,-0.007,0.995,0.000,0.000,0.000,0.3460,0,0,-0.89,-0.11,-0.06,0.0414,-0.0023,0.3417,0.0000,0.0000,0.3000,0.2547,0.28,2.15,-3.92,1.1210,0.0360,1.7530,1.1400,2.3470,0,0.0371,-0.0013,0.0000,0.0371,-0.0013,0
9514,0.0270,0.0028,0.3431,0.0029,0.0077,0.0363,0.33,-0.15,-0.07,0,3.473,-0.726,-0.247,-3.465,0.005,-0.005,0.999,0.000,0.000,0.000,0.3460,0,0,-0.80,-0.09,-0.26,0.0418,0.0022,0.3443,0.0000,0.0000,0.3000,0.2530,0.59,2.14,2.20,1.1110,0.0380,1.7510,1.1400,2.3560,0,0.0371,-0.0013,0.0000,0.0371,-0.0013,0
9565,0.0281,0.0058,0.3454,0.0058,0.0094,0.0388,0.28,-0.13,-0.25,0,3.463,1.933,-0.122,-3.091,0.006,-0.009,0.994,0.000,0.000,0.000,0.3460,0,0,-0.84,-0.08,-0.43,0.0423,0.0070,0.3463,0.0000,0.0000,0.3000,0.2523,0.90,2.37,7.37,1.1110,0.0380,1.7510,1.1370,2.3560,0,0.0371,-0.0013,0.0000,0.0371,-0.0013,0
9617,0.0280,0.0057,0.3468,0.0062,0.0063,0.0352,0.31,-0.12,-0.39,0,3.468,-0.598,-1.090,-0.990,-0.002,-0.002,0.994,0.000,0.000,0.000,0.3450,4,0,-0.74,-0.07,-0.59,0.0430,0.0119,0.3475,0.0000,0.0000,0.3000,0.2524,0.75,2.39,11.62,1.0990,0.0370,1.7580,1.1370,2.3560,0,0.0371,-0.0013,0.0000,0.0371,-0.0013,0
9669,0.0274,0.0043,0.3470,0.0056,0.0011,0.0254,0.35,-0.08,-0.47,0,3.457,-1.513,0.321,0.249,0.002,-0.010,0.997,0.000,0.000,0.000,0.3470,3,1,-0.43,0.01,-0.69,0.0405,-0.0210,0.3493,0.0000,0.0000,0.3000,0.2534,0.39,2.30,14.20,1.0990,0.0370,1.7580,1.1360,2.3560,0,0.0371,-0.0013,0.0000,0.0371,-0.0013,0
9721,0.0283,0.0065,0.3477,0.0074,0.0022,0.0209,0.25,-0.06,-0.48,0,3.468,-0.751,-3.506,1.220,-0.000,-0.006,0.997,0.000,0.000,0.000,0.3480,0,0,-0.47,0.01,-0.68,0.0394,-0.0258,0.3494,0.0000,0.0000,0.3000,0.2538,0.60,2.45,14.48,1.0930,0.0350,1.7560,1.1360,2.3450,0,0.0371,-0.0013,0.0000,0.0371,-0.0013,0
9772,0.0258,0.0006,0.3487,0.0031,-0.0099,0.0179,0.21,0.06,-0.43,0,3.463,-2.994,-1.084,1.679,0.003,-0.008,0.999,0.000,0.000,0.000,0.3460,3,-1,-0.51,0.19,-0.62,0.0393,-0.0283,0.3499,0.0000,0.0000,0.3000,0.2539,-0.42,2.06,12.90,1.0930,0.0350,1.7560,1.1280,2.3450,0,0.0371,-0.0013,0.0000,0.0371,-0.0013,0
9824,0.0250,0.0003,0.3479,0.0009,-0.0112,0.0093,0.15,0.15,-0.35,0,3.463,-4.793,2.193,1.672,0.005,-0.006,0.999,0.000,0.000,0.000,0.3520,0,0,-0.62,0.22,-0.56,0.0419,-0.0351,0.3493,0.0000,0.0000,0.3000,0.2550,-0.51,1.89,10.37,1.0970,0.0360,1.7540,1.1280,2.3460,0,0.0371,-0.0013,0.0000,0.0371,-0.0013,0
9875,0.0255,-0.0056,0.3500,0.0004,-0.0210,0.0170,-0.07,0.08,-0.25,0,3.457,-1.939,-1.157,1.288,0.002,-0.009,1.001,0.000,0.000,0.000,0.3510,-3,-2,-0.87,0.10,-0.48,0.0424,-0.0384,0.3509,0.0000,0.0000,0.3000,0.2538,-1.41,1.90,7.64,1.0970,0.0360,1.7540,1.1210,2.3460,0,0.0371,-0.0013,0.0000,0.0371,-0.0013,0
9926,0.0243,-0.0075,0.3509,-0.0023,-0.0223,0.0178,-0.21,0.05,-0.20,0,3.468,-2.409,1.008,0.984,-0.000,-0.006,1.001,0.000,0.000,0.000,0.3530,0,0,-1.11,0.11,-0.38,0.0479,-0.0276,0.3522,0.0000,0.0000,0.3000,0.2535,-1.62,1.69,6.04,1.1010,0.0370,1.7600,1.1210,2.3470,0,0.0371,-0.0013,0.0000,0.0371,-0.0013,0
9977,0.0271,-0.0013,0.3524,0.0021,-0.0085,0.0220,-0.31,0.01,-0.17,0,3.463,0.175,0.318,1.333,-0.001,-0.009,1.001,0.000,0.000,0.000,0.3520,0,0,-1.24,0.05,-0.33,0.0495,-0.0273,0.3533,0.0000,0.0000,0.3000,0.2527,-0.49,2.12,5.04,1.1010,0.0370,1.7600,1.1180,2.3470,0,0.0371,-0.0013,0.0000,0.0371,-0.0013,0
10029,0.0254,-0.0009,0.3529,-0.0010,-0.0043,0.0186,-0.37,-0.04,-0.13,0,3.463,0.988,1.284,-0.006,0.004,-0.008,0.995,0.000,0.000,0.000,0.3550,0,0,-1.23,0.04,-0.26,0.0511,-0.0265,0.3538,0.0000,0.0000,0.3000,0.2530,-0.26,1.84,3.78,1.1020,0.0380,1.7630,1.1180,2.3430,0,0.0371,-0.0013,0.0000,0.0371,-0.0013,0
10081,0.0266,-0.0003,0.3544,0.0015,-0.0000,0.0203,-0.28,-0.09,-0.13,0,3.463,3.371,0.074,-2.052,-0.000,-0.016,0.995,0.000,0.000,0.000,0.3570,-1,-1,-1.18,-0.03,-0.26,0.0528,-0.0255,0.3550,0.0000,0.0000,0.3000,0.2526,-0.01,2.05,3.93,1.1020,0.0380,1.7630,1.1170,2.3430,0,0.0371,-0.0013,0.0000,0.0371,-0.0013,0
10132,0.0255,-0.0019,0.3561,0.0001,-0.0006,0.0227,-0.19,-0.11,-0.21,0,3.468,1.163,0.664,-2.242,0.002,-0.008,0.993,0.000,0.000,0.000,0.3570,-3,0,-0.99,-0.01,-0.38,0.0514,-0.0254,0.3563,0.0000,0.0000,0.3000,0.2520,-0.15,1.91,6.20,1.0940,0.0340,1.7590,1.1170,2.3430,0,0.0371,-0.0013,0.0000,0.0371,-0.0013,0
10184,0.0264,-0.0010,0.3572,0.0024,0.0024,0.0203,-0.17,-0.08,-0.30,0,3.457,-0.535,1.090,-2.641,0.001,-0.010,0.994,0.000,0.000,0.000,0.3530,0,0,-0.96,-0.03,-0.48,0.0522,-0.0213,0.3571,0.0000,0.0000,0.3000,0.2520,0.06,2.09,8.96,1.0940,0.0340,1.7590,1.1090,2.3430,0,0.0371,-0.0013,0.0000,0.0371,-0.0013,0
10235,0.0253,-0.0016,0.3559,0.0008,0.0021,0.0053,-0.09,-0.07,-0.40,0,3.457,3.872,0.550,-2.150,0.003,-0.010,0.994,0.000,0.000,0.000,0.3550,0,0,-0.99,-0.09,-0.62,0.0533,-0.0193,0.3563,0.0000,0.0000,0.3000,0.2539,-0.00,1.92,12.05,1.0890,0.0350,1.7640,1.1090,2.3350,0,0.0371,-0.0013,0.0000,0.0371,-0.0013,0
10286,0.0254,-0.0021,0.3556,0.0014,0.0017,-0.0001,0.03,-0.07,-0.50,0,3.452,1.618,0.082,-1.252,0.001,-0.009,1.001,0.000,0.000,0.000,0.3560,0,0,-0.79,-0.12,-0.73,0.0545,-0.0171,0.3560,0.0000,0.0000,0.3000,0.2545,-0.06,1.95,15.08,1.0890,0.0350,1.7640,1.1170,2.3350,0,0.0371,-0.0013,0.0000,0.0371,-0.0013,0
10337,0.0254,-0.0024,0.3558,0.0020,0.0007,-0.0002,0.06,-0.07,-0.57,0,3.463,0.427,-0.275,-2.010,0.003,-0.009,1.004,0.000,0.000,0.000,0.3530,-1,0,-0.71,-0.12,-0.80,0.0558,-0.0148,0.3561,0.0000,0.0000,0.3000,0.2545,-0.13,1.98,17.05,1.0870,0.0310,1.7680,1.1170,2.3380,0,0.0371,-0.0013,0.0000,0.0371,-0.0013,0
10389,0.0254,-0.0029,0.3546,0.0023,-0.0010,-0.0051,0.10,-0.07,-0.68,0,3.452,-1.332,1.657,-2.489,0.006,-0.012,1.004,0.000,0.000,0.000,0.3530,-6,0,-0.64,-0.06,-0.90,0.0521,-0.0180,0.3555,0.0000,0.0000,0.3000,0.2552,-0.24,1.99,20.30,1.0870,0.0310,1.7680,1.1160,2.3380,0,0.0371,-0.0013,0.0000,0.0371,-0.0013,0
10441,0.0252,-0.0075,0.3538,0.0024,-0.0105,-0.0077,0.12,-0.06,-0.79,0,3.457,-3.214,0.282,-1.398,-0.001,-0.006,1.005,0.000,0.000,0.000,0.3560,0,0,-0.77,-0.14,-1.03,0.0526,-0.0110,0.3549,0.0000,0.0000,0.3000,0.2557,-1.04,1.98,23.83,1.0820,0.0320,1.7560,1.1160,2.3370,0,0.0371,-0.0013,0.0000,0.0371,-0.0013,0
10492,0.0252,-0.0137,0.3545,0.0027,-0.0233,-0.0001,0.17,-0.08,-0.88,0,3.452,0.030,-1.903,-0.836,0.002,-0.010,1.006,0.000,0.000,0.000,0.3580,3,0,-0.94,-0.15,-1.10,0.0531,-0.0081,0.3555,0.0000,0.0000,0.3000,0.2547,-2.11,2.00,26.40,1.0820,0.0320,1.7560,1.1110,2.3370,0,0.0371,-0.0013,0.0000,0.0371,-0.0013,0
10544,0.0247,-0.0153,0.3560,0.0020,-0.0257,0.0106,0.17,0.01,-0.92,0,3.463,-5.191,0.323,-1.104,0.002,-0.012,1.004,0.000,0.000,0.000,0.3590,1,0,-0.82,-0.05,-1.14,0.0528,-0.0164,0.3572,0.0000,0.0000,0.3000,0.2532,-2.36,1.93,27.70,1.0750,0.0360,1.7620,1.1110,2.3330,0,0.0371,-0.0013,0.0000,0.0371,-0.0013,0
10595,0.0247,-0.0201,0.3577,0.0018,-0.0331,0.0179,-0.04,-0.03,-1.00,0,3.457,-5.975,-0.242,-1.928,-0.000,-0.010,1.000,0.000,0.000,0.000,0.3560,0,0,-1.07,-0.06,-1.20,0.0530,-0.0177,0.3585,0.0000,0.0000,0.3000,0.2521,-3.09,1.93,29.90,1.0750,0.0360,1.7620,1.1060,2.3330,0,0.0371,-0.0013,0.0000,0.0371,-0.0013,0
10646,0.0246,-0.0219,0.3575,0.0017,-0.0331,0.0116,-0.30,-0.04,-1.09,0,3.457,0.179,1.068,-2.342,0.004,-0.010,0.994,0.000,0.000,0.000,0.3560,0,0,-1.37,-0.05,-1.29,0.0535,-0.0177,0.3585,0.0000,0.0000,0.3000,0.2529,-3.21,1.92,32.78,1.0760,0.0320,1.7600,1.1060,2.3370,0,0.0371,-0.0013,0.0000,0.0371,-0.0013,0
10697,0.0247,-0.0235,0.3572,0.0021,-0.0305,0.0063,-0.33,-0.00,-1.17,0,3.457,-1.203,-0.618,-1.970,0.002,-0.009,0.996,0.000,0.000,0.000,0.3580,0,1,-1.36,-0.10,-1.41,0.0540,-0.0173,0.3583,0.0000,0.0000,0.3000,0.2535,-3.19,1.94,35.24,1.0760,0.0320,1.7600,1.1010,2.3370,0,0.0371,-0.0013,0.0000,0.0371,-0.0013,0
10749,0.0249,-0.0239,0.3577,0.0022,-0.0256,0.0061,-0.38,0.01,-1.27,0,3.457,0.745,0.746,-2.249,0.002,-0.008,1.000,0.000,0.000,0.000,0.3550,0,0,-1.41,-0.02,-1.53,0.0491,-0.0188,0.3586,0.0000,0.0000,0.3000,0.2534,-2.98,1.96,38.11,1.0750,0.0330,1.7600,1.1010,2.3370,0,0.0371,-0.0013,0.0000,0.0371,-0.0013,0
10801,0.0239,-0.0234,0.3567,0.0004,-0.0194,-0.0016,-0.39,-0.07,-1.37,0,3.452,0.187,-1.119,-1.042,0.003,-0.010,0.996,0.000,0.000,0.000,0.3570,0,0,-1.37,-0.05,-1.64,0.0486,-0.0181,0.3578,0.0000,0.0000,0.3000,0.2544,-2.64,1.79,41.21,1.0750,0.0330,1.7600,1.1030,2.3370,0,0.0371,-0.0013,0.0000,0.0371,-0.0013,0
10852,0.0226,-0.0241,0.3568,-0.0015,-0.0157,-0.0020,-0.35,-0.05,-1.45,0,3.457,3.063,-0.746,-1.177,0.004,-0.005,0.998,0.000,0.000,0.000,0.3600,0,0,-1.36,0.01,-1.70,0.0483,-0.0170,0.3577,0.0000,0.0000,0.3000,0.2544,-2.50,1.61,43.63,1.0710,0.0310,1.7660,1.1030,2.3370,0,0.0371,-0.0013,0.0000,0.0371,-0.0013,0
10903,0.0225,-0.0248,0.3581,-0.0011,-0.0127,0.0043,-0.25,-0.03,-1.51,0,3.452,0.112,-0.323,-0.079,-0.001,-0.008,1.001,0.000,0.000,0.000,0.3560,0,0,-1.20,0.05,-1.76,0.0480,-0.0155,0.3584,0.0000,0.0000,0.3000,0.2535,-2.42,1.63,45.25,1.0710,0.0310,1.7660,1.1010,2.3370,0,0.0371,-0.0013,0.0000,0.0371,-0.0013,0
10955,0.0225,-0.0253,0.3573,-0.0008,-0.0105,-0.0007,-0.21,-0.04,-1.51,0,3.457,2.804,1.770,0.104,0.004,-0.007,1.000,0.000,0.000,0.000,0.3550,0,0,-1.19,0.06,-1.76,0.0478,-0.0135,0.3578,0.0000,0.0000,0.3000,0.2542,-2.35,1.64,45.43,1.0730,0.0340,1.7610,1.1010,2.3400,0,0.0371,-0.0013,0.0000,0.0371,-0.0013,0
11006,0.0224,-0.0258,0.3563,-0.0004,-0.0087,-0.0050,-0.12,-0.12,-1.52,0,3.452,-0.073,-2.934,0.330,0.001,-0.008,1.006,0.000,0.000,0.000,0.3560,0,0,-1.05,-0.03,-1.76,0.0476,-0.0113,0.3569,0.0000,0.0000,0.3000,0.2548,-2.29,1.65,45.70,1.0730,0.0340,1.7610,1.1040,2.3400,0,0.0371,-0.0013,0.0000,0.0371,-0.0013,0
11057,0.0224,-0.0262,0.3561,0.0006,-0.0076,-0.0039,-0.09,-0.05,-1.51,0,3.457,2.767,0.060,-0.365,0.002,-0.012,1.002,0.000,0.000,0.000,0.3560,0,0,-1.05,0.12,-1.74,0.0474,-0.0088,0.3567,0.0000,0.0000,0.3000,0.2548,-2.27,1.70,45.21,1.0730,0.0340,1.7600,1.1040,2.3350,0,0.0371,-0.0013,0.0000,0.0371,-0.0013,0
11109,0.0244,-0.0268,0.3559,0.0043,-0.0074,-0.0037,-0.02,-0.01,-1.50,0,3.452,2.532,0.787,0.233,0.001,-0.010,1.002,0.000,0.000,0.000,0.3570,0,0,-0.91,0.12,-1.76,0.0473,-0.0060,0.3565,0.0000,0.0000,0.3000,0.2548,-2.30,2.02,45.06,1.0730,0.0340,1.7600,1.1070,2.3350,0,0.0371,-0.0013,0.0000,0.0371,-0.0013,0
11161,0.0222,-0.0270,0.3563,0.0003,-0.0069,0.0001,0.02,-0.01,-1.50,0,3.452,-0.361,-0.203,-0.058,0.001,-0.009,1.000,0.000,0.000,0.000,0.3560,0,0,-0.78,0.08,-1.74,0.0471,-0.0031,0.3568,0.0000,0.0000,0.3000,0.2543,-2.30,1.67,44.94,1.0680,0.0350,1.7660,1.1070,2.3370,0,0.0371,-0.0013,0.0000,0.0371,-0.0013,0
11212,0.0243,-0.0270,0.3562,0.0038,-0.0065,-0.0006,-0.04,0.02,-1.51,0,3.452,-1.262,-2.497,0.570,0.004,-0.010,1.002,0.000,0.000,0.000,0.3540,0,0,-0.80,0.09,-1.75,0.0469,-0.0001,0.3567,0.0000,0.0000,0.3000,0.2544,-2.27,2.00,45.25,1.0680,0.0350,1.7660,1.0970,2.3370,0,0.0371,-0.0013,0.0000,0.0371,-0.0013,0
11264,0.0245,-0.0273,0.3552,0.0036,-0.0061,-0.0053,-0.06,0.11,-1.51,0,3.452,-1.152,-0.472,0.253,0.000,-0.008,1.002,0.000,0.000,0.000,0.3540,0,0,-0.86,0.21,-1.72,0.0468,0.0030,0.3559,0.0000,0.0000,0.3000,0.2551,-2.27,2.00,45.25,1.0720,0.0310,1.7630,1.0970,2.3420,0,0.0371,-0.0013,0.0000,0.0371,-0.0013,0
11315,0.0243,-0.0272,0.3545,0.0021,-0.0051,-0.0069,0.01,0.10,-1.50,0,3.447,-0.745,-0.012,0.356,0.007,-0.010,1.004,0.000,0.000,0.000,0.3560,0,-1,-0.92,0.24,-1.70,0.0466,0.0063,0.3554,0.0000,0.0000,0.3000,0.2554,-2.21,1.90,44.94,1.0720,0.0310,1.7630,1.1060,2.3420,0,0.0371,-0.0013,0.0000,0.0371,-0.0013,0
11366,0.0251,-0.0272,0.3550,0.0025,-0.0047,-0.0009,0.01,0.04,-1.48,0,3.452,0.695,-0.355,-0.156,0.002,-0.009,1.002,0.000,0.000,0.000,0.3530,4,0,-0.84,0.22,-1.71,0.0500,-0.0184,0.3560,0.0000,0.0000,0.3000,0.2546,-2.20,1.99,44.38,1.0650,0.0330,1.7620,1.1060,2.3420,0,0.0371,-0.0013,0.0000,0.0371,-0.0013,0
11417,0.0273,-0.0274,0.3542,0.0051,-0.0047,-0.0033,0.07,0.08,-1.48,0,3.447,0.103,-1.509,0.151,0.001,-0.009,1.011,0.000,0.000,0.000,0.3550,4,0,-0.78,0.24,-1.73,0.0502,-0.0196,0.3549,0.0000,0.0000,0.3000,0.2550,-2.21,2.27,44.31,1.0650,0.0330,1.7620,1.1080,2.3420,0,0.0371,-0.0013,0.0000,0.0371,-0.0013,0
11467,0.0284,-0.0283,0.3544,0.0057,-0.0056,0.0007,0.03,0.13,-1.45,0,3.447,1.103,1.414,0.202,0.003,-0.009,1.002,0.000,0.000,0.000,0.3540,-1,0,-0.75,0.32,-1.74,0.0503,-0.0216,0.3550,0.0000,0.0000,0.3000,0.2545,-2.33,2.38,43.38,1.0700,0.0340,1.7520,1.1080,2.3410,0,0.0371,-0.0013,0.0000,0.0371,-0.0013,0
11519,0.0281,-0.0454,0.3543,0.0038,-0.0311,0.0018,0.03,0.09,-1.41,0,3.447,-4.292,-1.721,-0.322,0.002,-0.010,1.004,0.000,0.000,0.000,0.3550,0,0,-0.71,0.24,-1.72,0.0503,-0.0216,0.3552,0.0000,0.0000,0.3000,0.2545,-4.81,2.27,42.43,1.0700,0.0340,1.7520,1.1060,2.3410,0,0.0371,-0.0013,0.0000,0.0371,-0.0013,0
11571,0.0277,-0.0507,0.3547,0.0022,-0.0375,0.0047,-0.12,0.06,-1.42,0,3.447,-4.614,0.180,-0.042,-0.001,-0.008,0.998,0.000,0.000,0.000,0.3550,0,0,-0.93,0.33,-1.73,0.0504,-0.0221,0.3556,0.2752,-0.0139,0.3000,0.2541,-8.11,-17.26,42.67,1.0620,0.0310,1.7580,1.1060,2.3370,0,0.0371,-0.0013,0.0000,0.0371,-0.0013,0
11622,0.0296,-0.0508,0.3550,0.0045,-0.0336,0.0049,-0.40,0.06,-1.41,0,3.447,-1.001,-1.473,0.398,0.000,-0.008,1.003,0.000,0.000,0.000,0.3540,0,-1,-1.17,0.33,-1.74,0.0502,-0.0223,0.3558,0.2752,-0.0139,0.3000,0.2540,-7.93,-17.04,42.24,1.0620,0.0310,1.7580,1.1020,2.3370,0,0.0371,-0.0013,0.0000,0.0371,-0.0013,0
11673,0.0298,-0.0524,0.3547,0.0041,-0.0304,0.0026,-0.43,0.06,-1.40,0,3.452,1.231,0.624,-0.041,0.002,-0.011,0.998,0.000,0.000,0.000,0.3530,0,0,-1.22,0.37,-1.72,0.0532,-0.0225,0.3557,0.2752,-0.0139,0.3000,0.2543,-7.88,-17.03,42.13,1.0700,0.0330,1.7540,1.1020,2.3430,0,0.0371,-0.0013,0.0000,0.0371,-0.0013,0
11725,0.0340,-0.0522,0.3541,0.0097,-0.0241,-0.0007,-0.47,0.06,-1.41,0,3.447,-0.308,0.044,-0.383,0.003,-0.016,1.002,0.000,0.000,0.000,0.3530,0,0,-1.15,0.33,-1.72,0.0537,-0.0222,0.3552,0.2752,-0.0139,0.3000,0.2548,-7.55,-16.48,42.23,1.0700,0.0330,1.7540,1.0980,2.3430,0,0.0371,-0.0013,0.0000,0.0371,-0.0013,0
11776,0.0383,-0.0503,0.3536,0.0152,-0.0155,-0.0029,-0.48,0.11,-1.42,0,3.447,2.975,-2.768,-0.577,0.003,-0.015,1.002,0.000,0.000,0.000,0.3520,0,0,-1.17,0.33,-1.74,0.0542,-0.0219,0.3547,0.2752,-0.0139,0.3000,0.2551,-6.99,-15.93,42.69,1.0600,0.0340,1.7520,1.0980,2.3460,0,0.0371,-0.0013,0.0000,0.0371,-0.0013,0
11827,0.0367,-0.0459,0.3529,0.0108,-0.0035,-0.0049,-0.43,0.24,-1.44,0,3.442,3.463,-1.707,-0.878,0.006,-0.013,1.003,0.000,0.000,0.000,0.3520,0,0,-1.02,0.47,-1.77,0.0545,-0.0213,0.3541,0.2752,-0.0139,0.3000,0.2554,-6.10,-16.21,43.06,1.0600,0.0340,1.7520,1.0970,2.3460,0,0.0371,-0.0013,0.0000,0.0371,-0.0013,0
11878,0.0398,-0.0427,0.3524,0.0130,0.0052,-0.0056,-0.26,0.24,-1.47,0,3.447,5.899,0.331,0.145,0.002,-0.012,1.005,0.000,0.000,0.000,0.3550,0,0,-0.84,0.56,-1.81,0.0548,-0.0207,0.3536,0.2752,-0.0139,0.3000,0.2556,-5.45,-15.89,44.03,1.0620,0.0330,1.7530,1.0970,2.3420,0,0.0371,-0.0013,0.0000,0.0371,-0.0013,0
11929,0.0437,-0.0399,0.3533,0.0161,0.0111,0.0022,-0.10,0.19,-1.48,0,3.447,3.544,-3.014,0.634,0.003,-0.015,1.003,0.000,0.000,0.000,0.3540,0,0,-0.54,0.54,-1.81,0.0549,-0.0199,0.3543,0.2752,-0.0139,0.3000,0.2546,-4.98,-15.56,44.30,1.0620,0.0330,1.7530,1.1080,2.3420,0,0.0371,-0.0013,0.0000,0.0371,-0.0013,0
11981,0.0427,-0.0404,0.3537,0.0119,0.0102,0.0046,0.14,0.24,-1.46,0,3.447,1.168,-2.046,-0.095,0.003,-0.013,0.995,0.000,0.000,0.000,0.3550,-1,0,-0.36,0.70,-1.77,0.0549,-0.0193,0.3545,0.2752,-0.0139,0.3000,0.2542,-5.07,-15.84,43.93,1.0620,0.0350,1.7530,1.1080,2.3400,0,0.0371,-0.0013,0.0000,0.0371,-0.0013,0
12033,0.0426,-0.0361,0.3544,0.0088,0.0153,0.0063,0.19,0.30,-1.46,0,3.442,2.921,-0.013,0.048,-0.001,-0.014,0.997,0.000,0.000,0.000,0.3530,0,1,-0.30,0.79,-1.78,0.0563,-0.0184,0.3549,0.2752,-0.0139,0.3000,0.2539,-4.51,-16.00,43.74,1.0620,0.0350,1.7530,1.1090,2.3400,0,0.0371,-0.0013,0.0000,0.0371,-0.0013,0
12085,0.0458,-0.0272,0.3540,0.0107,0.0266,0.0013,0.25,0.27,-1.46,0,3.447,2.048,0.801,-0.728,0.002,-0.010,0.997,0.000,0.000,0.000,0.3550,0,0,-0.15,0.80,-1.77,0.0554,-0.0182,0.3545,0.2752,-0.0139,0.3000,0.2545,-3.32,-15.67,43.93,1.0610,0.0340,1.7470,1.1090,2.3460,0,0.0371,-0.0013,0.0000,0.0371,-0.0013,0
12136,0.0464,-0.0275,0.3544,0.0087,0.0223,0.0022,0.45,0.21,-1.50,0,3.447,0.340,-2.056,-1.077,0.002,-0.011,0.999,0.000,0.000,0.000,0.3510,0,0,-0.04,0.76,-1.81,0.0545,-0.0181,0.3546,0.2752,-0.0139,0.3000,0.2543,-3.55,-15.73,45.07,1.0610,0.0340,1.7470,1.1140,2.3460,0,0.0371,-0.0013,0.0000,0.0371,-0.0013,0
12187,0.0464,-0.0231,0.3530,0.0060,0.0241,-0.0067,0.48,0.25,-1.52,0,3.447,1.036,-1.502,0.326,-0.001,-0.012,1.000,0.000,0.000,0.000,0.3510,0,0,-0.02,0.86,-1.86,0.0534,-0.0183,0.3535,0.2752,-0.0139,0.3000,0.2556,-3.12,-15.79,45.47,1.0580,0.0350,1.7560,1.1140,2.3460,0,0.0371,-0.0013,0.0000,0.0371,-0.0013,0
12238,0.0478,-0.0228,0.3519,0.0057,0.0185,-0.0113,0.54,0.27,-1.50,0,3.442,-1.211,1.656,1.346,0.003,-0.013,1.004,0.000,0.000,0.000,0.3520,0,1,0.03,0.94,-1.85,0.0519,-0.0187,0.3525,0.2752,-0.0139,0.3000,0.2563,-3.36,-15.67,44.98,1.0580,0.0350,1.7560,1.1200,2.3460,0,0.0371,-0.0013,0.0000,0.0371,-0.0013,0
12290,0.0494,-0.0224,0.3515,0.0056,0.0133,-0.0105,0.57,0.21,-1.44,0,3.447,-0.444,1.063,1.722,0.005,-0.014,0.995,0.000,0.000,0.000,0.3520,0,1,-0.06,0.83,-1.78,0.0528,-0.0173,0.3523,0.2752,-0.0139,0.3000,0.2563,-3.59,-15.57,43.23,1.0600,0.0320,1.7460,1.1200,2.3490,0,0.0371,-0.0013,0.0000,0.0371,-0.0013,0
12341,0.0502,-0.0236,0.3514,0.0047,0.0056,-0.0090,0.53,0.17,-1.39,0,3.436,-3.477,1.384,2.310,0.001,-0.010,1.001,0.000,0.000,0.000,0.3500,0,0,-0.08,0.78,-1.68,0.0509,-0.0176,0.3519,0.2752,-0.0139,0.3000,0.2561,-4.04,-15.57,41.57,1.0600,0.0320,1.7460,1.1180,2.3490,0,0.0371,-0.0013,0.0000,0.0371,-0.0013,0
12393,0.0500,-0.0269,0.3505,0.0028,-0.0049,-0.0115,0.43,0.12,-1.29,0,3.447,-2.183,-0.231,1.795,-0.001,-0.004,1.000,0.000,0.000,0.000,0.3500,2,0,-0.26,0.71,-1.56,0.0490,-0.0183,0.3510,0.2752,-0.0139,0.3000,0.2566,-4.78,-15.64,38.56,1.0600,0.0310,1.7530,1.1180,2.3420,0,0.0371,-0.0013,0.0000,0.0371,-0.0013,0
12445,0.0500,-0.0296,0.3499,0.0015,-0.0125,-0.0111,0.37,0.13,-1.17,0,3.442,-3.644,0.160,2.554,0.006,-0.014,1.004,0.000,0.000,0.000,0.3460,1,0,-0.34,0.69,-1.58,0.0494,-0.0226,0.3504,0.2752,-0.0139,0.3000,0.2566,-5.33,-15.70,35.00,1.0600,0.0310,1.7530,1.1140,2.3420,0,0.0371,-0.0013,0.0000,0.0371,-0.0013,0
12495,0.0501,-0.0295,0.3478,0.0003,-0.0136,-0.0176,0.19,0.12,-1.04,0,3.442,-4.790,2.558,2.846,0.003,-0.013,1.002,0.000,0.000,0.000,0.3510,0,-1,-0.53,0.67,-1.47,0.0484,-0.0251,0.3487,0.2752,-0.0139,0.3000,0.2577,-5.36,-15.69,31.08,1.0590,0.0360,1.7560,1.1140,2.3510,0,0.0371,-0.0013,0.0000,0.0371,-0.0013,0
12547,0.0493,-0.0322,0.3487,-0.0019,-0.0181,-0.0075,-0.07,0.02,-0.89,0,3.442,-3.124,0.840,2.082,0.003,-0.011,1.003,0.000,0.000,0.000,0.3450,0,0,-0.77,0.52,-1.34,0.0489,-0.0264,0.3490,0.2752,-0.0139,0.3000,0.2564,-5.79,-15.92,26.74,1.0590,0.0360,1.7560,1.1140,2.3510,0,0.0371,-0.0013,0.0000,0.0371,-0.0013,0
12597,0.0511,-0.0415,0.3469,0.0010,-0.0331,-0.0135,-0.11,-0.01,-0.81,0,3.442,-2.514,0.768,2.596,0.005,-0.011,1.003,0.000,0.000,0.000,0.3440,4,0,-0.94,0.48,-1.24,0.0477,-0.0281,0.3475,0.2752,-0.0139,0.3000,0.2574,-7.15,-15.61,24.43,1.0630,0.0320,1.7600,1.1140,2.3530,0,0.0371,-0.0013,0.0000,0.0371,-0.0013,0
12648,0.0501,-0.0413,0.3452,-0.0006,-0.0287,-0.0175,-0.20,-0.05,-0.69,0,3.436,-4.851,-0.604,2.977,0.000,-0.008,1.008,0.000,0.000,0.000,0.3440,0,0,-0.99,0.42,-1.23,0.0487,-0.0397,0.3460,0.2752,-0.0139,0.3000,0.2582,-6.90,-15.71,20.65,1.0630,0.0320,1.7600,1.1030,2.3530,0,0.0371,-0.0013,0.0000,0.0371,-0.0013,0
12700,0.0512,-0.0473,0.3441,0.0018,-0.0349,-0.0168,-0.41,-0.03,-0.54,0,3.442,-2.778,-0.962,3.520,0.002,-0.008,1.005,0.000,0.000,0.000,0.3470,0,0,-1.23,0.44,-1.08,0.0477,-0.0434,0.3451,0.2752,-0.0139,0.3000,0.2583,-7.62,-15.53,16.23,1.0590,0.0360,1.7680,1.1030,2.3460,0,0.0371,-0.0013,0.0000,0.0371,-0.0013,0
12751,0.0519,-0.0514,0.3449,0.0031,-0.0357,-0.0066,-0.55,0.02,-0.36,0,3.442,-0.861,-0.895,4.200,0.005,-0.014,1.008,0.000,0.000,0.000,0.3440,4,2,-1.38,0.49,-0.90,0.0465,-0.0467,0.3455,0.2752,-0.0139,0.3000,0.2571,-7.99,-15.50,10.79,1.0590,0.0360,1.7680,1.0980,2.3460,0,0.0371,-0.0013,0.0000,0.0371,-0.0013,0
12802,0.0549,-0.0502,0.3443,0.0084,-0.0253,-0.0051,-0.60,0.09,-0.13,0,3.442,1.076,-1.767,5.475,-0.000,-0.017,1.002,0.000,0.000,0.000,0.3470,0,0,-1.39,0.55,-0.72,0.0418,-0.0546,0.3450,0.2752,-0.0139,0.3000,0.2570,-7.41,-15.06,3.84,1.0610,0.0380,1.7710,1.0980,2.3510,0,0.0371,-0.0013,0.0000,0.0371,-0.0013,0
12853,0.0521,-0.0548,0.3454,0.0016,-0.0261,0.0026,-0.62,0.15,0.10,0,3.442,-0.445,-1.263,4.715,0.003,-0.012,1.002,0.000,0.000,0.000,0.3480,0,0,-1.34,0.64,-0.44,0.0396,-0.0584,0.3456,0.2752,-0.0139,0.3000,0.2560,-7.80,-15.62,-2.87,1.0610,0.0380,1.7710,1.0990,2.3510,0,0.0371,-0.0013,0.0000,0.0371,-0.0013,0
12904,0.0532,-0.0563,0.3466,0.0025,-0.0215,0.0095,-0.56,0.16,0.35,0,3.447,2.047,-0.135,5.933,-0.003,-0.012,0.996,0.000,0.000,0.000,0.3420,0,0,-1.36,0.70,-0.19,0.0372,-0.0619,0.3466,0.2752,-0.0139,0.3000,0.2550,-7.72,-15.57,-10.64,1.0660,0.0360,1.7670,1.0990,2.3550,0,0.0371,-0.0013,0.0000,0.0371,-0.0013,0
12955,0.0521,-0.0559,0.3449,-0.0012,-0.0143,-0.0027,-0.48,0.13,0.64,0,3.436,-2.760,0.898,4.754,0.003,-0.013,0.992,0.000,0.000,0.000,0.3420,0,0,-1.26,0.70,0.11,0.0344,-0.0651,0.3453,0.2752,-0.0139,0.3000,0.2566,-7.31,-15.71,-19.16,1.0660,0.0360,1.7670,1.0940,2.3550,0,0.0371,-0.0013,0.0000,0.0371,-0.0013,0
13006,0.0535,-0.0576,0.3435,0.0007,-0.0124,-0.0120,-0.42,0.09,0.87,0,3.442,-3.231,-0.813,4.528,-0.002,-0.017,0.999,0.000,0.000,0.000,0.3410,-2,1,-1.41,0.65,0.35,0.0314,-0.0681,0.3440,0.2752,-0.0139,0.3000,0.2579,-7.30,-15.47,-26.19,1.0790,0.0390,1.7730,1.0940,2.3550,0,0.0371,-0.0013,0.0000,0.0371,-0.0013,0
13057,0.0559,-0.0577,0.3420,0.0049,-0.0079,-0.0183,-0.47,0.10,1.07,0,3.431,0.849,-1.614,4.650,0.005,-0.013,1.002,0.000,0.000,0.000,0.3420,0,-1,-1.70,0.60,0.78,0.0400,-0.0523,0.3432,0.2752,-0.0139,0.3000,0.2589,-7.07,-15.06,-32.24,1.0790,0.0390,1.7730,1.1000,2.3550,0,0.0371,-0.0013,0.0000,0.0371,-0.0013,0
13109,0.0559,-0.0566,0.3414,0.0036,-0.0015,-0.0172,-0.35,0.12,1.28,0,3.436,1.399,-0.492,3.702,0.002,-0.014,1.002,0.000,0.000,0.000,0.3400,0,0,-1.65,0.67,1.03,0.0398,-0.0513,0.3424,0.2752,-0.0139,0.3000,0.2588,-6.69,-15.13,-38.50,1.0850,0.0400,1.7730,1.1000,2.3560,0,0.0371,-0.0013,0.0000,0.0371,-0.0013,0
13159,0.0571,-0.0561,0.3402,0.0044,0.0023,-0.0180,-0.25,0.16,1.47,0,3.431,2.645,-1.007,3.106,0.000,-0.011,1.005,0.000,0.000,0.000,0.3430,-1,0,-1.58,0.69,1.23,0.0386,-0.0499,0.3412,0.2752,-0.0139,0.3000,0.2591,-6.47,-15.00,-44.04,1.0850,0.0400,1.7730,1.1080,2.3560,0,0.0371,-0.0013,0.0000,0.0371,-0.0013,0
13210,0.0569,-0.0545,0.3409,0.0020,0.0074,-0.0084,-0.24,0.23,1.64,0,3.442,1.471,0.649,3.582,-0.000,-0.012,1.004,0.000,0.000,0.000,0.3390,1,0,-1.45,0.71,1.41,0.0388,-0.0482,0.3414,0.2752,-0.0139,0.3000,0.2580,-6.14,-15.18,-49.13,1.0970,0.0350,1.7730,1.1080,2.3560,0,0.0371,-0.0013,0.0000,0.0371,-0.0013,0
13261,0.0581,-0.0507,0.3398,0.0025,0.0160,-0.0097,-0.10,0.21,1.79,0,3.436,4.351,2.222,2.076,0.006,-0.011,0.999,0.000,0.000,0.000,0.3380,0,-1,-1.36,0.67,1.58,0.0380,-0.0481,0.3406,0.2752,-0.0139,0.3000,0.2583,-5.46,-15.07,-53.81,1.0970,0.0350,1.7730,1.1140,2.3560,0,0.0371,-0.0013,0.0000,0.0371,-0.0013,0
13313,0.0558,-0.0519,0.3387,-0.0042,0.0126,-0.0125,0.07,0.14,1.91,0,3.436,0.479,0.498,1.441,0.004,-0.014,1.001,0.000,0.000,0.000,0.3410,1,1,-1.13,0.54,1.70,0.0388,-0.0470,0.3395,0.2752,-0.0139,0.3000,0.2588,-5.69,-15.50,-57.18,1.1000,0.0370,1.7760,1.1140,2.3600,0,0.0371,-0.0013,0.0000,0.0371,-0.0013,0
13363,0.0574,-0.0494,0.3393,-0.0018,0.0158,-0.0060,0.09,0.13,1.99,0,3.431,1.548,0.552,0.525,0.003,-0.010,1.002,0.000,0.000,0.000,0.3430,1,0,-1.08,0.52,1.73,0.0366,-0.0480,0.3397,0.2752,-0.0139,0.3000,0.2580,-5.39,-15.33,-59.77,1.1000,0.0370,1.7760,1.1120,2.3600,0,0.0371,-0.0013,0.0000,0.0371,-0.0013,0
13415,0.0574,-0.0499,0.3408,-0.0023,0.0127,0.0041,0.15,0.10,2.04,0,3.442,1.918,-0.501,0.572,0.003,-0.014,0.997,0.000,0.000,0.000,0.3370,0,0,-0.98,0.49,1.74,0.0360,-0.0494,0.3405,0.2752,-0.0139,0.3000,0.2566,-5.60,-15.43,-61.21,1.1020,0.0380,1.7830,1.1120,2.3600,0,0.0371,-0.0013,0.0000,0.0371,-0.0013,0
13466,0.0577,-0.0510,0.3392,-0.0024,0.0081,-0.0050,0.24,0.09,2.08,0,3.431,-2.281,0.406,0.094,0.003,-0.011,1.001,0.000,0.000,0.000,0.3380,2,0,-0.88,0.51,1.77,0.0347,-0.0486,0.3392,0.2752,-0.0139,0.3000,0.2579,-5.86,-15.35,-62.27,1.1020,0.0380,1.7830,1.1170,2.3600,0,0.0371,-0.0013,0.0000,0.0371,-0.0013,0
13517,0.0577,-0.0494,0.3385,-0.0027,0.0086,-0.0085,0.17,0.08,2.09,0,3.436,-0.176,0.026,-0.139,0.003,-0.010,1.004,0.000,0.000,0.000,0.3340,0,0,-0.93,0.47,1.74,0.0367,-0.0570,0.3387,0.2752,-0.0139,0.3000,0.2584,-5.72,-15.33,-62.65,1.1030,0.0360,1.7870,1.1170,2.3640,0,0.0371,-0.0013,0.0000,0.0371,-0.0013,0
13567,0.0578,-0.0516,0.3363,-0.0029,0.0023,-0.0159,0.11,0.09,2.10,0,3.426,0.097,-0.560,-0.471,-0.001,-0.015,1.004,0.000,0.000,0.000,0.3300,0,0,-0.94,0.47,1.73,0.0358,-0.0580,0.3370,0.2752,-0.0139,0.3000,0.2596,-6.14,-15.27,-62.86,1.1030,0.0360,1.7870,1.1200,2.3640,0,0.0371,-0.0013,0.0000,0.0371,-0.0013,0
13619,0.0577,-0.0529,0.3330,-0.0035,-0.0015,-0.0270,0.12,0.10,2.08,0,3.431,-1.936,1.824,-0.244,0.002,-0.006,1.007,0.000,0.000,0.000,0.3360,0,0,-0.93,0.49,1.71,0.0347,-0.0590,0.3345,0.2752,-0.0139,0.3000,0.2615,-6.37,-15.20,-62.44,1.0990,0.0390,1.7820,1.1200,2.3600,0,0.0371,-0.0013,0.0000,0.0371,-0.0013,0
13670,0.0577,-0.0539,0.3335,-0.0039,-0.0042,-0.0147,-0.03,0.03,2.08,0,3.426,-1.926,1.308,0.188,0.005,-0.011,1.010,0.000,0.000,0.000,0.3280,0,0,-1.03,0.40,1.70,0.0334,-0.0596,0.3345,0.2752,-0.0139,0.3000,0.2600,-6.60,-15.31,-62.41,1.0990,0.0390,1.7820,1.1170,2.3600,0,0.0371,-0.0013,0.0000,0.0371,-0.0013,0
13721,0.0586,-0.0554,0.3309,-0.0017,-0.0066,-0.0218,-0.13,-0.03,2.07,0,3.431,1.597,-0.150,-0.112,0.004,-0.014,1.014,0.000,0.000,0.000,0.3350,0,0,-1.13,0.33,1.70,0.0321,-0.0601,0.3324,0.2752,-0.0139,0.3000,0.2613,-6.79,-15.08,-62.22,1.0980,0.0390,1.7820,1.1170,2.3630,0,0.0371,-0.0013,0.0000,0.0371,-0.0013,0
13771,0.0587,-0.0571,0.3321,-0.0013,-0.0084,-0.0058,-0.12,0.01,2.07,0,3.426,-2.945,0.299,0.248,0.005,-0.007,1.007,0.000,0.000,0.000,0.3310,0,0,-1.05,0.34,1.70,0.0307,-0.0604,0.3332,0.2752,-0.0139,0.3000,0.2593,-7.05,-15.17,-61.97,1.0980,0.0390,1.7820,1.1140,2.3630,0,0.0371,-0.0013,0.0000,0.0371,-0.0013,0
13823,0.0586,-0.0570,0.3315,-0.0014,-0.0062,-0.0024,-0.19,0.03,2.09,0,3.436,-0.622,-0.392,0.712,0.005,-0.012,1.011,0.000,0.000,0.000,0.3300,2,0,-1.20,0.32,1.71,0.0293,-0.0604,0.3328,0.2752,-0.0139,0.3000,0.2591,-6.94,-15.19,-62.57,1.0980,0.0400,1.7840,1.1140,2.3650,0,0.0371,-0.0013,0.0000,0.0371,-0.0013,0
13874,0.0586,-0.0573,0.3309,-0.0016,-0.0046,-0.0009,-0.14,0.00,2.08,0,3.426,-0.105,-0.710,-0.302,0.004,-0.010,1.011,0.000,0.000,0.000,0.3290,1,0,-1.19,0.30,1.75,0.0370,-0.0674,0.3324,0.2752,-0.0139,0.3000,0.2590,-6.89,-15.22,-62.51,1.0980,0.0400,1.7840,1.1160,2.3650,0,0.0371,-0.0013,0.0000,0.0371,-0.0013,0
13925,0.0588,-0.0601,0.3301,-0.0010,-0.0082,-0.0009,-0.15,-0.04,2.04,0,3.436,-1.290,0.701,-1.342,0.003,-0.011,1.005,0.000,0.000,0.000,0.3320,0,0,-1.19,0.34,1.73,0.0370,-0.0685,0.3320,0.2752,-0.0139,0.3000,0.2592,-7.26,-15.17,-61.26,1.0920,0.0400,1.7830,1.1160,2.3610,0,0.0371,-0.0013,0.0000,0.0371,-0.0013,0
13976,0.0590,-0.0618,0.3309,-0.0004,-0.0094,0.0061,-0.23,-0.08,1.99,0,3.426,1.667,0.001,-0.179,0.004,-0.008,1.004,0.000,0.000,0.000,0.3300,-1,0,-1.26,0.30,1.66,0.0368,-0.0689,0.3326,0.2752,-0.0139,0.3000,0.2583,-7.45,-15.18,-59.78,1.0920,0.0400,1.7830,1.1080,2.3610,0,0.0371,-0.0013,0.0000,0.0371,-0.0013,0
14028,0.0591,-0.0640,0.3308,0.0007,-0.0104,0.0062,-0.21,-0.10,1.95,0,3.431,-0.399,-1.840,-0.553,0.003,-0.010,1.008,0.000,0.000,0.000,0.3340,0,0,-1.19,0.30,1.66,0.0368,-0.0673,0.3325,0.2752,-0.0139,0.3000,0.2583,-7.66,-15.12,-58.65,1.0820,0.0400,1.7910,1.1080,2.3640,0,0.0371,-0.0013,0.0000,0.0371,-0.0013,0
14080,0.0603,-0.0607,0.3323,0.0037,-0.0018,0.0145,-0.23,-0.06,1.93,0,3.431,-0.494,-0.815,-0.009,0.001,-0.010,1.000,0.000,0.000,0.000,0.3320,0,0,-1.21,0.40,1.63,0.0365,-0.0666,0.3338,0.2752,-0.0139,0.3000,0.2571,-7.06,-14.98,-57.78,1.0820,0.0400,1.7910,1.1040,2.3640,0,0.0371,-0.0013,0.0000,0.0371,-0.0013,0
14132,0.0619,-0.0608,0.3326,0.0070,0.0002,0.0141,-0.26,-0.02,1.91,0,3.431,1.964,-1.437,-0.068,0.005,-0.010,0.999,0.000,0.000,0.000,0.3300,-7,-1,-1.24,0.44,1.63,0.0361,-0.0656,0.3341,0.2752,-0.0139,0.3000,0.2571,-6.96,-14.73,-57.37,1.0870,0.0410,1.7840,1.1040,2.3620,0,0.0371,-0.0013,0.0000,0.0371,-0.0013,0
14183,0.0648,-0.0664,0.3320,0.0120,-0.0088,0.0072,-0.21,0.00,1.91,0,3.426,-0.906,-2.266,1.193,0.002,-0.009,1.003,0.000,0.000,0.000,0.3310,0,1,-1.27,0.48,1.68,0.0389,-0.0492,0.3332,0.2752,-0.0139,0.3000,0.2579,-7.77,-14.27,-57.22,1.0870,0.0410,1.7840,1.1150,2.3620,0,0.0371,-0.0013,0.0000,0.0371,-0.0013,0
14234,0.0654,-0.0666,0.3318,0.0119,-0.0076,0.0039,-0.15,0.12,1.94,0,3.431,-0.994,-2.461,1.103,0.002,-0.012,1.002,0.000,0.000,0.000,0.3320,0,0,-1.30,0.60,1.73,0.0379,-0.0455,0.3333,0.2752,-0.0139,0.3000,0.2583,-7.71,-14.21,-58.22,1.0800,0.0400,1.7810,1.1150,2.3620,0,0.0371,-0.0013,0.0000,0.0371,-0.0013,0
14286,0.0675,-0.0659,0.3320,0.0139,-0.0044,0.0051,-0.21,0.19,2.00,0,3.426,-1.405,-1.498,2.350,0.002,-0.011,1.002,0.000,0.000,0.000,0.3340,0,0,-1.35,0.73,1.79,0.0376,-0.0400,0.3335,0.2752,-0.0139,0.3000,0.2582,-7.52,-13.99,-59.88,1.0800,0.0400,1.7810,1.1120,2.3620,0,0.0371,-0.0013,0.0000,0.0371,-0.0013,0
14337,0.0694,-0.0671,0.3330,0.0146,-0.0047,0.0102,-0.21,0.25,2.09,0,3.431,1.779,-0.675,2.368,0.001,-0.007,1.000,0.000,0.000,0.000,0.3360,0,0,-1.43,0.80,1.91,0.0369,-0.0343,0.3342,0.2752,-0.0139,0.3000,0.2574,-7.64,-13.88,-62.85,1.0860,0.0380,1.7850,1.1120,2.3680,0,0.0371,-0.0013,0.0000,0.0371,-0.0013,0
14389,0.0723,-0.0657,0.3346,0.0168,0.0002,0.0156,-0.18,0.29,2.21,0,3.431,-2.426,-0.597,2.987,0.001,-0.011,0.999,0.000,0.000,0.000,0.3330,0,0,-1.34,0.84,2.03,0.0359,-0.0281,0.3353,0.2752,-0.0139,0.3000,0.2565,-7.33,-13.63,-66.18,1.0860,0.0380,1.7850,1.1180,2.3680,0,0.0371,-0.0013,0.0000,0.0371,-0.0013,0
14440,0.0756,-0.0650,0.3344,0.0193,0.0028,0.0098,-0.20,0.33,2.34,0,3.431,3.662,-1.395,2.258,0.006,-0.010,0.998,0.000,0.000,0.000,0.3320,1,0,-1.47,0.86,2.19,0.0345,-0.0217,0.3352,0.2752,-0.0139,0.3000,0.2572,-7.15,-13.25,-70.30,1.0960,0.0400,1.7890,1.1180,2.3600,0,0.0371,-0.0013,0.0000,0.0371,-0.0013,0
14492,0.0755,-0.0657,0.3337,0.0143,0.0027,0.0031,-0.08,0.42,2.47,0,3.426,1.264,-1.127,2.406,0.004,-0.011,0.998,0.000,0.000,0.000,0.3360,0,0,-1.06,0.89,2.15,0.0400,-0.0470,0.3368,0.2752,-0.0139,0.3000,0.2580,-7.18,-13.44,-74.17,1.0960,0.0400,1.7890,1.1180,2.3600,0,0.0371,-0.0013,0.0000,0.0371,-0.0013,0
14543,0.0774,-0.0655,0.3348,0.0133,0.0039,0.0068,-0.12,0.46,2.61,0,3.431,0.291,0.508,3.300,0.004,-0.010,1.000,0.000,0.000,0.000,0.3350,-1,0,-1.00,0.95,2.28,0.0395,-0.0464,0.3372,0.2752,-0.0139,0.3000,0.2574,-7.12,-13.39,-78.32,1.1000,0.0430,1.7870,1.1180,2.3630,0,0.0371,-0.0013,0.0000,0.0371,-0.0013,0
14594,0.0750,-0.0694,0.3351,0.0038,-0.0031,0.0061,-0.15,0.44,2.78,0,3.426,0.731,1.391,3.148,0.004,-0.012,0.994,0.000,0.000,0.000,0.3340,0,0,-0.99,0.91,2.46,0.0394,-0.0449,0.3372,0.2752,-0.0139,0.3000,0.2575,-7.73,-13.99,-83.34,1.1000,0.0430,1.7870,1.1190,2.3630,0,0.0371,-0.0013,0.0000,0.0371,-0.0013,0
14645,0.0752,-0.0654,0.3348,0.0002,0.0056,0.0027,-0.07,0.39,2.93,0,3.431,0.826,1.182,2.803,0.003,-0.008,0.995,0.000,0.000,0.000,0.3350,-1,0,-0.96,0.84,2.62,0.0385,-0.0438,0.3365,0.2752,-0.0101,0.3000,0.2579,-7.29,-14.07,-87.91,1.1170,0.0410,1.7860,1.1190,2.3690,0,0.0371,-0.0013,0.0000,0.0371,-0.0013,0
14696,0.0738,-0.0598,0.3349,-0.0056,0.0164,0.0019,-0.07,0.31,3.07,0,3.426,3.393,2.009,2.514,0.002,-0.011,0.996,0.000,0.000,0.000,0.3340,0,1,-0.92,0.76,2.77,0.0386,-0.0421,0.3362,0.2751,-0.0063,0.3000,0.2579,-6.66,-14.36,-92.24,1.1170,0.0410,1.7860,1.1210,2.3690,0,0.0371,-0.0013,0.0000,0.0371,-0.0013,0
14748,0.0725,-0.0595,0.3346,-0.0103,0.0157,-0.0021,0.03,0.22,3.20,0,3.431,3.684,3.426,1.957,0.002,-0.011,0.997,0.000,0.000,0.000,0.3330,0,0,-0.75,0.66,2.89,0.0367,-0.0412,0.3354,0.2750,-0.0024,0.3000,0.2584,-6.93,-14.58,-95.94,1.1210,0.0390,1.7840,1.1210,2.3640,0,0.0371,-0.0013,0.0000,0.0371,-0.0013,0
14799,0.0696,-0.0608,0.3338,-0.0165,0.0115,-0.0070,0.19,0.08,3.30,0,3.421,-1.342,2.957,1.550,0.005,-0.009,1.000,0.000,0.000,0.000,0.3280,-1,1,-0.56,0.48,2.99,0.0351,-0.0399,0.3344,0.2747,0.0015,0.3000,0.2591,-7.46,-14.95,-99.11,1.1210,0.0390,1.7840,1.1310,2.3640,0,0.0371,-0.0013,0.0000,0.0371,-0.0013,0
14851,0.0674,-0.0611,0.3311,-0.0199,0.0083,-0.0205,0.20,-0.05,3.38,0,3.426,-1.034,3.327,0.671,0.005,-0.010,0.999,0.000,0.000,0.000,0.3330,0,0,-0.63,0.33,3.07,0.0334,-0.0383,0.3320,0.2745,0.0053,0.3000,0.2611,-7.84,-15.08,-101.43,1.1280,0.0390,1.7850,1.1310,2.3640,0,0.0371,-0.0013,0.0000,0.0371,-0.0013,0
14902,0.0650,-0.0597,0.3312,-0.0219,0.0084,-0.0153,0.16,-0.21,3.44,0,3.421,0.222,2.717,0.805,0.005,-0.012,1.004,0.000,0.000,0.000,0.3300,0,1,-0.68,0.16,3.10,0.0317,-0.0368,0.3317,0.2742,0.0091,0.3000,0.2605,-8.02,-15.28,-103.14,1.1280,0.0390,1.7850,1.1320,2.3640,0,0.0371,-0.0013,0.0000,0.0371,-0.0013,0
14953,0.0622,-0.0601,0.3303,-0.0234,0.0055,-0.0144,0.18,-0.35,3.48,0,3.426,-0.485,0.744,0.969,0.006,-0.005,1.003,0.000,0.000,0.000,0.3290,0,0,-0.65,0.02,3.13,0.0301,-0.0381,0.3307,0.2738,0.0129,0.3000,0.2606,-8.43,-15.46,-104.48,1.1320,0.0400,1.7830,1.1320,2.3640,0,0.0371,-0.0013,0.0000,0.0371,-0.0013,0
15004,0.0605,-0.0601,0.3293,-0.0215,0.0038,-0.0140,0.15,-0.42,3.53,0,3.421,0.157,-0.096,-0.883,0.001,-0.008,1.009,0.000,0.000,0.000,0.3280,0,0,-0.67,-0.02,3.18,0.0286,-0.0371,0.3297,0.2733,0.0167,0.3000,0.2607,-8.76,-15.41,-105.77,1.1320,0.0400,1.7830,1.1380,2.3640,0,0.0371,-0.0013,0.0000,0.0371,-0.0013,0
15055,0.0574,-0.0602,0.3284,-0.0221,0.0023,-0.0121,0.14,-0.40,3.51,0,3.426,-1.821,1.820,-0.982,-0.000,-0.008,1.007,0.000,0.000,0.000,0.3270,0,0,-0.66,-0.01,3.13,0.0271,-0.0360,0.3289,0.2728,0.0205,0.3000,0.2607,-9.10,-15.56,-105.25,1.1360,0.0400,1.7860,1.1380,2.3650,0,0.0371,-0.0013,0.0000,0.0371,-0.0013,0
15107,0.0555,-0.0601,0.3275,-0.0203,0.0013,-0.0101,0.09,-0.47,3.47,0,3.421,-1.636,0.083,-1.266,0.002,-0.010,1.004,0.000,0.000,0.000,0.3270,0,0,-0.76,-0.10,3.08,0.0256,-0.0348,0.3281,0.2723,0.0244,0.3000,0.2606,-9.41,-15.52,-104.12,1.1360,0.0400,1.7860,1.1260,2.3650,0,0.0371,-0.0013,0.0000,0.0371,-0.0013,0
15159,0.0534,-0.0599,0.3270,-0.0184,0.0010,-0.0073,0.02,-0.46,3.43,0,3.426,-0.567,0.059,-1.392,0.005,-0.010,1.007,0.000,0.000,0.000,0.3270,-1,0,-0.84,-0.11,3.02,0.0242,-0.0336,0.3276,0.2716,0.0282,0.3000,0.2604,-9.67,-15.50,-102.83,1.1280,0.0360,1.7820,1.1260,2.3740,0,0.0371,-0.0013,0.0000,0.0371,-0.0013,0
15211,0.0531,-0.0616,0.3268,-0.0136,-0.0022,-0.0043,0.03,-0.44,3.36,0,3.421,-0.028,-0.174,-1.030,0.004,-0.012,1.001,0.000,0.000,0.000,0.3290,0,0,-0.85,-0.14,2.94,0.0285,-0.0357,0.3274,0.2709,0.0321,0.3000,0.2601,-10.20,-15.23,-100.76,1.1280,0.0360,1.7820,1.1380,2.3740,0,0.0371,-0.0013,0.0000,0.0371,-0.0013,0
15263,0.0548,-0.0604,0.3277,-0.0053,-0.0000,0.0033,0.05,-0.43,3.29,0,3.426,-1.019,-2.063,-1.543,0.005,-0.011,0.999,0.000,0.000,0.000,0.3280,-2,0,-0.85,-0.13,2.88,0.0285,-0.0348,0.3279,0.2702,0.0359,0.3000,0.2591,-10.31,-14.71,-98.68,1.1250,0.0380,1.7860,1.1380,2.3660,0,0.0371,-0.0013,0.0000,0.0371,-0.0013,0
15314,0.0560,-0.0647,0.3279,0.0009,-0.0086,0.0034,-0.01,-0.32,3.20,0,3.426,0.097,-3.078,-2.195,0.001,-0.009,0.998,0.000,0.000,0.000,0.3280,0,0,-0.93,-0.02,2.78,0.0283,-0.0316,0.3280,0.2694,0.0397,0.3000,0.2591,-11.25,-14.25,-96.02,1.1250,0.0380,1.7860,1.1290,2.3660,0,0.0371,-0.0013,0.0000,0.0371,-0.0013,0
15366,0.0585,-0.0598,0.3281,0.0085,0.0015,0.0045,-0.03,-0.20,3.10,0,3.426,-1.129,-2.427,-1.950,0.005,-0.009,0.996,0.000,0.000,0.000,0.3270,0,-1,-0.92,0.14,2.67,0.0284,-0.0298,0.3280,0.2686,0.0434,0.3000,0.2589,-10.70,-13.64,-93.12,1.1210,0.0430,1.7810,1.1290,2.3670,0,0.0371,-0.0013,0.0000,0.0371,-0.0013,0
15417,0.0591,-0.0600,0.3278,0.0104,0.0013,0.0013,-0.02,-0.10,3.02,0,3.421,-1.501,-1.158,-1.267,0.002,-0.006,0.996,0.000,0.000,0.000,0.3270,0,0,-0.95,0.25,2.59,0.0304,-0.0302,0.3276,0.2676,0.0471,0.3000,0.2593,-10.95,-13.39,-90.53,1.1210,0.0430,1.7810,1.1300,2.3670,0,0.0371,-0.0013,0.0000,0.0371,-0.0013,0
15468,0.0636,-0.0581,0.3275,0.0189,0.0051,-0.0017,-0.07,-0.02,2.95,0,3.426,-1.592,-2.838,-0.755,0.005,-0.007,0.999,0.000,0.000,0.000,0.3280,0,0,-1.03,0.31,2.53,0.0311,-0.0287,0.3272,0.2667,0.0509,0.3000,0.2597,-10.87,-12.57,-88.65,1.1160,0.0420,1.7740,1.1300,2.3740,0,0.0371,-0.0013,0.0000,0.0371,-0.0013,0
15519,0.0651,-0.0590,0.3276,0.0203,0.0034,-0.0016,-0.12,0.12,2.91,0,3.421,0.747,-2.960,-0.657,0.002,-0.014,0.994,0.000,0.000,0.000,0.3250,1,-1,-1.11,0.45,2.49,0.0317,-0.0269,0.3271,0.2657,0.0545,0.3000,0.2597,-11.26,-12.28,-87.22,1.1160,0.0420,1.7740,1.1300,2.3740,0,0.0371,-0.0013,0.0000,0.0371,-0.0013,0
15570,0.0672,-0.0604,0.3264,0.0213,0.0013,-0.0090,-0.08,0.25,2.87,0,3.421,0.088,-1.232,-0.478,0.002,-0.004,1.001,0.000,0.000,0.000,0.3240,1,0,-1.01,0.59,2.48,0.0339,-0.0327,0.3262,0.2646,0.0582,0.3000,0.2607,-11.64,-11.93,-86.08,1.1140,0.0470,1.7810,1.1300,2.3780,0,0.0371,-0.0013,0.0000,0.0371,-0.0013,0
15621,0.0709,-0.0593,0.3251,0.0244,0.0046,-0.0145,-0.10,0.30,2.84,0,3.415,-2.795,-1.090,-0.889,0.003,-0.009,1.006,0.000,0.000,0.000,0.3270,0,0,-0.99,0.66,2.46,0.0343,-0.0336,0.3251,0.2634,0.0619,0.3000,0.2615,-11.61,-11.38,-85.29,1.1140,0.0470,1.7810,1.1320,2.3780,0,0.0371,-0.0013,0.0000,0.0371,-0.0013,0
15673,0.0706,-0.0581,0.3255,0.0191,0.0075,-0.0075,-0.25,0.38,2.81,0,3.426,1.117,-1.392,-0.367,0.005,-0.011,1.005,0.000,0.000,0.000,0.3250,-1,0,-1.13,0.72,2.42,0.0347,-0.0333,0.3253,0.2622,0.0656,0.3000,0.2607,-11.67,-11.54,-84.44,1.1120,0.0410,1.7720,1.1320,2.3770,0,0.0371,-0.0013,0.0000,0.0371,-0.0013,0
15725,0.0706,-0.0576,0.3251,0.0139,0.0097,-0.0061,-0.23,0.45,2.79,0,3.415,2.447,2.400,-0.721,0.003,-0.008,1.000,0.000,0.000,0.000,0.3260,0,0,-1.09,0.79,2.41,0.0345,-0.0311,0.3250,0.2610,0.0693,0.3000,0.2606,-11.77,-11.65,-83.74,1.1120,0.0410,1.7720,1.1330,2.3770,0,0.0371,-0.0013,0.0000,0.0371,-0.0013,0
15776,0.0708,-0.0550,0.3253,0.0092,0.0155,-0.0026,-0.07,0.37,2.74,0,3.421,3.340,0.881,-1.057,0.004,-0.014,1.003,0.000,0.000,0.000,0.3210,-1,0,-0.96,0.67,2.37,0.0343,-0.0298,0.3251,0.2597,0.0729,0.3000,0.2602,-11.58,-11.73,-82.16,1.1160,0.0460,1.7750,1.1330,2.3740,0,0.0371,-0.0013,0.0000,0.0371,-0.0013,0
15828,0.0714,-0.0530,0.3234,0.0063,0.0184,-0.0110,0.03,0.28,2.69,0,3.415,2.306,1.404,-1.511,0.004,-0.017,1.001,0.000,0.000,0.000,0.3210,1,1,-0.80,0.62,2.31,0.0345,-0.0280,0.3237,0.2583,0.0765,0.3000,0.2615,-11.49,-11.63,-80.63,1.1160,0.0460,1.7750,1.1360,2.3740,0,0.0371,-0.0013,0.0000,0.0371,-0.0013,0
15880,0.0717,-0.0513,0.3221,0.0041,0.0195,-0.0148,0.18,0.23,2.62,0,3.415,1.393,1.406,-1.252,0.007,-0.013,1.003,0.000,0.000,0.000,0.3220,0,0,-0.66,0.56,2.22,0.0327,-0.0291,0.3226,0.2568,0.0801,0.3000,0.2621,-11.52,-11.54,-78.68,1.1120,0.0420,1.7700,1.1360,2.3750,0,0.0371,-0.0013,0.0000,0.0371,-0.0013,0
15930,0.0700,-0.0532,0.3216,-0.0017,0.0119,-0.0119,0.29,0.18,2.54,0,3.415,-3.464,1.759,-1.347,0.005,-0.006,1.007,0.000,0.000,0.000,0.3250,4,0,-0.58,0.48,2.16,0.0319,-0.0284,0.3222,0.2554,0.0836,0.3000,0.2619,-12.22,-11.79,-76.35,1.1120,0.0420,1.7700,1.1380,2.3750,0,0.0371,-0.0013,0.0000,0.0371,-0.0013,0
15982,0.0703,-0.0485,0.3228,-0.0023,0.0184,0.0005,0.25,0.09,2.45,0,3.421,-0.996,0.554,-1.082,0.004,-0.010,1.003,0.000,0.000,0.000,0.3170,0,0,-0.65,0.38,2.02,0.0332,-0.0413,0.3231,0.2539,0.0872,0.3000,0.2603,-11.89,-11.71,-73.49,1.1090,0.0460,1.7750,1.1380,2.3730,0,0.0371,-0.0013,0.0000,0.0371,-0.0013,0
16032,0.0695,-0.0481,0.3204,-0.0044,0.0159,-0.0095,0.19,0.08,2.38,0,3.415,2.487,0.511,-2.561,0.002,-0.012,1.004,0.000,0.000,0.000,0.3210,0,0,-0.70,0.36,1.97,0.0327,-0.0436,0.3213,0.2523,0.0906,0.3000,0.2619,-12.12,-11.64,-71.41,1.1090,0.0460,1.7750,1.1380,2.3730,0,0.0371,-0.0013,0.0000,0.0371,-0.0013,0
16083,0.0692,-0.0432,0.3204,-0.0052,0.0230,-0.0048,0.26,0.03,2.28,0,3.421,0.629,2.066,-1.570,0.000,-0.009,1.000,0.000,0.000,0.000,0.3180,-4,0,-0.58,0.33,1.84,0.0321,-0.0459,0.3212,0.2507,0.0941,0.3000,0.2613,-11.70,-11.56,-68.36,1.1070,0.0440,1.7720,1.1380,2.3720,0,0.0371,-0.0013,0.0000,0.0371,-0.0013,0
16135,0.0684,-0.0416,0.3193,-0.0065,0.0220,-0.0075,0.28,-0.08,2.20,0,3.415,1.993,1.080,-2.209,0.002,-0.010,1.009,0.000,0.000,0.000,0.3170,0,-1,-0.69,0.21,1.79,0.0333,-0.0276,0.3207,0.2490,0.0976,0.3000,0.2618,-11.83,-11.50,-65.98,1.1070,0.0440,1.7720,1.1410,2.3720,0,0.0371,-0.0013,0.0000,0.0371,-0.0013,0
16186,0.0673,-0.0371,0.3181,-0.0074,0.0263,-0.0088,0.42,-0.13,2.11,0,3.415,-0.521,1.240,-0.642,0.003,-0.010,1.003,0.000,0.000,0.000,0.3170,0,0,-0.58,0.14,1.67,0.0344,-0.0263,0.3197,0.2472,0.1010,0.3000,0.2622,-11.53,-11.44,-63.39,1.1020,0.0420,1.7730,1.1410,2.3780,0,0.0371,-0.0013,0.0000,0.0371,-0.0013,0
16237,0.0673,-0.0374,0.3174,-0.0058,0.0196,-0.0088,0.45,-0.13,2.07,0,3.415,-2.396,-0.071,-0.363,0.003,-0.011,1.009,0.000,0.000,0.000,0.3150,1,-1,-0.60,0.08,1.63,0.0344,-0.0244,0.3189,0.2455,0.1043,0.3000,0.2623,-12.05,-11.20,-62.24,1.1020,0.0420,1.7730,1.1340,2.3780,0,0.0371,-0.0013,0.0000,0.0371,-0.0013,0
16287,0.0648,-0.0354,0.3161,-0.0095,0.0183,-0.0117,0.42,-0.13,2.05,0,3.415,-1.338,1.207,-1.383,0.001,-0.009,1.005,0.000,0.000,0.000,0.3170,2,1,-0.68,0.06,1.61,0.0372,-0.0284,0.3181,0.2436,0.1077,0.3000,0.2629,-12.15,-11.35,-61.38,1.1000,0.0440,1.7680,1.1340,2.3780,0,0.0371,-0.0013,0.0000,0.0371,-0.0013,0
16339,0.0649,-0.0358,0.3162,-0.0071,0.0122,-0.0058,0.40,-0.16,2.00,0,3.410,-2.842,0.201,-1.899,0.005,-0.006,1.008,0.000,0.000,0.000,0.3160,3,0,-0.72,0.02,1.56,0.0361,-0.0313,0.3180,0.2417,0.1110,0.3000,0.2623,-12.68,-11.08,-60.15,1.1000,0.0440,1.7680,1.1380,2.3780,0,0.0371,-0.0013,0.0000,0.0371,-0.0013,0
16390,0.0641,-0.0365,0.3160,-0.0066,0.0068,-0.0030,0.28,-0.16,1.90,0,3.415,-3.581,-1.501,-1.649,0.006,-0.011,1.003,0.000,0.000,0.000,0.3130,1,-2,-0.82,0.01,1.48,0.0364,-0.0368,0.3177,0.2398,0.1143,0.3000,0.2620,-13.18,-10.95,-57.14,1.0880,0.0460,1.7720,1.1380,2.3780,0,0.0371,-0.0013,0.0000,0.0371,-0.0013,0
16441,0.0638,-0.0372,0.3146,-0.0051,0.0028,-0.0063,0.13,-0.14,1.83,0,3.410,-1.247,-1.246,-2.526,0.003,-0.007,1.009,0.000,0.000,0.000,0.3160,0,1,-0.99,0.06,1.39,0.0406,-0.0392,0.3165,0.2378,0.1176,0.3000,0.2626,-13.57,-10.70,-54.79,1.0880,0.0460,1.7720,1.1380,2.3780,0,0.0371,-0.0013,0.0000,0.0371,-0.0013,0
16491,0.0654,-0.0381,0.3151,-0.0005,-0.0003,0.0001,0.01,-0.05,1.73,0,3.415,1.776,-0.525,-2.801,0.005,-0.006,1.006,0.000,0.000,0.000,0.3180,0,1,-1.06,0.15,1.27,0.0388,-0.0396,0.3167,0.2358,0.1208,0.3000,0.2618,-13.99,-10.24,-51.79,1.0910,0.0440,1.7620,1.1380,2.3790,0,0.0371,-0.0013,0.0000,0.0371,-0.0013,0
16543,0.0652,-0.0381,0.3164,-0.0003,-0.0002,0.0094,0.02,-0.02,1.57,0,3.415,-1.294,0.472,-2.309,0.003,-0.009,1.004,0.000,0.000,0.000,0.3180,0,0,-0.98,0.20,1.13,0.0367,-0.0399,0.3176,0.2337,0.1241,0.3000,0.2606,-14.24,-10.10,-47.06,1.0910,0.0440,1.7620,1.1320,2.3790,0,0.0371,-0.0013,0.0000,0.0371,-0.0013,0
16594,0.0645,-0.0377,0.3174,-0.0016,0.0005,0.0135,-0.04,-0.04,1.47,0,3.421,-0.475,0.001,-2.974,0.006,-0.010,0.994,0.000,0.000,0.000,0.3190,1,-1,-1.05,0.17,1.01,0.0368,-0.0403,0.3184,0.2316,0.1272,0.3000,0.2599,-14.40,-10.05,-44.06,1.0810,0.0390,1.7610,1.1320,2.3820,0,0.0371,-0.0013,0.0000,0.0371,-0.0013,0
16645,0.0654,-0.0377,0.3186,0.0009,0.0009,0.0150,-0.03,-0.04,1.32,0,3.410,0.166,-0.216,-2.923,0.004,-0.003,0.994,0.000,0.000,0.000,0.3170,0,0,-1.05,0.15,0.87,0.0405,-0.0438,0.3191,0.2294,0.1303,0.3000,0.2595,-14.59,-9.70,-39.58,1.0810,0.0390,1.7610,1.1330,2.3820,0,0.0371,-0.0013,0.0000,0.0371,-0.0013,0
16696,0.0660,-0.0379,0.3183,0.0022,0.0007,0.0090,-0.02,0.02,1.18,0,3.421,-0.559,-0.873,-3.366,0.003,-0.007,0.993,0.000,0.000,0.000,0.3180,0,0,-1.04,0.17,0.72,0.0414,-0.0443,0.3188,0.2271,0.1335,0.3000,0.2602,-14.75,-9.37,-35.40,1.0750,0.0450,1.7600,1.1330,2.3800,0,0.0371,-0.0013,0.0000,0.0371,-0.0013,0
16747,0.0678,-0.0379,0.3184,0.0060,0.0009,0.0056,-0.03,0.04,1.04,0,3.415,0.268,-0.001,-3.381,0.006,-0.008,0.995,0.000,0.000,0.000,0.3190,0,0,-1.07,0.22,0.55,0.0423,-0.0445,0.3186,0.2249,0.1365,0.3000,0.2606,-14.90,-8.86,-31.12,1.0750,0.0450,1.7600,1.1300,2.3800,0,0.0371,-0.0013,0.0000,0.0371,-0.0013,0
16798,0.0681,-0.0378,0.3188,0.0057,0.0011,0.0049,-0.02,0.05,0.89,0,3.415,0.279,-2.174,-3.049,0.005,-0.005,0.996,0.000,0.000,0.000,0.3170,-2,0,-1.05,0.22,0.38,0.0433,-0.0445,0.3187,0.2225,0.1396,0.3000,0.2606,-15.06,-8.65,-26.77,1.0700,0.0440,1.7600,1.1300,2.3810,0,0.0371,-0.0013,0.0000,0.0371,-0.0013,0
16850,0.0689,-0.0365,0.3182,0.0065,0.0040,-0.0011,-0.06,0.11,0.74,0,3.410,1.077,-1.219,-3.117,0.003,-0.007,1.002,0.000,0.000,0.000,0.3170,0,0,-1.07,0.36,0.21,0.0399,-0.0387,0.3180,0.2201,0.1427,0.3000,0.2614,-14.97,-8.33,-22.14,1.0700,0.0440,1.7600,1.1310,2.3810,0,0.0371,-0.0013,0.0000,0.0371,-0.0013,0
16902,0.0672,-0.0335,0.3176,0.0008,0.0108,-0.0035,-0.04,0.21,0.59,0,3.415,2.926,2.857,-2.938,0.005,-0.009,1.000,0.000,0.000,0.000,0.3200,-1,0,-1.01,0.42,0.04,0.0400,-0.0370,0.3175,0.2176,0.1457,0.3000,0.2617,-14.62,-8.48,-17.62,1.0640,0.0440,1.7590,1.1310,2.3850,0,0.0371,-0.0013,0.0000,0.0371,-0.0013,0
16953,0.0672,-0.0330,0.3185,-0.0007,0.0108,0.0013,0.09,0.09,0.43,0,3.410,2.736,-0.282,-2.373,0.005,-0.008,0.998,0.000,0.000,0.000,0.3190,0,0,-0.86,0.28,-0.11,0.0400,-0.0355,0.3181,0.2152,0.1486,0.3000,0.2610,-14.78,-8.37,-12.83,1.0640,0.0440,1.7590,1.1290,2.3850,0,0.0371,-0.0013,0.0000,0.0371,-0.0013,0
17005,0.0684,-0.0327,0.3188,0.0015,0.0091,0.0024,0.20,0.02,0.28,0,3.415,-6.244,87.596,-1.287,-0.005,-0.013,0.993,0.000,0.000,0.000,0.3190,1,15,-0.72,0.29,-0.23,0.0400,-0.0335,0.3182,0.2126,0.1515,0.3000,0.2609,-15.01,-7.97,-8.34,1.0590,0.0410,1.7540,1.1290,2.3800,0,0.0371,-0.0013,0.0000,0.0371,-0.0013,0
17056,0.0731,-0.0291,0.3189,0.0153,0.0152,0.0010,-0.07,-3.23,0.20,0,3.410,-3.748,119.003,-3.238,0.009,-0.004,1.002,0.000,0.000,0.000,0.3150,0,6,-1.00,-3.96,-0.35,0.0051,-0.0365,0.3214,0.2101,0.1544,0.3000,0.2610,-14.65,-6.78,-6.06,1.0590,0.0410,1.7540,1.1280,2.3800,0,0.0371,-0.0013,0.0000,0.0371,-0.0013,0
17107,0.0643,-0.0271,0.3173,0.0308,0.0192,-0.0103,-0.35,-9.21,0.00,0,3.410,7.331,29.816,-3.339,0.012,-0.007,1.002,0.000,0.000,0.000,0.3210,-2,0,-1.22,-9.98,-0.62,-0.0074,-0.0359,0.3201,0.2075,0.1572,0.3000,0.2625,-14.42,-6.42,-0.13,1.0110,0.0230,1.7240,1.1280,2.4260,0,0.0371,-0.0013,0.0000,0.0371,-0.0013,0
17158,0.0657,-0.0269,0.3182,0.1099,0.0200,-0.0096,-0.14,-11.48,-0.19,0,3.410,-1.051,-1.316,-1.845,0.001,-0.008,1.001,0.000,0.000,0.000,0.3200,-2,-5,-0.95,-11.51,-1.02,-0.0092,-0.0322,0.3199,0.2048,0.1600,0.3000,0.2623,-14.53,-2.40,5.82,1.0110,0.0230,1.7240,1.1300,2.4260,0,0.0371,-0.0013,0.0000,0.0371,-0.0013,0
17209,0.0738,-0.0272,0.3181,0.2080,0.0174,-0.0164,-0.06,-11.56,-0.31,0,3.410,-0.953,-2.720,-2.390,-0.002,-0.005,1.004,0.000,0.000,0.000,0.3230,-1,-6,-1.09,-11.51,-1.38,0.0008,-0.0279,0.3174,0.2021,0.1627,0.3000,0.2630,-14.77,3.02,9.37,0.9780,0.0210,1.6990,1.1300,2.4420,0,0.0371,-0.0013,0.0000,0.0371,-0.0013,0
17260,0.0898,-0.0264,0.3192,0.3132,0.0172,-0.0148,-0.11,-11.45,-0.43,0,3.410,2.466,-28.265,-3.399,-0.003,-0.003,1.009,0.000,0.000,0.000,0.3180,0,-12,-1.17,-11.42,-1.50,0.0162,-0.0250,0.3158,0.1994,0.1654,0.3000,0.2626,-14.89,9.26,12.97,0.9780,0.0210,1.6990,1.1400,2.4420,0,0.0371,-0.0013,0.0000,0.0371,-0.0013,0
17312,0.1086,-0.0264,0.3178,0.4115,0.0150,-0.0221,-0.02,-10.34,-0.58,0,3.410,0.814,-50.248,-2.771,-0.011,-0.011,1.010,0.000,0.000,0.000,0.3160,0,-10,-0.98,-10.10,-1.27,0.0473,-0.0247,0.3100,0.1966,0.1680,0.3000,0.2637,-15.07,15.11,17.25,0.9510,0.0200,1.6120,1.1400,2.4420,0,0.0371,-0.0013,0.0000,0.0371,-0.0013,0
17363,0.1353,-0.0280,0.3162,0.5059,0.0086,-0.0266,0.02,-7.94,-0.71,0,3.405,-4.254,-54.120,-2.117,-0.019,-0.004,1.021,0.000,0.000,0.000,0.3180,-4,-8,-0.88,-7.52,-1.03,0.0762,-0.0244,0.3075,0.1938,0.1707,0.3000,0.2645,-15.55,20.96,21.30,0.9510,0.0200,1.6120,1.1430,2.4420,0,0.0371,-0.0013,0.0000,0.0371,-0.0013,0
17414,0.1618,-0.0185,0.3162,0.5691,0.0297,-0.0156,-0.34,-5.16,-0.96,0,3.410,3.317,-56.233,-2.667,-0.016,-0.009,1.024,0.000,0.000,0.000,0.3080,-5,-18,-1.26,-4.75,-2.06,0.1039,-0.0153,0.3089,0.1910,0.1732,0.3000,0.2633,-14.19,25.00,28.72,0.9120,0.0230,1.4600,1.1430,2.4150,0,0.0371,-0.0013,0.0000,0.0371,-0.0013,0
17465,0.1876,-0.0090,0.3123,0.6010,0.0503,-0.0222,-0.36,-2.40,-1.15,0,3.399,18.008,-52.975,-5.357,-0.018,-0.007,1.022,0.000,0.000,0.000,0.3000,-2,-10,-1.21,-2.03,-3.04,0.1567,-0.0047,0.3015,0.1881,0.1757,0.3000,0.2647,-12.71,25.00,34.56,0.9120,0.0230,1.4600,1.1720,2.4150,0,0.0371,-0.0013,0.0000,0.0371,-0.0013,0
17517,0.2189,-0.0065,0.3064,0.6203,0.0518,-0.0370,0.45,0.32,-1.34,0,3.399,12.912,-44.500,-6.156,-0.018,-0.010,1.023,0.000,0.000,0.000,0.3020,-9,-16,-0.28,0.70,-3.15,0.1878,0.0000,0.3006,0.1851,0.1783,0.3000,0.2674,-12.47,25.00,40.07,0.8610,0.0380,1.3860,1.1720,2.3990,0,0.0371,-0.0013,0.0000,0.0371,-0.0013,0
17569,0.2453,0.0002,0.3035,0.6028,0.0571,-0.0326,1.05,2.64,-1.76,0,3.399,9.942,-38.755,-8.677,-0.019,-0.009,1.027,0.000,0.000,0.000,0.3030,-18,-14,0.33,2.90,-4.70,0.2381,0.0201,0.2963,0.1821,0.1807,0.3000,0.2675,-11.91,25.00,52.68,0.8610,0.0380,1.3860,1.2140,2.3990,0,0.0371,-0.0013,0.0000,0.0371,-0.0013,0
17620,0.2719,0.0151,0.3025,0.5675,0.0780,-0.0184,1.34,4.65,-2.32,0,3.399,26.774,-27.365,-10.043,-0.016,-0.009,1.030,0.000,0.000,0.000,0.3080,-2,-8,0.75,4.80,-7.03,0.2858,0.0627,0.2925,0.1791,0.1831,0.3000,0.2662,-10.16,25.00,69.62,0.7990,0.0540,1.3440,1.2140,2.4010,0,0.0371,-0.0013,0.0000,0.0371,-0.0013,0
17672,0.3001,0.0219,0.3046,0.5245,0.0717,0.0086,2.68,6.20,-2.81,0,3.405,20.976,-17.756,-9.217,-0.013,-0.013,1.021,0.000,0.000,0.000,0.3120,37,-8,2.22,6.24,-7.30,0.3146,0.0678,0.2995,0.1760,0.1855,0.3000,0.2629,-10.22,25.00,84.32,0.7990,0.0540,1.3440,1.2200,2.4010,0,0.0371,-0.0013,0.0000,0.0371,-0.0013,0
17723,0.3178,-0.0225,0.3082,0.4480,-0.0781,0.0288,4.87,7.15,-3.32,0,3.410,-41.767,-3.366,-7.506,-0.008,-0.015,1.012,0.000,0.000,0.000,0.3130,2,-2,4.10,7.19,-7.52,0.3322,-0.0416,0.3150,0.1730,0.1877,0.3000,0.2600,-20.01,25.00,99.52,0.7410,0.0530,1.3240,1.2200,2.4190,0,0.0371,-0.0013,0.0000,0.0371,-0.0013,0
17774,0.3348,-0.0679,0.3108,0.3733,-0.2196,0.0320,3.54,7.42,-3.75,0,3.410,-86.047,6.267,-3.673,-0.011,-0.005,1.011,0.000,0.000,0.000,0.3090,13,-3,1.95,7.47,-7.52,0.3375,-0.0473,0.3186,0.1698,0.1900,0.3000,0.2592,-25.00,25.00,112.63,0.7410,0.0530,1.3240,1.1970,2.4190,0,0.0371,-0.0013,0.0000,0.0371,-0.0013,0
17825,0.3490,-0.0698,0.3112,0.3011,-0.2140,0.0258,-0.57,7.24,-3.97,0,3.415,-40.033,10.929,-1.430,0.001,-0.002,1.005,0.000,0.000,0.000,0.3120,16,-3,-2.14,7.20,-8.40,0.3400,-0.0919,0.3156,0.1667,0.1922,0.3000,0.2598,-25.00,25.00,119.11,0.6970,0.0480,1.2940,1.1970,2.4030,0,0.0371,-0.0013,0.0000,0.0371,-0.0013,0
17876,0.3605,-0.0677,0.3125,0.2348,-0.1654,0.0258,-3.17,6.74,-4.02,0,3.405,-14.514,15.481,-0.076,-0.001,-0.006,1.002,0.000,0.000,0.000,0.3110,0,-1,-3.79,6.73,-9.85,0.3416,-0.1492,0.3127,0.1635,0.1943,0.3000,0.2595,-25.00,25.00,120.59,0.6970,0.0480,1.2940,1.3060,2.4030,0,0.0371,-0.0013,0.0000,0.0371,-0.0013,0
17928,0.3712,-0.0747,0.3126,0.1800,-0.1288,0.0168,-4.16,5.99,-3.99,0,3.410,-16.672,19.865,1.243,0.004,-0.011,0.996,0.000,0.000,0.000,0.3150,0,0,-4.75,5.91,-8.96,0.3440,-0.1453,0.3162,0.1602,0.1965,0.3000,0.2605,-25.00,24.70,119.71,0.6660,0.0470,1.2960,1.3060,2.4080,0,0.0371,-0.0013,0.0000,0.0371,-0.0013,0
17980,0.3790,-0.0720,0.3141,0.1335,-0.0669,0.0145,-4.99,5.04,-3.97,0,3.405,2.219,13.868,1.765,0.002,-0.008,1.002,0.000,0.000,0.000,0.3110,-3,1,-5.61,4.88,-8.99,0.3471,-0.1601,0.3171,0.1569,0.1986,0.3000,0.2604,-23.03,23.55,119.15,0.6660,0.0470,1.2960,1.3590,2.4080,0,0.0371,-0.0013,0.0000,0.0371,-0.0013,0
18032,0.3827,-0.0793,0.3131,0.0993,-0.0452,0.0034,-4.95,4.33,-4.00,0,3.405,14.140,13.532,2.752,0.003,-0.010,0.995,0.000,0.000,0.000,0.3080,0,1,-5.96,4.04,-6.71,0.3403,-0.1104,0.3174,0.1536,0.2006,0.3000,0.2618,-22.58,22.51,120.04,0.6500,0.0400,1.2880,1.3590,2.4040,0,0.0371,-0.0013,0.0000,0.0371,-0.0013,0
18084,0.3875,-0.0623,0.3109,0.0661,0.0484,-0.0128,-4.51,3.60,-3.75,0,3.399,15.136,19.452,1.813,0.002,-0.010,1.008,0.000,0.000,0.000,0.3070,-4,2,-5.23,3.34,-6.64,0.3377,-0.1100,0.3148,0.1502,0.2026,0.3000,0.2640,-17.57,21.53,112.59,0.6500,0.0400,1.2880,1.3620,2.4040,0,0.0371,-0.0013,0.0000,0.3391,-0.1097,0
18135,0.3906,-0.0545,0.3088,0.0391,0.1008,-0.0221,-3.90,2.68,-3.65,0,3.399,34.454,13.896,3.104,0.005,-0.011,1.010,0.000,0.000,0.000,0.3020,-18,0,-4.51,2.31,-6.27,0.3335,-0.0968,0.3114,0.1469,0.2045,0.3000,0.2654,-14.81,20.75,109.60,0.6450,0.0310,1.2790,1.3620,2.4060,0,0.0371,-0.0013,0.0000,0.3391,-0.1097,0
18187,0.3889,-0.0621,0.3054,0.0096,0.0997,-0.0319,-2.33,1.89,-3.65,0,3.394,20.728,11.490,2.446,0.006,-0.016,1.014,0.000,0.000,0.000,0.2990,-4,2,-3.10,1.47,-4.08,0.3373,-0.0376,0.3042,0.1435,0.2063,0.3000,0.2671,-15.33,19.55,109.47,0.6450,0.0310,1.2790,1.3330,2.4060,0,0.0371,-0.0013,0.0000,0.3391,-0.1097,0
18238,0.3916,-0.0315,0.3017,-0.0002,0.1860,-0.0386,-1.36,1.28,-3.42,0,3.394,31.403,9.596,0.741,0.004,-0.013,1.025,0.000,0.000,0.000,0.2990,-8,0,-2.00,0.88,-4.14,0.3326,-0.0262,0.3023,0.1401,0.2081,0.3000,0.2685,-9.53,19.45,102.63,0.6580,0.0290,1.2610,1.3330,2.4020,0,0.0371,-0.0013,0.0000,0.3391,-0.1097,0
18289,0.3918,-0.0105,0.2990,-0.0111,0.2247,-0.0308,-0.11,0.73,-3.27,0,3.394,43.502,9.110,0.524,0.004,-0.022,1.019,0.000,0.000,0.000,0.2990,-6,1,-0.46,0.37,-3.71,0.3338,-0.0011,0.2999,0.1367,0.2098,0.3000,0.2682,-6.43,19.27,98.02,0.6580,0.0290,1.2610,1.2800,2.4020,0,0.0371,-0.0013,0.0000,0.3391,-0.1097,0
18340,0.3914,-0.0072,0.2985,-0.0155,0.2082,-0.0188,2.18,0.29,-3.31,0,3.394,20.756,4.372,0.174,0.005,-0.022,1.019,0.000,0.000,0.000,0.3020,-4,0,1.75,-0.10,-3.61,0.3319,0.0172,0.2993,0.1333,0.2115,0.3000,0.2670,-7.06,19.37,99.32,0.6790,0.0240,1.2540,1.2800,2.4070,0,0.0371,-0.0013,0.0000,0.3391,-0.1097,0
18391,0.3909,-0.0005,0.2995,-0.0179,0.1803,0.0009,3.51,0.01,-3.31,0,3.394,8.313,4.132,0.433,0.005,-0.017,1.016,0.000,0.000,0.000,0.3060,-1,0,2.82,-0.34,-3.62,0.3324,0.0293,0.3008,0.1298,0.2131,0.3000,0.2646,-8.01,19.64,99.38,0.6790,0.0240,1.2540,1.2160,2.4070,0,0.0371,-0.0013,0.0000,0.3391,-0.1097,0
18443,0.3900,0.0074,0.3025,-0.0194,0.1486,0.0237,4.04,-0.14,-3.30,0,3.405,9.137,2.899,1.883,0.002,-0.013,1.012,0.000,0.000,0.000,0.3030,-5,0,3.30,-0.58,-3.74,0.3325,0.0326,0.3037,0.1263,0.2147,0.3000,0.2616,-9.08,19.98,99.07,0.7010,0.0270,1.2460,1.2160,2.4020,0,0.0371,-0.0013,0.0000,0.3391,-0.1097,0
18495,0.3895,0.0137,0.3036,-0.0191,0.1130,0.0286,4.39,-0.26,-3.21,0,3.405,2.091,2.536,1.160,0.006,-0.014,1.009,0.000,0.000,0.000,0.3050,0,1,3.75,-0.73,-3.58,0.3334,0.0478,0.3047,0.1227,0.2163,0.3000,0.2609,-10.38,20.25,96.27,0.7010,0.0270,1.2460,1.2110,2.4020,0,0.0371,-0.0013,0.0000,0.3391,-0.1097,0
18546,0.3902,0.0172,0.3051,-0.0144,0.0717,0.0304,4.62,-0.38,-3.15,0,3.405,-5.150,-3.742,0.339,-0.001,-0.015,0.998,0.000,0.000,0.000,0.3130,0,-1,3.91,-0.85,-3.54,0.3304,0.0478,0.3063,0.1191,0.2178,0.3000,0.2604,-12.09,20.77,94.44,0.7110,0.0230,1.2410,1.2110,2.4030,0,0.0371,-0.0013,0.0000,0.3391,-0.1097,0
18598,0.3891,0.0190,0.3094,-0.0144,0.0299,0.0441,4.22,-0.29,-3.08,0,3.410,-10.872,-1.590,0.353,-0.000,-0.010,0.991,0.000,0.000,0.000,0.3120,7,0,3.67,-0.69,-3.64,0.3335,0.0475,0.3097,0.1156,0.2192,0.3000,0.2581,-14.02,21.11,92.42,0.7110,0.0230,1.2410,1.2230,2.4030,0,0.0371,-0.0013,0.0000,0.3391,-0.1097,0
18649,0.3899,0.0212,0.3118,-0.0099,-0.0016,0.0420,3.63,-0.20,-3.06,0,3.410,-13.181,0.878,-0.022,0.005,-0.009,0.991,0.000,0.000,0.000,0.3100,0,0,3.24,-0.60,-3.65,0.3322,0.0261,0.3110,0.1120,0.2205,0.3000,0.2579,-15.35,21.61,91.84,0.7220,0.0240,1.2390,1.2230,2.3980,0,0.0371,-0.0013,0.0000,0.3391,-0.1097,0
18700,0.3895,0.0165,0.3123,-0.0093,-0.0418,0.0298,2.94,-0.24,-3.06,0,3.405,-19.606,-3.367,-1.931,0.008,-0.012,0.993,0.000,0.000,0.000,0.3100,2,-1,2.57,-0.65,-3.65,0.3325,0.0220,0.3117,0.1084,0.2218,0.3000,0.2591,-17.40,21.76,91.69,0.7220,0.0240,1.2390,1.2320,2.3980,0,0.0371,-0.0013,0.0000,0.3391,-0.1097,0
18752,0.3900,0.0111,0.3121,-0.0060,-0.0739,0.0148,1.99,-0.15,-3.15,0,3.405,-21.335,-0.958,-1.512,0.006,-0.004,0.991,0.000,0.000,0.000,0.3110,2,0,1.53,-0.49,-3.82,0.3353,0.0228,0.3124,0.1047,0.2231,0.3000,0.2608,-19.05,22.04,94.62,0.7040,0.0290,1.2420,1.2320,2.3950,0,0.0371,-0.0013,0.0000,0.3391,-0.1097,0
18804,0.3920,0.0083,0.3120,0.0003,-0.0874,0.0073,0.96,-0.06,-3.22,0,3.405,-14.376,-3.518,-1.370,-0.002,-0.002,0.996,0.000,0.000,0.000,0.3070,4,0,0.42,-0.44,-3.86,0.3352,0.0170,0.3125,0.1009,0.2243,0.3000,0.2616,-19.77,22.60,96.50,0.7040,0.0290,1.2420,1.2540,2.3950,0,0.0371,-0.0013,0.0000,0.3391,-0.1097,0
18856,0.3919,0.0012,0.3100,0.0002,-0.1029,-0.0079,0.29,0.10,-3.27,0,3.399,-12.483,-2.541,-0.859,0.006,-0.014,0.996,0.000,0.000,0.000,0.3100,4,0,-0.29,-0.24,-3.87,0.3346,0.0063,0.3109,0.0972,0.2255,0.3000,0.2636,-20.74,22.67,98.12,0.6860,0.0250,1.2470,1.2540,2.3950,0,0.0371,-0.0013,0.0000,0.3391,-0.1097,0
18908,0.3932,-0.0033,0.3097,0.0029,-0.1031,-0.0097,-0.36,0.25,-3.32,0,3.399,-14.577,-0.719,-0.045,0.002,-0.005,1.001,0.000,0.000,0.000,0.3090,3,0,-0.91,-0.10,-3.85,0.3340,-0.0049,0.3105,0.0935,0.2266,0.3000,0.2639,-21.03,23.08,99.60,0.6860,0.0250,1.2470,1.2910,2.3950,0,0.0371,-0.0013,0.0000,0.3391,-0.1097,0
18959,0.3937,-0.0144,0.3091,0.0019,-0.1160,-0.0106,-1.00,0.31,-3.36,0,3.399,-8.470,0.447,-1.029,0.004,-0.013,1.002,0.000,0.000,0.000,0.3080,9,-1,-1.66,-0.06,-3.83,0.3335,-0.0136,0.3099,0.0898,0.2276,0.3000,0.2641,-22.23,23.29,100.68,0.6660,0.0270,1.2520,1.2910,2.3820,0,0.0371,-0.0013,0.0000,0.3391,-0.1097,0
19011,0.3948,-0.0180,0.3083,0.0026,-0.1021,-0.0111,-1.43,0.30,-3.40,0,3.394,-11.565,-3.887,0.671,0.005,-0.012,1.006,0.000,0.000,0.000,0.3070,3,-1,-1.97,-0.09,-3.83,0.3346,-0.0390,0.3086,0.0861,0.2285,0.3000,0.2643,-21.89,23.59,101.86,0.6660,0.0270,1.2520,1.3090,2.3820,0,0.0371,-0.0013,0.0000,0.3391,-0.1097,0
19062,0.3946,-0.0320,0.3074,-0.0000,-0.1126,-0.0115,-1.90,0.50,-3.36,0,3.399,-11.539,-3.723,1.051,0.000,-0.014,1.007,0.000,0.000,0.000,0.3100,1,-2,-2.58,0.10,-3.80,0.3370,-0.0484,0.3081,0.0823,0.2295,0.3000,0.2645,-23.15,23.70,100.91,0.6570,0.0260,1.2610,1.3090,2.3840,0,0.0371,-0.0013,0.0000,0.3391,-0.1097,0
19113,0.3943,-0.0511,0.3082,-0.0042,-0.1328,-0.0025,-2.30,0.68,-3.32,0,3.399,-12.981,-3.101,1.013,0.006,-0.019,1.004,0.000,0.000,0.000,0.3120,2,1,-3.20,0.27,-3.76,0.3426,-0.0526,0.3089,0.0786,0.2303,0.3000,0.2634,-25.00,23.83,99.54,0.6570,0.0260,1.2610,1.3200,2.3840,0,0.0371,-0.0013,0.0000,0.3391,-0.1097,0
19164,0.3941,-0.0684,0.3098,-0.0087,-0.1416,0.0090,-2.84,0.79,-3.26,0,3.405,-25.130,-3.288,-0.964,0.004,-0.013,1.008,0.000,0.000,0.000,0.3120,3,0,-3.87,0.46,-3.72,0.3396,-0.0589,0.3102,0.0748,0.2311,0.3000,0.2618,-25.00,24.00,97.83,0.6530,0.0310,1.2630,1.3200,2.3960,0,0.0371,-0.0013,0.0000,0.3391,-0.1097,0
19215,0.3944,-0.0732,0.3111,-0.0118,-0.1120,0.0155,-4.10,0.91,-3.28,0,3.405,-13.299,2.950,0.524,0.003,-0.018,1.000,0.000,0.000,0.000,0.3180,-1,0,-5.13,0.64,-3.76,0.3391,-0.0681,0.3113,0.0711,0.2318,0.3000,0.2609,-25.00,24.20,98.46,0.6530,0.0310,1.2630,1.3510,2.3960,0,0.0371,-0.0013,0.0000,0.3391,-0.1097,0
19265,0.3939,-0.0792,0.3145,-0.0169,-0.0802,0.0306,-4.76,0.83,-3.29,0,3.405,1.809,7.626,0.464,0.002,-0.015,0.996,0.000,0.000,0.000,0.3140,-4,1,-5.85,0.49,-3.77,0.3394,-0.0655,0.3137,0.0674,0.2325,0.3000,0.2586,-25.00,24.39,98.71,0.6490,0.0270,1.2600,1.3510,2.3960,0,0.0371,-0.0013,0.0000,0.3391,-0.1097,0
19317,0.3946,-0.0743,0.3153,-0.0174,-0.0198,0.0245,-4.78,0.56,-3.29,0,3.399,8.365,2.068,2.204,0.003,-0.016,0.989,0.000,0.000,0.000,0.3160,-4,0,-5.84,0.14,-3.86,0.3373,-0.0539,0.3137,0.0635,0.2331,0.3000,0.2591,-22.38,24.60,98.73,0.6490,0.0270,1.2600,1.3800,2.3960,0,0.0371,-0.0013,0.0000,0.3391,-0.1097,0
19369,0.3941,-0.0651,0.3162,-0.0187,0.0442,0.0168,-4.49,0.50,-3.18,0,3.405,20.354,0.632,2.887,0.004,-0.018,0.990,0.000,0.000,0.000,0.3140,-3,0,-5.46,0.02,-3.75,0.3380,-0.0414,0.3137,0.0597,0.2337,0.3000,0.2598,-19.08,24.70,95.48,0.6640,0.0270,1.2490,1.3800,2.3950,0,0.0371,-0.0013,0.0000,0.3391,-0.1097,0
19420,0.3944,-0.0576,0.3156,-0.0176,0.0926,0.0042,-3.55,0.46,-3.00,0,3.399,27.262,4.687,3.660,0.004,-0.032,0.989,0.000,0.000,0.000,0.3160,0,1,-4.41,-0.02,-3.61,0.3386,-0.0321,0.3133,0.0559,0.2342,0.3000,0.2612,-16.40,24.87,89.94,0.6640,0.0270,1.2490,1.3670,2.3950,0,0.0371,-0.0013,0.0000,0.3391,-0.1097,0
19471,0.3939,-0.0485,0.3158,-0.0189,0.1322,-0.0004,-2.27,0.27,-2.82,0,3.399,24.260,1.337,4.194,0.005,-0.029,0.998,0.000,0.000,0.000,0.3110,-4,0,-2.97,-0.25,-3.55,0.3357,-0.0323,0.3143,0.0521,0.2346,0.3000,0.2617,-14.01,24.98,84.49,0.6900,0.0270,1.2350,1.3670,2.3890,0,0.0371,-0.0013,0.0000,0.3391,-0.1097,0
19522,0.3931,-0.0428,0.3137,-0.0196,0.1488,-0.0133,-1.12,0.14,-2.62,0,3.394,22.955,2.367,2.018,0.000,-0.021,1.005,0.000,0.000,0.000,0.3050,-8,0,-1.76,-0.33,-3.34,0.3364,-0.0199,0.3126,0.0483,0.2350,0.3000,0.2635,-12.78,24.99,78.73,0.6900,0.0270,1.2350,1.3270,2.3890,0,0.0371,-0.0013,0.0000,0.3391,-0.1097,0
19573,0.3937,-0.0345,0.3096,-0.0166,0.1602,-0.0311,-0.08,0.02,-2.47,0,3.389,21.181,0.456,3.076,0.001,-0.024,1.013,0.000,0.000,0.000,0.3070,-7,0,-0.68,-0.45,-3.27,0.3378,0.0047,0.3089,0.0445,0.2353,0.3000,0.2662,-11.57,25.00,74.02,0.7370,0.0260,1.2200,1.3270,2.3920,0,0.0371,-0.0013,0.0000,0.3391,-0.1097,0
19624,0.3926,-0.0252,0.3075,-0.0174,0.1632,-0.0305,0.88,0.04,-2.31,0,3.389,18.663,-3.938,3.593,0.004,-0.022,1.023,0.000,0.000,0.000,0.3050,-4,1,0.34,-0.47,-3.15,0.3389,0.0261,0.3070,0.0407,0.2356,0.3000,0.2665,-10.76,25.00,69.23,0.7370,0.0260,1.2200,1.2970,2.3920,0,0.0371,-0.0013,0.0000,0.3391,-0.1097,0
19676,0.3928,-0.0124,0.3057,-0.0154,0.1672,-0.0240,1.73,0.23,-2.12,0,3.394,15.267,-1.108,4.183,0.003,-0.021,1.025,0.000,0.000,0.000,0.3080,-5,0,1.29,-0.24,-3.03,0.3365,0.0383,0.3062,0.0367,0.2358,0.3000,0.2662,-9.70,25.00,63.59,0.8020,0.0250,1.2040,1.2970,2.3880,0,0.0371,-0.0013,0.0000,0.3391,-0.1097,0
19728,0.3916,-0.0079,0.3061,-0.0189,0.1431,-0.0045,2.51,0.29,-1.89,0,3.394,6.204,2.110,4.181,0.009,-0.016,1.023,0.000,0.000,0.000,0.3090,-1,1,2.06,-0.18,-2.83,0.3373,0.0538,0.3070,0.0328,0.2359,0.3000,0.2640,-10.52,25.00,56.71,0.8020,0.0250,1.2040,1.2570,2.3880,0,0.0371,-0.0013,0.0000,0.3391,-0.1097,0
19779,0.3925,0.0009,0.3074,-0.0173,0.1265,0.0124,2.90,0.17,-1.69,0,3.399,2.579,2.560,3.258,0.003,-0.019,1.014,0.000,0.000,0.000,0.3110,-4,0,2.43,-0.26,-2.58,0.3342,0.0569,0.3089,0.0290,0.2360,0.3000,0.2619,-10.71,25.00,50.66,0.8840,0.0250,1.1930,1.2570,2.3960,0,0.0371,-0.0013,0.0000,0.3391,-0.1097,0
19831,0.3917,0.0077,0.3095,-0.0190,0.1042,0.0275,2.99,0.00,-1.53,0,3.399,2.749,0.071,1.490,0.001,-0.015,1.006,0.000,0.000,0.000,0.3100,0,1,2.54,-0.38,-2.43,0.3348,0.0694,0.3110,0.0252,0.2361,0.3000,0.2599,-11.29,25.00,45.77,0.8840,0.0250,1.1930,1.2520,2.3960,0,0.0371,-0.0013,0.0000,0.3391,-0.1097,0
19882,0.3917,0.0138,0.3106,-0.0175,0.0819,0.0305,3.10,-0.05,-1.45,0,3.399,-0.510,2.032,0.206,0.005,-0.016,1.001,0.000,0.000,0.000,0.3110,0,0,2.72,-0.36,-2.28,0.3314,0.0695,0.3124,0.0213,0.2360,0.3000,0.2593,-11.87,25.00,43.54,0.9360,0.0250,1.1860,1.2520,2.3980,0,0.0371,-0.0013,0.0000,0.3391,-0.1097,0
19933,0.3904,0.0187,0.3118,-0.0190,0.0589,0.0293,3.13,-0.04,-1.43,0,3.399,-5.347,-0.455,0.494,0.003,-0.014,1.001,0.000,0.000,0.000,0.3130,0,0,2.70,-0.46,-2.27,0.3315,0.0734,0.3135,0.0175,0.2359,0.3000,0.2592,-12.53,25.00,42.92,0.9360,0.0250,1.1860,1.2540,2.3980,0,0.0371,-0.0013,0.0000,0.3391,-0.1097,0
19984,0.3895,0.0212,0.3131,-0.0191,0.0328,0.0287,2.92,-0.04,-1.43,0,3.399,-6.415,0.772,0.232,0.006,-0.016,0.993,0.000,0.000,0.000,0.3120,1,0,2.43,-0.44,-2.24,0.3319,0.0759,0.3148,0.0137,0.2358,0.3000,0.2591,-13.49,25.00,43.00,0.9600,0.0260,1.1880,1.2540,2.3950,0,0.0371,-0.0013,0.0000,0.3391,-0.1097,0
20035,0.3888,0.0218,0.3136,-0.0187,0.0063,0.0208,2.58,-0.08,-1.41,0,3.394,-10.360,-0.104,1.663,0.007,-0.016,0.992,0.000,0.000,0.000,0.3170,3,0,2.15,-0.46,-2.14,0.3295,0.0684,0.3150,0.0099,0.2356,0.3000,0.2598,-14.53,25.00,42.36,0.9600,0.0260,1.1880,1.2670,2.3950,0,0.0371,-0.0013,0.0000,0.3391,-0.1097,0
20086,0.3886,0.0203,0.3156,-0.0169,-0.0185,0.0222,2.11,-0.12,-1.35,0,3.399,-8.627,-1.834,1.826,0.001,-0.011,0.992,0.000,0.000,0.000,0.3160,1,0,1.65,-0.45,-2.03,0.3294,0.0626,0.3163,0.0060,0.2353,0.3000,0.2593,-15.70,25.00,40.38,0.9680,0.0250,1.1840,1.2670,2.3850,0,0.0371,-0.0013,0.0000,0.3391,-0.1097,0
20137,0.3884,0.0189,0.3165,-0.0148,-0.0362,0.0184,1.61,-0.05,-1.25,0,3.399,-9.848,-0.974,1.572,0.006,-0.008,0.996,0.000,0.000,0.000,0.3110,3,0,1.21,-0.35,-1.93,0.3296,0.0593,0.3169,0.0022,0.2350,0.3000,0.2595,-16.48,25.00,37.49,0.9680,0.0250,1.1840,1.2940,2.3850,0,0.0371,-0.0013,0.0000,0.3391,-0.1097,0
20189,0.3889,0.0174,0.3145,-0.0116,-0.0482,0.0004,1.07,-0.01,-1.19,0,3.394,-10.512,-0.942,0.238,0.004,-0.014,0.994,0.000,0.000,0.000,0.3140,0,0,0.73,-0.29,-1.81,0.3296,0.0518,0.3154,-0.0017,0.2346,0.3000,0.2618,-16.89,25.00,35.64,0.9650,0.0260,1.1800,1.2940,2.3900,0,0.0371,-0.0013,0.0000,0.3391,-0.1097,0
20241,0.3877,0.0127,0.3143,-0.0133,-0.0621,-0.0039,0.52,0.07,-1.18,0,3.394,-15.011,0.405,0.807,0.005,-0.006,1.003,0.000,0.000,0.000,0.3130,0,-2,0.18,-0.24,-1.80,0.3304,0.0459,0.3151,-0.0056,0.2342,0.3000,0.2624,-17.68,25.00,35.41,0.9650,0.0260,1.1800,1.3090,2.3900,0,0.0371,-0.0013,0.0000,0.3391,-0.1097,0
20293,0.3881,0.0056,0.3136,-0.0114,-0.0757,-0.0071,-0.09,0.02,-1.18,0,3.394,-13.717,0.522,0.382,0.006,-0.009,1.003,0.000,0.000,0.000,0.3120,-3,0,-0.69,-0.29,-1.93,0.3365,0.0526,0.3152,-0.0094,0.2337,0.3000,0.2628,-18.60,25.00,35.47,0.9560,0.0260,1.1810,1.3090,2.3810,0,0.0371,-0.0013,0.0000,0.3391,-0.1097,0
20345,0.3889,-0.0001,0.3127,-0.0086,-0.0798,-0.0089,-0.75,0.00,-1.17,0,3.394,-10.757,-0.757,1.834,0.003,-0.011,1.005,0.000,0.000,0.000,0.3130,0,0,-1.46,-0.31,-1.92,0.3376,0.0572,0.3143,-0.0133,0.2331,0.3000,0.2632,-19.02,25.00,35.04,0.9560,0.0260,1.1810,1.3270,2.3810,0,0.0371,-0.0013,0.0000,0.3391,-0.1097,0
20396,0.3899,0.0018,0.3126,-0.0055,-0.0606,-0.0055,-1.36,0.00,-1.10,0,3.394,-6.918,0.455,3.305,0.003,-0.012,1.005,0.000,0.000,0.000,0.3140,0,0,-2.02,-0.27,-1.82,0.3398,0.0561,0.3141,-0.0171,0.2325,0.3000,0.2629,-18.02,25.00,32.87,0.9430,0.0240,1.1830,1.3270,2.3810,0,0.0371,-0.0013,0.0000,0.3391,-0.1097,0
20448,0.3899,0.0002,0.3131,-0.0044,-0.0461,0.0004,-1.76,-0.03,-0.95,0,3.394,0.767,-3.281,3.921,0.008,-0.015,1.006,0.000,0.000,0.000,0.3130,0,0,-2.37,-0.30,-1.65,0.3424,0.0556,0.3143,-0.0208,0.2318,0.3000,0.2621,-17.46,25.00,28.47,0.9430,0.0240,1.1830,1.3400,2.3810,0,0.0371,-0.0013,0.0000,0.3391,-0.1097,0
20499,0.3895,-0.0042,0.3131,-0.0045,-0.0367,0.0018,-1.81,0.06,-0.75,0,3.394,-5.005,-1.232,3.273,0.000,-0.010,0.995,0.000,0.000,0.000,0.3120,2,0,-2.33,-0.14,-1.44,0.3452,0.0558,0.3142,-0.0246,0.2310,0.3000,0.2620,-17.25,25.00,22.52,0.9500,0.0250,1.1840,1.3400,2.3900,0,0.0371,-0.0013,0.0000,0.3391,-0.1097,0
20550,0.3902,-0.0083,0.3127,-0.0028,-0.0274,-0.0015,-1.88,0.12,-0.58,0,3.389,0.388,-3.130,2.847,0.007,-0.015,1.007,0.000,0.000,0.000,0.3130,3,0,-2.52,-0.01,-1.24,0.3350,0.0460,0.3144,-0.0284,0.2303,0.3000,0.2624,-16.99,25.00,17.32,0.9500,0.0250,1.1840,1.3350,2.3900,0,0.0371,-0.0013,0.0000,0.3391,-0.1097,0
20601,0.3915,-0.0092,0.3128,-0.0001,-0.0109,0.0004,-1.93,0.18,-0.41,0,3.394,-2.262,-4.788,3.219,0.006,-0.022,1.006,0.000,0.000,0.000,0.3140,-1,0,-2.48,0.15,-1.08,0.3354,0.0428,0.3143,-0.0321,0.2294,0.3000,0.2622,-16.25,25.00,12.29,0.9620,0.0290,1.1850,1.3350,2.3890,0,0.0371,-0.0013,0.0000,0.3391,-0.1097,0
20652,0.3917,-0.0118,0.3134,-0.0010,0.0003,0.0048,-1.96,0.32,-0.29,0,3.394,-4.488,-7.015,1.188,0.005,-0.015,1.006,0.000,0.000,0.000,0.3130,-1,-1,-2.60,0.39,-0.91,0.3359,0.0436,0.3146,-0.0358,0.2285,0.3000,0.2616,-15.86,25.00,8.81,0.9620,0.0290,1.1850,1.3340,2.3890,0,0.0371,-0.0013,0.0000,0.3391,-0.1097,0
20704,0.3929,-0.0046,0.3134,-0.0012,0.0324,0.0047,-2.16,0.59,-0.24,0,3.399,1.569,-4.047,0.188,0.006,-0.012,1.001,0.000,0.000,0.000,0.3120,-7,0,-2.84,0.73,-0.81,0.3376,0.0455,0.3147,-0.0396,0.2275,0.3000,0.2616,-13.84,25.00,7.06,0.9890,0.0290,1.1820,1.3340,2.3820,0,0.0371,-0.0013,0.0000,0.3391,-0.1097,0
20756,0.3928,-0.0027,0.3129,-0.0064,0.0507,0.0026,-2.21,0.82,-0.21,0,3.394,12.916,1.995,-0.239,0.005,-0.015,1.003,0.000,0.000,0.000,0.3120,0,1,-2.86,0.94,-0.77,0.3381,0.0584,0.3137,-0.0434,0.2265,0.3000,0.2619,-12.76,25.00,6.29,0.9890,0.0290,1.1820,1.3480,2.3820,0,0.0371,-0.0013,0.0000,0.3391,-0.1097,0
20807,0.3931,0.0082,0.3126,-0.0117,0.0854,0.0013,-1.66,0.81,-0.21,0,3.394,16.638,3.156,-0.334,0.009,-0.017,1.000,0.000,0.000,0.000,0.3090,-4,0,-2.15,0.86,-0.85,0.3365,0.0601,0.3138,-0.0470,0.2254,0.3000,0.2621,-10.32,25.00,6.23,1.0150,0.0270,1.1730,1.3480,2.3850,0,0.0371,-0.0013,0.0000,0.3391,-0.1097,0
20858,0.3915,0.0093,0.3111,-0.0200,0.0909,-0.0065,-0.83,0.71,-0.19,0,3.389,9.964,0.230,-0.250,0.004,-0.022,1.000,0.000,0.000,0.000,0.3130,-2,1,-1.34,0.70,-0.84,0.3364,0.0703,0.3122,-0.0507,0.2243,0.3000,0.2632,-9.82,25.00,5.58,1.0150,0.0270,1.1730,1.3340,2.3850,0,0.0371,-0.0013,0.0000,0.3391,-0.1097,0
20910,0.3906,0.0173,0.3117,-0.0254,0.1039,-0.0013,-0.28,0.61,-0.18,0,3.394,6.051,3.501,1.021,0.006,-0.018,1.001,0.000,0.000,0.000,0.3120,0,0,-0.83,0.70,-0.89,0.3342,0.0766,0.3125,-0.0544,0.2230,0.3000,0.2626,-8.56,25.00,5.25,1.0240,0.0270,1.1720,1.3340,2.3890,0,0.0371,-0.0013,0.0000,0.3391,-0.1097,0
20961,0.3893,0.0272,0.3118,-0.0304,0.1164,-0.0009,0.04,0.50,-0.14,0,3.389,9.802,4.911,0.822,0.004,-0.015,0.997,0.000,0.000,0.000,0.3100,-9,0,-0.52,0.52,-0.84,0.3332,0.0829,0.3124,-0.0580,0.2218,0.3000,0.2625,-7.16,25.00,4.09,1.0240,0.0270,1.1720,1.3210,2.3890,0,0.0371,-0.0013,0.0000,0.3391,-0.1097,0
21013,0.3870,0.0283,0.3110,-0.0357,0.1046,-0.0056,0.54,0.31,-0.09,0,3.394,11.242,-1.586,1.282,0.002,-0.025,0.999,0.000,0.000,0.000,0.3110,0,0,-0.15,0.25,-0.66,0.3348,0.1084,0.3108,-0.0616,0.2205,0.3000,0.2632,-7.47,25.00,2.64,1.0310,0.0290,1.1690,1.3210,2.3920,0,0.0371,-0.0013,0.0000,0.3391,-0.1097,0
