time_ms,pos_x,pos_y,pos_z,vel_x,vel_y,vel_z,roll,pitch,yaw,thrust,vbat,gyro_x,gyro_y,gyro_z,acc_x,acc_y,acc_z,rate_roll,rate_pitch,rate_yaw,range_z,flow_dx,flow_dy,mekf_roll,mekf_pitch,mekf_yaw,mekf_x,mekf_y,mekf_z,our_ref_x,our_ref_y,our_ref_z,our_thrust,our_roll_cmd,our_pitch_cmd,our_yaw_rate_cmd,multi_front,multi_back,multi_left,multi_right,multi_up,ai_feat_count,vo_x,vo_y,vo_sigma,pg_x,pg_y,lc_count
0,-0.8609,1.1922,0.0091,0.0100,0.0003,-0.0065,0.55,-0.87,-3.10,0,4.112,-0.179,-0.041,-0.224,-0.016,0.011,1.000,0.000,0.000,0.000,0.0080,0,-1,0.00,0.00,0.00,0.0000,0.0000,0.0000,0.0000,0.0000,0.0000,0.0000,0.00,0.00,0.00,2.3290,0.0000,1.1230,1.3990,2.7060,516,0.0000,0.0000,0.0000,0.0000,0.0000,0
100,-0.8616,1.1924,0.0084,0.0047,0.0023,-0.0083,0.52,-0.86,-3.09,0,4.101,-0.175,-0.260,0.067,-0.017,0.011,1.000,0.000,0.000,0.000,0.0110,0,0,0.00,0.00,0.00,0.0000,0.0000,0.0000,0.0000,0.0000,0.0000,0.0000,0.00,0.00,0.00,2.3290,0.0000,1.1230,1.3990,2.7060,516,0.0000,0.0000,0.0000,0.0000,0.0000,0
202,-0.8617,1.1922,0.0094,0.0028,0.0015,-0.0016,0.43,-0.91,-3.07,0,4.117,-0.223,0.022,0.259,-0.015,0.010,1.000,0.000,0.000,0.000,0.0080,3,5,0.00,0.00,0.00,0.0000,0.0000,0.0000,0.0000,0.0000,0.0000,0.0000,0.00,0.00,0.00,2.3050,0.1600,1.1240,1.4030,2.7060,516,0.0000,0.0000,0.0000,0.0000,0.0000,0
304,-0.8590,1.1941,0.0087,0.0143,0.0112,-0.0041,0.48,-0.88,-3.05,0,4.107,-0.102,0.052,0.040,-0.018,0.010,1.000,0.000,0.000,0.000,0.0110,-3,-4,0.00,0.00,0.00,0.0000,0.0000,0.0000,0.0000,0.0000,0.0000,0.0000,0.00,0.00,0.00,2.3050,0.1600,1.1240,1.4030,2.7060,516,0.0000,0.0000,0.0000,0.0000,0.0000,0
405,-0.8609,1.1940,0.0097,0.0020,0.0089,0.0023,0.45,-0.89,-3.04,0,4.117,0.125,0.114,-0.198,-0.017,0.011,1.002,0.000,0.000,0.000,0.0130,-9,-1,0.00,0.00,0.00,0.0000,0.0000,0.0000,0.0000,0.0000,0.0000,0.0000,0.00,0.00,0.00,2.3750,0.0000,1.1270,1.3970,2.7060,516,0.0000,0.0000,0.0000,0.0000,0.0000,0
506,-0.8604,1.1935,0.0114,0.0028,0.0051,0.0107,0.49,-0.89,-3.02,0,4.101,-0.212,-0.119,0.117,-0.016,0.013,1.000,0.000,0.000,0.000,0.0130,0,-9,0.00,0.00,0.00,0.0000,0.0000,0.0000,0.0000,0.0000,0.0000,0.0000,0.00,0.00,0.00,2.3750,0.0000,1.1270,1.3970,2.7060,467,0.0000,0.0000,0.0000,0.0000,0.0000,0
608,-0.8610,1.1940,0.0126,-0.0026,0.0068,0.0142,0.49,-0.88,-3.00,0,4.112,-0.050,0.075,0.040,-0.014,0.012,1.001,0.000,0.000,0.000,0.0100,0,1,0.00,0.00,0.00,0.0000,0.0000,0.0000,0.0000,0.0000,0.0000,0.0000,0.00,0.00,0.00,2.3310,0.1640,1.1230,1.4070,2.7070,467,0.0000,0.0000,0.0000,0.0000,0.0000,0
709,-0.8600,1.1935,0.0120,0.0018,0.0038,0.0090,0.49,-0.85,-2.99,0,4.107,-0.090,0.388,0.317,-0.015,0.013,1.001,0.000,0.000,0.000,0.0100,1,-7,0.00,0.00,0.00,0.0000,0.0000,0.0000,0.0000,0.0000,0.0000,0.0000,0.00,0.00,0.00,2.3310,0.1640,1.1230,1.4070,2.7070,467,0.0000,0.0000,0.0000,0.0000,0.0000,0
810,-0.8608,1.1946,0.0114,-0.0030,0.0095,0.0035,0.51,-0.85,-2.97,0,4.117,-0.043,0.185,0.258,-0.014,0.011,1.000,0.000,0.000,0.000,0.0100,-3,-6,0.00,0.00,0.00,0.0000,0.0000,0.0000,0.0000,0.0000,0.0000,0.0000,0.00,0.00,0.00,0.0000,0.1640,1.1280,1.4020,2.7060,467,0.0000,0.0000,0.0000,0.0000,0.0000,0
911,-0.8604,1.1939,0.0109,-0.0018,0.0049,0.0009,0.50,-0.80,-2.96,0,4.101,0.172,-0.195,-0.556,-0.015,0.010,1.001,0.000,0.000,0.000,0.0100,-1,-5,0.00,0.00,0.00,0.0000,0.0000,0.0000,0.0000,0.0000,0.0000,0.0000,0.00,0.00,0.00,0.0000,0.1640,1.1280,1.4020,2.7060,467,0.0000,0.0000,0.0000,0.0000,0.0000,0
1012,-0.8602,1.1944,0.0106,-0.0013,0.0056,-0.0005,0.51,-0.80,-2.95,0,4.117,-0.281,-0.094,-0.208,-0.016,0.011,1.002,0.000,0.000,0.000,0.0110,4,3,0.00,0.00,0.00,0.0000,0.0000,0.0000,0.0000,0.0000,0.0000,0.0000,0.00,0.00,0.00,2.3120,0.1680,1.1280,1.3920,2.6980,467,0.0000,0.0000,0.0000,0.0000,0.0000,0
1113,-0.8602,1.1944,0.0108,-0.0027,0.0048,0.0007,0.55,-0.79,-2.94,0,4.101,-0.171,0.107,-0.045,-0.015,0.011,1.000,0.000,0.000,0.000,0.0110,-3,-8,0.00,0.00,0.00,0.0000,0.0000,0.0000,0.0000,0.0000,0.0000,0.0000,0.00,0.00,0.00,2.3120,0.1680,1.1280,1.3920,2.6980,467,0.0000,0.0000,0.0000,0.0000,0.0000,0
1214,-0.8611,1.1936,0.0109,-0.0070,0.0008,0.0014,0.56,-0.82,-2.93,0,4.117,-0.158,0.212,0.095,-0.016,0.012,0.999,0.000,0.000,0.000,0.0110,-3,1,0.00,0.00,0.00,0.0000,0.0000,0.0000,0.0000,0.0000,0.0000,0.0000,0.00,0.00,0.00,0.0000,0.1600,1.1240,1.3960,2.7190,467,0.0000,0.0000,0.0000,0.0000,0.0000,0
1315,-0.8590,1.1935,0.0111,0.0043,0.0004,0.0023,0.54,-0.77,-2.92,0,4.101,0.017,-0.016,-0.226,-0.017,0.009,1.002,0.000,0.000,0.000,0.0110,3,-4,0.00,0.00,0.00,0.0000,0.0000,0.0000,0.0000,0.0000,0.0000,0.0000,0.00,0.00,0.00,0.0000,0.1600,1.1240,1.3960,2.7190,416,0.0000,0.0000,0.0000,0.0000,0.0000,0
1417,-0.8608,1.1942,0.0112,-0.0072,0.0043,0.0023,0.54,-0.77,-2.90,0,4.117,-0.205,-0.109,-0.001,-0.016,0.012,0.999,0.000,0.000,0.000,0.0100,-1,-4,0.00,0.00,0.00,0.0000,0.0000,0.0000,0.0000,0.0000,0.0000,0.0000,0.00,0.00,0.00,2.3520,0.0000,1.1230,1.3970,2.7010,416,0.0000,0.0000,0.0000,0.0000,0.0000,0
1518,-0.8609,1.1939,0.0108,-0.0063,0.0012,0.0003,0.53,-0.76,-2.89,0,4.101,0.195,0.299,-0.124,-0.017,0.010,0.999,0.000,0.000,0.000,0.0110,-5,-4,0.00,0.00,0.00,0.0000,0.0000,0.0000,0.0000,0.0000,0.0000,0.0000,0.00,0.00,0.00,2.3520,0.0000,1.1230,1.3970,2.7010,416,0.0000,0.0000,0.0000,0.0000,0.0000,0
1569,-0.8610,1.1936,0.0109,-0.0063,0.0002,0.0012,0.51,-0.81,-2.87,0,4.112,-0.138,0.123,-0.052,-0.015,0.011,1.000,0.000,0.000,0.000,0.0140,7,0,0.00,0.00,0.00,0.0000,0.0000,0.0000,0.0000,0.0000,0.0000,0.0000,0.00,0.00,0.00,0.0000,0.1590,1.1270,1.3970,2.7060,416,0.0000,0.0000,0.0000,0.0000,0.0000,0
1620,-0.8602,1.1953,0.0123,-0.0018,0.0091,0.0078,0.55,-0.77,-2.85,0,4.107,0.154,0.255,0.140,-0.017,0.013,1.004,0.000,0.000,0.000,0.0100,0,1,0.00,0.00,0.00,0.0000,0.0000,0.0000,0.0000,0.0000,0.0000,0.0000,0.00,0.00,0.00,0.0000,0.1590,1.1270,1.3970,2.7060,416,0.0000,0.0000,0.0000,0.0000,0.0000,0
1671,-0.8601,1.1934,0.0116,-0.0018,-0.0014,0.0027,0.53,-0.81,-2.84,0,4.117,-0.324,-0.232,-0.025,-0.015,0.008,1.000,0.000,0.000,0.000,0.0150,2,6,0.00,0.00,0.00,0.0000,0.0000,0.0000,0.0000,0.0000,0.0000,0.0000,0.00,0.00,0.00,2.3250,0.0000,1.1260,1.3930,2.7030,416,0.0000,0.0000,0.0000,0.0000,0.0000,0
1723,-0.8594,1.1940,0.0132,0.0015,0.0022,0.0100,0.53,-0.81,-2.82,0,4.107,-0.158,0.031,0.141,-0.016,0.011,1.001,0.000,0.000,0.000,0.0090,-1,-4,0.00,0.00,0.00,0.0000,0.0000,0.0000,0.0000,0.0000,0.0000,0.0000,0.00,0.00,0.00,2.3250,0.0000,1.1260,1.3930,2.7030,416,0.0000,0.0000,0.0000,0.0000,0.0000,0
1773,-0.8609,1.1943,0.0116,-0.0070,0.0036,-0.0001,0.49,-0.78,-2.80,0,4.117,0.117,0.318,0.149,-0.017,0.009,1.001,0.000,0.000,0.000,0.0120,-3,-3,0.00,0.00,0.00,0.0000,0.0000,0.0000,0.0000,0.0000,0.0000,0.0000,0.00,0.00,0.00,2.3180,0.1610,1.1260,1.4070,2.7050,416,0.0000,0.0000,0.0000,0.0000,0.0000,0
1824,-0.8611,1.1935,0.0119,-0.0082,-0.0005,0.0015,0.53,-0.81,-2.79,0,4.107,-0.297,-0.309,-0.053,-0.016,0.011,1.002,0.000,0.000,0.000,0.0110,0,-2,0.00,0.00,0.00,0.0000,0.0000,0.0000,0.0000,0.0000,0.0000,0.0000,0.00,0.00,0.00,2.3180,0.1610,1.1260,1.4070,2.7050,498,0.0000,0.0000,0.0000,0.0000,0.0000,0
1875,-0.8601,1.1935,0.0116,-0.0025,-0.0001,0.0001,0.51,-0.79,-2.78,0,4.117,-0.262,0.109,-0.212,-0.016,0.011,0.998,0.000,0.000,0.000,0.0080,0,-7,0.00,0.00,0.00,0.0000,0.0000,0.0000,0.0000,0.0000,0.0000,0.0000,0.00,0.00,0.00,2.3520,0.0000,1.1240,1.3950,2.6990,498,0.0000,0.0000,0.0000,0.0000,0.0000,0
1926,-0.8609,1.1941,0.0100,-0.0072,0.0042,-0.0075,0.53,-0.78,-2.77,0,4.107,-0.325,0.020,0.209,-0.017,0.010,1.002,0.000,0.000,0.000,0.0100,-1,2,0.00,0.00,0.00,0.0000,0.0000,0.0000,0.0000,0.0000,0.0000,0.0000,0.00,0.00,0.00,2.3520,0.0000,1.1240,1.3950,2.6990,498,0.0000,0.0000,0.0000,0.0000,0.0000,0
1977,-0.8606,1.1937,0.0097,-0.0048,0.0017,-0.0066,0.52,-0.88,-2.75,0,4.117,0.093,-0.115,-0.062,-0.015,0.013,0.999,0.000,0.000,0.000,0.0110,4,9,0.00,0.00,0.00,0.0000,0.0000,0.0000,0.0000,0.0000,0.0000,0.0000,0.00,0.00,0.00,2.3440,0.0000,1.1190,1.3940,2.7070,498,0.0000,0.0000,0.0000,0.0000,0.0000,0
2029,-0.8593,1.1945,0.0101,0.0024,0.0058,-0.0027,0.52,-0.81,-2.74,0,4.107,-0.344,-0.012,0.026,-0.015,0.011,0.998,0.000,0.000,0.000,0.0110,-3,1,0.00,0.00,0.00,0.0000,0.0000,0.0000,0.0000,0.0000,0.0000,0.0000,0.00,0.00,0.00,2.3440,0.0000,1.1190,1.3940,2.7070,498,0.0000,0.0000,0.0000,0.0000,0.0000,0
2080,-0.8610,1.1936,0.0105,-0.0063,0.0010,0.0003,0.52,-0.82,-2.72,0,4.117,-0.125,0.105,0.130,-0.016,0.011,1.001,0.000,0.000,0.000,0.0130,-1,0,0.00,0.00,0.00,0.0000,0.0000,0.0000,0.0000,0.0000,0.0000,0.0000,0.00,0.00,0.00,2.3740,0.1650,1.1260,1.4050,2.7090,498,0.0000,0.0000,0.0000,0.0000,0.0000,0
2131,-0.8595,1.1941,0.0117,0.0025,0.0039,0.0060,0.49,-0.79,-2.71,0,4.107,-0.069,0.168,0.182,-0.014,0.009,1.002,0.000,0.000,0.000,0.0110,-1,1,0.00,0.00,0.00,0.0000,0.0000,0.0000,0.0000,0.0000,0.0000,0.0000,0.00,0.00,0.00,2.3740,0.1650,1.1260,1.4050,2.7090,498,0.0000,0.0000,0.0000,0.0000,0.0000,0
2182,-0.8597,1.1937,0.0117,0.0012,0.0009,0.0053,0.49,-0.79,-2.70,0,4.117,0.146,-0.102,-0.286,-0.017,0.009,1.000,0.000,0.000,0.000,0.0100,2,8,0.00,0.00,0.00,0.0000,0.0000,0.0000,0.0000,0.0000,0.0000,0.0000,0.00,0.00,0.00,2.3390,0.1650,1.1230,1.3980,2.7020,498,0.0000,0.0000,0.0000,0.0000,0.0000,0
2233,-0.8594,1.1946,0.0111,0.0029,0.0056,0.0021,0.53,-0.79,-2.68,0,4.107,-0.028,-0.031,-0.063,-0.016,0.012,1.001,0.000,0.000,0.000,0.0120,0,2,0.00,0.00,0.00,0.0000,0.0000,0.0000,0.0000,0.0000,0.0000,0.0000,0.00,0.00,0.00,2.3390,0.1650,1.1230,1.3980,2.7020,498,0.0000,0.0000,0.0000,0.0000,0.0000,0
2284,-0.8608,1.1938,0.0116,-0.0049,0.0013,0.0041,0.51,-0.80,-2.66,0,4.112,-0.228,-0.148,0.002,-0.017,0.010,1.001,0.000,0.000,0.000,0.0100,-3,-1,0.00,0.00,0.00,0.0000,0.0000,0.0000,0.0000,0.0000,0.0000,0.0000,0.00,0.00,0.00,2.3480,0.0000,1.1240,1.3980,2.7060,498,0.0000,0.0000,0.0000,0.0000,0.0000,0
2335,-0.8612,1.1938,0.0111,-0.0074,0.0014,0.0007,0.52,-0.81,-2.64,0,4.107,-0.293,-0.090,-0.314,-0.015,0.010,1.001,0.000,0.000,0.000,0.0100,-1,-5,0.00,0.00,0.00,0.0000,0.0000,0.0000,0.0000,0.0000,0.0000,0.0000,0.00,0.00,0.00,2.3480,0.0000,1.1240,1.3980,2.7060,498,0.0000,0.0000,0.0000,0.0000,0.0000,0
2387,-0.8612,1.1939,0.0107,-0.0069,0.0013,-0.0007,0.51,-0.81,-2.63,0,4.117,-0.234,-0.040,-0.043,-0.014,0.011,1.001,0.000,0.000,0.000,0.0110,2,-4,0.00,0.00,0.00,0.0000,0.0000,0.0000,0.0000,0.0000,0.0000,0.0000,0.00,0.00,0.00,2.3440,0.0000,1.1260,1.3980,2.7060,498,0.0000,0.0000,0.0000,0.0000,0.0000,0
2438,-0.8603,1.1946,0.0108,-0.0015,0.0060,0.0005,0.52,-0.89,-2.62,0,4.107,-0.133,-0.056,-0.054,-0.016,0.010,1.000,0.000,0.000,0.000,0.0100,-5,20,0.00,0.00,0.00,0.0000,0.0000,0.0000,0.0000,0.0000,0.0000,0.0000,0.00,0.00,0.00,2.3440,0.0000,1.1260,1.3980,2.7060,498,0.0000,0.0000,0.0000,0.0000,0.0000,0
2489,-0.8596,1.1872,0.0104,0.0018,-0.0328,-0.0021,0.73,-0.74,-2.61,0,4.117,-0.163,0.205,0.117,-0.018,0.012,1.001,0.000,0.000,0.000,0.0080,0,-1,0.00,0.00,0.00,0.0000,0.0000,0.0000,0.0000,0.0000,0.0000,0.0000,0.00,0.00,0.00,2.3480,0.0000,1.1280,1.4000,2.6950,498,0.0000,0.0000,0.0000,0.0000,0.0000,0
2541,-0.8638,1.1894,0.0094,-0.0190,-0.0145,-0.0060,0.62,-0.75,-2.59,0,4.107,0.030,0.064,0.109,-0.016,0.012,1.000,0.000,0.000,0.000,0.0100,0,-1,0.00,0.00,0.00,0.0000,0.0000,0.0000,0.0000,0.0000,0.0000,0.0000,0.00,0.00,0.00,2.3480,0.0000,1.1280,1.4000,2.6950,498,0.0000,0.0000,0.0000,0.0000,0.0000,0
2591,-0.8641,1.1886,0.0095,-0.0175,-0.0150,-0.0038,0.59,-0.77,-2.58,0,4.117,-0.255,-0.031,-0.023,-0.017,0.009,1.002,0.000,0.000,0.000,0.0120,4,-6,0.00,0.00,0.00,0.0000,0.0000,0.0000,0.0000,0.0000,0.0000,0.0000,0.00,0.00,0.00,2.3430,0.1650,1.1270,1.3980,2.7110,498,0.0000,0.0000,0.0000,0.0000,0.0000,0
2642,-0.8643,1.1892,0.0105,-0.0154,-0.0083,0.0025,0.59,-0.80,-2.56,0,4.107,-0.263,-0.527,-0.168,-0.019,0.011,1.001,0.000,0.000,0.000,0.0120,0,0,0.00,0.00,0.00,0.0000,0.0000,0.0000,0.0000,0.0000,0.0000,0.0000,0.00,0.00,0.00,2.3430,0.1650,1.1270,1.3980,2.7110,498,0.0000,0.0000,0.0000,0.0000,0.0000,0
2694,-0.8637,1.1893,0.0114,-0.0108,-0.0041,0.0068,0.56,-0.81,-2.55,0,4.117,-0.151,-0.230,-0.116,-0.015,0.012,1.001,0.000,0.000,0.000,0.0100,4,1,0.00,0.00,0.00,0.0000,0.0000,0.0000,0.0000,0.0000,0.0000,0.0000,0.00,0.00,0.00,2.3910,0.0000,1.1230,1.4030,2.7030,651,0.0000,0.0000,0.0000,0.0000,0.0000,0
2745,-0.8637,1.1884,0.0110,-0.0091,-0.0068,0.0033,0.56,-0.82,-2.54,0,4.107,0.164,0.081,0.175,-0.016,0.011,0.997,0.000,0.000,0.000,0.0100,-10,3,0.00,0.00,0.00,0.0000,0.0000,0.0000,0.0000,0.0000,0.0000,0.0000,0.00,0.00,0.00,2.3910,0.0000,1.1230,1.4030,2.7030,651,0.0000,0.0000,0.0000,0.0000,0.0000,0
2797,-0.8642,1.1923,0.0107,-0.0096,0.0168,0.0007,0.32,-0.79,-2.52,0,4.117,-0.154,0.403,0.175,-0.016,0.009,1.001,0.000,0.000,0.000,0.0100,-2,0,0.00,0.00,0.00,0.0000,0.0000,0.0000,0.0000,0.0000,0.0000,0.0000,0.00,0.00,0.00,2.3460,0.1670,1.1280,1.3980,2.7120,651,0.0000,0.0000,0.0000,0.0000,0.0000,0
2849,-0.8651,1.1938,0.0105,-0.0129,0.0211,-0.0001,0.37,-0.81,-2.51,0,4.107,-0.098,0.039,0.130,-0.016,0.010,1.000,0.000,0.000,0.000,0.0090,-2,5,0.00,0.00,0.00,0.0000,0.0000,0.0000,0.0000,0.0000,0.0000,0.0000,0.00,0.00,0.00,2.3460,0.1670,1.1280,1.3980,2.7120,651,0.0000,0.0000,0.0000,0.0000,0.0000,0
2900,-0.8648,1.1940,0.0099,-0.0086,0.0179,-0.0028,0.38,-0.87,-2.49,0,4.117,-0.055,0.091,0.398,-0.016,0.011,0.998,0.000,0.000,0.000,0.0120,-2,4,0.00,0.00,0.00,0.0000,0.0000,0.0000,0.0000,0.0000,0.0000,0.0000,0.00,0.00,0.00,2.3260,0.1640,1.1250,1.3990,2.7030,651,0.0000,0.0000,0.0000,0.0000,0.0000,0
2951,-0.8639,1.1944,0.0108,-0.0019,0.0173,0.0024,0.41,-0.89,-2.48,0,4.107,-0.095,0.117,0.098,-0.017,0.010,0.999,0.000,0.000,0.000,0.0120,-2,-2,0.00,0.00,0.00,0.0000,0.0000,0.0000,0.0000,0.0000,0.0000,0.0000,0.00,0.00,0.00,2.3260,0.1640,1.1250,1.3990,2.7030,651,0.0000,0.0000,0.0000,0.0000,0.0000,0
3002,-0.8646,1.1939,0.0114,-0.0054,0.0123,0.0048,0.43,-0.88,-2.47,0,4.112,-0.179,0.029,0.022,-0.017,0.009,0.999,0.000,0.000,0.000,0.0120,4,1,0.00,0.00,0.00,0.0000,0.0000,0.0000,0.0000,0.0000,0.0000,0.0000,0.00,0.00,0.00,2.3420,0.1610,1.1290,1.4020,2.7020,651,0.0000,0.0000,0.0000,0.0000,0.0000,0
3053,-0.8621,1.1943,0.0119,0.0084,0.0123,0.0060,0.44,-1.01,-2.45,0,4.107,-0.004,0.012,-0.010,-0.016,0.010,1.000,0.000,0.000,0.000,0.0120,-4,0,0.00,0.00,0.00,0.0000,0.0000,0.0000,0.0000,0.0000,0.0000,0.0000,0.00,0.00,0.00,2.3420,0.1610,1.1290,1.4020,2.7020,651,0.0000,0.0000,0.0000,0.0000,0.0000,0
3105,-0.8651,1.1933,0.0123,-0.0098,0.0051,0.0064,0.51,-0.84,-2.45,0,4.117,-0.212,0.208,-0.043,-0.017,0.012,1.000,0.000,0.000,0.000,0.0100,0,0,0.00,0.00,0.00,0.0000,0.0000,0.0000,0.0000,0.0000,0.0000,0.0000,0.00,0.00,0.00,2.3410,0.1560,1.1230,1.3960,2.7070,651,0.0000,0.0000,0.0000,0.0000,0.0000,0
3156,-0.8660,1.1979,0.0115,-0.0130,0.0286,0.0010,0.39,-0.84,-2.44,0,4.101,-0.225,0.068,0.013,-0.015,0.009,0.999,0.000,0.000,0.000,0.0120,2,3,0.00,0.00,0.00,0.0000,0.0000,0.0000,0.0000,0.0000,0.0000,0.0000,0.00,0.00,0.00,2.3410,0.1560,1.1230,1.3960,2.7070,651,0.0000,0.0000,0.0000,0.0000,0.0000,0
3208,-0.8650,1.1965,0.0119,-0.0055,0.0164,0.0032,0.47,-0.83,-2.42,0,4.112,-0.011,0.292,0.022,-0.017,0.010,1.001,0.000,0.000,0.000,0.0140,-3,1,0.00,0.00,0.00,0.0000,0.0000,0.0000,0.0000,0.0000,0.0000,0.0000,0.00,0.00,0.00,2.3400,0.0000,1.1270,1.3980,2.6980,651,0.0000,0.0000,0.0000,0.0000,0.0000,0
3260,-0.8654,1.1962,0.0130,-0.0063,0.0118,0.0084,0.42,-0.87,-2.41,0,4.107,-0.127,-0.096,0.061,-0.014,0.010,0.999,0.000,0.000,0.000,0.0110,0,4,0.00,0.00,0.00,0.0000,0.0000,0.0000,0.0000,0.0000,0.0000,0.0000,0.00,0.00,0.00,2.3400,0.0000,1.1270,1.3980,2.6980,651,0.0000,0.0000,0.0000,0.0000,0.0000,0
3311,-0.8649,1.1981,0.0124,-0.0025,0.0193,0.0038,0.47,-0.87,-2.40,0,4.117,0.084,0.050,-0.057,-0.015,0.011,1.000,0.000,0.000,0.000,0.0120,5,0,0.00,0.00,0.00,0.0000,0.0000,0.0000,0.0000,0.0000,0.0000,0.0000,0.00,0.00,0.00,2.3340,0.0000,1.1250,1.3970,2.7060,722,0.0000,0.0000,0.0000,0.0000,0.0000,0
3362,-0.8652,1.1974,0.0124,-0.0028,0.0128,0.0029,0.52,-0.88,-2.38,0,4.107,-0.048,0.190,0.100,-0.015,0.011,1.002,0.000,0.000,0.000,0.0120,-1,6,0.00,0.00,0.00,0.0000,0.0000,0.0000,0.0000,0.0000,0.0000,0.0000,0.00,0.00,0.00,2.3340,0.0000,1.1250,1.3970,2.7060,722,0.0000,0.0000,0.0000,0.0000,0.0000,0
3414,-0.8656,1.1978,0.0123,-0.0048,0.0144,0.0026,0.54,-0.86,-2.37,0,4.112,-0.210,0.171,0.105,-0.015,0.009,1.000,0.000,0.000,0.000,0.0120,2,0,0.00,0.00,0.00,0.0000,0.0000,0.0000,0.0000,0.0000,0.0000,0.0000,0.00,0.00,0.00,2.3400,0.0000,1.1280,1.3990,2.7110,722,0.0000,0.0000,0.0000,0.0000,0.0000,0
3466,-0.8652,1.1967,0.0123,-0.0007,0.0067,0.0022,0.47,-0.86,-2.35,0,4.107,0.072,-0.032,0.201,-0.016,0.012,1.001,0.000,0.000,0.000,0.0110,4,-1,0.00,0.00,0.00,0.0000,0.0000,0.0000,0.0000,0.0000,0.0000,0.0000,0.00,0.00,0.00,2.3400,0.0000,1.1280,1.3990,2.7110,722,0.0000,0.0000,0.0000,0.0000,0.0000,0
3518,-0.8654,1.1980,0.0118,-0.0016,0.0128,-0.0001,0.51,-0.90,-2.34,0,4.112,0.027,0.191,0.001,-0.017,0.011,0.999,0.000,0.000,0.000,0.0110,0,-4,0.00,0.00,0.00,0.0000,0.0000,0.0000,0.0000,0.0000,0.0000,0.0000,0.00,0.00,0.00,2.3760,0.1640,1.1250,1.3990,2.7080,722,0.0000,0.0000,0.0000,0.0000,0.0000,0
3569,-0.8681,1.1894,0.0114,-0.0158,-0.0343,-0.0026,0.79,-0.79,-2.32,0,4.101,0.037,-0.182,-0.055,-0.016,0.010,1.002,0.000,0.000,0.000,0.0110,-2,0,0.00,0.00,0.00,0.0000,0.0000,0.0000,0.0000,0.0000,0.0000,0.0000,0.00,0.00,0.00,2.3760,0.1640,1.1250,1.3990,2.7080,722,0.0000,0.0000,0.0000,0.0000,0.0000,0
3620,-0.8674,1.1899,0.0112,-0.0093,-0.0250,-0.0021,0.74,-0.84,-2.32,0,4.112,0.085,0.089,-0.195,-0.014,0.011,1.000,0.000,0.000,0.000,0.0100,0,2,0.00,0.00,0.00,0.0000,0.0000,0.0000,0.0000,0.0000,0.0000,0.0000,0.00,0.00,0.00,0.0000,0.1600,1.1270,1.3980,2.7090,722,0.0000,0.0000,0.0000,0.0000,0.0000,0
3671,-0.8677,1.1901,0.0106,-0.0092,-0.0185,-0.0046,0.71,-0.78,-2.31,0,4.107,0.131,0.032,-0.163,-0.015,0.013,1.001,0.000,0.000,0.000,0.0130,10,7,0.00,0.00,0.00,0.0000,0.0000,0.0000,0.0000,0.0000,0.0000,0.0000,0.00,0.00,0.00,0.0000,0.1600,1.1270,1.3980,2.7090,722,0.0000,0.0000,0.0000,0.0000,0.0000,0
3723,-0.8672,1.1903,0.0117,-0.0046,-0.0121,0.0022,0.65,-0.87,-2.30,0,4.112,-0.135,-0.246,0.129,-0.014,0.011,1.002,0.000,0.000,0.000,0.0120,3,7,0.00,0.00,0.00,0.0000,0.0000,0.0000,0.0000,0.0000,0.0000,0.0000,0.00,0.00,0.00,2.3380,0.1610,1.1220,1.3950,2.7020,722,0.0000,0.0000,0.0000,0.0000,0.0000,0
3774,-0.8677,1.1902,0.0121,-0.0053,-0.0084,0.0041,0.63,-0.85,-2.29,0,4.107,-0.036,0.317,0.200,-0.014,0.011,0.999,0.000,0.000,0.000,0.0100,-3,-2,0.00,0.00,0.00,0.0000,0.0000,0.0000,0.0000,0.0000,0.0000,0.0000,0.00,0.00,0.00,2.3380,0.1610,1.1220,1.3950,2.7020,722,0.0000,0.0000,0.0000,0.0000,0.0000,0
3826,-0.8686,1.1894,0.0113,-0.0082,-0.0102,-0.0002,0.59,-0.85,-2.28,0,4.112,-0.136,0.023,0.124,-0.018,0.011,1.001,0.000,0.000,0.000,0.0110,-1,3,0.00,0.00,0.00,0.0000,0.0000,0.0000,0.0000,0.0000,0.0000,0.0000,0.00,0.00,0.00,2.3930,0.0000,1.1280,1.3980,2.7120,722,0.0000,0.0000,0.0000,0.0000,0.0000,0
3878,0.0000,0.0000,0.0000,0.0031,0.0045,0.0001,-0.01,0.01,-0.00,0,4.107,-0.144,0.056,0.338,-0.014,0.010,1.000,0.000,0.000,0.000,0.0140,-4,-4,0.00,0.00,0.00,0.0000,0.0000,0.0000,0.0000,0.0000,0.0000,0.0000,0.00,0.00,0.00,2.3930,0.0000,1.1280,1.3980,2.7120,722,0.0000,0.0000,0.0000,0.0000,0.0000,0
3929,-0.0006,0.0005,0.0140,-0.0167,0.0117,0.0001,-0.12,-0.05,0.00,0,4.107,-0.139,-0.038,0.095,-0.019,0.012,1.002,0.000,0.000,0.000,0.0140,4,-7,0.00,0.00,0.00,0.0000,0.0000,0.0000,0.0000,0.0000,0.0000,0.0000,0.00,0.00,0.00,0.0000,0.1690,1.1280,1.3940,2.7120,722,0.0000,0.0000,0.0000,0.0000,0.0000,0
3980,-0.0011,0.0013,0.0141,-0.0200,0.0189,0.0007,-0.01,-0.30,0.00,0,4.101,-0.197,-0.056,0.039,-0.016,0.010,1.001,0.000,0.000,0.000,0.0110,7,-1,0.00,0.00,0.00,0.0000,0.0000,0.0000,0.0000,0.0000,0.0000,0.0000,0.00,0.00,0.00,0.0000,0.1690,1.1280,1.3940,2.7120,722,0.0000,0.0000,0.0000,0.0000,0.0000,0
4031,-0.0012,0.0015,0.0129,-0.0179,0.0155,-0.0034,0.46,-0.47,0.00,0,4.117,-0.240,0.097,0.010,-0.016,0.011,1.002,0.000,0.000,0.000,0.0100,-8,0,0.00,0.00,0.00,0.0000,0.0000,0.0000,0.0000,0.0000,0.0000,0.0000,0.00,0.00,0.00,2.3500,0.1600,1.1240,1.4000,2.7060,733,0.0000,0.0000,0.0000,0.0000,0.0000,0
4082,-0.0011,0.0003,0.0116,-0.0145,-0.0001,-0.0076,0.39,-0.36,0.00,0,4.107,-0.437,-0.126,0.148,-0.018,0.010,1.000,0.000,0.000,0.000,0.0100,-8,3,0.00,0.00,0.00,0.0000,0.0000,0.0000,0.0000,0.0000,0.0000,0.0000,0.00,0.00,0.00,2.3500,0.1600,1.1240,1.4000,2.7060,733,0.0000,0.0000,0.0000,0.0000,0.0000,0
4134,-0.0002,0.0002,0.0106,-0.0046,-0.0009,-0.0104,0.27,-0.51,0.00,0,4.112,-0.027,-0.072,-0.120,-0.014,0.010,1.001,0.000,0.000,0.000,0.0090,4,1,0.00,0.00,0.00,0.0000,0.0000,0.0000,0.0000,0.0000,0.0000,0.0000,0.00,0.00,0.00,2.3560,0.0000,1.1230,1.4000,2.7070,733,0.0000,0.0000,0.0000,0.0000,0.0000,0
4186,-0.0025,0.0011,0.0095,-0.0213,0.0057,-0.0128,0.52,-0.41,0.00,0,4.107,-0.231,-0.132,0.092,-0.015,0.012,1.003,0.000,0.000,0.000,0.0130,4,0,0.00,0.00,0.00,0.0000,0.0000,0.0000,0.0000,0.0000,0.0000,0.0000,0.00,0.00,0.00,2.3560,0.0000,1.1230,1.4000,2.7070,733,0.0000,0.0000,0.0000,0.0000,0.0000,0
4238,-0.0025,0.0022,0.0109,-0.0184,0.0134,-0.0017,0.35,-0.54,-0.00,0,4.112,0.047,-0.056,0.145,-0.014,0.011,1.000,0.000,0.000,0.000,0.0120,0,0,0.00,0.00,0.00,0.0000,0.0000,0.0000,0.0000,0.0000,0.0000,0.0000,0.00,0.00,0.00,0.0000,0.0000,1.1260,1.3970,2.7010,733,0.0000,0.0000,0.0000,0.0000,0.0000,0
4289,-0.0020,0.0021,0.0114,-0.0126,0.0104,0.0016,0.41,-0.61,0.00,0,4.101,0.002,-0.424,0.022,-0.016,0.011,1.000,0.000,0.000,0.000,0.0110,5,-3,0.00,0.00,0.00,0.0000,0.0000,0.0000,0.0000,0.0000,0.0000,0.0000,0.00,0.00,0.00,0.0000,0.0000,1.1260,1.3970,2.7010,733,0.0000,0.0000,0.0000,0.0000,0.0000,0
4340,0.0023,-0.0003,0.0114,0.0151,-0.0062,0.0013,0.56,-1.02,0.00,0,4.112,-0.032,-0.145,-0.212,-0.014,0.010,1.001,0.000,0.000,0.000,0.0120,1,6,0.00,0.00,0.00,0.0000,0.0000,0.0000,0.0000,0.0000,0.0000,0.0000,0.00,0.00,0.00,0.0000,0.1630,1.1210,1.3960,2.7020,733,0.0000,0.0000,0.0000,0.0000,0.0000,0
4391,0.0034,0.0005,0.0118,0.0182,-0.0002,0.0035,0.77,-1.08,0.00,0,4.101,0.018,0.263,-0.216,-0.013,0.010,1.000,0.000,0.000,0.000,0.0110,0,0,0.00,0.00,0.00,0.0000,0.0000,0.0000,0.0000,0.0000,0.0000,0.0000,0.00,0.00,0.00,0.0000,0.1630,1.1210,1.3960,2.7020,733,0.0000,0.0000,0.0000,0.0000,0.0000,0
4443,0.0016,-0.0039,0.0117,0.0043,-0.0258,0.0021,0.84,-0.93,0.01,0,4.117,-0.287,-0.286,-0.282,-0.016,0.010,0.998,0.000,0.000,0.000,0.0110,2,3,0.00,0.00,0.00,0.0000,0.0000,0.0000,0.0000,0.0000,0.0000,0.0000,0.00,0.00,0.00,0.0000,0.0000,1.1230,1.3980,2.7060,733,0.0000,0.0000,0.0000,0.0000,0.0000,0
4494,0.0014,-0.0047,0.0116,0.0008,-0.0254,0.0012,0.79,-0.83,0.00,0,4.107,-0.102,-0.190,-0.052,-0.018,0.010,0.999,0.000,0.000,0.000,0.0090,5,-9,0.00,0.00,0.00,0.0000,0.0000,0.0000,0.0000,0.0000,0.0000,0.0000,0.00,0.00,0.00,0.0000,0.0000,1.1230,1.3980,2.7060,733,0.0000,0.0000,0.0000,0.0000,0.0000,0
4546,0.0011,-0.0077,0.0103,-0.0022,-0.0378,-0.0049,0.91,-0.81,0.01,0,4.112,-0.012,-0.102,-0.193,-0.014,0.010,1.005,0.000,0.000,0.000,0.0110,0,1,0.00,0.00,0.00,0.0000,0.0000,0.0000,0.0000,0.0000,0.0000,0.0000,0.00,0.00,0.00,2.3040,0.0000,1.1210,1.3980,2.7000,733,0.0000,0.0000,0.0000,0.0000,0.0000,0
4597,0.0011,-0.0035,0.0108,-0.0021,-0.0074,0.0000,0.60,-0.73,-0.01,0,4.101,-0.076,0.086,-0.195,-0.016,0.012,1.002,0.000,0.000,0.000,0.0110,-7,-2,0.00,0.00,0.00,0.0000,0.0000,0.0000,0.0000,0.0000,0.0000,0.0000,0.00,0.00,0.00,2.3040,0.0000,1.1210,1.3980,2.7000,733,0.0000,0.0000,0.0000,0.0000,0.0000,0
4648,0.0006,-0.0042,0.0110,-0.0047,-0.0087,0.0012,0.54,-0.85,-0.02,0,4.112,-0.104,0.319,-0.137,-0.016,0.010,1.001,0.000,0.000,0.000,0.0110,8,-5,0.00,0.00,0.00,0.0000,0.0000,0.0000,0.0000,0.0000,0.0000,0.0000,0.00,0.00,0.00,2.3260,0.1590,1.1250,1.3970,2.7090,733,0.0000,0.0000,0.0000,0.0000,0.0000,0
4699,0.0009,-0.0024,0.0111,-0.0035,0.0022,0.0020,0.55,-0.81,-0.01,0,4.101,-0.190,-0.139,0.304,-0.016,0.008,1.002,0.000,0.000,0.000,0.0130,-1,9,0.00,0.00,0.00,0.0000,0.0000,0.0000,0.0000,0.0000,0.0000,0.0000,0.00,0.00,0.00,2.3260,0.1590,1.1250,1.3970,2.7090,733,0.0000,0.0000,0.0000,0.0000,0.0000,0
4750,0.0022,-0.0037,0.0121,0.0028,-0.0038,0.0068,0.50,-0.79,-0.01,0,4.112,-0.146,0.121,-0.022,-0.015,0.010,1.000,0.000,0.000,0.000,0.0120,-2,-3,0.00,0.00,0.00,0.0000,0.0000,0.0000,0.0000,0.0000,0.0000,0.0000,0.00,0.00,0.00,2.3530,0.1600,1.1260,1.4020,2.7020,733,0.0000,0.0000,0.0000,0.0000,0.0000,0
4801,0.0012,-0.0041,0.0124,-0.0019,-0.0051,0.0067,0.57,-0.81,-0.00,0,4.101,-0.019,0.038,-0.345,-0.016,0.011,1.001,0.000,0.000,0.000,0.0100,0,5,0.00,0.00,0.00,0.0000,0.0000,0.0000,0.0000,0.0000,0.0000,0.0000,0.00,0.00,0.00,2.3530,0.1600,1.1260,1.4020,2.7020,733,0.0000,0.0000,0.0000,0.0000,0.0000,0
4853,0.0022,-0.0031,0.0115,0.0031,0.0009,0.0012,0.50,-0.77,-0.00,0,4.117,-0.152,0.128,0.514,-0.016,0.012,1.004,0.000,0.000,0.000,0.0070,-8,0,0.00,0.00,0.00,0.0000,0.0000,0.0000,0.0000,0.0000,0.0000,0.0000,0.00,0.00,0.00,2.3440,0.1650,1.1240,1.3990,2.7020,733,0.0000,0.0000,0.0000,0.0000,0.0000,0
4904,0.0022,-0.0043,0.0095,0.0035,-0.0049,-0.0073,0.55,-0.86,0.00,0,4.101,-0.089,-0.021,-0.017,-0.018,0.010,1.001,0.000,0.000,0.000,0.0100,-3,-3,0.00,0.00,0.00,0.0000,0.0000,0.0000,0.0000,0.0000,0.0000,0.0000,0.00,0.00,0.00,2.3440,0.1650,1.1240,1.3990,2.7020,733,0.0000,0.0000,0.0000,0.0000,0.0000,0
4955,0.0007,-0.0040,0.0096,-0.0058,-0.0029,-0.0045,0.55,-0.82,-0.00,0,4.117,-0.060,0.014,0.052,-0.016,0.008,1.001,0.000,0.000,0.000,0.0120,2,5,0.00,0.00,0.00,0.0000,0.0000,0.0000,0.0000,0.0000,0.0000,0.0000,0.00,0.00,0.00,2.3220,0.1580,1.1270,1.4010,2.7010,696,0.0000,0.0000,0.0000,0.0000,0.0000,0
5007,0.0020,-0.0021,0.0106,0.0007,0.0071,0.0012,0.56,-0.86,-0.01,0,4.101,0.156,-0.179,-0.039,-0.015,0.010,0.999,0.000,0.000,0.000,0.0110,-5,-3,0.00,0.00,0.00,0.0000,0.0000,0.0000,0.0000,0.0000,0.0000,0.0000,0.00,0.00,0.00,2.3220,0.1580,1.1270,1.4010,2.7010,696,0.0000,0.0000,0.0000,0.0000,0.0000,0
5058,0.0005,0.0032,0.0108,-0.0066,0.0334,0.0022,0.26,-0.82,-0.02,0,4.112,-0.244,-0.120,-0.003,-0.016,0.011,1.001,0.000,0.000,0.000,0.0100,-9,1,0.00,0.00,0.00,0.0000,0.0000,0.0000,0.0000,0.0000,0.0000,0.0000,0.00,0.00,0.00,0.0000,0.1700,1.1240,1.3980,2.7110,696,0.0000,0.0000,0.0000,0.0000,0.0000,0
5110,0.0010,0.0021,0.0106,-0.0042,0.0222,0.0014,0.30,-0.80,-0.02,0,3.695,-0.967,0.512,-0.797,-0.022,0.003,1.004,0.000,0.000,0.000,0.0100,-1,-1,0.00,0.00,0.00,0.0000,0.0000,0.0000,0.0000,0.0000,0.0000,0.0000,0.00,0.00,0.00,0.0000,0.1700,1.1240,1.3980,2.7110,696,0.0000,0.0000,0.0000,0.0000,0.0000,0
5161,0.0069,0.0045,0.0104,0.0304,0.0260,0.0001,0.30,-1.05,0.00,0,3.790,0.165,0.311,-0.214,-0.017,0.005,0.994,0.000,0.000,0.000,0.0080,5,-1,0.00,0.00,0.00,0.0000,0.0000,0.0000,0.0000,0.0000,0.0000,0.0000,0.00,0.00,0.00,2.3320,0.1620,1.1260,1.3990,2.7120,696,0.0000,0.0000,0.0000,0.0000,0.0000,0
5212,0.0074,0.0052,0.0094,0.0332,0.0210,-0.0039,0.32,-0.97,-0.01,0,3.816,-1.055,0.742,-3.506,-0.009,-0.017,0.984,0.000,0.000,0.000,0.0120,9,0,0.00,0.00,0.00,0.0000,0.0000,0.0000,0.0000,0.0000,0.0000,0.0000,0.00,0.00,0.00,2.3320,0.1620,1.1260,1.3990,2.7120,696,0.0000,0.0000,0.0000,0.0000,0.0000,0
5263,0.0073,0.0051,0.0107,0.0327,0.0141,0.0028,0.39,-0.93,-0.10,0,3.848,-0.514,-0.793,-6.818,-0.005,-0.011,0.980,0.000,0.000,0.000,0.0100,2,0,0.00,0.00,0.00,0.0000,0.0000,0.0000,0.0000,0.0000,0.0000,0.0000,0.00,0.00,0.00,2.3580,0.1600,1.1250,1.4020,2.7100,696,0.0000,0.0000,0.0000,0.0000,0.0000,0
5315,0.0085,-0.0009,0.0105,0.0378,-0.0199,-0.0007,0.70,-0.93,-0.34,0,3.838,0.372,-1.381,-5.859,-0.016,-0.019,0.985,0.000,0.000,0.000,0.0110,35,0,0.00,0.00,0.00,0.0000,0.0000,0.0000,0.0000,0.0000,0.0000,0.0000,0.00,0.00,0.00,2.3580,0.1600,1.1250,1.4020,2.7100,696,0.0000,0.0000,0.0000,0.0000,0.0000,0
5366,0.0073,-0.0154,0.0102,0.0297,-0.0894,-0.0037,1.35,-0.72,-0.51,0,3.853,-0.236,0.000,-6.730,-0.018,-0.027,1.002,0.000,0.000,0.000,0.0090,13,-28,0.00,0.00,0.00,0.0000,0.0000,0.0000,0.0000,0.0000,0.0000,0.0000,0.00,0.00,0.00,2.3390,0.1620,1.1300,1.4220,2.7070,696,0.0000,0.0000,0.0000,0.0000,0.0000,0
5418,0.0162,-0.0272,0.0088,0.0737,-0.1301,-0.0111,1.24,-1.35,-0.78,0,3.832,1.299,-2.874,-5.806,-0.006,-0.012,0.986,0.000,0.000,0.000,0.0120,0,-12,0.00,0.00,0.00,0.0000,0.0000,0.0000,0.0000,0.0000,0.0000,0.0000,0.00,0.00,0.00,2.3390,0.1620,1.1300,1.4220,2.7070,696,0.0000,0.0000,0.0000,0.0000,0.0000,0
5469,0.0372,-0.0336,0.0081,0.1639,-0.1387,-0.0144,1.07,-1.62,-0.93,0,3.848,-2.465,-0.899,-0.336,-0.014,-0.018,0.977,0.000,0.000,0.000,0.0100,32,2,0.00,0.00,0.00,0.0000,0.0000,0.0000,0.0000,0.0000,0.0000,0.0000,0.00,0.00,0.00,0.0000,0.1610,1.1360,1.4270,2.7080,696,0.0000,0.0000,0.0000,0.0000,0.0000,0
5520,0.0502,-0.0474,0.0070,0.1974,-0.1814,-0.0187,1.53,-1.54,-0.86,0,3.838,-12.701,2.481,2.465,-0.024,-0.008,1.029,0.000,0.000,0.000,0.0120,0,-3,0.00,0.00,0.00,0.0000,0.0000,0.0000,0.0000,0.0000,0.0000,0.0000,0.00,0.00,0.00,0.0000,0.1610,1.1360,1.4270,2.7080,696,0.0000,0.0000,0.0000,0.0000,0.0000,0
5571,0.0482,-0.0734,0.0075,0.1540,-0.2732,-0.0075,1.57,-1.10,-0.63,0,3.853,-16.078,12.895,14.310,-0.015,-0.006,1.011,0.000,0.000,0.000,0.0110,13,-7,0.00,0.00,0.00,0.0000,0.0000,0.0000,0.0000,0.0000,0.0000,0.0000,0.00,0.00,0.00,0.0000,0.1610,1.1330,1.4390,2.7010,707,0.0000,0.0000,0.0000,0.0000,0.0000,0
5623,0.0485,-0.0726,0.0133,0.1262,-0.2157,0.0278,0.82,-0.96,-0.07,0,3.832,-14.402,9.494,13.287,-0.005,0.018,1.056,0.000,0.000,0.000,0.0140,11,-25,0.00,0.00,0.00,0.0000,0.0000,0.0000,0.0000,0.0000,0.0000,0.0000,0.00,0.00,0.00,0.0000,0.1610,1.1330,1.4390,2.7010,707,0.0000,0.0000,0.0000,0.0000,0.0000,0
5674,0.0656,-0.0699,0.0158,0.1844,-0.1519,0.0410,-0.37,-1.24,0.60,0,3.843,-20.244,-1.584,14.166,-0.018,-0.029,1.004,0.000,0.000,0.000,0.0130,10,-5,0.00,0.00,0.00,0.0000,0.0000,0.0000,0.0000,0.0000,0.0000,0.0000,0.00,0.00,0.00,2.3950,0.1600,1.1210,1.4530,2.7080,707,0.0000,0.0000,0.0000,0.0000,0.0000,0
5726,0.0870,-0.0795,0.0139,0.2515,-0.1570,0.0234,-1.55,-1.40,1.49,0,3.827,-27.400,-13.906,19.660,-0.013,-0.018,1.020,0.000,0.000,0.000,0.0130,-9,-28,0.00,0.00,0.00,0.0000,0.0000,0.0000,0.0000,0.0000,0.0000,0.0000,0.00,0.00,0.00,2.3950,0.1600,1.1210,1.4530,2.7080,707,0.0000,0.0000,0.0000,0.0000,0.0000,0
5778,0.0911,-0.0871,0.0164,0.2210,-0.1416,0.0400,-3.20,-0.82,2.54,0,3.832,18.992,-49.373,31.082,-0.015,-0.031,0.984,0.000,0.000,0.000,0.0130,-6,-15,0.00,0.00,0.00,0.0000,0.0000,0.0000,0.0000,0.0000,0.0000,0.0000,0.00,0.00,0.00,0.0000,0.1730,1.0910,1.5160,2.7120,707,0.0000,0.0000,0.0000,0.0000,0.0000,0
5829,0.1084,-0.0714,0.0154,0.2527,-0.0071,0.0219,-3.50,0.94,4.11,0,3.806,11.151,-43.193,31.839,-0.001,-0.031,1.002,0.000,0.000,0.000,0.0040,-32,-9,0.00,0.00,0.00,0.0000,0.0000,0.0000,0.0000,0.0000,0.0000,0.0000,0.00,0.00,0.00,0.0000,0.1730,1.0910,1.5160,2.7120,707,0.0000,0.0000,0.0000,0.0000,0.0000,0
5880,0.1123,-0.0481,0.0088,0.2145,0.1301,-0.0063,-3.77,3.50,5.88,0,3.811,23.242,-46.386,22.345,0.031,-0.035,1.025,0.000,0.000,0.000,0.0000,-14,0,0.00,0.00,0.00,0.0000,0.0000,0.0000,0.0000,0.0000,0.0000,0.0000,0.00,0.00,0.00,0.0000,0.1590,1.0840,1.5700,2.7090,707,0.0000,0.0000,0.0000,0.0000,0.0000,0
5931,0.1070,-0.0241,0.0016,0.1090,0.2379,-0.0376,-3.45,6.38,7.15,0,3.790,35.677,-56.446,9.425,0.026,-0.013,0.973,0.000,0.000,0.000,0.0000,-6,20,0.00,0.00,0.00,0.0000,0.0000,0.0000,0.0000,0.0000,0.0000,0.0000,0.00,0.00,0.00,0.0000,0.1590,1.0840,1.5700,2.7090,707,0.0000,0.0000,0.0000,0.0000,0.0000,0
5982,0.0906,-0.0035,-0.0049,-0.0458,0.2993,-0.0651,-1.89,9.93,7.55,0,3.785,-15.013,17.635,16.372,0.027,-0.016,1.031,0.000,0.000,0.000,0.0000,-7,45,0.00,0.00,0.00,0.0000,0.0000,0.0000,0.0000,0.0000,0.0000,0.0000,0.00,0.00,0.00,0.0000,0.1150,1.0920,1.5900,2.7230,707,0.0000,0.0000,0.0000,0.0000,0.0000,0
6034,0.0477,0.0063,-0.0185,-0.3165,0.2849,-0.1285,-1.62,11.29,7.66,0,3.758,34.865,76.513,0.111,0.013,-0.019,1.046,0.000,0.000,0.000,0.0000,-28,122,0.00,0.00,0.00,0.0000,0.0000,0.0000,0.0000,0.0000,0.0000,0.0000,0.00,0.00,0.00,0.0000,0.1150,1.0920,1.5900,2.7230,707,0.0000,0.0000,0.0000,0.0000,0.0000,0
6085,0.0183,0.0042,-0.0153,-0.4641,0.2055,-0.0663,0.71,8.17,6.76,0,3.790,18.856,115.661,-6.478,0.004,-0.017,1.034,0.000,0.000,0.000,0.0000,-4,68,0.00,0.00,0.00,0.0000,0.0000,0.0000,0.0000,0.0000,0.0000,0.0000,0.00,0.00,0.00,0.0000,0.1340,1.0900,1.5730,2.7110,707,0.0000,0.0000,0.0000,0.0000,0.0000,0
6137,-0.0096,0.0025,-0.0101,-0.5454,0.1336,0.0001,2.47,2.87,6.16,0,3.779,-11.225,94.977,-10.373,0.006,-0.021,1.025,0.000,0.000,0.000,0.0000,17,97,0.00,0.00,0.00,0.0000,0.0000,0.0000,0.0000,0.0000,0.0000,0.0000,0.00,0.00,0.00,0.0000,0.1340,1.0900,1.5730,2.7110,707,0.0000,0.0000,0.0000,0.0000,0.0000,0
6189,-0.0359,-0.0034,-0.0036,-0.5508,0.0477,0.0497,2.61,-1.85,5.47,0,3.779,-64.996,78.011,-11.221,-0.007,-0.009,1.020,0.000,0.000,0.000,0.0000,29,72,0.00,0.00,0.00,0.0000,0.0000,0.0000,0.0000,0.0000,0.0000,0.0000,0.00,0.00,0.00,0.8480,0.0000,1.0900,1.5520,2.7040,707,0.0000,0.0000,0.0000,0.0000,0.0000,0
6240,-0.0767,-0.0159,-0.0097,-0.6183,-0.0454,0.0050,0.32,-5.05,4.85,0,3.758,-27.436,72.684,-11.404,-0.009,-0.016,1.054,0.000,0.000,0.000,0.0000,10,17,0.00,0.00,0.00,0.0000,0.0000,0.0000,0.0000,0.0000,0.0000,0.0000,0.00,0.00,0.00,0.8480,0.0000,1.0900,1.5520,2.7040,707,0.0000,0.0000,0.0000,0.0000,0.0000,0
6291,-0.1142,-0.0313,-0.0108,-0.6135,-0.1179,0.0102,-1.20,-8.94,4.31,0,3.785,-17.847,42.524,-12.658,-0.002,-0.021,1.033,0.000,0.000,0.000,0.0060,6,4,0.00,0.00,0.00,0.0000,0.0000,0.0000,0.0000,0.0000,0.0000,0.0000,0.00,0.00,0.00,0.0000,0.0000,1.0940,1.5830,2.7440,707,0.0000,0.0000,0.0000,0.0000,0.0000,0
6343,-0.1329,-0.0410,0.0027,-0.4652,-0.1215,0.1057,-2.02,-11.91,3.61,0,3.774,-19.382,-15.046,-16.184,0.005,-0.015,0.992,0.000,0.000,0.000,0.0140,3,-14,0.00,0.00,0.00,0.0000,0.0000,0.0000,0.0000,0.0000,0.0000,0.0000,0.00,0.00,0.00,0.0000,0.0000,1.0940,1.5830,2.7440,707,0.0000,0.0000,0.0000,0.0000,0.0000,0
6393,-0.1300,-0.0493,0.0153,-0.2349,-0.1040,0.1549,-3.10,-12.59,2.94,0,3.785,-15.758,-64.372,-21.316,-0.004,-0.024,0.992,0.000,0.000,0.000,0.0220,2,-46,0.00,0.00,0.00,0.0000,0.0000,0.0000,0.0000,0.0000,0.0000,0.0000,0.00,0.00,0.00,0.1760,0.0000,1.0890,1.5970,2.7670,756,0.0000,0.0000,0.0000,0.0000,0.0000,0
6445,-0.1072,-0.0542,0.0217,0.0233,-0.0652,0.1471,-4.09,-10.65,2.12,0,3.758,6.144,-103.475,-20.056,-0.004,-0.019,0.990,0.000,0.000,0.000,0.0250,-2,-10,0.00,0.00,0.00,0.0000,0.0000,0.0000,0.0000,0.0000,0.0000,0.0000,0.00,0.00,0.00,0.1760,0.0000,1.0890,1.5970,2.7670,756,0.0000,0.0000,0.0000,0.0000,0.0000,0
6497,-0.0625,-0.0523,0.0180,0.3015,0.0038,0.0923,-4.28,-6.32,1.32,0,3.769,29.049,-110.454,-16.765,-0.004,-0.025,0.999,0.000,0.000,0.000,0.0270,-6,-17,0.00,0.00,0.00,0.0000,0.0000,0.0000,0.0000,0.0000,0.0000,0.0000,0.00,0.00,0.00,0.0000,0.0000,1.0950,1.5880,2.7040,756,0.0000,0.0000,0.0000,0.0000,0.0000,0
6548,-0.0534,-0.0462,0.0280,0.3248,0.0651,0.1113,-3.30,-0.50,0.47,0,3.758,26.518,-88.210,-10.778,-0.008,-0.023,1.011,0.000,0.000,0.000,0.0280,-12,-15,0.00,0.00,0.00,0.0000,0.0000,0.0000,0.0000,0.0000,0.0000,0.0000,0.00,0.00,0.00,0.0000,0.0000,1.0950,1.5880,2.7040,756,0.0000,0.0000,0.0000,0.0000,0.0000,0
6599,-0.0466,-0.0390,0.0343,0.2910,0.1075,0.1175,-2.08,4.20,0.02,0,3.758,21.692,-48.916,-7.216,-0.006,-0.026,1.027,0.000,0.000,0.000,0.0320,-10,-29,0.00,0.00,0.00,0.0000,0.0000,0.0000,0.0000,0.0000,0.0000,0.0000,0.00,0.00,0.00,0.0000,0.0000,1.1120,0.0000,2.6740,756,0.0000,0.0000,0.0000,0.0000,0.0000,0
6651,-0.0282,-0.0292,0.0366,0.2868,0.1478,0.1070,-1.26,5.95,-0.12,0,3.737,40.675,-15.287,-9.393,-0.003,-0.022,1.041,0.000,0.000,0.000,0.0380,-20,-34,0.00,0.00,0.00,0.0000,0.0000,0.0000,0.0000,0.0000,0.0000,0.0000,0.00,0.00,0.00,0.0000,0.0000,1.1120,0.0000,2.6740,756,0.0000,0.0000,0.0000,0.0000,0.0000,0
6702,0.0039,-0.0184,0.0376,0.3245,0.1783,0.0951,0.40,6.37,-0.43,0,3.743,14.638,-27.115,-6.940,-0.000,-0.020,1.053,0.000,0.000,0.000,0.0440,-7,-16,0.00,0.00,0.00,0.0000,0.0000,0.0000,0.0000,0.0000,0.0000,0.0000,0.00,0.00,0.00,2.6920,0.1340,1.1130,1.5700,2.6720,756,0.0000,0.0000,0.0000,0.0000,0.0000,0
6754,0.0298,-0.0049,0.0413,0.3213,0.2021,0.1006,1.17,7.35,-0.69,0,3.737,8.256,-38.666,1.765,0.003,-0.017,1.040,0.000,0.000,0.000,0.0460,-14,-19,0.00,0.00,0.00,0.0000,0.0000,0.0000,0.0000,0.0000,0.0000,0.0000,0.00,0.00,0.00,2.6920,0.1340,1.1130,1.5700,2.6720,756,0.0000,0.0000,0.0000,0.0000,0.0000,0
6805,0.0454,0.0045,0.0474,0.2601,0.1903,0.1211,1.60,9.20,-0.72,0,3.743,33.454,-0.763,2.542,0.001,-0.014,1.035,0.000,0.000,0.000,0.0540,-12,-4,0.00,0.00,0.00,0.0000,0.0000,0.0000,0.0000,0.0000,0.0000,0.0000,0.00,0.00,0.00,0.0000,0.1710,1.1030,1.6000,2.6880,756,0.0000,0.0000,0.0000,0.0000,0.0000,0
6856,0.0537,0.0129,0.0555,0.1652,0.1717,0.1408,3.20,9.53,-0.65,0,3.743,13.628,34.397,0.129,0.001,-0.021,1.030,0.000,0.000,0.000,0.0590,-2,5,0.00,0.00,0.00,0.0000,0.0000,0.0000,0.0000,0.0000,0.0000,0.0000,0.00,0.00,0.00,0.0000,0.1710,1.1030,1.6000,2.6880,756,0.0000,0.0000,0.0000,0.0000,0.0000,0
6907,0.0528,0.0192,0.0626,0.0484,0.1361,0.1508,4.12,8.31,-0.59,0,3.748,-9.198,51.260,-1.929,0.009,-0.020,1.024,0.000,0.000,0.000,0.0660,0,17,0.00,0.00,0.00,0.0000,0.0000,0.0000,0.0000,0.0000,0.0000,0.0000,0.00,0.00,0.00,2.7130,0.1390,1.1020,1.5990,2.6770,756,0.0000,0.0000,0.0000,0.0000,0.0000,0
6959,0.0450,0.0208,0.0693,-0.0611,0.0804,0.1518,3.98,6.07,-0.62,0,3.737,-16.997,46.133,-4.562,0.014,-0.016,1.018,0.000,0.000,0.000,0.0680,1,10,0.00,0.00,0.00,0.0000,0.0000,0.0000,0.0000,0.0000,0.0000,0.0000,0.00,0.00,0.00,2.7130,0.1390,1.1020,1.5990,2.6770,756,0.0000,0.0000,0.0000,0.0000,0.0000,0
7011,0.0323,0.0193,0.0733,-0.1518,0.0251,0.1426,3.25,3.76,-0.77,0,3.743,-24.284,42.416,-5.785,0.011,-0.019,1.022,0.000,0.000,0.000,0.0790,5,8,0.00,0.00,0.00,0.0000,0.0000,0.0000,0.0000,0.0000,0.0000,0.0000,0.00,0.00,0.00,0.0000,0.0000,1.1000,1.5720,2.6380,795,0.0000,0.0000,0.0000,0.0000,0.0000,0
7062,0.0311,0.0198,0.0823,-0.1529,-0.0034,0.1562,2.08,1.63,-0.96,0,3.732,-17.921,45.199,-5.502,0.010,-0.011,1.015,0.000,0.000,0.000,0.0840,4,-3,0.00,0.00,0.00,0.0000,0.0000,0.0000,0.0000,0.0000,0.0000,0.0000,0.00,0.00,0.00,0.0000,0.0000,1.1000,1.5720,2.6380,795,0.0000,0.0000,0.0000,0.0000,0.0000,0
7112,0.0194,0.0161,0.0885,-0.1843,-0.0354,0.1591,1.22,-0.68,-1.26,0,3.743,-8.635,27.480,-5.275,0.015,-0.013,1.018,0.000,0.000,0.000,0.0890,1,6,0.00,0.00,0.00,0.0000,0.0000,0.0000,0.0000,0.0000,0.0000,0.0000,0.00,0.00,0.00,2.4860,0.1600,1.1020,1.5510,2.6230,795,0.0000,0.0000,0.0000,0.0000,0.0000,0
7163,0.0172,0.0122,0.0954,-0.1487,-0.0564,0.1592,0.77,-2.41,-1.55,0,3.732,-17.068,8.928,-3.205,0.012,-0.015,1.022,0.000,0.000,0.000,0.0960,0,-14,0.00,0.00,0.00,0.0000,0.0000,0.0000,0.0000,0.0000,0.0000,0.0000,0.00,0.00,0.00,2.4860,0.1600,1.1020,1.5510,2.6230,795,0.0000,0.0000,0.0000,0.0000,0.0000,0
7214,0.0134,0.0098,0.1018,-0.1158,-0.0613,0.1590,-0.15,-3.05,-1.77,0,3.743,-8.093,4.849,-2.180,0.011,-0.011,1.024,0.000,0.000,0.000,0.1050,3,3,0.00,0.00,0.00,0.0000,0.0000,0.0000,0.0000,0.0000,0.3000,0.2851,-2.02,-4.15,53.00,0.0000,0.0000,1.1100,1.4660,2.6080,795,0.0000,0.0000,0.0000,0.0000,0.0000,0
7265,0.0173,0.0089,0.1096,-0.0469,-0.0511,0.1715,-0.64,-3.56,-1.89,0,3.732,-3.013,-24.721,-1.321,0.011,-0.013,1.036,0.000,0.000,0.000,0.1070,0,3,-0.15,3.05,-1.77,0.0134,0.0098,0.1050,0.0000,0.0000,0.3000,0.2824,-1.66,-0.92,56.66,0.0000,0.0000,1.1100,1.4660,2.6080,795,0.0000,0.0000,0.0000,0.0000,0.0000,0
7316,0.0168,0.0059,0.1148,-0.0133,-0.0507,0.1661,-0.76,-2.42,-1.90,0,3.737,1.535,-6.736,-1.108,0.003,-0.011,1.019,0.000,0.000,0.000,0.1200,-1,-15,-0.32,4.43,-1.83,0.0082,0.0102,0.1070,0.0000,0.0000,0.3000,0.2820,-1.84,0.52,57.02,2.4540,0.0000,1.1160,1.5180,2.6040,795,0.0000,0.0000,0.0000,0.0000,0.0000,0
7367,0.0116,0.0027,0.1234,-0.0146,-0.0483,0.1743,-0.82,-2.04,-1.98,0,3.732,-2.063,-5.291,-0.486,0.008,-0.013,1.029,0.000,0.000,0.000,0.1310,2,1,-0.92,-6.37,-1.89,0.0253,0.0110,0.1367,0.0000,0.0000,0.3000,0.2795,-1.96,0.12,59.50,2.4540,0.0000,1.1160,1.5180,2.6040,795,0.0000,0.0000,0.0000,0.0000,0.0000,0
7418,0.0077,0.0054,0.1337,-0.0166,-0.0187,0.1914,-0.95,-1.56,-2.02,0,3.743,3.963,-7.328,-0.563,0.005,-0.014,1.014,0.000,0.000,0.000,0.1350,0,1,0.65,-0.38,-1.84,0.0268,0.0088,0.1680,0.0000,0.0000,0.3000,0.2757,-0.48,-0.22,60.57,0.0000,0.0000,1.1140,1.5210,2.5760,795,0.0000,0.0000,0.0000,0.0000,0.0000,0
7469,0.0040,0.0029,0.1414,-0.0176,-0.0193,0.1905,-0.74,-1.17,-2.01,0,3.732,8.017,-2.471,-0.659,0.003,-0.014,1.015,0.000,0.000,0.000,0.1380,2,2,0.11,2.85,-1.90,0.0250,0.0086,0.1632,0.0000,0.0000,0.3000,0.2743,-0.67,-0.53,60.37,0.0000,0.0000,1.1140,1.5210,2.5760,795,0.0000,0.0000,0.0000,0.0000,0.0000,0
7520,-0.0008,0.0013,0.1468,-0.0261,-0.0175,0.1770,-0.30,-0.96,-2.03,0,3.737,1.737,5.680,0.575,0.008,-0.017,1.014,0.000,0.000,0.000,0.1530,4,1,1.00,3.91,-1.97,0.0212,0.0059,0.1579,0.0000,0.0000,0.3000,0.2748,-0.70,-1.23,60.86,2.5740,0.0000,1.1140,1.5170,2.5550,795,0.0000,0.0000,0.0000,0.0000,0.0000,0
7571,-0.0048,-0.0004,0.1561,-0.0301,-0.0188,0.1844,-0.18,-1.14,-2.03,0,3.732,-4.213,3.374,0.257,0.006,-0.014,1.010,0.000,0.000,0.000,0.1600,2,0,1.83,3.23,-2.07,0.0189,-0.0002,0.1630,0.0000,0.0000,0.3000,0.2722,-0.89,-1.70,60.98,2.5740,0.0000,1.1140,1.5170,2.5550,795,0.0000,0.0000,0.0000,0.0000,0.0000,0
7623,-0.0092,-0.0023,0.1648,-0.0338,-0.0217,0.1845,-0.25,-1.12,-2.00,0,3.743,1.885,0.193,-0.297,0.008,-0.014,1.008,0.000,0.000,0.000,0.1700,0,0,1.18,2.38,-2.00,0.0183,-0.0037,0.1705,0.0000,0.0000,0.3000,0.2706,-1.15,-2.18,59.89,0.0000,0.2240,1.1160,1.5140,2.5360,795,0.0000,0.0000,0.0000,0.0000,0.0000,0
7673,-0.0136,-0.0052,0.1739,-0.0359,-0.0274,0.1867,-0.18,-1.11,-2.00,0,3.737,-1.556,2.611,0.761,0.006,-0.014,1.003,0.000,0.000,0.000,0.1840,2,4,1.27,2.37,-2.02,0.0149,-0.0090,0.1776,0.0000,0.0000,0.3000,0.2686,-1.62,-2.59,59.97,0.0000,0.2240,1.1160,1.5140,2.5360,795,0.0000,0.0000,0.0000,0.0000,0.0000,0
7724,-0.0173,-0.0074,0.1854,-0.0354,-0.0296,0.1996,-0.08,-1.09,-1.97,0,3.743,-2.099,5.286,1.413,0.012,-0.013,0.994,0.000,0.000,0.000,0.1940,2,4,0.12,2.20,-1.74,0.0111,-0.0057,0.1888,0.0000,0.0000,0.3000,0.2651,-1.90,-2.86,59.10,2.6360,0.0000,1.1200,1.5100,2.5170,795,0.0000,0.0000,0.0000,0.0000,0.0000,0
7775,-0.0203,-0.0091,0.1965,-0.0309,-0.0301,0.2045,-0.18,-1.30,-1.91,0,3.737,-2.792,-1.502,1.605,0.005,-0.018,0.988,0.000,0.000,0.000,0.2060,1,0,0.06,2.16,-1.67,0.0040,-0.0094,0.1987,0.0000,0.0000,0.3000,0.2625,-2.06,-2.89,57.35,2.6360,0.0000,1.1200,1.5100,2.5170,795,0.0000,0.0000,0.0000,0.0000,0.0000,0
7826,-0.0243,-0.0108,0.2082,-0.0300,-0.0298,0.2077,-0.26,-1.28,-1.89,0,3.743,-0.423,-3.396,0.521,0.007,-0.015,0.986,0.000,0.000,0.000,0.2160,-1,0,-0.20,1.85,-1.56,0.0016,-0.0122,0.2098,0.0000,0.0000,0.3000,0.2599,-2.18,-3.16,56.64,0.0000,0.0000,1.1160,1.5110,2.4940,786,0.0000,0.0000,0.0000,0.0000,0.0000,0
7877,-0.0272,-0.0131,0.2191,-0.0253,-0.0312,0.2035,-0.26,-1.05,-1.86,0,3.743,1.179,1.784,0.069,0.006,-0.014,0.979,0.000,0.000,0.000,0.2240,1,0,-0.58,1.71,-1.44,0.0001,-0.0113,0.2201,0.0000,0.0000,0.3000,0.2583,-2.44,-3.16,55.91,0.0000,0.0000,1.1160,1.5110,2.4940,786,0.0000,0.0000,0.0000,0.0000,0.0000,0
7928,-0.0326,-0.0171,0.2285,-0.0316,-0.0382,0.1917,-0.15,-0.95,-1.85,0,3.748,-0.660,1.954,-0.136,0.007,-0.016,0.979,0.000,0.000,0.000,0.2380,0,0,-0.52,1.37,-1.41,-0.0010,-0.0136,0.2294,0.0000,0.0000,0.3000,0.2578,-3.06,-3.86,55.52,2.6750,0.0000,1.1180,1.5110,2.4770,786,0.0025,-0.0115,0.0000,0.0025,-0.0115,0
7980,-0.0347,-0.0190,0.2396,-0.0259,-0.0374,0.1886,-0.17,-1.03,-1.86,0,3.737,-3.777,0.899,0.291,0.003,-0.017,0.975,0.000,0.000,0.000,0.2380,0,0,-0.54,1.28,-1.42,-0.0053,-0.0161,0.2400,0.0000,0.0000,0.3000,0.2561,-3.18,-3.76,55.86,2.6750,0.0000,1.1180,1.5110,2.4770,786,0.0025,-0.0115,0.0000,0.0025,-0.0115,0
8031,-0.0357,-0.0212,0.2455,-0.0173,-0.0375,0.1614,-0.31,-1.03,-1.86,0,3.737,-0.730,-1.677,0.408,0.003,-0.015,0.979,0.000,0.000,0.000,0.2450,0,0,-0.74,1.23,-1.40,-0.0097,-0.0186,0.2466,0.0000,0.0000,0.3000,0.2579,-3.32,-3.40,55.84,0.0000,0.0000,1.1240,1.5060,2.4630,786,0.0025,-0.0115,0.0000,0.0025,-0.0115,0
8083,-0.0369,-0.0260,0.2509,-0.0100,-0.0441,0.1377,-0.30,-0.95,-1.85,0,3.732,-2.924,-5.526,0.158,0.006,-0.010,0.983,0.000,0.000,0.000,0.2490,0,0,-0.78,1.32,-1.38,-0.0146,-0.0212,0.2529,0.0000,0.0000,0.3000,0.2594,-3.96,-3.11,55.39,0.0000,0.0000,1.1240,1.5060,2.4630,786,0.0025,-0.0115,0.0000,0.0025,-0.0115,0
8135,-0.0374,-0.0287,0.2548,-0.0025,-0.0434,0.1153,-0.41,-0.76,-1.86,0,3.737,-3.804,-3.416,-0.194,0.004,-0.016,0.991,0.000,0.000,0.000,0.2560,0,0,-0.93,1.60,-1.37,-0.0199,-0.0237,0.2579,0.0000,0.0000,0.3000,0.2611,-4.09,-2.78,55.79,0.0000,0.0000,1.1230,1.5030,2.4420,786,0.0025,-0.0115,0.0000,0.0025,-0.0115,0
8186,-0.0395,-0.0311,0.2594,-0.0025,-0.0411,0.1047,-0.56,-0.49,-1.89,0,3.727,0.929,-1.962,-1.028,0.001,-0.017,0.996,0.000,0.000,0.000,0.2640,1,0,-1.13,1.78,-1.37,-0.0258,-0.0261,0.2631,0.0000,0.0000,0.3000,0.2614,-4.15,-2.93,56.63,0.0000,0.0000,1.1230,1.5030,2.4420,786,0.0025,-0.0115,0.0000,0.0025,-0.0115,0
8237,-0.0388,-0.0357,0.2653,0.0042,-0.0438,0.1061,-0.50,-0.41,-1.94,0,3.737,-1.540,-0.902,-0.785,0.007,-0.012,1.000,0.000,0.000,0.000,0.2740,0,0,-1.37,1.04,-1.16,0.0019,-0.0178,0.2699,0.0000,0.0000,0.3000,0.2601,-4.63,-2.57,58.21,0.0000,0.3350,1.1240,1.4990,2.4300,786,0.0025,-0.0115,0.0000,0.0025,-0.0115,0
8288,-0.0388,-0.0372,0.2731,0.0070,-0.0378,0.1164,-0.57,-0.36,-2.00,0,3.732,-0.910,-4.536,-1.139,0.002,-0.017,0.994,0.000,0.000,0.000,0.2760,0,-1,-1.44,1.10,-1.20,0.0011,-0.0179,0.2770,0.0000,0.0000,0.3000,0.2575,-4.49,-2.46,60.02,0.0000,0.3350,1.1240,1.4990,2.4300,786,0.0025,-0.0115,0.0000,0.0025,-0.0115,0
8339,-0.0389,-0.0398,0.2786,0.0087,-0.0352,0.1132,-0.64,-0.17,-2.06,0,3.737,3.908,-2.246,-0.668,0.004,-0.017,0.993,0.000,0.000,0.000,0.2850,0,0,-1.49,1.23,-1.18,0.0023,-0.0178,0.2820,0.0000,0.0000,0.3000,0.2568,-4.57,-2.40,61.73,2.7340,0.4080,1.1260,1.5020,2.4250,786,0.0025,-0.0115,0.0000,0.0025,-0.0115,0
8390,-0.0383,-0.0402,0.2861,0.0107,-0.0269,0.1181,-0.48,-0.04,-2.09,0,3.732,3.805,1.112,-1.007,0.005,-0.016,0.986,0.000,0.000,0.000,0.2870,1,0,-1.29,1.35,-1.21,0.0015,-0.0175,0.2885,0.0000,0.0000,0.3000,0.2549,-4.23,-2.27,62.80,2.7340,0.4080,1.1260,1.5020,2.4250,786,0.0025,-0.0115,0.0000,0.0025,-0.0115,0
8441,-0.0387,-0.0411,0.2907,0.0087,-0.0220,0.1082,-0.33,-0.01,-2.13,0,3.737,2.257,1.267,-0.752,0.002,-0.013,0.989,0.000,0.000,0.000,0.2960,1,3,-1.01,1.24,-1.20,0.0017,-0.0194,0.2934,0.0000,0.0000,0.3000,0.2551,-4.06,-2.40,63.78,0.0000,0.0000,1.1260,1.5070,2.4200,755,0.0025,-0.0115,0.0000,0.0025,-0.0115,0
8492,-0.0392,-0.0408,0.2975,0.0070,-0.0157,0.1081,-0.25,-0.03,-2.17,0,3.732,3.173,-0.822,-0.390,0.005,-0.018,0.986,0.000,0.000,0.000,0.3010,2,-8,-0.86,1.29,-1.31,-0.0028,-0.0205,0.2992,0.0000,0.0000,0.3000,0.2538,-3.75,-2.53,65.01,0.0000,0.0000,1.1260,1.5070,2.4200,755,0.0025,-0.0115,0.0000,0.0025,-0.0115,0
8543,-0.0422,-0.0407,0.3029,-0.0006,-0.0116,0.1023,-0.13,-0.12,-2.18,0,3.743,2.300,-3.859,0.276,0.005,-0.014,0.987,0.000,0.000,0.000,0.3060,-10,8,-0.61,0.93,-1.02,0.0079,-0.0242,0.3050,0.0000,0.0000,0.3000,0.2534,-3.55,-3.13,65.37,0.0000,0.0000,1.1150,1.5100,2.4050,755,0.0025,-0.0115,0.0000,0.0025,-0.0115,0
8595,-0.0363,-0.0434,0.3083,0.0132,-0.0154,0.0974,-0.04,-0.04,-2.17,0,3.732,4.326,1.850,-0.590,0.005,-0.016,0.984,0.000,0.000,0.000,0.3090,0,0,-1.00,1.53,-1.42,-0.0061,-0.0062,0.3111,0.0000,0.0000,0.3000,0.2529,-3.94,-2.03,65.12,0.0000,0.0000,1.1150,1.5100,2.4050,755,0.0025,-0.0115,0.0000,0.0025,-0.0115,0
8646,-0.0387,-0.0511,0.3120,0.0074,-0.0306,0.0843,0.18,-0.07,-2.17,0,3.737,-4.286,0.830,-0.601,0.005,-0.017,0.980,0.000,0.000,0.000,0.3110,0,0,-0.77,1.43,-1.45,-0.0097,-0.0023,0.3147,0.0000,0.0000,0.3000,0.2537,-5.22,-2.48,65.14,2.7460,0.0000,1.1220,1.5110,2.3990,755,0.0025,-0.0115,0.0000,0.0025,-0.0115,0
8698,-0.0376,-0.0521,0.3147,0.0096,-0.0308,0.0694,-0.04,-0.16,-2.22,0,3.727,-5.518,-0.466,-0.428,0.003,-0.015,0.990,0.000,0.000,0.000,0.3150,0,0,-0.99,1.39,-1.48,-0.0138,0.0015,0.3172,0.0000,0.0000,0.3000,0.2548,-5.28,-2.28,66.46,2.7460,0.0000,1.1220,1.5110,2.3990,755,0.0025,-0.0115,0.0000,0.0025,-0.0115,0
8749,-0.0342,-0.0510,0.3172,0.0169,-0.0252,0.0584,-0.31,-0.10,-2.25,0,3.732,3.044,-3.522,-0.901,0.003,-0.010,0.994,0.000,0.000,0.000,0.3170,0,0,-1.28,1.42,-1.50,-0.0184,0.0053,0.3197,0.0000,0.0000,0.3000,0.2555,-4.93,-1.68,67.38,0.0000,0.0000,1.1220,1.5250,2.3920,755,0.0025,-0.0115,0.0000,0.0025,-0.0115,0
8800,-0.0322,-0.0544,0.3194,0.0204,-0.0273,0.0508,-0.18,0.06,-2.28,0,3.727,1.781,-1.725,-0.332,0.005,-0.019,0.994,0.000,0.000,0.000,0.3200,-3,0,-1.12,1.60,-1.54,-0.0236,0.0095,0.3218,0.0000,0.0000,0.3000,0.2559,-5.26,-1.36,68.31,0.0000,0.0000,1.1220,1.5250,2.3920,755,0.0025,-0.0115,0.0000,0.0025,-0.0115,0
8852,-0.0294,-0.0551,0.3214,0.0236,-0.0245,0.0452,-0.18,0.12,-2.29,0,3.732,-0.376,-3.863,-0.753,0.004,-0.017,0.993,0.000,0.000,0.000,0.3250,0,-1,-0.88,1.26,-1.27,-0.0007,0.0022,0.3254,0.0000,0.0000,0.3000,0.2561,-5.17,-1.00,68.78,0.0000,0.3960,1.1190,1.5260,2.3860,755,0.0025,-0.0115,0.0000,0.0025,-0.0115,0
8903,-0.0258,-0.0521,0.3248,0.0274,-0.0150,0.0476,-0.17,0.26,-2.32,0,3.721,3.278,-2.717,-0.003,0.006,-0.019,0.998,0.000,0.000,0.000,0.3260,-1,0,-0.88,1.44,-1.29,-0.0006,0.0037,0.3277,0.0000,0.0000,0.3000,0.2552,-4.52,-0.56,69.45,0.0000,0.3960,1.1190,1.5260,2.3860,755,0.0025,-0.0115,0.0000,0.0025,-0.0115,0
8954,-0.0232,-0.0518,0.3271,0.0277,-0.0114,0.0451,-0.06,0.31,-2.31,0,3.732,1.889,-2.818,-0.116,0.003,-0.018,0.996,0.000,0.000,0.000,0.3290,0,0,-0.73,1.57,-1.28,-0.0014,0.0060,0.3297,0.0000,0.0000,0.3000,0.2550,-4.33,-0.36,69.20,0.0000,0.0000,1.1190,1.5370,2.3800,755,0.0025,-0.0115,0.0000,0.0025,-0.0115,0
9006,-0.0224,-0.0505,0.3298,0.0241,-0.0071,0.0454,0.03,0.42,-2.32,0,3.721,-0.039,0.336,0.538,0.004,-0.018,0.998,0.000,0.000,0.000,0.3310,0,0,-0.63,1.71,-1.29,-0.0031,0.0079,0.3319,0.0000,0.0000,0.3000,0.2545,-4.03,-0.47,69.54,0.0000,0.0000,1.1190,1.5370,2.3800,755,0.0025,-0.0115,0.0000,0.0025,-0.0115,0
9057,-0.0178,-0.0487,0.3319,0.0275,-0.0029,0.0435,0.01,0.41,-2.30,0,3.727,2.752,0.247,-0.035,0.003,-0.016,0.998,0.000,0.000,0.000,0.3310,0,2,-0.63,1.69,-1.26,-0.0054,0.0096,0.3339,0.0000,0.0000,0.3000,0.2543,-3.70,0.03,69.13,2.7880,0.0000,1.1170,1.5320,2.3870,755,0.0025,-0.0115,0.0000,0.0025,-0.0115,0
9108,-0.0130,-0.0494,0.3332,0.0306,-0.0040,0.0378,0.11,0.40,-2.30,0,3.721,3.472,-1.549,-1.094,0.004,-0.016,0.996,0.000,0.000,0.000,0.3310,-1,0,-0.42,1.64,-1.25,-0.0063,0.0070,0.3353,0.0000,0.0000,0.3000,0.2547,-3.80,0.53,69.12,2.7880,0.0000,1.1170,1.5320,2.3870,755,0.0025,-0.0115,0.0000,0.0025,-0.0115,0
9159,-0.0102,-0.0473,0.3335,0.0296,-0.0010,0.0281,0.25,0.45,-2.34,0,3.727,0.586,-1.889,-0.899,0.001,-0.022,1.000,0.000,0.000,0.000,0.3340,0,0,-0.26,1.70,-1.30,-0.0081,0.0084,0.3360,0.0000,0.0000,0.3000,0.2557,-3.49,0.68,70.09,2.7500,0.0000,1.1160,1.5350,2.3750,755,0.0025,-0.0115,0.0000,0.0025,-0.0115,0
9210,-0.0105,-0.0465,0.3348,0.0222,-0.0013,0.0275,0.26,0.51,-2.37,0,3.716,2.194,-0.861,0.178,0.007,-0.016,1.002,0.000,0.000,0.000,0.3380,0,0,-0.23,1.80,-1.34,-0.0117,0.0086,0.3371,0.0000,0.0000,0.3000,0.2555,-3.46,0.30,70.99,2.7500,0.0000,1.1160,1.5350,2.3750,755,0.0025,-0.0115,0.0000,0.0025,-0.0115,0
9261,-0.0095,-0.0450,0.3374,0.0176,-0.0005,0.0346,0.32,0.52,-2.35,0,3.727,-0.786,-0.395,-0.187,0.003,-0.017,1.003,0.000,0.000,0.000,0.3350,0,0,-0.12,1.84,-1.33,-0.0159,0.0085,0.3392,0.0000,0.0000,0.3000,0.2542,-3.32,0.15,70.53,0.0000,0.0000,1.1230,1.5390,2.3650,824,0.0025,-0.0115,0.0000,0.0025,-0.0115,0
9312,-0.0075,-0.0440,0.3377,0.0156,-0.0010,0.0295,0.31,0.42,-2.36,0,3.716,1.163,3.233,-0.494,0.006,-0.014,1.003,0.000,0.000,0.000,0.3380,0,0,-0.16,1.86,-1.34,-0.0208,0.0081,0.3397,0.0000,0.0000,0.3000,0.2547,-3.27,0.20,70.67,0.0000,0.0000,1.1230,1.5390,2.3650,824,0.0025,-0.0115,0.0000,0.0025,-0.0115,0
9363,-0.0060,-0.0451,0.3389,0.0133,-0.0052,0.0298,0.28,0.33,-2.35,0,3.721,0.506,1.109,0.495,0.006,-0.014,1.005,0.000,0.000,0.000,0.3360,-2,1,-0.10,1.69,-1.37,-0.0264,0.0073,0.3409,0.0000,0.0000,0.3000,0.2544,-3.56,0.20,70.52,2.7780,0.0000,1.1150,1.5420,2.3640,824,0.0025,-0.0115,0.0000,0.0025,-0.0115,0
9414,-0.0054,-0.0466,0.3389,0.0104,-0.0097,0.0245,0.31,0.25,-2.31,0,3.716,-1.392,0.727,0.492,0.007,-0.020,1.004,0.000,0.000,0.000,0.3400,2,-1,-0.21,1.34,-1.37,-0.0073,0.0172,0.3425,0.0000,0.0000,0.3000,0.2550,-3.88,0.10,69.44,2.7780,0.0000,1.1150,1.5420,2.3640,824,0.0025,-0.0115,0.0000,0.0025,-0.0115,0
9465,-0.0065,-0.0448,0.3403,0.0055,-0.0078,0.0270,0.26,0.22,-2.28,0,3.721,-3.599,0.330,1.128,0.001,-0.016,1.006,0.000,0.000,0.000,0.3390,0,0,-0.25,1.29,-1.35,-0.0079,0.0161,0.3436,0.0000,0.0000,0.3000,0.2545,-3.66,-0.21,68.41,0.0000,0.0000,1.1130,1.5480,2.3620,824,0.0025,-0.0115,0.0000,0.0025,-0.0115,0
9517,-0.0053,-0.0483,0.3408,0.0050,-0.0151,0.0247,0.17,0.19,-2.25,0,3.716,-4.245,0.217,0.235,0.004,-0.012,1.004,0.000,0.000,0.000,0.3420,1,0,-0.44,1.27,-1.29,-0.0098,0.0161,0.3441,0.0000,0.0000,0.3000,0.2546,-4.27,-0.16,67.45,0.0000,0.0000,1.1130,1.5480,2.3620,824,0.0025,-0.0115,0.0000,0.0025,-0.0115,0
9568,-0.0057,-0.0477,0.3423,0.0025,-0.0137,0.0279,-0.01,0.07,-2.25,0,3.727,-0.954,0.160,-0.047,0.004,-0.018,1.006,0.000,0.000,0.000,0.3450,0,0,-0.63,1.21,-1.28,-0.0092,0.0140,0.3454,0.0000,0.0000,0.3000,0.2540,-4.17,-0.31,67.38,2.7730,0.0000,1.1150,1.5530,2.3600,824,0.0025,-0.0115,0.0000,0.0025,-0.0115,0
9619,-0.0039,-0.0480,0.3448,0.0049,-0.0126,0.0350,-0.13,0.02,-2.23,0,3.716,1.750,-1.264,1.391,0.006,-0.014,1.000,0.000,0.000,0.000,0.3430,0,0,-0.68,1.20,-1.29,-0.0113,0.0132,0.3472,0.0000,0.0000,0.3000,0.2528,-4.15,-0.06,66.78,2.7730,0.0000,1.1150,1.5530,2.3600,824,0.0025,-0.0115,0.0000,0.0025,-0.0115,0
9669,-0.0054,-0.0511,0.3452,0.0016,-0.0161,0.0297,-0.04,0.06,-2.21,0,3.727,0.262,0.066,-0.018,0.006,-0.017,1.004,0.000,0.000,0.000,0.3460,0,0,-0.59,1.26,-1.21,-0.0137,0.0123,0.3478,0.0000,0.0000,0.3000,0.2532,-4.55,-0.34,66.22,0.0000,0.0000,1.1160,1.5460,2.3610,824,0.0025,-0.0115,0.0000,0.0025,-0.0115,0
9720,-0.0054,-0.0526,0.3468,0.0008,-0.0172,0.0309,0.00,0.05,-2.20,0,3.716,-2.301,2.128,-0.383,0.006,-0.015,0.999,0.000,0.000,0.000,0.3470,0,0,-0.58,1.26,-1.22,-0.0165,0.0113,0.3491,0.0000,0.0000,0.3000,0.2528,-4.72,-0.37,65.91,0.0000,0.0000,1.1160,1.5460,2.3610,824,0.0025,-0.0115,0.0000,0.0025,-0.0115,0
9772,-0.0071,-0.0511,0.3480,-0.0022,-0.0129,0.0294,-0.12,-0.06,-2.21,0,3.727,0.333,-0.027,-1.767,0.005,-0.012,0.999,0.000,0.000,0.000,0.3530,0,1,-0.69,1.15,-1.24,-0.0199,0.0101,0.3503,0.0000,0.0000,0.3000,0.2527,-4.40,-0.65,66.39,0.0000,0.0000,1.1110,1.5470,2.3520,824,0.0025,-0.0115,0.0000,0.0025,-0.0115,0
9823,-0.0079,-0.0513,0.3515,-0.0025,-0.0110,0.0385,-0.18,-0.16,-2.27,0,3.716,2.002,-1.058,-0.647,0.005,-0.017,0.997,0.000,0.000,0.000,0.3540,0,0,-0.73,1.02,-1.34,-0.0109,0.0142,0.3532,0.0000,0.0000,0.3000,0.2511,-4.35,-0.73,67.97,0.0000,0.0000,1.1110,1.5470,2.3520,824,0.0025,-0.0115,0.0000,0.0025,-0.0115,0
9874,-0.0111,-0.0635,0.3541,-0.0064,-0.0300,0.0401,-0.02,-0.13,-2.30,0,3.721,-2.338,1.472,-0.641,0.003,-0.017,0.993,0.000,0.000,0.000,0.3530,0,0,-0.63,1.08,-1.37,-0.0124,0.0139,0.3552,0.0000,0.0000,0.3000,0.2504,-6.19,-1.16,68.95,0.0000,0.0000,1.1210,1.5490,2.3440,824,0.0025,-0.0115,0.0000,0.0025,-0.0115,0
9925,-0.0094,-0.0648,0.3551,-0.0016,-0.0294,0.0336,-0.11,-0.22,-2.33,0,3.711,-5.466,-0.482,0.450,0.007,-0.015,0.988,0.000,0.000,0.000,0.3530,0,0,-0.75,1.00,-1.41,-0.0142,0.0136,0.3561,0.0000,0.0000,0.3000,0.2509,-6.24,-0.79,69.76,0.0000,0.0000,1.1210,1.5490,2.3440,824,0.0025,-0.0115,0.0000,0.0025,-0.0115,0
9976,-0.0096,-0.0698,0.3552,0.0001,-0.0340,0.0226,-0.31,-0.22,-2.32,0,3.721,-0.747,-2.757,0.073,0.006,-0.012,1.000,0.000,0.000,0.000,0.3550,0,0,-1.03,1.02,-1.38,-0.0163,0.0132,0.3564,0.0000,0.0000,0.3000,0.2521,-6.80,-0.71,69.62,2.7440,0.0000,1.1270,1.5510,2.3520,824,0.0025,-0.0115,0.0000,0.0025,-0.0115,0
10027,-0.0115,-0.0721,0.3560,-0.0014,-0.0322,0.0188,-0.40,-0.13,-2.32,0,3.711,1.041,-2.283,-0.635,0.004,-0.016,0.996,0.000,0.000,0.000,0.3600,0,-1,-1.07,1.16,-1.38,-0.0187,0.0129,0.3571,0.0000,0.0000,0.3000,0.2524,-6.88,-0.93,69.65,2.7440,0.0000,1.1270,1.5510,2.3520,824,0.0025,-0.0115,0.0000,0.0025,-0.0115,0
10078,-0.0105,-0.0734,0.3585,0.0016,-0.0285,0.0252,-0.41,-0.07,-2.32,0,3.721,-1.843,-2.337,0.717,0.003,-0.015,0.999,0.000,0.000,0.000,0.3570,2,0,-1.02,1.14,-1.35,-0.0088,0.0132,0.3593,0.0000,0.0000,0.3000,0.2512,-6.83,-0.71,69.70,0.0000,0.0000,1.1280,1.5470,2.3460,701,0.0025,-0.0115,0.0000,0.0025,-0.0115,0
10129,-0.0069,-0.0739,0.3588,0.0080,-0.0233,0.0195,-0.51,-0.05,-2.31,0,3.711,1.633,-3.459,0.682,0.006,-0.015,0.992,0.000,0.000,0.000,0.3600,0,0,-1.10,1.26,-1.30,-0.0090,0.0118,0.3597,0.0000,0.0000,0.3000,0.2517,-6.60,-0.13,69.33,0.0000,0.0000,1.1280,1.5470,2.3460,701,0.0025,-0.0115,0.0000,0.0025,-0.0115,0
10180,-0.0070,-0.0760,0.3601,0.0076,-0.0209,0.0193,-0.39,0.04,-2.28,0,3.721,0.608,-0.643,0.936,0.002,-0.015,0.997,0.000,0.000,0.000,0.3590,0,0,-1.01,1.43,-1.26,-0.0098,0.0116,0.3607,0.0000,0.0000,0.3000,0.2515,-6.64,-0.16,68.46,0.0000,0.0000,1.1280,1.5540,2.3400,701,0.0025,-0.0115,0.0000,0.0025,-0.0115,0
10231,-0.0052,-0.0767,0.3603,0.0095,-0.0171,0.0141,-0.33,0.07,-2.25,0,3.706,1.039,0.955,0.089,0.001,-0.014,0.995,0.000,0.000,0.000,0.3620,0,0,-0.98,1.46,-1.21,-0.0111,0.0114,0.3609,0.0000,0.0000,0.3000,0.2520,-6.49,0.07,67.37,0.0000,0.0000,1.1280,1.5540,2.3400,701,0.0025,-0.0115,0.0000,0.0025,-0.0115,0
10282,-0.0039,-0.0769,0.3616,0.0105,-0.0133,0.0150,-0.31,0.05,-2.21,0,3.721,4.011,-6.021,-0.077,0.003,-0.015,0.999,0.000,0.000,0.000,0.3600,0,1,-0.93,1.41,-1.21,-0.0130,0.0113,0.3618,0.0000,0.0000,0.3000,0.2517,-6.34,0.21,66.17,2.7640,0.0000,1.1280,1.5630,2.3460,701,0.0025,-0.0115,0.0000,0.0025,-0.0115,0
10334,-0.0010,-0.0760,0.3614,0.0140,-0.0083,0.0101,-0.23,0.21,-2.17,0,3.711,0.361,-0.149,0.159,0.004,-0.015,0.998,0.000,0.000,0.000,0.3610,0,0,-0.73,1.67,-1.16,-0.0106,0.0114,0.3620,0.0000,0.0000,0.3000,0.2522,-6.01,0.60,65.24,2.7640,0.0000,1.1280,1.5630,2.3460,701,0.0025,-0.0115,0.0000,0.0025,-0.0115,0
10386,0.0008,-0.0792,0.3615,0.0149,-0.0117,0.0071,-0.17,0.24,-2.16,0,3.716,0.243,-2.163,0.394,0.006,-0.015,1.002,0.000,0.000,0.000,0.3580,0,0,-0.71,1.67,-1.15,-0.0126,0.0113,0.3622,0.0000,0.0000,0.3000,0.2525,-6.40,0.77,64.66,2.7510,0.0000,1.1220,1.5560,2.3410,701,0.0025,-0.0115,0.0000,0.0025,-0.0115,0
10438,0.0081,-0.0781,0.3602,0.0237,-0.0075,-0.0024,-0.15,0.21,-2.16,0,3.700,2.473,-3.067,-1.056,0.007,-0.017,1.002,0.000,0.000,0.000,0.3600,0,0,-0.70,1.79,-1.13,-0.0152,0.0112,0.3613,0.0000,0.0000,0.3000,0.2538,-6.09,1.73,64.68,2.7510,0.0000,1.1220,1.5560,2.3410,701,0.0025,-0.0115,0.0000,0.0025,-0.0115,0
10489,0.0105,-0.0787,0.3600,0.0239,-0.0066,-0.0013,-0.06,0.34,-2.20,0,3.716,1.491,-4.636,-1.009,0.004,-0.016,1.005,0.000,0.000,0.000,0.3640,0,0,-0.57,1.95,-1.19,-0.0184,0.0109,0.3613,0.0000,0.0000,0.3000,0.2537,-6.10,1.92,65.85,2.7420,0.0000,1.1280,1.5610,2.3440,701,0.0025,-0.0115,0.0000,0.0025,-0.0115,0
10540,0.0138,-0.0791,0.3617,0.0246,-0.0062,0.0077,-0.04,0.51,-2.23,0,3.711,1.564,0.094,-0.721,0.007,-0.016,1.006,0.000,0.000,0.000,0.3640,0,0,-0.49,2.18,-1.23,-0.0224,0.0106,0.3625,0.0000,0.0000,0.3000,0.2524,-6.14,2.21,67.03,2.7420,0.0000,1.1280,1.5610,2.3440,701,0.0025,-0.0115,0.0000,0.0025,-0.0115,0
10592,0.0159,-0.0796,0.3630,0.0218,-0.0060,0.0138,0.01,0.52,-2.28,0,3.716,-0.404,-1.629,-1.081,0.007,-0.015,1.000,0.000,0.000,0.000,0.3600,0,1,-0.41,2.18,-1.27,-0.0272,0.0100,0.3637,0.0000,0.0000,0.3000,0.2515,-6.19,2.23,68.26,2.7480,0.0000,1.1290,1.5600,2.3400,701,0.0025,-0.0115,0.0000,0.0025,-0.0115,0
10643,0.0201,-0.0815,0.3622,0.0227,-0.0085,0.0072,0.01,0.51,-2.31,0,3.706,0.674,0.751,-0.343,0.006,-0.013,0.999,0.000,0.000,0.000,0.3600,0,2,-0.46,2.07,-1.26,-0.0104,0.0125,0.3644,0.0000,0.0000,0.3000,0.2524,-6.43,2.57,69.41,2.7480,0.0000,1.1290,1.5600,2.3400,701,0.0025,-0.0115,0.0000,0.0025,-0.0115,0
10694,0.0218,-0.0815,0.3615,0.0199,-0.0078,0.0019,0.04,0.47,-2.34,0,3.711,0.544,-0.655,-1.333,0.005,-0.019,0.999,0.000,0.000,0.000,0.3610,0,0,-0.43,2.04,-1.28,-0.0131,0.0124,0.3639,0.0000,0.0000,0.3000,0.2531,-6.37,2.56,70.32,2.7410,0.0000,1.1270,1.5460,2.3460,752,0.0025,-0.0115,0.0000,0.0025,-0.0115,0
10746,0.0222,-0.0814,0.3613,0.0152,-0.0072,-0.0007,0.03,0.52,-2.37,0,3.706,-1.361,0.645,0.086,0.002,-0.015,1.002,0.000,0.000,0.000,0.3640,1,1,-0.40,2.07,-1.35,-0.0160,0.0119,0.3635,0.0000,0.0000,0.3000,0.2534,-6.33,2.35,71.21,2.7410,0.0000,1.1270,1.5460,2.3460,752,0.0025,-0.0115,0.0000,0.0025,-0.0115,0
10798,0.0216,-0.0854,0.3625,0.0088,-0.0132,0.0050,-0.02,0.47,-2.40,0,3.711,0.082,0.964,-0.049,0.006,-0.016,0.998,0.000,0.000,0.000,0.3600,0,1,-0.46,2.01,-1.36,-0.0180,0.0102,0.3642,0.0000,0.0000,0.3000,0.2526,-6.94,2.01,71.93,0.0000,0.0000,1.1300,1.5390,2.3420,752,0.0025,-0.0115,0.0000,0.0025,-0.0115,0
10850,0.0195,-0.0871,0.3615,0.0010,-0.0144,-0.0014,-0.02,0.36,-2.39,0,3.706,0.819,1.203,-0.905,0.006,-0.013,0.998,0.000,0.000,0.000,0.3600,0,0,-0.46,1.96,-1.36,-0.0218,0.0094,0.3633,0.0000,0.0000,0.3000,0.2534,-7.10,1.46,71.74,0.0000,0.0000,1.1300,1.5390,2.3420,752,0.0025,-0.0115,0.0000,0.0025,-0.0115,0
10901,0.0175,-0.0899,0.3608,-0.0050,-0.0176,-0.0053,-0.06,0.27,-2.38,0,3.716,-0.233,2.460,-0.487,0.008,-0.013,1.002,0.000,0.000,0.000,0.3620,0,1,-0.41,1.90,-1.41,-0.0264,0.0083,0.3625,0.0000,0.0000,0.3000,0.2540,-7.43,1.02,71.50,2.7300,0.0000,1.1400,1.5560,2.3420,752,0.0025,-0.0115,0.0000,0.0025,-0.0115,0
10952,0.0175,-0.0939,0.3611,-0.0069,-0.0221,-0.0027,-0.08,0.16,-2.39,0,3.706,-1.247,3.187,-0.090,0.004,-0.013,1.001,0.000,0.000,0.000,0.3600,0,0,-0.45,1.72,-1.42,-0.0264,0.0090,0.3628,0.0000,0.0000,0.3000,0.2536,-7.95,0.93,71.61,2.7300,0.0000,1.1400,1.5560,2.3420,752,0.0025,-0.0115,0.0000,0.0025,-0.0115,0
11003,0.0169,-0.0960,0.3605,-0.0086,-0.0231,-0.0039,-0.12,0.05,-2.40,0,3.711,-2.742,1.110,1.351,0.006,-0.015,1.002,0.000,0.000,0.000,0.3580,1,0,-0.51,1.55,-1.43,-0.0310,0.0081,0.3621,0.0000,0.0000,0.3000,0.2539,-8.14,0.80,71.93,2.7510,0.5010,1.1380,1.5490,2.3480,752,0.0025,-0.0115,0.0000,0.0025,-0.0115,0
11054,0.0175,-0.0944,0.3592,-0.0074,-0.0175,-0.0096,-0.28,0.03,-2.38,0,3.700,-1.089,3.816,1.235,0.004,-0.020,1.003,0.000,0.000,0.000,0.3590,0,0,-0.64,1.41,-1.39,-0.0275,0.0059,0.3613,0.0000,0.0000,0.3000,0.2547,-7.74,0.90,71.39,2.7510,0.5010,1.1380,1.5490,2.3480,752,0.0025,-0.0115,0.0000,0.0025,-0.0115,0
11106,0.0158,-0.0986,0.3588,-0.0093,-0.0203,-0.0083,-0.32,-0.11,-2.35,0,3.711,-0.291,0.437,0.310,0.005,-0.014,1.005,0.000,0.000,0.000,0.3590,0,1,-0.70,1.22,-1.32,-0.0313,0.0043,0.3607,0.0000,0.0000,0.3000,0.2547,-8.17,0.69,70.36,2.7280,0.0000,1.1470,1.5490,2.3420,752,0.0025,-0.0115,0.0000,0.0025,-0.0115,0
11158,0.0174,-0.0992,0.3586,-0.0050,-0.0171,-0.0065,-0.34,-0.18,-2.31,0,3.700,-1.133,-1.053,1.035,0.003,-0.015,1.005,0.000,0.000,0.000,0.3590,0,0,-0.74,1.16,-1.30,-0.0312,0.0056,0.3605,0.0000,0.0000,0.3000,0.2545,-8.07,1.01,69.25,2.7280,0.0000,1.1470,1.5490,2.3420,752,0.0025,-0.0115,0.0000,0.0025,-0.0115,0
11209,0.0161,-0.1049,0.3586,-0.0049,-0.0222,-0.0034,-0.37,-0.19,-2.25,0,3.711,0.031,-0.065,0.539,0.005,-0.017,0.999,0.000,0.000,0.000,0.3550,0,0,-0.80,1.21,-1.25,-0.0349,0.0046,0.3602,0.0000,0.0000,0.3000,0.2542,-8.73,0.93,67.41,0.0000,0.0000,1.1420,1.5540,2.3410,752,0.0025,-0.0115,0.0000,0.0025,-0.0115,0
11260,0.0158,-0.1083,0.3568,-0.0035,-0.0231,-0.0098,-0.38,-0.15,-2.23,0,3.700,-3.447,-0.567,0.763,0.008,-0.015,1.004,0.000,0.000,0.000,0.3580,2,0,-0.80,1.21,-1.22,-0.0389,0.0035,0.3587,0.0000,0.0000,0.3000,0.2552,-8.99,0.97,66.75,0.0000,0.0000,1.1420,1.5540,2.3410,752,0.0025,-0.0115,0.0000,0.0025,-0.0115,0
11311,0.0152,-0.1106,0.3570,-0.0028,-0.0219,-0.0056,-0.42,-0.09,-2.21,0,3.706,0.467,-0.471,0.303,0.005,-0.016,1.006,0.000,0.000,0.000,0.3560,1,-1,-0.95,1.13,-1.16,-0.0294,-0.0017,0.3590,0.0000,0.0000,0.3000,0.2547,-9.11,0.96,66.17,0.0000,0.0000,1.1410,1.5530,2.3440,752,0.0025,-0.0115,0.0000,0.0025,-0.0115,0
11362,0.0169,-0.1128,0.3564,0.0010,-0.0199,-0.0063,-0.44,-0.07,-2.18,0,3.700,-1.402,0.075,0.559,0.005,-0.015,1.005,0.000,0.000,0.000,0.3530,0,0,-0.92,1.13,-1.13,-0.0291,-0.0043,0.3582,0.0000,0.0000,0.3000,0.2549,-9.17,1.27,65.52,0.0000,0.0000,1.1410,1.5530,2.3440,752,0.0025,-0.0115,0.0000,0.0025,-0.0115,0
11414,0.0205,-0.1149,0.3546,0.0074,-0.0179,-0.0109,-0.47,-0.14,-2.16,0,3.706,1.938,-2.954,0.465,0.004,-0.018,1.002,0.000,0.000,0.000,0.3530,0,0,-0.99,1.13,-1.10,-0.0310,-0.0064,0.3568,0.0000,0.0000,0.3000,0.2557,-9.19,1.83,64.67,2.7430,0.7980,1.1480,1.5510,2.3490,752,0.0025,-0.0115,0.0000,0.0025,-0.0115,0
11465,0.0239,-0.1154,0.3535,0.0134,-0.0135,-0.0131,-0.44,0.01,-2.10,0,3.700,2.095,-3.315,0.753,0.007,-0.015,1.009,0.000,0.000,0.000,0.3530,0,0,-0.89,1.28,-1.08,-0.0333,-0.0084,0.3557,0.0000,0.0000,0.3000,0.2562,-9.01,2.37,62.97,2.7430,0.7980,1.1480,1.5510,2.3490,752,0.0025,-0.0115,0.0000,0.0025,-0.0115,0
11516,0.0255,-0.1161,0.3529,0.0150,-0.0099,-0.0101,-0.34,0.15,-2.07,0,3.706,1.191,0.705,1.457,0.003,-0.015,1.009,0.000,0.000,0.000,0.3540,0,0,-0.78,1.45,-1.04,-0.0360,-0.0104,0.3550,0.0000,0.0000,0.3000,0.2560,-8.90,2.57,62.21,0.0000,0.8230,1.1470,1.5580,2.3490,848,0.0025,-0.0115,0.0000,0.0025,-0.0115,0
11567,0.0289,-0.1165,0.3531,0.0182,-0.0069,-0.0022,-0.27,0.10,-2.00,0,3.700,1.846,-1.830,2.039,0.006,-0.014,1.010,0.000,0.000,0.000,0.3540,0,-1,-0.72,1.41,-0.96,-0.0393,-0.0123,0.3549,0.0000,0.0000,0.3000,0.2550,-8.81,2.97,60.09,0.0000,0.8230,1.1470,1.5580,2.3490,848,0.0025,-0.0115,0.0000,0.0025,-0.0115,0
11618,0.0315,-0.1169,0.3535,0.0200,-0.0046,0.0040,-0.23,0.12,-1.90,0,3.711,1.691,-2.903,1.267,0.003,-0.015,1.006,0.000,0.000,0.000,0.3580,0,0,-0.70,1.36,-0.81,-0.0215,-0.0049,0.3558,0.0077,-0.0827,0.3000,0.2543,-2.79,2.70,56.91,2.7360,0.0000,1.1460,1.5640,2.3510,848,0.0025,-0.0115,0.0000,0.0025,-0.0115,0
11669,0.0374,-0.1174,0.3558,0.0271,-0.0031,0.0177,-0.20,0.18,-1.82,0,3.700,3.333,-2.067,1.758,0.002,-0.012,1.001,0.000,0.000,0.000,0.3530,0,0,-0.62,1.51,-0.75,-0.0220,-0.0052,0.3572,0.0077,-0.0827,0.3000,0.2524,-2.78,3.50,54.68,2.7360,0.0000,1.1460,1.5640,2.3510,848,0.0025,-0.0115,0.0000,-0.0215,-0.0049,0
11720,0.0380,-0.1168,0.3552,0.0243,-0.0002,0.0118,-0.07,0.32,-1.74,0,3.706,1.632,-2.339,1.175,0.001,-0.017,0.999,0.000,0.000,0.000,0.3550,0,-2,-0.45,1.61,-0.66,-0.0230,-0.0056,0.3567,0.0077,-0.0827,0.3000,0.2531,-2.58,3.40,52.34,2.7470,0.0000,1.1440,1.5670,2.3510,848,0.0025,-0.0115,0.0000,-0.0215,-0.0049,0
11772,0.0413,-0.1177,0.3555,0.0250,-0.0010,0.0107,0.01,0.42,-1.66,0,3.700,1.295,-0.680,1.889,0.006,-0.016,1.001,0.000,0.000,0.000,0.3560,-1,0,-0.38,1.65,-0.59,-0.0164,-0.0050,0.3570,0.0077,-0.0827,0.3000,0.2532,-2.68,3.67,49.77,2.7470,0.0000,1.1440,1.5670,2.3510,848,0.0025,-0.0115,0.0000,-0.0215,-0.0049,0
11824,0.0464,-0.1163,0.3561,0.0278,0.0014,0.0118,-0.00,0.40,-1.56,0,3.706,-0.727,2.112,0.595,0.004,-0.015,0.999,0.000,0.000,0.000,0.3530,0,1,-0.33,1.68,-0.49,-0.0165,-0.0044,0.3573,0.0077,-0.0827,0.3000,0.2529,-2.47,4.19,46.85,0.0000,0.0000,1.1460,1.5570,2.3440,848,0.0025,-0.0115,0.0000,-0.0215,-0.0049,0
11875,0.0449,-0.1158,0.3551,0.0199,0.0022,0.0046,-0.06,0.28,-1.51,0,3.700,1.608,-1.255,0.820,0.004,-0.016,1.000,0.000,0.000,0.000,0.3540,0,0,-0.37,1.58,-0.46,-0.0183,-0.0046,0.3565,0.0077,-0.0827,0.3000,0.2539,-2.39,3.68,45.45,0.0000,0.0000,1.1460,1.5570,2.3440,848,0.0025,-0.0115,0.0000,-0.0215,-0.0049,0
11926,0.0463,-0.1171,0.3548,0.0181,0.0005,0.0028,-0.04,0.34,-1.46,0,3.706,2.387,-1.033,1.226,0.006,-0.012,1.003,0.000,0.000,0.000,0.3560,0,0,-0.29,1.64,-0.41,-0.0200,-0.0053,0.3561,0.0077,-0.0827,0.3000,0.2542,-2.56,3.69,43.71,2.7350,0.9140,1.1420,1.5690,2.3430,848,0.0025,-0.0115,0.0000,-0.0215,-0.0049,0
11977,0.0471,-0.1170,0.3555,0.0152,0.0008,0.0058,0.07,0.38,-1.38,0,3.695,2.165,3.641,1.653,0.006,-0.018,1.002,0.000,0.000,0.000,0.3550,0,2,-0.17,1.70,-0.35,-0.0223,-0.0061,0.3564,0.0077,-0.0827,0.3000,0.2537,-2.54,3.61,41.54,2.7350,0.9140,1.1420,1.5690,2.3430,848,0.0025,-0.0115,0.0000,-0.0215,-0.0049,0
12028,0.0480,-0.1155,0.3555,0.0123,0.0027,0.0050,0.17,0.25,-1.32,0,3.706,-3.898,2.008,2.499,0.005,-0.017,1.001,0.000,0.000,0.000,0.3570,-1,0,-0.09,1.50,-0.27,-0.0237,-0.0039,0.3565,0.0077,-0.0827,0.3000,0.2538,-2.34,3.54,39.48,0.0000,0.9330,1.1450,1.5860,2.3480,848,0.0025,-0.0115,0.0000,-0.0215,-0.0049,0
12080,0.0456,-0.1170,0.3564,0.0055,-0.0013,0.0088,0.05,0.16,-1.21,0,3.695,-2.834,0.391,1.146,0.004,-0.016,0.998,0.000,0.000,0.000,0.3540,0,-1,-0.31,1.39,-0.14,-0.0257,-0.0030,0.3571,0.0077,-0.0827,0.3000,0.2532,-2.65,3.04,36.17,0.0000,0.9330,1.1450,1.5860,2.3480,848,0.0025,-0.0115,0.0000,-0.0215,-0.0049,0
12131,0.0456,-0.1159,0.3556,0.0037,0.0001,0.0021,-0.04,0.11,-1.16,0,3.700,0.062,-0.408,1.318,0.005,-0.016,1.003,0.000,0.000,0.000,0.3540,0,0,-0.46,1.34,-0.10,-0.0258,-0.0033,0.3566,0.0077,-0.0827,0.3000,0.2541,-2.50,2.94,34.81,0.0000,0.0000,1.1440,1.5730,2.3490,848,0.0025,-0.0115,0.0000,-0.0215,-0.0049,0
12183,0.0482,-0.1174,0.3549,0.0066,-0.0021,-0.0013,-0.05,0.13,-1.10,0,3.695,-0.172,-0.168,1.994,0.005,-0.014,1.001,0.000,0.000,0.000,0.3540,0,0,-0.46,1.36,-0.03,-0.0289,-0.0042,0.3561,0.0077,-0.0827,0.3000,0.2546,-2.71,3.27,33.13,0.0000,0.0000,1.1440,1.5730,2.3490,848,0.0025,-0.0115,0.0000,-0.0215,-0.0049,0
12234,0.0485,-0.1175,0.3545,0.0056,-0.0016,-0.0025,-0.00,0.13,-1.02,0,3.700,0.718,-0.039,2.197,0.007,-0.017,1.002,0.000,0.000,0.000,0.3560,3,2,-0.47,1.36,0.07,-0.0324,-0.0052,0.3557,0.0077,-0.0827,0.3000,0.2548,-2.69,3.24,30.62,2.7160,0.9390,1.1410,1.5870,2.3520,738,0.0025,-0.0115,0.0000,-0.0215,-0.0049,0
12285,0.0483,-0.1199,0.3551,0.0039,-0.0050,0.0019,0.01,0.10,-0.94,0,3.695,-6.815,1.251,2.539,0.008,-0.015,1.004,0.000,0.000,0.000,0.3570,2,0,-0.38,1.33,0.17,-0.0313,-0.0137,0.3561,0.0077,-0.0827,0.3000,0.2542,-3.03,3.15,28.08,2.7160,0.9390,1.1410,1.5870,2.3520,738,0.0025,-0.0115,0.0000,-0.0215,-0.0049,0
12336,0.0427,-0.1235,0.3561,-0.0066,-0.0101,0.0077,-0.29,0.04,-0.82,0,3.700,0.339,0.844,1.398,0.005,-0.015,1.001,0.000,0.000,0.000,0.3550,0,0,-0.72,1.25,0.29,-0.0333,-0.0183,0.3567,0.0077,-0.0827,0.3000,0.2534,-3.56,2.24,24.51,2.7260,0.9640,1.1490,1.5920,2.3460,738,0.0025,-0.0115,0.0000,-0.0215,-0.0049,0
12387,0.0449,-0.1268,0.3559,-0.0024,-0.0127,0.0058,-0.29,-0.01,-0.73,0,3.695,1.019,2.919,1.677,0.006,-0.018,1.000,0.000,0.000,0.000,0.3560,0,0,-0.70,1.21,0.37,-0.0367,-0.0217,0.3566,0.0077,-0.0827,0.3000,0.2536,-3.92,2.60,22.00,2.7260,0.9640,1.1490,1.5920,2.3460,738,0.0025,-0.0115,0.0000,-0.0215,-0.0049,0
12438,0.0453,-0.1288,0.3562,-0.0014,-0.0125,0.0059,-0.23,-0.09,-0.65,0,3.700,-2.391,0.813,1.291,0.005,-0.017,0.998,0.000,0.000,0.000,0.3530,1,0,-0.65,1.06,0.45,-0.0405,-0.0252,0.3568,0.0077,-0.0827,0.3000,0.2535,-4.06,2.68,19.50,0.0000,0.9710,1.1500,1.5890,2.3410,738,0.0025,-0.0115,0.0000,-0.0215,-0.0049,0
12490,0.0469,-0.1344,0.3549,0.0024,-0.0195,-0.0023,-0.34,-0.12,-0.60,0,3.695,-3.964,-0.287,0.482,0.002,-0.017,1.000,0.000,0.000,0.000,0.3540,0,1,-0.83,0.92,0.48,-0.0321,-0.0213,0.3565,0.0077,-0.0827,0.3000,0.2546,-4.79,2.97,17.96,0.0000,0.9710,1.1500,1.5890,2.3410,738,0.0025,-0.0115,0.0000,-0.0215,-0.0049,0
12542,0.0464,-0.1401,0.3544,0.0024,-0.0250,-0.0045,-0.52,-0.01,-0.57,0,3.700,-0.418,-0.469,1.502,0.003,-0.016,0.998,0.000,0.000,0.000,0.3560,0,-1,-1.04,0.94,0.50,-0.0347,-0.0225,0.3559,0.0077,-0.0827,0.3000,0.2550,-5.46,2.93,17.05,2.7180,0.9840,1.1550,1.5960,2.3450,738,0.0025,-0.0115,0.0000,-0.0215,-0.0049,0
12594,0.0450,-0.1422,0.3550,0.0000,-0.0223,-0.0017,-0.51,0.05,-0.49,0,3.690,0.069,1.067,1.742,0.005,-0.016,1.003,0.000,0.000,0.000,0.3530,0,0,-1.07,0.94,0.58,-0.0343,-0.0236,0.3561,0.0077,-0.0827,0.3000,0.2546,-5.48,2.72,14.57,2.7180,0.9840,1.1550,1.5960,2.3450,738,0.0025,-0.0115,0.0000,-0.0215,-0.0049,0
12645,0.0481,-0.1459,0.3540,0.0050,-0.0226,-0.0045,-0.51,-0.00,-0.40,0,3.700,-0.588,-2.407,1.472,0.005,-0.015,1.003,0.000,0.000,0.000,0.3540,0,0,-1.07,0.88,0.67,-0.0364,-0.0252,0.3553,0.0077,-0.0827,0.3000,0.2550,-5.76,3.18,11.95,2.7230,0.9780,1.1480,1.5960,2.3480,738,0.0025,-0.0115,0.0000,-0.0215,-0.0049,0
12696,0.0505,-0.1458,0.3539,0.0093,-0.0162,-0.0036,-0.53,0.03,-0.32,0,3.695,-0.913,-2.289,0.663,0.003,-0.016,1.002,0.000,0.000,0.000,0.3530,0,-1,-1.10,1.00,0.75,-0.0387,-0.0268,0.3550,0.0077,-0.0827,0.3000,0.2550,-5.45,3.57,9.73,2.7230,0.9780,1.1480,1.5960,2.3480,738,0.0025,-0.0115,0.0000,-0.0215,-0.0049,0
12747,0.0510,-0.1465,0.3534,0.0090,-0.0117,-0.0034,-0.55,0.11,-0.29,0,3.700,3.356,0.777,0.367,0.003,-0.015,1.000,0.000,0.000,0.000,0.3520,0,0,-1.18,1.03,0.81,-0.0289,-0.0236,0.3548,0.0077,-0.0827,0.3000,0.2550,-5.28,3.59,8.66,2.7070,0.9690,1.1590,1.5990,2.3450,738,0.0025,-0.0115,0.0000,-0.0215,-0.0049,0
12798,0.0541,-0.1470,0.3526,0.0128,-0.0071,-0.0056,-0.41,0.12,-0.27,0,3.690,2.117,-3.454,0.616,0.008,-0.013,1.001,0.000,0.000,0.000,0.3530,0,-1,-1.01,0.99,0.83,-0.0294,-0.0240,0.3540,0.0077,-0.0827,0.3000,0.2554,-5.08,3.99,8.03,2.7070,0.9690,1.1590,1.5990,2.3450,738,0.0025,-0.0115,0.0000,-0.0215,-0.0049,0
12849,0.0547,-0.1472,0.3526,0.0118,-0.0035,-0.0042,-0.29,0.24,-0.26,0,3.700,-0.775,-2.767,1.169,0.005,-0.015,1.003,0.000,0.000,0.000,0.3520,0,0,-0.91,1.13,0.89,-0.0262,-0.0239,0.3537,0.0077,-0.0827,0.3000,0.2553,-4.94,3.98,7.72,0.0000,0.9760,1.1530,1.5970,2.3480,738,0.0025,-0.0115,0.0000,-0.0215,-0.0049,0
12901,0.0583,-0.1476,0.3522,0.0153,-0.0014,-0.0049,-0.29,0.38,-0.20,0,3.695,2.743,-0.825,0.674,0.006,-0.015,1.000,0.000,0.000,0.000,0.3530,0,0,-0.95,1.27,0.95,-0.0265,-0.0241,0.3532,0.0077,-0.0827,0.3000,0.2554,-4.86,4.41,5.87,0.0000,0.9760,1.1530,1.5970,2.3480,738,0.0025,-0.0115,0.0000,-0.0215,-0.0049,0
12953,0.0601,-0.1476,0.3524,0.0140,0.0010,-0.0015,-0.16,0.39,-0.15,0,3.700,2.741,-1.360,1.244,0.005,-0.017,0.995,0.000,0.000,0.000,0.3520,0,0,-0.81,1.31,0.99,-0.0272,-0.0242,0.3531,0.0077,-0.0827,0.3000,0.2550,-4.75,4.49,4.38,2.7370,0.9700,1.1550,1.5940,2.3520,775,0.0025,-0.0115,0.0000,-0.0215,-0.0049,0
13005,0.0607,-0.1475,0.3521,0.0106,0.0024,-0.0046,-0.03,0.37,-0.10,0,3.695,0.552,-4.537,0.958,0.009,-0.018,0.995,0.000,0.000,0.000,0.3550,0,0,-0.67,1.38,1.06,-0.0284,-0.0244,0.3526,0.0077,-0.0827,0.3000,0.2554,-4.67,4.36,3.06,2.7370,0.9700,1.1550,1.5940,2.3520,775,0.0025,-0.0115,0.0000,-0.0215,-0.0049,0
13057,0.0617,-0.1478,0.3533,0.0080,0.0020,0.0008,-0.04,0.50,-0.06,0,3.700,-0.802,2.416,1.091,0.005,-0.013,0.999,0.000,0.000,0.000,0.3510,0,0,-0.64,1.62,1.11,-0.0301,-0.0248,0.3530,0.0077,-0.0827,0.3000,0.2546,-4.73,4.32,1.73,2.7340,0.9800,1.1610,1.5950,2.3450,775,0.0025,-0.0115,0.0000,-0.0215,-0.0049,0
13108,0.0620,-0.1477,0.3522,0.0038,0.0023,-0.0055,-0.04,0.43,0.00,0,3.690,2.865,1.916,2.130,0.006,-0.015,0.998,0.000,0.000,0.000,0.3500,0,0,-0.68,1.49,1.16,-0.0323,-0.0252,0.3521,0.0077,-0.0827,0.3000,0.2555,-4.69,4.13,-0.02,2.7340,0.9800,1.1610,1.5950,2.3450,775,0.0025,-0.0115,0.0000,-0.0215,-0.0049,0
13159,0.0602,-0.1481,0.3509,-0.0031,0.0016,-0.0114,0.12,0.28,0.08,0,3.695,-1.393,2.106,3.915,0.005,-0.012,0.995,0.000,0.000,0.000,0.3520,0,0,-0.54,1.39,1.27,-0.0350,-0.0258,0.3510,0.0077,-0.0827,0.3000,0.2563,-4.75,3.66,-2.43,0.0000,0.9830,1.1530,1.5990,2.3620,775,0.0025,-0.0115,0.0000,-0.0215,-0.0049,0
13210,0.0587,-0.1483,0.3510,-0.0077,0.0003,-0.0094,0.07,0.21,0.23,0,3.690,-3.174,0.278,2.872,0.007,-0.013,0.997,0.000,0.000,0.000,0.3510,0,0,-0.62,1.29,1.47,-0.0381,-0.0264,0.3507,0.0077,-0.0827,0.3000,0.2561,-4.82,3.33,-6.81,0.0000,0.9830,1.1530,1.5990,2.3620,775,0.0025,-0.0115,0.0000,-0.0215,-0.0049,0
13261,0.0581,-0.1543,0.3506,-0.0095,-0.0109,-0.0094,0.00,0.11,0.38,0,3.695,-0.663,3.817,2.230,0.007,-0.012,1.003,0.000,0.000,0.000,0.3480,0,1,-0.78,1.27,1.62,-0.0417,-0.0270,0.3501,0.0077,-0.0827,0.3000,0.2562,-5.79,3.20,-11.51,2.7310,0.9740,1.1570,1.6000,2.3570,775,0.0025,-0.0115,0.0000,-0.0215,-0.0049,0
13313,0.0592,-0.1565,0.3490,-0.0079,-0.0134,-0.0138,0.02,-0.02,0.53,0,3.684,-2.816,-0.586,1.343,0.005,-0.014,1.000,0.000,0.000,0.000,0.3460,0,0,-0.83,0.96,1.77,-0.0209,-0.0236,0.3493,0.0077,-0.0827,0.3000,0.2569,-6.05,3.35,-15.86,2.7310,0.9740,1.1570,1.6000,2.3570,775,0.0025,-0.0115,0.0000,-0.0215,-0.0049,0
13364,0.0539,-0.1654,0.3471,-0.0161,-0.0272,-0.0185,-0.08,-0.02,0.64,0,3.690,-4.636,1.750,1.732,0.003,-0.016,1.003,0.000,0.000,0.000,0.3440,1,0,-0.98,0.98,1.84,-0.0216,-0.0237,0.3476,0.0077,-0.0827,0.3000,0.2578,-7.31,2.56,-19.17,0.0000,0.9790,1.1600,1.6060,2.3590,775,0.0025,-0.0115,0.0000,-0.0215,-0.0049,0
13416,0.0514,-0.1717,0.3450,-0.0185,-0.0342,-0.0229,-0.43,-0.14,0.72,0,3.684,-6.953,6.649,1.680,0.003,-0.013,1.006,0.000,0.000,0.000,0.3430,3,0,-1.21,0.88,1.95,-0.0219,-0.0249,0.3458,0.0077,-0.0827,0.3000,0.2587,-8.07,2.27,-21.54,0.0000,0.9790,1.1600,1.6060,2.3590,775,0.0025,-0.0115,0.0000,-0.0215,-0.0049,0
13468,0.0521,-0.1730,0.3432,-0.0146,-0.0299,-0.0229,-0.67,-0.35,0.78,0,3.695,-1.007,1.126,0.701,0.009,-0.014,1.009,0.000,0.000,0.000,0.3460,0,0,-1.54,0.53,2.06,-0.0227,-0.0275,0.3443,0.0077,-0.0827,0.3000,0.2590,-7.94,2.50,-23.26,2.7100,0.9870,1.1660,1.6110,2.3610,775,0.0025,-0.0115,0.0000,-0.0215,-0.0049,0
13519,0.0517,-0.1771,0.3437,-0.0114,-0.0285,-0.0115,-0.71,-0.44,0.81,0,3.684,0.720,-1.577,0.515,0.003,-0.017,1.006,0.000,0.000,0.000,0.3390,0,0,-1.59,0.47,2.10,-0.0238,-0.0281,0.3443,0.0077,-0.0827,0.3000,0.2577,-8.21,2.63,-24.41,2.7100,0.9870,1.1660,1.6110,2.3610,775,0.0025,-0.0115,0.0000,-0.0215,-0.0049,0
13570,0.0512,-0.1784,0.3411,-0.0078,-0.0225,-0.0184,-0.68,-0.35,0.84,0,3.695,-1.554,-1.579,0.813,0.007,-0.016,1.009,0.000,0.000,0.000,0.3410,1,0,-1.55,0.55,2.13,-0.0250,-0.0285,0.3424,0.0077,-0.0827,0.3000,0.2589,-7.98,2.76,-25.34,0.0000,0.9840,1.1630,1.6070,2.3600,721,0.0025,-0.0115,0.0000,-0.0215,-0.0049,0
13622,0.0550,-0.1755,0.3404,0.0021,-0.0101,-0.0137,-0.73,-0.23,0.88,0,3.684,7.008,-2.900,-0.766,0.004,-0.015,1.008,0.000,0.000,0.000,0.3420,0,1,-1.61,0.60,2.26,-0.0231,-0.0314,0.3417,0.0077,-0.0827,0.3000,0.2586,-7.21,3.51,-26.29,0.0000,0.9840,1.1630,1.6070,2.3600,721,0.0025,-0.0115,0.0000,-0.0215,-0.0049,0
13673,0.0565,-0.1788,0.3408,0.0063,-0.0096,-0.0049,-0.44,-0.13,0.87,0,3.695,2.275,-2.441,-0.617,0.005,-0.019,1.003,0.000,0.000,0.000,0.3400,0,0,-1.25,0.76,2.20,-0.0246,-0.0316,0.3417,0.0077,-0.0827,0.3000,0.2575,-7.45,3.83,-26.04,2.7020,0.9910,1.1620,1.6090,2.3640,721,0.0025,-0.0115,0.0000,-0.0215,-0.0049,0
13725,0.0561,-0.1802,0.3403,0.0062,-0.0077,-0.0040,-0.33,-0.14,0.86,0,3.684,-1.605,0.278,0.925,0.006,-0.017,1.004,0.000,0.000,0.000,0.3390,-1,0,-1.13,0.89,2.17,-0.0258,-0.0319,0.3412,0.0077,-0.0827,0.3000,0.2575,-7.46,3.79,-25.81,2.7020,0.9910,1.1620,1.6090,2.3640,721,0.0025,-0.0115,0.0000,-0.0215,-0.0049,0
13777,0.0576,-0.1813,0.3396,0.0094,-0.0060,-0.0032,-0.50,-0.17,0.88,0,3.690,-1.281,1.176,0.072,0.005,-0.017,1.005,0.000,0.000,0.000,0.3380,0,-1,-1.24,0.85,2.21,-0.0252,-0.0293,0.3406,0.0077,-0.0827,0.3000,0.2576,-7.46,4.05,-26.40,0.0000,0.9890,1.1650,1.6080,2.3710,721,0.0025,-0.0115,0.0000,-0.0215,-0.0049,0
13828,0.0574,-0.1777,0.3388,0.0096,0.0048,-0.0033,-0.53,-0.16,0.86,0,3.679,6.739,-6.927,0.460,0.002,-0.020,1.006,0.000,0.000,0.000,0.3370,2,0,-1.30,0.77,2.25,-0.0242,-0.0290,0.3399,0.0077,-0.0827,0.3000,0.2577,-6.69,4.05,-25.94,0.0000,0.9890,1.1650,1.6080,2.3710,721,0.0025,-0.0115,0.0000,-0.0215,-0.0049,0
13879,0.0600,-0.1747,0.3379,0.0144,0.0140,-0.0034,-0.27,0.03,0.83,0,3.690,3.132,-2.426,-0.729,0.009,-0.016,1.008,0.000,0.000,0.000,0.3370,0,0,-0.93,1.12,2.33,-0.0244,-0.0325,0.3391,0.0077,-0.0827,0.3000,0.2579,-6.04,4.47,-25.04,0.0000,0.9890,1.1590,1.6080,2.3640,721,0.0025,-0.0115,0.0000,-0.0215,-0.0049,0
13930,0.0676,-0.1730,0.3374,0.0265,0.0180,-0.0018,-0.04,0.07,0.80,0,3.684,0.620,-5.138,-1.454,0.005,-0.016,1.008,0.000,0.000,0.000,0.3400,1,1,-0.77,1.25,2.29,-0.0255,-0.0328,0.3387,0.0077,-0.0827,0.3000,0.2578,-5.73,5.59,-23.97,0.0000,0.9890,1.1590,1.6080,2.3640,721,0.0025,-0.0115,0.0000,-0.0215,-0.0049,0
13981,0.0722,-0.1760,0.3387,0.0319,0.0106,0.0080,0.07,0.25,0.75,0,3.690,2.320,-3.605,-3.001,0.007,-0.019,1.000,0.000,0.000,0.000,0.3370,0,-1,-0.71,1.51,2.24,-0.0272,-0.0360,0.3394,0.0077,-0.0827,0.3000,0.2565,-6.33,6.21,-22.61,0.0000,0.9880,1.1630,1.6000,2.3650,721,0.0025,-0.0115,0.0000,-0.0215,-0.0049,0
14032,0.0722,-0.1751,0.3383,0.0267,0.0106,0.0055,0.21,0.39,0.67,0,3.679,0.866,-4.580,0.126,0.006,-0.012,1.000,0.000,0.000,0.000,0.3370,-1,-3,-0.59,1.67,2.11,-0.0262,-0.0365,0.3391,0.0077,-0.0827,0.3000,0.2569,-6.26,5.95,-20.10,0.0000,0.9880,1.1630,1.6000,2.3650,721,0.0025,-0.0115,0.0000,-0.0215,-0.0049,0
14083,0.0733,-0.1760,0.3379,0.0225,0.0063,0.0023,0.16,0.61,0.60,0,3.690,-3.372,-0.108,-1.837,0.002,-0.013,1.005,0.000,0.000,0.000,0.3390,0,0,-0.57,1.85,2.14,-0.0206,-0.0347,0.3390,0.0077,-0.0827,0.3000,0.2573,-6.52,5.81,-17.93,2.7290,0.9810,1.1610,1.5850,2.3620,721,0.0025,-0.0115,0.0000,-0.0215,-0.0049,0
14135,0.0764,-0.1737,0.3385,0.0212,0.0083,0.0057,0.02,0.60,0.53,0,3.679,-0.767,8.995,-0.179,0.007,-0.012,1.003,0.000,0.000,0.000,0.3420,0,0,-0.74,1.86,2.05,-0.0217,-0.0353,0.3394,0.0077,-0.0827,0.3000,0.2568,-6.27,5.99,-16.05,2.7290,0.9810,1.1610,1.5850,2.3620,721,0.0025,-0.0115,0.0000,-0.0215,-0.0049,0
14185,0.0767,-0.1745,0.3405,0.0151,0.0054,0.0163,0.12,0.34,0.51,0,3.690,0.626,2.806,-1.593,0.008,-0.016,0.998,0.000,0.000,0.000,0.3380,-1,-1,-0.78,1.39,2.03,-0.0235,-0.0357,0.3407,0.0077,-0.0827,0.3000,0.2553,-6.50,5.76,-15.35,2.7170,0.9770,1.1660,1.5860,2.3620,721,0.0025,-0.0115,0.0000,-0.0215,-0.0049,0
14236,0.0742,-0.1765,0.3400,0.0063,-0.0001,0.0108,0.21,0.28,0.45,0,3.684,-7.137,1.352,0.527,0.009,-0.016,0.998,0.000,0.000,0.000,0.3390,0,0,-0.78,1.17,1.98,-0.0139,-0.0302,0.3406,0.0077,-0.0827,0.3000,0.2559,-6.90,5.14,-13.38,2.7170,0.9770,1.1660,1.5860,2.3620,721,0.0025,-0.0115,0.0000,-0.0215,-0.0049,0
14288,0.0758,-0.1742,0.3399,0.0066,0.0030,0.0070,0.02,0.29,0.46,0,3.690,-2.103,4.352,-0.307,0.005,-0.010,0.998,0.000,0.000,0.000,0.3370,0,0,-1.15,1.10,2.01,-0.0141,-0.0297,0.3405,0.0077,-0.0827,0.3000,0.2564,-6.57,5.26,-13.93,0.0000,0.9830,1.1670,1.5930,2.3620,721,0.0025,-0.0115,0.0000,-0.0215,-0.0049,0
14338,0.0782,-0.1721,0.3388,0.0082,0.0073,-0.0004,-0.12,0.20,0.47,0,3.679,1.324,5.085,0.391,0.006,-0.012,1.000,0.000,0.000,0.000,0.3380,0,1,-1.26,0.88,1.99,-0.0147,-0.0289,0.3396,0.0077,-0.0827,0.3000,0.2574,-6.20,5.49,-14.24,0.0000,0.9830,1.1670,1.5930,2.3620,721,0.0025,-0.0115,0.0000,-0.0215,-0.0049,0
14390,0.0779,-0.1719,0.3384,0.0053,0.0079,-0.0023,-0.03,0.04,0.51,0,3.690,1.921,-1.219,0.323,0.008,-0.015,1.005,0.000,0.000,0.000,0.3380,0,-1,-1.17,0.63,2.01,-0.0163,-0.0310,0.3393,0.0077,-0.0827,0.3000,0.2577,-6.15,5.32,-15.31,2.6930,0.9840,1.1610,1.5890,2.3600,679,0.0025,-0.0115,0.0000,-0.0215,-0.0049,0
14442,0.0769,-0.1722,0.3381,0.0026,0.0065,-0.0024,0.07,0.05,0.55,0,3.679,-1.646,2.717,1.552,0.007,-0.016,1.001,0.000,0.000,0.000,0.3370,3,0,-1.07,0.68,2.04,-0.0156,-0.0307,0.3391,0.0077,-0.0827,0.3000,0.2577,-6.23,5.12,-16.40,2.6930,0.9840,1.1610,1.5890,2.3600,679,0.0025,-0.0115,0.0000,-0.0215,-0.0049,0
14493,0.0780,-0.1732,0.3375,0.0042,0.0035,-0.0047,0.02,-0.02,0.59,0,3.690,1.043,-5.231,-0.088,0.007,-0.017,0.997,0.000,0.000,0.000,0.3390,0,1,-1.11,0.53,2.16,-0.0158,-0.0353,0.3387,0.0077,-0.0827,0.3000,0.2581,-6.44,5.28,-17.78,0.0000,0.9700,1.1630,1.5830,2.3640,679,0.0025,-0.0115,0.0000,-0.0215,-0.0049,0
14544,0.0803,-0.1782,0.3380,0.0089,-0.0071,-0.0013,-0.00,0.09,0.63,0,3.679,-1.776,-0.479,0.799,0.002,-0.013,1.002,0.000,0.000,0.000,0.3370,0,0,-1.06,0.81,2.15,-0.0179,-0.0356,0.3388,0.0077,-0.0827,0.3000,0.2576,-7.31,5.67,-18.88,0.0000,0.9700,1.1630,1.5830,2.3640,679,0.0025,-0.0115,0.0000,-0.0215,-0.0049,0
14595,0.0774,-0.1884,0.3375,0.0015,-0.0284,-0.0034,0.04,0.20,0.68,0,3.690,-5.185,-2.238,1.819,0.002,-0.017,0.996,0.000,0.000,0.000,0.3360,0,0,-1.15,0.83,2.19,-0.0193,-0.0360,0.3383,0.0077,-0.0827,0.3000,0.2579,-9.02,5.11,-20.29,0.0000,0.9730,1.1650,1.5660,2.3620,679,0.0025,-0.0115,0.0000,-0.0215,-0.0049,0
14646,0.0782,-0.1837,0.3367,0.0012,-0.0153,-0.0065,-0.22,0.21,0.74,0,3.679,-2.950,3.143,1.666,0.008,-0.016,1.006,0.000,0.000,0.000,0.3360,1,1,-1.42,0.95,2.28,-0.0210,-0.0363,0.3375,0.0077,-0.0827,0.3000,0.2584,-8.06,5.14,-22.34,0.0000,0.9730,1.1650,1.5660,2.3620,679,0.0025,-0.0115,0.0000,-0.0215,-0.0049,0
14697,0.0770,-0.1927,0.3361,-0.0028,-0.0303,-0.0061,-0.36,0.03,0.80,0,3.690,-1.358,0.817,1.757,0.006,-0.014,1.001,0.000,0.000,0.000,0.3380,-2,0,-1.54,0.76,2.41,-0.0200,-0.0402,0.3371,0.0077,-0.0827,0.3000,0.2585,-9.39,4.87,-23.85,2.7070,0.9830,1.1710,1.5790,2.3640,679,0.0025,-0.0115,0.0000,-0.0215,-0.0049,0
14748,0.0769,-0.1953,0.3368,-0.0029,-0.0292,-0.0012,-0.53,-0.01,0.85,0,3.679,-3.962,-1.724,-0.036,0.012,-0.013,0.999,0.000,0.000,0.000,0.3360,-1,0,-1.64,0.72,2.47,-0.0211,-0.0375,0.3373,0.0077,-0.0827,0.3000,0.2578,-9.55,4.87,-25.50,2.7070,0.9830,1.1710,1.5790,2.3640,679,0.0025,-0.0115,0.0000,-0.0215,-0.0049,0
14800,0.0777,-0.1928,0.3363,-0.0008,-0.0165,-0.0038,-0.74,0.04,0.87,0,3.684,1.266,-0.700,-0.017,0.006,-0.015,1.000,0.000,0.000,0.000,0.3340,-3,0,-1.85,0.80,2.47,-0.0219,-0.0355,0.3368,0.0077,-0.0827,0.3000,0.2582,-8.77,5.02,-26.02,2.7080,0.9950,1.1810,1.5690,2.3700,679,0.0025,-0.0115,0.0000,-0.0215,-0.0049,0
14852,0.0796,-0.1969,0.3351,0.0029,-0.0179,-0.0087,-0.72,0.08,0.91,0,3.679,-0.889,2.685,1.259,0.004,-0.015,1.002,0.000,0.000,0.000,0.3330,0,-1,-1.82,0.83,2.44,-0.0228,-0.0289,0.3357,0.0077,-0.0827,0.3000,0.2590,-9.10,5.32,-27.40,2.7080,0.9950,1.1810,1.5690,2.3700,679,0.0025,-0.0115,0.0000,-0.0215,-0.0049,0
14902,0.0792,-0.2005,0.3339,0.0012,-0.0201,-0.0118,-0.59,0.02,0.96,0,3.684,-3.286,2.251,1.125,0.004,-0.021,0.999,0.000,0.000,0.000,0.3350,0,0,-1.86,0.66,2.56,-0.0211,-0.0282,0.3348,0.0077,-0.0827,0.3000,0.2595,-9.44,5.20,-28.68,2.6980,0.9800,1.1790,1.6020,2.3650,679,0.0025,-0.0115,0.0000,-0.0215,-0.0049,0
14953,0.0795,-0.2013,0.3340,0.0013,-0.0148,-0.0081,-0.73,-0.14,1.02,0,3.674,-0.690,0.225,0.398,0.005,-0.019,1.002,0.000,0.000,0.000,0.3310,-1,0,-2.02,0.55,2.61,-0.0223,-0.0255,0.3345,0.0077,-0.0827,0.3000,0.2591,-9.26,5.23,-30.66,2.6980,0.9800,1.1790,1.6020,2.3650,679,0.0025,-0.0115,0.0000,-0.0215,-0.0049,0
15004,0.0786,-0.2032,0.3324,0.0003,-0.0113,-0.0124,-0.80,-0.17,1.07,0,3.684,4.922,-2.442,0.584,0.005,-0.019,1.007,0.000,0.000,0.000,0.3290,-1,0,-2.03,0.52,2.70,-0.0208,-0.0261,0.3333,0.0077,-0.0827,0.3000,0.2599,-9.21,5.11,-32.02,2.6760,0.9820,1.1740,1.5980,2.3670,679,0.0025,-0.0115,0.0000,-0.0215,-0.0049,0
15055,0.0799,-0.2020,0.3305,0.0041,-0.0014,-0.0174,-0.59,0.07,1.09,0,3.674,2.626,-0.076,0.827,0.005,-0.016,1.009,0.000,0.000,0.000,0.3300,0,0,-1.78,0.64,2.74,-0.0212,-0.0230,0.3318,0.0077,-0.0827,0.3000,0.2608,-8.64,5.36,-32.75,2.6760,0.9820,1.1740,1.5980,2.3670,679,0.0025,-0.0115,0.0000,-0.0215,-0.0049,0
15106,0.0795,-0.1993,0.3298,0.0024,0.0096,-0.0131,-0.45,0.13,1.13,0,3.684,4.081,3.704,0.934,0.008,-0.017,1.008,0.000,0.000,0.000,0.3320,0,0,-1.65,0.64,2.78,-0.0221,-0.0197,0.3311,0.0077,-0.0827,0.3000,0.2604,-7.95,5.26,-33.91,2.7160,0.9800,1.1740,1.5940,2.3700,679,0.0025,-0.0115,0.0000,-0.0215,-0.0049,0
15158,0.0788,-0.1998,0.3303,-0.0005,0.0110,-0.0036,-0.28,-0.01,1.19,0,3.679,1.418,0.391,2.447,0.003,-0.014,1.010,0.000,0.000,0.000,0.3300,-2,0,-1.44,0.45,2.83,-0.0232,-0.0160,0.3313,0.0077,-0.0827,0.3000,0.2593,-7.96,5.09,-35.81,2.7160,0.9800,1.1740,1.5940,2.3700,679,0.0025,-0.0115,0.0000,-0.0215,-0.0049,0
15208,0.0787,-0.1992,0.3302,-0.0007,0.0134,0.0004,-0.24,0.02,1.29,0,3.684,-0.028,4.998,1.406,0.002,-0.015,1.004,0.000,0.000,0.000,0.3330,0,0,-1.33,0.40,3.06,-0.0204,-0.0190,0.3314,0.0077,-0.0827,0.3000,0.2589,-7.81,5.09,-38.79,2.6980,0.9820,1.1730,1.6040,2.3720,730,0.0025,-0.0115,0.0000,-0.0215,-0.0049,0
15259,0.0787,-0.1960,0.3315,-0.0007,0.0207,0.0096,-0.23,-0.12,1.37,0,3.679,3.603,2.817,0.944,0.004,-0.017,1.005,0.000,0.000,0.000,0.3330,0,0,-1.33,0.15,3.13,-0.0210,-0.0160,0.3323,0.0077,-0.0827,0.3000,0.2576,-7.28,5.11,-41.06,2.6980,0.9820,1.1730,1.6040,2.3720,730,0.0025,-0.0115,0.0000,-0.0215,-0.0049,0
15310,0.0805,-0.1958,0.3326,0.0042,0.0207,0.0146,-0.10,-0.22,1.40,0,3.690,5.915,-0.370,-0.099,0.007,-0.017,0.998,0.000,0.000,0.000,0.3300,0,0,-1.14,0.00,3.17,-0.0215,-0.0129,0.3331,0.0077,-0.0827,0.3000,0.2569,-7.29,5.49,-42.13,0.0000,0.9870,1.1770,1.6050,2.3640,730,0.0025,-0.0115,0.0000,-0.0210,-0.0160,0
15362,0.0805,-0.1895,0.3319,0.0054,0.0323,0.0080,0.13,-0.18,1.41,0,3.679,2.308,-2.575,-0.792,0.010,-0.018,0.996,0.000,0.000,0.000,0.3310,0,0,-0.84,0.02,3.17,-0.0219,-0.0097,0.3327,0.0077,-0.0827,0.3000,0.2577,-6.27,5.53,-42.36,0.0000,0.9870,1.1770,1.6050,2.3640,730,0.0025,-0.0115,0.0000,-0.0210,-0.0160,0
15413,0.0795,-0.1903,0.3318,0.0043,0.0261,0.0037,0.27,0.03,1.36,0,3.684,0.622,-4.292,-1.216,0.009,-0.016,0.991,0.000,0.000,0.000,0.3340,0,0,-0.72,0.16,3.13,-0.0220,-0.0067,0.3325,0.0077,-0.0827,0.3000,0.2582,-6.61,5.40,-40.80,2.6960,0.9920,1.1670,1.5970,2.3640,730,0.0025,-0.0115,0.0000,-0.0210,-0.0160,0
15465,0.0794,-0.1882,0.3329,0.0036,0.0252,0.0059,0.42,0.25,1.30,0,3.679,3.263,-0.614,-2.018,0.009,-0.020,0.992,0.000,0.000,0.000,0.3320,0,-1,-0.69,0.38,3.07,-0.0220,-0.0036,0.3330,0.0077,-0.0827,0.3000,0.2578,-6.52,5.37,-38.98,2.6960,0.9920,1.1670,1.5970,2.3640,730,0.0025,-0.0115,0.0000,-0.0210,-0.0160,0
15516,0.0809,-0.1878,0.3326,0.0044,0.0200,0.0004,0.57,0.25,1.20,0,3.684,-1.362,0.749,-1.769,0.009,-0.015,0.995,0.000,0.000,0.000,0.3330,0,0,-0.43,0.40,3.16,-0.0195,-0.0161,0.3328,0.0077,-0.0827,0.3000,0.2584,-6.72,5.51,-36.03,2.7020,0.9830,1.1700,1.5780,2.3670,730,0.0025,-0.0115,0.0000,-0.0210,-0.0160,0
15567,0.0813,-0.1883,0.3328,0.0027,0.0124,-0.0017,0.50,0.14,1.16,0,3.674,-6.742,2.390,-0.911,0.004,-0.013,0.993,0.000,0.000,0.000,0.3320,4,0,-0.50,0.37,3.07,-0.0189,-0.0161,0.3327,0.0077,-0.0827,0.3000,0.2586,-7.11,5.45,-34.66,2.7020,0.9830,1.1700,1.5780,2.3670,730,0.0025,-0.0115,0.0000,-0.0210,-0.0160,0
15618,0.0814,-0.1862,0.3323,0.0017,0.0112,-0.0051,0.34,0.06,1.13,0,3.684,-4.680,3.068,0.246,0.006,-0.007,0.999,0.000,0.000,0.000,0.3300,5,1,-0.78,0.25,3.13,-0.0184,-0.0222,0.3318,0.0077,-0.0827,0.3000,0.2591,-7.01,5.40,-33.89,2.6940,0.9830,1.1700,1.5780,2.3690,730,0.0025,-0.0115,0.0000,-0.0210,-0.0160,0
15671,0.0817,-0.1945,0.3310,0.0016,-0.0085,-0.0112,0.22,0.07,1.10,0,3.674,-4.082,0.759,-0.769,0.004,-0.016,1.002,0.000,0.000,0.000,0.3330,-3,0,-0.97,0.10,3.24,-0.0187,-0.0286,0.3305,0.0077,-0.0827,0.3000,0.2600,-8.49,5.40,-33.09,2.6940,0.9830,1.1700,1.5780,2.3690,730,0.0025,-0.0115,0.0000,-0.0210,-0.0160,0
15722,0.0805,-0.1976,0.3315,-0.0012,-0.0153,-0.0061,0.08,0.06,1.04,0,3.679,-2.371,1.283,-0.561,0.006,-0.014,1.000,0.000,0.000,0.000,0.3290,2,0,-1.24,0.07,3.09,-0.0187,-0.0262,0.3312,0.0077,-0.0827,0.3000,0.2593,-9.04,5.20,-31.17,2.6990,0.9820,1.1800,1.5870,2.3730,730,0.0025,-0.0115,0.0000,-0.0210,-0.0160,0
15774,0.0821,-0.1918,0.3301,0.0016,-0.0034,-0.0111,-0.10,0.03,0.98,0,3.674,-2.358,1.930,-1.047,0.010,-0.013,1.000,0.000,0.000,0.000,0.3310,-3,0,-1.34,0.00,3.11,-0.0184,-0.0301,0.3301,0.0077,-0.0827,0.3000,0.2601,-8.06,5.43,-29.30,2.6990,0.9820,1.1800,1.5870,2.3730,730,0.0025,-0.0115,0.0000,-0.0210,-0.0160,0
15825,0.0827,-0.2076,0.3302,0.0025,-0.0329,-0.0076,-0.13,-0.05,0.94,0,3.679,-7.287,-2.695,-0.328,0.007,-0.018,1.006,0.000,0.000,0.000,0.3290,1,0,-1.52,-0.09,2.93,-0.0185,-0.0251,0.3300,0.0077,-0.0827,0.3000,0.2597,-10.54,5.52,-28.23,2.6910,0.9810,1.1830,1.5950,2.3740,718,0.0025,-0.0115,0.0000,-0.0210,-0.0160,0
15876,0.0814,-0.2074,0.3294,0.0001,-0.0283,-0.0080,-0.45,0.00,0.92,0,3.674,-6.912,4.438,0.760,0.004,-0.015,1.003,0.000,0.000,0.000,0.3290,4,0,-1.87,0.05,2.96,-0.0181,-0.0271,0.3295,0.0077,-0.0827,0.3000,0.2599,-10.31,5.31,-27.55,2.6910,0.9810,1.1830,1.5950,2.3740,718,0.0025,-0.0115,0.0000,-0.0210,-0.0160,0
15927,0.0819,-0.2122,0.3290,0.0012,-0.0312,-0.0062,-0.74,-0.10,0.92,0,3.679,-2.289,-0.305,0.518,0.004,-0.013,1.007,0.000,0.000,0.000,0.3270,0,0,-2.15,-0.18,3.15,-0.0172,-0.0366,0.3294,0.0077,-0.0827,0.3000,0.2598,-10.78,5.40,-27.73,2.6930,0.9780,1.1920,1.5810,2.3760,718,0.0025,-0.0115,0.0000,-0.0210,-0.0160,0
15979,0.0827,-0.2180,0.3279,0.0033,-0.0330,-0.0075,-0.83,-0.16,0.94,0,3.674,1.299,-5.056,0.246,0.004,-0.019,1.002,0.000,0.000,0.000,0.3250,0,0,-2.27,-0.17,3.18,-0.0164,-0.0379,0.3286,0.0077,-0.0827,0.3000,0.2601,-11.25,5.55,-28.24,2.6930,0.9780,1.1920,1.5810,2.3760,718,0.0025,-0.0115,0.0000,-0.0210,-0.0160,0
16030,0.0814,-0.2237,0.3263,0.0018,-0.0341,-0.0109,-0.83,0.01,0.96,0,3.674,0.753,-2.062,1.140,0.003,-0.013,1.003,0.000,0.000,0.000,0.3260,0,0,-2.20,0.10,3.20,-0.0155,-0.0386,0.3274,0.0077,-0.0827,0.3000,0.2608,-11.66,5.38,-28.76,0.0000,0.9770,1.1920,1.5740,2.3770,718,0.0025,-0.0115,0.0000,-0.0210,-0.0160,0
16082,0.0824,-0.2254,0.3258,0.0033,-0.0275,-0.0104,-0.83,0.09,0.98,0,3.674,1.274,-0.327,-0.530,0.004,-0.017,1.001,0.000,0.000,0.000,0.3260,0,0,-2.16,0.20,3.27,-0.0146,-0.0387,0.3268,0.0077,-0.0827,0.3000,0.2608,-11.48,5.52,-29.50,0.0000,0.9770,1.1920,1.5740,2.3770,718,0.0025,-0.0115,0.0000,-0.0210,-0.0160,0
16133,0.0825,-0.2266,0.3255,0.0025,-0.0203,-0.0077,-0.79,0.01,0.99,0,3.679,1.692,3.058,-0.080,0.007,-0.020,1.004,0.000,0.000,0.000,0.3260,0,0,-2.10,0.22,3.24,-0.0137,-0.0383,0.3264,0.0077,-0.0827,0.3000,0.2606,-11.25,5.50,-29.55,2.6800,0.9820,1.1950,1.5760,2.3810,718,0.0025,-0.0115,0.0000,-0.0210,-0.0160,0
16184,0.0826,-0.2275,0.3255,0.0021,-0.0134,-0.0045,-0.68,0.05,1.00,0,3.669,2.964,-0.884,0.591,0.008,-0.016,1.003,0.000,0.000,0.000,0.3230,0,0,-2.01,0.06,3.23,-0.0127,-0.0374,0.3261,0.0077,-0.0827,0.3000,0.2603,-11.01,5.50,-29.89,2.6800,0.9820,1.1950,1.5760,2.3810,718,0.0025,-0.0115,0.0000,-0.0210,-0.0160,0
16235,0.0819,-0.2284,0.3242,0.0001,-0.0084,-0.0091,-0.52,0.14,1.00,0,3.674,0.103,1.481,-0.293,0.004,-0.018,1.008,0.000,0.000,0.000,0.3220,0,0,-1.86,0.11,3.26,-0.0116,-0.0360,0.3251,0.0077,-0.0827,0.3000,0.2610,-10.81,5.33,-29.90,2.6910,0.9780,1.1980,1.5730,2.3800,718,0.0025,-0.0115,0.0000,-0.0210,-0.0160,0
16286,0.0815,-0.2290,0.3229,-0.0020,-0.0045,-0.0110,-0.46,0.18,1.00,0,3.669,1.169,7.789,0.085,0.005,-0.014,1.008,0.000,0.000,0.000,0.3240,0,0,-1.86,0.03,3.24,-0.0105,-0.0342,0.3241,0.0077,-0.0827,0.3000,0.2614,-10.67,5.20,-30.03,2.6910,0.9780,1.1980,1.5730,2.3800,718,0.0025,-0.0115,0.0000,-0.0210,-0.0160,0
16338,0.0828,-0.2262,0.3231,-0.0007,0.0051,-0.0041,-0.42,-0.05,1.00,0,3.674,4.204,-0.355,-0.511,0.005,-0.020,1.008,0.000,0.000,0.000,0.3200,0,1,-1.80,-0.37,3.24,-0.0092,-0.0319,0.3241,0.0077,-0.0827,0.3000,0.2607,-10.06,5.37,-30.02,0.0000,0.9810,1.1930,1.5750,2.3810,718,0.0025,-0.0115,0.0000,-0.0210,-0.0160,0
16389,0.0831,-0.2212,0.3216,0.0003,0.0177,-0.0063,-0.27,-0.17,0.96,0,3.669,5.129,-1.780,-3.028,0.005,-0.017,1.009,0.000,0.000,0.000,0.3200,0,-1,-1.50,-0.29,3.27,-0.0217,-0.0492,0.3234,0.0077,-0.0827,0.3000,0.2612,-9.11,5.43,-28.71,0.0000,0.9810,1.1930,1.5750,2.3810,718,0.0025,-0.0115,0.0000,-0.0210,-0.0160,0
16441,0.0799,-0.2214,0.3207,-0.0046,0.0180,-0.0056,-0.08,-0.04,0.84,0,3.674,3.573,0.550,-1.689,0.009,-0.012,1.009,0.000,0.000,0.000,0.3190,0,-1,-1.24,-0.20,3.13,-0.0214,-0.0490,0.3228,0.0077,-0.0827,0.3000,0.2613,-9.12,4.97,-25.27,0.0000,0.9800,1.1900,1.5780,2.3790,718,0.0025,-0.0115,0.0000,-0.0210,-0.0160,0
16492,0.0799,-0.2239,0.3198,-0.0041,0.0125,-0.0060,0.10,-0.01,0.75,0,3.669,-0.244,-0.224,-1.358,0.005,-0.021,1.007,0.000,0.000,0.000,0.3210,0,0,-1.05,-0.23,3.05,-0.0205,-0.0487,0.3221,0.0077,-0.0827,0.3000,0.2615,-9.54,4.99,-22.59,0.0000,0.9800,1.1900,1.5780,2.3790,718,0.0025,-0.0115,0.0000,-0.0210,-0.0160,0
16543,0.0812,-0.2207,0.3202,-0.0012,0.0165,0.0007,0.09,0.02,0.66,0,3.674,2.651,0.252,-1.678,0.003,-0.018,1.001,0.000,0.000,0.000,0.3210,0,1,-1.06,-0.22,2.98,-0.0197,-0.0482,0.3222,0.0077,-0.0827,0.3000,0.2607,-9.16,5.24,-19.72,0.0000,0.9760,1.1880,1.5780,2.3780,718,0.0025,-0.0115,0.0000,-0.0210,-0.0160,0
16594,0.0840,-0.2205,0.3206,0.0044,0.0144,0.0046,0.23,-0.04,0.55,0,3.669,3.446,1.159,-2.176,-0.001,-0.019,1.000,0.000,0.000,0.000,0.3190,0,0,-0.92,-0.20,2.90,-0.0215,-0.0484,0.3223,0.0077,-0.0827,0.3000,0.2602,-9.26,5.71,-16.45,0.0000,0.9760,1.1880,1.5780,2.3780,718,0.0025,-0.0115,0.0000,-0.0210,-0.0160,0
16645,0.0824,-0.2207,0.3201,0.0016,0.0109,0.0034,0.41,-0.13,0.43,0,3.679,-2.025,-1.292,-2.003,0.008,-0.018,1.002,0.000,0.000,0.000,0.3190,0,0,-0.75,-0.25,2.78,-0.0214,-0.0482,0.3217,0.0077,-0.0827,0.3000,0.2604,-9.43,5.46,-12.90,0.0000,0.9810,1.1890,1.5510,2.3840,718,0.0025,-0.0115,0.0000,-0.0210,-0.0160,0
16697,0.0822,-0.2190,0.3197,0.0021,0.0097,0.0015,0.33,-0.04,0.34,0,3.669,-2.119,-1.678,-1.535,0.003,-0.013,1.004,0.000,0.000,0.000,0.3220,-3,-1,-0.85,-0.19,2.68,-0.0210,-0.0481,0.3212,0.0077,-0.0827,0.3000,0.2607,-9.37,5.47,-10.06,0.0000,0.9810,1.1890,1.5510,2.3840,718,0.0025,-0.0115,0.0000,-0.0210,-0.0160,0
16749,0.0835,-0.2246,0.3209,0.0046,-0.0049,0.0081,0.22,0.09,0.25,0,3.679,1.620,-0.498,-0.817,0.004,-0.020,0.998,0.000,0.000,0.000,0.3210,-1,0,-1.03,-0.11,2.43,-0.0197,-0.0395,0.3218,0.0077,-0.0827,0.3000,0.2598,-10.46,5.69,-7.36,2.6750,0.9720,1.1970,1.5500,2.3810,718,0.0025,-0.0115,0.0000,-0.0210,-0.0160,0
16800,0.0848,-0.2227,0.3213,0.0058,-0.0035,0.0090,0.28,0.08,0.13,0,3.669,3.358,-1.250,-2.317,0.006,-0.014,0.998,0.000,0.000,0.000,0.3200,0,-1,-0.95,-0.08,2.38,-0.0191,-0.0370,0.3218,0.0077,-0.0827,0.3000,0.2596,-10.27,5.85,-3.80,2.6750,0.9720,1.1970,1.5500,2.3810,718,0.0025,-0.0115,0.0000,-0.0210,-0.0160,0
16851,0.0879,-0.2243,0.3210,0.0104,-0.0089,0.0051,0.33,0.12,0.03,0,3.679,-8.717,0.409,1.248,0.003,-0.014,0.999,0.000,0.000,0.000,0.3200,1,-1,-0.77,-0.02,2.28,-0.0172,-0.0357,0.3215,0.0077,-0.0827,0.3000,0.2601,-10.62,6.28,-0.78,0.0000,0.9660,1.1950,1.5490,2.3850,718,0.0025,-0.0115,0.0000,-0.0210,-0.0160,0
16902,0.0890,-0.2224,0.3207,0.0102,-0.0072,0.0013,0.04,0.19,-0.00,0,3.669,-3.917,-0.489,-1.456,0.007,-0.017,1.002,0.000,0.000,0.000,0.3240,0,0,-1.19,-0.05,2.39,-0.0148,-0.0364,0.3212,0.0077,-0.0827,0.3000,0.2605,-10.39,6.33,0.05,0.0000,0.9660,1.1950,1.5490,2.3850,718,0.0025,-0.0115,0.0000,-0.0210,-0.0160,0
16953,0.0905,-0.2279,0.3222,0.0104,-0.0171,0.0084,-0.18,0.27,-0.05,0,3.674,-0.700,-1.907,-1.631,0.006,-0.017,1.001,0.000,0.000,0.000,0.3190,0,0,-1.39,-0.02,2.32,-0.0130,-0.0350,0.3222,0.0077,-0.0827,0.3000,0.2595,-11.27,6.48,1.42,0.0000,0.9640,1.2020,1.5450,2.3800,669,0.0025,-0.0115,0.0000,-0.0210,-0.0160,0
17004,0.0909,-0.2296,0.3211,0.0081,-0.0173,0.0006,-0.34,0.27,-0.09,0,3.663,-0.834,-0.355,-0.945,0.005,-0.015,1.004,0.000,0.000,0.000,0.3210,0,0,-1.43,0.08,2.24,-0.0110,-0.0333,0.3215,0.0077,-0.0827,0.3000,0.2605,-11.35,6.37,2.75,0.0000,0.9640,1.2020,1.5450,2.3800,669,0.0025,-0.0115,0.0000,-0.0210,-0.0160,0
17055,0.0913,-0.2316,0.3211,0.0061,-0.0165,0.0018,-0.58,0.24,-0.08,0,3.674,-37.883,-17.304,2.603,0.009,-0.023,0.998,0.000,0.000,0.000,0.3210,4,-1,-1.47,0.10,2.19,-0.0090,-0.0314,0.3216,0.0077,-0.0827,0.3000,0.2604,-11.46,6.31,2.33,2.6770,0.9700,1.2070,1.5520,2.3840,669,0.0025,-0.0115,0.0000,-0.0210,-0.0160,0
17107,0.0909,-0.2365,0.3211,0.0024,-0.0189,-0.0000,-2.39,1.04,0.07,0,3.663,-45.857,-21.694,3.781,0.007,-0.016,1.008,0.000,0.000,0.000,0.3190,0,-1,-3.26,1.01,2.62,-0.0120,-0.0517,0.3225,0.0077,-0.0827,0.3000,0.2606,-11.90,6.11,-2.08,2.6770,0.9700,1.2070,1.5520,2.3840,669,0.0025,-0.0115,0.0000,-0.0210,-0.0160,0
17158,0.0890,-0.2441,0.3201,-0.0098,-0.0124,-0.0037,-4.55,1.99,0.32,0,3.679,-10.435,1.626,3.142,0.006,-0.013,1.008,0.000,0.000,0.000,0.3280,0,0,-5.66,2.11,2.92,-0.0104,-0.0525,0.3219,0.0077,-0.0827,0.3000,0.2612,-12.09,5.39,-9.61,0.0000,0.9480,1.2240,1.6110,2.3940,669,0.0025,-0.0115,0.0000,-0.0210,-0.0160,0
17210,0.0906,-0.2413,0.3237,-0.0220,0.0302,0.0172,-5.08,1.92,0.48,0,3.674,4.367,5.651,4.187,0.006,-0.023,0.998,0.000,0.000,0.000,0.3280,-3,2,-6.20,2.01,3.07,-0.0103,-0.0512,0.3243,0.0077,-0.0827,0.3000,0.2582,-10.07,4.98,-14.41,0.0000,0.9480,1.2240,1.6110,2.3940,669,0.0025,-0.0115,0.0000,-0.0210,-0.0160,0
17261,0.0901,-0.2453,0.3264,-0.0368,0.0611,0.0256,-5.01,1.59,0.64,0,3.679,0.949,0.814,2.932,0.007,-0.020,0.992,0.000,0.000,0.000,0.3230,-1,1,-5.99,1.75,3.05,-0.0150,-0.0448,0.3256,0.0077,-0.0827,0.3000,0.2568,-8.97,4.27,-19.26,2.7030,0.9510,1.2190,1.6280,2.4010,666,0.0025,-0.0115,0.0000,-0.0210,-0.0160,0
17312,0.0879,-0.2345,0.3256,-0.0509,0.1162,0.0110,-4.94,1.49,0.78,0,3.669,12.621,1.972,3.225,0.005,-0.020,0.996,0.000,0.000,0.000,0.3220,-2,1,-5.94,1.70,3.15,-0.0179,-0.0399,0.3253,0.0077,-0.0827,0.3000,0.2585,-5.55,3.41,-23.35,2.7030,0.9510,1.2190,1.6280,2.4010,666,0.0025,-0.0115,0.0000,-0.0210,-0.0160,0
17363,0.0860,-0.2274,0.3242,-0.0621,0.1587,-0.0025,-4.29,1.32,0.90,0,3.674,27.009,9.779,2.614,0.010,-0.024,0.995,0.000,0.000,0.000,0.3190,-8,1,-5.29,1.59,3.28,-0.0214,-0.0328,0.3244,0.0077,-0.0827,0.3000,0.2602,-3.01,2.73,-26.88,2.7230,0.9480,1.1950,1.6320,2.4020,666,0.0025,-0.0115,0.0000,-0.0210,-0.0160,0
17414,0.0833,-0.2208,0.3217,-0.0725,0.1911,-0.0167,-3.13,0.87,0.97,0,3.658,21.719,8.802,1.628,0.012,-0.027,1.001,0.000,0.000,0.000,0.3170,-6,2,-3.99,1.07,3.52,-0.0257,-0.0153,0.3211,0.0077,-0.0827,0.3000,0.2623,-0.99,2.02,-29.00,2.7230,0.9480,1.1950,1.6320,2.4020,666,0.0025,-0.0115,0.0000,-0.0210,-0.0160,0
17466,0.0805,-0.2046,0.3188,-0.0785,0.2298,-0.0275,-2.04,0.47,1.02,0,3.663,24.225,5.598,0.300,0.010,-0.025,1.007,0.000,0.000,0.000,0.3140,0,0,-2.92,0.63,3.51,-0.0321,0.0017,0.3184,0.0077,-0.0827,0.3000,0.2640,1.97,1.53,-30.61,2.7080,0.9760,1.1640,1.6310,2.3980,666,0.0025,-0.0115,0.0000,-0.0210,-0.0160,0
17517,0.0770,-0.1926,0.3155,-0.0819,0.2480,-0.0354,-0.87,0.18,1.03,0,3.658,28.266,2.468,-0.392,0.007,-0.030,1.011,0.000,0.000,0.000,0.3180,-12,1,-1.66,0.34,3.51,-0.0369,0.0156,0.3162,0.0077,-0.0827,0.3000,0.2654,3.64,1.12,-31.00,2.7080,0.9760,1.1640,1.6310,2.3980,666,0.0025,-0.0115,0.0000,-0.0210,-0.0160,0
17569,0.0735,-0.1767,0.3155,-0.0820,0.2612,-0.0226,0.55,0.00,1.02,0,3.669,28.826,-0.628,-2.039,0.008,-0.030,1.009,0.000,0.000,0.000,0.3140,-8,1,-0.29,0.18,3.80,-0.0371,0.0389,0.3151,0.0077,-0.0827,0.3000,0.2641,5.38,0.88,-30.52,0.0000,0.9740,1.1290,1.6160,2.3910,666,0.0025,-0.0115,0.0000,-0.0210,-0.0160,0
17621,0.0719,-0.1625,0.3140,-0.0765,0.2585,-0.0201,2.01,0.03,0.93,0,3.658,22.830,0.171,-2.552,0.008,-0.028,1.006,0.000,0.000,0.000,0.3130,0,2,1.17,0.21,3.71,-0.0414,0.0605,0.3135,0.0077,-0.0827,0.3000,0.2641,6.25,1.03,-27.83,0.0000,0.9740,1.1290,1.6160,2.3910,666,0.0025,-0.0115,0.0000,-0.0210,-0.0160,0
17672,0.0707,-0.1510,0.3129,-0.0703,0.2389,-0.0164,3.10,-0.05,0.81,0,3.669,7.312,3.429,-1.782,0.010,-0.021,1.013,0.000,0.000,0.000,0.3120,-5,3,2.44,0.22,3.53,-0.0469,0.0650,0.3139,0.0077,-0.0827,0.3000,0.2639,6.14,1.23,-24.45,2.6980,0.0000,1.0990,1.5940,2.3960,666,0.0025,-0.0115,0.0000,-0.0210,-0.0160,0
17723,0.0676,-0.1420,0.3119,-0.0685,0.2065,-0.0134,3.52,-0.25,0.74,0,3.658,-0.139,2.508,-0.368,0.009,-0.021,1.013,0.000,0.000,0.000,0.3120,0,0,2.79,0.07,3.45,-0.0555,0.0791,0.3129,0.0077,-0.0827,0.3000,0.2637,5.26,1.10,-22.14,2.6980,0.0000,1.0990,1.5940,2.3960,666,0.0025,-0.0115,0.0000,-0.0210,-0.0160,0
17775,0.0650,-0.1307,0.3116,-0.0643,0.1797,-0.0066,3.50,-0.40,0.70,0,3.669,6.611,-0.266,-0.313,0.007,-0.022,1.015,0.000,0.000,0.000,0.3110,-6,0,2.79,-0.06,3.44,-0.0600,0.0896,0.3126,0.0077,-0.0827,0.3000,0.2631,4.82,1.12,-20.98,0.0000,0.0000,1.0770,1.5940,2.3920,666,0.0025,-0.0115,0.0000,-0.0210,-0.0160,0
17826,0.0612,-0.1219,0.3112,-0.0621,0.1502,-0.0022,3.70,-0.41,0.69,0,3.658,-1.613,-0.055,1.949,0.008,-0.017,1.014,0.000,0.000,0.000,0.3110,0,2,3.12,-0.12,3.22,-0.0549,0.1010,0.3126,0.0077,-0.0827,0.3000,0.2627,4.05,0.95,-20.60,0.0000,0.0000,1.0770,1.5940,2.3920,666,0.0025,-0.0115,0.0000,-0.0210,-0.0160,0
17878,0.0580,-0.1167,0.3111,-0.0588,0.1141,0.0026,3.73,-0.45,0.75,0,3.669,-1.279,2.905,-0.477,0.008,-0.021,1.010,0.000,0.000,0.000,0.3070,1,1,3.07,-0.08,3.46,-0.0599,0.1024,0.3127,0.0077,-0.0827,0.3000,0.2622,2.74,0.89,-22.54,2.7040,0.0000,1.0710,1.5910,2.3950,666,0.0025,-0.0115,0.0000,-0.0210,-0.0160,0
17929,0.0548,-0.1124,0.3094,-0.0555,0.0799,-0.0025,3.68,-0.61,0.80,0,3.658,-7.689,2.041,1.844,0.007,-0.018,1.009,0.000,0.000,0.000,0.3070,0,0,3.04,-0.22,3.52,-0.0627,0.1003,0.3114,0.0077,-0.0827,0.3000,0.2630,1.42,0.81,-24.03,2.7040,0.0000,1.0710,1.5910,2.3950,666,0.0025,-0.0115,0.0000,-0.0210,-0.0160,0
17980,0.0531,-0.1115,0.3083,-0.0478,0.0425,-0.0034,3.38,-0.67,0.88,0,3.663,-6.439,-2.694,-0.511,0.006,-0.019,1.012,0.000,0.000,0.000,0.3100,0,0,2.65,-0.32,3.62,-0.0645,0.1013,0.3106,0.0077,-0.0827,0.3000,0.2633,-0.27,1.05,-26.41,2.6950,0.0000,1.0600,1.6030,2.3980,647,0.0025,-0.0115,0.0000,-0.0210,-0.0160,0
18031,0.0505,-0.1099,0.3090,-0.0424,0.0134,0.0048,2.98,-0.68,0.89,0,3.658,-6.518,3.376,0.758,0.009,-0.015,1.007,0.000,0.000,0.000,0.3090,0,0,2.32,-0.18,3.59,-0.0661,0.1007,0.3110,0.0077,-0.0827,0.3000,0.2623,-1.54,1.13,-26.64,2.6950,0.0000,1.0600,1.6030,2.3980,647,0.0025,-0.0115,0.0000,-0.0210,-0.0160,0
18082,0.0480,-0.1164,0.3093,-0.0376,-0.0296,0.0081,2.81,-0.72,0.92,0,3.669,-16.853,0.633,2.072,0.002,-0.016,1.003,0.000,0.000,0.000,0.3070,-2,-1,1.99,-0.35,3.63,-0.0672,0.0988,0.3111,0.0077,-0.0827,0.3000,0.2619,-4.02,1.18,-27.68,0.0000,0.0000,1.0630,1.6060,2.3990,647,0.0025,-0.0115,0.0000,-0.0210,-0.0160,0
18133,0.0465,-0.1202,0.3086,-0.0304,-0.0567,0.0041,2.03,-0.69,1.03,0,3.658,-18.982,-1.577,1.274,0.006,-0.015,1.007,0.000,0.000,0.000,0.3090,2,-1,1.00,-0.46,3.18,-0.0603,0.1213,0.3113,0.0077,-0.0827,0.3000,0.2625,-5.56,1.42,-30.77,0.0000,0.0000,1.0630,1.6060,2.3990,647,0.0025,-0.0115,0.0000,-0.0210,-0.0160,0
18185,0.0460,-0.1254,0.3090,-0.0220,-0.0773,0.0078,1.05,-0.70,1.12,0,3.669,-13.859,-2.153,2.398,0.003,-0.012,1.008,0.000,0.000,0.000,0.3110,2,-1,0.04,-0.38,3.24,-0.0585,0.1193,0.3115,0.0077,-0.0827,0.3000,0.2620,-6.89,1.78,-33.50,0.0000,0.9260,1.0830,1.6390,2.3940,647,0.0025,-0.0115,0.0000,-0.0210,-0.0160,0
18237,0.0454,-0.1328,0.3103,-0.0150,-0.0931,0.0154,0.33,-0.68,1.25,0,3.658,-9.373,-2.973,2.913,0.004,-0.012,1.007,0.000,0.000,0.000,0.3090,2,0,-0.66,-0.28,3.37,-0.0562,0.1163,0.3124,0.0077,-0.0827,0.3000,0.2609,-8.17,2.08,-37.46,0.0000,0.9260,1.0830,1.6390,2.3940,647,0.0025,-0.0115,0.0000,-0.0210,-0.0160,0
18289,0.0461,-0.1376,0.3103,-0.0061,-0.0951,0.0158,-0.37,-0.61,1.39,0,3.669,-8.612,-5.160,2.926,0.005,-0.010,1.004,0.000,0.000,0.000,0.3100,1,-1,-1.12,-0.12,3.59,-0.0552,0.1122,0.3126,0.0077,-0.0827,0.3000,0.2609,-8.60,2.55,-41.85,2.7050,0.9490,1.0970,1.6540,2.3970,647,0.0025,-0.0115,0.0000,-0.0210,-0.0160,0
18340,0.0462,-0.1431,0.3109,-0.0008,-0.0937,0.0162,-0.79,-0.36,1.56,0,3.658,-5.758,-1.980,2.196,0.004,-0.011,1.000,0.000,0.000,0.000,0.3120,4,-1,-1.56,0.14,3.74,-0.0526,0.1100,0.3129,0.0077,-0.0827,0.3000,0.2607,-8.93,2.81,-46.71,2.7050,0.9490,1.0970,1.6540,2.3970,647,0.0025,-0.0115,0.0000,-0.0210,-0.0160,0
18391,0.0463,-0.1469,0.3120,0.0019,-0.0841,0.0184,-1.15,-0.26,1.68,0,3.669,-8.698,2.983,2.585,0.008,-0.010,1.000,0.000,0.000,0.000,0.3130,1,0,-1.80,0.23,3.94,-0.0495,0.1015,0.3137,0.0077,-0.0827,0.3000,0.2603,-8.76,2.95,-50.28,0.0000,0.9360,1.1130,1.6580,2.3970,647,0.0025,-0.0115,0.0000,-0.0210,-0.0160,0
18442,0.0469,-0.1524,0.3132,0.0049,-0.0774,0.0200,-1.55,-0.36,1.78,0,3.658,-6.609,-0.200,2.251,0.006,-0.016,0.998,0.000,0.000,0.000,0.3110,1,0,-2.24,0.08,4.09,-0.0486,0.0985,0.3145,0.0077,-0.0827,0.3000,0.2599,-8.85,3.14,-53.30,0.0000,0.9360,1.1130,1.6580,2.3970,647,0.0025,-0.0115,0.0000,-0.0210,-0.0160,0
18493,0.0476,-0.1559,0.3129,0.0087,-0.0633,0.0126,-1.90,-0.44,1.87,0,3.669,-0.742,-1.933,1.549,0.003,-0.018,1.000,0.000,0.000,0.000,0.3130,0,0,-2.58,0.10,4.21,-0.0480,0.0957,0.3143,0.0077,-0.0827,0.3000,0.2607,-8.41,3.36,-56.11,0.0000,0.9670,1.1140,1.6780,2.3950,647,0.0025,-0.0115,0.0000,-0.0210,-0.0160,0
18545,0.0476,-0.1588,0.3134,0.0104,-0.0472,0.0110,-1.96,-0.36,1.95,0,3.663,2.344,-2.000,1.690,0.003,-0.014,1.001,0.000,0.000,0.000,0.3120,0,0,-2.61,0.19,4.30,-0.0462,0.0943,0.3146,0.0077,-0.0827,0.3000,0.2608,-7.86,3.44,-58.64,0.0000,0.9670,1.1140,1.6780,2.3950,647,0.0025,-0.0115,0.0000,-0.0210,-0.0160,0
18596,0.0486,-0.1604,0.3131,0.0138,-0.0292,0.0074,-1.88,-0.28,2.04,0,3.669,7.419,-2.250,1.387,0.003,-0.014,0.999,0.000,0.000,0.000,0.3120,-1,-2,-2.49,0.29,4.39,-0.0445,0.0937,0.3145,0.0077,-0.0827,0.3000,0.2613,-7.12,3.67,-61.35,2.7300,0.9570,1.1180,1.6780,2.3950,647,0.0025,-0.0115,0.0000,-0.0210,-0.0160,0
18648,0.0495,-0.1602,0.3129,0.0161,-0.0103,0.0037,-1.63,-0.25,2.13,0,3.658,4.722,-0.705,0.976,0.007,-0.019,1.001,0.000,0.000,0.000,0.3150,0,0,-2.14,0.40,4.45,-0.0414,0.0980,0.3142,0.0077,-0.0827,0.3000,0.2617,-6.22,3.84,-63.76,2.7300,0.9570,1.1180,1.6780,2.3950,647,0.0025,-0.0115,0.0000,-0.0210,-0.0160,0
18700,0.0513,-0.1588,0.3140,0.0198,0.0074,0.0081,-1.41,-0.21,2.23,0,3.663,3.359,-2.021,3.303,0.006,-0.018,1.002,0.000,0.000,0.000,0.3120,-1,0,-1.89,0.43,4.50,-0.0395,0.0994,0.3149,0.0077,-0.0827,0.3000,0.2610,-5.30,4.14,-66.92,2.7310,0.9760,1.1150,1.6870,2.3960,647,0.0025,-0.0115,0.0000,-0.0210,-0.0160,0
18751,0.0507,-0.1566,0.3134,0.0168,0.0231,0.0034,-1.17,-0.03,2.37,0,3.658,11.838,-3.976,1.949,0.004,-0.015,1.002,0.000,0.000,0.000,0.3150,0,-1,-1.72,0.56,4.63,-0.0410,0.1010,0.3146,0.0077,-0.0827,0.3000,0.2616,-4.40,3.95,-71.17,2.7310,0.9760,1.1150,1.6870,2.3960,647,0.0025,-0.0115,0.0000,-0.0210,-0.0160,0
18802,0.0504,-0.1536,0.3143,0.0135,0.0364,0.0084,-0.67,0.15,2.49,0,3.663,13.411,1.665,2.775,0.007,-0.023,0.997,0.000,0.000,0.000,0.3140,-1,-1,-1.11,0.75,4.76,-0.0391,0.1021,0.3153,0.0077,-0.0827,0.3000,0.2609,-3.57,3.79,-74.81,0.0000,0.9530,1.1040,1.6780,2.3960,17,0.0025,-0.0115,0.0000,-0.0210,-0.0160,0
18853,0.0506,-0.1507,0.3145,0.0106,0.0434,0.0065,0.12,0.20,2.61,0,3.658,13.971,-0.575,2.654,0.005,-0.019,1.000,0.000,0.000,0.000,0.3110,0,0,-0.43,0.65,4.91,-0.0371,0.1047,0.3153,0.0077,-0.0827,0.3000,0.2611,-3.03,3.66,-78.33,0.0000,0.9530,1.1040,1.6780,2.3960,17,0.0025,-0.0115,0.0000,-0.0210,-0.0160,0
18905,0.0499,-0.1475,0.3131,0.0064,0.0441,-0.0020,0.71,0.16,2.76,0,3.663,7.331,0.037,3.553,0.003,-0.022,1.003,0.000,0.000,0.000,0.3100,-1,0,0.28,0.68,5.04,-0.0360,0.1063,0.3143,0.0077,-0.0827,0.3000,0.2623,-2.76,3.40,-82.66,2.7430,0.9580,1.0950,1.6730,2.3960,17,0.0025,-0.0115,0.0000,-0.0210,-0.0160,0
18956,0.0509,-0.1425,0.3116,0.0073,0.0443,-0.0070,1.00,0.07,2.94,0,3.653,10.367,-2.695,3.115,0.005,-0.019,1.003,0.000,0.000,0.000,0.3090,-1,0,0.65,0.70,5.22,-0.0373,0.1084,0.3132,0.0077,-0.0827,0.3000,0.2631,-2.39,3.50,-88.11,2.7430,0.9580,1.0950,1.6730,2.3960,17,0.0025,-0.0115,0.0000,-0.0210,-0.0160,0
19007,0.0497,-0.1390,0.3102,0.0035,0.0394,-0.0102,1.37,0.14,3.12,0,3.658,8.646,-1.473,2.590,0.006,-0.016,1.007,0.000,0.000,0.000,0.3100,0,1,1.16,0.84,5.38,-0.0373,0.1104,0.3121,0.0077,-0.0827,0.3000,0.2637,-2.37,3.24,-93.45,2.7370,0.9640,1.0900,1.6690,2.3950,17,0.0025,-0.0115,0.0000,-0.0210,-0.0160,0
19059,0.0498,-0.1371,0.3098,0.0026,0.0276,-0.0061,1.80,0.20,3.28,0,3.653,5.512,2.791,3.477,0.006,-0.021,1.006,0.000,0.000,0.000,0.3090,-1,0,1.60,0.93,5.54,-0.0393,0.1099,0.3115,0.0077,-0.0827,0.3000,0.2633,-2.79,3.21,-98.54,2.7370,0.9640,1.0900,1.6690,2.3950,17,0.0025,-0.0115,0.0000,-0.0210,-0.0160,0
19110,0.0497,-0.1361,0.3093,0.0016,0.0116,-0.0028,2.01,0.06,3.45,0,3.663,-0.681,3.349,3.469,0.007,-0.014,1.012,0.000,0.000,0.000,0.3100,1,2,1.86,0.79,5.72,-0.0397,0.1117,0.3111,0.0077,-0.0827,0.3000,0.2631,-3.47,3.16,-103.58,2.7540,0.9670,1.0810,1.6670,2.3950,17,0.0025,-0.0115,0.0000,-0.0210,-0.0160,0
19161,0.0494,-0.1354,0.3096,0.0014,-0.0044,0.0035,2.01,-0.13,3.64,0,3.653,-2.908,0.924,4.009,0.005,-0.019,1.003,0.000,0.000,0.000,0.3130,0,0,1.83,0.66,6.00,-0.0443,0.1079,0.3110,0.0077,-0.0827,0.3000,0.2623,-4.19,3.13,-109.08,2.7540,0.9670,1.0810,1.6670,2.3950,17,0.0025,-0.0115,0.0000,-0.0210,-0.0160,0
19212,0.0478,-0.1388,0.3114,-0.0001,-0.0282,0.0145,1.93,-0.17,3.83,0,3.663,-6.492,0.192,4.005,0.001,-0.016,1.007,0.000,0.000,0.000,0.3110,3,0,1.68,0.62,6.21,-0.0457,0.1043,0.3120,0.0077,-0.0827,0.3000,0.2608,-5.58,2.97,-115.02,2.7380,0.9660,1.0900,1.6790,2.4000,17,0.0025,-0.0115,0.0000,-0.0210,-0.0160,0
19263,0.0473,-0.1415,0.3119,0.0009,-0.0462,0.0159,1.64,-0.21,4.03,0,3.658,-13.547,3.983,3.449,0.007,-0.011,1.009,0.000,0.000,0.000,0.3130,4,-1,1.35,0.57,6.27,-0.0421,0.1006,0.3124,0.0077,-0.0827,0.3000,0.2606,-6.62,2.98,-120.80,2.7380,0.9660,1.0900,1.6790,2.4000,17,0.0025,-0.0115,0.0000,-0.0210,-0.0160,0
19314,0.0468,-0.1446,0.3131,0.0023,-0.0600,0.0213,1.07,-0.41,4.18,0,3.663,-5.335,-1.470,2.078,0.005,-0.011,1.002,0.000,0.000,0.000,0.3130,0,1,0.68,0.35,6.36,-0.0392,0.0912,0.3131,0.0077,-0.0827,0.3000,0.2598,-7.51,3.02,-125.48,2.7450,0.9770,1.1030,1.6900,2.3940,17,0.0025,-0.0115,0.0000,-0.0210,-0.0160,0
19365,0.0483,-0.1538,0.3139,0.0096,-0.0824,0.0212,0.70,-0.48,4.33,0,3.658,-10.558,-5.596,0.986,0.006,-0.011,0.999,0.000,0.000,0.000,0.3130,4,0,0.38,0.44,6.52,-0.0415,0.0886,0.3143,0.0077,-0.0827,0.3000,0.2596,-9.20,3.47,-130.01,2.7450,0.9770,1.1030,1.6900,2.3940,17,0.0025,-0.0115,0.0000,-0.0210,-0.0160,0
19416,0.0478,-0.1590,0.3142,0.0116,-0.0900,0.0176,0.17,-0.40,4.45,0,3.663,-11.109,1.447,0.451,0.005,-0.013,0.999,0.000,0.000,0.000,0.3130,6,0,-0.13,0.72,6.55,-0.0404,0.0777,0.3145,0.0077,-0.0827,0.3000,0.2599,-9.90,3.54,-133.54,2.7460,0.9720,1.1120,1.7050,2.3870,17,0.0025,-0.0115,0.0000,-0.0210,-0.0160,0
19468,0.0473,-0.1620,0.3142,0.0117,-0.0889,0.0134,-0.43,-0.42,4.51,0,3.658,-8.722,3.472,-0.275,0.005,-0.015,0.998,0.000,0.000,0.000,0.3160,1,0,-0.64,0.64,6.54,-0.0387,0.0613,0.3143,0.0077,-0.0827,0.3000,0.2604,-10.05,3.49,-135.17,2.7460,0.9720,1.1120,1.7050,2.3870,17,0.0025,-0.0115,0.0000,-0.0210,-0.0160,0
19519,0.0481,-0.1678,0.3155,0.0153,-0.0876,0.0170,-1.10,-0.60,4.51,0,3.663,-5.459,3.599,-0.780,0.005,-0.010,1.000,0.000,0.000,0.000,0.3150,3,1,-1.13,0.46,6.52,-0.0384,0.0573,0.3158,0.0077,-0.0827,0.3000,0.2598,-10.41,3.73,-135.19,2.7310,0.9780,1.1280,1.7120,2.3860,0,0.0025,-0.0115,0.0000,-0.0210,-0.0160,0
19571,0.0494,-0.1718,0.3159,0.0209,-0.0782,0.0142,-1.37,-0.75,4.51,0,3.653,-5.301,1.622,-0.555,0.003,-0.013,0.995,0.000,0.000,0.000,0.3160,0,-1,-1.40,0.28,6.50,-0.0402,0.0474,0.3162,0.0077,-0.0827,0.3000,0.2600,-10.25,4.09,-135.26,2.7310,0.9780,1.1280,1.7120,2.3860,0,0.0025,-0.0115,0.0000,-0.0210,-0.0160,0
19623,0.0490,-0.1762,0.3164,0.0225,-0.0676,0.0135,-1.53,-0.73,4.47,0,3.663,-2.829,0.560,-0.451,0.005,-0.013,1.005,0.000,0.000,0.000,0.3160,1,0,-1.72,0.18,6.43,-0.0374,0.0471,0.3171,0.0077,-0.0827,0.3000,0.2600,-10.06,4.14,-134.20,2.7470,0.9740,1.1330,1.7040,2.3970,0,0.0025,-0.0115,0.0000,-0.0210,-0.0160,0
19674,0.0504,-0.1802,0.3167,0.0276,-0.0569,0.0108,-1.65,-0.68,4.41,0,3.658,0.353,-2.308,-1.148,0.005,-0.012,0.998,0.000,0.000,0.000,0.3170,0,0,-1.89,0.14,6.40,-0.0370,0.0439,0.3175,0.0077,-0.0827,0.3000,0.2602,-9.84,4.47,-132.29,2.7470,0.9740,1.1330,1.7040,2.3970,0,0.0025,-0.0115,0.0000,-0.0210,-0.0160,0
19725,0.0511,-0.1844,0.3172,0.0304,-0.0465,0.0106,-1.66,-0.67,4.36,0,3.663,0.269,-3.902,-1.762,0.005,-0.018,0.997,0.000,0.000,0.000,0.3160,0,0,-1.87,0.26,6.34,-0.0368,0.0388,0.3180,0.0077,-0.0827,0.3000,0.2601,-9.66,4.66,-130.66,2.7360,0.9790,1.1290,1.7100,2.3930,0,0.0025,-0.0115,0.0000,-0.0210,-0.0160,0
19776,0.0529,-0.1860,0.3170,0.0354,-0.0310,0.0053,-1.63,-0.59,4.27,0,3.653,0.834,-5.310,-1.592,0.004,-0.014,1.004,0.000,0.000,0.000,0.3180,-2,0,-1.85,0.47,6.26,-0.0366,0.0340,0.3179,0.0077,-0.0827,0.3000,0.2607,-9.03,5.01,-128.06,2.7360,0.9790,1.1290,1.7100,2.3930,0,0.0025,-0.0115,0.0000,-0.0210,-0.0160,0
19828,0.0559,-0.1859,0.3176,0.0422,-0.0132,0.0067,-1.61,-0.41,4.19,0,3.663,9.551,-3.331,-2.755,0.004,-0.017,0.995,0.000,0.000,0.000,0.3190,0,1,-1.96,0.73,6.14,-0.0378,0.0569,0.3188,0.0077,-0.0827,0.3000,0.2605,-8.21,5.55,-125.66,2.7360,0.9710,1.1360,1.7030,2.3910,0,0.0025,-0.0115,0.0000,-0.0210,-0.0160,0
19880,0.0574,-0.1844,0.3185,0.0434,0.0048,0.0085,-1.19,-0.17,4.07,0,3.658,8.393,-5.448,-1.967,0.001,-0.016,0.996,0.000,0.000,0.000,0.3140,0,0,-1.46,0.92,6.00,-0.0396,0.0572,0.3193,0.0077,-0.0827,0.3000,0.2601,-7.27,5.72,-122.10,2.7360,0.9710,1.1360,1.7030,2.3910,0,0.0025,-0.0115,0.0000,-0.0210,-0.0160,0
19932,0.0572,-0.1840,0.3167,0.0387,0.0149,-0.0046,-0.78,0.05,3.97,0,3.663,5.015,-0.771,-2.516,-0.000,-0.016,0.998,0.000,0.000,0.000,0.3180,0,0,-1.02,1.20,5.90,-0.0407,0.0580,0.3180,0.0077,-0.0827,0.3000,0.2619,-6.73,5.45,-119.00,2.7410,0.9710,1.1310,1.6900,2.3890,0,0.0025,-0.0115,0.0000,-0.0210,-0.0160,0
19983,0.0613,-0.1822,0.3171,0.0429,0.0235,-0.0033,-0.59,0.09,3.84,0,3.653,6.737,-1.175,-1.708,0.004,-0.020,1.001,0.000,0.000,0.000,0.3160,-3,-2,-0.76,1.25,5.77,-0.0424,0.0589,0.3180,0.0077,-0.0827,0.3000,0.2616,-6.21,5.93,-115.23,2.7410,0.9710,1.1310,1.6900,2.3890,0,0.0025,-0.0115,0.0000,-0.0210,-0.0160,0
20034,0.0637,-0.1781,0.3164,0.0423,0.0347,-0.0058,-0.31,0.16,3.76,0,3.658,8.232,-3.234,-1.292,0.002,-0.023,0.992,0.000,0.000,0.000,0.3120,-2,0,-0.47,1.22,5.80,-0.0318,0.0678,0.3178,0.0077,-0.0827,0.3000,0.2620,-5.39,6.07,-112.78,2.7410,0.9790,1.1280,1.6810,2.3970,0,0.0025,-0.0115,0.0000,-0.0210,-0.0160,0
20085,0.0651,-0.1759,0.3142,0.0389,0.0380,-0.0162,0.09,0.34,3.69,0,3.653,8.931,-2.229,-0.614,0.004,-0.020,1.001,0.000,0.000,0.000,0.3150,-1,-1,-0.06,1.38,5.74,-0.0320,0.0715,0.3157,0.0077,-0.0827,0.3000,0.2636,-5.05,5.97,-110.76,2.7410,0.9790,1.1280,1.6810,2.3970,0,0.0025,-0.0115,0.0000,-0.0210,-0.0160,0
20136,0.0671,-0.1695,0.3139,0.0365,0.0473,-0.0135,0.57,0.48,3.65,0,3.658,11.165,0.449,0.048,0.006,-0.018,1.005,0.000,0.000,0.000,0.3090,0,2,0.39,1.48,5.71,-0.0309,0.0741,0.3151,0.0077,-0.0827,0.3000,0.2633,-4.17,6.01,-109.50,0.0000,0.9720,1.1290,1.6650,2.3980,0,0.0025,-0.0115,0.0000,-0.0210,-0.0160,0
20187,0.0692,-0.1694,0.3112,0.0338,0.0374,-0.0223,1.18,0.52,3.59,0,3.648,1.920,3.319,0.357,0.006,-0.020,1.004,0.000,0.000,0.000,0.3140,0,0,0.97,1.48,5.73,-0.0345,0.0742,0.3128,0.0077,-0.0827,0.3000,0.2648,-4.60,6.00,-107.65,0.0000,0.9720,1.1290,1.6650,2.3980,0,0.0025,-0.0115,0.0000,-0.0210,-0.0160,0
20238,0.0682,-0.1664,0.3117,0.0246,0.0303,-0.0130,1.48,0.48,3.60,0,3.658,-0.611,1.806,1.271,0.005,-0.020,1.008,0.000,0.000,0.000,0.3080,-1,0,1.06,1.32,5.75,-0.0363,0.0743,0.3127,0.0077,-0.0827,0.3000,0.2637,-4.75,5.53,-107.97,2.7600,0.9670,1.1170,1.6650,2.3940,2,0.0025,-0.0115,0.0000,-0.0210,-0.0160,0
20290,0.0678,-0.1656,0.3096,0.0177,0.0163,-0.0173,1.57,0.40,3.65,0,3.648,5.916,0.649,0.446,0.003,-0.015,1.008,0.000,0.000,0.000,0.3090,2,0,0.99,1.19,5.81,-0.0343,0.0786,0.3112,0.0077,-0.0827,0.3000,0.2646,-5.33,5.16,-109.39,2.7600,0.9670,1.1170,1.6650,2.3940,2,0.0025,-0.0115,0.0000,-0.0210,-0.0160,0
20341,0.0664,-0.1648,0.3088,0.0101,0.0034,-0.0139,1.69,0.31,3.67,0,3.658,-2.208,4.560,1.415,0.003,-0.014,1.008,0.000,0.000,0.000,0.3100,-1,0,1.33,1.15,5.77,-0.0345,0.0750,0.3102,0.0077,-0.0827,0.3000,0.2644,-5.88,4.72,-110.14,0.0000,0.9790,1.1170,1.6520,2.3940,2,0.0025,-0.0115,0.0000,-0.0210,-0.0160,0
20393,0.0656,-0.1665,0.3089,0.0057,-0.0147,-0.0060,1.68,0.13,3.73,0,3.653,-4.968,4.457,0.772,0.004,-0.016,1.010,0.000,0.000,0.000,0.3090,2,0,1.19,0.91,5.86,-0.0353,0.0760,0.3101,0.0077,-0.0827,0.3000,0.2635,-6.85,4.47,-111.94,0.0000,0.9790,1.1170,1.6520,2.3940,2,0.0025,-0.0115,0.0000,-0.0210,-0.0160,0
20444,0.0664,-0.1672,0.3089,0.0065,-0.0285,-0.0004,1.45,-0.12,3.82,0,3.658,-3.445,3.312,1.673,0.003,-0.015,1.004,0.000,0.000,0.000,0.3070,1,1,0.95,0.67,5.85,-0.0353,0.0712,0.3098,0.0077,-0.0827,0.3000,0.2629,-7.56,4.57,-114.69,2.7250,0.9710,1.1180,1.6590,2.3980,2,0.0025,-0.0115,0.0000,-0.0210,-0.0160,0
20495,0.0651,-0.1709,0.3080,0.0049,-0.0452,-0.0018,1.27,-0.25,3.87,0,3.648,-7.186,2.863,2.388,0.003,-0.009,1.007,0.000,0.000,0.000,0.3070,0,1,0.77,0.51,5.97,-0.0377,0.0676,0.3091,0.0077,-0.0827,0.3000,0.2632,-8.58,4.41,-116.22,2.7250,0.9710,1.1180,1.6590,2.3980,2,0.0025,-0.0115,0.0000,-0.0210,-0.0160,0
20546,0.0643,-0.1755,0.3076,0.0053,-0.0606,-0.0012,1.01,-0.30,3.96,0,3.653,-9.308,4.650,2.794,0.004,-0.015,1.004,0.000,0.000,0.000,0.3050,1,1,0.38,0.37,6.13,-0.0405,0.0662,0.3087,0.0077,-0.0827,0.3000,0.2632,-9.60,4.37,-118.75,2.7350,0.9770,1.1310,1.6650,2.4040,2,0.0025,-0.0115,0.0000,-0.0210,-0.0160,0
20597,0.0644,-0.1790,0.3064,0.0080,-0.0693,-0.0043,0.57,-0.47,4.09,0,3.648,-3.750,-0.206,1.714,0.004,-0.015,1.004,0.000,0.000,0.000,0.3100,2,1,-0.10,0.13,6.28,-0.0430,0.0627,0.3078,0.0077,-0.0827,0.3000,0.2638,-10.22,4.49,-122.56,2.7350,0.9770,1.1310,1.6650,2.4040,2,0.0025,-0.0115,0.0000,-0.0210,-0.0160,0
20648,0.0647,-0.1849,0.3079,0.0120,-0.0794,0.0059,0.38,-0.49,4.21,0,3.658,-10.424,-4.717,2.666,0.003,-0.015,1.003,0.000,0.000,0.000,0.3080,10,0,-0.28,0.15,6.38,-0.0454,0.0564,0.3086,0.0077,-0.0827,0.3000,0.2624,-11.14,4.73,-126.31,2.7250,0.9760,1.1420,1.6630,2.3960,2,0.0025,-0.0115,0.0000,-0.0210,-0.0160,0
20699,0.0644,-0.1848,0.3082,0.0142,-0.0723,0.0077,-0.13,-0.28,4.32,0,3.648,-13.600,2.674,2.778,0.004,-0.013,1.000,0.000,0.000,0.000,0.3080,3,1,-0.67,0.37,6.47,-0.0425,0.0288,0.3081,0.0077,-0.0827,0.3000,0.2621,-10.81,4.81,-129.54,2.7250,0.9760,1.1420,1.6630,2.3960,2,0.0025,-0.0115,0.0000,-0.0210,-0.0160,0
20750,0.0642,-0.1928,0.3084,0.0143,-0.0800,0.0077,-0.80,-0.29,4.41,0,3.653,-10.521,7.335,1.520,0.002,-0.017,1.005,0.000,0.000,0.000,0.3090,6,1,-1.36,0.24,6.62,-0.0444,0.0192,0.3082,0.0077,-0.0827,0.3000,0.2621,-11.71,4.81,-132.39,0.0000,0.9680,1.1510,1.6800,2.3950,2,0.0025,-0.0115,0.0000,-0.0210,-0.0160,0
20801,0.0644,-0.1976,0.3090,0.0152,-0.0756,0.0098,-1.20,-0.61,4.54,0,3.648,-9.219,0.707,3.504,0.005,-0.012,1.005,0.000,0.000,0.000,0.3070,2,0,-1.84,-0.14,6.70,-0.0453,0.0011,0.3083,0.0077,-0.0827,0.3000,0.2617,-11.86,4.87,-136.33,0.0000,0.9680,1.1510,1.6800,2.3950,2,0.0025,-0.0115,0.0000,-0.0210,-0.0160,0
20852,0.0633,-0.2044,0.3085,0.0153,-0.0717,0.0063,-1.64,-0.76,4.75,0,3.653,-9.808,-0.634,4.640,0.002,-0.010,1.008,0.000,0.000,0.000,0.3070,1,0,-2.34,-0.19,6.86,-0.0447,-0.0051,0.3086,0.0077,-0.0827,0.3000,0.2622,-12.12,4.79,-142.39,0.0000,0.9640,1.1580,1.6930,2.4030,2,0.0025,-0.0115,0.0000,-0.0210,-0.0160,0
