time_ms,pos_x,pos_y,pos_z,vel_x,vel_y,vel_z,roll,pitch,yaw,thrust,vbat,gyro_x,gyro_y,gyro_z,acc_x,acc_y,acc_z,rate_roll,rate_pitch,rate_yaw,range_z,flow_dx,flow_dy,mekf_roll,mekf_pitch,mekf_yaw,mekf_x,mekf_y,mekf_z,our_ref_x,our_ref_y,our_ref_z,our_thrust,our_roll_cmd,our_pitch_cmd,our_yaw_rate_cmd,multi_front,multi_back,multi_left,multi_right,multi_up,ai_feat_count,vo_x,vo_y,vo_sigma,pg_x,pg_y,lc_count
0,8.3633,19.2973,0.0098,0.0183,-0.1168,-0.0024,0.49,-0.31,-0.71,0,4.138,-0.015,-0.049,-0.010,-0.001,-0.009,1.000,0.000,0.000,0.000,0.0100,14,3,0.00,0.00,0.00,0.0000,0.0000,0.0000,0.0000,0.0000,0.0000,0.0000,0.00,0.00,0.00,1.5800,0.2350,0.9040,1.2250,2.6990,0,0.0000,0.0000,0.0000,0.0000,0.0000,0
102,8.3614,19.3028,0.0111,0.0046,-0.0631,0.0050,0.17,-0.15,-0.70,0,4.144,0.007,0.033,0.135,-0.003,-0.005,0.998,0.000,0.000,0.000,0.0080,-3,-2,0.00,0.00,0.00,0.0000,0.0000,0.0000,0.0000,0.0000,0.0000,0.0000,0.00,0.00,0.00,1.5810,0.0000,0.9040,1.2250,2.7000,0,0.0000,0.0000,0.0000,0.0000,0.0000,0
203,8.3610,19.2991,0.0100,0.0014,-0.0686,-0.0031,0.03,-0.17,-0.71,0,4.138,0.290,-0.082,-0.120,-0.005,-0.009,1.001,0.000,0.000,0.000,0.0070,1,9,0.00,0.00,0.00,0.0000,0.0000,0.0000,0.0000,0.0000,0.0000,0.0000,0.00,0.00,0.00,1.5810,0.0000,0.9030,1.2250,2.7000,0,0.0000,0.0000,0.0000,0.0000,0.0000,0
304,8.3611,19.2959,0.0086,0.0016,-0.0741,-0.0101,0.09,-0.08,-0.69,0,4.144,0.059,-0.059,-0.043,-0.001,-0.006,0.999,0.000,0.000,0.000,0.0100,0,4,0.00,0.00,0.00,0.0000,0.0000,0.0000,0.0000,0.0000,0.0000,0.0000,0.00,0.00,0.00,1.5760,0.2390,0.9030,1.2250,2.7010,0,0.0000,0.0000,0.0000,0.0000,0.0000,0
406,8.3586,19.2982,0.0091,-0.0131,-0.0502,-0.0048,-0.13,-0.01,-0.68,0,4.138,0.114,-0.104,0.019,-0.003,-0.009,0.998,0.000,0.000,0.000,0.0110,-2,-4,0.00,0.00,0.00,0.0000,0.0000,0.0000,0.0000,0.0000,0.0000,0.0000,0.00,0.00,0.00,1.5760,0.2390,0.9050,1.2280,2.7010,0,0.0000,0.0000,0.0000,0.0000,0.0000,0
506,8.3585,19.2976,0.0099,-0.0108,-0.0431,-0.0005,-0.22,-0.11,-0.69,0,4.144,-0.155,0.162,0.113,-0.003,-0.006,1.001,0.000,0.000,0.000,0.0110,-3,4,0.00,0.00,0.00,0.0000,0.0000,0.0000,0.0000,0.0000,0.0000,0.0000,0.00,0.00,0.00,1.5990,0.2370,0.9050,1.2280,2.6990,0,0.0000,0.0000,0.0000,0.0000,0.0000,0
607,8.3592,19.2979,0.0105,-0.0038,-0.0311,0.0022,-0.34,-0.08,-0.68,0,4.133,-0.117,-0.078,0.140,-0.003,-0.007,0.999,0.000,0.000,0.000,0.0090,1,7,0.00,0.00,0.00,0.0000,0.0000,0.0000,0.0000,0.0000,0.0000,0.0000,0.00,0.00,0.00,1.5990,0.2370,0.9020,1.2240,2.6990,0,0.0000,0.0000,0.0000,0.0000,0.0000,0
708,8.3590,19.2977,0.0099,-0.0037,-0.0255,-0.0009,-0.34,-0.06,-0.67,0,4.144,-0.043,-0.170,-0.080,-0.001,-0.010,1.000,0.000,0.000,0.000,0.0120,2,-3,0.00,0.00,0.00,0.0000,0.0000,0.0000,0.0000,0.0000,0.0000,0.0000,0.00,0.00,0.00,1.5840,0.0000,0.9020,1.2240,2.6990,0,0.0000,0.0000,0.0000,0.0000,0.0000,0
809,8.3586,19.2977,0.0108,-0.0047,-0.0201,0.0036,-0.38,-0.15,-0.67,0,4.138,-0.084,-0.026,0.114,-0.004,-0.008,1.001,0.000,0.000,0.000,0.0060,15,-3,0.00,0.00,0.00,0.0000,0.0000,0.0000,0.0000,0.0000,0.0000,0.0000,0.00,0.00,0.00,1.5840,0.0000,0.9010,1.2300,2.6990,0,0.0000,0.0000,0.0000,0.0000,0.0000,0
911,8.3579,19.2944,0.0088,-0.0074,-0.0322,-0.0085,-0.16,-0.12,-0.68,0,4.144,0.347,-0.130,0.146,-0.002,-0.008,0.996,0.000,0.000,0.000,0.0080,31,-3,0.00,0.00,0.00,0.0000,0.0000,0.0000,0.0000,0.0000,0.0000,0.0000,0.00,0.00,0.00,1.5620,0.0000,0.9010,1.2300,2.6950,0,0.0000,0.0000,0.0000,0.0000,0.0000,0
1013,8.3582,19.2868,0.0080,-0.0037,-0.0627,-0.0123,0.20,-0.16,-0.68,0,4.138,-0.085,0.019,-0.051,-0.002,-0.009,1.000,0.000,0.000,0.000,0.0090,-20,14,0.00,0.00,0.00,0.0000,0.0000,0.0000,0.0000,0.0000,0.0000,0.0000,0.00,0.00,0.00,1.5620,0.0000,0.9040,1.2330,2.6950,0,0.0000,0.0000,0.0000,0.0000,0.0000,0
1114,8.3588,19.2865,0.0085,-0.0004,-0.0466,-0.0054,-0.42,-0.03,-0.66,0,4.144,0.267,0.038,0.190,-0.000,-0.007,0.995,0.000,0.000,0.000,0.0110,2,3,0.00,0.00,0.00,0.0000,0.0000,0.0000,0.0000,0.0000,0.0000,0.0000,0.00,0.00,0.00,1.5880,0.2290,0.9040,1.2330,2.6980,0,0.0000,0.0000,0.0000,0.0000,0.0000,0
1215,8.3567,19.3041,0.0093,-0.0136,0.0508,-0.0007,-0.95,-0.04,-0.63,0,4.138,0.026,0.282,0.118,-0.004,-0.008,0.996,0.000,0.000,0.000,0.0080,-4,3,0.00,0.00,0.00,0.0000,0.0000,0.0000,0.0000,0.0000,0.0000,0.0000,0.00,0.00,0.00,1.5880,0.2290,0.9030,1.2320,2.6980,0,0.0000,0.0000,0.0000,0.0000,0.0000,0
1316,8.3575,19.3074,0.0086,-0.0073,0.0601,-0.0045,-1.04,-0.09,-0.62,0,4.144,-0.053,0.037,0.163,-0.006,-0.009,0.999,0.000,0.000,0.000,0.0100,-1,3,0.00,0.00,0.00,0.0000,0.0000,0.0000,0.0000,0.0000,0.0000,0.0000,0.00,0.00,0.00,1.5870,0.2330,0.9030,1.2320,2.6960,0,0.0000,0.0000,0.0000,0.0000,0.0000,0
1417,8.3576,19.3185,0.0085,-0.0061,0.1042,-0.0054,-1.28,-0.09,-0.62,0,4.138,-0.256,0.166,0.148,-0.002,-0.005,0.999,0.000,0.000,0.000,0.0120,11,-4,0.00,0.00,0.00,0.0000,0.0000,0.0000,0.0000,0.0000,0.0000,0.0000,0.00,0.00,0.00,1.5870,0.2330,0.9060,1.2270,2.6960,0,0.0000,0.0000,0.0000,0.0000,0.0000,0
1518,8.3557,19.3074,0.0111,-0.0103,0.0314,0.0091,-0.55,-0.14,-0.63,0,4.144,0.129,0.314,0.140,-0.005,-0.009,0.999,0.000,0.000,0.000,0.0110,-4,4,0.00,0.00,0.00,0.0000,0.0000,0.0000,0.0000,0.0000,0.0000,0.0000,0.00,0.00,0.00,1.5890,0.2430,0.9060,1.2270,2.7050,0,0.0000,0.0000,0.0000,0.0000,0.0000,0
1570,8.3580,19.3054,0.0114,0.0013,0.0128,0.0082,-0.53,-0.15,-0.62,0,4.138,-0.039,-0.147,-0.096,-0.002,-0.007,1.000,0.000,0.000,0.000,0.0100,10,-2,0.00,0.00,0.00,0.0000,0.0000,0.0000,0.0000,0.0000,0.0000,0.0000,0.00,0.00,0.00,1.5890,0.2430,0.9030,1.2270,2.7050,0,0.0000,0.0000,0.0000,0.0000,0.0000,0
1621,8.3568,19.3142,0.0111,-0.0037,0.0587,0.0035,-0.74,-0.15,-0.61,0,4.144,-0.052,-0.128,-0.386,-0.001,-0.009,0.998,0.000,0.000,0.000,0.0110,-9,2,0.00,0.00,0.00,0.0000,0.0000,0.0000,0.0000,0.0000,0.0000,0.0000,0.00,0.00,0.00,1.5690,0.2360,0.9030,1.2270,2.6990,0,0.0000,0.0000,0.0000,0.0000,0.0000,0
1672,8.3499,19.3137,0.0114,-0.0341,0.0502,0.0032,-0.80,0.10,-0.65,0,4.133,0.052,0.047,-0.131,-0.001,-0.005,1.000,0.000,0.000,0.000,0.0070,0,6,0.00,0.00,0.00,0.0000,0.0000,0.0000,0.0000,0.0000,0.0000,0.0000,0.00,0.00,0.00,1.5690,0.2360,0.9070,1.2300,2.6990,0,0.0000,0.0000,0.0000,0.0000,0.0000,0
1723,8.3493,19.3215,0.0094,-0.0317,0.0795,-0.0087,-0.91,0.11,-0.64,0,4.144,-0.225,0.003,0.114,-0.005,-0.007,0.999,0.000,0.000,0.000,0.0100,3,4,0.00,0.00,0.00,0.0000,0.0000,0.0000,0.0000,0.0000,0.0000,0.0000,0.00,0.00,0.00,1.5870,0.2370,0.9070,1.2300,2.7110,0,0.0000,0.0000,0.0000,0.0000,0.0000,0
1774,8.3438,19.3239,0.0094,-0.0490,0.0790,-0.0067,-0.83,0.19,-0.65,0,4.138,0.260,-0.003,-0.293,-0.004,-0.008,0.998,0.000,0.000,0.000,0.0050,-31,-2,0.00,0.00,0.00,0.0000,0.0000,0.0000,0.0000,0.0000,0.0000,0.0000,0.00,0.00,0.00,1.5870,0.2370,0.9040,1.2370,2.7110,0,0.0000,0.0000,0.0000,0.0000,0.0000,0
1825,8.3429,19.3198,0.0077,-0.0426,0.0430,-0.0131,-0.83,0.07,-0.63,0,4.144,0.188,-0.140,0.119,-0.003,-0.007,0.998,0.000,0.000,0.000,0.0090,-9,4,0.00,0.00,0.00,0.0000,0.0000,0.0000,0.0000,0.0000,0.0000,0.0000,0.00,0.00,0.00,1.5590,0.0000,0.9040,1.2370,2.7000,0,0.0000,0.0000,0.0000,0.0000,0.0000,0
1876,8.3453,19.3336,0.0076,-0.0288,0.0925,-0.0117,-0.98,0.01,-0.61,0,4.138,0.148,-0.127,0.058,-0.003,-0.005,0.999,0.000,0.000,0.000,0.0090,-32,-1,0.00,0.00,0.00,0.0000,0.0000,0.0000,0.0000,0.0000,0.0000,0.0000,0.00,0.00,0.00,1.5590,0.0000,0.9020,1.2300,2.7000,0,0.0000,0.0000,0.0000,0.0000,0.0000,0
1927,8.3378,19.3344,0.0081,-0.0567,0.0876,-0.0077,-1.11,0.16,-0.62,0,4.144,0.317,-0.122,-0.135,-0.002,-0.008,1.002,0.000,0.000,0.000,0.0090,-8,-5,0.00,0.00,0.00,0.0000,0.0000,0.0000,0.0000,0.0000,0.0000,0.0000,0.00,0.00,0.00,1.5640,0.0000,0.9020,1.2300,2.7030,0,0.0000,0.0000,0.0000,0.0000,0.0000,0
1978,8.3367,19.3429,0.0083,-0.0528,0.1056,-0.0045,-0.98,0.07,-0.61,0,4.138,0.229,0.352,-0.049,-0.006,-0.008,1.000,0.000,0.000,0.000,0.0080,0,2,0.00,0.00,0.00,0.0000,0.0000,0.0000,0.0000,0.0000,0.0000,0.0000,0.00,0.00,0.00,1.5640,0.0000,0.9070,1.2330,2.7030,0,0.0000,0.0000,0.0000,0.0000,0.0000,0
2030,8.3381,19.3504,0.0082,-0.0391,0.1163,-0.0042,-0.94,0.02,-0.60,0,4.144,0.007,0.144,0.370,-0.003,-0.008,0.998,0.000,0.000,0.000,0.0100,5,4,0.00,0.00,0.00,0.0000,0.0000,0.0000,0.0000,0.0000,0.0000,0.0000,0.00,0.00,0.00,1.5790,0.2380,0.9070,1.2330,2.6980,0,0.0000,0.0000,0.0000,0.0000,0.0000,0
2081,8.3363,19.3569,0.0089,-0.0391,0.1233,0.0007,-0.89,0.02,-0.59,0,4.138,0.008,0.129,-0.287,-0.005,-0.006,0.997,0.000,0.000,0.000,0.0100,-5,0,0.00,0.00,0.00,0.0000,0.0000,0.0000,0.0000,0.0000,0.0000,0.0000,0.00,0.00,0.00,1.5790,0.2380,0.9070,1.2320,2.6980,0,0.0000,0.0000,0.0000,0.0000,0.0000,0
2132,8.3354,19.3540,0.0102,-0.0327,0.0832,0.0073,-0.64,-0.08,-0.59,0,4.144,0.045,0.093,0.276,-0.004,-0.007,0.999,0.000,0.000,0.000,0.0100,9,1,0.00,0.00,0.00,0.0000,0.0000,0.0000,0.0000,0.0000,0.0000,0.0000,0.00,0.00,0.00,1.5810,0.2300,0.9070,1.2320,2.6970,0,0.0000,0.0000,0.0000,0.0000,0.0000,0
2183,8.3361,19.3574,0.0104,-0.0227,0.0792,0.0066,-0.46,-0.16,-0.58,0,4.138,0.146,-0.187,0.301,-0.002,-0.007,1.001,0.000,0.000,0.000,0.0080,1,1,0.00,0.00,0.00,0.0000,0.0000,0.0000,0.0000,0.0000,0.0000,0.0000,0.00,0.00,0.00,1.5810,0.2300,0.9020,1.2300,2.6970,0,0.0000,0.0000,0.0000,0.0000,0.0000,0
2234,8.3365,19.3584,0.0097,-0.0133,0.0678,0.0011,-0.44,-0.22,-0.58,0,4.144,0.112,0.105,-0.068,-0.004,-0.007,1.000,0.000,0.000,0.000,0.0100,9,2,0.00,0.00,0.00,0.0000,0.0000,0.0000,0.0000,0.0000,0.0000,0.0000,0.00,0.00,0.00,1.5880,0.2340,0.9020,1.2300,2.7030,0,0.0000,0.0000,0.0000,0.0000,0.0000,0
2285,8.3366,19.3550,0.0101,-0.0085,0.0364,0.0031,-0.14,-0.24,-0.57,0,4.138,0.453,0.032,-0.077,-0.002,-0.009,0.999,0.000,0.000,0.000,0.0110,-21,6,0.00,0.00,0.00,0.0000,0.0000,0.0000,0.0000,0.0000,0.0000,0.0000,0.00,0.00,0.00,1.5880,0.2340,0.9040,1.2220,2.7030,0,0.0000,0.0000,0.0000,0.0000,0.0000,0
2336,8.3373,19.3577,0.0106,-0.0008,0.0416,0.0041,-0.46,-0.25,-0.58,0,4.144,0.137,-0.185,-0.402,-0.001,-0.009,0.999,0.000,0.000,0.000,0.0080,7,1,0.00,0.00,0.00,0.0000,0.0000,0.0000,0.0000,0.0000,0.0000,0.0000,0.00,0.00,0.00,1.5800,0.0000,0.9040,1.2220,2.6990,0,0.0000,0.0000,0.0000,0.0000,0.0000,0
2387,8.3363,19.3628,0.0096,-0.0036,0.0545,-0.0032,-0.31,-0.26,-0.56,0,4.138,0.003,-0.033,-0.212,-0.003,-0.009,0.999,0.000,0.000,0.000,0.0080,7,3,0.00,0.00,0.00,0.0000,0.0000,0.0000,0.0000,0.0000,0.0000,0.0000,0.00,0.00,0.00,1.5800,0.0000,0.9060,1.2300,2.6990,0,0.0000,0.0000,0.0000,0.0000,0.0000,0
2439,8.3371,19.3672,0.0087,0.0039,0.0653,-0.0079,-0.40,-0.29,-0.57,0,4.144,0.189,-0.138,0.027,-0.004,-0.007,0.997,0.000,0.000,0.000,0.0090,-4,1,0.00,0.00,0.00,0.0000,0.0000,0.0000,0.0000,0.0000,0.0000,0.0000,0.00,0.00,0.00,1.5700,0.0000,0.9060,1.2300,2.7010,0,0.0000,0.0000,0.0000,0.0000,0.0000,0
2491,8.3404,19.3629,0.0089,0.0197,0.0289,-0.0051,-0.22,-0.42,-0.56,0,4.138,-0.089,-0.167,0.156,-0.002,-0.007,0.999,0.000,0.000,0.000,0.0100,9,1,0.00,0.00,0.00,0.0000,0.0000,0.0000,0.0000,0.0000,0.0000,0.0000,0.00,0.00,0.00,1.5700,0.0000,0.9060,1.2350,2.7010,0,0.0000,0.0000,0.0000,0.0000,0.0000,0
2541,8.3403,19.3643,0.0093,0.0148,0.0256,-0.0025,-0.09,-0.36,-0.54,0,4.144,0.037,-0.069,-0.260,-0.002,-0.006,1.001,0.000,0.000,0.000,0.0070,5,-9,0.00,0.00,0.00,0.0000,0.0000,0.0000,0.0000,0.0000,0.0000,0.0000,0.00,0.00,0.00,1.5750,0.0000,0.9060,1.2350,2.6960,0,0.0000,0.0000,0.0000,0.0000,0.0000,0
2592,8.3395,19.3650,0.0083,0.0056,0.0180,-0.0071,-0.08,-0.37,-0.53,0,4.138,0.280,-0.044,-0.140,-0.003,-0.008,1.000,0.000,0.000,0.000,0.0070,20,-1,0.00,0.00,0.00,0.0000,0.0000,0.0000,0.0000,0.0000,0.0000,0.0000,0.00,0.00,0.00,1.5750,0.0000,0.9050,1.2250,2.6960,0,0.0000,0.0000,0.0000,0.0000,0.0000,0
2643,8.3407,19.3666,0.0076,0.0137,0.0244,-0.0088,-0.02,-0.33,-0.52,0,4.144,0.329,-0.135,-0.039,-0.003,-0.010,0.998,0.000,0.000,0.000,0.0100,32,0,0.00,0.00,0.00,0.0000,0.0000,0.0000,0.0000,0.0000,0.0000,0.0000,0.00,0.00,0.00,1.5610,0.0000,0.9050,1.2250,2.7020,0,0.0000,0.0000,0.0000,0.0000,0.0000,0
2695,8.3424,19.3589,0.0083,0.0144,-0.0320,-0.0035,0.51,-0.31,-0.46,0,4.133,0.104,0.182,-0.080,-0.001,-0.009,0.998,0.000,0.000,0.000,0.0090,10,5,0.00,0.00,0.00,0.0000,0.0000,0.0000,0.0000,0.0000,0.0000,0.0000,0.00,0.00,0.00,1.5610,0.0000,0.9070,1.2290,2.7020,0,0.0000,0.0000,0.0000,0.0000,0.0000,0
2746,8.3439,19.3502,0.0082,0.0158,-0.0779,-0.0037,0.59,-0.27,-0.44,0,4.144,0.326,0.111,0.183,-0.003,-0.007,0.999,0.000,0.000,0.000,0.0100,4,3,0.00,0.00,0.00,0.0000,0.0000,0.0000,0.0000,0.0000,0.0000,0.0000,0.00,0.00,0.00,1.5870,0.0000,0.9070,1.2290,2.7010,0,0.0000,0.0000,0.0000,0.0000,0.0000,0
2797,8.3432,19.3543,0.0097,0.0124,-0.0354,0.0049,0.14,-0.25,-0.48,0,4.138,-0.048,-0.352,0.073,0.001,-0.007,0.999,0.000,0.000,0.000,0.0080,0,2,0.00,0.00,0.00,0.0000,0.0000,0.0000,0.0000,0.0000,0.0000,0.0000,0.00,0.00,0.00,1.5870,0.0000,0.9070,1.2320,2.7010,0,0.0000,0.0000,0.0000,0.0000,0.0000,0
2848,8.3435,19.3516,0.0091,0.0098,-0.0476,-0.0006,0.16,-0.22,-0.47,0,4.144,0.040,-0.119,0.320,-0.004,-0.008,1.003,0.000,0.000,0.000,0.0100,10,4,0.00,0.00,0.00,0.0000,0.0000,0.0000,0.0000,0.0000,0.0000,0.0000,0.00,0.00,0.00,1.5780,0.0000,0.9070,1.2320,2.7020,0,0.0000,0.0000,0.0000,0.0000,0.0000,0
2899,8.3442,19.3482,0.0094,0.0126,-0.0586,0.0011,0.30,-0.22,-0.46,0,4.138,-0.021,-0.129,0.109,-0.000,-0.008,0.999,0.000,0.000,0.000,0.0100,-21,-5,0.00,0.00,0.00,0.0000,0.0000,0.0000,0.0000,0.0000,0.0000,0.0000,0.00,0.00,0.00,1.5780,0.0000,0.9020,1.2300,2.7020,0,0.0000,0.0000,0.0000,0.0000,0.0000,0
2950,8.3446,19.3353,0.0089,0.0062,-0.1236,-0.0031,0.45,-0.25,-0.45,0,4.144,0.098,0.042,0.151,-0.004,-0.008,0.997,0.000,0.000,0.000,0.0090,5,-3,0.00,0.00,0.00,0.0000,0.0000,0.0000,0.0000,0.0000,0.0000,0.0000,0.00,0.00,0.00,1.5600,0.0000,0.9020,1.2300,2.7060,0,0.0000,0.0000,0.0000,0.0000,0.0000,0
3001,8.3445,19.3393,0.0099,0.0066,-0.0765,0.0025,0.28,-0.23,-0.45,0,4.138,-0.037,-0.158,0.070,-0.004,-0.008,0.999,0.000,0.000,0.000,0.0090,-3,1,0.00,0.00,0.00,0.0000,0.0000,0.0000,0.0000,0.0000,0.0000,0.0000,0.00,0.00,0.00,1.5600,0.0000,0.9030,1.2330,2.7060,0,0.0000,0.0000,0.0000,0.0000,0.0000,0
3052,8.3452,19.3387,0.0098,0.0096,-0.0617,0.0008,0.06,-0.21,-0.45,0,4.144,-0.116,-0.115,0.136,-0.005,-0.005,1.000,0.000,0.000,0.000,0.0100,4,0,0.00,0.00,0.00,0.0000,0.0000,0.0000,0.0000,0.0000,0.0000,0.0000,0.00,0.00,0.00,1.5900,0.0000,0.9030,1.2330,2.6980,0,0.0000,0.0000,0.0000,0.0000,0.0000,0
3103,8.3452,19.3395,0.0100,0.0078,-0.0457,0.0019,-0.03,-0.20,-0.45,0,4.138,-0.113,-0.092,-0.034,-0.003,-0.004,0.996,0.000,0.000,0.000,0.0090,-20,-2,0.00,0.00,0.00,0.0000,0.0000,0.0000,0.0000,0.0000,0.0000,0.0000,0.00,0.00,0.00,1.5900,0.0000,0.9060,1.2280,2.6980,0,0.0000,0.0000,0.0000,0.0000,0.0000,0
3155,8.3450,19.3396,0.0098,0.0050,-0.0363,-0.0001,-0.34,-0.18,-0.45,0,4.144,0.180,-0.079,-0.013,-0.003,-0.007,1.001,0.000,0.000,0.000,0.0100,-2,2,0.00,0.00,0.00,0.0000,0.0000,0.0000,0.0000,0.0000,0.0000,0.0000,0.00,0.00,0.00,1.5570,0.2340,0.9060,1.2280,2.7010,0,0.0000,0.0000,0.0000,0.0000,0.0000,0
3206,8.3455,19.3475,0.0099,0.0070,0.0130,0.0007,-0.55,-0.16,-0.44,0,4.138,0.146,-0.003,-0.030,-0.006,-0.008,1.001,0.000,0.000,0.000,0.0110,-15,4,0.00,0.00,0.00,0.0000,0.0000,0.0000,0.0000,0.0000,0.0000,0.0000,0.00,0.00,0.00,1.5570,0.2340,0.9040,1.2380,2.7010,0,0.0000,0.0000,0.0000,0.0000,0.0000,0
3256,8.3444,19.3551,0.0102,-0.0005,0.0480,0.0023,-0.92,-0.08,-0.43,0,4.144,-0.047,-0.426,-0.221,-0.001,-0.007,1.000,0.000,0.000,0.000,0.0090,-16,-4,0.00,0.00,0.00,0.0000,0.0000,0.0000,0.0000,0.0000,0.0000,0.0000,0.00,0.00,0.00,1.5760,0.2380,0.9040,1.2380,2.7030,0,0.0000,0.0000,0.0000,0.0000,0.0000,0
3308,8.3427,19.3529,0.0102,-0.0087,0.0240,0.0014,-0.71,-0.09,-0.44,0,4.133,0.322,0.084,-0.037,-0.001,-0.005,0.998,0.000,0.000,0.000,0.0110,-16,-3,0.00,0.00,0.00,0.0000,0.0000,0.0000,0.0000,0.0000,0.0000,0.0000,0.00,0.00,0.00,1.5760,0.2380,0.9060,1.2260,2.7030,0,0.0000,0.0000,0.0000,0.0000,0.0000,0
3359,8.3448,19.3640,0.0102,0.0015,0.0745,0.0004,-1.06,-0.16,-0.42,0,4.144,0.240,-0.114,0.070,-0.003,-0.008,1.001,0.000,0.000,0.000,0.0080,8,-1,0.00,0.00,0.00,0.0000,0.0000,0.0000,0.0000,0.0000,0.0000,0.0000,0.00,0.00,0.00,1.5620,0.2350,0.9060,1.2260,2.6960,0,0.0000,0.0000,0.0000,0.0000,0.0000,0
3411,8.3455,19.3684,0.0093,0.0042,0.0805,-0.0048,-0.84,-0.15,-0.42,0,4.138,0.034,0.155,-0.206,-0.003,-0.007,0.997,0.000,0.000,0.000,0.0090,2,0,0.00,0.00,0.00,0.0000,0.0000,0.0000,0.0000,0.0000,0.0000,0.0000,0.00,0.00,0.00,1.5620,0.2350,0.9030,1.2280,2.6960,0,0.0000,0.0000,0.0000,0.0000,0.0000,0
3462,8.3411,19.3729,0.0091,-0.0168,0.0951,-0.0060,-0.97,0.02,-0.45,0,4.144,-0.179,0.058,-0.014,-0.003,-0.007,0.998,0.000,0.000,0.000,0.0070,0,-8,0.00,0.00,0.00,0.0000,0.0000,0.0000,0.0000,0.0000,0.0000,0.0000,0.00,0.00,0.00,1.5930,0.2350,0.9030,1.2280,2.6950,0,0.0000,0.0000,0.0000,0.0000,0.0000,0
3513,8.3404,19.3654,0.0088,-0.0153,0.0364,-0.0053,-0.50,-0.08,-0.45,0,4.138,0.140,-0.005,-0.299,-0.003,-0.008,0.999,0.000,0.000,0.000,0.0090,-14,0,0.00,0.00,0.00,0.0000,0.0000,0.0000,0.0000,0.0000,0.0000,0.0000,0.00,0.00,0.00,1.5930,0.2350,0.9040,1.2320,2.6950,0,0.0000,0.0000,0.0000,0.0000,0.0000,0
3564,8.3430,19.3686,0.0089,-0.0018,0.0388,-0.0041,-0.64,-0.12,-0.43,0,4.144,-0.177,-0.033,0.217,-0.003,-0.010,0.998,0.000,0.000,0.000,0.0100,-4,6,0.00,0.00,0.00,0.0000,0.0000,0.0000,0.0000,0.0000,0.0000,0.0000,0.00,0.00,0.00,1.5580,0.2330,0.9040,1.2320,2.7030,0,0.0000,0.0000,0.0000,0.0000,0.0000,0
3615,8.3430,19.3709,0.0093,-0.0011,0.0399,-0.0016,-0.54,-0.07,-0.44,0,4.138,-0.096,0.080,0.278,-0.002,-0.008,0.998,0.000,0.000,0.000,0.0070,13,6,0.00,0.00,0.00,0.0000,0.0000,0.0000,0.0000,0.0000,0.0000,0.0000,0.00,0.00,0.00,1.5580,0.2330,0.9030,1.2290,2.7030,0,0.0000,0.0000,0.0000,0.0000,0.0000,0
3666,8.3369,19.3750,0.0081,-0.0297,0.0580,-0.0088,-0.51,0.14,-0.47,0,4.144,0.134,-0.149,-0.111,-0.004,-0.007,0.996,0.000,0.000,0.000,0.0120,9,1,0.00,0.00,0.00,0.0000,0.0000,0.0000,0.0000,0.0000,0.0000,0.0000,0.00,0.00,0.00,0.0000,0.0000,0.9030,1.2290,2.7000,0,0.0000,0.0000,0.0000,0.0000,0.0000,0
3717,8.3371,19.3777,0.0096,-0.0235,0.0577,-0.0004,-0.52,0.03,-0.45,0,4.133,0.332,-0.121,-0.066,-0.002,-0.007,0.999,0.000,0.000,0.000,0.0090,3,-1,0.00,0.00,0.00,0.0000,0.0000,0.0000,0.0000,0.0000,0.0000,0.0000,0.00,0.00,0.00,0.0000,0.0000,0.9040,1.2240,2.7000,0,0.0000,0.0000,0.0000,0.0000,0.0000,0
3768,8.3362,19.3775,0.0095,-0.0231,0.0457,-0.0016,-0.46,-0.00,-0.45,0,4.144,0.121,0.059,0.012,-0.002,-0.008,0.998,0.000,0.000,0.000,0.0080,9,0,0.00,0.00,0.00,0.0000,0.0000,0.0000,0.0000,0.0000,0.0000,0.0000,0.00,0.00,0.00,1.5690,0.2340,0.9040,1.2240,2.7000,0,0.0000,0.0000,0.0000,0.0000,0.0000,0
3819,8.3364,19.3773,0.0089,-0.0172,0.0340,-0.0046,-0.32,-0.05,-0.45,0,4.138,-0.006,0.068,0.031,-0.000,-0.008,0.998,0.000,0.000,0.000,0.0130,47,-1,0.00,0.00,0.00,0.0000,0.0000,0.0000,0.0000,0.0000,0.0000,0.0000,0.00,0.00,0.00,1.5690,0.2340,0.9040,1.2310,2.7000,0,0.0000,0.0000,0.0000,0.0000,0.0000,0
3870,8.3344,19.3705,0.0106,-0.0202,-0.0078,0.0055,0.34,-0.04,-0.49,0,4.144,0.102,0.274,0.016,-0.002,-0.009,0.998,0.000,0.000,0.000,0.0090,5,1,0.00,0.00,0.00,0.0000,0.0000,0.0000,0.0000,0.0000,0.0000,0.0000,0.00,0.00,0.00,1.5790,0.0000,0.9040,1.2310,2.6940,0,0.0000,0.0000,0.0000,0.0000,0.0000,0
3921,8.3336,19.3598,0.0101,-0.0173,-0.0554,0.0013,0.25,-0.06,-0.48,0,4.138,-0.073,-0.050,0.083,-0.005,-0.009,0.999,0.000,0.000,0.000,0.0070,-6,-4,0.00,0.00,0.00,0.0000,0.0000,0.0000,0.0000,0.0000,0.0000,0.0000,0.00,0.00,0.00,1.5790,0.0000,0.9040,1.2280,2.6940,0,0.0000,0.0000,0.0000,0.0000,0.0000,0
3972,0.0000,0.0001,0.0070,0.0022,0.0206,-0.0001,-0.09,-0.04,0.00,0,4.144,0.152,-0.154,0.094,-0.001,-0.007,0.999,0.000,0.000,0.000,0.0080,5,3,0.00,0.00,0.00,0.0000,0.0000,0.0000,0.0000,0.0000,0.0000,0.0000,0.00,0.00,0.00,1.5590,0.0000,0.9040,1.2280,2.7040,0,0.0000,0.0000,0.0000,0.0000,0.0000,0
4023,-0.0004,0.0024,0.0074,-0.0084,0.0433,-0.0007,-0.06,0.18,-0.00,0,4.138,0.071,-0.090,0.168,-0.001,-0.008,1.000,0.000,0.000,0.000,0.0110,10,5,0.00,0.00,0.00,0.0000,0.0000,0.0000,0.0000,0.0000,0.0000,0.0000,0.00,0.00,0.00,1.5590,0.0000,0.9070,1.2340,2.7040,0,0.0000,0.0000,0.0000,0.0000,0.0000,0
4075,-0.0006,0.0043,0.0089,-0.0054,0.0415,0.0036,0.18,0.14,-0.00,0,4.144,0.157,-0.012,0.184,-0.002,-0.005,0.999,0.000,0.000,0.000,0.0090,3,0,0.00,0.00,0.00,0.0000,0.0000,0.0000,0.0000,0.0000,0.0000,0.0000,0.00,0.00,0.00,1.5580,0.2290,0.9070,1.2340,2.7010,0,0.0000,0.0000,0.0000,0.0000,0.0000,0
4126,-0.0039,0.0043,0.0091,-0.0409,0.0201,0.0028,0.32,0.78,-0.00,0,4.138,0.226,0.002,0.392,-0.005,-0.007,0.998,0.000,0.000,0.000,0.0100,-5,6,0.00,0.00,0.00,0.0000,0.0000,0.0000,0.0000,0.0000,0.0000,0.0000,0.00,0.00,0.00,1.5580,0.2290,0.9070,1.2320,2.7010,0,0.0000,0.0000,0.0000,0.0000,0.0000,0
4177,-0.0031,0.0065,0.0098,-0.0197,0.0255,0.0054,-0.28,0.41,0.00,0,4.144,-0.162,0.107,0.159,-0.004,-0.009,1.000,0.000,0.000,0.000,0.0110,4,1,0.00,0.00,0.00,0.0000,0.0000,0.0000,0.0000,0.0000,0.0000,0.0000,0.00,0.00,0.00,1.5570,0.2340,0.9070,1.2320,2.7050,0,0.0000,0.0000,0.0000,0.0000,0.0000,0
4228,-0.0048,0.0120,0.0105,-0.0279,0.0613,0.0066,-0.62,0.25,0.01,0,4.133,0.227,-0.084,-0.234,-0.001,-0.006,0.999,0.000,0.000,0.000,0.0070,-5,2,0.00,0.00,0.00,0.0000,0.0000,0.0000,0.0000,0.0000,0.0000,0.0000,0.00,0.00,0.00,1.5570,0.2340,0.9080,1.2340,2.7050,0,0.0000,0.0000,0.0000,0.0000,0.0000,0
4279,-0.0036,0.0341,0.0073,-0.0096,0.2202,-0.0248,-3.64,-0.08,0.01,0,4.144,0.248,0.046,0.040,-0.003,-0.008,1.001,0.000,0.000,0.000,0.0130,4,0,0.00,0.00,0.00,0.0000,0.0000,0.0000,0.0000,0.0000,0.0000,0.0000,0.00,0.00,0.00,1.5780,0.0000,0.9080,1.2340,2.7010,0,0.0000,0.0000,0.0000,0.0000,0.0000,0
4330,-0.0060,0.0490,0.0086,-0.0241,0.2777,-0.0181,-3.81,0.08,0.01,0,4.138,0.290,0.055,-0.046,-0.004,-0.008,0.999,0.000,0.000,0.000,0.0120,-4,0,0.00,0.00,0.00,0.0000,0.0000,0.0000,0.0000,0.0000,0.0000,0.0000,0.00,0.00,0.00,1.5780,0.0000,0.9030,1.2310,2.7010,0,0.0000,0.0000,0.0000,0.0000,0.0000,0
4381,-0.0056,0.0497,0.0120,-0.0154,0.2207,0.0081,-2.74,-0.08,0.02,0,4.144,-0.179,0.047,-0.101,-0.003,-0.008,1.000,0.000,0.000,0.000,0.0120,-6,-4,0.00,0.00,0.00,0.0000,0.0000,0.0000,0.0000,0.0000,0.0000,0.0000,0.00,0.00,0.00,1.5750,0.2350,0.9030,1.2310,2.7010,0,0.0000,0.0000,0.0000,0.0000,0.0000,0
4432,-0.0042,0.0614,0.0124,-0.0026,0.2470,0.0049,-2.86,-0.34,0.03,0,4.138,0.078,-0.219,0.031,-0.002,-0.008,0.999,0.000,0.000,0.000,0.0090,0,3,0.00,0.00,0.00,0.0000,0.0000,0.0000,0.0000,0.0000,0.0000,0.0000,0.00,0.00,0.00,1.5750,0.2350,0.9030,1.2300,2.7010,0,0.0000,0.0000,0.0000,0.0000,0.0000,0
4483,-0.0037,0.0695,0.0117,0.0014,0.2413,0.0003,-2.37,-0.22,0.03,0,4.144,0.282,0.107,0.051,-0.005,-0.009,0.997,0.000,0.000,0.000,0.0090,-31,-1,0.00,0.00,0.00,0.0000,0.0000,0.0000,0.0000,0.0000,0.0000,0.0000,0.00,0.00,0.00,1.5760,0.2390,0.9030,1.2300,2.7000,0,0.0000,0.0000,0.0000,0.0000,0.0000,0
4534,-0.0034,0.0630,0.0124,0.0038,0.1522,0.0087,-1.71,-0.31,0.04,0,4.133,-0.038,-0.016,-0.043,-0.003,-0.008,0.999,0.000,0.000,0.000,0.0100,-3,0,0.00,0.00,0.00,0.0000,0.0000,0.0000,0.0000,0.0000,0.0000,0.0000,0.00,0.00,0.00,1.5760,0.2390,0.9070,1.2330,2.7000,0,0.0000,0.0000,0.0000,0.0000,0.0000,0
4585,-0.0025,0.0678,0.0121,0.0087,0.1403,0.0061,-0.97,-0.33,0.06,0,4.144,-0.034,0.030,0.375,-0.002,-0.009,0.999,0.000,0.000,0.000,0.0080,-13,-7,0.00,0.00,0.00,0.0000,0.0000,0.0000,0.0000,0.0000,0.0000,0.0000,0.00,0.00,0.00,1.5880,0.0000,0.9070,1.2330,2.7040,0,0.0000,0.0000,0.0000,0.0000,0.0000,0
4636,-0.0035,0.0647,0.0109,0.0016,0.0906,0.0009,-0.55,-0.34,0.07,0,4.133,0.159,0.011,-0.203,-0.002,-0.006,0.998,0.000,0.000,0.000,0.0090,1,0,0.00,0.00,0.00,0.0000,0.0000,0.0000,0.0000,0.0000,0.0000,0.0000,0.00,0.00,0.00,1.5880,0.0000,0.9080,1.2290,2.7040,0,0.0000,0.0000,0.0000,0.0000,0.0000,0
4687,-0.0019,0.0660,0.0103,0.0103,0.0731,-0.0025,-0.18,-0.31,0.07,0,4.144,-0.108,0.180,0.192,-0.003,-0.006,0.999,0.000,0.000,0.000,0.0110,-6,-6,0.00,0.00,0.00,0.0000,0.0000,0.0000,0.0000,0.0000,0.0000,0.0000,0.00,0.00,0.00,1.5960,0.0000,0.9080,1.2290,2.6970,0,0.0000,0.0000,0.0000,0.0000,0.0000,0
4739,-0.0036,0.0643,0.0105,0.0001,0.0442,0.0003,-0.02,-0.27,0.08,0,4.138,-0.021,-0.079,0.163,-0.004,-0.006,0.999,0.000,0.000,0.000,0.0080,-8,5,0.00,0.00,0.00,0.0000,0.0000,0.0000,0.0000,0.0000,0.0000,0.0000,0.00,0.00,0.00,1.5960,0.0000,0.9060,1.2300,2.6970,0,0.0000,0.0000,0.0000,0.0000,0.0000,0
4790,-0.0007,0.0646,0.0095,0.0157,0.0305,-0.0057,0.05,-0.26,0.08,0,4.144,0.042,0.350,0.178,-0.002,-0.007,1.002,0.000,0.000,0.000,0.0080,0,1,0.00,0.00,0.00,0.0000,0.0000,0.0000,0.0000,0.0000,0.0000,0.0000,0.00,0.00,0.00,1.5940,0.2370,0.9060,1.2300,2.7060,0,0.0000,0.0000,0.0000,0.0000,0.0000,0
4841,-0.0030,0.0646,0.0087,0.0025,0.0187,-0.0080,0.21,-0.19,0.09,0,4.133,0.055,-0.094,0.013,-0.002,-0.007,0.998,0.000,0.000,0.000,0.0110,0,1,0.00,0.00,0.00,0.0000,0.0000,0.0000,0.0000,0.0000,0.0000,0.0000,0.00,0.00,0.00,1.5940,0.2370,0.9060,1.2270,2.7060,0,0.0000,0.0000,0.0000,0.0000,0.0000,0
4892,-0.0032,0.0646,0.0095,0.0013,0.0086,-0.0025,0.24,-0.18,0.10,0,4.138,0.061,0.033,0.067,-0.004,-0.009,1.000,0.000,0.000,0.000,0.0100,-9,0,0.00,0.00,0.00,0.0000,0.0000,0.0000,0.0000,0.0000,0.0000,0.0000,0.00,0.00,0.00,1.5740,0.0000,0.9060,1.2270,2.7010,0,0.0000,0.0000,0.0000,0.0000,0.0000,0
4943,-0.0018,0.0680,0.0097,0.0084,0.0186,-0.0015,0.01,-0.25,0.09,0,4.138,-0.044,-0.131,0.024,-0.003,-0.008,0.999,0.000,0.000,0.000,0.0100,-15,-1,0.00,0.00,0.00,0.0000,0.0000,0.0000,0.0000,0.0000,0.0000,0.0000,0.00,0.00,0.00,1.5740,0.0000,0.9060,1.2230,2.7010,0,0.0000,0.0000,0.0000,0.0000,0.0000,0
4994,-0.0049,0.0698,0.0099,-0.0085,0.0205,-0.0004,-0.12,-0.12,0.10,0,4.144,0.302,0.040,-0.091,-0.001,-0.008,0.999,0.000,0.000,0.000,0.0100,-1,-1,0.00,0.00,0.00,0.0000,0.0000,0.0000,0.0000,0.0000,0.0000,0.0000,0.00,0.00,0.00,1.5740,0.2400,0.9060,1.2230,2.7000,0,0.0000,0.0000,0.0000,0.0000,0.0000,0
5045,-0.0073,0.0750,0.0099,-0.0185,0.0358,-0.0010,-0.11,-0.04,0.11,0,4.138,0.097,-0.192,0.215,-0.002,-0.005,0.999,0.000,0.000,0.000,0.0090,0,5,0.00,0.00,0.00,0.0000,0.0000,0.0000,0.0000,0.0000,0.0000,0.0000,0.00,0.00,0.00,1.5740,0.2400,0.9040,1.2330,2.7000,0,0.0000,0.0000,0.0000,0.0000,0.0000,0
5096,-0.0055,0.0743,0.0096,-0.0065,0.0212,-0.0028,-0.00,-0.08,0.11,0,4.144,0.094,0.034,0.047,-0.001,-0.009,0.999,0.000,0.000,0.000,0.0080,-7,6,0.00,0.00,0.00,0.0000,0.0000,0.0000,0.0000,0.0000,0.0000,0.0000,0.00,0.00,0.00,1.5810,0.2370,0.9040,1.2330,2.6960,0,0.0000,0.0000,0.0000,0.0000,0.0000,0
5147,-0.0048,0.0743,0.0089,0.0001,0.0122,-0.0059,-0.03,-0.12,0.10,0,4.138,0.226,-0.096,0.045,-0.002,-0.008,0.997,0.000,0.000,0.000,0.0090,15,-6,0.00,0.00,0.00,0.0000,0.0000,0.0000,0.0000,0.0000,0.0000,0.0000,0.00,0.00,0.00,1.5810,0.2370,0.9050,1.2260,2.6960,0,0.0000,0.0000,0.0000,0.0000,0.0000,0
5198,-0.0071,0.0729,0.0089,-0.0104,-0.0019,-0.0054,0.27,-0.16,0.10,0,4.144,0.075,0.018,0.038,-0.005,-0.008,1.000,0.000,0.000,0.000,0.0090,5,2,0.00,0.00,0.00,0.0000,0.0000,0.0000,0.0000,0.0000,0.0000,0.0000,0.00,0.00,0.00,0.0000,0.0000,0.9050,1.2260,2.6990,0,0.0000,0.0000,0.0000,0.0000,0.0000,0
5249,0.0002,0.0675,0.0087,0.0251,-0.0295,-0.0047,0.33,-0.36,0.08,0,4.133,-0.083,0.145,0.186,-0.003,-0.008,0.999,0.000,0.000,0.000,0.0090,-5,0,0.00,0.00,0.00,0.0000,0.0000,0.0000,0.0000,0.0000,0.0000,0.0000,0.00,0.00,0.00,0.0000,0.0000,0.9070,1.2310,2.6990,0,0.0000,0.0000,0.0000,0.0000,0.0000,0
5300,-0.0003,0.0544,0.0081,0.0188,-0.0940,-0.0083,0.69,-0.31,0.09,0,4.144,0.110,-0.004,-0.223,-0.001,-0.007,0.999,0.000,0.000,0.000,0.0100,-2,-1,0.00,0.00,0.00,0.0000,0.0000,0.0000,0.0000,0.0000,0.0000,0.0000,0.00,0.00,0.00,1.5770,0.2370,0.9070,1.2310,2.7070,0,0.0000,0.0000,0.0000,0.0000,0.0000,0
5351,0.0003,0.0572,0.0099,0.0184,-0.0629,0.0037,0.38,-0.30,0.09,0,4.138,0.020,0.206,0.328,-0.001,-0.008,0.999,0.000,0.000,0.000,0.0100,-18,0,0.00,0.00,0.00,0.0000,0.0000,0.0000,0.0000,0.0000,0.0000,0.0000,0.00,0.00,0.00,1.5770,0.2370,0.9040,1.2340,2.7070,0,0.0000,0.0000,0.0000,0.0000,0.0000,0
5402,0.0002,0.0540,0.0100,0.0147,-0.0716,0.0030,0.25,-0.25,0.10,0,4.144,0.097,0.072,0.027,-0.002,-0.006,0.998,0.000,0.000,0.000,0.0110,0,3,0.00,0.00,0.00,0.0000,0.0000,0.0000,0.0000,0.0000,0.0000,0.0000,0.00,0.00,0.00,1.5570,0.0000,0.9040,1.2340,2.6960,0,0.0000,0.0000,0.0000,0.0000,0.0000,0
5453,-0.0012,0.0587,0.0110,0.0051,-0.0387,0.0066,0.12,-0.15,0.12,0,4.138,0.169,-0.253,-0.019,-0.002,-0.006,0.999,0.000,0.000,0.000,0.0120,24,11,0.00,0.00,0.00,0.0000,0.0000,0.0000,0.0000,0.0000,0.0000,0.0000,0.00,0.00,0.00,1.5570,0.0000,0.9060,1.2310,2.6960,0,0.0000,0.0000,0.0000,0.0000,0.0000,0
5504,-0.0005,0.0540,0.0115,0.0076,-0.0578,0.0070,0.46,-0.08,0.13,0,4.144,0.058,0.121,-0.100,-0.001,-0.007,0.997,0.000,0.000,0.000,0.0090,-3,4,0.00,0.00,0.00,0.0000,0.0000,0.0000,0.0000,0.0000,0.0000,0.0000,0.00,0.00,0.00,1.5660,0.2270,0.9060,1.2310,2.6990,0,0.0000,0.0000,0.0000,0.0000,0.0000,0
5555,-0.0029,0.0480,0.0107,-0.0036,-0.0762,-0.0000,0.30,-0.07,0.13,0,4.138,0.165,-0.174,-0.270,-0.003,-0.008,1.000,0.000,0.000,0.000,0.0080,6,-2,0.00,0.00,0.00,0.0000,0.0000,0.0000,0.0000,0.0000,0.0000,0.0000,0.00,0.00,0.00,1.5660,0.2270,0.9060,1.2260,2.6990,0,0.0000,0.0000,0.0000,0.0000,0.0000,0
5606,0.0001,0.0472,0.0097,0.0130,-0.0685,-0.0049,0.28,-0.25,0.11,0,4.144,0.428,-0.147,0.076,-0.001,-0.008,1.000,0.000,0.000,0.000,0.0100,4,-2,0.00,0.00,0.00,0.0000,0.0000,0.0000,0.0000,0.0000,0.0000,0.0000,0.00,0.00,0.00,1.5900,0.2310,0.9060,1.2260,2.7010,0,0.0000,0.0000,0.0000,0.0000,0.0000,0
5657,-0.0008,0.0438,0.0099,0.0061,-0.0716,-0.0031,0.24,-0.20,0.12,0,4.138,0.061,0.380,0.151,-0.001,-0.006,0.999,0.000,0.000,0.000,0.0090,6,-5,0.00,0.00,0.00,0.0000,0.0000,0.0000,0.0000,0.0000,0.0000,0.0000,0.00,0.00,0.00,1.5900,0.2310,0.9060,1.2310,2.7010,0,0.0000,0.0000,0.0000,0.0000,0.0000,0
5708,-0.0018,0.0428,0.0096,-0.0003,-0.0619,-0.0031,0.14,-0.17,0.12,0,4.144,0.200,0.216,0.154,-0.002,-0.007,1.000,0.000,0.000,0.000,0.0050,4,-1,0.00,0.00,0.00,0.0000,0.0000,0.0000,0.0000,0.0000,0.0000,0.0000,0.00,0.00,0.00,1.5630,0.0000,0.9060,1.2310,2.7010,0,0.0000,0.0000,0.0000,0.0000,0.0000,0
5759,-0.0010,0.0424,0.0077,0.0033,-0.0513,-0.0122,0.02,-0.16,0.12,0,4.138,-0.047,0.134,-0.089,-0.004,-0.008,0.999,0.000,0.000,0.000,0.0080,2,2,0.00,0.00,0.00,0.0000,0.0000,0.0000,0.0000,0.0000,0.0000,0.0000,0.00,0.00,0.00,1.5630,0.0000,0.9070,1.2340,2.7010,0,0.0000,0.0000,0.0000,0.0000,0.0000,0
5810,-0.0008,0.0421,0.0075,0.0037,-0.0423,-0.0102,-0.10,-0.14,0.12,0,4.138,-0.113,0.053,0.588,-0.003,-0.010,0.998,0.000,0.000,0.000,0.0110,-15,6,0.00,0.00,0.00,0.0000,0.0000,0.0000,0.0000,0.0000,0.0000,0.0000,0.00,0.00,0.00,0.0000,0.0000,0.9070,1.2340,2.7060,0,0.0000,0.0000,0.0000,0.0000,0.0000,0
5861,-0.0001,0.0378,0.0087,0.0069,-0.0586,-0.0030,-0.15,-0.13,0.13,0,4.138,0.002,0.154,0.069,-0.004,-0.007,0.999,0.000,0.000,0.000,0.0090,-22,4,0.00,0.00,0.00,0.0000,0.0000,0.0000,0.0000,0.0000,0.0000,0.0000,0.00,0.00,0.00,0.0000,0.0000,0.9060,1.2300,2.7060,0,0.0000,0.0000,0.0000,0.0000,0.0000,0
5912,-0.0001,0.0394,0.0089,0.0056,-0.0387,-0.0016,-0.38,-0.14,0.13,0,4.144,-0.014,-0.229,-0.230,-0.004,-0.010,0.999,0.000,0.000,0.000,0.0080,-32,16,0.00,0.00,0.00,0.0000,0.0000,0.0000,0.0000,0.0000,0.0000,0.0000,0.00,0.00,0.00,1.5530,0.0000,0.9060,1.2300,2.6990,0,0.0000,0.0000,0.0000,0.0000,0.0000,0
5963,-0.0007,0.0479,0.0086,0.0015,0.0127,-0.0032,-0.85,-0.01,0.12,0,4.138,0.325,0.221,-0.051,0.002,-0.008,0.999,0.000,0.000,0.000,0.0090,10,0,0.00,0.00,0.00,0.0000,0.0000,0.0000,0.0000,0.0000,0.0000,0.0000,0.00,0.00,0.00,1.5530,0.0000,0.9050,1.2270,2.6990,0,0.0000,0.0000,0.0000,0.0000,0.0000,0
6014,-0.0048,0.0620,0.0079,-0.0171,0.0832,-0.0061,-0.97,-0.01,0.12,0,4.144,0.131,0.061,0.320,-0.002,-0.009,0.998,0.000,0.000,0.000,0.0090,-1,-4,0.00,0.00,0.00,0.0000,0.0000,0.0000,0.0000,0.0000,0.0000,0.0000,0.00,0.00,0.00,1.5800,0.2320,0.9050,1.2270,2.6970,0,0.0000,0.0000,0.0000,0.0000,0.0000,0
6065,-0.0052,0.0585,0.0089,-0.0160,0.0494,-0.0003,-0.77,-0.06,0.12,0,4.138,0.034,-0.156,0.046,-0.003,-0.008,0.998,0.000,0.000,0.000,0.0090,-4,3,0.00,0.00,0.00,0.0000,0.0000,0.0000,0.0000,0.0000,0.0000,0.0000,0.00,0.00,0.00,1.5800,0.2320,0.9040,1.2240,2.6970,0,0.0000,0.0000,0.0000,0.0000,0.0000,0
6116,-0.0044,0.0644,0.0088,-0.0085,0.0693,-0.0009,-0.91,-0.06,0.13,0,4.138,0.079,0.204,0.019,-0.001,-0.007,1.001,0.000,0.000,0.000,0.0100,-11,-2,0.00,0.00,0.00,0.0000,0.0000,0.0000,0.0000,0.0000,0.0000,0.0000,0.00,0.00,0.00,1.5770,0.0000,0.9040,1.2240,2.6970,0,0.0000,0.0000,0.0000,0.0000,0.0000,0
6167,-0.0054,0.0564,0.0099,-0.0114,0.0157,0.0044,-0.55,-0.09,0.13,0,4.138,0.167,-0.057,-0.023,-0.004,-0.009,0.998,0.000,0.000,0.000,0.0090,0,4,0.00,0.00,0.00,0.0000,0.0000,0.0000,0.0000,0.0000,0.0000,0.0000,0.00,0.00,0.00,1.5770,0.0000,0.9060,1.2230,2.6970,0,0.0000,0.0000,0.0000,0.0000,0.0000,0
6218,0.0030,0.0535,0.0096,0.0356,-0.0046,0.0012,-0.29,-0.39,0.15,0,4.138,0.121,-0.252,0.002,-0.002,-0.009,0.999,0.000,0.000,0.000,0.0090,-1,0,0.00,0.00,0.00,0.0000,0.0000,0.0000,0.0000,0.0000,0.0000,0.0000,0.00,0.00,0.00,1.5670,0.2350,0.9060,1.2230,2.6930,0,0.0000,0.0000,0.0000,0.0000,0.0000,0
6270,0.0051,0.0524,0.0094,0.0399,-0.0099,-0.0002,-0.26,-0.43,0.15,0,4.133,0.199,-0.035,-0.223,-0.004,-0.008,1.000,0.000,0.000,0.000,0.0100,-20,3,0.00,0.00,0.00,0.0000,0.0000,0.0000,0.0000,0.0000,0.0000,0.0000,0.00,0.00,0.00,1.5670,0.2350,0.9060,1.2270,2.6930,0,0.0000,0.0000,0.0000,0.0000,0.0000,0
6321,0.0052,0.0562,0.0098,0.0328,0.0110,0.0018,-0.61,-0.33,0.14,0,4.144,0.024,-0.425,-0.258,-0.003,-0.006,0.999,0.000,0.000,0.000,0.0100,0,-4,0.00,0.00,0.00,0.0000,0.0000,0.0000,0.0000,0.0000,0.0000,0.0000,0.00,0.00,0.00,1.5720,0.2300,0.9060,1.2270,2.7020,0,0.0000,0.0000,0.0000,0.0000,0.0000,0
6372,0.0038,0.0615,0.0100,0.0186,0.0336,0.0015,-0.58,-0.27,0.14,0,4.138,0.342,-0.341,0.089,-0.003,-0.004,0.997,0.000,0.000,0.000,0.0090,21,10,0.00,0.00,0.00,0.0000,0.0000,0.0000,0.0000,0.0000,0.0000,0.0000,0.00,0.00,0.00,1.5720,0.2300,0.9070,1.2340,2.7020,0,0.0000,0.0000,0.0000,0.0000,0.0000,0
6423,0.0073,0.0556,0.0097,0.0341,-0.0057,-0.0008,-0.08,-0.24,0.14,0,4.138,0.221,-0.057,-0.072,-0.002,-0.008,0.998,0.000,0.000,0.000,0.0080,16,3,0.00,0.00,0.00,0.0000,0.0000,0.0000,0.0000,0.0000,0.0000,0.0000,0.00,0.00,0.00,1.5790,0.2340,0.9070,1.2340,2.7000,0,0.0000,0.0000,0.0000,0.0000,0.0000,0
6474,0.0056,0.0553,0.0092,0.0190,-0.0035,-0.0044,-0.15,-0.18,0.13,0,4.138,0.317,0.137,0.022,-0.002,-0.006,0.999,0.000,0.000,0.000,0.0100,-3,4,0.00,0.00,0.00,0.0000,0.0000,0.0000,0.0000,0.0000,0.0000,0.0000,0.00,0.00,0.00,1.5790,0.2340,0.9070,1.2260,2.7000,0,0.0000,0.0000,0.0000,0.0000,0.0000,0
6525,0.0035,0.0552,0.0096,0.0040,-0.0005,-0.0014,-0.37,-0.06,0.13,0,4.138,-0.027,-0.075,0.034,-0.004,-0.009,0.997,0.000,0.000,0.000,0.0120,12,-2,0.00,0.00,0.00,0.0000,0.0000,0.0000,0.0000,0.0000,0.0000,0.0000,0.00,0.00,0.00,1.5820,0.2360,0.9070,1.2260,2.7010,0,0.0000,0.0000,0.0000,0.0000,0.0000,0
6576,0.0024,0.0637,0.0105,-0.0026,0.0417,0.0029,-0.54,-0.07,0.13,0,4.138,0.220,-0.150,0.154,-0.002,-0.005,1.000,0.000,0.000,0.000,0.0090,-7,1,0.00,0.00,0.00,0.0000,0.0000,0.0000,0.0000,0.0000,0.0000,0.0000,0.00,0.00,0.00,1.5820,0.2360,0.9050,1.2290,2.7010,0,0.0000,0.0000,0.0000,0.0000,0.0000,0
6627,0.0070,0.0670,0.0100,0.0212,0.0528,-0.0017,-0.78,-0.23,0.13,0,4.144,0.146,-0.036,-0.010,-0.003,-0.010,0.997,0.000,0.000,0.000,0.0100,-7,0,0.00,0.00,0.00,0.0000,0.0000,0.0000,0.0000,0.0000,0.0000,0.0000,0.00,0.00,0.00,1.5710,0.2330,0.9050,1.2290,2.7000,0,0.0000,0.0000,0.0000,0.0000,0.0000,0
6678,0.0043,0.0668,0.0102,0.0025,0.0386,-0.0003,-0.64,-0.10,0.12,0,4.138,0.169,0.179,-0.212,-0.004,-0.007,0.999,0.000,0.000,0.000,0.0090,5,-1,0.00,0.00,0.00,0.0000,0.0000,0.0000,0.0000,0.0000,0.0000,0.0000,0.00,0.00,0.00,1.5710,0.2330,0.9050,1.2250,2.7000,0,0.0000,0.0000,0.0000,0.0000,0.0000,0
6729,0.0043,0.0696,0.0097,0.0014,0.0447,-0.0034,-0.56,-0.10,0.13,0,4.138,-0.079,0.010,0.378,-0.001,-0.008,0.998,0.000,0.000,0.000,0.0100,8,0,0.00,0.00,0.00,0.0000,0.0000,0.0000,0.0000,0.0000,0.0000,0.0000,0.00,0.00,0.00,1.5700,0.2340,0.9050,1.2250,2.6940,0,0.0000,0.0000,0.0000,0.0000,0.0000,0
6780,0.0041,0.0635,0.0099,-0.0007,0.0014,-0.0016,-0.20,-0.09,0.13,0,4.138,-0.068,-0.241,0.066,-0.001,-0.004,0.998,0.000,0.000,0.000,0.0110,-9,-5,0.00,0.00,0.00,0.0000,0.0000,0.0000,0.0000,0.0000,0.0000,0.0000,0.00,0.00,0.00,1.5700,0.2340,0.9050,1.2300,2.6940,0,0.0000,0.0000,0.0000,0.0000,0.0000,0
6831,0.0038,0.0613,0.0104,-0.0034,-0.0069,0.0009,-0.30,-0.11,0.13,0,4.138,0.113,0.062,0.094,-0.005,-0.008,0.998,0.000,0.000,0.000,0.0090,-3,0,0.00,0.00,0.00,0.0000,0.0000,0.0000,0.0000,0.0000,0.0000,0.0000,0.00,0.00,0.00,1.5800,0.0000,0.9050,1.2300,2.7040,0,0.0000,0.0000,0.0000,0.0000,0.0000,0
6882,0.0046,0.0572,0.0099,0.0011,-0.0308,-0.0027,-0.08,-0.11,0.13,0,4.138,0.139,-0.094,0.193,-0.003,-0.009,0.997,0.000,0.000,0.000,0.0100,15,0,0.00,0.00,0.00,0.0000,0.0000,0.0000,0.0000,0.0000,0.0000,0.0000,0.00,0.00,0.00,1.5800,0.0000,0.9070,1.2280,2.7040,0,0.0000,0.0000,0.0000,0.0000,0.0000,0
6933,0.0063,0.0531,0.0099,0.0108,-0.0493,-0.0029,0.20,-0.18,0.13,0,4.144,-0.335,0.328,0.305,-0.002,-0.008,0.999,0.000,0.000,0.000,0.0100,1,0,0.00,0.00,0.00,0.0000,0.0000,0.0000,0.0000,0.0000,0.0000,0.0000,0.00,0.00,0.00,1.5900,0.0000,0.9070,1.2280,2.7040,0,0.0000,0.0000,0.0000,0.0000,0.0000,0
6985,0.0065,0.0546,0.0101,0.0099,-0.0309,-0.0019,-0.10,-0.17,0.13,0,4.138,0.222,0.066,-0.226,-0.001,-0.008,0.999,0.000,0.000,0.000,0.0090,6,4,0.00,0.00,0.00,0.0000,0.0000,0.0000,0.0000,0.0000,0.0000,0.0000,0.00,0.00,0.00,1.5900,0.0000,0.9080,1.2260,2.7040,0,0.0000,0.0000,0.0000,0.0000,0.0000,0
7035,0.0058,0.0477,0.0094,0.0034,-0.0637,-0.0061,0.18,-0.08,0.13,0,4.138,0.156,0.149,-0.023,-0.004,-0.006,1.000,0.000,0.000,0.000,0.0140,-2,2,0.00,0.00,0.00,0.0000,0.0000,0.0000,0.0000,0.0000,0.0000,0.0000,0.00,0.00,0.00,1.5540,0.2330,0.9080,1.2260,2.6990,0,0.0000,0.0000,0.0000,0.0000,0.0000,0
7086,0.0054,0.0453,0.0112,0.0009,-0.0634,0.0045,0.06,-0.07,0.13,0,4.138,0.130,-0.257,-0.129,-0.002,-0.007,0.999,0.000,0.000,0.000,0.0100,-14,1,0.00,0.00,0.00,0.0000,0.0000,0.0000,0.0000,0.0000,0.0000,0.0000,0.00,0.00,0.00,1.5540,0.2330,0.9060,1.2300,2.6990,0,0.0000,0.0000,0.0000,0.0000,0.0000,0
7138,0.0063,0.0394,0.0107,0.0052,-0.0823,-0.0006,0.07,-0.12,0.13,0,4.138,-0.103,0.222,0.155,-0.003,-0.008,1.001,0.000,0.000,0.000,0.0080,6,-4,0.00,0.00,0.00,0.0000,0.0000,0.0000,0.0000,0.0000,0.0000,0.0000,0.00,0.00,0.00,1.5660,0.2290,0.9060,1.2300,2.6940,0,0.0000,0.0000,0.0000,0.0000,0.0000,0
7189,0.0052,0.0445,0.0100,-0.0013,-0.0407,-0.0037,-0.09,-0.11,0.13,0,4.138,-0.096,0.254,0.391,-0.003,-0.009,0.998,0.000,0.000,0.000,0.0130,16,20,0.00,0.00,0.00,0.0000,0.0000,0.0000,0.0000,0.0000,0.0000,0.0000,0.00,0.00,0.00,1.5660,0.2290,0.9060,1.2210,2.6940,0,0.0000,0.0000,0.0000,0.0000,0.0000,0
7240,0.0065,0.0368,0.0109,0.0049,-0.0725,0.0009,0.21,0.06,0.14,0,4.138,-0.040,0.052,0.285,-0.002,-0.010,0.998,0.000,0.000,0.000,0.0120,30,0,0.00,0.00,0.00,0.0000,0.0000,0.0000,0.0000,0.0000,0.0000,0.0000,0.00,0.00,0.00,1.5560,0.2330,0.9060,1.2210,2.7010,0,0.0000,0.0000,0.0000,0.0000,0.0000,0
7292,0.0034,0.0256,0.0109,-0.0099,-0.1190,-0.0011,0.65,-0.01,0.13,0,4.138,-0.045,-0.072,-0.184,-0.002,-0.008,0.998,0.000,0.000,0.000,0.0070,32,3,0.00,0.00,0.00,0.0000,0.0000,0.0000,0.0000,0.0000,0.0000,0.0000,0.00,0.00,0.00,1.5560,0.2330,0.9050,1.2250,2.7010,0,0.0000,0.0000,0.0000,0.0000,0.0000,0
7343,0.0030,0.0148,0.0089,-0.0108,-0.1499,-0.0127,0.83,0.01,0.13,0,4.138,0.272,-0.045,-0.124,-0.002,-0.007,1.000,0.000,0.000,0.000,0.0130,0,0,0.00,0.00,0.00,0.0000,0.0000,0.0000,0.0000,0.0000,0.0000,0.0000,0.00,0.00,0.00,1.5760,0.0000,0.9050,1.2250,2.6960,0,0.0000,0.0000,0.0000,0.0000,0.0000,0
7394,0.0022,0.0076,0.0106,-0.0131,-0.1527,0.0005,0.55,0.00,0.13,0,4.138,-0.065,0.033,-0.053,-0.001,-0.007,0.997,0.000,0.000,0.000,0.0070,-4,5,0.00,0.00,0.00,0.0000,0.0000,0.0000,0.0000,0.0000,0.0000,0.0000,0.00,0.00,0.00,1.5760,0.0000,0.9050,1.2310,2.6960,0,0.0000,0.0000,0.0000,0.0000,0.0000,0
7445,0.0038,0.0056,0.0098,-0.0021,-0.1309,-0.0036,0.22,-0.06,0.12,0,4.138,0.303,0.165,0.107,-0.002,-0.008,0.998,0.000,0.000,0.000,0.0090,-15,-21,0.00,0.00,0.00,0.0000,0.0000,0.0000,0.0000,0.0000,0.0000,0.0000,0.00,0.00,0.00,0.0000,0.0000,0.9050,1.2310,2.7010,0,0.0000,0.0000,0.0000,0.0000,0.0000,0
7496,0.0051,0.0102,0.0102,0.0067,-0.0786,0.0009,-0.33,-0.38,0.11,0,4.133,0.015,0.327,0.149,-0.002,-0.010,0.999,0.000,0.000,0.000,0.0110,3,3,0.00,0.00,0.00,0.0000,0.0000,0.0000,0.0000,0.0000,0.0000,0.0000,0.00,0.00,0.00,0.0000,0.0000,0.9050,1.2160,2.7010,0,0.0000,0.0000,0.0000,0.0000,0.0000,0
7547,0.0105,0.0191,0.0107,0.0309,-0.0172,0.0038,-0.63,-0.32,0.11,0,4.138,0.115,-0.282,-0.020,-0.000,-0.004,1.002,0.000,0.000,0.000,0.0090,4,-1,0.00,0.00,0.00,0.0000,0.0000,0.0000,0.0000,0.0000,0.0000,0.0000,0.00,0.00,0.00,1.5710,0.0000,0.9050,1.2160,2.7030,0,0.0000,0.0000,0.0000,0.0000,0.0000,0
7599,0.0106,0.0170,0.0102,0.0264,-0.0200,-0.0000,-0.58,-0.30,0.10,0,4.138,0.171,-0.276,-0.168,-0.003,-0.008,0.998,0.000,0.000,0.000,0.0100,-6,5,0.00,0.00,0.00,0.0000,0.0000,0.0000,0.0000,0.0000,0.0000,0.0000,0.00,0.00,0.00,1.5710,0.0000,0.9070,1.2140,2.7030,0,0.0000,0.0000,0.0000,0.0000,0.0000,0
7650,0.0106,0.0224,0.0101,0.0209,0.0169,-0.0000,-0.94,-0.20,0.10,0,4.138,-0.077,-0.161,0.118,-0.002,-0.007,0.997,0.000,0.000,0.000,0.0110,-6,-4,0.00,0.00,0.00,0.0000,0.0000,0.0000,0.0000,0.0000,0.0000,0.0000,0.00,0.00,0.00,1.5840,0.0000,0.9070,1.2140,2.7010,0,0.0000,0.0000,0.0000,0.0000,0.0000,0
7701,0.0100,0.0335,0.0100,0.0124,0.0717,-0.0009,-1.30,-0.22,0.09,0,4.138,0.050,-0.248,-0.214,-0.002,-0.007,0.999,0.000,0.000,0.000,0.0100,10,0,0.00,0.00,0.00,0.0000,0.0000,0.0000,0.0000,0.0000,0.0000,0.0000,0.00,0.00,0.00,1.5840,0.0000,0.9070,1.2030,2.7010,0,0.0000,0.0000,0.0000,0.0000,0.0000,0
7752,0.0097,0.0424,0.0096,0.0081,0.1045,-0.0031,-1.31,-0.15,0.09,0,4.138,0.142,-0.023,0.050,-0.003,-0.008,1.000,0.000,0.000,0.000,0.0110,0,-2,0.00,0.00,0.00,0.0000,0.0000,0.0000,0.0000,0.0000,0.0000,0.0000,0.00,0.00,0.00,1.5840,0.0000,0.9070,1.2030,2.6990,0,0.0000,0.0000,0.0000,0.0000,0.0000,0
7803,0.0106,0.0498,0.0099,0.0114,0.1278,-0.0029,-1.51,-0.19,0.09,0,4.133,0.328,0.300,0.265,-0.003,-0.007,1.000,0.000,0.000,0.000,0.0080,3,-7,0.00,0.00,0.00,0.0000,0.0000,0.0000,0.0000,0.0000,0.0000,0.0000,0.00,0.00,0.00,1.5840,0.0000,0.9060,1.1920,2.6990,0,0.0000,0.0000,0.0000,0.0000,0.0000,0
7854,0.0099,0.0506,0.0096,0.0047,0.1088,-0.0038,-1.26,-0.18,0.09,0,4.144,0.294,-0.019,-0.198,-0.006,-0.010,0.998,0.000,0.000,0.000,0.0100,6,-5,0.00,0.00,0.00,0.0000,0.0000,0.0000,0.0000,0.0000,0.0000,0.0000,0.00,0.00,0.00,1.5780,0.2310,0.9060,1.1920,2.7030,0,0.0000,0.0000,0.0000,0.0000,0.0000,0
7905,0.0104,0.0505,0.0101,0.0045,0.0880,-0.0007,-1.00,-0.16,0.09,0,4.138,-0.096,-0.108,0.080,-0.003,-0.008,0.998,0.000,0.000,0.000,0.0110,9,-3,0.00,0.00,0.00,0.0000,0.0000,0.0000,0.0000,0.0000,0.0000,0.0000,0.00,0.00,0.00,1.5780,0.2310,0.9030,1.2260,2.7030,0,0.0000,0.0000,0.0000,0.0000,0.0000,0
7956,0.0096,0.0541,0.0105,-0.0024,0.0911,0.0007,-0.96,-0.09,0.09,0,4.138,0.191,-0.071,-0.204,-0.003,-0.006,0.999,0.000,0.000,0.000,0.0080,-3,8,0.00,0.00,0.00,0.0000,0.0000,0.0000,0.0000,0.0000,0.0000,0.0000,0.00,0.00,0.00,1.5540,0.2430,0.9030,1.2260,2.7010,0,0.0000,0.0000,0.0000,0.0000,0.0000,0
8007,0.0104,0.0468,0.0101,0.0022,0.0350,-0.0002,-0.60,-0.03,0.08,0,4.138,0.236,-0.184,-0.122,-0.003,-0.008,0.999,0.000,0.000,0.000,0.0090,6,2,0.00,0.00,0.00,0.0000,0.0000,0.0000,0.0000,0.0000,0.0000,0.0000,0.00,0.00,0.00,1.5540,0.2430,0.9060,1.2260,2.7010,0,0.0000,0.0000,0.0000,0.0000,0.0000,0
8058,0.0089,0.0424,0.0097,-0.0051,0.0029,-0.0018,-0.25,-0.03,0.08,0,4.138,0.170,0.181,-0.028,-0.004,-0.007,0.997,0.000,0.000,0.000,0.0110,0,0,0.00,0.00,0.00,0.0000,0.0000,0.0000,0.0000,0.0000,0.0000,0.0000,0.00,0.00,0.00,1.5800,0.2340,0.9060,1.2260,2.7030,0,0.0000,0.0000,0.0000,0.0000,0.0000,0
8109,0.0077,0.0412,0.0102,-0.0105,-0.0044,0.0007,-0.25,-0.01,0.08,0,4.133,0.103,0.138,-0.085,-0.003,-0.008,0.998,0.000,0.000,0.000,0.0080,-11,-1,0.00,0.00,0.00,0.0000,0.0000,0.0000,0.0000,0.0000,0.0000,0.0000,0.00,0.00,0.00,1.5800,0.2340,0.9070,1.2260,2.7030,0,0.0000,0.0000,0.0000,0.0000,0.0000,0
8161,0.0089,0.0377,0.0092,-0.0032,-0.0233,-0.0050,-0.22,-0.09,0.08,0,4.138,0.100,0.239,0.025,-0.004,-0.008,0.998,0.000,0.000,0.000,0.0110,8,1,0.00,0.00,0.00,0.0000,0.0000,0.0000,0.0000,0.0000,0.0000,0.0000,0.00,0.00,0.00,1.5730,0.0000,0.9070,1.2260,2.7010,0,0.0000,0.0000,0.0000,0.0000,0.0000,0
8211,0.0089,0.0351,0.0099,-0.0029,-0.0362,-0.0003,0.04,-0.08,0.08,0,4.138,0.142,0.102,-0.152,-0.006,-0.009,1.000,0.000,0.000,0.000,0.0090,10,-1,0.00,0.00,0.00,0.0000,0.0000,0.0000,0.0000,0.0000,0.0000,0.0000,0.00,0.00,0.00,1.5730,0.0000,0.9050,1.2230,2.7010,0,0.0000,0.0000,0.0000,0.0000,0.0000,0
8262,0.0081,0.0258,0.0092,-0.0073,-0.0785,-0.0052,0.35,-0.08,0.08,0,4.138,0.190,-0.185,-0.247,-0.002,-0.008,0.999,0.000,0.000,0.000,0.0100,7,0,0.00,0.00,0.00,0.0000,0.0000,0.0000,0.0000,0.0000,0.0000,0.0000,0.00,0.00,0.00,1.5710,0.0000,0.9050,1.2230,2.7030,0,0.0000,0.0000,0.0000,0.0000,0.0000,0
8313,0.0104,0.0198,0.0092,0.0063,-0.0958,-0.0045,0.40,-0.17,0.08,0,4.138,0.244,-0.055,0.136,-0.003,-0.007,1.001,0.000,0.000,0.000,0.0100,20,5,0.00,0.00,0.00,0.0000,0.0000,0.0000,0.0000,0.0000,0.0000,0.0000,0.00,0.00,0.00,1.5710,0.0000,0.9070,1.2380,2.7030,0,0.0000,0.0000,0.0000,0.0000,0.0000,0
8364,0.0089,0.0182,0.0099,-0.0024,-0.0832,0.0004,0.37,-0.06,0.08,0,4.138,0.273,-0.129,-0.005,-0.001,-0.008,0.998,0.000,0.000,0.000,0.0100,-4,-1,0.00,0.00,0.00,0.0000,0.0000,0.0000,0.0000,0.0000,0.0000,0.0000,0.00,0.00,0.00,1.5930,0.0000,0.9070,1.2380,2.7020,0,0.0000,0.0000,0.0000,0.0000,0.0000,0
8416,0.0079,0.0159,0.0102,-0.0073,-0.0774,0.0022,0.06,-0.08,0.08,0,4.133,0.004,0.216,0.313,-0.001,-0.006,0.998,0.000,0.000,0.000,0.0120,-7,4,0.00,0.00,0.00,0.0000,0.0000,0.0000,0.0000,0.0000,0.0000,0.0000,0.00,0.00,0.00,1.5930,0.0000,0.9050,1.2300,2.7020,0,0.0000,0.0000,0.0000,0.0000,0.0000,0
8466,0.0087,0.0139,0.0112,-0.0022,-0.0731,0.0059,-0.04,-0.08,0.08,0,4.144,0.149,0.043,-0.024,-0.002,-0.008,0.999,0.000,0.000,0.000,0.0130,8,0,0.00,0.00,0.00,0.0000,0.0000,0.0000,0.0000,0.0000,0.0000,0.0000,0.00,0.00,0.00,1.5980,0.2310,0.9050,1.2300,2.6990,0,0.0000,0.0000,0.0000,0.0000,0.0000,0
8517,0.0085,0.0165,0.0124,-0.0028,-0.0448,0.0109,-0.15,-0.11,0.08,0,4.138,0.296,0.051,-0.028,-0.001,-0.007,0.997,0.000,0.000,0.000,0.0090,-3,8,0.00,0.00,0.00,0.0000,0.0000,0.0000,0.0000,0.0000,0.0000,0.0000,0.00,0.00,0.00,1.5980,0.2310,0.9060,1.2260,2.6990,0,0.0000,0.0000,0.0000,0.0000,0.0000,0
8568,0.0075,0.0209,0.0114,-0.0085,-0.0095,0.0028,-0.52,0.00,0.09,0,4.138,0.149,0.034,0.057,-0.002,-0.007,1.000,0.000,0.000,0.000,0.0080,-1,-4,0.00,0.00,0.00,0.0000,0.0000,0.0000,0.0000,0.0000,0.0000,0.0000,0.00,0.00,0.00,1.5650,0.2350,0.9060,1.2260,2.7030,0,0.0000,0.0000,0.0000,0.0000,0.0000,0
8619,0.0079,0.0240,0.0101,-0.0042,0.0106,-0.0043,-0.64,-0.15,0.07,0,4.138,0.028,-0.069,0.051,-0.004,-0.007,0.999,0.000,0.000,0.000,0.0120,2,0,0.00,0.00,0.00,0.0000,0.0000,0.0000,0.0000,0.0000,0.0000,0.0000,0.00,0.00,0.00,1.5650,0.2350,0.9050,1.2230,2.7030,0,0.0000,0.0000,0.0000,0.0000,0.0000,0
8670,0.0079,0.0307,0.0107,-0.0041,0.0438,0.0001,-0.83,-0.12,0.08,0,4.138,0.084,0.181,0.018,-0.001,-0.006,0.998,0.000,0.000,0.000,0.0090,3,0,0.00,0.00,0.00,0.0000,0.0000,0.0000,0.0000,0.0000,0.0000,0.0000,0.00,0.00,0.00,1.5760,0.2290,0.9050,1.2230,2.7050,0,0.0000,0.0000,0.0000,0.0000,0.0000,0
8721,0.0086,0.0308,0.0101,0.0012,0.0368,-0.0036,-0.73,-0.16,0.08,0,4.133,-0.023,0.043,0.195,-0.003,-0.009,1.000,0.000,0.000,0.000,0.0110,-19,-3,0.00,0.00,0.00,0.0000,0.0000,0.0000,0.0000,0.0000,0.0000,0.0000,0.00,0.00,0.00,1.5760,0.2290,0.9050,1.2320,2.7050,0,0.0000,0.0000,0.0000,0.0000,0.0000,0
8772,0.0077,0.0365,0.0103,-0.0039,0.0621,-0.0025,-1.10,-0.14,0.08,0,4.144,0.292,0.051,-0.134,-0.003,-0.008,1.000,0.000,0.000,0.000,0.0090,-6,-2,0.00,0.00,0.00,0.0000,0.0000,0.0000,0.0000,0.0000,0.0000,0.0000,0.00,0.00,0.00,1.5620,0.0000,0.9050,1.2320,2.7030,0,0.0000,0.0000,0.0000,0.0000,0.0000,0
8823,0.0080,0.0420,0.0097,-0.0021,0.0756,-0.0047,-1.03,-0.15,0.08,0,4.133,-0.046,-0.068,-0.119,-0.003,-0.007,0.998,0.000,0.000,0.000,0.0120,-3,-2,0.00,0.00,0.00,0.0000,0.0000,0.0000,0.0000,0.0000,0.0000,0.0000,0.00,0.00,0.00,1.5620,0.0000,0.9060,1.2280,2.7030,0,0.0000,0.0000,0.0000,0.0000,0.0000,0
8874,0.0076,0.0432,0.0107,-0.0039,0.0667,0.0013,-0.88,-0.13,0.08,0,4.144,-0.144,-0.067,0.046,0.001,-0.009,1.001,0.000,0.000,0.000,0.0100,19,-1,0.00,0.00,0.00,0.0000,0.0000,0.0000,0.0000,0.0000,0.0000,0.0000,0.00,0.00,0.00,1.5850,0.2200,0.9060,1.2280,2.6960,0,0.0000,0.0000,0.0000,0.0000,0.0000,0
8925,0.0082,0.0391,0.0108,0.0002,0.0294,0.0021,-0.36,-0.14,0.08,0,4.138,0.045,-0.073,-0.120,-0.001,-0.007,0.998,0.000,0.000,0.000,0.0110,-2,9,0.00,0.00,0.00,0.0000,0.0000,0.0000,0.0000,0.0000,0.0000,0.0000,0.00,0.00,0.00,1.5850,0.2200,0.9080,1.2260,2.6960,0,0.0000,0.0000,0.0000,0.0000,0.0000,0
8976,0.0106,0.0364,0.0110,0.0132,0.0110,0.0022,-0.40,-0.15,0.08,0,4.138,-0.006,-0.159,0.295,-0.006,-0.006,0.998,0.000,0.000,0.000,0.0110,19,3,0.00,0.00,0.00,0.0000,0.0000,0.0000,0.0000,0.0000,0.0000,0.0000,0.00,0.00,0.00,1.5640,0.0000,0.9080,1.2260,2.6950,0,0.0000,0.0000,0.0000,0.0000,0.0000,0
9027,0.0112,0.0323,0.0111,0.0155,-0.0155,0.0016,-0.01,-0.22,0.09,0,4.133,0.237,0.133,0.010,-0.002,-0.007,0.999,0.000,0.000,0.000,0.0090,7,3,0.00,0.00,0.00,0.0000,0.0000,0.0000,0.0000,0.0000,0.0000,0.0000,0.00,0.00,0.00,1.5640,0.0000,0.9060,1.2290,2.6950,0,0.0000,0.0000,0.0000,0.0000,0.0000,0
9078,0.0112,0.0298,0.0103,0.0126,-0.0242,-0.0032,-0.07,-0.19,0.09,0,4.144,0.012,-0.097,0.192,-0.003,-0.008,0.999,0.000,0.000,0.000,0.0130,27,2,0.00,0.00,0.00,0.0000,0.0000,0.0000,0.0000,0.0000,0.0000,0.0000,0.00,0.00,0.00,1.5770,0.0000,0.9060,1.2290,2.6900,0,0.0000,0.0000,0.0000,0.0000,0.0000,0
9129,0.0103,0.0273,0.0113,0.0052,-0.0333,0.0025,0.16,-0.14,0.10,0,4.138,0.162,0.104,0.225,-0.001,-0.010,1.001,0.000,0.000,0.000,0.0090,14,2,0.00,0.00,0.00,0.0000,0.0000,0.0000,0.0000,0.0000,0.0000,0.0000,0.00,0.00,0.00,1.5770,0.0000,0.9050,1.2280,2.6900,0,0.0000,0.0000,0.0000,0.0000,0.0000,0
9180,0.0142,0.0171,0.0101,0.0249,-0.0792,-0.0051,0.35,-0.29,0.10,0,4.144,-0.056,-0.095,-0.046,-0.003,-0.008,0.999,0.000,0.000,0.000,0.0090,-3,0,0.00,0.00,0.00,0.0000,0.0000,0.0000,0.0000,0.0000,0.0000,0.0000,0.00,0.00,0.00,1.5740,0.2430,0.9050,1.2280,2.7000,0,0.0000,0.0000,0.0000,0.0000,0.0000,0
9231,0.0126,0.0058,0.0089,0.0113,-0.1249,-0.0114,0.50,-0.19,0.10,0,4.138,0.374,0.025,-0.059,-0.003,-0.008,1.000,0.000,0.000,0.000,0.0080,-6,0,0.00,0.00,0.00,0.0000,0.0000,0.0000,0.0000,0.0000,0.0000,0.0000,0.00,0.00,0.00,1.5740,0.2430,0.9060,1.2340,2.7000,0,0.0000,0.0000,0.0000,0.0000,0.0000,0
9282,0.0128,0.0046,0.0088,0.0099,-0.1073,-0.0096,0.28,-0.18,0.10,0,4.138,-0.089,0.025,0.268,-0.002,-0.007,0.998,0.000,0.000,0.000,0.0100,15,11,0.00,0.00,0.00,0.0000,0.0000,0.0000,0.0000,0.0000,0.0000,0.0000,0.00,0.00,0.00,1.5590,0.0000,0.9060,1.2340,2.7010,0,0.0000,0.0000,0.0000,0.0000,0.0000,0
9333,0.0131,0.0001,0.0090,0.0094,-0.1111,-0.0075,0.46,-0.08,0.11,0,4.133,-0.012,0.024,-0.020,-0.003,-0.009,1.001,0.000,0.000,0.000,0.0090,-22,-3,0.00,0.00,0.00,0.0000,0.0000,0.0000,0.0000,0.0000,0.0000,0.0000,0.00,0.00,0.00,1.5590,0.0000,0.9090,1.2290,2.7010,0,0.0000,0.0000,0.0000,0.0000,0.0000,0
9384,0.0118,0.0031,0.0097,0.0023,-0.0690,-0.0004,-0.27,-0.16,0.10,0,4.138,0.104,-0.255,0.107,-0.002,-0.007,1.000,0.000,0.000,0.000,0.0090,-36,-4,0.00,0.00,0.00,0.0000,0.0000,0.0000,0.0000,0.0000,0.0000,0.0000,0.00,0.00,0.00,1.5640,0.2330,0.9090,1.2290,2.7080,0,0.0000,0.0000,0.0000,0.0000,0.0000,0
9435,0.0123,0.0108,0.0096,0.0035,-0.0153,-0.0002,-0.83,-0.17,0.10,0,4.133,0.115,-0.248,0.018,-0.004,-0.006,1.000,0.000,0.000,0.000,0.0080,-16,3,0.00,0.00,0.00,0.0000,0.0000,0.0000,0.0000,0.0000,0.0000,0.0000,0.00,0.00,0.00,1.5640,0.2330,0.9070,1.2260,2.7080,0,0.0000,0.0000,0.0000,0.0000,0.0000,0
9486,0.0124,0.0341,0.0076,0.0023,0.1120,-0.0101,-1.54,-0.10,0.10,0,4.138,0.039,-0.026,0.142,-0.003,-0.006,0.998,0.000,0.000,0.000,0.0090,1,0,0.00,0.00,0.00,0.0000,0.0000,0.0000,0.0000,0.0000,0.0000,0.0000,0.00,0.00,0.00,1.5680,0.0000,0.9070,1.2260,2.7050,0,0.0000,0.0000,0.0000,0.0000,0.0000,0
9537,0.0115,0.0382,0.0082,-0.0023,0.1110,-0.0049,-1.30,-0.09,0.10,0,4.138,0.127,0.084,-0.052,-0.005,-0.005,1.000,0.000,0.000,0.000,0.0090,2,1,0.00,0.00,0.00,0.0000,0.0000,0.0000,0.0000,0.0000,0.0000,0.0000,0.00,0.00,0.00,1.5680,0.0000,0.9050,1.2320,2.7050,0,0.0000,0.0000,0.0000,0.0000,0.0000,0
9588,0.0118,0.0386,0.0089,-0.0015,0.0927,-0.0000,-1.07,-0.10,0.10,0,4.138,0.164,-0.141,0.130,-0.005,-0.006,0.996,0.000,0.000,0.000,0.0100,3,1,0.00,0.00,0.00,0.0000,0.0000,0.0000,0.0000,0.0000,0.0000,0.0000,0.00,0.00,0.00,1.5650,0.0000,0.9050,1.2320,2.7000,0,0.0000,0.0000,0.0000,0.0000,0.0000,0
9639,0.0118,0.0374,0.0098,-0.0015,0.0695,0.0032,-0.83,-0.10,0.10,0,4.133,0.029,-0.054,0.118,-0.005,-0.006,0.998,0.000,0.000,0.000,0.0110,22,0,0.00,0.00,0.00,0.0000,0.0000,0.0000,0.0000,0.0000,0.0000,0.0000,0.00,0.00,0.00,1.5650,0.0000,0.9050,1.2300,2.7000,0,0.0000,0.0000,0.0000,0.0000,0.0000,0
9690,0.0110,0.0315,0.0107,-0.0056,0.0235,0.0075,-0.27,-0.08,0.09,0,4.144,0.026,-0.062,-0.069,-0.003,-0.005,0.999,0.000,0.000,0.000,0.0090,0,0,0.00,0.00,0.00,0.0000,0.0000,0.0000,0.0000,0.0000,0.0000,0.0000,0.00,0.00,0.00,1.5570,0.0000,0.9050,1.2300,2.7020,0,0.0000,0.0000,0.0000,0.0000,0.0000,0
9741,0.0116,0.0278,0.0103,-0.0015,0.0015,0.0039,-0.31,-0.11,0.10,0,4.133,-0.117,-0.028,0.160,-0.003,-0.010,0.997,0.000,0.000,0.000,0.0110,-4,-14,0.00,0.00,0.00,0.0000,0.0000,0.0000,0.0000,0.0000,0.0000,0.0000,0.00,0.00,0.00,1.5570,0.0000,0.9030,1.2330,2.7020,0,0.0000,0.0000,0.0000,0.0000,0.0000,0
9792,0.0089,0.0258,0.0107,-0.0162,-0.0106,0.0042,-0.26,-0.14,0.10,0,4.138,-0.063,-0.261,0.015,-0.004,-0.007,0.999,0.000,0.000,0.000,0.0100,-15,-2,0.00,0.00,0.00,0.0000,0.0000,0.0000,0.0000,0.0000,0.0000,0.0000,0.00,0.00,0.00,1.5670,0.0000,0.9030,1.2330,2.6980,0,0.0000,0.0000,0.0000,0.0000,0.0000,0
9843,0.0113,0.0246,0.0106,-0.0020,-0.0180,0.0020,-0.33,-0.14,0.10,0,4.138,0.194,0.142,0.028,-0.003,-0.010,1.000,0.000,0.000,0.000,0.0080,-8,20,0.00,0.00,0.00,0.0000,0.0000,0.0000,0.0000,0.0000,0.0000,0.0000,0.00,0.00,0.00,1.5670,0.0000,0.9070,1.2300,2.6980,0,0.0000,0.0000,0.0000,0.0000,0.0000,0
9894,0.0156,0.0213,0.0096,0.0218,-0.0363,-0.0044,-0.14,-0.10,0.10,0,4.138,0.259,0.194,0.011,-0.005,-0.006,0.999,0.000,0.000,0.000,0.0080,1,5,0.00,0.00,0.00,0.0000,0.0000,0.0000,0.0000,0.0000,0.0000,0.0000,0.00,0.00,0.00,1.5780,0.0000,0.9070,1.2300,2.6960,0,0.0000,0.0000,0.0000,0.0000,0.0000,0
9945,0.0122,0.0236,0.0090,0.0025,-0.0189,-0.0072,-0.19,-0.10,0.10,0,4.133,-0.113,0.064,0.169,-0.005,-0.007,0.998,0.000,0.000,0.000,0.0100,-1,4,0.00,0.00,0.00,0.0000,0.0000,0.0000,0.0000,0.0000,0.0000,0.0000,0.00,0.00,0.00,1.5780,0.0000,0.9030,1.2320,2.6960,0,0.0000,0.0000,0.0000,0.0000,0.0000,0
9996,0.0116,0.0185,0.0092,-0.0014,-0.0414,-0.0049,-0.05,-0.09,0.10,0,4.144,0.235,0.013,0.221,-0.004,-0.008,0.997,0.000,0.000,0.000,0.0100,0,1,0.00,0.00,0.00,0.0000,0.0000,0.0000,0.0000,0.0000,0.0000,0.0000,0.00,0.00,0.00,1.5630,0.0000,0.9030,1.2320,2.7140,0,0.0000,0.0000,0.0000,0.0000,0.0000,0
10047,0.0124,0.0202,0.0095,0.0029,-0.0261,-0.0024,-0.17,-0.15,0.11,0,4.138,0.202,-0.109,-0.275,-0.005,-0.007,0.994,0.000,0.000,0.000,0.0110,0,4,0.00,0.00,0.00,0.0000,0.0000,0.0000,0.0000,0.0000,0.0000,0.0000,0.00,0.00,0.00,1.5630,0.0000,0.9050,1.2280,2.7140,0,0.0000,0.0000,0.0000,0.0000,0.0000,0
10098,0.0130,0.0200,0.0102,0.0051,-0.0231,0.0006,-0.21,-0.14,0.11,0,4.138,-0.142,-0.080,0.104,-0.003,-0.008,0.999,0.000,0.000,0.000,0.0100,5,6,0.00,0.00,0.00,0.0000,0.0000,0.0000,0.0000,0.0000,0.0000,0.0000,0.00,0.00,0.00,1.5410,0.2360,0.9050,1.2280,2.6970,0,0.0000,0.0000,0.0000,0.0000,0.0000,0
10149,0.0138,0.0220,0.0102,0.0088,-0.0092,-0.0002,-0.29,-0.15,0.11,0,4.138,-0.159,-0.017,0.151,-0.004,-0.008,0.998,0.000,0.000,0.000,0.0110,6,4,0.00,0.00,0.00,0.0000,0.0000,0.0000,0.0000,0.0000,0.0000,0.0000,0.00,0.00,0.00,1.5410,0.2360,0.9070,1.2330,2.6970,0,0.0000,0.0000,0.0000,0.0000,0.0000,0
10200,0.0128,0.0312,0.0104,0.0024,0.0409,0.0000,-0.66,-0.12,0.11,0,4.138,-0.121,-0.084,-0.103,-0.003,-0.008,1.002,0.000,0.000,0.000,0.0090,0,-4,0.00,0.00,0.00,0.0000,0.0000,0.0000,0.0000,0.0000,0.0000,0.0000,0.00,0.00,0.00,1.5610,0.2340,0.9070,1.2330,2.7000,0,0.0000,0.0000,0.0000,0.0000,0.0000,0
10251,0.0128,0.0369,0.0096,0.0022,0.0646,-0.0048,-0.87,-0.19,0.11,0,4.133,0.022,-0.074,-0.025,-0.002,-0.009,0.999,0.000,0.000,0.000,0.0100,-31,2,0.00,0.00,0.00,0.0000,0.0000,0.0000,0.0000,0.0000,0.0000,0.0000,0.00,0.00,0.00,1.5610,0.2340,0.9090,1.2330,2.7000,0,0.0000,0.0000,0.0000,0.0000,0.0000,0
10303,0.0120,0.0462,0.0091,-0.0032,0.1038,-0.0078,-1.40,-0.10,0.10,0,4.144,0.123,0.063,0.064,-0.003,-0.006,0.997,0.000,0.000,0.000,0.0090,7,1,0.00,0.00,0.00,0.0000,0.0000,0.0000,0.0000,0.0000,0.0000,0.0000,0.00,0.00,0.00,1.5620,0.2400,0.9090,1.2330,2.6980,0,0.0000,0.0000,0.0000,0.0000,0.0000,0
10354,0.0113,0.0533,0.0088,-0.0054,0.1177,-0.0079,-1.10,-0.09,0.11,0,4.133,0.251,0.005,-0.045,-0.002,-0.007,0.998,0.000,0.000,0.000,0.0090,20,-1,0.00,0.00,0.00,0.0000,0.0000,0.0000,0.0000,0.0000,0.0000,0.0000,0.00,0.00,0.00,1.5620,0.2400,0.9050,1.2300,2.6980,0,0.0000,0.0000,0.0000,0.0000,0.0000,0
10405,0.0113,0.0566,0.0089,-0.0046,0.1113,-0.0061,-0.87,-0.12,0.11,0,4.138,-0.070,0.026,0.355,-0.003,-0.008,0.999,0.000,0.000,0.000,0.0090,4,3,0.00,0.00,0.00,0.0000,0.0000,0.0000,0.0000,0.0000,0.0000,0.0000,0.00,0.00,0.00,1.5790,0.2290,0.9050,1.2300,2.6900,0,0.0000,0.0000,0.0000,0.0000,0.0000,0
10456,0.0123,0.0524,0.0095,0.0017,0.0683,-0.0018,-0.65,-0.13,0.11,0,4.138,0.139,0.019,-0.188,-0.002,-0.007,0.997,0.000,0.000,0.000,0.0090,0,0,0.00,0.00,0.00,0.0000,0.0000,0.0000,0.0000,0.0000,0.0000,0.0000,0.00,0.00,0.00,1.5790,0.2290,0.9080,1.2300,2.6900,0,0.0000,0.0000,0.0000,0.0000,0.0000,0
10508,0.0119,0.0523,0.0093,-0.0004,0.0523,-0.0022,-0.56,-0.14,0.12,0,4.138,0.150,-0.060,0.314,-0.003,-0.005,0.999,0.000,0.000,0.000,0.0090,-6,1,0.00,0.00,0.00,0.0000,0.0000,0.0000,0.0000,0.0000,0.0000,0.0000,0.00,0.00,0.00,1.5670,0.0000,0.9080,1.2300,2.7030,0,0.0000,0.0000,0.0000,0.0000,0.0000,0
10558,0.0117,0.0525,0.0092,-0.0014,0.0407,-0.0021,-0.49,-0.12,0.11,0,4.133,0.196,-0.411,0.120,-0.002,-0.008,1.000,0.000,0.000,0.000,0.0080,-13,6,0.00,0.00,0.00,0.0000,0.0000,0.0000,0.0000,0.0000,0.0000,0.0000,0.00,0.00,0.00,1.5670,0.0000,0.9070,1.2340,2.7030,0,0.0000,0.0000,0.0000,0.0000,0.0000,0
10609,0.0114,0.0511,0.0088,-0.0022,0.0234,-0.0039,-0.42,-0.06,0.11,0,4.138,0.381,-0.128,0.173,-0.004,-0.009,0.999,0.000,0.000,0.000,0.0110,0,2,0.00,0.00,0.00,0.0000,0.0000,0.0000,0.0000,0.0000,0.0000,0.0000,0.00,0.00,0.00,1.5370,0.0000,0.9070,1.2340,2.7030,0,0.0000,0.0000,0.0000,0.0000,0.0000,0
10660,0.0099,0.0557,0.0096,-0.0085,0.0382,0.0004,-0.39,-0.06,0.11,0,4.133,0.087,-0.074,0.308,-0.004,-0.007,0.997,0.000,0.000,0.000,0.0110,17,3,0.00,0.00,0.00,0.0000,0.0000,0.0000,0.0000,0.0000,0.0000,0.0000,0.00,0.00,0.00,1.5370,0.0000,0.9060,1.2290,2.7030,0,0.0000,0.0000,0.0000,0.0000,0.0000,0
10711,0.0073,0.0680,0.0098,-0.0202,0.0928,-0.0009,-0.63,0.03,0.11,0,4.138,0.217,-0.085,-0.195,-0.004,-0.008,0.999,0.000,0.000,0.000,0.0110,5,4,0.00,0.00,0.00,0.0000,0.0000,0.0000,0.0000,0.0000,0.0000,0.0000,0.00,0.00,0.00,0.0000,0.2330,0.9060,1.2290,2.6980,0,0.0000,0.0000,0.0000,0.0000,0.0000,0
10762,0.0068,0.0707,0.0106,-0.0190,0.0875,0.0024,-0.68,0.01,0.12,0,4.138,-0.014,0.313,0.261,-0.004,-0.006,0.998,0.000,0.000,0.000,0.0110,-6,0,0.00,0.00,0.00,0.0000,0.0000,0.0000,0.0000,0.0000,0.0000,0.0000,0.00,0.00,0.00,0.0000,0.2330,0.9040,1.2240,2.6980,0,0.0000,0.0000,0.0000,0.0000,0.0000,0
10813,0.0059,0.0671,0.0113,-0.0199,0.0541,0.0056,-0.42,-0.06,0.11,0,4.144,0.128,-0.080,-0.012,-0.001,-0.009,1.001,0.000,0.000,0.000,0.0090,-1,3,0.00,0.00,0.00,0.0000,0.0000,0.0000,0.0000,0.0000,0.0000,0.0000,0.00,0.00,0.00,1.5740,0.0000,0.9040,1.2240,2.6990,0,0.0000,0.0000,0.0000,0.0000,0.0000,0
10864,0.0075,0.0667,0.0106,-0.0073,0.0377,0.0000,-0.35,-0.10,0.11,0,4.133,0.251,0.080,0.107,-0.002,-0.005,0.997,0.000,0.000,0.000,0.0090,1,2,0.00,0.00,0.00,0.0000,0.0000,0.0000,0.0000,0.0000,0.0000,0.0000,0.00,0.00,0.00,1.5740,0.0000,0.9080,1.2230,2.6990,0,0.0000,0.0000,0.0000,0.0000,0.0000,0
10915,0.0056,0.0792,0.0096,-0.0155,0.0940,-0.0077,-0.76,-0.05,0.12,0,4.144,0.207,-0.011,0.170,-0.001,-0.005,1.000,0.000,0.000,0.000,0.0100,0,5,0.00,0.00,0.00,0.0000,0.0000,0.0000,0.0000,0.0000,0.0000,0.0000,0.00,0.00,0.00,0.0000,0.0000,0.9080,1.2230,2.6990,0,0.0000,0.0000,0.0000,0.0000,0.0000,0
10966,0.0058,0.0782,0.0100,-0.0103,0.0688,-0.0034,-0.54,-0.06,0.12,0,4.133,0.096,0.293,0.066,-0.002,-0.008,0.998,0.000,0.000,0.000,0.0100,-9,0,0.00,0.00,0.00,0.0000,0.0000,0.0000,0.0000,0.0000,0.0000,0.0000,0.00,0.00,0.00,0.0000,0.0000,0.9050,1.2350,2.6990,0,0.0000,0.0000,0.0000,0.0000,0.0000,0
11017,0.0045,0.0902,0.0092,-0.0144,0.1159,-0.0085,-0.96,-0.08,0.12,0,4.138,-0.036,0.021,-0.250,-0.002,-0.009,0.996,0.000,0.000,0.000,0.0090,-8,-4,0.00,0.00,0.00,0.0000,0.0000,0.0000,0.0000,0.0000,0.0000,0.0000,0.00,0.00,0.00,1.5720,0.0000,0.9050,1.2350,2.7040,0,0.0000,0.0000,0.0000,0.0000,0.0000,0
11068,0.0042,0.0904,0.0094,-0.0134,0.0946,-0.0051,-0.75,-0.12,0.12,0,4.138,0.015,-0.063,-0.139,-0.003,-0.007,0.997,0.000,0.000,0.000,0.0100,2,5,0.00,0.00,0.00,0.0000,0.0000,0.0000,0.0000,0.0000,0.0000,0.0000,0.00,0.00,0.00,1.5720,0.0000,0.9040,1.2300,2.7040,0,0.0000,0.0000,0.0000,0.0000,0.0000,0
11119,0.0057,0.0917,0.0098,-0.0023,0.0736,-0.0016,-0.47,-0.13,0.12,0,4.138,0.355,0.133,0.058,-0.003,-0.009,0.999,0.000,0.000,0.000,0.0110,-5,0,0.00,0.00,0.00,0.0000,0.0000,0.0000,0.0000,0.0000,0.0000,0.0000,0.00,0.00,0.00,1.5740,0.0000,0.9040,1.2300,2.7030,0,0.0000,0.0000,0.0000,0.0000,0.0000,0
11170,0.0045,0.0913,0.0105,-0.0068,0.0532,0.0021,-0.38,-0.14,0.12,0,4.133,0.181,0.213,0.046,-0.004,-0.008,1.000,0.000,0.000,0.000,0.0080,0,0,0.00,0.00,0.00,0.0000,0.0000,0.0000,0.0000,0.0000,0.0000,0.0000,0.00,0.00,0.00,1.5740,0.0000,0.9050,1.2240,2.7030,0,0.0000,0.0000,0.0000,0.0000,0.0000,0
11221,0.0045,0.0931,0.0095,-0.0055,0.0484,-0.0037,-0.32,-0.15,0.11,0,4.144,0.232,-0.069,-0.017,-0.004,-0.010,0.997,0.000,0.000,0.000,0.0090,0,-2,0.00,0.00,0.00,0.0000,0.0000,0.0000,0.0000,0.0000,0.0000,0.0000,0.00,0.00,0.00,1.5840,0.2210,0.9050,1.2240,2.7050,0,0.0000,0.0000,0.0000,0.0000,0.0000,0
11272,0.0041,0.0915,0.0093,-0.0068,0.0286,-0.0039,-0.15,-0.17,0.11,0,4.133,-0.114,0.054,0.250,-0.001,-0.008,1.000,0.000,0.000,0.000,0.0110,14,0,0.00,0.00,0.00,0.0000,0.0000,0.0000,0.0000,0.0000,0.0000,0.0000,0.00,0.00,0.00,1.5840,0.2210,0.9070,1.2300,2.7050,0,0.0000,0.0000,0.0000,0.0000,0.0000,0
11323,0.0045,0.0944,0.0099,-0.0026,0.0352,-0.0004,-0.09,-0.17,0.11,0,4.138,0.291,-0.352,-0.235,-0.004,-0.008,0.998,0.000,0.000,0.000,0.0100,5,6,0.00,0.00,0.00,0.0000,0.0000,0.0000,0.0000,0.0000,0.0000,0.0000,0.00,0.00,0.00,1.5520,0.2330,0.9070,1.2300,2.6970,0,0.0000,0.0000,0.0000,0.0000,0.0000,0
11374,0.0049,0.0932,0.0100,0.0007,0.0199,0.0000,-0.08,-0.15,0.11,0,4.133,0.103,0.232,-0.026,-0.002,-0.009,0.997,0.000,0.000,0.000,0.0120,3,0,0.00,0.00,0.00,0.0000,0.0000,0.0000,0.0000,0.0000,0.0000,0.0000,0.00,0.00,0.00,1.5520,0.2330,0.9030,1.2270,2.6970,0,0.0000,0.0000,0.0000,0.0000,0.0000,0
11425,0.0047,0.0933,0.0109,-0.0002,0.0137,0.0043,-0.07,-0.20,0.11,0,4.138,0.302,0.048,-0.003,-0.002,-0.006,0.999,0.000,0.000,0.000,0.0090,0,0,0.00,0.00,0.00,0.0000,0.0000,0.0000,0.0000,0.0000,0.0000,0.0000,0.00,0.00,0.00,1.5740,0.0000,0.9030,1.2270,2.7060,0,0.0000,0.0000,0.0000,0.0000,0.0000,0
11476,0.0051,0.0915,0.0102,0.0026,-0.0015,-0.0005,0.00,-0.21,0.10,0,4.133,0.008,0.160,0.001,-0.002,-0.008,1.001,0.000,0.000,0.000,0.0090,45,-15,0.00,0.00,0.00,0.0000,0.0000,0.0000,0.0000,0.0000,0.0000,0.0000,0.00,0.00,0.00,1.5740,0.0000,0.9020,1.2300,2.7060,0,0.0000,0.0000,0.0000,0.0000,0.0000,0
11527,0.0036,0.0904,0.0097,-0.0054,-0.0112,-0.0030,0.48,-0.29,0.11,0,4.138,-0.038,0.071,-0.037,-0.001,-0.006,0.999,0.000,0.000,0.000,0.0110,30,-3,0.00,0.00,0.00,0.0000,0.0000,0.0000,0.0000,0.0000,0.0000,0.0000,0.00,0.00,0.00,1.5540,0.2330,0.9020,1.2300,2.7020,0,0.0000,0.0000,0.0000,0.0000,0.0000,0
11578,0.0063,0.0834,0.0105,0.0083,-0.0417,0.0021,0.52,-0.27,0.11,0,4.133,0.010,-0.219,0.327,-0.003,-0.006,0.999,0.000,0.000,0.000,0.0060,-14,4,0.00,0.00,0.00,0.0000,0.0000,0.0000,0.0000,0.0000,0.0000,0.0000,0.00,0.00,0.00,1.5540,0.2330,0.9050,1.2250,2.7020,0,0.0000,0.0000,0.0000,0.0000,0.0000,0
11629,0.0078,0.0747,0.0086,0.0149,-0.0793,-0.0088,0.33,-0.24,0.11,0,4.138,0.091,0.020,-0.112,-0.002,-0.007,0.998,0.000,0.000,0.000,0.0110,-8,0,0.00,0.00,0.00,0.0000,0.0000,0.0000,0.0000,0.0000,0.0000,0.0000,0.00,0.00,0.00,1.5660,0.2340,0.9050,1.2250,2.6990,0,0.0000,0.0000,0.0000,0.0000,0.0000,0
11681,0.0069,0.0760,0.0097,0.0081,-0.0604,-0.0003,0.19,-0.22,0.12,0,4.138,0.218,0.060,-0.310,-0.002,-0.006,0.998,0.000,0.000,0.000,0.0080,-10,1,0.00,0.00,0.00,0.0000,0.0000,0.0000,0.0000,0.0000,0.0000,0.0000,0.00,0.00,0.00,1.5660,0.2340,0.9050,1.2390,2.6990,0,0.0000,0.0000,0.0000,0.0000,0.0000,0
11732,0.0081,0.0837,0.0093,0.0135,-0.0096,-0.0027,-0.24,-0.25,0.10,0,4.138,0.135,-0.038,-0.168,-0.000,-0.008,1.000,0.000,0.000,0.000,0.0070,1,0,0.00,0.00,0.00,0.0000,0.0000,0.0000,0.0000,0.0000,0.0000,0.0000,0.00,0.00,0.00,1.5700,0.2400,0.9050,1.2390,2.7030,0,0.0000,0.0000,0.0000,0.0000,0.0000,0
11784,0.0078,0.0889,0.0082,0.0096,0.0170,-0.0081,-0.35,-0.22,0.10,0,4.133,0.163,-0.024,0.027,-0.004,-0.009,0.998,0.000,0.000,0.000,0.0140,-20,7,0.00,0.00,0.00,0.0000,0.0000,0.0000,0.0000,0.0000,0.0000,0.0000,0.00,0.00,0.00,1.5700,0.2400,0.9060,1.2230,2.7030,0,0.0000,0.0000,0.0000,0.0000,0.0000,0
11835,0.0072,0.1017,0.0099,0.0051,0.0784,0.0022,-1.00,-0.11,0.10,0,4.138,0.114,-0.059,-0.112,-0.005,-0.006,0.997,0.000,0.000,0.000,0.0100,6,0,0.00,0.00,0.00,0.0000,0.0000,0.0000,0.0000,0.0000,0.0000,0.0000,0.00,0.00,0.00,1.5530,0.2360,0.9060,1.2230,2.6990,0,0.0000,0.0000,0.0000,0.0000,0.0000,0
11886,0.0059,0.1065,0.0100,-0.0021,0.0846,0.0024,-0.75,-0.13,0.10,0,4.133,0.081,-0.253,-0.200,-0.003,-0.006,1.001,0.000,0.000,0.000,0.0100,-5,1,0.00,0.00,0.00,0.0000,0.0000,0.0000,0.0000,0.0000,0.0000,0.0000,0.00,0.00,0.00,1.5530,0.2360,0.9040,1.2250,2.6990,0,0.0000,0.0000,0.0000,0.0000,0.0000,0
11937,0.0072,0.1066,0.0103,0.0049,0.0680,0.0027,-0.69,-0.17,0.09,0,4.138,0.301,-0.018,0.170,-0.004,-0.008,0.997,0.000,0.000,0.000,0.0090,-6,1,0.00,0.00,0.00,0.0000,0.0000,0.0000,0.0000,0.0000,0.0000,0.0000,0.00,0.00,0.00,0.0000,0.0000,0.9040,1.2250,2.7070,0,0.0000,0.0000,0.0000,0.0000,0.0000,0
11988,0.0074,0.1108,0.0099,0.0050,0.0717,-0.0005,-0.71,-0.17,0.09,0,4.138,-0.062,-0.207,-0.010,-0.003,-0.008,1.002,0.000,0.000,0.000,0.0100,-20,9,0.00,0.00,0.00,0.0000,0.0000,0.0000,0.0000,0.0000,0.0000,0.0000,0.00,0.00,0.00,0.0000,0.0000,0.9050,1.2260,2.7070,0,0.0000,0.0000,0.0000,0.0000,0.0000,0
12039,0.0076,0.1188,0.0098,0.0056,0.0973,-0.0019,-1.00,-0.09,0.09,0,4.144,0.217,0.210,-0.107,-0.002,-0.006,0.999,0.000,0.000,0.000,0.0120,8,0,0.00,0.00,0.00,0.0000,0.0000,0.0000,0.0000,0.0000,0.0000,0.0000,0.00,0.00,0.00,1.5910,0.2330,0.9050,1.2260,2.6930,0,0.0000,0.0000,0.0000,0.0000,0.0000,0
12090,0.0055,0.1187,0.0113,-0.0063,0.0703,0.0076,-0.49,-0.09,0.08,0,4.133,0.197,-0.051,-0.002,-0.003,-0.007,1.001,0.000,0.000,0.000,0.0090,35,1,0.00,0.00,0.00,0.0000,0.0000,0.0000,0.0000,0.0000,0.0000,0.0000,0.00,0.00,0.00,1.5910,0.2330,0.9060,1.2300,2.6930,0,0.0000,0.0000,0.0000,0.0000,0.0000,0
12141,0.0050,0.1228,0.0105,-0.0077,0.0768,0.0006,-0.26,-0.08,0.08,0,4.138,0.055,0.270,-0.006,-0.001,-0.006,0.998,0.000,0.000,0.000,0.0100,-7,-2,0.00,0.00,0.00,0.0000,0.0000,0.0000,0.0000,0.0000,0.0000,0.0000,0.00,0.00,0.00,1.5720,0.2280,0.9060,1.2300,2.6970,0,0.0000,0.0000,0.0000,0.0000,0.0000,0
12193,0.0046,0.1142,0.0108,-0.0084,0.0191,0.0018,-0.23,-0.11,0.08,0,4.138,0.087,0.143,0.405,-0.003,-0.008,0.998,0.000,0.000,0.000,0.0110,0,0,0.00,0.00,0.00,0.0000,0.0000,0.0000,0.0000,0.0000,0.0000,0.0000,0.00,0.00,0.00,1.5720,0.2280,0.9030,1.2340,2.6970,0,0.0000,0.0000,0.0000,0.0000,0.0000,0
12245,0.0055,0.1193,0.0110,-0.0018,0.0387,0.0015,-0.34,-0.14,0.09,0,4.138,0.087,-0.096,0.143,-0.002,-0.007,0.999,0.000,0.000,0.000,0.0120,-32,1,0.00,0.00,0.00,0.0000,0.0000,0.0000,0.0000,0.0000,0.0000,0.0000,0.00,0.00,0.00,1.5680,0.2310,0.9030,1.2340,2.7040,0,0.0000,0.0000,0.0000,0.0000,0.0000,0
12296,0.0048,0.1241,0.0114,-0.0049,0.0546,0.0028,-0.75,-0.11,0.10,0,4.138,-0.039,-0.040,0.424,-0.004,-0.008,0.998,0.000,0.000,0.000,0.0090,-1,0,0.00,0.00,0.00,0.0000,0.0000,0.0000,0.0000,0.0000,0.0000,0.0000,0.00,0.00,0.00,1.5680,0.2310,0.9070,1.2290,2.7040,0,0.0000,0.0000,0.0000,0.0000,0.0000,0
12347,0.0048,0.1302,0.0105,-0.0038,0.0687,-0.0028,-0.55,-0.13,0.10,0,4.138,0.169,0.239,0.185,-0.003,-0.009,1.000,0.000,0.000,0.000,0.0100,8,0,0.00,0.00,0.00,0.0000,0.0000,0.0000,0.0000,0.0000,0.0000,0.0000,0.00,0.00,0.00,1.5530,0.0000,0.9070,1.2290,2.7050,0,0.0000,0.0000,0.0000,0.0000,0.0000,0
12399,0.0046,0.1325,0.0103,-0.0042,0.0635,-0.0037,-0.41,-0.13,0.10,0,4.133,0.322,-0.080,-0.164,-0.001,-0.008,0.997,0.000,0.000,0.000,0.0050,21,20,0.00,0.00,0.00,0.0000,0.0000,0.0000,0.0000,0.0000,0.0000,0.0000,0.00,0.00,0.00,1.5530,0.0000,0.9040,1.2370,2.7050,0,0.0000,0.0000,0.0000,0.0000,0.0000,0
12450,0.0055,0.1260,0.0082,0.0018,0.0137,-0.0140,0.10,0.03,0.09,0,4.138,-0.100,-0.127,0.101,-0.002,-0.006,0.997,0.000,0.000,0.000,0.0070,-6,5,0.00,0.00,0.00,0.0000,0.0000,0.0000,0.0000,0.0000,0.0000,0.0000,0.00,0.00,0.00,1.5860,0.0000,0.9040,1.2370,2.6960,0,0.0000,0.0000,0.0000,0.0000,0.0000,0
12501,0.0025,0.1197,0.0073,-0.0110,-0.0221,-0.0153,0.06,-0.04,0.10,0,4.133,-0.062,-0.174,0.122,-0.002,-0.007,0.999,0.000,0.000,0.000,0.0100,22,-6,0.00,0.00,0.00,0.0000,0.0000,0.0000,0.0000,0.0000,0.0000,0.0000,0.00,0.00,0.00,1.5860,0.0000,0.9080,1.2310,2.6960,0,0.0000,0.0000,0.0000,0.0000,0.0000,0
12552,0.0007,0.1202,0.0081,-0.0176,-0.0192,-0.0070,0.29,-0.09,0.09,0,4.138,0.075,-0.084,0.140,-0.000,-0.006,0.999,0.000,0.000,0.000,0.0090,5,1,0.00,0.00,0.00,0.0000,0.0000,0.0000,0.0000,0.0000,0.0000,0.0000,0.00,0.00,0.00,1.5860,0.0000,0.9080,1.2310,2.6950,0,0.0000,0.0000,0.0000,0.0000,0.0000,0
12603,-0.0010,0.1164,0.0083,-0.0241,-0.0360,-0.0046,0.22,0.02,0.10,0,4.133,0.055,0.012,0.009,-0.005,-0.008,0.996,0.000,0.000,0.000,0.0110,-6,0,0.00,0.00,0.00,0.0000,0.0000,0.0000,0.0000,0.0000,0.0000,0.0000,0.00,0.00,0.00,1.5860,0.0000,0.9040,1.2270,2.6950,0,0.0000,0.0000,0.0000,0.0000,0.0000,0
12655,-0.0007,0.1153,0.0095,-0.0182,-0.0369,0.0022,0.08,-0.04,0.09,0,4.144,-0.346,0.098,0.261,-0.006,-0.008,1.000,0.000,0.000,0.000,0.0080,30,5,0.00,0.00,0.00,0.0000,0.0000,0.0000,0.0000,0.0000,0.0000,0.0000,0.00,0.00,0.00,1.5760,0.2280,0.9040,1.2270,2.7020,0,0.0000,0.0000,0.0000,0.0000,0.0000,0
12706,-0.0003,0.1106,0.0089,-0.0122,-0.0585,-0.0022,0.53,-0.05,0.08,0,4.133,0.225,-0.008,-0.481,-0.006,-0.007,0.998,0.000,0.000,0.000,0.0120,0,4,0.00,0.00,0.00,0.0000,0.0000,0.0000,0.0000,0.0000,0.0000,0.0000,0.00,0.00,0.00,1.5760,0.2280,0.9020,1.2310,2.7020,0,0.0000,0.0000,0.0000,0.0000,0.0000,0
12757,-0.0009,0.1007,0.0099,-0.0125,-0.0978,0.0031,0.50,-0.06,0.08,0,4.138,0.035,-0.043,0.051,-0.001,-0.007,1.000,0.000,0.000,0.000,0.0100,18,-1,0.00,0.00,0.00,0.0000,0.0000,0.0000,0.0000,0.0000,0.0000,0.0000,0.00,0.00,0.00,1.5690,0.2300,0.9020,1.2310,2.7010,0,0.0000,0.0000,0.0000,0.0000,0.0000,0
12808,-0.0044,0.0987,0.0103,-0.0294,-0.0926,0.0034,0.58,0.03,0.09,0,4.133,-0.177,-0.153,0.128,-0.003,-0.008,0.999,0.000,0.000,0.000,0.0090,32,-21,0.00,0.00,0.00,0.0000,0.0000,0.0000,0.0000,0.0000,0.0000,0.0000,0.00,0.00,0.00,1.5690,0.2300,0.9080,1.2250,2.7010,0,0.0000,0.0000,0.0000,0.0000,0.0000,0
12859,-0.0034,0.0936,0.0100,-0.0179,-0.1014,0.0004,0.72,-0.26,0.06,0,4.138,0.014,0.254,0.142,-0.002,-0.008,0.999,0.000,0.000,0.000,0.0090,-1,1,0.00,0.00,0.00,0.0000,0.0000,0.0000,0.0000,0.0000,0.0000,0.0000,0.00,0.00,0.00,1.5930,0.0000,0.9080,1.2250,2.7030,0,0.0000,0.0000,0.0000,0.0000,0.0000,0
12910,0.0013,0.0873,0.0099,0.0068,-0.1108,-0.0006,0.42,-0.24,0.06,0,4.133,0.162,0.078,0.181,-0.004,-0.007,0.996,0.000,0.000,0.000,0.0070,-4,3,0.00,0.00,0.00,0.0000,0.0000,0.0000,0.0000,0.0000,0.0000,0.0000,0.00,0.00,0.00,1.5930,0.0000,0.9030,1.2250,2.7030,0,0.0000,0.0000,0.0000,0.0000,0.0000,0
12961,0.0015,0.0872,0.0091,0.0067,-0.0894,-0.0051,0.18,-0.22,0.06,0,4.138,0.138,0.122,0.058,-0.004,-0.008,1.000,0.000,0.000,0.000,0.0110,0,1,0.00,0.00,0.00,0.0000,0.0000,0.0000,0.0000,0.0000,0.0000,0.0000,0.00,0.00,0.00,1.5730,0.0000,0.9030,1.2250,2.7020,0,0.0000,0.0000,0.0000,0.0000,0.0000,0
13012,0.0007,0.0900,0.0101,0.0014,-0.0553,0.0022,-0.07,-0.20,0.06,0,4.133,0.019,0.303,-0.038,-0.002,-0.008,1.000,0.000,0.000,0.000,0.0100,15,6,0.00,0.00,0.00,0.0000,0.0000,0.0000,0.0000,0.0000,0.0000,0.0000,0.00,0.00,0.00,1.5730,0.0000,0.9080,1.2280,2.7020,0,0.0000,0.0000,0.0000,0.0000,0.0000,0
13063,0.0045,0.0982,0.0102,0.0212,-0.0018,0.0026,-0.36,-0.30,0.05,0,4.138,0.009,-0.104,0.030,-0.003,-0.007,0.999,0.000,0.000,0.000,0.0100,1,3,0.00,0.00,0.00,0.0000,0.0000,0.0000,0.0000,0.0000,0.0000,0.0000,0.00,0.00,0.00,1.5940,0.0000,0.9080,1.2280,2.7020,0,0.0000,0.0000,0.0000,0.0000,0.0000,0
13114,0.0036,0.0916,0.0103,0.0131,-0.0336,0.0022,-0.24,-0.25,0.05,0,4.133,0.185,-0.055,0.130,-0.001,-0.008,0.997,0.000,0.000,0.000,0.0120,18,10,0.00,0.00,0.00,0.0000,0.0000,0.0000,0.0000,0.0000,0.0000,0.0000,0.00,0.00,0.00,1.5940,0.0000,0.9060,1.2230,2.7020,0,0.0000,0.0000,0.0000,0.0000,0.0000,0
13165,0.0056,0.0945,0.0112,0.0224,-0.0097,0.0062,-0.28,-0.24,0.05,0,4.138,0.238,0.205,0.111,-0.001,-0.005,1.000,0.000,0.000,0.000,0.0100,-20,6,0.00,0.00,0.00,0.0000,0.0000,0.0000,0.0000,0.0000,0.0000,0.0000,0.00,0.00,0.00,1.5580,0.2270,0.9060,1.2230,2.7050,0,0.0000,0.0000,0.0000,0.0000,0.0000,0
13216,0.0031,0.0871,0.0110,0.0063,-0.0442,0.0029,-0.36,-0.14,0.05,0,4.133,-0.299,-0.078,0.154,-0.004,-0.008,0.999,0.000,0.000,0.000,0.0110,4,6,0.00,0.00,0.00,0.0000,0.0000,0.0000,0.0000,0.0000,0.0000,0.0000,0.00,0.00,0.00,1.5580,0.2270,0.9060,1.2350,2.7050,0,0.0000,0.0000,0.0000,0.0000,0.0000,0
13267,0.0030,0.0913,0.0113,0.0052,-0.0158,0.0033,-0.36,-0.12,0.05,0,4.138,0.145,-0.251,-0.243,-0.004,-0.008,0.998,0.000,0.000,0.000,0.0090,-1,1,0.00,0.00,0.00,0.0000,0.0000,0.0000,0.0000,0.0000,0.0000,0.0000,0.00,0.00,0.00,1.5750,0.0000,0.9060,1.2350,2.6990,0,0.0000,0.0000,0.0000,0.0000,0.0000,0
13318,0.0025,0.0903,0.0104,0.0023,-0.0171,-0.0023,-0.40,-0.15,0.05,0,4.133,0.092,0.264,0.025,-0.002,-0.006,0.997,0.000,0.000,0.000,0.0080,-2,7,0.00,0.00,0.00,0.0000,0.0000,0.0000,0.0000,0.0000,0.0000,0.0000,0.00,0.00,0.00,1.5750,0.0000,0.9060,1.2330,2.6990,0,0.0000,0.0000,0.0000,0.0000,0.0000,0
13369,0.0020,0.0849,0.0093,-0.0001,-0.0425,-0.0090,-0.22,-0.07,0.05,0,4.138,0.081,-0.015,0.110,-0.002,-0.008,0.998,0.000,0.000,0.000,0.0060,4,0,0.00,0.00,0.00,0.0000,0.0000,0.0000,0.0000,0.0000,0.0000,0.0000,0.00,0.00,0.00,1.5700,0.0000,0.9060,1.2330,2.7090,0,0.0000,0.0000,0.0000,0.0000,0.0000,0
13420,0.0001,0.0746,0.0071,-0.0089,-0.0889,-0.0195,0.17,-0.07,0.05,0,4.133,0.070,0.065,0.016,-0.001,-0.006,0.999,0.000,0.000,0.000,0.0100,20,-3,0.00,0.00,0.00,0.0000,0.0000,0.0000,0.0000,0.0000,0.0000,0.0000,0.00,0.00,0.00,1.5700,0.0000,0.9060,1.2350,2.7090,0,0.0000,0.0000,0.0000,0.0000,0.0000,0
13471,-0.0007,0.0735,0.0081,-0.0114,-0.0757,-0.0087,0.18,-0.07,0.05,0,4.138,0.357,-0.091,0.209,-0.004,-0.005,0.999,0.000,0.000,0.000,0.0080,4,-2,0.00,0.00,0.00,0.0000,0.0000,0.0000,0.0000,0.0000,0.0000,0.0000,0.00,0.00,0.00,0.0000,0.2270,0.9060,1.2350,2.6950,0,0.0000,0.0000,0.0000,0.0000,0.0000,0
13522,0.0003,0.0587,0.0069,-0.0049,-0.1341,-0.0142,0.44,-0.12,0.05,0,4.133,0.009,0.267,0.135,-0.004,-0.009,0.999,0.000,0.000,0.000,0.0090,-19,0,0.00,0.00,0.00,0.0000,0.0000,0.0000,0.0000,0.0000,0.0000,0.0000,0.00,0.00,0.00,0.0000,0.2270,0.9070,1.2300,2.6950,0,0.0000,0.0000,0.0000,0.0000,0.0000,0
13573,0.0005,0.0616,0.0086,-0.0026,-0.0911,-0.0011,-0.17,-0.11,0.05,0,4.138,0.062,-0.096,-0.101,-0.003,-0.009,0.998,0.000,0.000,0.000,0.0110,0,2,0.00,0.00,0.00,0.0000,0.0000,0.0000,0.0000,0.0000,0.0000,0.0000,0.00,0.00,0.00,1.5650,0.0000,0.9070,1.2300,2.6940,0,0.0000,0.0000,0.0000,0.0000,0.0000,0
13624,0.0009,0.0635,0.0099,-0.0003,-0.0643,0.0057,-0.22,-0.12,0.05,0,4.133,0.254,-0.082,0.103,-0.004,-0.008,1.001,0.000,0.000,0.000,0.0080,16,-3,0.00,0.00,0.00,0.0000,0.0000,0.0000,0.0000,0.0000,0.0000,0.0000,0.00,0.00,0.00,1.5650,0.0000,0.9070,1.2320,2.6940,0,0.0000,0.0000,0.0000,0.0000,0.0000,0
13675,0.0005,0.0692,0.0095,-0.0031,-0.0193,0.0021,-0.42,-0.15,0.05,0,4.138,0.104,0.181,0.033,-0.005,-0.010,0.998,0.000,0.000,0.000,0.0100,2,0,0.00,0.00,0.00,0.0000,0.0000,0.0000,0.0000,0.0000,0.0000,0.0000,0.00,0.00,0.00,1.5720,0.0000,0.9070,1.2320,2.7010,0,0.0000,0.0000,0.0000,0.0000,0.0000,0
13726,0.0009,0.0666,0.0098,-0.0009,-0.0253,0.0026,-0.50,-0.15,0.05,0,4.133,-0.083,0.050,0.262,-0.004,-0.008,1.000,0.000,0.000,0.000,0.0070,5,-4,0.00,0.00,0.00,0.0000,0.0000,0.0000,0.0000,0.0000,0.0000,0.0000,0.00,0.00,0.00,1.5720,0.0000,0.9090,1.2380,2.7010,0,0.0000,0.0000,0.0000,0.0000,0.0000,0
13777,0.0003,0.0669,0.0087,-0.0044,-0.0167,-0.0046,-0.52,-0.16,0.05,0,4.138,0.083,-0.102,-0.094,-0.002,-0.006,0.999,0.000,0.000,0.000,0.0090,7,3,0.00,0.00,0.00,0.0000,0.0000,0.0000,0.0000,0.0000,0.0000,0.0000,0.00,0.00,0.00,1.5740,0.2270,0.9090,1.2380,2.6970,0,0.0000,0.0000,0.0000,0.0000,0.0000,0
13828,0.0023,0.0677,0.0087,0.0073,-0.0061,-0.0044,-0.57,-0.17,0.05,0,4.133,0.507,0.149,0.032,-0.005,-0.010,1.002,0.000,0.000,0.000,0.0100,-17,2,0.00,0.00,0.00,0.0000,0.0000,0.0000,0.0000,0.0000,0.0000,0.0000,0.00,0.00,0.00,1.5740,0.2270,0.9060,1.2310,2.6970,0,0.0000,0.0000,0.0000,0.0000,0.0000,0
13879,0.0011,0.0698,0.0091,0.0000,0.0099,-0.0008,-0.89,-0.12,0.05,0,4.138,0.304,0.060,-0.055,-0.002,-0.008,1.000,0.000,0.000,0.000,0.0090,9,12,0.00,0.00,0.00,0.0000,0.0000,0.0000,0.0000,0.0000,0.0000,0.0000,0.00,0.00,0.00,1.5790,0.2430,0.9060,1.2310,2.6980,0,0.0000,0.0000,0.0000,0.0000,0.0000,0
13931,0.0065,0.0680,0.0092,0.0287,-0.0018,-0.0006,-0.53,-0.25,0.06,0,4.133,0.120,0.078,0.228,-0.003,-0.008,0.998,0.000,0.000,0.000,0.0100,-26,7,0.00,0.00,0.00,0.0000,0.0000,0.0000,0.0000,0.0000,0.0000,0.0000,0.00,0.00,0.00,1.5790,0.2430,0.9030,1.2380,2.6980,0,0.0000,0.0000,0.0000,0.0000,0.0000,0
13982,0.0058,0.0720,0.0097,0.0193,0.0212,0.0010,-1.00,-0.21,0.06,0,4.144,0.329,0.076,-0.144,-0.003,-0.006,0.999,0.000,0.000,0.000,0.0100,-7,0,0.00,0.00,0.00,0.0000,0.0000,0.0000,0.0000,0.0000,0.0000,0.0000,0.00,0.00,0.00,1.5680,0.2260,0.9030,1.2380,2.7000,0,0.0000,0.0000,0.0000,0.0000,0.0000,0
14033,0.0038,0.0810,0.0098,0.0056,0.0623,0.0011,-1.10,-0.16,0.05,0,4.133,-0.046,-0.251,-0.138,-0.003,-0.008,1.000,0.000,0.000,0.000,0.0090,-27,2,0.00,0.00,0.00,0.0000,0.0000,0.0000,0.0000,0.0000,0.0000,0.0000,0.00,0.00,0.00,1.5680,0.2260,0.9030,1.2260,2.7000,0,0.0000,0.0000,0.0000,0.0000,0.0000,0
14084,0.0026,0.0847,0.0095,-0.0025,0.0710,-0.0014,-1.29,-0.07,0.04,0,4.138,0.031,-0.123,0.110,-0.004,-0.009,0.999,0.000,0.000,0.000,0.0090,-10,-3,0.00,0.00,0.00,0.0000,0.0000,0.0000,0.0000,0.0000,0.0000,0.0000,0.00,0.00,0.00,1.6010,0.0000,0.9030,1.2260,2.6980,0,0.0000,0.0000,0.0000,0.0000,0.0000,0
14135,-0.0018,0.0940,0.0088,-0.0263,0.1037,-0.0055,-1.33,0.06,0.03,0,4.133,0.147,0.182,0.243,-0.003,-0.007,1.000,0.000,0.000,0.000,0.0080,14,1,0.00,0.00,0.00,0.0000,0.0000,0.0000,0.0000,0.0000,0.0000,0.0000,0.00,0.00,0.00,1.6010,0.0000,0.9040,1.2250,2.6980,0,0.0000,0.0000,0.0000,0.0000,0.0000,0
14186,-0.0009,0.0970,0.0086,-0.0169,0.0984,-0.0057,-1.00,0.01,0.03,0,4.138,0.149,-0.014,-0.037,-0.001,-0.006,0.998,0.000,0.000,0.000,0.0100,26,-4,0.00,0.00,0.00,0.0000,0.0000,0.0000,0.0000,0.0000,0.0000,0.0000,0.00,0.00,0.00,1.5800,0.0000,0.9040,1.2250,2.6970,0,0.0000,0.0000,0.0000,0.0000,0.0000,0
14237,0.0018,0.0901,0.0098,0.0016,0.0412,0.0029,-0.41,-0.18,0.06,0,4.133,0.200,0.168,-0.064,-0.002,-0.009,1.000,0.000,0.000,0.000,0.0090,0,4,0.00,0.00,0.00,0.0000,0.0000,0.0000,0.0000,0.0000,0.0000,0.0000,0.00,0.00,0.00,1.5800,0.0000,0.9080,1.2260,2.6970,0,0.0000,0.0000,0.0000,0.0000,0.0000,0
14288,0.0036,0.0763,0.0093,0.0099,-0.0384,0.0003,-0.05,-0.16,0.05,0,4.138,0.049,-0.059,-0.249,-0.003,-0.009,0.997,0.000,0.000,0.000,0.0110,-13,0,0.00,0.00,0.00,0.0000,0.0000,0.0000,0.0000,0.0000,0.0000,0.0000,0.00,0.00,0.00,1.5660,0.2390,0.9080,1.2260,2.7020,0,0.0000,0.0000,0.0000,0.0000,0.0000,0
14339,0.0023,0.0781,0.0103,0.0016,-0.0236,0.0043,-0.30,-0.13,0.05,0,4.133,0.081,-0.045,-0.202,-0.002,-0.008,0.997,0.000,0.000,0.000,0.0090,3,-3,0.00,0.00,0.00,0.0000,0.0000,0.0000,0.0000,0.0000,0.0000,0.0000,0.00,0.00,0.00,1.5660,0.2390,0.9060,1.2270,2.7020,0,0.0000,0.0000,0.0000,0.0000,0.0000,0
14390,0.0035,0.0781,0.0099,0.0077,-0.0207,0.0006,-0.19,-0.20,0.05,0,4.138,0.109,-0.178,-0.082,-0.004,-0.010,0.997,0.000,0.000,0.000,0.0090,0,1,0.00,0.00,0.00,0.0000,0.0000,0.0000,0.0000,0.0000,0.0000,0.0000,0.00,0.00,0.00,1.5530,0.2260,0.9060,1.2270,2.7040,0,0.0000,0.0000,0.0000,0.0000,0.0000,0
14441,0.0023,0.0830,0.0097,-0.0007,0.0057,-0.0020,-0.42,-0.10,0.04,0,4.133,0.145,-0.343,0.074,-0.005,-0.006,0.998,0.000,0.000,0.000,0.0090,3,3,0.00,0.00,0.00,0.0000,0.0000,0.0000,0.0000,0.0000,0.0000,0.0000,0.00,0.00,0.00,1.5530,0.2260,0.9040,1.2260,2.7040,0,0.0000,0.0000,0.0000,0.0000,0.0000,0
14492,0.0023,0.0829,0.0093,-0.0006,0.0046,-0.0042,-0.38,-0.09,0.04,0,4.144,-0.090,-0.188,0.005,-0.001,-0.005,0.998,0.000,0.000,0.000,0.0140,4,-2,0.00,0.00,0.00,0.0000,0.0000,0.0000,0.0000,0.0000,0.0000,0.0000,0.00,0.00,0.00,1.5760,0.2280,0.9040,1.2260,2.7020,0,0.0000,0.0000,0.0000,0.0000,0.0000,0
14543,0.0021,0.0831,0.0112,-0.0009,0.0057,0.0058,-0.38,-0.13,0.04,0,4.133,0.070,0.119,-0.267,-0.002,-0.006,0.998,0.000,0.000,0.000,0.0070,-7,-1,0.00,0.00,0.00,0.0000,0.0000,0.0000,0.0000,0.0000,0.0000,0.0000,0.00,0.00,0.00,1.5760,0.2280,0.9050,1.2250,2.7020,0,0.0000,0.0000,0.0000,0.0000,0.0000,0
14594,0.0021,0.0810,0.0096,-0.0012,-0.0062,-0.0045,-0.38,-0.12,0.04,0,4.138,0.071,0.125,0.026,-0.004,-0.009,0.999,0.000,0.000,0.000,0.0110,-2,4,0.00,0.00,0.00,0.0000,0.0000,0.0000,0.0000,0.0000,0.0000,0.0000,0.00,0.00,0.00,1.5710,0.2340,0.9050,1.2250,2.7060,0,0.0000,0.0000,0.0000,0.0000,0.0000,0
14645,0.0031,0.0825,0.0101,0.0044,0.0015,-0.0003,-0.40,-0.12,0.05,0,4.133,0.052,-0.133,0.191,-0.004,-0.007,1.001,0.000,0.000,0.000,0.0090,-3,4,0.00,0.00,0.00,0.0000,0.0000,0.0000,0.0000,0.0000,0.0000,0.0000,0.00,0.00,0.00,1.5710,0.2340,0.9040,1.2280,2.7060,0,0.0000,0.0000,0.0000,0.0000,0.0000,0
14696,0.0021,0.0758,0.0097,-0.0018,-0.0368,-0.0029,-0.12,-0.08,0.06,0,4.138,0.144,0.038,0.062,-0.003,-0.008,0.998,0.000,0.000,0.000,0.0080,0,-5,0.00,0.00,0.00,0.0000,0.0000,0.0000,0.0000,0.0000,0.0000,0.0000,0.00,0.00,0.00,1.5790,0.0000,0.9040,1.2280,2.7080,0,0.0000,0.0000,0.0000,0.0000,0.0000,0
14747,0.0015,0.0744,0.0088,-0.0044,-0.0380,-0.0075,-0.10,-0.14,0.05,0,4.133,-0.033,-0.012,0.039,-0.004,-0.009,0.997,0.000,0.000,0.000,0.0100,14,4,0.00,0.00,0.00,0.0000,0.0000,0.0000,0.0000,0.0000,0.0000,0.0000,0.00,0.00,0.00,1.5790,0.0000,0.9040,1.2310,2.7080,0,0.0000,0.0000,0.0000,0.0000,0.0000,0
14798,0.0035,0.0681,0.0089,0.0064,-0.0649,-0.0064,0.21,-0.14,0.05,0,4.138,0.112,0.011,0.077,-0.005,-0.007,1.000,0.000,0.000,0.000,0.0110,-2,4,0.00,0.00,0.00,0.0000,0.0000,0.0000,0.0000,0.0000,0.0000,0.0000,0.00,0.00,0.00,1.5880,0.0000,0.9040,1.2310,2.7020,0,0.0000,0.0000,0.0000,0.0000,0.0000,0
14849,0.0035,0.0653,0.0097,0.0058,-0.0650,-0.0005,0.02,-0.14,0.05,0,4.133,-0.150,-0.025,0.132,-0.005,-0.010,0.998,0.000,0.000,0.000,0.0080,-15,4,0.00,0.00,0.00,0.0000,0.0000,0.0000,0.0000,0.0000,0.0000,0.0000,0.00,0.00,0.00,1.5880,0.0000,0.9060,1.2250,2.7020,0,0.0000,0.0000,0.0000,0.0000,0.0000,0
14900,0.0036,0.0627,0.0090,0.0047,-0.0665,-0.0049,-0.11,-0.13,0.06,0,4.138,0.061,0.138,0.161,-0.002,-0.007,0.998,0.000,0.000,0.000,0.0100,0,0,0.00,0.00,0.00,0.0000,0.0000,0.0000,0.0000,0.0000,0.0000,0.0000,0.00,0.00,0.00,1.5790,0.2430,0.9060,1.2250,2.7020,0,0.0000,0.0000,0.0000,0.0000,0.0000,0
14951,0.0030,0.0652,0.0096,0.0014,-0.0404,-0.0010,-0.18,-0.14,0.06,0,4.133,0.075,-0.128,0.197,-0.004,-0.006,0.999,0.000,0.000,0.000,0.0090,3,3,0.00,0.00,0.00,0.0000,0.0000,0.0000,0.0000,0.0000,0.0000,0.0000,0.00,0.00,0.00,1.5790,0.2430,0.9050,1.2360,2.7020,0,0.0000,0.0000,0.0000,0.0000,0.0000,0
15002,0.0032,0.0648,0.0094,0.0019,-0.0332,-0.0019,-0.22,-0.11,0.06,0,4.138,0.109,-0.090,0.046,-0.002,-0.009,0.997,0.000,0.000,0.000,0.0090,-8,3,0.00,0.00,0.00,0.0000,0.0000,0.0000,0.0000,0.0000,0.0000,0.0000,0.00,0.00,0.00,1.5720,0.2340,0.9050,1.2360,2.7020,0,0.0000,0.0000,0.0000,0.0000,0.0000,0
15054,0.0032,0.0633,0.0092,0.0020,-0.0343,-0.0025,-0.33,-0.11,0.06,0,4.133,0.270,0.050,0.098,-0.004,-0.007,0.999,0.000,0.000,0.000,0.0070,24,-4,0.00,0.00,0.00,0.0000,0.0000,0.0000,0.0000,0.0000,0.0000,0.0000,0.00,0.00,0.00,1.5720,0.2340,0.9070,1.2270,2.7020,0,0.0000,0.0000,0.0000,0.0000,0.0000,0
15105,0.0060,0.0627,0.0082,0.0176,-0.0316,-0.0071,-0.05,-0.29,0.05,0,4.138,0.085,-0.102,-0.188,-0.000,-0.009,0.998,0.000,0.000,0.000,0.0100,0,-3,0.00,0.00,0.00,0.0000,0.0000,0.0000,0.0000,0.0000,0.0000,0.0000,0.00,0.00,0.00,1.5570,0.0000,0.9070,1.2270,2.6990,0,0.0000,0.0000,0.0000,0.0000,0.0000,0
15156,0.0060,0.0580,0.0088,0.0144,-0.0497,-0.0028,-0.21,-0.21,0.06,0,4.133,0.062,0.293,0.122,-0.001,-0.005,1.000,0.000,0.000,0.000,0.0090,-21,8,0.00,0.00,0.00,0.0000,0.0000,0.0000,0.0000,0.0000,0.0000,0.0000,0.00,0.00,0.00,1.5570,0.0000,0.9040,1.2240,2.6990,0,0.0000,0.0000,0.0000,0.0000,0.0000,0
15207,0.0075,0.0525,0.0086,0.0186,-0.0683,-0.0038,-0.22,-0.17,0.06,0,4.144,-0.166,0.064,0.336,-0.003,-0.009,0.999,0.000,0.000,0.000,0.0090,3,0,0.00,0.00,0.00,0.0000,0.0000,0.0000,0.0000,0.0000,0.0000,0.0000,0.00,0.00,0.00,1.5710,0.2340,0.9040,1.2240,2.7000,0,0.0000,0.0000,0.0000,0.0000,0.0000,0
15259,0.0059,0.0609,0.0092,0.0074,-0.0111,0.0001,-0.45,-0.16,0.06,0,4.133,-0.072,0.017,0.400,-0.004,-0.008,1.000,0.000,0.000,0.000,0.0100,68,-2,0.00,0.00,0.00,0.0000,0.0000,0.0000,0.0000,0.0000,0.0000,0.0000,0.00,0.00,0.00,1.5710,0.2340,0.9040,1.2330,2.7000,0,0.0000,0.0000,0.0000,0.0000,0.0000,0
15309,0.0063,0.0462,0.0092,0.0081,-0.0867,-0.0024,0.70,-0.18,0.07,0,4.138,0.050,0.008,0.167,-0.003,-0.007,1.000,0.000,0.000,0.000,0.0090,0,0,0.00,0.00,0.00,0.0000,0.0000,0.0000,0.0000,0.0000,0.0000,0.0000,0.00,0.00,0.00,1.5850,0.0000,0.9040,1.2330,2.7060,0,0.0000,0.0000,0.0000,0.0000,0.0000,0
15360,0.0078,0.0321,0.0088,0.0133,-0.1343,-0.0040,0.45,-0.20,0.07,0,4.133,0.041,-0.111,-0.124,-0.004,-0.006,1.001,0.000,0.000,0.000,0.0080,51,-3,0.00,0.00,0.00,0.0000,0.0000,0.0000,0.0000,0.0000,0.0000,0.0000,0.00,0.00,0.00,1.5850,0.0000,0.9090,1.2260,2.7060,0,0.0000,0.0000,0.0000,0.0000,0.0000,0
15411,0.0081,0.0313,0.0090,0.0124,-0.1146,-0.0023,0.69,-0.22,0.07,0,4.144,0.061,0.223,0.110,-0.001,-0.005,0.998,0.000,0.000,0.000,0.0080,4,0,0.00,0.00,0.00,0.0000,0.0000,0.0000,0.0000,0.0000,0.0000,0.0000,0.00,0.00,0.00,0.0000,0.2360,0.9090,1.2260,2.6980,0,0.0000,0.0000,0.0000,0.0000,0.0000,0
15463,0.0089,0.0190,0.0085,0.0123,-0.1428,-0.0042,0.38,-0.18,0.07,0,4.128,0.173,0.074,-0.003,-0.003,-0.007,1.000,0.000,0.000,0.000,0.0080,-30,-4,0.00,0.00,0.00,0.0000,0.0000,0.0000,0.0000,0.0000,0.0000,0.0000,0.00,0.00,0.00,0.0000,0.2360,0.9070,1.2240,2.6980,0,0.0000,0.0000,0.0000,0.0000,0.0000,0
15513,0.0091,0.0238,0.0093,0.0108,-0.0856,0.0026,-0.41,-0.21,0.06,0,4.144,-0.042,-0.170,0.184,-0.000,-0.009,0.999,0.000,0.000,0.000,0.0110,-1,1,0.00,0.00,0.00,0.0000,0.0000,0.0000,0.0000,0.0000,0.0000,0.0000,0.00,0.00,0.00,1.5740,0.0000,0.9070,1.2240,2.7060,0,0.0000,0.0000,0.0000,0.0000,0.0000,0
15564,0.0094,0.0301,0.0104,0.0105,-0.0394,0.0085,-0.48,-0.16,0.06,0,4.133,0.001,0.095,-0.151,-0.001,-0.007,0.998,0.000,0.000,0.000,0.0100,-9,-5,0.00,0.00,0.00,0.0000,0.0000,0.0000,0.0000,0.0000,0.0000,0.0000,0.00,0.00,0.00,1.5740,0.0000,0.9080,1.2320,2.7060,0,0.0000,0.0000,0.0000,0.0000,0.0000,0
15616,0.0084,0.0291,0.0105,0.0027,-0.0359,0.0060,-0.57,-0.15,0.06,0,4.138,0.276,-0.090,0.125,-0.004,-0.009,0.998,0.000,0.000,0.000,0.0080,10,-2,0.00,0.00,0.00,0.0000,0.0000,0.0000,0.0000,0.0000,0.0000,0.0000,0.00,0.00,0.00,1.6020,0.2370,0.9080,1.2320,2.7030,0,0.0000,0.0000,0.0000,0.0000,0.0000,0
15666,0.0084,0.0267,0.0097,0.0015,-0.0411,-0.0007,-0.33,-0.12,0.06,0,4.133,-0.001,0.069,-0.145,-0.001,-0.005,0.999,0.000,0.000,0.000,0.0120,31,-3,0.00,0.00,0.00,0.0000,0.0000,0.0000,0.0000,0.0000,0.0000,0.0000,0.00,0.00,0.00,1.6020,0.2370,0.9060,1.2280,2.7030,0,0.0000,0.0000,0.0000,0.0000,0.0000,0
15717,0.0091,0.0150,0.0102,0.0039,-0.0925,0.0002,0.25,-0.15,0.07,0,4.138,-0.081,0.176,0.077,-0.004,-0.004,0.998,0.000,0.000,0.000,0.0100,1,0,0.00,0.00,0.00,0.0000,0.0000,0.0000,0.0000,0.0000,0.0000,0.0000,0.00,0.00,0.00,1.5830,0.2380,0.9060,1.2280,2.6990,0,0.0000,0.0000,0.0000,0.0000,0.0000,0
15768,0.0096,0.0068,0.0100,0.0051,-0.1104,-0.0008,0.07,-0.13,0.07,0,4.133,0.049,0.223,0.119,-0.002,-0.008,0.999,0.000,0.000,0.000,0.0090,-46,-3,0.00,0.00,0.00,0.0000,0.0000,0.0000,0.0000,0.0000,0.0000,0.0000,0.00,0.00,0.00,1.5830,0.2380,0.9060,1.2390,2.6990,0,0.0000,0.0000,0.0000,0.0000,0.0000,0
15819,0.0142,0.0116,0.0103,0.0291,-0.0602,0.0015,-0.78,-0.34,0.06,0,4.138,0.146,-0.009,0.042,-0.003,-0.006,0.998,0.000,0.000,0.000,0.0100,-3,-2,0.00,0.00,0.00,0.0000,0.0000,0.0000,0.0000,0.0000,0.0000,0.0000,0.00,0.00,0.00,1.5660,0.2350,0.9060,1.2390,2.7070,0,0.0000,0.0000,0.0000,0.0000,0.0000,0
15870,0.0138,0.0217,0.0106,0.0202,0.0008,0.0029,-0.81,-0.25,0.06,0,4.133,0.326,0.257,-0.075,-0.003,-0.009,1.000,0.000,0.000,0.000,0.0080,-7,-3,0.00,0.00,0.00,0.0000,0.0000,0.0000,0.0000,0.0000,0.0000,0.0000,0.00,0.00,0.00,1.5660,0.2350,0.9040,1.2280,2.7070,0,0.0000,0.0000,0.0000,0.0000,0.0000,0
15921,0.0142,0.0219,0.0097,0.0165,0.0041,-0.0035,-0.84,-0.23,0.06,0,4.138,-0.103,0.120,-0.060,-0.004,-0.006,0.998,0.000,0.000,0.000,0.0080,22,4,0.00,0.00,0.00,0.0000,0.0000,0.0000,0.0000,0.0000,0.0000,0.0000,0.00,0.00,0.00,0.0000,0.2240,0.9040,1.2280,2.7030,0,0.0000,0.0000,0.0000,0.0000,0.0000,0
15972,0.0134,0.0197,0.0090,0.0072,-0.0080,-0.0073,-0.46,-0.10,0.05,0,4.133,0.279,0.077,-0.095,-0.004,-0.007,0.998,0.000,0.000,0.000,0.0100,3,2,0.00,0.00,0.00,0.0000,0.0000,0.0000,0.0000,0.0000,0.0000,0.0000,0.00,0.00,0.00,0.0000,0.2240,0.9070,1.2330,2.7030,0,0.0000,0.0000,0.0000,0.0000,0.0000,0
16023,0.0122,0.0212,0.0093,-0.0008,0.0083,-0.0039,-0.74,-0.06,0.04,0,4.138,0.199,-0.191,-0.164,-0.003,-0.006,0.999,0.000,0.000,0.000,0.0090,-6,-2,0.00,0.00,0.00,0.0000,0.0000,0.0000,0.0000,0.0000,0.0000,0.0000,0.00,0.00,0.00,1.5690,0.0000,0.9070,1.2330,2.7050,0,0.0000,0.0000,0.0000,0.0000,0.0000,0
16074,0.0128,0.0174,0.0091,0.0022,-0.0122,-0.0046,-0.64,-0.12,0.05,0,4.133,0.052,-0.088,-0.117,-0.004,-0.006,1.000,0.000,0.000,0.000,0.0070,0,0,0.00,0.00,0.00,0.0000,0.0000,0.0000,0.0000,0.0000,0.0000,0.0000,0.00,0.00,0.00,1.5690,0.0000,0.9060,1.2310,2.7050,0,0.0000,0.0000,0.0000,0.0000,0.0000,0
16126,0.0126,0.0174,0.0081,0.0005,-0.0085,-0.0087,-0.59,-0.09,0.05,0,4.144,0.123,0.095,-0.017,-0.001,-0.007,0.999,0.000,0.000,0.000,0.0070,-6,-12,0.00,0.00,0.00,0.0000,0.0000,0.0000,0.0000,0.0000,0.0000,0.0000,0.00,0.00,0.00,1.5610,0.0000,0.9060,1.2310,2.6930,0,0.0000,0.0000,0.0000,0.0000,0.0000,0
16176,0.0103,0.0179,0.0074,-0.0128,-0.0030,-0.0106,-0.67,-0.10,0.05,0,4.133,-0.135,0.268,0.185,-0.002,-0.008,0.999,0.000,0.000,0.000,0.0100,9,6,0.00,0.00,0.00,0.0000,0.0000,0.0000,0.0000,0.0000,0.0000,0.0000,0.00,0.00,0.00,1.5610,0.0000,0.9040,1.2290,2.6930,0,0.0000,0.0000,0.0000,0.0000,0.0000,0
16227,0.0136,0.0247,0.0082,0.0056,0.0347,-0.0042,-0.80,-0.09,0.05,0,4.138,-0.007,-0.237,0.131,-0.003,-0.008,1.000,0.000,0.000,0.000,0.0120,-2,6,0.00,0.00,0.00,0.0000,0.0000,0.0000,0.0000,0.0000,0.0000,0.0000,0.00,0.00,0.00,0.0000,0.2210,0.9040,1.2290,2.7010,0,0.0000,0.0000,0.0000,0.0000,0.0000,0
16279,0.0138,0.0244,0.0098,0.0061,0.0273,0.0049,-0.80,-0.09,0.05,0,4.133,0.270,-0.116,-0.119,-0.004,-0.010,0.998,0.000,0.000,0.000,0.0120,-26,3,0.00,0.00,0.00,0.0000,0.0000,0.0000,0.0000,0.0000,0.0000,0.0000,0.00,0.00,0.00,0.0000,0.2210,0.9070,1.2250,2.7010,0,0.0000,0.0000,0.0000,0.0000,0.0000,0
16330,0.0132,0.0407,0.0100,0.0015,0.1099,0.0027,-1.61,-0.09,0.06,0,4.138,-0.014,-0.100,0.033,-0.002,-0.006,0.999,0.000,0.000,0.000,0.0100,-1,-1,0.00,0.00,0.00,0.0000,0.0000,0.0000,0.0000,0.0000,0.0000,0.0000,0.00,0.00,0.00,1.5780,0.0000,0.9070,1.2250,2.6960,0,0.0000,0.0000,0.0000,0.0000,0.0000,0
16381,0.0132,0.0489,0.0101,-0.0000,0.1284,0.0022,-1.43,-0.11,0.06,0,4.133,0.000,-0.126,0.347,-0.002,-0.007,1.000,0.000,0.000,0.000,0.0120,17,0,0.00,0.00,0.00,0.0000,0.0000,0.0000,0.0000,0.0000,0.0000,0.0000,0.00,0.00,0.00,1.5780,0.0000,0.9070,1.2280,2.6960,0,0.0000,0.0000,0.0000,0.0000,0.0000,0
16432,0.0130,0.0452,0.0120,-0.0021,0.0822,0.0127,-0.85,-0.10,0.06,0,4.144,0.018,-0.048,0.012,-0.002,-0.008,1.000,0.000,0.000,0.000,0.0100,10,-2,0.00,0.00,0.00,0.0000,0.0000,0.0000,0.0000,0.0000,0.0000,0.0000,0.00,0.00,0.00,1.5650,0.0000,0.9070,1.2280,2.7040,0,0.0000,0.0000,0.0000,0.0000,0.0000,0
16483,0.0124,0.0408,0.0120,-0.0054,0.0442,0.0100,-0.60,-0.09,0.06,0,4.133,0.343,-0.261,-0.207,-0.002,-0.008,0.998,0.000,0.000,0.000,0.0100,3,-2,0.00,0.00,0.00,0.0000,0.0000,0.0000,0.0000,0.0000,0.0000,0.0000,0.00,0.00,0.00,1.5650,0.0000,0.9070,1.2270,2.7040,0,0.0000,0.0000,0.0000,0.0000,0.0000,0
16534,0.0128,0.0424,0.0114,-0.0031,0.0449,0.0041,-0.65,-0.11,0.06,0,4.138,-0.185,-0.216,0.187,-0.002,-0.006,0.998,0.000,0.000,0.000,0.0100,-20,2,0.00,0.00,0.00,0.0000,0.0000,0.0000,0.0000,0.0000,0.0000,0.0000,0.00,0.00,0.00,1.5920,0.2310,0.9070,1.2270,2.6980,0,0.0000,0.0000,0.0000,0.0000,0.0000,0
16586,0.0200,0.0509,0.0107,0.0351,0.0787,-0.0024,-1.09,-0.37,0.09,0,4.133,0.079,-0.059,-0.107,-0.003,-0.010,1.000,0.000,0.000,0.000,0.0100,2,3,0.00,0.00,0.00,0.0000,0.0000,0.0000,0.0000,0.0000,0.0000,0.0000,0.00,0.00,0.00,1.5920,0.2310,0.9020,1.2240,2.6980,0,0.0000,0.0000,0.0000,0.0000,0.0000,0
16636,0.0203,0.0595,0.0101,0.0295,0.1072,-0.0063,-1.06,-0.30,0.08,0,4.138,0.408,-0.152,0.061,-0.002,-0.008,0.997,0.000,0.000,0.000,0.0080,10,2,0.00,0.00,0.00,0.0000,0.0000,0.0000,0.0000,0.0000,0.0000,0.0000,0.00,0.00,0.00,1.5730,0.2260,0.9020,1.2240,2.7010,0,0.0000,0.0000,0.0000,0.0000,0.0000,0
16687,0.0192,0.0656,0.0090,0.0182,0.1185,-0.0116,-1.02,-0.21,0.07,0,4.133,0.048,0.138,0.263,-0.002,-0.008,0.998,0.000,0.000,0.000,0.0080,-24,2,0.00,0.00,0.00,0.0000,0.0000,0.0000,0.0000,0.0000,0.0000,0.0000,0.00,0.00,0.00,1.5730,0.2260,0.9050,1.2200,2.7010,0,0.0000,0.0000,0.0000,0.0000,0.0000,0
16738,0.0186,0.0635,0.0089,0.0115,0.0870,-0.0097,-1.06,-0.16,0.07,0,4.138,0.219,0.071,-0.004,-0.003,-0.005,0.999,0.000,0.000,0.000,0.0100,8,-1,0.00,0.00,0.00,0.0000,0.0000,0.0000,0.0000,0.0000,0.0000,0.0000,0.00,0.00,0.00,0.0000,0.0000,0.9050,1.2200,2.7000,0,0.0000,0.0000,0.0000,0.0000,0.0000,0
16790,0.0182,0.0707,0.0090,0.0072,0.1027,-0.0075,-0.83,-0.15,0.07,0,4.133,-0.037,-0.253,0.074,-0.000,-0.010,0.997,0.000,0.000,0.000,0.0100,-22,1,0.00,0.00,0.00,0.0000,0.0000,0.0000,0.0000,0.0000,0.0000,0.0000,0.00,0.00,0.00,0.0000,0.0000,0.9060,1.2320,2.7000,0,0.0000,0.0000,0.0000,0.0000,0.0000,0
16841,0.0184,0.0718,0.0095,0.0065,0.0869,-0.0026,-0.97,-0.13,0.07,0,4.138,0.291,-0.184,-0.065,-0.002,-0.009,1.001,0.000,0.000,0.000,0.0120,4,-3,0.00,0.00,0.00,0.0000,0.0000,0.0000,0.0000,0.0000,0.0000,0.0000,0.00,0.00,0.00,1.5630,0.0000,0.9060,1.2320,2.7000,0,0.0000,0.0000,0.0000,0.0000,0.0000,0
16893,0.0180,0.0722,0.0111,0.0031,0.0656,0.0074,-0.52,-0.14,0.07,0,4.133,-0.188,-0.154,-0.024,-0.003,-0.007,0.997,0.000,0.000,0.000,0.0110,-7,0,0.00,0.00,0.00,0.0000,0.0000,0.0000,0.0000,0.0000,0.0000,0.0000,0.00,0.00,0.00,1.5630,0.0000,0.9050,1.2350,2.7000,0,0.0000,0.0000,0.0000,0.0000,0.0000,0
16945,0.0182,0.0700,0.0114,0.0024,0.0398,0.0072,-0.41,-0.11,0.07,0,4.144,0.238,0.093,0.002,-0.001,-0.008,0.998,0.000,0.000,0.000,0.0120,1,4,0.00,0.00,0.00,0.0000,0.0000,0.0000,0.0000,0.0000,0.0000,0.0000,0.00,0.00,0.00,1.5860,0.2300,0.9050,1.2350,2.7060,0,0.0000,0.0000,0.0000,0.0000,0.0000,0
16996,0.0188,0.0731,0.0119,0.0053,0.0447,0.0071,-0.38,-0.10,0.07,0,4.133,-0.204,0.222,0.038,-0.002,-0.007,1.000,0.000,0.000,0.000,0.0100,9,4,0.00,0.00,0.00,0.0000,0.0000,0.0000,0.0000,0.0000,0.0000,0.0000,0.00,0.00,0.00,1.5860,0.2300,0.9050,1.2290,2.7060,0,0.0000,0.0000,0.0000,0.0000,0.0000,0
17047,0.0182,0.0684,0.0114,0.0007,0.0086,0.0027,-0.02,-0.06,0.07,0,4.144,-0.068,0.068,0.193,-0.004,-0.010,1.000,0.000,0.000,0.000,0.0100,-4,3,0.00,0.00,0.00,0.0000,0.0000,0.0000,0.0000,0.0000,0.0000,0.0000,0.00,0.00,0.00,1.5810,0.2330,0.9050,1.2290,2.6980,0,0.0000,0.0000,0.0000,0.0000,0.0000,0
17098,0.0178,0.0619,0.0108,-0.0015,-0.0273,-0.0004,0.11,-0.07,0.07,0,4.138,-0.124,-0.276,0.106,-0.003,-0.007,0.998,0.000,0.000,0.000,0.0090,-1,0,0.00,0.00,0.00,0.0000,0.0000,0.0000,0.0000,0.0000,0.0000,0.0000,0.00,0.00,0.00,1.5810,0.2330,0.9050,1.2250,2.6980,0,0.0000,0.0000,0.0000,0.0000,0.0000,0
17150,0.0174,0.0618,0.0101,-0.0033,-0.0256,-0.0050,0.08,-0.09,0.08,0,4.133,0.218,-0.163,-0.348,-0.003,-0.007,1.001,0.000,0.000,0.000,0.0090,1,2,0.00,0.00,0.00,0.0000,0.0000,0.0000,0.0000,0.0000,0.0000,0.0000,0.00,0.00,0.00,0.0000,0.2410,0.9050,1.2250,2.6960,0,0.0000,0.0000,0.0000,0.0000,0.0000,0
17200,0.0178,0.0631,0.0095,-0.0001,-0.0160,-0.0070,0.00,-0.10,0.08,0,4.133,-0.148,0.029,0.179,-0.002,-0.008,0.999,0.000,0.000,0.000,0.0120,-8,3,0.00,0.00,0.00,0.0000,0.0000,0.0000,0.0000,0.0000,0.0000,0.0000,0.00,0.00,0.00,0.0000,0.2410,0.9070,1.2330,2.6960,0,0.0000,0.0000,0.0000,0.0000,0.0000,0
17251,0.0180,0.0604,0.0104,0.0014,-0.0306,-0.0009,0.00,-0.10,0.08,0,4.138,0.052,0.066,0.045,-0.005,-0.006,0.999,0.000,0.000,0.000,0.0090,-7,0,0.00,0.00,0.00,0.0000,0.0000,0.0000,0.0000,0.0000,0.0000,0.0000,0.00,0.00,0.00,1.5800,0.0000,0.9070,1.2330,2.6980,0,0.0000,0.0000,0.0000,0.0000,0.0000,0
17302,0.0174,0.0618,0.0099,-0.0021,-0.0202,-0.0045,-0.09,-0.11,0.07,0,4.133,0.077,-0.029,0.059,-0.003,-0.009,0.999,0.000,0.000,0.000,0.0100,-5,1,0.00,0.00,0.00,0.0000,0.0000,0.0000,0.0000,0.0000,0.0000,0.0000,0.00,0.00,0.00,1.5800,0.0000,0.9060,1.2300,2.6980,0,0.0000,0.0000,0.0000,0.0000,0.0000,0
17353,0.0176,0.0665,0.0099,-0.0010,0.0066,-0.0039,-0.30,-0.11,0.07,0,4.138,0.369,-0.079,0.070,0.001,-0.009,0.998,0.000,0.000,0.000,0.0130,-2,1,0.00,0.00,0.00,0.0000,0.0000,0.0000,0.0000,0.0000,0.0000,0.0000,0.00,0.00,0.00,1.5700,0.2300,0.9060,1.2300,2.7040,0,0.0000,0.0000,0.0000,0.0000,0.0000,0
17404,0.0181,0.0789,0.0108,0.0027,0.0708,0.0002,-0.77,-0.14,0.07,0,4.138,-0.114,-0.026,0.291,-0.003,-0.008,1.000,0.000,0.000,0.000,0.0110,-12,3,0.00,0.00,0.00,0.0000,0.0000,0.0000,0.0000,0.0000,0.0000,0.0000,0.00,0.00,0.00,1.5700,0.2300,0.9060,1.2250,2.7040,0,0.0000,0.0000,0.0000,0.0000,0.0000,0
17455,0.0233,0.0788,0.0111,0.0299,0.0538,0.0011,-0.69,-0.33,0.05,0,4.133,0.132,0.019,0.196,-0.002,-0.005,0.998,0.000,0.000,0.000,0.0110,0,3,0.00,0.00,0.00,0.0000,0.0000,0.0000,0.0000,0.0000,0.0000,0.0000,0.00,0.00,0.00,1.5560,0.2390,0.9060,1.2250,2.7010,0,0.0000,0.0000,0.0000,0.0000,0.0000,0
17506,0.0208,0.0837,0.0111,0.0113,0.0655,0.0004,-0.66,-0.17,0.06,0,4.138,0.091,-0.116,-0.036,-0.002,-0.008,0.997,0.000,0.000,0.000,0.0090,21,0,0.00,0.00,0.00,0.0000,0.0000,0.0000,0.0000,0.0000,0.0000,0.0000,0.00,0.00,0.00,1.5560,0.2390,0.9060,1.2330,2.7010,0,0.0000,0.0000,0.0000,0.0000,0.0000,0
17557,0.0218,0.0796,0.0106,0.0142,0.0284,-0.0031,-0.16,-0.22,0.06,0,4.138,-0.025,-0.101,-0.011,-0.005,-0.007,0.999,0.000,0.000,0.000,0.0120,0,6,0.00,0.00,0.00,0.0000,0.0000,0.0000,0.0000,0.0000,0.0000,0.0000,0.00,0.00,0.00,1.5900,0.0000,0.9060,1.2330,2.6960,0,0.0000,0.0000,0.0000,0.0000,0.0000,0
17608,0.0228,0.0755,0.0111,0.0166,0.0011,0.0001,-0.14,-0.18,0.06,0,4.133,0.002,-0.117,-0.011,-0.002,-0.009,0.998,0.000,0.000,0.000,0.0100,0,-1,0.00,0.00,0.00,0.0000,0.0000,0.0000,0.0000,0.0000,0.0000,0.0000,0.00,0.00,0.00,1.5900,0.0000,0.9030,1.2270,2.6960,0,0.0000,0.0000,0.0000,0.0000,0.0000,0
17659,0.0218,0.0761,0.0107,0.0088,0.0022,-0.0026,-0.17,-0.18,0.06,0,4.138,0.214,0.019,0.447,-0.002,-0.007,0.999,0.000,0.000,0.000,0.0090,-5,4,0.00,0.00,0.00,0.0000,0.0000,0.0000,0.0000,0.0000,0.0000,0.0000,0.00,0.00,0.00,1.5850,0.2300,0.9030,1.2270,2.6980,0,0.0000,0.0000,0.0000,0.0000,0.0000,0
17710,0.0224,0.0743,0.0099,0.0100,-0.0088,-0.0059,-0.14,-0.14,0.06,0,4.138,-0.023,-0.186,0.093,-0.005,-0.008,0.999,0.000,0.000,0.000,0.0100,5,26,0.00,0.00,0.00,0.0000,0.0000,0.0000,0.0000,0.0000,0.0000,0.0000,0.00,0.00,0.00,1.5850,0.2300,0.9030,1.2290,2.6980,0,0.0000,0.0000,0.0000,0.0000,0.0000,0
17761,0.0230,0.0806,0.0098,0.0117,0.0258,-0.0060,-0.33,0.04,0.08,0,4.138,-0.177,-0.078,0.107,-0.005,-0.007,0.997,0.000,0.000,0.000,0.0090,-5,3,0.00,0.00,0.00,0.0000,0.0000,0.0000,0.0000,0.0000,0.0000,0.0000,0.00,0.00,0.00,1.5870,0.2320,0.9030,1.2290,2.6900,0,0.0000,0.0000,0.0000,0.0000,0.0000,0
17812,0.0185,0.0835,0.0093,-0.0125,0.0359,-0.0078,-0.50,0.00,0.08,0,4.138,0.239,0.130,0.068,-0.001,-0.007,0.999,0.000,0.000,0.000,0.0050,15,-5,0.00,0.00,0.00,0.0000,0.0000,0.0000,0.0000,0.0000,0.0000,0.0000,0.00,0.00,0.00,1.5870,0.2320,0.9070,1.2280,2.6900,0,0.0000,0.0000,0.0000,0.0000,0.0000,0
17864,0.0181,0.0792,0.0075,-0.0123,0.0027,-0.0161,-0.06,-0.08,0.07,0,4.138,0.235,-0.172,-0.032,-0.003,-0.008,0.997,0.000,0.000,0.000,0.0100,-3,-4,0.00,0.00,0.00,0.0000,0.0000,0.0000,0.0000,0.0000,0.0000,0.0000,0.00,0.00,0.00,1.5780,0.2370,0.9070,1.2280,2.7050,0,0.0000,0.0000,0.0000,0.0000,0.0000,0
17914,0.0182,0.0739,0.0080,-0.0103,-0.0266,-0.0103,-0.02,-0.09,0.07,0,4.133,0.150,-0.101,-0.162,-0.002,-0.005,0.998,0.000,0.000,0.000,0.0080,-9,4,0.00,0.00,0.00,0.0000,0.0000,0.0000,0.0000,0.0000,0.0000,0.0000,0.00,0.00,0.00,1.5780,0.2370,0.9070,1.2280,2.7050,0,0.0000,0.0000,0.0000,0.0000,0.0000,0
17965,0.0193,0.0790,0.0079,-0.0032,0.0055,-0.0087,-0.35,-0.07,0.08,0,4.138,0.215,-0.143,0.017,-0.003,-0.005,1.002,0.000,0.000,0.000,0.0090,6,2,0.00,0.00,0.00,0.0000,0.0000,0.0000,0.0000,0.0000,0.0000,0.0000,0.00,0.00,0.00,1.5840,0.2390,0.9070,1.2280,2.7060,0,0.0000,0.0000,0.0000,0.0000,0.0000,0
18016,0.0184,0.0813,0.0080,-0.0065,0.0145,-0.0064,-0.27,-0.07,0.08,0,4.133,0.172,-0.062,0.081,-0.001,-0.007,0.999,0.000,0.000,0.000,0.0100,-4,1,0.00,0.00,0.00,0.0000,0.0000,0.0000,0.0000,0.0000,0.0000,0.0000,0.00,0.00,0.00,1.5840,0.2390,0.9050,1.2250,2.7060,0,0.0000,0.0000,0.0000,0.0000,0.0000,0
18068,0.0197,0.0769,0.0087,0.0017,-0.0136,-0.0016,-0.16,-0.14,0.07,0,4.138,0.030,0.035,0.029,-0.002,-0.007,0.999,0.000,0.000,0.000,0.0100,4,-1,0.00,0.00,0.00,0.0000,0.0000,0.0000,0.0000,0.0000,0.0000,0.0000,0.00,0.00,0.00,1.5590,0.0000,0.9050,1.2250,2.7000,0,0.0000,0.0000,0.0000,0.0000,0.0000,0
18119,0.0191,0.0819,0.0093,-0.0015,0.0146,0.0013,-0.30,-0.13,0.07,0,4.138,0.115,-0.081,-0.134,-0.003,-0.007,0.999,0.000,0.000,0.000,0.0080,21,0,0.00,0.00,0.00,0.0000,0.0000,0.0000,0.0000,0.0000,0.0000,0.0000,0.00,0.00,0.00,1.5590,0.0000,0.9060,1.2240,2.7000,0,0.0000,0.0000,0.0000,0.0000,0.0000,0
18170,0.0234,0.0865,0.0087,0.0196,0.0363,-0.0028,-0.31,-0.28,0.07,0,4.138,0.258,-0.053,-0.263,-0.002,-0.009,0.998,0.000,0.000,0.000,0.0090,-1,-1,0.00,0.00,0.00,0.0000,0.0000,0.0000,0.0000,0.0000,0.0000,0.0000,0.00,0.00,0.00,1.5780,0.0000,0.9060,1.2240,2.6960,0,0.0000,0.0000,0.0000,0.0000,0.0000,0
18221,0.0235,0.0830,0.0090,0.0161,0.0111,-0.0018,-0.32,-0.25,0.07,0,4.133,0.332,0.003,0.044,-0.003,-0.009,1.001,0.000,0.000,0.000,0.0130,0,1,0.00,0.00,0.00,0.0000,0.0000,0.0000,0.0000,0.0000,0.0000,0.0000,0.00,0.00,0.00,1.5780,0.0000,0.9030,1.2360,2.6960,0,0.0000,0.0000,0.0000,0.0000,0.0000,0
18272,0.0244,0.0818,0.0107,0.0167,0.0003,0.0074,-0.23,-0.22,0.07,0,4.138,0.024,-0.337,-0.112,-0.005,-0.007,0.998,0.000,0.000,0.000,0.0080,1,-4,0.00,0.00,0.00,0.0000,0.0000,0.0000,0.0000,0.0000,0.0000,0.0000,0.00,0.00,0.00,1.5620,0.2350,0.9030,1.2360,2.7020,0,0.0000,0.0000,0.0000,0.0000,0.0000,0
18324,0.0249,0.0907,0.0098,0.0160,0.0467,-0.0000,-0.58,-0.26,0.06,0,4.138,0.030,0.019,-0.094,-0.003,-0.009,0.997,0.000,0.000,0.000,0.0100,-10,-2,0.00,0.00,0.00,0.0000,0.0000,0.0000,0.0000,0.0000,0.0000,0.0000,0.00,0.00,0.00,1.5620,0.2350,0.9070,1.2310,2.7020,0,0.0000,0.0000,0.0000,0.0000,0.0000,0
18374,0.0262,0.0876,0.0101,0.0191,0.0205,0.0013,-0.47,-0.26,0.07,0,4.133,0.042,0.092,0.224,-0.004,-0.009,0.998,0.000,0.000,0.000,0.0090,-2,-2,0.00,0.00,0.00,0.0000,0.0000,0.0000,0.0000,0.0000,0.0000,0.0000,0.00,0.00,0.00,1.5630,0.0000,0.9070,1.2310,2.7000,0,0.0000,0.0000,0.0000,0.0000,0.0000,0
18426,0.0260,0.0882,0.0099,0.0134,0.0180,-0.0006,-0.38,-0.22,0.07,0,4.138,-0.061,-0.121,-0.019,-0.002,-0.006,1.000,0.000,0.000,0.000,0.0090,-19,3,0.00,0.00,0.00,0.0000,0.0000,0.0000,0.0000,0.0000,0.0000,0.0000,0.00,0.00,0.00,1.5630,0.0000,0.9060,1.2310,2.7000,0,0.0000,0.0000,0.0000,0.0000,0.0000,0
18478,0.0247,0.1007,0.0092,0.0036,0.0777,-0.0046,-0.97,-0.10,0.06,0,4.138,0.108,0.095,0.114,-0.002,-0.008,0.998,0.000,0.000,0.000,0.0110,-17,4,0.00,0.00,0.00,0.0000,0.0000,0.0000,0.0000,0.0000,0.0000,0.0000,0.00,0.00,0.00,1.5740,0.0000,0.9060,1.2310,2.7030,0,0.0000,0.0000,0.0000,0.0000,0.0000,0
18528,0.0241,0.1089,0.0095,-0.0001,0.1040,-0.0031,-1.10,-0.07,0.05,0,4.133,0.139,-0.028,-0.066,-0.004,-0.007,1.000,0.000,0.000,0.000,0.0080,5,2,0.00,0.00,0.00,0.0000,0.0000,0.0000,0.0000,0.0000,0.0000,0.0000,0.00,0.00,0.00,1.5740,0.0000,0.9050,1.2350,2.7030,0,0.0000,0.0000,0.0000,0.0000,0.0000,0
18579,0.0239,0.1134,0.0090,-0.0009,0.1044,-0.0053,-0.86,-0.08,0.06,0,4.138,0.015,0.105,0.006,-0.003,-0.011,0.997,0.000,0.000,0.000,0.0100,-11,20,0.00,0.00,0.00,0.0000,0.0000,0.0000,0.0000,0.0000,0.0000,0.0000,0.00,0.00,0.00,1.5800,0.0000,0.9050,1.2350,2.7040,0,0.0000,0.0000,0.0000,0.0000,0.0000,0
18630,0.0241,0.1152,0.0095,0.0007,0.0913,-0.0017,-0.88,0.07,0.04,0,4.133,0.210,-0.220,-0.244,-0.005,-0.007,0.998,0.000,0.000,0.000,0.0080,8,2,0.00,0.00,0.00,0.0000,0.0000,0.0000,0.0000,0.0000,0.0000,0.0000,0.00,0.00,0.00,1.5800,0.0000,0.9040,1.2310,2.7040,0,0.0000,0.0000,0.0000,0.0000,0.0000,0
18681,0.0199,0.1214,0.0088,-0.0195,0.1028,-0.0061,-0.75,0.05,0.04,0,4.133,0.207,-0.437,0.193,-0.002,-0.010,0.996,0.000,0.000,0.000,0.0090,-9,0,0.00,0.00,0.00,0.0000,0.0000,0.0000,0.0000,0.0000,0.0000,0.0000,0.00,0.00,0.00,1.5570,0.2320,0.9040,1.2310,2.7010,0,0.0000,0.0000,0.0000,0.0000,0.0000,0
18732,0.0191,0.1221,0.0090,-0.0198,0.0845,-0.0043,-0.75,0.02,0.05,0,4.133,0.132,-0.063,-0.133,-0.006,-0.007,1.000,0.000,0.000,0.000,0.0110,-21,3,0.00,0.00,0.00,0.0000,0.0000,0.0000,0.0000,0.0000,0.0000,0.0000,0.00,0.00,0.00,1.5570,0.2320,0.9070,1.2290,2.7010,0,0.0000,0.0000,0.0000,0.0000,0.0000,0
18783,0.0200,0.1272,0.0099,-0.0114,0.0896,0.0007,-0.87,-0.03,0.06,0,4.138,0.142,-0.047,0.101,-0.001,-0.009,0.997,0.000,0.000,0.000,0.0120,-27,2,0.00,0.00,0.00,0.0000,0.0000,0.0000,0.0000,0.0000,0.0000,0.0000,0.00,0.00,0.00,1.5660,0.2230,0.9070,1.2290,2.7020,0,0.0000,0.0000,0.0000,0.0000,0.0000,0
18835,0.0191,0.1316,0.0110,-0.0133,0.0907,0.0049,-0.90,-0.03,0.06,0,4.133,-0.174,-0.164,0.188,-0.000,-0.009,0.997,0.000,0.000,0.000,0.0090,-31,1,0.00,0.00,0.00,0.0000,0.0000,0.0000,0.0000,0.0000,0.0000,0.0000,0.00,0.00,0.00,1.5660,0.2230,0.9050,1.2320,2.7020,0,0.0000,0.0000,0.0000,0.0000,0.0000,0
18885,0.0183,0.1421,0.0099,-0.0145,0.1209,-0.0033,-1.14,-0.03,0.07,0,4.138,0.086,-0.029,-0.109,-0.004,-0.007,1.000,0.000,0.000,0.000,0.0090,-8,-3,0.00,0.00,0.00,0.0000,0.0000,0.0000,0.0000,0.0000,0.0000,0.0000,0.00,0.00,0.00,1.5790,0.2340,0.9050,1.2320,2.6950,0,0.0000,0.0000,0.0000,0.0000,0.0000,0
18936,0.0170,0.1477,0.0098,-0.0184,0.1186,-0.0025,-0.86,-0.04,0.06,0,4.133,0.179,-0.071,0.103,-0.003,-0.009,0.997,0.000,0.000,0.000,0.0080,1,3,0.00,0.00,0.00,0.0000,0.0000,0.0000,0.0000,0.0000,0.0000,0.0000,0.00,0.00,0.00,1.5790,0.2340,0.9060,1.2290,2.6950,0,0.0000,0.0000,0.0000,0.0000,0.0000,0
18987,0.0196,0.1422,0.0098,-0.0016,0.0601,0.0006,-0.31,-0.12,0.06,0,4.133,0.213,-0.044,-0.145,-0.003,-0.007,0.998,0.000,0.000,0.000,0.0090,-4,2,0.00,0.00,0.00,0.0000,0.0000,0.0000,0.0000,0.0000,0.0000,0.0000,0.00,0.00,0.00,1.5730,0.0000,0.9060,1.2290,2.7020,0,0.0000,0.0000,0.0000,0.0000,0.0000,0
19038,0.0202,0.1379,0.0096,0.0014,0.0235,-0.0006,-0.10,-0.15,0.05,0,4.133,0.102,0.089,-0.064,-0.003,-0.006,0.998,0.000,0.000,0.000,0.0100,-21,0,0.00,0.00,0.00,0.0000,0.0000,0.0000,0.0000,0.0000,0.0000,0.0000,0.00,0.00,0.00,1.5730,0.0000,0.9000,1.2230,2.7020,0,0.0000,0.0000,0.0000,0.0000,0.0000,0
19089,0.0186,0.1348,0.0097,-0.0078,-0.0026,0.0001,-0.08,-0.10,0.05,0,4.138,-0.021,0.182,0.291,-0.002,-0.009,0.999,0.000,0.000,0.000,0.0100,9,4,0.00,0.00,0.00,0.0000,0.0000,0.0000,0.0000,0.0000,0.0000,0.0000,0.00,0.00,0.00,0.0000,0.0000,0.9000,1.2230,2.7030,0,0.0000,0.0000,0.0000,0.0000,0.0000,0
19140,0.0186,0.1415,0.0100,-0.0065,0.0259,-0.0005,-0.03,-0.07,0.05,0,4.133,0.212,0.222,-0.158,-0.001,-0.008,1.000,0.000,0.000,0.000,0.0090,-10,-6,0.00,0.00,0.00,0.0000,0.0000,0.0000,0.0000,0.0000,0.0000,0.0000,0.00,0.00,0.00,0.0000,0.0000,0.9040,1.2340,2.7030,0,0.0000,0.0000,0.0000,0.0000,0.0000,0
19191,0.0190,0.1356,0.0097,-0.0023,-0.0104,-0.0021,0.05,-0.20,0.04,0,4.138,0.107,-0.191,-0.190,-0.001,-0.008,0.999,0.000,0.000,0.000,0.0090,8,0,0.00,0.00,0.00,0.0000,0.0000,0.0000,0.0000,0.0000,0.0000,0.0000,0.00,0.00,0.00,1.5760,0.0000,0.9040,1.2340,2.7070,0,0.0000,0.0000,0.0000,0.0000,0.0000,0
19243,0.0193,0.1402,0.0094,-0.0007,0.0091,-0.0041,0.04,-0.15,0.04,0,4.133,0.085,-0.178,-0.099,-0.002,-0.007,1.000,0.000,0.000,0.000,0.0090,-15,5,0.00,0.00,0.00,0.0000,0.0000,0.0000,0.0000,0.0000,0.0000,0.0000,0.00,0.00,0.00,1.5760,0.0000,0.9050,1.2290,2.7070,0,0.0000,0.0000,0.0000,0.0000,0.0000,0
19293,0.0197,0.1385,0.0092,0.0017,-0.0051,-0.0040,-0.08,-0.12,0.04,0,4.133,0.144,0.348,0.037,-0.004,-0.007,0.998,0.000,0.000,0.000,0.0110,0,-2,0.00,0.00,0.00,0.0000,0.0000,0.0000,0.0000,0.0000,0.0000,0.0000,0.00,0.00,0.00,1.5740,0.0000,0.9050,1.2290,2.7090,0,0.0000,0.0000,0.0000,0.0000,0.0000,0
19345,0.0195,0.1326,0.0100,0.0007,-0.0420,0.0003,0.30,-0.18,0.04,0,4.138,0.223,-0.095,0.005,-0.003,-0.008,0.996,0.000,0.000,0.000,0.0110,3,5,0.00,0.00,0.00,0.0000,0.0000,0.0000,0.0000,0.0000,0.0000,0.0000,0.00,0.00,0.00,1.5740,0.0000,0.9100,1.2250,2.7090,0,0.0000,0.0000,0.0000,0.0000,0.0000,0
19395,0.0210,0.1337,0.0106,0.0080,-0.0309,0.0022,0.20,-0.17,0.04,0,4.138,-0.090,-0.022,0.101,-0.001,-0.009,0.997,0.000,0.000,0.000,0.0080,-4,-6,0.00,0.00,0.00,0.0000,0.0000,0.0000,0.0000,0.0000,0.0000,0.0000,0.00,0.00,0.00,1.5820,0.2310,0.9100,1.2250,2.6980,0,0.0000,0.0000,0.0000,0.0000,0.0000,0
19446,0.0189,0.1328,0.0096,-0.0039,-0.0326,-0.0044,0.11,-0.17,0.04,0,4.133,0.349,-0.011,0.059,-0.003,-0.009,0.999,0.000,0.000,0.000,0.0100,7,-4,0.00,0.00,0.00,0.0000,0.0000,0.0000,0.0000,0.0000,0.0000,0.0000,0.00,0.00,0.00,1.5820,0.2310,0.9040,1.2280,2.6980,0,0.0000,0.0000,0.0000,0.0000,0.0000,0
19497,0.0197,0.1338,0.0097,0.0003,-0.0241,-0.0027,0.11,-0.19,0.04,0,4.138,0.143,0.109,-0.029,-0.004,-0.008,0.999,0.000,0.000,0.000,0.0070,-5,0,0.00,0.00,0.00,0.0000,0.0000,0.0000,0.0000,0.0000,0.0000,0.0000,0.00,0.00,0.00,1.5700,0.2330,0.9040,1.2280,2.6960,0,0.0000,0.0000,0.0000,0.0000,0.0000,0
19548,0.0197,0.1391,0.0086,-0.0003,0.0077,-0.0083,-0.27,-0.15,0.04,0,4.133,0.014,-0.065,0.240,-0.002,-0.008,0.997,0.000,0.000,0.000,0.0090,32,-4,0.00,0.00,0.00,0.0000,0.0000,0.0000,0.0000,0.0000,0.0000,0.0000,0.00,0.00,0.00,1.5700,0.2330,0.9100,1.2310,2.6960,0,0.0000,0.0000,0.0000,0.0000,0.0000,0
19599,0.0187,0.1317,0.0086,-0.0051,-0.0371,-0.0068,0.40,-0.15,0.05,0,4.133,0.306,0.008,-0.024,-0.000,-0.008,0.998,0.000,0.000,0.000,0.0100,4,-1,0.00,0.00,0.00,0.0000,0.0000,0.0000,0.0000,0.0000,0.0000,0.0000,0.00,0.00,0.00,1.5690,0.0000,0.9100,1.2310,2.7050,0,0.0000,0.0000,0.0000,0.0000,0.0000,0
19650,0.0189,0.1231,0.0088,-0.0033,-0.0721,-0.0052,0.35,-0.13,0.06,0,4.133,0.036,-0.030,0.045,-0.003,-0.008,0.998,0.000,0.000,0.000,0.0090,-8,5,0.00,0.00,0.00,0.0000,0.0000,0.0000,0.0000,0.0000,0.0000,0.0000,0.00,0.00,0.00,1.5690,0.0000,0.9050,1.2320,2.7050,0,0.0000,0.0000,0.0000,0.0000,0.0000,0
19701,0.0208,0.1222,0.0089,0.0076,-0.0655,-0.0044,0.14,-0.16,0.05,0,4.138,-0.068,-0.093,0.190,-0.005,-0.008,1.001,0.000,0.000,0.000,0.0090,-5,5,0.00,0.00,0.00,0.0000,0.0000,0.0000,0.0000,0.0000,0.0000,0.0000,0.00,0.00,0.00,1.5660,0.2390,0.9050,1.2320,2.7030,0,0.0000,0.0000,0.0000,0.0000,0.0000,0
19752,0.0208,0.1235,0.0090,0.0067,-0.0495,-0.0031,0.02,-0.15,0.06,0,4.133,0.112,0.041,0.114,-0.003,-0.007,0.999,0.000,0.000,0.000,0.0110,25,0,0.00,0.00,0.00,0.0000,0.0000,0.0000,0.0000,0.0000,0.0000,0.0000,0.00,0.00,0.00,1.5660,0.2390,0.9080,1.2230,2.7030,0,0.0000,0.0000,0.0000,0.0000,0.0000,0
19803,0.0195,0.1240,0.0100,0.0002,-0.0354,0.0024,0.16,-0.14,0.05,0,4.138,-0.121,0.013,0.201,-0.001,-0.010,0.999,0.000,0.000,0.000,0.0090,-2,-1,0.00,0.00,0.00,0.0000,0.0000,0.0000,0.0000,0.0000,0.0000,0.0000,0.00,0.00,0.00,1.5730,0.0000,0.9080,1.2230,2.6990,0,0.0000,0.0000,0.0000,0.0000,0.0000,0
19854,0.0173,0.1189,0.0097,-0.0106,-0.0538,-0.0002,0.01,-0.07,0.06,0,4.133,0.038,0.116,0.050,-0.004,-0.008,0.999,0.000,0.000,0.000,0.0110,12,2,0.00,0.00,0.00,0.0000,0.0000,0.0000,0.0000,0.0000,0.0000,0.0000,0.00,0.00,0.00,1.5730,0.0000,0.9060,1.2230,2.6990,0,0.0000,0.0000,0.0000,0.0000,0.0000,0
19905,0.0170,0.1251,0.0105,-0.0108,-0.0099,0.0042,-0.21,-0.05,0.06,0,4.133,0.120,0.494,0.191,0.001,-0.008,0.998,0.000,0.000,0.000,0.0090,2,3,0.00,0.00,0.00,0.0000,0.0000,0.0000,0.0000,0.0000,0.0000,0.0000,0.00,0.00,0.00,1.5680,0.0000,0.9060,1.2230,2.7090,0,0.0000,0.0000,0.0000,0.0000,0.0000,0
19956,0.0168,0.1210,0.0101,-0.0090,-0.0276,-0.0002,-0.18,-0.06,0.06,0,4.133,0.549,0.030,-0.109,-0.004,-0.009,1.000,0.000,0.000,0.000,0.0090,-4,-1,0.00,0.00,0.00,0.0000,0.0000,0.0000,0.0000,0.0000,0.0000,0.0000,0.00,0.00,0.00,1.5680,0.0000,0.9040,1.2320,2.7090,0,0.0000,0.0000,0.0000,0.0000,0.0000,0
20007,0.0165,0.1358,0.0095,-0.0082,0.0599,-0.0031,-0.92,-0.10,0.07,0,4.138,0.030,0.133,-0.052,-0.001,-0.008,0.997,0.000,0.000,0.000,0.0140,10,-2,0.00,0.00,0.00,0.0000,0.0000,0.0000,0.0000,0.0000,0.0000,0.0000,0.00,0.00,0.00,1.5800,0.0000,0.9040,1.2320,2.6980,0,0.0000,0.0000,0.0000,0.0000,0.0000,0
20058,0.0171,0.1434,0.0110,-0.0034,0.0886,0.0055,-0.97,-0.15,0.07,0,4.133,0.006,0.014,0.053,-0.002,-0.008,0.998,0.000,0.000,0.000,0.0080,-21,-21,0.00,0.00,0.00,0.0000,0.0000,0.0000,0.0000,0.0000,0.0000,0.0000,0.00,0.00,0.00,1.5800,0.0000,0.9030,1.2320,2.6980,0,0.0000,0.0000,0.0000,0.0000,0.0000,0
20109,0.0177,0.1432,0.0104,0.0011,0.0715,-0.0002,-1.09,-0.36,0.09,0,4.138,-0.110,-0.153,0.108,0.002,-0.009,0.998,0.000,0.000,0.000,0.0120,7,0,0.00,0.00,0.00,0.0000,0.0000,0.0000,0.0000,0.0000,0.0000,0.0000,0.00,0.00,0.00,1.5830,0.0000,0.9030,1.2320,2.7050,0,0.0000,0.0000,0.0000,0.0000,0.0000,0
20160,0.0220,0.1493,0.0110,0.0215,0.0865,0.0022,-0.89,-0.31,0.09,0,4.133,0.130,0.200,0.145,-0.002,-0.009,1.000,0.000,0.000,0.000,0.0100,9,-6,0.00,0.00,0.00,0.0000,0.0000,0.0000,0.0000,0.0000,0.0000,0.0000,0.00,0.00,0.00,1.5830,0.0000,0.9070,1.2240,2.7050,0,0.0000,0.0000,0.0000,0.0000,0.0000,0
20211,0.0222,0.1527,0.0108,0.0177,0.0876,-0.0005,-0.84,-0.32,0.09,0,4.133,0.073,0.043,-0.124,-0.001,-0.009,1.000,0.000,0.000,0.000,0.0090,-4,0,0.00,0.00,0.00,0.0000,0.0000,0.0000,0.0000,0.0000,0.0000,0.0000,0.00,0.00,0.00,1.5850,0.2300,0.9070,1.2240,2.7010,0,0.0000,0.0000,0.0000,0.0000,0.0000,0
20262,0.0226,0.1493,0.0105,0.0163,0.0521,-0.0013,-0.66,-0.25,0.09,0,4.133,-0.068,0.045,0.272,-0.002,-0.008,0.998,0.000,0.000,0.000,0.0120,-32,0,0.00,0.00,0.00,0.0000,0.0000,0.0000,0.0000,0.0000,0.0000,0.0000,0.00,0.00,0.00,1.5850,0.2300,0.9060,1.2300,2.7010,0,0.0000,0.0000,0.0000,0.0000,0.0000,0
20313,0.0222,0.1622,0.0105,0.0109,0.1107,-0.0040,-1.34,-0.21,0.07,0,4.138,-0.138,-0.104,0.393,-0.002,-0.007,0.999,0.000,0.000,0.000,0.0120,-13,4,0.00,0.00,0.00,0.0000,0.0000,0.0000,0.0000,0.0000,0.0000,0.0000,0.00,0.00,0.00,1.5770,0.2350,0.9060,1.2300,2.7080,0,0.0000,0.0000,0.0000,0.0000,0.0000,0
20364,0.0260,0.1741,0.0105,0.0300,0.1475,-0.0041,-1.38,-0.31,0.09,0,4.133,0.122,-0.008,-0.086,-0.002,-0.005,0.998,0.000,0.000,0.000,0.0110,9,3,0.00,0.00,0.00,0.0000,0.0000,0.0000,0.0000,0.0000,0.0000,0.0000,0.00,0.00,0.00,1.5770,0.2350,0.9030,1.2330,2.7080,0,0.0000,0.0000,0.0000,0.0000,0.0000,0
20415,0.0266,0.1801,0.0109,0.0283,0.1483,-0.0020,-1.12,-0.29,0.09,0,4.138,0.067,-0.371,0.262,-0.002,-0.007,0.999,0.000,0.000,0.000,0.0100,19,0,0.00,0.00,0.00,0.0000,0.0000,0.0000,0.0000,0.0000,0.0000,0.0000,0.00,0.00,0.00,1.5560,0.0000,0.9030,1.2330,2.7060,0,0.0000,0.0000,0.0000,0.0000,0.0000,0
20466,0.0259,0.1788,0.0113,0.0188,0.1121,0.0006,-0.70,-0.23,0.09,0,4.133,0.018,0.193,0.224,-0.002,-0.007,0.999,0.000,0.000,0.000,0.0130,6,3,0.00,0.00,0.00,0.0000,0.0000,0.0000,0.0000,0.0000,0.0000,0.0000,0.00,0.00,0.00,1.5560,0.0000,0.9030,1.2240,2.7060,0,0.0000,0.0000,0.0000,0.0000,0.0000,0
20517,0.0302,0.1716,0.0128,0.0390,0.0489,0.0097,-0.29,-0.36,0.12,0,4.133,0.277,0.105,-0.184,-0.002,-0.007,0.998,0.000,0.000,0.000,0.0110,5,5,0.00,0.00,0.00,0.0000,0.0000,0.0000,0.0000,0.0000,0.0000,0.0000,0.00,0.00,0.00,1.5720,0.2380,0.9030,1.2240,2.7020,0,0.0000,0.0000,0.0000,0.0000,0.0000,0
20570,0.0305,0.1664,0.0125,0.0326,0.0112,0.0061,-0.03,-0.27,0.12,0,4.133,-0.034,0.153,0.137,-0.001,-0.007,0.998,0.000,0.000,0.000,0.0100,47,-3,0.00,0.00,0.00,0.0000,0.0000,0.0000,0.0000,0.0000,0.0000,0.0000,0.00,0.00,0.00,1.5720,0.2380,0.9020,1.2250,2.7020,0,0.0000,0.0000,0.0000,0.0000,0.0000,0
20622,0.0321,0.1673,0.0117,0.0348,0.0121,-0.0007,0.34,-0.35,0.14,0,4.138,-0.034,-0.193,-0.037,-0.004,-0.005,0.998,0.000,0.000,0.000,0.0070,-3,1,0.00,0.00,0.00,0.0000,0.0000,0.0000,0.0000,0.0000,0.0000,0.0000,0.00,0.00,0.00,1.5620,0.0000,0.9020,1.2250,2.7020,0,0.0000,0.0000,0.0000,0.0000,0.0000,0
20672,0.0348,0.1497,0.0091,0.0426,-0.0838,-0.0137,0.55,-0.36,0.15,0,4.133,0.251,0.114,0.234,0.001,-0.008,0.997,0.000,0.000,0.000,0.0110,-6,0,0.00,0.00,0.00,0.0000,0.0000,0.0000,0.0000,0.0000,0.0000,0.0000,0.00,0.00,0.00,1.5620,0.0000,0.9040,1.2260,2.7020,0,0.0000,0.0000,0.0000,0.0000,0.0000,0
20723,0.0347,0.1482,0.0099,0.0321,-0.0786,-0.0071,0.42,-0.28,0.15,0,4.138,0.130,-0.087,-0.316,-0.003,-0.007,1.000,0.000,0.000,0.000,0.0070,-8,0,0.00,0.00,0.00,0.0000,0.0000,0.0000,0.0000,0.0000,0.0000,0.0000,0.00,0.00,0.00,1.5960,0.2320,0.9040,1.2260,2.6990,0,0.0000,0.0000,0.0000,0.0000,0.0000,0
20774,0.0347,0.1486,0.0088,0.0255,-0.0639,-0.0116,0.23,-0.21,0.15,0,4.133,-0.087,-0.096,0.246,-0.002,-0.007,0.998,0.000,0.000,0.000,0.0090,6,-7,0.00,0.00,0.00,0.0000,0.0000,0.0000,0.0000,0.0000,0.0000,0.0000,0.00,0.00,0.00,1.5960,0.2320,0.9070,1.2250,2.6990,0,0.0000,0.0000,0.0000,0.0000,0.0000,0
20825,0.0345,0.1503,0.0088,0.0186,-0.0451,-0.0091,0.17,-0.22,0.15,0,4.133,-0.063,0.012,0.177,-0.003,-0.007,0.997,0.000,0.000,0.000,0.0090,-5,3,0.00,0.00,0.00,0.0000,0.0000,0.0000,0.0000,0.0000,0.0000,0.0000,0.00,0.00,0.00,1.5660,0.2360,0.9070,1.2250,2.7010,0,0.0000,0.0000,0.0000,0.0000,0.0000,0
20876,0.0352,0.1476,0.0086,0.0168,-0.0519,-0.0089,0.09,-0.11,0.17,0,4.133,0.032,-0.196,0.119,-0.003,-0.007,1.000,0.000,0.000,0.000,0.0100,-1,2,0.00,0.00,0.00,0.0000,0.0000,0.0000,0.0000,0.0000,0.0000,0.0000,0.00,0.00,0.00,1.5660,0.2360,0.9070,1.2270,2.7010,0,0.0000,0.0000,0.0000,0.0000,0.0000,0
20927,0.0350,0.1496,0.0091,0.0118,-0.0335,-0.0042,-0.04,-0.08,0.17,0,4.138,0.029,0.119,0.021,-0.003,-0.007,0.999,0.000,0.000,0.000,0.0100,-3,2,0.00,0.00,0.00,0.0000,0.0000,0.0000,0.0000,0.0000,0.0000,0.0000,0.00,0.00,0.00,1.5750,0.2300,0.9070,1.2270,2.7020,0,0.0000,0.0000,0.0000,0.0000,0.0000,0
20978,0.0354,0.1471,0.0093,0.0104,-0.0413,-0.0030,-0.03,-0.08,0.17,0,4.133,0.209,0.004,-0.149,-0.004,-0.004,0.997,0.000,0.000,0.000,0.0110,11,-3,0.00,0.00,0.00,0.0000,0.0000,0.0000,0.0000,0.0000,0.0000,0.0000,0.00,0.00,0.00,1.5750,0.2300,0.9050,1.2310,2.7020,0,0.0000,0.0000,0.0000,0.0000,0.0000,0
21029,0.0346,0.1510,0.0101,0.0030,-0.0130,0.0013,-0.14,-0.07,0.18,0,4.138,-0.126,0.117,0.300,-0.005,-0.006,0.999,0.000,0.000,0.000,0.0100,4,-1,0.00,0.00,0.00,0.0000,0.0000,0.0000,0.0000,0.0000,0.0000,0.0000,0.00,0.00,0.00,1.5790,0.2330,0.9050,1.2310,2.7000,0,0.0000,0.0000,0.0000,0.0000,0.0000,0
21080,0.0348,0.1496,0.0101,0.0025,-0.0171,0.0004,-0.18,-0.06,0.18,0,4.133,0.160,0.088,-0.109,-0.004,-0.007,0.997,0.000,0.000,0.000,0.0120,1,-1,0.00,0.00,0.00,0.0000,0.0000,0.0000,0.0000,0.0000,0.0000,0.0000,0.00,0.00,0.00,1.5790,0.2330,0.9070,1.2310,2.7000,0,0.0000,0.0000,0.0000,0.0000,0.0000,0
21131,0.0396,0.1483,0.0110,0.0285,-0.0204,0.0036,-0.18,-0.26,0.16,0,4.138,0.230,-0.043,-0.131,-0.000,-0.009,0.999,0.000,0.000,0.000,0.0110,-5,0,0.00,0.00,0.00,0.0000,0.0000,0.0000,0.0000,0.0000,0.0000,0.0000,0.00,0.00,0.00,1.5950,0.0000,0.9070,1.2310,2.6990,0,0.0000,0.0000,0.0000,0.0000,0.0000,0
21182,0.0393,0.1431,0.0111,0.0201,-0.0438,0.0027,-0.08,-0.18,0.17,0,4.133,0.050,0.022,-0.109,-0.004,-0.010,0.999,0.000,0.000,0.000,0.0100,-21,-6,0.00,0.00,0.00,0.0000,0.0000,0.0000,0.0000,0.0000,0.0000,0.0000,0.00,0.00,0.00,1.5950,0.0000,0.9050,1.2330,2.6990,0,0.0000,0.0000,0.0000,0.0000,0.0000,0
21233,0.0396,0.1417,0.0108,0.0160,-0.0434,-0.0001,-0.25,-0.20,0.17,0,4.138,0.136,-0.178,0.223,-0.001,-0.006,1.002,0.000,0.000,0.000,0.0090,-1,-3,0.00,0.00,0.00,0.0000,0.0000,0.0000,0.0000,0.0000,0.0000,0.0000,0.00,0.00,0.00,1.5910,0.2380,0.9050,1.2330,2.6970,0,0.0000,0.0000,0.0000,0.0000,0.0000,0
21284,0.0409,0.1458,0.0102,0.0193,-0.0153,-0.0033,-0.30,-0.20,0.17,0,4.133,-0.221,0.147,0.163,-0.004,-0.009,0.997,0.000,0.000,0.000,0.0100,7,0,0.00,0.00,0.00,0.0000,0.0000,0.0000,0.0000,0.0000,0.0000,0.0000,0.00,0.00,0.00,1.5910,0.2380,0.9070,1.2300,2.6970,0,0.0000,0.0000,0.0000,0.0000,0.0000,0
