time_ms,pos_x,pos_y,pos_z,vel_x,vel_y,vel_z,roll,pitch,yaw,thrust,vbat,gyro_x,gyro_y,gyro_z,acc_x,acc_y,acc_z,rate_roll,rate_pitch,rate_yaw,range_z,flow_dx,flow_dy,mekf_roll,mekf_pitch,mekf_yaw,mekf_x,mekf_y,mekf_z,our_ref_x,our_ref_y,our_ref_z,our_thrust,our_roll_cmd,our_pitch_cmd,our_yaw_rate_cmd,multi_front,multi_back,multi_left,multi_right,multi_up,ai_feat_count,vo_x,vo_y,vo_sigma,pg_x,pg_y,lc_count,canfly,is_tumbled,ctrltarget_z,motor_m1req
0,-3.1693,5.9870,0.0058,-0.0327,-0.0462,0.0083,1.24,0.66,-30.33,0,4.138,0.116,0.047,-0.014,0.010,0.020,1.000,0.000,0.000,0.000,0.0040,-5,5,0.00,0.00,0.00,0.0000,0.0000,0.0000,0.0000,0.0000,0.0000,0.0000,0.00,0.00,0.00,1.4430,0.0000,1.2380,0.9330,2.6990,0,0.0000,0.0000,0.0000,0.0000,0.0000,0,1,0,0.0000,0
101,-3.1696,5.9878,0.0064,-0.0265,-0.0327,0.0094,1.15,0.64,-30.18,0,4.144,0.030,0.246,0.040,0.010,0.021,1.000,0.000,0.000,0.000,0.0010,-6,3,0.00,0.00,0.00,0.0000,0.0000,0.0000,0.0000,0.0000,0.0000,0.0000,0.00,0.00,0.00,1.4470,0.0000,1.2330,0.9330,2.7030,0,0.0000,0.0000,0.0000,0.0000,0.0000,0,1,0,0.0000,0
201,-3.1700,5.9891,0.0037,-0.0221,-0.0190,-0.0061,1.07,0.62,-30.03,0,4.138,-0.395,0.099,0.244,0.009,0.021,1.000,0.000,0.000,0.000,0.0050,-14,-4,0.00,0.00,0.00,0.0000,0.0000,0.0000,0.0000,0.0000,0.0000,0.0000,0.00,0.00,0.00,1.4470,0.0000,1.2330,0.9320,2.7030,0,0.0000,0.0000,0.0000,0.0000,0.0000,0,1,0,0.0000,0
303,-3.1694,5.9880,0.0035,-0.0135,-0.0189,-0.0056,0.72,0.53,-29.88,0,4.144,0.045,0.041,-0.080,0.010,0.020,0.998,0.000,0.000,0.000,0.0040,-9,7,0.00,0.00,0.00,0.0000,0.0000,0.0000,0.0000,0.0000,0.0000,0.0000,0.00,0.00,0.00,1.4520,0.0000,1.2360,0.9320,2.7010,0,0.0000,0.0000,0.0000,0.0000,0.0000,0,1,0,0.0000,0
404,-3.1659,5.9951,0.0040,0.0067,0.0203,-0.0022,0.71,0.56,-29.73,0,4.133,0.077,0.108,0.149,0.009,0.019,0.999,0.000,0.000,0.000,0.0050,20,-5,0.00,0.00,0.00,0.0000,0.0000,0.0000,0.0000,0.0000,0.0000,0.0000,0.00,0.00,0.00,1.4520,0.0000,1.2360,0.9290,2.7010,0,0.0000,0.0000,0.0000,0.0000,0.0000,0,1,0,0.0000,0
505,-3.1639,5.9985,0.0038,0.0171,0.0371,-0.0027,0.89,0.54,-29.58,0,4.144,-0.066,0.083,0.072,0.010,0.018,0.999,0.000,0.000,0.000,0.0030,4,1,0.00,0.00,0.00,0.0000,0.0000,0.0000,0.0000,0.0000,0.0000,0.0000,0.00,0.00,0.00,1.4520,0.2450,1.2330,0.9290,2.7020,0,0.0000,0.0000,0.0000,0.0000,0.0000,0,1,0,0.0000,0
606,-3.1661,5.9934,0.0040,0.0036,0.0069,-0.0026,0.90,0.55,-29.44,0,4.138,-0.009,0.183,0.238,0.012,0.019,1.000,0.000,0.000,0.000,0.0050,2,0,0.00,0.00,0.00,0.0000,0.0000,0.0000,0.0000,0.0000,0.0000,0.0000,0.00,0.00,0.00,1.4520,0.2450,1.2330,0.9350,2.7020,0,0.0000,0.0000,0.0000,0.0000,0.0000,0,1,0,0.0000,0
707,-3.1662,5.9937,0.0043,0.0043,0.0085,0.0000,0.88,0.56,-29.29,0,4.144,0.159,-0.043,-0.238,0.014,0.021,1.001,0.000,0.000,0.000,0.0030,9,0,0.00,0.00,0.00,0.0000,0.0000,0.0000,0.0000,0.0000,0.0000,0.0000,0.00,0.00,0.00,1.4520,0.0000,1.2340,0.9350,2.6950,0,0.0000,0.0000,0.0000,0.0000,0.0000,0,1,0,0.0000,0
809,-3.1656,5.9934,0.0038,0.0083,0.0064,-0.0033,0.95,0.50,-29.15,0,4.138,0.252,-0.058,-0.135,0.011,0.020,1.000,0.000,0.000,0.000,0.0030,30,-4,0.00,0.00,0.00,0.0000,0.0000,0.0000,0.0000,0.0000,0.0000,0.0000,0.00,0.00,0.00,1.4520,0.0000,1.2340,0.9320,2.6950,0,0.0000,0.0000,0.0000,0.0000,0.0000,0,1,0,0.0000,0
910,-3.1673,5.9925,0.0037,-0.0015,0.0019,-0.0030,1.18,0.47,-29.01,0,4.144,0.030,-0.238,-0.205,0.009,0.019,0.999,0.000,0.000,0.000,0.0090,0,2,0.00,0.00,0.00,0.0000,0.0000,0.0000,0.0000,0.0000,0.0000,0.0000,0.00,0.00,0.00,1.4460,0.0000,1.2370,0.9320,2.7060,0,0.0000,0.0000,0.0000,0.0000,0.0000,0,1,0,0.0000,0
1012,-3.1684,5.9875,0.0057,-0.0069,-0.0214,0.0084,1.13,0.51,-28.87,0,4.138,0.085,-0.047,-0.088,0.010,0.021,1.001,0.000,0.000,0.000,0.0020,-24,-2,0.00,0.00,0.00,0.0000,0.0000,0.0000,0.0000,0.0000,0.0000,0.0000,0.00,0.00,0.00,1.4460,0.0000,1.2370,0.9310,2.7060,0,0.0000,0.0000,0.0000,0.0000,0.0000,0,1,0,0.0000,0
1114,-3.1693,5.9846,0.0061,-0.0092,-0.0318,0.0081,0.97,0.52,-28.72,0,4.144,-0.108,-0.188,0.281,0.009,0.019,0.999,0.000,0.000,0.000,0.0050,5,-2,0.00,0.00,0.00,0.0000,0.0000,0.0000,0.0000,0.0000,0.0000,0.0000,0.00,0.00,0.00,1.4450,0.0000,1.2360,0.9310,2.7100,0,0.0000,0.0000,0.0000,0.0000,0.0000,0,1,0,0.0000,0
1215,-3.1676,5.9898,0.0048,0.0005,0.0007,0.0016,1.00,0.51,-28.58,0,4.133,-0.069,-0.117,-0.127,0.010,0.021,0.999,0.000,0.000,0.000,0.0020,3,2,0.00,0.00,0.00,0.0000,0.0000,0.0000,0.0000,0.0000,0.0000,0.0000,0.00,0.00,0.00,1.4450,0.0000,1.2360,0.9340,2.7100,0,0.0000,0.0000,0.0000,0.0000,0.0000,0,1,0,0.0000,0
1316,-3.1659,5.9899,0.0049,0.0096,0.0029,0.0013,0.95,0.53,-28.44,0,4.144,0.001,0.123,-0.003,0.008,0.021,0.999,0.000,0.000,0.000,0.0040,6,0,0.00,0.00,0.00,0.0000,0.0000,0.0000,0.0000,0.0000,0.0000,0.0000,0.00,0.00,0.00,1.4550,0.0000,1.2410,0.9340,2.7050,0,0.0000,0.0000,0.0000,0.0000,0.0000,0,1,0,0.0000,0
1417,-3.1671,5.9889,0.0037,0.0024,-0.0019,-0.0035,0.98,0.57,-28.30,0,4.138,-0.010,-0.016,-0.106,0.011,0.019,1.000,0.000,0.000,0.000,0.0020,-9,1,0.00,0.00,0.00,0.0000,0.0000,0.0000,0.0000,0.0000,0.0000,0.0000,0.00,0.00,0.00,1.4550,0.0000,1.2410,0.9350,2.7050,0,0.0000,0.0000,0.0000,0.0000,0.0000,0,1,0,0.0000,0
1518,-3.1670,5.9909,0.0029,0.0035,0.0100,-0.0066,1.07,0.51,-28.16,0,4.144,-0.093,-0.211,-0.134,0.011,0.020,1.001,0.000,0.000,0.000,0.0050,-13,-4,0.00,0.00,0.00,0.0000,0.0000,0.0000,0.0000,0.0000,0.0000,0.0000,0.00,0.00,0.00,1.4590,0.0000,1.2320,0.9350,2.7010,0,0.0000,0.0000,0.0000,0.0000,0.0000,0,1,0,0.0000,0
1569,-3.1667,5.9889,0.0038,0.0061,0.0010,-0.0000,1.01,0.45,-28.02,0,4.138,0.044,0.145,0.128,0.015,0.020,1.001,0.000,0.000,0.000,0.0030,6,0,0.00,0.00,0.00,0.0000,0.0000,0.0000,0.0000,0.0000,0.0000,0.0000,0.00,0.00,0.00,1.4590,0.0000,1.2320,0.9270,2.7010,0,0.0000,0.0000,0.0000,0.0000,0.0000,0,1,0,0.0000,0
1620,-3.1667,5.9888,0.0040,0.0061,0.0035,0.0014,1.00,0.50,-27.89,0,4.144,0.140,0.174,-0.066,0.009,0.019,0.999,0.000,0.000,0.000,0.0020,0,0,0.00,0.00,0.00,0.0000,0.0000,0.0000,0.0000,0.0000,0.0000,0.0000,0.00,0.00,0.00,1.4510,0.0000,1.2370,0.9270,2.6960,0,0.0000,0.0000,0.0000,0.0000,0.0000,0,1,0,0.0000,0
1671,-3.1664,5.9885,0.0029,0.0069,0.0029,-0.0045,0.99,0.47,-27.75,0,4.138,0.060,-0.185,0.019,0.011,0.021,0.999,0.000,0.000,0.000,0.0020,16,5,0.00,0.00,0.00,0.0000,0.0000,0.0000,0.0000,0.0000,0.0000,0.0000,0.00,0.00,0.00,1.4510,0.0000,1.2370,0.9340,2.6960,0,0.0000,0.0000,0.0000,0.0000,0.0000,0,1,0,0.0000,0
1721,-3.1685,5.9852,0.0027,-0.0053,-0.0134,-0.0045,1.31,0.59,-27.62,0,4.144,-0.210,-0.208,-0.249,0.010,0.019,1.000,0.000,0.000,0.000,0.0060,-21,-3,0.00,0.00,0.00,0.0000,0.0000,0.0000,0.0000,0.0000,0.0000,0.0000,0.00,0.00,0.00,1.4460,0.0000,1.2310,0.9340,2.7100,0,0.0000,0.0000,0.0000,0.0000,0.0000,0,1,0,0.0000,0
1773,-3.1721,5.9779,0.0035,-0.0209,-0.0466,0.0013,1.03,0.53,-27.47,0,4.138,-0.196,-0.143,0.071,0.009,0.019,0.999,0.000,0.000,0.000,0.0040,29,2,0.00,0.00,0.00,0.0000,0.0000,0.0000,0.0000,0.0000,0.0000,0.0000,0.00,0.00,0.00,1.4460,0.0000,1.2310,0.9320,2.7100,0,0.0000,0.0000,0.0000,0.0000,0.0000,0,1,0,0.0000,0
1824,-3.1680,5.9830,0.0042,0.0033,-0.0150,0.0042,1.55,0.51,-27.34,0,4.144,-0.180,-0.040,-0.244,0.010,0.021,1.002,0.000,0.000,0.000,0.0070,-14,-3,0.00,0.00,0.00,0.0000,0.0000,0.0000,0.0000,0.0000,0.0000,0.0000,0.00,0.00,0.00,1.4500,0.2470,1.2350,0.9320,2.6990,0,0.0000,0.0000,0.0000,0.0000,0.0000,0,1,0,0.0000,0
1875,-3.1733,5.9713,0.0052,-0.0211,-0.0663,0.0087,1.37,0.45,-27.21,0,4.133,-0.025,-0.019,0.087,0.009,0.020,1.000,0.000,0.000,0.000,0.0040,-1,0,0.00,0.00,0.00,0.0000,0.0000,0.0000,0.0000,0.0000,0.0000,0.0000,0.00,0.00,0.00,1.4500,0.2470,1.2350,0.9340,2.6990,0,0.0000,0.0000,0.0000,0.0000,0.0000,0,1,0,0.0000,0
1926,-3.1733,5.9729,0.0064,-0.0158,-0.0431,0.0127,1.44,0.48,-27.07,0,4.144,-0.089,0.139,-0.179,0.011,0.020,1.000,0.000,0.000,0.000,0.0040,-14,-4,0.00,0.00,0.00,0.0000,0.0000,0.0000,0.0000,0.0000,0.0000,0.0000,0.00,0.00,0.00,1.4510,0.2440,1.2330,0.9340,2.7060,0,0.0000,0.0000,0.0000,0.0000,0.0000,0,1,0,0.0000,0
1977,-3.1736,5.9724,0.0052,-0.0131,-0.0339,0.0043,0.82,0.48,-26.94,0,4.138,0.089,0.071,0.218,0.012,0.021,0.998,0.000,0.000,0.000,0.0070,0,1,0.00,0.00,0.00,0.0000,0.0000,0.0000,0.0000,0.0000,0.0000,0.0000,0.00,0.00,0.00,1.4510,0.2440,1.2330,0.9340,2.7060,0,0.0000,0.0000,0.0000,0.0000,0.0000,0,1,0,0.0000,0
2028,-3.1680,5.9809,0.0055,0.0153,0.0124,0.0047,1.12,0.50,-26.81,0,4.144,-0.242,0.146,0.016,0.012,0.018,0.999,0.000,0.000,0.000,0.0050,0,1,0.00,0.00,0.00,0.0000,0.0000,0.0000,0.0000,0.0000,0.0000,0.0000,0.00,0.00,0.00,1.4440,0.0000,1.2310,0.9340,2.6930,0,0.0000,0.0000,0.0000,0.0000,0.0000,0,1,0,0.0000,0
2079,-3.1706,5.9733,0.0061,0.0018,-0.0233,0.0050,1.11,0.52,-26.67,0,4.138,0.021,0.049,-0.139,0.009,0.022,0.999,0.000,0.000,0.000,0.0050,5,6,0.00,0.00,0.00,0.0000,0.0000,0.0000,0.0000,0.0000,0.0000,0.0000,0.00,0.00,0.00,1.4440,0.0000,1.2310,0.9350,2.6930,0,0.0000,0.0000,0.0000,0.0000,0.0000,0,1,0,0.0000,0
2130,-3.1731,5.9670,0.0062,-0.0103,-0.0498,0.0035,1.55,0.57,-26.54,0,4.144,0.081,-0.094,0.128,0.010,0.020,1.000,0.000,0.000,0.000,0.0030,7,4,0.00,0.00,0.00,0.0000,0.0000,0.0000,0.0000,0.0000,0.0000,0.0000,0.00,0.00,0.00,1.4470,0.0000,1.2390,0.9350,2.7000,0,0.0000,0.0000,0.0000,0.0000,0.0000,0,1,0,0.0000,0
2181,-3.1737,5.9672,0.0050,-0.0098,-0.0363,-0.0027,1.18,0.60,-26.41,0,4.133,-0.042,0.060,0.376,0.011,0.020,1.001,0.000,0.000,0.000,0.0030,-9,5,0.00,0.00,0.00,0.0000,0.0000,0.0000,0.0000,0.0000,0.0000,0.0000,0.00,0.00,0.00,1.4470,0.0000,1.2390,0.9360,2.7000,0,0.0000,0.0000,0.0000,0.0000,0.0000,0,1,0,0.0000,0
2232,-3.1756,5.9635,0.0048,-0.0167,-0.0485,-0.0035,1.23,0.58,-26.28,0,4.144,0.040,0.102,0.080,0.009,0.018,1.000,0.000,0.000,0.000,0.0020,3,-3,0.00,0.00,0.00,0.0000,0.0000,0.0000,0.0000,0.0000,0.0000,0.0000,0.00,0.00,0.00,1.4500,0.0000,1.2340,0.9360,2.6980,0,0.0000,0.0000,0.0000,0.0000,0.0000,0,1,0,0.0000,0
2283,-3.1750,5.9691,0.0032,-0.0100,-0.0099,-0.0095,1.02,0.59,-26.15,0,4.138,-0.020,0.182,-0.112,0.009,0.018,0.996,0.000,0.000,0.000,0.0040,13,-4,0.00,0.00,0.00,0.0000,0.0000,0.0000,0.0000,0.0000,0.0000,0.0000,0.00,0.00,0.00,1.4500,0.0000,1.2340,0.9320,2.6980,0,0.0000,0.0000,0.0000,0.0000,0.0000,0,1,0,0.0000,0
2334,-3.1761,5.9643,0.0033,-0.0130,-0.0317,-0.0073,1.19,0.56,-26.02,0,4.144,0.058,0.268,-0.108,0.011,0.018,1.001,0.000,0.000,0.000,0.0020,0,-6,0.00,0.00,0.00,0.0000,0.0000,0.0000,0.0000,0.0000,0.0000,0.0000,0.00,0.00,0.00,1.4500,0.2580,1.2390,0.9320,2.7060,0,0.0000,0.0000,0.0000,0.0000,0.0000,0,1,0,0.0000,0
2385,-3.1753,5.9670,0.0027,-0.0055,-0.0104,-0.0090,0.80,0.49,-25.89,0,4.138,0.049,0.170,0.035,0.010,0.020,1.000,0.000,0.000,0.000,0.0040,13,0,0.00,0.00,0.00,0.0000,0.0000,0.0000,0.0000,0.0000,0.0000,0.0000,0.00,0.00,0.00,1.4500,0.2580,1.2390,0.9340,2.7060,0,0.0000,0.0000,0.0000,0.0000,0.0000,0,1,0,0.0000,0
2436,-3.1706,5.9725,0.0025,0.0171,0.0174,-0.0076,0.85,0.55,-25.76,0,4.144,0.009,0.137,0.101,0.009,0.021,1.001,0.000,0.000,0.000,0.0030,6,-4,0.00,0.00,0.00,0.0000,0.0000,0.0000,0.0000,0.0000,0.0000,0.0000,0.00,0.00,0.00,1.4490,0.0000,1.2340,0.9340,2.6960,0,0.0000,0.0000,0.0000,0.0000,0.0000,0,1,0,0.0000,0
2487,-3.1721,5.9689,0.0031,0.0075,-0.0023,-0.0033,0.85,0.53,-25.64,0,4.133,0.236,0.108,-0.145,0.011,0.022,1.001,0.000,0.000,0.000,0.0020,5,-3,0.00,0.00,0.00,0.0000,0.0000,0.0000,0.0000,0.0000,0.0000,0.0000,0.00,0.00,0.00,1.4490,0.0000,1.2340,0.9300,2.6960,0,0.0000,0.0000,0.0000,0.0000,0.0000,0,1,0,0.0000,0
2538,-3.1742,5.9675,0.0030,-0.0045,-0.0095,-0.0028,1.23,0.55,-25.51,0,4.144,-0.174,0.275,0.324,0.008,0.022,1.002,0.000,0.000,0.000,0.0050,-2,6,0.00,0.00,0.00,0.0000,0.0000,0.0000,0.0000,0.0000,0.0000,0.0000,0.00,0.00,0.00,1.4460,0.0000,1.2350,0.9300,2.7040,0,0.0000,0.0000,0.0000,0.0000,0.0000,0,1,0,0.0000,0
2589,-3.1732,5.9676,0.0036,0.0027,-0.0028,0.0015,0.99,0.58,-25.38,0,4.138,0.216,-0.212,-0.151,0.010,0.021,1.000,0.000,0.000,0.000,0.0050,10,2,0.00,0.00,0.00,0.0000,0.0000,0.0000,0.0000,0.0000,0.0000,0.0000,0.00,0.00,0.00,1.4460,0.0000,1.2350,0.9330,2.7040,0,0.0000,0.0000,0.0000,0.0000,0.0000,0,1,0,0.0000,0
2640,-3.1737,5.9661,0.0037,0.0008,-0.0076,0.0014,1.31,0.56,-25.25,0,4.144,0.124,0.181,0.043,0.010,0.018,1.000,0.000,0.000,0.000,0.0040,-1,-8,0.00,0.00,0.00,0.0000,0.0000,0.0000,0.0000,0.0000,0.0000,0.0000,0.00,0.00,0.00,1.4530,0.2710,1.2360,0.9330,2.7030,0,0.0000,0.0000,0.0000,0.0000,0.0000,0,1,0,0.0000,0
2691,-3.1773,5.9586,0.0042,-0.0150,-0.0399,0.0027,1.22,0.53,-25.13,0,4.138,0.084,0.144,-0.049,0.011,0.019,1.000,0.000,0.000,0.000,0.0030,1,2,0.00,0.00,0.00,0.0000,0.0000,0.0000,0.0000,0.0000,0.0000,0.0000,0.00,0.00,0.00,1.4530,0.2710,1.2360,0.9320,2.7030,0,0.0000,0.0000,0.0000,0.0000,0.0000,0,1,0,0.0000,0
2742,-3.1784,5.9561,0.0044,-0.0171,-0.0454,0.0023,1.31,0.57,-25.03,0,4.144,-0.128,-0.011,0.467,0.009,0.021,0.998,0.000,0.000,0.000,0.0030,0,-2,0.00,0.00,0.00,0.0000,0.0000,0.0000,0.0000,0.0000,0.0000,0.0000,0.00,0.00,0.00,1.4460,0.0000,1.2360,0.9320,2.7010,0,0.0000,0.0000,0.0000,0.0000,0.0000,0,1,0,0.0000,0
2793,-3.1778,5.9594,0.0036,-0.0093,-0.0180,-0.0014,1.06,0.57,-24.90,0,4.133,-0.121,0.013,0.024,0.013,0.021,1.001,0.000,0.000,0.000,0.0030,-3,-3,0.00,0.00,0.00,0.0000,0.0000,0.0000,0.0000,0.0000,0.0000,0.0000,0.00,0.00,0.00,1.4460,0.0000,1.2360,0.9340,2.7010,0,0.0000,0.0000,0.0000,0.0000,0.0000,0,1,0,0.0000,0
2844,-3.1799,5.9555,0.0035,-0.0174,-0.0342,-0.0012,1.42,0.53,-24.78,0,4.144,0.043,0.001,-0.240,0.011,0.020,0.998,0.000,0.000,0.000,0.0030,-2,4,0.00,0.00,0.00,0.0000,0.0000,0.0000,0.0000,0.0000,0.0000,0.0000,0.00,0.00,0.00,1.4480,0.0000,1.2380,0.9340,2.6990,0,0.0000,0.0000,0.0000,0.0000,0.0000,0,1,0,0.0000,0
2895,-3.1815,5.9514,0.0032,-0.0213,-0.0441,-0.0019,1.13,0.68,-24.65,0,4.133,0.111,0.002,-0.326,0.008,0.022,1.002,0.000,0.000,0.000,0.0040,-6,-5,0.00,0.00,0.00,0.0000,0.0000,0.0000,0.0000,0.0000,0.0000,0.0000,0.00,0.00,0.00,1.4480,0.0000,1.2380,0.9340,2.6990,0,0.0000,0.0000,0.0000,0.0000,0.0000,0,1,0,0.0000,0
2946,-3.1822,5.9529,0.0034,-0.0195,-0.0278,-0.0002,1.06,0.59,-24.53,0,4.144,-0.137,-0.345,-0.309,0.010,0.019,0.998,0.000,0.000,0.000,0.0060,-22,5,0.00,0.00,0.00,0.0000,0.0000,0.0000,0.0000,0.0000,0.0000,0.0000,0.00,0.00,0.00,1.4500,0.0000,1.2290,0.9340,2.7100,0,0.0000,0.0000,0.0000,0.0000,0.0000,0,1,0,0.0000,0
2997,-3.1825,5.9538,0.0047,-0.0162,-0.0167,0.0059,0.64,0.68,-24.41,0,4.138,-0.268,0.090,0.116,0.010,0.017,0.999,0.000,0.000,0.000,0.0050,-3,-3,0.00,0.00,0.00,0.0000,0.0000,0.0000,0.0000,0.0000,0.0000,0.0000,0.00,0.00,0.00,1.4500,0.0000,1.2290,0.9360,2.7100,0,0.0000,0.0000,0.0000,0.0000,0.0000,0,1,0,0.0000,0
3048,-3.1795,5.9626,0.0051,0.0019,0.0284,0.0062,0.69,0.63,-24.29,0,4.144,0.032,0.171,0.309,0.009,0.020,1.001,0.000,0.000,0.000,0.0070,3,3,0.00,0.00,0.00,0.0000,0.0000,0.0000,0.0000,0.0000,0.0000,0.0000,0.00,0.00,0.00,1.4400,0.2760,1.2370,0.9360,2.7030,0,0.0000,0.0000,0.0000,0.0000,0.0000,0,1,0,0.0000,0
3099,-3.1785,5.9628,0.0061,0.0080,0.0255,0.0102,0.74,0.60,-24.17,0,4.133,-0.149,-0.144,0.127,0.011,0.018,1.000,0.000,0.000,0.000,0.0030,-1,4,0.00,0.00,0.00,0.0000,0.0000,0.0000,0.0000,0.0000,0.0000,0.0000,0.00,0.00,0.00,1.4400,0.2760,1.2370,0.9330,2.7030,0,0.0000,0.0000,0.0000,0.0000,0.0000,0,1,0,0.0000,0
3150,-3.1789,5.9624,0.0067,0.0062,0.0200,0.0104,0.77,0.62,-24.04,0,4.144,-0.121,0.140,0.095,0.011,0.018,1.000,0.000,0.000,0.000,0.0020,0,-8,0.00,0.00,0.00,0.0000,0.0000,0.0000,0.0000,0.0000,0.0000,0.0000,0.00,0.00,0.00,1.4540,0.2860,1.2320,0.9330,2.6990,0,0.0000,0.0000,0.0000,0.0000,0.0000,0,1,0,0.0000,0
3200,-3.1794,5.9627,0.0039,0.0043,0.0169,-0.0047,0.82,0.53,-23.92,0,4.138,0.074,0.037,0.091,0.012,0.020,0.999,0.000,0.000,0.000,0.0050,0,-3,0.00,0.00,0.00,0.0000,0.0000,0.0000,0.0000,0.0000,0.0000,0.0000,0.00,0.00,0.00,1.4540,0.2860,1.2320,0.9340,2.6990,0,0.0000,0.0000,0.0000,0.0000,0.0000,0,1,0,0.0000,0
3252,-3.1791,5.9618,0.0043,0.0067,0.0096,-0.0011,0.85,0.57,-23.80,0,4.144,-0.192,-0.032,0.132,0.010,0.018,1.002,0.000,0.000,0.000,0.0030,0,4,0.00,0.00,0.00,0.0000,0.0000,0.0000,0.0000,0.0000,0.0000,0.0000,0.00,0.00,0.00,1.4510,0.2830,1.2380,0.9340,2.6970,0,0.0000,0.0000,0.0000,0.0000,0.0000,0,1,0,0.0000,0
3302,-3.1794,5.9631,0.0037,0.0050,0.0148,-0.0037,0.87,0.58,-23.69,0,4.138,-0.162,0.012,0.032,0.011,0.021,1.001,0.000,0.000,0.000,0.0030,0,1,0.00,0.00,0.00,0.0000,0.0000,0.0000,0.0000,0.0000,0.0000,0.0000,0.00,0.00,0.00,1.4510,0.2830,1.2380,0.9310,2.6970,0,0.0000,0.0000,0.0000,0.0000,0.0000,0,1,0,0.0000,0
3354,-3.1790,5.9630,0.0036,0.0074,0.0116,-0.0028,0.91,0.55,-23.57,0,4.144,-0.093,-0.209,-0.319,0.011,0.021,0.998,0.000,0.000,0.000,0.0030,-3,0,0.00,0.00,0.00,0.0000,0.0000,0.0000,0.0000,0.0000,0.0000,0.0000,0.00,0.00,0.00,1.4430,0.2830,1.2360,0.9310,2.7020,0,0.0000,0.0000,0.0000,0.0000,0.0000,0,1,0,0.0000,0
3405,-3.1793,5.9635,0.0031,0.0058,0.0133,-0.0047,0.91,0.57,-23.46,0,4.133,-0.170,-0.035,-0.112,0.012,0.019,0.999,0.000,0.000,0.000,0.0030,21,0,0.00,0.00,0.00,0.0000,0.0000,0.0000,0.0000,0.0000,0.0000,0.0000,0.00,0.00,0.00,1.4430,0.2830,1.2360,0.9340,2.7020,0,0.0000,0.0000,0.0000,0.0000,0.0000,0,1,0,0.0000,0
3456,-3.1793,5.9634,0.0029,0.0056,0.0113,-0.0045,0.95,0.53,-23.34,0,4.144,0.015,-0.113,-0.067,0.009,0.021,1.003,0.000,0.000,0.000,0.0060,5,-1,0.00,0.00,0.00,0.0000,0.0000,0.0000,0.0000,0.0000,0.0000,0.0000,0.00,0.00,0.00,1.4440,0.0000,1.2400,0.9340,2.6970,0,0.0000,0.0000,0.0000,0.0000,0.0000,0,1,0,0.0000,0
3507,-3.1790,5.9635,0.0042,0.0060,0.0102,0.0032,0.99,0.53,-23.22,0,4.138,0.052,0.081,-0.076,0.010,0.020,0.999,0.000,0.000,0.000,0.0030,-5,4,0.00,0.00,0.00,0.0000,0.0000,0.0000,0.0000,0.0000,0.0000,0.0000,0.00,0.00,0.00,1.4440,0.0000,1.2400,0.9320,2.6970,0,0.0000,0.0000,0.0000,0.0000,0.0000,0,1,0,0.0000,0
3558,-3.1793,5.9645,0.0044,0.0040,0.0144,0.0033,0.75,0.59,-23.10,0,4.144,0.062,0.037,0.176,0.010,0.021,0.999,0.000,0.000,0.000,0.0050,-16,1,0.00,0.00,0.00,0.0000,0.0000,0.0000,0.0000,0.0000,0.0000,0.0000,0.00,0.00,0.00,1.4400,0.2660,1.2350,0.9320,2.7110,0,0.0000,0.0000,0.0000,0.0000,0.0000,0,1,0,0.0000,0
3609,-3.1780,5.9717,0.0042,0.0097,0.0462,0.0021,0.75,0.62,-22.99,0,4.138,0.171,-0.121,0.212,0.010,0.020,1.003,0.000,0.000,0.000,0.0030,-7,-1,0.00,0.00,0.00,0.0000,0.0000,0.0000,0.0000,0.0000,0.0000,0.0000,0.00,0.00,0.00,1.4400,0.2660,1.2350,0.9310,2.7110,0,0.0000,0.0000,0.0000,0.0000,0.0000,0,1,0,0.0000,0
3660,-3.1772,5.9741,0.0038,0.0130,0.0517,-0.0001,0.68,0.56,-22.87,0,4.144,-0.158,-0.030,0.130,0.008,0.022,0.999,0.000,0.000,0.000,0.0020,1,5,0.00,0.00,0.00,0.0000,0.0000,0.0000,0.0000,0.0000,0.0000,0.0000,0.00,0.00,0.00,1.4510,0.2790,1.2460,0.9310,2.6980,0,0.0000,0.0000,0.0000,0.0000,0.0000,0,1,0,0.0000,0
3711,-3.1749,5.9813,0.0029,0.0217,0.0786,-0.0048,0.60,0.59,-22.76,0,4.133,0.219,-0.291,-0.011,0.007,0.018,0.999,0.000,0.000,0.000,0.0060,9,4,0.00,0.00,0.00,0.0000,0.0000,0.0000,0.0000,0.0000,0.0000,0.0000,0.00,0.00,0.00,1.4510,0.2790,1.2460,0.9350,2.6980,0,0.0000,0.0000,0.0000,0.0000,0.0000,0,1,0,0.0000,0
3762,-3.1747,5.9789,0.0033,0.0183,0.0523,-0.0019,0.70,0.60,-22.65,0,4.144,-0.332,0.218,0.350,0.008,0.023,1.000,0.000,0.000,0.000,0.0030,1,-4,0.00,0.00,0.00,0.0000,0.0000,0.0000,0.0000,0.0000,0.0000,0.0000,0.00,0.00,0.00,1.4510,0.0000,1.2360,0.9350,2.6970,0,0.0000,0.0000,0.0000,0.0000,0.0000,0,1,0,0.0000,0
3813,-3.1750,5.9804,0.0041,0.0123,0.0489,0.0022,1.21,0.48,-22.53,0,4.138,-0.278,0.008,0.216,0.011,0.020,1.000,0.000,0.000,0.000,0.0050,0,2,0.00,0.00,0.00,0.0000,0.0000,0.0000,0.0000,0.0000,0.0000,0.0000,0.00,0.00,0.00,1.4510,0.0000,1.2360,0.9330,2.6970,0,0.0000,0.0000,0.0000,0.0000,0.0000,0,1,0,0.0000,0
3864,-3.1765,5.9717,0.0048,0.0044,0.0009,0.0053,1.18,0.55,-22.42,0,4.144,0.078,0.189,-0.028,0.010,0.022,1.001,0.000,0.000,0.000,0.0040,-5,8,0.00,0.00,0.00,0.0000,0.0000,0.0000,0.0000,0.0000,0.0000,0.0000,0.00,0.00,0.00,1.4590,0.2700,1.2320,0.9330,2.7030,0,0.0000,0.0000,0.0000,0.0000,0.0000,0,1,0,0.0000,0
3915,-3.1774,5.9716,0.0047,-0.0000,0.0004,0.0031,1.18,0.55,-22.30,0,4.138,-0.394,-0.211,0.386,0.009,0.021,1.002,0.000,0.000,0.000,0.0060,-31,-1,0.00,0.00,0.00,0.0000,0.0000,0.0000,0.0000,0.0000,0.0000,0.0000,0.00,0.00,0.00,1.4590,0.2700,1.2320,0.9340,2.7030,0,0.0000,0.0000,0.0000,0.0000,0.0000,0,1,0,0.0000,0
3966,-3.1775,5.9709,0.0049,-0.0001,-0.0026,0.0034,-0.17,-0.01,0.00,0,4.144,-0.069,-0.005,-0.091,0.011,0.021,0.998,0.000,0.000,0.000,0.0030,-11,6,0.00,0.00,0.00,0.0000,0.0000,0.0000,0.0000,0.0000,0.0000,0.0000,0.00,0.00,0.00,1.4450,0.0000,1.2340,0.9340,2.7060,0,0.0000,0.0000,0.0000,0.0000,0.0000,0,1,0,0.0000,0
4017,0.0003,0.0033,0.0042,0.0083,0.0715,-0.0013,0.11,0.17,0.00,0,4.133,0.066,0.165,-0.066,0.009,0.018,0.999,0.000,0.000,0.000,0.0040,-12,8,0.00,0.00,0.00,0.0000,0.0000,0.0000,0.0000,0.0000,0.0000,0.0000,0.00,0.00,0.00,1.4450,0.0000,1.2340,0.9360,2.7060,0,0.0000,0.0000,0.0000,0.0000,0.0000,0,1,0,0.0000,0
4069,0.0004,0.0056,0.0046,0.0099,0.0619,-0.0009,0.68,0.12,0.00,0,4.144,0.060,0.122,-0.139,0.008,0.020,1.001,0.000,0.000,0.000,0.0050,-8,2,0.00,0.00,0.00,0.0000,0.0000,0.0000,0.0000,0.0000,0.0000,0.0000,0.00,0.00,0.00,1.4510,0.0000,1.2350,0.9360,2.7040,0,0.0000,0.0000,0.0000,0.0000,0.0000,0,1,0,0.0000,0
4121,0.0001,0.0063,0.0048,0.0030,0.0465,0.0006,1.06,0.20,0.00,0,4.138,-0.136,0.205,-0.019,0.008,0.023,0.999,0.000,0.000,0.000,0.0040,-7,-6,0.00,0.00,0.00,0.0000,0.0000,0.0000,0.0000,0.0000,0.0000,0.0000,0.00,0.00,0.00,1.4510,0.0000,1.2350,0.9320,2.7040,0,0.0000,0.0000,0.0000,0.0000,0.0000,0,1,0,0.0000,0
4173,0.0010,0.0050,0.0050,0.0129,0.0121,0.0018,1.42,0.11,0.00,0,4.144,0.100,0.115,0.099,0.009,0.020,1.001,0.000,0.000,0.000,0.0040,-2,0,0.00,0.00,0.00,0.0000,0.0000,0.0000,0.0000,0.0000,0.0000,0.0000,0.00,0.00,0.00,1.4380,0.2630,1.2370,0.9320,2.6970,0,0.0000,0.0000,0.0000,0.0000,0.0000,0,1,0,0.0000,0
4224,-0.0003,0.0068,0.0044,-0.0022,0.0191,-0.0018,1.63,0.25,0.00,0,4.138,-0.081,0.008,0.159,0.009,0.020,1.000,0.000,0.000,0.000,0.0030,12,-3,0.00,0.00,0.00,0.0000,0.0000,0.0000,0.0000,0.0000,0.0000,0.0000,0.00,0.00,0.00,1.4380,0.2630,1.2370,0.9340,2.6970,0,0.0000,0.0000,0.0000,0.0000,0.0000,0,1,0,0.0000,0
4275,0.0005,0.0060,0.0044,0.0049,0.0025,-0.0017,2.44,0.16,0.00,0,4.144,-0.150,-0.489,-0.073,0.010,0.020,1.002,0.000,0.000,0.000,0.0030,1,0,0.00,0.00,0.00,0.0000,0.0000,0.0000,0.0000,0.0000,0.0000,0.0000,0.00,0.00,0.00,1.4450,0.2690,1.2400,0.9340,2.7020,0,0.0000,0.0000,0.0000,0.0000,0.0000,0,1,0,0.0000,0
4326,0.0012,0.0051,0.0035,0.0092,-0.0064,-0.0048,1.83,0.40,0.00,0,4.133,-0.139,-0.011,-0.113,0.012,0.018,1.000,0.000,0.000,0.000,0.0060,1,4,0.00,0.00,0.00,0.0000,0.0000,0.0000,0.0000,0.0000,0.0000,0.0000,0.00,0.00,0.00,1.4450,0.2690,1.2400,0.9360,2.7020,0,0.0000,0.0000,0.0000,0.0000,0.0000,0,1,0,0.0000,0
4377,0.0012,0.0029,0.0032,0.0072,-0.0243,-0.0045,2.41,0.46,0.00,0,4.144,0.167,0.025,-0.115,0.010,0.020,1.000,0.000,0.000,0.000,0.0030,-2,0,0.00,0.00,0.00,0.0000,0.0000,0.0000,0.0000,0.0000,0.0000,0.0000,0.00,0.00,0.00,1.4570,0.0000,1.2370,0.9360,2.7050,0,0.0000,0.0000,0.0000,0.0000,0.0000,0,1,0,0.0000,0
4428,0.0019,-0.0060,0.0038,0.0108,-0.0753,-0.0025,1.90,0.41,0.00,0,4.133,-0.026,-0.071,-0.064,0.009,0.019,1.000,0.000,0.000,0.000,0.0030,-1,-5,0.00,0.00,0.00,0.0000,0.0000,0.0000,0.0000,0.0000,0.0000,0.0000,0.00,0.00,0.00,1.4570,0.0000,1.2370,0.9330,2.7050,0,0.0000,0.0000,0.0000,0.0000,0.0000,0,1,0,0.0000,0
4479,0.0014,-0.0034,0.0043,0.0050,-0.0520,0.0004,2.04,0.43,0.00,0,4.144,0.077,-0.120,-0.188,0.008,0.019,1.000,0.000,0.000,0.000,0.0030,27,4,0.00,0.00,0.00,0.0000,0.0000,0.0000,0.0000,0.0000,0.0000,0.0000,0.00,0.00,0.00,1.4490,0.0000,1.2330,0.9330,2.7080,0,0.0000,0.0000,0.0000,0.0000,0.0000,0,1,0,0.0000,0
4530,0.0020,-0.0036,0.0034,0.0074,-0.0447,-0.0033,2.58,0.59,-0.00,0,4.138,-0.184,0.233,0.038,0.008,0.019,0.999,0.000,0.000,0.000,0.0040,-16,-4,0.00,0.00,0.00,0.0000,0.0000,0.0000,0.0000,0.0000,0.0000,0.0000,0.00,0.00,0.00,1.4490,0.0000,1.2330,0.9340,2.7080,0,0.0000,0.0000,0.0000,0.0000,0.0000,0,1,0,0.0000,0
4580,0.0008,-0.0097,0.0037,0.0001,-0.0686,-0.0007,1.21,0.53,0.03,0,4.144,-0.168,0.079,0.016,0.009,0.018,0.998,0.000,0.000,0.000,0.0050,-3,7,0.00,0.00,0.00,0.0000,0.0000,0.0000,0.0000,0.0000,0.0000,0.0000,0.00,0.00,0.00,1.4500,0.0000,1.2330,0.9340,2.7060,0,0.0000,0.0000,0.0000,0.0000,0.0000,0,1,0,0.0000,0
4632,0.0021,0.0012,0.0046,0.0081,0.0002,0.0043,1.23,0.59,0.02,0,4.133,-0.127,0.343,-0.001,0.009,0.021,1.000,0.000,0.000,0.000,0.0040,5,0,0.00,0.00,0.00,0.0000,0.0000,0.0000,0.0000,0.0000,0.0000,0.0000,0.00,0.00,0.00,1.4500,0.0000,1.2330,0.9360,2.7060,0,0.0000,0.0000,0.0000,0.0000,0.0000,0,1,0,0.0000,0
4682,0.0020,0.0002,0.0050,0.0066,-0.0067,0.0050,1.21,0.47,0.02,0,4.144,-0.161,-0.231,0.315,0.009,0.019,1.000,0.000,0.000,0.000,0.0070,7,-1,0.00,0.00,0.00,0.0000,0.0000,0.0000,0.0000,0.0000,0.0000,0.0000,0.00,0.00,0.00,1.4480,0.0000,1.2350,0.9360,2.7000,0,0.0000,0.0000,0.0000,0.0000,0.0000,0,1,0,0.0000,0
4733,0.0003,0.0016,0.0056,-0.0040,0.0010,0.0074,1.36,0.58,0.02,0,4.133,0.188,0.042,-0.204,0.010,0.020,0.999,0.000,0.000,0.000,0.0040,-33,7,0.00,0.00,0.00,0.0000,0.0000,0.0000,0.0000,0.0000,0.0000,0.0000,0.00,0.00,0.00,1.4480,0.0000,1.2350,0.9320,2.7000,0,0.0000,0.0000,0.0000,0.0000,0.0000,0,1,0,0.0000,0
4785,0.0000,0.0014,0.0061,-0.0044,0.0000,0.0079,0.70,0.59,0.04,0,4.144,-0.017,-0.049,-0.010,0.011,0.018,0.998,0.000,0.000,0.000,0.0030,-3,2,0.00,0.00,0.00,0.0000,0.0000,0.0000,0.0000,0.0000,0.0000,0.0000,0.00,0.00,0.00,1.4530,0.2720,1.2320,0.9320,2.6980,0,0.0000,0.0000,0.0000,0.0000,0.0000,0,1,0,0.0000,0
4836,-0.0002,0.0082,0.0046,-0.0046,0.0308,-0.0011,0.71,0.61,0.04,0,4.138,0.237,0.168,-0.182,0.010,0.021,1.002,0.000,0.000,0.000,0.0050,3,2,0.00,0.00,0.00,0.0000,0.0000,0.0000,0.0000,0.0000,0.0000,0.0000,0.00,0.00,0.00,1.4530,0.2720,1.2320,0.9340,2.6980,0,0.0000,0.0000,0.0000,0.0000,0.0000,0,1,0,0.0000,0
4887,-0.0006,0.0112,0.0046,-0.0055,0.0383,-0.0005,0.69,0.56,0.04,0,4.144,-0.109,0.319,0.232,0.009,0.020,0.999,0.000,0.000,0.000,0.0030,0,-8,0.00,0.00,0.00,0.0000,0.0000,0.0000,0.0000,0.0000,0.0000,0.0000,0.00,0.00,0.00,1.4440,0.2620,1.2370,0.9340,2.7030,0,0.0000,0.0000,0.0000,0.0000,0.0000,0,1,0,0.0000,0
4938,-0.0008,0.0121,0.0042,-0.0052,0.0333,-0.0025,0.93,0.53,0.03,0,4.133,-0.139,-0.120,0.353,0.008,0.018,1.000,0.000,0.000,0.000,0.0070,-4,-4,0.00,0.00,0.00,0.0000,0.0000,0.0000,0.0000,0.0000,0.0000,0.0000,0.00,0.00,0.00,1.4440,0.2620,1.2370,0.9350,2.7030,0,0.0000,0.0000,0.0000,0.0000,0.0000,0,1,0,0.0000,0
4990,-0.0001,0.0109,0.0041,-0.0003,0.0197,-0.0027,1.15,0.56,0.03,0,4.144,-0.025,0.291,0.090,0.010,0.021,1.002,0.000,0.000,0.000,0.0060,-4,-2,0.00,0.00,0.00,0.0000,0.0000,0.0000,0.0000,0.0000,0.0000,0.0000,0.00,0.00,0.00,1.4600,0.0000,1.2370,0.9350,2.6960,0,0.0000,0.0000,0.0000,0.0000,0.0000,0,1,0,0.0000,0
5041,-0.0036,0.0127,0.0058,-0.0170,0.0264,0.0054,1.03,0.64,0.03,0,4.133,0.021,-0.054,0.066,0.009,0.020,1.000,0.000,0.000,0.000,0.0040,-9,-5,0.00,0.00,0.00,0.0000,0.0000,0.0000,0.0000,0.0000,0.0000,0.0000,0.00,0.00,0.00,1.4600,0.0000,1.2370,0.9350,2.6960,0,0.0000,0.0000,0.0000,0.0000,0.0000,0,1,0,0.0000,0
5093,-0.0021,0.0108,0.0062,-0.0052,0.0126,0.0058,1.54,0.50,0.02,0,4.144,-0.381,0.125,-0.003,0.012,0.019,0.998,0.000,0.000,0.000,0.0040,-4,-2,0.00,0.00,0.00,0.0000,0.0000,0.0000,0.0000,0.0000,0.0000,0.0000,0.00,0.00,0.00,1.4540,0.0000,1.2330,0.9350,2.6960,0,0.0000,0.0000,0.0000,0.0000,0.0000,0,1,0,0.0000,0
5144,-0.0016,-0.0053,0.0048,-0.0022,-0.0648,-0.0022,1.59,0.51,0.02,0,4.133,0.128,0.265,-0.060,0.009,0.021,1.001,0.000,0.000,0.000,0.0030,23,4,0.00,0.00,0.00,0.0000,0.0000,0.0000,0.0000,0.0000,0.0000,0.0000,0.00,0.00,0.00,1.4540,0.0000,1.2330,0.9360,2.6960,0,0.0000,0.0000,0.0000,0.0000,0.0000,0,1,0,0.0200,0
5195,-0.0020,-0.0051,0.0050,-0.0043,-0.0528,-0.0003,1.74,0.49,0.02,0,4.144,-0.119,0.013,0.192,0.012,0.020,1.001,0.000,0.000,0.000,0.0040,-1,-1,0.00,0.00,0.00,0.0000,0.0000,0.0000,0.0000,0.0000,0.0000,0.0000,0.00,0.00,0.00,1.4390,0.0000,1.2350,0.9360,2.7020,0,0.0000,0.0000,0.0000,0.0000,0.0000,0,1,0,0.0200,0
5246,-0.0012,-0.0069,0.0042,0.0004,-0.0505,-0.0036,1.51,0.49,0.03,0,4.133,-0.044,0.089,-0.036,0.009,0.020,1.001,0.000,0.000,0.000,0.0030,-27,9,0.00,0.00,0.00,0.0000,0.0000,0.0000,0.0000,0.0000,0.0000,0.0000,0.00,0.00,0.00,1.4390,0.0000,1.2350,0.9350,2.7020,0,0.0000,0.0000,0.0000,0.0000,0.0000,0,1,0,0.0400,0
5297,-0.0005,-0.0083,0.0041,0.0043,-0.0478,-0.0031,1.14,0.54,0.03,0,4.144,0.276,0.117,0.042,0.010,0.020,1.000,0.000,0.000,0.000,0.0050,1,1,0.00,0.00,0.00,0.0000,0.0000,0.0000,0.0000,0.0000,0.0000,0.0000,0.00,0.00,0.00,1.4510,0.2770,1.2400,0.9350,2.7030,0,0.0000,0.0000,0.0000,0.0000,0.0000,0,1,0,0.0400,0
5347,-0.0010,-0.0049,0.0043,0.0023,-0.0222,-0.0006,0.93,0.54,0.03,0,4.133,0.204,-0.010,-0.021,0.009,0.020,0.998,0.000,0.000,0.000,0.0040,21,1,0.00,0.00,0.00,0.0000,0.0000,0.0000,0.0000,0.0000,0.0000,0.0000,0.00,0.00,0.00,1.4510,0.2770,1.2400,0.9290,2.7030,0,0.0000,0.0000,0.0000,0.0000,0.0000,0,1,0,0.0600,0
5398,-0.0010,0.0020,0.0042,0.0030,0.0155,-0.0001,1.27,0.49,0.02,0,4.144,-0.074,0.239,0.150,0.010,0.021,1.001,0.000,0.000,0.000,0.0030,1,-4,0.00,0.00,0.00,0.0000,0.0000,0.0000,0.0000,0.0000,0.0000,0.0000,0.00,0.00,0.00,1.4570,0.0000,1.2330,0.9290,2.7040,0,0.0000,0.0000,0.0000,0.0000,0.0000,0,1,0,0.0600,0
5449,-0.0008,-0.0053,0.0038,0.0038,-0.0211,-0.0029,1.25,0.53,0.02,0,4.133,0.039,-0.476,-0.215,0.010,0.019,0.999,0.000,0.000,0.000,0.0050,-8,9,0.00,0.00,0.00,0.0000,0.0000,0.0000,0.0000,0.0000,0.0000,0.0000,0.00,0.00,0.00,1.4570,0.0000,1.2330,0.9360,2.7040,0,0.0000,0.0000,0.0000,0.0000,0.0000,0,1,0,0.0800,0
5501,-0.0018,-0.0057,0.0038,-0.0010,-0.0180,-0.0023,1.12,0.56,0.02,0,4.144,-0.020,-0.052,0.079,0.007,0.019,1.000,0.000,0.000,0.000,0.0040,2,1,0.00,0.00,0.00,0.0000,0.0000,0.0000,0.0000,0.0000,0.0000,0.0000,0.00,0.00,0.00,1.4490,0.2830,1.2370,0.9360,2.7020,0,0.0000,0.0000,0.0000,0.0000,0.0000,0,1,0,0.0800,0
5553,-0.0010,-0.0070,0.0042,0.0033,-0.0208,0.0001,1.10,0.52,0.02,0,4.133,0.082,0.252,0.033,0.011,0.019,1.002,0.000,0.000,0.000,0.0020,-10,-3,0.00,0.00,0.00,0.0000,0.0000,0.0000,0.0000,0.0000,0.0000,0.0000,0.00,0.00,0.00,1.4490,0.2830,1.2370,0.9360,2.7020,0,0.0000,0.0000,0.0000,0.0000,0.0000,0,1,0,0.1000,0
5604,-0.0020,-0.0015,0.0044,-0.0029,0.0125,0.0021,0.81,0.51,0.02,0,4.144,0.313,0.295,-0.079,0.012,0.017,1.001,0.000,0.000,0.000,0.0040,-5,3,0.00,0.00,0.00,0.0000,0.0000,0.0000,0.0000,0.0000,0.0000,0.0000,0.00,0.00,0.00,1.4520,0.0000,1.2380,0.9360,2.6990,0,0.0000,0.0000,0.0000,0.0000,0.0000,0,1,0,0.1000,0
5655,-0.0020,0.0011,0.0035,-0.0018,0.0231,-0.0011,0.84,0.50,0.02,0,4.133,-0.035,0.277,-0.283,0.011,0.020,1.000,0.000,0.000,0.000,0.0050,-9,1,0.00,0.00,0.00,0.0000,0.0000,0.0000,0.0000,0.0000,0.0000,0.0000,0.00,0.00,0.00,1.4520,0.0000,1.2380,0.9330,2.6990,0,0.0000,0.0000,0.0000,0.0000,0.0000,0,1,0,0.1200,0
5707,-0.0013,0.0017,0.0035,0.0023,0.0220,-0.0010,0.92,0.48,0.03,0,4.144,0.170,0.066,-0.066,0.008,0.019,0.998,0.000,0.000,0.000,0.0030,0,-4,0.00,0.00,0.00,0.0000,0.0000,0.0000,0.0000,0.0000,0.0000,0.0000,0.00,0.00,0.00,1.4530,0.0000,1.2390,0.9330,2.6950,0,0.0000,0.0000,0.0000,0.0000,0.0000,0,1,0,0.1200,0
5758,-0.0018,0.0027,0.0038,-0.0006,0.0262,-0.0002,0.81,0.49,0.03,0,4.133,-0.022,0.147,-0.055,0.011,0.020,1.000,0.000,0.000,0.000,0.0040,16,6,0.00,0.00,0.00,0.0000,0.0000,0.0000,0.0000,0.0000,0.0000,0.0000,0.00,0.00,0.00,1.4530,0.0000,1.2390,0.9340,2.6950,0,0.0000,0.0000,0.0000,0.0000,0.0000,0,1,0,0.1400,0
5809,-0.0013,-0.0020,0.0040,0.0022,-0.0040,0.0010,1.35,0.53,0.03,0,4.144,-0.091,0.028,0.217,0.009,0.021,1.001,0.000,0.000,0.000,0.0030,-5,0,0.00,0.00,0.00,0.0000,0.0000,0.0000,0.0000,0.0000,0.0000,0.0000,0.00,0.00,0.00,1.4560,0.0000,1.2370,0.9340,2.7000,0,0.0000,0.0000,0.0000,0.0000,0.0000,0,1,0,0.1400,0
5860,0.0000,-0.0114,0.0034,0.0088,-0.0474,-0.0025,1.30,0.49,0.03,0,4.133,-0.261,-0.008,0.176,0.009,0.020,0.998,0.000,0.000,0.000,0.0020,-9,1,0.00,0.00,0.00,0.0000,0.0000,0.0000,0.0000,0.0000,0.0000,0.0000,0.00,0.00,0.00,1.4560,0.0000,1.2370,0.9350,2.7000,0,0.0000,0.0000,0.0000,0.0000,0.0000,0,1,0,0.1400,0
5911,-0.0018,-0.0128,0.0035,-0.0019,-0.0460,-0.0015,1.42,0.53,0.03,0,4.144,-0.135,0.342,0.012,0.009,0.018,1.001,0.000,0.000,0.000,0.0040,20,0,0.00,0.00,0.00,0.0000,0.0000,0.0000,0.0000,0.0000,0.0000,0.0000,0.00,0.00,0.00,1.4420,0.0000,1.2340,0.9350,2.6970,0,0.0000,0.0000,0.0000,0.0000,0.0000,0,1,0,0.1600,0
5962,-0.0011,-0.0171,0.0032,0.0017,-0.0563,-0.0014,1.42,0.48,0.03,0,4.133,0.077,0.118,0.173,0.009,0.020,1.000,0.000,0.000,0.000,0.0040,27,3,0.00,0.00,0.00,0.0000,0.0000,0.0000,0.0000,0.0000,0.0000,0.0000,0.00,0.00,0.00,1.4420,0.0000,1.2340,0.9360,2.6970,0,0.0000,0.0000,0.0000,0.0000,0.0000,0,1,0,0.1600,0
6013,-0.0013,-0.0180,0.0035,-0.0003,-0.0501,-0.0000,1.72,0.47,0.02,0,4.144,-0.162,0.264,0.236,0.011,0.019,0.998,0.000,0.000,0.000,0.0040,13,-4,0.00,0.00,0.00,0.0000,0.0000,0.0000,0.0000,0.0000,0.0000,0.0000,0.00,0.00,0.00,1.4500,0.0000,1.2310,0.9360,2.7080,0,0.0000,0.0000,0.0000,0.0000,0.0000,0,1,0,0.1800,0
6064,0.0008,-0.0289,0.0036,0.0109,-0.0898,0.0002,1.78,0.45,0.03,0,4.133,-0.104,0.128,0.061,0.010,0.021,1.000,0.000,0.000,0.000,0.0030,6,0,0.00,0.00,0.00,0.0000,0.0000,0.0000,0.0000,0.0000,0.0000,0.0000,0.00,0.00,0.00,1.4500,0.0000,1.2310,0.9350,2.7080,0,0.0000,0.0000,0.0000,0.0000,0.0000,0,1,0,0.1800,0
6115,0.0011,-0.0361,0.0035,0.0106,-0.1050,-0.0007,1.81,0.45,0.03,0,4.144,-0.214,0.231,-0.207,0.012,0.022,1.000,0.000,0.000,0.000,0.0020,-2,1,0.00,0.00,0.00,0.0000,0.0000,0.0000,0.0000,0.0000,0.0000,0.0000,0.00,0.00,0.00,1.4510,0.0000,1.2380,0.9350,2.6950,0,0.0000,0.0000,0.0000,0.0000,0.0000,0,1,0,0.2000,0
6166,0.0015,-0.0476,0.0023,0.0112,-0.1381,-0.0067,1.72,0.44,0.02,0,4.133,0.271,-0.088,-0.212,0.008,0.021,0.998,0.000,0.000,0.000,0.0040,22,0,0.00,0.00,0.00,0.0000,0.0000,0.0000,0.0000,0.0000,0.0000,0.0000,0.00,0.00,0.00,1.4510,0.0000,1.2380,0.9330,2.6950,0,0.0000,0.0000,0.0000,0.0000,0.0000,0,1,0,0.2000,0
6217,0.0034,-0.0477,0.0034,0.0195,-0.1109,0.0013,1.74,0.41,0.02,0,4.144,0.232,0.004,-0.286,0.010,0.021,1.002,0.000,0.000,0.000,0.0020,0,8,0.00,0.00,0.00,0.0000,0.0000,0.0000,0.0000,0.0000,0.0000,0.0000,0.00,0.00,0.00,1.4540,0.0000,1.2340,0.9330,2.7020,0,0.0000,0.0000,0.0000,0.0000,0.0000,0,1,0,0.2200,0
6267,0.0042,-0.0546,0.0028,0.0198,-0.1215,-0.0018,1.58,0.48,0.02,0,4.133,0.027,0.065,-0.166,0.010,0.018,1.001,0.000,0.000,0.000,0.0030,0,2,0.00,0.00,0.00,0.0000,0.0000,0.0000,0.0000,0.0000,0.0000,0.0000,0.00,0.00,0.00,1.4540,0.0000,1.2340,0.9350,2.7020,0,0.0000,0.0000,0.0000,0.0000,0.0000,0,1,0,0.2200,0
6319,0.0045,-0.0528,0.0038,0.0185,-0.0859,0.0055,1.21,0.48,0.01,0,4.144,-0.030,0.119,-0.082,0.010,0.017,0.997,0.000,0.000,0.000,0.0020,-3,0,0.00,0.00,0.00,0.0000,0.0000,0.0000,0.0000,0.0000,0.0000,0.0000,0.00,0.00,0.00,1.4470,0.2760,1.2350,0.9350,2.6980,0,0.0000,0.0000,0.0000,0.0000,0.0000,0,1,0,0.2400,0
6370,0.0032,-0.0554,0.0031,0.0091,-0.0803,0.0009,1.19,0.47,0.02,0,4.133,0.170,-0.288,-0.051,0.009,0.020,1.000,0.000,0.000,0.000,0.0040,2,0,0.00,0.00,0.00,0.0000,0.0000,0.0000,0.0000,0.0000,0.0000,0.0000,0.00,0.00,0.00,1.4470,0.2760,1.2350,0.9320,2.6980,0,0.0000,0.0000,0.0000,0.0000,0.0000,0,1,0,0.2400,0
6421,0.0037,-0.0559,0.0034,0.0090,-0.0660,0.0026,1.26,0.50,0.02,0,4.144,0.027,-0.064,0.273,0.009,0.020,1.000,0.000,0.000,0.000,0.0040,0,-3,0.00,0.00,0.00,0.0000,0.0000,0.0000,0.0000,0.0000,0.0000,0.0000,0.00,0.00,0.00,1.4450,0.2740,1.2360,0.9320,2.7090,0,0.0000,0.0000,0.0000,0.0000,0.0000,0,1,0,0.2600,0
6471,0.0039,-0.0597,0.0040,0.0090,-0.0678,0.0049,1.26,0.53,0.02,0,4.128,-0.067,0.196,-0.012,0.011,0.020,0.999,0.000,0.000,0.000,0.0070,1,3,0.00,0.00,0.00,0.0000,0.0000,0.0000,0.0000,0.0000,0.0000,0.0000,0.00,0.00,0.00,1.4450,0.2740,1.2360,0.9340,2.7090,0,0.0000,0.0000,0.0000,0.0000,0.0000,0,1,0,0.2600,0
6522,0.0045,-0.0640,0.0043,0.0117,-0.0707,0.0054,1.03,0.45,0.02,0,4.144,-0.094,-0.104,-0.050,0.011,0.020,1.002,0.000,0.000,0.000,0.0040,3,-6,0.00,0.00,0.00,0.0000,0.0000,0.0000,0.0000,0.0000,0.0000,0.0000,0.00,0.00,0.00,1.4540,0.0000,1.2370,0.9340,2.7050,0,0.0000,0.0000,0.0000,0.0000,0.0000,0,1,0,0.2800,0
6574,0.0047,-0.0632,0.0054,0.0106,-0.0510,0.0090,0.94,0.42,0.02,0,4.133,-0.081,-0.005,0.074,0.011,0.019,1.000,0.000,0.000,0.000,0.0030,0,4,0.00,0.00,0.00,0.0000,0.0000,0.0000,0.0000,0.0000,0.0000,0.0000,0.00,0.00,0.00,1.4540,0.0000,1.2370,0.9320,2.7050,0,0.0000,0.0000,0.0000,0.0000,0.0000,0,1,0,0.2800,0
6625,0.0051,-0.0613,0.0048,0.0110,-0.0284,0.0034,0.82,0.48,0.01,0,4.144,0.018,-0.105,0.111,0.009,0.019,1.000,0.000,0.000,0.000,0.0030,1,5,0.00,0.00,0.00,0.0000,0.0000,0.0000,0.0000,0.0000,0.0000,0.0000,0.00,0.00,0.00,1.4560,0.2760,1.2350,0.9320,2.7020,0,0.0000,0.0000,0.0000,0.0000,0.0000,0,1,0,0.3000,0
6675,0.0042,-0.0623,0.0041,0.0047,-0.0239,-0.0007,0.84,0.50,0.01,0,4.133,-0.037,0.078,-0.155,0.009,0.018,1.001,0.000,0.000,0.000,0.0050,-4,9,0.00,0.00,0.00,0.0000,0.0000,0.0000,0.0000,0.0000,0.0000,0.0000,0.00,0.00,0.00,1.4560,0.2760,1.2350,0.9330,2.7020,0,0.0000,0.0000,0.0000,0.0000,0.0000,0,1,0,0.3000,0
6727,0.0053,-0.0641,0.0041,0.0086,-0.0245,-0.0007,1.03,0.54,0.00,0,4.144,-0.094,0.012,-0.145,0.008,0.021,0.998,0.000,0.000,0.000,0.0040,-11,5,0.00,0.00,0.00,0.0000,0.0000,0.0000,0.0000,0.0000,0.0000,0.0000,0.00,0.00,0.00,1.4480,0.2720,1.2370,0.9330,2.7010,0,0.0000,0.0000,0.0000,0.0000,0.0000,0,1,0,0.3000,0
6778,0.0041,-0.0687,0.0044,0.0006,-0.0369,-0.0001,0.88,0.60,-0.00,0,4.133,0.013,0.114,0.180,0.011,0.018,0.999,0.000,0.000,0.000,0.0030,20,0,0.00,0.00,0.00,0.0000,0.0000,0.0000,0.0000,0.0000,0.0000,0.0000,0.00,0.00,0.00,1.4480,0.2720,1.2370,0.9300,2.7010,0,0.0000,0.0000,0.0000,0.0000,0.0000,0,1,0,0.3000,0
6829,0.0024,-0.0667,0.0045,-0.0073,-0.0159,0.0006,0.74,0.59,0.00,0,4.144,0.446,0.061,-0.140,0.011,0.018,1.001,0.000,0.000,0.000,0.0050,-5,1,0.00,0.00,0.00,0.0000,0.0000,0.0000,0.0000,0.0000,0.0000,0.0000,0.00,0.00,0.00,1.4530,0.2680,1.2390,0.9300,2.6930,0,0.0000,0.0000,0.0000,0.0000,0.0000,0,1,0,0.3000,0
6880,0.0020,-0.0654,0.0044,-0.0083,-0.0045,0.0000,0.72,0.57,0.01,0,4.133,-0.179,-0.216,0.470,0.011,0.017,1.000,0.000,0.000,0.000,0.0030,4,-11,0.00,0.00,0.00,0.0000,0.0000,0.0000,0.0000,0.0000,0.0000,0.0000,0.00,0.00,0.00,1.4530,0.2680,1.2390,0.9310,2.6930,0,0.0000,0.0000,0.0000,0.0000,0.0000,0,1,0,0.3000,0
6931,0.0019,-0.0652,0.0045,-0.0075,0.0007,0.0006,0.71,0.54,0.01,0,4.144,-0.128,0.125,-0.446,0.009,0.020,1.000,0.000,0.000,0.000,0.0040,-3,-1,0.00,0.00,0.00,0.0000,0.0000,0.0000,0.0000,0.0000,0.0000,0.0000,0.00,0.00,0.00,1.4410,0.2610,1.2380,0.9310,2.6980,0,0.0000,0.0000,0.0000,0.0000,0.0000,0,1,0,0.3000,0
6981,0.0019,-0.0659,0.0039,-0.0071,-0.0000,-0.0023,0.74,0.57,0.00,0,4.133,0.099,-0.041,-0.135,0.013,0.018,0.998,0.000,0.000,0.000,0.0030,10,0,0.00,0.00,0.00,0.0000,0.0000,0.0000,0.0000,0.0000,0.0000,0.0000,0.00,0.00,0.00,1.4410,0.2610,1.2380,0.9310,2.6980,0,0.0000,0.0000,0.0000,0.0000,0.0000,0,1,0,0.3000,0
7033,0.0034,-0.0701,0.0038,0.0019,-0.0189,-0.0022,1.02,0.53,0.00,0,4.144,-0.004,0.296,-0.019,0.010,0.020,1.000,0.000,0.000,0.000,0.0030,7,3,0.00,0.00,0.00,0.0000,0.0000,0.0000,0.0000,0.0000,0.0000,0.0000,0.00,0.00,0.00,1.4490,0.0000,1.2340,0.9310,2.7040,0,0.0000,0.0000,0.0000,0.0000,0.0000,0,1,0,0.3000,0
7084,0.0043,-0.0737,0.0031,0.0066,-0.0289,-0.0047,0.97,0.54,-0.00,0,4.133,0.141,0.135,-0.187,0.009,0.021,0.999,0.000,0.000,0.000,0.0060,4,-6,0.00,0.00,0.00,0.0000,0.0000,0.0000,0.0000,0.0000,0.0000,0.0000,0.00,0.00,0.00,1.4490,0.0000,1.2340,0.9310,2.7040,0,0.0000,0.0000,0.0000,0.0000,0.0000,0,1,0,0.3000,0
7135,0.0043,-0.0741,0.0043,0.0058,-0.0235,0.0030,0.90,0.52,0.00,0,4.144,0.130,0.059,0.192,0.010,0.019,0.997,0.000,0.000,0.000,0.0030,0,3,0.00,0.00,0.00,0.0000,0.0000,0.0000,0.0000,0.0000,0.0000,0.0000,0.00,0.00,0.00,1.4490,0.2700,1.2320,0.9310,2.7050,0,0.0000,0.0000,0.0000,0.0000,0.0000,0,1,0,0.3000,0
7186,0.0024,-0.0722,0.0039,-0.0040,-0.0078,0.0000,0.90,0.52,0.00,0,4.133,-0.128,0.009,-0.365,0.008,0.019,0.999,0.000,0.000,0.000,0.0040,31,0,0.00,0.00,0.00,0.0000,0.0000,0.0000,0.0000,0.0000,0.0000,0.0000,0.00,0.00,0.00,1.4490,0.2700,1.2320,0.9300,2.7050,0,0.0000,0.0000,0.0000,0.0000,0.0000,0,1,0,0.3000,0
7237,0.0043,-0.0780,0.0039,0.0055,-0.0326,-0.0006,1.51,0.48,-0.00,0,4.144,-0.250,0.159,0.278,0.010,0.022,0.999,0.000,0.000,0.000,0.0050,3,-3,0.00,0.00,0.00,0.0000,0.0000,0.0000,0.0000,0.0000,0.0000,0.0000,0.00,0.00,0.00,1.4540,0.2660,1.2390,0.9300,2.7030,0,0.0000,0.0000,0.0000,0.0000,0.0000,0,1,0,0.3000,0
7288,0.0058,-0.0912,0.0040,0.0120,-0.0842,-0.0004,1.37,0.45,0.00,0,4.133,-0.179,0.081,0.199,0.009,0.021,1.000,0.000,0.000,0.000,0.0030,-1,0,0.00,0.00,0.00,0.0000,0.0000,0.0000,0.0000,0.0000,0.0000,0.0000,0.00,0.00,0.00,1.4540,0.2660,1.2390,0.9350,2.7030,0,0.0000,0.0000,0.0000,0.0000,0.0000,0,1,0,0.3000,0
7339,0.0049,-0.0934,0.0042,0.0055,-0.0772,0.0004,1.28,0.48,0.00,0,4.144,0.096,0.094,-0.069,0.010,0.017,1.000,0.000,0.000,0.000,0.0050,8,-1,0.00,0.00,0.00,0.0000,0.0000,0.0000,0.0000,0.0000,0.0000,0.0000,0.00,0.00,0.00,1.4480,0.0000,1.2320,0.9350,2.7000,0,0.0000,0.0000,0.0000,0.0000,0.0000,0,1,0,0.3000,0
7391,0.0059,-0.0917,0.0044,0.0095,-0.0528,0.0021,1.13,0.49,0.00,0,4.133,-0.181,-0.088,-0.065,0.012,0.018,1.001,0.000,0.000,0.000,0.0060,-3,4,0.00,0.00,0.00,0.0000,0.0000,0.0000,0.0000,0.0000,0.0000,0.0000,0.00,0.00,0.00,1.4480,0.0000,1.2320,0.9340,2.7000,0,0.0000,0.0000,0.0000,0.0000,0.0000,0,1,0,0.3000,0
7442,0.0053,-0.0908,0.0047,0.0057,-0.0365,0.0034,1.13,0.58,-0.00,0,4.144,-0.060,-0.147,-0.065,0.012,0.020,0.998,0.000,0.000,0.000,0.0040,2,1,0.00,0.00,0.00,0.0000,0.0000,0.0000,0.0000,0.0000,0.0000,0.0000,0.00,0.00,0.00,1.4440,0.0000,1.2320,0.9340,2.7080,0,0.0000,0.0000,0.0000,0.0000,0.0000,0,1,0,0.3000,0
7494,0.0062,-0.0906,0.0051,0.0103,-0.0241,0.0038,0.93,0.53,-0.01,0,4.128,-0.005,0.279,0.138,0.011,0.022,1.000,0.000,0.000,0.000,0.0040,1,-1,0.00,0.00,0.00,0.0000,0.0000,0.0000,0.0000,0.0000,0.0000,0.0000,0.00,0.00,0.00,1.4440,0.0000,1.2320,0.9340,2.7080,0,0.0000,0.0000,0.0000,0.0000,0.0000,0,1,0,0.3000,0
7545,0.0046,-0.0895,0.0047,0.0009,-0.0110,0.0005,0.83,0.53,-0.00,0,4.144,0.013,0.085,0.032,0.012,0.021,0.999,0.000,0.000,0.000,0.0020,-4,3,0.00,0.00,0.00,0.0000,0.0000,0.0000,0.0000,0.0000,0.0000,0.0000,0.00,0.00,0.00,1.4450,0.0000,1.2330,0.9340,2.7000,0,0.0000,0.0000,0.0000,0.0000,0.0000,0,1,0,0.3000,0
7596,0.0044,-0.0901,0.0036,-0.0003,-0.0087,-0.0055,0.79,0.58,-0.01,0,4.133,-0.218,0.172,-0.119,0.009,0.018,0.999,0.000,0.000,0.000,0.0050,-23,3,0.00,0.00,0.00,0.0000,0.0000,0.0000,0.0000,0.0000,0.0000,0.0000,0.00,0.00,0.00,1.4450,0.0000,1.2330,0.9330,2.7000,0,0.0000,0.0000,0.0000,0.0000,0.0000,0,1,0,0.3000,0
7647,0.0048,-0.0892,0.0034,0.0018,-0.0002,-0.0052,0.39,0.54,-0.00,0,4.144,0.020,-0.214,-0.005,0.010,0.019,0.998,0.000,0.000,0.000,0.0040,-1,0,0.00,0.00,0.00,0.0000,0.0000,0.0000,0.0000,0.0000,0.0000,0.0000,0.00,0.00,0.00,1.4460,0.0000,1.2340,0.9330,2.7040,0,0.0000,0.0000,0.0000,0.0000,0.0000,0,1,0,0.3000,0
7698,0.0042,-0.0731,0.0035,-0.0022,0.0779,-0.0033,0.27,0.56,-0.00,0,4.133,-0.023,-0.050,0.190,0.008,0.021,1.000,0.000,0.000,0.000,0.0030,-12,6,0.00,0.00,0.00,0.0000,0.0000,0.0000,0.0000,0.0000,0.0000,0.0000,0.00,0.00,0.00,1.4460,0.0000,1.2340,0.9320,2.7040,0,0.0000,0.0000,0.0000,0.0000,0.0000,0,1,0,0.3000,0
7749,0.0031,-0.0721,0.0037,-0.0085,0.0711,-0.0020,0.39,0.61,-0.01,0,4.144,0.090,-0.045,-0.012,0.012,0.021,0.999,0.000,0.000,0.000,0.0040,0,1,0.00,0.00,0.00,0.0000,0.0000,0.0000,0.0000,0.0000,0.0000,0.0000,0.00,0.00,0.00,1.4490,0.0000,1.2330,0.9320,2.7020,0,0.0000,0.0000,0.0000,0.0000,0.0000,0,1,0,0.3000,0
7800,0.0033,-0.0727,0.0038,-0.0061,0.0571,-0.0013,0.52,0.60,-0.02,0,4.133,0.064,0.021,0.174,0.011,0.021,1.000,0.000,0.000,0.000,0.0030,-6,3,0.00,0.00,0.00,0.0000,0.0000,0.0000,0.0000,0.0000,0.0000,0.0000,0.00,0.00,0.00,1.4490,0.0000,1.2330,0.9320,2.7020,0,0.0000,0.0000,0.0000,0.0000,0.0000,0,1,0,0.3000,0
7851,0.0039,-0.0744,0.0040,-0.0011,0.0390,0.0001,0.65,0.59,-0.02,0,4.144,-0.088,0.099,-0.003,0.010,0.020,0.999,0.000,0.000,0.000,0.0030,0,3,0.00,0.00,0.00,0.0000,0.0000,0.0000,0.0000,0.0000,0.0000,0.0000,0.00,0.00,0.00,1.4500,0.2730,1.2340,0.9320,2.7010,0,0.0000,0.0000,0.0000,0.0000,0.0000,0,1,0,0.3000,0
7903,0.0042,-0.0735,0.0033,0.0003,0.0362,-0.0028,0.74,0.55,-0.02,0,4.133,-0.010,0.124,-0.114,0.011,0.018,1.000,0.000,0.000,0.000,0.0040,-11,-5,0.00,0.00,0.00,0.0000,0.0000,0.0000,0.0000,0.0000,0.0000,0.0000,0.00,0.00,0.00,1.4500,0.2730,1.2340,0.9360,2.7010,0,0.0000,0.0000,0.0000,0.0000,0.0000,0,1,0,0.3000,0
7953,0.0048,-0.0723,0.0036,0.0037,0.0369,-0.0004,0.38,0.54,-0.01,0,4.144,0.060,-0.017,0.064,0.009,0.020,1.002,0.000,0.000,0.000,0.0050,15,3,0.00,0.00,0.00,0.0000,0.0000,0.0000,0.0000,0.0000,0.0000,0.0000,0.00,0.00,0.00,1.4480,0.0000,1.2320,0.9360,2.7070,0,0.0000,0.0000,0.0000,0.0000,0.0000,0,1,0,0.3000,0
8005,0.0039,-0.0630,0.0041,-0.0007,0.0739,0.0020,0.54,0.53,-0.01,0,4.133,0.274,-0.196,0.281,0.012,0.021,0.997,0.000,0.000,0.000,0.0040,4,2,0.00,0.00,0.00,0.0000,0.0000,0.0000,0.0000,0.0000,0.0000,0.0000,0.00,0.00,0.00,1.4480,0.0000,1.2320,0.9360,2.7070,0,0.0000,0.0000,0.0000,0.0000,0.0000,0,1,0,0.3000,0
8056,0.0037,-0.0662,0.0050,-0.0017,0.0419,0.0061,0.86,0.56,-0.01,0,4.144,0.088,0.147,-0.202,0.010,0.020,1.002,0.000,0.000,0.000,0.0060,-13,0,0.00,0.00,0.00,0.0000,0.0000,0.0000,0.0000,0.0000,0.0000,0.0000,0.00,0.00,0.00,1.4450,0.0000,1.2330,0.9360,2.7060,0,0.0000,0.0000,0.0000,0.0000,0.0000,0,1,0,0.3000,0
8107,0.0037,-0.0672,0.0054,-0.0009,0.0302,0.0077,1.01,0.55,-0.01,0,4.133,0.192,0.218,0.009,0.009,0.023,0.999,0.000,0.000,0.000,0.0040,10,-4,0.00,0.00,0.00,0.0000,0.0000,0.0000,0.0000,0.0000,0.0000,0.0000,0.00,0.00,0.00,1.4450,0.0000,1.2330,0.9320,2.7060,0,0.0000,0.0000,0.0000,0.0000,0.0000,0,1,0,0.3000,0
8158,0.0044,-0.0741,0.0060,0.0026,-0.0075,0.0097,1.21,0.55,-0.02,0,4.144,-0.108,0.163,-0.171,0.009,0.020,1.001,0.000,0.000,0.000,0.0040,-6,0,0.00,0.00,0.00,0.0000,0.0000,0.0000,0.0000,0.0000,0.0000,0.0000,0.00,0.00,0.00,1.4460,0.0000,1.2410,0.9320,2.7030,0,0.0000,0.0000,0.0000,0.0000,0.0000,0,1,0,0.3000,0
8209,0.0037,-0.0760,0.0048,-0.0003,-0.0158,0.0021,1.18,0.55,-0.02,0,4.133,0.049,0.071,0.017,0.012,0.021,1.002,0.000,0.000,0.000,0.0050,11,-5,0.00,0.00,0.00,0.0000,0.0000,0.0000,0.0000,0.0000,0.0000,0.0000,0.00,0.00,0.00,1.4460,0.0000,1.2410,0.9350,2.7030,0,0.0000,0.0000,0.0000,0.0000,0.0000,0,1,0,0.3000,0
8260,0.0049,-0.0797,0.0049,0.0061,-0.0330,0.0021,1.73,0.42,-0.02,0,4.144,0.035,0.115,0.085,0.010,0.019,1.000,0.000,0.000,0.000,0.0050,0,-3,0.00,0.00,0.00,0.0000,0.0000,0.0000,0.0000,0.0000,0.0000,0.0000,0.00,0.00,0.00,1.4450,0.2620,1.2350,0.9350,2.7050,0,0.0000,0.0000,0.0000,0.0000,0.0000,0,1,0,0.3000,0
8311,0.0077,-0.0933,0.0046,0.0184,-0.0913,-0.0000,1.75,0.39,-0.01,0,4.133,0.052,0.018,-0.237,0.009,0.020,0.998,0.000,0.000,0.000,0.0040,-1,2,0.00,0.00,0.00,0.0000,0.0000,0.0000,0.0000,0.0000,0.0000,0.0000,0.00,0.00,0.00,1.4450,0.2620,1.2350,0.9330,2.7050,0,0.0000,0.0000,0.0000,0.0000,0.0000,0,1,0,0.3000,0
8362,0.0087,-0.0950,0.0046,0.0204,-0.0815,-0.0008,1.83,0.48,-0.01,0,4.144,0.034,0.072,0.070,0.010,0.019,1.000,0.000,0.000,0.000,0.0050,5,2,0.00,0.00,0.00,0.0000,0.0000,0.0000,0.0000,0.0000,0.0000,0.0000,0.00,0.00,0.00,1.4460,0.0000,1.2330,0.9330,2.7090,0,0.0000,0.0000,0.0000,0.0000,0.0000,0,1,0,0.3000,0
8413,0.0076,-0.0961,0.0051,0.0121,-0.0711,0.0027,1.80,0.56,-0.00,0,4.133,0.187,0.034,-0.107,0.009,0.019,1.001,0.000,0.000,0.000,0.0050,-9,-4,0.00,0.00,0.00,0.0000,0.0000,0.0000,0.0000,0.0000,0.0000,0.0000,0.00,0.00,0.00,1.4460,0.0000,1.2330,0.9330,2.7090,0,0.0000,0.0000,0.0000,0.0000,0.0000,0,1,0,0.3000,0
8464,0.0058,-0.1017,0.0055,0.0006,-0.0819,0.0046,1.76,0.49,-0.01,0,4.144,0.057,0.013,-0.302,0.009,0.019,0.998,0.000,0.000,0.000,0.0060,-13,0,0.00,0.00,0.00,0.0000,0.0000,0.0000,0.0000,0.0000,0.0000,0.0000,0.00,0.00,0.00,1.4460,0.2600,1.2280,0.9330,2.6960,0,0.0000,0.0000,0.0000,0.0000,0.0000,0,1,0,0.3000,0
8515,0.0064,-0.1058,0.0060,0.0026,-0.0817,0.0068,1.16,0.57,-0.01,0,4.133,-0.234,-0.311,0.239,0.010,0.019,0.997,0.000,0.000,0.000,0.0050,0,0,0.00,0.00,0.00,0.0000,0.0000,0.0000,0.0000,0.0000,0.0000,0.0000,0.00,0.00,0.00,1.4460,0.2600,1.2280,0.9340,2.6960,0,0.0000,0.0000,0.0000,0.0000,0.0000,0,1,0,0.3000,0
8566,0.0066,-0.0964,0.0070,0.0039,-0.0186,0.0106,0.91,0.53,-0.01,0,4.144,-0.170,0.072,0.160,0.011,0.020,0.999,0.000,0.000,0.000,0.0040,31,-2,0.00,0.00,0.00,0.0000,0.0000,0.0000,0.0000,0.0000,0.0000,0.0000,0.00,0.00,0.00,1.4470,0.2670,1.2410,0.9340,2.7030,0,0.0000,0.0000,0.0000,0.0000,0.0000,0,1,0,0.3000,0
8617,0.0064,-0.0884,0.0053,0.0022,0.0275,0.0008,0.86,0.56,-0.01,0,4.133,0.238,-0.073,-0.159,0.012,0.019,0.999,0.000,0.000,0.000,0.0050,27,4,0.00,0.00,0.00,0.0000,0.0000,0.0000,0.0000,0.0000,0.0000,0.0000,0.00,0.00,0.00,1.4470,0.2670,1.2410,0.9330,2.7030,0,0.0000,0.0000,0.0000,0.0000,0.0000,0,1,0,0.3000,0
8668,0.0053,-0.0914,0.0058,-0.0032,0.0095,0.0022,1.22,0.59,-0.01,0,4.144,-0.004,0.057,-0.101,0.010,0.022,1.002,0.000,0.000,0.000,0.0030,0,4,0.00,0.00,0.00,0.0000,0.0000,0.0000,0.0000,0.0000,0.0000,0.0000,0.00,0.00,0.00,1.4490,0.0000,1.2380,0.9330,2.7040,0,0.0000,0.0000,0.0000,0.0000,0.0000,0,1,0,0.3000,0
8719,0.0060,-0.1014,0.0045,0.0017,-0.0384,-0.0059,1.38,0.59,-0.01,0,4.133,0.189,0.204,0.066,0.009,0.021,1.001,0.000,0.000,0.000,0.0040,5,5,0.00,0.00,0.00,0.0000,0.0000,0.0000,0.0000,0.0000,0.0000,0.0000,0.00,0.00,0.00,1.4490,0.0000,1.2380,0.9330,2.7040,0,0.0000,0.0000,0.0000,0.0000,0.0000,0,1,0,0.3000,0
8770,0.0070,-0.1019,0.0044,0.0074,-0.0291,-0.0050,0.96,0.55,-0.00,0,4.144,-0.285,0.108,-0.143,0.010,0.018,0.999,0.000,0.000,0.000,0.0020,2,0,0.00,0.00,0.00,0.0000,0.0000,0.0000,0.0000,0.0000,0.0000,0.0000,0.00,0.00,0.00,1.4520,0.2650,1.2320,0.9330,2.7050,0,0.0000,0.0000,0.0000,0.0000,0.0000,0,1,0,0.3000,0
8821,0.0072,-0.1011,0.0034,0.0074,-0.0201,-0.0087,1.08,0.40,-0.01,0,4.133,0.096,0.015,0.047,0.011,0.019,1.000,0.000,0.000,0.000,0.0020,-4,2,0.00,0.00,0.00,0.0000,0.0000,0.0000,0.0000,0.0000,0.0000,0.0000,0.00,0.00,0.00,1.4520,0.2650,1.2320,0.9310,2.7050,0,0.0000,0.0000,0.0000,0.0000,0.0000,0,1,0,0.3000,0
8872,0.0097,-0.0998,0.0031,0.0180,-0.0070,-0.0077,1.04,0.43,-0.01,0,4.144,0.015,0.002,0.120,0.010,0.019,1.002,0.000,0.000,0.000,0.0020,-16,-2,0.00,0.00,0.00,0.0000,0.0000,0.0000,0.0000,0.0000,0.0000,0.0000,0.00,0.00,0.00,1.4530,0.2710,1.2390,0.9310,2.7020,0,0.0000,0.0000,0.0000,0.0000,0.0000,0,1,0,0.3000,0
8923,0.0096,-0.1017,0.0021,0.0149,-0.0127,-0.0100,0.71,0.50,-0.01,0,4.133,0.041,-0.160,-0.287,0.010,0.021,1.002,0.000,0.000,0.000,0.0010,-5,5,0.00,0.00,0.00,0.0000,0.0000,0.0000,0.0000,0.0000,0.0000,0.0000,0.00,0.00,0.00,1.4530,0.2710,1.2390,0.9350,2.7020,0,0.0000,0.0000,0.0000,0.0000,0.0000,0,1,0,0.3000,0
8974,0.0090,-0.0927,0.0015,0.0088,0.0363,-0.0102,0.74,0.52,-0.00,0,4.144,-0.097,0.031,0.250,0.010,0.018,1.000,0.000,0.000,0.000,0.0040,-5,3,0.00,0.00,0.00,0.0000,0.0000,0.0000,0.0000,0.0000,0.0000,0.0000,0.00,0.00,0.00,1.4540,0.0000,1.2370,0.9350,2.7010,0,0.0000,0.0000,0.0000,0.0000,0.0000,0,1,0,0.3000,0
9026,0.0094,-0.0892,0.0022,0.0096,0.0497,-0.0033,0.73,0.51,-0.01,0,4.128,-0.013,0.125,-0.023,0.009,0.018,1.000,0.000,0.000,0.000,0.0040,-10,0,0.00,0.00,0.00,0.0000,0.0000,0.0000,0.0000,0.0000,0.0000,0.0000,0.00,0.00,0.00,1.4540,0.0000,1.2370,0.9340,2.7010,0,0.0000,0.0000,0.0000,0.0000,0.0000,0,1,0,0.3000,0
9077,0.0090,-0.0930,0.0026,0.0055,0.0222,-0.0010,0.89,0.54,-0.00,0,4.144,-0.306,-0.055,0.002,0.009,0.019,1.001,0.000,0.000,0.000,0.0050,4,-3,0.00,0.00,0.00,0.0000,0.0000,0.0000,0.0000,0.0000,0.0000,0.0000,0.00,0.00,0.00,1.4400,0.2750,1.2380,0.9340,2.7030,0,0.0000,0.0000,0.0000,0.0000,0.0000,0,1,0,0.3000,0
9128,0.0101,-0.0999,0.0041,0.0093,-0.0156,0.0063,1.05,0.56,-0.01,0,4.133,-0.000,-0.348,-0.268,0.007,0.019,0.998,0.000,0.000,0.000,0.0050,1,4,0.00,0.00,0.00,0.0000,0.0000,0.0000,0.0000,0.0000,0.0000,0.0000,0.00,0.00,0.00,1.4400,0.2750,1.2380,0.9330,2.7030,0,0.0000,0.0000,0.0000,0.0000,0.0000,0,1,0,0.3000,0
9178,0.0099,-0.0983,0.0045,0.0075,-0.0037,0.0064,0.85,0.60,-0.01,0,4.144,-0.033,0.065,0.005,0.009,0.021,0.998,0.000,0.000,0.000,0.0060,14,-5,0.00,0.00,0.00,0.0000,0.0000,0.0000,0.0000,0.0000,0.0000,0.0000,0.00,0.00,0.00,1.4450,0.2520,1.2360,0.9330,2.6950,0,0.0000,0.0000,0.0000,0.0000,0.0000,0,1,0,0.3000,0
9230,0.0087,-0.0965,0.0056,-0.0007,0.0046,0.0099,1.16,0.55,-0.01,0,4.128,0.189,-0.140,-0.020,0.010,0.022,0.999,0.000,0.000,0.000,0.0030,-1,-6,0.00,0.00,0.00,0.0000,0.0000,0.0000,0.0000,0.0000,0.0000,0.0000,0.00,0.00,0.00,1.4450,0.2520,1.2360,0.9330,2.6950,0,0.0000,0.0000,0.0000,0.0000,0.0000,0,1,0,0.3000,0
9281,0.0105,-0.0980,0.0062,0.0089,-0.0004,0.0106,1.02,0.48,-0.00,0,4.144,0.099,0.081,0.099,0.010,0.019,1.001,0.000,0.000,0.000,0.0040,0,-2,0.00,0.00,0.00,0.0000,0.0000,0.0000,0.0000,0.0000,0.0000,0.0000,0.00,0.00,0.00,1.4510,0.2690,1.2370,0.9330,2.7060,0,0.0000,0.0000,0.0000,0.0000,0.0000,0,1,0,0.3000,0
9332,0.0107,-0.1008,0.0046,0.0082,-0.0142,0.0016,1.10,0.51,-0.00,0,4.128,-0.198,-0.375,0.162,0.011,0.020,1.001,0.000,0.000,0.000,0.0050,-21,5,0.00,0.00,0.00,0.0000,0.0000,0.0000,0.0000,0.0000,0.0000,0.0000,0.00,0.00,0.00,1.4510,0.2690,1.2370,0.9310,2.7060,0,0.0000,0.0000,0.0000,0.0000,0.0000,0,1,0,0.3000,0
9383,0.0112,-0.0984,0.0048,0.0090,0.0025,0.0027,0.79,0.60,-0.00,0,4.144,0.001,0.254,0.044,0.011,0.017,0.999,0.000,0.000,0.000,0.0050,0,-1,0.00,0.00,0.00,0.0000,0.0000,0.0000,0.0000,0.0000,0.0000,0.0000,0.00,0.00,0.00,1.4500,0.2740,1.2340,0.9310,2.6980,0,0.0000,0.0000,0.0000,0.0000,0.0000,0,1,0,0.3000,0
9434,0.0094,-0.0939,0.0050,-0.0023,0.0255,0.0033,0.78,0.55,0.00,0,4.133,0.054,-0.018,0.001,0.012,0.019,1.000,0.000,0.000,0.000,0.0040,-1,5,0.00,0.00,0.00,0.0000,0.0000,0.0000,0.0000,0.0000,0.0000,0.0000,0.00,0.00,0.00,1.4500,0.2740,1.2340,0.9340,2.6980,0,0.0000,0.0000,0.0000,0.0000,0.0000,0,1,0,0.3000,0
9485,0.0104,-0.0932,0.0053,0.0030,0.0242,0.0035,0.59,0.62,0.01,0,4.138,0.150,-0.291,-0.212,0.012,0.019,0.997,0.000,0.000,0.000,0.0020,-4,-4,0.00,0.00,0.00,0.0000,0.0000,0.0000,0.0000,0.0000,0.0000,0.0000,0.00,0.00,0.00,1.4500,0.2680,1.2370,0.9340,2.7020,0,0.0000,0.0000,0.0000,0.0000,0.0000,0,1,0,0.3000,0
9536,0.0084,-0.0824,0.0034,-0.0065,0.0734,-0.0067,0.67,0.61,0.00,0,4.128,-0.146,0.087,0.041,0.008,0.020,0.999,0.000,0.000,0.000,0.0040,-27,-8,0.00,0.00,0.00,0.0000,0.0000,0.0000,0.0000,0.0000,0.0000,0.0000,0.00,0.00,0.00,1.4500,0.2680,1.2370,0.9320,2.7020,0,0.0000,0.0000,0.0000,0.0000,0.0000,0,1,0,0.3000,0
9587,0.0067,-0.0786,0.0031,-0.0144,0.0833,-0.0075,0.20,0.59,0.00,0,4.144,-0.143,-0.110,0.135,0.010,0.018,0.999,0.000,0.000,0.000,0.0040,6,5,0.00,0.00,0.00,0.0000,0.0000,0.0000,0.0000,0.0000,0.0000,0.0000,0.00,0.00,0.00,1.4490,0.2650,1.2330,0.9320,2.6970,0,0.0000,0.0000,0.0000,0.0000,0.0000,0,1,0,0.3000,0
9639,0.0077,-0.0711,0.0034,-0.0069,0.1041,-0.0043,0.46,0.59,0.00,0,4.133,-0.242,-0.050,-0.050,0.010,0.019,1.000,0.000,0.000,0.000,0.0050,-31,6,0.00,0.00,0.00,0.0000,0.0000,0.0000,0.0000,0.0000,0.0000,0.0000,0.00,0.00,0.00,1.4490,0.2650,1.2330,0.9320,2.6970,0,0.0000,0.0000,0.0000,0.0000,0.0000,0,1,0,0.3000,0
9690,0.0081,-0.0700,0.0037,-0.0032,0.0901,-0.0016,0.32,0.60,0.00,0,4.144,-0.045,0.053,0.034,0.010,0.021,0.998,0.000,0.000,0.000,0.0040,0,5,0.00,0.00,0.00,0.0000,0.0000,0.0000,0.0000,0.0000,0.0000,0.0000,0.00,0.00,0.00,1.4520,0.2730,1.2390,0.9320,2.7020,0,0.0000,0.0000,0.0000,0.0000,0.0000,0,1,0,0.3000,0
9742,0.0068,-0.0649,0.0043,-0.0103,0.0986,0.0003,0.49,0.60,0.00,0,4.133,0.030,-0.078,0.276,0.009,0.020,0.998,0.000,0.000,0.000,0.0030,-2,1,0.00,0.00,0.00,0.0000,0.0000,0.0000,0.0000,0.0000,0.0000,0.0000,0.00,0.00,0.00,1.4520,0.2730,1.2390,0.9350,2.7020,0,0.0000,0.0000,0.0000,0.0000,0.0000,0,1,0,0.3000,0
9793,0.0070,-0.0632,0.0047,-0.0079,0.0872,0.0023,0.65,0.58,0.00,0,4.138,-0.125,-0.080,-0.247,0.012,0.020,0.998,0.000,0.000,0.000,0.0050,-9,5,0.00,0.00,0.00,0.0000,0.0000,0.0000,0.0000,0.0000,0.0000,0.0000,0.00,0.00,0.00,1.4440,0.2750,1.2310,0.9350,2.7030,0,0.0000,0.0000,0.0000,0.0000,0.0000,0,1,0,0.3000,0
9844,0.0065,-0.0629,0.0046,-0.0093,0.0719,0.0024,0.92,0.61,-0.00,0,4.128,0.033,0.137,-0.290,0.011,0.020,1.000,0.000,0.000,0.000,0.0060,6,2,0.00,0.00,0.00,0.0000,0.0000,0.0000,0.0000,0.0000,0.0000,0.0000,0.00,0.00,0.00,1.4440,0.2750,1.2310,0.9350,2.7030,0,0.0000,0.0000,0.0000,0.0000,0.0000,0,1,0,0.3000,0
9896,0.0065,-0.0761,0.0052,-0.0069,-0.0073,0.0052,1.30,0.60,-0.01,0,4.144,-0.260,-0.238,0.165,0.009,0.019,0.998,0.000,0.000,0.000,0.0040,-4,0,0.00,0.00,0.00,0.0000,0.0000,0.0000,0.0000,0.0000,0.0000,0.0000,0.00,0.00,0.00,1.4460,0.0000,1.2380,0.9350,2.6980,0,0.0000,0.0000,0.0000,0.0000,0.0000,0,1,0,0.3000,0
9947,0.0074,-0.0790,0.0051,-0.0006,-0.0222,0.0027,1.37,0.54,-0.00,0,4.128,-0.317,0.039,0.079,0.009,0.018,0.999,0.000,0.000,0.000,0.0040,2,4,0.00,0.00,0.00,0.0000,0.0000,0.0000,0.0000,0.0000,0.0000,0.0000,0.00,0.00,0.00,1.4460,0.0000,1.2380,0.9310,2.6980,0,0.0000,0.0000,0.0000,0.0000,0.0000,0,1,0,0.3000,0
9997,0.0085,-0.0800,0.0052,0.0058,-0.0249,0.0022,1.35,0.53,-0.01,0,4.144,-0.025,-0.186,-0.069,0.010,0.021,1.001,0.000,0.000,0.000,0.0010,-2,0,0.00,0.00,0.00,0.0000,0.0000,0.0000,0.0000,0.0000,0.0000,0.0000,0.00,0.00,0.00,1.4490,0.2750,1.2360,0.9310,2.7080,0,0.0000,0.0000,0.0000,0.0000,0.0000,0,1,0,0.3000,0
10049,0.0083,-0.0788,0.0032,0.0044,-0.0143,-0.0085,1.32,0.50,-0.01,0,4.133,0.110,0.025,-0.064,0.014,0.020,0.999,0.000,0.000,0.000,0.0050,-19,-8,0.00,0.00,0.00,0.0000,0.0000,0.0000,0.0000,0.0000,0.0000,0.0000,0.00,0.00,0.00,1.4490,0.2750,1.2360,0.9320,2.7080,0,0.0000,0.0000,0.0000,0.0000,0.0000,0,1,0,0.3000,0
10100,0.0081,-0.0794,0.0028,0.0032,-0.0145,-0.0081,1.34,0.54,-0.00,0,4.144,0.007,0.071,-0.100,0.009,0.021,1.000,0.000,0.000,0.000,0.0050,0,-8,0.00,0.00,0.00,0.0000,0.0000,0.0000,0.0000,0.0000,0.0000,0.0000,0.00,0.00,0.00,1.4450,0.0000,1.2380,0.9320,2.7060,0,0.0000,0.0000,0.0000,0.0000,0.0000,0,1,0,0.3000,0
10151,0.0073,-0.0796,0.0044,-0.0007,-0.0105,0.0016,1.18,0.51,-0.00,0,4.128,0.014,0.256,0.108,0.008,0.021,0.998,0.000,0.000,0.000,0.0050,-1,0,0.00,0.00,0.00,0.0000,0.0000,0.0000,0.0000,0.0000,0.0000,0.0000,0.00,0.00,0.00,1.4450,0.0000,1.2380,0.9320,2.7060,0,0.0000,0.0000,0.0000,0.0000,0.0000,0,1,0,0.3000,0
10202,0.0064,-0.0780,0.0045,-0.0052,-0.0007,0.0010,1.09,0.57,-0.00,0,4.144,0.146,-0.218,0.179,0.012,0.020,0.998,0.000,0.000,0.000,0.0040,0,-2,0.00,0.00,0.00,0.0000,0.0000,0.0000,0.0000,0.0000,0.0000,0.0000,0.00,0.00,0.00,1.4520,0.0000,1.2350,0.9320,2.7030,0,0.0000,0.0000,0.0000,0.0000,0.0000,0,1,0,0.3000,0
10252,0.0060,-0.0784,0.0046,-0.0054,-0.0047,0.0009,1.32,0.52,-0.00,0,4.128,-0.263,-0.101,0.429,0.009,0.019,1.000,0.000,0.000,0.000,0.0060,-14,0,0.00,0.00,0.00,0.0000,0.0000,0.0000,0.0000,0.0000,0.0000,0.0000,0.00,0.00,0.00,1.4520,0.0000,1.2350,0.9380,2.7030,0,0.0000,0.0000,0.0000,0.0000,0.0000,0,1,0,0.3000,0
10303,0.0062,-0.0840,0.0046,-0.0028,-0.0319,0.0003,1.30,0.55,-0.00,0,4.144,-0.048,0.140,0.150,0.006,0.019,1.001,0.000,0.000,0.000,0.0040,1,0,0.00,0.00,0.00,0.0000,0.0000,0.0000,0.0000,0.0000,0.0000,0.0000,0.00,0.00,0.00,1.4410,0.0000,1.2310,0.9380,2.7010,0,0.0000,0.0000,0.0000,0.0000,0.0000,0,1,0,0.3000,0
10355,0.0071,-0.0799,0.0050,0.0016,-0.0056,0.0013,1.15,0.50,-0.00,0,4.133,-0.087,0.148,-0.013,0.013,0.020,0.999,0.000,0.000,0.000,0.0040,-11,9,0.00,0.00,0.00,0.0000,0.0000,0.0000,0.0000,0.0000,0.0000,0.0000,0.00,0.00,0.00,1.4410,0.0000,1.2310,0.9300,2.7010,0,0.0000,0.0000,0.0000,0.0000,0.0000,0,1,0,0.3000,0
10406,0.0064,-0.0807,0.0051,-0.0016,-0.0087,0.0018,1.12,0.55,-0.00,0,4.144,-0.099,-0.130,0.351,0.012,0.020,0.999,0.000,0.000,0.000,0.0060,-2,-5,0.00,0.00,0.00,0.0000,0.0000,0.0000,0.0000,0.0000,0.0000,0.0000,0.00,0.00,0.00,1.4430,0.0000,1.2380,0.9300,2.7080,0,0.0000,0.0000,0.0000,0.0000,0.0000,0,1,0,0.3000,0
10457,0.0070,-0.0793,0.0052,0.0023,0.0007,0.0027,1.13,0.47,-0.00,0,4.133,0.203,-0.020,0.108,0.012,0.021,1.000,0.000,0.000,0.000,0.0060,0,0,0.00,0.00,0.00,0.0000,0.0000,0.0000,0.0000,0.0000,0.0000,0.0000,0.00,0.00,0.00,1.4430,0.0000,1.2380,0.9300,2.7080,0,0.0000,0.0000,0.0000,0.0000,0.0000,0,1,0,0.3000,0
10508,0.0064,-0.0805,0.0054,-0.0018,-0.0050,0.0022,1.16,0.48,-0.00,0,4.144,-0.161,-0.047,0.291,0.010,0.020,1.001,0.000,0.000,0.000,0.0060,-16,2,0.00,0.00,0.00,0.0000,0.0000,0.0000,0.0000,0.0000,0.0000,0.0000,0.00,0.00,0.00,1.4450,0.2740,1.2370,0.9300,2.6990,0,0.0000,0.0000,0.0000,0.0000,0.0000,0,1,0,0.3000,0
10559,0.0073,-0.0803,0.0059,0.0023,-0.0035,0.0041,1.14,0.51,0.00,0,4.128,-0.065,-0.156,0.186,0.009,0.021,0.999,0.000,0.000,0.000,0.0050,-4,-5,0.00,0.00,0.00,0.0000,0.0000,0.0000,0.0000,0.0000,0.0000,0.0000,0.00,0.00,0.00,1.4450,0.2740,1.2370,0.9340,2.6990,0,0.0000,0.0000,0.0000,0.0000,0.0000,0,1,0,0.3000,0
10610,0.0071,-0.0807,0.0063,0.0004,-0.0032,0.0053,0.67,0.51,0.01,0,4.144,-0.099,-0.157,-0.251,0.008,0.020,0.999,0.000,0.000,0.000,0.0040,2,-3,0.00,0.00,0.00,0.0000,0.0000,0.0000,0.0000,0.0000,0.0000,0.0000,0.00,0.00,0.00,1.4560,0.0000,1.2360,0.9340,2.7000,0,0.0000,0.0000,0.0000,0.0000,0.0000,0,1,0,0.3000,0
10661,0.0071,-0.0775,0.0055,0.0006,0.0087,-0.0003,1.08,0.53,0.01,0,4.133,0.122,-0.054,-0.284,0.008,0.022,0.999,0.000,0.000,0.000,0.0080,7,1,0.00,0.00,0.00,0.0000,0.0000,0.0000,0.0000,0.0000,0.0000,0.0000,0.00,0.00,0.00,1.4560,0.0000,1.2360,0.9330,2.7000,0,0.0000,0.0000,0.0000,0.0000,0.0000,0,1,0,0.3000,0
10712,0.0069,-0.0733,0.0055,-0.0001,0.0306,-0.0003,0.97,0.52,0.00,0,4.144,0.187,0.330,-0.181,0.009,0.019,0.999,0.000,0.000,0.000,0.0030,2,1,0.00,0.00,0.00,0.0000,0.0000,0.0000,0.0000,0.0000,0.0000,0.0000,0.00,0.00,0.00,1.4440,0.0000,1.2370,0.9330,2.7040,0,0.0000,0.0000,0.0000,0.0000,0.0000,0,1,0,0.3000,0
10763,0.0062,-0.0702,0.0052,-0.0031,0.0416,-0.0031,0.83,0.52,0.00,0,4.133,-0.129,0.092,0.036,0.010,0.020,0.999,0.000,0.000,0.000,0.0030,4,4,0.00,0.00,0.00,0.0000,0.0000,0.0000,0.0000,0.0000,0.0000,0.0000,0.00,0.00,0.00,1.4440,0.0000,1.2370,0.9340,2.7040,0,0.0000,0.0000,0.0000,0.0000,0.0000,0,1,0,0.3000,0
10814,0.0064,-0.0679,0.0051,-0.0013,0.0460,-0.0036,1.02,0.57,0.00,0,4.144,-0.142,-0.190,-0.163,0.011,0.020,1.001,0.000,0.000,0.000,0.0060,22,1,0.00,0.00,0.00,0.0000,0.0000,0.0000,0.0000,0.0000,0.0000,0.0000,0.00,0.00,0.00,1.4430,0.0000,1.2420,0.9340,2.6990,0,0.0000,0.0000,0.0000,0.0000,0.0000,0,1,0,0.3000,0
10865,0.0071,-0.0797,0.0049,0.0032,-0.0195,-0.0017,1.49,0.58,0.00,0,4.133,0.109,0.200,-0.087,0.009,0.020,1.003,0.000,0.000,0.000,0.0070,-9,1,0.00,0.00,0.00,0.0000,0.0000,0.0000,0.0000,0.0000,0.0000,0.0000,0.00,0.00,0.00,1.4430,0.0000,1.2420,0.9330,2.6990,0,0.0000,0.0000,0.0000,0.0000,0.0000,0,1,0,0.3000,0
10915,0.0049,-0.0901,0.0042,-0.0075,-0.0683,-0.0048,1.78,0.55,0.01,0,4.138,-0.102,-0.150,-0.040,0.009,0.019,0.998,0.000,0.000,0.000,0.0030,1,1,0.00,0.00,0.00,0.0000,0.0000,0.0000,0.0000,0.0000,0.0000,0.0000,0.00,0.00,0.00,1.4470,0.0000,1.2330,0.9330,2.6970,0,0.0000,0.0000,0.0000,0.0000,0.0000,0,1,0,0.3000,0
10967,0.0056,-0.0992,0.0043,-0.0020,-0.0989,-0.0047,1.73,0.57,0.00,0,4.138,-0.032,0.243,0.046,0.009,0.019,0.999,0.000,0.000,0.000,0.0040,-20,5,0.00,0.00,0.00,0.0000,0.0000,0.0000,0.0000,0.0000,0.0000,0.0000,0.00,0.00,0.00,1.4470,0.0000,1.2330,0.9310,2.6970,0,0.0000,0.0000,0.0000,0.0000,0.0000,0,1,0,0.3000,0
11018,0.0056,-0.0994,0.0047,-0.0005,-0.0806,-0.0012,1.46,0.58,0.00,0,4.144,0.129,0.050,0.116,0.010,0.021,1.000,0.000,0.000,0.000,0.0060,-16,-5,0.00,0.00,0.00,0.0000,0.0000,0.0000,0.0000,0.0000,0.0000,0.0000,0.00,0.00,0.00,1.4510,0.2780,1.2320,0.9310,2.7020,0,0.0000,0.0000,0.0000,0.0000,0.0000,0,1,0,0.3000,0
11068,0.0047,-0.0973,0.0054,-0.0035,-0.0546,0.0032,1.30,0.46,-0.01,0,4.133,0.183,0.138,0.079,0.010,0.020,1.000,0.000,0.000,0.000,0.0010,21,-2,0.00,0.00,0.00,0.0000,0.0000,0.0000,0.0000,0.0000,0.0000,0.0000,0.00,0.00,0.00,1.4510,0.2780,1.2320,0.9350,2.7020,0,0.0000,0.0000,0.0000,0.0000,0.0000,0,1,0,0.3000,0
11120,0.0056,-0.0907,0.0059,0.0014,-0.0095,0.0060,1.27,0.49,-0.00,0,4.138,-0.357,0.020,0.098,0.011,0.017,0.999,0.000,0.000,0.000,0.0050,0,-3,0.00,0.00,0.00,0.0000,0.0000,0.0000,0.0000,0.0000,0.0000,0.0000,0.00,0.00,0.00,1.4400,0.0000,1.2370,0.9350,2.7020,0,0.0000,0.0000,0.0000,0.0000,0.0000,0,1,0,0.3000,0
11171,0.0049,-0.0969,0.0042,-0.0020,-0.0347,-0.0021,1.21,0.50,-0.00,0,4.133,-0.042,0.111,-0.137,0.008,0.021,1.001,0.000,0.000,0.000,0.0060,-26,7,0.00,0.00,0.00,0.0000,0.0000,0.0000,0.0000,0.0000,0.0000,0.0000,0.00,0.00,0.00,1.4400,0.0000,1.2370,0.9350,2.7020,0,0.0000,0.0000,0.0000,0.0000,0.0000,0,1,0,0.3000,0
11223,0.0045,-0.1016,0.0041,-0.0041,-0.0507,-0.0023,0.96,0.60,0.00,0,4.138,0.042,-0.125,0.207,0.010,0.019,1.001,0.000,0.000,0.000,0.0050,-6,0,0.00,0.00,0.00,0.0000,0.0000,0.0000,0.0000,0.0000,0.0000,0.0000,0.00,0.00,0.00,1.4540,0.0000,1.2320,0.9350,2.6990,0,0.0000,0.0000,0.0000,0.0000,0.0000,0,1,0,0.3000,0
11274,0.0032,-0.0941,0.0053,-0.0093,-0.0048,0.0042,0.95,0.53,0.00,0,4.133,0.107,-0.047,-0.400,0.011,0.021,1.000,0.000,0.000,0.000,0.0050,-9,-4,0.00,0.00,0.00,0.0000,0.0000,0.0000,0.0000,0.0000,0.0000,0.0000,0.00,0.00,0.00,1.4540,0.0000,1.2320,0.9310,2.6990,0,0.0000,0.0000,0.0000,0.0000,0.0000,0,1,0,0.3000,0
11325,0.0041,-0.0950,0.0056,-0.0032,-0.0064,0.0047,1.05,0.53,0.00,0,4.138,-0.215,0.091,0.480,0.011,0.018,0.998,0.000,0.000,0.000,0.0070,-3,2,0.00,0.00,0.00,0.0000,0.0000,0.0000,0.0000,0.0000,0.0000,0.0000,0.00,0.00,0.00,1.4450,0.0000,1.2410,0.9310,2.7060,0,0.0000,0.0000,0.0000,0.0000,0.0000,0,1,0,0.3000,0
11377,0.0032,-0.0924,0.0063,-0.0064,0.0102,0.0073,0.83,0.56,0.00,0,4.133,-0.111,0.306,0.224,0.009,0.018,1.000,0.000,0.000,0.000,0.0020,-26,10,0.00,0.00,0.00,0.0000,0.0000,0.0000,0.0000,0.0000,0.0000,0.0000,0.00,0.00,0.00,1.4450,0.0000,1.2410,0.9300,2.7060,0,0.0000,0.0000,0.0000,0.0000,0.0000,0,1,0,0.3000,0
11428,0.0039,-0.0958,0.0067,-0.0015,-0.0087,0.0075,0.76,0.58,-0.00,0,4.138,-0.177,0.076,-0.027,0.011,0.020,0.998,0.000,0.000,0.000,0.0040,1,0,0.00,0.00,0.00,0.0000,0.0000,0.0000,0.0000,0.0000,0.0000,0.0000,0.00,0.00,0.00,1.4530,0.2650,1.2330,0.9300,2.7010,0,0.0000,0.0000,0.0000,0.0000,0.0000,0,1,0,0.3000,0
11479,0.0033,-0.0903,0.0044,-0.0032,0.0203,-0.0045,0.84,0.52,-0.00,0,4.133,0.132,0.038,-0.023,0.010,0.019,1.000,0.000,0.000,0.000,0.0050,1,7,0.00,0.00,0.00,0.0000,0.0000,0.0000,0.0000,0.0000,0.0000,0.0000,0.00,0.00,0.00,1.4530,0.2650,1.2330,0.9340,2.7010,0,0.0000,0.0000,0.0000,0.0000,0.0000,0,1,0,0.3000,0
11530,0.0026,-0.0910,0.0042,-0.0063,0.0143,-0.0039,0.81,0.58,-0.01,0,4.138,-0.214,-0.016,0.037,0.009,0.022,1.000,0.000,0.000,0.000,0.0040,2,-3,0.00,0.00,0.00,0.0000,0.0000,0.0000,0.0000,0.0000,0.0000,0.0000,0.00,0.00,0.00,1.4470,0.0000,1.2340,0.9340,2.7050,0,0.0000,0.0000,0.0000,0.0000,0.0000,0,1,0,0.3000,0
11581,0.0027,-0.0904,0.0043,-0.0045,0.0154,-0.0029,0.87,0.51,0.00,0,4.133,-0.061,0.141,0.055,0.011,0.019,0.999,0.000,0.000,0.000,0.0040,3,-7,0.00,0.00,0.00,0.0000,0.0000,0.0000,0.0000,0.0000,0.0000,0.0000,0.00,0.00,0.00,1.4470,0.0000,1.2340,0.9320,2.7050,0,0.0000,0.0000,0.0000,0.0000,0.0000,0,1,0,0.3000,0
11632,0.0027,-0.0860,0.0041,-0.0032,0.0368,-0.0028,0.70,0.50,0.00,0,4.144,-0.031,0.026,-0.230,0.010,0.019,1.000,0.000,0.000,0.000,0.0020,3,-1,0.00,0.00,0.00,0.0000,0.0000,0.0000,0.0000,0.0000,0.0000,0.0000,0.00,0.00,0.00,1.4420,0.0000,1.2330,0.9320,2.7020,0,0.0000,0.0000,0.0000,0.0000,0.0000,0,1,0,0.3000,0
11683,0.0029,-0.0889,0.0033,-0.0004,0.0150,-0.0064,0.97,0.50,0.00,0,4.133,0.106,-0.334,-0.064,0.009,0.020,1.000,0.000,0.000,0.000,0.0030,-20,2,0.00,0.00,0.00,0.0000,0.0000,0.0000,0.0000,0.0000,0.0000,0.0000,0.00,0.00,0.00,1.4420,0.0000,1.2330,0.9350,2.7020,0,0.0000,0.0000,0.0000,0.0000,0.0000,0,1,0,0.3000,0
11734,0.0035,-0.0835,0.0029,0.0038,0.0425,-0.0068,0.33,0.54,-0.00,0,4.138,0.202,-0.088,-0.373,0.010,0.022,0.998,0.000,0.000,0.000,0.0030,-2,2,0.00,0.00,0.00,0.0000,0.0000,0.0000,0.0000,0.0000,0.0000,0.0000,0.00,0.00,0.00,1.4510,0.2680,1.2350,0.9350,2.6970,0,0.0000,0.0000,0.0000,0.0000,0.0000,0,1,0,0.3000,0
11786,0.0020,-0.0753,0.0027,-0.0035,0.0734,-0.0063,0.49,0.56,-0.01,0,4.133,0.072,-0.169,0.356,0.010,0.020,1.001,0.000,0.000,0.000,0.0050,32,-1,0.00,0.00,0.00,0.0000,0.0000,0.0000,0.0000,0.0000,0.0000,0.0000,0.00,0.00,0.00,1.4510,0.2680,1.2350,0.9340,2.6970,0,0.0000,0.0000,0.0000,0.0000,0.0000,0,1,0,0.3000,0
11837,0.0025,-0.0792,0.0040,-0.0001,0.0371,0.0033,1.35,0.46,0.00,0,4.138,0.153,-0.088,0.200,0.012,0.020,0.999,0.000,0.000,0.000,0.0040,-3,4,0.00,0.00,0.00,0.0000,0.0000,0.0000,0.0000,0.0000,0.0000,0.0000,0.00,0.00,0.00,1.4450,0.0000,1.2330,0.9340,2.7040,0,0.0000,0.0000,0.0000,0.0000,0.0000,0,1,0,0.3000,0
11888,0.0041,-0.0918,0.0041,0.0088,-0.0306,0.0030,1.43,0.50,0.00,0,4.138,0.131,0.055,-0.010,0.011,0.022,1.000,0.000,0.000,0.000,0.0040,-1,0,0.00,0.00,0.00,0.0000,0.0000,0.0000,0.0000,0.0000,0.0000,0.0000,0.00,0.00,0.00,1.4450,0.0000,1.2330,0.9300,2.7040,0,0.0000,0.0000,0.0000,0.0000,0.0000,0,1,0,0.3000,0
11939,0.0035,-0.0910,0.0047,0.0054,-0.0193,0.0055,1.14,0.49,0.01,0,4.144,0.120,0.019,-0.045,0.012,0.019,0.997,0.000,0.000,0.000,0.0030,-5,8,0.00,0.00,0.00,0.0000,0.0000,0.0000,0.0000,0.0000,0.0000,0.0000,0.00,0.00,0.00,1.4500,0.0000,1.2290,0.9300,2.7020,0,0.0000,0.0000,0.0000,0.0000,0.0000,0,1,0,0.3000,0
11990,0.0027,-0.0908,0.0040,0.0014,-0.0155,0.0006,1.15,0.51,0.00,0,4.133,0.024,-0.079,0.076,0.009,0.019,0.999,0.000,0.000,0.000,0.0040,-15,-5,0.00,0.00,0.00,0.0000,0.0000,0.0000,0.0000,0.0000,0.0000,0.0000,0.00,0.00,0.00,1.4500,0.0000,1.2290,0.9310,2.7020,0,0.0000,0.0000,0.0000,0.0000,0.0000,0,1,0,0.3000,0
12041,0.0029,-0.0941,0.0040,0.0029,-0.0308,0.0008,1.22,0.48,0.01,0,4.138,-0.001,0.118,0.202,0.009,0.020,1.001,0.000,0.000,0.000,0.0030,-9,-2,0.00,0.00,0.00,0.0000,0.0000,0.0000,0.0000,0.0000,0.0000,0.0000,0.00,0.00,0.00,1.4450,0.2770,1.2340,0.9310,2.7010,0,0.0000,0.0000,0.0000,0.0000,0.0000,0,1,0,0.3000,0
12092,0.0023,-0.0867,0.0038,-0.0010,0.0128,-0.0006,0.98,0.53,0.01,0,4.133,-0.173,-0.092,0.172,0.012,0.019,0.999,0.000,0.000,0.000,0.0030,-3,0,0.00,0.00,0.00,0.0000,0.0000,0.0000,0.0000,0.0000,0.0000,0.0000,0.00,0.00,0.00,1.4450,0.2770,1.2340,0.9340,2.7010,0,0.0000,0.0000,0.0000,0.0000,0.0000,0,1,0,0.3000,0
12143,0.0019,-0.0846,0.0038,-0.0024,0.0226,-0.0007,0.92,0.52,0.00,0,4.138,0.241,-0.276,-0.073,0.009,0.018,1.001,0.000,0.000,0.000,0.0040,-1,-2,0.00,0.00,0.00,0.0000,0.0000,0.0000,0.0000,0.0000,0.0000,0.0000,0.00,0.00,0.00,1.4500,0.2650,1.2350,0.9340,2.7050,0,0.0000,0.0000,0.0000,0.0000,0.0000,0,1,0,0.3000,0
12193,0.0031,-0.0804,0.0036,0.0049,0.0396,-0.0007,1.08,0.45,0.00,0,4.138,0.043,0.136,0.026,0.011,0.021,0.999,0.000,0.000,0.000,0.0040,30,-2,0.00,0.00,0.00,0.0000,0.0000,0.0000,0.0000,0.0000,0.0000,0.0000,0.00,0.00,0.00,1.4500,0.2650,1.2350,0.9320,2.7050,0,0.0000,0.0000,0.0000,0.0000,0.0000,0,1,0,0.3000,0
12245,0.0040,-0.0887,0.0040,0.0088,-0.0077,0.0014,1.44,0.46,0.01,0,4.144,-0.018,-0.012,-0.117,0.011,0.019,1.002,0.000,0.000,0.000,0.0050,-2,0,0.00,0.00,0.00,0.0000,0.0000,0.0000,0.0000,0.0000,0.0000,0.0000,0.00,0.00,0.00,1.4520,0.0000,1.2350,0.9320,2.7000,0,0.0000,0.0000,0.0000,0.0000,0.0000,0,1,0,0.3000,0
12296,0.0044,-0.0962,0.0044,0.0101,-0.0424,0.0028,1.32,0.47,0.00,0,4.133,-0.049,-0.072,-0.015,0.010,0.020,0.998,0.000,0.000,0.000,0.0040,8,-1,0.00,0.00,0.00,0.0000,0.0000,0.0000,0.0000,0.0000,0.0000,0.0000,0.00,0.00,0.00,1.4520,0.0000,1.2350,0.9310,2.7000,0,0.0000,0.0000,0.0000,0.0000,0.0000,0,1,0,0.3000,0
12347,0.0044,-0.0964,0.0047,0.0085,-0.0352,0.0037,1.24,0.48,0.00,0,4.138,0.156,0.276,-0.057,0.009,0.021,0.999,0.000,0.000,0.000,0.0040,-3,0,0.00,0.00,0.00,0.0000,0.0000,0.0000,0.0000,0.0000,0.0000,0.0000,0.00,0.00,0.00,1.4460,0.0000,1.2300,0.9310,2.7080,0,0.0000,0.0000,0.0000,0.0000,0.0000,0,1,0,0.3000,0
12398,0.0047,-0.0965,0.0044,0.0084,-0.0282,0.0015,1.20,0.49,-0.00,0,4.133,0.154,0.035,-0.019,0.009,0.020,1.000,0.000,0.000,0.000,0.0030,-15,3,0.00,0.00,0.00,0.0000,0.0000,0.0000,0.0000,0.0000,0.0000,0.0000,0.00,0.00,0.00,1.4460,0.0000,1.2300,0.9320,2.7080,0,0.0000,0.0000,0.0000,0.0000,0.0000,0,1,0,0.3000,0
12450,0.0046,-0.0960,0.0045,0.0064,-0.0201,0.0017,1.27,0.48,0.00,0,4.138,-0.112,0.012,0.123,0.011,0.018,1.000,0.000,0.000,0.000,0.0050,-2,-1,0.00,0.00,0.00,0.0000,0.0000,0.0000,0.0000,0.0000,0.0000,0.0000,0.00,0.00,0.00,1.4500,0.0000,1.2310,0.9320,2.7090,0,0.0000,0.0000,0.0000,0.0000,0.0000,0,1,0,0.3000,0
12501,0.0036,-0.0968,0.0045,0.0000,-0.0177,0.0016,0.91,0.51,-0.00,0,4.133,-0.017,0.158,0.212,0.010,0.021,1.000,0.000,0.000,0.000,0.0050,4,-3,0.00,0.00,0.00,0.0000,0.0000,0.0000,0.0000,0.0000,0.0000,0.0000,0.00,0.00,0.00,1.4500,0.0000,1.2310,0.9310,2.7090,0,0.0000,0.0000,0.0000,0.0000,0.0000,0,1,0,0.3000,0
12552,0.0041,-0.0919,0.0047,0.0021,0.0087,0.0026,0.93,0.52,0.00,0,4.138,-0.059,0.392,0.237,0.011,0.018,0.999,0.000,0.000,0.000,0.0050,-10,-1,0.00,0.00,0.00,0.0000,0.0000,0.0000,0.0000,0.0000,0.0000,0.0000,0.00,0.00,0.00,1.4510,0.0000,1.2400,0.9310,2.7040,0,0.0000,0.0000,0.0000,0.0000,0.0000,0,1,0,0.3000,0
12604,0.0045,-0.0991,0.0050,0.0042,-0.0299,0.0033,1.39,0.52,0.00,0,4.133,0.120,-0.179,-0.119,0.009,0.018,0.999,0.000,0.000,0.000,0.0030,8,0,0.00,0.00,0.00,0.0000,0.0000,0.0000,0.0000,0.0000,0.0000,0.0000,0.00,0.00,0.00,1.4510,0.0000,1.2400,0.9330,2.7040,0,0.0000,0.0000,0.0000,0.0000,0.0000,0,1,0,0.3000,0
12655,0.0041,-0.1014,0.0044,0.0010,-0.0314,-0.0012,1.19,0.52,0.00,0,4.138,-0.066,0.010,0.124,0.012,0.019,0.999,0.000,0.000,0.000,0.0020,-1,0,0.00,0.00,0.00,0.0000,0.0000,0.0000,0.0000,0.0000,0.0000,0.0000,0.00,0.00,0.00,1.4430,0.0000,1.2340,0.9330,2.6990,0,0.0000,0.0000,0.0000,0.0000,0.0000,0,1,0,0.3000,0
12706,0.0041,-0.0998,0.0034,0.0008,-0.0173,-0.0063,1.09,0.54,0.00,0,4.133,-0.116,-0.114,0.071,0.010,0.018,0.999,0.000,0.000,0.000,0.0050,0,1,0.00,0.00,0.00,0.0000,0.0000,0.0000,0.0000,0.0000,0.0000,0.0000,0.00,0.00,0.00,1.4430,0.0000,1.2340,0.9330,2.6990,0,0.0000,0.0000,0.0000,0.0000,0.0000,0,1,0,0.3000,0
12757,0.0045,-0.1009,0.0031,0.0029,-0.0190,-0.0064,1.10,0.54,0.01,0,4.138,0.196,0.123,-0.372,0.009,0.019,1.001,0.000,0.000,0.000,0.0050,2,-1,0.00,0.00,0.00,0.0000,0.0000,0.0000,0.0000,0.0000,0.0000,0.0000,0.00,0.00,0.00,1.4500,0.0000,1.2370,0.9330,2.6980,0,0.0000,0.0000,0.0000,0.0000,0.0000,0,1,0,0.3000,0
12807,0.0041,-0.1008,0.0043,0.0003,-0.0147,0.0004,1.03,0.53,0.00,0,4.133,0.191,-0.261,0.104,0.010,0.020,1.001,0.000,0.000,0.000,0.0030,24,-8,0.00,0.00,0.00,0.0000,0.0000,0.0000,0.0000,0.0000,0.0000,0.0000,0.00,0.00,0.00,1.4500,0.0000,1.2370,0.9320,2.6980,0,0.0000,0.0000,0.0000,0.0000,0.0000,0,1,0,0.3000,0
12858,0.0034,-0.0987,0.0044,-0.0037,-0.0004,0.0009,1.12,0.45,0.00,0,4.144,-0.269,0.056,-0.141,0.009,0.020,1.000,0.000,0.000,0.000,0.0030,-1,2,0.00,0.00,0.00,0.0000,0.0000,0.0000,0.0000,0.0000,0.0000,0.0000,0.00,0.00,0.00,1.4460,0.2670,1.2430,0.9320,2.7080,0,0.0000,0.0000,0.0000,0.0000,0.0000,0,1,0,0.3000,0
12910,0.0064,-0.1014,0.0035,0.0112,-0.0120,-0.0032,1.05,0.51,-0.00,0,4.133,0.017,-0.104,-0.092,0.010,0.021,1.003,0.000,0.000,0.000,0.0050,0,0,0.00,0.00,0.00,0.0000,0.0000,0.0000,0.0000,0.0000,0.0000,0.0000,0.00,0.00,0.00,1.4460,0.2670,1.2430,0.9330,2.7080,0,0.0000,0.0000,0.0000,0.0000,0.0000,0,1,0,0.3000,0
12961,0.0048,-0.1015,0.0034,0.0017,-0.0096,-0.0032,1.27,0.48,-0.00,0,4.138,-0.206,-0.074,-0.085,0.010,0.021,1.001,0.000,0.000,0.000,0.0060,-8,-2,0.00,0.00,0.00,0.0000,0.0000,0.0000,0.0000,0.0000,0.0000,0.0000,0.00,0.00,0.00,1.4430,0.2750,1.2320,0.9330,2.6960,0,0.0000,0.0000,0.0000,0.0000,0.0000,0,1,0,0.3000,0
13011,0.0067,-0.1029,0.0051,0.0098,-0.0104,0.0058,0.87,0.41,-0.00,0,4.133,0.096,0.088,-0.425,0.011,0.020,1.000,0.000,0.000,0.000,0.0050,11,-3,0.00,0.00,0.00,0.0000,0.0000,0.0000,0.0000,0.0000,0.0000,0.0000,0.00,0.00,0.00,1.4430,0.2750,1.2320,0.9310,2.6960,0,0.0000,0.0000,0.0000,0.0000,0.0000,0,1,0,0.3000,0
13063,0.0073,-0.0941,0.0053,0.0109,0.0351,0.0055,0.73,0.50,-0.00,0,4.138,0.143,-0.054,-0.213,0.010,0.019,0.999,0.000,0.000,0.000,0.0010,4,0,0.00,0.00,0.00,0.0000,0.0000,0.0000,0.0000,0.0000,0.0000,0.0000,0.00,0.00,0.00,1.4500,0.2740,1.2360,0.9310,2.7100,0,0.0000,0.0000,0.0000,0.0000,0.0000,0,1,0,0.3000,0
13114,0.0070,-0.0934,0.0037,0.0077,0.0323,-0.0043,0.78,0.51,-0.00,0,4.133,0.045,0.320,0.075,0.010,0.019,1.000,0.000,0.000,0.000,0.0030,30,0,0.00,0.00,0.00,0.0000,0.0000,0.0000,0.0000,0.0000,0.0000,0.0000,0.00,0.00,0.00,1.4500,0.2740,1.2360,0.9280,2.7100,0,0.0000,0.0000,0.0000,0.0000,0.0000,0,1,0,0.3000,0
13164,0.0061,-0.0978,0.0038,0.0018,0.0032,-0.0027,1.25,0.52,-0.01,0,4.144,0.055,0.198,-0.103,0.010,0.020,1.000,0.000,0.000,0.000,0.0030,6,0,0.00,0.00,0.00,0.0000,0.0000,0.0000,0.0000,0.0000,0.0000,0.0000,0.00,0.00,0.00,1.4500,0.0000,1.2350,0.9280,2.7010,0,0.0000,0.0000,0.0000,0.0000,0.0000,0,1,0,0.3000,0
13216,0.0070,-0.1017,0.0032,0.0052,-0.0147,-0.0048,1.26,0.50,-0.01,0,4.133,-0.119,0.124,-0.037,0.010,0.018,1.000,0.000,0.000,0.000,0.0060,14,-2,0.00,0.00,0.00,0.0000,0.0000,0.0000,0.0000,0.0000,0.0000,0.0000,0.00,0.00,0.00,1.4500,0.0000,1.2350,0.9340,2.7010,0,0.0000,0.0000,0.0000,0.0000,0.0000,0,1,0,0.3000,0
13266,0.0072,-0.1030,0.0031,0.0056,-0.0172,-0.0039,1.21,0.52,-0.01,0,4.138,-0.110,0.145,0.221,0.010,0.020,1.002,0.000,0.000,0.000,0.0030,0,-4,0.00,0.00,0.00,0.0000,0.0000,0.0000,0.0000,0.0000,0.0000,0.0000,0.00,0.00,0.00,1.4520,0.0000,1.2360,0.9340,2.7070,0,0.0000,0.0000,0.0000,0.0000,0.0000,0,1,0,0.3000,0
13318,0.0062,-0.1006,0.0040,-0.0008,-0.0002,0.0000,1.27,0.52,-0.01,0,4.133,0.166,0.030,-0.185,0.011,0.019,1.001,0.000,0.000,0.000,0.0040,-27,0,0.00,0.00,0.00,0.0000,0.0000,0.0000,0.0000,0.0000,0.0000,0.0000,0.00,0.00,0.00,1.4520,0.0000,1.2360,0.9330,2.7070,0,0.0000,0.0000,0.0000,0.0000,0.0000,0,1,0,0.3000,0
13369,0.0070,-0.1027,0.0044,0.0029,-0.0060,0.0026,0.75,0.55,-0.01,0,4.138,-0.127,0.224,0.083,0.013,0.020,1.001,0.000,0.000,0.000,0.0030,8,0,0.00,0.00,0.00,0.0000,0.0000,0.0000,0.0000,0.0000,0.0000,0.0000,0.00,0.00,0.00,1.4430,0.2720,1.2340,0.9330,2.7080,0,0.0000,0.0000,0.0000,0.0000,0.0000,0,1,0,0.3000,0
13420,0.0066,-0.0967,0.0038,0.0004,0.0240,-0.0007,1.05,0.55,-0.01,0,4.133,-0.179,0.049,0.124,0.011,0.019,1.003,0.000,0.000,0.000,0.0060,-11,-3,0.00,0.00,0.00,0.0000,0.0000,0.0000,0.0000,0.0000,0.0000,0.0000,0.00,0.00,0.00,1.4430,0.2720,1.2340,0.9350,2.7080,0,0.0000,0.0000,0.0000,0.0000,0.0000,0,1,0,0.3000,0
13471,0.0064,-0.1033,0.0040,-0.0005,-0.0119,0.0002,0.74,0.60,-0.01,0,4.144,0.023,0.141,-0.003,0.010,0.019,1.001,0.000,0.000,0.000,0.0040,3,-1,0.00,0.00,0.00,0.0000,0.0000,0.0000,0.0000,0.0000,0.0000,0.0000,0.00,0.00,0.00,1.4470,0.0000,1.2360,0.9350,2.7050,0,0.0000,0.0000,0.0000,0.0000,0.0000,0,1,0,0.3000,0
13522,0.0062,-0.0952,0.0047,-0.0007,0.0302,0.0033,0.81,0.59,-0.02,0,4.133,-0.030,0.013,-0.030,0.010,0.019,0.999,0.000,0.000,0.000,0.0050,11,2,0.00,0.00,0.00,0.0000,0.0000,0.0000,0.0000,0.0000,0.0000,0.0000,0.00,0.00,0.00,1.4470,0.0000,1.2360,0.9330,2.7050,0,0.0000,0.0000,0.0000,0.0000,0.0000,0,1,0,0.3000,0
13573,0.0070,-0.0960,0.0050,0.0044,0.0202,0.0038,1.31,0.67,-0.02,0,4.138,0.109,0.011,-0.054,0.011,0.019,1.001,0.000,0.000,0.000,0.0050,-3,1,0.00,0.00,0.00,0.0000,0.0000,0.0000,0.0000,0.0000,0.0000,0.0000,0.00,0.00,0.00,1.4490,0.2590,1.2300,0.9330,2.6990,0,0.0000,0.0000,0.0000,0.0000,0.0000,0,1,0,0.3000,0
13624,0.0045,-0.1068,0.0052,-0.0077,-0.0351,0.0034,1.21,0.66,-0.02,0,4.133,0.185,0.121,-0.088,0.012,0.017,1.000,0.000,0.000,0.000,0.0050,9,3,0.00,0.00,0.00,0.0000,0.0000,0.0000,0.0000,0.0000,0.0000,0.0000,0.00,0.00,0.00,1.4490,0.2590,1.2300,0.9300,2.6990,0,0.0000,0.0000,0.0000,0.0000,0.0000,0,1,0,0.3000,0
13675,0.0031,-0.1053,0.0055,-0.0133,-0.0204,0.0045,1.17,0.62,-0.01,0,4.138,0.158,-0.143,0.080,0.010,0.020,0.998,0.000,0.000,0.000,0.0050,-4,-2,0.00,0.00,0.00,0.0000,0.0000,0.0000,0.0000,0.0000,0.0000,0.0000,0.00,0.00,0.00,1.4470,0.0000,1.2310,0.9300,2.7030,0,0.0000,0.0000,0.0000,0.0000,0.0000,0,1,0,0.3000,0
13725,0.0045,-0.1061,0.0053,-0.0028,-0.0205,0.0023,1.12,0.61,-0.01,0,4.133,-0.163,-0.210,0.180,0.010,0.020,1.002,0.000,0.000,0.000,0.0050,-3,1,0.00,0.00,0.00,0.0000,0.0000,0.0000,0.0000,0.0000,0.0000,0.0000,0.00,0.00,0.00,1.4470,0.0000,1.2310,0.9340,2.7030,0,0.0000,0.0000,0.0000,0.0000,0.0000,0,1,0,0.3000,0
13777,0.0041,-0.1068,0.0055,-0.0036,-0.0194,0.0027,1.12,0.62,-0.00,0,4.138,0.010,0.007,-0.265,0.011,0.021,0.998,0.000,0.000,0.000,0.0060,4,1,0.00,0.00,0.00,0.0000,0.0000,0.0000,0.0000,0.0000,0.0000,0.0000,0.00,0.00,0.00,1.4500,0.0000,1.2400,0.9340,2.6990,0,0.0000,0.0000,0.0000,0.0000,0.0000,0,1,0,0.3000,0
13828,0.0031,-0.1058,0.0057,-0.0080,-0.0094,0.0028,1.33,0.54,-0.00,0,4.133,-0.177,-0.052,-0.316,0.010,0.021,1.001,0.000,0.000,0.000,0.0040,-9,2,0.00,0.00,0.00,0.0000,0.0000,0.0000,0.0000,0.0000,0.0000,0.0000,0.00,0.00,0.00,1.4500,0.0000,1.2400,0.9320,2.6990,0,0.0000,0.0000,0.0000,0.0000,0.0000,0,1,0,0.3000,0
13879,0.0045,-0.1150,0.0050,0.0014,-0.0520,-0.0020,1.26,0.51,-0.01,0,4.138,0.004,-0.108,0.316,0.009,0.020,1.001,0.000,0.000,0.000,0.0040,32,-4,0.00,0.00,0.00,0.0000,0.0000,0.0000,0.0000,0.0000,0.0000,0.0000,0.00,0.00,0.00,1.4490,0.0000,1.2340,0.9320,2.7020,0,0.0000,0.0000,0.0000,0.0000,0.0000,0,1,0,0.3000,0
13930,0.0047,-0.1144,0.0046,0.0016,-0.0373,-0.0031,1.63,0.45,-0.02,0,4.133,0.054,0.062,-0.195,0.012,0.020,1.001,0.000,0.000,0.000,0.0060,-5,0,0.00,0.00,0.00,0.0000,0.0000,0.0000,0.0000,0.0000,0.0000,0.0000,0.00,0.00,0.00,1.4490,0.0000,1.2340,0.9310,2.7020,0,0.0000,0.0000,0.0000,0.0000,0.0000,0,1,0,0.3000,0
13981,0.0066,-0.1241,0.0042,0.0111,-0.0769,-0.0049,1.44,0.47,-0.02,0,4.138,0.086,-0.288,-0.184,0.010,0.021,1.000,0.000,0.000,0.000,0.0040,18,8,0.00,0.00,0.00,0.0000,0.0000,0.0000,0.0000,0.0000,0.0000,0.0000,0.00,0.00,0.00,1.4510,0.0000,1.2330,0.9310,2.7060,0,0.0000,0.0000,0.0000,0.0000,0.0000,0,1,0,0.3000,0
14032,0.0067,-0.1244,0.0048,0.0103,-0.0617,-0.0010,1.69,0.55,-0.02,0,4.138,-0.053,0.345,0.186,0.012,0.018,0.998,0.000,0.000,0.000,0.0040,2,3,0.00,0.00,0.00,0.0000,0.0000,0.0000,0.0000,0.0000,0.0000,0.0000,0.00,0.00,0.00,1.4510,0.0000,1.2330,0.9330,2.7060,0,0.0000,0.0000,0.0000,0.0000,0.0000,0,1,0,0.3000,0
14083,0.0050,-0.1334,0.0044,-0.0003,-0.0915,-0.0030,1.73,0.44,-0.02,0,4.144,0.377,0.118,-0.142,0.010,0.018,1.001,0.000,0.000,0.000,0.0040,-7,1,0.00,0.00,0.00,0.0000,0.0000,0.0000,0.0000,0.0000,0.0000,0.0000,0.00,0.00,0.00,1.4490,0.2710,1.2380,0.9330,2.6990,0,0.0000,0.0000,0.0000,0.0000,0.0000,0,1,0,0.3000,0
14133,0.0065,-0.1354,0.0044,0.0062,-0.0798,-0.0012,1.35,0.49,-0.03,0,4.133,0.066,0.048,0.008,0.009,0.023,1.000,0.000,0.000,0.000,0.0050,1,0,0.00,0.00,0.00,0.0000,0.0000,0.0000,0.0000,0.0000,0.0000,0.0000,0.00,0.00,0.00,1.4490,0.2710,1.2380,0.9320,2.6990,0,0.0000,0.0000,0.0000,0.0000,0.0000,0,1,0,0.3000,0
14185,0.0073,-0.1350,0.0047,0.0096,-0.0601,0.0005,1.21,0.52,-0.02,0,4.138,-0.193,0.405,0.111,0.010,0.020,0.999,0.000,0.000,0.000,0.0060,-3,-2,0.00,0.00,0.00,0.0000,0.0000,0.0000,0.0000,0.0000,0.0000,0.0000,0.00,0.00,0.00,1.4520,0.0000,1.2330,0.9320,2.7080,0,0.0000,0.0000,0.0000,0.0000,0.0000,0,1,0,0.3000,0
14236,0.0065,-0.1351,0.0054,0.0036,-0.0464,0.0041,1.12,0.51,-0.02,0,4.133,-0.504,-0.028,0.179,0.010,0.020,0.999,0.000,0.000,0.000,0.0060,-19,0,0.00,0.00,0.00,0.0000,0.0000,0.0000,0.0000,0.0000,0.0000,0.0000,0.00,0.00,0.00,1.4520,0.0000,1.2330,0.9320,2.7080,0,0.0000,0.0000,0.0000,0.0000,0.0000,0,1,0,0.3000,0
14287,0.0065,-0.1374,0.0057,0.0032,-0.0475,0.0042,0.97,0.51,-0.02,0,4.138,0.176,-0.013,0.235,0.010,0.020,1.000,0.000,0.000,0.000,0.0040,0,-4,0.00,0.00,0.00,0.0000,0.0000,0.0000,0.0000,0.0000,0.0000,0.0000,0.00,0.00,0.00,1.4470,0.0000,1.2360,0.9320,2.7110,0,0.0000,0.0000,0.0000,0.0000,0.0000,0,1,0,0.3000,0
14338,0.0083,-0.1374,0.0053,0.0119,-0.0358,0.0008,1.03,0.46,-0.02,0,4.133,-0.090,0.061,0.139,0.012,0.018,0.999,0.000,0.000,0.000,0.0040,-1,0,0.00,0.00,0.00,0.0000,0.0000,0.0000,0.0000,0.0000,0.0000,0.0000,0.00,0.00,0.00,1.4470,0.0000,1.2360,0.9350,2.7110,0,0.0000,0.0000,0.0000,0.0000,0.0000,0,1,0,0.3000,0
14389,0.0070,-0.1378,0.0054,0.0024,-0.0279,0.0010,0.95,0.54,-0.02,0,4.138,-0.055,0.192,0.155,0.010,0.021,1.001,0.000,0.000,0.000,0.0050,-1,-5,0.00,0.00,0.00,0.0000,0.0000,0.0000,0.0000,0.0000,0.0000,0.0000,0.00,0.00,0.00,1.4500,0.0000,1.2370,0.9350,2.7040,0,0.0000,0.0000,0.0000,0.0000,0.0000,0,1,0,0.3000,0
14440,0.0074,-0.1377,0.0049,0.0038,-0.0198,-0.0011,1.02,0.44,-0.02,0,4.133,-0.300,0.042,0.079,0.009,0.018,0.999,0.000,0.000,0.000,0.0070,6,1,0.00,0.00,0.00,0.0000,0.0000,0.0000,0.0000,0.0000,0.0000,0.0000,0.00,0.00,0.00,1.4500,0.0000,1.2370,0.9290,2.7040,0,0.0000,0.0000,0.0000,0.0000,0.0000,0,1,0,0.3000,0
14491,0.0084,-0.1417,0.0048,0.0073,-0.0326,-0.0012,1.27,0.49,-0.02,0,4.138,0.236,0.265,-0.037,0.010,0.019,1.000,0.000,0.000,0.000,0.0040,-2,3,0.00,0.00,0.00,0.0000,0.0000,0.0000,0.0000,0.0000,0.0000,0.0000,0.00,0.00,0.00,1.4550,0.2670,1.2330,0.9290,2.7020,0,0.0000,0.0000,0.0000,0.0000,0.0000,0,1,0,0.3000,0
14542,0.0100,-0.1504,0.0049,0.0137,-0.0658,-0.0022,1.25,0.50,-0.02,0,4.133,-0.032,-0.349,0.203,0.009,0.019,1.002,0.000,0.000,0.000,0.0040,-20,5,0.00,0.00,0.00,0.0000,0.0000,0.0000,0.0000,0.0000,0.0000,0.0000,0.00,0.00,0.00,1.4550,0.2670,1.2330,0.9300,2.7020,0,0.0000,0.0000,0.0000,0.0000,0.0000,0,1,0,0.3000,0
14593,0.0100,-0.1482,0.0053,0.0116,-0.0377,0.0015,1.04,0.55,-0.02,0,4.138,0.148,-0.240,-0.080,0.013,0.019,1.001,0.000,0.000,0.000,0.0060,-1,2,0.00,0.00,0.00,0.0000,0.0000,0.0000,0.0000,0.0000,0.0000,0.0000,0.00,0.00,0.00,1.4500,0.0000,1.2340,0.9300,2.7020,0,0.0000,0.0000,0.0000,0.0000,0.0000,0,1,0,0.3000,0
14644,0.0079,-0.1507,0.0054,-0.0012,-0.0399,0.0022,0.95,0.56,-0.02,0,4.133,-0.141,-0.037,-0.079,0.009,0.019,1.001,0.000,0.000,0.000,0.0030,-10,3,0.00,0.00,0.00,0.0000,0.0000,0.0000,0.0000,0.0000,0.0000,0.0000,0.00,0.00,0.00,1.4500,0.0000,1.2340,0.9320,2.7020,0,0.0000,0.0000,0.0000,0.0000,0.0000,0,1,0,0.3000,0
14694,0.0096,-0.1534,0.0056,0.0076,-0.0455,0.0022,1.15,0.58,-0.02,0,4.138,0.175,0.087,0.305,0.011,0.020,1.001,0.000,0.000,0.000,0.0080,-4,2,0.00,0.00,0.00,0.0000,0.0000,0.0000,0.0000,0.0000,0.0000,0.0000,0.00,0.00,0.00,1.4490,0.2640,1.2320,0.9320,2.7020,0,0.0000,0.0000,0.0000,0.0000,0.0000,0,1,0,0.3000,0
14746,0.0081,-0.1541,0.0061,-0.0006,-0.0337,0.0064,0.97,0.57,-0.02,0,4.133,0.325,0.075,-0.114,0.010,0.020,0.998,0.000,0.000,0.000,0.0080,4,-9,0.00,0.00,0.00,0.0000,0.0000,0.0000,0.0000,0.0000,0.0000,0.0000,0.00,0.00,0.00,1.4490,0.2640,1.2320,0.9310,2.7020,0,0.0000,0.0000,0.0000,0.0000,0.0000,0,1,0,0.3000,0
14797,0.0071,-0.1553,0.0071,-0.0067,-0.0304,0.0096,1.26,0.39,-0.01,0,4.138,-0.205,-0.152,0.405,0.013,0.020,1.001,0.000,0.000,0.000,0.0060,5,1,0.00,0.00,0.00,0.0000,0.0000,0.0000,0.0000,0.0000,0.0000,0.0000,0.00,0.00,0.00,1.4510,0.2760,1.2330,0.9310,2.6950,0,0.0000,0.0000,0.0000,0.0000,0.0000,0,1,0,0.3000,0
14847,0.0097,-0.1577,0.0072,0.0064,-0.0309,0.0083,1.01,0.55,-0.02,0,4.133,-0.009,-0.043,-0.056,0.013,0.020,1.000,0.000,0.000,0.000,0.0030,-1,0,0.00,0.00,0.00,0.0000,0.0000,0.0000,0.0000,0.0000,0.0000,0.0000,0.00,0.00,0.00,1.4510,0.2760,1.2330,0.9300,2.6950,0,0.0000,0.0000,0.0000,0.0000,0.0000,0,1,0,0.3000,0
14899,0.0107,-0.1593,0.0076,0.0107,-0.0296,0.0084,0.87,0.54,-0.01,0,4.138,-0.217,0.229,0.210,0.007,0.021,0.998,0.000,0.000,0.000,0.0050,-19,0,0.00,0.00,0.00,0.0000,0.0000,0.0000,0.0000,0.0000,0.0000,0.0000,0.00,0.00,0.00,1.4470,0.0000,1.2370,0.9300,2.7030,0,0.0000,0.0000,0.0000,0.0000,0.0000,0,1,0,0.3000,0
14950,0.0098,-0.1578,0.0054,0.0039,-0.0147,-0.0039,0.81,0.57,-0.01,0,4.133,0.059,-0.047,-0.069,0.009,0.020,1.001,0.000,0.000,0.000,0.0050,-2,2,0.00,0.00,0.00,0.0000,0.0000,0.0000,0.0000,0.0000,0.0000,0.0000,0.00,0.00,0.00,1.4470,0.0000,1.2370,0.9330,2.7030,0,0.0000,0.0000,0.0000,0.0000,0.0000,0,1,0,0.3000,0
15000,0.0100,-0.1559,0.0054,0.0049,0.0005,-0.0025,0.77,0.60,-0.01,0,4.144,-0.259,0.176,0.160,0.010,0.019,0.999,0.000,0.000,0.000,0.0060,-15,-5,0.00,0.00,0.00,0.0000,0.0000,0.0000,0.0000,0.0000,0.0000,0.0000,0.00,0.00,0.00,1.4400,0.2680,1.2330,0.9330,2.7000,0,0.0000,0.0000,0.0000,0.0000,0.0000,0,1,0,0.3000,0
15052,0.0081,-0.1573,0.0054,-0.0046,-0.0034,-0.0019,0.82,0.55,-0.01,0,4.133,-0.022,0.269,-0.022,0.010,0.020,1.001,0.000,0.000,0.000,0.0040,10,5,0.00,0.00,0.00,0.0000,0.0000,0.0000,0.0000,0.0000,0.0000,0.0000,0.00,0.00,0.00,1.4400,0.2680,1.2330,0.9300,2.7000,0,0.0000,0.0000,0.0000,0.0000,0.0000,0,1,0,0.3000,0
15103,0.0102,-0.1591,0.0055,0.0061,-0.0082,-0.0011,0.69,0.60,-0.00,0,4.138,0.009,0.020,-0.060,0.008,0.022,0.999,0.000,0.000,0.000,0.0050,0,4,0.00,0.00,0.00,0.0000,0.0000,0.0000,0.0000,0.0000,0.0000,0.0000,0.00,0.00,0.00,1.4510,0.0000,1.2320,0.9300,2.7000,0,0.0000,0.0000,0.0000,0.0000,0.0000,0,1,0,0.3000,0
15154,0.0097,-0.1528,0.0050,0.0032,0.0226,-0.0021,0.54,0.56,-0.00,0,4.133,-0.249,-0.050,0.052,0.009,0.021,1.000,0.000,0.000,0.000,0.0040,-37,-1,0.00,0.00,0.00,0.0000,0.0000,0.0000,0.0000,0.0000,0.0000,0.0000,0.00,0.00,0.00,1.4510,0.0000,1.2320,0.9350,2.7000,0,0.0000,0.0000,0.0000,0.0000,0.0000,0,1,0,0.3000,0
15205,0.0097,-0.1494,0.0045,0.0027,0.0370,-0.0041,0.12,0.56,0.00,0,4.138,0.242,-0.240,-0.281,0.010,0.019,1.002,0.000,0.000,0.000,0.0050,0,5,0.00,0.00,0.00,0.0000,0.0000,0.0000,0.0000,0.0000,0.0000,0.0000,0.00,0.00,0.00,1.4480,0.0000,1.2340,0.9350,2.7030,0,0.0000,0.0000,0.0000,0.0000,0.0000,0,1,0,0.3000,0
15255,0.0095,-0.1376,0.0044,0.0014,0.0875,-0.0032,0.65,0.60,-0.01,0,4.133,0.044,0.192,-0.007,0.011,0.018,0.999,0.000,0.000,0.000,0.0060,-7,0,0.00,0.00,0.00,0.0000,0.0000,0.0000,0.0000,0.0000,0.0000,0.0000,0.00,0.00,0.00,1.4480,0.0000,1.2340,0.9340,2.7030,0,0.0000,0.0000,0.0000,0.0000,0.0000,0,1,0,0.3000,0
15306,0.0084,-0.1460,0.0055,-0.0037,0.0348,0.0027,0.68,0.56,-0.00,0,4.138,-0.151,-0.109,0.121,0.011,0.019,0.999,0.000,0.000,0.000,0.0060,-1,2,0.00,0.00,0.00,0.0000,0.0000,0.0000,0.0000,0.0000,0.0000,0.0000,0.00,0.00,0.00,1.4600,0.0000,1.2360,0.9340,2.7040,0,0.0000,0.0000,0.0000,0.0000,0.0000,0,1,0,0.3000,0
15358,0.0084,-0.1478,0.0060,-0.0036,0.0206,0.0045,0.61,0.55,-0.00,0,4.133,-0.098,0.153,0.290,0.010,0.016,0.999,0.000,0.000,0.000,0.0060,-3,4,0.00,0.00,0.00,0.0000,0.0000,0.0000,0.0000,0.0000,0.0000,0.0000,0.00,0.00,0.00,1.4600,0.0000,1.2360,0.9290,2.7040,0,0.0000,0.0000,0.0000,0.0000,0.0000,0,1,0,0.3000,0
15409,0.0084,-0.1386,0.0064,-0.0032,0.0603,0.0048,0.45,0.60,-0.01,0,4.138,-0.126,0.106,-0.276,0.008,0.018,0.998,0.000,0.000,0.000,0.0060,5,3,0.00,0.00,0.00,0.0000,0.0000,0.0000,0.0000,0.0000,0.0000,0.0000,0.00,0.00,0.00,1.4500,0.2740,1.2380,0.9290,2.7000,0,0.0000,0.0000,0.0000,0.0000,0.0000,0,1,0,0.3000,0
15459,0.0077,-0.1353,0.0063,-0.0061,0.0653,0.0034,0.59,0.60,-0.00,0,4.133,0.021,0.088,0.216,0.011,0.018,1.000,0.000,0.000,0.000,0.0050,11,1,0.00,0.00,0.00,0.0000,0.0000,0.0000,0.0000,0.0000,0.0000,0.0000,0.00,0.00,0.00,1.4500,0.2740,1.2380,0.9320,2.7000,0,0.0000,0.0000,0.0000,0.0000,0.0000,0,1,0,0.3000,0
15511,0.0081,-0.1361,0.0068,-0.0022,0.0493,0.0056,0.72,0.54,0.00,0,4.138,-0.374,0.091,-0.063,0.010,0.020,1.002,0.000,0.000,0.000,0.0060,22,-4,0.00,0.00,0.00,0.0000,0.0000,0.0000,0.0000,0.0000,0.0000,0.0000,0.00,0.00,0.00,1.4470,0.2770,1.2360,0.9320,2.7090,0,0.0000,0.0000,0.0000,0.0000,0.0000,0,1,0,0.3000,0
15562,0.0081,-0.1351,0.0062,-0.0017,0.0456,0.0020,1.10,0.58,-0.00,0,4.133,-0.065,0.018,-0.059,0.011,0.020,1.000,0.000,0.000,0.000,0.0040,7,5,0.00,0.00,0.00,0.0000,0.0000,0.0000,0.0000,0.0000,0.0000,0.0000,0.00,0.00,0.00,1.4470,0.2770,1.2360,0.9290,2.7090,0,0.0000,0.0000,0.0000,0.0000,0.0000,0,1,0,0.3000,0
15613,0.0066,-0.1421,0.0054,-0.0082,0.0055,-0.0022,1.09,0.57,-0.01,0,4.138,-0.111,0.064,-0.040,0.010,0.020,0.999,0.000,0.000,0.000,0.0050,9,-4,0.00,0.00,0.00,0.0000,0.0000,0.0000,0.0000,0.0000,0.0000,0.0000,0.00,0.00,0.00,1.4420,0.0000,1.2380,0.9290,2.7020,0,0.0000,0.0000,0.0000,0.0000,0.0000,0,1,0,0.3000,0
15664,0.0062,-0.1434,0.0052,-0.0091,-0.0017,-0.0028,1.13,0.56,-0.01,0,4.128,0.085,0.133,-0.009,0.011,0.017,1.000,0.000,0.000,0.000,0.0030,-32,3,0.00,0.00,0.00,0.0000,0.0000,0.0000,0.0000,0.0000,0.0000,0.0000,0.00,0.00,0.00,1.4420,0.0000,1.2380,0.9310,2.7020,0,0.0000,0.0000,0.0000,0.0000,0.0000,0,0,0,0.0000,0
15715,0.0063,-0.1421,0.0052,-0.0079,0.0050,-0.0020,0.53,0.57,-0.00,0,4.138,-0.014,0.350,-0.052,0.009,0.019,1.001,0.000,0.000,0.000,0.0020,2,0,0.00,0.00,0.00,0.0000,0.0000,0.0000,0.0000,0.0000,0.0000,0.0000,0.00,0.00,0.00,1.4430,0.2700,1.2320,0.9310,2.7040,0,0.0000,0.0000,0.0000,0.0000,0.0000,0,0,0,0.0000,0
15766,0.0067,-0.1299,0.0030,-0.0046,0.0611,-0.0116,0.68,0.55,-0.00,0,4.133,-0.078,0.372,-0.106,0.008,0.021,0.998,0.000,0.000,0.000,0.0050,-9,1,0.00,0.00,0.00,0.0000,0.0000,0.0000,0.0000,0.0000,0.0000,0.0000,0.00,0.00,0.00,1.4430,0.2700,1.2320,0.9330,2.7040,0,0.0000,0.0000,0.0000,0.0000,0.0000,0,1,0,0.3000,0
15817,0.0057,-0.1340,0.0030,-0.0090,0.0275,-0.0084,0.78,0.60,-0.01,0,4.138,0.303,0.158,-0.001,0.012,0.019,0.998,0.000,0.000,0.000,0.0030,1,2,0.00,0.00,0.00,0.0000,0.0000,0.0000,0.0000,0.0000,0.0000,0.0000,0.00,0.00,0.00,1.4610,0.2850,1.2350,0.9330,2.7000,0,0.0000,0.0000,0.0000,0.0000,0.0000,0,1,0,0.3000,0
15867,0.0046,-0.1301,0.0033,-0.0116,0.0416,-0.0057,0.86,0.60,-0.01,0,4.133,-0.095,-0.017,0.143,0.011,0.019,1.002,0.000,0.000,0.000,0.0030,-10,-5,0.00,0.00,0.00,0.0000,0.0000,0.0000,0.0000,0.0000,0.0000,0.0000,0.00,0.00,0.00,1.4610,0.2850,1.2350,0.9330,2.7000,0,0.0000,0.0000,0.0000,0.0000,0.0000,0,1,0,0.3000,0
15919,0.0046,-0.1311,0.0032,-0.0090,0.0286,-0.0046,1.03,0.50,-0.00,0,4.138,-0.304,0.171,0.171,0.009,0.021,1.002,0.000,0.000,0.000,0.0040,10,0,0.00,0.00,0.00,0.0000,0.0000,0.0000,0.0000,0.0000,0.0000,0.0000,0.00,0.00,0.00,1.4500,0.0000,1.2360,0.9330,2.7010,0,0.0000,0.0000,0.0000,0.0000,0.0000,0,1,0,0.3000,0
15970,0.0067,-0.1315,0.0034,0.0030,0.0224,-0.0021,0.96,0.54,-0.00,0,4.128,-0.062,-0.232,0.001,0.008,0.020,1.000,0.000,0.000,0.000,0.0060,-17,-2,0.00,0.00,0.00,0.0000,0.0000,0.0000,0.0000,0.0000,0.0000,0.0000,0.00,0.00,0.00,1.4500,0.0000,1.2360,0.9340,2.7010,0,0.0000,0.0000,0.0000,0.0000,0.0000,0,1,0,0.3000,0
16021,0.0061,-0.1395,0.0045,-0.0005,-0.0249,0.0042,1.16,0.52,0.00,0,4.138,-0.313,0.087,0.143,0.013,0.020,1.000,0.000,0.000,0.000,0.0060,0,-1,0.00,0.00,0.00,0.0000,0.0000,0.0000,0.0000,0.0000,0.0000,0.0000,0.00,0.00,0.00,1.4530,0.0000,1.2370,0.9340,2.7090,0,0.0000,0.0000,0.0000,0.0000,0.0000,0,1,0,0.3000,0
16073,0.0050,-0.1339,0.0055,-0.0055,0.0075,0.0076,1.15,0.47,-0.00,0,4.133,0.048,-0.182,0.186,0.009,0.019,0.998,0.000,0.000,0.000,0.0040,8,-3,0.00,0.00,0.00,0.0000,0.0000,0.0000,0.0000,0.0000,0.0000,0.0000,0.00,0.00,0.00,1.4530,0.0000,1.2370,0.9330,2.7090,0,0.0000,0.0000,0.0000,0.0000,0.0000,0,1,0,0.3000,0
16124,0.0050,-0.1383,0.0059,-0.0043,-0.0179,0.0076,1.71,0.65,0.01,0,4.138,0.200,0.275,-0.194,0.010,0.019,1.000,0.000,0.000,0.000,0.0050,-4,2,0.00,0.00,0.00,0.0000,0.0000,0.0000,0.0000,0.0000,0.0000,0.0000,0.00,0.00,0.00,1.4530,0.0000,1.2390,0.9330,2.7020,0,0.0000,0.0000,0.0000,0.0000,0.0000,0,1,0,0.3000,0
16175,0.0029,-0.1499,0.0050,-0.0118,-0.0693,0.0019,1.56,0.60,0.01,0,4.133,-0.221,0.172,0.165,0.012,0.019,0.999,0.000,0.000,0.000,0.0080,40,-2,0.00,0.00,0.00,0.0000,0.0000,0.0000,0.0000,0.0000,0.0000,0.0000,0.00,0.00,0.00,1.4530,0.0000,1.2390,0.9280,2.7020,0,0.0000,0.0000,0.0000,0.0000,0.0000,0,1,0,0.3000,0
16225,0.0044,-0.1532,0.0051,0.0000,-0.0747,0.0017,2.02,0.46,-0.00,0,4.144,0.011,0.085,0.215,0.012,0.020,1.000,0.000,0.000,0.000,0.0060,2,1,0.00,0.00,0.00,0.0000,0.0000,0.0000,0.0000,0.0000,0.0000,0.0000,0.00,0.00,0.00,1.4530,0.2720,1.2370,0.9280,2.7070,0,0.0000,0.0000,0.0000,0.0000,0.0000,0,1,0,0.3000,0
16277,0.0063,-0.1644,0.0061,0.0107,-0.1132,0.0044,1.81,0.48,-0.00,0,4.128,0.089,-0.000,-0.103,0.010,0.020,0.998,0.000,0.000,0.000,0.0050,-10,3,0.00,0.00,0.00,0.0000,0.0000,0.0000,0.0000,0.0000,0.0000,0.0000,0.00,0.00,0.00,1.4530,0.2720,1.2370,0.9320,2.7070,0,0.0000,0.0000,0.0000,0.0000,0.0000,0,1,0,0.3000,0
16328,0.0050,-0.1634,0.0074,0.0032,-0.0861,0.0101,1.60,0.47,-0.01,0,4.138,0.073,0.191,0.072,0.011,0.021,0.998,0.000,0.000,0.000,0.0020,0,0,0.00,0.00,0.00,0.0000,0.0000,0.0000,0.0000,0.0000,0.0000,0.0000,0.00,0.00,0.00,1.4510,0.2810,1.2430,0.9320,2.7160,0,0.0000,0.0000,0.0000,0.0000,0.0000,0,1,0,0.3000,0
16379,0.0046,-0.1630,0.0050,0.0009,-0.0650,-0.0027,1.44,0.48,-0.01,0,4.133,0.192,0.279,-0.270,0.012,0.019,0.998,0.000,0.000,0.000,0.0050,7,5,0.00,0.00,0.00,0.0000,0.0000,0.0000,0.0000,0.0000,0.0000,0.0000,0.00,0.00,0.00,1.4510,0.2810,1.2430,0.9340,2.7160,0,0.0000,0.0000,0.0000,0.0000,0.0000,0,1,0,0.3000,0
16430,0.0046,-0.1642,0.0050,0.0010,-0.0568,-0.0023,1.32,0.51,-0.00,0,4.138,0.308,-0.150,-0.097,0.010,0.016,1.000,0.000,0.000,0.000,0.0030,10,2,0.00,0.00,0.00,0.0000,0.0000,0.0000,0.0000,0.0000,0.0000,0.0000,0.00,0.00,0.00,1.4390,0.0000,1.2330,0.9340,2.7080,0,0.0000,0.0000,0.0000,0.0000,0.0000,0,1,0,0.3000,0
16480,0.0057,-0.1644,0.0042,0.0061,-0.0458,-0.0061,1.24,0.48,-0.01,0,4.133,0.054,0.309,0.174,0.009,0.019,1.000,0.000,0.000,0.000,0.0030,-2,0,0.00,0.00,0.00,0.0000,0.0000,0.0000,0.0000,0.0000,0.0000,0.0000,0.00,0.00,0.00,1.4390,0.0000,1.2330,0.9330,2.7080,0,0.0000,0.0000,0.0000,0.0000,0.0000,0,1,0,0.3000,0
16531,0.0055,-0.1632,0.0041,0.0039,-0.0293,-0.0050,1.12,0.47,-0.01,0,4.138,-0.020,-0.026,-0.267,0.010,0.018,1.001,0.000,0.000,0.000,0.0020,-20,-1,0.00,0.00,0.00,0.0000,0.0000,0.0000,0.0000,0.0000,0.0000,0.0000,0.00,0.00,0.00,1.4380,0.0000,1.2390,0.9330,2.7010,0,0.0000,0.0000,0.0000,0.0000,0.0000,0,1,0,0.3000,0
16583,0.0057,-0.1648,0.0027,0.0048,-0.0308,-0.0102,1.14,0.51,-0.01,0,4.128,0.006,-0.082,0.278,0.011,0.020,1.001,0.000,0.000,0.000,0.0030,-23,-1,0.00,0.00,0.00,0.0000,0.0000,0.0000,0.0000,0.0000,0.0000,0.0000,0.00,0.00,0.00,1.4380,0.0000,1.2390,0.9310,2.7010,0,0.0000,0.0000,0.0000,0.0000,0.0000,0,1,0,0.3000,0
16634,0.0049,-0.1673,0.0025,-0.0006,-0.0345,-0.0089,0.58,0.52,-0.01,0,4.138,-0.023,-0.050,-0.116,0.009,0.021,1.001,0.000,0.000,0.000,0.0010,0,1,0.00,0.00,0.00,0.0000,0.0000,0.0000,0.0000,0.0000,0.0000,0.0000,0.00,0.00,0.00,1.4470,0.2730,1.2350,0.9310,2.6960,0,0.0000,0.0000,0.0000,0.0000,0.0000,0,1,0,0.3000,0
16685,0.0046,-0.1534,0.0018,-0.0023,0.0387,-0.0099,0.61,0.53,-0.01,0,4.128,-0.005,0.154,-0.089,0.009,0.020,0.999,0.000,0.000,0.000,0.0030,-4,-4,0.00,0.00,0.00,0.0000,0.0000,0.0000,0.0000,0.0000,0.0000,0.0000,0.00,0.00,0.00,1.4470,0.2730,1.2350,0.9330,2.6960,0,0.0000,0.0000,0.0000,0.0000,0.0000,0,1,0,0.3000,0
16736,0.0063,-0.1511,0.0013,0.0069,0.0461,-0.0099,0.39,0.44,-0.01,0,4.138,0.033,0.127,0.064,0.011,0.022,0.999,0.000,0.000,0.000,0.0040,10,3,0.00,0.00,0.00,0.0000,0.0000,0.0000,0.0000,0.0000,0.0000,0.0000,0.00,0.00,0.00,1.4390,0.2730,1.2390,0.9330,2.7130,0,0.0000,0.0000,0.0000,0.0000,0.0000,0,1,0,0.3000,0
16787,0.0063,-0.1418,0.0024,0.0054,0.0836,-0.0026,0.27,0.48,-0.01,0,4.133,-0.022,-0.104,-0.083,0.009,0.018,0.998,0.000,0.000,0.000,0.0040,3,4,0.00,0.00,0.00,0.0000,0.0000,0.0000,0.0000,0.0000,0.0000,0.0000,0.00,0.00,0.00,1.4390,0.2730,1.2390,0.9340,2.7130,0,0.0000,0.0000,0.0000,0.0000,0.0000,0,1,0,0.3000,0
16838,0.0082,-0.1327,0.0017,0.0138,0.1148,-0.0058,0.03,0.52,-0.02,0,4.138,-0.108,-0.115,0.004,0.012,0.022,1.001,0.000,0.000,0.000,0.0060,-4,-4,0.00,0.00,0.00,0.0000,0.0000,0.0000,0.0000,0.0000,0.0000,0.0000,0.00,0.00,0.00,1.4480,0.0000,1.2410,0.9340,2.6980,0,0.0000,0.0000,0.0000,0.0000,0.0000,0,1,0,0.3000,0
16889,0.0069,-0.1236,0.0039,0.0061,0.1375,0.0057,0.23,0.45,-0.01,0,4.128,-0.001,-0.256,0.055,0.012,0.019,1.002,0.000,0.000,0.000,0.0060,-4,0,0.00,0.00,0.00,0.0000,0.0000,0.0000,0.0000,0.0000,0.0000,0.0000,0.00,0.00,0.00,1.4480,0.0000,1.2410,0.9310,2.6980,0,0.0000,0.0000,0.0000,0.0000,0.0000,0,1,0,0.3000,0
16940,0.0071,-0.1244,0.0057,0.0060,0.1083,0.0138,0.16,0.50,-0.02,0,4.138,-0.103,-0.235,-0.303,0.010,0.021,1.001,0.000,0.000,0.000,0.0020,0,7,0.00,0.00,0.00,0.0000,0.0000,0.0000,0.0000,0.0000,0.0000,0.0000,0.00,0.00,0.00,1.4520,0.0000,1.2370,0.9310,2.6990,0,0.0000,0.0000,0.0000,0.0000,0.0000,0,1,0,0.3000,0
16991,0.0068,-0.1158,0.0044,0.0040,0.1335,0.0035,0.29,0.58,-0.04,0,4.133,-0.234,0.001,0.070,0.011,0.021,0.999,0.000,0.000,0.000,0.0030,-7,3,0.00,0.00,0.00,0.0000,0.0000,0.0000,0.0000,0.0000,0.0000,0.0000,0.00,0.00,0.00,1.4520,0.0000,1.2370,0.9310,2.6990,0,0.0000,0.0000,0.0000,0.0000,0.0000,0,1,0,0.3000,0
17042,0.0068,-0.1189,0.0060,0.0044,0.0905,0.0126,0.55,0.53,-0.03,0,4.138,-0.034,0.151,0.031,0.010,0.021,1.000,0.000,0.000,0.000,0.0060,-5,-2,0.00,0.00,0.00,0.0000,0.0000,0.0000,0.0000,0.0000,0.0000,0.0000,0.00,0.00,0.00,1.4540,0.0000,1.2330,0.9310,2.7080,0,0.0000,0.0000,0.0000,0.0000,0.0000,0,1,0,0.3000,0
17093,0.0062,-0.1181,0.0056,0.0001,0.0754,0.0089,0.59,0.49,-0.02,0,4.133,0.003,0.083,-0.160,0.010,0.019,1.001,0.000,0.000,0.000,0.0030,11,1,0.00,0.00,0.00,0.0000,0.0000,0.0000,0.0000,0.0000,0.0000,0.0000,0.00,0.00,0.00,1.4540,0.0000,1.2330,0.9350,2.7080,0,0.0000,0.0000,0.0000,0.0000,0.0000,0,1,0,0.3000,0
17145,0.0070,-0.1053,0.0052,0.0043,0.1245,0.0035,0.64,0.53,-0.03,0,4.138,0.003,0.150,-0.202,0.011,0.019,1.001,0.000,0.000,0.000,0.0030,3,-2,0.00,0.00,0.00,0.0000,0.0000,0.0000,0.0000,0.0000,0.0000,0.0000,0.00,0.00,0.00,1.4510,0.0000,1.2300,0.9350,2.7000,0,0.0000,0.0000,0.0000,0.0000,0.0000,0,1,0,0.3000,0
17196,0.0060,-0.1102,0.0045,-0.0022,0.0765,0.0011,0.83,0.55,-0.04,0,4.128,-0.045,0.082,0.070,0.012,0.019,1.001,0.000,0.000,0.000,0.0050,9,1,0.00,0.00,0.00,0.0000,0.0000,0.0000,0.0000,0.0000,0.0000,0.0000,0.00,0.00,0.00,1.4510,0.0000,1.2300,0.9320,2.7000,0,0.0000,0.0000,0.0000,0.0000,0.0000,0,1,0,0.3000,0
17247,0.0075,-0.1137,0.0050,0.0060,0.0385,0.0044,1.22,0.54,-0.04,0,4.138,-0.045,0.181,0.038,0.009,0.022,0.999,0.000,0.000,0.000,0.0040,0,0,0.00,0.00,0.00,0.0000,0.0000,0.0000,0.0000,0.0000,0.0000,0.0000,0.00,0.00,0.00,1.4540,0.2620,1.2400,0.9320,2.6980,0,0.0000,0.0000,0.0000,0.0000,0.0000,0,1,0,0.3000,0
17298,0.0070,-0.1160,0.0047,0.0032,0.0204,0.0019,1.21,0.51,-0.04,0,4.133,0.098,0.103,0.057,0.010,0.021,1.001,0.000,0.000,0.000,0.0030,-20,-2,0.00,0.00,0.00,0.0000,0.0000,0.0000,0.0000,0.0000,0.0000,0.0000,0.00,0.00,0.00,1.4540,0.2620,1.2400,0.9340,2.6980,0,0.0000,0.0000,0.0000,0.0000,0.0000,0,1,0,0.3000,0
17349,0.0064,-0.1157,0.0041,-0.0001,0.0146,-0.0019,1.19,0.53,-0.04,0,4.138,-0.057,0.206,0.399,0.011,0.019,0.999,0.000,0.000,0.000,0.0030,-27,5,0.00,0.00,0.00,0.0000,0.0000,0.0000,0.0000,0.0000,0.0000,0.0000,0.00,0.00,0.00,1.4440,0.0000,1.2390,0.9340,2.7050,0,0.0000,0.0000,0.0000,0.0000,0.0000,0,1,0,0.3000,0
17400,0.0069,-0.1137,0.0037,0.0026,0.0205,-0.0038,0.87,0.57,-0.04,0,4.133,-0.153,0.103,0.115,0.011,0.020,0.999,0.000,0.000,0.000,0.0040,15,-5,0.00,0.00,0.00,0.0000,0.0000,0.0000,0.0000,0.0000,0.0000,0.0000,0.00,0.00,0.00,1.4440,0.0000,1.2390,0.9330,2.7050,0,0.0000,0.0000,0.0000,0.0000,0.0000,0,1,0,0.3000,0
17451,0.0047,-0.1049,0.0034,-0.0079,0.0574,-0.0052,0.95,0.53,-0.03,0,4.138,-0.299,0.133,0.074,0.011,0.017,1.001,0.000,0.000,0.000,0.0040,-31,4,0.00,0.00,0.00,0.0000,0.0000,0.0000,0.0000,0.0000,0.0000,0.0000,0.00,0.00,0.00,1.4510,0.2770,1.2400,0.9330,2.7110,0,0.0000,0.0000,0.0000,0.0000,0.0000,0,1,0,0.3000,0
17502,0.0064,-0.1040,0.0039,0.0015,0.0477,-0.0012,0.95,0.54,-0.03,0,4.128,-0.029,0.216,0.180,0.010,0.016,0.998,0.000,0.000,0.000,0.0020,10,-7,0.00,0.00,0.00,0.0000,0.0000,0.0000,0.0000,0.0000,0.0000,0.0000,0.00,0.00,0.00,1.4510,0.2770,1.2400,0.9290,2.7110,0,0.0000,0.0000,0.0000,0.0000,0.0000,0,1,0,0.3000,0
17552,0.0049,-0.1030,0.0043,-0.0063,0.0416,0.0004,1.08,0.50,-0.03,0,4.138,0.041,0.038,-0.115,0.014,0.020,1.000,0.000,0.000,0.000,0.0030,4,-3,0.00,0.00,0.00,0.0000,0.0000,0.0000,0.0000,0.0000,0.0000,0.0000,0.00,0.00,0.00,1.4440,0.2740,1.2330,0.9290,2.6990,0,0.0000,0.0000,0.0000,0.0000,0.0000,0,1,0,0.3000,0
17604,0.0060,-0.1012,0.0031,-0.0001,0.0405,-0.0044,1.11,0.51,-0.03,0,4.133,-0.179,-0.247,0.130,0.010,0.019,0.999,0.000,0.000,0.000,0.0030,7,-6,0.00,0.00,0.00,0.0000,0.0000,0.0000,0.0000,0.0000,0.0000,0.0000,0.00,0.00,0.00,1.4440,0.2740,1.2330,0.9370,2.6990,0,0.0000,0.0000,0.0000,0.0000,0.0000,0,1,0,0.3000,0
17655,0.0051,-0.1009,0.0030,-0.0043,0.0334,-0.0038,1.20,0.50,-0.04,0,4.138,0.222,-0.030,-0.247,0.011,0.019,1.000,0.000,0.000,0.000,0.0010,3,5,0.00,0.00,0.00,0.0000,0.0000,0.0000,0.0000,0.0000,0.0000,0.0000,0.00,0.00,0.00,1.4480,0.2820,1.2360,0.9370,2.7040,0,0.0000,0.0000,0.0000,0.0000,0.0000,0,1,0,0.3000,0
17706,0.0051,-0.1014,0.0021,-0.0038,0.0234,-0.0068,1.21,0.54,-0.03,0,4.128,0.140,0.394,-0.094,0.009,0.020,0.999,0.000,0.000,0.000,0.0040,3,-8,0.00,0.00,0.00,0.0000,0.0000,0.0000,0.0000,0.0000,0.0000,0.0000,0.00,0.00,0.00,1.4480,0.2820,1.2360,0.9330,2.7040,0,0.0000,0.0000,0.0000,0.0000,0.0000,0,1,0,0.3000,0
17757,0.0064,-0.1008,0.0019,0.0043,0.0207,-0.0066,1.29,0.48,-0.04,0,4.138,0.019,-0.179,-0.117,0.010,0.019,1.001,0.000,0.000,0.000,0.0030,1,0,0.00,0.00,0.00,0.0000,0.0000,0.0000,0.0000,0.0000,0.0000,0.0000,0.00,0.00,0.00,1.4460,0.0000,1.2290,0.9330,2.7050,0,0.0000,0.0000,0.0000,0.0000,0.0000,0,1,0,0.3000,0
17808,0.0052,-0.1008,0.0028,-0.0031,0.0160,-0.0005,0.87,0.55,-0.03,0,4.128,-0.044,-0.546,-0.200,0.011,0.018,0.999,0.000,0.000,0.000,0.0010,-20,9,0.00,0.00,0.00,0.0000,0.0000,0.0000,0.0000,0.0000,0.0000,0.0000,0.00,0.00,0.00,1.4460,0.0000,1.2290,0.9310,2.7050,0,0.0000,0.0000,0.0000,0.0000,0.0000,0,1,0,0.3000,0
17859,0.0072,-0.0908,0.0029,0.0095,0.0591,-0.0002,0.92,0.59,-0.03,0,4.138,0.142,-0.111,0.116,0.012,0.020,0.999,0.000,0.000,0.000,0.0040,-6,-2,0.00,0.00,0.00,0.0000,0.0000,0.0000,0.0000,0.0000,0.0000,0.0000,0.00,0.00,0.00,1.4440,0.0000,1.2390,0.9310,2.7040,0,0.0000,0.0000,0.0000,0.0000,0.0000,0,1,0,0.3000,0
17909,0.0042,-0.0898,0.0030,-0.0066,0.0526,0.0008,0.79,0.55,-0.03,0,4.133,-0.267,0.153,0.212,0.011,0.017,0.999,0.000,0.000,0.000,0.0050,0,6,0.00,0.00,0.00,0.0000,0.0000,0.0000,0.0000,0.0000,0.0000,0.0000,0.00,0.00,0.00,1.4440,0.0000,1.2390,0.9310,2.7040,0,0.0000,0.0000,0.0000,0.0000,0.0000,0,1,0,0.3000,0
17961,0.0060,-0.0852,0.0030,0.0045,0.0622,0.0010,1.01,0.54,-0.03,0,4.138,0.189,-0.100,-0.158,0.011,0.019,1.000,0.000,0.000,0.000,0.0050,-11,-3,0.00,0.00,0.00,0.0000,0.0000,0.0000,0.0000,0.0000,0.0000,0.0000,0.00,0.00,0.00,1.4490,0.2740,1.2310,0.9310,2.7060,0,0.0000,0.0000,0.0000,0.0000,0.0000,0,1,0,0.3000,0
18012,0.0052,-0.0845,0.0046,0.0001,0.0528,0.0075,0.83,0.54,-0.03,0,4.133,0.073,-0.193,0.015,0.011,0.021,1.000,0.000,0.000,0.000,0.0030,10,-1,0.00,0.00,0.00,0.0000,0.0000,0.0000,0.0000,0.0000,0.0000,0.0000,0.00,0.00,0.00,1.4490,0.2740,1.2310,0.9290,2.7060,0,0.0000,0.0000,0.0000,0.0000,0.0000,0,1,0,0.3000,0
18063,0.0045,-0.0846,0.0054,-0.0023,0.0374,0.0099,1.37,0.42,-0.02,0,4.138,-0.150,0.237,0.219,0.011,0.020,0.998,0.000,0.000,0.000,0.0050,0,2,0.00,0.00,0.00,0.0000,0.0000,0.0000,0.0000,0.0000,0.0000,0.0000,0.00,0.00,0.00,1.4470,0.0000,1.2350,0.9290,2.7060,0,0.0000,0.0000,0.0000,0.0000,0.0000,0,1,0,0.3000,0
18114,0.0068,-0.0892,0.0049,0.0087,0.0070,0.0060,1.37,0.44,-0.02,0,4.128,0.206,-0.065,-0.031,0.011,0.020,1.001,0.000,0.000,0.000,0.0060,1,0,0.00,0.00,0.00,0.0000,0.0000,0.0000,0.0000,0.0000,0.0000,0.0000,0.00,0.00,0.00,1.4470,0.0000,1.2350,0.9350,2.7060,0,0.0000,0.0000,0.0000,0.0000,0.0000,0,1,0,0.3000,0
18165,0.0087,-0.0935,0.0055,0.0170,-0.0198,0.0073,1.44,0.44,-0.02,0,4.138,-0.126,0.136,0.103,0.010,0.019,1.000,0.000,0.000,0.000,0.0030,-6,3,0.00,0.00,0.00,0.0000,0.0000,0.0000,0.0000,0.0000,0.0000,0.0000,0.00,0.00,0.00,1.4550,0.2700,1.2400,0.9350,2.7110,0,0.0000,0.0000,0.0000,0.0000,0.0000,0,1,0,0.3000,0
18216,0.0066,-0.0893,0.0048,0.0034,0.0030,0.0011,0.77,0.48,-0.03,0,4.128,0.047,-0.204,-0.147,0.010,0.020,1.001,0.000,0.000,0.000,0.0040,-1,3,0.00,0.00,0.00,0.0000,0.0000,0.0000,0.0000,0.0000,0.0000,0.0000,0.00,0.00,0.00,1.4550,0.2700,1.2400,0.9310,2.7110,0,0.0000,0.0000,0.0000,0.0000,0.0000,0,1,0,0.3000,0
18267,0.0077,-0.0751,0.0049,0.0085,0.0699,0.0008,0.94,0.49,-0.03,0,4.138,0.152,0.003,0.024,0.010,0.020,1.001,0.000,0.000,0.000,0.0040,-1,3,0.00,0.00,0.00,0.0000,0.0000,0.0000,0.0000,0.0000,0.0000,0.0000,0.00,0.00,0.00,1.4470,0.0000,1.2370,0.9310,2.7130,0,0.0000,0.0000,0.0000,0.0000,0.0000,0,1,0,0.3000,0
18318,0.0069,-0.0764,0.0045,0.0025,0.0499,-0.0006,1.05,0.54,-0.03,0,4.133,-0.011,-0.110,-0.185,0.011,0.020,1.001,0.000,0.000,0.000,0.0020,-3,0,0.00,0.00,0.00,0.0000,0.0000,0.0000,0.0000,0.0000,0.0000,0.0000,0.00,0.00,0.00,1.4470,0.0000,1.2370,0.9340,2.7130,0,0.0000,0.0000,0.0000,0.0000,0.0000,0,1,0,0.3000,0
18369,0.0079,-0.0787,0.0047,0.0072,0.0273,0.0015,1.14,0.51,-0.03,0,4.138,0.114,0.069,-0.112,0.009,0.021,0.999,0.000,0.000,0.000,0.0040,0,0,0.00,0.00,0.00,0.0000,0.0000,0.0000,0.0000,0.0000,0.0000,0.0000,0.00,0.00,0.00,1.4490,0.0000,1.2320,0.9340,2.7030,0,0.0000,0.0000,0.0000,0.0000,0.0000,0,1,0,0.3000,0
18421,0.0075,-0.0778,0.0036,0.0038,0.0243,-0.0028,1.17,0.52,-0.03,0,4.128,0.100,-0.131,-0.110,0.012,0.019,0.998,0.000,0.000,0.000,0.0040,2,4,0.00,0.00,0.00,0.0000,0.0000,0.0000,0.0000,0.0000,0.0000,0.0000,0.00,0.00,0.00,1.4490,0.0000,1.2320,0.9300,2.7030,0,0.0000,0.0000,0.0000,0.0000,0.0000,0,1,0,0.3000,0
18472,0.0086,-0.0766,0.0035,0.0089,0.0244,-0.0025,1.50,0.60,-0.03,0,4.138,-0.062,-0.212,0.120,0.010,0.019,1.001,0.000,0.000,0.000,0.0030,17,0,0.00,0.00,0.00,0.0000,0.0000,0.0000,0.0000,0.0000,0.0000,0.0000,0.00,0.00,0.00,1.4520,0.2710,1.2360,0.9300,2.7060,0,0.0000,0.0000,0.0000,0.0000,0.0000,0,1,0,0.3000,0
18523,0.0069,-0.0845,0.0035,-0.0004,-0.0182,-0.0023,1.52,0.55,-0.03,0,4.128,0.019,0.139,0.280,0.009,0.020,1.000,0.000,0.000,0.000,0.0050,0,-1,0.00,0.00,0.00,0.0000,0.0000,0.0000,0.0000,0.0000,0.0000,0.0000,0.00,0.00,0.00,1.4520,0.2710,1.2360,0.9340,2.7060,0,0.0000,0.0000,0.0000,0.0000,0.0000,0,1,0,0.3000,0
18574,0.0073,-0.0847,0.0036,0.0023,-0.0174,-0.0009,1.53,0.54,-0.03,0,4.138,-0.159,-0.040,-0.245,0.009,0.018,0.999,0.000,0.000,0.000,0.0050,0,0,0.00,0.00,0.00,0.0000,0.0000,0.0000,0.0000,0.0000,0.0000,0.0000,0.00,0.00,0.00,1.4440,0.0000,1.2350,0.9340,2.7020,0,0.0000,0.0000,0.0000,0.0000,0.0000,0,1,0,0.3000,0
18625,0.0073,-0.0814,0.0047,0.0019,0.0060,0.0046,1.19,0.55,-0.03,0,4.133,-0.014,0.220,0.026,0.010,0.019,0.998,0.000,0.000,0.000,0.0060,15,-7,0.00,0.00,0.00,0.0000,0.0000,0.0000,0.0000,0.0000,0.0000,0.0000,0.00,0.00,0.00,1.4440,0.0000,1.2350,0.9330,2.7020,0,0.0000,0.0000,0.0000,0.0000,0.0000,0,1,0,0.3000,0
18675,0.0067,-0.0833,0.0050,-0.0014,-0.0072,0.0050,1.55,0.44,-0.04,0,4.138,-0.077,0.025,-0.032,0.010,0.018,1.000,0.000,0.000,0.000,0.0030,0,0,0.00,0.00,0.00,0.0000,0.0000,0.0000,0.0000,0.0000,0.0000,0.0000,0.00,0.00,0.00,1.4590,0.0000,1.2330,0.9330,2.7070,0,0.0000,0.0000,0.0000,0.0000,0.0000,0,1,0,0.3000,0
18727,0.0101,-0.0901,0.0045,0.0157,-0.0394,0.0001,1.52,0.45,-0.04,0,4.128,0.004,-0.175,-0.021,0.009,0.020,0.999,0.000,0.000,0.000,0.0050,-2,2,0.00,0.00,0.00,0.0000,0.0000,0.0000,0.0000,0.0000,0.0000,0.0000,0.00,0.00,0.00,1.4590,0.0000,1.2330,0.9310,2.7070,0,0.0000,0.0000,0.0000,0.0000,0.0000,0,1,0,0.3000,0
18778,0.0104,-0.0876,0.0048,0.0153,-0.0187,0.0017,1.40,0.49,-0.04,0,4.138,-0.024,0.088,0.158,0.012,0.018,1.002,0.000,0.000,0.000,0.0050,3,0,0.00,0.00,0.00,0.0000,0.0000,0.0000,0.0000,0.0000,0.0000,0.0000,0.00,0.00,0.00,1.4520,0.0000,1.2360,0.9310,2.7030,0,0.0000,0.0000,0.0000,0.0000,0.0000,0,1,0,0.3000,0
18829,0.0087,-0.0895,0.0051,0.0040,-0.0240,0.0026,1.37,0.50,-0.04,0,4.133,0.124,0.158,0.162,0.010,0.020,0.999,0.000,0.000,0.000,0.0050,4,1,0.00,0.00,0.00,0.0000,0.0000,0.0000,0.0000,0.0000,0.0000,0.0000,0.00,0.00,0.00,1.4520,0.0000,1.2360,0.9310,2.7030,0,0.0000,0.0000,0.0000,0.0000,0.0000,0,1,0,0.3000,0
18880,0.0097,-0.0912,0.0052,0.0086,-0.0285,0.0036,1.28,0.50,-0.04,0,4.138,-0.170,-0.190,0.266,0.011,0.019,1.000,0.000,0.000,0.000,0.0050,8,2,0.00,0.00,0.00,0.0000,0.0000,0.0000,0.0000,0.0000,0.0000,0.0000,0.00,0.00,0.00,1.4430,0.0000,1.2360,0.9310,2.6940,0,0.0000,0.0000,0.0000,0.0000,0.0000,0,1,0,0.3000,0
18931,0.0104,-0.0899,0.0052,0.0109,-0.0177,0.0032,1.24,0.52,-0.04,0,4.133,-0.076,-0.135,-0.275,0.013,0.022,1.001,0.000,0.000,0.000,0.0040,32,1,0.00,0.00,0.00,0.0000,0.0000,0.0000,0.0000,0.0000,0.0000,0.0000,0.00,0.00,0.00,1.4430,0.0000,1.2360,0.9330,2.6940,0,0.0000,0.0000,0.0000,0.0000,0.0000,0,1,0,0.3000,0
18983,0.0089,-0.0897,0.0055,0.0019,-0.0130,0.0037,1.81,0.47,-0.03,0,4.138,-0.089,0.081,-0.058,0.010,0.022,0.999,0.000,0.000,0.000,0.0040,-7,-1,0.00,0.00,0.00,0.0000,0.0000,0.0000,0.0000,0.0000,0.0000,0.0000,0.00,0.00,0.00,1.4420,0.0000,1.2370,0.9330,2.7030,0,0.0000,0.0000,0.0000,0.0000,0.0000,0,1,0,0.3000,0
19034,0.0106,-0.1039,0.0044,0.0086,-0.0769,-0.0028,1.61,0.50,-0.03,0,4.128,0.050,0.148,0.090,0.011,0.019,1.000,0.000,0.000,0.000,0.0040,3,-4,0.00,0.00,0.00,0.0000,0.0000,0.0000,0.0000,0.0000,0.0000,0.0000,0.00,0.00,0.00,1.4420,0.0000,1.2370,0.9350,2.7030,0,0.0000,0.0000,0.0000,0.0000,0.0000,0,1,0,0.3000,0
19085,0.0110,-0.1054,0.0043,0.0099,-0.0688,-0.0026,1.72,0.46,-0.03,0,4.138,0.052,0.120,0.107,0.010,0.021,1.000,0.000,0.000,0.000,0.0020,-17,0,0.00,0.00,0.00,0.0000,0.0000,0.0000,0.0000,0.0000,0.0000,0.0000,0.00,0.00,0.00,1.4440,0.0000,1.2380,0.9350,2.7020,0,0.0000,0.0000,0.0000,0.0000,0.0000,0,1,0,0.3000,0
19137,0.0111,-0.1059,0.0036,0.0083,-0.0561,-0.0048,1.41,0.51,-0.03,0,4.128,-0.214,-0.053,0.254,0.012,0.020,0.998,0.000,0.000,0.000,0.0050,-6,-2,0.00,0.00,0.00,0.0000,0.0000,0.0000,0.0000,0.0000,0.0000,0.0000,0.00,0.00,0.00,1.4440,0.0000,1.2380,0.9360,2.7020,0,0.0000,0.0000,0.0000,0.0000,0.0000,0,1,0,0.3000,0
19188,0.0110,-0.1083,0.0036,0.0062,-0.0556,-0.0041,1.30,0.53,-0.03,0,4.138,0.280,0.107,0.083,0.009,0.021,1.000,0.000,0.000,0.000,0.0030,1,4,0.00,0.00,0.00,0.0000,0.0000,0.0000,0.0000,0.0000,0.0000,0.0000,0.00,0.00,0.00,1.4530,0.0000,1.2360,0.9360,2.7030,0,0.0000,0.0000,0.0000,0.0000,0.0000,0,1,0,0.3000,0
19239,0.0114,-0.1081,0.0038,0.0072,-0.0432,-0.0031,1.64,0.60,-0.03,0,4.133,0.101,-0.063,0.290,0.009,0.021,1.000,0.000,0.000,0.000,0.0070,31,0,0.00,0.00,0.00,0.0000,0.0000,0.0000,0.0000,0.0000,0.0000,0.0000,0.00,0.00,0.00,1.4530,0.0000,1.2360,0.9350,2.7030,0,0.0000,0.0000,0.0000,0.0000,0.0000,0,1,0,0.3000,0
19290,0.0111,-0.1201,0.0034,0.0055,-0.0887,-0.0045,2.11,0.55,-0.03,0,4.138,0.105,-0.003,-0.003,0.011,0.021,1.000,0.000,0.000,0.000,0.0020,0,0,0.00,0.00,0.00,0.0000,0.0000,0.0000,0.0000,0.0000,0.0000,0.0000,0.00,0.00,0.00,1.4510,0.2650,1.2340,0.9350,2.6970,0,0.0000,0.0000,0.0000,0.0000,0.0000,0,1,0,0.3000,0
19341,0.0098,-0.1325,0.0037,-0.0019,-0.1255,-0.0035,2.40,0.53,-0.03,0,4.128,-0.238,0.107,0.025,0.011,0.022,1.003,0.000,0.000,0.000,0.0030,-6,0,0.00,0.00,0.00,0.0000,0.0000,0.0000,0.0000,0.0000,0.0000,0.0000,0.00,0.00,0.00,1.4510,0.2650,1.2340,0.9310,2.6970,0,0.0000,0.0000,0.0000,0.0000,0.0000,0,1,0,0.3000,0
19392,0.0140,-0.1500,0.0032,0.0176,-0.1758,-0.0040,1.99,0.51,-0.03,0,4.138,0.062,-0.133,-0.093,0.010,0.018,0.999,0.000,0.000,0.000,0.0050,-2,2,0.00,0.00,0.00,0.0000,0.0000,0.0000,0.0000,0.0000,0.0000,0.0000,0.00,0.00,0.00,1.4510,0.0000,1.2430,0.9310,2.7050,0,0.0000,0.0000,0.0000,0.0000,0.0000,0,1,0,0.3000,0
19443,0.0125,-0.1487,0.0047,0.0085,-0.1366,0.0065,1.65,0.52,-0.03,0,4.128,0.070,-0.000,-0.040,0.009,0.020,1.000,0.000,0.000,0.000,0.0020,-4,-1,0.00,0.00,0.00,0.0000,0.0000,0.0000,0.0000,0.0000,0.0000,0.0000,0.00,0.00,0.00,1.4510,0.0000,1.2430,0.9350,2.7050,0,0.0000,0.0000,0.0000,0.0000,0.0000,0,1,0,0.3000,0
19494,0.0127,-0.1471,0.0043,0.0078,-0.1025,0.0032,1.56,0.52,-0.03,0,4.138,-0.084,-0.055,0.163,0.012,0.021,0.998,0.000,0.000,0.000,0.0030,15,-2,0.00,0.00,0.00,0.0000,0.0000,0.0000,0.0000,0.0000,0.0000,0.0000,0.00,0.00,0.00,1.4480,0.0000,1.2370,0.9350,2.7050,0,0.0000,0.0000,0.0000,0.0000,0.0000,0,1,0,0.3000,0
19545,0.0124,-0.1555,0.0038,0.0053,-0.1185,-0.0005,1.49,0.55,-0.03,0,4.133,-0.270,-0.002,0.228,0.010,0.019,1.000,0.000,0.000,0.000,0.0050,-11,-1,0.00,0.00,0.00,0.0000,0.0000,0.0000,0.0000,0.0000,0.0000,0.0000,0.00,0.00,0.00,1.4480,0.0000,1.2370,0.9330,2.7050,0,0.0000,0.0000,0.0000,0.0000,0.0000,0,1,0,0.3000,0
19597,0.0117,-0.1534,0.0047,0.0007,-0.0834,0.0051,1.23,0.54,-0.03,0,4.138,-0.224,-0.154,0.147,0.012,0.019,0.999,0.000,0.000,0.000,0.0050,0,-5,0.00,0.00,0.00,0.0000,0.0000,0.0000,0.0000,0.0000,0.0000,0.0000,0.00,0.00,0.00,1.4530,0.0000,1.2340,0.9330,2.6990,0,0.0000,0.0000,0.0000,0.0000,0.0000,0,1,0,0.3000,0
19648,0.0117,-0.1533,0.0053,0.0006,-0.0634,0.0074,1.07,0.53,-0.02,0,4.128,-0.159,0.003,0.217,0.009,0.020,1.000,0.000,0.000,0.000,0.0040,39,0,0.00,0.00,0.00,0.0000,0.0000,0.0000,0.0000,0.0000,0.0000,0.0000,0.00,0.00,0.00,1.4530,0.0000,1.2340,0.9330,2.6990,0,0.0000,0.0000,0.0000,0.0000,0.0000,0,1,0,0.3000,0
19699,0.0123,-0.1562,0.0057,0.0031,-0.0623,0.0076,1.56,0.58,-0.03,0,4.138,0.148,0.163,-0.012,0.010,0.023,1.000,0.000,0.000,0.000,0.0050,1,-1,0.00,0.00,0.00,0.0000,0.0000,0.0000,0.0000,0.0000,0.0000,0.0000,0.00,0.00,0.00,1.4440,0.0000,1.2310,0.9330,2.7000,0,0.0000,0.0000,0.0000,0.0000,0.0000,0,1,0,0.3000,0
19750,0.0108,-0.1717,0.0047,-0.0043,-0.1177,-0.0001,1.37,0.57,-0.02,0,4.128,-0.019,-0.254,-0.100,0.010,0.019,1.001,0.000,0.000,0.000,0.0030,-14,5,0.00,0.00,0.00,0.0000,0.0000,0.0000,0.0000,0.0000,0.0000,0.0000,0.00,0.00,0.00,1.4440,0.0000,1.2310,0.9310,2.7000,0,0.0000,0.0000,0.0000,0.0000,0.0000,0,1,0,0.3000,0
19801,0.0126,-0.1663,0.0062,0.0055,-0.0647,0.0091,0.89,0.58,-0.02,0,4.138,0.070,0.207,-0.039,0.009,0.018,0.997,0.000,0.000,0.000,0.0020,-3,-3,0.00,0.00,0.00,0.0000,0.0000,0.0000,0.0000,0.0000,0.0000,0.0000,0.00,0.00,0.00,1.4500,0.2670,1.2290,0.9310,2.7030,0,0.0000,0.0000,0.0000,0.0000,0.0000,0,1,0,0.3000,0
19852,0.0124,-0.1627,0.0039,0.0039,-0.0319,-0.0031,0.76,0.58,-0.02,0,4.133,0.002,0.169,-0.101,0.010,0.019,0.999,0.000,0.000,0.000,0.0010,1,3,0.00,0.00,0.00,0.0000,0.0000,0.0000,0.0000,0.0000,0.0000,0.0000,0.00,0.00,0.00,1.4500,0.2670,1.2290,0.9330,2.7030,0,0.0000,0.0000,0.0000,0.0000,0.0000,0,1,0,0.3000,0
19903,0.0111,-0.1621,0.0026,-0.0031,-0.0182,-0.0093,0.73,0.56,-0.01,0,4.138,0.055,-0.151,-0.021,0.010,0.020,1.000,0.000,0.000,0.000,0.0040,0,0,0.00,0.00,0.00,0.0000,0.0000,0.0000,0.0000,0.0000,0.0000,0.0000,0.00,0.00,0.00,1.4400,0.0000,1.2360,0.9330,2.7080,0,0.0000,0.0000,0.0000,0.0000,0.0000,0,1,0,0.3000,0
19954,0.0124,-0.1627,0.0029,0.0041,-0.0133,-0.0050,0.71,0.54,-0.00,0,4.128,0.038,0.200,0.070,0.010,0.019,1.000,0.000,0.000,0.000,0.0010,6,-10,0.00,0.00,0.00,0.0000,0.0000,0.0000,0.0000,0.0000,0.0000,0.0000,0.00,0.00,0.00,1.4400,0.0000,1.2360,0.9340,2.7080,0,0.0000,0.0000,0.0000,0.0000,0.0000,0,1,0,0.3000,0
20005,0.0122,-0.1641,0.0027,0.0024,-0.0144,-0.0052,0.65,0.56,-0.01,0,4.138,0.261,-0.148,-0.118,0.009,0.022,0.999,0.000,0.000,0.000,0.0020,-7,8,0.00,0.00,0.00,0.0000,0.0000,0.0000,0.0000,0.0000,0.0000,0.0000,0.00,0.00,0.00,1.4470,0.2690,1.2350,0.9340,2.7080,0,0.0000,0.0000,0.0000,0.0000,0.0000,0,1,0,0.3000,0
20056,0.0124,-0.1625,0.0018,0.0036,-0.0011,-0.0080,0.66,0.60,-0.01,0,4.128,0.249,0.071,0.081,0.011,0.019,0.997,0.000,0.000,0.000,0.0050,2,0,0.00,0.00,0.00,0.0000,0.0000,0.0000,0.0000,0.0000,0.0000,0.0000,0.00,0.00,0.00,1.4470,0.2690,1.2350,0.9340,2.7080,0,0.0000,0.0000,0.0000,0.0000,0.0000,0,1,0,0.3000,0
20107,0.0106,-0.1620,0.0014,-0.0050,0.0050,-0.0085,0.66,0.56,-0.00,0,4.138,-0.089,-0.083,-0.005,0.011,0.018,1.000,0.000,0.000,0.000,0.0030,-1,0,0.00,0.00,0.00,0.0000,0.0000,0.0000,0.0000,0.0000,0.0000,0.0000,0.00,0.00,0.00,1.4590,0.2730,1.2330,0.9340,2.7000,0,0.0000,0.0000,0.0000,0.0000,0.0000,0,1,0,0.3000,0
20159,0.0126,-0.1631,0.0030,0.0056,0.0017,-0.0000,0.68,0.53,-0.00,0,4.133,0.020,-0.205,0.392,0.010,0.020,0.998,0.000,0.000,0.000,0.0040,5,-3,0.00,0.00,0.00,0.0000,0.0000,0.0000,0.0000,0.0000,0.0000,0.0000,0.00,0.00,0.00,1.4590,0.2730,1.2330,0.9320,2.7000,0,0.0000,0.0000,0.0000,0.0000,0.0000,0,1,0,0.3000,0
20210,0.0108,-0.1612,0.0030,-0.0040,0.0147,-0.0001,0.69,0.59,-0.01,0,4.138,-0.188,-0.045,-0.059,0.011,0.020,1.000,0.000,0.000,0.000,0.0030,9,-3,0.00,0.00,0.00,0.0000,0.0000,0.0000,0.0000,0.0000,0.0000,0.0000,0.00,0.00,0.00,1.4550,0.2740,1.2340,0.9320,2.6970,0,0.0000,0.0000,0.0000,0.0000,0.0000,0,1,0,0.3000,0
20261,0.0115,-0.1620,0.0034,0.0006,0.0116,0.0017,0.77,0.55,-0.00,0,4.128,0.029,0.191,-0.038,0.008,0.020,0.999,0.000,0.000,0.000,0.0040,-4,0,0.00,0.00,0.00,0.0000,0.0000,0.0000,0.0000,0.0000,0.0000,0.0000,0.00,0.00,0.00,1.4550,0.2740,1.2340,0.9340,2.6970,0,0.0000,0.0000,0.0000,0.0000,0.0000,0,1,0,0.3000,0
20312,0.0127,-0.1629,0.0037,0.0072,0.0075,0.0030,0.74,0.51,0.00,0,4.138,-0.134,0.378,0.166,0.010,0.020,1.001,0.000,0.000,0.000,0.0040,1,0,0.00,0.00,0.00,0.0000,0.0000,0.0000,0.0000,0.0000,0.0000,0.0000,0.00,0.00,0.00,1.4440,0.0000,1.2340,0.9340,2.7000,0,0.0000,0.0000,0.0000,0.0000,0.0000,0,1,0,0.3000,0
20364,0.0122,-0.1618,0.0040,0.0039,0.0150,0.0036,0.76,0.47,0.01,0,4.128,-0.031,0.474,-0.138,0.009,0.020,1.000,0.000,0.000,0.000,0.0030,9,-2,0.00,0.00,0.00,0.0000,0.0000,0.0000,0.0000,0.0000,0.0000,0.0000,0.00,0.00,0.00,1.4440,0.0000,1.2340,0.9340,2.7000,0,0.0000,0.0000,0.0000,0.0000,0.0000,0,1,0,0.3000,0
20415,0.0137,-0.1634,0.0042,0.0102,0.0070,0.0040,0.79,0.46,0.02,0,4.138,-0.261,-0.169,-0.135,0.009,0.016,1.001,0.000,0.000,0.000,0.0020,-4,2,0.00,0.00,0.00,0.0000,0.0000,0.0000,0.0000,0.0000,0.0000,0.0000,0.00,0.00,0.00,1.4470,0.0000,1.2330,0.9340,2.7000,0,0.0000,0.0000,0.0000,0.0000,0.0000,0,1,0,0.3000,0
20465,0.0135,-0.1628,0.0030,0.0069,0.0104,-0.0022,0.77,0.47,0.01,0,4.133,0.007,0.033,-0.161,0.009,0.019,0.999,0.000,0.000,0.000,0.0050,-5,2,0.00,0.00,0.00,0.0000,0.0000,0.0000,0.0000,0.0000,0.0000,0.0000,0.00,0.00,0.00,1.4470,0.0000,1.2330,0.9310,2.7000,0,0.0000,0.0000,0.0000,0.0000,0.0000,0,1,0,0.3000,0
20517,0.0139,-0.1632,0.0029,0.0079,0.0084,-0.0026,0.79,0.51,0.01,0,4.138,-0.073,0.044,-0.075,0.012,0.018,0.999,0.000,0.000,0.000,0.0060,-5,3,0.00,0.00,0.00,0.0000,0.0000,0.0000,0.0000,0.0000,0.0000,0.0000,0.00,0.00,0.00,1.4520,0.0000,1.2410,0.9310,2.7030,0,0.0000,0.0000,0.0000,0.0000,0.0000,0,1,0,0.3000,0
