time_ms,pos_x,pos_y,pos_z,vel_x,vel_y,vel_z,roll,pitch,yaw,thrust,vbat,gyro_x,gyro_y,gyro_z,acc_x,acc_y,acc_z,rate_roll,rate_pitch,rate_yaw,range_z,flow_dx,flow_dy,mekf_roll,mekf_pitch,mekf_yaw,mekf_x,mekf_y,mekf_z,our_ref_x,our_ref_y,our_ref_z,our_thrust,our_roll_cmd,our_pitch_cmd,our_yaw_rate_cmd,multi_front,multi_back,multi_left,multi_right,multi_up,ai_feat_count,vo_x,vo_y,vo_sigma,pg_x,pg_y,lc_count
0,-0.0517,0.0672,0.0109,-0.0047,0.0550,0.0025,-0.88,-0.11,0.33,0,4.138,-0.028,-0.025,0.015,-0.002,-0.015,1.002,0.000,0.000,0.000,0.0130,8,-10,0.00,0.00,0.00,0.0000,0.0000,0.0000,0.0000,0.0000,0.0000,0.0000,0.00,0.00,0.00,1.2720,0.9520,0.0000,0.9750,2.7060,0,0.0000,0.0000,0.0000,0.0000,0.0000,0
101,-0.0504,0.0618,0.0125,0.0022,0.0162,0.0096,-0.81,-0.11,0.34,0,4.138,0.043,-0.004,-0.154,0.003,-0.012,1.000,0.000,0.000,0.000,0.0140,10,0,0.00,0.00,0.00,0.0000,0.0000,0.0000,0.0000,0.0000,0.0000,0.0000,0.00,0.00,0.00,1.2720,0.9520,0.0000,0.9750,2.7060,0,0.0000,0.0000,0.0000,0.0000,0.0000,0
201,-0.0493,0.0623,0.0138,0.0075,0.0138,0.0136,-0.67,-0.08,0.35,0,4.138,0.001,-0.109,-0.000,0.001,-0.014,1.001,0.000,0.000,0.000,0.0140,-3,-2,0.00,0.00,0.00,0.0000,0.0000,0.0000,0.0000,0.0000,0.0000,0.0000,0.00,0.00,0.00,1.2720,0.9560,2.0680,0.9730,2.7090,0,0.0000,0.0000,0.0000,0.0000,0.0000,0
303,-0.0495,0.0601,0.0146,0.0057,-0.0003,0.0140,-0.76,-0.04,0.34,0,4.138,0.099,0.013,0.098,0.000,-0.012,1.000,0.000,0.000,0.000,0.0130,-1,1,0.00,0.00,0.00,0.0000,0.0000,0.0000,0.0000,0.0000,0.0000,0.0000,0.00,0.00,0.00,1.2660,0.9560,2.0680,0.9730,2.7090,0,0.0000,0.0000,0.0000,0.0000,0.0000,0
403,-0.0490,0.0588,0.0140,0.0075,-0.0089,0.0084,-0.72,-0.05,0.34,0,4.138,-0.362,0.026,0.334,-0.001,-0.014,1.000,0.000,0.000,0.000,0.0130,-1,-7,0.00,0.00,0.00,0.0000,0.0000,0.0000,0.0000,0.0000,0.0000,0.0000,0.00,0.00,0.00,1.2660,0.9480,1.9520,0.9760,2.7080,0,0.0000,0.0000,0.0000,0.0000,0.0000,0
505,-0.0502,0.0620,0.0140,0.0007,0.0073,0.0066,-0.81,-0.02,0.34,0,4.133,0.084,-0.059,0.199,0.001,-0.017,1.000,0.000,0.000,0.000,0.0080,5,7,0.00,0.00,0.00,0.0000,0.0000,0.0000,0.0000,0.0000,0.0000,0.0000,0.00,0.00,0.00,1.2750,0.9480,1.9520,0.9760,2.7080,0,0.0000,0.0000,0.0000,0.0000,0.0000,0
606,-0.0498,0.0624,0.0129,0.0031,0.0059,0.0004,-0.67,0.02,0.35,0,4.138,-0.105,-0.049,0.278,0.003,-0.015,1.000,0.000,0.000,0.000,0.0080,13,-10,0.00,0.00,0.00,0.0000,0.0000,0.0000,0.0000,0.0000,0.0000,0.0000,0.00,0.00,0.00,1.2750,0.9510,2.0430,0.9730,2.7060,0,0.0000,0.0000,0.0000,0.0000,0.0000,0
707,-0.0512,0.0615,0.0105,-0.0043,-0.0011,-0.0102,-0.54,-0.05,0.35,0,4.138,0.182,-0.128,0.089,0.002,-0.014,0.998,0.000,0.000,0.000,0.0130,0,7,0.00,0.00,0.00,0.0000,0.0000,0.0000,0.0000,0.0000,0.0000,0.0000,0.00,0.00,0.00,1.2710,0.9510,2.0430,0.9730,2.7060,0,0.0000,0.0000,0.0000,0.0000,0.0000,0
809,-0.0491,0.0636,0.0115,0.0068,0.0108,-0.0035,-0.75,0.02,0.34,0,4.138,0.045,0.217,0.106,-0.000,-0.015,1.000,0.000,0.000,0.000,0.0130,-8,-2,0.00,0.00,0.00,0.0000,0.0000,0.0000,0.0000,0.0000,0.0000,0.0000,0.00,0.00,0.00,1.2710,0.9520,2.0460,0.9790,2.7040,0,0.0000,0.0000,0.0000,0.0000,0.0000,0
910,-0.0501,0.0513,0.0120,0.0015,-0.0532,-0.0006,0.03,0.02,0.37,0,4.138,0.477,-0.004,0.002,-0.000,-0.015,1.001,0.000,0.000,0.000,0.0130,4,0,0.00,0.00,0.00,0.0000,0.0000,0.0000,0.0000,0.0000,0.0000,0.0000,0.00,0.00,0.00,1.2730,0.9520,2.0460,0.9790,2.7040,0,0.0000,0.0000,0.0000,0.0000,0.0000,0
1011,-0.0502,0.0378,0.0112,0.0007,-0.1115,-0.0049,0.22,-0.03,0.36,0,4.138,-0.047,0.023,-0.042,-0.001,-0.014,0.999,0.000,0.000,0.000,0.0130,10,-2,0.00,0.00,0.00,0.0000,0.0000,0.0000,0.0000,0.0000,0.0000,0.0000,0.00,0.00,0.00,1.2730,0.9500,2.0250,0.9800,2.7120,0,0.0000,0.0000,0.0000,0.0000,0.0000,0
1112,-0.0498,0.0403,0.0135,0.0025,-0.0741,0.0081,-0.43,-0.03,0.33,0,4.133,0.147,0.200,0.222,-0.000,-0.014,0.999,0.000,0.000,0.000,0.0120,-2,-4,0.00,0.00,0.00,0.0000,0.0000,0.0000,0.0000,0.0000,0.0000,0.0000,0.00,0.00,0.00,1.2730,0.9500,2.0250,0.9800,2.7120,0,0.0000,0.0000,0.0000,0.0000,0.0000,0
1213,-0.0490,0.0450,0.0152,0.0061,-0.0359,0.0142,-0.59,-0.06,0.32,0,4.138,-0.134,-0.193,0.028,-0.001,-0.015,1.001,0.000,0.000,0.000,0.0120,-8,0,0.00,0.00,0.00,0.0000,0.0000,0.0000,0.0000,0.0000,0.0000,0.0000,0.00,0.00,0.00,1.2730,0.9560,0.0000,0.9770,2.7030,0,0.0000,0.0000,0.0000,0.0000,0.0000,0
1314,-0.0490,0.0448,0.0143,0.0047,-0.0302,0.0080,-0.70,-0.01,0.33,0,4.138,-0.106,-0.134,0.121,-0.001,-0.014,1.003,0.000,0.000,0.000,0.0100,-1,1,0.00,0.00,0.00,0.0000,0.0000,0.0000,0.0000,0.0000,0.0000,0.0000,0.00,0.00,0.00,1.2780,0.9560,0.0000,0.9770,2.7030,0,0.0000,0.0000,0.0000,0.0000,0.0000,0
1415,-0.0488,0.0464,0.0140,0.0041,-0.0202,0.0053,-0.72,0.05,0.34,0,4.138,-0.083,0.078,-0.000,0.000,-0.015,1.000,0.000,0.000,0.000,0.0100,37,-3,0.00,0.00,0.00,0.0000,0.0000,0.0000,0.0000,0.0000,0.0000,0.0000,0.00,0.00,0.00,1.2780,0.9550,2.0450,0.9760,2.7020,0,0.0000,0.0000,0.0000,0.0000,0.0000,0
1517,-0.0492,0.0470,0.0123,0.0015,-0.0125,-0.0034,-0.29,-0.03,0.33,0,4.133,0.152,0.023,0.283,0.000,-0.016,0.998,0.000,0.000,0.000,0.0090,-4,-1,0.00,0.00,0.00,0.0000,0.0000,0.0000,0.0000,0.0000,0.0000,0.0000,0.00,0.00,0.00,1.2690,0.9550,2.0450,0.9760,2.7020,0,0.0000,0.0000,0.0000,0.0000,0.0000,0
1568,-0.0476,0.0325,0.0111,0.0090,-0.0786,-0.0091,-0.33,-0.04,0.33,0,4.138,-0.214,-0.115,0.327,0.001,-0.016,1.001,0.000,0.000,0.000,0.0090,4,0,0.00,0.00,0.00,0.0000,0.0000,0.0000,0.0000,0.0000,0.0000,0.0000,0.00,0.00,0.00,1.2690,0.9520,0.0000,0.9750,2.7010,0,0.0000,0.0000,0.0000,0.0000,0.0000,0
1619,-0.0479,0.0343,0.0105,0.0056,-0.0556,-0.0097,-0.52,-0.01,0.34,0,4.133,0.071,-0.176,0.246,0.001,-0.015,0.999,0.000,0.000,0.000,0.0120,-1,0,0.00,0.00,0.00,0.0000,0.0000,0.0000,0.0000,0.0000,0.0000,0.0000,0.00,0.00,0.00,1.2720,0.9520,0.0000,0.9750,2.7010,0,0.0000,0.0000,0.0000,0.0000,0.0000,0
1670,-0.0479,0.0343,0.0105,0.0046,-0.0442,-0.0073,-0.67,0.01,0.34,0,4.138,0.025,-0.360,-0.168,0.001,-0.015,0.998,0.000,0.000,0.000,0.0120,-6,0,0.00,0.00,0.00,0.0000,0.0000,0.0000,0.0000,0.0000,0.0000,0.0000,0.00,0.00,0.00,1.2720,0.9580,2.0790,0.9780,2.7050,0,0.0000,0.0000,0.0000,0.0000,0.0000,0
1720,-0.0479,0.0334,0.0110,0.0041,-0.0399,-0.0036,-0.52,0.06,0.35,0,4.138,-0.039,-0.173,-0.212,0.003,-0.014,1.000,0.000,0.000,0.000,0.0120,30,-4,0.00,0.00,0.00,0.0000,0.0000,0.0000,0.0000,0.0000,0.0000,0.0000,0.00,0.00,0.00,1.2700,0.9580,2.0790,0.9780,2.7050,0,0.0000,0.0000,0.0000,0.0000,0.0000,0
1772,-0.0493,0.0317,0.0111,-0.0040,-0.0387,-0.0026,-0.53,0.03,0.34,0,4.138,-0.003,-0.081,-0.161,0.001,-0.014,0.998,0.000,0.000,0.000,0.0120,0,0,0.00,0.00,0.00,0.0000,0.0000,0.0000,0.0000,0.0000,0.0000,0.0000,0.00,0.00,0.00,1.2700,0.9510,0.0000,0.9760,2.7030,0,0.0000,0.0000,0.0000,0.0000,0.0000,0
1823,-0.0485,0.0258,0.0115,0.0005,-0.0577,0.0001,-0.49,0.08,0.34,0,4.133,-0.209,-0.157,0.143,0.003,-0.013,0.999,0.000,0.000,0.000,0.0140,-2,0,0.00,0.00,0.00,0.0000,0.0000,0.0000,0.0000,0.0000,0.0000,0.0000,0.00,0.00,0.00,1.2700,0.9510,0.0000,0.9760,2.7030,0,0.0000,0.0000,0.0000,0.0000,0.0000,0
1873,-0.0482,0.0245,0.0114,0.0018,-0.0503,-0.0004,-0.74,0.01,0.34,0,4.138,-0.304,-0.272,-0.196,0.001,-0.015,1.000,0.000,0.000,0.000,0.0140,7,0,0.00,0.00,0.00,0.0000,0.0000,0.0000,0.0000,0.0000,0.0000,0.0000,0.00,0.00,0.00,1.2700,0.9580,0.0000,0.9770,2.7070,0,0.0000,0.0000,0.0000,0.0000,0.0000,0
1925,-0.0485,0.0258,0.0128,-0.0000,-0.0326,0.0057,-0.70,0.01,0.34,0,4.133,0.029,-0.040,-0.129,-0.001,-0.015,1.000,0.000,0.000,0.000,0.0090,-2,1,0.00,0.00,0.00,0.0000,0.0000,0.0000,0.0000,0.0000,0.0000,0.0000,0.00,0.00,0.00,1.2710,0.9580,0.0000,0.9770,2.7070,0,0.0000,0.0000,0.0000,0.0000,0.0000,0
1976,-0.0482,0.0239,0.0127,0.0004,-0.0336,0.0038,-0.77,0.07,0.35,0,4.138,0.296,0.109,0.079,0.001,-0.016,1.000,0.000,0.000,0.000,0.0090,32,-4,0.00,0.00,0.00,0.0000,0.0000,0.0000,0.0000,0.0000,0.0000,0.0000,0.00,0.00,0.00,1.2710,0.9510,1.9990,0.9760,2.7040,0,0.0000,0.0000,0.0000,0.0000,0.0000,0
2027,-0.0482,0.0239,0.0111,-0.0003,-0.0262,-0.0041,-0.50,0.01,0.34,0,4.138,0.076,-0.017,0.204,0.000,-0.013,0.997,0.000,0.000,0.000,0.0130,4,0,0.00,0.00,0.00,0.0000,0.0000,0.0000,0.0000,0.0000,0.0000,0.0000,0.00,0.00,0.00,1.2690,0.9510,1.9990,0.9760,2.7040,0,0.0000,0.0000,0.0000,0.0000,0.0000,0
2078,-0.0482,0.0202,0.0117,-0.0008,-0.0361,-0.0004,-0.97,0.06,0.35,0,4.138,0.183,-0.250,-0.084,0.003,-0.013,1.001,0.000,0.000,0.000,0.0130,-35,-2,0.00,0.00,0.00,0.0000,0.0000,0.0000,0.0000,0.0000,0.0000,0.0000,0.00,0.00,0.00,1.2690,0.9510,0.0000,0.9750,2.6970,0,0.0000,0.0000,0.0000,0.0000,0.0000,0
2129,-0.0495,0.0219,0.0125,-0.0071,-0.0206,0.0035,-1.31,0.14,0.36,0,4.133,0.107,-0.205,-0.050,0.003,-0.016,0.999,0.000,0.000,0.000,0.0130,-3,0,0.00,0.00,0.00,0.0000,0.0000,0.0000,0.0000,0.0000,0.0000,0.0000,0.00,0.00,0.00,1.2680,0.9510,0.0000,0.9750,2.6970,0,0.0000,0.0000,0.0000,0.0000,0.0000,0
2180,-0.0508,0.0401,0.0124,-0.0128,0.0736,0.0026,-1.46,0.12,0.37,0,4.138,0.120,0.272,-0.098,-0.001,-0.014,0.999,0.000,0.000,0.000,0.0130,4,-2,0.00,0.00,0.00,0.0000,0.0000,0.0000,0.0000,0.0000,0.0000,0.0000,0.00,0.00,0.00,1.2680,0.9570,0.0000,0.9750,2.7010,0,0.0000,0.0000,0.0000,0.0000,0.0000,0
2231,-0.0517,0.0416,0.0131,-0.0154,0.0685,0.0051,-1.10,0.09,0.36,0,4.133,0.199,-0.042,0.047,-0.000,-0.014,0.998,0.000,0.000,0.000,0.0110,1,3,0.00,0.00,0.00,0.0000,0.0000,0.0000,0.0000,0.0000,0.0000,0.0000,0.00,0.00,0.00,1.2750,0.9570,0.0000,0.9750,2.7010,0,0.0000,0.0000,0.0000,0.0000,0.0000,0
2282,-0.0494,0.0315,0.0135,-0.0015,0.0060,0.0055,-1.00,-0.01,0.38,0,4.138,0.193,-0.108,-0.356,0.002,-0.015,0.999,0.000,0.000,0.000,0.0110,-1,-2,0.00,0.00,0.00,0.0000,0.0000,0.0000,0.0000,0.0000,0.0000,0.0000,0.00,0.00,0.00,1.2750,0.9520,2.0230,0.9810,2.7070,0,0.0000,0.0000,0.0000,0.0000,0.0000,0
2333,-0.0492,0.0317,0.0126,-0.0003,0.0063,-0.0000,-0.95,0.17,0.32,0,4.138,0.045,-0.116,0.182,0.002,-0.015,1.000,0.000,0.000,0.000,0.0100,0,-1,0.00,0.00,0.00,0.0000,0.0000,0.0000,0.0000,0.0000,0.0000,0.0000,0.00,0.00,0.00,1.2620,0.9520,2.0230,0.9810,2.7070,0,0.0000,0.0000,0.0000,0.0000,0.0000,0
2384,-0.0526,0.0301,0.0129,-0.0174,-0.0033,0.0012,-0.84,0.16,0.32,0,4.138,0.233,-0.069,-0.193,0.000,-0.015,0.999,0.000,0.000,0.000,0.0100,10,1,0.00,0.00,0.00,0.0000,0.0000,0.0000,0.0000,0.0000,0.0000,0.0000,0.00,0.00,0.00,1.2620,0.9550,0.0000,0.9790,2.7110,0,0.0000,0.0000,0.0000,0.0000,0.0000,0
2435,-0.0526,0.0294,0.0116,-0.0141,-0.0048,-0.0051,-0.91,0.14,0.33,0,4.138,-0.109,-0.114,0.117,0.001,-0.013,1.000,0.000,0.000,0.000,0.0120,4,0,0.00,0.00,0.00,0.0000,0.0000,0.0000,0.0000,0.0000,0.0000,0.0000,0.00,0.00,0.00,1.2720,0.9550,0.0000,0.9790,2.7110,0,0.0000,0.0000,0.0000,0.0000,0.0000,0
2486,-0.0529,0.0301,0.0127,-0.0124,0.0004,0.0013,-0.60,0.12,0.31,0,4.138,-0.037,-0.077,0.304,-0.002,-0.015,0.999,0.000,0.000,0.000,0.0120,-13,-1,0.00,0.00,0.00,0.0000,0.0000,0.0000,0.0000,0.0000,0.0000,0.0000,0.00,0.00,0.00,1.2720,0.9520,1.9850,0.9800,2.7110,0,0.0000,0.0000,0.0000,0.0000,0.0000,0
2537,-0.0540,0.0204,0.0122,-0.0157,-0.0484,-0.0021,-0.60,0.12,0.32,0,4.133,-0.034,-0.003,0.005,0.001,-0.014,1.000,0.000,0.000,0.000,0.0120,0,0,0.00,0.00,0.00,0.0000,0.0000,0.0000,0.0000,0.0000,0.0000,0.0000,0.00,0.00,0.00,1.2670,0.9520,1.9850,0.9800,2.7110,0,0.0000,0.0000,0.0000,0.0000,0.0000,0
2588,-0.0542,0.0205,0.0133,-0.0142,-0.0399,0.0030,0.00,0.10,0.28,0,4.138,-0.114,0.134,0.171,0.001,-0.014,0.997,0.000,0.000,0.000,0.0120,0,-2,0.00,0.00,0.00,0.0000,0.0000,0.0000,0.0000,0.0000,0.0000,0.0000,0.00,0.00,0.00,1.2670,0.9510,1.9800,0.9790,2.7060,0,0.0000,0.0000,0.0000,0.0000,0.0000,0
2639,-0.0539,0.0045,0.0122,-0.0099,-0.1107,-0.0034,-0.20,0.04,0.28,0,4.138,-0.129,0.087,0.186,0.002,-0.014,1.000,0.000,0.000,0.000,0.0130,0,4,0.00,0.00,0.00,0.0000,0.0000,0.0000,0.0000,0.0000,0.0000,0.0000,0.00,0.00,0.00,1.2740,0.9510,1.9800,0.9790,2.7060,0,0.0000,0.0000,0.0000,0.0000,0.0000,0
2690,-0.0537,0.0054,0.0128,-0.0063,-0.0838,0.0002,-0.41,0.04,0.29,0,4.138,-0.102,0.050,0.116,0.000,-0.013,0.999,0.000,0.000,0.000,0.0130,-3,-2,0.00,0.00,0.00,0.0000,0.0000,0.0000,0.0000,0.0000,0.0000,0.0000,0.00,0.00,0.00,1.2740,0.9550,0.0000,0.9750,2.7010,0,0.0000,0.0000,0.0000,0.0000,0.0000,0
2741,-0.0541,0.0052,0.0132,-0.0072,-0.0685,0.0024,-0.42,0.06,0.29,0,4.138,-0.038,-0.030,0.273,0.002,-0.014,1.000,0.000,0.000,0.000,0.0140,2,2,0.00,0.00,0.00,0.0000,0.0000,0.0000,0.0000,0.0000,0.0000,0.0000,0.00,0.00,0.00,1.2700,0.9550,0.0000,0.9750,2.7010,0,0.0000,0.0000,0.0000,0.0000,0.0000,0
2792,-0.0531,0.0054,0.0124,-0.0006,-0.0529,-0.0016,-0.59,0.02,0.29,0,4.138,-0.026,0.051,0.013,0.001,-0.015,0.999,0.000,0.000,0.000,0.0140,-7,-4,0.00,0.00,0.00,0.0000,0.0000,0.0000,0.0000,0.0000,0.0000,0.0000,0.00,0.00,0.00,1.2700,0.9520,0.0000,0.9770,2.7030,0,0.0000,0.0000,0.0000,0.0000,0.0000,0
2843,-0.0537,0.0051,0.0132,-0.0042,-0.0427,0.0023,-0.67,0.01,0.29,0,4.133,-0.245,-0.129,0.361,-0.000,-0.015,1.000,0.000,0.000,0.000,0.0110,-8,6,0.00,0.00,0.00,0.0000,0.0000,0.0000,0.0000,0.0000,0.0000,0.0000,0.00,0.00,0.00,1.2710,0.9520,0.0000,0.9770,2.7030,0,0.0000,0.0000,0.0000,0.0000,0.0000,0
2894,-0.0533,0.0051,0.0123,-0.0011,-0.0347,-0.0029,-0.65,0.01,0.30,0,4.138,-0.144,0.127,-0.217,0.001,-0.013,1.000,0.000,0.000,0.000,0.0110,3,-4,0.00,0.00,0.00,0.0000,0.0000,0.0000,0.0000,0.0000,0.0000,0.0000,0.00,0.00,0.00,1.2710,0.9530,0.0000,0.9800,2.6970,0,0.0000,0.0000,0.0000,0.0000,0.0000,0
2944,-0.0533,0.0064,0.0118,-0.0006,-0.0201,-0.0044,-0.87,0.01,0.29,0,4.138,0.178,-0.127,-0.223,0.001,-0.015,0.997,0.000,0.000,0.000,0.0160,2,0,0.00,0.00,0.00,0.0000,0.0000,0.0000,0.0000,0.0000,0.0000,0.0000,0.00,0.00,0.00,1.2720,0.9530,0.0000,0.9800,2.6970,0,0.0000,0.0000,0.0000,0.0000,0.0000,0
2996,-0.0529,0.0041,0.0104,0.0021,-0.0291,-0.0101,-0.57,0.04,0.30,0,4.138,-0.098,-0.127,0.228,0.001,-0.014,0.999,0.000,0.000,0.000,0.0160,-5,-3,0.00,0.00,0.00,0.0000,0.0000,0.0000,0.0000,0.0000,0.0000,0.0000,0.00,0.00,0.00,1.2720,0.9510,0.0000,0.9770,2.7080,0,0.0000,0.0000,0.0000,0.0000,0.0000,0
3047,-0.0535,-0.0038,0.0124,-0.0011,-0.0607,-0.0001,-0.57,0.02,0.29,0,4.133,0.136,-0.113,0.483,0.001,-0.016,1.001,0.000,0.000,0.000,0.0100,0,0,0.00,0.00,0.00,0.0000,0.0000,0.0000,0.0000,0.0000,0.0000,0.0000,0.00,0.00,0.00,1.2720,0.9510,0.0000,0.9770,2.7080,0,0.0000,0.0000,0.0000,0.0000,0.0000,0
3098,-0.0537,-0.0017,0.0115,-0.0025,-0.0371,-0.0033,-0.72,0.06,0.28,0,4.138,-0.062,-0.031,0.141,0.002,-0.014,0.998,0.000,0.000,0.000,0.0100,-1,7,0.00,0.00,0.00,0.0000,0.0000,0.0000,0.0000,0.0000,0.0000,0.0000,0.00,0.00,0.00,1.2720,0.9490,2.0600,0.9760,2.7040,0,0.0000,0.0000,0.0000,0.0000,0.0000,0
3149,-0.0523,-0.0001,0.0108,0.0053,-0.0201,-0.0057,-0.84,0.01,0.28,0,4.133,0.082,0.207,-0.197,0.000,-0.013,0.998,0.000,0.000,0.000,0.0110,4,-1,0.00,0.00,0.00,0.0000,0.0000,0.0000,0.0000,0.0000,0.0000,0.0000,0.00,0.00,0.00,1.2700,0.9490,2.0600,0.9760,2.7040,0,0.0000,0.0000,0.0000,0.0000,0.0000,0
3199,-0.0533,0.0011,0.0107,0.0001,-0.0083,-0.0046,-0.91,0.03,0.28,0,4.138,-0.038,-0.079,0.041,-0.001,-0.015,0.999,0.000,0.000,0.000,0.0110,7,-3,0.00,0.00,0.00,0.0000,0.0000,0.0000,0.0000,0.0000,0.0000,0.0000,0.00,0.00,0.00,1.2700,0.9510,2.0730,0.9790,2.7080,0,0.0000,0.0000,0.0000,0.0000,0.0000,0
3251,-0.0533,-0.0011,0.0108,-0.0006,-0.0164,-0.0032,-0.56,0.04,0.29,0,4.138,0.140,0.169,-0.039,-0.001,-0.015,0.999,0.000,0.000,0.000,0.0150,-3,0,0.00,0.00,0.00,0.0000,0.0000,0.0000,0.0000,0.0000,0.0000,0.0000,0.00,0.00,0.00,1.2700,0.9510,2.0730,0.9790,2.7080,0,0.0000,0.0000,0.0000,0.0000,0.0000,0
3302,-0.0541,-0.0073,0.0119,-0.0044,-0.0416,0.0020,-0.73,0.14,0.28,0,4.138,0.208,0.097,0.148,0.001,-0.013,1.000,0.000,0.000,0.000,0.0150,-4,1,0.00,0.00,0.00,0.0000,0.0000,0.0000,0.0000,0.0000,0.0000,0.0000,0.00,0.00,0.00,1.2700,0.9570,2.0780,0.9740,2.7000,0,0.0000,0.0000,0.0000,0.0000,0.0000,0
3353,-0.0524,-0.0088,0.0136,0.0054,-0.0400,0.0091,-0.76,-0.01,0.28,0,4.133,0.103,-0.001,-0.095,0.000,-0.013,0.999,0.000,0.000,0.000,0.0090,3,0,0.00,0.00,0.00,0.0000,0.0000,0.0000,0.0000,0.0000,0.0000,0.0000,0.00,0.00,0.00,1.2640,0.9570,2.0780,0.9740,2.7000,0,0.0000,0.0000,0.0000,0.0000,0.0000,0
3404,-0.0518,-0.0092,0.0137,0.0071,-0.0331,0.0081,-0.80,-0.00,0.28,0,4.138,0.056,-0.215,0.042,0.002,-0.013,1.000,0.000,0.000,0.000,0.0090,-1,-6,0.00,0.00,0.00,0.0000,0.0000,0.0000,0.0000,0.0000,0.0000,0.0000,0.00,0.00,0.00,1.2640,0.9570,0.0000,0.9770,2.7110,0,0.0000,0.0000,0.0000,0.0000,0.0000,0
3456,-0.0520,-0.0098,0.0118,0.0051,-0.0288,-0.0024,-0.79,0.04,0.28,0,4.133,0.006,0.124,0.095,-0.002,-0.013,0.997,0.000,0.000,0.000,0.0130,3,1,0.00,0.00,0.00,0.0000,0.0000,0.0000,0.0000,0.0000,0.0000,0.0000,0.00,0.00,0.00,1.2670,0.9570,0.0000,0.9770,2.7110,0,0.0000,0.0000,0.0000,0.0000,0.0000,0
3508,-0.0511,-0.0084,0.0124,0.0077,-0.0138,0.0002,-0.70,0.05,0.28,0,4.138,0.274,0.165,0.171,0.000,-0.015,0.998,0.000,0.000,0.000,0.0130,10,-4,0.00,0.00,0.00,0.0000,0.0000,0.0000,0.0000,0.0000,0.0000,0.0000,0.00,0.00,0.00,1.2670,0.9530,2.0510,0.9790,2.7050,0,0.0000,0.0000,0.0000,0.0000,0.0000,0
3559,-0.0530,-0.0134,0.0127,-0.0034,-0.0347,0.0008,-0.74,0.08,0.28,0,4.138,0.004,-0.011,0.061,-0.000,-0.016,1.001,0.000,0.000,0.000,0.0120,-8,-5,0.00,0.00,0.00,0.0000,0.0000,0.0000,0.0000,0.0000,0.0000,0.0000,0.00,0.00,0.00,1.2670,0.9530,2.0510,0.9790,2.7050,0,0.0000,0.0000,0.0000,0.0000,0.0000,0
3610,-0.0525,-0.0189,0.0118,-0.0001,-0.0552,-0.0035,-0.65,0.02,0.28,0,4.138,0.081,-0.074,-0.127,-0.001,-0.014,1.000,0.000,0.000,0.000,0.0120,-6,-1,0.00,0.00,0.00,0.0000,0.0000,0.0000,0.0000,0.0000,0.0000,0.0000,0.00,0.00,0.00,1.2670,0.9550,1.9870,0.9770,2.7010,0,0.0000,0.0000,0.0000,0.0000,0.0000,0
3661,-0.0529,-0.0188,0.0119,-0.0028,-0.0429,-0.0020,-0.76,0.02,0.27,0,4.133,-0.058,-0.199,-0.234,-0.000,-0.017,0.999,0.000,0.000,0.000,0.0090,-6,-1,0.00,0.00,0.00,0.0000,0.0000,0.0000,0.0000,0.0000,0.0000,0.0000,0.00,0.00,0.00,1.2740,0.9550,1.9870,0.9770,2.7010,0,0.0000,0.0000,0.0000,0.0000,0.0000,0
3712,-0.0529,-0.0188,0.0120,-0.0032,-0.0344,-0.0018,-0.89,0.02,0.27,0,4.138,0.065,0.008,-0.034,-0.000,-0.015,0.999,0.000,0.000,0.000,0.0090,2,1,0.00,0.00,0.00,0.0000,0.0000,0.0000,0.0000,0.0000,0.0000,0.0000,0.00,0.00,0.00,1.2740,0.9530,0.0000,0.9770,2.7040,0,0.0000,0.0000,0.0000,0.0000,0.0000,0
3763,-0.0523,-0.0186,0.0106,0.0004,-0.0267,-0.0074,-0.81,0.00,0.28,0,4.133,-0.187,-0.034,0.014,0.000,-0.015,1.000,0.000,0.000,0.000,0.0110,-7,-1,0.00,0.00,0.00,0.0000,0.0000,0.0000,0.0000,0.0000,0.0000,0.0000,0.00,0.00,0.00,1.2690,0.9530,0.0000,0.9770,2.7040,0,0.0000,0.0000,0.0000,0.0000,0.0000,0
3814,-0.0529,-0.0189,0.0105,-0.0035,-0.0218,-0.0061,-0.96,0.02,0.28,0,4.138,-0.147,-0.128,0.409,-0.001,-0.014,0.998,0.000,0.000,0.000,0.0110,-5,-4,0.00,0.00,0.00,0.0000,0.0000,0.0000,0.0000,0.0000,0.0000,0.0000,0.00,0.00,0.00,1.2690,0.9520,0.0000,0.9770,2.7030,0,0.0000,0.0000,0.0000,0.0000,0.0000,0
3865,0.0000,0.0000,0.3554,-0.0000,0.0038,-0.0001,0.29,-0.04,0.00,0,4.133,-0.084,0.204,0.399,-0.001,-0.012,1.002,0.000,0.000,0.000,0.0110,0,3,0.00,0.00,0.00,0.0000,0.0000,0.0000,0.0000,0.0000,0.0000,0.0000,0.00,0.00,0.00,1.2700,0.9520,0.0000,0.9770,2.7030,0,0.0000,0.0000,0.0000,0.0000,0.0000,0
3916,-0.0001,0.0003,0.0123,-0.0019,0.0041,0.0003,-0.34,0.07,0.00,0,4.138,0.008,-0.041,0.010,0.001,-0.017,0.999,0.000,0.000,0.000,0.0110,1,-6,0.00,0.00,0.00,0.0000,0.0000,0.0000,0.0000,0.0000,0.0000,0.0000,0.00,0.00,0.00,1.2700,0.9490,0.0000,0.9770,2.7010,0,0.0000,0.0000,0.0000,0.0000,0.0000,0
3967,-0.0003,0.0002,0.0116,-0.0040,-0.0021,-0.0006,-0.58,0.03,0.01,0,4.133,-0.009,0.072,0.180,0.001,-0.014,0.999,0.000,0.000,0.000,0.0110,-3,0,0.00,0.00,0.00,0.0000,0.0000,0.0000,0.0000,0.0000,0.0000,0.0000,0.00,0.00,0.00,1.2720,0.9490,0.0000,0.9770,2.7010,0,0.0000,0.0000,0.0000,0.0000,0.0000,0
4018,-0.0002,-0.0001,0.0109,-0.0013,-0.0082,-0.0025,-0.41,0.04,0.01,0,4.144,0.056,0.032,-0.105,0.001,-0.013,0.999,0.000,0.000,0.000,0.0110,-24,-3,0.00,0.00,0.00,0.0000,0.0000,0.0000,0.0000,0.0000,0.0000,0.0000,0.00,0.00,0.00,1.2720,0.9520,0.0000,0.9760,2.7070,0,0.0000,0.0000,0.0000,0.0000,0.0000,0
4069,-0.0002,-0.0002,0.0109,-0.0010,-0.0090,-0.0019,-1.47,-0.10,0.01,0,4.133,-0.021,-0.171,0.207,0.001,-0.015,0.999,0.000,0.000,0.000,0.0080,-1,0,0.00,0.00,0.00,0.0000,0.0000,0.0000,0.0000,0.0000,0.0000,0.0000,0.00,0.00,0.00,1.2720,0.9520,0.0000,0.9760,2.7070,0,0.0000,0.0000,0.0000,0.0000,0.0000,0
4121,0.0027,0.0029,0.0108,0.0248,0.0146,-0.0025,-0.60,-0.43,0.01,0,4.138,-0.087,-0.207,0.014,0.002,-0.015,0.999,0.000,0.000,0.000,0.0080,0,-4,0.00,0.00,0.00,0.0000,0.0000,0.0000,0.0000,0.0000,0.0000,0.0000,0.00,0.00,0.00,1.2720,0.9580,0.0000,0.9770,2.7090,0,0.0000,0.0000,0.0000,0.0000,0.0000,0
4172,0.0026,0.0027,0.0093,0.0172,0.0077,-0.0088,-1.10,-0.34,0.01,0,4.133,-0.140,-0.027,0.115,0.001,-0.015,0.997,0.000,0.000,0.000,0.0120,3,-5,0.00,0.00,0.00,0.0000,0.0000,0.0000,0.0000,0.0000,0.0000,0.0000,0.00,0.00,0.00,1.2640,0.9580,0.0000,0.9770,2.7090,0,0.0000,0.0000,0.0000,0.0000,0.0000,0
4223,0.0021,0.0036,0.0094,0.0087,0.0107,-0.0062,-0.04,-0.31,0.02,0,4.138,-0.064,0.148,0.043,-0.000,-0.015,1.000,0.000,0.000,0.000,0.0120,6,5,0.00,0.00,0.00,0.0000,0.0000,0.0000,0.0000,0.0000,0.0000,0.0000,0.00,0.00,0.00,1.2640,0.9570,1.9970,0.9710,2.7020,0,0.0000,0.0000,0.0000,0.0000,0.0000,0
4274,0.0032,-0.0060,0.0104,0.0133,-0.0554,-0.0014,0.55,-0.04,0.02,0,4.133,-0.005,-0.133,0.267,0.001,-0.015,0.999,0.000,0.000,0.000,0.0110,-5,2,0.00,0.00,0.00,0.0000,0.0000,0.0000,0.0000,0.0000,0.0000,0.0000,0.00,0.00,0.00,1.2740,0.9570,1.9970,0.9710,2.7020,0,0.0000,0.0000,0.0000,0.0000,0.0000,0
4325,0.0034,-0.0151,0.0107,0.0120,-0.1015,-0.0009,0.68,-0.01,0.02,0,4.144,0.006,-0.469,0.174,0.001,-0.014,0.999,0.000,0.000,0.000,0.0110,27,-7,0.00,0.00,0.00,0.0000,0.0000,0.0000,0.0000,0.0000,0.0000,0.0000,0.00,0.00,0.00,1.2740,0.9510,2.0770,0.9740,2.7090,0,0.0000,0.0000,0.0000,0.0000,0.0000,0
4376,0.0019,-0.0152,0.0114,0.0002,-0.0825,0.0032,0.90,-0.01,0.03,0,4.133,0.212,-0.255,-0.238,0.003,-0.015,1.002,0.000,0.000,0.000,0.0110,0,1,0.00,0.00,0.00,0.0000,0.0000,0.0000,0.0000,0.0000,0.0000,0.0000,0.00,0.00,0.00,1.2750,0.9510,2.0770,0.9740,2.7090,0,0.0000,0.0000,0.0000,0.0000,0.0000,0
4427,0.0031,-0.0248,0.0097,0.0061,-0.1208,-0.0053,0.48,0.01,0.03,0,4.138,-0.029,-0.002,-0.259,0.003,-0.012,0.998,0.000,0.000,0.000,0.0110,-5,-1,0.00,0.00,0.00,0.0000,0.0000,0.0000,0.0000,0.0000,0.0000,0.0000,0.00,0.00,0.00,1.2750,0.9510,0.0000,0.9800,2.7070,0,0.0000,0.0000,0.0000,0.0000,0.0000,0
4478,0.0028,-0.0256,0.0107,0.0031,-0.1023,0.0013,0.13,0.05,0.03,0,4.133,0.027,-0.018,0.204,0.000,-0.016,0.996,0.000,0.000,0.000,0.0140,-7,0,0.00,0.00,0.00,0.0000,0.0000,0.0000,0.0000,0.0000,0.0000,0.0000,0.00,0.00,0.00,1.2750,0.9510,0.0000,0.9800,2.7070,0,0.0000,0.0000,0.0000,0.0000,0.0000,0
4529,0.0037,-0.0307,0.0100,0.0068,-0.1115,-0.0031,0.12,0.02,0.04,0,4.144,0.005,0.295,-0.056,0.002,-0.015,0.999,0.000,0.000,0.000,0.0140,-14,-3,0.00,0.00,0.00,0.0000,0.0000,0.0000,0.0000,0.0000,0.0000,0.0000,0.00,0.00,0.00,1.2750,0.9470,1.9450,0.9750,2.7080,0,0.0000,0.0000,0.0000,0.0000,0.0000,0
4580,0.0037,-0.0259,0.0128,0.0050,-0.0629,0.0114,-0.99,-0.02,0.05,0,4.133,-0.091,0.070,0.502,0.001,-0.012,1.002,0.000,0.000,0.000,0.0100,-5,0,0.00,0.00,0.00,0.0000,0.0000,0.0000,0.0000,0.0000,0.0000,0.0000,0.00,0.00,0.00,1.2730,0.9470,1.9450,0.9750,2.7080,0,0.0000,0.0000,0.0000,0.0000,0.0000,0
4630,0.0052,-0.0092,0.0119,0.0118,0.0352,0.0062,-1.36,-0.03,0.05,0,4.144,0.109,0.430,0.243,-0.000,-0.016,1.001,0.000,0.000,0.000,0.0100,-9,3,0.00,0.00,0.00,0.0000,0.0000,0.0000,0.0000,0.0000,0.0000,0.0000,0.00,0.00,0.00,1.2730,0.9560,2.1080,0.9750,2.7020,0,0.0000,0.0000,0.0000,0.0000,0.0000,0
4682,0.0067,-0.0080,0.0114,0.0164,0.0348,0.0028,-0.90,-0.05,0.05,0,4.133,0.052,0.093,0.188,-0.002,-0.014,1.001,0.000,0.000,0.000,0.0130,1,0,0.00,0.00,0.00,0.0000,0.0000,0.0000,0.0000,0.0000,0.0000,0.0000,0.00,0.00,0.00,1.2720,0.9560,2.1080,0.9750,2.7020,0,0.0000,0.0000,0.0000,0.0000,0.0000,0
4734,0.0060,-0.0159,0.0135,0.0097,-0.0099,0.0107,-0.80,-0.01,0.05,0,4.138,-0.341,0.022,-0.026,0.001,-0.013,0.998,0.000,0.000,0.000,0.0130,-4,-2,0.00,0.00,0.00,0.0000,0.0000,0.0000,0.0000,0.0000,0.0000,0.0000,0.00,0.00,0.00,1.2720,0.9510,0.0000,0.9750,2.6960,0,0.0000,0.0000,0.0000,0.0000,0.0000,0
4785,0.0061,-0.0164,0.0138,0.0072,-0.0092,0.0095,-0.97,-0.04,0.06,0,4.133,0.061,0.183,0.115,0.000,-0.015,0.998,0.000,0.000,0.000,0.0120,9,-5,0.00,0.00,0.00,0.0000,0.0000,0.0000,0.0000,0.0000,0.0000,0.0000,0.00,0.00,0.00,1.2710,0.9510,0.0000,0.9750,2.6960,0,0.0000,0.0000,0.0000,0.0000,0.0000,0
4836,0.0058,-0.0097,0.0138,0.0041,0.0257,0.0077,-1.14,-0.02,0.06,0,4.138,-0.020,0.026,0.091,0.000,-0.014,1.000,0.000,0.000,0.000,0.0120,4,0,0.00,0.00,0.00,0.0000,0.0000,0.0000,0.0000,0.0000,0.0000,0.0000,0.00,0.00,0.00,1.2710,0.9510,0.0000,0.9760,2.7060,0,0.0000,0.0000,0.0000,0.0000,0.0000,0
4887,0.0060,-0.0103,0.0134,0.0034,0.0180,0.0039,-0.95,0.02,0.06,0,4.133,-0.292,-0.005,-0.189,0.001,-0.014,1.000,0.000,0.000,0.000,0.0100,8,1,0.00,0.00,0.00,0.0000,0.0000,0.0000,0.0000,0.0000,0.0000,0.0000,0.00,0.00,0.00,1.2730,0.9510,0.0000,0.9760,2.7060,0,0.0000,0.0000,0.0000,0.0000,0.0000,0
4937,0.0068,-0.0104,0.0119,0.0076,0.0153,-0.0042,-0.98,0.01,0.06,0,4.138,-0.062,0.165,0.082,0.002,-0.015,1.000,0.000,0.000,0.000,0.0100,-17,-4,0.00,0.00,0.00,0.0000,0.0000,0.0000,0.0000,0.0000,0.0000,0.0000,0.00,0.00,0.00,1.2730,0.9470,2.1470,0.9800,2.7050,0,0.0000,0.0000,0.0000,0.0000,0.0000,0
4989,0.0039,-0.0101,0.0108,-0.0081,0.0151,-0.0081,-1.17,0.13,0.06,0,4.133,-0.211,-0.130,0.201,-0.001,-0.013,1.001,0.000,0.000,0.000,0.0080,0,-2,0.00,0.00,0.00,0.0000,0.0000,0.0000,0.0000,0.0000,0.0000,0.0000,0.00,0.00,0.00,1.2690,0.9470,2.1470,0.9800,2.7050,0,0.0000,0.0000,0.0000,0.0000,0.0000,0
5040,0.0048,-0.0121,0.0118,-0.0030,0.0011,-0.0019,-0.82,0.07,0.06,0,4.138,0.152,0.106,-0.045,-0.001,-0.012,0.999,0.000,0.000,0.000,0.0080,8,-2,0.00,0.00,0.00,0.0000,0.0000,0.0000,0.0000,0.0000,0.0000,0.0000,0.00,0.00,0.00,1.2690,0.9560,0.0000,0.9740,2.7080,0,0.0000,0.0000,0.0000,0.0000,0.0000,0
5091,0.0053,-0.0117,0.0098,-0.0009,0.0034,-0.0104,-0.71,0.00,0.07,0,4.133,0.221,-0.001,-0.112,-0.000,-0.014,0.998,0.000,0.000,0.000,0.0100,0,0,0.00,0.00,0.00,0.0000,0.0000,0.0000,0.0000,0.0000,0.0000,0.0000,0.00,0.00,0.00,1.2660,0.9560,0.0000,0.9740,2.7080,0,0.0000,0.0000,0.0000,0.0000,0.0000,0
5142,0.0055,-0.0115,0.0090,-0.0007,0.0062,-0.0117,-0.65,0.03,0.07,0,4.138,0.002,0.223,0.433,0.001,-0.012,0.999,0.000,0.000,0.000,0.0100,6,1,0.00,0.00,0.00,0.0000,0.0000,0.0000,0.0000,0.0000,0.0000,0.0000,0.00,0.00,0.00,1.2660,0.9500,0.0000,0.9760,2.7090,0,0.0000,0.0000,0.0000,0.0000,0.0000,0
5192,0.0065,-0.0222,0.0090,0.0036,-0.0457,-0.0098,-0.51,0.03,0.07,0,4.133,0.106,-0.027,-0.131,0.001,-0.015,0.999,0.000,0.000,0.000,0.0110,2,2,0.00,0.00,0.00,0.0000,0.0000,0.0000,0.0000,0.0000,0.0000,0.0000,0.00,0.00,0.00,1.2670,0.9500,0.0000,0.9760,2.7090,0,0.0000,0.0000,0.0000,0.0000,0.0000,0
5244,0.0062,-0.0215,0.0102,0.0015,-0.0340,-0.0016,-0.54,0.06,0.07,0,4.138,0.074,0.097,-0.132,0.000,-0.013,0.998,0.000,0.000,0.000,0.0110,19,-6,0.00,0.00,0.00,0.0000,0.0000,0.0000,0.0000,0.0000,0.0000,0.0000,0.00,0.00,0.00,1.2670,0.9520,1.9880,0.9770,2.7010,0,0.0000,0.0000,0.0000,0.0000,0.0000,0
5295,0.0062,-0.0225,0.0107,0.0009,-0.0323,0.0012,-0.41,0.04,0.07,0,4.128,0.058,0.070,-0.157,0.004,-0.013,1.000,0.000,0.000,0.000,0.0120,7,4,0.00,0.00,0.00,0.0000,0.0000,0.0000,0.0000,0.0000,0.0000,0.0000,0.00,0.00,0.00,1.2700,0.9520,1.9880,0.9770,2.7010,0,0.0000,0.0000,0.0000,0.0000,0.0000,0
5345,0.0079,-0.0228,0.0117,0.0085,-0.0248,0.0056,-0.62,-0.07,0.08,0,4.138,0.089,0.178,-0.171,0.001,-0.013,1.000,0.000,0.000,0.000,0.0120,5,-4,0.00,0.00,0.00,0.0000,0.0000,0.0000,0.0000,0.0000,0.0000,0.0000,0.00,0.00,0.00,1.2700,0.9570,2.0420,0.9770,2.7060,0,0.0000,0.0000,0.0000,0.0000,0.0000,0
5397,0.0081,-0.0240,0.0122,0.0075,-0.0258,0.0058,-0.57,0.01,0.08,0,4.133,-0.055,0.043,-0.030,0.000,-0.014,1.002,0.000,0.000,0.000,0.0080,0,-1,0.00,0.00,0.00,0.0000,0.0000,0.0000,0.0000,0.0000,0.0000,0.0000,0.00,0.00,0.00,1.2770,0.9570,2.0420,0.9770,2.7060,0,0.0000,0.0000,0.0000,0.0000,0.0000,0
5448,0.0063,-0.0233,0.0109,-0.0029,-0.0162,-0.0004,-0.75,0.08,0.08,0,4.138,-0.022,-0.004,0.012,0.000,-0.013,0.999,0.000,0.000,0.000,0.0080,4,-2,0.00,0.00,0.00,0.0000,0.0000,0.0000,0.0000,0.0000,0.0000,0.0000,0.00,0.00,0.00,1.2770,0.9510,2.0620,0.9820,2.7030,0,0.0000,0.0000,0.0000,0.0000,0.0000,0
5498,0.0065,-0.0234,0.0095,-0.0013,-0.0129,-0.0067,-0.69,0.02,0.08,0,4.133,-0.033,0.129,0.105,-0.001,-0.016,1.000,0.000,0.000,0.000,0.0100,0,-2,0.00,0.00,0.00,0.0000,0.0000,0.0000,0.0000,0.0000,0.0000,0.0000,0.00,0.00,0.00,1.2670,0.9510,2.0620,0.9820,2.7030,0,0.0000,0.0000,0.0000,0.0000,0.0000,0
5550,0.0059,-0.0229,0.0100,-0.0056,-0.0073,-0.0030,-0.77,0.07,0.08,0,4.144,-0.023,0.181,0.011,-0.000,-0.015,0.998,0.000,0.000,0.000,0.0100,0,-4,0.00,0.00,0.00,0.0000,0.0000,0.0000,0.0000,0.0000,0.0000,0.0000,0.00,0.00,0.00,1.2670,0.9520,2.0220,0.9730,2.7020,0,0.0000,0.0000,0.0000,0.0000,0.0000,0
5601,0.0065,-0.0238,0.0099,-0.0012,-0.0098,-0.0031,-0.91,0.06,0.08,0,4.133,-0.163,0.170,0.466,0.001,-0.016,0.999,0.000,0.000,0.000,0.0100,-4,0,0.00,0.00,0.00,0.0000,0.0000,0.0000,0.0000,0.0000,0.0000,0.0000,0.00,0.00,0.00,1.2610,0.9520,2.0220,0.9730,2.7020,0,0.0000,0.0000,0.0000,0.0000,0.0000,0
5652,0.0068,-0.0238,0.0078,-0.0001,-0.0078,-0.0118,-0.84,0.06,0.08,0,4.138,0.011,-0.078,-0.001,0.001,-0.014,1.000,0.000,0.000,0.000,0.0100,11,-8,0.00,0.00,0.00,0.0000,0.0000,0.0000,0.0000,0.0000,0.0000,0.0000,0.00,0.00,0.00,1.2610,0.9540,1.9840,0.9780,2.7120,0,0.0000,0.0000,0.0000,0.0000,0.0000,0
5703,0.0058,-0.0217,0.0087,-0.0050,0.0049,-0.0057,-0.56,0.13,0.07,0,4.133,0.065,-0.236,0.210,-0.001,-0.012,0.999,0.000,0.000,0.000,0.0100,3,0,0.00,0.00,0.00,0.0000,0.0000,0.0000,0.0000,0.0000,0.0000,0.0000,0.00,0.00,0.00,1.2680,0.9540,1.9840,0.9780,2.7120,0,0.0000,0.0000,0.0000,0.0000,0.0000,0
5754,0.0039,-0.0246,0.0103,-0.0147,-0.0067,0.0029,-0.75,0.13,0.08,0,4.138,-0.179,0.045,-0.312,0.001,-0.014,1.002,0.000,0.000,0.000,0.0100,18,-2,0.00,0.00,0.00,0.0000,0.0000,0.0000,0.0000,0.0000,0.0000,0.0000,0.00,0.00,0.00,1.2680,0.9540,0.0000,0.9760,2.7090,0,0.0000,0.0000,0.0000,0.0000,0.0000,0
5805,0.0038,-0.0242,0.0103,-0.0134,-0.0021,0.0023,-0.66,0.10,0.08,0,4.133,-0.064,-0.116,0.006,-0.000,-0.013,0.999,0.000,0.000,0.000,0.0110,-10,2,0.00,0.00,0.00,0.0000,0.0000,0.0000,0.0000,0.0000,0.0000,0.0000,0.00,0.00,0.00,1.2690,0.9540,0.0000,0.9760,2.7090,0,0.0000,0.0000,0.0000,0.0000,0.0000,0
5856,0.0043,-0.0295,0.0093,-0.0080,-0.0265,-0.0024,-0.67,0.04,0.08,0,4.144,0.159,-0.209,-0.136,0.001,-0.014,0.998,0.000,0.000,0.000,0.0110,1,2,0.00,0.00,0.00,0.0000,0.0000,0.0000,0.0000,0.0000,0.0000,0.0000,0.00,0.00,0.00,1.2690,0.9520,2.0160,0.9750,2.7110,0,0.0000,0.0000,0.0000,0.0000,0.0000,0
5907,0.0049,-0.0292,0.0102,-0.0031,-0.0211,0.0017,-0.79,0.07,0.08,0,4.133,-0.125,0.073,0.243,0.002,-0.014,0.999,0.000,0.000,0.000,0.0120,1,0,0.00,0.00,0.00,0.0000,0.0000,0.0000,0.0000,0.0000,0.0000,0.0000,0.00,0.00,0.00,1.2680,0.9520,2.0160,0.9750,2.7110,0,0.0000,0.0000,0.0000,0.0000,0.0000,0
5958,0.0043,-0.0294,0.0107,-0.0054,-0.0185,0.0035,-0.81,0.09,0.09,0,4.138,-0.174,-0.291,0.291,0.002,-0.016,0.999,0.000,0.000,0.000,0.0120,-1,0,0.00,0.00,0.00,0.0000,0.0000,0.0000,0.0000,0.0000,0.0000,0.0000,0.00,0.00,0.00,1.2680,0.9550,0.0000,0.9770,2.7040,0,0.0000,0.0000,0.0000,0.0000,0.0000,0
6009,0.0051,-0.0294,0.0115,0.0007,-0.0147,0.0062,-0.77,0.06,0.09,0,4.133,0.127,-0.242,0.036,0.001,-0.013,0.998,0.000,0.000,0.000,0.0110,6,6,0.00,0.00,0.00,0.0000,0.0000,0.0000,0.0000,0.0000,0.0000,0.0000,0.00,0.00,0.00,1.2700,0.9550,0.0000,0.9770,2.7040,0,0.0000,0.0000,0.0000,0.0000,0.0000,0
6060,0.0053,-0.0284,0.0116,0.0021,-0.0063,0.0058,-0.85,0.07,0.09,0,4.138,0.160,-0.077,-0.387,0.000,-0.015,0.998,0.000,0.000,0.000,0.0110,-3,-2,0.00,0.00,0.00,0.0000,0.0000,0.0000,0.0000,0.0000,0.0000,0.0000,0.00,0.00,0.00,1.2700,0.9460,2.0590,0.9740,2.7030,0,0.0000,0.0000,0.0000,0.0000,0.0000,0
6111,0.0047,-0.0298,0.0116,-0.0009,-0.0118,0.0037,-0.95,0.03,0.09,0,4.133,-0.039,0.037,0.064,-0.002,-0.014,1.000,0.000,0.000,0.000,0.0120,2,-4,0.00,0.00,0.00,0.0000,0.0000,0.0000,0.0000,0.0000,0.0000,0.0000,0.00,0.00,0.00,1.2680,0.9460,2.0590,0.9740,2.7030,0,0.0000,0.0000,0.0000,0.0000,0.0000,0
6163,0.0047,-0.0288,0.0110,-0.0015,-0.0059,-0.0000,-0.79,0.01,0.09,0,4.144,0.117,-0.143,-0.078,0.002,-0.015,1.001,0.000,0.000,0.000,0.0120,-1,-4,0.00,0.00,0.00,0.0000,0.0000,0.0000,0.0000,0.0000,0.0000,0.0000,0.00,0.00,0.00,1.2680,0.9480,2.0660,0.9760,2.7020,0,0.0000,0.0000,0.0000,0.0000,0.0000,0
6214,0.0047,-0.0294,0.0115,-0.0018,-0.0074,0.0022,-0.81,0.04,0.09,0,4.133,0.193,-0.126,0.038,-0.002,-0.013,1.000,0.000,0.000,0.000,0.0140,5,-3,0.00,0.00,0.00,0.0000,0.0000,0.0000,0.0000,0.0000,0.0000,0.0000,0.00,0.00,0.00,1.2730,0.9480,2.0660,0.9760,2.7020,0,0.0000,0.0000,0.0000,0.0000,0.0000,0
6265,0.0045,-0.0290,0.0119,-0.0029,-0.0040,0.0032,-0.74,0.01,0.09,0,4.138,0.195,-0.251,0.094,-0.002,-0.014,1.001,0.000,0.000,0.000,0.0140,18,-6,0.00,0.00,0.00,0.0000,0.0000,0.0000,0.0000,0.0000,0.0000,0.0000,0.00,0.00,0.00,1.2730,0.9540,2.0330,0.9770,2.7000,0,0.0000,0.0000,0.0000,0.0000,0.0000,0
6316,0.0047,-0.0302,0.0131,-0.0021,-0.0092,0.0078,-0.57,0.03,0.09,0,4.133,-0.072,-0.128,-0.017,-0.002,-0.014,1.002,0.000,0.000,0.000,0.0110,2,1,0.00,0.00,0.00,0.0000,0.0000,0.0000,0.0000,0.0000,0.0000,0.0000,0.00,0.00,0.00,1.2680,0.9540,2.0330,0.9770,2.7000,0,0.0000,0.0000,0.0000,0.0000,0.0000,0
6366,0.0051,-0.0291,0.0122,-0.0008,0.0028,0.0025,-0.92,0.06,0.08,0,4.138,0.173,0.177,0.063,0.000,-0.013,0.999,0.000,0.000,0.000,0.0110,-16,-7,0.00,0.00,0.00,0.0000,0.0000,0.0000,0.0000,0.0000,0.0000,0.0000,0.00,0.00,0.00,1.2680,0.9600,1.9840,0.9760,2.7090,0,0.0000,0.0000,0.0000,0.0000,0.0000,0
6418,0.0045,-0.0259,0.0117,-0.0044,0.0201,-0.0006,-1.16,-0.01,0.08,0,4.133,0.037,-0.019,0.143,0.001,-0.015,1.003,0.000,0.000,0.000,0.0130,3,0,0.00,0.00,0.00,0.0000,0.0000,0.0000,0.0000,0.0000,0.0000,0.0000,0.00,0.00,0.00,1.2710,0.9600,1.9840,0.9760,2.7090,0,0.0000,0.0000,0.0000,0.0000,0.0000,0
6469,0.0052,-0.0201,0.0117,-0.0006,0.0462,-0.0010,-1.12,0.03,0.08,0,4.138,-0.264,-0.031,-0.074,0.003,-0.015,1.000,0.000,0.000,0.000,0.0130,17,-1,0.00,0.00,0.00,0.0000,0.0000,0.0000,0.0000,0.0000,0.0000,0.0000,0.00,0.00,0.00,1.2710,0.9500,2.0140,0.9770,2.7100,0,0.0000,0.0000,0.0000,0.0000,0.0000,0
6520,0.0048,-0.0206,0.0125,-0.0024,0.0346,0.0032,-0.97,0.02,0.08,0,4.133,0.233,-0.186,-0.319,0.001,-0.013,1.000,0.000,0.000,0.000,0.0140,-4,-3,0.00,0.00,0.00,0.0000,0.0000,0.0000,0.0000,0.0000,0.0000,0.0000,0.00,0.00,0.00,1.2700,0.9500,2.0140,0.9770,2.7100,0,0.0000,0.0000,0.0000,0.0000,0.0000,0
6571,0.0052,-0.0258,0.0131,-0.0005,0.0012,0.0056,-0.86,0.08,0.09,0,4.138,-0.063,0.032,0.189,0.002,-0.014,0.998,0.000,0.000,0.000,0.0140,-22,-3,0.00,0.00,0.00,0.0000,0.0000,0.0000,0.0000,0.0000,0.0000,0.0000,0.00,0.00,0.00,1.2700,0.9550,2.0610,0.9770,2.7070,0,0.0000,0.0000,0.0000,0.0000,0.0000,0
6622,0.0052,-0.0242,0.0138,-0.0001,0.0079,0.0071,-0.96,0.02,0.09,0,4.133,-0.007,0.266,-0.209,0.001,-0.012,1.000,0.000,0.000,0.000,0.0100,-5,0,0.00,0.00,0.00,0.0000,0.0000,0.0000,0.0000,0.0000,0.0000,0.0000,0.00,0.00,0.00,1.2700,0.9550,2.0610,0.9770,2.7070,0,0.0000,0.0000,0.0000,0.0000,0.0000,0
6674,0.0068,-0.0207,0.0123,0.0082,0.0219,-0.0017,-0.76,0.05,0.09,0,4.138,-0.079,-0.080,0.038,0.001,-0.015,1.001,0.000,0.000,0.000,0.0100,-13,0,0.00,0.00,0.00,0.0000,0.0000,0.0000,0.0000,0.0000,0.0000,0.0000,0.00,0.00,0.00,1.2700,0.9510,2.0820,0.9770,2.7000,0,0.0000,0.0000,0.0000,0.0000,0.0000,0
6725,0.0044,-0.0266,0.0112,-0.0047,-0.0132,-0.0055,-0.76,0.04,0.09,0,4.133,0.209,-0.201,-0.303,0.004,-0.014,1.000,0.000,0.000,0.000,0.0090,-2,-4,0.00,0.00,0.00,0.0000,0.0000,0.0000,0.0000,0.0000,0.0000,0.0000,0.00,0.00,0.00,1.2760,0.9510,2.0820,0.9770,2.7000,0,0.0000,0.0000,0.0000,0.0000,0.0000,0
6776,0.0046,-0.0262,0.0115,-0.0027,-0.0099,-0.0031,-0.64,0.03,0.09,0,4.138,0.106,0.091,0.335,0.003,-0.015,1.000,0.000,0.000,0.000,0.0090,-3,-4,0.00,0.00,0.00,0.0000,0.0000,0.0000,0.0000,0.0000,0.0000,0.0000,0.00,0.00,0.00,1.2760,0.9530,2.0670,0.9740,2.7030,0,0.0000,0.0000,0.0000,0.0000,0.0000,0
6827,0.0048,-0.0253,0.0102,-0.0011,-0.0033,-0.0081,-0.61,0.05,0.09,0,4.133,0.186,-0.056,-0.124,0.000,-0.011,1.001,0.000,0.000,0.000,0.0150,1,3,0.00,0.00,0.00,0.0000,0.0000,0.0000,0.0000,0.0000,0.0000,0.0000,0.00,0.00,0.00,1.2720,0.9530,2.0670,0.9740,2.7030,0,0.0000,0.0000,0.0000,0.0000,0.0000,0
6877,0.0054,-0.0260,0.0109,0.0021,-0.0065,-0.0033,-0.81,0.12,0.09,0,4.138,0.236,-0.079,-0.113,0.003,-0.014,0.998,0.000,0.000,0.000,0.0150,1,-6,0.00,0.00,0.00,0.0000,0.0000,0.0000,0.0000,0.0000,0.0000,0.0000,0.00,0.00,0.00,1.2720,0.9510,2.0170,0.9750,2.7140,0,0.0000,0.0000,0.0000,0.0000,0.0000,0
6929,0.0036,-0.0258,0.0128,-0.0074,-0.0055,0.0054,-0.71,0.13,0.09,0,4.133,-0.285,0.059,0.172,-0.000,-0.014,1.001,0.000,0.000,0.000,0.0130,8,1,0.00,0.00,0.00,0.0000,0.0000,0.0000,0.0000,0.0000,0.0000,0.0000,0.00,0.00,0.00,1.2740,0.9510,2.0170,0.9750,2.7140,0,0.0000,0.0000,0.0000,0.0000,0.0000,0
6980,0.0037,-0.0244,0.0116,-0.0057,0.0033,-0.0011,-0.73,0.09,0.09,0,4.138,-0.025,-0.087,0.094,0.000,-0.013,0.998,0.000,0.000,0.000,0.0130,7,-3,0.00,0.00,0.00,0.0000,0.0000,0.0000,0.0000,0.0000,0.0000,0.0000,0.00,0.00,0.00,1.2740,0.9530,0.0000,0.9730,2.7020,0,0.0000,0.0000,0.0000,0.0000,0.0000,0
7031,0.0035,-0.0246,0.0123,-0.0060,0.0020,0.0018,-0.46,0.13,0.09,0,4.133,-0.072,-0.053,0.057,-0.001,-0.014,1.000,0.000,0.000,0.000,0.0120,-13,0,0.00,0.00,0.00,0.0000,0.0000,0.0000,0.0000,0.0000,0.0000,0.0000,0.00,0.00,0.00,1.2740,0.9530,0.0000,0.9730,2.7020,0,0.0000,0.0000,0.0000,0.0000,0.0000,0
7082,0.0021,-0.0323,0.0112,-0.0132,-0.0358,-0.0037,-0.49,0.09,0.09,0,4.138,0.113,-0.041,-0.110,0.000,-0.015,1.000,0.000,0.000,0.000,0.0120,-1,1,0.00,0.00,0.00,0.0000,0.0000,0.0000,0.0000,0.0000,0.0000,0.0000,0.00,0.00,0.00,1.2740,0.9490,2.0230,0.9760,2.7070,0,0.0000,0.0000,0.0000,0.0000,0.0000,0
7133,0.0025,-0.0307,0.0117,-0.0088,-0.0221,-0.0008,-0.90,0.03,0.09,0,4.133,0.133,-0.089,0.156,0.001,-0.013,0.999,0.000,0.000,0.000,0.0130,-6,-5,0.00,0.00,0.00,0.0000,0.0000,0.0000,0.0000,0.0000,0.0000,0.0000,0.00,0.00,0.00,1.2710,0.9490,2.0230,0.9760,2.7070,0,0.0000,0.0000,0.0000,0.0000,0.0000,0
7184,0.0030,-0.0240,0.0110,-0.0048,0.0145,-0.0042,-0.90,0.03,0.10,0,4.138,0.138,-0.027,0.161,0.001,-0.015,1.000,0.000,0.000,0.000,0.0130,4,0,0.00,0.00,0.00,0.0000,0.0000,0.0000,0.0000,0.0000,0.0000,0.0000,0.00,0.00,0.00,1.2710,0.9540,0.0000,0.9780,2.7050,0,0.0000,0.0000,0.0000,0.0000,0.0000,0
7235,0.0032,-0.0230,0.0118,-0.0032,0.0167,-0.0001,-0.83,0.06,0.10,0,4.133,0.255,-0.320,-0.387,-0.000,-0.018,0.997,0.000,0.000,0.000,0.0120,-2,0,0.00,0.00,0.00,0.0000,0.0000,0.0000,0.0000,0.0000,0.0000,0.0000,0.00,0.00,0.00,1.2650,0.9540,0.0000,0.9780,2.7050,0,0.0000,0.0000,0.0000,0.0000,0.0000,0
7286,0.0041,-0.0236,0.0134,0.0020,0.0102,0.0077,-0.83,0.10,0.10,0,4.138,-0.121,-0.229,-0.167,0.001,-0.015,0.999,0.000,0.000,0.000,0.0120,11,-9,0.00,0.00,0.00,0.0000,0.0000,0.0000,0.0000,0.0000,0.0000,0.0000,0.00,0.00,0.00,1.2650,0.9530,2.0260,0.9740,2.7040,0,0.0000,0.0000,0.0000,0.0000,0.0000,0
7337,0.0024,-0.0236,0.0131,-0.0070,0.0073,0.0044,-0.72,0.01,0.10,0,4.133,0.253,0.200,0.031,0.001,-0.012,1.000,0.000,0.000,0.000,0.0140,-13,2,0.00,0.00,0.00,0.0000,0.0000,0.0000,0.0000,0.0000,0.0000,0.0000,0.00,0.00,0.00,1.2660,0.9530,2.0260,0.9740,2.7040,0,0.0000,0.0000,0.0000,0.0000,0.0000,0
7388,0.0036,-0.0253,0.0119,-0.0002,-0.0015,-0.0028,-0.93,0.03,0.10,0,4.138,0.005,-0.009,0.129,-0.001,-0.012,0.996,0.000,0.000,0.000,0.0140,9,-3,0.00,0.00,0.00,0.0000,0.0000,0.0000,0.0000,0.0000,0.0000,0.0000,0.00,0.00,0.00,1.2660,0.9530,1.9950,0.9770,2.7040,0,0.0000,0.0000,0.0000,0.0000,0.0000,0
7439,0.0030,-0.0218,0.0128,-0.0032,0.0151,0.0011,-0.93,0.06,0.10,0,4.133,-0.090,0.226,0.143,-0.000,-0.013,0.999,0.000,0.000,0.000,0.0080,0,0,0.00,0.00,0.00,0.0000,0.0000,0.0000,0.0000,0.0000,0.0000,0.0000,0.00,0.00,0.00,1.2640,0.9530,1.9950,0.9770,2.7040,0,0.0000,0.0000,0.0000,0.0000,0.0000,0
7489,0.0030,-0.0222,0.0125,-0.0025,0.0105,-0.0004,-0.47,0.04,0.10,0,4.138,0.084,-0.051,-0.210,0.003,-0.015,1.000,0.000,0.000,0.000,0.0080,9,-3,0.00,0.00,0.00,0.0000,0.0000,0.0000,0.0000,0.0000,0.0000,0.0000,0.00,0.00,0.00,1.2640,0.9580,2.0070,0.9770,2.6990,0,0.0000,0.0000,0.0000,0.0000,0.0000,0
7541,0.0030,-0.0293,0.0105,-0.0016,-0.0269,-0.0086,-0.58,0.07,0.10,0,4.133,-0.082,-0.233,0.359,0.001,-0.013,1.000,0.000,0.000,0.000,0.0140,3,0,0.00,0.00,0.00,0.0000,0.0000,0.0000,0.0000,0.0000,0.0000,0.0000,0.00,0.00,0.00,1.2690,0.9580,2.0070,0.9770,2.6990,0,0.0000,0.0000,0.0000,0.0000,0.0000,0
7592,0.0032,-0.0293,0.0110,-0.0006,-0.0218,-0.0044,-0.59,0.08,0.10,0,4.138,0.119,0.084,-0.389,-0.000,-0.014,1.000,0.000,0.000,0.000,0.0140,3,0,0.00,0.00,0.00,0.0000,0.0000,0.0000,0.0000,0.0000,0.0000,0.0000,0.00,0.00,0.00,1.2690,0.9530,0.0000,0.9770,2.7050,0,0.0000,0.0000,0.0000,0.0000,0.0000,0
7644,0.0032,-0.0297,0.0123,-0.0011,-0.0195,0.0019,-0.83,0.05,0.10,0,4.133,0.066,-0.044,0.466,0.000,-0.015,1.001,0.000,0.000,0.000,0.0100,3,0,0.00,0.00,0.00,0.0000,0.0000,0.0000,0.0000,0.0000,0.0000,0.0000,0.00,0.00,0.00,1.2630,0.9530,0.0000,0.9770,2.7050,0,0.0000,0.0000,0.0000,0.0000,0.0000,0
7695,0.0036,-0.0237,0.0108,0.0008,0.0145,-0.0060,-1.03,0.07,0.11,0,4.138,0.140,-0.208,-0.135,0.000,-0.015,1.000,0.000,0.000,0.000,0.0100,8,4,0.00,0.00,0.00,0.0000,0.0000,0.0000,0.0000,0.0000,0.0000,0.0000,0.00,0.00,0.00,1.2630,0.9510,0.0000,0.9740,2.7060,0,0.0000,0.0000,0.0000,0.0000,0.0000,0
7745,0.0021,-0.0248,0.0104,-0.0072,0.0051,-0.0059,-0.73,0.14,0.10,0,4.133,0.105,0.116,-0.181,0.000,-0.013,1.000,0.000,0.000,0.000,0.0120,-7,8,0.00,0.00,0.00,0.0000,0.0000,0.0000,0.0000,0.0000,0.0000,0.0000,0.00,0.00,0.00,1.2760,0.9510,0.0000,0.9740,2.7060,0,0.0000,0.0000,0.0000,0.0000,0.0000,0
7797,0.0030,-0.0342,0.0094,-0.0014,-0.0429,-0.0096,-0.48,0.10,0.10,0,4.138,0.010,-0.208,-0.023,0.002,-0.014,1.000,0.000,0.000,0.000,0.0120,4,-5,0.00,0.00,0.00,0.0000,0.0000,0.0000,0.0000,0.0000,0.0000,0.0000,0.00,0.00,0.00,1.2760,0.9540,2.0620,0.9760,2.7020,0,0.0000,0.0000,0.0000,0.0000,0.0000,0
7848,0.0021,-0.0348,0.0103,-0.0044,-0.0385,-0.0033,-0.37,0.10,0.10,0,4.133,-0.063,-0.019,-0.167,0.001,-0.016,1.000,0.000,0.000,0.000,0.0100,-3,-2,0.00,0.00,0.00,0.0000,0.0000,0.0000,0.0000,0.0000,0.0000,0.0000,0.00,0.00,0.00,1.2700,0.9540,2.0620,0.9760,2.7020,0,0.0000,0.0000,0.0000,0.0000,0.0000,0
7899,0.0060,-0.0378,0.0101,0.0172,-0.0460,-0.0036,-0.49,-0.09,0.09,0,4.138,-0.083,0.198,0.009,0.000,-0.014,0.999,0.000,0.000,0.000,0.0100,-4,-4,0.00,0.00,0.00,0.0000,0.0000,0.0000,0.0000,0.0000,0.0000,0.0000,0.00,0.00,0.00,1.2700,0.9480,0.0000,0.9760,2.7080,0,0.0000,0.0000,0.0000,0.0000,0.0000,0
7950,0.0060,-0.0381,0.0100,0.0134,-0.0388,-0.0036,-0.64,-0.09,0.09,0,4.133,-0.076,0.072,0.454,0.001,-0.014,1.000,0.000,0.000,0.000,0.0140,0,-5,0.00,0.00,0.00,0.0000,0.0000,0.0000,0.0000,0.0000,0.0000,0.0000,0.00,0.00,0.00,1.2680,0.9480,0.0000,0.9760,2.7080,0,0.0000,0.0000,0.0000,0.0000,0.0000,0
8001,0.0059,-0.0319,0.0122,0.0093,0.0003,0.0071,-0.85,-0.01,0.10,0,4.138,0.178,-0.218,0.046,-0.001,-0.016,0.999,0.000,0.000,0.000,0.0140,20,2,0.00,0.00,0.00,0.0000,0.0000,0.0000,0.0000,0.0000,0.0000,0.0000,0.00,0.00,0.00,1.2680,0.9550,2.0550,0.9740,2.7040,0,0.0000,0.0000,0.0000,0.0000,0.0000,0
8052,0.0061,-0.0322,0.0134,0.0078,-0.0004,0.0108,-0.84,0.06,0.10,0,4.133,-0.029,-0.373,-0.016,0.001,-0.015,0.999,0.000,0.000,0.000,0.0090,15,-4,0.00,0.00,0.00,0.0000,0.0000,0.0000,0.0000,0.0000,0.0000,0.0000,0.00,0.00,0.00,1.2690,0.9550,2.0550,0.9740,2.7040,0,0.0000,0.0000,0.0000,0.0000,0.0000,0
8103,0.0041,-0.0310,0.0148,-0.0048,0.0076,0.0148,-0.87,0.07,0.10,0,4.138,0.149,-0.062,-0.026,0.001,-0.014,0.998,0.000,0.000,0.000,0.0090,-1,0,0.00,0.00,0.00,0.0000,0.0000,0.0000,0.0000,0.0000,0.0000,0.0000,0.00,0.00,0.00,1.2690,0.9540,0.0000,0.9770,2.7050,0,0.0000,0.0000,0.0000,0.0000,0.0000,0
8154,0.0039,-0.0320,0.0128,-0.0052,0.0013,0.0021,-0.84,0.10,0.10,0,4.133,0.099,0.060,0.148,0.003,-0.012,1.002,0.000,0.000,0.000,0.0100,-2,3,0.00,0.00,0.00,0.0000,0.0000,0.0000,0.0000,0.0000,0.0000,0.0000,0.00,0.00,0.00,1.2710,0.9540,0.0000,0.9770,2.7050,0,0.0000,0.0000,0.0000,0.0000,0.0000,0
8206,0.0042,-0.0195,0.0112,-0.0022,0.0645,-0.0057,-1.31,0.04,0.10,0,4.138,-0.246,-0.053,0.304,0.000,-0.015,0.998,0.000,0.000,0.000,0.0100,-2,-3,0.00,0.00,0.00,0.0000,0.0000,0.0000,0.0000,0.0000,0.0000,0.0000,0.00,0.00,0.00,1.2710,0.9590,1.8850,0.9790,2.7100,0,0.0000,0.0000,0.0000,0.0000,0.0000,0
8256,0.0042,-0.0190,0.0106,-0.0022,0.0542,-0.0066,-1.13,0.08,0.10,0,4.133,-0.091,0.050,0.214,-0.001,-0.015,0.999,0.000,0.000,0.000,0.0120,6,-1,0.00,0.00,0.00,0.0000,0.0000,0.0000,0.0000,0.0000,0.0000,0.0000,0.00,0.00,0.00,1.2720,0.9590,1.8850,0.9790,2.7100,0,0.0000,0.0000,0.0000,0.0000,0.0000,0
8307,0.0042,-0.0184,0.0107,-0.0025,0.0456,-0.0052,-0.99,0.06,0.10,0,4.138,-0.234,-0.201,0.314,0.002,-0.014,0.998,0.000,0.000,0.000,0.0120,-5,-2,0.00,0.00,0.00,0.0000,0.0000,0.0000,0.0000,0.0000,0.0000,0.0000,0.00,0.00,0.00,1.2720,0.9550,2.0580,0.9790,2.7000,0,0.0000,0.0000,0.0000,0.0000,0.0000,0
8359,0.0036,-0.0189,0.0112,-0.0054,0.0342,-0.0021,-1.18,0.02,0.11,0,4.133,0.184,-0.004,-0.082,-0.002,-0.014,0.998,0.000,0.000,0.000,0.0130,-3,1,0.00,0.00,0.00,0.0000,0.0000,0.0000,0.0000,0.0000,0.0000,0.0000,0.00,0.00,0.00,1.2650,0.9550,2.0580,0.9790,2.7000,0,0.0000,0.0000,0.0000,0.0000,0.0000,0
8410,0.0046,-0.0119,0.0114,0.0001,0.0610,-0.0020,-1.29,0.07,0.11,0,4.138,0.168,0.171,-0.233,0.002,-0.015,0.997,0.000,0.000,0.000,0.0130,-18,-6,0.00,0.00,0.00,0.0000,0.0000,0.0000,0.0000,0.0000,0.0000,0.0000,0.00,0.00,0.00,1.2650,0.9510,2.0190,0.9770,2.6980,0,0.0000,0.0000,0.0000,0.0000,0.0000,0
8462,0.0046,-0.0097,0.0124,-0.0002,0.0567,0.0031,-1.17,0.01,0.11,0,4.133,-0.013,0.070,0.083,0.000,-0.014,0.999,0.000,0.000,0.000,0.0100,-3,0,0.00,0.00,0.00,0.0000,0.0000,0.0000,0.0000,0.0000,0.0000,0.0000,0.00,0.00,0.00,1.2690,0.9510,2.0190,0.9770,2.6980,0,0.0000,0.0000,0.0000,0.0000,0.0000,0
8513,0.0050,-0.0151,0.0118,0.0011,0.0123,0.0005,-0.77,0.05,0.11,0,4.138,0.138,0.043,0.205,-0.002,-0.012,1.001,0.000,0.000,0.000,0.0100,3,1,0.00,0.00,0.00,0.0000,0.0000,0.0000,0.0000,0.0000,0.0000,0.0000,0.00,0.00,0.00,1.2690,0.9500,2.0800,0.9810,2.7010,0,0.0000,0.0000,0.0000,0.0000,0.0000,0
8564,0.0048,-0.0141,0.0109,-0.0008,0.0141,-0.0034,-0.75,0.06,0.11,0,4.133,0.152,-0.028,0.202,0.002,-0.013,1.002,0.000,0.000,0.000,0.0070,0,0,0.00,0.00,0.00,0.0000,0.0000,0.0000,0.0000,0.0000,0.0000,0.0000,0.00,0.00,0.00,1.2710,0.9500,2.0800,0.9810,2.7010,0,0.0000,0.0000,0.0000,0.0000,0.0000,0
8616,0.0048,-0.0141,0.0093,-0.0009,0.0110,-0.0097,-0.56,0.08,0.11,0,4.138,0.164,-0.064,0.086,0.001,-0.014,0.999,0.000,0.000,0.000,0.0070,0,-2,0.00,0.00,0.00,0.0000,0.0000,0.0000,0.0000,0.0000,0.0000,0.0000,0.00,0.00,0.00,1.2710,0.9500,0.0000,0.9810,2.7040,0,0.0000,0.0000,0.0000,0.0000,0.0000,0
8666,0.0040,-0.0141,0.0078,-0.0041,0.0094,-0.0143,-0.68,0.04,0.11,0,4.133,-0.092,-0.069,0.117,0.002,-0.015,0.999,0.000,0.000,0.000,0.0100,-4,-1,0.00,0.00,0.00,0.0000,0.0000,0.0000,0.0000,0.0000,0.0000,0.0000,0.00,0.00,0.00,1.2730,0.9500,0.0000,0.9810,2.7040,0,0.0000,0.0000,0.0000,0.0000,0.0000,0
8718,0.0041,-0.0148,0.0088,-0.0038,0.0024,-0.0070,-0.76,0.11,0.11,0,4.138,0.012,-0.029,-0.070,-0.001,-0.015,0.998,0.000,0.000,0.000,0.0100,-5,0,0.00,0.00,0.00,0.0000,0.0000,0.0000,0.0000,0.0000,0.0000,0.0000,0.00,0.00,0.00,1.2730,0.9470,0.0000,0.9780,2.7010,0,0.0000,0.0000,0.0000,0.0000,0.0000,0
8769,0.0040,-0.0148,0.0092,-0.0037,-0.0011,-0.0043,-0.74,0.06,0.11,0,4.133,-0.179,-0.003,-0.308,0.002,-0.012,1.000,0.000,0.000,0.000,0.0110,2,-3,0.00,0.00,0.00,0.0000,0.0000,0.0000,0.0000,0.0000,0.0000,0.0000,0.00,0.00,0.00,1.2710,0.9470,0.0000,0.9780,2.7010,0,0.0000,0.0000,0.0000,0.0000,0.0000,0
8820,0.0043,-0.0137,0.0104,-0.0014,0.0035,0.0023,-0.67,0.02,0.11,0,4.138,0.072,0.170,0.195,0.001,-0.014,0.999,0.000,0.000,0.000,0.0110,4,3,0.00,0.00,0.00,0.0000,0.0000,0.0000,0.0000,0.0000,0.0000,0.0000,0.00,0.00,0.00,1.2710,0.9560,2.0200,0.9760,2.6970,0,0.0000,0.0000,0.0000,0.0000,0.0000,0
8871,0.0043,-0.0139,0.0108,-0.0019,0.0002,0.0032,-0.64,0.09,0.12,0,4.133,0.028,-0.169,-0.120,0.000,-0.017,0.999,0.000,0.000,0.000,0.0100,-3,1,0.00,0.00,0.00,0.0000,0.0000,0.0000,0.0000,0.0000,0.0000,0.0000,0.00,0.00,0.00,1.2720,0.9560,2.0200,0.9760,2.6970,0,0.0000,0.0000,0.0000,0.0000,0.0000,0
8922,0.0061,-0.0188,0.0106,0.0078,-0.0238,0.0019,-0.52,0.00,0.11,0,4.138,-0.151,0.232,-0.017,-0.001,-0.015,0.997,0.000,0.000,0.000,0.0100,-4,0,0.00,0.00,0.00,0.0000,0.0000,0.0000,0.0000,0.0000,0.0000,0.0000,0.00,0.00,0.00,1.2720,0.9500,2.0520,0.9760,2.7090,0,0.0000,0.0000,0.0000,0.0000,0.0000,0
8972,0.0056,-0.0183,0.0105,0.0039,-0.0178,0.0006,-0.52,0.00,0.12,0,4.133,-0.057,-0.026,0.266,0.001,-0.013,1.001,0.000,0.000,0.000,0.0110,1,0,0.00,0.00,0.00,0.0000,0.0000,0.0000,0.0000,0.0000,0.0000,0.0000,0.00,0.00,0.00,1.2700,0.9500,2.0520,0.9760,2.7090,0,0.0000,0.0000,0.0000,0.0000,0.0000,0
9024,0.0056,-0.0174,0.0118,0.0029,-0.0105,0.0062,-0.64,0.06,0.12,0,4.138,0.171,-0.206,-0.256,-0.000,-0.014,0.998,0.000,0.000,0.000,0.0110,-1,4,0.00,0.00,0.00,0.0000,0.0000,0.0000,0.0000,0.0000,0.0000,0.0000,0.00,0.00,0.00,1.2700,0.9540,0.0000,0.9740,2.7100,0,0.0000,0.0000,0.0000,0.0000,0.0000,0
9075,0.0054,-0.0174,0.0117,0.0018,-0.0087,0.0044,-0.68,0.06,0.13,0,4.133,-0.010,0.083,0.336,0.001,-0.015,0.997,0.000,0.000,0.000,0.0110,2,-4,0.00,0.00,0.00,0.0000,0.0000,0.0000,0.0000,0.0000,0.0000,0.0000,0.00,0.00,0.00,1.2680,0.9540,0.0000,0.9740,2.7100,0,0.0000,0.0000,0.0000,0.0000,0.0000,0
9126,0.0045,-0.0174,0.0126,-0.0031,-0.0080,0.0067,-0.49,0.03,0.13,0,4.138,-0.099,-0.357,0.275,0.001,-0.013,0.999,0.000,0.000,0.000,0.0110,-6,0,0.00,0.00,0.00,0.0000,0.0000,0.0000,0.0000,0.0000,0.0000,0.0000,0.00,0.00,0.00,1.2680,0.9580,2.0380,0.9760,2.7010,0,0.0000,0.0000,0.0000,0.0000,0.0000,0
9177,0.0043,-0.0157,0.0124,-0.0039,0.0023,0.0036,-0.77,0.06,0.13,0,4.133,-0.088,-0.043,0.151,-0.001,-0.014,1.001,0.000,0.000,0.000,0.0090,7,-2,0.00,0.00,0.00,0.0000,0.0000,0.0000,0.0000,0.0000,0.0000,0.0000,0.00,0.00,0.00,1.2750,0.9580,2.0380,0.9760,2.7010,0,0.0000,0.0000,0.0000,0.0000,0.0000,0
9229,0.0041,-0.0144,0.0133,-0.0050,0.0075,0.0070,-0.95,0.07,0.13,0,4.138,0.262,-0.257,0.094,0.001,-0.012,1.000,0.000,0.000,0.000,0.0090,2,-2,0.00,0.00,0.00,0.0000,0.0000,0.0000,0.0000,0.0000,0.0000,0.0000,0.00,0.00,0.00,1.2750,0.9560,1.9620,0.9770,2.7010,0,0.0000,0.0000,0.0000,0.0000,0.0000,0
9280,0.0030,-0.0131,0.0116,-0.0102,0.0116,-0.0018,-0.80,0.11,0.13,0,4.133,0.074,0.238,-0.103,0.002,-0.013,1.003,0.000,0.000,0.000,0.0110,4,3,0.00,0.00,0.00,0.0000,0.0000,0.0000,0.0000,0.0000,0.0000,0.0000,0.00,0.00,0.00,1.2760,0.9560,1.9620,0.9770,2.7010,0,0.0000,0.0000,0.0000,0.0000,0.0000,0
9331,0.0043,-0.0185,0.0114,-0.0007,-0.0163,-0.0022,-0.57,0.08,0.13,0,4.133,0.220,-0.088,-0.239,0.001,-0.014,1.001,0.000,0.000,0.000,0.0110,-5,10,0.00,0.00,0.00,0.0000,0.0000,0.0000,0.0000,0.0000,0.0000,0.0000,0.00,0.00,0.00,1.2760,0.9550,2.0380,0.9730,2.7080,0,0.0000,0.0000,0.0000,0.0000,0.0000,0
9382,0.0039,-0.0181,0.0112,-0.0027,-0.0119,-0.0026,-0.70,0.16,0.13,0,4.133,0.207,0.134,-0.132,0.001,-0.015,0.998,0.000,0.000,0.000,0.0080,-2,2,0.00,0.00,0.00,0.0000,0.0000,0.0000,0.0000,0.0000,0.0000,0.0000,0.00,0.00,0.00,1.2710,0.9550,2.0380,0.9730,2.7080,0,0.0000,0.0000,0.0000,0.0000,0.0000,0
9432,0.0024,-0.0187,0.0115,-0.0083,-0.0137,-0.0005,-0.53,0.12,0.12,0,4.138,0.092,0.150,-0.144,0.001,-0.012,0.999,0.000,0.000,0.000,0.0080,22,-1,0.00,0.00,0.00,0.0000,0.0000,0.0000,0.0000,0.0000,0.0000,0.0000,0.00,0.00,0.00,1.2710,0.9530,2.0530,0.9790,2.6980,0,0.0000,0.0000,0.0000,0.0000,0.0000,0
9483,0.0011,-0.0240,0.0097,-0.0139,-0.0388,-0.0095,-0.01,0.09,0.12,0,4.133,-0.215,0.133,0.125,0.001,-0.013,1.002,0.000,0.000,0.000,0.0090,-9,0,0.00,0.00,0.00,0.0000,0.0000,0.0000,0.0000,0.0000,0.0000,0.0000,0.00,0.00,0.00,1.2720,0.9530,2.0530,0.9790,2.6980,0,0.0000,0.0000,0.0000,0.0000,0.0000,0
9535,0.0017,-0.0344,0.0087,-0.0082,-0.0814,-0.0121,-0.45,0.10,0.12,0,4.138,0.034,-0.246,-0.192,0.002,-0.013,1.000,0.000,0.000,0.000,0.0090,0,-5,0.00,0.00,0.00,0.0000,0.0000,0.0000,0.0000,0.0000,0.0000,0.0000,0.00,0.00,0.00,1.2720,0.9590,2.0460,0.9760,2.7040,0,0.0000,0.0000,0.0000,0.0000,0.0000,0
9586,0.0010,-0.0243,0.0092,-0.0103,-0.0141,-0.0068,-1.03,0.08,0.13,0,4.133,0.252,-0.118,-0.080,0.002,-0.015,1.001,0.000,0.000,0.000,0.0140,-2,3,0.00,0.00,0.00,0.0000,0.0000,0.0000,0.0000,0.0000,0.0000,0.0000,0.00,0.00,0.00,1.2710,0.9590,2.0460,0.9760,2.7040,0,0.0000,0.0000,0.0000,0.0000,0.0000,0
9637,0.0003,-0.0173,0.0107,-0.0120,0.0248,0.0013,-1.01,0.12,0.13,0,4.138,-0.024,0.124,-0.022,-0.000,-0.015,0.997,0.000,0.000,0.000,0.0140,1,-3,0.00,0.00,0.00,0.0000,0.0000,0.0000,0.0000,0.0000,0.0000,0.0000,0.00,0.00,0.00,1.2710,0.9520,0.0000,0.9790,2.6970,0,0.0000,0.0000,0.0000,0.0000,0.0000,0
9688,-0.0008,-0.0154,0.0124,-0.0139,0.0287,0.0079,-1.12,0.12,0.14,0,4.133,-0.114,-0.064,0.098,-0.001,-0.013,1.000,0.000,0.000,0.000,0.0120,-3,4,0.00,0.00,0.00,0.0000,0.0000,0.0000,0.0000,0.0000,0.0000,0.0000,0.00,0.00,0.00,1.2680,0.9520,0.0000,0.9790,2.6970,0,0.0000,0.0000,0.0000,0.0000,0.0000,0
9738,0.0002,-0.0144,0.0122,-0.0066,0.0269,0.0059,-0.97,0.09,0.14,0,4.138,0.081,0.076,-0.165,-0.000,-0.014,1.000,0.000,0.000,0.000,0.0120,-11,4,0.00,0.00,0.00,0.0000,0.0000,0.0000,0.0000,0.0000,0.0000,0.0000,0.00,0.00,0.00,1.2680,0.9540,0.0000,0.9800,2.7030,0,0.0000,0.0000,0.0000,0.0000,0.0000,0
9790,0.0010,-0.0145,0.0125,-0.0011,0.0212,0.0058,-1.05,0.06,0.14,0,4.133,-0.212,-0.159,0.210,0.001,-0.013,0.997,0.000,0.000,0.000,0.0100,-1,-5,0.00,0.00,0.00,0.0000,0.0000,0.0000,0.0000,0.0000,0.0000,0.0000,0.00,0.00,0.00,1.2700,0.9540,0.0000,0.9800,2.7030,0,0.0000,0.0000,0.0000,0.0000,0.0000,0
9841,-0.0001,-0.0153,0.0111,-0.0055,0.0134,-0.0016,-0.59,0.06,0.13,0,4.138,-0.150,0.125,0.143,-0.001,-0.015,1.001,0.000,0.000,0.000,0.0100,12,-4,0.00,0.00,0.00,0.0000,0.0000,0.0000,0.0000,0.0000,0.0000,0.0000,0.00,0.00,0.00,1.2700,0.9480,0.0000,0.9740,2.7070,0,0.0000,0.0000,0.0000,0.0000,0.0000,0
9892,-0.0011,-0.0199,0.0107,-0.0100,-0.0110,-0.0028,-0.61,0.05,0.14,0,4.133,0.045,-0.285,-0.179,-0.000,-0.016,1.001,0.000,0.000,0.000,0.0110,5,4,0.00,0.00,0.00,0.0000,0.0000,0.0000,0.0000,0.0000,0.0000,0.0000,0.00,0.00,0.00,1.2690,0.9480,0.0000,0.9740,2.7070,0,0.0000,0.0000,0.0000,0.0000,0.0000,0
9943,0.0001,-0.0158,0.0113,-0.0023,0.0147,0.0006,-0.78,0.03,0.14,0,4.138,-0.158,0.197,0.191,0.002,-0.012,0.998,0.000,0.000,0.000,0.0110,20,-7,0.00,0.00,0.00,0.0000,0.0000,0.0000,0.0000,0.0000,0.0000,0.0000,0.00,0.00,0.00,1.2690,0.9510,2.0510,0.9770,2.7040,0,0.0000,0.0000,0.0000,0.0000,0.0000,0
9994,-0.0012,-0.0144,0.0113,-0.0085,0.0197,-0.0003,-0.78,0.05,0.14,0,4.133,-0.091,-0.042,0.132,-0.001,-0.016,0.999,0.000,0.000,0.000,0.0110,-8,0,0.00,0.00,0.00,0.0000,0.0000,0.0000,0.0000,0.0000,0.0000,0.0000,0.00,0.00,0.00,1.2700,0.9510,2.0510,0.9770,2.7040,0,0.0000,0.0000,0.0000,0.0000,0.0000,0
10045,0.0003,-0.0163,0.0113,0.0003,0.0071,0.0004,-0.87,-0.03,0.14,0,4.138,0.130,0.385,-0.011,0.001,-0.016,1.000,0.000,0.000,0.000,0.0110,5,-5,0.00,0.00,0.00,0.0000,0.0000,0.0000,0.0000,0.0000,0.0000,0.0000,0.00,0.00,0.00,1.2700,0.9510,0.0000,0.9760,2.6990,0,0.0000,0.0000,0.0000,0.0000,0.0000,0
10096,0.0003,-0.0161,0.0112,-0.0002,0.0055,-0.0002,-0.49,0.03,0.15,0,4.133,0.339,0.030,0.038,0.002,-0.014,0.999,0.000,0.000,0.000,0.0110,0,-4,0.00,0.00,0.00,0.0000,0.0000,0.0000,0.0000,0.0000,0.0000,0.0000,0.00,0.00,0.00,1.2640,0.9510,0.0000,0.9760,2.6990,0,0.0000,0.0000,0.0000,0.0000,0.0000,0
10147,0.0001,-0.0251,0.0110,-0.0006,-0.0420,-0.0012,-0.51,-0.02,0.15,0,4.138,-0.166,0.190,0.254,0.001,-0.013,1.000,0.000,0.000,0.000,0.0110,-10,3,0.00,0.00,0.00,0.0000,0.0000,0.0000,0.0000,0.0000,0.0000,0.0000,0.00,0.00,0.00,1.2640,0.9500,2.1040,0.9720,2.7000,0,0.0000,0.0000,0.0000,0.0000,0.0000,0
10198,0.0009,-0.0258,0.0111,0.0042,-0.0373,-0.0013,-0.60,0.02,0.15,0,4.128,-0.066,0.134,0.140,0.001,-0.014,0.997,0.000,0.000,0.000,0.0100,0,7,0.00,0.00,0.00,0.0000,0.0000,0.0000,0.0000,0.0000,0.0000,0.0000,0.00,0.00,0.00,1.2680,0.9500,2.1040,0.9720,2.7000,0,0.0000,0.0000,0.0000,0.0000,0.0000,0
10249,0.0019,-0.0340,0.0103,0.0096,-0.0733,-0.0053,-0.24,0.02,0.15,0,4.138,-0.143,-0.117,0.247,-0.002,-0.012,1.000,0.000,0.000,0.000,0.0100,-6,-1,0.00,0.00,0.00,0.0000,0.0000,0.0000,0.0000,0.0000,0.0000,0.0000,0.00,0.00,0.00,1.2680,0.9540,2.0330,0.9790,2.7080,0,0.0000,0.0000,0.0000,0.0000,0.0000,0
10300,0.0011,-0.0345,0.0103,0.0044,-0.0606,-0.0039,-0.38,-0.14,0.15,0,4.133,-0.020,0.107,0.171,-0.000,-0.013,1.000,0.000,0.000,0.000,0.0100,-5,1,0.00,0.00,0.00,0.0000,0.0000,0.0000,0.0000,0.0000,0.0000,0.0000,0.00,0.00,0.00,1.2720,0.9540,2.0330,0.9790,2.7080,0,0.0000,0.0000,0.0000,0.0000,0.0000,0
10351,0.0039,-0.0320,0.0106,0.0168,-0.0339,-0.0010,-0.60,-0.07,0.15,0,4.133,0.131,0.046,-0.129,-0.001,-0.014,0.999,0.000,0.000,0.000,0.0100,8,-5,0.00,0.00,0.00,0.0000,0.0000,0.0000,0.0000,0.0000,0.0000,0.0000,0.00,0.00,0.00,1.2720,0.9510,2.0130,0.9810,2.7100,0,0.0000,0.0000,0.0000,0.0000,0.0000,0
10401,0.0039,-0.0312,0.0104,0.0133,-0.0222,-0.0015,-0.79,-0.08,0.14,0,4.133,-0.315,0.170,0.030,0.001,-0.014,0.999,0.000,0.000,0.000,0.0110,0,0,0.00,0.00,0.00,0.0000,0.0000,0.0000,0.0000,0.0000,0.0000,0.0000,0.00,0.00,0.00,1.2640,0.9510,2.0130,0.9810,2.7100,0,0.0000,0.0000,0.0000,0.0000,0.0000,0
10453,0.0042,-0.0311,0.0102,0.0109,-0.0165,-0.0023,-1.20,-0.07,0.14,0,4.138,-0.084,0.070,-0.089,-0.000,-0.015,1.001,0.000,0.000,0.000,0.0110,-1,9,0.00,0.00,0.00,0.0000,0.0000,0.0000,0.0000,0.0000,0.0000,0.0000,0.00,0.00,0.00,1.2640,0.9430,0.0000,0.9760,2.7060,0,0.0000,0.0000,0.0000,0.0000,0.0000,0
10504,0.0061,-0.0227,0.0107,0.0183,0.0279,0.0006,-0.94,-0.00,0.14,0,4.128,-0.096,-0.222,0.052,0.000,-0.012,0.998,0.000,0.000,0.000,0.0140,-3,2,0.00,0.00,0.00,0.0000,0.0000,0.0000,0.0000,0.0000,0.0000,0.0000,0.00,0.00,0.00,1.2690,0.9430,0.0000,0.9760,2.7060,0,0.0000,0.0000,0.0000,0.0000,0.0000,0
10555,0.0045,-0.0211,0.0110,0.0065,0.0327,0.0021,-1.08,0.04,0.15,0,4.138,0.011,0.149,-0.140,0.002,-0.013,0.997,0.000,0.000,0.000,0.0140,-3,-2,0.00,0.00,0.00,0.0000,0.0000,0.0000,0.0000,0.0000,0.0000,0.0000,0.00,0.00,0.00,1.2690,0.9560,0.0000,0.9770,2.7050,0,0.0000,0.0000,0.0000,0.0000,0.0000,0
10606,0.0041,-0.0206,0.0126,0.0030,0.0289,0.0084,-0.72,0.00,0.16,0,4.133,-0.220,-0.375,0.050,0.001,-0.016,1.000,0.000,0.000,0.000,0.0110,7,-1,0.00,0.00,0.00,0.0000,0.0000,0.0000,0.0000,0.0000,0.0000,0.0000,0.00,0.00,0.00,1.2730,0.9560,0.0000,0.9770,2.7050,0,0.0000,0.0000,0.0000,0.0000,0.0000,0
10657,0.0043,-0.0337,0.0123,0.0032,-0.0432,0.0050,-0.48,0.02,0.16,0,4.138,0.220,0.332,0.046,-0.001,-0.014,0.998,0.000,0.000,0.000,0.0110,0,-1,0.00,0.00,0.00,0.0000,0.0000,0.0000,0.0000,0.0000,0.0000,0.0000,0.00,0.00,0.00,1.2730,0.9540,0.0000,0.9750,2.7110,0,0.0000,0.0000,0.0000,0.0000,0.0000,0
10708,0.0045,-0.0346,0.0120,0.0031,-0.0381,0.0027,-0.52,0.02,0.16,0,4.133,0.041,-0.117,0.024,-0.000,-0.014,0.999,0.000,0.000,0.000,0.0130,6,0,0.00,0.00,0.00,0.0000,0.0000,0.0000,0.0000,0.0000,0.0000,0.0000,0.00,0.00,0.00,1.2690,0.9540,0.0000,0.9750,2.7110,0,0.0000,0.0000,0.0000,0.0000,0.0000,0
10759,0.0044,-0.0337,0.0118,0.0011,-0.0260,0.0008,-0.63,0.08,0.16,0,4.138,0.199,0.066,0.079,-0.001,-0.017,0.999,0.000,0.000,0.000,0.0130,5,-2,0.00,0.00,0.00,0.0000,0.0000,0.0000,0.0000,0.0000,0.0000,0.0000,0.00,0.00,0.00,1.2690,0.9550,0.0000,0.9730,2.7020,0,0.0000,0.0000,0.0000,0.0000,0.0000,0
10810,0.0046,-0.0339,0.0125,0.0014,-0.0207,0.0030,-0.85,0.04,0.16,0,4.133,0.230,-0.149,-0.115,0.001,-0.012,1.001,0.000,0.000,0.000,0.0100,-5,-9,0.00,0.00,0.00,0.0000,0.0000,0.0000,0.0000,0.0000,0.0000,0.0000,0.00,0.00,0.00,1.2650,0.9550,0.0000,0.9730,2.7020,0,0.0000,0.0000,0.0000,0.0000,0.0000,0
10861,0.0041,-0.0281,0.0114,-0.0020,0.0144,-0.0026,-0.97,-0.05,0.16,0,4.133,0.130,0.073,0.315,-0.002,-0.015,1.000,0.000,0.000,0.000,0.0100,0,-2,0.00,0.00,0.00,0.0000,0.0000,0.0000,0.0000,0.0000,0.0000,0.0000,0.00,0.00,0.00,1.2650,0.9550,0.0000,0.9730,2.7080,0,0.0000,0.0000,0.0000,0.0000,0.0000,0
10912,0.0062,-0.0279,0.0107,0.0076,0.0121,-0.0045,-1.00,0.05,0.16,0,4.133,0.168,0.080,-0.243,0.002,-0.016,1.000,0.000,0.000,0.000,0.0100,0,3,0.00,0.00,0.00,0.0000,0.0000,0.0000,0.0000,0.0000,0.0000,0.0000,0.00,0.00,0.00,1.2750,0.9550,0.0000,0.9730,2.7080,0,0.0000,0.0000,0.0000,0.0000,0.0000,0
10963,0.0068,-0.0273,0.0107,0.0101,0.0133,-0.0033,-0.92,-0.02,0.16,0,4.138,0.093,0.110,0.166,0.000,-0.013,1.001,0.000,0.000,0.000,0.0100,5,5,0.00,0.00,0.00,0.0000,0.0000,0.0000,0.0000,0.0000,0.0000,0.0000,0.00,0.00,0.00,1.2750,0.9600,0.0000,0.9810,2.7040,0,0.0000,0.0000,0.0000,0.0000,0.0000,0
11014,0.0064,-0.0279,0.0103,0.0060,0.0068,-0.0045,-0.83,0.07,0.16,0,4.133,0.063,0.009,-0.015,0.001,-0.013,0.998,0.000,0.000,0.000,0.0140,1,-4,0.00,0.00,0.00,0.0000,0.0000,0.0000,0.0000,0.0000,0.0000,0.0000,0.00,0.00,0.00,1.2680,0.9600,0.0000,0.9810,2.7040,0,0.0000,0.0000,0.0000,0.0000,0.0000,0
11066,0.0062,-0.0268,0.0115,0.0035,0.0120,0.0022,-0.89,0.02,0.16,0,4.138,0.035,-0.165,-0.052,-0.001,-0.013,1.000,0.000,0.000,0.000,0.0140,5,-5,0.00,0.00,0.00,0.0000,0.0000,0.0000,0.0000,0.0000,0.0000,0.0000,0.00,0.00,0.00,1.2680,0.9490,0.0000,0.9730,2.7080,0,0.0000,0.0000,0.0000,0.0000,0.0000,0
11117,0.0060,-0.0268,0.0128,0.0008,0.0099,0.0072,-0.90,0.01,0.16,0,4.133,-0.127,0.247,0.363,0.001,-0.014,0.999,0.000,0.000,0.000,0.0120,-3,0,0.00,0.00,0.00,0.0000,0.0000,0.0000,0.0000,0.0000,0.0000,0.0000,0.00,0.00,0.00,1.2670,0.9490,0.0000,0.9730,2.7080,0,0.0000,0.0000,0.0000,0.0000,0.0000,0
11168,0.0062,-0.0267,0.0132,0.0008,0.0090,0.0069,-0.89,0.05,0.16,0,4.138,-0.039,-0.099,0.015,0.001,-0.012,0.999,0.000,0.000,0.000,0.0120,-3,-6,0.00,0.00,0.00,0.0000,0.0000,0.0000,0.0000,0.0000,0.0000,0.0000,0.00,0.00,0.00,1.2670,0.9520,2.0580,0.9790,2.7010,0,0.0000,0.0000,0.0000,0.0000,0.0000,0
11220,0.0054,-0.0265,0.0130,-0.0042,0.0079,0.0041,-0.63,0.04,0.16,0,4.133,0.033,-0.125,-0.068,-0.001,-0.013,0.999,0.000,0.000,0.000,0.0120,-9,0,0.00,0.00,0.00,0.0000,0.0000,0.0000,0.0000,0.0000,0.0000,0.0000,0.00,0.00,0.00,1.2640,0.9520,2.0580,0.9790,2.7010,0,0.0000,0.0000,0.0000,0.0000,0.0000,0
11272,0.0056,-0.0320,0.0122,-0.0030,-0.0216,-0.0001,-0.71,0.03,0.17,0,4.138,-0.163,-0.125,0.129,0.002,-0.013,1.001,0.000,0.000,0.000,0.0120,0,0,0.00,0.00,0.00,0.0000,0.0000,0.0000,0.0000,0.0000,0.0000,0.0000,0.00,0.00,0.00,1.2640,0.9500,0.0000,0.9780,2.6950,0,0.0000,0.0000,0.0000,0.0000,0.0000,0
11323,0.0058,-0.0255,0.0124,-0.0014,0.0146,0.0007,-0.99,0.06,0.17,0,4.133,-0.175,-0.047,-0.200,0.001,-0.014,1.000,0.000,0.000,0.000,0.0080,8,-1,0.00,0.00,0.00,0.0000,0.0000,0.0000,0.0000,0.0000,0.0000,0.0000,0.00,0.00,0.00,1.2710,0.9500,0.0000,0.9780,2.6950,0,0.0000,0.0000,0.0000,0.0000,0.0000,0
11374,0.0056,-0.0237,0.0122,-0.0028,0.0210,-0.0002,-0.90,0.06,0.17,0,4.138,0.002,-0.194,-0.301,0.001,-0.013,1.000,0.000,0.000,0.000,0.0080,-4,0,0.00,0.00,0.00,0.0000,0.0000,0.0000,0.0000,0.0000,0.0000,0.0000,0.00,0.00,0.00,1.2710,0.9500,0.0000,0.9760,2.7060,0,0.0000,0.0000,0.0000,0.0000,0.0000,0
11425,0.0058,-0.0254,0.0103,-0.0010,0.0077,-0.0089,-0.84,0.06,0.16,0,4.133,0.179,0.111,-0.040,0.001,-0.012,0.999,0.000,0.000,0.000,0.0090,-3,0,0.00,0.00,0.00,0.0000,0.0000,0.0000,0.0000,0.0000,0.0000,0.0000,0.00,0.00,0.00,1.2680,0.9500,0.0000,0.9760,2.7060,0,0.0000,0.0000,0.0000,0.0000,0.0000,0
11476,0.0033,-0.0201,0.0112,-0.0137,0.0336,-0.0026,-1.26,0.09,0.17,0,4.138,0.183,-0.011,0.041,-0.000,-0.014,0.998,0.000,0.000,0.000,0.0090,-25,1,0.00,0.00,0.00,0.0000,0.0000,0.0000,0.0000,0.0000,0.0000,0.0000,0.00,0.00,0.00,1.2680,0.9520,0.0000,0.9760,2.7070,0,0.0000,0.0000,0.0000,0.0000,0.0000,0
11527,0.0041,-0.0145,0.0101,-0.0072,0.0533,-0.0072,-1.30,0.06,0.17,0,4.133,0.162,0.136,0.153,-0.002,-0.014,0.998,0.000,0.000,0.000,0.0100,3,0,0.00,0.00,0.00,0.0000,0.0000,0.0000,0.0000,0.0000,0.0000,0.0000,0.00,0.00,0.00,1.2660,0.9520,0.0000,0.9760,2.7070,0,0.0000,0.0000,0.0000,0.0000,0.0000,0
11577,0.0034,-0.0031,0.0097,-0.0098,0.1010,-0.0095,-1.35,0.12,0.17,0,4.138,-0.249,-0.263,0.347,0.001,-0.017,1.000,0.000,0.000,0.000,0.0100,0,0,0.00,0.00,0.00,0.0000,0.0000,0.0000,0.0000,0.0000,0.0000,0.0000,0.00,0.00,0.00,1.2660,0.9540,0.0000,0.9770,2.6950,0,0.0000,0.0000,0.0000,0.0000,0.0000,0
11629,0.0028,-0.0015,0.0098,-0.0111,0.0895,-0.0061,-1.27,0.07,0.17,0,4.133,0.077,-0.247,0.120,0.001,-0.017,1.001,0.000,0.000,0.000,0.0110,-1,-4,0.00,0.00,0.00,0.0000,0.0000,0.0000,0.0000,0.0000,0.0000,0.0000,0.00,0.00,0.00,1.2700,0.9540,0.0000,0.9770,2.6950,0,0.0000,0.0000,0.0000,0.0000,0.0000,0
11680,0.0020,-0.0019,0.0127,-0.0129,0.0677,0.0089,-1.14,0.07,0.17,0,4.138,-0.197,-0.041,-0.047,-0.001,-0.015,1.001,0.000,0.000,0.000,0.0110,-2,-1,0.00,0.00,0.00,0.0000,0.0000,0.0000,0.0000,0.0000,0.0000,0.0000,0.00,0.00,0.00,1.2700,0.9520,2.0000,0.9770,2.7020,0,0.0000,0.0000,0.0000,0.0000,0.0000,0
11731,0.0029,-0.0015,0.0125,-0.0067,0.0546,0.0072,-0.58,0.05,0.17,0,4.128,-0.011,-0.099,-0.208,-0.001,-0.012,0.999,0.000,0.000,0.000,0.0120,6,0,0.00,0.00,0.00,0.0000,0.0000,0.0000,0.0000,0.0000,0.0000,0.0000,0.00,0.00,0.00,1.2710,0.9520,2.0000,0.9770,2.7020,0,0.0000,0.0000,0.0000,0.0000,0.0000,0
11782,0.0021,-0.0045,0.0126,-0.0100,0.0309,0.0058,-0.87,0.10,0.17,0,4.133,0.070,-0.100,-0.108,-0.001,-0.014,1.001,0.000,0.000,0.000,0.0120,5,0,0.00,0.00,0.00,0.0000,0.0000,0.0000,0.0000,0.0000,0.0000,0.0000,0.00,0.00,0.00,1.2710,0.9520,2.0290,0.9740,2.7050,0,0.0000,0.0000,0.0000,0.0000,0.0000,0
11833,0.0049,-0.0056,0.0128,0.0060,0.0173,0.0056,-0.63,-0.02,0.17,0,4.133,0.027,-0.111,0.242,0.000,-0.013,1.000,0.000,0.000,0.000,0.0110,-2,6,0.00,0.00,0.00,0.0000,0.0000,0.0000,0.0000,0.0000,0.0000,0.0000,0.00,0.00,0.00,1.2730,0.9520,2.0290,0.9740,2.7050,0,0.0000,0.0000,0.0000,0.0000,0.0000,0
11884,0.0053,0.0007,0.0122,0.0068,0.0431,0.0007,-0.67,-0.01,0.17,0,4.133,-0.018,-0.043,-0.032,0.001,-0.013,1.000,0.000,0.000,0.000,0.0120,-3,-15,0.00,0.00,0.00,0.0000,0.0000,0.0000,0.0000,0.0000,0.0000,0.0000,0.00,0.00,0.00,1.2730,0.9490,2.0230,0.9810,2.7080,0,0.0000,0.0000,0.0000,0.0000,0.0000,0
11935,0.0043,-0.0034,0.0124,0.0011,0.0135,0.0021,-0.58,-0.03,0.17,0,4.133,0.078,0.147,0.203,0.002,-0.012,1.001,0.000,0.000,0.000,0.0100,-2,2,0.00,0.00,0.00,0.0000,0.0000,0.0000,0.0000,0.0000,0.0000,0.0000,0.00,0.00,0.00,1.2710,0.9490,2.0230,0.9810,2.7080,0,0.0000,0.0000,0.0000,0.0000,0.0000,0
11986,0.0049,0.0039,0.0128,0.0030,0.0470,0.0022,-1.14,-0.01,0.17,0,4.138,0.023,-0.058,-0.303,0.001,-0.015,1.000,0.000,0.000,0.000,0.0100,4,-3,0.00,0.00,0.00,0.0000,0.0000,0.0000,0.0000,0.0000,0.0000,0.0000,0.00,0.00,0.00,1.2710,0.9530,2.0560,0.9760,2.7020,0,0.0000,0.0000,0.0000,0.0000,0.0000,0
12037,0.0032,0.0175,0.0106,-0.0067,0.1028,-0.0096,-1.12,0.04,0.17,0,4.133,0.208,-0.254,0.055,0.003,-0.013,0.999,0.000,0.000,0.000,0.0090,-1,0,0.00,0.00,0.00,0.0000,0.0000,0.0000,0.0000,0.0000,0.0000,0.0000,0.00,0.00,0.00,1.2690,0.9530,2.0560,0.9760,2.7020,0,0.0000,0.0000,0.0000,0.0000,0.0000,0
12087,0.0040,0.0171,0.0111,-0.0016,0.0802,-0.0046,-1.11,0.05,0.17,0,4.138,-0.133,0.164,0.074,-0.001,-0.012,1.002,0.000,0.000,0.000,0.0090,6,-4,0.00,0.00,0.00,0.0000,0.0000,0.0000,0.0000,0.0000,0.0000,0.0000,0.00,0.00,0.00,1.2690,0.9510,0.0000,0.9740,2.7000,0,0.0000,0.0000,0.0000,0.0000,0.0000,0
12139,0.0030,0.0179,0.0101,-0.0066,0.0670,-0.0071,-0.76,0.05,0.17,0,4.133,0.228,-0.169,-0.128,0.001,-0.012,0.999,0.000,0.000,0.000,0.0100,-5,0,0.00,0.00,0.00,0.0000,0.0000,0.0000,0.0000,0.0000,0.0000,0.0000,0.00,0.00,0.00,1.2680,0.9510,0.0000,0.9740,2.7000,0,0.0000,0.0000,0.0000,0.0000,0.0000,0
12190,0.0053,0.0101,0.0112,0.0057,0.0123,0.0004,-0.50,0.02,0.17,0,4.138,-0.098,-0.133,-0.054,0.000,-0.014,0.998,0.000,0.000,0.000,0.0100,0,2,0.00,0.00,0.00,0.0000,0.0000,0.0000,0.0000,0.0000,0.0000,0.0000,0.00,0.00,0.00,1.2680,0.9610,0.0000,0.9740,2.6970,0,0.0000,0.0000,0.0000,0.0000,0.0000,0
12241,0.0053,0.0095,0.0106,0.0048,0.0036,-0.0021,-0.55,0.01,0.17,0,4.133,0.154,-0.077,0.146,0.002,-0.014,1.000,0.000,0.000,0.000,0.0130,-1,5,0.00,0.00,0.00,0.0000,0.0000,0.0000,0.0000,0.0000,0.0000,0.0000,0.00,0.00,0.00,1.2710,0.9610,0.0000,0.9740,2.6970,0,0.0000,0.0000,0.0000,0.0000,0.0000,0
12292,0.0059,0.0094,0.0117,0.0074,-0.0011,0.0033,-0.47,0.04,0.17,0,4.138,-0.066,0.012,0.109,0.002,-0.015,1.000,0.000,0.000,0.000,0.0110,-2,2,0.00,0.00,0.00,0.0000,0.0000,0.0000,0.0000,0.0000,0.0000,0.0000,0.00,0.00,0.00,1.2710,0.9520,0.0000,0.9790,2.7080,0,0.0000,0.0000,0.0000,0.0000,0.0000,0
12342,0.0057,0.0098,0.0116,0.0054,-0.0021,0.0023,-0.42,0.03,0.17,0,4.128,0.065,-0.159,0.216,0.001,-0.015,0.998,0.000,0.000,0.000,0.0110,2,-3,0.00,0.00,0.00,0.0000,0.0000,0.0000,0.0000,0.0000,0.0000,0.0000,0.00,0.00,0.00,1.2650,0.9520,0.0000,0.9790,2.7080,0,0.0000,0.0000,0.0000,0.0000,0.0000,0
12393,0.0045,0.0010,0.0106,-0.0015,-0.0505,-0.0034,-0.12,0.06,0.18,0,4.133,0.152,-0.110,-0.335,0.002,-0.012,1.001,0.000,0.000,0.000,0.0110,-4,-4,0.00,0.00,0.00,0.0000,0.0000,0.0000,0.0000,0.0000,0.0000,0.0000,0.00,0.00,0.00,1.2650,0.9490,0.0000,0.9770,2.7020,0,0.0000,0.0000,0.0000,0.0000,0.0000,0
12445,0.0043,0.0012,0.0109,-0.0023,-0.0407,-0.0015,-0.11,0.05,0.18,0,4.133,-0.113,0.204,0.101,0.002,-0.014,0.998,0.000,0.000,0.000,0.0090,2,-2,0.00,0.00,0.00,0.0000,0.0000,0.0000,0.0000,0.0000,0.0000,0.0000,0.00,0.00,0.00,1.2660,0.9490,0.0000,0.9770,2.7020,0,0.0000,0.0000,0.0000,0.0000,0.0000,0
12496,0.0031,-0.0027,0.0095,-0.0085,-0.0533,-0.0071,-0.23,0.17,0.19,0,4.138,-0.049,-0.095,-0.002,-0.001,-0.014,1.004,0.000,0.000,0.000,0.0090,4,3,0.00,0.00,0.00,0.0000,0.0000,0.0000,0.0000,0.0000,0.0000,0.0000,0.00,0.00,0.00,1.2660,0.9490,0.0000,0.9790,2.7070,0,0.0000,0.0000,0.0000,0.0000,0.0000,0
12547,0.0037,-0.0023,0.0091,-0.0037,-0.0424,-0.0065,-0.37,0.13,0.19,0,4.133,-0.007,-0.138,0.169,0.000,-0.015,1.000,0.000,0.000,0.000,0.0100,-3,-4,0.00,0.00,0.00,0.0000,0.0000,0.0000,0.0000,0.0000,0.0000,0.0000,0.00,0.00,0.00,1.2730,0.9490,0.0000,0.9790,2.7070,0,0.0000,0.0000,0.0000,0.0000,0.0000,0
12598,0.0031,-0.0030,0.0099,-0.0054,-0.0395,-0.0016,-0.43,0.09,0.19,0,4.138,-0.149,0.198,0.224,0.001,-0.014,0.999,0.000,0.000,0.000,0.0100,-5,0,0.00,0.00,0.00,0.0000,0.0000,0.0000,0.0000,0.0000,0.0000,0.0000,0.00,0.00,0.00,1.2730,0.9470,0.0000,0.9770,2.7020,0,0.0000,0.0000,0.0000,0.0000,0.0000,0
12650,0.0029,-0.0032,0.0099,-0.0054,-0.0333,-0.0012,-0.35,0.09,0.19,0,4.133,0.009,-0.098,-0.005,-0.001,-0.015,1.001,0.000,0.000,0.000,0.0120,-4,4,0.00,0.00,0.00,0.0000,0.0000,0.0000,0.0000,0.0000,0.0000,0.0000,0.00,0.00,0.00,1.2660,0.9470,0.0000,0.9770,2.7020,0,0.0000,0.0000,0.0000,0.0000,0.0000,0
12701,0.0029,-0.0028,0.0101,-0.0042,-0.0264,0.0000,-0.81,-0.02,0.19,0,4.133,-0.164,0.015,0.167,-0.000,-0.011,0.998,0.000,0.000,0.000,0.0120,7,-9,0.00,0.00,0.00,0.0000,0.0000,0.0000,0.0000,0.0000,0.0000,0.0000,0.00,0.00,0.00,1.2660,0.9490,0.0000,0.9760,2.7120,0,0.0000,0.0000,0.0000,0.0000,0.0000,0
12752,0.0036,0.0047,0.0112,-0.0012,0.0155,0.0047,-0.49,-0.02,0.18,0,4.133,-0.164,0.504,0.170,0.003,-0.013,1.001,0.000,0.000,0.000,0.0120,0,-2,0.00,0.00,0.00,0.0000,0.0000,0.0000,0.0000,0.0000,0.0000,0.0000,0.00,0.00,0.00,1.2660,0.9490,0.0000,0.9760,2.7120,0,0.0000,0.0000,0.0000,0.0000,0.0000,0
12803,0.0053,-0.0017,0.0116,0.0076,-0.0192,0.0052,-0.49,-0.02,0.18,0,4.133,0.106,0.214,-0.115,-0.002,-0.013,1.000,0.000,0.000,0.000,0.0120,0,-5,0.00,0.00,0.00,0.0000,0.0000,0.0000,0.0000,0.0000,0.0000,0.0000,0.00,0.00,0.00,1.2660,0.9510,0.0000,0.9730,2.7020,0,0.0000,0.0000,0.0000,0.0000,0.0000,0
12854,0.0051,0.0001,0.0122,0.0046,-0.0057,0.0067,-0.68,-0.02,0.18,0,4.133,-0.050,-0.091,0.359,0.001,-0.015,0.999,0.000,0.000,0.000,0.0120,1,0,0.00,0.00,0.00,0.0000,0.0000,0.0000,0.0000,0.0000,0.0000,0.0000,0.00,0.00,0.00,1.2730,0.9510,0.0000,0.9730,2.7020,0,0.0000,0.0000,0.0000,0.0000,0.0000,0
12905,0.0053,0.0003,0.0114,0.0043,-0.0053,0.0020,-0.65,0.04,0.19,0,4.138,-0.020,0.097,-0.134,-0.001,-0.014,0.999,0.000,0.000,0.000,0.0120,13,1,0.00,0.00,0.00,0.0000,0.0000,0.0000,0.0000,0.0000,0.0000,0.0000,0.00,0.00,0.00,1.2730,0.9590,2.0270,0.9800,2.7050,0,0.0000,0.0000,0.0000,0.0000,0.0000,0
12956,0.0053,0.0009,0.0118,0.0030,-0.0009,0.0035,-0.72,0.06,0.18,0,4.128,-0.025,0.127,-0.143,-0.000,-0.015,1.002,0.000,0.000,0.000,0.0100,1,0,0.00,0.00,0.00,0.0000,0.0000,0.0000,0.0000,0.0000,0.0000,0.0000,0.00,0.00,0.00,1.2660,0.9590,2.0270,0.9800,2.7050,0,0.0000,0.0000,0.0000,0.0000,0.0000,0
13007,0.0055,0.0005,0.0121,0.0031,-0.0031,0.0042,-0.74,0.05,0.18,0,4.133,-0.182,0.108,-0.092,0.000,-0.011,1.002,0.000,0.000,0.000,0.0100,7,-3,0.00,0.00,0.00,0.0000,0.0000,0.0000,0.0000,0.0000,0.0000,0.0000,0.00,0.00,0.00,1.2660,0.9510,2.0200,0.9750,2.7030,0,0.0000,0.0000,0.0000,0.0000,0.0000,0
13058,0.0058,0.0009,0.0113,0.0035,-0.0001,-0.0006,-0.58,0.01,0.18,0,4.133,-0.011,0.081,0.021,0.001,-0.013,1.003,0.000,0.000,0.000,0.0100,-2,0,0.00,0.00,0.00,0.0000,0.0000,0.0000,0.0000,0.0000,0.0000,0.0000,0.00,0.00,0.00,1.2740,0.9510,2.0200,0.9750,2.7030,0,0.0000,0.0000,0.0000,0.0000,0.0000,0
13109,0.0060,-0.0067,0.0100,0.0035,-0.0376,-0.0060,-0.45,0.02,0.18,0,4.138,-0.012,-0.251,-0.072,-0.001,-0.014,0.999,0.000,0.000,0.000,0.0100,-1,1,0.00,0.00,0.00,0.0000,0.0000,0.0000,0.0000,0.0000,0.0000,0.0000,0.00,0.00,0.00,1.2740,0.9580,2.0300,0.9750,2.7040,0,0.0000,0.0000,0.0000,0.0000,0.0000,0
13160,0.0064,-0.0064,0.0099,0.0041,-0.0292,-0.0050,-0.73,0.05,0.18,0,4.133,0.076,-0.065,-0.069,0.002,-0.015,1.002,0.000,0.000,0.000,0.0120,-5,0,0.00,0.00,0.00,0.0000,0.0000,0.0000,0.0000,0.0000,0.0000,0.0000,0.00,0.00,0.00,1.2660,0.9580,2.0300,0.9750,2.7040,0,0.0000,0.0000,0.0000,0.0000,0.0000,0
13211,0.0062,-0.0062,0.0114,0.0023,-0.0239,0.0025,-0.62,0.04,0.18,0,4.138,0.091,0.041,-0.016,0.002,-0.012,1.000,0.000,0.000,0.000,0.0120,3,0,0.00,0.00,0.00,0.0000,0.0000,0.0000,0.0000,0.0000,0.0000,0.0000,0.00,0.00,0.00,1.2660,0.9510,0.0000,0.9800,2.7080,0,0.0000,0.0000,0.0000,0.0000,0.0000,0
13262,0.0064,-0.0051,0.0119,0.0026,-0.0137,0.0040,-0.68,0.02,0.18,0,4.133,-0.007,-0.133,0.047,0.002,-0.014,0.999,0.000,0.000,0.000,0.0100,0,-1,0.00,0.00,0.00,0.0000,0.0000,0.0000,0.0000,0.0000,0.0000,0.0000,0.00,0.00,0.00,1.2690,0.9510,0.0000,0.9800,2.7080,0,0.0000,0.0000,0.0000,0.0000,0.0000,0
13314,0.0066,-0.0049,0.0116,0.0030,-0.0098,0.0024,-0.81,0.06,0.17,0,4.133,-0.136,0.140,0.321,0.000,-0.013,1.001,0.000,0.000,0.000,0.0100,-4,-1,0.00,0.00,0.00,0.0000,0.0000,0.0000,0.0000,0.0000,0.0000,0.0000,0.00,0.00,0.00,1.2690,0.9570,0.0000,0.9810,2.7070,0,0.0000,0.0000,0.0000,0.0000,0.0000,0
13366,0.0066,-0.0060,0.0110,0.0018,-0.0140,-0.0009,-0.69,0.06,0.17,0,4.133,-0.096,-0.426,-0.087,-0.002,-0.015,0.999,0.000,0.000,0.000,0.0100,0,0,0.00,0.00,0.00,0.0000,0.0000,0.0000,0.0000,0.0000,0.0000,0.0000,0.00,0.00,0.00,1.2670,0.9570,0.0000,0.9810,2.7070,0,0.0000,0.0000,0.0000,0.0000,0.0000,0
13417,0.0066,-0.0060,0.0105,0.0009,-0.0115,-0.0030,-0.74,0.08,0.17,0,4.133,-0.010,-0.079,0.047,-0.001,-0.014,1.000,0.000,0.000,0.000,0.0100,0,0,0.00,0.00,0.00,0.0000,0.0000,0.0000,0.0000,0.0000,0.0000,0.0000,0.00,0.00,0.00,1.2670,0.9570,0.0000,0.9770,2.7020,0,0.0000,0.0000,0.0000,0.0000,0.0000,0
13468,0.0063,-0.0055,0.0101,-0.0008,-0.0069,-0.0037,-0.78,0.09,0.18,0,4.133,-0.178,0.033,0.417,-0.000,-0.012,0.999,0.000,0.000,0.000,0.0090,4,0,0.00,0.00,0.00,0.0000,0.0000,0.0000,0.0000,0.0000,0.0000,0.0000,0.00,0.00,0.00,1.2680,0.9570,0.0000,0.9770,2.7020,0,0.0000,0.0000,0.0000,0.0000,0.0000,0
13519,0.0052,0.0010,0.0094,-0.0067,0.0287,-0.0066,-1.01,0.10,0.18,0,4.138,0.018,0.065,0.111,0.001,-0.016,0.999,0.000,0.000,0.000,0.0090,6,0,0.00,0.00,0.00,0.0000,0.0000,0.0000,0.0000,0.0000,0.0000,0.0000,0.00,0.00,0.00,1.2680,0.9550,0.0000,0.9720,2.7060,0,0.0000,0.0000,0.0000,0.0000,0.0000,0
13569,0.0054,0.0003,0.0090,-0.0051,0.0190,-0.0065,-0.76,0.06,0.18,0,4.133,0.215,0.021,0.019,0.001,-0.014,0.998,0.000,0.000,0.000,0.0140,-4,3,0.00,0.00,0.00,0.0000,0.0000,0.0000,0.0000,0.0000,0.0000,0.0000,0.00,0.00,0.00,1.2730,0.9550,0.0000,0.9720,2.7060,0,0.0000,0.0000,0.0000,0.0000,0.0000,0
13621,0.0063,-0.0004,0.0113,-0.0004,0.0135,0.0049,-1.07,0.12,0.19,0,4.133,-0.107,-0.180,0.105,-0.000,-0.015,1.001,0.000,0.000,0.000,0.0110,3,1,0.00,0.00,0.00,0.0000,0.0000,0.0000,0.0000,0.0000,0.0000,0.0000,0.00,0.00,0.00,1.2730,0.9530,0.0000,0.9780,2.7030,0,0.0000,0.0000,0.0000,0.0000,0.0000,0
13672,0.0052,0.0038,0.0113,-0.0051,0.0304,0.0039,-1.02,0.10,0.19,0,4.133,0.283,-0.339,-0.111,-0.002,-0.013,1.001,0.000,0.000,0.000,0.0130,5,1,0.00,0.00,0.00,0.0000,0.0000,0.0000,0.0000,0.0000,0.0000,0.0000,0.00,0.00,0.00,1.2720,0.9530,0.0000,0.9780,2.7030,0,0.0000,0.0000,0.0000,0.0000,0.0000,0
13723,0.0054,0.0042,0.0119,-0.0043,0.0264,0.0054,-0.80,0.10,0.19,0,4.133,-0.037,-0.040,-0.181,-0.001,-0.015,0.997,0.000,0.000,0.000,0.0130,0,-5,0.00,0.00,0.00,0.0000,0.0000,0.0000,0.0000,0.0000,0.0000,0.0000,0.00,0.00,0.00,1.2720,0.9480,1.9880,0.9730,2.7050,0,0.0000,0.0000,0.0000,0.0000,0.0000,0
13774,0.0048,-0.0028,0.0127,-0.0073,-0.0134,0.0076,-0.46,0.04,0.19,0,4.133,-0.049,0.055,0.256,-0.001,-0.014,1.000,0.000,0.000,0.000,0.0100,7,-1,0.00,0.00,0.00,0.0000,0.0000,0.0000,0.0000,0.0000,0.0000,0.0000,0.00,0.00,0.00,1.2760,0.9480,1.9880,0.9730,2.7050,0,0.0000,0.0000,0.0000,0.0000,0.0000,0
13824,0.0056,-0.0029,0.0135,-0.0027,-0.0095,0.0089,-0.61,0.06,0.18,0,4.138,-0.161,-0.296,-0.189,0.000,-0.015,0.998,0.000,0.000,0.000,0.0100,-7,2,0.00,0.00,0.00,0.0000,0.0000,0.0000,0.0000,0.0000,0.0000,0.0000,0.00,0.00,0.00,1.2760,0.9510,1.9950,0.9790,2.7020,0,0.0000,0.0000,0.0000,0.0000,0.0000,0
13876,0.0052,-0.0039,0.0121,-0.0049,-0.0122,0.0012,-0.74,0.10,0.19,0,4.138,0.235,-0.090,0.068,0.001,-0.013,1.000,0.000,0.000,0.000,0.0090,1,3,0.00,0.00,0.00,0.0000,0.0000,0.0000,0.0000,0.0000,0.0000,0.0000,0.00,0.00,0.00,1.2670,0.9510,1.9950,0.9790,2.7020,0,0.0000,0.0000,0.0000,0.0000,0.0000,0
13926,0.0050,0.0011,0.0110,-0.0045,0.0125,-0.0043,-0.82,0.07,0.19,0,4.133,0.132,0.036,0.047,0.000,-0.011,0.999,0.000,0.000,0.000,0.0090,-3,-3,0.00,0.00,0.00,0.0000,0.0000,0.0000,0.0000,0.0000,0.0000,0.0000,0.00,0.00,0.00,1.2670,0.9550,2.0300,0.9760,2.7020,0,0.0000,0.0000,0.0000,0.0000,0.0000,0
13977,0.0044,0.0012,0.0099,-0.0073,0.0116,-0.0082,-1.09,0.10,0.19,0,4.133,0.297,-0.129,-0.166,-0.000,-0.014,1.001,0.000,0.000,0.000,0.0080,17,-9,0.00,0.00,0.00,0.0000,0.0000,0.0000,0.0000,0.0000,0.0000,0.0000,0.00,0.00,0.00,1.2670,0.9550,2.0300,0.9760,2.7020,0,0.0000,0.0000,0.0000,0.0000,0.0000,0
14028,0.0031,0.0096,0.0105,-0.0120,0.0493,-0.0042,-0.93,0.01,0.18,0,4.138,0.065,0.010,-0.110,0.001,-0.014,0.999,0.000,0.000,0.000,0.0080,7,-3,0.00,0.00,0.00,0.0000,0.0000,0.0000,0.0000,0.0000,0.0000,0.0000,0.00,0.00,0.00,1.2670,0.9540,2.0620,0.9740,2.7080,0,0.0000,0.0000,0.0000,0.0000,0.0000,0
14080,0.0051,0.0064,0.0095,-0.0008,0.0240,-0.0072,-0.89,-0.00,0.19,0,4.133,-0.319,-0.060,0.213,-0.001,-0.017,0.999,0.000,0.000,0.000,0.0100,0,0,0.00,0.00,0.00,0.0000,0.0000,0.0000,0.0000,0.0000,0.0000,0.0000,0.00,0.00,0.00,1.2680,0.9540,2.0620,0.9740,2.7080,0,0.0000,0.0000,0.0000,0.0000,0.0000,0
14132,0.0051,0.0069,0.0095,-0.0017,0.0209,-0.0059,-0.84,-0.02,0.19,0,4.138,-0.203,0.110,0.145,0.003,-0.014,1.001,0.000,0.000,0.000,0.0100,0,-4,0.00,0.00,0.00,0.0000,0.0000,0.0000,0.0000,0.0000,0.0000,0.0000,0.00,0.00,0.00,1.2680,0.9500,1.9710,0.9760,2.7020,0,0.0000,0.0000,0.0000,0.0000,0.0000,0
14182,0.0047,0.0071,0.0095,-0.0042,0.0170,-0.0049,-0.58,-0.07,0.19,0,4.133,-0.127,0.037,0.112,0.001,-0.014,0.999,0.000,0.000,0.000,0.0120,14,6,0.00,0.00,0.00,0.0000,0.0000,0.0000,0.0000,0.0000,0.0000,0.0000,0.00,0.00,0.00,1.2730,0.9500,1.9710,0.9760,2.7020,0,0.0000,0.0000,0.0000,0.0000,0.0000,0
14234,0.0072,0.0026,0.0107,0.0087,-0.0088,0.0017,-0.57,0.06,0.19,0,4.138,0.048,-0.091,0.275,0.000,-0.011,1.000,0.000,0.000,0.000,0.0120,-4,0,0.00,0.00,0.00,0.0000,0.0000,0.0000,0.0000,0.0000,0.0000,0.0000,0.00,0.00,0.00,1.2730,0.9540,0.0000,0.9780,2.7020,0,0.0000,0.0000,0.0000,0.0000,0.0000,0
14286,0.0064,-0.0012,0.0115,0.0028,-0.0270,0.0051,-0.44,0.02,0.20,0,4.133,-0.072,-0.056,0.141,0.002,-0.014,1.000,0.000,0.000,0.000,0.0110,0,-1,0.00,0.00,0.00,0.0000,0.0000,0.0000,0.0000,0.0000,0.0000,0.0000,0.00,0.00,0.00,1.2750,0.9540,0.0000,0.9780,2.7020,0,0.0000,0.0000,0.0000,0.0000,0.0000,0
14337,0.0068,0.0003,0.0121,0.0040,-0.0130,0.0066,-0.64,0.01,0.20,0,4.133,0.049,-0.258,0.160,0.001,-0.012,1.000,0.000,0.000,0.000,0.0110,-1,2,0.00,0.00,0.00,0.0000,0.0000,0.0000,0.0000,0.0000,0.0000,0.0000,0.00,0.00,0.00,1.2750,0.9560,2.0220,0.9750,2.7020,0,0.0000,0.0000,0.0000,0.0000,0.0000,0
14387,0.0072,0.0002,0.0119,0.0055,-0.0107,0.0042,-0.68,0.03,0.20,0,4.133,-0.240,-0.105,0.116,0.003,-0.015,1.001,0.000,0.000,0.000,0.0110,0,0,0.00,0.00,0.00,0.0000,0.0000,0.0000,0.0000,0.0000,0.0000,0.0000,0.00,0.00,0.00,1.2700,0.9560,2.0220,0.9750,2.7020,0,0.0000,0.0000,0.0000,0.0000,0.0000,0
14439,0.0070,0.0071,0.0107,0.0036,0.0264,-0.0022,-0.98,0.03,0.20,0,4.133,0.045,-0.135,0.082,-0.001,-0.014,0.999,0.000,0.000,0.000,0.0110,9,-1,0.00,0.00,0.00,0.0000,0.0000,0.0000,0.0000,0.0000,0.0000,0.0000,0.00,0.00,0.00,1.2700,0.9430,2.0910,0.9730,2.6970,0,0.0000,0.0000,0.0000,0.0000,0.0000,0
14490,0.0070,0.0006,0.0111,0.0027,-0.0137,0.0002,-0.25,0.03,0.21,0,4.128,-0.199,-0.349,-0.021,0.001,-0.014,0.997,0.000,0.000,0.000,0.0110,-6,-1,0.00,0.00,0.00,0.0000,0.0000,0.0000,0.0000,0.0000,0.0000,0.0000,0.00,0.00,0.00,1.2670,0.9430,2.0910,0.9730,2.6970,0,0.0000,0.0000,0.0000,0.0000,0.0000,0
14541,0.0064,-0.0093,0.0103,-0.0008,-0.0601,-0.0039,-0.38,0.02,0.20,0,4.133,0.046,0.063,0.171,-0.000,-0.014,1.000,0.000,0.000,0.000,0.0110,-25,1,0.00,0.00,0.00,0.0000,0.0000,0.0000,0.0000,0.0000,0.0000,0.0000,0.00,0.00,0.00,1.2670,0.9460,2.0330,0.9800,2.7000,0,0.0000,0.0000,0.0000,0.0000,0.0000,0
14592,0.0066,-0.0091,0.0107,0.0004,-0.0484,-0.0014,-0.63,0.07,0.20,0,4.133,0.238,0.174,-0.199,0.000,-0.015,0.997,0.000,0.000,0.000,0.0100,-6,4,0.00,0.00,0.00,0.0000,0.0000,0.0000,0.0000,0.0000,0.0000,0.0000,0.00,0.00,0.00,1.2740,0.9460,2.0330,0.9800,2.7000,0,0.0000,0.0000,0.0000,0.0000,0.0000,0
14643,0.0064,-0.0072,0.0116,-0.0009,-0.0322,0.0025,-0.62,-0.08,0.20,0,4.133,-0.145,0.038,0.119,0.001,-0.015,0.999,0.000,0.000,0.000,0.0100,0,-8,0.00,0.00,0.00,0.0000,0.0000,0.0000,0.0000,0.0000,0.0000,0.0000,0.00,0.00,0.00,1.2740,0.9470,2.0370,0.9760,2.7140,0,0.0000,0.0000,0.0000,0.0000,0.0000,0
14694,0.0083,-0.0017,0.0111,0.0076,0.0028,-0.0003,-0.89,-0.06,0.20,0,4.133,0.045,-0.029,-0.049,0.001,-0.016,0.999,0.000,0.000,0.000,0.0110,3,0,0.00,0.00,0.00,0.0000,0.0000,0.0000,0.0000,0.0000,0.0000,0.0000,0.00,0.00,0.00,1.2660,0.9470,2.0370,0.9760,2.7140,0,0.0000,0.0000,0.0000,0.0000,0.0000,0
14745,0.0091,-0.0019,0.0116,0.0094,0.0013,0.0016,-0.77,-0.00,0.20,0,4.133,0.045,0.004,0.198,0.003,-0.013,0.999,0.000,0.000,0.000,0.0110,0,0,0.00,0.00,0.00,0.0000,0.0000,0.0000,0.0000,0.0000,0.0000,0.0000,0.00,0.00,0.00,1.2660,0.9600,2.0890,0.9780,2.7000,0,0.0000,0.0000,0.0000,0.0000,0.0000,0
14795,0.0092,-0.0025,0.0114,0.0076,-0.0029,0.0004,-0.76,-0.00,0.20,0,4.133,0.095,-0.159,-0.290,0.002,-0.016,0.998,0.000,0.000,0.000,0.0120,0,0,0.00,0.00,0.00,0.0000,0.0000,0.0000,0.0000,0.0000,0.0000,0.0000,0.00,0.00,0.00,1.2700,0.9600,2.0890,0.9780,2.7000,0,0.0000,0.0000,0.0000,0.0000,0.0000,0
14847,0.0092,-0.0025,0.0112,0.0061,-0.0031,-0.0010,-0.91,0.04,0.20,0,4.133,-0.220,0.124,0.043,-0.001,-0.014,0.998,0.000,0.000,0.000,0.0120,4,-7,0.00,0.00,0.00,0.0000,0.0000,0.0000,0.0000,0.0000,0.0000,0.0000,0.00,0.00,0.00,1.2700,0.9570,1.9110,0.9770,2.6990,0,0.0000,0.0000,0.0000,0.0000,0.0000,0
14898,0.0086,-0.0019,0.0117,0.0013,-0.0003,0.0009,-0.90,0.05,0.20,0,4.133,-0.254,0.011,0.200,0.002,-0.015,0.999,0.000,0.000,0.000,0.0090,0,0,0.00,0.00,0.00,0.0000,0.0000,0.0000,0.0000,0.0000,0.0000,0.0000,0.00,0.00,0.00,1.2710,0.9570,1.9110,0.9770,2.6990,0,0.0000,0.0000,0.0000,0.0000,0.0000,0
14949,0.0093,-0.0023,0.0110,0.0036,-0.0035,-0.0028,-0.76,0.01,0.20,0,4.133,-0.084,0.074,0.090,0.000,-0.013,0.999,0.000,0.000,0.000,0.0090,5,3,0.00,0.00,0.00,0.0000,0.0000,0.0000,0.0000,0.0000,0.0000,0.0000,0.00,0.00,0.00,1.2710,0.9530,0.0000,0.9740,2.7040,0,0.0000,0.0000,0.0000,0.0000,0.0000,0
15000,0.0102,-0.0017,0.0099,0.0072,0.0004,-0.0071,-0.89,0.02,0.21,0,4.133,0.014,0.018,0.010,0.001,-0.015,0.997,0.000,0.000,0.000,0.0090,0,0,0.00,0.00,0.00,0.0000,0.0000,0.0000,0.0000,0.0000,0.0000,0.0000,0.00,0.00,0.00,1.2720,0.9530,0.0000,0.9740,2.7040,0,0.0000,0.0000,0.0000,0.0000,0.0000,0
15051,0.0102,-0.0021,0.0113,0.0060,-0.0026,0.0007,-0.82,0.03,0.21,0,4.133,0.094,-0.037,-0.484,-0.001,-0.016,0.999,0.000,0.000,0.000,0.0090,-6,-3,0.00,0.00,0.00,0.0000,0.0000,0.0000,0.0000,0.0000,0.0000,0.0000,0.00,0.00,0.00,1.2720,0.9570,2.0560,0.9760,2.7100,0,0.0000,0.0000,0.0000,0.0000,0.0000,0
15101,0.0091,-0.0019,0.0102,-0.0011,-0.0019,-0.0042,-0.79,0.04,0.21,0,4.133,-0.114,0.032,0.095,0.001,-0.014,1.001,0.000,0.000,0.000,0.0130,0,-1,0.00,0.00,0.00,0.0000,0.0000,0.0000,0.0000,0.0000,0.0000,0.0000,0.00,0.00,0.00,1.2710,0.9570,2.0560,0.9760,2.7100,0,0.0000,0.0000,0.0000,0.0000,0.0000,0
15152,0.0091,-0.0026,0.0100,-0.0018,-0.0065,-0.0045,-0.64,0.02,0.20,0,4.133,0.094,0.074,-0.024,0.002,-0.014,0.997,0.000,0.000,0.000,0.0130,2,2,0.00,0.00,0.00,0.0000,0.0000,0.0000,0.0000,0.0000,0.0000,0.0000,0.00,0.00,0.00,1.2710,0.9470,0.0000,0.9750,2.7070,0,0.0000,0.0000,0.0000,0.0000,0.0000,0
15203,0.0107,-0.0014,0.0114,0.0059,0.0008,0.0025,-0.55,0.12,0.21,0,4.133,0.023,-0.085,-0.002,0.001,-0.012,1.000,0.000,0.000,0.000,0.0140,-15,1,0.00,0.00,0.00,0.0000,0.0000,0.0000,0.0000,0.0000,0.0000,0.0000,0.00,0.00,0.00,1.2740,0.9470,0.0000,0.9750,2.7070,0,0.0000,0.0000,0.0000,0.0000,0.0000,0
15255,0.0085,-0.0051,0.0134,-0.0057,-0.0162,0.0111,-0.89,0.07,0.21,0,4.133,0.185,0.171,0.011,-0.002,-0.013,0.999,0.000,0.000,0.000,0.0140,2,4,0.00,0.00,0.00,0.0000,0.0000,0.0000,0.0000,0.0000,0.0000,0.0000,0.00,0.00,0.00,1.2740,0.9530,2.0520,0.9770,2.7000,0,0.0000,0.0000,0.0000,0.0000,0.0000,0
15305,0.0087,-0.0027,0.0143,-0.0041,-0.0029,0.0128,-1.02,0.11,0.21,0,4.133,-0.127,0.065,0.153,-0.001,-0.013,0.998,0.000,0.000,0.000,0.0090,7,4,0.00,0.00,0.00,0.0000,0.0000,0.0000,0.0000,0.0000,0.0000,0.0000,0.00,0.00,0.00,1.2630,0.9530,2.0520,0.9770,2.7000,0,0.0000,0.0000,0.0000,0.0000,0.0000,0
15357,0.0085,0.0023,0.0133,-0.0040,0.0228,0.0054,-0.91,0.06,0.21,0,4.138,0.138,-0.148,0.044,-0.001,-0.014,0.999,0.000,0.000,0.000,0.0090,16,7,0.00,0.00,0.00,0.0000,0.0000,0.0000,0.0000,0.0000,0.0000,0.0000,0.00,0.00,0.00,1.2630,0.9500,0.0000,0.9760,2.7060,0,0.0000,0.0000,0.0000,0.0000,0.0000,0
15408,0.0091,0.0017,0.0116,-0.0001,0.0159,-0.0034,-0.82,0.10,0.21,0,4.133,-0.373,0.092,0.410,0.001,-0.015,1.001,0.000,0.000,0.000,0.0100,5,5,0.00,0.00,0.00,0.0000,0.0000,0.0000,0.0000,0.0000,0.0000,0.0000,0.00,0.00,0.00,1.2690,0.9500,0.0000,0.9760,2.7060,0,0.0000,0.0000,0.0000,0.0000,0.0000,0
15458,0.0089,-0.0012,0.0118,-0.0005,-0.0010,-0.0011,-0.45,0.05,0.21,0,4.133,-0.039,0.190,0.057,-0.001,-0.015,1.001,0.000,0.000,0.000,0.0100,4,-1,0.00,0.00,0.00,0.0000,0.0000,0.0000,0.0000,0.0000,0.0000,0.0000,0.00,0.00,0.00,1.2690,0.9490,2.0580,0.9760,2.7040,0,0.0000,0.0000,0.0000,0.0000,0.0000,0
15510,0.0091,-0.0106,0.0108,0.0004,-0.0482,-0.0054,-0.41,0.04,0.21,0,4.133,0.124,-0.021,0.084,0.001,-0.015,0.999,0.000,0.000,0.000,0.0130,-1,4,0.00,0.00,0.00,0.0000,0.0000,0.0000,0.0000,0.0000,0.0000,0.0000,0.00,0.00,0.00,1.2680,0.9490,2.0580,0.9760,2.7040,0,0.0000,0.0000,0.0000,0.0000,0.0000,0
15561,0.0095,-0.0104,0.0109,0.0021,-0.0368,-0.0038,-0.56,0.07,0.22,0,4.133,0.196,0.103,-0.113,0.002,-0.016,0.999,0.000,0.000,0.000,0.0130,-5,-3,0.00,0.00,0.00,0.0000,0.0000,0.0000,0.0000,0.0000,0.0000,0.0000,0.00,0.00,0.00,1.2680,0.9590,0.0000,0.9780,2.7150,0,0.0000,0.0000,0.0000,0.0000,0.0000,0
15611,0.0089,-0.0118,0.0118,-0.0010,-0.0371,0.0005,-0.67,0.06,0.22,0,4.128,-0.106,-0.151,0.012,-0.001,-0.013,0.999,0.000,0.000,0.000,0.0110,1,-2,0.00,0.00,0.00,0.0000,0.0000,0.0000,0.0000,0.0000,0.0000,0.0000,0.00,0.00,0.00,1.2680,0.9590,0.0000,0.9780,2.7150,0,0.0000,0.0000,0.0000,0.0000,0.0000,0
15663,0.0083,-0.0102,0.0110,-0.0050,-0.0214,-0.0032,-0.65,0.02,0.22,0,4.138,-0.001,-0.241,-0.181,0.001,-0.016,0.998,0.000,0.000,0.000,0.0110,-4,-2,0.00,0.00,0.00,0.0000,0.0000,0.0000,0.0000,0.0000,0.0000,0.0000,0.00,0.00,0.00,1.2680,0.9570,0.0000,0.9800,2.7100,0,0.0000,0.0000,0.0000,0.0000,0.0000,0
15714,0.0089,-0.0110,0.0109,-0.0015,-0.0209,-0.0029,-0.73,0.01,0.22,0,4.133,-0.141,-0.196,0.289,0.002,-0.014,0.999,0.000,0.000,0.000,0.0120,8,1,0.00,0.00,0.00,0.0000,0.0000,0.0000,0.0000,0.0000,0.0000,0.0000,0.00,0.00,0.00,1.2720,0.9570,0.0000,0.9800,2.7100,0,0.0000,0.0000,0.0000,0.0000,0.0000,0
15765,0.0093,-0.0102,0.0109,0.0005,-0.0117,-0.0023,-0.98,0.10,0.22,0,4.138,0.288,-0.189,-0.143,0.004,-0.014,0.998,0.000,0.000,0.000,0.0120,0,-2,0.00,0.00,0.00,0.0000,0.0000,0.0000,0.0000,0.0000,0.0000,0.0000,0.00,0.00,0.00,1.2720,0.9550,0.0000,0.9760,2.7130,0,0.0000,0.0000,0.0000,0.0000,0.0000,0
15815,0.0074,-0.0066,0.0115,-0.0088,0.0080,0.0009,-1.00,0.12,0.22,0,4.133,-0.070,0.092,0.070,0.000,-0.014,1.003,0.000,0.000,0.000,0.0110,-4,-4,0.00,0.00,0.00,0.0000,0.0000,0.0000,0.0000,0.0000,0.0000,0.0000,0.00,0.00,0.00,1.2680,0.9550,0.0000,0.9760,2.7130,0,0.0000,0.0000,0.0000,0.0000,0.0000,0
15867,0.0076,-0.0089,0.0124,-0.0062,-0.0064,0.0049,-0.76,0.07,0.22,0,4.138,-0.234,-0.098,0.301,0.001,-0.016,1.001,0.000,0.000,0.000,0.0110,16,-2,0.00,0.00,0.00,0.0000,0.0000,0.0000,0.0000,0.0000,0.0000,0.0000,0.00,0.00,0.00,1.2680,0.9540,0.0000,0.9760,2.7010,0,0.0000,0.0000,0.0000,0.0000,0.0000,0
15918,0.0080,-0.0099,0.0120,-0.0030,-0.0102,0.0022,-0.71,0.07,0.22,0,4.128,0.079,-0.234,-0.117,-0.000,-0.014,0.999,0.000,0.000,0.000,0.0140,0,2,0.00,0.00,0.00,0.0000,0.0000,0.0000,0.0000,0.0000,0.0000,0.0000,0.00,0.00,0.00,1.2680,0.9540,0.0000,0.9760,2.7010,0,0.0000,0.0000,0.0000,0.0000,0.0000,0
15969,0.0089,-0.0121,0.0116,0.0018,-0.0189,0.0005,-0.70,0.06,0.22,0,4.138,0.003,0.163,-0.051,0.000,-0.012,1.001,0.000,0.000,0.000,0.0140,-16,1,0.00,0.00,0.00,0.0000,0.0000,0.0000,0.0000,0.0000,0.0000,0.0000,0.00,0.00,0.00,1.2680,0.9530,0.0000,0.9730,2.7120,0,0.0000,0.0000,0.0000,0.0000,0.0000,0
16020,0.0084,-0.0124,0.0129,-0.0003,-0.0159,0.0059,-0.90,0.04,0.22,0,4.133,0.088,-0.443,0.055,-0.002,-0.016,0.998,0.000,0.000,0.000,0.0120,-4,1,0.00,0.00,0.00,0.0000,0.0000,0.0000,0.0000,0.0000,0.0000,0.0000,0.00,0.00,0.00,1.2680,0.9530,0.0000,0.9730,2.7120,0,0.0000,0.0000,0.0000,0.0000,0.0000,0
16070,0.0082,-0.0097,0.0122,-0.0016,-0.0010,0.0016,-1.10,-0.01,0.23,0,4.138,0.059,0.025,0.233,-0.000,-0.017,1.000,0.000,0.000,0.000,0.0120,-7,7,0.00,0.00,0.00,0.0000,0.0000,0.0000,0.0000,0.0000,0.0000,0.0000,0.00,0.00,0.00,1.2680,0.9510,0.0000,0.9770,2.7080,0,0.0000,0.0000,0.0000,0.0000,0.0000,0
16122,0.0107,-0.0039,0.0122,0.0116,0.0273,0.0004,-1.32,-0.06,0.23,0,4.128,-0.150,-0.190,0.093,0.001,-0.012,1.000,0.000,0.000,0.000,0.0080,2,-7,0.00,0.00,0.00,0.0000,0.0000,0.0000,0.0000,0.0000,0.0000,0.0000,0.00,0.00,0.00,1.2710,0.9510,0.0000,0.9770,2.7080,0,0.0000,0.0000,0.0000,0.0000,0.0000,0
16173,0.0110,0.0077,0.0120,0.0106,0.0801,-0.0010,-1.39,-0.04,0.23,0,4.138,0.189,0.044,0.163,-0.001,-0.015,0.999,0.000,0.000,0.000,0.0080,5,-1,0.00,0.00,0.00,0.0000,0.0000,0.0000,0.0000,0.0000,0.0000,0.0000,0.00,0.00,0.00,1.2710,0.9510,0.0000,0.9790,2.7040,0,0.0000,0.0000,0.0000,0.0000,0.0000,0
16225,0.0126,0.0075,0.0105,0.0164,0.0632,-0.0067,-0.90,-0.08,0.24,0,4.128,-0.342,0.125,0.411,0.001,-0.013,0.997,0.000,0.000,0.000,0.0100,2,-2,0.00,0.00,0.00,0.0000,0.0000,0.0000,0.0000,0.0000,0.0000,0.0000,0.00,0.00,0.00,1.2720,0.9510,0.0000,0.9790,2.7040,0,0.0000,0.0000,0.0000,0.0000,0.0000,0
16276,0.0124,-0.0004,0.0110,0.0117,0.0119,-0.0025,-0.56,-0.07,0.25,0,4.138,0.091,-0.020,-0.206,0.001,-0.017,1.001,0.000,0.000,0.000,0.0100,10,4,0.00,0.00,0.00,0.0000,0.0000,0.0000,0.0000,0.0000,0.0000,0.0000,0.00,0.00,0.00,1.2720,0.9530,1.9260,0.9750,2.7030,0,0.0000,0.0000,0.0000,0.0000,0.0000,0
16327,0.0137,-0.0075,0.0104,0.0155,-0.0268,-0.0041,-0.45,-0.01,0.25,0,4.133,-0.065,-0.298,-0.287,0.000,-0.014,1.001,0.000,0.000,0.000,0.0110,-1,0,0.00,0.00,0.00,0.0000,0.0000,0.0000,0.0000,0.0000,0.0000,0.0000,0.00,0.00,0.00,1.2670,0.9530,1.9260,0.9750,2.7030,0,0.0000,0.0000,0.0000,0.0000,0.0000,0
16377,0.0129,-0.0088,0.0101,0.0082,-0.0276,-0.0046,-0.57,0.01,0.24,0,4.138,-0.131,-0.248,-0.033,0.002,-0.014,0.996,0.000,0.000,0.000,0.0110,6,-1,0.00,0.00,0.00,0.0000,0.0000,0.0000,0.0000,0.0000,0.0000,0.0000,0.00,0.00,0.00,1.2670,0.9480,0.0000,0.9760,2.7110,0,0.0000,0.0000,0.0000,0.0000,0.0000,0
16428,0.0155,-0.0101,0.0106,0.0193,-0.0269,-0.0016,-0.47,-0.10,0.24,0,4.128,0.206,-0.130,-0.041,0.001,-0.014,1.002,0.000,0.000,0.000,0.0110,3,1,0.00,0.00,0.00,0.0000,0.0000,0.0000,0.0000,0.0000,0.0000,0.0000,0.00,0.00,0.00,1.2730,0.9480,0.0000,0.9760,2.7110,0,0.0000,0.0000,0.0000,0.0000,0.0000,0
16480,0.0150,-0.0039,0.0102,0.0125,0.0097,-0.0031,-0.84,-0.06,0.24,0,4.138,-0.049,-0.153,-0.208,0.000,-0.014,1.000,0.000,0.000,0.000,0.0110,-3,5,0.00,0.00,0.00,0.0000,0.0000,0.0000,0.0000,0.0000,0.0000,0.0000,0.00,0.00,0.00,1.2730,0.9560,0.0000,0.9760,2.7030,0,0.0000,0.0000,0.0000,0.0000,0.0000,0
16531,0.0165,-0.0041,0.0105,0.0171,0.0066,-0.0016,-0.85,0.02,0.24,0,4.128,0.066,0.160,0.056,-0.000,-0.014,1.000,0.000,0.000,0.000,0.0110,-2,0,0.00,0.00,0.00,0.0000,0.0000,0.0000,0.0000,0.0000,0.0000,0.0000,0.00,0.00,0.00,1.2700,0.9560,0.0000,0.9760,2.7030,0,0.0000,0.0000,0.0000,0.0000,0.0000,0
16582,0.0159,-0.0043,0.0112,0.0104,0.0036,0.0015,-0.78,0.03,0.24,0,4.138,0.335,0.037,-0.040,-0.001,-0.014,1.001,0.000,0.000,0.000,0.0110,11,-6,0.00,0.00,0.00,0.0000,0.0000,0.0000,0.0000,0.0000,0.0000,0.0000,0.00,0.00,0.00,1.2700,0.9380,2.0160,0.9760,2.7070,0,0.0000,0.0000,0.0000,0.0000,0.0000,0
16632,0.0155,-0.0045,0.0112,0.0061,0.0015,0.0011,-0.64,0.01,0.24,0,4.133,0.115,-0.320,0.378,0.001,-0.014,1.000,0.000,0.000,0.000,0.0160,0,1,0.00,0.00,0.00,0.0000,0.0000,0.0000,0.0000,0.0000,0.0000,0.0000,0.00,0.00,0.00,1.2630,0.9380,2.0160,0.9760,2.7070,0,0.0000,0.0000,0.0000,0.0000,0.0000,0
16683,0.0163,-0.0041,0.0102,0.0080,0.0047,-0.0037,-0.81,0.03,0.24,0,4.138,-0.007,-0.017,0.022,-0.001,-0.012,1.001,0.000,0.000,0.000,0.0160,6,-5,0.00,0.00,0.00,0.0000,0.0000,0.0000,0.0000,0.0000,0.0000,0.0000,0.00,0.00,0.00,1.2630,0.9540,0.0000,0.9760,2.7020,0,0.0000,0.0000,0.0000,0.0000,0.0000,0
16735,0.0159,-0.0031,0.0130,0.0034,0.0094,0.0097,-0.81,0.11,0.25,0,4.128,-0.120,-0.118,-0.127,0.001,-0.013,0.998,0.000,0.000,0.000,0.0100,-9,0,0.00,0.00,0.00,0.0000,0.0000,0.0000,0.0000,0.0000,0.0000,0.0000,0.00,0.00,0.00,1.2710,0.9540,0.0000,0.9760,2.7020,0,0.0000,0.0000,0.0000,0.0000,0.0000,0
16785,0.0163,-0.0049,0.0120,0.0045,-0.0021,0.0033,-0.83,0.08,0.25,0,4.138,-0.194,0.298,0.099,0.002,-0.014,0.998,0.000,0.000,0.000,0.0100,-3,-3,0.00,0.00,0.00,0.0000,0.0000,0.0000,0.0000,0.0000,0.0000,0.0000,0.00,0.00,0.00,1.2710,0.9560,0.0000,0.9740,2.7010,0,0.0000,0.0000,0.0000,0.0000,0.0000,0
16836,0.0163,-0.0049,0.0112,0.0030,-0.0021,-0.0012,-0.77,0.05,0.25,0,4.128,-0.031,-0.120,0.088,0.001,-0.015,1.000,0.000,0.000,0.000,0.0130,4,-5,0.00,0.00,0.00,0.0000,0.0000,0.0000,0.0000,0.0000,0.0000,0.0000,0.00,0.00,0.00,1.2670,0.9560,0.0000,0.9740,2.7010,0,0.0000,0.0000,0.0000,0.0000,0.0000,0
16888,0.0153,-0.0037,0.0116,-0.0038,0.0035,0.0013,-0.82,0.11,0.25,0,4.138,-0.001,-0.206,0.088,0.002,-0.016,1.001,0.000,0.000,0.000,0.0130,10,-2,0.00,0.00,0.00,0.0000,0.0000,0.0000,0.0000,0.0000,0.0000,0.0000,0.00,0.00,0.00,1.2670,0.9500,2.0670,0.9820,2.7030,0,0.0000,0.0000,0.0000,0.0000,0.0000,0
16939,0.0163,-0.0030,0.0124,0.0019,0.0058,0.0043,-0.72,0.07,0.25,0,4.128,0.088,-0.124,0.168,-0.000,-0.011,1.000,0.000,0.000,0.000,0.0120,5,4,0.00,0.00,0.00,0.0000,0.0000,0.0000,0.0000,0.0000,0.0000,0.0000,0.00,0.00,0.00,1.2670,0.9500,2.0670,0.9820,2.7030,0,0.0000,0.0000,0.0000,0.0000,0.0000,0
16989,0.0159,-0.0048,0.0120,-0.0011,-0.0029,0.0016,-0.79,0.14,0.25,0,4.138,0.045,-0.118,0.107,0.002,-0.013,1.001,0.000,0.000,0.000,0.0120,24,5,0.00,0.00,0.00,0.0000,0.0000,0.0000,0.0000,0.0000,0.0000,0.0000,0.00,0.00,0.00,1.2670,0.9530,0.0000,0.9750,2.6970,0,0.0000,0.0000,0.0000,0.0000,0.0000,0
17041,0.0151,-0.0031,0.0121,-0.0051,0.0067,0.0017,-0.61,0.18,0.24,0,4.128,-0.008,0.041,0.050,0.001,-0.013,0.999,0.000,0.000,0.000,0.0110,5,3,0.00,0.00,0.00,0.0000,0.0000,0.0000,0.0000,0.0000,0.0000,0.0000,0.00,0.00,0.00,1.2710,0.9530,0.0000,0.9750,2.6970,0,0.0000,0.0000,0.0000,0.0000,0.0000,0
17092,0.0141,-0.0112,0.0112,-0.0088,-0.0340,-0.0027,-0.66,0.22,0.24,0,4.138,-0.009,0.020,0.313,0.001,-0.015,1.000,0.000,0.000,0.000,0.0110,14,-4,0.00,0.00,0.00,0.0000,0.0000,0.0000,0.0000,0.0000,0.0000,0.0000,0.00,0.00,0.00,1.2710,0.9460,0.0000,0.9740,2.7010,0,0.0000,0.0000,0.0000,0.0000,0.0000,0
17142,0.0115,-0.0105,0.0111,-0.0202,-0.0264,-0.0024,-0.46,0.19,0.24,0,4.128,0.079,0.115,-0.110,0.001,-0.013,1.000,0.000,0.000,0.000,0.0120,6,1,0.00,0.00,0.00,0.0000,0.0000,0.0000,0.0000,0.0000,0.0000,0.0000,0.00,0.00,0.00,1.2640,0.9460,0.0000,0.9740,2.7010,0,0.0000,0.0000,0.0000,0.0000,0.0000,0
17194,0.0129,-0.0141,0.0110,-0.0091,-0.0392,-0.0020,-0.60,0.13,0.24,0,4.138,0.170,-0.003,0.033,0.000,-0.014,1.001,0.000,0.000,0.000,0.0120,-1,0,0.00,0.00,0.00,0.0000,0.0000,0.0000,0.0000,0.0000,0.0000,0.0000,0.00,0.00,0.00,1.2640,0.9550,2.0770,0.9800,2.7070,0,0.0000,0.0000,0.0000,0.0000,0.0000,0
17244,0.0116,-0.0139,0.0116,-0.0141,-0.0302,0.0010,-0.53,0.11,0.24,0,4.128,0.216,-0.032,0.042,0.001,-0.014,1.000,0.000,0.000,0.000,0.0120,-1,-2,0.00,0.00,0.00,0.0000,0.0000,0.0000,0.0000,0.0000,0.0000,0.0000,0.00,0.00,0.00,1.2710,0.9550,2.0770,0.9800,2.7070,0,0.0000,0.0000,0.0000,0.0000,0.0000,0
17296,0.0112,-0.0140,0.0124,-0.0145,-0.0241,0.0045,-0.64,0.08,0.24,0,4.138,0.145,0.278,0.241,0.001,-0.014,1.001,0.000,0.000,0.000,0.0120,6,0,0.00,0.00,0.00,0.0000,0.0000,0.0000,0.0000,0.0000,0.0000,0.0000,0.00,0.00,0.00,1.2710,0.9510,0.0000,0.9780,2.7000,0,0.0000,0.0000,0.0000,0.0000,0.0000,0
17347,0.0119,-0.0140,0.0125,-0.0084,-0.0193,0.0042,-0.62,0.13,0.24,0,4.128,-0.120,0.020,-0.043,0.001,-0.016,1.000,0.000,0.000,0.000,0.0150,1,0,0.00,0.00,0.00,0.0000,0.0000,0.0000,0.0000,0.0000,0.0000,0.0000,0.00,0.00,0.00,1.2720,0.9510,0.0000,0.9780,2.7000,0,0.0000,0.0000,0.0000,0.0000,0.0000,0
17398,0.0134,-0.0190,0.0125,0.0017,-0.0410,0.0034,-0.51,0.04,0.24,0,4.138,0.060,0.115,0.027,0.002,-0.015,0.997,0.000,0.000,0.000,0.0150,22,9,0.00,0.00,0.00,0.0000,0.0000,0.0000,0.0000,0.0000,0.0000,0.0000,0.00,0.00,0.00,1.2720,0.9550,0.0000,0.9750,2.7080,0,0.0000,0.0000,0.0000,0.0000,0.0000,0
17449,0.0131,-0.0194,0.0140,0.0006,-0.0347,0.0086,-0.06,0.07,0.23,0,4.128,-0.207,-0.059,0.160,-0.002,-0.015,1.001,0.000,0.000,0.000,0.0120,-1,-3,0.00,0.00,0.00,0.0000,0.0000,0.0000,0.0000,0.0000,0.0000,0.0000,0.00,0.00,0.00,1.2700,0.9550,0.0000,0.9750,2.7080,0,0.0000,0.0000,0.0000,0.0000,0.0000,0
17499,0.0104,-0.0347,0.0142,-0.0135,-0.1023,0.0062,-0.19,0.10,0.24,0,4.133,-0.075,0.189,-0.137,0.000,-0.013,1.000,0.000,0.000,0.000,0.0120,27,1,0.00,0.00,0.00,0.0000,0.0000,0.0000,0.0000,0.0000,0.0000,0.0000,0.00,0.00,0.00,1.2700,0.9510,0.0000,0.9770,2.7000,0,0.0000,0.0000,0.0000,0.0000,0.0000,0
17551,0.0115,-0.0355,0.0139,-0.0059,-0.0857,0.0037,-0.04,0.09,0.23,0,4.133,0.063,-0.250,-0.128,0.000,-0.012,0.999,0.000,0.000,0.000,0.0100,-3,-2,0.00,0.00,0.00,0.0000,0.0000,0.0000,0.0000,0.0000,0.0000,0.0000,0.00,0.00,0.00,1.2660,0.9510,0.0000,0.9770,2.7000,0,0.0000,0.0000,0.0000,0.0000,0.0000,0
17601,0.0111,-0.0443,0.0124,-0.0066,-0.1104,-0.0047,-0.18,0.07,0.23,0,4.138,-0.155,-0.084,0.004,0.001,-0.013,1.002,0.000,0.000,0.000,0.0100,4,-9,0.00,0.00,0.00,0.0000,0.0000,0.0000,0.0000,0.0000,0.0000,0.0000,0.00,0.00,0.00,1.2660,0.9510,0.0000,0.9760,2.7050,0,0.0000,0.0000,0.0000,0.0000,0.0000,0
17652,0.0105,-0.0417,0.0117,-0.0089,-0.0780,-0.0057,-0.47,0.03,0.23,0,4.128,-0.170,-0.055,0.275,0.000,-0.015,0.999,0.000,0.000,0.000,0.0120,4,0,0.00,0.00,0.00,0.0000,0.0000,0.0000,0.0000,0.0000,0.0000,0.0000,0.00,0.00,0.00,1.2690,0.9510,0.0000,0.9760,2.7050,0,0.0000,0.0000,0.0000,0.0000,0.0000,0
17703,0.0108,-0.0416,0.0090,-0.0073,-0.0607,-0.0162,-0.60,0.09,0.23,0,4.133,0.072,-0.088,0.305,-0.001,-0.013,1.001,0.000,0.000,0.000,0.0120,-6,0,0.00,0.00,0.00,0.0000,0.0000,0.0000,0.0000,0.0000,0.0000,0.0000,0.00,0.00,0.00,1.2690,0.9540,0.0000,0.9720,2.7070,0,0.0000,0.0000,0.0000,0.0000,0.0000,0
17755,0.0113,-0.0427,0.0098,-0.0034,-0.0522,-0.0089,-0.50,0.04,0.23,0,4.128,-0.074,-0.013,0.144,0.000,-0.011,1.001,0.000,0.000,0.000,0.0090,10,8,0.00,0.00,0.00,0.0000,0.0000,0.0000,0.0000,0.0000,0.0000,0.0000,0.00,0.00,0.00,1.2730,0.9540,0.0000,0.9720,2.7070,0,0.0000,0.0000,0.0000,0.0000,0.0000,0
17806,0.0137,-0.0478,0.0097,0.0106,-0.0654,-0.0074,-0.52,0.05,0.23,0,4.138,0.062,-0.325,0.141,-0.000,-0.015,1.001,0.000,0.000,0.000,0.0090,7,2,0.00,0.00,0.00,0.0000,0.0000,0.0000,0.0000,0.0000,0.0000,0.0000,0.00,0.00,0.00,1.2730,0.9510,2.0000,0.9760,2.7040,0,0.0000,0.0000,0.0000,0.0000,0.0000,0
17857,0.0116,-0.0489,0.0093,-0.0022,-0.0565,-0.0070,-0.59,0.07,0.23,0,4.133,-0.030,0.042,0.088,-0.001,-0.016,0.999,0.000,0.000,0.000,0.0120,0,6,0.00,0.00,0.00,0.0000,0.0000,0.0000,0.0000,0.0000,0.0000,0.0000,0.00,0.00,0.00,1.2640,0.9510,2.0000,0.9760,2.7040,0,0.0000,0.0000,0.0000,0.0000,0.0000,0
17908,0.0129,-0.0493,0.0091,0.0062,-0.0446,-0.0059,-0.78,-0.01,0.23,0,4.138,-0.082,-0.283,0.120,0.002,-0.013,0.999,0.000,0.000,0.000,0.0120,-3,2,0.00,0.00,0.00,0.0000,0.0000,0.0000,0.0000,0.0000,0.0000,0.0000,0.00,0.00,0.00,1.2640,0.9480,0.0000,0.9810,2.7010,0,0.0000,0.0000,0.0000,0.0000,0.0000,0
17960,0.0129,-0.0499,0.0103,0.0059,-0.0370,0.0008,-0.84,0.06,0.23,0,4.128,0.220,0.099,0.119,0.001,-0.015,1.000,0.000,0.000,0.000,0.0100,-2,3,0.00,0.00,0.00,0.0000,0.0000,0.0000,0.0000,0.0000,0.0000,0.0000,0.00,0.00,0.00,1.2700,0.9480,0.0000,0.9810,2.7010,0,0.0000,0.0000,0.0000,0.0000,0.0000,0
18011,0.0119,-0.0504,0.0112,0.0006,-0.0300,0.0047,-0.88,0.06,0.23,0,4.138,-0.005,0.318,0.131,-0.001,-0.013,1.001,0.000,0.000,0.000,0.0100,-2,1,0.00,0.00,0.00,0.0000,0.0000,0.0000,0.0000,0.0000,0.0000,0.0000,0.00,0.00,0.00,1.2700,0.9550,2.0760,0.9740,2.7020,0,0.0000,0.0000,0.0000,0.0000,0.0000,0
18062,0.0110,-0.0526,0.0109,-0.0051,-0.0328,0.0025,-0.88,0.07,0.23,0,4.128,-0.143,-0.038,0.148,0.003,-0.015,0.999,0.000,0.000,0.000,0.0120,-7,0,0.00,0.00,0.00,0.0000,0.0000,0.0000,0.0000,0.0000,0.0000,0.0000,0.00,0.00,0.00,1.2770,0.9550,2.0760,0.9740,2.7020,0,0.0000,0.0000,0.0000,0.0000,0.0000,0
18113,0.0107,-0.0525,0.0111,-0.0052,-0.0243,0.0032,-0.94,0.06,0.22,0,4.138,0.131,-0.089,0.194,-0.000,-0.016,0.999,0.000,0.000,0.000,0.0120,0,-3,0.00,0.00,0.00,0.0000,0.0000,0.0000,0.0000,0.0000,0.0000,0.0000,0.00,0.00,0.00,1.2770,0.9500,2.0400,0.9790,2.7050,0,0.0000,0.0000,0.0000,0.0000,0.0000,0
18163,0.0109,-0.0519,0.0117,-0.0035,-0.0155,0.0049,-0.93,0.03,0.22,0,4.133,-0.003,-0.400,-0.092,0.001,-0.016,1.001,0.000,0.000,0.000,0.0120,-3,-7,0.00,0.00,0.00,0.0000,0.0000,0.0000,0.0000,0.0000,0.0000,0.0000,0.00,0.00,0.00,1.2780,0.9500,2.0400,0.9790,2.7050,0,0.0000,0.0000,0.0000,0.0000,0.0000,0
18215,0.0101,-0.0521,0.0116,-0.0070,-0.0115,0.0037,-1.03,0.09,0.22,0,4.138,-0.028,0.063,0.547,0.000,-0.014,1.001,0.000,0.000,0.000,0.0120,5,-3,0.00,0.00,0.00,0.0000,0.0000,0.0000,0.0000,0.0000,0.0000,0.0000,0.00,0.00,0.00,1.2780,0.9510,2.0530,0.9780,2.6970,0,0.0000,0.0000,0.0000,0.0000,0.0000,0
18266,0.0109,-0.0518,0.0120,-0.0018,-0.0063,0.0046,-0.98,0.01,0.23,0,4.128,0.024,-0.334,-0.162,0.000,-0.013,0.999,0.000,0.000,0.000,0.0110,-6,-2,0.00,0.00,0.00,0.0000,0.0000,0.0000,0.0000,0.0000,0.0000,0.0000,0.00,0.00,0.00,1.2670,0.9510,2.0530,0.9780,2.6970,0,0.0000,0.0000,0.0000,0.0000,0.0000,0
18317,0.0111,-0.0522,0.0127,-0.0006,-0.0049,0.0068,-1.05,0.03,0.22,0,4.138,0.136,0.056,0.366,-0.000,-0.012,1.001,0.000,0.000,0.000,0.0110,0,0,0.00,0.00,0.00,0.0000,0.0000,0.0000,0.0000,0.0000,0.0000,0.0000,0.00,0.00,0.00,1.2670,0.9580,0.0000,0.9800,2.7000,0,0.0000,0.0000,0.0000,0.0000,0.0000,0
18368,0.0106,-0.0516,0.0122,-0.0024,-0.0001,0.0027,-0.74,0.01,0.23,0,4.128,0.094,-0.208,0.350,0.000,-0.015,1.000,0.000,0.000,0.000,0.0110,0,0,0.00,0.00,0.00,0.0000,0.0000,0.0000,0.0000,0.0000,0.0000,0.0000,0.00,0.00,0.00,1.2720,0.9580,0.0000,0.9800,2.7000,0,0.0000,0.0000,0.0000,0.0000,0.0000,0
18418,0.0127,-0.0612,0.0112,0.0084,-0.0472,-0.0028,-0.63,-0.04,0.24,0,4.138,-0.108,0.096,0.343,-0.000,-0.013,1.001,0.000,0.000,0.000,0.0110,2,-2,0.00,0.00,0.00,0.0000,0.0000,0.0000,0.0000,0.0000,0.0000,0.0000,0.00,0.00,0.00,1.2720,0.9530,1.9850,0.9780,2.7030,0,0.0000,0.0000,0.0000,0.0000,0.0000,0
18470,0.0126,-0.0634,0.0109,0.0059,-0.0477,-0.0036,-0.58,-0.07,0.25,0,4.133,0.165,0.006,-0.347,0.002,-0.011,1.000,0.000,0.000,0.000,0.0140,3,0,0.00,0.00,0.00,0.0000,0.0000,0.0000,0.0000,0.0000,0.0000,0.0000,0.00,0.00,0.00,1.2740,0.9530,1.9850,0.9780,2.7030,0,0.0000,0.0000,0.0000,0.0000,0.0000,0
18522,0.0132,-0.0623,0.0131,0.0078,-0.0312,0.0078,-0.85,-0.02,0.24,0,4.133,0.225,-0.113,0.011,0.002,-0.013,0.998,0.000,0.000,0.000,0.0140,-3,-4,0.00,0.00,0.00,0.0000,0.0000,0.0000,0.0000,0.0000,0.0000,0.0000,0.00,0.00,0.00,1.2740,0.9560,0.0000,0.9730,2.7010,0,0.0000,0.0000,0.0000,0.0000,0.0000,0
18573,0.0130,-0.0629,0.0140,0.0057,-0.0273,0.0091,-0.89,0.00,0.24,0,4.128,-0.010,0.172,-0.061,0.001,-0.014,0.998,0.000,0.000,0.000,0.0110,1,-4,0.00,0.00,0.00,0.0000,0.0000,0.0000,0.0000,0.0000,0.0000,0.0000,0.00,0.00,0.00,1.2730,0.9560,0.0000,0.9730,2.7010,0,0.0000,0.0000,0.0000,0.0000,0.0000,0
18624,0.0130,-0.0618,0.0119,0.0042,-0.0157,-0.0028,-0.93,0.01,0.24,0,4.138,-0.020,0.050,-0.129,-0.000,-0.015,1.001,0.000,0.000,0.000,0.0110,-4,-4,0.00,0.00,0.00,0.0000,0.0000,0.0000,0.0000,0.0000,0.0000,0.0000,0.00,0.00,0.00,1.2730,0.9520,0.0000,0.9790,2.7070,0,0.0000,0.0000,0.0000,0.0000,0.0000,0
18675,0.0130,-0.0629,0.0114,0.0025,-0.0167,-0.0046,-0.95,0.03,0.24,0,4.128,-0.052,0.353,0.065,0.001,-0.014,0.999,0.000,0.000,0.000,0.0080,-2,2,0.00,0.00,0.00,0.0000,0.0000,0.0000,0.0000,0.0000,0.0000,0.0000,0.00,0.00,0.00,1.2700,0.9520,0.0000,0.9790,2.7070,0,0.0000,0.0000,0.0000,0.0000,0.0000,0
18726,0.0134,-0.0628,0.0101,0.0043,-0.0131,-0.0095,-0.91,-0.01,0.24,0,4.138,0.159,0.291,0.153,0.000,-0.012,0.997,0.000,0.000,0.000,0.0080,-5,0,0.00,0.00,0.00,0.0000,0.0000,0.0000,0.0000,0.0000,0.0000,0.0000,0.00,0.00,0.00,1.2700,0.9530,0.0000,0.9810,2.7120,0,0.0000,0.0000,0.0000,0.0000,0.0000,0
18777,0.0138,-0.0626,0.0087,0.0052,-0.0086,-0.0133,-0.99,0.01,0.24,0,4.128,0.142,0.084,0.096,-0.001,-0.014,1.001,0.000,0.000,0.000,0.0130,2,0,0.00,0.00,0.00,0.0000,0.0000,0.0000,0.0000,0.0000,0.0000,0.0000,0.00,0.00,0.00,1.2690,0.9530,0.0000,0.9810,2.7120,0,0.0000,0.0000,0.0000,0.0000,0.0000,0
18828,0.0132,-0.0622,0.0093,0.0006,-0.0038,-0.0071,-0.91,0.03,0.24,0,4.133,0.047,-0.003,0.098,0.000,-0.013,0.999,0.000,0.000,0.000,0.0130,3,6,0.00,0.00,0.00,0.0000,0.0000,0.0000,0.0000,0.0000,0.0000,0.0000,0.00,0.00,0.00,1.2690,0.9480,0.0000,0.9770,2.7150,0,0.0000,0.0000,0.0000,0.0000,0.0000,0
18879,0.0132,-0.0622,0.0108,0.0004,-0.0019,0.0009,-0.90,-0.06,0.24,0,4.128,0.053,-0.196,-0.175,0.001,-0.015,1.000,0.000,0.000,0.000,0.0100,3,0,0.00,0.00,0.00,0.0000,0.0000,0.0000,0.0000,0.0000,0.0000,0.0000,0.00,0.00,0.00,1.2750,0.9480,0.0000,0.9770,2.7150,0,0.0000,0.0000,0.0000,0.0000,0.0000,0
18929,0.0134,-0.0619,0.0120,0.0017,0.0015,0.0063,-0.85,0.02,0.24,0,4.138,-0.080,-0.226,0.003,0.003,-0.012,0.998,0.000,0.000,0.000,0.0100,6,-4,0.00,0.00,0.00,0.0000,0.0000,0.0000,0.0000,0.0000,0.0000,0.0000,0.00,0.00,0.00,1.2750,0.9500,2.0200,0.9770,2.7010,0,0.0000,0.0000,0.0000,0.0000,0.0000,0
18981,0.0130,-0.0618,0.0113,-0.0011,0.0042,0.0016,-1.04,0.01,0.24,0,4.128,0.017,-0.051,-0.055,-0.001,-0.013,1.001,0.000,0.000,0.000,0.0130,0,2,0.00,0.00,0.00,0.0000,0.0000,0.0000,0.0000,0.0000,0.0000,0.0000,0.00,0.00,0.00,1.2710,0.9500,2.0200,0.9770,2.7010,0,0.0000,0.0000,0.0000,0.0000,0.0000,0
19032,0.0132,-0.0628,0.0114,-0.0002,-0.0014,0.0011,-0.91,0.05,0.25,0,4.138,-0.082,-0.028,0.122,-0.000,-0.014,0.999,0.000,0.000,0.000,0.0130,-34,-3,0.00,0.00,0.00,0.0000,0.0000,0.0000,0.0000,0.0000,0.0000,0.0000,0.00,0.00,0.00,1.2710,0.9540,0.0000,0.9730,2.7050,0,0.0000,0.0000,0.0000,0.0000,0.0000,0
19084,0.0132,-0.0623,0.0122,-0.0005,0.0022,0.0045,-1.35,0.03,0.25,0,4.133,0.103,0.109,0.129,0.001,-0.012,0.997,0.000,0.000,0.000,0.0130,1,3,0.00,0.00,0.00,0.0000,0.0000,0.0000,0.0000,0.0000,0.0000,0.0000,0.00,0.00,0.00,1.2640,0.9540,0.0000,0.9730,2.7050,0,0.0000,0.0000,0.0000,0.0000,0.0000,0
19135,0.0138,-0.0506,0.0111,0.0020,0.0582,-0.0022,-1.13,0.05,0.25,0,4.133,-0.044,-0.338,-0.179,-0.003,-0.013,1.000,0.000,0.000,0.000,0.0130,4,-1,0.00,0.00,0.00,0.0000,0.0000,0.0000,0.0000,0.0000,0.0000,0.0000,0.00,0.00,0.00,1.2640,0.9540,1.9680,0.9740,2.7090,0,0.0000,0.0000,0.0000,0.0000,0.0000,0
19186,0.0127,-0.0508,0.0123,-0.0037,0.0468,0.0036,-1.06,0.03,0.25,0,4.133,0.023,0.534,0.037,-0.001,-0.015,1.000,0.000,0.000,0.000,0.0120,-5,1,0.00,0.00,0.00,0.0000,0.0000,0.0000,0.0000,0.0000,0.0000,0.0000,0.00,0.00,0.00,1.2660,0.9540,1.9680,0.9740,2.7090,0,0.0000,0.0000,0.0000,0.0000,0.0000,0
19237,0.0133,-0.0488,0.0124,-0.0006,0.0483,0.0034,-1.19,0.05,0.26,0,4.138,-0.024,-0.226,0.085,0.000,-0.016,0.998,0.000,0.000,0.000,0.0120,9,2,0.00,0.00,0.00,0.0000,0.0000,0.0000,0.0000,0.0000,0.0000,0.0000,0.00,0.00,0.00,1.2660,0.9570,0.0000,0.9780,2.7080,0,0.0000,0.0000,0.0000,0.0000,0.0000,0
19287,0.0118,-0.0367,0.0116,-0.0085,0.1004,-0.0025,-1.50,0.06,0.26,0,4.128,-0.137,-0.081,0.113,0.000,-0.016,0.999,0.000,0.000,0.000,0.0110,2,0,0.00,0.00,0.00,0.0000,0.0000,0.0000,0.0000,0.0000,0.0000,0.0000,0.00,0.00,0.00,1.2710,0.9570,0.0000,0.9780,2.7080,0,0.0000,0.0000,0.0000,0.0000,0.0000,0
19339,0.0124,-0.0354,0.0118,-0.0045,0.0874,-0.0010,-1.12,0.07,0.26,0,4.133,-0.053,-0.166,0.011,0.000,-0.015,1.000,0.000,0.000,0.000,0.0110,-4,-2,0.00,0.00,0.00,0.0000,0.0000,0.0000,0.0000,0.0000,0.0000,0.0000,0.00,0.00,0.00,1.2710,0.9550,0.0000,0.9720,2.6970,0,0.0000,0.0000,0.0000,0.0000,0.0000,0
19390,0.0126,-0.0352,0.0118,-0.0024,0.0723,-0.0004,-1.21,0.09,0.26,0,4.133,0.114,0.017,-0.022,0.001,-0.015,1.001,0.000,0.000,0.000,0.0110,0,2,0.00,0.00,0.00,0.0000,0.0000,0.0000,0.0000,0.0000,0.0000,0.0000,0.00,0.00,0.00,1.2780,0.9550,0.0000,0.9720,2.6970,0,0.0000,0.0000,0.0000,0.0000,0.0000,0
19442,0.0111,-0.0346,0.0118,-0.0094,0.0586,0.0009,-1.02,0.08,0.26,0,4.133,0.345,0.225,-0.100,0.000,-0.014,0.999,0.000,0.000,0.000,0.0110,15,-4,0.00,0.00,0.00,0.0000,0.0000,0.0000,0.0000,0.0000,0.0000,0.0000,0.00,0.00,0.00,1.2780,0.9580,0.0000,0.9780,2.7080,0,0.0000,0.0000,0.0000,0.0000,0.0000,0
19493,0.0111,-0.0340,0.0116,-0.0079,0.0487,-0.0002,-0.56,0.00,0.25,0,4.128,0.223,-0.188,0.206,0.001,-0.014,0.999,0.000,0.000,0.000,0.0110,4,2,0.00,0.00,0.00,0.0000,0.0000,0.0000,0.0000,0.0000,0.0000,0.0000,0.00,0.00,0.00,1.2670,0.9580,0.0000,0.9780,2.7080,0,0.0000,0.0000,0.0000,0.0000,0.0000,0
19544,0.0152,-0.0442,0.0109,0.0136,-0.0123,-0.0029,-0.54,-0.06,0.25,0,4.133,0.001,-0.252,0.129,-0.003,-0.016,1.002,0.000,0.000,0.000,0.0110,-3,2,0.00,0.00,0.00,0.0000,0.0000,0.0000,0.0000,0.0000,0.0000,0.0000,0.00,0.00,0.00,1.2670,0.9510,2.0050,0.9750,2.7070,0,0.0000,0.0000,0.0000,0.0000,0.0000,0
19595,0.0156,-0.0383,0.0110,0.0136,0.0193,-0.0017,-0.76,-0.04,0.25,0,4.128,-0.040,0.197,0.226,-0.000,-0.014,0.998,0.000,0.000,0.000,0.0130,0,8,0.00,0.00,0.00,0.0000,0.0000,0.0000,0.0000,0.0000,0.0000,0.0000,0.00,0.00,0.00,1.2700,0.9510,2.0050,0.9750,2.7070,0,0.0000,0.0000,0.0000,0.0000,0.0000,0
19646,0.0159,-0.0379,0.0115,0.0129,0.0152,0.0008,-0.66,0.01,0.26,0,4.133,0.055,-0.288,0.076,0.003,-0.013,1.000,0.000,0.000,0.000,0.0130,4,-3,0.00,0.00,0.00,0.0000,0.0000,0.0000,0.0000,0.0000,0.0000,0.0000,0.00,0.00,0.00,1.2700,0.9500,0.0000,0.9730,2.7040,0,0.0000,0.0000,0.0000,0.0000,0.0000,0
19697,0.0151,-0.0373,0.0123,0.0064,0.0143,0.0038,-0.68,-0.04,0.26,0,4.133,0.008,0.019,0.320,0.002,-0.015,0.998,0.000,0.000,0.000,0.0120,5,3,0.00,0.00,0.00,0.0000,0.0000,0.0000,0.0000,0.0000,0.0000,0.0000,0.00,0.00,0.00,1.2740,0.9500,0.0000,0.9730,2.7040,0,0.0000,0.0000,0.0000,0.0000,0.0000,0
19748,0.0159,-0.0379,0.0129,0.0100,0.0073,0.0053,-0.61,-0.00,0.26,0,4.133,0.097,-0.045,-0.133,0.001,-0.015,1.000,0.000,0.000,0.000,0.0120,0,-1,0.00,0.00,0.00,0.0000,0.0000,0.0000,0.0000,0.0000,0.0000,0.0000,0.00,0.00,0.00,1.2740,0.9580,2.0600,0.9790,2.7090,0,0.0000,0.0000,0.0000,0.0000,0.0000,0
19799,0.0149,-0.0381,0.0127,0.0028,0.0038,0.0033,-0.69,0.00,0.26,0,4.128,0.167,0.082,-0.093,0.001,-0.013,0.999,0.000,0.000,0.000,0.0090,-2,-1,0.00,0.00,0.00,0.0000,0.0000,0.0000,0.0000,0.0000,0.0000,0.0000,0.00,0.00,0.00,1.2640,0.9580,2.0600,0.9790,2.7090,0,0.0000,0.0000,0.0000,0.0000,0.0000,0
19850,0.0157,-0.0387,0.0125,0.0065,-0.0017,0.0013,-0.70,0.01,0.26,0,4.133,0.048,-0.056,-0.107,0.000,-0.013,0.999,0.000,0.000,0.000,0.0090,1,7,0.00,0.00,0.00,0.0000,0.0000,0.0000,0.0000,0.0000,0.0000,0.0000,0.00,0.00,0.00,1.2640,0.9430,0.0000,0.9770,2.7080,0,0.0000,0.0000,0.0000,0.0000,0.0000,0
19901,0.0157,-0.0389,0.0109,0.0051,-0.0048,-0.0061,-0.59,0.07,0.27,0,4.128,0.007,0.084,0.123,0.002,-0.015,0.999,0.000,0.000,0.000,0.0120,-4,1,0.00,0.00,0.00,0.0000,0.0000,0.0000,0.0000,0.0000,0.0000,0.0000,0.00,0.00,0.00,1.2670,0.9430,0.0000,0.9770,2.7080,0,0.0000,0.0000,0.0000,0.0000,0.0000,0
19952,0.0143,-0.0415,0.0092,-0.0029,-0.0174,-0.0124,-0.56,0.10,0.28,0,4.133,-0.024,-0.069,0.134,0.001,-0.014,1.001,0.000,0.000,0.000,0.0120,1,0,0.00,0.00,0.00,0.0000,0.0000,0.0000,0.0000,0.0000,0.0000,0.0000,0.00,0.00,0.00,1.2670,0.9520,0.0000,0.9780,2.7010,0,0.0000,0.0000,0.0000,0.0000,0.0000,0
20003,0.0141,-0.0404,0.0101,-0.0029,-0.0093,-0.0058,-0.60,0.10,0.28,0,4.128,-0.004,-0.123,0.012,0.001,-0.014,1.000,0.000,0.000,0.000,0.0100,0,-4,0.00,0.00,0.00,0.0000,0.0000,0.0000,0.0000,0.0000,0.0000,0.0000,0.00,0.00,0.00,1.2670,0.9520,0.0000,0.9780,2.7010,0,0.0000,0.0000,0.0000,0.0000,0.0000,0
20053,0.0137,-0.0407,0.0114,-0.0051,-0.0080,0.0020,-0.62,0.06,0.27,0,4.133,0.307,-0.291,-0.239,-0.002,-0.015,0.999,0.000,0.000,0.000,0.0100,18,-9,0.00,0.00,0.00,0.0000,0.0000,0.0000,0.0000,0.0000,0.0000,0.0000,0.00,0.00,0.00,1.2670,0.9570,2.0460,0.9740,2.7060,0,0.0000,0.0000,0.0000,0.0000,0.0000,0
20104,0.0139,-0.0457,0.0108,-0.0039,-0.0331,-0.0017,-0.21,0.05,0.26,0,4.128,0.133,0.257,-0.152,0.001,-0.013,0.999,0.000,0.000,0.000,0.0100,0,-4,0.00,0.00,0.00,0.0000,0.0000,0.0000,0.0000,0.0000,0.0000,0.0000,0.00,0.00,0.00,1.2700,0.9570,2.0460,0.9740,2.7060,0,0.0000,0.0000,0.0000,0.0000,0.0000,0
20156,0.0123,-0.0486,0.0110,-0.0128,-0.0400,-0.0007,-0.56,0.17,0.28,0,4.138,0.016,0.217,-0.156,0.001,-0.014,0.999,0.000,0.000,0.000,0.0100,0,2,0.00,0.00,0.00,0.0000,0.0000,0.0000,0.0000,0.0000,0.0000,0.0000,0.00,0.00,0.00,1.2700,0.9410,2.0790,0.9750,2.7100,0,0.0000,0.0000,0.0000,0.0000,0.0000,0
20207,0.0133,-0.0493,0.0106,-0.0048,-0.0372,-0.0025,-0.62,0.13,0.27,0,4.128,-0.198,0.153,0.039,0.002,-0.013,1.000,0.000,0.000,0.000,0.0120,0,-5,0.00,0.00,0.00,0.0000,0.0000,0.0000,0.0000,0.0000,0.0000,0.0000,0.00,0.00,0.00,1.2710,0.9410,2.0790,0.9750,2.7100,0,0.0000,0.0000,0.0000,0.0000,0.0000,0
20259,0.0120,-0.0492,0.0098,-0.0103,-0.0307,-0.0061,-0.61,0.06,0.27,0,4.138,-0.192,0.076,0.035,-0.000,-0.012,0.999,0.000,0.000,0.000,0.0120,17,-2,0.00,0.00,0.00,0.0000,0.0000,0.0000,0.0000,0.0000,0.0000,0.0000,0.00,0.00,0.00,1.2710,0.9500,2.0000,0.9770,2.7040,0,0.0000,0.0000,0.0000,0.0000,0.0000,0
20310,0.0128,-0.0496,0.0107,-0.0047,-0.0273,-0.0015,-0.34,0.07,0.26,0,4.128,-0.143,0.006,0.126,-0.001,-0.015,1.000,0.000,0.000,0.000,0.0120,4,0,0.00,0.00,0.00,0.0000,0.0000,0.0000,0.0000,0.0000,0.0000,0.0000,0.00,0.00,0.00,1.2690,0.9500,2.0000,0.9770,2.7040,0,0.0000,0.0000,0.0000,0.0000,0.0000,0
20361,0.0109,-0.0594,0.0104,-0.0140,-0.0704,-0.0034,-0.20,0.10,0.27,0,4.133,-0.050,-0.154,0.092,-0.001,-0.015,0.998,0.000,0.000,0.000,0.0120,-15,0,0.00,0.00,0.00,0.0000,0.0000,0.0000,0.0000,0.0000,0.0000,0.0000,0.00,0.00,0.00,1.2690,0.9510,0.0000,0.9780,2.7140,0,0.0000,0.0000,0.0000,0.0000,0.0000,0
20411,0.0126,-0.0631,0.0111,-0.0027,-0.0759,0.0003,-0.46,0.09,0.27,0,4.128,-0.300,0.207,0.150,0.000,-0.011,1.000,0.000,0.000,0.000,0.0140,4,0,0.00,0.00,0.00,0.0000,0.0000,0.0000,0.0000,0.0000,0.0000,0.0000,0.00,0.00,0.00,1.2730,0.9510,0.0000,0.9780,2.7140,0,0.0000,0.0000,0.0000,0.0000,0.0000,0
20463,0.0096,-0.0480,0.0116,-0.0179,0.0200,0.0031,-1.01,0.11,0.28,0,4.138,0.033,0.229,-0.206,-0.003,-0.015,1.000,0.000,0.000,0.000,0.0140,27,-4,0.00,0.00,0.00,0.0000,0.0000,0.0000,0.0000,0.0000,0.0000,0.0000,0.00,0.00,0.00,1.2730,0.9500,1.9640,0.9800,2.6950,0,0.0000,0.0000,0.0000,0.0000,0.0000,0
20513,0.0097,-0.0483,0.0131,-0.0144,0.0155,0.0086,-0.67,0.01,0.27,0,4.128,0.055,-0.523,0.049,-0.000,-0.013,1.000,0.000,0.000,0.000,0.0120,2,0,0.00,0.00,0.00,0.0000,0.0000,0.0000,0.0000,0.0000,0.0000,0.0000,0.00,0.00,0.00,1.2710,0.9500,1.9640,0.9800,2.6950,0,0.0000,0.0000,0.0000,0.0000,0.0000,0
20564,0.0093,-0.0568,0.0127,-0.0143,-0.0282,0.0046,-0.65,0.15,0.28,0,4.133,-0.279,-0.004,-0.004,0.001,-0.015,0.999,0.000,0.000,0.000,0.0120,-3,-5,0.00,0.00,0.00,0.0000,0.0000,0.0000,0.0000,0.0000,0.0000,0.0000,0.00,0.00,0.00,1.2710,0.9590,2.0220,0.9800,2.7120,0,0.0000,0.0000,0.0000,0.0000,0.0000,0
20615,0.0089,-0.0566,0.0126,-0.0132,-0.0214,0.0032,-0.89,0.09,0.28,0,4.128,-0.183,0.261,0.325,0.001,-0.015,1.000,0.000,0.000,0.000,0.0090,-4,0,0.00,0.00,0.00,0.0000,0.0000,0.0000,0.0000,0.0000,0.0000,0.0000,0.00,0.00,0.00,1.2690,0.9590,2.0220,0.9800,2.7120,0,0.0000,0.0000,0.0000,0.0000,0.0000,0
20666,0.0078,-0.0465,0.0124,-0.0165,0.0343,0.0014,-1.05,0.05,0.29,0,4.133,0.128,-0.123,-0.026,0.001,-0.015,1.001,0.000,0.000,0.000,0.0090,4,3,0.00,0.00,0.00,0.0000,0.0000,0.0000,0.0000,0.0000,0.0000,0.0000,0.00,0.00,0.00,1.2690,0.9550,0.0000,0.9790,2.7080,0,0.0000,0.0000,0.0000,0.0000,0.0000,0
20718,0.0078,-0.0457,0.0109,-0.0133,0.0324,-0.0054,-0.85,0.17,0.28,0,4.128,-0.214,-0.204,0.205,0.002,-0.015,0.998,0.000,0.000,0.000,0.0110,0,-8,0.00,0.00,0.00,0.0000,0.0000,0.0000,0.0000,0.0000,0.0000,0.0000,0.00,0.00,0.00,1.2690,0.9550,0.0000,0.9790,2.7080,0,0.0000,0.0000,0.0000,0.0000,0.0000,0
20769,0.0056,-0.0465,0.0104,-0.0209,0.0233,-0.0062,-0.97,0.10,0.29,0,4.133,0.124,0.281,0.142,0.002,-0.014,0.999,0.000,0.000,0.000,0.0110,9,-2,0.00,0.00,0.00,0.0000,0.0000,0.0000,0.0000,0.0000,0.0000,0.0000,0.00,0.00,0.00,1.2690,0.9460,1.9670,0.9740,2.7090,0,0.0000,0.0000,0.0000,0.0000,0.0000,0
20820,0.0055,-0.0459,0.0105,-0.0173,0.0219,-0.0050,-0.78,0.04,0.29,0,4.128,-0.108,-0.389,0.204,0.002,-0.014,0.999,0.000,0.000,0.000,0.0100,0,1,0.00,0.00,0.00,0.0000,0.0000,0.0000,0.0000,0.0000,0.0000,0.0000,0.00,0.00,0.00,1.2730,0.9460,1.9670,0.9740,2.7090,0,0.0000,0.0000,0.0000,0.0000,0.0000,0
20870,0.0060,-0.0474,0.0082,-0.0120,0.0120,-0.0141,-0.90,0.06,0.29,0,4.138,-0.011,-0.243,0.030,0.001,-0.014,1.001,0.000,0.000,0.000,0.0100,0,3,0.00,0.00,0.00,0.0000,0.0000,0.0000,0.0000,0.0000,0.0000,0.0000,0.00,0.00,0.00,1.2730,0.9420,0.0000,0.9760,2.7080,0,0.0000,0.0000,0.0000,0.0000,0.0000,0
20922,0.0061,-0.0473,0.0085,-0.0081,0.0092,-0.0095,-0.85,0.07,0.29,0,4.128,0.171,0.109,-0.344,0.001,-0.013,1.000,0.000,0.000,0.000,0.0130,-6,4,0.00,0.00,0.00,0.0000,0.0000,0.0000,0.0000,0.0000,0.0000,0.0000,0.00,0.00,0.00,1.2680,0.9420,0.0000,0.9760,2.7080,0,0.0000,0.0000,0.0000,0.0000,0.0000,0
20973,0.0064,-0.0467,0.0109,-0.0039,0.0087,0.0029,-0.89,0.05,0.29,0,4.133,-0.049,-0.005,-0.056,0.001,-0.015,0.998,0.000,0.000,0.000,0.0130,-4,0,0.00,0.00,0.00,0.0000,0.0000,0.0000,0.0000,0.0000,0.0000,0.0000,0.00,0.00,0.00,1.2680,0.9530,2.0100,0.9770,2.7040,0,0.0000,0.0000,0.0000,0.0000,0.0000,0
21024,0.0064,-0.0467,0.0122,-0.0026,0.0049,0.0077,-0.87,-0.02,0.29,0,4.128,-0.157,0.029,0.285,0.001,-0.013,0.999,0.000,0.000,0.000,0.0120,3,-2,0.00,0.00,0.00,0.0000,0.0000,0.0000,0.0000,0.0000,0.0000,0.0000,0.00,0.00,0.00,1.2630,0.9530,2.0100,0.9770,2.7040,0,0.0000,0.0000,0.0000,0.0000,0.0000,0
21075,0.0056,-0.0465,0.0125,-0.0060,0.0039,0.0073,-0.76,0.01,0.29,0,4.133,0.371,-0.177,-0.236,0.002,-0.013,0.999,0.000,0.000,0.000,0.0120,-7,0,0.00,0.00,0.00,0.0000,0.0000,0.0000,0.0000,0.0000,0.0000,0.0000,0.00,0.00,0.00,1.2630,0.9540,1.9800,0.9770,2.7000,0,0.0000,0.0000,0.0000,0.0000,0.0000,0
21126,0.0064,-0.0467,0.0125,-0.0003,0.0025,0.0058,-0.77,0.07,0.29,0,4.128,0.174,0.124,0.036,-0.001,-0.013,1.001,0.000,0.000,0.000,0.0100,-4,5,0.00,0.00,0.00,0.0000,0.0000,0.0000,0.0000,0.0000,0.0000,0.0000,0.00,0.00,0.00,1.2700,0.9540,1.9800,0.9770,2.7000,0,0.0000,0.0000,0.0000,0.0000,0.0000,0
21177,0.0059,-0.0471,0.0126,-0.0018,-0.0006,0.0049,-0.78,0.04,0.29,0,4.133,-0.106,-0.006,0.275,-0.002,-0.014,0.999,0.000,0.000,0.000,0.0100,0,-4,0.00,0.00,0.00,0.0000,0.0000,0.0000,0.0000,0.0000,0.0000,0.0000,0.00,0.00,0.00,1.2700,0.9580,2.0300,0.9760,2.7040,0,0.0000,0.0000,0.0000,0.0000,0.0000,0
21228,0.0055,-0.0455,0.0115,-0.0037,0.0078,-0.0010,-0.68,-0.03,0.29,0,4.133,0.110,-0.003,-0.160,-0.001,-0.014,1.002,0.000,0.000,0.000,0.0120,1,0,0.00,0.00,0.00,0.0000,0.0000,0.0000,0.0000,0.0000,0.0000,0.0000,0.00,0.00,0.00,1.2600,0.9580,2.0300,0.9760,2.7040,0,0.0000,0.0000,0.0000,0.0000,0.0000,0
21279,0.0055,-0.0461,0.0108,-0.0030,0.0038,-0.0045,-0.65,0.00,0.29,0,4.133,0.168,0.083,0.109,-0.001,-0.015,1.002,0.000,0.000,0.000,0.0120,-5,7,0.00,0.00,0.00,0.0000,0.0000,0.0000,0.0000,0.0000,0.0000,0.0000,0.00,0.00,0.00,1.2600,0.9510,0.0000,0.9790,2.6960,0,0.0000,0.0000,0.0000,0.0000,0.0000,0
