time_ms,pos_x,pos_y,pos_z,vel_x,vel_y,vel_z,roll,pitch,yaw,thrust,vbat,gyro_x,gyro_y,gyro_z,acc_x,acc_y,acc_z,rate_roll,rate_pitch,rate_yaw,range_z,flow_dx,flow_dy,mekf_roll,mekf_pitch,mekf_yaw,mekf_x,mekf_y,mekf_z
0,-0.0052,-0.0000,0.0107,0.0025,0.0036,0.0061,-2.11,0.63,0.10,0,3.890,0.287,0.117,-0.220,0.010,-0.038,1.000,0.000,0.000,0.000,0.0110,9,0,0.00,0.00,0.00,0.0000,0.0000,0.0000
100,-0.0055,0.0020,0.0111,0.0008,0.0118,0.0065,-2.09,0.64,0.09,0,3.901,0.038,0.051,-0.047,0.012,-0.036,1.002,0.000,0.000,0.000,0.0100,2,0,0.00,0.00,0.00,0.0000,0.0000,0.0000
201,-0.0057,0.0054,0.0108,0.0002,0.0253,0.0037,-2.16,0.61,0.09,0,3.890,0.283,-0.127,-0.027,0.011,-0.038,1.000,0.000,0.000,0.000,0.0100,2,-6,0.00,0.00,0.00,0.0000,0.0000,0.0000
302,-0.0062,0.0053,0.0106,-0.0026,0.0195,0.0023,-2.13,0.61,0.09,0,3.901,-0.115,-0.063,-0.195,0.012,-0.036,1.002,0.000,0.000,0.000,0.0080,0,5,0.00,0.00,0.00,0.0000,0.0000,0.0000
403,-0.0057,0.0048,0.0095,0.0004,0.0122,-0.0032,-2.09,0.69,0.09,0,3.890,0.322,0.196,-0.234,0.013,-0.039,1.000,0.000,0.000,0.000,0.0080,0,0,0.00,0.00,0.00,0.0000,0.0000,0.0000
504,-0.0050,0.0044,0.0087,0.0051,0.0068,-0.0059,-2.05,0.64,0.09,0,3.901,0.187,-0.116,0.145,0.011,-0.039,0.999,0.000,0.000,0.000,0.0110,6,0,0.00,0.00,0.00,0.0000,0.0000,0.0000
606,-0.0054,0.0057,0.0096,0.0024,0.0101,-0.0006,-2.03,0.63,0.09,0,3.890,0.180,-0.080,0.005,0.013,-0.036,0.998,0.000,0.000,0.000,0.0110,-2,-3,0.00,0.00,0.00,0.0000,0.0000,0.0000
707,-0.0054,0.0043,0.0102,0.0025,0.0005,0.0025,-2.05,0.63,0.09,0,3.901,0.124,-0.184,-0.133,0.013,-0.038,0.998,0.000,0.000,0.000,0.0090,3,-2,0.00,0.00,0.00,0.0000,0.0000,0.0000
808,-0.0052,0.0056,0.0098,0.0034,0.0055,-0.0010,-1.95,0.64,0.09,0,3.890,-0.006,0.099,0.076,0.013,-0.038,1.002,0.000,0.000,0.000,0.0110,0,-2,0.00,0.00,0.00,0.0000,0.0000,0.0000
909,-0.0056,0.0049,0.0103,0.0011,0.0002,0.0024,-1.98,0.62,0.08,0,3.901,-0.152,-0.202,0.109,0.011,-0.039,0.997,0.000,0.000,0.000,0.0090,0,0,0.00,0.00,0.00,0.0000,0.0000,0.0000
1011,-0.0054,0.0047,0.0099,0.0021,-0.0022,-0.0004,-1.97,0.65,0.09,0,3.890,0.078,-0.108,0.167,0.013,-0.040,0.999,0.000,0.000,0.000,0.0110,5,-4,0.00,0.00,0.00,0.0000,0.0000,0.0000
1112,-0.0056,0.0056,0.0104,0.0011,0.0011,0.0019,-1.96,0.66,0.09,0,3.901,0.090,0.001,-0.053,0.015,-0.038,1.000,0.000,0.000,0.000,0.0090,0,2,0.00,0.00,0.00,0.0000,0.0000,0.0000
1213,-0.0054,0.0047,0.0099,0.0029,-0.0047,-0.0006,-1.97,0.67,0.08,0,3.890,-0.079,0.011,-0.186,0.010,-0.036,1.000,0.000,0.000,0.000,0.0110,-1,0,0.00,0.00,0.00,0.0000,0.0000,0.0000
1314,-0.0059,0.0041,0.0104,0.0004,-0.0086,0.0026,-1.96,0.66,0.09,0,3.901,-0.159,0.087,0.202,0.011,-0.040,1.000,0.000,0.000,0.000,0.0090,-5,0,0.00,0.00,0.00,0.0000,0.0000,0.0000
1416,-0.0047,-0.0010,0.0098,0.0064,-0.0348,-0.0004,-1.81,0.60,0.09,0,3.890,-0.013,0.235,0.310,0.013,-0.034,1.000,0.000,0.000,0.000,0.0070,8,0,0.00,0.00,0.00,0.0000,0.0000,0.0000
1517,-0.0054,0.0007,0.0086,0.0020,-0.0200,-0.0058,-1.89,0.59,0.09,0,3.901,0.132,0.030,0.058,0.012,-0.038,1.000,0.000,0.000,0.000,0.0100,0,-2,0.00,0.00,0.00,0.0000,0.0000,0.0000
1568,-0.0043,-0.0010,0.0091,0.0071,-0.0256,-0.0020,-1.94,0.60,0.09,0,3.896,0.044,-0.211,0.120,0.015,-0.037,1.000,0.000,0.000,0.000,0.0110,-4,0,0.00,0.00,0.00,0.0000,0.0000,0.0000
1620,-0.0054,0.0029,0.0100,0.0001,-0.0015,0.0030,-2.06,0.63,0.09,0,3.901,-0.225,0.260,0.083,0.012,-0.038,1.001,0.000,0.000,0.000,0.0090,2,0,0.00,0.00,0.00,0.0000,0.0000,0.0000
1671,-0.0054,0.0037,0.0097,-0.0001,0.0023,0.0018,-2.06,0.67,0.10,0,3.890,0.147,0.005,-0.112,0.015,-0.038,1.000,0.000,0.000,0.000,0.0100,0,3,0.00,0.00,0.00,0.0000,0.0000,0.0000
1723,-0.0048,0.0039,0.0099,0.0038,0.0025,0.0025,-2.05,0.66,0.10,0,3.901,0.259,-0.102,-0.239,0.010,-0.037,0.998,0.000,0.000,0.000,0.0040,-2,1,0.00,0.00,0.00,0.0000,0.0000,0.0000
1775,-0.0047,0.0032,0.0073,0.0037,-0.0022,-0.0103,-2.01,0.66,0.09,0,3.890,-0.223,-0.118,0.253,0.013,-0.039,1.000,0.000,0.000,0.000,0.0080,-1,2,0.00,0.00,0.00,0.0000,0.0000,0.0000
1825,-0.0047,0.0019,0.0073,0.0043,-0.0106,-0.0079,-2.00,0.69,0.09,0,3.901,-0.011,0.050,0.080,0.012,-0.037,1.001,0.000,0.000,0.000,0.0100,0,2,0.00,0.00,0.00,0.0000,0.0000,0.0000
1877,-0.0050,0.0028,0.0083,0.0032,-0.0054,-0.0014,-2.02,0.64,0.09,0,3.896,0.086,0.254,0.121,0.016,-0.037,0.999,0.000,0.000,0.000,0.0090,-4,-2,0.00,0.00,0.00,0.0000,0.0000,0.0000
1927,-0.0056,0.0022,0.0086,-0.0006,-0.0083,0.0005,-2.01,0.72,0.09,0,3.901,0.414,-0.045,-0.056,0.013,-0.036,1.003,0.000,0.000,0.000,0.0080,2,-1,0.00,0.00,0.00,0.0000,0.0000,0.0000
1979,-0.0054,0.0034,0.0084,0.0007,-0.0022,-0.0002,-2.01,0.67,0.09,0,3.890,-0.140,0.081,0.308,0.014,-0.039,1.002,0.000,0.000,0.000,0.0100,-4,-2,0.00,0.00,0.00,0.0000,0.0000,0.0000
2029,-0.0052,0.0020,0.0091,0.0019,-0.0101,0.0044,-2.02,0.68,0.09,0,3.901,-0.117,-0.234,-0.004,0.013,-0.040,1.000,0.000,0.000,0.000,0.0120,1,0,0.00,0.00,0.00,0.0000,0.0000,0.0000
2080,-0.0046,0.0032,0.0106,0.0048,-0.0030,0.0108,-1.97,0.67,0.10,0,3.890,-0.131,0.111,0.080,0.013,-0.036,0.999,0.000,0.000,0.000,0.0090,1,0,0.00,0.00,0.00,0.0000,0.0000,0.0000
2132,-0.0046,0.0037,0.0102,0.0041,-0.0006,0.0060,-2.01,0.67,0.10,0,3.901,-0.216,-0.302,0.180,0.012,-0.037,1.000,0.000,0.000,0.000,0.0120,0,-4,0.00,0.00,0.00,0.0000,0.0000,0.0000
2182,-0.0054,0.0031,0.0113,-0.0009,-0.0044,0.0100,-2.05,0.67,0.10,0,3.890,-0.124,0.239,-0.145,0.013,-0.037,0.999,0.000,0.000,0.000,0.0070,4,-1,0.00,0.00,0.00,0.0000,0.0000,0.0000
2233,-0.0054,0.0039,0.0097,-0.0012,-0.0006,0.0001,-2.01,0.67,0.09,0,3.896,-0.078,0.210,0.050,0.014,-0.038,0.998,0.000,0.000,0.000,0.0080,-2,0,0.00,0.00,0.00,0.0000,0.0000,0.0000
2284,-0.0051,0.0032,0.0089,0.0000,-0.0042,-0.0042,-2.04,0.68,0.10,0,3.890,0.079,0.116,0.011,0.013,-0.037,1.000,0.000,0.000,0.000,0.0120,-4,0,0.00,0.00,0.00,0.0000,0.0000,0.0000
2335,-0.0054,0.0018,0.0102,-0.0009,-0.0122,0.0039,-2.01,0.65,0.10,0,3.901,0.094,0.088,0.162,0.014,-0.036,0.998,0.000,0.000,0.000,0.0090,5,4,0.00,0.00,0.00,0.0000,0.0000,0.0000
2386,-0.0047,0.0037,0.0099,0.0033,-0.0009,0.0014,-2.01,0.70,0.10,0,3.890,-0.025,-0.044,0.194,0.013,-0.039,0.998,0.000,0.000,0.000,0.0100,0,-1,0.00,0.00,0.00,0.0000,0.0000,0.0000
2438,-0.0015,0.0041,0.0100,0.0201,0.0010,0.0018,-2.09,0.56,0.10,0,3.901,-0.383,-0.165,-0.125,0.013,-0.041,1.000,0.000,0.000,0.000,0.0070,-2,-4,0.00,0.00,0.00,0.0000,0.0000,0.0000
2490,-0.0019,0.0034,0.0088,0.0140,-0.0036,-0.0042,-2.07,0.60,0.10,0,3.890,0.266,-0.398,-0.194,0.012,-0.040,1.002,0.000,0.000,0.000,0.0050,0,0,0.00,0.00,0.00,0.0000,0.0000,0.0000
2541,-0.0019,0.0037,0.0070,0.0106,-0.0021,-0.0124,-2.05,0.69,0.10,0,3.901,-0.331,0.014,0.230,0.013,-0.038,1.000,0.000,0.000,0.000,0.0090,0,0,0.00,0.00,0.00,0.0000,0.0000,0.0000
2592,-0.0041,0.0049,0.0074,-0.0021,0.0032,-0.0077,-2.03,0.73,0.10,0,3.890,-0.016,0.174,0.431,0.013,-0.038,1.001,0.000,0.000,0.000,0.0080,2,0,0.00,0.00,0.00,0.0000,0.0000,0.0000
2643,-0.0045,0.0049,0.0075,-0.0045,0.0029,-0.0049,-1.99,0.71,0.09,0,3.901,-0.089,-0.031,-0.016,0.014,-0.038,0.999,0.000,0.000,0.000,0.0100,3,0,0.00,0.00,0.00,0.0000,0.0000,0.0000
2695,-0.0043,0.0049,0.0084,-0.0023,0.0028,0.0009,-2.00,0.72,0.10,0,3.890,-0.193,0.265,0.470,0.012,-0.037,0.999,0.000,0.000,0.000,0.0070,5,1,0.00,0.00,0.00,0.0000,0.0000,0.0000
2746,-0.0043,0.0051,0.0079,-0.0016,0.0032,-0.0018,-2.06,0.71,0.10,0,3.901,0.071,0.095,-0.022,0.012,-0.039,0.998,0.000,0.000,0.000,0.0100,3,-4,0.00,0.00,0.00,0.0000,0.0000,0.0000
2797,-0.0043,0.0049,0.0088,-0.0014,0.0010,0.0031,-2.05,0.71,0.10,0,3.890,0.103,0.062,0.225,0.013,-0.038,0.998,0.000,0.000,0.000,0.0080,-1,-8,0.00,0.00,0.00,0.0000,0.0000,0.0000
2848,-0.0052,0.0038,0.0085,-0.0058,-0.0056,0.0010,-1.99,0.70,0.10,0,3.901,-0.156,-0.355,0.106,0.012,-0.039,1.000,0.000,0.000,0.000,0.0090,4,-5,0.00,0.00,0.00,0.0000,0.0000,0.0000
2899,-0.0051,0.0041,0.0088,-0.0055,-0.0040,0.0020,-2.01,0.67,0.10,0,3.890,0.271,-0.010,-0.134,0.011,-0.039,0.999,0.000,0.000,0.000,0.0080,1,-2,0.00,0.00,0.00,0.0000,0.0000,0.0000
2950,-0.0055,0.0061,0.0086,-0.0071,0.0073,0.0002,-2.05,0.74,0.11,0,3.901,0.142,0.079,0.317,0.013,-0.037,1.000,0.000,0.000,0.000,0.0070,1,1,0.00,0.00,0.00,0.0000,0.0000,0.0000
3001,-0.0043,0.0066,0.0079,0.0009,0.0076,-0.0031,-2.11,0.72,0.11,0,3.890,-0.018,-0.118,-0.200,0.012,-0.038,0.997,0.000,0.000,0.000,0.0110,6,5,0.00,0.00,0.00,0.0000,0.0000,0.0000
3052,-0.0049,0.0064,0.0092,-0.0015,0.0041,0.0046,-2.08,0.71,0.11,0,3.901,0.123,0.081,0.003,0.012,-0.036,1.002,0.000,0.000,0.000,0.0080,0,2,0.00,0.00,0.00,0.0000,0.0000,0.0000
3103,-0.0053,0.0064,0.0089,-0.0035,0.0022,0.0022,-2.06,0.72,0.11,0,3.896,-0.148,0.157,-0.076,0.014,-0.038,1.000,0.000,0.000,0.000,0.0080,6,2,0.00,0.00,0.00,0.0000,0.0000,0.0000
3154,-0.0056,0.0069,0.0086,-0.0036,0.0035,0.0001,-2.04,0.68,0.11,0,3.901,0.209,0.213,-0.198,0.010,-0.039,1.000,0.000,0.000,0.000,0.0120,0,3,0.00,0.00,0.00,0.0000,0.0000,0.0000
3205,-0.0052,0.0067,0.0101,-0.0007,0.0012,0.0075,-1.90,0.70,0.11,0,3.890,-0.090,-0.134,-0.093,0.014,-0.038,0.999,0.000,0.000,0.000,0.0080,3,1,0.00,0.00,0.00,0.0000,0.0000,0.0000
3256,-0.0058,0.0043,0.0094,-0.0034,-0.0114,0.0027,-1.99,0.72,0.11,0,3.901,0.346,-0.227,-0.335,0.013,-0.040,1.001,0.000,0.000,0.000,0.0100,1,-4,0.00,0.00,0.00,0.0000,0.0000,0.0000
3307,-0.0061,0.0050,0.0098,-0.0030,-0.0067,0.0038,-1.97,0.69,0.12,0,3.890,0.169,-0.159,0.307,0.012,-0.037,1.000,0.000,0.000,0.000,0.0060,4,-2,0.00,0.00,0.00,0.0000,0.0000,0.0000
3358,-0.0064,0.0052,0.0082,-0.0044,-0.0053,-0.0055,-1.98,0.69,0.11,0,3.901,-0.143,0.137,-0.009,0.012,-0.039,1.000,0.000,0.000,0.000,0.0100,0,0,0.00,0.00,0.00,0.0000,0.0000,0.0000
3410,-0.0058,0.0052,0.0088,-0.0011,-0.0046,-0.0009,-1.99,0.65,0.11,0,3.890,0.112,0.136,-0.073,0.013,-0.037,1.000,0.000,0.000,0.000,0.0100,2,0,0.00,0.00,0.00,0.0000,0.0000,0.0000
3460,-0.0061,0.0051,0.0094,-0.0017,-0.0034,0.0024,-1.99,0.68,0.11,0,3.901,-0.019,0.019,-0.062,0.011,-0.039,1.000,0.000,0.000,0.000,0.0100,5,-1,0.00,0.00,0.00,0.0000,0.0000,0.0000
3511,-0.0063,0.0054,0.0097,-0.0022,-0.0021,0.0037,-1.99,0.67,0.12,0,3.890,-0.128,-0.332,0.035,0.012,-0.036,0.999,0.000,0.000,0.000,0.0110,0,1,0.00,0.00,0.00,0.0000,0.0000,0.0000
3562,-0.0056,0.0045,0.0105,0.0018,-0.0053,0.0066,-2.02,0.65,0.12,0,3.901,0.348,-0.138,0.125,0.012,-0.038,1.002,0.000,0.000,0.000,0.0090,-1,-1,0.00,0.00,0.00,0.0000,0.0000,0.0000
3613,-0.0063,0.0042,0.0101,-0.0011,-0.0063,0.0033,-2.02,0.68,0.12,0,3.890,-0.034,0.161,0.142,0.013,-0.040,0.999,0.000,0.000,0.000,0.0100,-1,-1,0.00,0.00,0.00,0.0000,0.0000,0.0000
3664,-0.0063,0.0051,0.0102,-0.0009,-0.0020,0.0031,-2.03,0.66,0.12,0,3.901,-0.033,0.163,-0.011,0.014,-0.034,1.001,0.000,0.000,0.000,0.0090,-5,0,0.00,0.00,0.00,0.0000,0.0000,0.0000
3716,-0.0061,0.0043,0.0098,0.0009,-0.0065,0.0004,-2.06,0.65,0.12,0,3.890,-0.015,0.064,0.246,0.011,-0.038,1.000,0.000,0.000,0.000,0.0090,0,2,0.00,0.00,0.00,0.0000,0.0000,0.0000
3768,-0.0058,0.0051,0.0095,0.0017,-0.0012,-0.0012,-2.03,0.67,0.13,0,3.901,0.014,0.090,0.139,0.013,-0.038,0.998,0.000,0.000,0.000,0.0070,0,0,0.00,0.00,0.00,0.0000,0.0000,0.0000
3818,-0.0063,0.0047,0.0083,0.0002,-0.0040,-0.0068,-2.02,0.66,0.13,0,3.890,-0.089,0.330,0.125,0.012,-0.039,0.999,0.000,0.000,0.000,0.0140,0,5,0.00,0.00,0.00,0.0000,0.0000,0.0000
3869,0.0002,-0.0000,0.0140,0.0088,-0.0059,-0.0004,-0.04,0.08,0.00,0,3.901,-0.084,-0.197,-0.084,0.013,-0.038,0.997,0.000,0.000,0.000,0.0060,1,0,0.00,0.00,0.00,0.0000,0.0000,0.0000
3920,0.0003,-0.0007,0.0099,0.0070,-0.0222,-0.0048,-0.23,0.21,0.01,0,3.890,-0.110,0.269,0.011,0.013,-0.038,0.997,0.000,0.000,0.000,0.0090,1,2,0.00,0.00,0.00,0.0000,0.0000,0.0000
3971,0.0006,-0.0015,0.0094,0.0100,-0.0318,-0.0057,-0.59,0.34,0.01,0,3.901,0.134,-0.160,-0.013,0.015,-0.039,1.000,0.000,0.000,0.000,0.0080,3,-3,0.00,0.00,0.00,0.0000,0.0000,0.0000
4022,0.0006,-0.0011,0.0087,0.0087,-0.0220,-0.0076,-0.94,0.40,0.01,0,3.890,0.019,-0.019,-0.401,0.012,-0.039,1.000,0.000,0.000,0.000,0.0060,1,2,0.00,0.00,0.00,0.0000,0.0000,0.0000
4073,0.0008,-0.0015,0.0073,0.0093,-0.0233,-0.0132,-1.01,0.49,0.01,0,3.901,0.110,-0.100,-0.097,0.013,-0.038,0.998,0.000,0.000,0.000,0.0130,2,0,0.00,0.00,0.00,0.0000,0.0000,0.0000
4124,0.0008,-0.0014,0.0095,0.0082,-0.0187,0.0022,-1.48,0.43,0.02,0,3.890,-0.050,0.100,0.232,0.014,-0.036,1.001,0.000,0.000,0.000,0.0100,5,-3,0.00,0.00,0.00,0.0000,0.0000,0.0000
4175,0.0008,-0.0010,0.0099,0.0063,-0.0133,0.0039,-1.50,0.58,0.01,0,3.901,0.214,0.255,0.013,0.013,-0.038,0.999,0.000,0.000,0.000,0.0080,1,-4,0.00,0.00,0.00,0.0000,0.0000,0.0000
4227,0.0003,-0.0016,0.0092,0.0018,-0.0153,-0.0001,-1.67,0.63,0.01,0,3.890,-0.010,0.271,-0.054,0.011,-0.039,0.999,0.000,0.000,0.000,0.0090,1,2,0.00,0.00,0.00,0.0000,0.0000,0.0000
4277,0.0012,-0.0019,0.0091,0.0073,-0.0161,-0.0002,-1.81,0.63,0.02,0,3.901,-0.109,0.085,-0.290,0.014,-0.040,1.000,0.000,0.000,0.000,0.0120,1,0,0.00,0.00,0.00,0.0000,0.0000,0.0000
4329,0.0002,-0.0015,0.0105,0.0003,-0.0131,0.0071,-1.81,0.68,0.02,0,3.890,-0.071,-0.093,-0.068,0.015,-0.040,0.998,0.000,0.000,0.000,0.0120,-6,0,0.00,0.00,0.00,0.0000,0.0000,0.0000
4379,0.0006,-0.0021,0.0115,0.0033,-0.0159,0.0103,-1.94,0.67,0.02,0,3.901,-0.114,0.022,0.070,0.012,-0.038,0.999,0.000,0.000,0.000,0.0110,0,-1,0.00,0.00,0.00,0.0000,0.0000,0.0000
4430,0.0002,-0.0007,0.0117,0.0002,-0.0069,0.0091,-1.98,0.73,0.02,0,3.890,-0.061,-0.060,0.007,0.013,-0.039,0.998,0.000,0.000,0.000,0.0060,1,0,0.00,0.00,0.00,0.0000,0.0000,0.0000
4481,0.0002,-0.0012,0.0094,0.0003,-0.0087,-0.0037,-1.93,0.68,0.02,0,3.901,-0.271,-0.094,0.232,0.015,-0.036,1.002,0.000,0.000,0.000,0.0090,2,3,0.00,0.00,0.00,0.0000,0.0000,0.0000
4532,0.0002,-0.0011,0.0091,0.0013,-0.0071,-0.0041,-2.00,0.72,0.03,0,3.890,-0.003,0.047,0.037,0.011,-0.036,1.001,0.000,0.000,0.000,0.0080,4,0,0.00,0.00,0.00,0.0000,0.0000,0.0000
4583,0.0014,-0.0004,0.0085,0.0076,-0.0025,-0.0058,-1.97,0.73,0.03,0,3.901,-0.190,-0.007,-0.026,0.011,-0.037,1.000,0.000,0.000,0.000,0.0090,-2,-4,0.00,0.00,0.00,0.0000,0.0000,0.0000
4634,-0.0005,-0.0010,0.0085,-0.0028,-0.0058,-0.0038,-1.99,0.68,0.03,0,3.896,0.261,0.136,-0.247,0.015,-0.039,1.001,0.000,0.000,0.000,0.0100,0,0,0.00,0.00,0.00,0.0000,0.0000,0.0000
4685,0.0006,-0.0005,0.0091,0.0037,-0.0031,0.0002,-2.02,0.69,0.03,0,3.901,0.105,-0.293,0.044,0.010,-0.037,0.999,0.000,0.000,0.000,0.0090,0,-3,0.00,0.00,0.00,0.0000,0.0000,0.0000
4736,0.0004,-0.0010,0.0091,0.0027,-0.0059,0.0000,-2.02,0.70,0.03,0,3.890,-0.058,0.122,0.008,0.012,-0.038,1.001,0.000,0.000,0.000,0.0070,-3,-4,0.00,0.00,0.00,0.0000,0.0000,0.0000
4787,-0.0005,-0.0013,0.0081,-0.0034,-0.0071,-0.0042,-2.04,0.68,0.03,0,3.901,0.063,0.151,-0.057,0.013,-0.039,0.997,0.000,0.000,0.000,0.0090,-2,0,0.00,0.00,0.00,0.0000,0.0000,0.0000
4839,0.0004,-0.0012,0.0084,0.0018,-0.0068,-0.0022,-2.03,0.68,0.03,0,3.890,0.098,-0.057,-0.237,0.013,-0.039,1.001,0.000,0.000,0.000,0.0110,0,-2,0.00,0.00,0.00,0.0000,0.0000,0.0000
4890,-0.0001,-0.0014,0.0096,-0.0004,-0.0074,0.0047,-2.00,0.68,0.02,0,3.901,0.064,-0.211,-0.263,0.013,-0.039,0.998,0.000,0.000,0.000,0.0090,-2,1,0.00,0.00,0.00,0.0000,0.0000,0.0000
4941,0.0004,-0.0012,0.0095,0.0020,-0.0057,0.0031,-2.02,0.69,0.02,0,3.890,0.210,0.226,-0.095,0.015,-0.036,0.999,0.000,0.000,0.000,0.0080,0,2,0.00,0.00,0.00,0.0000,0.0000,0.0000
4992,0.0011,-0.0014,0.0089,0.0059,-0.0063,-0.0005,-2.03,0.69,0.02,0,3.901,0.139,-0.116,0.161,0.013,-0.037,1.001,0.000,0.000,0.000,0.0080,1,0,0.00,0.00,0.00,0.0000,0.0000,0.0000
5043,0.0004,-0.0007,0.0085,0.0019,-0.0027,-0.0020,-2.01,0.65,0.02,0,3.505,-0.398,-0.142,0.437,0.013,-0.036,0.998,0.000,0.000,0.000,0.0080,-1,0,0.00,0.00,0.00,0.0000,0.0000,0.0000
5094,0.0001,-0.0017,0.0082,0.0006,-0.0070,-0.0023,-2.02,0.70,0.02,0,3.521,-1.637,-1.215,1.827,0.011,-0.039,1.008,0.000,0.000,0.000,0.0070,1,0,0.00,0.00,0.00,0.0000,0.0000,0.0000
5145,0.0001,-0.0016,0.0076,-0.0030,0.0039,-0.0045,-2.07,0.71,0.02,0,3.574,-1.370,-1.395,0.799,0.005,-0.033,1.013,0.000,0.000,0.000,0.0080,-3,-8,0.00,0.00,0.00,0.0000,0.0000,0.0000
5196,-0.0007,-0.0022,0.0077,-0.0124,0.0151,-0.0017,-2.13,0.70,0.04,0,3.616,0.475,-1.531,4.251,-0.007,-0.015,0.976,0.000,0.000,0.000,0.0100,2,1,0.00,0.00,0.00,0.0000,0.0000,0.0000
5247,0.0005,-0.0007,0.0088,-0.0107,0.0341,0.0032,-2.05,0.78,0.22,0,3.626,4.709,-2.152,19.688,0.020,-0.056,0.993,0.000,0.000,0.000,0.0110,0,-4,0.00,0.00,0.00,0.0000,0.0000,0.0000
5299,-0.0000,-0.0010,0.0101,-0.0164,0.0403,0.0077,-2.01,0.71,0.99,0,3.637,3.017,-2.670,0.503,-0.002,-0.027,0.997,0.000,0.000,0.000,0.0100,0,0,0.00,0.00,0.00,0.0000,0.0000,0.0000
5350,0.0004,-0.0018,0.0105,-0.0169,0.0424,0.0062,-1.86,0.75,1.27,0,3.632,2.803,-3.079,2.270,-0.005,-0.029,0.962,0.000,0.000,0.000,0.0090,-15,6,0.00,0.00,0.00,0.0000,0.0000,0.0000
5401,-0.0023,0.0134,0.0090,-0.0327,0.1205,-0.0052,-2.61,1.09,1.50,0,3.637,2.964,0.968,-3.346,-0.018,-0.022,0.982,0.000,0.000,0.000,0.0100,-43,15,0.00,0.00,0.00,0.0000,0.0000,0.0000
5452,-0.0119,0.0391,0.0058,-0.0775,0.2292,-0.0226,-3.31,1.33,1.44,0,3.616,7.233,3.627,4.253,0.014,-0.033,1.007,0.000,0.000,0.000,0.0070,0,9,0.00,0.00,0.00,0.0000,0.0000,0.0000
5503,-0.0220,0.0733,-0.0005,-0.1152,0.3548,-0.0477,-3.23,1.36,1.61,0,3.632,23.926,-0.471,5.849,0.015,-0.052,1.066,0.000,0.000,0.000,0.0060,2,0,0.00,0.00,0.00,0.0000,0.0000,0.0000
5554,-0.0244,0.0732,0.0071,-0.1092,0.2958,0.0163,-1.86,0.96,1.81,0,3.632,26.145,0.229,-2.136,0.001,-0.039,0.999,0.000,0.000,0.000,0.0080,2,0,0.00,0.00,0.00,0.0000,0.0000,0.0000
5606,-0.0244,0.0712,0.0120,-0.0930,0.2287,0.0441,-0.01,0.86,1.84,0,3.637,13.527,-2.829,-5.050,0.002,-0.025,0.967,0.000,0.000,0.000,0.0130,2,-9,0.00,0.00,0.00,0.0000,0.0000,0.0000
5656,-0.0240,0.0679,0.0157,-0.0757,0.1586,0.0465,1.29,0.70,1.68,0,3.616,-0.315,-1.477,-7.080,0.019,-0.004,1.010,0.000,0.000,0.000,0.0130,0,2,0.00,0.00,0.00,0.0000,0.0000,0.0000
5708,-0.0239,0.0691,0.0164,-0.0619,0.1163,0.0323,1.57,0.71,1.31,0,3.621,5.208,-6.716,-2.158,0.021,0.010,0.981,0.000,0.000,0.000,0.0110,0,2,0.00,0.00,0.00,0.0000,0.0000,0.0000
5758,-0.0279,0.0716,0.0153,-0.0718,0.0903,0.0210,1.92,0.78,1.17,0,3.605,6.134,-6.329,2.511,0.009,-0.015,0.993,0.000,0.000,0.000,0.0110,2,0,0.00,0.00,0.00,0.0000,0.0000,0.0000
5809,-0.0311,0.0693,0.0143,-0.0750,0.0448,0.0121,2.38,0.74,1.23,0,3.605,-4.072,-2.724,-0.834,0.011,0.007,1.001,0.000,0.000,0.000,0.0120,13,3,0.00,0.00,0.00,0.0000,0.0000,0.0000
5860,-0.0342,0.0626,0.0133,-0.0768,-0.0133,-0.0006,2.51,0.62,1.27,0,3.595,1.260,9.492,0.821,0.018,0.003,1.031,0.000,0.000,0.000,0.0120,21,6,0.00,0.00,0.00,0.0000,0.0000,0.0000
5912,-0.0360,0.0519,0.0123,-0.0724,-0.0792,0.0033,3.10,0.45,1.33,0,3.589,-3.534,-2.609,3.091,0.005,0.003,1.045,0.000,0.000,0.000,0.0120,10,1,0.00,0.00,0.00,0.0000,0.0000,0.0000
5963,-0.0402,0.0342,0.0106,-0.0778,-0.1654,0.0016,3.52,0.20,1.52,0,3.574,-37.702,23.032,7.401,0.003,-0.006,0.985,0.000,0.000,0.000,0.0110,41,7,0.00,0.00,0.00,0.0000,0.0000,0.0000
6014,-0.0438,0.0148,0.0084,-0.0760,-0.2436,-0.0154,2.76,-1.00,1.89,0,3.579,-50.846,15.148,4.577,0.008,0.000,1.015,0.000,0.000,0.000,0.0150,15,-5,0.00,0.00,0.00,0.0000,0.0000,0.0000
6065,-0.0409,-0.0153,0.0062,-0.0323,-0.3440,-0.0152,0.56,-2.43,2.05,0,3.574,-45.825,1.041,-1.696,0.004,-0.023,1.025,0.000,0.000,0.000,0.0080,10,-32,0.00,0.00,0.00,0.0000,0.0000,0.0000
6117,-0.0292,-0.0260,0.0079,0.0501,-0.3106,0.0079,-2.18,-3.27,1.70,0,3.574,-29.615,-13.888,0.307,0.011,-0.022,1.047,0.000,0.000,0.000,0.0010,-8,-16,0.00,0.00,0.00,0.0000,0.0000,0.0000
6168,-0.0092,-0.0175,0.0065,0.1571,-0.1753,0.0205,-4.96,-3.26,1.28,0,3.558,32.067,-53.180,-0.841,0.004,-0.012,1.043,0.000,0.000,0.000,0.0000,-27,-19,0.00,0.00,0.00,0.0000,0.0000,0.0000
6219,0.0142,0.0151,-0.0016,0.2573,0.0610,-0.0051,-4.99,-1.45,1.05,0,3.537,81.203,-62.915,-1.069,0.010,-0.022,1.056,0.000,0.000,0.000,0.0000,-64,-31,0.00,0.00,0.00,0.0000,0.0000,0.0000
6270,0.0341,0.0609,-0.0139,0.3018,0.2945,-0.0375,-2.77,1.31,0.69,0,3.526,89.939,-67.047,1.282,0.008,-0.025,1.087,0.000,0.000,0.000,0.0000,-26,-7,0.00,0.00,0.00,0.0000,0.0000,0.0000
6321,0.0488,0.1040,-0.0184,0.2840,0.4406,-0.0141,1.00,4.99,0.63,0,3.537,84.296,-12.463,2.625,-0.003,-0.010,1.096,0.000,0.000,0.000,0.0080,-31,10,0.00,0.00,0.00,0.0000,0.0000,0.0000
6372,0.0506,0.1296,-0.0048,0.1747,0.4389,0.0973,5.28,6.49,0.56,0,3.547,53.406,20.702,0.401,0.001,-0.012,1.040,0.000,0.000,0.000,0.0160,-6,10,0.00,0.00,0.00,0.0000,0.0000,0.0000
6423,0.0402,0.1453,0.0110,0.0269,0.3541,0.1726,8.59,6.41,0.60,0,3.558,-1.251,46.067,0.662,0.007,-0.018,1.002,0.000,0.000,0.000,0.0290,10,22,0.00,0.00,0.00,0.0000,0.0000,0.0000
6474,0.0243,0.1474,0.0266,-0.1038,0.2065,0.2090,9.46,4.92,0.86,0,3.552,-33.688,62.282,0.835,0.007,-0.008,0.964,0.000,0.000,0.000,0.0400,9,16,0.00,0.00,0.00,0.0000,0.0000,0.0000
6526,0.0019,0.1350,0.0371,-0.2163,0.0287,0.1991,8.54,2.43,1.22,0,3.542,-37.214,75.976,-2.195,0.008,-0.003,0.979,0.000,0.000,0.000,0.0510,15,17,0.00,0.00,0.00,0.0000,0.0000,0.0000
6577,-0.0179,0.1198,0.0474,-0.2701,-0.1122,0.1887,7.24,-0.77,1.66,0,3.537,-60.577,46.148,0.017,0.011,-0.004,0.992,0.000,0.000,0.000,0.0550,31,26,0.00,0.00,0.00,0.0000,0.0000,0.0000
6628,-0.0355,0.0971,0.0537,-0.2753,-0.2391,0.1679,4.76,-3.37,1.86,0,3.537,-58.857,44.383,3.697,0.002,0.001,1.010,0.000,0.000,0.000,0.0710,16,11,0.00,0.00,0.00,0.0000,0.0000,0.0000
6679,-0.0503,0.0709,0.0652,-0.2452,-0.3361,0.1820,2.22,-5.67,2.14,0,3.531,-49.490,8.293,5.813,0.013,-0.003,1.032,0.000,0.000,0.000,0.0780,32,6,0.00,0.00,0.00,0.0000,0.0000,0.0000
6730,-0.0580,0.0498,0.0775,-0.1755,-0.3670,0.2051,-0.06,-6.61,2.35,0,3.542,-71.525,-19.318,-0.011,0.011,0.004,1.019,0.000,0.000,0.000,0.0830,30,1,0.00,0.00,0.00,0.0000,0.0000,0.0000
6781,-0.0579,0.0349,0.0868,-0.0999,-0.3619,0.2153,-3.46,-5.94,2.33,0,3.537,-23.486,4.259,0.247,-0.001,0.002,1.006,0.000,0.000,0.000,0.0900,8,0,0.00,0.00,0.00,0.0000,0.0000,0.0000
6832,-0.0571,0.0198,0.0956,-0.0288,-0.3193,0.2083,-5.32,-6.06,2.17,0,3.542,-0.399,-38.761,0.157,0.002,-0.004,0.997,0.000,0.000,0.000,0.1040,6,-10,0.00,0.00,0.00,0.0000,0.0000,0.0000
6884,-0.0543,0.0102,0.1075,0.0337,-0.2471,0.2132,-5.57,-4.49,2.24,0,3.531,-1.998,-41.459,0.041,-0.005,-0.003,0.987,0.000,0.000,0.000,0.1110,3,-11,-5.32,-6.06,2.17,-0.0571,0.0198,0.1040
6935,-0.0508,0.0031,0.1160,0.0724,-0.1813,0.1957,-5.80,-2.46,2.37,0,3.537,10.744,-19.149,-2.106,-0.003,-0.009,0.980,0.000,0.000,0.000,0.1220,-1,-4,-5.29,-7.93,2.36,-0.0498,0.0167,0.1098
6986,-0.0446,-0.0011,0.1256,0.1001,-0.1159,0.1865,-5.47,-1.35,2.36,0,3.531,26.355,-22.134,-2.153,-0.004,-0.013,0.991,0.000,0.000,0.000,0.1270,-6,-10,-2.78,-5.72,2.12,-0.0516,0.0186,0.1188
7037,-0.0387,-0.0035,0.1320,0.1123,-0.0609,0.1648,-4.32,-0.29,2.33,0,3.526,26.739,-24.010,-1.603,-0.005,-0.013,0.990,0.000,0.000,0.000,0.1260,-4,-7,-1.55,-3.12,1.84,-0.0522,0.0209,0.1318
7088,-0.0330,-0.0025,0.1353,0.1137,-0.0122,0.1365,-3.04,0.84,2.27,0,3.516,19.569,-13.685,-2.401,-0.001,-0.014,1.001,0.000,0.000,0.000,0.1240,-4,-3,0.38,-3.59,1.78,-0.0502,0.0218,0.1312
7140,-0.0279,-0.0017,0.1345,0.1058,0.0167,0.0971,-2.07,1.54,2.18,0,3.510,19.091,-7.627,-1.246,-0.001,-0.010,1.019,0.000,0.000,0.000,0.1320,-6,-6,1.18,-3.94,1.51,-0.0493,0.0225,0.1315
7191,-0.0236,-0.0005,0.1371,0.0888,0.0336,0.0898,-1.06,1.98,2.12,0,3.500,22.107,-4.461,-2.045,-0.002,-0.015,1.029,0.000,0.000,0.000,0.1340,-3,-2,1.68,-3.31,0.86,-0.0484,0.0241,0.1376
7242,-0.0192,0.0038,0.1387,0.0733,0.0531,0.0852,-0.13,2.15,2.06,0,3.505,11.030,2.104,-1.024,0.000,-0.016,1.038,0.000,0.000,0.000,0.1360,-2,-1,2.66,-3.25,0.57,-0.0478,0.0246,0.1397
7293,-0.0162,0.0074,0.1409,0.0537,0.0579,0.0904,0.46,2.08,2.03,0,3.500,7.626,8.351,-0.170,0.004,-0.011,1.047,0.000,0.000,0.000,0.1390,-4,-1,2.86,-2.78,0.15,-0.0477,0.0248,0.1444
7344,-0.0144,0.0101,0.1433,0.0344,0.0534,0.0980,0.91,1.76,2.01,0,3.505,6.880,7.585,-0.072,0.005,-0.014,1.052,0.000,0.000,0.000,0.1480,0,0,2.69,-2.00,-0.31,-0.0474,0.0257,0.1488
7395,-0.0133,0.0133,0.1495,0.0176,0.0476,0.1253,1.25,1.40,2.00,0,3.505,1.505,7.950,-0.823,0.003,-0.012,1.045,0.000,0.000,0.000,0.1530,0,0,3.04,-1.62,-0.30,-0.0483,0.0246,0.1557
7446,-0.0120,0.0174,0.1555,0.0085,0.0445,0.1445,1.25,0.99,2.00,0,3.516,1.623,9.513,-0.524,0.003,-0.010,1.040,0.000,0.000,0.000,0.1690,2,0,3.12,-1.20,-0.32,-0.0498,0.0218,0.1630
7497,-0.0126,0.0196,0.1672,-0.0029,0.0334,0.1840,1.33,0.52,1.99,0,3.516,-0.988,8.351,-0.590,0.007,-0.016,1.028,0.000,0.000,0.000,0.1750,-1,0,2.42,-0.31,-1.24,-0.0477,0.0253,0.1763
7548,-0.0122,0.0192,0.1769,-0.0047,0.0154,0.2007,1.37,0.03,1.96,0,3.531,-5.228,5.496,-2.094,0.008,-0.011,1.012,0.000,0.000,0.000,0.1920,0,0,2.05,0.14,-1.64,-0.0474,0.0252,0.1842
7599,-0.0121,0.0287,0.1911,-0.0038,0.0366,0.2276,0.93,-0.23,1.93,0,3.526,0.980,5.722,-1.734,0.004,-0.007,0.999,0.000,0.000,0.000,0.2070,6,1,1.79,0.42,-1.74,-0.0474,0.0232,0.1973
7650,-0.0124,0.0307,0.2058,-0.0021,0.0299,0.2446,1.04,-0.48,1.81,0,3.531,5.745,1.229,-3.483,0.007,-0.011,0.979,0.000,0.000,0.000,0.2050,0,1,1.65,0.61,-2.06,-0.0481,0.0222,0.2116
7702,-0.0125,0.0273,0.2143,0.0017,0.0054,0.2214,1.23,-0.61,1.64,0,3.526,-6.398,1.424,-3.442,0.004,-0.013,0.976,0.000,0.000,0.000,0.2180,3,-1,1.69,0.61,-2.61,-0.0483,0.0219,0.2207
7754,-0.0123,0.0234,0.2228,0.0066,-0.0184,0.1982,1.14,-0.68,1.45,0,3.526,-9.853,-1.678,-2.581,0.003,-0.010,0.974,0.000,0.000,0.000,0.2290,0,0,1.29,0.72,-2.89,-0.0477,0.0204,0.2300
7805,-0.0112,0.0217,0.2326,0.0146,-0.0293,0.1865,0.70,-0.65,1.30,0,3.521,-8.891,-3.611,-3.347,0.004,-0.012,0.975,0.000,0.000,0.000,0.2420,2,0,0.78,0.64,-3.03,-0.0470,0.0178,0.2388
7856,-0.0101,0.0176,0.2426,0.0206,-0.0424,0.1793,0.36,-0.51,1.12,0,3.526,-3.975,0.035,-2.892,0.003,-0.007,0.977,0.000,0.000,0.000,0.2470,0,0,-0.01,0.30,-3.75,-0.0479,0.0196,0.2489
7907,-0.0086,0.0159,0.2509,0.0261,-0.0436,0.1651,0.03,-0.42,0.97,0,3.521,-7.126,-5.163,-2.839,0.007,-0.009,0.972,0.000,0.000,0.000,0.2590,2,-1,-0.22,0.30,-3.90,-0.0477,0.0188,0.2565
7958,-0.0065,0.0123,0.2596,0.0315,-0.0482,0.1567,-0.22,-0.17,0.82,0,3.526,-2.521,-3.013,-2.354,0.007,-0.009,0.975,0.000,0.000,0.000,0.2690,1,-1,-0.64,-0.00,-4.15,-0.0477,0.0187,0.2645
8009,-0.0047,0.0102,0.2692,0.0334,-0.0456,0.1549,-0.33,-0.04,0.68,0,3.521,-3.475,-0.448,-2.151,0.001,-0.008,0.974,0.000,0.000,0.000,0.2740,1,-2,-0.77,-0.15,-4.26,-0.0472,0.0182,0.2727
8060,-0.0033,0.0075,0.2761,0.0330,-0.0440,0.1393,-0.51,0.03,0.56,0,3.526,-1.767,-2.484,-2.603,0.004,-0.009,0.971,0.000,0.000,0.000,0.2830,0,-1,-0.93,-0.13,-4.31,-0.0461,0.0176,0.2795
8112,0.0000,0.0064,0.2840,0.0368,-0.0375,0.1307,-0.61,0.16,0.41,0,3.516,-0.911,-0.548,-1.853,0.000,-0.012,0.971,0.000,0.000,0.000,0.2900,-1,-1,-1.04,-0.29,-4.49,-0.0455,0.0177,0.2864
8164,0.0023,0.0042,0.2907,0.0365,-0.0337,0.1191,-0.63,0.31,0.28,0,3.526,2.883,-1.184,-1.755,0.005,-0.011,0.971,0.000,0.000,0.000,0.2940,0,0,-1.13,-0.32,-4.62,-0.0449,0.0184,0.2927
8215,0.0041,0.0042,0.2962,0.0340,-0.0249,0.1044,-0.53,0.34,0.17,0,3.516,0.532,0.510,-0.936,0.005,-0.011,0.977,0.000,0.000,0.000,0.2990,0,-3,-0.98,-0.38,-4.71,-0.0443,0.0190,0.2976
8266,0.0066,0.0020,0.3006,0.0333,-0.0233,0.0893,-0.44,0.33,0.08,0,3.521,1.406,-3.741,-3.077,0.003,-0.009,0.979,0.000,0.000,0.000,0.3030,0,0,-0.88,-0.32,-4.65,-0.0430,0.0182,0.3021
8318,0.0114,0.0009,0.3047,0.0378,-0.0196,0.0774,-0.40,0.39,-0.01,0,3.510,1.344,-3.756,-1.101,0.005,-0.012,0.983,0.000,0.000,0.000,0.3080,0,0,-0.81,-0.51,-4.81,-0.0422,0.0185,0.3060
8370,0.0152,0.0004,0.3084,0.0390,-0.0152,0.0678,-0.39,0.50,-0.07,0,3.516,1.375,-2.385,-1.578,0.004,-0.011,0.987,0.000,0.000,0.000,0.3130,0,0,-0.74,-0.71,-4.86,-0.0415,0.0188,0.3098
8421,0.0173,0.0001,0.3128,0.0355,-0.0112,0.0667,-0.30,0.65,-0.14,0,3.505,0.407,-0.111,-1.242,0.006,-0.010,0.989,0.000,0.000,0.000,0.3120,1,0,-0.67,-0.84,-4.94,-0.0409,0.0191,0.3136
8472,0.0208,0.0018,0.3144,0.0341,-0.0035,0.0526,-0.21,0.63,-0.18,0,3.510,2.049,-0.327,-1.069,0.004,-0.009,0.989,0.000,0.000,0.000,0.3180,-1,0,-0.60,-0.87,-5.01,-0.0416,0.0180,0.3158
8524,0.0230,-0.0012,0.3178,0.0301,-0.0077,0.0510,-0.14,0.63,-0.23,0,3.505,-3.558,1.205,-0.213,0.001,-0.012,0.991,0.000,0.000,0.000,0.3180,0,0,-0.52,-0.87,-5.06,-0.0417,0.0184,0.3190
8575,0.0251,-0.0015,0.3194,0.0264,-0.0063,0.0421,-0.13,0.58,-0.25,0,3.510,1.035,-0.551,-0.042,0.001,-0.009,0.992,0.000,0.000,0.000,0.3220,1,0,-0.71,-0.81,-5.07,-0.0423,0.0187,0.3209
8626,0.0268,-0.0007,0.3220,0.0222,-0.0031,0.0401,-0.02,0.54,-0.25,0,3.505,-4.591,1.107,0.675,0.001,-0.013,0.991,0.000,0.000,0.000,0.3210,0,0,-0.62,-0.78,-5.00,-0.0416,0.0178,0.3233
8677,0.0265,-0.0010,0.3229,0.0149,-0.0030,0.0312,-0.11,0.47,-0.23,0,3.505,5.904,2.482,0.721,0.002,-0.012,0.994,0.000,0.000,0.000,0.3200,0,0,-0.85,-0.72,-4.97,-0.0421,0.0176,0.3244
8729,0.0273,-0.0012,0.3226,0.0113,-0.0025,0.0185,0.05,0.44,-0.22,0,3.494,-1.251,5.983,1.406,0.003,-0.013,0.998,0.000,0.000,0.000,0.3270,0,0,-0.55,-0.60,-4.93,-0.0428,0.0173,0.3246
8781,0.0259,-0.0017,0.3253,0.0038,-0.0037,0.0255,-0.03,0.23,-0.17,0,3.505,0.072,0.546,1.060,0.004,-0.008,1.004,0.000,0.000,0.000,0.3250,0,0,-0.62,-0.29,-4.86,-0.0437,0.0171,0.3267
8831,0.0252,-0.0017,0.3261,0.0000,-0.0033,0.0239,-0.01,0.21,-0.11,0,3.500,-2.472,3.015,1.418,0.004,-0.012,1.004,0.000,0.000,0.000,0.3300,0,0,-0.61,-0.26,-4.81,-0.0446,0.0169,0.3277
8882,0.0244,-0.0012,0.3288,-0.0033,-0.0019,0.0328,0.02,0.15,-0.06,0,3.505,0.814,2.278,0.509,0.002,-0.008,1.001,0.000,0.000,0.000,0.3300,4,1,-0.74,-0.10,-4.74,-0.0456,0.0168,0.3300
8933,0.0228,0.0016,0.3306,-0.0071,0.0035,0.0343,0.05,0.01,-0.03,0,3.500,-1.929,4.254,1.684,0.005,-0.009,0.998,0.000,0.000,0.000,0.3290,-1,0,-0.68,0.06,-4.65,-0.0435,0.0153,0.3317
8984,0.0217,-0.0004,0.3311,-0.0085,-0.0004,0.0289,0.09,-0.09,0.00,0,3.505,-2.150,3.266,1.614,0.003,-0.014,0.996,0.000,0.000,0.000,0.3350,0,0,-0.81,0.28,-4.61,-0.0434,0.0155,0.3325
9035,0.0218,0.0027,0.3339,-0.0066,0.0050,0.0345,0.06,-0.19,0.06,0,3.500,2.450,1.444,1.428,0.009,-0.015,0.997,0.000,0.000,0.000,0.3370,0,1,-0.91,0.45,-4.53,-0.0432,0.0156,0.3348
9086,0.0203,0.0024,0.3365,-0.0072,0.0034,0.0370,0.12,-0.24,0.12,0,3.505,-0.789,1.888,1.179,0.007,-0.007,0.997,0.000,0.000,0.000,0.3360,0,0,-0.78,0.47,-4.51,-0.0443,0.0156,0.3371
9137,0.0190,0.0026,0.3376,-0.0071,0.0024,0.0314,0.13,-0.23,0.15,0,3.500,0.412,1.584,0.624,0.003,-0.009,0.995,0.000,0.000,0.000,0.3390,0,0,-0.82,0.57,-4.45,-0.0441,0.0158,0.3383
9188,0.0187,0.0027,0.3393,-0.0052,0.0013,0.0301,0.14,-0.21,0.14,0,3.505,-0.023,-2.473,0.235,0.006,-0.014,0.996,0.000,0.000,0.000,0.3360,0,0,-0.80,0.65,-4.42,-0.0436,0.0161,0.3399
9239,0.0185,0.0027,0.3388,-0.0034,0.0002,0.0182,0.14,-0.19,0.15,0,3.494,2.403,-1.698,-0.123,0.002,-0.014,0.997,0.000,0.000,0.000,0.3380,0,0,-0.80,0.52,-4.41,-0.0426,0.0164,0.3400
9290,0.0183,0.0027,0.3391,-0.0019,-0.0011,0.0136,0.15,-0.14,0.17,0,3.500,-3.295,0.127,0.852,0.001,-0.016,1.004,0.000,0.000,0.000,0.3400,0,1,-0.68,0.43,-4.41,-0.0413,0.0166,0.3404
9341,0.0202,0.0028,0.3400,0.0026,-0.0021,0.0151,0.07,-0.13,0.21,0,3.489,-0.682,-0.970,0.452,0.004,-0.012,1.003,0.000,0.000,0.000,0.3390,-1,0,-0.84,0.35,-4.44,-0.0452,0.0164,0.3415
9392,0.0196,-0.0026,0.3401,0.0026,-0.0118,0.0124,0.08,-0.08,0.24,0,3.494,-3.078,0.359,0.952,0.000,-0.012,1.003,0.000,0.000,0.000,0.3400,0,0,-0.89,0.30,-4.44,-0.0452,0.0168,0.3418
9443,0.0184,-0.0001,0.3405,0.0009,-0.0078,0.0125,0.09,-0.01,0.26,0,3.489,-2.451,0.818,-0.075,0.001,-0.011,1.005,0.000,0.000,0.000,0.3420,1,0,-1.04,0.32,-4.39,-0.0449,0.0172,0.3424
9494,0.0184,-0.0021,0.3417,0.0009,-0.0107,0.0173,-0.03,-0.02,0.27,0,3.494,-0.131,-1.424,0.143,-0.000,-0.014,1.006,0.000,0.000,0.000,0.3410,0,0,-1.12,0.35,-4.35,-0.0453,0.0162,0.3436
9545,0.0189,-0.0054,0.3421,0.0018,-0.0145,0.0169,-0.15,-0.07,0.28,0,3.489,-2.446,1.273,1.190,0.003,-0.010,1.004,0.000,0.000,0.000,0.3460,0,-1,-1.13,0.27,-4.34,-0.0451,0.0161,0.3441
9596,0.0176,-0.0073,0.3446,-0.0000,-0.0149,0.0277,-0.21,-0.06,0.30,0,3.494,-0.753,-1.175,-0.052,-0.001,-0.010,1.003,0.000,0.000,0.000,0.3450,-1,0,-1.25,0.34,-4.27,-0.0448,0.0160,0.3461
9648,0.0182,-0.0066,0.3458,0.0013,-0.0111,0.0286,-0.25,-0.03,0.32,0,3.489,1.238,0.902,-0.515,0.005,-0.014,0.997,0.000,0.000,0.000,0.3460,0,0,-1.30,0.27,-4.31,-0.0446,0.0166,0.3473
9699,0.0184,-0.0051,0.3469,0.0019,-0.0058,0.0268,-0.26,-0.07,0.30,0,3.494,-0.021,1.523,-0.590,0.004,-0.009,1.000,0.000,0.000,0.000,0.3490,0,-1,-1.23,0.31,-4.34,-0.0440,0.0173,0.3482
9750,0.0185,-0.0040,0.3489,0.0025,-0.0014,0.0294,-0.20,-0.10,0.29,0,3.484,2.208,-0.653,0.463,0.005,-0.011,0.994,0.000,0.000,0.000,0.3470,0,-1,-1.19,0.37,-4.33,-0.0441,0.0164,0.3499
9801,0.0184,-0.0011,0.3490,0.0031,0.0052,0.0215,-0.14,-0.12,0.29,0,3.494,0.442,-1.858,0.402,0.003,-0.013,0.994,0.000,0.000,0.000,0.3530,2,0,-1.07,0.34,-4.29,-0.0434,0.0165,0.3502
9853,0.0224,0.0025,0.3516,0.0103,0.0118,0.0261,-0.10,-0.07,0.29,0,3.489,3.708,-0.130,0.936,0.004,-0.010,0.997,0.000,0.000,0.000,0.3480,0,2,-1.00,0.22,-4.24,-0.0434,0.0152,0.3521
9904,0.0269,0.0023,0.3508,0.0174,0.0111,0.0143,0.09,-0.04,0.32,0,3.489,1.898,-3.264,0.265,0.004,-0.010,0.997,0.000,0.000,0.000,0.3520,1,2,-0.82,0.16,-4.27,-0.0449,0.0153,0.3518
9955,0.0283,0.0032,0.3518,0.0186,0.0107,0.0127,0.23,0.08,0.34,0,3.484,0.413,-1.911,0.437,0.003,-0.016,0.995,0.000,0.000,0.000,0.3510,0,-1,-0.70,-0.04,-4.27,-0.0464,0.0146,0.3525
10006,0.0266,0.0013,0.3519,0.0134,0.0048,0.0077,0.25,0.23,0.36,0,3.489,-1.000,0.453,-0.109,0.002,-0.010,0.999,0.000,0.000,0.000,0.3500,0,-1,-0.70,-0.09,-4.22,-0.0456,0.0146,0.3528
10058,0.0257,0.0014,0.3513,0.0086,0.0024,0.0026,0.22,0.27,0.34,0,3.479,-2.909,1.673,0.616,-0.002,-0.012,1.004,0.000,0.000,0.000,0.3510,-1,0,-0.75,-0.05,-4.22,-0.0448,0.0146,0.3524
10109,0.0266,0.0019,0.3512,0.0070,0.0014,0.0024,0.13,0.26,0.35,0,3.489,-2.131,3.317,1.322,0.002,-0.010,1.000,0.000,0.000,0.000,0.3500,0,0,-0.92,0.03,-4.21,-0.0448,0.0153,0.3525
10160,0.0256,0.0021,0.3508,0.0027,0.0004,-0.0001,0.11,0.19,0.37,0,3.479,0.922,-0.171,0.254,0.002,-0.011,1.005,0.000,0.000,0.000,0.3520,0,0,-1.03,0.20,-4.14,-0.0446,0.0159,0.3521
10211,0.0259,0.0017,0.3514,0.0014,-0.0012,0.0042,0.11,0.12,0.37,0,3.489,1.732,-0.056,-0.069,0.005,-0.009,1.006,0.000,0.000,0.000,0.3530,0,-1,-0.98,0.19,-4.13,-0.0441,0.0166,0.3526
10262,0.0259,0.0016,0.3523,0.0003,-0.0025,0.0096,0.15,0.09,0.38,0,3.479,0.367,0.408,-0.005,0.000,-0.011,0.998,0.000,0.000,0.000,0.3540,0,0,-0.86,0.17,-4.11,-0.0445,0.0151,0.3534
10313,0.0236,0.0009,0.3535,-0.0045,-0.0049,0.0142,0.16,0.07,0.38,0,3.494,-1.681,3.165,-0.071,0.000,-0.011,1.000,0.000,0.000,0.000,0.3590,-9,1,-0.84,0.20,-4.11,-0.0442,0.0152,0.3542
10365,0.0231,0.0012,0.3565,-0.0055,-0.0056,0.0254,0.05,-0.01,0.39,0,3.484,-0.616,4.314,0.727,0.002,-0.011,0.996,0.000,0.000,0.000,0.3570,0,1,-1.04,0.33,-4.27,-0.0446,0.0203,0.3565
10416,0.0219,0.0118,0.3577,-0.0066,0.0122,0.0237,0.04,-0.14,0.39,0,3.489,5.325,1.732,0.621,0.002,-0.011,0.990,0.000,0.000,0.000,0.3570,0,0,-1.01,0.54,-4.17,-0.0451,0.0213,0.3583
10467,0.0204,0.0158,0.3582,-0.0073,0.0178,0.0177,0.19,-0.27,0.41,0,3.479,3.700,-1.441,0.292,0.003,-0.013,0.991,0.000,0.000,0.000,0.3550,0,0,-0.74,0.63,-4.14,-0.0450,0.0230,0.3586
10518,0.0202,0.0173,0.3573,-0.0048,0.0171,0.0053,0.35,-0.26,0.43,0,3.484,-1.466,-1.406,0.356,-0.002,-0.013,0.991,0.000,0.000,0.000,0.3560,0,-1,-0.55,0.55,-4.12,-0.0446,0.0248,0.3578
10569,0.0200,0.0181,0.3568,-0.0026,0.0141,-0.0024,0.34,-0.22,0.46,0,3.473,-1.241,-0.819,0.741,0.001,-0.010,0.999,0.000,0.000,0.000,0.3560,0,-1,-0.55,0.47,-4.00,-0.0449,0.0223,0.3573
10620,0.0214,0.0186,0.3563,0.0014,0.0111,-0.0053,0.33,-0.13,0.46,0,3.484,-1.485,2.523,0.929,0.003,-0.014,1.001,0.000,0.000,0.000,0.3590,1,0,-0.61,0.43,-3.95,-0.0442,0.0223,0.3568
10672,0.0230,0.0141,0.3573,0.0052,-0.0006,-0.0001,0.34,-0.15,0.49,0,3.479,-3.293,-4.302,0.483,0.009,-0.010,0.998,0.000,0.000,0.000,0.3590,0,-1,-0.67,0.54,-3.89,-0.0441,0.0217,0.3574
10724,0.0243,0.0111,0.3581,0.0081,-0.0084,0.0038,0.25,-0.01,0.50,0,3.484,-2.187,-1.876,0.150,0.005,-0.007,0.999,0.000,0.000,0.000,0.3590,1,0,-0.85,0.32,-3.88,-0.0434,0.0216,0.3579
10776,0.0253,0.0125,0.3586,0.0089,-0.0067,0.0050,0.10,0.13,0.52,0,3.473,-2.219,-1.605,-0.241,0.002,-0.007,0.995,0.000,0.000,0.000,0.3550,0,0,-0.95,0.20,-3.86,-0.0435,0.0209,0.3583
10827,0.0266,0.0089,0.3571,0.0097,-0.0132,-0.0049,-0.03,0.09,0.53,0,3.479,-1.525,0.493,0.335,0.002,-0.010,0.998,0.000,0.000,0.000,0.3600,0,0,-1.06,0.11,-3.87,-0.0429,0.0207,0.3572
10878,0.0280,0.0077,0.3582,0.0106,-0.0138,-0.0000,-0.10,0.10,0.55,0,3.473,-2.630,-1.257,-0.065,0.004,-0.014,1.001,0.000,0.000,0.000,0.3600,0,0,-1.14,0.14,-3.86,-0.0421,0.0207,0.3578
10929,0.0309,0.0075,0.3590,0.0141,-0.0120,0.0034,-0.18,0.18,0.53,0,3.479,-1.629,1.262,-0.344,0.002,-0.011,0.998,0.000,0.000,0.000,0.3580,2,0,-1.27,0.07,-3.86,-0.0412,0.0209,0.3583
10980,0.0334,0.0066,0.3587,0.0155,-0.0109,-0.0003,-0.21,0.22,0.51,0,3.473,-0.789,-1.236,-1.111,0.006,-0.009,0.995,0.000,0.000,0.000,0.3560,0,0,-1.32,0.10,-3.89,-0.0434,0.0188,0.3583
11032,0.0331,0.0016,0.3574,0.0116,-0.0170,-0.0078,-0.25,0.30,0.45,0,3.479,-0.038,0.385,-1.163,0.005,-0.010,1.000,0.000,0.000,0.000,0.3540,1,0,-1.36,0.03,-3.94,-0.0432,0.0188,0.3574
11083,0.0336,-0.0028,0.3554,0.0091,-0.0214,-0.0161,-0.24,0.26,0.41,0,3.468,-1.597,-1.279,-0.699,0.003,-0.011,1.001,0.000,0.000,0.000,0.3550,1,0,-1.34,0.04,-4.01,-0.0434,0.0181,0.3560
11134,0.0337,-0.0030,0.3547,0.0063,-0.0178,-0.0152,-0.30,0.26,0.39,0,3.479,-1.764,0.835,-0.633,0.001,-0.014,1.003,0.000,0.000,0.000,0.3550,0,0,-1.41,-0.03,-4.04,-0.0434,0.0176,0.3553
11185,0.0340,-0.0047,0.3542,0.0040,-0.0166,-0.0124,-0.38,0.27,0.33,0,3.463,-0.505,0.653,-2.019,0.005,-0.013,1.002,0.000,0.000,0.000,0.3530,2,0,-1.50,0.01,-4.07,-0.0433,0.0175,0.3548
11236,0.0346,-0.0058,0.3533,0.0026,-0.0138,-0.0124,-0.44,0.22,0.26,0,3.479,-1.373,3.393,-0.860,0.002,-0.012,1.006,0.000,0.000,0.000,0.3580,-1,1,-1.49,0.04,-4.17,-0.0436,0.0160,0.3540
11287,0.0341,-0.0053,0.3550,-0.0001,-0.0076,0.0004,-0.51,0.09,0.18,0,3.468,2.746,0.397,0.109,0.007,-0.013,1.003,0.000,0.000,0.000,0.3530,0,0,-1.57,0.19,-4.25,-0.0441,0.0165,0.3551
11338,0.0327,-0.0029,0.3541,-0.0032,0.0009,-0.0030,-0.35,0.06,0.16,0,3.473,2.711,2.029,0.134,0.001,-0.012,1.000,0.000,0.000,0.000,0.3550,0,0,-1.43,0.21,-4.25,-0.0440,0.0170,0.3545
11389,0.0325,0.0026,0.3544,-0.0037,0.0133,-0.0003,-0.22,0.04,0.16,0,3.468,3.170,1.222,-0.874,0.003,-0.011,1.003,0.000,0.000,0.000,0.3540,0,0,-1.30,0.32,-4.24,-0.0439,0.0179,0.3546
11441,0.0323,0.0023,0.3542,-0.0038,0.0131,-0.0002,-0.04,0.02,0.12,0,3.473,1.798,1.090,-0.572,0.004,-0.009,0.999,0.000,0.000,0.000,0.3550,-2,0,-1.13,0.38,-4.29,-0.0435,0.0191,0.3545
11492,0.0312,0.0034,0.3546,-0.0054,0.0141,0.0010,0.05,-0.05,0.08,0,3.463,2.720,0.676,-0.872,0.006,-0.013,0.997,0.000,0.000,0.000,0.3530,0,0,-1.00,0.41,-4.32,-0.0448,0.0174,0.3548
11543,0.0323,0.0079,0.3538,-0.0025,0.0198,-0.0039,0.16,-0.16,0.06,0,3.473,5.249,-1.540,-0.179,0.002,-0.013,0.995,0.000,0.000,0.000,0.3550,0,0,-0.86,0.45,-4.36,-0.0444,0.0178,0.3542
11594,0.0334,0.0183,0.3542,0.0009,0.0348,-0.0033,0.30,-0.12,0.06,0,3.463,3.353,-2.807,-0.422,0.003,-0.009,0.995,0.000,0.000,0.000,0.3520,0,-1,-0.59,0.37,-4.37,-0.0437,0.0183,0.3542
11645,0.0334,0.0196,0.3531,0.0017,0.0326,-0.0093,0.50,-0.09,0.05,0,3.473,2.255,-1.091,-0.170,0.002,-0.009,1.001,0.000,0.000,0.000,0.3530,0,0,-0.40,0.20,-4.38,-0.0442,0.0178,0.3532
11696,0.0345,0.0213,0.3527,0.0040,0.0287,-0.0095,0.62,-0.04,0.05,0,3.463,-0.210,-1.920,0.584,0.006,-0.014,1.002,0.000,0.000,0.000,0.3520,0,0,-0.29,0.15,-4.39,-0.0438,0.0177,0.3527
11747,0.0362,0.0219,0.3520,0.0068,0.0223,-0.0107,0.62,-0.01,0.07,0,3.468,-0.154,-0.178,0.722,0.006,-0.014,1.000,0.000,0.000,0.000,0.3530,0,-1,-0.30,0.05,-4.36,-0.0432,0.0174,0.3522
11798,0.0365,0.0229,0.3521,0.0069,0.0170,-0.0082,0.62,0.03,0.11,0,3.463,0.903,-1.768,1.714,-0.000,-0.009,1.002,0.000,0.000,0.000,0.3500,0,-1,-0.32,0.02,-4.32,-0.0436,0.0179,0.3521
11850,0.0397,0.0264,0.3509,0.0114,0.0163,-0.0113,0.66,0.08,0.19,0,3.468,-1.070,-0.919,1.444,0.004,-0.008,1.000,0.000,0.000,0.000,0.3470,1,-1,-0.28,-0.06,-4.23,-0.0430,0.0178,0.3512
11901,0.0416,0.0232,0.3488,0.0128,0.0044,-0.0182,0.53,0.18,0.26,0,3.457,-5.018,-0.275,2.033,0.000,-0.012,1.004,0.000,0.000,0.000,0.3490,0,0,-0.32,-0.11,-4.16,-0.0424,0.0172,0.3495
11953,0.0447,0.0229,0.3483,0.0155,-0.0006,-0.0149,0.37,0.25,0.35,0,3.468,-0.887,-2.076,1.453,0.007,-0.009,1.006,0.000,0.000,0.000,0.3490,1,0,-0.58,-0.12,-4.05,-0.0419,0.0165,0.3489
12004,0.0474,0.0152,0.3481,0.0164,-0.0166,-0.0100,0.28,0.31,0.45,0,3.463,-3.724,-2.978,0.789,0.004,-0.011,1.005,0.000,0.000,0.000,0.3510,0,0,-0.63,-0.25,-3.97,-0.0425,0.0164,0.3487
12055,0.0464,0.0129,0.3492,0.0108,-0.0214,0.0004,0.06,0.32,0.53,0,3.468,-3.591,-1.655,2.242,0.005,-0.012,0.999,0.000,0.000,0.000,0.3490,1,0,-0.82,-0.40,-3.93,-0.0425,0.0160,0.3493
12106,0.0468,0.0115,0.3492,0.0081,-0.0224,0.0019,-0.14,0.28,0.64,0,3.457,-4.793,0.452,2.033,0.007,-0.012,1.000,0.000,0.000,0.000,0.3470,0,0,-1.01,-0.49,-3.81,-0.0425,0.0156,0.3491
12157,0.0489,0.0045,0.3482,0.0088,-0.0313,-0.0034,-0.26,0.23,0.74,0,3.463,-3.190,0.309,2.234,0.003,-0.013,1.002,0.000,0.000,0.000,0.3460,0,0,-1.25,-0.46,-3.71,-0.0425,0.0154,0.3484
12208,0.0491,0.0000,0.3471,0.0064,-0.0341,-0.0088,-0.40,0.20,0.86,0,3.457,-3.476,2.644,2.408,0.003,-0.011,1.002,0.000,0.000,0.000,0.3490,0,0,-1.41,-0.44,-3.59,-0.0427,0.0155,0.3475
12260,0.0482,-0.0052,0.3477,0.0025,-0.0370,-0.0031,-0.55,0.18,0.94,0,3.468,-3.408,1.399,0.786,0.002,-0.012,1.000,0.000,0.000,0.000,0.3520,1,0,-1.59,-0.31,-3.47,-0.0430,0.0159,0.3479
12311,0.0483,-0.0069,0.3495,0.0010,-0.0323,0.0065,-0.65,0.13,1.00,0,3.463,-1.031,-1.363,0.524,0.005,-0.011,0.997,0.000,0.000,0.000,0.3480,0,0,-1.74,-0.22,-3.44,-0.0424,0.0140,0.3493
12362,0.0464,-0.0071,0.3490,-0.0034,-0.0244,0.0020,-0.77,0.02,1.05,0,3.463,1.843,1.622,1.518,0.003,-0.013,0.997,0.000,0.000,0.000,0.3470,0,0,-1.79,-0.29,-3.41,-0.0424,0.0143,0.3489
12414,0.0452,-0.0077,0.3482,-0.0057,-0.0173,-0.0044,-0.75,-0.07,1.08,0,3.452,2.032,2.806,0.091,0.001,-0.016,0.993,0.000,0.000,0.000,0.3470,0,0,-1.69,-0.20,-3.33,-0.0424,0.0151,0.3483
12465,0.0435,-0.0065,0.3475,-0.0076,-0.0076,-0.0085,-0.65,-0.14,1.12,0,3.463,2.850,-1.050,0.643,0.004,-0.016,1.000,0.000,0.000,0.000,0.3470,0,0,-1.59,-0.06,-3.33,-0.0424,0.0163,0.3475
12516,0.0431,-0.0021,0.3469,-0.0066,0.0063,-0.0102,-0.51,-0.16,1.14,0,3.452,5.657,-0.764,0.889,0.003,-0.013,0.999,0.000,0.000,0.000,0.3480,0,0,-1.44,-0.11,-3.30,-0.0423,0.0177,0.3470
12567,0.0415,0.0001,0.3471,-0.0074,0.0138,-0.0069,-0.29,-0.17,1.15,0,3.457,4.535,3.781,-0.711,-0.001,-0.012,1.000,0.000,0.000,0.000,0.3420,0,0,-1.15,-0.15,-3.25,-0.0422,0.0195,0.3469
12618,0.0423,0.0058,0.3445,-0.0040,0.0250,-0.0185,-0.09,-0.26,1.15,0,3.452,4.988,-1.899,-0.450,0.002,-0.011,1.006,0.000,0.000,0.000,0.3410,-4,-1,-0.92,0.05,-3.29,-0.0421,0.0214,0.3449
12670,0.0408,0.0064,0.3423,-0.0042,0.0246,-0.0234,0.11,-0.26,1.14,0,3.457,5.028,-0.441,-1.127,0.002,-0.010,1.007,0.000,0.000,0.000,0.3450,-1,0,-0.61,-0.05,-3.31,-0.0420,0.0165,0.3433
12722,0.0434,0.0124,0.3427,0.0028,0.0316,-0.0137,0.33,-0.21,1.11,0,3.452,4.064,-1.096,-0.206,0.002,-0.012,1.008,0.000,0.000,0.000,0.3430,0,0,-0.35,-0.07,-3.36,-0.0419,0.0171,0.3435
12772,0.0471,0.0218,0.3425,0.0108,0.0424,-0.0079,0.50,-0.11,1.07,0,3.457,3.273,-2.732,-0.413,0.002,-0.015,0.999,0.000,0.000,0.000,0.3400,-1,-1,-0.14,-0.13,-3.38,-0.0418,0.0175,0.3432
12823,0.0497,0.0207,0.3412,0.0154,0.0324,-0.0104,0.67,-0.01,1.03,0,3.447,1.763,-2.108,0.227,0.003,-0.012,1.005,0.000,0.000,0.000,0.3380,0,0,0.01,-0.26,-3.41,-0.0412,0.0179,0.3421
12874,0.0510,0.0250,0.3394,0.0163,0.0317,-0.0147,0.72,0.14,0.99,0,3.457,-1.781,-2.244,-0.552,0.002,-0.004,1.007,0.000,0.000,0.000,0.3380,0,0,0.10,-0.37,-3.39,-0.0409,0.0179,0.3406
12925,0.0535,0.0240,0.3383,0.0181,0.0214,-0.0144,0.66,0.28,0.94,0,3.447,-1.024,-1.979,-0.771,0.006,-0.013,1.010,0.000,0.000,0.000,0.3430,0,0,0.01,-0.48,-3.42,-0.0408,0.0177,0.3396
12976,0.0550,0.0231,0.3400,0.0170,0.0122,0.0014,0.58,0.33,0.90,0,3.457,-2.790,-3.142,-0.800,-0.001,-0.016,1.003,0.000,0.000,0.000,0.3410,0,1,-0.04,-0.58,-3.46,-0.0407,0.0172,0.3406
13027,0.0574,0.0237,0.3406,0.0171,0.0075,0.0060,0.48,0.45,0.83,0,3.452,-2.484,0.837,-1.033,0.004,-0.006,1.004,0.000,0.000,0.000,0.3430,0,1,-0.21,-0.74,-3.49,-0.0408,0.0188,0.3410
13078,0.0578,0.0236,0.3419,0.0131,0.0026,0.0129,0.36,0.30,0.80,0,3.457,-1.708,1.438,-2.149,0.004,-0.015,0.999,0.000,0.000,0.000,0.3400,3,0,-0.34,-0.70,-3.53,-0.0414,0.0188,0.3419
13129,0.0583,0.0243,0.3415,0.0105,0.0007,0.0083,0.32,0.29,0.73,0,3.447,-2.381,-1.551,-0.576,0.005,-0.013,0.999,0.000,0.000,0.000,0.3390,1,0,-0.39,-0.62,-3.70,-0.0416,0.0171,0.3418
13180,0.0612,0.0186,0.3406,0.0125,-0.0122,0.0012,0.22,0.27,0.68,0,3.457,-3.893,0.467,-0.252,-0.000,-0.006,1.003,0.000,0.000,0.000,0.3420,0,0,-0.52,-0.68,-3.72,-0.0417,0.0163,0.3413
13231,0.0609,0.0148,0.3413,0.0085,-0.0198,0.0032,-0.00,0.21,0.64,0,3.447,-1.048,-1.373,0.326,0.006,-0.013,1.000,0.000,0.000,0.000,0.3400,0,0,-0.72,-0.66,-3.73,-0.0423,0.0154,0.3417
13282,0.0620,0.0130,0.3408,0.0080,-0.0214,0.0011,-0.11,0.28,0.63,0,3.457,-4.159,1.299,-0.649,0.001,-0.011,1.001,0.000,0.000,0.000,0.3420,0,0,-0.78,-0.73,-3.71,-0.0430,0.0145,0.3415
13333,0.0626,0.0116,0.3414,0.0062,-0.0210,0.0031,-0.28,0.21,0.59,0,3.447,-1.629,1.441,-0.855,0.003,-0.012,0.998,0.000,0.000,0.000,0.3420,2,0,-0.99,-0.67,-3.75,-0.0441,0.0137,0.3418
13385,0.0628,0.0066,0.3417,0.0044,-0.0263,0.0035,-0.36,0.15,0.54,0,3.457,-2.981,-0.498,-1.376,0.004,-0.014,0.999,0.000,0.000,0.000,0.3410,0,0,-1.08,-0.55,-3.78,-0.0417,0.0140,0.3422
13435,0.0618,0.0059,0.3415,0.0009,-0.0221,0.0013,-0.35,0.16,0.49,0,3.447,0.614,-1.482,-1.724,0.002,-0.013,1.002,0.000,0.000,0.000,0.3440,0,0,-1.24,-0.58,-3.85,-0.0418,0.0138,0.3420
13486,0.0617,-0.0010,0.3427,-0.0007,-0.0295,0.0059,-0.44,0.16,0.46,0,3.457,-5.307,4.298,-0.262,0.004,-0.014,0.999,0.000,0.000,0.000,0.3440,0,1,-1.21,-0.65,-3.93,-0.0422,0.0138,0.3428
13538,0.0596,0.0009,0.3434,-0.0059,-0.0194,0.0064,-0.63,0.07,0.44,0,3.447,0.717,1.785,-0.460,-0.001,-0.010,0.993,0.000,0.000,0.000,0.3420,-4,0,-1.47,-0.42,-3.94,-0.0421,0.0136,0.3434
13589,0.0604,-0.0055,0.3430,-0.0041,-0.0247,0.0006,-0.62,-0.11,0.41,0,3.452,5.231,-2.996,-0.844,0.006,-0.016,0.992,0.000,0.000,0.000,0.3430,0,0,-1.47,-0.32,-3.94,-0.0422,0.0154,0.3430
13640,0.0603,0.0010,0.3430,-0.0030,-0.0057,-0.0018,-0.46,-0.04,0.36,0,3.442,2.398,-0.733,-1.549,-0.000,-0.014,0.997,0.000,0.000,0.000,0.3420,0,0,-1.21,-0.48,-3.98,-0.0423,0.0172,0.3428
13691,0.0631,0.0005,0.3424,0.0030,-0.0024,-0.0054,-0.42,-0.06,0.28,0,3.452,2.771,0.962,-1.671,0.002,-0.011,0.998,0.000,0.000,0.000,0.3420,0,0,-1.08,-0.52,-4.06,-0.0427,0.0191,0.3423
13742,0.0643,0.0053,0.3420,0.0055,0.0100,-0.0070,-0.28,-0.05,0.20,0,3.442,5.893,-1.605,-1.422,0.001,-0.015,0.995,0.000,0.000,0.000,0.3440,0,0,-0.94,-0.47,-4.15,-0.0432,0.0212,0.3418
13794,0.0652,0.0070,0.3426,0.0072,0.0143,-0.0037,-0.05,0.05,0.13,0,3.452,1.967,-2.621,-2.252,0.000,-0.013,0.999,0.000,0.000,0.000,0.3390,-4,0,-0.64,-0.55,-4.22,-0.0438,0.0235,0.3420
13845,0.0670,0.0111,0.3408,0.0095,0.0208,-0.0117,0.06,0.06,0.04,0,3.442,4.079,-2.455,-2.329,-0.003,-0.012,1.002,0.000,0.000,0.000,0.3350,-1,1,-0.48,-0.65,-4.32,-0.0415,0.0202,0.3409
13897,0.0694,0.0177,0.3377,0.0126,0.0302,-0.0223,0.21,0.08,-0.06,0,3.447,3.541,-2.680,-2.329,0.004,-0.015,1.005,0.000,0.000,0.000,0.3370,0,-1,-0.28,-0.78,-4.44,-0.0419,0.0208,0.3387
13948,0.0688,0.0198,0.3366,0.0097,0.0292,-0.0213,0.50,0.20,-0.20,0,3.436,1.628,-0.661,-2.232,-0.004,-0.016,1.010,0.000,0.000,0.000,0.3350,0,-1,-0.09,-0.89,-4.59,-0.0415,0.0208,0.3376
14000,0.0713,0.0202,0.3352,0.0118,0.0233,-0.0195,0.58,0.24,-0.31,0,3.442,-2.147,2.045,-1.890,0.003,-0.012,1.009,0.000,0.000,0.000,0.3350,0,0,-0.00,-0.90,-4.72,-0.0409,0.0207,0.3364
14051,0.0727,0.0202,0.3345,0.0111,0.0166,-0.0148,0.54,0.23,-0.38,0,3.436,1.169,-1.488,-2.194,0.002,-0.013,1.010,0.000,0.000,0.000,0.3330,0,-1,-0.12,-0.80,-4.82,-0.0411,0.0203,0.3357
14103,0.0738,0.0197,0.3334,0.0105,0.0095,-0.0117,0.51,0.26,-0.46,0,3.447,-2.876,-0.437,-1.613,-0.001,-0.011,1.008,0.000,0.000,0.000,0.3360,0,0,-0.08,-0.85,-4.94,-0.0400,0.0208,0.3349
14154,0.0760,0.0197,0.3343,0.0114,0.0044,-0.0009,0.46,0.34,-0.55,0,3.436,-2.955,-1.335,-1.429,0.003,-0.012,1.011,0.000,0.000,0.000,0.3360,0,0,-0.22,-0.87,-5.02,-0.0402,0.0205,0.3353
14205,0.0774,0.0192,0.3351,0.0101,-0.0006,0.0063,0.32,0.35,-0.62,0,3.452,-3.024,1.100,-1.736,-0.000,-0.008,1.004,0.000,0.000,0.000,0.3370,0,0,-0.37,-0.94,-5.10,-0.0407,0.0200,0.3359
14257,0.0776,0.0182,0.3363,0.0067,-0.0049,0.0126,0.21,0.31,-0.69,0,3.442,-1.194,0.475,-1.684,0.003,-0.009,0.999,0.000,0.000,0.000,0.3360,0,0,-0.53,-0.88,-5.18,-0.0417,0.0195,0.3368
14308,0.0779,0.0179,0.3366,0.0042,-0.0066,0.0118,0.16,0.25,-0.77,0,3.447,-1.644,0.274,-1.677,-0.001,-0.007,0.999,0.000,0.000,0.000,0.3380,1,0,-0.59,-0.86,-5.27,-0.0429,0.0191,0.3370
14360,0.0783,0.0115,0.3376,0.0027,-0.0201,0.0124,0.11,0.19,-0.83,0,3.442,-3.814,1.044,-1.653,0.005,-0.008,0.992,0.000,0.000,0.000,0.3380,0,0,-0.68,-0.79,-5.39,-0.0393,0.0194,0.3380
14412,0.0787,0.0112,0.3382,0.0016,-0.0194,0.0096,-0.01,0.13,-0.92,0,3.447,-3.839,1.958,-1.103,0.002,-0.013,0.997,0.000,0.000,0.000,0.3380,1,0,-0.88,-0.74,-5.47,-0.0396,0.0193,0.3383
14464,0.0784,0.0088,0.3384,0.0002,-0.0217,0.0055,-0.16,0.02,-0.99,0,3.436,-3.404,0.296,-1.155,0.003,-0.006,0.995,0.000,0.000,0.000,0.3430,0,1,-1.07,-0.62,-5.54,-0.0394,0.0188,0.3385
14515,0.0786,0.0071,0.3406,0.0004,-0.0214,0.0117,-0.27,0.00,-1.05,0,3.447,0.255,-0.629,-1.116,0.003,-0.010,0.993,0.000,0.000,0.000,0.3370,1,0,-1.24,-0.62,-5.60,-0.0400,0.0189,0.3400
14567,0.0773,0.0066,0.3393,-0.0020,-0.0179,-0.0007,-0.30,-0.01,-1.08,0,3.436,0.899,1.284,-0.294,0.001,-0.014,0.990,0.000,0.000,0.000,0.3370,0,-1,-1.21,-0.64,-5.66,-0.0401,0.0184,0.3393
14619,0.0775,0.0046,0.3381,-0.0012,-0.0176,-0.0103,-0.28,-0.07,-1.11,0,3.442,-0.611,-1.781,0.410,-0.001,-0.012,0.995,0.000,0.000,0.000,0.3370,0,0,-1.16,-0.54,-5.65,-0.0395,0.0183,0.3383
14671,0.0788,0.0048,0.3372,0.0017,-0.0133,-0.0142,-0.27,0.01,-1.09,0,3.436,-2.283,-0.834,0.361,0.005,-0.012,0.997,0.000,0.000,0.000,0.3370,3,0,-1.20,-0.64,-5.62,-0.0396,0.0185,0.3374
14722,0.0799,0.0042,0.3366,0.0037,-0.0102,-0.0148,-0.37,0.04,-1.07,0,3.442,-0.887,-0.599,0.292,-0.000,-0.011,1.000,0.000,0.000,0.000,0.3370,-1,0,-1.27,-0.67,-5.62,-0.0396,0.0162,0.3368
14773,0.0812,-0.0011,0.3362,0.0056,-0.0160,-0.0125,-0.40,0.02,-1.04,0,3.436,0.129,-1.135,0.390,-0.000,-0.009,0.998,0.000,0.000,0.000,0.3360,0,0,-1.34,-0.69,-5.58,-0.0396,0.0165,0.3365
14824,0.0809,-0.0003,0.3357,0.0045,-0.0097,-0.0118,-0.40,0.05,-1.02,0,3.442,1.264,-0.689,0.404,0.003,-0.009,0.999,0.000,0.000,0.000,0.3330,0,0,-1.33,-0.75,-5.56,-0.0401,0.0169,0.3357
14876,0.0795,-0.0046,0.3340,0.0010,-0.0137,-0.0168,-0.33,0.08,-0.99,0,3.431,1.339,-0.769,0.724,0.004,-0.015,0.998,0.000,0.000,0.000,0.3350,-1,0,-1.27,-0.79,-5.54,-0.0408,0.0177,0.3342
14927,0.0807,-0.0011,0.3339,0.0024,-0.0029,-0.0134,-0.30,0.11,-0.95,0,3.442,1.331,0.339,0.332,0.000,-0.015,1.002,0.000,0.000,0.000,0.3320,0,0,-1.17,-0.79,-5.48,-0.0394,0.0168,0.3338
14978,0.0821,0.0002,0.3325,0.0040,0.0021,-0.0162,-0.24,0.11,-0.93,0,3.436,1.348,-0.102,0.078,0.000,-0.013,1.004,0.000,0.000,0.000,0.3290,0,0,-1.10,-0.77,-5.46,-0.0398,0.0172,0.3325
15029,0.0823,0.0003,0.3303,0.0031,0.0040,-0.0224,-0.15,0.11,-0.93,0,3.436,1.164,-0.201,0.539,0.000,-0.016,1.004,0.000,0.000,0.000,0.3270,0,0,-1.04,-0.78,-5.45,-0.0404,0.0178,0.3307
15080,0.0824,0.0006,0.3280,0.0021,0.0051,-0.0270,-0.10,0.11,-0.90,0,3.431,1.839,-1.471,0.949,0.002,-0.011,1.007,0.000,0.000,0.000,0.3280,0,0,-0.98,-0.79,-5.43,-0.0414,0.0184,0.3288
15131,0.0825,0.0023,0.3271,0.0013,0.0086,-0.0211,-0.05,0.12,-0.85,0,3.436,2.892,-1.793,1.628,0.003,-0.015,1.008,0.000,0.000,0.000,0.3260,0,0,-0.88,-0.86,-5.38,-0.0426,0.0193,0.3278
15183,0.0825,0.0042,0.3259,-0.0000,0.0114,-0.0177,0.04,0.18,-0.77,0,3.426,-1.715,1.843,1.308,0.003,-0.009,1.011,0.000,0.000,0.000,0.3270,-3,1,-0.74,-0.95,-5.29,-0.0442,0.0202,0.3266
15234,0.0828,0.0060,0.3259,-0.0008,0.0134,-0.0100,-0.00,0.14,-0.68,0,3.436,2.573,1.248,1.946,0.004,-0.011,1.011,0.000,0.000,0.000,0.3230,3,0,-0.81,-0.79,-5.21,-0.0395,0.0188,0.3267
15285,0.0821,0.0096,0.3243,-0.0029,0.0187,-0.0109,0.12,0.06,-0.60,0,3.431,-0.135,-0.492,1.949,0.001,-0.014,1.010,0.000,0.000,0.000,0.3260,0,0,-0.64,-0.72,-5.14,-0.0397,0.0180,0.3253
15336,0.0822,0.0145,0.3248,-0.0029,0.0258,-0.0026,0.11,0.05,-0.48,0,3.436,1.891,-1.311,2.159,-0.001,-0.013,1.010,0.000,0.000,0.000,0.3300,0,0,-0.65,-0.74,-5.04,-0.0402,0.0173,0.3256
15387,0.0820,0.0145,0.3271,-0.0035,0.0227,0.0123,0.17,0.07,-0.38,0,3.436,3.074,0.662,1.680,0.003,-0.012,1.003,0.000,0.000,0.000,0.3230,-4,0,-0.56,-0.81,-4.93,-0.0412,0.0167,0.3274
15439,0.0791,0.0150,0.3257,-0.0090,0.0200,0.0039,0.24,-0.03,-0.29,0,3.442,3.157,0.732,2.068,-0.000,-0.015,0.998,0.000,0.000,0.000,0.3270,-1,0,-0.46,-0.74,-4.81,-0.0395,0.0195,0.3269
15490,0.0775,0.0209,0.3264,-0.0107,0.0263,0.0064,0.36,-0.05,-0.19,0,3.431,1.951,3.292,1.597,0.003,-0.014,0.997,0.000,0.000,0.000,0.3240,0,0,-0.29,-0.69,-4.71,-0.0396,0.0202,0.3273
15541,0.0776,0.0229,0.3255,-0.0091,0.0245,-0.0008,0.42,-0.12,-0.10,0,3.436,0.964,-3.356,0.690,0.004,-0.015,1.002,0.000,0.000,0.000,0.3260,0,0,-0.20,-0.52,-4.63,-0.0400,0.0207,0.3266
15592,0.0761,0.0236,0.3257,-0.0101,0.0200,-0.0003,0.44,-0.13,-0.02,0,3.431,-0.869,-2.215,1.187,0.003,-0.013,1.000,0.000,0.000,0.000,0.3240,0,0,-0.15,-0.69,-4.59,-0.0405,0.0208,0.3267
15644,0.0756,0.0245,0.3249,-0.0091,0.0163,-0.0041,0.40,-0.11,0.05,0,3.431,-0.741,1.471,0.947,-0.002,-0.015,0.997,0.000,0.000,0.000,0.3260,0,0,-0.19,-0.81,-4.53,-0.0413,0.0207,0.3261
15695,0.0752,0.0252,0.3252,-0.0082,0.0128,-0.0025,0.44,-0.12,0.11,0,3.431,-4.269,3.736,1.478,0.002,-0.015,1.001,0.000,0.000,0.000,0.3290,0,0,-0.23,-0.73,-4.48,-0.0426,0.0204,0.3261
15746,0.0773,0.0143,0.3269,-0.0025,-0.0105,0.0065,0.36,-0.26,0.14,0,3.436,-3.394,-4.417,1.218,-0.004,-0.011,0.998,0.000,0.000,0.000,0.3280,0,0,-0.45,-0.54,-4.41,-0.0441,0.0198,0.3271
15797,0.0774,0.0090,0.3276,-0.0002,-0.0212,0.0073,0.14,-0.15,0.18,0,3.431,-6.809,-4.620,-0.682,0.000,-0.011,0.996,0.000,0.000,0.000,0.3290,5,0,-0.62,-0.76,-4.34,-0.0460,0.0191,0.3275
15848,0.0783,0.0094,0.3285,0.0023,-0.0191,0.0085,-0.14,-0.07,0.18,0,3.436,-2.369,-0.040,0.099,-0.003,-0.012,0.996,0.000,0.000,0.000,0.3230,3,0,-0.98,-0.93,-4.44,-0.0388,0.0192,0.3283
15899,0.0799,-0.0020,0.3263,0.0055,-0.0347,-0.0055,-0.29,-0.05,0.17,0,3.426,-6.075,-1.832,-0.306,-0.001,-0.016,0.998,0.000,0.000,0.000,0.3270,0,0,-1.08,-0.92,-4.46,-0.0391,0.0181,0.3267
15950,0.0829,-0.0077,0.3264,0.0104,-0.0385,-0.0050,-0.56,-0.02,0.15,0,3.431,-6.616,-4.060,-1.586,-0.001,-0.011,0.998,0.000,0.000,0.000,0.3280,1,0,-1.39,-1.02,-4.47,-0.0399,0.0171,0.3266
16001,0.0843,-0.0059,0.3269,0.0119,-0.0266,-0.0038,-0.87,0.11,0.11,0,3.431,1.723,0.144,-0.294,0.002,-0.012,0.998,0.000,0.000,0.000,0.3280,0,0,-1.73,-1.19,-4.50,-0.0392,0.0169,0.3269
16053,0.0858,-0.0039,0.3273,0.0122,-0.0133,-0.0015,-0.86,0.22,0.08,0,3.436,3.327,-1.651,-0.308,-0.000,-0.012,0.998,0.000,0.000,0.000,0.3280,0,0,-1.64,-1.18,-4.51,-0.0398,0.0171,0.3270
16105,0.0875,-0.0044,0.3275,0.0124,-0.0063,-0.0009,-0.73,0.24,0.07,0,3.426,1.974,-2.768,-0.454,-0.000,-0.017,0.994,0.000,0.000,0.000,0.3280,-1,0,-1.47,-1.27,-4.53,-0.0409,0.0177,0.3271
16156,0.0892,-0.0051,0.3277,0.0123,-0.0012,-0.0010,-0.60,0.28,0.05,0,3.436,3.797,1.766,-0.639,0.001,-0.014,0.998,0.000,0.000,0.000,0.3260,0,0,-1.35,-1.35,-4.47,-0.0390,0.0171,0.3274
16207,0.0896,0.0028,0.3268,0.0099,0.0172,-0.0065,-0.46,0.24,0.05,0,3.426,7.448,-4.234,-0.220,0.001,-0.020,0.998,0.000,0.000,0.000,0.3240,0,0,-1.16,-1.26,-4.50,-0.0395,0.0177,0.3267
16258,0.0918,0.0062,0.3253,0.0110,0.0248,-0.0128,-0.13,0.34,0.06,0,3.431,2.104,2.782,0.847,0.005,-0.014,1.001,0.000,0.000,0.000,0.3220,-2,0,-0.78,-1.48,-4.51,-0.0406,0.0182,0.3254
16310,0.0903,0.0087,0.3233,0.0046,0.0279,-0.0197,-0.01,0.27,0.10,0,3.421,4.409,-1.756,0.819,-0.000,-0.012,1.005,0.000,0.000,0.000,0.3210,0,-1,-0.67,-1.28,-4.43,-0.0388,0.0185,0.3241
16362,0.0911,0.0184,0.3215,0.0035,0.0427,-0.0225,0.13,0.23,0.15,0,3.426,4.017,0.164,0.846,0.005,-0.011,1.010,0.000,0.000,0.000,0.3190,-1,0,-0.43,-1.35,-4.40,-0.0386,0.0186,0.3225
16413,0.0922,0.0233,0.3195,0.0033,0.0461,-0.0235,0.35,0.19,0.20,0,3.421,5.062,1.501,0.560,-0.003,-0.014,1.010,0.000,0.000,0.000,0.3180,0,0,-0.24,-1.33,-4.34,-0.0386,0.0191,0.3211
16464,0.0928,0.0281,0.3180,0.0024,0.0477,-0.0207,0.57,0.16,0.26,0,3.426,2.394,1.894,1.601,-0.000,-0.010,1.009,0.000,0.000,0.000,0.3200,0,0,0.02,-1.25,-4.31,-0.0395,0.0193,0.3199
16515,0.0918,0.0326,0.3183,-0.0006,0.0487,-0.0121,0.70,0.13,0.31,0,3.421,2.640,-0.487,0.487,-0.000,-0.016,1.010,0.000,0.000,0.000,0.3160,-1,0,0.14,-1.16,-4.23,-0.0409,0.0193,0.3198
16566,0.0917,0.0377,0.3170,-0.0018,0.0484,-0.0118,0.82,0.08,0.37,0,3.426,2.520,1.880,0.761,0.003,-0.009,1.010,0.000,0.000,0.000,0.3140,0,0,0.25,-1.11,-4.26,-0.0381,0.0205,0.3192
16617,0.0905,0.0387,0.3153,-0.0045,0.0388,-0.0128,0.95,0.01,0.40,0,3.421,-0.423,3.442,0.018,0.003,-0.005,1.009,0.000,0.000,0.000,0.3140,0,1,0.38,-1.02,-4.22,-0.0386,0.0203,0.3178
16669,0.0903,0.0404,0.3144,-0.0045,0.0307,-0.0100,0.94,-0.08,0.41,0,3.426,-1.832,0.762,-0.083,0.000,-0.012,1.011,0.000,0.000,0.000,0.3190,0,0,0.34,-0.82,-4.25,-0.0386,0.0205,0.3169
16720,0.0920,0.0404,0.3162,0.0001,0.0199,0.0055,0.86,-0.06,0.40,0,3.421,-2.594,-1.841,-1.529,-0.002,-0.010,1.004,0.000,0.000,0.000,0.3150,0,0,0.25,-0.79,-4.25,-0.0394,0.0201,0.3180
16771,0.0919,0.0355,0.3159,0.0006,0.0014,0.0062,0.74,-0.08,0.35,0,3.426,-4.932,-0.645,-0.960,0.001,-0.012,1.002,0.000,0.000,0.000,0.3160,0,0,0.12,-0.88,-4.33,-0.0406,0.0193,0.3176
16823,0.0921,0.0308,0.3162,0.0014,-0.0140,0.0075,0.55,-0.07,0.27,0,3.415,-5.785,0.858,-1.247,-0.002,-0.010,1.004,0.000,0.000,0.000,0.3190,0,0,-0.13,-0.91,-4.38,-0.0422,0.0181,0.3176
16874,0.0932,0.0291,0.3177,0.0040,-0.0204,0.0148,0.24,-0.05,0.17,0,3.426,-5.859,-1.914,-1.885,-0.001,-0.008,0.999,0.000,0.000,0.000,0.3200,2,-1,-0.43,-0.87,-4.44,-0.0444,0.0168,0.3186
16927,0.0935,0.0187,0.3193,0.0047,-0.0409,0.0179,0.05,-0.08,0.07,0,3.421,-6.644,0.103,-1.729,0.003,-0.013,0.994,0.000,0.000,0.000,0.3190,0,0,-0.77,-0.88,-4.66,-0.0386,0.0188,0.3201
16978,0.0960,0.0140,0.3197,0.0097,-0.0463,0.0139,-0.28,-0.23,-0.02,0,3.426,-6.353,60.565,-1.363,-0.009,-0.015,0.986,0.000,0.000,0.000,0.3220,3,8,-1.12,-0.88,-4.75,-0.0389,0.0186,0.3204
17030,0.0985,0.0134,0.3212,0.0166,-0.0408,0.0147,-0.57,-2.83,-0.15,0,3.421,3.296,58.668,-2.331,0.004,-0.011,0.995,0.000,0.000,0.000,0.3240,1,6,-1.42,2.16,-4.93,-0.0422,0.0176,0.3223
17082,0.0980,0.0104,0.3229,0.0375,-0.0377,0.0153,-0.43,-5.71,-0.29,0,3.431,-3.277,10.044,-2.004,0.001,-0.012,0.994,0.000,0.000,0.000,0.3250,1,-1,-1.27,5.16,-5.17,-0.0453,0.0173,0.3244
17134,0.0960,0.0100,0.3243,0.0756,-0.0312,0.0137,-0.56,-6.40,-0.39,0,3.421,-1.409,-3.664,-0.313,-0.002,-0.012,0.989,0.000,0.000,0.000,0.3260,-3,-3,-1.43,5.70,-5.20,-0.0448,0.0166,0.3247
17185,0.1008,0.0064,0.3254,0.1288,-0.0312,0.0092,-0.69,-6.33,-0.42,0,3.426,2.592,-4.022,-0.366,-0.005,-0.013,0.990,0.000,0.000,0.000,0.3270,-1,-3,-1.61,5.48,-5.76,-0.0424,0.0185,0.3255
17236,0.1121,0.0082,0.3262,0.1896,-0.0202,0.0038,-0.56,-6.16,-0.44,0,3.421,3.694,-21.222,-0.739,-0.003,-0.012,0.989,0.000,0.000,0.000,0.3250,0,-4,-1.45,5.23,-5.67,-0.0402,0.0189,0.3271
17287,0.1242,0.0118,0.3257,0.2442,-0.0067,-0.0061,-0.45,-5.21,-0.49,0,3.426,3.808,-29.696,-1.792,-0.008,-0.015,0.991,0.000,0.000,0.000,0.3230,3,-9,-1.22,4.09,-5.45,-0.0375,0.0186,0.3270
17340,0.1369,0.0122,0.3241,0.2872,-0.0019,-0.0167,-0.26,-3.71,-0.56,0,3.415,2.338,-27.128,-1.856,-0.012,-0.011,0.998,0.000,0.000,0.000,0.3220,0,-5,-0.94,2.59,-4.95,-0.0318,0.0159,0.3252
17392,0.1549,0.0068,0.3226,0.3253,-0.0118,-0.0233,-0.11,-2.36,-0.66,0,3.415,1.661,-31.813,-2.258,-0.010,-0.016,1.005,0.000,0.000,0.000,0.3110,3,-9,-0.84,1.08,-5.19,-0.0287,0.0157,0.3241
17444,0.1697,0.0072,0.3165,0.3418,-0.0090,-0.0472,-0.06,-0.77,-0.76,0,3.410,-0.892,-34.408,-2.443,-0.013,-0.012,1.012,0.000,0.000,0.000,0.3140,0,-11,-0.72,-0.56,-5.12,-0.0234,0.0131,0.3197
17495,0.1840,0.0026,0.3140,0.3407,-0.0184,-0.0440,-0.07,1.07,-0.87,0,3.415,-2.423,-24.606,-2.479,-0.016,-0.010,1.018,0.000,0.000,0.000,0.3120,8,-5,-0.78,-2.30,-5.26,-0.0164,0.0124,0.3178
17546,0.2033,0.0056,0.3116,0.3375,-0.0078,-0.0381,-0.18,2.28,-1.00,0,3.410,-2.171,-16.519,-2.048,-0.006,-0.012,1.020,0.000,0.000,0.000,0.3130,-3,-8,-0.80,-3.58,-5.56,-0.0137,0.0069,0.3156
17597,0.2170,-0.0023,0.3113,0.3107,-0.0244,-0.0211,-0.23,3.17,-1.08,0,3.415,-1.178,-13.539,-1.555,-0.013,-0.010,1.014,0.000,0.000,0.000,0.3130,0,-3,-1.03,-4.36,-5.15,-0.0083,0.0085,0.3173
17649,0.2326,-0.0048,0.3115,0.2847,-0.0255,-0.0069,-0.22,3.91,-1.17,0,3.410,-6.532,-8.181,-2.314,-0.007,-0.013,1.015,0.000,0.000,0.000,0.3170,5,-2,-1.09,-5.05,-5.22,-0.0064,0.0083,0.3164
17701,0.2430,-0.0109,0.3139,0.2433,-0.0353,0.0122,-0.59,4.25,-1.27,0,3.421,-4.329,-2.375,-1.530,-0.003,-0.010,1.009,0.000,0.000,0.000,0.3170,-4,-5,-1.30,-5.44,-5.89,-0.0054,0.0047,0.3183
17753,0.2521,-0.0142,0.3158,0.2008,-0.0346,0.0218,-0.87,4.26,-1.33,0,3.415,-3.530,6.442,-0.929,-0.002,-0.013,0.999,0.000,0.000,0.000,0.3170,-8,-4,-1.68,-5.45,-5.10,-0.0021,0.0074,0.3213
17804,0.2617,-0.0140,0.3171,0.1657,-0.0229,0.0227,-1.03,4.02,-1.38,0,3.426,-0.061,6.883,-1.718,-0.002,-0.013,0.995,0.000,0.000,0.000,0.3170,0,0,-2.01,-5.01,-4.29,0.0008,0.0126,0.3203
17855,0.2708,-0.0071,0.3178,0.1354,0.0087,0.0176,-1.10,3.70,-1.43,0,3.415,6.497,6.791,-2.220,-0.003,-0.014,0.992,0.000,0.000,0.000,0.3200,0,0,-2.00,-4.67,-4.39,-0.0003,0.0168,0.3200
17907,0.2757,-0.0057,0.3193,0.1007,0.0207,0.0178,-0.85,3.43,-1.51,0,3.421,10.228,9.572,-1.252,-0.004,-0.015,0.989,0.000,0.000,0.000,0.3170,-2,0,-1.66,-4.32,-4.51,-0.0036,0.0218,0.3203
17959,0.2791,0.0007,0.3188,0.0689,0.0433,0.0065,-0.40,3.03,-1.60,0,3.410,8.775,10.012,-2.946,0.001,-0.016,0.993,0.000,0.000,0.000,0.3160,0,0,-0.92,-3.65,-5.46,0.0040,0.0149,0.3237
18011,0.2832,0.0088,0.3176,0.0469,0.0648,-0.0061,0.04,2.51,-1.66,0,3.415,12.430,7.176,-3.103,0.004,-0.017,1.004,0.000,0.000,0.000,0.3130,-4,0,-0.45,-3.13,-5.62,0.0024,0.0156,0.3217
18063,0.2853,0.0161,0.3152,0.0262,0.0765,-0.0183,0.70,2.01,-1.77,0,3.405,19.176,8.079,-3.499,0.003,-0.012,1.004,0.000,0.000,0.000,0.3120,-9,-1,0.17,-2.66,-5.65,0.0043,0.0171,0.3192
18116,0.2856,0.0220,0.3132,0.0063,0.0770,-0.0234,1.41,1.61,-1.88,0,3.410,10.864,8.686,-4.386,-0.005,-0.014,1.004,0.000,0.000,0.000,0.3130,-5,1,1.07,-2.21,-5.53,0.0048,0.0213,0.3172
18168,0.2872,0.0333,0.3123,-0.0033,0.0869,-0.0211,1.96,1.12,-2.05,0,3.405,11.240,6.445,-4.243,0.001,-0.012,1.010,0.000,0.000,0.000,0.3110,0,2,1.64,-1.72,-5.77,0.0045,0.0244,0.3157
18220,0.2872,0.0356,0.3111,-0.0123,0.0651,-0.0182,2.67,0.70,-2.27,0,3.415,7.095,7.525,-4.595,0.004,-0.016,1.009,0.000,0.000,0.000,0.3090,0,0,2.27,-1.36,-6.09,0.0034,0.0246,0.3140
18272,0.2852,0.0414,0.3096,-0.0228,0.0523,-0.0184,2.85,0.40,-2.42,0,3.405,-3.584,7.955,-4.124,0.002,-0.009,1.013,0.000,0.000,0.000,0.3110,5,3,2.64,-0.96,-6.31,0.0015,0.0240,0.3124
18325,0.2831,0.0410,0.3097,-0.0294,0.0205,-0.0097,2.94,-0.02,-2.64,0,3.415,0.055,5.977,-3.879,0.004,-0.009,1.009,0.000,0.000,0.000,0.3100,0,0,2.44,-0.48,-6.72,0.0017,0.0229,0.3123
18377,0.2810,0.0431,0.3096,-0.0321,0.0008,-0.0036,2.79,-0.32,-2.78,0,3.410,-6.117,7.471,-3.232,0.002,-0.013,1.008,0.000,0.000,0.000,0.3100,0,0,2.44,-0.15,-6.92,0.0002,0.0200,0.3119
18428,0.2795,0.0436,0.3097,-0.0303,-0.0198,0.0005,2.40,-0.61,-2.89,0,3.415,-6.067,1.744,-3.646,0.003,-0.006,1.005,0.000,0.000,0.000,0.3120,0,-1,2.13,0.24,-7.07,-0.0015,0.0157,0.3116
18480,0.2769,0.0368,0.3108,-0.0294,-0.0560,0.0080,2.13,-0.73,-3.02,0,3.410,-12.613,-0.080,-3.069,0.002,-0.008,1.004,0.000,0.000,0.000,0.3080,6,0,1.62,0.39,-7.68,0.0009,0.0217,0.3147
18531,0.2776,0.0371,0.3099,-0.0181,-0.0637,0.0030,1.50,-0.84,-3.18,0,3.415,-11.919,-1.241,-1.226,0.002,-0.006,1.005,0.000,0.000,0.000,0.3090,8,0,1.01,0.38,-7.72,0.0007,0.0190,0.3153
18582,0.2771,0.0295,0.3096,-0.0110,-0.0876,0.0014,0.96,-0.80,-3.24,0,3.405,-13.870,-3.191,-1.298,0.000,-0.005,1.002,0.000,0.000,0.000,0.3080,12,0,0.45,0.31,-7.67,0.0001,0.0144,0.3144
18634,0.2765,0.0219,0.3089,-0.0051,-0.1034,-0.0012,0.31,-0.66,-3.29,0,3.410,-17.038,-2.884,-0.474,-0.001,-0.009,1.004,0.000,0.000,0.000,0.3100,0,-1,-0.19,0.14,-7.58,-0.0008,0.0070,0.3126
18685,0.2768,0.0073,0.3093,0.0018,-0.1316,0.0020,-0.42,-0.50,-3.34,0,3.405,-18.396,-2.392,-0.905,0.000,-0.009,1.002,0.000,0.000,0.000,0.3080,3,-2,-1.22,-0.00,-7.87,-0.0002,0.0068,0.3143
18736,0.2778,0.0014,0.3088,0.0085,-0.1265,0.0001,-1.34,-0.32,-3.38,0,3.410,-14.165,-3.101,-1.016,0.000,-0.006,1.004,0.000,0.000,0.000,0.3080,1,0,-2.17,-0.11,-7.92,0.0008,0.0049,0.3128
18787,0.2797,-0.0035,0.3085,0.0154,-0.1124,-0.0001,-2.04,-0.12,-3.41,0,3.405,-3.133,-6.102,0.650,-0.001,-0.005,1.006,0.000,0.000,0.000,0.3110,0,-1,-2.90,-0.29,-8.01,0.0007,0.0043,0.3116
18838,0.2825,-0.0047,0.3097,0.0231,-0.0832,0.0079,-2.34,0.13,-3.39,0,3.415,1.321,-4.559,0.364,0.002,-0.010,1.006,0.000,0.000,0.000,0.3140,0,-2,-3.06,-0.59,-7.93,0.0013,0.0043,0.3119
18890,0.2837,-0.0135,0.3120,0.0229,-0.0783,0.0191,-2.25,0.35,-3.35,0,3.410,-0.094,-4.334,1.217,0.001,-0.011,0.997,0.000,0.000,0.000,0.3120,-1,-3,-2.97,-0.79,-7.80,0.0026,0.0041,0.3134
18942,0.2883,-0.0102,0.3127,0.0306,-0.0402,0.0173,-2.33,0.51,-3.28,0,3.415,3.386,-6.834,2.195,0.000,-0.011,1.000,0.000,0.000,0.000,0.3160,-7,-2,-2.95,-0.98,-7.60,0.0046,0.0045,0.3137
18994,0.2904,-0.0156,0.3148,0.0281,-0.0310,0.0218,-2.21,0.82,-3.18,0,3.410,6.274,-5.079,3.078,-0.002,-0.011,0.992,0.000,0.000,0.000,0.3150,-1,-1,-2.83,-1.32,-7.43,0.0065,0.0089,0.3146
19045,0.2930,-0.0117,0.3156,0.0249,0.0002,0.0173,-1.95,1.10,-3.02,0,3.415,7.997,-1.193,2.725,-0.000,-0.017,0.991,0.000,0.000,0.000,0.3110,-1,0,-2.43,-1.58,-7.30,0.0072,0.0095,0.3166
19097,0.2960,-0.0051,0.3140,0.0217,0.0328,0.0020,-1.64,1.18,-2.86,0,3.405,15.091,-2.244,1.734,0.003,-0.013,0.997,0.000,0.000,0.000,0.3150,0,0,-1.98,-1.63,-7.20,0.0072,0.0101,0.3152
19147,0.2967,-0.0045,0.3145,0.0118,0.0425,0.0011,-0.98,1.19,-2.74,0,3.410,10.737,-0.232,2.118,0.001,-0.011,0.994,0.000,0.000,0.000,0.3120,-1,0,-1.19,-1.74,-7.11,0.0068,0.0122,0.3152
19198,0.2974,0.0024,0.3133,0.0028,0.0622,-0.0076,-0.43,1.27,-2.62,0,3.399,13.984,-2.415,2.130,0.000,-0.013,0.999,0.000,0.000,0.000,0.3100,-2,0,-0.60,-1.71,-7.00,0.0079,0.0106,0.3143
19249,0.2974,0.0071,0.3115,-0.0078,0.0695,-0.0158,0.12,1.35,-2.51,0,3.405,12.956,5.007,2.147,0.004,-0.016,1.006,0.000,0.000,0.000,0.3100,-2,0,0.10,-1.82,-6.86,0.0078,0.0116,0.3131
19300,0.2971,0.0131,0.3102,-0.0182,0.0742,-0.0176,0.75,1.22,-2.41,0,3.399,11.101,0.896,1.163,0.002,-0.012,1.006,0.000,0.000,0.000,0.3120,-1,2,0.74,-1.54,-6.73,0.0078,0.0128,0.3122
19352,0.2965,0.0207,0.3105,-0.0276,0.0769,-0.0096,1.22,1.05,-2.31,0,3.410,11.258,3.752,1.034,0.002,-0.011,1.009,0.000,0.000,0.000,0.3080,0,1,1.29,-1.50,-6.66,0.0066,0.0135,0.3121
19403,0.2957,0.0285,0.3090,-0.0348,0.0756,-0.0113,1.85,0.87,-2.23,0,3.399,11.609,5.513,0.618,0.004,-0.015,1.006,0.000,0.000,0.000,0.3100,-6,2,1.87,-1.28,-6.65,0.0060,0.0136,0.3111
19454,0.2923,0.0246,0.3092,-0.0461,0.0409,-0.0051,2.39,0.58,-2.19,0,3.410,-2.534,7.767,0.339,0.004,-0.014,1.005,0.000,0.000,0.000,0.3090,7,1,2.36,-1.00,-6.53,0.0051,0.0174,0.3125
19506,0.2899,0.0347,0.3089,-0.0514,0.0409,-0.0032,2.43,0.28,-2.16,0,3.399,2.157,7.290,0.667,0.006,-0.010,1.007,0.000,0.000,0.000,0.3060,-1,1,2.32,-0.57,-6.65,0.0040,0.0130,0.3122
19557,0.2870,0.0339,0.3075,-0.0543,0.0161,-0.0069,2.31,-0.07,-2.13,0,3.405,-4.852,5.100,-1.388,0.003,-0.009,1.004,0.000,0.000,0.000,0.3070,-3,2,2.34,-0.18,-6.66,0.0035,0.0138,0.3131
19610,0.2846,0.0290,0.3071,-0.0533,-0.0170,-0.0056,2.24,-0.37,-2.19,0,3.399,-5.807,3.492,-1.576,0.004,-0.005,1.008,0.000,0.000,0.000,0.3080,1,0,2.00,0.08,-6.74,0.0024,0.0158,0.3122
19661,0.2802,0.0247,0.3073,-0.0548,-0.0444,-0.0004,2.04,-0.59,-2.26,0,3.410,-11.525,1.636,-2.410,0.003,-0.008,1.003,0.000,0.000,0.000,0.3120,3,1,1.69,0.29,-6.92,0.0025,0.0152,0.3115
19713,0.2790,0.0202,0.3095,-0.0467,-0.0653,0.0104,1.48,-0.74,-2.37,0,3.405,-16.917,4.569,-2.479,0.001,-0.007,0.999,0.000,0.000,0.000,0.3090,2,0,1.10,0.36,-7.00,0.0016,0.0134,0.3123
19765,0.2764,0.0133,0.3096,-0.0415,-0.0852,0.0089,0.66,-0.93,-2.50,0,3.410,-13.508,-1.749,-2.563,-0.001,-0.008,0.996,0.000,0.000,0.000,0.3110,3,0,0.19,0.61,-7.19,0.0015,0.0121,0.3119
19817,0.2752,0.0097,0.3106,-0.0321,-0.0881,0.0103,-0.02,-0.86,-2.63,0,3.399,-11.797,-2.224,-2.623,-0.001,-0.011,0.995,0.000,0.000,0.000,0.3080,8,0,-0.51,0.52,-7.32,0.0012,0.0103,0.3120
19868,0.2741,0.0032,0.3097,-0.0243,-0.0923,0.0023,-0.57,-0.76,-2.75,0,3.405,-12.881,-2.003,-1.828,0.002,-0.009,0.999,0.000,0.000,0.000,0.3080,0,0,-1.06,0.39,-7.32,0.0006,0.0053,0.3111
19919,0.2740,-0.0044,0.3090,-0.0152,-0.0936,-0.0026,-1.15,-0.68,-2.84,0,3.394,-13.935,-3.837,-2.695,0.002,-0.008,1.006,0.000,0.000,0.000,0.3090,9,-1,-1.72,0.29,-7.41,0.0005,0.0018,0.3102
19971,0.2736,-0.0138,0.3089,-0.0085,-0.0943,-0.0014,-1.74,-0.49,-2.95,0,3.405,-11.424,-5.561,-2.002,0.001,-0.011,1.000,0.000,0.000,0.000,0.3120,0,-2,-2.44,0.08,-7.55,0.0002,-0.0010,0.3099
20022,0.2745,-0.0242,0.3103,-0.0011,-0.0924,0.0065,-2.39,-0.25,-3.05,0,3.399,-9.710,-5.514,-1.974,0.000,-0.009,1.003,0.000,0.000,0.000,0.3110,1,0,-3.07,-0.20,-7.65,0.0012,-0.0017,0.3102
20073,0.2765,-0.0221,0.3109,0.0064,-0.0559,0.0084,-2.94,-0.09,-3.14,0,3.405,2.028,-5.545,-1.668,-0.001,-0.012,1.000,0.000,0.000,0.000,0.3080,0,0,-3.55,-0.50,-7.78,0.0012,-0.0022,0.3108
20124,0.2772,-0.0233,0.3099,0.0091,-0.0285,0.0017,-2.96,0.15,-3.20,0,3.394,9.390,-2.294,-1.809,0.001,-0.009,1.000,0.000,0.000,0.000,0.3060,0,-1,-3.44,-0.79,-7.85,0.0014,-0.0013,0.3100
20175,0.2772,-0.0215,0.3081,0.0077,0.0027,-0.0073,-2.59,0.30,-3.30,0,3.399,13.621,-0.630,-1.615,0.004,-0.008,1.000,0.000,0.000,0.000,0.3100,5,0,-2.89,-0.89,-7.82,0.0019,-0.0032,0.3096
20226,0.2795,-0.0186,0.3087,0.0109,0.0294,-0.0034,-1.94,0.31,-3.38,0,3.394,18.058,-3.618,-1.290,0.002,-0.012,1.000,0.000,0.000,0.000,0.3080,-4,-2,-2.12,-0.92,-7.92,0.0016,-0.0052,0.3090
20277,0.2794,-0.0199,0.3083,0.0074,0.0373,-0.0040,-1.12,0.45,-3.43,0,3.405,16.921,-1.195,-1.590,0.004,-0.013,0.996,0.000,0.000,0.000,0.3050,-5,1,-1.25,-1.07,-7.86,0.0030,-0.0031,0.3098
20328,0.2819,-0.0183,0.3066,0.0089,0.0442,-0.0118,-0.29,0.50,-3.50,0,3.394,15.806,0.720,-1.718,0.006,-0.015,1.000,0.000,0.000,0.000,0.3090,-4,0,-0.42,-1.15,-7.95,0.0029,-0.0001,0.3083
20379,0.2824,-0.0129,0.3073,0.0051,0.0521,-0.0045,0.57,0.45,-3.58,0,3.405,16.730,0.100,-1.806,0.003,-0.015,0.999,0.000,0.000,0.000,0.3080,-1,0,0.38,-1.10,-8.03,0.0032,0.0025,0.3083
20431,0.2819,-0.0073,0.3075,-0.0005,0.0530,-0.0021,1.41,0.46,-3.65,0,3.394,16.701,-1.304,-1.116,0.002,-0.012,0.998,0.000,0.000,0.000,0.3080,-1,0,1.26,-1.08,-8.15,0.0033,0.0031,0.3079
20482,0.2814,-0.0012,0.3076,-0.0064,0.0492,-0.0011,2.16,0.49,-3.70,0,3.405,13.623,3.696,-1.139,0.003,-0.012,0.999,0.000,0.000,0.000,0.3060,-3,0,2.13,-1.13,-8.23,0.0034,0.0037,0.3078
20534,0.2812,0.0028,0.3068,-0.0109,0.0349,-0.0056,2.78,0.33,-3.74,0,3.394,10.797,-3.631,-0.713,0.003,-0.015,0.997,0.000,0.000,0.000,0.3110,-4,0,2.77,-0.93,-8.30,0.0037,0.0056,0.3078
20585,0.2814,0.0091,0.3085,-0.0135,0.0227,0.0022,3.27,0.37,-3.78,0,3.405,10.070,4.835,-1.667,0.002,-0.011,0.998,0.000,0.000,0.000,0.3100,0,0,3.26,-1.10,-8.37,0.0040,0.0081,0.3093
20637,0.2815,0.0123,0.3092,-0.0162,0.0003,0.0031,3.79,0.28,-3.85,0,3.394,4.313,4.535,-2.335,0.003,-0.008,0.997,0.000,0.000,0.000,0.3090,3,1,3.77,-0.85,-8.44,0.0032,0.0077,0.3094
20689,0.2785,0.0121,0.3092,-0.0257,-0.0309,-0.0013,4.13,0.14,-3.95,0,3.399,-2.722,-0.150,-3.487,0.005,-0.011,0.990,0.000,0.000,0.000,0.3070,0,0,3.95,-0.57,-8.66,0.0035,0.0080,0.3098
20741,0.2756,0.0037,0.3080,-0.0328,-0.0800,-0.0114,4.15,0.06,-4.08,0,3.389,-11.865,2.778,-3.006,-0.002,-0.010,0.997,0.000,0.000,0.000,0.3020,1,0,3.81,-0.57,-8.84,0.0026,0.0050,0.3084
20792,0.2759,0.0034,0.3047,-0.0306,-0.1033,-0.0276,3.46,-0.10,-4.23,0,3.399,-9.612,1.177,-1.507,-0.002,-0.004,1.006,0.000,0.000,0.000,0.3090,2,0,3.04,-0.38,-9.18,0.0034,0.0075,0.3082
20843,0.2745,-0.0021,0.3055,-0.0316,-0.1310,-0.0168,2.89,-0.16,-4.31,0,3.389,-8.121,1.150,0.159,0.002,-0.008,1.008,0.000,0.000,0.000,0.3020,1,1,2.53,-0.31,-9.30,0.0031,0.0059,0.3078
20896,0.2708,-0.0099,0.3033,-0.0370,-0.1570,-0.0218,2.52,-0.18,-4.29,0,3.394,-17.011,2.481,2.056,-0.000,-0.006,1.009,0.000,0.000,0.000,0.2990,6,0,2.07,-0.26,-9.28,0.0024,0.0052,0.3059
20948,0.2690,-0.0157,0.3005,-0.0367,-0.1709,-0.0273,1.72,-0.28,-4.20,0,3.389,-16.648,3.585,5.065,0.003,-0.004,1.013,0.000,0.000,0.000,0.2980,8,1,1.19,-0.11,-9.20,0.0019,0.0017,0.3038
21000,0.2684,-0.0239,0.2984,-0.0321,-0.1820,-0.0251,0.84,-0.37,-4.01,0,3.389,-8.928,-6.902,4.843,0.003,-0.007,1.017,0.000,0.000,0.000,0.2980,1,0,0.34,0.06,-8.90,0.0006,-0.0029,0.3019
21051,0.2659,-0.0391,0.2974,-0.0320,-0.2026,-0.0170,0.46,-0.17,-3.79,0,3.384,-11.707,-5.160,3.716,0.002,-0.006,1.015,0.000,0.000,0.000,0.2940,9,0,-0.22,-0.29,-8.75,0.0005,-0.0035,0.3017
21102,0.2643,-0.0471,0.2953,-0.0313,-0.2003,-0.0157,-0.10,0.06,-3.59,0,3.394,-12.385,-2.016,3.801,-0.000,-0.002,1.015,0.000,0.000,0.000,0.2990,4,0,-0.75,-0.55,-8.51,-0.0003,-0.0088,0.3006
21153,0.2622,-0.0577,0.2965,-0.0329,-0.1989,-0.0009,-0.80,0.12,-3.40,0,3.389,-8.104,0.484,2.318,0.003,-0.005,1.010,0.000,0.000,0.000,0.2970,0,0,-1.41,-0.64,-8.33,-0.0007,-0.0112,0.3010
21204,0.2602,-0.0679,0.2969,-0.0345,-0.1924,0.0066,-1.23,0.12,-3.26,0,3.394,-2.854,0.515,2.110,0.001,-0.006,1.010,0.000,0.000,0.000,0.2950,1,0,-1.83,-0.61,-8.21,-0.0014,-0.0136,0.3007
21256,0.2592,-0.0785,0.2964,-0.0333,-0.1842,0.0079,-1.40,0.16,-3.14,0,3.389,-3.806,-3.673,1.349,0.004,-0.006,1.010,0.000,0.000,0.000,0.2990,4,-1,-2.02,-0.56,-8.07,-0.0007,-0.0125,0.2996
21308,0.2556,-0.0873,0.2980,-0.0391,-0.1720,0.0174,-1.58,0.28,-3.05,0,3.394,-3.971,-1.519,2.445,0.001,-0.005,1.005,0.000,0.000,0.000,0.2970,11,0,-2.17,-0.73,-7.94,-0.0005,-0.0143,0.3014
21360,0.2548,-0.0904,0.2983,-0.0381,-0.1454,0.0169,-1.68,0.40,-2.93,0,3.389,-1.411,2.169,2.537,0.003,-0.006,1.006,0.000,0.000,0.000,0.2990,5,0,-2.24,-0.80,-7.81,-0.0014,-0.0203,0.3018
21411,0.2543,-0.0998,0.2991,-0.0376,-0.1422,0.0185,-1.73,0.34,-2.78,0,3.399,0.087,-1.081,3.772,0.002,-0.005,1.001,0.000,0.000,0.000,0.2970,0,0,-2.32,-0.68,-7.66,-0.0018,-0.0233,0.3023
21462,0.2519,-0.1087,0.2989,-0.0407,-0.1320,0.0150,-1.75,0.37,-2.59,0,3.389,-3.259,-1.155,4.018,0.001,-0.004,1.007,0.000,0.000,0.000,0.3010,-3,0,-2.32,-0.72,-7.46,-0.0024,-0.0254,0.3018
21514,0.2478,-0.1162,0.3003,-0.0484,-0.1200,0.0194,-1.89,0.42,-2.38,0,3.394,0.523,0.445,6.016,0.001,-0.007,1.002,0.000,0.000,0.000,0.2990,1,0,-2.56,-0.75,-7.18,-0.0015,-0.0227,0.3026
21565,0.2447,-0.1199,0.3005,-0.0529,-0.0997,0.0177,-1.80,0.36,-2.11,0,3.389,2.971,3.052,6.229,0.005,-0.007,1.003,0.000,0.000,0.000,0.3010,1,0,-2.49,-0.71,-6.85,-0.0016,-0.0227,0.3036
21616,0.2422,-0.1241,0.3013,-0.0550,-0.0829,0.0186,-1.69,0.23,-1.81,0,3.394,3.947,-1.750,6.826,0.005,-0.006,1.000,0.000,0.000,0.000,0.3020,0,2,-2.30,-0.53,-6.51,-0.0016,-0.0230,0.3043
21667,0.2388,-0.1309,0.3023,-0.0582,-0.0759,0.0198,-1.45,0.29,-1.49,0,3.389,2.559,-1.125,7.550,0.008,-0.004,1.003,0.000,0.000,0.000,0.3050,0,0,-2.08,-0.63,-6.22,-0.0029,-0.0228,0.3047
21719,0.2347,-0.1313,0.3042,-0.0630,-0.0556,0.0237,-1.40,0.32,-1.12,0,3.394,3.969,-0.504,7.834,0.004,-0.007,0.999,0.000,0.000,0.000,0.3060,-1,1,-1.96,-0.67,-5.84,-0.0037,-0.0214,0.3059
21770,0.2309,-0.1317,0.3059,-0.0668,-0.0382,0.0252,-1.24,0.24,-0.72,0,3.389,4.248,0.386,7.925,0.003,-0.010,0.988,0.000,0.000,0.000,0.3060,-8,0,-1.70,-0.66,-5.36,-0.0034,-0.0225,0.3074
21821,0.2250,-0.1383,0.3067,-0.0753,-0.0404,0.0203,-0.85,0.20,-0.35,0,3.394,7.704,-0.007,8.946,0.003,-0.010,0.992,0.000,0.000,0.000,0.3050,-1,1,-1.56,-0.61,-4.93,-0.0032,-0.0185,0.3082
21872,0.2223,-0.1348,0.3066,-0.0744,-0.0208,0.0104,-0.55,0.26,0.08,0,3.389,0.881,1.619,9.775,0.001,-0.009,0.993,0.000,0.000,0.000,0.3080,0,2,-1.11,-0.61,-4.48,-0.0037,-0.0175,0.3086
21924,0.2174,-0.1322,0.3075,-0.0794,-0.0075,0.0078,-0.55,0.30,0.56,0,3.389,9.759,-2.773,9.348,0.003,-0.010,0.995,0.000,0.000,0.000,0.3050,-7,0,-1.03,-0.52,-3.99,-0.0050,-0.0173,0.3088
21975,0.2130,-0.1389,0.3066,-0.0829,-0.0190,-0.0010,-0.20,0.29,1.02,0,3.384,1.582,2.669,7.442,0.004,-0.005,0.995,0.000,0.000,0.000,0.3060,-3,1,-0.60,-0.64,-3.49,-0.0047,-0.0130,0.3085
22026,0.2080,-0.1336,0.3062,-0.0873,-0.0028,-0.0052,-0.12,0.19,1.41,0,3.394,1.621,2.327,5.554,0.008,-0.001,1.000,0.000,0.000,0.000,0.3080,5,3,-0.49,-0.50,-3.11,-0.0052,-0.0111,0.3081
22077,0.2039,-0.1335,0.3068,-0.0884,-0.0019,-0.0024,0.01,0.13,1.67,0,3.384,1.532,3.550,3.156,-0.001,-0.007,1.001,0.000,0.000,0.000,0.3060,0,1,-0.30,-0.40,-2.81,-0.0073,-0.0142,0.3085
22128,0.1989,-0.1296,0.3063,-0.0906,0.0084,-0.0046,0.08,-0.02,1.84,0,3.389,0.898,0.681,2.704,0.007,-0.007,1.000,0.000,0.000,0.000,0.3050,-2,1,-0.24,-0.20,-2.65,-0.0079,-0.0141,0.3083
22179,0.1941,-0.1309,0.3056,-0.0909,0.0042,-0.0077,0.11,-0.09,1.98,0,3.384,-0.384,1.669,2.230,0.006,-0.009,0.999,0.000,0.000,0.000,0.3050,-1,2,-0.22,-0.16,-2.54,-0.0085,-0.0129,0.3075
22230,0.1909,-0.1293,0.3051,-0.0868,0.0068,-0.0088,0.11,-0.17,2.08,0,3.389,-1.395,-0.032,0.983,0.008,-0.003,1.002,0.000,0.000,0.000,0.3060,0,0,-0.25,-0.08,-2.42,-0.0097,-0.0122,0.3066
22282,0.1844,-0.1340,0.3051,-0.0904,-0.0070,-0.0059,0.07,-0.15,2.13,0,3.384,-2.712,-1.349,-0.072,0.003,-0.004,1.001,0.000,0.000,0.000,0.3030,9,4,-0.32,-0.09,-2.37,-0.0105,-0.0116,0.3063
22334,0.1802,-0.1279,0.3040,-0.0885,0.0078,-0.0103,-0.01,-0.10,2.13,0,3.394,-4.903,1.149,-1.063,0.004,-0.008,1.000,0.000,0.000,0.000,0.3090,0,1,-0.35,-0.17,-2.28,-0.0124,-0.0174,0.3054
22385,0.1737,-0.1360,0.3059,-0.0922,-0.0120,0.0017,-0.19,-0.27,2.09,0,3.384,-3.983,1.771,-2.506,0.005,-0.003,0.998,0.000,0.000,0.000,0.3050,0,1,-0.65,-0.10,-2.37,-0.0132,-0.0180,0.3075
22436,0.1694,-0.1343,0.3055,-0.0896,-0.0051,-0.0008,-0.49,-0.38,1.99,0,3.389,-9.629,-1.152,-3.344,0.003,-0.006,0.993,0.000,0.000,0.000,0.3050,2,1,-0.88,-0.01,-2.52,-0.0138,-0.0180,0.3067
22487,0.1659,-0.1340,0.3052,-0.0845,-0.0000,-0.0032,-0.82,-0.36,1.85,0,3.384,-0.600,-0.247,-3.682,0.000,-0.004,1.001,0.000,0.000,0.000,0.3080,6,2,-1.35,-0.07,-2.67,-0.0145,-0.0192,0.3061
22538,0.1614,-0.1302,0.3064,-0.0825,0.0164,0.0029,-0.94,-0.27,1.64,0,3.394,-1.612,2.255,-5.605,0.009,-0.006,1.000,0.000,0.000,0.000,0.3090,9,4,-1.31,-0.10,-2.81,-0.0159,-0.0229,0.3066
22589,0.1568,-0.1304,0.3076,-0.0815,0.0218,0.0084,-1.03,-0.29,1.36,0,3.384,-1.754,-0.686,-6.375,0.004,-0.009,0.995,0.000,0.000,0.000,0.3050,0,0,-1.31,-0.03,-3.07,-0.0187,-0.0284,0.3065
22640,0.1516,-0.1300,0.3067,-0.0818,0.0293,0.0003,-1.13,-0.26,1.03,0,3.389,-2.318,-3.173,-6.638,0.004,-0.008,0.994,0.000,0.000,0.000,0.3050,-1,0,-1.40,-0.07,-3.40,-0.0206,-0.0321,0.3058
22691,0.1461,-0.1275,0.3059,-0.0833,0.0409,-0.0060,-1.09,-0.17,0.71,0,3.384,-2.719,-4.480,-6.552,0.006,-0.011,0.996,0.000,0.000,0.000,0.3030,0,0,-1.63,-0.19,-3.76,-0.0191,-0.0287,0.3063
22742,0.1426,-0.1287,0.3044,-0.0804,0.0415,-0.0144,-1.06,-0.02,0.40,0,3.384,-0.642,2.958,-5.249,0.004,-0.008,1.001,0.000,0.000,0.000,0.3000,0,1,-1.77,-0.43,-4.09,-0.0191,-0.0283,0.3048
22793,0.1399,-0.1197,0.3019,-0.0769,0.0676,-0.0233,-1.20,-0.00,0.11,0,3.378,2.113,-5.282,-6.145,0.004,-0.013,1.005,0.000,0.000,0.000,0.2990,0,1,-1.77,-0.29,-4.36,-0.0195,-0.0289,0.3033
22845,0.1361,-0.1158,0.2998,-0.0770,0.0781,-0.0262,-1.03,0.17,-0.16,0,3.384,11.774,-2.939,-5.117,0.008,-0.008,1.010,0.000,0.000,0.000,0.3010,-3,1,-1.65,-0.57,-4.67,-0.0200,-0.0287,0.3013
22896,0.1318,-0.1153,0.2995,-0.0796,0.0784,-0.0186,-0.64,0.39,-0.42,0,3.378,-4.781,-6.180,-5.489,0.003,-0.011,1.011,0.000,0.000,0.000,0.3010,1,1,-1.06,-0.73,-4.94,-0.0205,-0.0269,0.3007
22947,0.1286,-0.1068,0.2997,-0.0807,0.0951,-0.0084,-0.74,0.56,-0.67,0,3.384,4.507,0.740,-4.360,0.003,-0.007,1.010,0.000,0.000,0.000,0.3000,-1,3,-1.25,-1.05,-5.21,-0.0212,-0.0274,0.3010
22998,0.1239,-0.1063,0.2996,-0.0868,0.0911,-0.0026,-0.59,0.70,-0.89,0,3.378,3.667,1.668,-3.667,0.004,-0.011,1.004,0.000,0.000,0.000,0.2990,0,2,-1.01,-1.03,-5.45,-0.0229,-0.0266,0.3007
23050,0.1199,-0.0980,0.2993,-0.0909,0.1057,0.0004,-0.44,0.64,-1.07,0,3.389,-1.128,2.596,-2.595,0.004,-0.011,1.002,0.000,0.000,0.000,0.3000,-3,0,-0.81,-0.94,-5.64,-0.0242,-0.0265,0.3005
23101,0.1129,-0.0971,0.2997,-0.1024,0.0990,0.0033,-0.40,0.57,-1.22,0,3.378,0.832,-0.725,-2.805,0.004,-0.013,1.003,0.000,0.000,0.000,0.3020,0,2,-0.89,-0.76,-5.74,-0.0240,-0.0247,0.3007
23152,0.1105,-0.0916,0.3009,-0.1008,0.1035,0.0109,-0.35,0.64,-1.37,0,3.389,-1.786,-0.300,-2.734,0.005,-0.013,1.003,0.000,0.000,0.000,0.2990,-1,1,-0.82,-0.81,-5.89,-0.0252,-0.0245,0.3016
23203,0.1056,-0.0908,0.3005,-0.1053,0.0957,0.0066,-0.42,0.64,-1.49,0,3.378,-4.412,0.400,-1.635,0.005,-0.009,0.998,0.000,0.000,0.000,0.3000,0,1,-0.91,-0.81,-6.03,-0.0257,-0.0238,0.3012
23255,0.0992,-0.0833,0.3005,-0.1131,0.1055,0.0049,-0.57,0.60,-1.58,0,3.389,-2.235,0.046,-1.925,0.004,-0.011,1.001,0.000,0.000,0.000,0.3060,-2,2,-1.12,-0.78,-6.11,-0.0264,-0.0238,0.3012
23306,0.0944,-0.0813,0.3032,-0.1154,0.1023,0.0171,-0.67,0.53,-1.68,0,3.378,-1.422,2.597,-1.922,0.002,-0.013,0.995,0.000,0.000,0.000,0.3000,-2,1,-1.25,-0.78,-6.21,-0.0275,-0.0224,0.3030
23357,0.0891,-0.0776,0.3023,-0.1184,0.1038,0.0077,-0.73,0.39,-1.76,0,3.389,-4.386,0.665,-1.154,0.004,-0.011,0.997,0.000,0.000,0.000,0.3030,2,1,-1.32,-0.64,-6.30,-0.0279,-0.0211,0.3024
23408,0.0829,-0.0721,0.3029,-0.1220,0.1110,0.0064,-0.92,0.33,-1.83,0,3.378,-6.437,0.750,-0.716,0.003,-0.010,0.996,0.000,0.000,0.000,0.3010,0,0,-1.49,-0.59,-6.36,-0.0287,-0.0222,0.3032
23459,0.0767,-0.0699,0.3022,-0.1247,0.1104,0.0002,-1.23,0.33,-1.88,0,3.384,-2.923,-0.343,0.254,0.001,-0.014,0.999,0.000,0.000,0.000,0.3040,0,0,-1.82,-0.56,-6.39,-0.0297,-0.0218,0.3027
23510,0.0708,-0.0648,0.3030,-0.1261,0.1191,0.0024,-1.34,0.28,-1.91,0,3.378,-0.109,1.418,-0.066,0.006,-0.014,1.000,0.000,0.000,0.000,0.3030,0,2,-1.97,-0.57,-6.38,-0.0308,-0.0210,0.3032
23561,0.0637,-0.0574,0.3031,-0.1297,0.1337,0.0027,-1.42,0.18,-1.92,0,3.384,0.219,2.614,-0.502,0.006,-0.013,0.998,0.000,0.000,0.000,0.3010,-4,0,-1.93,-0.47,-6.34,-0.0301,-0.0229,0.3035
23612,0.0577,-0.0508,0.3022,-0.1298,0.1453,-0.0025,-1.43,0.06,-1.95,0,3.378,0.536,1.000,-0.493,0.002,-0.012,1.002,0.000,0.000,0.000,0.2990,-5,3,-1.95,-0.33,-6.36,-0.0301,-0.0211,0.3029
23664,0.0529,-0.0451,0.3007,-0.1258,0.1528,-0.0074,-1.28,0.04,-2.00,0,3.384,5.657,-0.080,-1.216,0.005,-0.015,1.004,0.000,0.000,0.000,0.3010,-5,0,-1.94,-0.31,-6.45,-0.0314,-0.0180,0.3016
23716,0.0461,-0.0373,0.3006,-0.1269,0.1625,-0.0046,-0.93,0.13,-2.03,0,3.373,1.297,-0.301,-1.831,0.004,-0.019,1.006,0.000,0.000,0.000,0.2960,-3,4,-1.65,-0.29,-6.46,-0.0311,-0.0149,0.3015
23768,0.0422,-0.0307,0.2984,-0.1214,0.1659,-0.0120,-0.78,0.08,-2.09,0,3.378,3.673,-2.475,0.013,0.004,-0.019,1.012,0.000,0.000,0.000,0.2990,-5,1,-1.55,-0.35,-6.61,-0.0333,-0.0128,0.3002
23819,0.0360,-0.0222,0.2983,-0.1222,0.1722,-0.0057,-0.68,0.14,-2.09,0,3.373,3.985,-4.459,1.718,0.003,-0.015,1.011,0.000,0.000,0.000,0.2970,-2,1,-1.36,-0.45,-6.57,-0.0335,-0.0098,0.3003
23870,0.0312,-0.0130,0.2976,-0.1202,0.1795,-0.0034,-0.61,0.31,-2.02,0,3.378,3.757,-2.517,3.102,0.006,-0.014,1.009,0.000,0.000,0.000,0.2970,-5,3,-1.12,-0.67,-6.46,-0.0340,-0.0085,0.3000
23921,0.0268,-0.0057,0.2973,-0.1188,0.1801,0.0002,-0.45,0.46,-1.89,0,3.373,2.872,-2.094,3.379,0.003,-0.014,1.009,0.000,0.000,0.000,0.2970,-2,1,-0.95,-0.81,-6.31,-0.0355,-0.0053,0.2997
23972,0.0194,0.0056,0.2973,-0.1259,0.1893,0.0043,-0.31,0.50,-1.77,0,3.378,4.807,1.328,3.550,0.004,-0.017,1.008,0.000,0.000,0.000,0.2970,-1,1,-0.78,-0.89,-6.13,-0.0360,-0.0040,0.3000
24023,0.0134,0.0155,0.2974,-0.1294,0.1932,0.0067,-0.11,0.51,-1.60,0,3.373,4.705,-2.723,3.802,0.001,-0.017,1.006,0.000,0.000,0.000,0.2980,-1,2,-0.51,-0.80,-5.96,-0.0365,-0.0034,0.2999
24075,0.0077,0.0238,0.2980,-0.1318,0.1906,0.0119,0.13,0.60,-1.42,0,3.384,3.367,4.639,4.810,0.003,-0.012,1.006,0.000,0.000,0.000,0.3050,-1,0,-0.27,-0.94,-5.77,-0.0377,-0.0027,0.3003
24126,0.0006,0.0311,0.3017,-0.1378,0.1841,0.0289,0.32,0.50,-1.20,0,3.378,1.482,-0.161,4.204,0.002,-0.011,1.000,0.000,0.000,0.000,0.3030,-4,2,-0.10,-0.66,-5.54,-0.0376,-0.0020,0.3029
24177,-0.0066,0.0362,0.3034,-0.1426,0.1712,0.0304,0.45,0.46,-0.99,0,3.389,-0.653,2.648,5.527,0.007,-0.015,0.998,0.000,0.000,0.000,0.3070,0,2,-0.07,-0.68,-5.30,-0.0387,0.0006,0.3043
24228,-0.0146,0.0431,0.3062,-0.1481,0.1626,0.0358,0.48,0.34,-0.76,0,3.378,-0.849,5.244,3.689,0.007,-0.014,0.994,0.000,0.000,0.000,0.3120,0,1,-0.08,-0.55,-5.03,-0.0399,0.0007,0.3066
24279,-0.0222,0.0489,0.3102,-0.1516,0.1531,0.0448,0.50,0.21,-0.55,0,3.389,-3.324,4.887,3.997,0.003,-0.012,0.989,0.000,0.000,0.000,0.3120,-2,4,-0.12,-0.26,-4.86,-0.0406,0.0008,0.3095
24330,-0.0313,0.0548,0.3125,-0.1570,0.1451,0.0412,0.40,0.06,-0.34,0,3.384,-3.290,4.821,3.934,0.006,-0.012,0.985,0.000,0.000,0.000,0.3100,-2,2,-0.32,-0.05,-4.63,-0.0431,0.0023,0.3116
24381,-0.0395,0.0603,0.3127,-0.1581,0.1380,0.0265,0.24,-0.17,-0.14,0,3.389,-4.865,6.693,3.372,0.007,-0.011,0.985,0.000,0.000,0.000,0.3120,-2,3,-0.50,0.21,-4.45,-0.0442,0.0037,0.3120
24432,-0.0479,0.0657,0.3132,-0.1572,0.1326,0.0157,0.12,-0.46,0.03,0,3.373,-3.475,3.481,3.433,0.007,-0.009,0.988,0.000,0.000,0.000,0.3120,0,5,-0.76,0.54,-4.28,-0.0460,0.0051,0.3124
24483,-0.0541,0.0710,0.3131,-0.1492,0.1285,0.0058,0.02,-0.62,0.18,0,3.384,-1.817,0.456,2.998,0.003,-0.015,0.987,0.000,0.000,0.000,0.3090,0,1,-0.91,0.68,-4.06,-0.0492,0.0053,0.3126
24535,-0.0619,0.0753,0.3113,-0.1451,0.1235,-0.0091,-0.02,-0.67,0.33,0,3.373,-1.023,0.833,2.904,0.004,-0.013,0.997,0.000,0.000,0.000,0.3090,-1,2,-0.99,0.73,-3.89,-0.0499,0.0053,0.3114
24587,-0.0687,0.0810,0.3099,-0.1384,0.1230,-0.0159,-0.11,-0.73,0.47,0,3.378,-1.716,2.386,2.487,0.006,-0.010,0.998,0.000,0.000,0.000,0.3060,0,2,-1.04,0.77,-3.75,-0.0511,0.0060,0.3103
24639,-0.0761,0.0857,0.3075,-0.1337,0.1207,-0.0245,-0.18,-0.76,0.60,0,3.368,-1.612,-1.052,1.562,0.005,-0.012,1.003,0.000,0.000,0.000,0.3080,-4,0,-1.12,0.88,-3.60,-0.0524,0.0060,0.3084
24691,-0.0839,0.0902,0.3069,-0.1301,0.1182,-0.0201,-0.22,-0.73,0.70,0,3.378,2.993,1.490,2.636,-0.001,-0.017,1.005,0.000,0.000,0.000,0.3090,-1,1,-1.24,0.84,-3.60,-0.0522,0.0086,0.3076
24742,-0.0904,0.0979,0.3072,-0.1243,0.1239,-0.0121,-0.05,-0.76,0.82,0,3.373,4.216,-1.172,2.024,0.003,-0.011,1.009,0.000,0.000,0.000,0.3090,-4,2,-1.06,0.90,-3.42,-0.0528,0.0092,0.3078
24794,-0.0962,0.1033,0.3076,-0.1177,0.1228,-0.0039,-0.01,-0.67,0.92,0,3.378,7.081,2.088,1.074,0.002,-0.010,1.002,0.000,0.000,0.000,0.3080,-2,2,-0.87,0.81,-3.39,-0.0539,0.0119,0.3080
24845,-0.1023,0.1103,0.3077,-0.1127,0.1241,-0.0014,0.32,-0.72,0.99,0,3.373,6.581,2.626,1.806,0.001,-0.013,0.999,0.000,0.000,0.000,0.3050,-2,3,-0.48,0.90,-3.30,-0.0551,0.0132,0.3079
24896,-0.1065,0.1176,0.3064,-0.1031,0.1240,-0.0073,0.58,-0.77,1.08,0,3.378,6.474,-0.243,2.578,0.003,-0.012,1.003,0.000,0.000,0.000,0.3040,-1,0,-0.14,1.00,-3.20,-0.0570,0.0145,0.3068
24947,-0.1119,0.1223,0.3050,-0.0973,0.1154,-0.0112,0.82,-0.72,1.20,0,3.368,-0.648,-2.916,2.018,0.001,-0.013,1.005,0.000,0.000,0.000,0.3040,-2,2,0.20,1.00,-3.05,-0.0570,0.0151,0.3057
24998,-0.1145,0.1261,0.3042,-0.0860,0.1041,-0.0110,0.89,-0.59,1.29,0,3.378,1.666,-5.331,0.841,0.001,-0.010,1.006,0.000,0.000,0.000,0.3040,-1,0,0.15,0.83,-2.95,-0.0582,0.0164,0.3052
25050,-0.1200,0.1349,0.3037,-0.0843,0.1054,-0.0091,1.02,-0.41,1.33,0,3.368,4.223,-2.329,1.334,0.002,-0.012,1.004,0.000,0.000,0.000,0.2990,0,0,0.24,0.56,-2.92,-0.0581,0.0171,0.3048
25101,-0.1230,0.1372,0.3013,-0.0783,0.0904,-0.0165,1.19,-0.25,1.39,0,3.373,0.605,-2.369,2.423,-0.001,-0.016,1.008,0.000,0.000,0.000,0.3000,0,0,0.46,0.44,-2.85,-0.0580,0.0172,0.3029
25152,-0.1272,0.1437,0.3001,-0.0769,0.0851,-0.0151,1.24,-0.09,1.47,0,3.368,0.416,-2.437,2.882,0.001,-0.013,1.008,0.000,0.000,0.000,0.2980,-1,0,0.49,0.32,-2.73,-0.0576,0.0167,0.3019
25204,-0.1317,0.1446,0.2987,-0.0778,0.0671,-0.0150,1.29,0.06,1.61,0,3.373,-0.354,-1.556,2.823,0.004,-0.009,1.010,0.000,0.000,0.000,0.2990,-4,0,0.47,0.17,-2.61,-0.0583,0.0187,0.3009
25255,-0.1352,0.1480,0.2984,-0.0770,0.0569,-0.0085,1.22,0.08,1.74,0,3.368,0.565,-0.718,2.998,0.006,-0.008,1.009,0.000,0.000,0.000,0.3000,6,4,0.41,0.09,-2.49,-0.0582,0.0202,0.3002
25306,-0.1379,0.1529,0.2990,-0.0751,0.0509,0.0016,1.23,0.16,1.89,0,3.378,1.943,-0.615,2.812,-0.001,-0.008,1.008,0.000,0.000,0.000,0.3020,0,1,0.53,-0.01,-2.19,-0.0603,0.0171,0.3011
25357,-0.1430,0.1543,0.3005,-0.0792,0.0381,0.0129,1.23,0.21,2.01,0,3.373,1.251,1.739,2.918,0.001,-0.007,1.003,0.000,0.000,0.000,0.3030,2,4,0.58,-0.02,-2.09,-0.0610,0.0170,0.3029
25408,-0.1460,0.1594,0.3022,-0.0781,0.0343,0.0206,1.36,0.10,2.16,0,3.378,5.327,1.056,1.872,-0.001,-0.004,1.000,0.000,0.000,0.000,0.3000,-4,0,0.64,0.03,-1.89,-0.0635,0.0158,0.3037
25460,-0.1522,0.1617,0.3020,-0.0837,0.0244,0.0149,1.59,0.09,2.25,0,3.373,-1.548,0.774,1.162,-0.003,-0.014,0.991,0.000,0.000,0.000,0.3010,-4,0,0.82,0.12,-1.90,-0.0634,0.0184,0.3042
25512,-0.1581,0.1589,0.3020,-0.0881,0.0011,0.0096,1.66,0.08,2.32,0,3.378,1.721,5.191,-0.429,0.003,-0.007,0.997,0.000,0.000,0.000,0.3000,0,2,0.69,0.18,-1.90,-0.0633,0.0210,0.3033
25563,-0.1624,0.1665,0.3015,-0.0876,0.0054,0.0047,1.73,-0.13,2.35,0,3.368,-1.332,3.855,-0.024,0.003,-0.006,1.001,0.000,0.000,0.000,0.3050,-8,0,0.80,0.43,-1.86,-0.0645,0.0209,0.3029
25614,-0.1694,0.1608,0.3033,-0.0920,-0.0226,0.0121,1.73,-0.21,2.30,0,3.378,-1.345,4.641,-0.397,0.001,-0.002,0.999,0.000,0.000,0.000,0.3050,9,6,0.63,0.64,-1.97,-0.0643,0.0260,0.3042
25666,-0.1718,0.1703,0.3046,-0.0840,-0.0117,0.0149,1.65,-0.41,2.29,0,3.368,3.674,1.396,-1.859,0.004,-0.003,0.996,0.000,0.000,0.000,0.3020,-4,0,0.73,0.79,-1.65,-0.0684,0.0200,0.3080
25718,-0.1796,0.1644,0.3039,-0.0881,-0.0367,0.0064,1.73,-0.59,2.23,0,3.373,0.965,5.128,-1.251,0.003,-0.005,0.995,0.000,0.000,0.000,0.3030,0,0,0.81,0.90,-1.96,-0.0682,0.0228,0.3101
25769,-0.1846,0.1612,0.3036,-0.0842,-0.0545,0.0010,1.80,-0.72,2.19,0,3.368,-4.612,2.372,-0.473,0.002,-0.001,0.999,0.000,0.000,0.000,0.3070,-3,0,0.86,1.17,-2.03,-0.0684,0.0227,0.3087
25821,-0.1904,0.1607,0.3053,-0.0813,-0.0630,0.0072,1.58,-0.94,2.13,0,3.378,-3.805,0.556,-1.667,0.002,-0.003,0.996,0.000,0.000,0.000,0.3060,-2,1,0.58,1.28,-2.11,-0.0686,0.0250,0.3086
25872,-0.1933,0.1558,0.3058,-0.0708,-0.0797,0.0061,1.37,-1.01,2.07,0,3.368,-0.642,-0.803,-1.384,-0.000,-0.002,0.995,0.000,0.000,0.000,0.3080,-3,0,0.36,1.29,-2.19,-0.0689,0.0261,0.3080
25923,-0.1977,0.1517,0.3071,-0.0646,-0.0914,0.0088,1.36,-0.96,2.01,0,3.378,-2.478,0.358,-1.270,-0.001,-0.002,0.993,0.000,0.000,0.000,0.3080,1,1,0.30,1.23,-2.30,-0.0688,0.0279,0.3080
25974,-0.2009,0.1481,0.3078,-0.0565,-0.0996,0.0079,1.24,-0.94,1.94,0,3.373,-6.861,1.203,-1.948,-0.003,-0.005,0.994,0.000,0.000,0.000,0.3070,0,0,0.21,1.22,-2.25,-0.0694,0.0272,0.3082
26026,-0.2038,0.1395,0.3076,-0.0486,-0.1177,0.0020,1.01,-0.95,1.83,0,3.373,-3.683,-3.587,-3.910,-0.001,-0.008,0.991,0.000,0.000,0.000,0.3020,9,2,-0.14,1.28,-2.35,-0.0690,0.0271,0.3076
26077,-0.2071,0.1347,0.3051,-0.0433,-0.1222,-0.0132,0.85,-0.77,1.69,0,3.362,-8.812,3.722,-1.366,-0.001,-0.005,0.997,0.000,0.000,0.000,0.3030,0,0,-0.25,1.05,-2.34,-0.0713,0.0219,0.3053
26128,-0.2108,0.1248,0.3035,-0.0399,-0.1358,-0.0187,0.40,-0.84,1.59,0,3.373,-5.665,0.601,-0.726,-0.003,-0.004,1.004,0.000,0.000,0.000,0.3060,1,0,-0.70,1.24,-2.41,-0.0715,0.0193,0.3038
26179,-0.2137,0.1142,0.3039,-0.0351,-0.1471,-0.0116,0.05,-0.87,1.58,0,3.368,-6.617,-3.788,0.118,-0.001,-0.002,1.003,0.000,0.000,0.000,0.3040,1,2,-1.05,1.25,-2.57,-0.0717,0.0204,0.3041
26230,-0.2146,0.1130,0.3037,-0.0284,-0.1361,-0.0086,-0.34,-0.74,1.60,0,3.373,3.693,-5.463,1.008,0.001,-0.001,1.006,0.000,0.000,0.000,0.3040,0,-1,-1.38,1.03,-2.56,-0.0724,0.0199,0.3037
26282,-0.2181,0.1016,0.3035,-0.0272,-0.1444,-0.0075,-0.29,-0.66,1.70,0,3.368,-1.488,-2.436,3.501,-0.001,-0.008,1.001,0.000,0.000,0.000,0.3010,0,0,-1.19,0.76,-2.49,-0.0719,0.0199,0.3034
26333,-0.2182,0.0977,0.3022,-0.0192,-0.1343,-0.0107,-0.42,-0.54,1.86,0,3.373,-4.172,0.511,3.813,0.001,-0.001,1.003,0.000,0.000,0.000,0.3020,1,0,-1.26,0.64,-2.30,-0.0711,0.0202,0.3023
26384,-0.2194,0.0901,0.3017,-0.0155,-0.1328,-0.0097,-0.59,-0.48,2.06,0,3.362,3.728,-3.767,3.773,-0.002,-0.005,1.005,0.000,0.000,0.000,0.2990,4,0,-1.44,0.63,-2.10,-0.0720,0.0189,0.3021
26435,-0.2202,0.0870,0.3002,-0.0120,-0.1200,-0.0131,-0.45,-0.31,2.24,0,3.373,4.013,-0.331,3.596,-0.004,-0.009,1.001,0.000,0.000,0.000,0.3030,0,0,-1.19,0.44,-1.86,-0.0720,0.0171,0.3007
26486,-0.2206,0.0787,0.3010,-0.0092,-0.1212,-0.0057,-0.25,-0.22,2.42,0,3.362,0.969,-0.995,2.982,-0.002,-0.009,1.001,0.000,0.000,0.000,0.2990,1,1,-0.99,0.43,-1.68,-0.0718,0.0163,0.3011
26537,-0.2210,0.0727,0.2999,-0.0074,-0.1188,-0.0085,-0.21,-0.17,2.56,0,3.373,4.934,-3.890,2.835,-0.003,-0.007,1.007,0.000,0.000,0.000,0.2990,0,0,-0.95,0.36,-1.55,-0.0726,0.0163,0.3002
26588,-0.2227,0.0677,0.2993,-0.0089,-0.1151,-0.0074,-0.00,0.02,2.71,0,3.362,1.853,-1.371,4.375,0.001,-0.004,1.011,0.000,0.000,0.000,0.2990,0,0,-0.69,0.16,-1.41,-0.0728,0.0162,0.2997
26640,-0.2234,0.0656,0.2990,-0.0096,-0.1071,-0.0031,0.17,0.14,2.90,0,3.373,7.895,-2.215,3.199,-0.003,-0.003,1.006,0.000,0.000,0.000,0.2990,0,0,-0.60,0.09,-1.18,-0.0729,0.0163,0.2996
26691,-0.2251,0.0617,0.2990,-0.0134,-0.1055,0.0008,0.43,0.21,3.11,0,3.362,8.487,-0.898,4.350,-0.006,-0.001,1.007,0.000,0.000,0.000,0.2990,0,0,-0.19,-0.02,-1.02,-0.0729,0.0166,0.2996
26742,-0.2281,0.0593,0.2991,-0.0198,-0.1031,0.0043,0.78,0.27,3.31,0,3.373,6.930,6.585,4.213,-0.003,-0.004,1.002,0.000,0.000,0.000,0.2990,0,0,0.25,-0.07,-0.79,-0.0732,0.0170,0.2998
26793,-0.2312,0.0587,0.2993,-0.0261,-0.1001,0.0060,1.05,0.02,3.52,0,3.362,7.635,8.390,3.018,0.004,-0.001,1.005,0.000,0.000,0.000,0.3000,-3,0,0.60,0.27,-0.58,-0.0735,0.0171,0.3000
26845,-0.2345,0.0593,0.2998,-0.0296,-0.0977,0.0088,1.27,-0.35,3.69,0,3.373,12.043,3.709,3.338,-0.001,-0.002,1.001,0.000,0.000,0.000,0.3030,0,1,0.98,0.70,-0.42,-0.0731,0.0186,0.3005
26897,-0.2376,0.0635,0.3016,-0.0294,-0.0909,0.0155,1.97,-0.52,3.86,0,3.362,12.672,5.402,1.897,-0.005,-0.008,0.987,0.000,0.000,0.000,0.2990,-1,1,1.60,0.87,-0.21,-0.0733,0.0184,0.3020
26948,-0.2403,0.0591,0.3009,-0.0262,-0.1051,0.0055,2.43,-0.84,3.99,0,3.373,-0.453,5.369,2.292,0.003,-0.003,0.998,0.000,0.000,0.000,0.3020,0,1,2.23,1.13,-0.10,-0.0738,0.0187,0.3019
26999,-0.2415,0.0602,0.3015,-0.0176,-0.1120,0.0047,2.41,-1.09,4.11,0,3.362,5.965,0.351,3.101,-0.001,0.003,1.002,0.000,0.000,0.000,0.3010,3,0,2.18,1.38,0.06,-0.0743,0.0185,0.3024
27050,-0.2468,0.0343,0.3014,-0.0161,-0.1712,0.0010,2.84,-1.05,4.27,0,3.368,-13.917,5.211,2.869,-0.001,0.001,0.997,0.000,0.000,0.000,0.2990,3,1,2.50,1.39,0.26,-0.0743,0.0166,0.3022
27101,-0.2437,0.0345,0.3004,0.0017,-0.1760,-0.0067,2.23,-1.33,4.42,0,3.362,-18.023,-1.237,1.206,-0.003,-0.001,1.001,0.000,0.000,0.000,0.3000,1,0,1.78,1.61,0.49,-0.0749,0.0147,0.3017
27152,-0.2411,0.0322,0.3000,0.0188,-0.1800,-0.0075,1.29,-1.35,4.51,0,3.368,-0.077,-6.839,0.916,0.005,0.003,1.009,0.000,0.000,0.000,0.2990,0,-2,0.81,1.54,0.49,-0.0749,0.0141,0.3014
27203,-0.2398,0.0244,0.2993,0.0313,-0.1870,-0.0067,1.10,-1.13,4.55,0,3.357,-2.946,-6.556,1.286,0.004,0.000,1.003,0.000,0.000,0.000,0.2990,0,-2,0.77,1.20,0.44,-0.0737,0.0143,0.3008
27254,-0.2373,0.0129,0.2990,0.0429,-0.2002,-0.0050,0.97,-0.81,4.61,0,3.368,-9.551,-6.832,-0.474,0.003,0.004,1.001,0.000,0.000,0.000,0.2990,1,-2,0.60,0.85,0.49,-0.0724,0.0144,0.3004
27306,-0.2338,0.0071,0.2988,0.0527,-0.1997,-0.0048,0.55,-0.48,4.61,0,3.357,-5.323,-3.088,-1.190,0.000,0.006,1.008,0.000,0.000,0.000,0.3000,5,-2,0.11,0.49,0.48,-0.0712,0.0137,0.3002
27357,-0.2329,-0.0014,0.2993,0.0533,-0.2016,0.0002,0.35,-0.25,4.58,0,3.368,4.284,-4.566,-0.642,0.001,0.004,1.002,0.000,0.000,0.000,0.2970,0,0,-0.11,0.31,0.47,-0.0700,0.0106,0.3007
27408,-0.2304,-0.0106,0.2983,0.0552,-0.2036,-0.0022,0.54,-0.02,4.56,0,3.362,-1.522,0.297,-0.911,-0.001,0.000,1.004,0.000,0.000,0.000,0.3020,2,-3,0.10,0.08,0.44,-0.0684,0.0088,0.2999
27459,-0.2283,-0.0216,0.2999,0.0541,-0.2099,0.0077,0.50,0.05,4.51,0,3.373,-10.362,1.590,-2.065,0.003,-0.000,1.001,0.000,0.000,0.000,0.3010,0,-2,-0.01,0.08,0.39,-0.0680,0.0092,0.3012
27511,-0.2241,-0.0286,0.3007,0.0571,-0.2061,0.0103,0.07,-0.02,4.43,0,3.362,-4.850,0.165,-0.008,-0.006,0.001,1.003,0.000,0.000,0.000,0.3020,4,1,-0.56,0.16,0.29,-0.0668,0.0091,0.3015
27563,-0.2215,-0.0426,0.3016,0.0569,-0.2146,0.0137,-0.26,-0.06,4.42,0,3.368,-5.380,1.371,1.525,-0.006,0.000,0.998,0.000,0.000,0.000,0.2990,2,-2,-0.76,0.13,0.28,-0.0672,0.0068,0.3027
27614,-0.2194,-0.0570,0.3010,0.0555,-0.2203,0.0053,-0.44,-0.10,4.48,0,3.362,-13.171,-0.624,2.337,-0.002,0.005,0.996,0.000,0.000,0.000,0.3010,2,0,-1.04,0.23,0.37,-0.0661,0.0056,0.3023
27665,-0.2161,-0.0721,0.3011,0.0573,-0.2263,0.0037,-1.06,-0.11,4.58,0,3.368,-11.193,1.077,1.199,-0.004,0.004,0.998,0.000,0.000,0.000,0.2980,5,-1,-1.70,0.19,0.47,-0.0660,0.0044,0.3024
27716,-0.2143,-0.0788,0.2998,0.0550,-0.2073,-0.0052,-1.59,-0.17,4.60,0,3.357,-4.925,1.288,-0.885,-0.002,0.001,1.001,0.000,0.000,0.000,0.3000,2,0,-2.20,0.25,0.54,-0.0654,0.0014,0.3018
27768,-0.2106,-0.0894,0.2997,0.0575,-0.1947,-0.0054,-1.87,-0.29,4.57,0,3.368,-1.957,0.046,-0.182,-0.003,-0.003,1.000,0.000,0.000,0.000,0.2980,0,-1,-2.45,0.30,0.47,-0.0654,0.0002,0.3015
27820,-0.2092,-0.0972,0.2988,0.0551,-0.1756,-0.0083,-1.97,-0.27,4.51,0,3.357,1.403,-0.691,-0.860,0.000,-0.006,1.003,0.000,0.000,0.000,0.2960,0,-1,-2.55,0.31,0.48,-0.0648,0.0001,0.3005
27871,-0.2060,-0.0989,0.2973,0.0571,-0.1427,-0.0123,-1.99,-0.20,4.47,0,3.362,4.222,-0.142,-1.266,0.001,-0.003,1.004,0.000,0.000,0.000,0.3000,3,0,-2.46,0.27,0.44,-0.0642,0.0001,0.2993
27922,-0.2027,-0.1028,0.2981,0.0586,-0.1194,-0.0049,-1.75,-0.20,4.40,0,3.357,9.602,-0.994,-1.457,0.001,-0.005,1.005,0.000,0.000,0.000,0.2990,0,0,-2.17,0.25,0.33,-0.0642,-0.0017,0.2999
27974,-0.1997,-0.1118,0.2984,0.0595,-0.1125,0.0003,-1.34,-0.21,4.33,0,3.368,1.165,-0.668,-2.592,-0.001,-0.006,1.001,0.000,0.000,0.000,0.3000,0,0,-1.68,0.19,0.26,-0.0637,-0.0013,0.2999
28025,-0.1954,-0.1083,0.2991,0.0636,-0.0785,0.0045,-1.31,-0.23,4.21,0,3.362,4.373,-0.331,-4.479,0.000,-0.006,1.002,0.000,0.000,0.000,0.2990,0,-1,-1.62,0.15,0.12,-0.0632,-0.0004,0.3001
28076,-0.1926,-0.1156,0.2992,0.0637,-0.0769,0.0046,-1.06,-0.23,4.01,0,3.362,13.399,0.145,-5.951,0.001,-0.001,0.999,0.000,0.000,0.000,0.2980,3,0,-1.35,0.12,-0.14,-0.0636,-0.0025,0.3001
28127,-0.1879,-0.1147,0.2989,0.0684,-0.0563,0.0016,-0.43,-0.23,3.70,0,3.357,7.649,0.714,-7.692,0.003,-0.002,1.002,0.000,0.000,0.000,0.3020,0,0,-0.63,0.12,-0.45,-0.0635,-0.0035,0.2991
28178,-0.1847,-0.1134,0.3004,0.0696,-0.0416,0.0092,-0.12,-0.27,3.33,0,3.368,7.392,0.677,-9.780,0.002,-0.001,1.001,0.000,0.000,0.000,0.3010,0,-2,-0.24,0.15,-0.85,-0.0632,-0.0038,0.3001
28229,-0.1821,-0.1144,0.3010,0.0695,-0.0379,0.0107,0.19,-0.30,2.88,0,3.357,7.276,0.409,-7.048,0.001,-0.000,1.000,0.000,0.000,0.000,0.2990,0,-2,0.13,0.19,-1.34,-0.0624,-0.0036,0.3007
28280,-0.1776,-0.1159,0.3005,0.0744,-0.0381,0.0052,0.47,-0.30,2.52,0,3.368,5.817,0.426,-5.344,0.002,-0.006,0.998,0.000,0.000,0.000,0.3000,0,0,0.50,0.22,-1.71,-0.0613,-0.0037,0.3005
28331,-0.1738,-0.1161,0.3004,0.0772,-0.0378,0.0034,0.76,-0.29,2.23,0,3.357,0.777,-0.579,-5.189,-0.001,-0.005,0.998,0.000,0.000,0.000,0.3020,4,-1,0.79,0.25,-1.98,-0.0602,-0.0041,0.3005
28382,-0.1684,-0.1146,0.3013,0.0834,-0.0355,0.0059,0.75,-0.26,1.97,0,3.368,-1.246,-1.147,-5.817,-0.004,-0.005,0.999,0.000,0.000,0.000,0.3060,4,-1,0.84,0.19,-2.20,-0.0606,-0.0056,0.3011
28435,-0.1656,-0.1138,0.3036,0.0823,-0.0349,0.0149,0.69,-0.21,1.70,0,3.357,-0.433,0.823,-5.396,-0.004,-0.000,0.992,0.000,0.000,0.000,0.2990,0,0,0.79,0.14,-2.51,-0.0601,-0.0080,0.3027
28485,-0.1618,-0.1160,0.3020,0.0834,-0.0408,0.0023,0.63,-0.25,1.45,0,3.362,-0.658,2.958,-5.723,-0.004,-0.006,0.996,0.000,0.000,0.000,0.2990,0,-1,0.77,0.19,-2.79,-0.0598,-0.0104,0.3016
28536,-0.1581,-0.1165,0.3007,0.0843,-0.0422,-0.0073,0.62,-0.34,1.17,0,3.352,-2.353,-1.756,-6.163,-0.003,-0.005,1.001,0.000,0.000,0.000,0.2990,1,0,0.64,0.34,-3.06,-0.0595,-0.0082,0.3015
28587,-0.1541,-0.1218,0.2996,0.0865,-0.0547,-0.0112,0.46,-0.33,0.85,0,3.362,-6.210,1.545,-9.605,-0.002,-0.008,1.002,0.000,0.000,0.000,0.3030,0,-1,0.52,0.24,-3.37,-0.0594,-0.0089,0.3006
28638,-0.1501,-0.1217,0.3008,0.0886,-0.0513,-0.0025,0.17,-0.39,0.37,0,3.357,-4.138,-4.342,-12.129,-0.001,-0.004,1.003,0.000,0.000,0.000,0.3010,1,-2,0.18,0.33,-3.87,-0.0589,-0.0090,0.3012
28690,-0.1461,-0.1287,0.3008,0.0904,-0.0640,-0.0004,0.02,-0.28,-0.11,0,3.362,-9.707,-2.791,-14.919,-0.006,-0.004,1.002,0.000,0.000,0.000,0.2990,0,-2,-0.04,0.12,-4.50,-0.0577,-0.0098,0.3011
28741,-0.1406,-0.1312,0.3000,0.0949,-0.0620,-0.0034,-0.38,-0.18,-0.83,0,3.352,-7.888,0.846,-15.202,-0.003,-0.005,1.004,0.000,0.000,0.000,0.3000,0,-1,-0.56,-0.02,-5.28,-0.0565,-0.0098,0.3005
28793,-0.1362,-0.1372,0.2999,0.0954,-0.0649,-0.0008,-0.81,-0.17,-1.59,0,3.357,-9.197,1.286,-14.823,-0.005,-0.007,1.004,0.000,0.000,0.000,0.2980,-1,-2,-0.96,0.01,-6.05,-0.0559,-0.0099,0.3004
28844,-0.1329,-0.1394,0.2991,0.0933,-0.0556,-0.0026,-1.28,-0.21,-2.36,0,3.357,-3.544,3.894,-15.399,-0.002,-0.003,1.008,0.000,0.000,0.000,0.2990,1,0,-1.45,0.07,-6.82,-0.0546,-0.0094,0.2997
28896,-0.1280,-0.1437,0.2990,0.0962,-0.0490,0.0014,-1.46,-0.30,-3.14,0,3.357,-0.946,-0.128,-13.188,-0.005,-0.004,1.010,0.000,0.000,0.000,0.2990,0,-1,-1.60,0.23,-7.64,-0.0547,-0.0100,0.3002
28948,-0.1219,-0.1452,0.2991,0.1023,-0.0351,0.0053,-1.56,-0.30,-3.83,0,3.357,-3.159,-1.284,-10.940,-0.008,-0.010,1.012,0.000,0.000,0.000,0.3010,1,-2,-1.64,0.20,-8.32,-0.0541,-0.0101,0.3004
28999,-0.1159,-0.1461,0.3003,0.1083,-0.0205,0.0131,-1.76,-0.29,-4.40,0,3.362,-1.092,-2.664,-6.458,-0.007,-0.013,1.006,0.000,0.000,0.000,0.3000,2,0,-1.77,0.14,-8.86,-0.0529,-0.0109,0.3015
29051,-0.1100,-0.1433,0.3007,0.1128,0.0031,0.0150,-1.82,-0.15,-4.80,0,3.357,-4.370,0.682,-2.471,-0.005,-0.010,1.002,0.000,0.000,0.000,0.2980,-3,-3,-1.79,-0.02,-9.21,-0.0531,-0.0121,0.3022
29103,-0.1082,-0.1509,0.3001,0.1050,-0.0016,0.0101,-1.95,0.04,-4.97,0,3.362,-7.518,1.688,0.616,-0.005,-0.012,1.003,0.000,0.000,0.000,0.3010,3,-1,-2.06,0.04,-9.26,-0.0510,-0.0106,0.3020
29155,-0.1029,-0.1476,0.3009,0.1058,0.0226,0.0119,-2.20,0.06,-4.99,0,3.357,-0.163,0.673,2.561,-0.002,-0.016,1.001,0.000,0.000,0.000,0.3040,5,-1,-2.38,0.12,-9.27,-0.0506,-0.0124,0.3038
29206,-0.0990,-0.1457,0.3028,0.1037,0.0429,0.0189,-2.37,0.05,-4.91,0,3.362,0.434,2.330,5.232,0.000,-0.008,0.999,0.000,0.000,0.000,0.3000,-3,-1,-2.32,0.16,-9.16,-0.0505,-0.0155,0.3049
29257,-0.0946,-0.1459,0.3022,0.1033,0.0564,0.0105,-2.38,-0.07,-4.69,0,3.352,3.618,-1.186,7.064,-0.000,-0.012,0.996,0.000,0.000,0.000,0.2990,1,0,-2.35,0.29,-8.90,-0.0496,-0.0138,0.3049
29308,-0.0905,-0.1422,0.3011,0.1028,0.0770,0.0015,-2.23,-0.07,-4.37,0,3.362,2.453,-0.179,7.328,-0.004,-0.011,0.998,0.000,0.000,0.000,0.3040,0,-1,-2.12,0.22,-8.58,-0.0497,-0.0144,0.3045
29361,-0.0860,-0.1387,0.3024,0.1034,0.0940,0.0061,-2.10,-0.08,-4.03,0,3.357,-1.552,5.623,5.706,-0.002,-0.013,0.997,0.000,0.000,0.000,0.3050,0,-1,-1.98,0.23,-8.19,-0.0491,-0.0144,0.3051
29413,-0.0827,-0.1351,0.3038,0.1006,0.1079,0.0098,-2.12,-0.22,-3.76,0,3.362,5.651,6.876,3.102,-0.001,-0.010,0.995,0.000,0.000,0.000,0.3010,0,-1,-2.04,0.54,-7.90,-0.0485,-0.0145,0.3057
29465,-0.0780,-0.1283,0.3028,0.1029,0.1272,0.0009,-1.82,-0.44,-3.61,0,3.357,7.778,0.248,0.337,-0.003,-0.018,0.995,0.000,0.000,0.000,0.3000,-1,-1,-1.72,0.90,-7.75,-0.0479,-0.0147,0.3047
29516,-0.0721,-0.1194,0.3015,0.1092,0.1474,-0.0076,-1.49,-0.55,-3.58,0,3.357,5.575,-0.685,-1.989,-0.001,-0.012,0.998,0.000,0.000,0.000,0.3050,0,0,-1.31,0.91,-7.75,-0.0472,-0.0142,0.3034
29567,-0.0671,-0.1129,0.3028,0.1133,0.1562,-0.0013,-1.20,-0.54,-3.66,0,3.352,11.131,1.130,-4.162,-0.001,-0.013,0.995,0.000,0.000,0.000,0.3050,-2,-2,-1.03,0.87,-7.85,-0.0460,-0.0134,0.3038
29618,-0.0616,-0.1040,0.3038,0.1178,0.1671,0.0029,-0.67,-0.51,-3.88,0,3.362,10.854,-3.329,-5.086,-0.002,-0.017,0.993,0.000,0.000,0.000,0.3020,-2,-2,-0.45,0.90,-8.08,-0.0460,-0.0131,0.3041
29670,-0.0569,-0.0979,0.3030,0.1189,0.1658,-0.0041,-0.09,-0.37,-4.13,0,3.352,7.508,-2.542,-3.537,-0.001,-0.018,0.993,0.000,0.000,0.000,0.3000,-1,-1,0.08,0.73,-8.35,-0.0447,-0.0123,0.3033
29721,-0.0499,-0.0885,0.3014,0.1243,0.1685,-0.0137,0.28,-0.29,-4.32,0,3.357,3.753,-0.780,-1.130,0.002,-0.025,1.003,0.000,0.000,0.000,0.3000,-1,-4,0.47,0.58,-8.53,-0.0440,-0.0118,0.3018
29772,-0.0458,-0.0818,0.3002,0.1210,0.1615,-0.0172,0.49,-0.28,-4.42,0,3.347,-0.728,0.106,-1.457,-0.000,-0.021,1.007,0.000,0.000,0.000,0.2980,-4,-2,0.64,0.57,-8.63,-0.0415,-0.0116,0.3007
29824,-0.0392,-0.0758,0.2986,0.1241,0.1526,-0.0191,0.52,-0.26,-4.49,0,3.352,-3.555,0.422,0.332,-0.002,-0.026,1.004,0.000,0.000,0.000,0.2970,0,-3,0.54,0.55,-8.70,-0.0399,-0.0093,0.2998
29876,-0.0348,-0.0726,0.2973,0.1214,0.1374,-0.0183,0.43,-0.25,-4.49,0,3.347,-9.110,3.114,1.288,-0.001,-0.019,1.013,0.000,0.000,0.000,0.2970,-3,-1,0.36,0.57,-8.68,-0.0381,-0.0096,0.2985
29927,-0.0288,-0.0727,0.2966,0.1230,0.1168,-0.0126,0.08,-0.34,-4.44,0,3.357,-11.443,-0.434,0.814,0.001,-0.020,1.014,0.000,0.000,0.000,0.3000,0,-2,-0.16,0.70,-8.59,-0.0373,-0.0079,0.2981
29978,-0.0228,-0.0661,0.2978,0.1256,0.1185,0.0009,-0.41,-0.42,-4.41,0,3.352,-7.640,0.152,-0.897,-0.001,-0.019,1.006,0.000,0.000,0.000,0.2960,-2,-3,-0.74,0.68,-8.54,-0.0361,-0.0081,0.2989
30029,-0.0181,-0.0661,0.2972,0.1255,0.1077,0.0014,-0.82,-0.41,-4.42,0,3.357,-8.668,-0.962,-0.042,-0.001,-0.019,1.001,0.000,0.000,0.000,0.2990,0,-2,-1.15,0.69,-8.60,-0.0341,-0.0071,0.2983
30080,-0.0103,-0.0620,0.2981,0.1328,0.1109,0.0068,-1.17,-0.36,-4.44,0,3.352,-6.833,-0.141,1.561,-0.003,-0.020,0.999,0.000,0.000,0.000,0.2970,0,-3,-1.58,0.62,-8.60,-0.0329,-0.0073,0.2990
30133,-0.0027,-0.0589,0.2979,0.1389,0.1148,0.0055,-1.55,-0.31,-4.37,0,3.357,-5.549,-4.907,4.020,-0.002,-0.022,1.003,0.000,0.000,0.000,0.2960,-4,-3,-1.92,0.62,-8.51,-0.0310,-0.0076,0.2988
30185,0.0037,-0.0575,0.2972,0.1407,0.1165,0.0013,-1.78,-0.10,-4.20,0,3.347,-4.873,-3.314,6.581,-0.001,-0.025,0.996,0.000,0.000,0.000,0.2970,-3,0,-2.25,0.36,-8.32,-0.0289,-0.0054,0.2980
30237,0.0110,-0.0543,0.2972,0.1428,0.1242,0.0006,-1.99,0.07,-3.87,0,3.357,-4.975,3.930,8.766,-0.000,-0.026,0.998,0.000,0.000,0.000,0.2990,-4,-2,-2.50,0.16,-8.06,-0.0287,-0.0035,0.2979
30288,0.0175,-0.0512,0.2981,0.1419,0.1325,0.0046,-2.14,0.02,-3.46,0,3.347,-6.186,-2.277,8.562,0.001,-0.025,1.000,0.000,0.000,0.000,0.2980,-1,-2,-2.76,0.39,-7.60,-0.0271,-0.0013,0.2983
30339,0.0248,-0.0471,0.2983,0.1435,0.1433,0.0050,-2.36,0.10,-2.97,0,3.357,-0.055,-1.554,11.726,0.001,-0.032,0.999,0.000,0.000,0.000,0.2990,0,0,-3.02,0.29,-7.15,-0.0258,-0.0008,0.2989
30390,0.0315,-0.0427,0.2988,0.1427,0.1554,0.0061,-2.41,0.09,-2.42,0,3.352,-1.815,-3.837,12.744,0.002,-0.032,1.001,0.000,0.000,0.000,0.2940,-2,-4,-3.02,0.25,-6.55,-0.0242,0.0011,0.2992
30441,0.0386,-0.0364,0.2968,0.1423,0.1710,-0.0046,-2.41,0.25,-1.78,0,3.352,-1.220,-6.468,14.134,0.003,-0.030,0.998,0.000,0.000,0.000,0.2970,-3,-1,-3.05,0.07,-5.93,-0.0234,-0.0001,0.2982
30493,0.0461,-0.0313,0.2968,0.1412,0.1820,-0.0032,-2.47,0.54,-1.06,0,3.347,1.926,2.957,14.261,-0.004,-0.028,1.001,0.000,0.000,0.000,0.2960,-2,-3,-3.12,-0.23,-5.24,-0.0225,0.0016,0.2980
30545,0.0534,-0.0212,0.2963,0.1376,0.2045,-0.0046,-2.35,0.40,-0.33,0,3.352,2.819,0.300,14.045,0.003,-0.026,1.002,0.000,0.000,0.000,0.3000,3,-3,-3.00,-0.02,-4.45,-0.0206,0.0027,0.2976
30596,0.0596,-0.0143,0.2979,0.1329,0.2152,0.0049,-2.15,0.27,0.37,0,3.352,3.736,-3.913,11.878,0.002,-0.030,1.004,0.000,0.000,0.000,0.3020,-5,-1,-2.77,0.04,-3.74,-0.0189,0.0010,0.2989
30647,0.0678,-0.0067,0.3001,0.1343,0.2245,0.0163,-2.01,0.40,1.00,0,3.357,5.728,1.453,11.062,0.004,-0.025,1.002,0.000,0.000,0.000,0.3040,-4,-2,-2.63,-0.15,-3.17,-0.0181,0.0041,0.3010
30699,0.0730,0.0037,0.3026,0.1270,0.2378,0.0247,-1.72,0.35,1.54,0,3.357,7.122,4.528,11.151,0.003,-0.032,0.997,0.000,0.000,0.000,0.3070,-2,-2,-2.34,-0.05,-2.61,-0.0167,0.0067,0.3027
30750,0.0791,0.0151,0.3056,0.1236,0.2496,0.0324,-1.34,0.08,2.08,0,3.362,10.411,2.623,10.552,0.004,-0.031,0.984,0.000,0.000,0.000,0.3050,0,0,-1.94,0.20,-2.05,-0.0154,0.0080,0.3050
30801,0.0860,0.0263,0.3066,0.1243,0.2563,0.0254,-0.83,-0.08,2.59,0,3.357,11.636,-0.820,7.726,0.003,-0.028,0.978,0.000,0.000,0.000,0.3040,-4,-1,-1.41,0.35,-1.52,-0.0139,0.0098,0.3056
30853,0.0931,0.0388,0.3061,0.1271,0.2613,0.0093,-0.25,-0.09,2.99,0,3.357,9.377,-1.720,4.704,0.002,-0.023,0.980,0.000,0.000,0.000,0.3010,0,-2,-0.79,0.27,-1.18,-0.0148,0.0106,0.3053
30905,0.0985,0.0496,0.3040,0.1253,0.2571,-0.0097,0.27,-0.02,3.24,0,3.347,7.078,-0.373,3.016,-0.006,-0.021,0.995,0.000,0.000,0.000,0.3030,-5,-2,-0.29,0.20,-0.94,-0.0137,0.0108,0.3033
30956,0.1044,0.0570,0.3031,0.1248,0.2408,-0.0165,0.71,0.08,3.38,0,3.352,2.588,-3.375,0.883,0.001,-0.024,0.994,0.000,0.000,0.000,0.3000,-3,-2,0.02,0.19,-0.78,-0.0124,0.0136,0.3030
31007,0.1111,0.0671,0.3009,0.1253,0.2289,-0.0264,0.91,0.19,3.44,0,3.341,3.645,-2.003,1.313,0.003,-0.025,0.999,0.000,0.000,0.000,0.3020,-1,-3,0.14,0.02,-0.74,-0.0112,0.0154,0.3011
31060,0.1165,0.0777,0.3005,0.1220,0.2192,-0.0231,1.16,0.34,3.48,0,3.352,2.754,-1.845,1.230,-0.002,-0.030,1.002,0.000,0.000,0.000,0.2990,-4,-3,0.33,-0.08,-0.69,-0.0093,0.0160,0.3003
31112,0.1227,0.0816,0.2991,0.1236,0.1989,-0.0241,1.40,0.46,3.52,0,3.341,-0.320,-1.945,1.880,0.001,-0.027,1.001,0.000,0.000,0.000,0.2960,-2,-2,0.42,-0.17,-0.61,-0.0074,0.0185,0.2993
31164,0.1299,0.0888,0.2970,0.1233,0.1802,-0.0278,1.43,0.51,3.61,0,3.347,-4.812,-2.445,4.074,0.000,-0.025,1.005,0.000,0.000,0.000,0.2920,0,-2,0.39,-0.28,-0.49,-0.0062,0.0197,0.2972
31215,0.1354,0.0954,0.2938,0.1183,0.1624,-0.0339,1.30,0.58,3.78,0,3.341,-3.472,-0.247,3.171,0.001,-0.021,1.013,0.000,0.000,0.000,0.2950,-2,-3,0.14,-0.41,-0.27,-0.0050,0.0197,0.2946
31267,0.1435,0.1012,0.2934,0.1196,0.1459,-0.0217,1.12,0.59,3.95,0,3.347,-4.771,0.047,3.814,0.005,-0.017,1.013,0.000,0.000,0.000,0.2900,-4,-2,-0.08,-0.41,-0.11,-0.0032,0.0209,0.2939
31318,0.1487,0.1025,0.2913,0.1133,0.1209,-0.0198,0.86,0.61,4.14,0,3.341,-8.300,2.671,3.063,0.004,-0.021,1.012,0.000,0.000,0.000,0.2910,0,-2,-0.38,-0.41,0.14,-0.0020,0.0233,0.2920
31369,0.1546,0.1094,0.2907,0.1092,0.1154,-0.0113,0.55,0.57,4.30,0,3.347,-2.790,-2.109,1.872,0.004,-0.022,1.017,0.000,0.000,0.000,0.2940,0,-3,-0.78,-0.27,0.28,-0.0008,0.0233,0.2915
31420,0.1603,0.1142,0.2919,0.1055,0.1084,0.0040,0.37,0.69,4.39,0,3.341,-2.062,1.318,-0.257,0.002,-0.024,1.009,0.000,0.000,0.000,0.2920,0,-1,-0.92,-0.37,0.37,0.0010,0.0233,0.2923
31471,0.1656,0.1137,0.2922,0.1000,0.0895,0.0118,0.20,0.66,4.38,0,3.352,-5.816,5.421,-2.057,0.002,-0.021,1.006,0.000,0.000,0.000,0.2950,0,-2,-1.02,-0.32,0.35,0.0016,0.0233,0.2927
31522,0.1723,0.1222,0.2940,0.0988,0.0970,0.0211,-0.02,0.46,4.25,0,3.347,1.581,-2.588,-5.341,-0.000,-0.019,1.001,0.000,0.000,0.000,0.2970,0,0,-1.32,-0.04,0.25,0.0028,0.0233,0.2939
31573,0.1791,0.1286,0.2961,0.0997,0.1014,0.0282,-0.03,0.51,4.01,0,3.357,6.390,-2.823,-6.162,-0.001,-0.020,1.000,0.000,0.000,0.000,0.2960,-8,-3,-1.24,-0.17,-0.02,0.0038,0.0234,0.2955
31624,0.1843,0.1298,0.2971,0.0962,0.0910,0.0274,0.28,0.65,3.68,0,3.352,5.128,-1.035,-7.938,-0.001,-0.019,0.997,0.000,0.000,0.000,0.2980,-5,-2,-0.99,-0.32,-0.30,0.0047,0.0278,0.2964
31676,0.1898,0.1400,0.2984,0.0930,0.1026,0.0260,0.50,0.60,3.28,0,3.352,7.904,-1.967,-10.463,-0.003,-0.016,0.996,0.000,0.000,0.000,0.2980,-6,-3,-0.74,-0.37,-0.69,0.0058,0.0307,0.2974
31728,0.1939,0.1447,0.2991,0.0870,0.0970,0.0217,0.84,0.60,2.78,0,3.347,10.152,-5.601,-10.387,-0.007,-0.018,1.000,0.000,0.000,0.000,0.2990,0,0,-0.35,-0.46,-1.21,0.0076,0.0342,0.2981
31780,0.1995,0.1527,0.2997,0.0854,0.0973,0.0182,1.28,0.64,2.23,0,3.352,10.181,-0.993,-10.673,-0.005,-0.014,0.992,0.000,0.000,0.000,0.3000,-4,-2,0.19,-0.75,-1.75,0.0087,0.0371,0.2990
31832,0.2042,0.1584,0.3005,0.0815,0.0884,0.0156,1.84,0.69,1.69,0,3.347,7.388,0.821,-9.841,0.001,-0.019,0.993,0.000,0.000,0.000,0.3040,-1,0,0.77,-0.79,-2.35,0.0094,0.0372,0.2998
31883,0.2088,0.1633,0.3025,0.0778,0.0747,0.0189,2.22,0.58,1.21,0,3.352,6.342,-0.764,-8.646,0.001,-0.020,0.988,0.000,0.000,0.000,0.3030,-7,-2,1.15,-0.75,-2.85,0.0095,0.0378,0.3015
31935,0.2134,0.1679,0.3033,0.0754,0.0593,0.0136,2.51,0.55,0.77,0,3.347,6.181,0.324,-7.395,0.002,-0.014,0.992,0.000,0.000,0.000,0.3010,-7,-3,1.39,-0.75,-3.25,0.0107,0.0416,0.3036
31986,0.2161,0.1689,0.3026,0.0686,0.0334,0.0027,2.84,0.52,0.38,0,3.347,1.922,2.184,-6.041,-0.000,-0.012,0.996,0.000,0.000,0.000,0.2970,2,-1,1.65,-0.69,-3.64,0.0128,0.0456,0.3027
32037,0.2205,0.1744,0.3002,0.0667,0.0194,-0.0135,3.04,0.44,0.07,0,3.336,-6.427,2.752,-4.287,0.001,-0.013,1.002,0.000,0.000,0.000,0.3030,0,0,1.82,-0.57,-4.01,0.0134,0.0444,0.3014
32088,0.2237,0.1725,0.3010,0.0629,-0.0117,-0.0075,2.96,0.31,-0.15,0,3.347,-3.188,2.410,-2.387,0.005,-0.015,1.004,0.000,0.000,0.000,0.3000,3,0,1.49,-0.42,-4.22,0.0138,0.0433,0.3017
32139,0.2274,0.1738,0.3003,0.0618,-0.0303,-0.0096,2.75,0.21,-0.26,0,3.341,-10.721,-0.218,0.065,0.002,-0.012,1.005,0.000,0.000,0.000,0.3010,0,0,1.30,-0.31,-4.26,0.0134,0.0435,0.3016
32190,0.2286,0.1675,0.3003,0.0556,-0.0642,-0.0055,2.31,0.17,-0.29,0,3.347,-8.710,1.366,2.456,0.001,-0.007,1.006,0.000,0.000,0.000,0.2980,0,0,0.75,-0.33,-4.26,0.0132,0.0415,0.3015
32241,0.2326,0.1648,0.2991,0.0572,-0.0814,-0.0084,1.93,0.11,-0.21,0,3.341,-11.385,2.055,4.143,0.002,-0.012,1.006,0.000,0.000,0.000,0.2990,8,0,0.30,-0.26,-4.14,0.0129,0.0392,0.3006
32292,0.2363,0.1768,0.2989,0.0584,-0.0566,-0.0050,1.37,0.06,0.01,0,3.347,2.508,-0.367,4.800,0.004,-0.009,1.009,0.000,0.000,0.000,0.2990,-1,-1,-0.32,-0.14,-3.92,0.0131,0.0389,0.3004
32343,0.2373,0.1670,0.2988,0.0535,-0.0843,-0.0018,1.35,0.06,0.25,0,3.341,1.347,1.143,5.444,0.002,-0.007,1.009,0.000,0.000,0.000,0.2980,0,-1,-0.23,-0.15,-3.67,0.0135,0.0386,0.3001
32395,0.2413,0.1677,0.2985,0.0563,-0.0836,-0.0000,1.45,0.03,0.52,0,3.347,-0.908,1.196,7.573,-0.004,-0.004,1.006,0.000,0.000,0.000,0.2980,3,0,-0.18,-0.09,-3.39,0.0141,0.0385,0.2999
32447,0.2425,0.1578,0.2983,0.0522,-0.1099,0.0020,1.53,0.09,0.88,0,3.341,-3.100,-2.868,8.433,0.002,-0.010,1.007,0.000,0.000,0.000,0.2990,5,-1,-0.19,-0.03,-3.00,0.0140,0.0368,0.3000
32498,0.2432,0.1495,0.2988,0.0469,-0.1286,0.0072,1.34,0.17,1.29,0,3.347,-12.597,-0.513,8.083,0.000,-0.011,1.007,0.000,0.000,0.000,0.2970,8,-1,-0.32,-0.17,-2.57,0.0145,0.0338,0.3002
32549,0.2452,0.1403,0.2983,0.0451,-0.1458,0.0055,0.74,0.16,1.70,0,3.341,-9.685,-0.123,8.685,0.001,-0.008,1.013,0.000,0.000,0.000,0.2980,9,0,-0.91,-0.18,-2.17,0.0149,0.0289,0.2997
32601,0.2468,0.1276,0.2984,0.0426,-0.1649,0.0090,0.32,0.15,2.14,0,3.347,-13.750,2.460,8.271,0.003,-0.010,1.008,0.000,0.000,0.000,0.3000,4,0,-1.37,-0.19,-1.74,0.0147,0.0234,0.2998
32653,0.2490,0.1144,0.2995,0.0417,-0.1790,0.0153,-0.32,0.05,2.55,0,3.341,-14.181,2.576,7.663,0.001,-0.009,1.009,0.000,0.000,0.000,0.3010,4,0,-2.13,-0.05,-1.30,0.0147,0.0210,0.3013
32705,0.2515,0.1028,0.3007,0.0425,-0.1830,0.0200,-0.98,-0.09,2.94,0,3.352,-6.616,1.137,7.002,-0.000,-0.012,1.000,0.000,0.000,0.000,0.3020,1,-1,-2.87,0.10,-0.91,0.0146,0.0186,0.3025
32756,0.2531,0.0927,0.3020,0.0415,-0.1779,0.0216,-1.36,-0.17,3.31,0,3.347,-4.055,-1.004,6.545,0.003,-0.014,0.994,0.000,0.000,0.000,0.3020,0,-1,-3.23,0.19,-0.52,0.0153,0.0180,0.3034
32807,0.2551,0.0846,0.3027,0.0420,-0.1652,0.0184,-1.56,-0.18,3.64,0,3.352,-3.037,-1.464,4.133,0.007,-0.013,0.992,0.000,0.000,0.000,0.3040,1,0,-3.44,0.16,-0.17,0.0159,0.0181,0.3041
32858,0.2592,0.0848,0.3039,0.0475,-0.1315,0.0168,-1.75,-0.16,3.87,0,3.347,8.551,-1.601,2.832,0.002,-0.013,0.990,0.000,0.000,0.000,0.3030,0,-1,-3.55,0.08,-0.02,0.0159,0.0175,0.3054
32911,0.2609,0.0750,0.3040,0.0462,-0.1259,0.0115,-1.35,-0.08,4.00,0,3.347,7.362,-1.163,-0.091,0.004,-0.009,0.996,0.000,0.000,0.000,0.3020,3,0,-3.09,0.01,0.15,0.0165,0.0176,0.3055
32962,0.2644,0.0835,0.3035,0.0491,-0.0774,0.0040,-1.06,0.02,3.98,0,3.336,13.860,-6.477,-1.958,-0.001,-0.013,0.998,0.000,0.000,0.000,0.3040,0,0,-2.62,-0.06,0.10,0.0165,0.0156,0.3052
33014,0.2678,0.0850,0.3038,0.0508,-0.0545,0.0023,-0.48,0.23,3.90,0,3.347,23.027,-5.426,-3.455,0.002,-0.017,0.998,0.000,0.000,0.000,0.3050,0,0,-1.91,-0.40,0.02,0.0167,0.0160,0.3052
33066,0.2707,0.0805,0.3044,0.0498,-0.0555,0.0031,0.44,0.42,3.76,0,3.341,16.391,-1.623,-4.049,0.001,-0.017,0.996,0.000,0.000,0.000,0.3060,-1,0,-0.71,-0.68,-0.16,0.0168,0.0169,0.3054
33117,0.2762,0.0843,0.3052,0.0538,-0.0449,0.0037,1.25,0.59,3.56,0,3.347,13.974,-8.197,-4.290,0.005,-0.014,0.998,0.000,0.000,0.000,0.3050,0,-3,0.16,-0.76,-0.36,0.0171,0.0163,0.3056
33169,0.2782,0.0844,0.3052,0.0478,-0.0506,0.0011,2.03,0.97,3.31,0,3.341,14.068,-3.256,-5.097,0.005,-0.014,0.999,0.000,0.000,0.000,0.3030,0,0,0.87,-1.14,-0.62,0.0182,0.0162,0.3058
33220,0.2818,0.0792,0.3042,0.0437,-0.0741,-0.0047,2.71,1.16,3.05,0,3.341,6.338,-5.236,-5.422,-0.001,-0.019,0.993,0.000,0.000,0.000,0.3000,20,1,1.61,-1.31,-0.89,0.0186,0.0153,0.3050
33271,0.2856,0.0823,0.3021,0.0397,-0.0788,-0.0158,3.09,1.23,2.75,0,3.336,-4.053,-3.102,-5.578,-0.001,-0.012,1.003,0.000,0.000,0.000,0.2990,-1,0,2.07,-1.56,-1.36,0.0181,0.0061,0.3011
33322,0.2873,0.0607,0.3000,0.0302,-0.1443,-0.0222,2.99,1.38,2.47,0,3.341,-12.185,0.371,-4.530,0.001,-0.010,1.009,0.000,0.000,0.000,0.3040,9,0,1.73,-1.70,-1.44,0.0177,0.0047,0.3065
33373,0.2874,0.0515,0.3011,0.0171,-0.1731,-0.0101,2.42,1.32,2.24,0,3.336,-14.941,4.033,-4.754,0.002,-0.012,1.009,0.000,0.000,0.000,0.3010,0,1,1.15,-1.65,-1.83,0.0173,-0.0008,0.3063
33424,0.2887,0.0366,0.3007,0.0079,-0.2075,-0.0068,1.78,1.20,2.07,0,3.341,-13.035,2.941,-5.638,0.004,-0.007,1.007,0.000,0.000,0.000,0.2990,1,0,0.27,-1.43,-1.84,0.0167,-0.0010,0.3065
33475,0.2886,0.0331,0.2998,-0.0023,-0.2061,-0.0059,0.98,1.09,1.76,0,3.336,-8.792,1.030,-6.786,0.001,-0.009,1.011,0.000,0.000,0.000,0.2990,4,0,-0.43,-1.25,-2.10,0.0167,-0.0015,0.3043
33527,0.2878,0.0281,0.2994,-0.0123,-0.2018,-0.0022,0.47,0.99,1.46,0,3.341,-5.964,4.294,-6.069,0.007,-0.009,1.010,0.000,0.000,0.000,0.3010,0,1,-0.85,-1.18,-2.50,0.0166,-0.0040,0.3035
33578,0.2876,0.0223,0.3002,-0.0194,-0.1955,0.0059,0.25,0.88,1.20,0,3.336,-2.413,3.769,-7.510,0.000,-0.010,1.006,0.000,0.000,0.000,0.3000,1,0,-1.19,-0.96,-2.76,0.0161,-0.0039,0.3033
33630,0.2854,0.0116,0.3004,-0.0291,-0.1989,0.0099,-0.04,0.71,0.83,0,3.347,-3.645,2.365,-8.852,0.003,-0.007,1.004,0.000,0.000,0.000,0.3000,1,0,-1.31,-0.75,-3.14,0.0160,-0.0044,0.3030
33681,0.2845,0.0049,0.3007,-0.0331,-0.1914,0.0114,-0.19,0.54,0.39,0,3.341,-1.530,2.594,-6.667,0.003,-0.006,1.001,0.000,0.000,0.000,0.3030,0,0,-1.48,-0.63,-3.60,0.0160,-0.0050,0.3028
33732,0.2819,-0.0093,0.3022,-0.0397,-0.2015,0.0178,-0.05,0.54,-0.02,0,3.347,-0.925,2.109,-7.172,0.001,-0.007,0.996,0.000,0.000,0.000,0.3000,3,1,-1.56,-0.50,-3.95,0.0156,-0.0049,0.3034
33784,0.2811,-0.0130,0.3019,-0.0409,-0.1857,0.0123,-0.13,0.41,-0.37,0,3.341,-5.391,2.409,-6.420,0.002,-0.009,1.002,0.000,0.000,0.000,0.3010,2,0,-1.55,-0.40,-4.34,0.0154,-0.0071,0.3031
33835,0.2786,-0.0214,0.3019,-0.0446,-0.1811,0.0090,-0.53,0.23,-0.71,0,3.347,1.051,1.913,-6.607,0.002,-0.006,1.001,0.000,0.000,0.000,0.3040,0,0,-1.81,-0.27,-4.67,0.0152,-0.0081,0.3028
33887,0.2760,-0.0308,0.3032,-0.0473,-0.1783,0.0123,-0.51,0.19,-1.04,0,3.341,5.644,2.781,-6.667,0.006,-0.009,1.001,0.000,0.000,0.000,0.3020,3,1,-1.76,-0.18,-5.01,0.0149,-0.0082,0.3036
33938,0.2749,-0.0343,0.3031,-0.0457,-0.1615,0.0103,-0.41,0.11,-1.38,0,3.347,-3.696,2.051,-5.423,0.006,-0.009,0.998,0.000,0.000,0.000,0.3040,2,0,-1.42,-0.05,-5.37,0.0144,-0.0101,0.3036
33990,0.2723,-0.0435,0.3039,-0.0473,-0.1600,0.0097,-0.54,0.08,-1.69,0,3.336,5.483,-0.910,-5.073,0.006,-0.004,0.997,0.000,0.000,0.000,0.3050,-2,0,-1.60,0.05,-5.64,0.0142,-0.0111,0.3041
34041,0.2699,-0.0494,0.3048,-0.0480,-0.1513,0.0111,-0.34,0.07,-1.95,0,3.347,3.244,0.282,-4.205,0.001,-0.008,0.994,0.000,0.000,0.000,0.3090,0,0,-1.34,-0.01,-5.92,0.0144,-0.0100,0.3047
34092,0.2689,-0.0557,0.3071,-0.0451,-0.1465,0.0175,-0.19,0.00,-2.19,0,3.341,1.929,2.027,-3.219,0.006,-0.008,0.998,0.000,0.000,0.000,0.3070,1,0,-1.17,0.00,-6.13,0.0145,-0.0090,0.3063
34144,0.2664,-0.0612,0.3076,-0.0455,-0.1413,0.0140,-0.07,-0.02,-2.35,0,3.347,1.238,-1.248,-1.799,0.001,-0.011,0.988,0.000,0.000,0.000,0.3030,0,0,-1.03,0.09,-6.29,0.0142,-0.0106,0.3071
34195,0.2652,-0.0731,0.3059,-0.0428,-0.1527,-0.0018,0.13,-0.02,-2.43,0,3.336,-2.689,-1.952,-0.762,0.005,-0.007,0.998,0.000,0.000,0.000,0.3060,1,-1,-0.96,0.03,-6.38,0.0143,-0.0106,0.3059
34247,0.2645,-0.0833,0.3058,-0.0398,-0.1599,-0.0034,0.08,0.09,-2.46,0,3.341,-9.873,-3.131,0.960,0.003,-0.009,1.000,0.000,0.000,0.000,0.3020,5,0,-1.08,-0.07,-6.41,0.0145,-0.0113,0.3057
34299,0.2637,-0.0879,0.3039,-0.0382,-0.1522,-0.0119,-0.33,0.22,-2.41,0,3.336,-3.248,-3.410,3.444,0.004,-0.008,1.004,0.000,0.000,0.000,0.3080,6,0,-1.54,-0.24,-6.35,0.0144,-0.0136,0.3046
34350,0.2630,-0.0977,0.3054,-0.0374,-0.1528,0.0000,-0.67,0.41,-2.27,0,3.341,-7.600,-5.049,3.823,0.009,-0.009,1.005,0.000,0.000,0.000,0.3050,1,0,-1.65,-0.41,-6.17,0.0141,-0.0169,0.3052
34402,0.2622,-0.1088,0.3052,-0.0385,-0.1540,0.0005,-0.94,0.62,-2.07,0,3.336,-11.180,-2.834,4.106,0.002,-0.013,1.003,0.000,0.000,0.000,0.3050,1,0,-2.07,-0.67,-5.96,0.0140,-0.0177,0.3055
34453,0.2611,-0.1162,0.3052,-0.0418,-0.1442,0.0010,-1.41,0.80,-1.84,0,3.341,-2.971,-3.019,5.484,0.002,-0.011,0.999,0.000,0.000,0.000,0.3080,0,0,-2.66,-0.80,-5.73,0.0139,-0.0183,0.3055
34504,0.2599,-0.1228,0.3065,-0.0462,-0.1309,0.0078,-1.71,0.94,-1.56,0,3.336,1.243,-2.129,6.121,0.002,-0.013,1.003,0.000,0.000,0.000,0.3040,0,0,-2.81,-0.94,-5.45,0.0136,-0.0179,0.3064
