time_ms,pos_x,pos_y,pos_z,vel_x,vel_y,vel_z,roll,pitch,yaw,thrust,vbat,gyro_x,gyro_y,gyro_z,acc_x,acc_y,acc_z,rate_roll,rate_pitch,rate_yaw
0,0.1699,-0.5781,0.0092,0.0056,-0.0039,0.0098,-1.31,0.90,-0.74,0,3.948,-0.407,0.055,0.306,0.017,-0.027,0.000,0.000,0.000,0.000
50,0.1699,-0.5787,0.0095,0.0058,-0.0066,0.0098,-1.35,0.84,-0.74,0,3.948,-0.054,-0.041,-0.274,0.016,-0.026,0.000,0.000,0.000,0.000
102,0.1683,-0.5773,0.0088,-0.0038,0.0008,0.0055,-1.34,0.90,-0.73,0,3.948,-0.178,0.414,0.029,0.016,-0.025,0.000,0.000,0.000,0.000
153,0.1681,-0.5783,0.0087,-0.0044,-0.0049,0.0046,-1.33,0.91,-0.73,0,3.948,0.029,0.201,-0.075,0.014,-0.025,0.000,0.000,0.000,0.000
203,0.1680,-0.5782,0.0081,-0.0046,-0.0038,0.0016,-1.34,0.83,-0.73,0,3.948,0.019,0.105,0.020,0.017,-0.025,0.000,0.000,0.000,0.000
255,0.1700,-0.5778,0.0077,0.0061,-0.0018,-0.0004,-1.34,0.83,-0.73,0,3.954,0.065,-0.131,-0.021,0.017,-0.026,0.000,0.000,0.000,0.000
305,0.1689,-0.5780,0.0083,0.0004,-0.0025,0.0042,-1.34,0.85,-0.72,0,3.948,0.064,0.036,-0.033,0.017,-0.025,0.000,0.000,0.000,0.000
357,0.1691,-0.5779,0.0084,0.0016,-0.0027,0.0040,-1.35,0.88,-0.72,0,3.948,0.241,0.322,-0.015,0.016,-0.023,0.000,0.000,0.000,0.000
407,0.1700,-0.5771,0.0071,0.0069,0.0013,-0.0022,-1.35,0.89,-0.71,0,3.954,0.124,-0.106,-0.241,0.017,-0.023,0.000,0.000,0.000,0.000
459,0.1700,-0.5774,0.0061,0.0066,-0.0001,-0.0057,-1.38,0.89,-0.71,0,3.948,-0.126,-0.190,0.018,0.016,-0.024,0.000,0.000,0.000,0.000
510,0.1689,-0.5776,0.0055,0.0005,-0.0009,-0.0065,-1.34,0.92,-0.70,0,3.948,-0.202,-0.207,-0.036,0.016,-0.027,0.000,0.000,0.000,0.000
561,0.1692,-0.5776,0.0055,0.0018,-0.0015,-0.0036,-1.34,0.92,-0.70,0,3.948,0.240,-0.206,-0.097,0.017,-0.026,0.000,0.000,0.000,0.000
611,0.1680,-0.5790,0.0070,-0.0048,-0.0097,0.0054,-1.38,0.85,-0.70,0,3.954,-0.146,0.070,-0.060,0.014,-0.026,0.000,0.000,0.000,0.000
663,0.1691,-0.5785,0.0077,0.0009,-0.0072,0.0083,-1.38,0.89,-0.69,0,3.943,-0.275,0.198,-0.089,0.014,-0.027,0.000,0.000,0.000,0.000
714,0.1693,-0.5783,0.0077,0.0021,-0.0057,0.0075,-1.39,0.85,-0.69,0,3.954,0.137,-0.113,0.036,0.017,-0.026,0.000,0.000,0.000,0.000
765,0.1689,-0.5781,0.0090,-0.0001,-0.0039,0.0133,-1.36,0.88,-0.68,0,3.948,0.087,0.063,0.008,0.016,-0.023,0.000,0.000,0.000,0.000
815,0.1698,-0.5777,0.0081,0.0052,-0.0019,0.0065,-1.37,0.84,-0.68,0,3.948,-0.304,0.217,0.018,0.019,-0.025,0.000,0.000,0.000,0.000
866,0.1700,-0.5783,0.0079,0.0063,-0.0050,0.0045,-1.38,0.88,-0.67,0,3.948,-0.164,-0.522,-0.039,0.017,-0.024,0.000,0.000,0.000,0.000
917,0.1697,-0.5775,0.0081,0.0053,-0.0001,0.0056,-1.37,0.91,-0.66,0,3.954,0.002,-0.008,0.152,0.016,-0.025,0.000,0.000,0.000,0.000
969,0.1699,-0.5789,0.0079,0.0063,-0.0079,0.0045,-1.37,0.88,-0.66,0,3.948,-0.056,0.164,-0.044,0.015,-0.025,0.000,0.000,0.000,0.000
1020,0.1700,-0.5771,0.0064,0.0062,0.0023,-0.0029,-1.38,0.89,-0.66,0,3.954,-0.149,-0.066,-0.061,0.014,-0.024,0.000,0.000,0.000,0.000
1071,0.1699,-0.5775,0.0070,0.0057,0.0003,0.0023,-1.36,0.89,-0.65,0,3.948,-0.021,-0.045,-0.009,0.015,-0.027,0.000,0.000,0.000,0.000
1121,0.1701,-0.5773,0.0080,0.0060,0.0012,0.0081,-1.39,0.87,-0.65,0,3.948,-0.070,-0.146,-0.078,0.016,-0.026,0.000,0.000,0.000,0.000
1173,0.1700,-0.5791,0.0079,0.0051,-0.0095,0.0067,-1.38,0.88,-0.65,0,3.948,0.208,-0.125,-0.305,0.017,-0.024,0.000,0.000,0.000,0.000
1224,0.1689,-0.5783,0.0082,-0.0010,-0.0055,0.0080,-1.34,0.88,-0.64,0,3.954,0.285,-0.031,-0.354,0.016,-0.025,0.000,0.000,0.000,0.000
1274,0.1693,-0.5774,0.0093,0.0011,0.0003,0.0125,-1.36,0.89,-0.64,0,3.948,0.138,-0.313,0.043,0.016,-0.023,0.000,0.000,0.000,0.000
1325,0.1689,-0.5781,0.0092,-0.0009,-0.0036,0.0102,-1.34,0.86,-0.63,0,3.954,0.233,-0.054,-0.365,0.018,-0.024,0.000,0.000,0.000,0.000
1377,0.1682,-0.5777,0.0090,-0.0040,-0.0015,0.0082,-1.33,0.85,-0.63,0,3.948,-0.058,0.060,-0.043,0.015,-0.025,0.000,0.000,0.000,0.000
1428,0.1700,-0.5781,0.0085,0.0056,-0.0037,0.0042,-1.34,0.84,-0.62,0,3.954,0.234,-0.139,0.145,0.017,-0.025,0.000,0.000,0.000,0.000
1479,0.1700,-0.5804,0.0080,0.0055,-0.0161,0.0019,-1.37,0.87,-0.62,0,3.948,0.137,-0.090,-0.196,0.017,-0.027,0.000,0.000,0.000,0.000
1529,0.1680,-0.5770,0.0082,-0.0056,0.0027,0.0036,-1.30,0.88,-0.61,0,3.954,-0.157,0.109,0.162,0.017,-0.025,0.000,0.000,0.000,0.000
1581,0.1689,-0.5786,0.0078,-0.0004,-0.0058,0.0018,-1.31,0.86,-0.61,0,3.943,0.001,-0.043,-0.018,0.019,-0.027,0.000,0.000,0.000,0.000
1631,0.1698,-0.5784,0.0080,0.0047,-0.0048,0.0031,-1.32,0.88,-0.61,0,3.954,0.038,0.361,0.017,0.017,-0.026,0.000,0.000,0.000,0.000
1682,0.1694,-0.5779,0.0072,0.0030,-0.0025,-0.0009,-1.37,0.87,-0.61,0,3.948,-0.185,0.101,-0.027,0.015,-0.023,0.000,0.000,0.000,0.000
1733,0.1701,-0.5780,0.0058,0.0061,-0.0029,-0.0072,-1.35,0.87,-0.61,0,3.954,-0.216,0.129,-0.074,0.016,-0.025,0.000,0.000,0.000,0.000
1785,0.1701,-0.5771,0.0066,0.0059,0.0017,-0.0005,-1.34,0.88,-0.60,0,3.948,0.300,-0.037,-0.177,0.017,-0.025,0.000,0.000,0.000,0.000
1836,0.1701,-0.5782,0.0059,0.0056,-0.0036,-0.0024,-1.33,0.90,-0.60,0,3.948,-0.242,0.008,0.102,0.015,-0.027,0.000,0.000,0.000,0.000
1886,0.1701,-0.5791,0.0059,0.0047,-0.0082,-0.0006,-1.40,0.89,-0.59,0,3.948,-0.052,-0.003,-0.182,0.016,-0.024,0.000,0.000,0.000,0.000
1938,0.1701,-0.5787,0.0064,0.0048,-0.0059,0.0030,-1.36,0.85,-0.60,0,3.954,-0.033,-0.087,-0.196,0.016,-0.022,0.000,0.000,0.000,0.000
1988,0.1692,-0.5780,0.0059,0.0007,-0.0013,0.0011,-1.40,0.86,-0.59,0,3.948,-0.143,-0.106,-0.084,0.017,-0.025,0.000,0.000,0.000,0.000
2040,0.1683,-0.5773,0.0078,-0.0047,0.0021,0.0113,-1.37,0.84,-0.59,0,3.954,-0.026,0.212,-0.222,0.014,-0.024,0.000,0.000,0.000,0.000
2090,0.1690,-0.5780,0.0079,-0.0008,-0.0016,0.0096,-1.35,0.86,-0.58,0,3.948,-0.054,0.033,-0.086,0.018,-0.025,0.000,0.000,0.000,0.000
2142,0.1681,-0.5784,0.0074,-0.0051,-0.0035,0.0051,-1.40,0.88,-0.58,0,3.954,-0.161,0.056,0.210,0.016,-0.026,0.000,0.000,0.000,0.000
2192,0.1701,-0.5790,0.0083,0.0053,-0.0076,0.0093,-1.40,0.87,-0.58,0,3.948,-0.013,0.197,0.281,0.016,-0.025,0.000,0.000,0.000,0.000
2244,0.1682,-0.5784,0.0073,-0.0049,-0.0044,0.0032,-1.36,0.82,-0.58,0,3.954,-0.072,-0.203,-0.048,0.014,-0.024,0.000,0.000,0.000,0.000
2295,0.1701,-0.5790,0.0073,0.0057,-0.0078,0.0038,-1.35,0.86,-0.57,0,3.948,-0.157,0.306,0.147,0.017,-0.024,0.000,0.000,0.000,0.000
2346,0.1699,-0.5782,0.0074,0.0048,-0.0028,0.0046,-1.39,0.84,-0.57,0,3.954,-0.006,-0.062,0.054,0.017,-0.023,0.000,0.000,0.000,0.000
2396,0.1701,-0.5778,0.0078,0.0060,0.0001,0.0065,-1.37,0.85,-0.57,0,3.948,-0.081,-0.049,0.151,0.015,-0.025,0.000,0.000,0.000,0.000
2448,0.1701,-0.5780,0.0077,0.0052,-0.0016,0.0057,-1.40,0.87,-0.56,0,3.954,-0.102,0.258,0.045,0.016,-0.024,0.000,0.000,0.000,0.000
2499,0.1684,-0.5771,0.0076,-0.0039,0.0031,0.0045,-1.37,0.87,-0.56,0,3.948,0.016,0.002,-0.005,0.015,-0.027,0.000,0.000,0.000,0.000
2549,0.1683,-0.5782,0.0094,-0.0035,-0.0029,0.0129,-1.31,0.84,-0.55,0,3.954,-0.343,-0.085,-0.241,0.015,-0.024,0.000,0.000,0.000,0.000
2600,0.1702,-0.5771,0.0082,0.0063,0.0030,0.0045,-1.37,0.81,-0.56,0,3.948,0.172,-0.049,-0.148,0.016,-0.026,0.000,0.000,0.000,0.000
2651,0.1684,-0.5773,0.0070,-0.0032,0.0021,-0.0018,-1.33,0.86,-0.55,0,3.954,0.097,-0.064,-0.242,0.017,-0.024,0.000,0.000,0.000,0.000
2703,0.1684,-0.5790,0.0075,-0.0033,-0.0070,0.0023,-1.39,0.85,-0.55,0,3.948,-0.064,-0.022,-0.001,0.015,-0.025,0.000,0.000,0.000,0.000
2753,0.1701,-0.5784,0.0083,0.0062,-0.0035,0.0076,-1.34,0.81,-0.55,0,3.954,-0.192,0.040,0.027,0.017,-0.026,0.000,0.000,0.000,0.000
2805,0.1693,-0.5782,0.0080,0.0015,-0.0028,0.0051,-1.36,0.86,-0.55,0,3.948,-0.218,-0.191,-0.091,0.014,-0.025,0.000,0.000,0.000,0.000
2856,0.1699,-0.5780,0.0087,0.0046,-0.0014,0.0081,-1.33,0.87,-0.54,0,3.954,0.244,-0.090,-0.283,0.014,-0.027,0.000,0.000,0.000,0.000
2907,0.1684,-0.5775,0.0091,-0.0045,0.0017,0.0092,-1.35,0.81,-0.54,0,3.948,-0.033,0.139,0.134,0.015,-0.024,0.000,0.000,0.000,0.000
2958,0.1681,-0.5786,0.0095,-0.0051,-0.0042,0.0096,-1.34,0.86,-0.54,0,3.954,0.388,-0.083,-0.228,0.016,-0.024,0.000,0.000,0.000,0.000
3008,0.1693,-0.5777,0.0087,0.0018,0.0006,0.0039,-1.31,0.85,-0.54,0,3.948,-0.065,0.156,0.070,0.019,-0.022,0.000,0.000,0.000,0.000
3059,0.1681,-0.5791,0.0106,-0.0051,-0.0065,0.0140,-1.35,0.89,-0.53,0,3.954,-0.154,-0.107,0.252,0.016,-0.023,0.000,0.000,0.000,0.000
3111,0.1700,-0.5782,0.0086,0.0055,-0.0018,0.0007,-1.34,0.84,-0.53,0,3.948,0.286,0.371,-0.010,0.014,-0.025,0.000,0.000,0.000,0.000
3162,0.1695,-0.5782,0.0084,0.0026,-0.0020,0.0013,-1.35,0.83,-0.53,0,3.954,0.096,-0.144,0.160,0.015,-0.025,0.000,0.000,0.000,0.000
3213,0.1693,-0.5775,0.0087,0.0016,0.0021,0.0039,-1.39,0.84,-0.53,0,3.948,-0.081,-0.243,0.164,0.017,-0.025,0.000,0.000,0.000,0.000
3264,0.1684,-0.5779,0.0090,-0.0034,-0.0007,0.0052,-1.35,0.82,-0.52,0,3.526,-0.467,-1.211,2.404,0.014,-0.017,0.000,0.000,0.000,0.000
3315,0.1682,-0.5780,0.0092,-0.0085,0.0057,0.0054,-1.40,0.86,-0.53,0,3.595,-0.124,-1.744,1.040,0.014,-0.033,0.000,0.000,0.000,0.000
3366,0.1681,-0.5792,0.0089,-0.0145,0.0081,0.0032,-1.33,0.86,-0.53,0,3.653,-1.027,-0.782,0.975,0.004,-0.021,0.000,0.000,0.000,0.000
3417,0.1701,-0.5774,0.0078,-0.0085,0.0247,-0.0055,-1.20,0.89,-0.54,0,3.669,0.317,0.361,-2.116,0.007,-0.036,0.000,0.000,0.000,0.000
3468,0.1694,-0.5774,0.0078,-0.0160,0.0292,-0.0029,-1.24,0.96,-0.59,0,3.695,-2.043,1.185,4.284,-0.003,-0.031,0.000,0.000,0.000,0.000
3518,0.1700,-0.5775,0.0084,-0.0152,0.0318,0.0049,-1.17,0.89,-0.46,0,3.700,-0.342,-1.743,-4.717,0.011,-0.025,0.000,0.000,0.000,0.000
3569,0.1702,-0.5782,0.0072,-0.0169,0.0291,-0.0029,-1.10,0.92,-0.49,0,3.700,3.883,-3.560,5.189,0.017,-0.026,0.000,0.000,0.000,0.000
3620,0.1699,-0.5791,0.0058,-0.0204,0.0252,-0.0082,-1.02,0.88,-0.47,0,3.700,-1.665,-3.242,-0.623,0.019,-0.032,0.000,0.000,0.000,0.000
3672,0.1701,-0.5769,0.0062,-0.0209,0.0378,-0.0009,-1.03,0.86,-0.37,0,3.706,4.967,3.593,4.798,-0.003,-0.027,0.000,0.000,0.000,0.000
3723,0.1677,-0.5664,0.0064,-0.0344,0.0887,-0.0007,-1.51,0.88,-0.10,0,3.695,1.565,-2.665,6.203,0.002,-0.049,0.000,0.000,0.000,0.000
3774,0.1673,-0.5475,0.0063,-0.0346,0.1718,-0.0005,-1.80,0.82,0.18,0,3.700,-1.237,3.623,9.728,0.014,-0.025,0.000,0.000,0.000,0.000
3825,0.1641,-0.5335,0.0051,-0.0492,0.2136,-0.0108,-2.04,0.93,0.80,0,3.684,3.609,1.923,10.903,0.032,-0.032,0.000,0.000,0.000,0.000
3876,0.1579,-0.5154,0.0040,-0.0763,0.2653,-0.0155,-2.06,1.02,1.35,0,3.684,8.010,-0.258,8.924,0.018,-0.015,0.000,0.000,0.000,0.000
3927,0.1520,-0.5137,0.0069,-0.0954,0.2192,0.0090,-1.22,1.01,1.75,0,3.684,18.190,-1.008,9.132,0.021,-0.017,0.000,0.000,0.000,0.000
3977,0.1456,-0.5105,0.0097,-0.1128,0.1892,0.0310,-0.43,1.01,2.24,0,3.690,8.278,2.954,12.476,-0.015,-0.009,0.000,0.000,0.000,0.000
4028,0.1409,-0.5007,0.0117,-0.1158,0.1943,0.0320,-0.22,0.90,2.91,0,3.679,15.889,8.200,7.467,0.002,-0.017,0.000,0.000,0.000,0.000
4079,0.1359,-0.4922,0.0129,-0.1186,0.1885,0.0410,0.66,0.81,3.28,0,3.679,23.430,4.681,11.744,0.002,-0.031,0.000,0.000,0.000,0.000
4130,0.1318,-0.4885,0.0137,-0.1161,0.1531,0.0434,1.91,0.63,3.69,0,3.679,14.283,11.355,14.456,-0.008,0.024,0.000,0.000,0.000,0.000
4182,0.1313,-0.4965,0.0145,-0.0982,0.0590,0.0389,3.58,0.48,4.29,0,3.674,1.240,2.813,10.503,0.017,0.008,0.000,0.000,0.000,0.000
4232,0.1310,-0.5167,0.0098,-0.0808,-0.0809,-0.0011,4.91,0.21,4.51,0,3.658,-20.003,18.726,17.033,-0.015,0.031,0.000,0.000,0.000,0.000
4284,0.1361,-0.5564,-0.0014,-0.0441,-0.2882,-0.0709,5.10,-0.23,5.63,0,3.642,-55.894,11.616,10.606,0.010,0.001,0.000,0.000,0.000,0.000
4335,0.1442,-0.6133,-0.0171,0.0058,-0.5357,-0.1524,4.02,-1.09,5.78,0,3.611,6.621,-22.239,4.252,0.007,-0.012,0.000,0.000,0.000,0.000
4385,0.1654,-0.6690,-0.0299,0.0808,-0.7184,-0.1555,4.11,-1.51,4.53,0,3.611,-82.013,-18.350,9.055,0.016,-0.015,0.000,0.000,0.000,0.000
4437,0.1807,-0.7196,-0.0236,0.1239,-0.8173,-0.0389,-0.08,-1.23,3.21,0,3.626,-122.202,18.703,7.671,-0.002,-0.028,0.000,0.000,0.000,0.000
4487,0.2043,-0.7496,-0.0047,0.1507,-0.7510,0.1340,-7.99,-1.46,0.63,0,3.653,-132.892,-1.957,12.440,-0.004,-0.020,0.000,0.000,0.000,0.000
4538,0.2196,-0.7417,0.0148,0.1491,-0.4609,0.2150,-16.00,-1.08,-1.32,0,3.663,85.174,-54.783,21.310,0.012,-0.015,0.000,0.000,0.000,0.000
4589,0.2222,-0.7225,0.0169,0.1134,-0.1643,0.1263,-14.23,1.74,-1.74,0,3.642,144.300,0.108,22.689,-0.005,-0.032,0.000,0.000,0.000,0.000
4641,0.2164,-0.7433,0.0139,0.0106,-0.1331,0.0082,-6.91,2.99,-4.05,0,3.621,36.012,84.127,34.498,-0.000,-0.038,0.000,0.000,0.000,0.000
4691,0.1993,-0.7374,0.0053,-0.1453,-0.0151,-0.0653,-4.37,0.33,-8.13,0,3.589,184.346,-152.368,-26.678,-0.008,-0.305,0.000,0.000,0.000,0.000
4743,0.1823,-0.7323,-0.0010,-0.2118,0.0575,-0.0232,0.99,3.99,-11.61,0,3.595,26.676,-80.869,-6.833,-0.001,-0.049,0.000,0.000,0.000,0.000
4793,0.1648,-0.7294,-0.0023,-0.2927,0.0648,0.0145,4.00,9.28,-14.36,0,3.584,-151.373,156.153,24.940,-0.004,-0.025,0.000,0.000,0.000,0.000
4845,0.1218,-0.7013,-0.0153,-0.4989,0.1970,-0.0688,-3.88,3.98,-11.53,0,3.563,7.114,215.421,24.430,-0.000,0.010,0.000,0.000,0.000,0.000
4896,0.0979,-0.6670,-0.0122,-0.4918,0.3387,-0.0017,-5.08,-7.00,-9.19,0,3.574,183.384,128.538,22.268,0.013,-0.035,0.000,0.000,0.000,0.000
4947,0.0690,-0.6571,0.0055,-0.4367,0.3242,0.1407,3.72,-14.06,-7.25,0,3.605,26.368,3.304,6.089,0.010,-0.054,0.000,0.000,0.000,0.000
4998,0.0602,-0.6570,0.0265,-0.2374,0.2060,0.2231,6.66,-15.50,-5.43,0,3.616,-73.930,-62.822,5.893,-0.005,-0.026,0.000,0.000,0.000,0.000
5049,0.0736,-0.6585,0.0359,0.0041,0.0961,0.2024,3.37,-13.80,-5.98,0,3.611,-14.724,-64.718,6.514,-0.013,-0.011,0.000,0.000,0.000,0.000
5099,0.1175,-0.6687,0.0336,0.2990,-0.0098,0.1333,2.47,-11.41,-6.40,0,3.589,24.778,-90.998,9.108,-0.014,-0.022,0.000,0.000,0.000,0.000
5151,0.1720,-0.6672,0.0315,0.5282,-0.0715,0.0711,3.15,-8.14,-9.63,0,3.568,-22.805,-144.171,31.830,-0.025,-0.023,0.000,0.000,0.000,0.000
5201,0.2301,-0.6697,0.0301,0.6981,-0.1455,0.0406,1.98,-4.13,-14.90,0,3.558,-24.747,-132.822,56.565,-0.035,-0.025,0.000,0.000,0.000,0.000
5253,0.2958,-0.6580,0.0216,0.7955,-0.1651,0.0158,-0.00,3.52,-14.66,0,3.568,43.664,-115.408,55.484,-0.035,-0.028,0.000,0.000,0.000,0.000
5304,0.3439,-0.6550,0.0401,0.7859,-0.1161,0.1345,0.85,9.20,-14.30,0,3.574,9.123,-62.646,60.722,-0.018,-0.029,0.000,0.000,0.000,0.000
5355,0.3854,-0.6558,0.0575,0.7056,-0.0787,0.2122,0.98,12.95,-11.32,0,3.589,-14.481,-17.529,59.227,-0.010,-0.019,0.000,0.000,0.000,0.000
5406,0.4185,-0.6569,0.0709,0.5883,-0.0526,0.2338,-0.05,14.71,-8.28,0,3.595,7.861,-4.422,50.435,-0.008,-0.021,0.000,0.000,0.000,0.000
5457,0.4256,-0.6674,0.0865,0.3536,-0.0829,0.2646,-0.43,15.61,-5.35,0,3.595,2.222,52.688,44.847,-0.013,-0.030,0.000,0.000,0.000,0.000
5508,0.4273,-0.6618,0.0963,0.1846,-0.0280,0.2337,-0.70,14.41,-3.30,0,3.595,-0.632,93.973,33.460,-0.001,-0.026,0.000,0.000,0.000,0.000
5559,0.4185,-0.6528,0.1019,0.0254,0.0217,0.1890,-1.82,9.38,1.54,0,3.579,13.810,63.922,15.844,0.005,-0.023,0.000,0.000,0.000,0.000
5610,0.4074,-0.6402,0.1012,-0.0825,0.0702,0.1301,-1.63,6.03,3.92,0,3.563,17.028,51.357,5.200,0.001,-0.024,0.000,0.000,0.000,0.000
5661,0.3986,-0.6279,0.0967,-0.1412,0.1069,0.0746,-1.23,4.03,5.45,0,3.547,16.722,54.020,-3.473,0.000,-0.023,0.000,0.000,0.000,0.000
5712,0.3900,-0.6124,0.0901,-0.1719,0.1486,0.0355,-0.44,0.78,5.93,0,3.537,19.418,40.977,-5.270,0.013,-0.021,0.000,0.000,0.000,0.000
5763,0.3827,-0.6084,0.0858,-0.1784,0.1394,0.0327,0.63,-1.23,5.30,0,3.526,13.742,15.472,-2.907,0.004,-0.025,0.000,0.000,0.000,0.000
5813,0.3746,-0.5948,0.0855,-0.1635,0.1657,0.0592,1.18,-2.06,5.70,0,3.531,3.378,20.727,-9.481,0.006,-0.016,0.000,0.000,0.000,0.000
5864,0.3681,-0.5858,0.0888,-0.1368,0.1621,0.1019,1.35,-3.11,5.37,0,3.531,14.485,7.099,-11.707,0.009,-0.023,0.000,0.000,0.000,0.000
5916,0.3636,-0.5764,0.0989,-0.0946,0.1577,0.1732,1.83,-3.80,4.92,0,3.547,5.422,-14.181,-12.165,0.004,-0.020,0.000,0.000,0.000,0.000
5966,0.3594,-0.5678,0.1137,-0.0572,0.1461,0.2448,2.28,-3.41,4.41,0,3.563,0.731,-8.083,-12.014,0.000,-0.022,0.000,0.000,0.000,0.000
6018,0.3587,-0.5612,0.1285,-0.0176,0.1272,0.2857,2.25,-2.97,3.80,0,3.574,-2.443,-12.133,-9.184,0.002,-0.012,0.000,0.000,0.000,0.000
6069,0.3581,-0.5564,0.1446,0.0091,0.1028,0.3123,2.21,-2.54,3.36,0,3.579,-7.103,-19.127,-9.555,-0.000,-0.013,0.000,0.000,0.000,0.000
6120,0.3585,-0.5501,0.1629,0.0261,0.0952,0.3309,1.78,-1.75,2.68,0,3.584,-7.500,-14.460,-7.708,-0.005,-0.013,0.000,0.000,0.000,0.000
6171,0.3607,-0.5466,0.1754,0.0442,0.0772,0.3067,1.38,-1.02,2.38,0,3.579,0.124,-13.675,-6.422,-0.003,-0.009,0.000,0.000,0.000,0.000
6222,0.3631,-0.5437,0.1896,0.0531,0.0627,0.2881,1.23,-0.34,2.07,0,3.584,-2.543,-8.639,-3.774,-0.001,-0.014,0.000,0.000,0.000,0.000
6272,0.3660,-0.5408,0.2010,0.0573,0.0525,0.2586,1.11,0.12,1.85,0,3.574,-10.781,-12.122,-3.780,0.002,-0.011,0.000,0.000,0.000,0.000
6324,0.3686,-0.5389,0.2130,0.0553,0.0422,0.2399,0.70,0.70,1.74,0,3.579,-7.135,-10.844,-4.031,-0.003,-0.009,0.000,0.000,0.000,0.000
6375,0.3715,-0.5388,0.2254,0.0508,0.0298,0.2306,0.32,1.23,1.59,0,3.574,-6.297,-6.078,-2.667,-0.001,-0.011,0.000,0.000,0.000,0.000
6426,0.3743,-0.5378,0.2377,0.0419,0.0260,0.2224,0.01,1.51,1.47,0,3.579,-1.248,-6.543,-2.623,0.002,-0.014,0.000,0.000,0.000,0.000
6476,0.3752,-0.5386,0.2479,0.0270,0.0185,0.2046,-0.10,1.70,1.37,0,3.574,-6.752,-2.404,-2.494,-0.002,-0.012,0.000,0.000,0.000,0.000
6527,0.3768,-0.5376,0.2604,0.0143,0.0190,0.2014,-0.28,1.83,1.26,0,3.579,-1.797,0.742,-1.585,-0.001,-0.010,0.000,0.000,0.000,0.000
6579,0.3808,-0.5354,0.2687,0.0112,0.0253,0.1783,-0.45,1.71,1.23,0,3.574,0.331,1.627,0.140,0.001,-0.007,0.000,0.000,0.000,0.000
6630,0.3816,-0.5327,0.2782,-0.0008,0.0331,0.1652,-0.45,1.67,1.19,0,3.579,2.727,-1.274,0.646,-0.001,-0.010,0.000,0.000,0.000,0.000
6680,0.3802,-0.5320,0.2877,-0.0178,0.0337,0.1558,-0.27,1.67,1.18,0,3.579,-0.454,6.100,0.608,0.000,-0.009,0.000,0.000,0.000,0.000
6731,0.3782,-0.5310,0.2952,-0.0338,0.0333,0.1388,-0.18,1.48,1.20,0,3.579,4.013,3.609,0.603,0.003,-0.014,0.000,0.000,0.000,0.000
6783,0.3762,-0.5311,0.3015,-0.0456,0.0296,0.1198,0.02,1.24,1.22,0,3.568,2.282,2.583,1.336,0.004,-0.010,0.000,0.000,0.000,0.000
6833,0.3772,-0.5232,0.3075,-0.0461,0.0459,0.1058,0.06,1.01,1.23,0,3.574,2.274,3.703,1.072,0.004,-0.015,0.000,0.000,0.000,0.000
6885,0.3719,-0.5281,0.3135,-0.0612,0.0267,0.0969,0.30,0.84,1.24,0,3.568,2.460,1.189,-0.975,0.003,-0.013,0.000,0.000,0.000,0.000
6936,0.3697,-0.5240,0.3179,-0.0656,0.0302,0.0823,0.53,0.72,1.22,0,3.568,-2.952,1.634,-0.575,0.005,-0.011,0.000,0.000,0.000,0.000
6987,0.3677,-0.5218,0.3200,-0.0681,0.0275,0.0604,0.59,0.64,1.20,0,3.563,-0.884,1.633,-1.080,0.004,-0.011,0.000,0.000,0.000,0.000
7037,0.3631,-0.5242,0.3216,-0.0750,0.0148,0.0452,0.53,0.52,1.15,0,3.563,-3.349,1.360,-1.853,0.003,-0.008,0.000,0.000,0.000,0.000
7089,0.3549,-0.5299,0.3204,-0.0892,-0.0034,0.0225,0.36,0.51,1.06,0,3.552,-3.188,2.058,-2.608,0.003,-0.013,0.000,0.000,0.000,0.000
7140,0.3518,-0.5295,0.3224,-0.0898,-0.0046,0.0253,0.12,0.39,0.93,0,3.558,-4.010,1.139,-2.036,0.006,-0.010,0.000,0.000,0.000,0.000
7191,0.3465,-0.5284,0.3235,-0.0948,-0.0021,0.0283,-0.09,0.35,0.84,0,3.552,-2.267,3.931,-2.054,0.003,-0.013,0.000,0.000,0.000,0.000
7242,0.3405,-0.5318,0.3244,-0.1001,-0.0080,0.0308,-0.18,0.21,0.74,0,3.558,0.292,1.167,-2.811,0.005,-0.009,0.000,0.000,0.000,0.000
7293,0.3377,-0.5293,0.3244,-0.0970,-0.0002,0.0287,-0.21,0.11,0.60,0,3.552,2.824,0.166,-2.012,0.004,-0.010,0.000,0.000,0.000,0.000
7344,0.3302,-0.5323,0.3254,-0.1033,-0.0048,0.0327,-0.10,0.12,0.49,0,3.552,0.565,2.242,-2.197,0.001,-0.011,0.000,0.000,0.000,0.000
7394,0.3243,-0.5364,0.3273,-0.1058,-0.0122,0.0402,-0.01,0.04,0.36,0,3.552,2.416,0.393,-2.446,0.006,-0.012,0.000,0.000,0.000,0.000
7446,0.3182,-0.5406,0.3301,-0.1081,-0.0203,0.0489,0.14,0.03,0.23,0,3.558,1.441,1.443,-2.205,0.002,-0.007,0.000,0.000,0.000,0.000
7496,0.3147,-0.5418,0.3308,-0.1047,-0.0225,0.0451,0.20,-0.02,0.13,0,3.552,-0.120,0.897,0.250,0.005,-0.010,0.000,0.000,0.000,0.000
7547,0.3106,-0.5459,0.3313,-0.1021,-0.0306,0.0403,0.24,-0.07,0.13,0,3.552,-1.060,-1.615,-0.170,0.002,-0.010,0.000,0.000,0.000,0.000
7599,0.3060,-0.5425,0.3344,-0.1001,-0.0227,0.0494,0.18,-0.04,0.15,0,3.552,-1.319,-1.542,0.680,0.007,-0.010,0.000,0.000,0.000,0.000
7650,0.2985,-0.5480,0.3383,-0.1047,-0.0326,0.0589,0.05,0.05,0.18,0,3.558,4.129,-2.111,-0.019,0.008,-0.014,0.000,0.000,0.000,0.000
7701,0.2947,-0.5500,0.3410,-0.1029,-0.0346,0.0590,0.16,0.12,0.23,0,3.552,-0.705,-1.373,1.221,0.009,-0.012,0.000,0.000,0.000,0.000
7751,0.2904,-0.5485,0.3447,-0.1041,-0.0302,0.0651,0.15,0.19,0.30,0,3.558,-0.895,-2.501,0.912,0.004,-0.014,0.000,0.000,0.000,0.000
7803,0.2842,-0.5532,0.3467,-0.1077,-0.0378,0.0570,0.15,0.30,0.37,0,3.558,0.968,-1.609,2.080,0.006,-0.012,0.000,0.000,0.000,0.000
7853,0.2814,-0.5530,0.3491,-0.1050,-0.0352,0.0510,0.18,0.35,0.48,0,3.558,1.250,-1.931,1.413,0.009,-0.012,0.000,0.000,0.000,0.000
7904,0.2768,-0.5534,0.3491,-0.1068,-0.0341,0.0335,0.24,0.43,0.57,0,3.547,0.451,-3.627,0.812,0.006,-0.007,0.000,0.000,0.000,0.000
7956,0.2711,-0.5558,0.3514,-0.1111,-0.0375,0.0333,0.27,0.59,0.64,0,3.552,0.070,-0.494,0.151,0.002,-0.009,0.000,0.000,0.000,0.000
8007,0.2645,-0.5590,0.3521,-0.1178,-0.0422,0.0259,0.23,0.63,0.66,0,3.547,-1.895,1.578,0.770,0.005,-0.010,0.000,0.000,0.000,0.000
8058,0.2604,-0.5587,0.3533,-0.1195,-0.0396,0.0245,0.13,0.51,0.69,0,3.547,1.502,-3.324,1.301,0.005,-0.010,0.000,0.000,0.000,0.000
8108,0.2548,-0.5630,0.3522,-0.1231,-0.0457,0.0121,0.20,0.57,0.73,0,3.542,3.949,-0.742,1.770,0.007,-0.006,0.000,0.000,0.000,0.000
8159,0.2519,-0.5551,0.3530,-0.1215,-0.0284,0.0144,0.32,0.54,0.78,0,3.547,4.074,3.961,2.056,0.005,-0.009,0.000,0.000,0.000,0.000
8210,0.2471,-0.5556,0.3548,-0.1232,-0.0290,0.0234,0.45,0.39,0.86,0,3.542,3.857,0.522,1.499,0.007,-0.013,0.000,0.000,0.000,0.000
8261,0.2423,-0.5602,0.3557,-0.1236,-0.0384,0.0254,0.60,0.21,0.94,0,3.547,0.189,2.145,1.406,0.007,-0.013,0.000,0.000,0.000,0.000
8313,0.2382,-0.5567,0.3575,-0.1215,-0.0334,0.0309,0.62,0.11,0.99,0,3.542,2.032,-1.802,-0.101,0.008,-0.009,0.000,0.000,0.000,0.000
8363,0.2314,-0.5633,0.3604,-0.1238,-0.0480,0.0404,0.74,0.15,1.00,0,3.552,-0.590,-0.827,-0.954,0.008,-0.014,0.000,0.000,0.000,0.000
8415,0.2247,-0.5634,0.3619,-0.1259,-0.0497,0.0390,0.71,0.18,0.96,0,3.547,-1.910,-0.377,-1.776,0.006,-0.010,0.000,0.000,0.000,0.000
8466,0.2212,-0.5678,0.3628,-0.1222,-0.0591,0.0348,0.62,0.22,0.88,0,3.547,-1.924,-2.033,-2.326,0.006,-0.006,0.000,0.000,0.000,0.000
8517,0.2167,-0.5679,0.3639,-0.1208,-0.0587,0.0303,0.46,0.31,0.77,0,3.542,0.473,-0.052,-3.491,0.004,-0.013,0.000,0.000,0.000,0.000
8568,0.2089,-0.5725,0.3666,-0.1263,-0.0654,0.0363,0.41,0.34,0.61,0,3.547,-4.128,1.346,-4.157,0.008,-0.011,0.000,0.000,0.000,0.000
8618,0.2019,-0.5802,0.3665,-0.1303,-0.0773,0.0251,0.33,0.27,0.43,0,3.542,-6.627,1.286,-3.553,0.006,-0.008,0.000,0.000,0.000,0.000
8670,0.1967,-0.5789,0.3680,-0.1299,-0.0701,0.0258,0.06,0.14,0.23,0,3.547,1.233,-1.634,-4.584,0.006,-0.008,0.000,0.000,0.000,0.000
8720,0.1926,-0.5834,0.3692,-0.1266,-0.0733,0.0268,0.15,0.16,0.04,0,3.542,4.055,1.265,-3.815,0.008,-0.011,0.000,0.000,0.000,0.000
8771,0.1867,-0.5845,0.3708,-0.1270,-0.0696,0.0287,0.23,0.17,-0.13,0,3.547,-0.680,0.610,-3.682,0.010,-0.007,0.000,0.000,0.000,0.000
8823,0.1793,-0.5894,0.3704,-0.1306,-0.0746,0.0194,0.26,0.17,-0.30,0,3.542,2.187,0.771,-4.412,0.008,-0.010,0.000,0.000,0.000,0.000
8873,0.1738,-0.5917,0.3721,-0.1299,-0.0739,0.0218,0.27,0.12,-0.51,0,3.542,-2.409,-0.166,-3.881,0.007,-0.009,0.000,0.000,0.000,0.000
8924,0.1698,-0.5886,0.3731,-0.1260,-0.0630,0.0197,0.19,0.04,-0.73,0,3.542,2.276,-4.531,-3.700,0.009,-0.006,0.000,0.000,0.000,0.000
8976,0.1601,-0.5972,0.3716,-0.1333,-0.0753,0.0053,0.30,0.27,-0.92,0,3.537,-3.144,0.360,-3.417,0.010,-0.011,0.000,0.000,0.000,0.000
9026,0.1560,-0.5986,0.3732,-0.1303,-0.0729,0.0102,0.18,0.24,-1.14,0,3.542,0.136,1.079,-3.841,0.013,-0.011,0.000,0.000,0.000,0.000
9078,0.1492,-0.6191,0.3726,-0.1328,-0.1075,0.0030,0.27,0.20,-1.33,0,3.542,-5.199,-2.245,-3.154,0.008,-0.006,0.000,0.000,0.000,0.000
9129,0.1438,-0.6229,0.3724,-0.1323,-0.1069,0.0004,0.09,0.25,-1.50,0,3.537,-8.365,0.589,-3.784,0.008,-0.011,0.000,0.000,0.000,0.000
9180,0.1385,-0.6240,0.3722,-0.1317,-0.0994,-0.0014,-0.36,0.20,-1.68,0,3.542,-2.517,1.860,-2.222,0.009,-0.011,0.000,0.000,0.000,0.000
9231,0.1321,-0.6272,0.3721,-0.1328,-0.0930,-0.0020,-0.46,0.13,-1.80,0,3.537,2.269,0.034,-3.335,0.009,-0.012,0.000,0.000,0.000,0.000
9281,0.1247,-0.6369,0.3711,-0.1351,-0.0982,-0.0067,-0.53,0.09,-1.93,0,3.537,-2.169,2.152,-2.058,0.009,-0.012,0.000,0.000,0.000,0.000
9332,0.1195,-0.6352,0.3704,-0.1327,-0.0812,-0.0097,-0.63,0.03,-2.06,0,3.537,1.532,-1.178,-2.967,0.008,-0.011,0.000,0.000,0.000,0.000
9383,0.1117,-0.6401,0.3716,-0.1348,-0.0777,-0.0017,-0.54,0.06,-2.21,0,3.537,-1.663,-1.361,-2.935,0.010,-0.010,0.000,0.000,0.000,0.000
9435,0.1070,-0.6410,0.3717,-0.1315,-0.0675,-0.0002,-0.49,0.10,-2.37,0,3.537,4.159,2.428,-4.436,0.008,-0.014,0.000,0.000,0.000,0.000
9486,0.1037,-0.6364,0.3698,-0.1257,-0.0484,-0.0106,-0.46,-0.09,-2.52,0,3.531,6.121,-0.700,-3.760,0.008,-0.011,0.000,0.000,0.000,0.000
9537,0.0964,-0.6416,0.3695,-0.1267,-0.0498,-0.0081,-0.20,-0.03,-2.67,0,3.531,-0.211,-0.515,-1.555,0.006,-0.013,0.000,0.000,0.000,0.000
9587,0.0919,-0.6558,0.3677,-0.1230,-0.0713,-0.0150,0.02,0.03,-2.79,0,3.531,-5.836,0.041,-0.991,0.003,-0.013,0.000,0.000,0.000,0.000
9638,0.0890,-0.6380,0.3670,-0.1168,-0.0295,-0.0146,-0.36,-0.05,-2.91,0,3.531,2.817,0.031,-1.254,0.009,-0.012,0.000,0.000,0.000,0.000
9689,0.0796,-0.6457,0.3665,-0.1232,-0.0388,-0.0107,-0.25,-0.07,-2.97,0,3.531,7.464,1.564,-1.418,0.012,-0.011,0.000,0.000,0.000,0.000
9740,0.0770,-0.6383,0.3660,-0.1153,-0.0185,-0.0078,0.02,-0.05,-3.01,0,3.531,-0.895,-1.376,0.114,0.008,-0.012,0.000,0.000,0.000,0.000
9792,0.0693,-0.6436,0.3649,-0.1182,-0.0258,-0.0099,-0.02,-0.12,-3.02,0,3.531,-2.194,-0.423,1.592,0.009,-0.009,0.000,0.000,0.000,0.000
9843,0.0590,-0.6537,0.3642,-0.1257,-0.0427,-0.0093,0.02,-0.10,-2.98,0,3.526,-2.034,-1.739,1.860,0.007,-0.013,0.000,0.000,0.000,0.000
9894,0.0545,-0.6539,0.3617,-0.1219,-0.0401,-0.0191,-0.04,-0.14,-2.92,0,3.531,2.217,0.843,1.566,0.006,-0.016,0.000,0.000,0.000,0.000
9944,0.0453,-0.6719,0.3595,-0.1273,-0.0722,-0.0242,0.18,-0.11,-2.82,0,3.526,-4.231,0.254,2.634,0.005,-0.010,0.000,0.000,0.000,0.000
9995,0.0419,-0.6670,0.3598,-0.1210,-0.0576,-0.0144,-0.01,-0.05,-2.68,0,3.526,-12.020,1.730,4.153,0.008,-0.009,0.000,0.000,0.000,0.000
10047,0.0343,-0.6759,0.3581,-0.1231,-0.0682,-0.0174,-0.44,-0.13,-2.55,0,3.526,-3.951,-3.042,3.142,0.006,-0.010,0.000,0.000,0.000,0.000
10097,0.0283,-0.6808,0.3580,-0.1218,-0.0673,-0.0114,-0.71,-0.14,-2.37,0,3.531,-2.670,4.356,4.219,0.007,-0.009,0.000,0.000,0.000,0.000
10148,0.0229,-0.6979,0.3563,-0.1191,-0.0893,-0.0155,-0.70,-0.26,-2.18,0,3.526,-2.687,-0.203,2.351,0.009,-0.010,0.000,0.000,0.000,0.000
10199,0.0164,-0.7004,0.3553,-0.1182,-0.0806,-0.0158,-0.76,-0.27,-2.03,0,3.526,-5.558,2.164,2.583,0.007,-0.014,0.000,0.000,0.000,0.000
10250,0.0107,-0.7008,0.3538,-0.1156,-0.0667,-0.0178,-1.17,-0.23,-1.87,0,3.526,-0.449,2.227,2.405,0.005,-0.009,0.000,0.000,0.000,0.000
10302,0.0069,-0.6986,0.3538,-0.1096,-0.0459,-0.0117,-1.46,-0.32,-1.72,0,3.526,4.798,-0.294,1.097,0.011,-0.010,0.000,0.000,0.000,0.000
10353,0.0048,-0.6954,0.3523,-0.0999,-0.0241,-0.0130,-1.27,-0.40,-1.65,0,3.521,6.142,-0.752,0.758,0.006,-0.015,0.000,0.000,0.000,0.000
10403,-0.0022,-0.6966,0.3527,-0.1006,-0.0143,-0.0053,-1.01,-0.37,-1.61,0,3.526,3.839,-2.754,-0.494,0.010,-0.016,0.000,0.000,0.000,0.000
10455,-0.0020,-0.6836,0.3536,-0.0871,0.0196,0.0025,-0.85,-0.29,-1.60,0,3.526,9.115,-3.287,-0.555,0.005,-0.012,0.000,0.000,0.000,0.000
10505,-0.0080,-0.6852,0.3517,-0.0882,0.0210,-0.0061,-0.49,-0.13,-1.61,0,3.521,4.945,-0.761,0.146,0.006,-0.015,0.000,0.000,0.000,0.000
10557,-0.0078,-0.6739,0.3512,-0.0782,0.0446,-0.0065,-0.14,-0.05,-1.63,0,3.521,4.728,-0.212,-1.454,0.007,-0.014,0.000,0.000,0.000,0.000
10607,-0.0124,-0.6757,0.3500,-0.0791,0.0372,-0.0099,0.12,-0.03,-1.68,0,3.521,3.587,1.065,-1.899,0.006,-0.010,0.000,0.000,0.000,0.000
10659,-0.0123,-0.6672,0.3493,-0.0706,0.0498,-0.0097,0.10,-0.04,-1.74,0,3.521,-2.406,-5.222,-0.434,0.006,-0.010,0.000,0.000,0.000,0.000
10710,-0.0157,-0.6631,0.3484,-0.0702,0.0516,-0.0097,0.20,0.08,-1.80,0,3.521,2.338,-0.439,-0.901,0.006,-0.014,0.000,0.000,0.000,0.000
10760,-0.0197,-0.6634,0.3484,-0.0721,0.0441,-0.0049,0.34,0.14,-1.86,0,3.521,1.989,3.857,-0.009,0.006,-0.013,0.000,0.000,0.000,0.000
10812,-0.0205,-0.6549,0.3481,-0.0672,0.0545,-0.0027,0.31,-0.04,-1.89,0,3.521,0.455,-1.690,0.027,0.006,-0.007,0.000,0.000,0.000,0.000
10862,-0.0232,-0.6521,0.3485,-0.0654,0.0519,0.0023,0.33,-0.10,-1.89,0,3.521,1.815,-3.258,0.533,0.005,-0.007,0.000,0.000,0.000,0.000
10913,-0.0276,-0.6523,0.3484,-0.0671,0.0432,0.0037,0.42,0.02,-1.88,0,3.521,-1.289,1.419,0.601,0.005,-0.011,0.000,0.000,0.000,0.000
10964,-0.0324,-0.6507,0.3470,-0.0707,0.0387,-0.0028,0.30,0.05,-1.81,0,3.516,-1.644,-1.022,2.120,0.004,-0.011,0.000,0.000,0.000,0.000
11016,-0.0346,-0.6446,0.3465,-0.0680,0.0456,-0.0043,0.09,-0.02,-1.72,0,3.516,-1.613,-0.506,2.493,0.004,-0.014,0.000,0.000,0.000,0.000
11067,-0.0381,-0.6444,0.3466,-0.0680,0.0409,-0.0007,0.09,-0.01,-1.60,0,3.516,-2.666,0.285,3.096,0.006,-0.013,0.000,0.000,0.000,0.000
11117,-0.0429,-0.6432,0.3477,-0.0708,0.0390,0.0060,-0.05,0.03,-1.45,0,3.521,-0.947,5.669,2.608,0.004,-0.007,0.000,0.000,0.000,0.000
11169,-0.0453,-0.6391,0.3494,-0.0682,0.0445,0.0139,-0.15,-0.16,-1.33,0,3.521,-0.530,1.759,1.985,0.008,-0.010,0.000,0.000,0.000,0.000
11220,-0.0523,-0.6455,0.3496,-0.0749,0.0265,0.0105,-0.14,-0.21,-1.21,0,3.521,-2.490,-0.441,2.396,0.007,-0.011,0.000,0.000,0.000,0.000
11271,-0.0523,-0.6378,0.3484,-0.0648,0.0418,-0.0001,-0.29,-0.28,-1.10,0,3.521,0.210,2.652,3.095,0.004,-0.011,0.000,0.000,0.000,0.000
11322,-0.0551,-0.6347,0.3469,-0.0610,0.0466,-0.0087,-0.31,-0.41,-0.96,0,3.516,-0.952,-0.800,2.314,-0.001,-0.012,0.000,0.000,0.000,0.000
11373,-0.0592,-0.6342,0.3458,-0.0600,0.0452,-0.0126,-0.33,-0.40,-0.79,0,3.516,1.502,2.375,3.737,0.004,-0.010,0.000,0.000,0.000,0.000
11423,-0.0658,-0.6331,0.3450,-0.0643,0.0456,-0.0133,-0.34,-0.43,-0.63,0,3.516,-3.133,2.169,3.209,0.000,-0.007,0.000,0.000,0.000,0.000
11475,-0.0707,-0.6315,0.3437,-0.0644,0.0467,-0.0147,-0.43,-0.48,-0.51,0,3.516,0.399,1.288,0.983,0.004,-0.014,0.000,0.000,0.000,0.000
11526,-0.0720,-0.6291,0.3434,-0.0561,0.0502,-0.0102,-0.45,-0.59,-0.43,0,3.516,0.166,0.849,1.855,0.002,-0.010,0.000,0.000,0.000,0.000
11577,-0.0770,-0.6282,0.3430,-0.0562,0.0501,-0.0060,-0.39,-0.58,-0.34,0,3.516,-0.248,-1.411,2.244,0.005,-0.014,0.000,0.000,0.000,0.000
11628,-0.0811,-0.6270,0.3415,-0.0542,0.0505,-0.0094,-0.48,-0.60,-0.22,0,3.510,-1.309,3.404,1.683,0.004,-0.012,0.000,0.000,0.000,0.000
11678,-0.0836,-0.6229,0.3419,-0.0493,0.0575,-0.0015,-0.48,-0.63,-0.14,0,3.510,3.603,1.735,1.738,0.003,-0.011,0.000,0.000,0.000,0.000
11730,-0.0867,-0.6235,0.3420,-0.0455,0.0532,0.0022,-0.29,-0.68,-0.06,0,3.516,-0.458,-0.597,1.034,0.002,-0.012,0.000,0.000,0.000,0.000
11781,-0.0905,-0.6224,0.3416,-0.0432,0.0520,0.0015,-0.35,-0.69,0.01,0,3.516,-2.999,-2.028,0.305,-0.001,-0.009,0.000,0.000,0.000,0.000
11832,-0.0875,-0.6122,0.3406,-0.0265,0.0716,-0.0037,-0.51,-0.62,0.03,0,3.510,6.950,-4.802,0.440,0.005,-0.011,0.000,0.000,0.000,0.000
11882,-0.0919,-0.6115,0.3388,-0.0285,0.0687,-0.0096,-0.22,-0.49,0.08,0,3.510,0.799,0.728,-0.058,0.003,-0.015,0.000,0.000,0.000,0.000
11934,-0.0898,-0.5995,0.3381,-0.0164,0.0900,-0.0103,-0.13,-0.49,0.04,0,3.510,1.077,-0.235,-0.257,0.003,-0.014,0.000,0.000,0.000,0.000
11985,-0.0926,-0.5976,0.3373,-0.0170,0.0851,-0.0092,-0.04,-0.44,0.01,0,3.505,6.350,-2.751,-0.716,0.005,-0.010,0.000,0.000,0.000,0.000
12036,-0.0922,-0.5911,0.3369,-0.0106,0.0906,-0.0062,0.16,-0.36,-0.03,0,3.510,1.556,-0.713,-1.887,0.006,-0.015,0.000,0.000,0.000,0.000
12087,-0.0935,-0.5854,0.3345,-0.0095,0.0918,-0.0135,0.24,-0.35,-0.10,0,3.505,1.798,-0.390,-0.510,0.004,-0.013,0.000,0.000,0.000,0.000
12138,-0.0956,-0.5836,0.3365,-0.0105,0.0833,0.0030,0.38,-0.32,-0.15,0,3.510,-0.182,1.111,0.922,0.004,-0.012,0.000,0.000,0.000,0.000
12189,-0.0908,-0.5709,0.3356,0.0039,0.0988,0.0014,0.33,-0.35,-0.16,0,3.510,2.184,-0.071,2.145,0.002,-0.011,0.000,0.000,0.000,0.000
12239,-0.0929,-0.5693,0.3372,0.0016,0.0885,0.0120,0.51,-0.26,-0.10,0,3.510,-0.974,0.224,1.879,0.007,-0.012,0.000,0.000,0.000,0.000
12291,-0.0960,-0.5682,0.3371,-0.0033,0.0771,0.0095,0.62,-0.25,-0.01,0,3.510,-5.731,1.006,2.383,0.003,-0.008,0.000,0.000,0.000,0.000
12342,-0.0969,-0.5648,0.3378,-0.0027,0.0707,0.0094,0.48,-0.33,0.12,0,3.516,-4.422,1.203,2.526,0.003,-0.011,0.000,0.000,0.000,0.000
12392,-0.0978,-0.5617,0.3382,-0.0015,0.0661,0.0081,0.28,-0.41,0.23,0,3.510,1.435,-1.070,1.878,0.003,-0.007,0.000,0.000,0.000,0.000
12444,-0.1005,-0.5603,0.3370,-0.0046,0.0617,-0.0003,0.28,-0.42,0.33,0,3.510,-6.048,2.204,2.445,0.000,-0.013,0.000,0.000,0.000,0.000
12495,-0.1007,-0.5596,0.3365,-0.0012,0.0544,-0.0052,0.18,-0.46,0.42,0,3.510,-2.876,3.678,0.923,-0.001,-0.007,0.000,0.000,0.000,0.000
12546,-0.1032,-0.5582,0.3357,-0.0023,0.0505,-0.0096,0.07,-0.58,0.47,0,3.510,-3.234,0.891,0.524,0.004,-0.005,0.000,0.000,0.000,0.000
12596,-0.1044,-0.5565,0.3364,0.0001,0.0482,-0.0042,0.02,-0.68,0.48,0,3.505,-2.416,0.795,-0.406,0.002,-0.010,0.000,0.000,0.000,0.000
12648,-0.1043,-0.5541,0.3352,0.0059,0.0481,-0.0093,-0.04,-0.74,0.47,0,3.505,-5.600,1.217,-0.035,-0.004,-0.011,0.000,0.000,0.000,0.000
12698,-0.1116,-0.5681,0.3353,-0.0028,0.0168,-0.0068,-0.09,-0.79,0.46,0,3.505,-9.247,0.897,-1.545,0.003,-0.010,0.000,0.000,0.000,0.000
12750,-0.1126,-0.5708,0.3345,0.0018,0.0112,-0.0087,-0.40,-0.79,0.35,0,3.505,-5.345,-0.938,-5.016,0.003,-0.013,0.000,0.000,0.000,0.000
12800,-0.1085,-0.5711,0.3349,0.0163,0.0130,-0.0035,-0.79,-0.84,0.18,0,3.505,-0.473,-3.233,-4.538,-0.002,-0.010,0.000,0.000,0.000,0.000
12852,-0.1043,-0.5704,0.3353,0.0295,0.0195,0.0010,-0.95,-0.77,-0.01,0,3.505,-0.185,-4.774,-3.918,-0.000,-0.013,0.000,0.000,0.000,0.000
12902,-0.1022,-0.5696,0.3335,0.0368,0.0269,-0.0074,-0.96,-0.51,-0.22,0,3.500,0.378,-3.421,-4.659,0.001,-0.010,0.000,0.000,0.000,0.000
12954,-0.0989,-0.5716,0.3322,0.0437,0.0285,-0.0108,-0.91,-0.33,-0.44,0,3.500,3.044,0.393,-3.526,-0.001,-0.007,0.000,0.000,0.000,0.000
13004,-0.0946,-0.5703,0.3305,0.0501,0.0357,-0.0143,-0.79,-0.28,-0.62,0,3.505,4.641,-2.481,-2.021,0.001,-0.015,0.000,0.000,0.000,0.000
13055,-0.0879,-0.5651,0.3291,0.0600,0.0484,-0.0147,-0.56,-0.26,-0.75,0,3.500,9.999,2.290,-0.807,0.003,-0.013,0.000,0.000,0.000,0.000
13106,-0.0880,-0.5632,0.3291,0.0568,0.0521,-0.0067,-0.33,-0.30,-0.78,0,3.500,7.720,0.281,-0.311,0.003,-0.013,0.000,0.000,0.000,0.000
13157,-0.0775,-0.5437,0.3293,0.0727,0.0839,-0.0012,0.03,-0.34,-0.78,0,3.505,12.084,-3.422,-0.365,0.002,-0.014,0.000,0.000,0.000,0.000
13209,-0.0776,-0.5413,0.3275,0.0689,0.0803,-0.0075,0.60,-0.12,-0.78,0,3.500,5.762,0.053,0.131,-0.000,-0.014,0.000,0.000,0.000,0.000
13259,-0.0736,-0.5302,0.3271,0.0710,0.0879,-0.0058,0.88,-0.12,-0.77,0,3.500,5.392,1.044,0.081,0.002,-0.018,0.000,0.000,0.000,0.000
13311,-0.0681,-0.5252,0.3256,0.0753,0.0815,-0.0110,1.14,-0.17,-0.77,0,3.500,5.650,-1.177,0.026,0.002,-0.010,0.000,0.000,0.000,0.000
13362,-0.0670,-0.5246,0.3242,0.0719,0.0660,-0.0120,1.42,-0.11,-0.76,0,3.500,-1.994,0.322,1.701,0.006,-0.009,0.000,0.000,0.000,0.000
13413,-0.0563,-0.5112,0.3247,0.0854,0.0725,-0.0031,1.35,-0.18,-0.71,0,3.500,-2.713,-0.911,1.774,0.003,-0.008,0.000,0.000,0.000,0.000
13464,-0.0565,-0.5190,0.3231,0.0789,0.0417,-0.0072,1.28,-0.15,-0.63,0,3.500,-1.015,-1.864,1.060,0.002,-0.011,0.000,0.000,0.000,0.000
13515,-0.0498,-0.5179,0.3233,0.0847,0.0294,-0.0013,1.18,-0.09,-0.55,0,3.494,-3.765,-0.251,1.263,0.003,-0.008,0.000,0.000,0.000,0.000
13565,-0.0463,-0.5184,0.3232,0.0842,0.0163,0.0003,1.01,-0.10,-0.49,0,3.500,-4.376,4.071,1.521,0.001,-0.008,0.000,0.000,0.000,0.000
13617,-0.0509,-0.5308,0.3240,0.0693,-0.0156,0.0078,0.98,-0.15,-0.44,0,3.500,-7.970,4.305,0.693,0.004,-0.007,0.000,0.000,0.000,0.000
13668,-0.0490,-0.5342,0.3247,0.0679,-0.0276,0.0106,0.62,-0.31,-0.43,0,3.500,-7.820,2.609,0.595,0.001,-0.005,0.000,0.000,0.000,0.000
13719,-0.0517,-0.5454,0.3243,0.0591,-0.0511,0.0067,0.33,-0.38,-0.40,0,3.500,-6.925,3.236,0.334,0.000,-0.006,0.000,0.000,0.000,0.000
13769,-0.0468,-0.5436,0.3257,0.0656,-0.0457,0.0115,-0.02,-0.56,-0.40,0,3.500,-3.972,4.177,-0.044,0.001,-0.004,0.000,0.000,0.000,0.000
13821,-0.0490,-0.5570,0.3253,0.0597,-0.0670,0.0057,-0.22,-0.66,-0.37,0,3.500,-5.345,-0.590,0.750,-0.000,-0.009,0.000,0.000,0.000,0.000
13872,-0.0440,-0.5556,0.3262,0.0687,-0.0563,0.0068,-0.48,-0.71,-0.34,0,3.500,-5.177,-1.900,0.741,-0.002,-0.007,0.000,0.000,0.000,0.000
13923,-0.0376,-0.5547,0.3263,0.0802,-0.0453,0.0039,-0.59,-0.65,-0.29,0,3.494,0.298,-0.822,-0.181,0.002,-0.008,0.000,0.000,0.000,0.000
13974,-0.0391,-0.5678,0.3258,0.0751,-0.0607,-0.0015,-0.63,-0.56,-0.27,0,3.500,-1.838,-0.597,-0.483,0.001,-0.005,0.000,0.000,0.000,0.000
14025,-0.0337,-0.5689,0.3254,0.0833,-0.0515,-0.0045,-0.72,-0.59,-0.27,0,3.489,2.208,-1.476,-0.793,0.000,-0.011,0.000,0.000,0.000,0.000
14076,-0.0271,-0.5700,0.3255,0.0930,-0.0427,-0.0027,-0.65,-0.50,-0.31,0,3.494,0.869,-4.416,-1.709,0.001,-0.012,0.000,0.000,0.000,0.000
14128,-0.0199,-0.5661,0.3239,0.1029,-0.0239,-0.0101,-0.62,-0.33,-0.40,0,3.489,5.045,-0.570,-2.308,-0.000,-0.008,0.000,0.000,0.000,0.000
14178,-0.0191,-0.5700,0.3220,0.0970,-0.0244,-0.0161,-0.37,-0.26,-0.50,0,3.489,8.352,-2.675,-3.251,0.002,-0.011,0.000,0.000,0.000,0.000
14229,-0.0117,-0.5644,0.3211,0.1042,-0.0066,-0.0138,-0.13,-0.19,-0.62,0,3.494,9.284,-1.459,-3.259,-0.002,-0.010,0.000,0.000,0.000,0.000
14280,-0.0082,-0.5657,0.3216,0.1021,-0.0077,-0.0039,0.17,-0.05,-0.73,0,3.494,3.865,0.327,-1.666,0.000,-0.013,0.000,0.000,0.000,0.000
14332,-0.0026,-0.5643,0.3208,0.1039,-0.0045,-0.0021,0.31,-0.04,-0.86,0,3.489,7.418,2.265,-2.840,-0.001,-0.011,0.000,0.000,0.000,0.000
14383,-0.0016,-0.5584,0.3214,0.0949,0.0052,0.0045,0.57,-0.12,-0.99,0,3.494,9.670,3.301,-2.660,0.002,-0.011,0.000,0.000,0.000,0.000
14434,0.0043,-0.5529,0.3196,0.0982,0.0118,-0.0029,1.04,-0.29,-1.11,0,3.489,4.942,0.762,-3.119,0.001,-0.008,0.000,0.000,0.000,0.000
14485,0.0099,-0.5542,0.3202,0.1016,-0.0009,0.0021,1.35,-0.33,-1.26,0,3.489,-1.872,-0.935,-2.937,0.002,-0.009,0.000,0.000,0.000,0.000
14537,0.0133,-0.5567,0.3215,0.1001,-0.0179,0.0090,1.36,-0.25,-1.41,0,3.494,-3.621,0.880,-2.453,0.000,-0.012,0.000,0.000,0.000,0.000
14588,0.0172,-0.5575,0.3207,0.0993,-0.0283,0.0035,1.22,-0.31,-1.54,0,3.489,2.554,3.371,-3.473,0.003,-0.004,0.000,0.000,0.000,0.000
14639,0.0230,-0.5598,0.3192,0.1032,-0.0408,-0.0046,1.18,-0.38,-1.66,0,3.484,-3.543,1.362,-2.448,-0.003,-0.005,0.000,0.000,0.000,0.000
14690,0.0298,-0.5607,0.3181,0.1105,-0.0476,-0.0100,1.07,-0.46,-1.81,0,3.489,-3.169,-0.946,-2.104,0.005,-0.007,0.000,0.000,0.000,0.000
14740,0.0326,-0.5708,0.3168,0.1068,-0.0755,-0.0132,0.95,-0.40,-1.92,0,3.484,-8.244,-0.202,-2.306,0.005,-0.006,0.000,0.000,0.000,0.000
14792,0.0360,-0.5778,0.3179,0.1040,-0.0924,-0.0024,0.68,-0.26,-2.04,0,3.489,-6.783,-0.694,-2.551,0.000,-0.008,0.000,0.000,0.000,0.000
14842,0.0418,-0.5774,0.3175,0.1075,-0.0843,-0.0002,0.25,-0.27,-2.16,0,3.484,-4.897,1.707,-1.557,0.002,-0.009,0.000,0.000,0.000,0.000
14894,0.0445,-0.5854,0.3186,0.1029,-0.0954,0.0077,0.06,-0.29,-2.24,0,3.489,-2.980,2.050,-1.958,0.003,-0.007,0.000,0.000,0.000,0.000
14945,0.0481,-0.5941,0.3164,0.1011,-0.1070,-0.0035,-0.05,-0.38,-2.32,0,3.484,-3.836,0.456,-1.998,0.003,-0.008,0.000,0.000,0.000,0.000
14995,0.0548,-0.5945,0.3170,0.1085,-0.0938,0.0014,-0.18,-0.37,-2.45,0,3.489,-1.676,-0.244,-2.497,-0.000,-0.006,0.000,0.000,0.000,0.000
15046,0.0574,-0.6046,0.3158,0.1045,-0.1058,-0.0035,-0.31,-0.41,-2.57,0,3.484,-0.012,2.477,-2.676,-0.003,-0.008,0.000,0.000,0.000,0.000
15098,0.0621,-0.6138,0.3171,0.1061,-0.1150,0.0054,-0.22,-0.46,-2.69,0,3.489,1.171,-2.462,-2.002,-0.001,-0.007,0.000,0.000,0.000,0.000
15148,0.0697,-0.6165,0.3173,0.1164,-0.1045,0.0071,-0.40,-0.55,-2.79,0,3.484,-1.169,-0.828,-2.827,0.001,-0.007,0.000,0.000,0.000,0.000
15200,0.0764,-0.6193,0.3170,0.1229,-0.0945,0.0051,-0.51,-0.43,-2.91,0,3.484,4.102,-4.249,-3.700,-0.002,-0.009,0.000,0.000,0.000,0.000
15250,0.0829,-0.6230,0.3181,0.1273,-0.0879,0.0099,-0.49,-0.24,-3.04,0,3.484,1.818,-2.557,-1.629,0.003,-0.011,0.000,0.000,0.000,0.000
15302,0.0910,-0.6259,0.3184,0.1339,-0.0801,0.0099,-0.32,-0.06,-3.12,0,3.489,2.935,-2.875,-0.000,-0.005,-0.007,0.000,0.000,0.000,0.000
15352,0.0970,-0.6306,0.3159,0.1329,-0.0795,-0.0041,-0.11,0.07,-3.17,0,3.484,3.428,-0.378,-0.040,-0.002,-0.011,0.000,0.000,0.000,0.000
15404,0.1023,-0.6345,0.3167,0.1284,-0.0789,0.0027,0.04,0.18,-3.15,0,3.489,2.470,-3.301,2.078,-0.003,-0.007,0.000,0.000,0.000,0.000
15455,0.1087,-0.6382,0.3170,0.1264,-0.0788,0.0051,0.16,0.27,-3.08,0,3.484,0.336,0.883,3.970,-0.001,-0.010,0.000,0.000,0.000,0.000
15506,0.1161,-0.6401,0.3154,0.1275,-0.0745,-0.0034,0.30,0.21,-2.96,0,3.489,-3.770,-1.574,5.071,-0.003,-0.015,0.000,0.000,0.000,0.000
15557,0.1203,-0.6480,0.3152,0.1205,-0.0871,-0.0020,0.34,0.26,-2.78,0,3.479,-5.739,0.426,6.031,-0.003,-0.007,0.000,0.000,0.000,0.000
15608,0.1258,-0.6521,0.3133,0.1169,-0.0881,-0.0090,0.02,0.24,-2.49,0,3.484,0.016,2.045,7.150,-0.004,-0.014,0.000,0.000,0.000,0.000
15658,0.1302,-0.6580,0.3125,0.1106,-0.0931,-0.0079,0.03,0.19,-2.17,0,3.479,0.646,2.138,7.595,-0.001,-0.014,0.000,0.000,0.000,0.000
15710,0.1356,-0.6626,0.3112,0.1091,-0.0927,-0.0102,0.01,0.04,-1.78,0,3.484,-1.955,5.827,7.706,0.000,-0.010,0.000,0.000,0.000,0.000
15760,0.1419,-0.6658,0.3113,0.1114,-0.0889,-0.0044,-0.08,-0.20,-1.39,0,3.479,-1.021,-0.524,8.176,-0.004,-0.011,0.000,0.000,0.000,0.000
15812,0.1481,-0.6656,0.3115,0.1150,-0.0752,0.0011,-0.26,-0.27,-0.97,0,3.484,-1.832,-3.840,7.481,-0.001,-0.008,0.000,0.000,0.000,0.000
15863,0.1542,-0.6689,0.3114,0.1180,-0.0717,0.0034,-0.29,-0.19,-0.60,0,3.479,0.898,-3.359,7.082,0.002,-0.013,0.000,0.000,0.000,0.000
15913,0.1615,-0.6703,0.3105,0.1232,-0.0637,0.0011,-0.19,-0.14,-0.26,0,3.484,-1.637,-4.886,5.381,-0.000,-0.014,0.000,0.000,0.000,0.000
15964,0.1671,-0.6737,0.3121,0.1226,-0.0624,0.0117,-0.23,0.02,0.04,0,3.479,1.625,-0.380,4.007,-0.001,-0.015,0.000,0.000,0.000,0.000
16016,0.1745,-0.6764,0.3116,0.1254,-0.0589,0.0081,-0.33,0.17,0.31,0,3.484,1.461,-1.687,4.288,-0.004,-0.012,0.000,0.000,0.000,0.000
16067,0.1807,-0.6799,0.3121,0.1239,-0.0581,0.0104,-0.22,0.19,0.53,0,3.479,-2.940,-2.636,4.588,-0.001,-0.012,0.000,0.000,0.000,0.000
16118,0.1887,-0.6816,0.3115,0.1267,-0.0526,0.0056,-0.24,0.27,0.74,0,3.479,-1.638,-2.227,4.152,0.001,-0.013,0.000,0.000,0.000,0.000
16169,0.1951,-0.6844,0.3133,0.1250,-0.0508,0.0140,-0.34,0.37,0.94,0,3.479,-0.218,0.480,3.901,-0.002,-0.009,0.000,0.000,0.000,0.000
16220,0.2028,-0.6879,0.3145,0.1259,-0.0506,0.0163,-0.34,0.32,1.12,0,3.484,-2.125,-2.565,3.192,0.000,-0.013,0.000,0.000,0.000,0.000
16271,0.2116,-0.6895,0.3148,0.1299,-0.0456,0.0137,-0.31,0.36,1.25,0,3.479,0.756,-2.472,2.168,-0.000,-0.011,0.000,0.000,0.000,0.000
16322,0.2170,-0.6923,0.3153,0.1242,-0.0442,0.0108,-0.26,0.48,1.36,0,3.484,-3.365,1.850,1.104,-0.004,-0.010,0.000,0.000,0.000,0.000
16373,0.2229,-0.6950,0.3163,0.1194,-0.0428,0.0106,-0.41,0.45,1.41,0,3.479,-1.119,0.230,0.405,-0.001,-0.015,0.000,0.000,0.000,0.000
16424,0.2273,-0.7037,0.3165,0.1114,-0.0575,0.0065,-0.40,0.46,1.41,0,3.484,-0.661,0.401,0.056,-0.002,-0.013,0.000,0.000,0.000,0.000
16475,0.2329,-0.7042,0.3160,0.1078,-0.0483,0.0012,-0.44,0.47,1.42,0,3.473,-4.961,2.049,-0.633,-0.002,-0.016,0.000,0.000,0.000,0.000
16526,0.2368,-0.7113,0.3160,0.0999,-0.0569,0.0000,-0.59,0.42,1.38,0,3.479,-6.621,0.891,-0.127,-0.002,-0.018,0.000,0.000,0.000,0.000
16576,0.2421,-0.7133,0.3147,0.0976,-0.0499,-0.0072,-0.81,0.31,1.34,0,3.473,0.967,0.759,-1.330,0.002,-0.014,0.000,0.000,0.000,0.000
16628,0.2458,-0.7197,0.3132,0.0913,-0.0533,-0.0133,-0.72,0.29,1.26,0,3.473,-2.871,4.065,-1.898,0.005,-0.016,0.000,0.000,0.000,0.000
16679,0.2518,-0.7204,0.3113,0.0928,-0.0422,-0.0186,-0.88,0.13,1.18,0,3.473,-1.391,1.290,-1.490,-0.001,-0.013,0.000,0.000,0.000,0.000
16730,0.2570,-0.7222,0.3092,0.0931,-0.0337,-0.0215,-1.07,0.11,1.11,0,3.473,4.082,-0.679,-1.090,-0.000,-0.012,0.000,0.000,0.000,0.000
16781,0.2624,-0.7244,0.3081,0.0938,-0.0269,-0.0173,-0.84,0.13,1.05,0,3.468,1.942,3.562,-1.747,-0.000,-0.014,0.000,0.000,0.000,0.000
16831,0.2667,-0.7277,0.3062,0.0921,-0.0251,-0.0184,-0.75,0.03,1.01,0,3.468,-1.964,-0.116,1.696,0.003,-0.014,0.000,0.000,0.000,0.000
16882,0.2723,-0.7277,0.3052,0.0943,-0.0159,-0.0127,-0.75,-0.01,1.03,0,3.468,-1.108,-3.701,2.253,0.001,-0.014,0.000,0.000,0.000,0.000
16933,0.2777,-0.7310,0.3052,0.0956,-0.0161,-0.0039,-0.68,0.06,1.10,0,3.473,-0.303,0.741,1.980,0.001,-0.014,0.000,0.000,0.000,0.000
16985,0.2837,-0.7319,0.3037,0.0982,-0.0107,-0.0060,-0.67,0.09,1.21,0,3.468,2.218,-2.855,3.836,-0.003,-0.012,0.000,0.000,0.000,0.000
17036,0.2886,-0.7344,0.3046,0.0969,-0.0104,0.0050,-0.63,0.30,1.42,0,3.473,-1.945,-2.867,6.006,-0.006,-0.013,0.000,0.000,0.000,0.000
17087,0.2934,-0.7343,0.3037,0.0934,-0.0036,0.0046,-0.70,0.56,1.72,0,3.468,-1.005,-0.259,6.950,-0.001,-0.014,0.000,0.000,0.000,0.000
17138,0.2989,-0.7357,0.3050,0.0910,-0.0004,0.0149,-0.75,0.57,2.05,0,3.473,-0.586,2.135,5.612,-0.002,-0.012,0.000,0.000,0.000,0.000
17188,0.3024,-0.7369,0.3041,0.0871,0.0015,0.0103,-0.74,0.44,2.37,0,3.468,-3.372,0.534,5.849,-0.002,-0.009,0.000,0.000,0.000,0.000
17240,0.3065,-0.7384,0.3070,0.0830,0.0039,0.0251,-0.93,0.29,2.67,0,3.479,-2.806,1.259,3.877,0.001,-0.011,0.000,0.000,0.000,0.000
17291,0.3104,-0.7381,0.3090,0.0797,0.0117,0.0309,-1.12,0.14,2.89,0,3.479,0.918,1.929,1.475,-0.001,-0.012,0.000,0.000,0.000,0.000
17342,0.3156,-0.7376,0.3088,0.0810,0.0201,0.0207,-1.06,0.07,3.02,0,3.479,1.615,-3.738,-1.124,-0.001,-0.017,0.000,0.000,0.000,0.000
17392,0.3205,-0.7336,0.3094,0.0826,0.0370,0.0164,-0.98,0.14,3.00,0,3.473,-2.583,-3.273,-1.863,-0.003,-0.012,0.000,0.000,0.000,0.000
17444,0.3242,-0.7361,0.3085,0.0802,0.0351,0.0062,-1.16,0.27,2.94,0,3.473,4.755,-4.723,-1.920,-0.004,-0.011,0.000,0.000,0.000,0.000
17495,0.3296,-0.7301,0.3080,0.0809,0.0547,0.0029,-0.97,0.48,2.85,0,3.468,4.872,-1.903,-0.928,-0.005,-0.012,0.000,0.000,0.000,0.000
17545,0.3334,-0.7295,0.3085,0.0758,0.0571,0.0048,-0.64,0.62,2.78,0,3.473,0.251,-0.596,-0.771,-0.008,-0.011,0.000,0.000,0.000,0.000
17597,0.3366,-0.7294,0.3076,0.0691,0.0555,-0.0007,-0.57,0.62,2.74,0,3.468,5.651,0.234,-0.689,0.000,-0.011,0.000,0.000,0.000,0.000
17648,0.3423,-0.7198,0.3078,0.0690,0.0753,0.0018,-0.31,0.64,2.68,0,3.468,7.247,0.491,-1.206,0.002,-0.018,0.000,0.000,0.000,0.000
17699,0.3430,-0.7186,0.3075,0.0573,0.0717,0.0031,0.09,0.65,2.65,0,3.468,3.242,0.979,-0.853,0.001,-0.015,0.000,0.000,0.000,0.000
17749,0.3455,-0.7125,0.3083,0.0513,0.0768,0.0087,0.24,0.59,2.62,0,3.473,-2.109,1.275,-3.017,-0.000,-0.016,0.000,0.000,0.000,0.000
17800,0.3480,-0.7109,0.3093,0.0465,0.0697,0.0140,0.15,0.56,2.50,0,3.468,-1.459,0.734,-3.363,0.003,-0.011,0.000,0.000,0.000,0.000
17852,0.3514,-0.7072,0.3097,0.0443,0.0687,0.0143,-0.00,0.54,2.34,0,3.473,-1.809,0.904,-4.654,0.000,-0.011,0.000,0.000,0.000,0.000
17903,0.3539,-0.7046,0.3103,0.0408,0.0666,0.0148,-0.01,0.51,2.12,0,3.468,-1.193,1.765,-4.276,0.002,-0.013,0.000,0.000,0.000,0.000
17953,0.3559,-0.7013,0.3111,0.0365,0.0665,0.0152,-0.10,0.46,1.89,0,3.473,-2.807,-2.169,-3.231,0.000,-0.004,0.000,0.000,0.000,0.000
18005,0.3625,-0.6882,0.3123,0.0437,0.0895,0.0177,-0.38,0.41,1.70,0,3.468,6.575,-0.267,-5.437,0.002,-0.012,0.000,0.000,0.000,0.000
18055,0.3648,-0.6848,0.3132,0.0405,0.0897,0.0167,-0.12,0.40,1.46,0,3.473,4.521,-1.600,-6.253,0.005,-0.014,0.000,0.000,0.000,0.000
18107,0.3657,-0.6803,0.3118,0.0347,0.0907,0.0047,0.17,0.48,1.19,0,3.463,4.108,3.847,-6.457,0.005,-0.010,0.000,0.000,0.000,0.000
18157,0.3721,-0.6638,0.3129,0.0406,0.1145,0.0079,0.16,0.29,0.90,0,3.468,6.590,-0.655,-5.324,0.000,-0.013,0.000,0.000,0.000,0.000
18209,0.3710,-0.6626,0.3110,0.0318,0.1035,-0.0041,0.49,0.29,0.62,0,3.463,-1.332,-0.754,-3.774,0.002,-0.012,0.000,0.000,0.000,0.000
18259,0.3693,-0.6636,0.3109,0.0227,0.0869,-0.0038,0.68,0.33,0.40,0,3.468,-4.488,3.221,-2.787,0.003,-0.012,0.000,0.000,0.000,0.000
18310,0.3748,-0.6536,0.3104,0.0288,0.0926,-0.0046,0.45,0.21,0.23,0,3.463,-2.486,-2.305,-3.158,0.001,-0.012,0.000,0.000,0.000,0.000
18362,0.3735,-0.6560,0.3093,0.0214,0.0748,-0.0073,0.35,0.33,0.09,0,3.468,-3.031,-2.127,-1.097,0.004,-0.013,0.000,0.000,0.000,0.000
18412,0.3753,-0.6536,0.3086,0.0202,0.0693,-0.0068,0.25,0.41,0.00,0,3.463,-6.994,1.595,-0.661,0.002,-0.012,0.000,0.000,0.000,0.000
18463,0.3779,-0.6542,0.3090,0.0201,0.0598,0.0002,-0.05,0.34,-0.06,0,3.468,-4.683,-1.338,-0.669,0.005,-0.007,0.000,0.000,0.000,0.000
18515,0.3785,-0.6534,0.3095,0.0164,0.0560,0.0068,-0.26,0.36,-0.08,0,3.468,-0.684,-0.145,0.883,0.004,-0.009,0.000,0.000,0.000,0.000
18566,0.3792,-0.6505,0.3100,0.0133,0.0583,0.0107,-0.35,0.38,-0.05,0,3.468,-0.722,-0.344,1.587,0.004,-0.009,0.000,0.000,0.000,0.000
18617,0.3811,-0.6492,0.3103,0.0123,0.0582,0.0113,-0.37,0.41,0.03,0,3.468,1.324,-0.134,1.288,0.004,-0.008,0.000,0.000,0.000,0.000
18668,0.3791,-0.6494,0.3106,0.0040,0.0554,0.0101,-0.36,0.45,0.11,0,3.468,-1.417,0.705,0.998,0.007,-0.012,0.000,0.000,0.000,0.000
18719,0.3760,-0.6494,0.3106,-0.0055,0.0534,0.0069,-0.32,0.42,0.15,0,3.463,-3.053,3.218,0.884,0.003,-0.010,0.000,0.000,0.000,0.000
18769,0.3778,-0.6425,0.3097,-0.0051,0.0637,0.0002,-0.38,0.22,0.16,0,3.463,0.603,-0.946,1.290,0.002,-0.011,0.000,0.000,0.000,0.000
18821,0.3785,-0.6368,0.3090,-0.0051,0.0713,-0.0033,-0.36,0.21,0.21,0,3.463,5.824,-0.728,0.919,0.004,-0.010,0.000,0.000,0.000,0.000
18871,0.3751,-0.6365,0.3085,-0.0123,0.0686,-0.0052,-0.12,0.26,0.28,0,3.463,4.827,-0.667,0.354,0.005,-0.009,0.000,0.000,0.000,0.000
18923,0.3719,-0.6399,0.3081,-0.0190,0.0578,-0.0039,-0.05,0.29,0.34,0,3.463,0.427,2.207,1.548,-0.003,-0.008,0.000,0.000,0.000,0.000
18974,0.3769,-0.6234,0.3084,-0.0114,0.0810,0.0001,0.04,0.19,0.40,0,3.463,6.667,-3.537,0.947,0.004,-0.013,0.000,0.000,0.000,0.000
19025,0.3728,-0.6272,0.3091,-0.0192,0.0667,0.0048,0.29,0.37,0.46,0,3.457,3.959,-2.700,0.601,0.002,-0.013,0.000,0.000,0.000,0.000
19076,0.3742,-0.6160,0.3084,-0.0181,0.0784,0.0010,0.32,0.48,0.51,0,3.463,4.287,-0.689,1.196,0.003,-0.009,0.000,0.000,0.000,0.000
19126,0.3751,-0.6116,0.3083,-0.0194,0.0765,0.0006,0.39,0.53,0.60,0,3.457,4.900,1.174,1.547,0.002,-0.009,0.000,0.000,0.000,0.000
19178,0.3701,-0.6123,0.3082,-0.0309,0.0650,0.0005,0.62,0.53,0.69,0,3.457,-2.047,1.165,0.589,0.001,-0.010,0.000,0.000,0.000,0.000
19228,0.3674,-0.6111,0.3081,-0.0373,0.0563,-0.0000,0.54,0.47,0.75,0,3.457,-3.467,-1.634,1.078,0.007,-0.012,0.000,0.000,0.000,0.000
19279,0.3652,-0.6093,0.3072,-0.0419,0.0500,-0.0038,0.40,0.49,0.83,0,3.463,-0.834,2.905,0.068,0.003,-0.012,0.000,0.000,0.000,0.000
19330,0.3622,-0.6093,0.3070,-0.0475,0.0419,-0.0017,0.34,0.52,0.81,0,3.452,-5.265,0.616,-1.373,0.004,-0.016,0.000,0.000,0.000,0.000
19382,0.3589,-0.6104,0.3079,-0.0533,0.0333,0.0056,0.22,0.53,0.76,0,3.457,-7.557,-7.198,-3.282,0.006,-0.009,0.000,0.000,0.000,0.000
19432,0.3551,-0.6118,0.3073,-0.0603,0.0262,0.0063,-0.17,0.79,0.60,0,3.457,-3.996,0.706,-3.855,0.005,-0.011,0.000,0.000,0.000,0.000
19484,0.3534,-0.6130,0.3066,-0.0648,0.0231,0.0057,-0.38,0.87,0.39,0,3.457,1.503,2.071,-4.206,0.005,-0.013,0.000,0.000,0.000,0.000
19534,0.3517,-0.6136,0.3084,-0.0686,0.0227,0.0176,-0.37,0.69,0.18,0,3.457,-3.793,3.153,-2.686,0.006,-0.013,0.000,0.000,0.000,0.000
19586,0.3476,-0.6139,0.3093,-0.0753,0.0231,0.0212,-0.45,0.56,0.00,0,3.463,-0.504,0.877,-3.340,0.003,-0.010,0.000,0.000,0.000,0.000
19636,0.3421,-0.6132,0.3099,-0.0832,0.0262,0.0218,-0.59,0.50,-0.17,0,3.457,3.439,2.413,-4.148,0.004,-0.010,0.000,0.000,0.000,0.000
19688,0.3358,-0.6196,0.3103,-0.0918,0.0147,0.0199,-0.41,0.42,-0.36,0,3.463,2.163,2.381,-3.015,0.001,-0.011,0.000,0.000,0.000,0.000
19738,0.3373,-0.6129,0.3113,-0.0828,0.0299,0.0202,-0.40,0.27,-0.54,0,3.457,3.817,0.917,-2.626,0.005,-0.007,0.000,0.000,0.000,0.000
19789,0.3356,-0.6087,0.3118,-0.0797,0.0387,0.0178,-0.36,0.22,-0.64,0,3.463,7.479,-2.955,-1.753,0.002,-0.011,0.000,0.000,0.000,0.000
19841,0.3300,-0.6108,0.3125,-0.0850,0.0328,0.0180,-0.03,0.34,-0.72,0,3.457,2.216,1.428,-0.718,0.004,-0.011,0.000,0.000,0.000,0.000
19891,0.3239,-0.6105,0.3124,-0.0918,0.0298,0.0133,0.18,0.34,-0.78,0,3.463,-0.001,4.151,-1.327,0.004,-0.013,0.000,0.000,0.000,0.000
19943,0.3174,-0.6143,0.3127,-0.0984,0.0166,0.0105,0.21,0.09,-0.87,0,3.457,0.606,-1.385,-2.648,0.006,-0.012,0.000,0.000,0.000,0.000
19993,0.3164,-0.6120,0.3118,-0.0915,0.0170,0.0027,0.28,0.07,-0.97,0,3.457,1.735,-2.705,-3.060,0.003,-0.007,0.000,0.000,0.000,0.000
20044,0.3145,-0.6089,0.3120,-0.0867,0.0192,0.0029,0.36,0.18,-1.14,0,3.452,-0.682,-0.086,-3.992,0.002,-0.009,0.000,0.000,0.000,0.000
20096,0.3115,-0.6072,0.3130,-0.0855,0.0180,0.0090,0.27,0.25,-1.33,0,3.457,-1.452,1.254,-3.258,0.007,-0.010,0.000,0.000,0.000,0.000
20147,0.3093,-0.6040,0.3138,-0.0829,0.0210,0.0126,0.30,0.19,-1.49,0,3.457,3.674,2.129,-3.934,0.006,-0.009,0.000,0.000,0.000,0.000
20198,0.3058,-0.6080,0.3134,-0.0831,0.0072,0.0081,0.42,0.14,-1.66,0,3.457,1.536,0.779,-4.643,0.006,-0.013,0.000,0.000,0.000,0.000
20249,0.3027,-0.6044,0.3135,-0.0819,0.0110,0.0060,0.43,0.14,-1.85,0,3.452,-1.616,-2.736,-3.823,0.001,-0.010,0.000,0.000,0.000,0.000
20300,0.2989,-0.6040,0.3139,-0.0825,0.0074,0.0062,0.42,0.19,-2.04,0,3.457,2.645,-0.775,-3.977,0.001,-0.011,0.000,0.000,0.000,0.000
20351,0.2966,-0.6019,0.3133,-0.0800,0.0079,0.0007,0.47,0.17,-2.23,0,3.457,4.439,1.280,-4.408,0.007,-0.011,0.000,0.000,0.000,0.000
20402,0.2918,-0.6009,0.3119,-0.0834,0.0053,-0.0064,0.57,0.22,-2.44,0,3.452,1.549,-0.651,-2.956,0.005,-0.013,0.000,0.000,0.000,0.000
20452,0.2866,-0.6034,0.3104,-0.0881,-0.0057,-0.0115,0.64,0.35,-2.61,0,3.452,0.931,-0.436,-2.514,0.002,-0.009,0.000,0.000,0.000,0.000
20504,0.2854,-0.6008,0.3108,-0.0834,-0.0036,-0.0045,0.67,0.36,-2.72,0,3.457,-0.398,-3.070,-1.410,0.004,-0.007,0.000,0.000,0.000,0.000
20554,0.2798,-0.6039,0.3130,-0.0894,-0.0149,0.0112,0.63,0.40,-2.78,0,3.457,-1.568,0.595,-0.786,0.001,-0.011,0.000,0.000,0.000,0.000
20605,0.2779,-0.6038,0.3134,-0.0868,-0.0166,0.0127,0.51,0.42,-2.83,0,3.457,-2.778,-1.846,-0.522,0.008,-0.008,0.000,0.000,0.000,0.000
20656,0.2720,-0.6101,0.3136,-0.0938,-0.0325,0.0102,0.40,0.45,-2.84,0,3.457,-3.235,1.534,0.323,0.007,-0.012,0.000,0.000,0.000,0.000
20708,0.2677,-0.6110,0.3128,-0.0969,-0.0336,0.0025,0.29,0.46,-2.86,0,3.457,-5.027,-0.800,0.932,0.005,-0.005,0.000,0.000,0.000,0.000
20759,0.2603,-0.6175,0.3138,-0.1065,-0.0476,0.0058,0.23,0.43,-2.85,0,3.452,-1.615,-0.701,0.990,0.002,-0.006,0.000,0.000,0.000,0.000
20809,0.2573,-0.6213,0.3141,-0.1049,-0.0529,0.0044,0.20,0.37,-2.83,0,3.457,-1.578,1.027,0.962,0.007,-0.012,0.000,0.000,0.000,0.000
20860,0.2544,-0.6217,0.3142,-0.1019,-0.0492,0.0034,0.10,0.30,-2.79,0,3.452,-3.140,-1.026,0.660,0.011,-0.007,0.000,0.000,0.000,0.000
20912,0.2491,-0.6215,0.3129,-0.1050,-0.0433,-0.0054,-0.01,0.27,-2.75,0,3.452,1.778,-0.214,0.808,0.006,-0.009,0.000,0.000,0.000,0.000
20962,0.2482,-0.6179,0.3119,-0.0968,-0.0294,-0.0092,0.08,0.24,-2.71,0,3.452,1.367,-2.497,1.565,0.004,-0.009,0.000,0.000,0.000,0.000
21013,0.2443,-0.6248,0.3103,-0.0964,-0.0422,-0.0144,0.20,0.24,-2.66,0,3.452,3.850,-3.773,-0.022,0.007,-0.008,0.000,0.000,0.000,0.000
21064,0.2407,-0.6260,0.3098,-0.0959,-0.0416,-0.0106,0.29,0.45,-2.64,0,3.447,-3.416,-4.334,1.038,0.006,-0.011,0.000,0.000,0.000,0.000
21116,0.2360,-0.6271,0.3083,-0.0998,-0.0412,-0.0131,0.13,0.65,-2.62,0,3.452,0.669,-1.219,-1.126,0.003,-0.010,0.000,0.000,0.000,0.000
21166,0.2335,-0.6244,0.3069,-0.0992,-0.0310,-0.0133,0.27,0.66,-2.66,0,3.452,1.185,-1.775,0.860,0.006,-0.010,0.000,0.000,0.000,0.000
21218,0.2284,-0.6307,0.3053,-0.1049,-0.0438,-0.0151,0.38,0.70,-2.67,0,3.447,-2.572,-1.386,2.145,0.006,-0.011,0.000,0.000,0.000,0.000
21269,0.2234,-0.6307,0.3052,-0.1101,-0.0417,-0.0085,0.34,0.65,-2.61,0,3.447,2.163,2.248,1.482,0.005,-0.007,0.000,0.000,0.000,0.000
21320,0.2180,-0.6338,0.3023,-0.1157,-0.0475,-0.0156,0.47,0.60,-2.53,0,3.447,3.002,1.045,3.298,0.007,-0.012,0.000,0.000,0.000,0.000
21371,0.2126,-0.6317,0.3027,-0.1198,-0.0404,-0.0045,0.49,0.57,-2.38,0,3.447,-4.618,0.856,3.432,0.008,-0.009,0.000,0.000,0.000,0.000
21422,0.2076,-0.6347,0.3028,-0.1220,-0.0466,0.0019,0.48,0.42,-2.21,0,3.452,1.298,3.894,2.960,0.005,-0.008,0.000,0.000,0.000,0.000
21472,0.2024,-0.6374,0.3021,-0.1233,-0.0518,0.0033,0.53,0.25,-2.05,0,3.447,-0.441,0.278,1.893,0.007,-0.009,0.000,0.000,0.000,0.000
21524,0.1944,-0.6413,0.3032,-0.1300,-0.0592,0.0113,0.55,0.31,-1.93,0,3.452,-2.458,1.416,2.616,0.008,-0.008,0.000,0.000,0.000,0.000
21575,0.1879,-0.6527,0.3026,-0.1328,-0.0854,0.0088,0.48,0.23,-1.82,0,3.452,-1.324,5.359,1.511,0.009,-0.011,0.000,0.000,0.000,0.000
21626,0.1801,-0.6578,0.3036,-0.1374,-0.0911,0.0136,0.36,0.10,-1.73,0,3.452,-8.528,2.811,1.543,0.008,-0.012,0.000,0.000,0.000,0.000
21677,0.1742,-0.6561,0.3029,-0.1356,-0.0781,0.0082,-0.14,-0.09,-1.65,0,3.447,3.205,2.011,2.658,0.008,-0.008,0.000,0.000,0.000,0.000
21728,0.1696,-0.6588,0.3037,-0.1294,-0.0743,0.0105,-0.17,-0.24,-1.54,0,3.452,0.388,1.468,2.044,0.010,-0.011,0.000,0.000,0.000,0.000
21778,0.1664,-0.6550,0.3042,-0.1197,-0.0543,0.0101,-0.16,-0.28,-1.42,0,3.447,4.056,-2.504,3.032,0.006,-0.009,0.000,0.000,0.000,0.000
21830,0.1594,-0.6617,0.3036,-0.1195,-0.0622,0.0038,-0.08,-0.18,-1.28,0,3.447,0.888,-1.404,3.406,0.007,-0.005,0.000,0.000,0.000,0.000
21881,0.1543,-0.6602,0.3034,-0.1159,-0.0499,0.0007,-0.01,-0.12,-1.11,0,3.447,3.150,-2.414,3.816,0.006,-0.008,0.000,0.000,0.000,0.000
21932,0.1476,-0.6666,0.3024,-0.1203,-0.0607,-0.0049,0.10,-0.02,-0.92,0,3.447,0.710,-1.206,4.187,0.009,-0.010,0.000,0.000,0.000,0.000
21982,0.1411,-0.6677,0.3021,-0.1212,-0.0567,-0.0055,0.14,0.03,-0.72,0,3.447,0.952,-0.457,4.893,0.008,-0.007,0.000,0.000,0.000,0.000
22034,0.1353,-0.6718,0.3031,-0.1211,-0.0611,0.0017,0.20,0.06,-0.51,0,3.447,-1.362,1.541,4.570,0.007,-0.008,0.000,0.000,0.000,0.000
22085,0.1293,-0.6725,0.3027,-0.1215,-0.0570,-0.0012,0.15,-0.01,-0.32,0,3.447,2.686,-0.098,3.887,0.009,-0.006,0.000,0.000,0.000,0.000
22136,0.1246,-0.6756,0.3015,-0.1183,-0.0589,-0.0067,0.26,-0.02,-0.10,0,3.447,-1.661,-1.881,3.454,0.011,-0.006,0.000,0.000,0.000,0.000
22187,0.1197,-0.6765,0.3011,-0.1158,-0.0561,-0.0062,0.22,0.02,0.06,0,3.447,1.892,-2.121,2.841,0.010,-0.009,0.000,0.000,0.000,0.000
22238,0.1149,-0.6799,0.3013,-0.1133,-0.0596,-0.0023,0.26,0.08,0.24,0,3.442,-1.736,-0.604,1.658,0.008,-0.009,0.000,0.000,0.000,0.000
22289,0.1087,-0.6808,0.3020,-0.1151,-0.0562,0.0031,0.12,0.10,0.34,0,3.447,-3.760,0.321,1.711,0.008,-0.007,0.000,0.000,0.000,0.000
22340,0.1010,-0.6854,0.3030,-0.1208,-0.0617,0.0081,-0.03,0.14,0.43,0,3.447,1.336,-0.726,1.431,0.006,-0.008,0.000,0.000,0.000,0.000
22391,0.0949,-0.6869,0.3032,-0.1221,-0.0574,0.0087,-0.08,0.13,0.49,0,3.447,-0.708,1.797,1.254,0.008,-0.009,0.000,0.000,0.000,0.000
22441,0.0905,-0.6890,0.3026,-0.1190,-0.0553,0.0033,-0.07,0.04,0.56,0,3.447,0.029,0.689,1.354,0.011,-0.006,0.000,0.000,0.000,0.000
22493,0.0839,-0.6904,0.3020,-0.1211,-0.0514,-0.0005,-0.11,0.00,0.63,0,3.447,2.934,0.187,1.320,0.008,-0.006,0.000,0.000,0.000,0.000
22543,0.0790,-0.6914,0.3016,-0.1186,-0.0472,-0.0024,-0.03,0.02,0.71,0,3.447,-1.279,3.445,1.036,0.010,-0.009,0.000,0.000,0.000,0.000
22594,0.0744,-0.6928,0.2995,-0.1154,-0.0444,-0.0116,-0.09,-0.15,0.76,0,3.442,2.367,-2.674,2.516,0.007,-0.009,0.000,0.000,0.000,0.000
22645,0.0689,-0.6943,0.2977,-0.1137,-0.0424,-0.0172,0.01,-0.11,0.85,0,3.442,0.676,-4.373,2.140,0.009,-0.011,0.000,0.000,0.000,0.000
22697,0.0618,-0.6973,0.2974,-0.1164,-0.0445,-0.0112,0.03,0.01,0.96,0,3.436,-1.000,2.670,2.956,0.006,-0.008,0.000,0.000,0.000,0.000
22748,0.0573,-0.6957,0.2974,-0.1132,-0.0352,-0.0045,-0.01,-0.04,1.10,0,3.442,3.033,2.363,1.897,0.006,-0.008,0.000,0.000,0.000,0.000
22798,0.0512,-0.7004,0.2976,-0.1136,-0.0423,0.0023,0.05,-0.22,1.21,0,3.442,-2.493,-2.435,2.413,0.006,-0.009,0.000,0.000,0.000,0.000
22850,0.0481,-0.6994,0.2979,-0.1064,-0.0358,0.0058,0.02,-0.07,1.32,0,3.442,-3.212,-1.409,0.758,0.008,-0.009,0.000,0.000,0.000,0.000
22900,0.0442,-0.7024,0.2973,-0.1024,-0.0388,0.0034,-0.17,-0.00,1.41,0,3.436,2.759,-0.167,1.823,0.007,-0.009,0.000,0.000,0.000,0.000
22952,0.0387,-0.7032,0.2986,-0.1035,-0.0349,0.0115,-0.15,0.07,1.49,0,3.442,-0.497,2.169,1.013,0.009,-0.011,0.000,0.000,0.000,0.000
23003,0.0342,-0.7060,0.2991,-0.1025,-0.0364,0.0138,-0.21,-0.02,1.56,0,3.442,0.351,1.845,2.066,0.006,-0.009,0.000,0.000,0.000,0.000
23053,0.0293,-0.7062,0.3000,-0.1024,-0.0319,0.0158,-0.11,0.01,1.64,0,3.447,1.215,0.911,1.227,0.007,-0.005,0.000,0.000,0.000,0.000
23105,0.0241,-0.7094,0.3000,-0.1028,-0.0353,0.0123,0.00,-0.07,1.72,0,3.442,2.722,0.052,0.886,0.004,-0.007,0.000,0.000,0.000,0.000
23155,0.0183,-0.7097,0.3004,-0.1038,-0.0313,0.0095,-0.01,-0.15,1.80,0,3.447,-3.528,-0.993,2.123,0.007,-0.007,0.000,0.000,0.000,0.000
23207,0.0122,-0.7126,0.3000,-0.1049,-0.0345,0.0041,-0.17,-0.24,1.89,0,3.442,-0.641,-3.861,0.268,0.009,-0.009,0.000,0.000,0.000,0.000
23257,0.0072,-0.7141,0.3006,-0.1022,-0.0327,0.0050,-0.22,-0.20,1.94,0,3.442,-4.502,2.290,-0.419,0.004,-0.007,0.000,0.000,0.000,0.000
23308,0.0013,-0.7154,0.2991,-0.1026,-0.0299,-0.0040,-0.37,-0.27,1.94,0,3.436,-0.909,2.657,-0.608,0.006,-0.011,0.000,0.000,0.000,0.000
23360,-0.0030,-0.7184,0.2985,-0.0984,-0.0308,-0.0048,-0.39,-0.36,1.90,0,3.442,-0.288,0.324,-0.018,0.008,-0.010,0.000,0.000,0.000,0.000
23410,-0.0073,-0.7183,0.2987,-0.0944,-0.0235,-0.0005,-0.49,-0.35,1.88,0,3.442,2.182,-1.469,-0.622,0.006,-0.010,0.000,0.000,0.000,0.000
23461,-0.0114,-0.7198,0.2980,-0.0899,-0.0205,-0.0016,-0.45,-0.28,1.83,0,3.442,0.067,2.264,-1.223,0.009,-0.009,0.000,0.000,0.000,0.000
23513,-0.0159,-0.7187,0.2975,-0.0876,-0.0110,-0.0012,-0.45,-0.33,1.75,0,3.436,-1.529,1.729,-2.149,0.010,-0.010,0.000,0.000,0.000,0.000
23564,-0.0216,-0.7207,0.2969,-0.0884,-0.0109,-0.0010,-0.45,-0.31,1.64,0,3.442,-1.935,1.234,-2.494,0.006,-0.012,0.000,0.000,0.000,0.000
23614,-0.0256,-0.7208,0.2961,-0.0850,-0.0061,-0.0017,-0.53,-0.27,1.53,0,3.436,0.414,-0.671,-3.888,0.009,-0.010,0.000,0.000,0.000,0.000
23665,-0.0307,-0.7213,0.2957,-0.0854,-0.0022,0.0001,-0.54,-0.15,1.36,0,3.436,-1.054,-0.866,-2.578,0.003,-0.011,0.000,0.000,0.000,0.000
23717,-0.0358,-0.7199,0.2950,-0.0861,0.0062,0.0012,-0.55,-0.18,1.18,0,3.436,-1.460,1.604,-3.559,0.004,-0.011,0.000,0.000,0.000,0.000
23768,-0.0407,-0.7201,0.2947,-0.0864,0.0095,0.0046,-0.58,-0.20,1.01,0,3.442,3.606,-1.671,-3.686,0.006,-0.011,0.000,0.000,0.000,0.000
23818,-0.0432,-0.7192,0.2925,-0.0802,0.0153,-0.0037,-0.50,-0.18,0.84,0,3.431,-4.045,2.761,-2.660,0.009,-0.011,0.000,0.000,0.000,0.000
23870,-0.0462,-0.7186,0.2918,-0.0760,0.0190,-0.0019,-0.52,-0.24,0.70,0,3.436,0.397,-0.195,-3.383,0.005,-0.011,0.000,0.000,0.000,0.000
23920,-0.0509,-0.7181,0.2928,-0.0762,0.0224,0.0086,-0.58,-0.21,0.56,0,3.431,2.714,1.176,-3.184,0.005,-0.009,0.000,0.000,0.000,0.000
23972,-0.0541,-0.7149,0.2933,-0.0732,0.0326,0.0143,-0.54,-0.21,0.41,0,3.436,0.829,1.920,-2.857,0.009,-0.010,0.000,0.000,0.000,0.000
24023,-0.0573,-0.7158,0.2937,-0.0702,0.0310,0.0188,-0.48,-0.34,0.28,0,3.436,1.511,2.660,-3.100,0.005,-0.008,0.000,0.000,0.000,0.000
24074,-0.0605,-0.7149,0.2954,-0.0668,0.0332,0.0258,-0.43,-0.41,0.14,0,3.436,-4.627,-0.293,-2.924,0.004,-0.009,0.000,0.000,0.000,0.000
24125,-0.0636,-0.7123,0.2974,-0.0629,0.0396,0.0311,-0.62,-0.41,0.05,0,3.436,2.523,-0.305,-1.060,0.005,-0.010,0.000,0.000,0.000,0.000
24175,-0.0661,-0.7111,0.2983,-0.0578,0.0424,0.0277,-0.50,-0.40,-0.06,0,3.442,-0.160,0.066,-0.033,0.003,-0.013,0.000,0.000,0.000,0.000
24226,-0.0700,-0.7114,0.2995,-0.0572,0.0399,0.0261,-0.38,-0.35,-0.10,0,3.436,-2.897,2.790,0.261,0.005,-0.009,0.000,0.000,0.000,0.000
24278,-0.0719,-0.7045,0.3023,-0.0517,0.0554,0.0311,-0.48,-0.47,-0.12,0,3.442,1.585,-0.182,0.166,0.009,-0.009,0.000,0.000,0.000,0.000
24329,-0.0736,-0.7007,0.3031,-0.0460,0.0617,0.0238,-0.48,-0.46,-0.10,0,3.442,5.072,-1.426,1.478,0.007,-0.012,0.000,0.000,0.000,0.000
24380,-0.0764,-0.7000,0.3033,-0.0437,0.0595,0.0151,-0.23,-0.37,-0.04,0,3.436,2.333,1.349,1.701,0.005,-0.011,0.000,0.000,0.000,0.000
24431,-0.0766,-0.6927,0.3027,-0.0360,0.0719,0.0047,-0.18,-0.40,0.05,0,3.436,-0.186,-1.271,1.648,0.006,-0.011,0.000,0.000,0.000,0.000
24481,-0.0793,-0.6901,0.3047,-0.0349,0.0708,0.0101,-0.15,-0.35,0.17,0,3.442,1.912,-2.085,1.352,0.004,-0.008,0.000,0.000,0.000,0.000
24533,-0.0814,-0.6878,0.3064,-0.0327,0.0692,0.0146,-0.07,-0.25,0.23,0,3.447,-2.100,0.424,2.719,0.004,-0.014,0.000,0.000,0.000,0.000
24583,-0.0822,-0.6804,0.3067,-0.0287,0.0795,0.0103,-0.16,-0.29,0.35,0,3.442,1.948,-0.731,2.727,0.002,-0.013,0.000,0.000,0.000,0.000
24635,-0.0833,-0.6754,0.3066,-0.0258,0.0832,0.0044,-0.13,-0.28,0.45,0,3.442,2.886,-0.080,1.889,0.004,-0.015,0.000,0.000,0.000,0.000
24686,-0.0863,-0.6744,0.3047,-0.0276,0.0764,-0.0098,0.07,-0.19,0.58,0,3.436,-2.385,3.048,1.949,0.004,-0.014,0.000,0.000,0.000,0.000
24736,-0.0860,-0.6684,0.3053,-0.0220,0.0813,-0.0061,0.02,-0.25,0.70,0,3.436,0.701,-1.420,1.210,0.003,-0.006,0.000,0.000,0.000,0.000
24787,-0.0866,-0.6618,0.3045,-0.0189,0.0872,-0.0095,-0.10,-0.25,0.79,0,3.436,6.549,-2.590,0.322,0.002,-0.010,0.000,0.000,0.000,0.000
24839,-0.0900,-0.6596,0.3040,-0.0224,0.0833,-0.0096,0.08,-0.17,0.83,0,3.431,-0.005,5.415,-0.691,0.004,-0.016,0.000,0.000,0.000,0.000
24890,-0.0901,-0.6505,0.3028,-0.0186,0.0939,-0.0130,0.01,-0.30,0.82,0,3.431,0.289,0.892,-0.865,0.004,-0.010,0.000,0.000,0.000,0.000
24941,-0.0916,-0.6458,0.3008,-0.0173,0.0938,-0.0178,-0.01,-0.30,0.80,0,3.431,4.071,-1.357,-0.037,0.004,-0.008,0.000,0.000,0.000,0.000
24992,-0.0942,-0.6437,0.3004,-0.0189,0.0878,-0.0116,0.19,-0.21,0.78,0,3.431,0.757,3.762,-0.392,0.007,-0.011,0.000,0.000,0.000,0.000
25043,-0.0940,-0.6372,0.2986,-0.0144,0.0907,-0.0137,0.27,-0.35,0.75,0,3.426,-1.718,0.305,-1.232,0.004,-0.009,0.000,0.000,0.000,0.000
25093,-0.0954,-0.6328,0.2967,-0.0124,0.0893,-0.0159,0.14,-0.43,0.72,0,3.426,-3.329,0.211,-0.039,0.006,-0.011,0.000,0.000,0.000,0.000
25145,-0.0944,-0.6286,0.2942,-0.0051,0.0877,-0.0181,0.09,-0.42,0.70,0,3.421,3.325,1.285,-0.276,0.006,-0.009,0.000,0.000,0.000,0.000
25195,-0.0956,-0.6288,0.2950,-0.0035,0.0775,-0.0028,0.19,-0.42,0.71,0,3.431,-0.956,0.328,-0.048,0.004,-0.013,0.000,0.000,0.000,0.000
25246,-0.0976,-0.6281,0.2960,-0.0039,0.0693,0.0095,0.17,-0.44,0.70,0,3.431,-3.304,0.855,-0.280,0.000,-0.012,0.000,0.000,0.000,0.000
25297,-0.0977,-0.6247,0.2973,0.0001,0.0682,0.0197,0.01,-0.50,0.69,0,3.431,-0.713,0.027,-0.619,0.002,-0.005,0.000,0.000,0.000,0.000
25349,-0.0976,-0.6213,0.2979,0.0044,0.0683,0.0217,-0.05,-0.51,0.67,0,3.431,-0.252,0.389,-0.122,0.006,-0.007,0.000,0.000,0.000,0.000
25400,-0.0972,-0.6179,0.2978,0.0088,0.0689,0.0178,-0.10,-0.55,0.67,0,3.431,1.646,0.856,0.224,0.000,-0.007,0.000,0.000,0.000,0.000
25450,-0.0967,-0.6144,0.2976,0.0135,0.0697,0.0132,-0.06,-0.57,0.68,0,3.431,0.537,-0.458,0.324,0.003,-0.013,0.000,0.000,0.000,0.000
25501,-0.0959,-0.6109,0.2969,0.0183,0.0701,0.0072,-0.00,-0.53,0.69,0,3.431,-0.462,-0.825,0.581,0.002,-0.011,0.000,0.000,0.000,0.000
25553,-0.0935,-0.6097,0.2968,0.0254,0.0658,0.0055,0.01,-0.51,0.73,0,3.431,0.518,-0.405,0.716,0.001,-0.007,0.000,0.000,0.000,0.000
25603,-0.0921,-0.6063,0.2971,0.0299,0.0658,0.0077,0.03,-0.51,0.76,0,3.431,-1.030,-0.202,0.005,0.004,-0.010,0.000,0.000,0.000,0.000
25654,-0.0877,-0.6101,0.2982,0.0394,0.0528,0.0130,0.07,-0.49,0.78,0,3.431,-1.860,-1.791,-0.143,0.005,-0.012,0.000,0.000,0.000,0.000
25705,-0.0844,-0.6118,0.2968,0.0456,0.0444,0.0031,0.05,-0.43,0.77,0,3.431,-3.909,-2.688,-0.205,0.001,-0.007,0.000,0.000,0.000,0.000
25757,-0.0819,-0.6103,0.2979,0.0495,0.0431,0.0101,-0.13,-0.34,0.75,0,3.426,-0.944,-3.111,-0.444,0.005,-0.010,0.000,0.000,0.000,0.000
25808,-0.0759,-0.6110,0.2979,0.0581,0.0394,0.0102,-0.19,-0.21,0.73,0,3.426,-0.124,-1.483,-0.461,0.002,-0.016,0.000,0.000,0.000,0.000
25858,-0.0694,-0.6112,0.2992,0.0659,0.0371,0.0167,-0.09,-0.12,0.70,0,3.431,-2.650,-2.654,-1.046,0.002,-0.011,0.000,0.000,0.000,0.000
25909,-0.0725,-0.6216,0.2994,0.0561,0.0178,0.0159,-0.20,-0.02,0.64,0,3.431,-4.028,0.287,-1.780,-0.000,-0.007,0.000,0.000,0.000,0.000
25961,-0.0698,-0.6206,0.2998,0.0559,0.0200,0.0157,-0.41,0.02,0.59,0,3.426,0.210,1.615,-1.730,0.006,-0.014,0.000,0.000,0.000,0.000
26012,-0.0642,-0.6060,0.3014,0.0606,0.0473,0.0217,-0.48,-0.04,0.51,0,3.431,3.173,1.822,-2.423,0.005,-0.007,0.000,0.000,0.000,0.000
26063,-0.0662,-0.6074,0.3024,0.0530,0.0459,0.0225,-0.43,-0.16,0.40,0,3.426,1.128,-2.297,-3.873,0.009,-0.011,0.000,0.000,0.000,0.000
26114,-0.0637,-0.6066,0.3017,0.0539,0.0466,0.0149,-0.33,-0.10,0.24,0,3.426,3.433,-2.809,-3.386,0.004,-0.010,0.000,0.000,0.000,0.000
26165,-0.0630,-0.6077,0.3047,0.0510,0.0432,0.0277,-0.21,0.06,0.06,0,3.431,2.048,1.890,-3.654,0.003,-0.010,0.000,0.000,0.000,0.000
26216,-0.0605,-0.6072,0.3050,0.0505,0.0421,0.0232,-0.13,0.00,-0.11,0,3.431,3.877,2.310,-3.573,0.009,-0.011,0.000,0.000,0.000,0.000
26266,-0.0531,-0.5855,0.3066,0.0592,0.0770,0.0265,-0.18,-0.19,-0.26,0,3.431,13.965,1.146,-4.354,0.002,-0.007,0.000,0.000,0.000,0.000
26318,-0.0548,-0.5866,0.3074,0.0527,0.0691,0.0243,0.40,-0.15,-0.46,0,3.431,1.378,1.679,-3.086,0.005,-0.016,0.000,0.000,0.000,0.000
26368,-0.0494,-0.5731,0.3070,0.0590,0.0831,0.0148,0.62,-0.23,-0.62,0,3.426,1.960,5.724,-2.490,0.004,-0.007,0.000,0.000,0.000,0.000
26420,-0.0475,-0.5696,0.3062,0.0593,0.0770,0.0068,0.67,-0.37,-0.74,0,3.426,11.157,-0.908,-1.024,0.006,-0.013,0.000,0.000,0.000,0.000
26470,-0.0472,-0.5682,0.3059,0.0579,0.0670,0.0046,1.05,-0.37,-0.79,0,3.431,4.539,2.457,-0.061,0.007,-0.007,0.000,0.000,0.000,0.000
26522,-0.0454,-0.5652,0.3075,0.0588,0.0571,0.0126,1.27,-0.41,-0.78,0,3.431,3.494,3.654,-0.399,0.006,-0.009,0.000,0.000,0.000,0.000
26573,-0.0421,-0.5647,0.3086,0.0630,0.0421,0.0164,1.32,-0.54,-0.76,0,3.431,-3.018,0.463,0.390,0.002,-0.010,0.000,0.000,0.000,0.000
26623,-0.0388,-0.5637,0.3103,0.0678,0.0294,0.0206,1.23,-0.64,-0.75,0,3.431,-3.721,-0.972,0.355,0.001,-0.004,0.000,0.000,0.000,0.000
26675,-0.0353,-0.5640,0.3102,0.0733,0.0188,0.0149,1.08,-0.57,-0.73,0,3.431,-0.852,-2.361,0.281,0.001,-0.003,0.000,0.000,0.000,0.000
26725,-0.0319,-0.5644,0.3093,0.0773,0.0074,0.0054,1.04,-0.49,-0.70,0,3.431,-3.195,-2.032,0.674,0.003,-0.005,0.000,0.000,0.000,0.000
26777,-0.0285,-0.5636,0.3093,0.0812,0.0013,0.0026,0.80,-0.51,-0.68,0,3.431,-1.564,3.652,-0.075,0.000,-0.005,0.000,0.000,0.000,0.000
26828,-0.0263,-0.5682,0.3101,0.0823,-0.0133,0.0048,0.54,-0.67,-0.65,0,3.431,1.433,3.425,-0.370,0.004,-0.008,0.000,0.000,0.000,0.000
26878,-0.0221,-0.5684,0.3119,0.0878,-0.0172,0.0131,0.53,-0.78,-0.65,0,3.431,0.092,0.067,0.244,-0.001,-0.001,0.000,0.000,0.000,0.000
26929,-0.0222,-0.5849,0.3107,0.0859,-0.0503,0.0017,0.64,-0.72,-0.61,0,3.431,-4.883,0.041,-0.911,0.003,-0.003,0.000,0.000,0.000,0.000
26981,-0.0174,-0.5857,0.3095,0.0925,-0.0523,-0.0077,0.37,-0.64,-0.63,0,3.426,-5.524,-3.411,1.012,-0.001,-0.004,0.000,0.000,0.000,0.000
27032,-0.0148,-0.5932,0.3082,0.0936,-0.0645,-0.0140,0.22,-0.51,-0.58,0,3.426,-1.121,1.335,0.077,0.003,-0.005,0.000,0.000,0.000,0.000
27083,-0.0112,-0.5970,0.3077,0.0960,-0.0671,-0.0124,0.13,-0.54,-0.56,0,3.426,-4.296,0.203,0.829,0.002,-0.001,0.000,0.000,0.000,0.000
27134,-0.0064,-0.5998,0.3074,0.1003,-0.0673,-0.0097,0.02,-0.55,-0.52,0,3.426,-3.132,-4.025,1.184,-0.002,0.001,0.000,0.000,0.000,0.000
27185,-0.0066,-0.6059,0.3053,0.0947,-0.0719,-0.0166,-0.11,-0.37,-0.46,0,3.426,-1.353,2.125,-0.074,-0.001,-0.008,0.000,0.000,0.000,0.000
27235,-0.0030,-0.6091,0.3042,0.0957,-0.0705,-0.0178,-0.20,-0.39,-0.43,0,3.426,2.853,2.189,-1.399,-0.001,-0.002,0.000,0.000,0.000,0.000
27287,-0.0007,-0.6135,0.3032,0.0941,-0.0699,-0.0176,-0.16,-0.47,-0.48,0,3.421,-1.989,-1.825,-0.863,0.004,-0.005,0.000,0.000,0.000,0.000
27337,0.0017,-0.6154,0.3034,0.0933,-0.0647,-0.0104,-0.29,-0.42,-0.51,0,3.426,2.820,-0.733,-1.729,-0.000,-0.009,0.000,0.000,0.000,0.000
27388,0.0050,-0.6183,0.3030,0.0938,-0.0621,-0.0075,-0.14,-0.41,-0.60,0,3.421,1.358,0.844,-2.537,-0.003,-0.006,0.000,0.000,0.000,0.000
27439,0.0096,-0.6157,0.3011,0.0969,-0.0476,-0.0126,-0.10,-0.46,-0.73,0,3.421,0.031,-1.570,-2.037,0.003,-0.010,0.000,0.000,0.000,0.000
27490,0.0137,-0.6193,0.3008,0.0992,-0.0496,-0.0074,0.04,-0.40,-0.87,0,3.415,0.540,-2.877,-1.870,-0.003,-0.008,0.000,0.000,0.000,0.000
27542,0.0194,-0.6171,0.2998,0.1044,-0.0378,-0.0070,0.14,-0.29,-1.00,0,3.421,2.433,4.148,-2.359,-0.003,-0.010,0.000,0.000,0.000,0.000
27592,0.0237,-0.6261,0.2993,0.1045,-0.0556,-0.0036,0.25,-0.40,-1.10,0,3.421,4.659,1.032,-2.843,-0.001,-0.009,0.000,0.000,0.000,0.000
27643,0.0313,-0.6213,0.3013,0.1139,-0.0389,0.0111,0.43,-0.45,-1.20,0,3.426,3.460,-5.923,-2.008,-0.002,-0.012,0.000,0.000,0.000,0.000
27695,0.0348,-0.6250,0.3007,0.1120,-0.0458,0.0077,0.49,-0.32,-1.32,0,3.421,3.291,-0.204,-1.338,0.006,-0.009,0.000,0.000,0.000,0.000
27745,0.0410,-0.6275,0.3011,0.1163,-0.0515,0.0095,0.62,-0.35,-1.40,0,3.426,3.670,-0.037,-1.364,-0.000,-0.014,0.000,0.000,0.000,0.000
27796,0.0482,-0.6282,0.3005,0.1226,-0.0508,0.0057,0.73,-0.38,-1.48,0,3.421,0.786,-3.896,-1.447,-0.002,-0.009,0.000,0.000,0.000,0.000
27847,0.0537,-0.6313,0.3009,0.1234,-0.0589,0.0066,0.79,-0.19,-1.55,0,3.426,-0.568,-1.324,-0.922,-0.003,-0.011,0.000,0.000,0.000,0.000
27899,0.0595,-0.6342,0.2990,0.1241,-0.0646,-0.0038,0.72,-0.06,-1.58,0,3.415,-1.287,-0.683,0.603,0.002,-0.010,0.000,0.000,0.000,0.000
27950,0.0646,-0.6368,0.2972,0.1211,-0.0685,-0.0111,0.63,-0.03,-1.56,0,3.421,2.724,-0.010,0.945,-0.001,-0.007,0.000,0.000,0.000,0.000
28001,0.0687,-0.6454,0.2968,0.1149,-0.0892,-0.0076,0.78,-0.12,-1.53,0,3.415,-4.086,-0.787,0.420,0.003,-0.011,0.000,0.000,0.000,0.000
28052,0.0758,-0.6468,0.2959,0.1201,-0.0864,-0.0084,0.56,-0.15,-1.50,0,3.421,-5.022,1.970,-1.106,-0.001,-0.006,0.000,0.000,0.000,0.000
28103,0.0822,-0.6493,0.2971,0.1221,-0.0852,0.0053,0.28,-0.16,-1.56,0,3.415,1.198,0.225,-1.753,-0.006,-0.005,0.000,0.000,0.000,0.000
28153,0.0883,-0.6586,0.2973,0.1231,-0.1031,0.0100,0.45,-0.06,-1.67,0,3.426,-1.216,1.859,-1.433,-0.002,-0.009,0.000,0.000,0.000,0.000
28204,0.0930,-0.6651,0.2975,0.1190,-0.1119,0.0113,0.60,-0.14,-1.78,0,3.415,-5.537,1.567,-1.186,0.000,-0.007,0.000,0.000,0.000,0.000
28256,0.0980,-0.6685,0.2986,0.1173,-0.1092,0.0163,0.25,-0.24,-1.83,0,3.421,-10.161,-2.282,1.382,-0.002,-0.011,0.000,0.000,0.000,0.000
28307,0.1026,-0.6820,0.2992,0.1148,-0.1359,0.0173,-0.09,-0.12,-1.79,0,3.421,-3.404,1.939,1.722,-0.000,-0.005,0.000,0.000,0.000,0.000
28358,0.1070,-0.6878,0.2997,0.1117,-0.1326,0.0167,-0.35,-0.15,-1.69,0,3.421,-5.834,2.577,2.797,-0.003,-0.007,0.000,0.000,0.000,0.000
28408,0.1146,-0.6910,0.3012,0.1195,-0.1190,0.0200,-0.71,-0.29,-1.55,0,3.421,-3.289,0.395,3.404,-0.007,-0.006,0.000,0.000,0.000,0.000
28459,0.1179,-0.6984,0.3010,0.1140,-0.1172,0.0139,-0.83,-0.29,-1.39,0,3.426,0.977,-2.209,3.779,-0.002,-0.010,0.000,0.000,0.000,0.000
28510,0.1252,-0.7029,0.3005,0.1213,-0.1067,0.0069,-0.85,-0.25,-1.21,0,3.415,-0.697,-0.301,4.209,-0.005,-0.008,0.000,0.000,0.000,0.000
28562,0.1318,-0.7060,0.3001,0.1251,-0.0932,0.0028,-0.87,-0.23,-0.99,0,3.421,0.611,1.348,4.628,-0.000,-0.006,0.000,0.000,0.000,0.000
28613,0.1379,-0.7088,0.3002,0.1268,-0.0808,0.0027,-0.78,-0.22,-0.74,0,3.421,2.759,1.555,4.891,-0.002,-0.010,0.000,0.000,0.000,0.000
28663,0.1445,-0.7127,0.3006,0.1294,-0.0744,0.0043,-0.51,-0.20,-0.49,0,3.421,1.230,-1.526,4.877,-0.001,-0.011,0.000,0.000,0.000,0.000
28715,0.1512,-0.7145,0.3014,0.1318,-0.0642,0.0074,-0.37,-0.16,-0.28,0,3.415,0.058,-4.670,3.954,-0.001,-0.011,0.000,0.000,0.000,0.000
28766,0.1563,-0.7173,0.3015,0.1287,-0.0596,0.0061,-0.31,0.01,-0.11,0,3.421,-2.585,0.442,2.804,-0.001,-0.008,0.000,0.000,0.000,0.000
28817,0.1638,-0.7204,0.3015,0.1320,-0.0575,0.0050,-0.26,0.05,-0.01,0,3.415,-4.331,1.886,2.201,0.004,-0.009,0.000,0.000,0.000,0.000
28867,0.1684,-0.7216,0.3023,0.1258,-0.0506,0.0083,-0.33,0.11,0.07,0,3.421,8.219,0.814,1.538,0.002,-0.011,0.000,0.000,0.000,0.000
28919,0.1754,-0.7210,0.3007,0.1274,-0.0385,-0.0012,-0.13,0.14,0.17,0,3.415,2.484,2.013,1.155,-0.001,-0.010,0.000,0.000,0.000,0.000
28970,0.1815,-0.7252,0.2990,0.1252,-0.0443,-0.0100,0.05,0.10,0.24,0,3.415,2.543,-2.521,1.391,0.000,-0.009,0.000,0.000,0.000,0.000
29020,0.1881,-0.7257,0.2983,0.1253,-0.0394,-0.0092,-0.03,0.21,0.36,0,3.410,2.420,0.533,1.963,0.001,-0.009,0.000,0.000,0.000,0.000
29071,0.1931,-0.7271,0.2984,0.1200,-0.0378,-0.0033,-0.09,0.24,0.45,0,3.415,4.879,1.200,2.713,-0.001,-0.004,0.000,0.000,0.000,0.000
29122,0.1992,-0.7307,0.2982,0.1182,-0.0425,0.0010,0.05,0.24,0.62,0,3.415,-0.810,1.445,5.189,-0.002,-0.014,0.000,0.000,0.000,0.000
29174,0.2068,-0.7315,0.3000,0.1209,-0.0389,0.0122,0.06,0.17,0.81,0,3.421,-7.367,0.856,5.908,-0.002,-0.006,0.000,0.000,0.000,0.000
29224,0.2138,-0.7320,0.3000,0.1224,-0.0347,0.0111,-0.23,0.15,1.11,0,3.415,-1.644,-4.114,5.229,-0.001,-0.006,0.000,0.000,0.000,0.000
29275,0.2191,-0.7336,0.2999,0.1194,-0.0322,0.0073,-0.37,0.30,1.35,0,3.421,-4.050,-1.089,3.181,-0.003,-0.009,0.000,0.000,0.000,0.000
29327,0.2244,-0.7334,0.2997,0.1149,-0.0245,0.0044,-0.41,0.34,1.47,0,3.415,-4.605,-1.255,3.690,-0.005,-0.008,0.000,0.000,0.000,0.000
29378,0.2301,-0.7376,0.2978,0.1116,-0.0292,-0.0092,-0.59,0.42,1.62,0,3.415,2.123,1.987,0.164,0.000,-0.007,0.000,0.000,0.000,0.000
29429,0.2352,-0.7382,0.2976,0.1060,-0.0223,-0.0081,-0.58,0.43,1.67,0,3.410,-0.552,0.375,-0.234,-0.000,-0.008,0.000,0.000,0.000,0.000
29479,0.2402,-0.7408,0.2975,0.1015,-0.0219,-0.0053,-0.60,0.38,1.68,0,3.415,2.439,1.329,-1.439,-0.003,-0.007,0.000,0.000,0.000,0.000
29531,0.2463,-0.7388,0.2981,0.1013,-0.0087,0.0015,-0.67,0.37,1.64,0,3.415,2.159,4.343,-1.726,0.002,-0.008,0.000,0.000,0.000,0.000
29582,0.2508,-0.7386,0.2986,0.0971,-0.0013,0.0054,-0.74,0.20,1.56,0,3.421,1.648,0.339,-2.835,0.003,-0.008,0.000,0.000,0.000,0.000
29633,0.2557,-0.7362,0.2989,0.0961,0.0115,0.0064,-0.66,0.10,1.44,0,3.415,2.987,-3.383,-4.652,-0.003,-0.009,0.000,0.000,0.000,0.000
29683,0.2605,-0.7367,0.2992,0.0953,0.0139,0.0053,-0.54,0.15,1.24,0,3.421,1.987,-0.164,-4.636,0.002,-0.013,0.000,0.000,0.000,0.000
29734,0.2649,-0.7338,0.2984,0.0931,0.0243,0.0003,-0.53,0.22,1.01,0,3.415,3.247,1.000,-3.930,-0.001,-0.013,0.000,0.000,0.000,0.000
29785,0.2694,-0.7346,0.2978,0.0910,0.0231,-0.0018,-0.32,0.18,0.79,0,3.415,2.205,-1.331,-3.362,0.004,-0.016,0.000,0.000,0.000,0.000
29837,0.2741,-0.7255,0.2961,0.0901,0.0474,-0.0097,-0.31,0.19,0.63,0,3.410,-1.089,-1.021,-4.567,0.006,-0.010,0.000,0.000,0.000,0.000
29887,0.2793,-0.7211,0.2944,0.0903,0.0554,-0.0149,-0.34,0.19,0.40,0,3.410,8.117,-2.825,-6.449,0.004,-0.010,0.000,0.000,0.000,0.000
29939,0.2836,-0.7228,0.2938,0.0879,0.0460,-0.0104,0.01,0.32,0.10,0,3.405,5.575,-0.067,-7.867,0.001,-0.010,0.000,0.000,0.000,0.000
29989,0.2886,-0.7201,0.2928,0.0866,0.0459,-0.0089,0.33,0.36,-0.27,0,3.410,-1.662,3.125,-9.261,0.002,-0.007,0.000,0.000,0.000,0.000
30041,0.2938,-0.7193,0.2927,0.0861,0.0393,-0.0023,0.33,0.22,-0.72,0,3.405,2.587,0.225,-10.398,0.000,-0.007,0.000,0.000,0.000,0.000
30092,0.2978,-0.7218,0.2937,0.0836,0.0251,0.0087,0.32,0.15,-1.21,0,3.410,0.980,-2.158,-10.674,-0.002,-0.011,0.000,0.000,0.000,0.000
30143,0.3017,-0.7208,0.2916,0.0810,0.0205,-0.0002,0.34,0.22,-1.73,0,3.405,-3.498,-0.897,-10.783,-0.001,-0.010,0.000,0.000,0.000,0.000
30194,0.3072,-0.7094,0.2914,0.0824,0.0445,0.0029,-0.00,0.32,-2.23,0,3.410,2.782,1.256,-10.701,-0.001,-0.008,0.000,0.000,0.000,0.000
30244,0.3106,-0.7088,0.2919,0.0780,0.0402,0.0105,0.03,0.36,-2.74,0,3.405,4.342,1.485,-9.813,-0.003,-0.011,0.000,0.000,0.000,0.000
30296,0.3146,-0.7098,0.2933,0.0753,0.0322,0.0199,0.29,0.30,-3.25,0,3.415,-4.291,-1.989,-9.651,-0.002,-0.011,0.000,0.000,0.000,0.000
30347,0.3177,-0.7128,0.2947,0.0711,0.0183,0.0248,0.28,0.31,-3.73,0,3.410,-7.459,-1.744,-8.021,0.002,-0.009,0.000,0.000,0.000,0.000
30398,0.3236,-0.7098,0.2953,0.0741,0.0220,0.0228,-0.03,0.33,-4.15,0,3.415,-1.618,-1.201,-7.612,-0.001,-0.007,0.000,0.000,0.000,0.000
30449,0.3272,-0.7110,0.2968,0.0713,0.0177,0.0266,-0.28,0.38,-4.50,0,3.410,1.294,1.958,-7.552,0.001,-0.007,0.000,0.000,0.000,0.000
30500,0.3301,-0.7139,0.2973,0.0672,0.0115,0.0231,-0.46,0.30,-4.85,0,3.415,-3.757,-3.680,-6.363,0.001,-0.009,0.000,0.000,0.000,0.000
30550,0.3345,-0.7109,0.2993,0.0669,0.0203,0.0274,-0.38,0.42,-5.22,0,3.410,-2.802,-3.259,-7.888,0.000,-0.008,0.000,0.000,0.000,0.000
30602,0.3359,-0.7154,0.3005,0.0589,0.0107,0.0275,-0.53,0.65,-5.57,0,3.415,2.080,-0.260,-8.943,0.002,-0.008,0.000,0.000,0.000,0.000
30653,0.3421,-0.7099,0.3012,0.0622,0.0287,0.0251,-0.81,0.71,-5.95,0,3.410,5.359,-0.216,-6.290,0.003,-0.011,0.000,0.000,0.000,0.000
30704,0.3416,-0.7141,0.3011,0.0485,0.0227,0.0183,-0.76,0.79,-6.30,0,3.410,-1.173,1.944,-5.867,0.001,-0.017,0.000,0.000,0.000,0.000
30755,0.3470,-0.7077,0.2999,0.0503,0.0425,0.0067,-0.71,0.68,-6.62,0,3.405,-0.621,1.083,-5.957,0.001,-0.006,0.000,0.000,0.000,0.000
30805,0.3475,-0.7103,0.3006,0.0408,0.0374,0.0073,-0.57,0.63,-6.93,0,3.410,1.641,2.371,-5.987,0.001,-0.008,0.000,0.000,0.000,0.000
30857,0.3497,-0.7090,0.3001,0.0368,0.0410,0.0017,-0.56,0.49,-7.21,0,3.405,5.154,-0.448,-2.098,0.001,-0.014,0.000,0.000,0.000,0.000
30908,0.3595,-0.6937,0.3000,0.0521,0.0767,-0.0004,-0.51,0.44,-7.34,0,3.410,11.104,-3.437,-0.072,-0.003,-0.019,0.000,0.000,0.000,0.000
30959,0.3634,-0.6891,0.3000,0.0515,0.0818,-0.0005,0.03,0.57,-7.37,0,3.405,0.299,-1.424,2.923,0.004,-0.017,0.000,0.000,0.000,0.000
31010,0.3644,-0.6901,0.3009,0.0432,0.0700,0.0033,0.25,0.62,-7.24,0,3.410,-0.304,2.091,4.536,0.003,-0.014,0.000,0.000,0.000,0.000
31061,0.3689,-0.6831,0.3001,0.0425,0.0754,-0.0003,0.34,0.65,-7.02,0,3.405,2.563,1.661,5.898,0.002,-0.013,0.000,0.000,0.000,0.000
31112,0.3702,-0.6833,0.2997,0.0349,0.0649,0.0007,0.30,0.74,-6.69,0,3.410,2.441,4.207,5.559,0.001,-0.011,0.000,0.000,0.000,0.000
31162,0.3718,-0.6801,0.2995,0.0286,0.0630,0.0030,0.26,0.57,-6.39,0,3.405,-6.781,3.629,5.417,0.000,-0.011,0.000,0.000,0.000,0.000
31214,0.3716,-0.6780,0.2995,0.0205,0.0593,0.0061,0.14,0.39,-6.15,0,3.410,1.079,0.877,4.159,0.004,-0.014,0.000,0.000,0.000,0.000
31265,0.3718,-0.6795,0.3009,0.0154,0.0495,0.0150,0.09,0.35,-5.92,0,3.410,-3.588,1.732,3.834,0.002,-0.019,0.000,0.000,0.000,0.000
31316,0.3704,-0.6859,0.3007,0.0078,0.0306,0.0131,0.03,0.26,-5.75,0,3.410,-3.342,1.190,3.119,0.001,-0.022,0.000,0.000,0.000,0.000
31367,0.3687,-0.6924,0.3008,0.0014,0.0140,0.0121,-0.01,0.24,-5.58,0,3.405,-8.632,1.557,3.462,0.000,-0.017,0.000,0.000,0.000,0.000
31418,0.3672,-0.6972,0.3008,-0.0032,0.0039,0.0088,-0.42,0.14,-5.42,0,3.410,-8.510,0.564,3.265,0.002,-0.009,0.000,0.000,0.000,0.000
31469,0.3657,-0.7057,0.2998,-0.0070,-0.0106,0.0009,-0.74,0.14,-5.26,0,3.405,-6.264,-0.336,2.214,0.002,-0.015,0.000,0.000,0.000,0.000
31520,0.3642,-0.7091,0.2999,-0.0098,-0.0099,0.0011,-1.06,0.11,-5.16,0,3.410,-6.198,2.662,0.264,0.003,-0.013,0.000,0.000,0.000,0.000
31571,0.3633,-0.7164,0.3004,-0.0109,-0.0147,0.0036,-1.37,0.08,-5.10,0,3.405,-5.126,0.420,1.753,0.000,-0.015,0.000,0.000,0.000,0.000
31622,0.3618,-0.7211,0.3021,-0.0126,-0.0114,0.0112,-1.50,0.10,-5.05,0,3.410,0.757,0.456,2.433,-0.001,-0.012,0.000,0.000,0.000,0.000
31673,0.3625,-0.7224,0.3019,-0.0097,-0.0008,0.0074,-1.49,0.10,-4.92,0,3.405,1.355,0.595,4.085,0.004,-0.020,0.000,0.000,0.000,0.000
31724,0.3625,-0.7227,0.3013,-0.0086,0.0108,0.0017,-1.43,0.04,-4.71,0,3.410,3.139,-2.151,6.375,0.004,-0.015,0.000,0.000,0.000,0.000
31774,0.3620,-0.7214,0.3012,-0.0081,0.0239,0.0004,-1.29,0.15,-4.39,0,3.405,4.359,-5.103,8.943,0.004,-0.016,0.000,0.000,0.000,0.000
31826,0.3629,-0.7208,0.3012,-0.0059,0.0336,0.0004,-1.21,0.30,-3.94,0,3.410,1.936,-1.176,11.860,-0.002,-0.018,0.000,0.000,0.000,0.000
31877,0.3685,-0.7094,0.3003,0.0037,0.0621,-0.0029,-1.07,0.42,-3.41,0,3.405,9.867,-2.467,10.784,0.001,-0.018,0.000,0.000,0.000,0.000
31928,0.3751,-0.6941,0.3009,0.0132,0.0943,0.0024,-0.81,0.51,-2.84,0,3.405,10.138,-4.050,10.989,0.000,-0.019,0.000,0.000,0.000,0.000
31978,0.3743,-0.6935,0.2997,0.0064,0.0932,-0.0017,-0.24,0.69,-2.29,0,3.405,6.614,-2.909,9.657,0.001,-0.017,0.000,0.000,0.000,0.000
32030,0.3807,-0.6785,0.2998,0.0125,0.1148,0.0010,0.04,0.78,-1.79,0,3.410,7.597,-4.608,6.516,0.001,-0.018,0.000,0.000,0.000,0.000
32081,0.3789,-0.6747,0.2996,0.0014,0.1110,0.0030,0.44,0.98,-1.44,0,3.405,1.219,-6.630,3.924,0.000,-0.018,0.000,0.000,0.000,0.000
32132,0.3824,-0.6590,0.2995,-0.0003,0.1272,0.0054,0.62,1.18,-1.24,0,3.405,2.766,-1.523,-0.403,-0.000,-0.014,0.000,0.000,0.000,0.000
32182,0.3833,-0.6532,0.2986,-0.0082,0.1216,0.0026,0.68,1.26,-1.20,0,3.405,6.487,-2.750,-1.566,0.002,-0.018,0.000,0.000,0.000,0.000
32233,0.3812,-0.6529,0.3002,-0.0219,0.1054,0.0131,1.02,1.35,-1.24,0,3.405,0.308,5.243,-1.274,0.004,-0.015,0.000,0.000,0.000,0.000
32285,0.3874,-0.6422,0.2997,-0.0197,0.1071,0.0100,1.13,1.07,-1.33,0,3.405,-0.845,0.136,-4.829,0.004,-0.012,0.000,0.000,0.000,0.000
32336,0.3843,-0.6444,0.2989,-0.0325,0.0844,0.0046,1.24,1.09,-1.56,0,3.405,-7.371,0.832,-3.706,0.003,-0.016,0.000,0.000,0.000,0.000
32387,0.3767,-0.6566,0.2987,-0.0522,0.0452,0.0032,1.09,1.15,-1.80,0,3.399,-8.996,6.644,-4.199,0.005,-0.015,0.000,0.000,0.000,0.000
32438,0.3721,-0.6557,0.3002,-0.0655,0.0342,0.0113,0.68,0.88,-2.03,0,3.405,-5.253,6.755,-4.635,0.004,-0.007,0.000,0.000,0.000,0.000
32489,0.3674,-0.6710,0.3000,-0.0762,-0.0042,0.0087,0.51,0.66,-2.27,0,3.405,-8.580,2.034,-2.541,0.005,-0.017,0.000,0.000,0.000,0.000
32540,0.3631,-0.6843,0.2999,-0.0827,-0.0329,0.0047,0.31,0.53,-2.49,0,3.405,-17.793,5.200,-3.347,0.005,-0.013,0.000,0.000,0.000,0.000
32591,0.3587,-0.6873,0.3005,-0.0874,-0.0373,0.0058,-0.46,0.29,-2.65,0,3.399,-14.926,1.889,-0.524,0.008,-0.014,0.000,0.000,0.000,0.000
32642,0.3503,-0.6939,0.3013,-0.0978,-0.0427,0.0080,-0.99,0.23,-2.75,0,3.405,-4.318,0.988,-0.568,0.006,-0.013,0.000,0.000,0.000,0.000
32693,0.3457,-0.6951,0.3031,-0.0987,-0.0328,0.0152,-1.20,0.14,-2.80,0,3.405,-2.822,1.806,-1.356,0.006,-0.017,0.000,0.000,0.000,0.000
32743,0.3401,-0.6953,0.3031,-0.1006,-0.0202,0.0105,-1.33,0.01,-2.87,0,3.405,3.148,2.383,-2.078,0.005,-0.016,0.000,0.000,0.000,0.000
32795,0.3376,-0.6921,0.3016,-0.0948,-0.0008,-0.0002,-1.35,-0.18,-2.97,0,3.399,8.959,-1.266,-2.921,0.004,-0.018,0.000,0.000,0.000,0.000
32846,0.3345,-0.6921,0.3001,-0.0896,0.0102,-0.0076,-1.04,-0.18,-3.11,0,3.405,6.860,-1.149,-2.546,0.001,-0.015,0.000,0.000,0.000,0.000
32896,0.3308,-0.6904,0.2981,-0.0859,0.0213,-0.0153,-0.81,-0.20,-3.21,0,3.394,7.210,0.047,-2.232,0.002,-0.018,0.000,0.000,0.000,0.000
32948,0.3344,-0.6743,0.2963,-0.0677,0.0593,-0.0198,-0.55,-0.28,-3.34,0,3.394,11.201,-3.596,-4.320,0.006,-0.014,0.000,0.000,0.000,0.000
32999,0.3343,-0.6710,0.2939,-0.0584,0.0642,-0.0219,-0.11,-0.15,-3.51,0,3.389,14.008,-8.525,-3.518,0.002,-0.013,0.000,0.000,0.000,0.000
33050,0.3338,-0.6653,0.2955,-0.0521,0.0696,-0.0020,0.54,0.21,-3.66,0,3.399,6.545,-1.344,-2.811,-0.001,-0.017,0.000,0.000,0.000,0.000
33101,0.3332,-0.6591,0.2949,-0.0492,0.0719,0.0018,0.84,0.33,-3.80,0,3.399,3.209,0.317,-2.906,-0.000,-0.016,0.000,0.000,0.000,0.000
33152,0.3318,-0.6555,0.2951,-0.0501,0.0651,0.0078,1.07,0.32,-3.95,0,3.399,8.051,-6.642,-2.139,0.002,-0.018,0.000,0.000,0.000,0.000
33202,0.3328,-0.6478,0.2971,-0.0455,0.0667,0.0199,1.35,0.52,-4.10,0,3.399,2.277,-4.988,-1.998,-0.001,-0.012,0.000,0.000,0.000,0.000
33254,0.3294,-0.6458,0.2974,-0.0532,0.0528,0.0187,1.53,0.80,-4.22,0,3.399,-2.012,-0.930,-2.092,0.002,-0.014,0.000,0.000,0.000,0.000
33305,0.3262,-0.6455,0.2987,-0.0619,0.0352,0.0214,1.55,0.94,-4.31,0,3.399,-3.787,0.883,0.641,-0.004,-0.009,0.000,0.000,0.000,0.000
33356,0.3217,-0.6443,0.2995,-0.0735,0.0220,0.0200,1.41,0.90,-4.29,0,3.405,-0.058,2.729,2.182,0.003,-0.012,0.000,0.000,0.000,0.000
33406,0.3190,-0.6411,0.2999,-0.0790,0.0167,0.0172,1.30,0.74,-4.15,0,3.399,-2.963,-0.820,5.595,0.001,-0.012,0.000,0.000,0.000,0.000
33458,0.3142,-0.6527,0.3005,-0.0877,-0.0248,0.0134,1.42,0.69,-3.89,0,3.405,-5.141,2.341,6.449,0.004,-0.011,0.000,0.000,0.000,0.000
33508,0.3080,-0.6584,0.3006,-0.0987,-0.0469,0.0074,1.12,0.65,-3.52,0,3.399,-9.106,2.702,7.876,0.002,-0.009,0.000,0.000,0.000,0.000
33560,0.3016,-0.6618,0.3014,-0.1080,-0.0586,0.0068,0.53,0.47,-3.15,0,3.399,-10.717,-0.556,7.289,0.002,-0.011,0.000,0.000,0.000,0.000
33611,0.2972,-0.6655,0.3019,-0.1101,-0.0652,0.0063,0.19,0.38,-2.87,0,3.399,-5.325,-2.310,6.639,0.005,-0.008,0.000,0.000,0.000,0.000
33662,0.2904,-0.6675,0.3021,-0.1171,-0.0640,0.0057,-0.23,0.36,-2.54,0,3.405,0.407,0.166,6.731,0.001,-0.010,0.000,0.000,0.000,0.000
33713,0.2846,-0.6713,0.3022,-0.1203,-0.0642,0.0042,-0.26,0.39,-2.19,0,3.399,-8.054,6.716,5.940,0.008,-0.014,0.000,0.000,0.000,0.000
33764,0.2811,-0.6711,0.3009,-0.1166,-0.0531,-0.0043,-0.50,0.09,-1.93,0,3.399,10.192,1.501,5.319,0.001,-0.008,0.000,0.000,0.000,0.000
33815,0.2748,-0.6750,0.3008,-0.1182,-0.0528,-0.0033,-0.27,-0.01,-1.65,0,3.394,1.226,0.051,6.610,0.005,-0.017,0.000,0.000,0.000,0.000
33866,0.2685,-0.6780,0.2986,-0.1196,-0.0529,-0.0132,-0.10,-0.05,-1.36,0,3.394,0.672,-3.408,4.148,0.003,-0.008,0.000,0.000,0.000,0.000
33917,0.2634,-0.6771,0.2984,-0.1172,-0.0439,-0.0095,0.15,-0.01,-1.17,0,3.394,-1.046,0.151,0.798,0.008,-0.009,0.000,0.000,0.000,0.000
33968,0.2606,-0.6757,0.2967,-0.1098,-0.0359,-0.0134,0.20,0.10,-1.08,0,3.394,-0.656,-2.007,-0.125,0.002,-0.008,0.000,0.000,0.000,0.000
34018,0.2551,-0.6797,0.2969,-0.1105,-0.0436,-0.0054,0.39,0.14,-1.10,0,3.394,2.014,1.300,-4.014,0.005,-0.011,0.000,0.000,0.000,0.000
34070,0.2510,-0.6793,0.2964,-0.1080,-0.0399,-0.0030,0.54,0.12,-1.31,0,3.394,5.554,1.107,-5.542,0.003,-0.010,0.000,0.000,0.000,0.000
34120,0.2451,-0.6817,0.2953,-0.1097,-0.0445,-0.0046,0.64,0.01,-1.58,0,3.394,0.298,0.345,-6.727,0.003,-0.013,0.000,0.000,0.000,0.000
34172,0.2403,-0.6845,0.2947,-0.1079,-0.0507,-0.0035,0.60,-0.04,-1.85,0,3.394,-0.028,-4.807,-7.356,0.006,-0.009,0.000,0.000,0.000,0.000
34223,0.2348,-0.6858,0.2952,-0.1084,-0.0522,0.0046,0.55,0.09,-2.20,0,3.394,1.003,-5.898,-4.332,0.002,-0.008,0.000,0.000,0.000,0.000
34274,0.2306,-0.6867,0.2954,-0.1065,-0.0520,0.0099,0.52,0.35,-2.44,0,3.394,-1.172,-1.271,-1.580,0.003,-0.011,0.000,0.000,0.000,0.000
34325,0.2231,-0.6902,0.2956,-0.1154,-0.0579,0.0121,0.37,0.46,-2.57,0,3.399,4.636,-1.080,-0.309,0.001,-0.009,0.000,0.000,0.000,0.000
34376,0.2186,-0.6902,0.2958,-0.1158,-0.0528,0.0129,0.35,0.53,-2.59,0,3.394,-2.390,0.352,2.071,0.003,-0.011,0.000,0.000,0.000,0.000
34426,0.2130,-0.6932,0.2963,-0.1199,-0.0562,0.0137,0.30,0.48,-2.52,0,3.394,4.262,2.634,3.093,0.002,-0.014,0.000,0.000,0.000,0.000
34477,0.2071,-0.6950,0.2975,-0.1235,-0.0562,0.0179,0.41,0.41,-2.36,0,3.399,-1.960,-0.428,4.429,0.003,-0.008,0.000,0.000,0.000,0.000
34529,0.2019,-0.6966,0.2966,-0.1243,-0.0561,0.0087,0.36,0.34,-2.15,0,3.394,-5.360,-2.612,5.397,0.003,-0.009,0.000,0.000,0.000,0.000
34580,0.1961,-0.6989,0.2979,-0.1259,-0.0571,0.0122,0.09,0.48,-1.89,0,3.399,0.611,3.242,4.402,0.005,-0.009,0.000,0.000,0.000,0.000
34631,0.1903,-0.7003,0.2992,-0.1287,-0.0537,0.0158,0.01,0.47,-1.61,0,3.399,4.872,2.473,6.511,0.004,-0.010,0.000,0.000,0.000,0.000
34682,0.1822,-0.7025,0.2992,-0.1367,-0.0528,0.0115,0.29,0.38,-1.32,0,3.399,-0.155,3.612,4.741,0.005,-0.013,0.000,0.000,0.000,0.000
34733,0.1761,-0.7054,0.2999,-0.1376,-0.0560,0.0108,0.30,0.21,-1.03,0,3.394,-1.132,0.866,6.345,0.007,-0.009,0.000,0.000,0.000,0.000
34784,0.1699,-0.7086,0.3003,-0.1376,-0.0596,0.0087,0.31,0.19,-0.73,0,3.399,4.056,2.189,5.220,0.006,-0.011,0.000,0.000,0.000,0.000
34834,0.1613,-0.7095,0.2986,-0.1439,-0.0565,-0.0020,0.37,0.14,-0.43,0,3.394,2.818,2.417,5.209,0.004,-0.013,0.000,0.000,0.000,0.000
34885,0.1550,-0.7123,0.2965,-0.1426,-0.0592,-0.0130,0.41,0.05,-0.13,0,3.394,1.345,1.207,6.088,0.005,-0.011,0.000,0.000,0.000,0.000
34937,0.1477,-0.7160,0.2968,-0.1433,-0.0645,-0.0075,0.41,-0.05,0.20,0,3.394,-1.094,-0.282,6.905,0.006,-0.012,0.000,0.000,0.000,0.000
34988,0.1397,-0.7198,0.2967,-0.1450,-0.0694,-0.0020,0.37,0.02,0.57,0,3.394,-2.870,0.490,7.251,0.005,-0.005,0.000,0.000,0.000,0.000
35039,0.1335,-0.7204,0.2964,-0.1424,-0.0645,0.0015,0.21,0.01,0.91,0,3.394,1.146,1.439,6.337,0.006,-0.009,0.000,0.000,0.000,0.000
35090,0.1268,-0.7237,0.2955,-0.1411,-0.0663,0.0006,0.25,-0.12,1.21,0,3.394,-0.001,-0.811,4.567,0.006,-0.011,0.000,0.000,0.000,0.000
35141,0.1204,-0.7267,0.2954,-0.1380,-0.0673,0.0045,0.22,-0.08,1.50,0,3.389,-0.362,-2.507,6.804,0.006,-0.008,0.000,0.000,0.000,0.000
35192,0.1132,-0.7276,0.2963,-0.1385,-0.0626,0.0122,0.17,0.02,1.82,0,3.394,-0.689,7.018,6.049,0.002,-0.005,0.000,0.000,0.000,0.000
35243,0.1074,-0.7311,0.2975,-0.1357,-0.0649,0.0178,0.17,-0.17,2.14,0,3.399,0.924,0.721,4.398,0.004,-0.008,0.000,0.000,0.000,0.000
35294,0.0992,-0.7333,0.2983,-0.1376,-0.0636,0.0184,0.09,-0.25,2.40,0,3.399,0.878,-0.582,4.134,0.008,-0.010,0.000,0.000,0.000,0.000
35344,0.0924,-0.7359,0.2993,-0.1357,-0.0626,0.0199,0.01,-0.24,2.63,0,3.394,-0.665,2.462,2.763,0.006,-0.011,0.000,0.000,0.000,0.000
35396,0.0875,-0.7389,0.3002,-0.1290,-0.0623,0.0194,-0.00,-0.37,2.79,0,3.399,1.138,2.196,1.747,0.003,-0.011,0.000,0.000,0.000,0.000
35446,0.0817,-0.7398,0.2999,-0.1239,-0.0565,0.0114,0.01,-0.53,2.90,0,3.394,-2.137,-0.047,0.912,0.007,-0.011,0.000,0.000,0.000,0.000
35498,0.0748,-0.7417,0.2999,-0.1215,-0.0539,0.0075,-0.05,-0.52,2.94,0,3.394,0.290,-1.356,-0.516,0.004,-0.013,0.000,0.000,0.000,0.000
35549,0.0703,-0.7422,0.2975,-0.1140,-0.0481,-0.0071,-0.07,-0.42,2.93,0,3.389,-0.184,-1.721,-0.380,0.004,-0.011,0.000,0.000,0.000,0.000
35599,0.0666,-0.7444,0.2975,-0.1057,-0.0468,-0.0044,-0.03,-0.36,2.89,0,3.389,-0.513,-0.178,-0.614,0.007,-0.011,0.000,0.000,0.000,0.000
35651,0.0598,-0.7456,0.2995,-0.1067,-0.0436,0.0097,-0.01,-0.30,2.85,0,3.394,-0.613,0.834,-0.931,0.002,-0.014,0.000,0.000,0.000,0.000
35702,0.0554,-0.7471,0.3006,-0.1018,-0.0417,0.0149,-0.06,-0.35,2.81,0,3.399,0.025,-2.265,-0.549,0.005,-0.006,0.000,0.000,0.000,0.000
35753,0.0506,-0.7488,0.3008,-0.0981,-0.0398,0.0138,-0.12,-0.32,2.79,0,3.394,0.516,-5.374,-0.064,0.007,-0.010,0.000,0.000,0.000,0.000
35803,0.0468,-0.7500,0.3014,-0.0933,-0.0372,0.0145,-0.07,-0.06,2.77,0,3.394,-1.436,-1.449,0.204,0.005,-0.012,0.000,0.000,0.000,0.000
35855,0.0418,-0.7511,0.3008,-0.0937,-0.0347,0.0088,-0.09,0.01,2.76,0,3.394,-2.419,-0.529,-0.481,0.006,-0.013,0.000,0.000,0.000,0.000
35906,0.0387,-0.7531,0.3012,-0.0902,-0.0342,0.0092,-0.21,0.04,2.74,0,3.394,-2.034,-2.658,-0.413,0.006,-0.012,0.000,0.000,0.000,0.000
35956,0.0334,-0.7537,0.3019,-0.0926,-0.0301,0.0125,-0.26,0.18,2.72,0,3.394,4.121,-2.198,-0.027,0.007,-0.012,0.000,0.000,0.000,0.000
36008,0.0296,-0.7555,0.3016,-0.0923,-0.0286,0.0098,-0.26,0.32,2.74,0,3.394,0.599,-2.073,1.609,0.003,-0.011,0.000,0.000,0.000,0.000
36059,0.0255,-0.7567,0.3026,-0.0942,-0.0260,0.0151,-0.32,0.44,2.82,0,3.394,1.194,-0.320,1.729,0.009,-0.014,0.000,0.000,0.000,0.000
36109,0.0219,-0.7575,0.3030,-0.0954,-0.0225,0.0158,-0.31,0.54,2.94,0,3.394,1.403,-0.761,2.558,0.003,-0.013,0.000,0.000,0.000,0.000
36161,0.0171,-0.7576,0.3021,-0.1001,-0.0179,0.0089,-0.30,0.50,3.05,0,3.394,-4.044,6.003,2.570,0.004,-0.015,0.000,0.000,0.000,0.000
36211,0.0146,-0.7567,0.3023,-0.0998,-0.0121,0.0089,-0.39,0.28,3.17,0,3.394,-1.832,1.687,3.893,0.007,-0.012,0.000,0.000,0.000,0.000
36262,0.0106,-0.7571,0.3038,-0.1001,-0.0087,0.0159,-0.35,0.12,3.31,0,3.394,-0.307,0.890,5.563,0.007,-0.011,0.000,0.000,0.000,0.000
36314,0.0062,-0.7562,0.3036,-0.0997,-0.0026,0.0120,-0.33,-0.05,3.53,0,3.394,4.046,1.452,4.861,0.005,-0.011,0.000,0.000,0.000,0.000
36365,0.0013,-0.7556,0.3028,-0.0992,0.0016,0.0047,-0.13,-0.22,3.76,0,3.389,-1.079,-0.396,4.162,0.008,-0.015,0.000,0.000,0.000,0.000
36416,-0.0033,-0.7552,0.3026,-0.0965,0.0038,0.0018,-0.19,-0.36,3.95,0,3.394,-1.277,2.036,3.931,0.003,-0.018,0.000,0.000,0.000,0.000
36467,-0.0108,-0.7543,0.3037,-0.1000,0.0070,0.0084,-0.22,-0.41,4.12,0,3.394,-0.759,5.384,4.071,0.007,-0.015,0.000,0.000,0.000,0.000
36518,-0.0125,-0.7533,0.3033,-0.0893,0.0107,0.0049,-0.20,-0.60,4.30,0,3.394,1.305,-0.112,2.814,0.006,-0.012,0.000,0.000,0.000,0.000
36569,-0.0167,-0.7517,0.3033,-0.0837,0.0151,0.0036,-0.21,-0.70,4.47,0,3.394,0.346,-2.824,2.473,0.005,-0.015,0.000,0.000,0.000,0.000
36619,-0.0202,-0.7515,0.3033,-0.0767,0.0162,0.0033,-0.25,-0.55,4.62,0,3.394,-4.189,-1.342,1.577,0.004,-0.015,0.000,0.000,0.000,0.000
36671,-0.0232,-0.7501,0.3033,-0.0706,0.0199,0.0037,-0.34,-0.42,4.71,0,3.389,-0.470,-0.517,0.432,0.003,-0.013,0.000,0.000,0.000,0.000
36722,-0.0257,-0.7486,0.3029,-0.0651,0.0241,0.0025,-0.41,-0.38,4.75,0,3.394,1.997,-1.094,-0.976,0.003,-0.012,0.000,0.000,0.000,0.000
36773,-0.0283,-0.7451,0.3035,-0.0608,0.0325,0.0067,-0.33,-0.36,4.70,0,3.394,-1.266,-0.499,-3.323,0.004,-0.015,0.000,0.000,0.000,0.000
36824,-0.0307,-0.7428,0.3027,-0.0566,0.0370,0.0028,-0.37,-0.31,4.55,0,3.394,-3.801,-2.512,-4.518,0.007,-0.013,0.000,0.000,0.000,0.000
36875,-0.0321,-0.7399,0.3021,-0.0515,0.0426,0.0001,-0.48,-0.21,4.33,0,3.389,1.636,-3.923,-6.020,0.006,-0.011,0.000,0.000,0.000,0.000
36926,-0.0342,-0.7364,0.3021,-0.0490,0.0494,0.0026,-0.43,-0.08,4.04,0,3.389,-2.699,-3.897,-5.845,0.005,-0.011,0.000,0.000,0.000,0.000
36976,-0.0350,-0.7337,0.3009,-0.0453,0.0538,-0.0016,-0.54,0.06,3.73,0,3.389,-0.945,0.300,-4.576,0.006,-0.012,0.000,0.000,0.000,0.000
37027,-0.0350,-0.7301,0.3001,-0.0414,0.0601,-0.0026,-0.44,0.12,3.45,0,3.389,2.264,-0.190,-3.900,0.005,-0.014,0.000,0.000,0.000,0.000
37079,-0.0343,-0.7271,0.3000,-0.0368,0.0636,0.0016,-0.32,0.08,3.24,0,3.389,3.330,-5.134,-3.611,0.009,-0.015,0.000,0.000,0.000,0.000
37130,-0.0343,-0.7227,0.3014,-0.0341,0.0689,0.0127,-0.23,0.17,3.05,0,3.394,1.100,-2.395,-2.877,0.005,-0.013,0.000,0.000,0.000,0.000
37181,-0.0346,-0.7191,0.3012,-0.0325,0.0711,0.0116,-0.20,0.23,2.90,0,3.389,0.700,2.218,-2.856,0.002,-0.014,0.000,0.000,0.000,0.000
37232,-0.0354,-0.7150,0.3016,-0.0327,0.0737,0.0123,-0.13,0.15,2.72,0,3.394,1.559,-1.953,-2.492,0.006,-0.017,0.000,0.000,0.000,0.000
37283,-0.0359,-0.7106,0.3012,-0.0315,0.0762,0.0081,-0.09,0.16,2.59,0,3.389,-2.381,6.935,-3.969,0.004,-0.012,0.000,0.000,0.000,0.000
37334,-0.0369,-0.7026,0.3014,-0.0313,0.0854,0.0080,-0.17,-0.04,2.41,0,3.389,-0.826,2.029,-2.081,0.005,-0.013,0.000,0.000,0.000,0.000
37385,-0.0385,-0.7015,0.3019,-0.0313,0.0800,0.0102,-0.12,-0.10,2.28,0,3.394,-0.739,3.514,-1.328,0.006,-0.011,0.000,0.000,0.000,0.000
37435,-0.0405,-0.6984,0.3027,-0.0315,0.0790,0.0121,-0.15,-0.16,2.22,0,3.389,-3.569,4.966,0.015,0.007,-0.009,0.000,0.000,0.000,0.000
37486,-0.0398,-0.6945,0.3045,-0.0257,0.0801,0.0174,-0.25,-0.31,2.20,0,3.389,0.169,-0.055,-0.513,0.006,-0.013,0.000,0.000,0.000,0.000
37538,-0.0416,-0.6900,0.3048,-0.0244,0.0832,0.0135,-0.27,-0.31,2.18,0,3.389,4.194,-1.350,0.617,0.005,-0.011,0.000,0.000,0.000,0.000
37589,-0.0417,-0.6864,0.3040,-0.0197,0.0842,0.0033,-0.15,-0.27,2.20,0,3.389,-0.577,1.881,1.058,0.005,-0.013,0.000,0.000,0.000,0.000
37639,-0.0446,-0.6836,0.3028,-0.0215,0.0823,-0.0063,-0.08,-0.33,2.22,0,3.389,1.743,-0.344,0.875,0.004,-0.012,0.000,0.000,0.000,0.000
37691,-0.0440,-0.6773,0.3009,-0.0155,0.0872,-0.0145,0.06,-0.25,2.28,0,3.389,-0.035,-2.971,2.179,0.004,-0.013,0.000,0.000,0.000,0.000
37741,-0.0439,-0.6757,0.3009,-0.0117,0.0811,-0.0085,0.21,-0.07,2.37,0,3.389,0.360,-0.043,2.262,0.001,-0.013,0.000,0.000,0.000,0.000
37793,-0.0428,-0.6737,0.2999,-0.0075,0.0752,-0.0087,0.15,-0.06,2.48,0,3.384,3.712,0.207,1.258,0.005,-0.011,0.000,0.000,0.000,0.000
37844,-0.0420,-0.6687,0.2997,-0.0047,0.0769,-0.0031,0.03,-0.06,2.57,0,3.389,2.316,-2.899,1.689,0.006,-0.013,0.000,0.000,0.000,0.000
37895,-0.0414,-0.6644,0.2990,-0.0024,0.0776,-0.0019,0.15,-0.01,2.63,0,3.384,1.741,3.795,0.173,0.004,-0.012,0.000,0.000,0.000,0.000
37945,-0.0412,-0.6608,0.2990,-0.0014,0.0756,0.0021,0.31,-0.09,2.65,0,3.389,-4.194,-0.475,1.135,0.002,-0.015,0.000,0.000,0.000,0.000
37997,-0.0415,-0.6587,0.2991,-0.0010,0.0699,0.0065,0.16,-0.17,2.69,0,3.389,3.411,3.535,-0.587,0.003,-0.015,0.000,0.000,0.000,0.000
38048,-0.0422,-0.6543,0.2994,-0.0009,0.0704,0.0089,0.31,-0.28,2.65,0,3.389,1.239,6.397,-1.654,-0.000,-0.012,0.000,0.000,0.000,0.000
38099,-0.0425,-0.6508,0.3008,0.0009,0.0681,0.0145,0.37,-0.49,2.60,0,3.389,-3.853,3.200,-1.296,-0.001,-0.012,0.000,0.000,0.000,0.000
38150,-0.0436,-0.6493,0.3013,0.0027,0.0612,0.0114,0.25,-0.66,2.53,0,3.389,1.651,1.034,-2.743,-0.001,-0.008,0.000,0.000,0.000,0.000
38201,-0.0434,-0.6463,0.2998,0.0083,0.0591,-0.0008,0.29,-0.68,2.42,0,3.384,-1.479,-0.121,-1.994,0.002,-0.013,0.000,0.000,0.000,0.000
38252,-0.0419,-0.6435,0.2994,0.0162,0.0569,-0.0051,0.08,-0.63,2.36,0,3.389,-4.484,0.602,-0.441,0.001,-0.012,0.000,0.000,0.000,0.000
38302,-0.0395,-0.6421,0.2994,0.0247,0.0535,-0.0041,-0.05,-0.63,2.32,0,3.389,-2.512,0.563,-0.722,0.003,-0.012,0.000,0.000,0.000,0.000
38354,-0.0367,-0.6408,0.2992,0.0329,0.0510,-0.0026,-0.08,-0.64,2.27,0,3.384,-1.412,-4.649,-0.651,-0.001,-0.011,0.000,0.000,0.000,0.000
38405,-0.0350,-0.6397,0.2986,0.0383,0.0489,-0.0021,-0.02,-0.49,2.23,0,3.384,-4.370,-4.987,-0.606,-0.001,-0.012,0.000,0.000,0.000,0.000
38455,-0.0343,-0.6430,0.2984,0.0392,0.0374,0.0006,-0.18,-0.26,2.18,0,3.384,-2.138,1.240,-0.600,-0.000,-0.011,0.000,0.000,0.000,0.000
38507,-0.0303,-0.6426,0.2983,0.0456,0.0356,0.0041,-0.19,-0.26,2.16,0,3.384,2.313,-0.937,0.499,-0.005,-0.008,0.000,0.000,0.000,0.000
38557,-0.0260,-0.6422,0.2993,0.0518,0.0344,0.0112,-0.15,-0.26,2.19,0,3.384,1.859,-0.705,0.144,0.002,-0.009,0.000,0.000,0.000,0.000
38609,-0.0213,-0.6442,0.2996,0.0581,0.0283,0.0130,-0.13,-0.23,2.21,0,3.389,-2.364,-3.632,1.726,0.000,-0.012,0.000,0.000,0.000,0.000
38660,-0.0216,-0.6469,0.2998,0.0534,0.0216,0.0137,-0.30,-0.10,2.30,0,3.389,-2.735,0.085,3.679,0.001,-0.011,0.000,0.000,0.000,0.000
38710,-0.0190,-0.6485,0.2995,0.0534,0.0192,0.0101,-0.47,0.01,2.48,0,3.384,-0.110,0.197,3.998,0.002,-0.013,0.000,0.000,0.000,0.000
38762,-0.0173,-0.6483,0.3005,0.0514,0.0217,0.0138,-0.50,-0.01,2.68,0,3.389,-0.531,0.644,3.951,0.001,-0.013,0.000,0.000,0.000,0.000
38813,-0.0144,-0.6475,0.3003,0.0522,0.0253,0.0105,-0.50,-0.12,2.92,0,3.384,2.117,2.268,3.235,-0.000,-0.014,0.000,0.000,0.000,0.000
38864,-0.0113,-0.6468,0.3009,0.0538,0.0283,0.0096,-0.44,-0.19,3.04,0,3.389,0.746,1.532,2.401,-0.002,-0.015,0.000,0.000,0.000,0.000
38915,-0.0100,-0.6446,0.3012,0.0524,0.0333,0.0072,-0.35,-0.13,3.16,0,3.389,-0.366,1.943,0.700,0.006,-0.011,0.000,0.000,0.000,0.000
38966,-0.0067,-0.6410,0.2996,0.0545,0.0402,-0.0051,-0.34,-0.17,3.21,0,3.384,6.339,2.243,-2.631,0.003,-0.013,0.000,0.000,0.000,0.000
39016,-0.0073,-0.6389,0.2987,0.0492,0.0432,-0.0084,-0.15,-0.20,3.15,0,3.378,2.591,1.848,-4.261,0.006,-0.013,0.000,0.000,0.000,0.000
39068,-0.0079,-0.6344,0.2986,0.0451,0.0486,-0.0057,0.05,-0.28,2.95,0,3.384,3.823,2.380,-6.697,0.002,-0.012,0.000,0.000,0.000,0.000
39119,-0.0056,-0.6320,0.2973,0.0477,0.0480,-0.0081,0.21,-0.36,2.65,0,3.378,1.687,2.729,-6.316,0.003,-0.012,0.000,0.000,0.000,0.000
39170,-0.0066,-0.6290,0.2979,0.0450,0.0478,0.0011,0.27,-0.51,2.33,0,3.384,2.721,0.818,-7.845,0.004,-0.011,0.000,0.000,0.000,0.000
39220,-0.0075,-0.6266,0.2985,0.0436,0.0455,0.0083,0.38,-0.56,1.95,0,3.384,2.138,4.273,-9.914,0.005,-0.013,0.000,0.000,0.000,0.000
39272,-0.0051,-0.6238,0.2982,0.0490,0.0432,0.0075,0.50,-0.73,1.49,0,3.384,6.471,2.891,-11.264,0.006,-0.014,0.000,0.000,0.000,0.000
39322,-0.0058,-0.6211,0.2975,0.0498,0.0398,0.0032,0.78,-0.90,0.98,0,3.378,0.440,-0.671,-11.379,0.001,-0.014,0.000,0.000,0.000,0.000
39373,-0.0013,-0.6199,0.2978,0.0608,0.0321,0.0051,0.86,-0.86,0.42,0,3.378,-8.026,-1.163,-10.386,0.002,-0.013,0.000,0.000,0.000,0.000
39424,-0.0011,-0.6229,0.2985,0.0625,0.0169,0.0081,0.60,-0.76,-0.11,0,3.378,-7.547,0.825,-9.322,0.000,-0.009,0.000,0.000,0.000,0.000
39475,-0.0014,-0.6286,0.2972,0.0622,0.0002,-0.0006,0.38,-0.71,-0.59,0,3.378,-0.530,-3.052,-8.880,0.008,-0.008,0.000,0.000,0.000,0.000
39527,0.0054,-0.6297,0.2972,0.0750,-0.0049,0.0023,0.19,-0.62,-1.05,0,3.384,-6.054,-5.283,-5.928,0.002,-0.015,0.000,0.000,0.000,0.000
39578,0.0081,-0.6310,0.2982,0.0775,-0.0082,0.0124,0.01,-0.28,-1.39,0,3.378,2.267,1.913,-5.449,0.004,-0.009,0.000,0.000,0.000,0.000
39629,0.0114,-0.6344,0.2995,0.0786,-0.0141,0.0214,0.10,-0.25,-1.66,0,3.384,1.652,3.590,-3.975,0.007,-0.011,0.000,0.000,0.000,0.000
39679,0.0147,-0.6349,0.2987,0.0796,-0.0146,0.0146,0.15,-0.36,-1.82,0,3.384,1.916,0.451,-3.139,0.002,-0.011,0.000,0.000,0.000,0.000
39731,0.0182,-0.6365,0.2998,0.0814,-0.0179,0.0203,0.28,-0.36,-1.95,0,3.384,-0.850,1.674,-0.673,-0.001,-0.010,0.000,0.000,0.000,0.000
39781,0.0211,-0.6393,0.3011,0.0820,-0.0240,0.0233,0.28,-0.36,-1.97,0,3.389,-0.504,-0.157,2.141,-0.002,-0.011,0.000,0.000,0.000,0.000
39833,0.0264,-0.6412,0.3010,0.0874,-0.0278,0.0197,0.22,-0.41,-1.87,0,3.389,1.626,-2.714,5.182,0.005,-0.008,0.000,0.000,0.000,0.000
39884,0.0284,-0.6441,0.3026,0.0857,-0.0328,0.0254,0.25,-0.33,-1.64,0,3.389,-0.627,0.167,5.359,0.002,-0.011,0.000,0.000,0.000,0.000
39935,0.0323,-0.6451,0.3036,0.0877,-0.0337,0.0245,0.28,-0.37,-1.37,0,3.389,-0.328,1.136,5.565,0.002,-0.009,0.000,0.000,0.000,0.000
39986,0.0372,-0.6476,0.3028,0.0918,-0.0379,0.0137,0.22,-0.47,-1.12,0,3.384,-3.567,0.139,5.762,-0.001,-0.007,0.000,0.000,0.000,0.000
