time_ms,pos_x,pos_y,pos_z,vel_x,vel_y,vel_z,roll,pitch,yaw,thrust,vbat,gyro_x,gyro_y,gyro_z,acc_x,acc_y,acc_z,rate_roll,rate_pitch,rate_yaw,range_z,flow_dx,flow_dy
0,-1.0359,-2.4190,0.0091,0.0029,-0.0055,0.0022,-2.24,0.45,-0.44,0,3.922,-0.083,0.150,-0.029,0.011,-0.041,0.000,0.000,0.000,0.000,0.0060,2,-3
51,-1.0362,-2.4186,0.0092,0.0021,-0.0032,0.0033,-2.22,0.43,-0.45,0,3.917,-0.315,0.077,0.082,0.007,-0.041,0.000,0.000,0.000,0.000,0.0090,4,-4
102,-1.0362,-2.4186,0.0082,0.0025,-0.0031,0.0002,-2.20,0.42,-0.44,0,3.922,-0.196,-0.235,0.262,0.009,-0.040,0.000,0.000,0.000,0.000,0.0090,1,0
153,-1.0354,-2.4193,0.0083,0.0064,-0.0063,0.0010,-2.19,0.43,-0.45,0,3.917,0.024,-0.099,0.268,0.008,-0.041,0.000,0.000,0.000,0.000,0.0070,1,-3
204,-1.0361,-2.4189,0.0081,0.0018,-0.0039,0.0003,-2.20,0.43,-0.44,0,3.927,-0.170,0.066,-0.034,0.010,-0.043,0.000,0.000,0.000,0.000,0.0060,2,7
254,-1.0355,-2.4189,0.0081,0.0051,-0.0037,0.0016,-2.20,0.51,-0.43,0,3.917,0.138,0.092,-0.087,0.009,-0.042,0.000,0.000,0.000,0.000,0.0060,3,0
305,-1.0353,-2.4187,0.0067,0.0060,-0.0029,-0.0045,-2.20,0.44,-0.44,0,3.922,0.066,0.054,-0.165,0.011,-0.040,0.000,0.000,0.000,0.000,0.0050,3,-4
356,-1.0361,-2.4187,0.0065,0.0009,-0.0031,-0.0039,-2.19,0.43,-0.44,0,3.917,0.075,-0.193,-0.161,0.008,-0.040,0.000,0.000,0.000,0.000,0.0090,-1,0
408,-1.0367,-2.4189,0.0070,-0.0029,-0.0042,0.0011,-2.22,0.50,-0.42,0,3.927,-0.096,0.136,0.040,0.010,-0.042,0.000,0.000,0.000,0.000,0.0070,-2,-1
459,-1.0355,-2.4197,0.0071,0.0050,-0.0084,0.0023,-2.20,0.43,-0.43,0,3.917,0.116,-0.035,-0.232,0.012,-0.038,0.000,0.000,0.000,0.000,0.0060,2,-3
510,-1.0362,-2.4190,0.0067,0.0013,-0.0044,0.0009,-2.19,0.44,-0.43,0,3.927,-0.136,-0.223,0.154,0.010,-0.041,0.000,0.000,0.000,0.000,0.0100,0,7
561,-1.0355,-2.4197,0.0068,0.0048,-0.0073,0.0018,-2.18,0.51,-0.41,0,3.917,-0.128,0.208,0.044,0.009,-0.040,0.000,0.000,0.000,0.000,0.0090,-2,7
612,-1.0353,-2.4195,0.0088,0.0069,-0.0070,0.0118,-2.20,0.51,-0.41,0,3.922,0.048,0.027,-0.079,0.009,-0.041,0.000,0.000,0.000,0.000,0.0060,-3,7
663,-1.0354,-2.4195,0.0095,0.0063,-0.0067,0.0133,-2.22,0.50,-0.42,0,3.917,0.020,-0.057,-0.139,0.009,-0.041,0.000,0.000,0.000,0.000,0.0090,-1,0
714,-1.0368,-2.4189,0.0086,-0.0020,-0.0040,0.0080,-2.22,0.50,-0.42,0,3.927,0.120,-0.055,-0.293,0.009,-0.040,0.000,0.000,0.000,0.000,0.0070,-2,2
764,-1.0353,-2.4193,0.0091,0.0066,-0.0062,0.0088,-2.21,0.45,-0.42,0,3.917,0.034,-0.300,0.090,0.008,-0.042,0.000,0.000,0.000,0.000,0.0070,-1,0
816,-1.0362,-2.4187,0.0079,0.0014,-0.0032,0.0013,-2.23,0.47,-0.42,0,3.927,-0.184,-0.117,0.044,0.008,-0.039,0.000,0.000,0.000,0.000,0.0070,-3,3
867,-1.0353,-2.4194,0.0080,0.0065,-0.0065,0.0026,-2.22,0.47,-0.42,0,3.917,-0.241,-0.046,0.454,0.008,-0.040,0.000,0.000,0.000,0.000,0.0090,0,-1
918,-1.0364,-2.4191,0.0082,-0.0001,-0.0050,0.0044,-2.20,0.48,-0.41,0,3.922,0.266,0.047,0.275,0.011,-0.041,0.000,0.000,0.000,0.000,0.0110,3,0
968,-1.0354,-2.4186,0.0084,0.0053,-0.0024,0.0057,-2.18,0.45,-0.41,0,3.917,0.017,0.048,0.139,0.007,-0.043,0.000,0.000,0.000,0.000,0.0070,2,0
1020,-1.0360,-2.4184,0.0089,0.0014,-0.0017,0.0066,-2.20,0.48,-0.41,0,3.927,0.021,-0.253,-0.102,0.010,-0.039,0.000,0.000,0.000,0.000,0.0060,-3,8
1071,-1.0353,-2.4195,0.0093,0.0052,-0.0077,0.0083,-2.20,0.53,-0.40,0,3.917,0.078,-0.214,-0.036,0.008,-0.041,0.000,0.000,0.000,0.000,0.0070,1,-3
1121,-1.0370,-2.4187,0.0076,-0.0040,-0.0032,-0.0001,-2.20,0.49,-0.40,0,3.927,-0.187,-0.243,0.283,0.010,-0.042,0.000,0.000,0.000,0.000,0.0080,0,0
1172,-1.0354,-2.4196,0.0076,0.0057,-0.0081,0.0013,-2.17,0.44,-0.41,0,3.917,0.329,-0.115,-0.147,0.009,-0.040,0.000,0.000,0.000,0.000,0.0090,0,1
1223,-1.0368,-2.4189,0.0083,-0.0028,-0.0045,0.0051,-2.20,0.52,-0.39,0,3.927,-0.026,0.131,0.184,0.007,-0.041,0.000,0.000,0.000,0.000,0.0060,0,0
1275,-1.0354,-2.4193,0.0087,0.0058,-0.0066,0.0066,-2.18,0.43,-0.40,0,3.917,0.189,-0.005,-0.216,0.009,-0.042,0.000,0.000,0.000,0.000,0.0060,1,-6
1326,-1.0368,-2.4189,0.0069,-0.0029,-0.0047,-0.0023,-2.19,0.44,-0.40,0,3.927,-0.048,0.151,-0.400,0.007,-0.041,0.000,0.000,0.000,0.000,0.0080,-3,2
1377,-1.0355,-2.4194,0.0069,0.0046,-0.0072,-0.0013,-2.21,0.46,-0.40,0,3.917,-0.109,0.116,-0.128,0.011,-0.043,0.000,0.000,0.000,0.000,0.0080,-1,0
1427,-1.0362,-2.4192,0.0077,0.0015,-0.0060,0.0042,-2.20,0.47,-0.40,0,3.927,-0.044,-0.063,0.172,0.009,-0.041,0.000,0.000,0.000,0.000,0.0070,-1,2
1479,-1.0355,-2.4195,0.0079,0.0056,-0.0077,0.0053,-2.19,0.46,-0.40,0,3.917,0.146,-0.135,-0.035,0.009,-0.041,0.000,0.000,0.000,0.000,0.0070,-3,-7
1529,-1.0371,-2.4195,0.0074,-0.0034,-0.0074,0.0031,-2.21,0.44,-0.40,0,3.922,-0.225,-0.221,0.090,0.010,-0.039,0.000,0.000,0.000,0.000,0.0060,3,-4
1580,-1.0363,-2.4189,0.0076,0.0022,-0.0050,0.0042,-2.18,0.44,-0.39,0,3.917,0.055,-0.031,-0.073,0.008,-0.040,0.000,0.000,0.000,0.000,0.0070,0,0
1631,-1.0371,-2.4189,0.0070,-0.0031,-0.0045,0.0012,-2.21,0.52,-0.38,0,3.927,0.118,-0.137,-0.058,0.007,-0.043,0.000,0.000,0.000,0.000,0.0060,4,3
1683,-1.0353,-2.4176,0.0071,0.0071,0.0020,0.0026,-2.22,0.47,-0.39,0,3.917,-0.068,0.249,0.113,0.008,-0.039,0.000,0.000,0.000,0.000,0.0070,0,-7
1734,-1.0371,-2.4196,0.0068,-0.0033,-0.0092,0.0020,-2.18,0.45,-0.39,0,3.927,0.001,0.045,-0.011,0.009,-0.038,0.000,0.000,0.000,0.000,0.0070,-3,7
1785,-1.0354,-2.4194,0.0070,0.0064,-0.0068,0.0028,-2.22,0.52,-0.38,0,3.917,0.051,-0.212,-0.158,0.009,-0.040,0.000,0.000,0.000,0.000,0.0090,2,-4
1836,-1.0363,-2.4189,0.0079,0.0017,-0.0044,0.0076,-2.19,0.45,-0.38,0,3.922,-0.045,-0.112,0.042,0.009,-0.037,0.000,0.000,0.000,0.000,0.0070,-2,-5
1886,-1.0371,-2.4195,0.0083,-0.0040,-0.0074,0.0090,-2.20,0.48,-0.38,0,3.917,-0.168,-0.026,-0.442,0.009,-0.039,0.000,0.000,0.000,0.000,0.0060,0,-8
1938,-1.0371,-2.4187,0.0073,-0.0044,-0.0022,0.0022,-2.21,0.46,-0.38,0,3.927,0.221,0.150,-0.064,0.011,-0.042,0.000,0.000,0.000,0.000,0.0070,0,-6
1989,-1.0369,-2.4197,0.0074,-0.0030,-0.0077,0.0036,-2.17,0.47,-0.38,0,3.917,0.194,-0.333,-0.082,0.010,-0.042,0.000,0.000,0.000,0.000,0.0090,0,0
2040,-1.0371,-2.4187,0.0081,-0.0038,-0.0032,0.0069,-2.20,0.54,-0.37,0,3.927,0.111,-0.025,0.178,0.009,-0.041,0.000,0.000,0.000,0.000,0.0050,-1,0
2091,-1.0362,-2.4190,0.0084,0.0017,-0.0053,0.0076,-2.21,0.49,-0.37,0,3.917,-0.201,0.072,0.174,0.009,-0.043,0.000,0.000,0.000,0.000,0.0080,0,-5
2141,-1.0365,-2.4191,0.0074,0.0000,-0.0056,0.0028,-2.20,0.45,-0.38,0,3.922,-0.015,0.072,-0.106,0.009,-0.041,0.000,0.000,0.000,0.000,0.0080,0,0
2192,-1.0372,-2.4195,0.0077,-0.0039,-0.0079,0.0038,-2.18,0.53,-0.37,0,3.917,-0.111,-0.142,0.264,0.009,-0.044,0.000,0.000,0.000,0.000,0.0070,0,0
2243,-1.0360,-2.4190,0.0076,0.0034,-0.0056,0.0036,-2.20,0.48,-0.37,0,3.927,-0.168,0.207,-0.133,0.008,-0.040,0.000,0.000,0.000,0.000,0.0090,3,-6
2295,-1.0367,-2.4190,0.0079,-0.0010,-0.0052,0.0041,-2.18,0.45,-0.37,0,3.917,0.029,-0.127,-0.279,0.008,-0.040,0.000,0.000,0.000,0.000,0.0090,2,3
2345,-1.0363,-2.4185,0.0089,0.0011,-0.0023,0.0090,-2.21,0.52,-0.36,0,3.927,0.059,-0.121,-0.128,0.007,-0.042,0.000,0.000,0.000,0.000,0.0050,5,-4
2397,-1.0363,-2.4182,0.0094,0.0012,-0.0013,0.0107,-2.19,0.45,-0.37,0,3.917,-0.059,-0.138,0.014,0.011,-0.041,0.000,0.000,0.000,0.000,0.0080,0,-7
2448,-1.0370,-2.4187,0.0078,-0.0021,-0.0036,0.0034,-2.21,0.52,-0.35,0,3.927,0.202,-0.235,0.092,0.010,-0.044,0.000,0.000,0.000,0.000,0.0060,3,-3
2499,-1.0363,-2.4186,0.0080,0.0015,-0.0035,0.0044,-2.19,0.46,-0.36,0,3.917,0.491,0.187,-0.140,0.010,-0.039,0.000,0.000,0.000,0.000,0.0070,-1,7
2550,-1.0357,-2.4191,0.0071,0.0046,-0.0056,0.0012,-2.21,0.52,-0.35,0,3.927,-0.038,0.315,-0.242,0.007,-0.043,0.000,0.000,0.000,0.000,0.0090,-2,0
2600,-1.0355,-2.4196,0.0073,0.0062,-0.0081,0.0025,-2.20,0.45,-0.36,0,3.917,-0.002,-0.028,0.085,0.011,-0.040,0.000,0.000,0.000,0.000,0.0080,2,-7
2651,-1.0369,-2.4189,0.0082,-0.0025,-0.0038,0.0063,-2.19,0.45,-0.36,0,3.927,0.089,0.283,-0.210,0.008,-0.041,0.000,0.000,0.000,0.000,0.0040,-2,0
2702,-1.0355,-2.4195,0.0086,0.0053,-0.0068,0.0077,-2.21,0.45,-0.36,0,3.917,0.240,0.034,-0.150,0.007,-0.040,0.000,0.000,0.000,0.000,0.0060,-1,3
2753,-1.0355,-2.4194,0.0063,0.0053,-0.0059,-0.0030,-2.20,0.48,-0.36,0,3.922,0.121,-0.045,-0.290,0.009,-0.040,0.000,0.000,0.000,0.000,0.0090,1,-3
2805,-1.0363,-2.4187,0.0063,0.0007,-0.0022,-0.0013,-2.21,0.46,-0.35,0,3.917,0.013,-0.205,-0.249,0.010,-0.041,0.000,0.000,0.000,0.000,0.0060,2,3
2856,-1.0363,-2.4189,0.0070,0.0009,-0.0034,0.0024,-2.19,0.51,-0.34,0,3.927,0.080,-0.336,0.039,0.007,-0.040,0.000,0.000,0.000,0.000,0.0070,0,0
2907,-1.0355,-2.4193,0.0071,0.0055,-0.0054,0.0036,-2.19,0.45,-0.34,0,3.917,0.108,0.365,-0.228,0.011,-0.040,0.000,0.000,0.000,0.000,0.0060,2,4
2957,-1.0363,-2.4190,0.0068,0.0007,-0.0036,0.0012,-2.19,0.52,-0.33,0,3.927,-0.178,0.163,0.219,0.011,-0.041,0.000,0.000,0.000,0.000,0.0050,2,4
3009,-1.0363,-2.4192,0.0069,0.0008,-0.0045,0.0023,-2.18,0.53,-0.32,0,3.922,-0.084,-0.046,0.027,0.009,-0.040,0.000,0.000,0.000,0.000,0.0060,0,3
3060,-1.0363,-2.4188,0.0060,0.0013,-0.0023,-0.0011,-2.21,0.51,-0.33,0,3.927,0.174,-0.065,-0.096,0.010,-0.041,0.000,0.000,0.000,0.000,0.0070,1,7
3110,-1.0356,-2.4196,0.0060,0.0054,-0.0068,0.0002,-2.17,0.52,-0.32,0,3.917,0.041,0.045,-0.014,0.007,-0.042,0.000,0.000,0.000,0.000,0.0040,-1,3
3162,-1.0356,-2.4195,0.0055,0.0051,-0.0072,-0.0024,-2.19,0.49,-0.33,0,3.927,0.085,0.260,0.069,0.012,-0.041,0.000,0.000,0.000,0.000,0.0070,5,0
3213,-1.0354,-2.4186,0.0055,0.0064,-0.0019,-0.0014,-2.17,0.45,-0.33,0,3.917,-0.220,0.035,0.020,0.009,-0.041,0.000,0.000,0.000,0.000,0.0060,0,-1
3264,-1.0365,-2.4191,0.0062,0.0002,-0.0044,0.0030,-2.21,0.48,-0.32,0,3.927,-0.419,-0.235,0.218,0.010,-0.041,0.000,0.000,0.000,0.000,0.0070,0,-1
3314,-1.0356,-2.4195,0.0064,0.0051,-0.0063,0.0048,-2.18,0.46,-0.33,0,3.558,0.095,0.035,-0.723,0.009,-0.045,0.000,0.000,0.000,0.000,0.0070,0,0
3366,-1.0372,-2.4189,0.0070,-0.0071,0.0116,0.0064,-2.21,0.55,-0.31,0,3.632,0.609,-0.949,-3.695,-0.011,-0.033,0.000,0.000,0.000,0.000,0.0060,0,0
3417,-1.0376,-2.4187,0.0074,-0.0117,0.0263,0.0085,-2.18,0.60,-0.40,0,3.653,-0.466,-0.055,3.553,0.001,-0.063,0.000,0.000,0.000,0.000,0.0080,4,10
3468,-1.0417,-2.4204,0.0075,-0.0340,0.0273,0.0078,-1.98,0.91,-0.33,0,3.674,0.369,0.847,7.678,0.014,-0.044,0.000,0.000,0.000,0.000,0.0080,12,7
3519,-1.0498,-2.4310,0.0077,-0.0715,-0.0147,0.0082,-1.43,1.08,-0.11,0,3.674,0.876,3.101,5.925,-0.017,-0.019,0.000,0.000,0.000,0.000,0.0070,2,3
3570,-1.0598,-2.4408,0.0071,-0.1105,-0.0461,0.0039,-1.19,1.21,0.13,0,3.684,-2.915,0.033,-24.990,-0.010,-0.065,0.000,0.000,0.000,0.000,0.0080,-4,6
3621,-1.0693,-2.4376,0.0068,-0.1459,-0.0100,0.0006,-1.41,1.40,-0.69,0,3.679,-2.375,5.825,-3.439,0.010,-0.024,0.000,0.000,0.000,0.000,0.0100,-12,15
3671,-1.0804,-2.4301,0.0079,-0.1838,0.0376,0.0027,-1.81,1.68,-0.69,0,3.684,0.560,-0.202,-14.081,0.013,-0.046,0.000,0.000,0.000,0.000,0.0100,-15,5
3723,-1.0885,-2.4127,0.0060,-0.2050,0.1249,-0.0039,-2.24,1.69,-1.02,0,3.679,3.539,7.641,-13.599,0.012,-0.065,0.000,0.000,0.000,0.000,0.0060,0,0
3774,-1.0950,-2.4044,0.0080,-0.1967,0.1499,0.0139,-1.94,1.49,-1.97,0,3.684,-4.068,-5.471,-11.927,0.018,-0.028,0.000,0.000,0.000,0.000,0.0100,2,-5
3824,-1.0977,-2.4021,0.0116,-0.1613,0.1416,0.0247,-1.75,1.20,-2.98,0,3.679,10.512,-10.157,-18.472,0.021,-0.026,0.000,0.000,0.000,0.000,0.0080,-22,-3
3875,-1.0906,-2.3807,0.0097,-0.1045,0.2277,0.0183,-2.38,0.61,-3.46,0,3.679,-13.131,-2.376,-4.866,0.005,-0.046,0.000,0.000,0.000,0.000,0.0090,-32,-7
3927,-1.0812,-2.3508,0.0042,-0.0502,0.3310,-0.0279,-2.93,0.35,-3.85,0,3.658,12.401,3.998,0.724,0.020,-0.039,0.000,0.000,0.000,0.000,0.0080,-17,-2
3978,-1.0749,-2.3216,0.0031,-0.0139,0.4145,-0.0137,-2.71,0.04,-3.82,0,3.663,43.541,-6.454,-0.670,0.007,-0.057,0.000,0.000,0.000,0.000,0.0080,-31,1
4028,-1.0732,-2.2991,0.0027,-0.0028,0.4387,0.0148,-0.71,0.05,-3.76,0,3.663,50.208,-7.990,4.077,-0.001,-0.023,0.000,0.000,0.000,0.000,0.0080,0,1
4079,-1.0728,-2.2880,0.0109,-0.0068,0.3776,0.0621,3.10,0.09,-3.29,0,3.674,48.445,-1.754,7.993,0.002,-0.001,0.000,0.000,0.000,0.000,0.0000,23,6
4131,-1.0763,-2.2958,0.0197,-0.0452,0.2144,0.0911,6.84,0.23,-2.33,0,3.653,16.338,-0.627,15.960,0.005,0.022,0.000,0.000,0.000,0.000,0.0000,27,5
4181,-1.0775,-2.3352,0.0039,-0.0657,-0.0689,-0.0271,9.36,0.24,-1.02,0,3.626,-56.838,13.250,20.617,-0.000,0.052,0.000,0.000,0.000,0.000,0.0000,51,4
4232,-1.0776,-2.3884,-0.0245,-0.0726,-0.3591,-0.2066,8.96,0.19,0.97,0,3.600,-105.200,18.731,30.295,0.000,0.013,0.000,0.000,0.000,0.000,0.0000,165,9
4283,-1.0828,-2.4246,-0.0203,-0.0625,-0.5030,-0.1562,4.45,-0.48,1.68,0,3.605,-51.554,-18.947,37.831,0.043,0.069,0.000,0.000,0.000,0.000,0.0090,58,-5
4334,-1.0872,-2.4586,-0.0342,-0.0377,-0.5744,-0.1434,2.20,-0.65,2.64,0,3.616,-63.463,24.512,28.513,-0.003,-0.000,0.000,0.000,0.000,0.000,0.0140,41,6
4385,-1.0871,-2.5254,-0.0228,-0.0109,-0.7767,-0.0610,1.54,-0.95,3.62,0,3.605,-83.752,15.338,12.595,-0.022,-0.027,0.000,0.000,0.000,0.000,0.0050,52,-5
4437,-1.0933,-2.5595,-0.0101,0.0113,-0.7351,0.0792,-3.14,-1.77,2.97,0,3.632,-124.384,20.652,6.177,0.005,-0.001,0.000,0.000,0.000,0.000,0.0000,0,3
4488,-1.0978,-2.5899,0.0082,0.0378,-0.6353,0.1761,-10.96,-3.34,1.92,0,3.658,-24.810,2.721,10.574,-0.001,-0.010,0.000,0.000,0.000,0.000,0.0000,-63,-22
4539,-1.1104,-2.5859,0.0294,0.0756,-0.3340,0.2210,-15.54,-4.01,-0.29,0,3.637,131.176,-23.442,25.264,-0.006,-0.022,0.000,0.000,0.000,0.000,0.0000,10,1
4590,-1.1170,-2.5452,0.0116,0.1319,0.0112,0.0346,-10.75,-3.28,0.31,0,3.616,100.961,-23.931,22.987,0.008,-0.055,0.000,0.000,0.000,0.000,0.0000,21,6
4640,-1.1148,-2.5707,0.0177,0.1163,-0.0492,0.0137,-4.04,-1.94,1.58,0,3.600,-5.949,-12.965,13.899,0.002,-0.035,0.000,0.000,0.000,0.000,0.0000,-13,-24
4691,-1.0886,-2.5673,0.0044,0.1726,0.0074,-0.0744,-4.05,-1.78,4.65,0,3.574,107.282,-67.042,-20.821,-0.020,-0.052,0.000,0.000,0.000,0.000,0.0040,0,-6
4743,-1.0498,-2.5742,0.0001,0.2321,0.0014,-0.0463,0.90,0.93,5.84,0,3.568,1.982,-5.351,-9.968,0.003,-0.111,0.000,0.000,0.000,0.000,0.0090,3,-26
4794,-1.0436,-2.5794,0.0045,0.2099,-0.0289,0.0297,0.81,0.23,5.47,0,3.605,-18.366,-46.699,-16.308,0.022,-0.061,0.000,0.000,0.000,0.000,0.0090,1,-11
4844,-1.0145,-2.5777,0.0066,0.2607,-0.0190,0.1017,0.15,2.18,5.18,0,3.605,-21.047,-12.468,-17.075,0.010,-0.016,0.000,0.000,0.000,0.000,0.0000,-26,-5
4896,-1.0182,-2.5682,0.0096,0.1856,0.0315,0.1108,-1.24,3.72,3.65,0,3.605,32.180,-9.019,-15.363,-0.008,-0.041,0.000,0.000,0.000,0.000,0.0000,-79,12
4946,-1.0207,-2.5446,0.0132,0.0829,0.1451,0.1074,-1.40,5.01,3.61,0,3.584,55.825,41.386,-13.812,-0.003,-0.022,0.000,0.000,0.000,0.000,0.0240,-6,10
4998,-1.0339,-2.5198,0.0133,-0.0631,0.2287,0.1002,1.29,3.88,2.52,0,3.589,31.308,54.388,-9.088,0.002,-0.026,0.000,0.000,0.000,0.000,0.0220,0,11
5049,-1.0480,-2.5129,0.0181,-0.1347,0.1984,0.1063,3.35,1.32,1.81,0,3.584,-11.797,35.332,-11.740,0.005,-0.016,0.000,0.000,0.000,0.000,0.0250,-45,14
5100,-1.0594,-2.5055,0.0249,-0.1667,0.1600,0.1232,2.50,-0.47,2.32,0,3.584,-13.615,35.549,-12.338,0.000,-0.016,0.000,0.000,0.000,0.000,0.0370,-20,4
5150,-1.0615,-2.4867,0.0297,-0.1706,0.1845,0.1194,1.48,-2.22,1.88,0,3.579,51.483,36.650,-9.841,0.007,-0.019,0.000,0.000,0.000,0.000,0.0420,-5,8
5202,-1.0680,-2.4756,0.0404,-0.1396,0.1772,0.1459,3.67,-4.20,1.33,0,3.584,20.896,23.786,-6.861,-0.002,-0.027,0.000,0.000,0.000,0.000,0.0570,-27,0
5253,-1.0732,-2.4723,0.0484,-0.0823,0.1249,0.1458,4.88,-5.60,0.51,0,3.579,-20.973,-22.882,-3.120,-0.001,-0.022,0.000,0.000,0.000,0.000,0.0720,-29,-10
5303,-1.0762,-2.4631,0.0639,-0.0192,0.1020,0.1672,3.86,-5.00,-0.53,0,3.579,-13.372,-15.323,6.827,-0.015,-0.010,0.000,0.000,0.000,0.000,0.0730,15,-8
5355,-1.0819,-2.4483,0.0701,0.0706,0.1272,0.1405,3.14,-4.34,-1.18,0,3.574,27.631,-38.119,9.189,-0.003,-0.014,0.000,0.000,0.000,0.000,0.0700,-6,-9
5406,-1.0721,-2.4511,0.0747,0.1267,0.0589,0.1226,4.29,-2.78,-1.04,0,3.574,-25.867,-28.214,10.371,-0.006,-0.022,0.000,0.000,0.000,0.000,0.0670,-4,-9
5456,-1.0686,-2.4447,0.0802,0.1633,0.0477,0.1086,3.18,-1.11,-1.37,0,3.547,-22.138,-31.551,15.906,-0.005,-0.009,0.000,0.000,0.000,0.000,0.0710,-3,-18
5508,-1.0635,-2.4389,0.0750,0.1754,0.0415,0.0559,1.74,0.36,-1.38,0,3.547,10.977,-32.050,15.004,-0.001,-0.015,0.000,0.000,0.000,0.000,0.0780,-6,-8
5558,-1.0552,-2.4354,0.0776,0.1846,0.0364,0.0674,2.04,1.88,-0.80,0,3.542,-7.173,-26.005,14.621,-0.004,-0.015,0.000,0.000,0.000,0.000,0.0870,6,-6
5610,-1.0467,-2.4345,0.0837,0.1606,0.0153,0.0982,1.95,3.23,-0.03,0,3.547,-26.256,4.236,11.058,-0.008,-0.018,0.000,0.000,0.000,0.000,0.0890,6,-6
5660,-1.0392,-2.4351,0.0892,0.1316,-0.0052,0.1196,0.84,3.32,0.46,0,3.542,-13.387,10.052,8.676,0.000,-0.011,0.000,0.000,0.000,0.000,0.0930,0,-2
5712,-1.0346,-2.4373,0.0943,0.0955,-0.0219,0.1355,0.01,2.94,0.98,0,3.547,-8.639,10.060,4.337,-0.001,-0.011,0.000,0.000,0.000,0.000,0.1000,8,-3
5762,-1.0302,-2.4355,0.1017,0.0631,-0.0085,0.1589,-0.53,2.42,1.34,0,3.547,-12.331,11.555,3.878,-0.007,-0.014,0.000,0.000,0.000,0.000,0.1050,8,0
5813,-1.0287,-2.4374,0.1071,0.0388,-0.0113,0.1653,-1.06,1.85,1.44,0,3.547,-5.226,11.444,4.579,-0.000,-0.012,0.000,0.000,0.000,0.000,0.1110,0,0
5865,-1.0280,-2.4389,0.1159,0.0202,-0.0061,0.1868,-1.42,1.29,1.68,0,3.542,-3.966,5.998,3.500,0.001,-0.010,0.000,0.000,0.000,0.000,0.1260,-19,0
5915,-1.0300,-2.4379,0.1238,-0.0057,0.0104,0.1940,-1.77,1.08,2.14,0,3.552,-1.649,8.402,2.952,0.002,-0.012,0.000,0.000,0.000,0.000,0.1360,6,2
5967,-1.0280,-2.4317,0.1337,-0.0135,0.0466,0.2079,-1.78,0.63,2.17,0,3.547,6.803,7.305,1.412,0.001,-0.011,0.000,0.000,0.000,0.000,0.1460,0,1
6017,-1.0282,-2.4368,0.1453,-0.0068,0.0268,0.2256,-1.27,0.14,2.06,0,3.558,6.642,-2.397,2.728,0.007,-0.010,0.000,0.000,0.000,0.000,0.1520,-3,-1
6069,-1.0296,-2.4368,0.1569,-0.0108,0.0312,0.2352,-1.00,0.18,2.15,0,3.552,-6.116,-3.961,3.334,0.001,-0.011,0.000,0.000,0.000,0.000,0.1640,-6,-2
6120,-1.0264,-2.4365,0.1646,0.0009,0.0328,0.2203,-1.18,0.24,2.40,0,3.558,0.360,-0.937,3.119,-0.000,-0.007,0.000,0.000,0.000,0.000,0.1740,-11,-6
6171,-1.0262,-2.4336,0.1756,-0.0015,0.0465,0.2221,-1.27,0.25,2.62,0,3.552,11.181,-1.573,1.184,0.004,-0.014,0.000,0.000,0.000,0.000,0.1900,0,1
6222,-1.0243,-2.4273,0.1868,0.0003,0.0699,0.2246,-0.71,0.33,2.64,0,3.563,7.273,-3.590,0.184,0.005,-0.018,0.000,0.000,0.000,0.000,0.1980,-9,0
6273,-1.0246,-2.4236,0.1980,-0.0037,0.0764,0.2225,-0.39,0.57,2.67,0,3.558,2.553,-2.198,-1.250,0.001,-0.015,0.000,0.000,0.000,0.000,0.2130,2,0
6323,-1.0258,-2.4184,0.2099,-0.0116,0.0835,0.2250,-0.11,0.70,2.55,0,3.568,8.375,4.403,-2.577,0.005,-0.013,0.000,0.000,0.000,0.000,0.2180,0,0
6375,-1.0267,-2.4137,0.2212,-0.0181,0.0862,0.2185,0.30,0.55,2.40,0,3.558,9.997,2.991,-3.529,0.000,-0.014,0.000,0.000,0.000,0.000,0.2330,-14,0
6426,-1.0284,-2.4120,0.2307,-0.0241,0.0747,0.2041,0.65,0.33,2.24,0,3.563,-2.616,0.439,-2.118,0.001,-0.014,0.000,0.000,0.000,0.000,0.2430,1,2
6476,-1.0294,-2.4045,0.2406,-0.0266,0.0808,0.1925,0.67,0.32,2.09,0,3.558,-0.425,-2.335,-1.546,0.005,-0.018,0.000,0.000,0.000,0.000,0.2500,0,0
6528,-1.0324,-2.4024,0.2507,-0.0335,0.0698,0.1831,0.70,0.47,1.97,0,3.563,3.092,0.834,-2.071,0.002,-0.011,0.000,0.000,0.000,0.000,0.2590,7,0
6578,-1.0337,-2.3967,0.2595,-0.0361,0.0710,0.1708,0.84,0.40,1.86,0,3.558,1.302,2.495,-1.905,0.004,-0.017,0.000,0.000,0.000,0.000,0.2730,-10,-3
6630,-1.0337,-2.3997,0.2698,-0.0337,0.0465,0.1682,0.77,0.22,1.82,0,3.563,-0.795,-0.680,-1.956,-0.001,-0.008,0.000,0.000,0.000,0.000,0.2780,0,0
6681,-1.0332,-2.3924,0.2778,-0.0300,0.0533,0.1541,0.71,0.28,1.73,0,3.558,3.088,-1.805,-1.266,-0.001,-0.012,0.000,0.000,0.000,0.000,0.2860,0,0
6732,-1.0354,-2.3953,0.2856,-0.0337,0.0327,0.1403,0.89,0.33,1.65,0,3.563,-2.614,1.295,-1.628,0.003,-0.015,0.000,0.000,0.000,0.000,0.2940,0,0
6782,-1.0372,-2.3939,0.2921,-0.0361,0.0254,0.1229,0.73,0.26,1.60,0,3.558,-7.449,-0.889,-2.882,0.006,-0.014,0.000,0.000,0.000,0.000,0.2970,13,2
6833,-1.0382,-2.3905,0.2981,-0.0360,0.0252,0.1068,0.62,0.24,1.49,0,3.558,-6.750,-5.647,-2.835,0.004,-0.013,0.000,0.000,0.000,0.000,0.2990,0,0
6885,-1.0410,-2.4028,0.3031,-0.0400,-0.0111,0.0914,0.27,0.49,1.29,0,3.547,-11.823,-1.107,-2.759,0.003,-0.008,0.000,0.000,0.000,0.000,0.3040,3,0
6936,-1.0434,-2.4040,0.3047,-0.0449,-0.0146,0.0664,-0.12,0.56,1.17,0,3.552,-5.935,-0.403,-2.580,0.002,-0.012,0.000,0.000,0.000,0.000,0.3040,-1,0
6987,-1.0448,-2.4088,0.3078,-0.0473,-0.0222,0.0575,-0.48,0.54,1.04,0,3.542,-4.667,-5.312,-2.198,0.003,-0.012,0.000,0.000,0.000,0.000,0.3050,0,0
7037,-1.0472,-2.4105,0.3070,-0.0519,-0.0194,0.0361,-0.67,0.78,0.88,0,3.542,-0.791,-2.088,-2.623,0.004,-0.011,0.000,0.000,0.000,0.000,0.3100,-1,0
7089,-1.0509,-2.4198,0.3088,-0.0603,-0.0315,0.0341,-0.76,0.84,0.77,0,3.537,-2.830,2.567,-2.586,0.005,-0.014,0.000,0.000,0.000,0.000,0.3120,3,3
7140,-1.0536,-2.4219,0.3115,-0.0665,-0.0269,0.0407,-0.78,0.72,0.57,0,3.542,-0.750,2.082,-3.111,0.005,-0.014,0.000,0.000,0.000,0.000,0.3120,0,0
7191,-1.0582,-2.4244,0.3136,-0.0749,-0.0225,0.0432,-0.87,0.59,0.47,0,3.537,-0.504,1.058,-2.044,0.004,-0.012,0.000,0.000,0.000,0.000,0.3140,2,2
7242,-1.0619,-2.4299,0.3146,-0.0795,-0.0245,0.0410,-0.87,0.54,0.36,0,3.542,4.750,3.581,-2.477,0.001,-0.012,0.000,0.000,0.000,0.000,0.3150,1,2
7293,-1.0668,-2.4344,0.3167,-0.0853,-0.0241,0.0441,-0.67,0.38,0.24,0,3.537,1.190,1.333,-2.063,0.007,-0.014,0.000,0.000,0.000,0.000,0.3160,0,0
7344,-1.0707,-2.4310,0.3173,-0.0874,-0.0086,0.0399,-0.83,0.25,0.18,0,3.542,-0.914,-2.785,-0.904,0.004,-0.013,0.000,0.000,0.000,0.000,0.3180,0,0
7395,-1.0781,-2.4391,0.3194,-0.0956,-0.0174,0.0448,-0.69,0.35,0.09,0,3.537,5.932,1.055,-1.915,0.004,-0.006,0.000,0.000,0.000,0.000,0.3200,-2,0
7446,-1.0839,-2.4402,0.3206,-0.1006,-0.0126,0.0438,-0.51,0.37,0.03,0,3.542,-1.615,0.984,0.030,0.007,-0.011,0.000,0.000,0.000,0.000,0.3240,7,2
7497,-1.0891,-2.4369,0.3229,-0.1040,-0.0009,0.0488,-0.44,0.32,-0.01,0,3.537,3.195,1.438,0.593,0.008,-0.015,0.000,0.000,0.000,0.000,0.3260,0,1
7547,-1.0958,-2.4455,0.3260,-0.1096,-0.0135,0.0572,-0.23,0.26,-0.01,0,3.542,1.848,-0.082,0.579,0.004,-0.013,0.000,0.000,0.000,0.000,0.3300,3,0
7598,-1.1015,-2.4432,0.3291,-0.1121,-0.0063,0.0626,0.02,0.20,-0.02,0,3.542,2.383,0.899,0.450,0.004,-0.013,0.000,0.000,0.000,0.000,0.3290,0,1
7649,-1.1049,-2.4527,0.3312,-0.1098,-0.0241,0.0588,0.15,0.18,0.00,0,3.542,1.613,0.930,0.625,0.003,-0.012,0.000,0.000,0.000,0.000,0.3330,-2,0
7700,-1.1098,-2.4520,0.3342,-0.1102,-0.0218,0.0599,0.17,0.14,0.04,0,3.537,-0.467,2.058,-0.018,0.005,-0.011,0.000,0.000,0.000,0.000,0.3350,0,1
7752,-1.1117,-2.4488,0.3359,-0.1045,-0.0151,0.0538,0.13,0.04,0.07,0,3.542,1.328,-3.564,0.307,0.007,-0.010,0.000,0.000,0.000,0.000,0.3370,0,0
7803,-1.1172,-2.4574,0.3386,-0.1053,-0.0312,0.0529,0.28,0.17,0.10,0,3.531,-3.366,-2.412,0.659,0.006,-0.013,0.000,0.000,0.000,0.000,0.3390,1,0
7853,-1.1217,-2.4573,0.3398,-0.1056,-0.0302,0.0449,0.20,0.29,0.11,0,3.542,-2.097,0.362,0.732,0.007,-0.011,0.000,0.000,0.000,0.000,0.3460,0,2
7904,-1.1238,-2.4535,0.3421,-0.1019,-0.0213,0.0449,0.15,0.27,0.14,0,3.537,1.366,0.119,-0.409,0.008,-0.016,0.000,0.000,0.000,0.000,0.3450,1,0
7956,-1.1288,-2.4610,0.3458,-0.1039,-0.0343,0.0496,0.22,0.26,0.13,0,3.537,-2.341,-1.432,-0.735,0.010,-0.011,0.000,0.000,0.000,0.000,0.3470,0,2
8006,-1.1331,-2.4621,0.3482,-0.1046,-0.0350,0.0472,0.16,0.33,0.10,0,3.537,0.990,-0.751,-0.392,0.005,-0.008,0.000,0.000,0.000,0.000,0.3500,0,2
8058,-1.1382,-2.4599,0.3499,-0.1069,-0.0286,0.0424,0.11,0.35,0.09,0,3.537,4.236,0.914,-0.561,0.006,-0.011,0.000,0.000,0.000,0.000,0.3530,0,0
8108,-1.1436,-2.4670,0.3520,-0.1098,-0.0406,0.0401,0.33,0.32,0.08,0,3.531,-0.985,-0.122,-1.263,0.006,-0.014,0.000,0.000,0.000,0.000,0.3540,3,2
8160,-1.1483,-2.4671,0.3543,-0.1110,-0.0398,0.0376,0.33,0.33,0.03,0,3.542,-2.105,0.471,-1.208,0.007,-0.006,0.000,0.000,0.000,0.000,0.3550,4,1
8210,-1.1549,-2.4712,0.3561,-0.1156,-0.0461,0.0349,0.26,0.33,-0.04,0,3.531,-0.508,0.481,-1.513,0.004,-0.009,0.000,0.000,0.000,0.000,0.3550,0,0
8261,-1.1588,-2.4742,0.3563,-0.1146,-0.0492,0.0245,0.22,0.27,-0.12,0,3.537,0.977,0.592,-1.811,0.006,-0.010,0.000,0.000,0.000,0.000,0.3590,0,1
8312,-1.1674,-2.4796,0.3574,-0.1223,-0.0564,0.0218,0.21,0.23,-0.19,0,3.531,2.771,2.804,-0.044,0.009,-0.010,0.000,0.000,0.000,0.000,0.3630,0,2
8364,-1.1724,-2.4884,0.3609,-0.1219,-0.0699,0.0323,0.35,0.07,-0.20,0,3.542,3.824,5.603,0.625,0.008,-0.010,0.000,0.000,0.000,0.000,0.3650,3,1
8415,-1.1776,-2.4845,0.3624,-0.1203,-0.0590,0.0287,0.57,-0.26,-0.17,0,3.537,-1.315,2.488,1.492,0.009,-0.010,0.000,0.000,0.000,0.000,0.3600,0,0
8466,-1.1823,-2.4926,0.3629,-0.1156,-0.0731,0.0172,0.59,-0.40,-0.10,0,3.537,-4.095,-2.360,1.623,0.005,-0.008,0.000,0.000,0.000,0.000,0.3620,4,0
8517,-1.1877,-2.4898,0.3636,-0.1118,-0.0651,0.0086,0.40,-0.31,-0.04,0,3.526,0.325,-2.480,1.452,0.005,-0.013,0.000,0.000,0.000,0.000,0.3620,0,2
8567,-1.1904,-2.4936,0.3626,-0.1040,-0.0688,-0.0040,0.28,-0.18,0.03,0,3.531,3.353,-3.471,2.288,0.004,-0.007,0.000,0.000,0.000,0.000,0.3620,8,3
8619,-1.1962,-2.4977,0.3623,-0.1040,-0.0727,-0.0082,0.52,0.00,0.19,0,3.526,-1.371,-0.790,2.901,0.005,-0.008,0.000,0.000,0.000,0.000,0.3590,-1,0
8670,-1.2013,-2.5079,0.3605,-0.1038,-0.0888,-0.0184,0.48,0.04,0.31,0,3.531,-7.258,-2.364,3.237,0.006,-0.012,0.000,0.000,0.000,0.000,0.3610,5,1
8720,-1.2041,-2.5111,0.3595,-0.0994,-0.0899,-0.0209,0.22,0.10,0.47,0,3.521,-3.357,-6.146,2.709,0.004,-0.008,0.000,0.000,0.000,0.000,0.3560,0,0
8771,-1.2078,-2.5200,0.3578,-0.0982,-0.0991,-0.0244,-0.05,0.32,0.60,0,3.526,-3.513,-3.916,2.588,0.004,-0.005,0.000,0.000,0.000,0.000,0.3560,0,0
8823,-1.2129,-2.5224,0.3566,-0.1015,-0.0935,-0.0220,-0.28,0.54,0.74,0,3.521,-4.728,0.075,3.224,0.004,-0.007,0.000,0.000,0.000,0.000,0.3550,0,2
8874,-1.2161,-2.5309,0.3551,-0.1028,-0.0981,-0.0199,-0.44,0.61,0.88,0,3.526,-1.357,-2.332,0.799,0.006,-0.009,0.000,0.000,0.000,0.000,0.3540,0,0
8925,-1.2224,-2.5354,0.3542,-0.1101,-0.0939,-0.0136,-0.56,0.69,0.98,0,3.516,-0.013,-1.565,1.975,0.009,-0.009,0.000,0.000,0.000,0.000,0.3530,0,0
8976,-1.2279,-2.5358,0.3533,-0.1161,-0.0811,-0.0088,-0.63,0.79,1.06,0,3.521,0.284,-0.166,1.516,0.003,-0.010,0.000,0.000,0.000,0.000,0.3550,-1,1
9027,-1.2343,-2.5329,0.3531,-0.1240,-0.0626,-0.0005,-0.71,0.78,1.12,0,3.516,3.265,3.717,0.088,0.007,-0.013,0.000,0.000,0.000,0.000,0.3550,-7,2
9077,-1.2390,-2.5399,0.3546,-0.1275,-0.0644,0.0129,-0.63,0.63,1.14,0,3.526,4.971,3.768,-0.979,0.006,-0.009,0.000,0.000,0.000,0.000,0.3570,9,3
9128,-1.2440,-2.5347,0.3554,-0.1297,-0.0445,0.0185,-0.38,0.44,1.11,0,3.521,7.732,1.761,-0.727,0.008,-0.014,0.000,0.000,0.000,0.000,0.3540,0,0
9180,-1.2515,-2.5372,0.3561,-0.1347,-0.0409,0.0193,-0.18,0.31,1.07,0,3.526,7.731,-0.529,-1.175,0.006,-0.013,0.000,0.000,0.000,0.000,0.3520,1,1
9231,-1.2585,-2.5424,0.3571,-0.1377,-0.0466,0.0207,0.19,0.26,1.04,0,3.516,4.042,2.085,-1.404,0.007,-0.017,0.000,0.000,0.000,0.000,0.3560,-1,3
9282,-1.2610,-2.5356,0.3556,-0.1337,-0.0313,0.0113,0.32,0.17,0.99,0,3.526,1.158,2.354,-0.450,0.006,-0.013,0.000,0.000,0.000,0.000,0.3540,0,1
9332,-1.2684,-2.5430,0.3562,-0.1362,-0.0455,0.0138,0.46,0.04,0.95,0,3.516,2.972,-1.198,-2.286,0.007,-0.014,0.000,0.000,0.000,0.000,0.3530,-3,0
9383,-1.2735,-2.5409,0.3546,-0.1335,-0.0411,0.0048,0.44,0.01,0.88,0,3.521,0.089,1.296,-0.824,0.006,-0.009,0.000,0.000,0.000,0.000,0.3570,1,3
9435,-1.2800,-2.5458,0.3549,-0.1333,-0.0511,0.0067,0.55,0.01,0.84,0,3.516,3.929,-0.745,-0.323,0.007,-0.013,0.000,0.000,0.000,0.000,0.3550,0,1
9486,-1.2848,-2.5390,0.3558,-0.1293,-0.0370,0.0118,0.57,-0.01,0.83,0,3.521,-0.953,2.068,0.797,0.006,-0.011,0.000,0.000,0.000,0.000,0.3550,2,2
9536,-1.2926,-2.5483,0.3565,-0.1319,-0.0568,0.0149,0.67,-0.08,0.85,0,3.516,-5.278,0.209,-0.178,0.009,-0.010,0.000,0.000,0.000,0.000,0.3540,-3,1
9588,-1.2967,-2.5466,0.3555,-0.1262,-0.0528,0.0086,0.40,-0.21,0.84,0,3.521,-0.603,-1.823,-0.063,0.006,-0.009,0.000,0.000,0.000,0.000,0.3540,2,2
9639,-1.3016,-2.5493,0.3560,-0.1217,-0.0569,0.0106,0.36,-0.18,0.85,0,3.510,2.290,-1.994,0.641,0.006,-0.010,0.000,0.000,0.000,0.000,0.3570,0,0
9690,-1.3081,-2.5512,0.3561,-0.1208,-0.0575,0.0125,0.32,-0.10,0.89,0,3.521,-3.006,-1.419,0.852,0.006,-0.009,0.000,0.000,0.000,0.000,0.3570,7,2
9741,-1.3164,-2.5559,0.3568,-0.1248,-0.0637,0.0156,0.24,-0.05,0.93,0,3.516,-9.797,0.469,1.316,0.006,-0.013,0.000,0.000,0.000,0.000,0.3580,0,1
9791,-1.3219,-2.5635,0.3578,-0.1227,-0.0738,0.0178,-0.13,-0.17,0.94,0,3.521,-4.331,0.371,0.175,0.004,-0.008,0.000,0.000,0.000,0.000,0.3580,0,1
9842,-1.3261,-2.5654,0.3587,-0.1172,-0.0690,0.0190,-0.36,-0.17,0.93,0,3.516,-1.296,-2.116,-0.851,0.007,-0.010,0.000,0.000,0.000,0.000,0.3600,0,0
9894,-1.3343,-2.5764,0.3595,-0.1211,-0.0823,0.0194,-0.39,-0.09,0.93,0,3.521,-3.264,-2.307,0.482,0.009,-0.010,0.000,0.000,0.000,0.000,0.3610,9,4
9944,-1.3383,-2.5729,0.3605,-0.1159,-0.0631,0.0193,-0.55,-0.10,0.94,0,3.510,-1.567,4.518,0.191,0.004,-0.014,0.000,0.000,0.000,0.000,0.3640,1,2
9996,-1.3436,-2.5842,0.3626,-0.1141,-0.0749,0.0238,-0.63,-0.20,0.94,0,3.521,-2.123,1.377,-2.056,0.005,-0.011,0.000,0.000,0.000,0.000,0.3650,0,2
10047,-1.3503,-2.5857,0.3637,-0.1146,-0.0651,0.0213,-0.72,-0.18,0.85,0,3.516,-2.954,-2.306,-2.138,0.005,-0.015,0.000,0.000,0.000,0.000,0.3630,0,1
10098,-1.3562,-2.5892,0.3643,-0.1136,-0.0595,0.0150,-0.85,-0.12,0.77,0,3.521,-3.434,3.885,-2.554,0.007,-0.012,0.000,0.000,0.000,0.000,0.3650,-1,1
10149,-1.3616,-2.5966,0.3650,-0.1120,-0.0613,0.0116,-1.07,-0.20,0.68,0,3.510,4.633,-1.415,-2.940,0.007,-0.012,0.000,0.000,0.000,0.000,0.3620,-5,0
10200,-1.3682,-2.5977,0.3641,-0.1125,-0.0493,0.0012,-1.05,-0.18,0.55,0,3.521,1.431,-0.216,-2.404,0.007,-0.013,0.000,0.000,0.000,0.000,0.3640,2,0
10251,-1.3746,-2.6006,0.3641,-0.1131,-0.0427,-0.0016,-0.82,-0.03,0.44,0,3.510,3.437,-0.983,-3.085,0.007,-0.015,0.000,0.000,0.000,0.000,0.3600,-1,0
10302,-1.3764,-2.5953,0.3623,-0.1046,-0.0196,-0.0119,-0.83,-0.12,0.28,0,3.510,1.831,1.459,-2.428,0.005,-0.011,0.000,0.000,0.000,0.000,0.3620,-1,2
10353,-1.3793,-2.5911,0.3617,-0.0987,-0.0018,-0.0131,-0.83,-0.21,0.15,0,3.505,7.928,-5.264,-1.888,0.005,-0.012,0.000,0.000,0.000,0.000,0.3530,0,1
10404,-1.3864,-2.5956,0.3580,-0.1019,-0.0049,-0.0293,-0.35,-0.02,0.05,0,3.510,0.947,0.969,-1.480,0.007,-0.018,0.000,0.000,0.000,0.000,0.3550,-12,0
10455,-1.3891,-2.5939,0.3566,-0.0966,0.0022,-0.0273,-0.27,-0.00,-0.05,0,3.500,-1.746,2.331,-1.909,0.003,-0.013,0.000,0.000,0.000,0.000,0.3560,5,3
10506,-1.3916,-2.5862,0.3552,-0.0917,0.0192,-0.0230,-0.25,-0.15,-0.12,0,3.510,5.429,-2.804,-0.528,0.005,-0.014,0.000,0.000,0.000,0.000,0.3540,0,0
10557,-1.3979,-2.5833,0.3542,-0.0939,0.0258,-0.0169,-0.08,-0.05,-0.18,0,3.500,6.222,-1.780,-0.647,0.008,-0.014,0.000,0.000,0.000,0.000,0.3530,0,2
10608,-1.4015,-2.5789,0.3533,-0.0906,0.0335,-0.0112,0.15,0.05,-0.21,0,3.510,2.944,2.318,-0.970,0.002,-0.012,0.000,0.000,0.000,0.000,0.3520,-2,1
10659,-1.4101,-2.5822,0.3529,-0.0997,0.0216,-0.0058,0.30,-0.01,-0.26,0,3.505,-1.734,2.789,-1.179,0.006,-0.013,0.000,0.000,0.000,0.000,0.3530,0,0
10710,-1.4136,-2.5757,0.3526,-0.0966,0.0311,-0.0008,0.13,-0.19,-0.31,0,3.510,-1.363,3.166,0.022,0.011,-0.015,0.000,0.000,0.000,0.000,0.3560,-4,1
10760,-1.4206,-2.5830,0.3526,-0.0998,0.0104,0.0038,0.15,-0.34,-0.35,0,3.505,0.321,2.882,-1.440,0.005,-0.015,0.000,0.000,0.000,0.000,0.3530,-3,0
10812,-1.4246,-2.5927,0.3540,-0.0955,-0.0148,0.0105,0.30,-0.45,-0.38,0,3.516,-6.541,-2.229,-1.436,0.004,-0.014,0.000,0.000,0.000,0.000,0.3540,9,4
10863,-1.4287,-2.5890,0.3546,-0.0905,-0.0079,0.0102,0.19,-0.35,-0.47,0,3.505,-9.520,0.610,-3.227,0.002,-0.010,0.000,0.000,0.000,0.000,0.3550,0,1
10913,-1.4351,-2.5947,0.3548,-0.0915,-0.0200,0.0074,-0.41,-0.41,-0.62,0,3.510,-7.944,3.548,-3.210,0.004,-0.012,0.000,0.000,0.000,0.000,0.3530,0,2
10964,-1.4378,-2.5884,0.3551,-0.0837,-0.0009,0.0063,-0.95,-0.57,-0.76,0,3.505,2.088,-1.608,-2.623,0.008,-0.013,0.000,0.000,0.000,0.000,0.3530,-1,0
11016,-1.4446,-2.5962,0.3538,-0.0849,-0.0102,-0.0026,-0.87,-0.53,-0.88,0,3.505,-4.997,-1.022,-1.675,0.007,-0.015,0.000,0.000,0.000,0.000,0.3560,5,1
11067,-1.4470,-2.5870,0.3536,-0.0760,0.0185,-0.0035,-1.05,-0.49,-1.00,0,3.500,-2.809,-0.480,-2.303,0.008,-0.015,0.000,0.000,0.000,0.000,0.3530,0,1
11118,-1.4525,-2.6000,0.3540,-0.0759,-0.0026,-0.0032,-1.04,-0.46,-1.12,0,3.510,-2.595,0.348,-2.874,0.007,-0.017,0.000,0.000,0.000,0.000,0.3530,0,2
11169,-1.4580,-2.6066,0.3538,-0.0760,-0.0086,-0.0040,-1.08,-0.42,-1.26,0,3.500,-4.742,0.314,-3.041,0.004,-0.018,0.000,0.000,0.000,0.000,0.3530,0,0
11220,-1.4617,-2.5986,0.3531,-0.0716,0.0187,-0.0060,-1.35,-0.43,-1.42,0,3.505,0.489,-0.283,-2.472,0.006,-0.015,0.000,0.000,0.000,0.000,0.3530,-1,0
11271,-1.4671,-2.5970,0.3528,-0.0718,0.0310,-0.0053,-1.36,-0.41,-1.54,0,3.500,5.010,-0.221,-2.466,0.006,-0.013,0.000,0.000,0.000,0.000,0.3500,0,4
11322,-1.4691,-2.5962,0.3516,-0.0649,0.0402,-0.0097,-1.16,-0.35,-1.63,0,3.505,2.968,1.085,-2.288,0.000,-0.015,0.000,0.000,0.000,0.000,0.3510,-5,0
11373,-1.4763,-2.5963,0.3511,-0.0698,0.0447,-0.0083,-1.00,-0.43,-1.74,0,3.500,2.181,3.147,-0.416,0.003,-0.013,0.000,0.000,0.000,0.000,0.3490,0,4
11424,-1.4759,-2.5832,0.3500,-0.0577,0.0755,-0.0106,-0.93,-0.54,-1.80,0,3.505,8.385,-1.823,-0.400,0.005,-0.017,0.000,0.000,0.000,0.000,0.3430,-4,0
11475,-1.4841,-2.5864,0.3495,-0.0641,0.0675,-0.0073,-0.51,-0.53,-1.82,0,3.494,3.556,-1.440,-0.360,0.003,-0.018,0.000,0.000,0.000,0.000,0.3450,-2,0
11526,-1.4850,-2.5736,0.3455,-0.0545,0.0903,-0.0206,-0.29,-0.51,-1.86,0,3.500,8.813,-0.231,-0.077,0.006,-0.014,0.000,0.000,0.000,0.000,0.3470,-5,1
11577,-1.4857,-2.5651,0.3445,-0.0459,0.1004,-0.0159,0.02,-0.54,-1.86,0,3.494,6.971,0.854,0.444,0.007,-0.014,0.000,0.000,0.000,0.000,0.3450,0,0
11628,-1.4885,-2.5537,0.3451,-0.0422,0.1136,-0.0050,0.28,-0.50,-1.86,0,3.505,7.863,-0.256,1.324,0.008,-0.014,0.000,0.000,0.000,0.000,0.3440,-7,0
11680,-1.4904,-2.5470,0.3450,-0.0377,0.1128,-0.0001,0.56,-0.55,-1.80,0,3.494,3.086,0.106,3.045,0.004,-0.017,0.000,0.000,0.000,0.000,0.3440,0,0
11731,-1.4928,-2.5408,0.3443,-0.0344,0.1086,-0.0002,0.77,-0.58,-1.68,0,3.505,4.409,-1.123,2.980,0.004,-0.017,0.000,0.000,0.000,0.000,0.3400,0,0
11781,-1.4964,-2.5413,0.3444,-0.0343,0.0893,0.0019,1.00,-0.54,-1.55,0,3.494,-4.516,0.215,3.248,0.007,-0.017,0.000,0.000,0.000,0.000,0.3420,0,0
11833,-1.4994,-2.5391,0.3421,-0.0332,0.0763,-0.0074,0.93,-0.54,-1.39,0,3.500,-6.229,-2.368,2.582,0.008,-0.014,0.000,0.000,0.000,0.000,0.3450,3,2
11884,-1.4985,-2.5265,0.3418,-0.0230,0.0882,-0.0053,0.52,-0.52,-1.24,0,3.494,-3.492,-1.919,3.190,0.001,-0.012,0.000,0.000,0.000,0.000,0.3400,0,0
11935,-1.5004,-2.5252,0.3419,-0.0202,0.0785,-0.0029,0.30,-0.51,-1.06,0,3.500,-0.548,-1.368,2.758,0.006,-0.014,0.000,0.000,0.000,0.000,0.3420,0,0
11986,-1.5014,-2.5243,0.3418,-0.0160,0.0693,-0.0010,0.31,-0.48,-0.94,0,3.494,-4.600,2.385,2.919,0.004,-0.016,0.000,0.000,0.000,0.000,0.3420,-4,0
12038,-1.5035,-2.5257,0.3419,-0.0154,0.0564,0.0004,0.13,-0.45,-0.79,0,3.500,-7.401,0.972,3.030,0.008,-0.016,0.000,0.000,0.000,0.000,0.3440,0,0
12089,-1.5074,-2.5289,0.3420,-0.0185,0.0428,0.0021,-0.12,-0.48,-0.63,0,3.494,-3.401,2.075,1.887,0.001,-0.011,0.000,0.000,0.000,0.000,0.3430,0,1
12140,-1.5082,-2.5267,0.3431,-0.0142,0.0442,0.0060,-0.35,-0.55,-0.50,0,3.500,-0.421,-2.474,1.317,0.001,-0.010,0.000,0.000,0.000,0.000,0.3400,0,0
12191,-1.5105,-2.5240,0.3434,-0.0130,0.0483,0.0048,-0.54,-0.52,-0.40,0,3.494,-4.412,1.012,0.976,0.002,-0.011,0.000,0.000,0.000,0.000,0.3410,1,0
12242,-1.5108,-2.5196,0.3415,-0.0080,0.0572,-0.0061,-0.67,-0.50,-0.33,0,3.500,-6.105,3.026,1.408,0.005,-0.012,0.000,0.000,0.000,0.000,0.3440,-1,0
12293,-1.5103,-2.5142,0.3411,-0.0021,0.0683,-0.0070,-0.82,-0.56,-0.30,0,3.489,5.276,-2.053,1.160,0.005,-0.012,0.000,0.000,0.000,0.000,0.3420,0,0
12344,-1.5101,-2.5110,0.3422,0.0031,0.0742,-0.0001,-0.66,-0.57,-0.25,0,3.500,3.151,-3.084,1.704,0.002,-0.011,0.000,0.000,0.000,0.000,0.3430,-5,-2
12396,-1.5114,-2.5093,0.3422,0.0045,0.0750,-0.0001,-0.44,-0.46,-0.19,0,3.489,1.303,0.541,-0.252,0.003,-0.017,0.000,0.000,0.000,0.000,0.3380,0,0
12447,-1.5081,-2.4956,0.3407,0.0146,0.0975,-0.0093,-0.30,-0.51,-0.19,0,3.494,4.813,-1.226,1.337,0.004,-0.013,0.000,0.000,0.000,0.000,0.3390,0,0
12498,-1.5089,-2.4934,0.3402,0.0157,0.0945,-0.0096,-0.06,-0.50,-0.18,0,3.489,0.983,-1.755,0.234,0.001,-0.014,0.000,0.000,0.000,0.000,0.3360,-1,0
12548,-1.5067,-2.4895,0.3378,0.0223,0.0923,-0.0196,0.25,-0.39,-0.18,0,3.494,4.118,-3.001,-1.179,0.000,-0.013,0.000,0.000,0.000,0.000,0.3360,0,0
12600,-1.5038,-2.4772,0.3368,0.0291,0.1051,-0.0177,0.37,-0.35,-0.21,0,3.484,4.446,-2.914,-1.276,0.005,-0.015,0.000,0.000,0.000,0.000,0.3320,0,0
12651,-1.5029,-2.4779,0.3341,0.0308,0.0911,-0.0248,0.43,-0.26,-0.23,0,3.489,2.191,-0.141,0.427,0.004,-0.012,0.000,0.000,0.000,0.000,0.3350,0,0
12703,-1.5026,-2.4749,0.3330,0.0304,0.0845,-0.0193,0.53,-0.25,-0.20,0,3.484,-0.239,-1.651,0.129,0.001,-0.013,0.000,0.000,0.000,0.000,0.3310,-5,-1
12754,-1.4980,-2.4719,0.3323,0.0385,0.0774,-0.0141,0.57,-0.27,-0.20,0,3.489,-4.369,-0.684,-0.326,0.001,-0.009,0.000,0.000,0.000,0.000,0.3350,0,0
12805,-1.4953,-2.4653,0.3317,0.0420,0.0770,-0.0074,0.49,-0.22,-0.22,0,3.489,0.885,-0.037,-0.534,0.002,-0.011,0.000,0.000,0.000,0.000,0.3370,0,0
12855,-1.4893,-2.4517,0.3348,0.0515,0.0920,0.0135,0.37,-0.23,-0.23,0,3.494,3.105,-1.619,-0.262,0.006,-0.012,0.000,0.000,0.000,0.000,0.3320,-3,-1
12907,-1.4880,-2.4535,0.3356,0.0507,0.0769,0.0170,0.48,-0.11,-0.21,0,3.489,2.067,-1.568,0.728,0.002,-0.008,0.000,0.000,0.000,0.000,0.3330,0,0
12958,-1.4872,-2.4559,0.3339,0.0481,0.0606,0.0075,0.65,-0.02,-0.18,0,3.494,-4.141,3.898,1.274,0.001,-0.013,0.000,0.000,0.000,0.000,0.3370,0,0
13009,-1.4827,-2.4536,0.3343,0.0526,0.0542,0.0088,0.44,-0.18,-0.11,0,3.489,0.879,-0.444,1.318,0.000,-0.008,0.000,0.000,0.000,0.000,0.3310,0,0
13059,-1.4812,-2.4547,0.3340,0.0522,0.0432,0.0030,0.53,-0.22,-0.04,0,3.489,-3.956,-1.885,1.768,0.001,-0.008,0.000,0.000,0.000,0.000,0.3320,3,0
13111,-1.4825,-2.4587,0.3342,0.0467,0.0283,0.0029,0.36,-0.21,0.07,0,3.484,-4.422,2.228,1.448,-0.001,-0.013,0.000,0.000,0.000,0.000,0.3330,0,0
13163,-1.4817,-2.4646,0.3331,0.0457,0.0127,-0.0026,0.10,-0.25,0.16,0,3.489,-4.047,1.644,2.203,0.002,-0.013,0.000,0.000,0.000,0.000,0.3350,-16,-1
13213,-1.4772,-2.4637,0.3330,0.0523,0.0127,-0.0014,-0.34,-0.41,0.26,0,3.484,2.375,-3.537,0.737,0.001,-0.009,0.000,0.000,0.000,0.000,0.3350,0,-1
13265,-1.4752,-2.4412,0.3344,0.0543,0.0543,0.0080,-0.31,-0.36,0.34,0,3.494,7.226,-0.108,2.138,0.001,-0.013,0.000,0.000,0.000,0.000,0.3310,-8,-2
13316,-1.4722,-2.4451,0.3349,0.0577,0.0439,0.0092,-0.00,-0.32,0.45,0,3.484,1.487,0.600,1.897,-0.001,-0.009,0.000,0.000,0.000,0.000,0.3330,0,0
13367,-1.4726,-2.4677,0.3332,0.0541,-0.0041,-0.0013,0.47,-0.31,0.51,0,3.489,-13.827,1.763,1.806,0.006,-0.013,0.000,0.000,0.000,0.000,0.3320,1,0
13418,-1.4712,-2.4665,0.3331,0.0541,-0.0043,-0.0038,-0.08,-0.33,0.58,0,3.484,-4.607,3.997,0.433,0.000,-0.014,0.000,0.000,0.000,0.000,0.3290,19,2
13469,-1.4688,-2.4638,0.3309,0.0564,0.0029,-0.0119,-0.26,-0.34,0.59,0,3.489,0.946,2.112,-0.274,0.004,-0.014,0.000,0.000,0.000,0.000,0.3340,0,0
13519,-1.4692,-2.4869,0.3304,0.0536,-0.0374,-0.0097,-0.25,-0.45,0.59,0,3.484,-11.554,0.959,0.607,0.002,-0.012,0.000,0.000,0.000,0.000,0.3290,0,-1
13570,-1.4665,-2.4851,0.3307,0.0575,-0.0275,-0.0056,-0.72,-0.56,0.60,0,3.484,-2.904,-2.330,-0.280,-0.000,-0.007,0.000,0.000,0.000,0.000,0.3300,10,0
13622,-1.4631,-2.4697,0.3305,0.0629,0.0120,-0.0036,-0.97,-0.48,0.60,0,3.479,6.454,0.200,0.434,0.002,-0.007,0.000,0.000,0.000,0.000,0.3290,-3,-1
13673,-1.4622,-2.4776,0.3296,0.0624,0.0040,-0.0046,-0.67,-0.43,0.60,0,3.489,5.805,2.883,0.108,-0.001,-0.018,0.000,0.000,0.000,0.000,0.3320,0,0
13724,-1.4614,-2.4765,0.3294,0.0612,0.0101,-0.0037,-0.24,-0.48,0.59,0,3.479,1.291,1.811,0.037,0.002,-0.013,0.000,0.000,0.000,0.000,0.3310,1,0
13775,-1.4595,-2.4769,0.3308,0.0627,0.0101,0.0038,-0.14,-0.55,0.60,0,3.489,3.151,2.792,0.363,0.001,-0.007,0.000,0.000,0.000,0.000,0.3260,4,0
13826,-1.4554,-2.4675,0.3311,0.0693,0.0293,0.0055,-0.03,-0.63,0.60,0,3.479,5.188,-2.005,0.161,-0.000,-0.008,0.000,0.000,0.000,0.000,0.3290,-6,-2
13876,-1.4529,-2.4696,0.3287,0.0727,0.0226,-0.0052,0.17,-0.60,0.62,0,3.484,6.919,-2.220,-0.839,-0.003,-0.011,0.000,0.000,0.000,0.000,0.3260,1,0
13927,-1.4476,-2.4639,0.3285,0.0809,0.0297,-0.0037,0.39,-0.49,0.61,0,3.479,4.058,-2.819,0.093,0.001,-0.011,0.000,0.000,0.000,0.000,0.3240,0,0
13979,-1.4465,-2.4696,0.3258,0.0797,0.0124,-0.0157,0.65,-0.39,0.61,0,3.479,-1.254,0.308,0.217,-0.001,-0.008,0.000,0.000,0.000,0.000,0.3250,0,0
14029,-1.4423,-2.4701,0.3251,0.0833,0.0048,-0.0132,0.71,-0.37,0.59,0,3.473,-1.497,0.340,0.278,0.004,-0.013,0.000,0.000,0.000,0.000,0.3220,0,0
14080,-1.4361,-2.4607,0.3235,0.0909,0.0192,-0.0158,0.52,-0.39,0.58,0,3.479,3.117,-2.358,-0.576,-0.000,-0.010,0.000,0.000,0.000,0.000,0.3240,2,-1
14132,-1.4329,-2.4677,0.3229,0.0912,-0.0025,-0.0104,0.73,-0.24,0.56,0,3.473,-1.022,2.458,-0.299,0.000,-0.014,0.000,0.000,0.000,0.000,0.3230,0,0
14183,-1.4307,-2.4749,0.3231,0.0879,-0.0237,-0.0025,0.83,-0.26,0.53,0,3.484,-3.531,1.011,-1.187,-0.003,-0.009,0.000,0.000,0.000,0.000,0.3230,0,-1
14233,-1.4255,-2.4889,0.3230,0.0919,-0.0597,0.0015,0.74,-0.36,0.49,0,3.479,-8.702,-1.074,-0.050,0.001,-0.013,0.000,0.000,0.000,0.000,0.3270,3,-1
14284,-1.4204,-2.4785,0.3247,0.0960,-0.0352,0.0133,0.24,-0.39,0.47,0,3.484,-4.923,-1.232,0.669,-0.002,-0.006,0.000,0.000,0.000,0.000,0.3240,0,0
14336,-1.4162,-2.4862,0.3255,0.0980,-0.0500,0.0171,-0.01,-0.38,0.46,0,3.479,-1.671,1.700,0.348,0.003,-0.013,0.000,0.000,0.000,0.000,0.3230,0,-2
14386,-1.4116,-2.4901,0.3245,0.1004,-0.0533,0.0095,-0.04,-0.37,0.46,0,3.484,-1.862,0.329,-0.964,-0.000,-0.011,0.000,0.000,0.000,0.000,0.3240,0,0
14438,-1.4068,-2.4756,0.3250,0.1027,-0.0138,0.0096,-0.30,-0.37,0.44,0,3.473,6.590,0.395,-0.232,-0.003,-0.005,0.000,0.000,0.000,0.000,0.3260,1,0
14488,-1.4005,-2.4685,0.3254,0.1081,0.0064,0.0102,-0.05,-0.31,0.40,0,3.484,12.226,-0.980,-1.791,-0.001,-0.011,0.000,0.000,0.000,0.000,0.3250,3,-1
14540,-1.3947,-2.4715,0.3259,0.1117,-0.0003,0.0109,0.50,-0.31,0.35,0,3.479,4.661,1.247,-1.792,-0.000,-0.009,0.000,0.000,0.000,0.000,0.3230,0,0
14591,-1.3880,-2.4677,0.3247,0.1172,0.0055,0.0020,0.69,-0.40,0.28,0,3.479,1.207,-4.027,-2.123,-0.001,-0.012,0.000,0.000,0.000,0.000,0.3220,0,-1
14641,-1.3819,-2.4682,0.3248,0.1208,-0.0019,0.0012,0.83,-0.24,0.17,0,3.473,1.021,-2.094,-2.659,0.001,-0.007,0.000,0.000,0.000,0.000,0.3220,0,-2
14692,-1.3775,-2.4655,0.3229,0.1192,-0.0015,-0.0074,0.92,-0.12,0.05,0,3.479,8.073,1.299,-3.780,-0.000,-0.008,0.000,0.000,0.000,0.000,0.3230,4,0
14743,-1.3727,-2.4662,0.3226,0.1174,-0.0103,-0.0053,1.17,-0.15,-0.10,0,3.473,2.996,-0.367,-3.884,-0.005,-0.010,0.000,0.000,0.000,0.000,0.3230,0,-4
14795,-1.3678,-2.4630,0.3228,0.1162,-0.0103,-0.0008,1.16,-0.16,-0.30,0,3.479,0.601,-0.341,-5.453,-0.004,-0.006,0.000,0.000,0.000,0.000,0.3220,3,0
14846,-1.3628,-2.4627,0.3228,0.1153,-0.0176,0.0016,1.18,-0.09,-0.54,0,3.473,-0.871,0.561,-6.262,-0.002,-0.011,0.000,0.000,0.000,0.000,0.3220,-1,0
14897,-1.3575,-2.4667,0.3223,0.1151,-0.0340,-0.0002,1.19,-0.16,-0.84,0,3.479,-4.333,1.920,-5.328,0.003,-0.007,0.000,0.000,0.000,0.000,0.3210,3,-1
14947,-1.3507,-2.4663,0.3223,0.1188,-0.0390,0.0022,1.12,-0.27,-1.16,0,3.468,-6.035,-0.588,-4.479,-0.001,-0.007,0.000,0.000,0.000,0.000,0.3250,-1,-3
14999,-1.3482,-2.4707,0.3231,0.1122,-0.0535,0.0086,0.91,-0.24,-1.44,0,3.479,1.373,-0.283,-6.398,-0.004,0.001,0.000,0.000,0.000,0.000,0.3210,5,-2
15049,-1.3423,-2.4713,0.3236,0.1143,-0.0567,0.0115,0.88,-0.22,-1.75,0,3.473,-3.483,1.954,-5.596,-0.003,-0.004,0.000,0.000,0.000,0.000,0.3220,1,-2
15100,-1.3350,-2.4735,0.3225,0.1201,-0.0618,0.0044,0.72,-0.35,-2.03,0,3.479,-4.862,0.979,-5.402,-0.001,-0.006,0.000,0.000,0.000,0.000,0.3200,2,-1
15152,-1.3307,-2.4742,0.3227,0.1181,-0.0619,0.0055,0.59,-0.36,-2.29,0,3.468,-1.681,-0.399,-4.639,-0.002,-0.009,0.000,0.000,0.000,0.000,0.3230,0,-3
15202,-1.3249,-2.4764,0.3221,0.1205,-0.0646,0.0031,0.51,-0.32,-2.54,0,3.479,-0.983,0.401,-4.808,-0.004,-0.002,0.000,0.000,0.000,0.000,0.3230,3,-1
15254,-1.3176,-2.4771,0.3223,0.1256,-0.0623,0.0047,0.49,-0.31,-2.80,0,3.473,-1.974,2.646,-5.369,-0.003,-0.003,0.000,0.000,0.000,0.000,0.3250,1,-1
15304,-1.3131,-2.4822,0.3238,0.1235,-0.0714,0.0128,0.49,-0.29,-3.04,0,3.479,0.282,-3.213,-5.041,-0.004,-0.008,0.000,0.000,0.000,0.000,0.3230,13,-3
15356,-1.3081,-2.4835,0.3245,0.1226,-0.0698,0.0135,0.51,-0.23,-3.27,0,3.473,0.795,-2.271,-4.347,-0.003,-0.010,0.000,0.000,0.000,0.000,0.3230,3,-2
15407,-1.3029,-2.4896,0.3238,0.1218,-0.0791,0.0072,0.41,-0.14,-3.46,0,3.479,-2.309,0.437,-4.227,-0.001,-0.004,0.000,0.000,0.000,0.000,0.3260,-1,-3
15457,-1.2996,-2.5011,0.3241,0.1157,-0.1015,0.0058,0.34,-0.13,-3.66,0,3.468,-3.870,1.671,-4.273,0.001,-0.002,0.000,0.000,0.000,0.000,0.3230,5,-1
15509,-1.2932,-2.5032,0.3244,0.1179,-0.0974,0.0050,0.19,-0.18,-3.87,0,3.479,-1.464,1.043,-3.725,-0.003,-0.004,0.000,0.000,0.000,0.000,0.3220,2,0
15560,-1.2884,-2.5084,0.3247,0.1166,-0.0993,0.0049,0.07,-0.21,-4.08,0,3.468,-0.991,3.342,-4.066,-0.004,-0.008,0.000,0.000,0.000,0.000,0.3230,3,-2
15611,-1.2826,-2.5144,0.3233,0.1184,-0.1029,-0.0026,-0.04,-0.28,-4.26,0,3.473,-7.083,-2.208,-2.294,-0.004,-0.007,0.000,0.000,0.000,0.000,0.3210,1,0
15662,-1.2767,-2.5181,0.3232,0.1205,-0.0986,-0.0011,-0.25,-0.25,-4.40,0,3.468,-0.504,-3.737,-0.393,-0.006,-0.012,0.000,0.000,0.000,0.000,0.3230,2,0
15713,-1.2720,-2.5222,0.3224,0.1194,-0.0944,-0.0014,-0.26,-0.14,-4.48,0,3.473,3.403,2.471,-2.094,-0.003,-0.010,0.000,0.000,0.000,0.000,0.3220,2,-1
15764,-1.2668,-2.5241,0.3224,0.1188,-0.0851,0.0002,-0.23,-0.16,-4.54,0,3.468,2.942,2.185,-1.091,-0.005,-0.004,0.000,0.000,0.000,0.000,0.3230,5,-3
15815,-1.2612,-2.5251,0.3226,0.1192,-0.0739,0.0030,-0.13,-0.18,-4.56,0,3.473,1.926,2.023,-1.078,-0.005,-0.011,0.000,0.000,0.000,0.000,0.3250,4,-1
15866,-1.2568,-2.5376,0.3228,0.1167,-0.0962,0.0053,0.05,-0.12,-4.59,0,3.468,-3.422,-5.791,0.081,-0.004,-0.005,0.000,0.000,0.000,0.000,0.3250,3,0
15917,-1.2504,-2.5414,0.3246,0.1194,-0.0937,0.0138,-0.05,-0.01,-4.60,0,3.473,-3.465,-0.363,1.417,-0.005,-0.007,0.000,0.000,0.000,0.000,0.3260,0,-2
15967,-1.2451,-2.5455,0.3253,0.1180,-0.0916,0.0145,-0.25,-0.07,-4.60,0,3.473,-1.276,-2.177,0.794,-0.005,-0.007,0.000,0.000,0.000,0.000,0.3230,-3,-4
16019,-1.2393,-2.5503,0.3250,0.1185,-0.0904,0.0085,-0.31,-0.03,-4.56,0,3.473,1.629,-1.220,0.397,-0.000,-0.005,0.000,0.000,0.000,0.000,0.3260,1,0
16070,-1.2325,-2.5515,0.3254,0.1208,-0.0796,0.0081,-0.23,0.10,-4.52,0,3.468,-0.291,-1.614,0.566,-0.003,-0.007,0.000,0.000,0.000,0.000,0.3230,2,-2
16121,-1.2267,-2.5559,0.3248,0.1197,-0.0792,0.0019,-0.20,0.13,-4.49,0,3.473,3.149,0.473,-0.456,-0.006,-0.007,0.000,0.000,0.000,0.000,0.3200,4,-2
16172,-1.2192,-2.5574,0.3249,0.1222,-0.0707,0.0006,-0.20,0.10,-4.47,0,3.463,3.555,-2.133,-0.080,-0.004,-0.011,0.000,0.000,0.000,0.000,0.3260,-2,-4
16223,-1.2157,-2.5638,0.3239,0.1148,-0.0767,-0.0020,-0.05,0.22,-4.46,0,3.473,-0.230,0.786,-0.540,-0.008,-0.007,0.000,0.000,0.000,0.000,0.3210,0,0
16273,-1.2099,-2.5653,0.3238,0.1127,-0.0708,-0.0018,-0.02,0.25,-4.48,0,3.468,-1.192,0.879,0.950,-0.004,-0.009,0.000,0.000,0.000,0.000,0.3210,0,0
16324,-1.2030,-2.5702,0.3217,0.1142,-0.0740,-0.0114,-0.06,0.14,-4.46,0,3.473,-0.753,1.252,2.072,-0.006,-0.009,0.000,0.000,0.000,0.000,0.3220,1,-1
16375,-1.1957,-2.5726,0.3211,0.1171,-0.0700,-0.0103,-0.10,0.10,-4.37,0,3.463,1.636,0.003,1.139,-0.001,-0.011,0.000,0.000,0.000,0.000,0.3210,-1,-3
16427,-1.1919,-2.5790,0.3211,0.1115,-0.0766,-0.0077,-0.10,0.12,-4.28,0,3.468,-0.477,0.499,2.629,-0.004,-0.012,0.000,0.000,0.000,0.000,0.3160,1,0
16478,-1.1859,-2.5800,0.3207,0.1114,-0.0691,-0.0067,-0.13,0.13,-4.19,0,3.463,-1.603,3.389,3.079,-0.004,-0.009,0.000,0.000,0.000,0.000,0.3160,0,-2
16529,-1.1818,-2.5828,0.3171,0.1074,-0.0661,-0.0208,-0.31,0.04,-3.95,0,3.468,-1.437,1.683,5.367,-0.008,-0.011,0.000,0.000,0.000,0.000,0.3140,0,0
16580,-1.1756,-2.5830,0.3161,0.1092,-0.0559,-0.0182,-0.41,-0.01,-3.74,0,3.463,-2.389,-1.217,7.213,-0.004,-0.012,0.000,0.000,0.000,0.000,0.3130,1,0
16630,-1.1697,-2.5869,0.3137,0.1106,-0.0554,-0.0221,-0.41,0.04,-3.44,0,3.463,-7.316,-2.941,9.447,-0.002,-0.013,0.000,0.000,0.000,0.000,0.3090,3,-4
16682,-1.1659,-2.5898,0.3127,0.1063,-0.0519,-0.0190,-0.55,0.02,-3.03,0,3.457,-2.188,-0.681,9.811,-0.001,-0.012,0.000,0.000,0.000,0.000,0.3090,0,-2
16733,-1.1614,-2.5939,0.3095,0.1040,-0.0507,-0.0251,-0.75,0.10,-2.55,0,3.463,2.553,-0.423,10.182,-0.005,-0.011,0.000,0.000,0.000,0.000,0.3100,3,-2
16783,-1.1561,-2.5951,0.3084,0.1039,-0.0413,-0.0196,-0.70,0.18,-2.04,0,3.457,-2.108,-0.973,10.119,-0.004,-0.013,0.000,0.000,0.000,0.000,0.3090,0,0
16834,-1.1514,-2.5987,0.3087,0.1010,-0.0393,-0.0089,-0.71,0.32,-1.54,0,3.463,-3.485,-1.147,9.489,-0.001,-0.009,0.000,0.000,0.000,0.000,0.3060,0,-2
16886,-1.1466,-2.6010,0.3084,0.0978,-0.0339,-0.0028,-0.88,0.34,-1.05,0,3.457,0.466,-3.134,8.663,-0.002,-0.012,0.000,0.000,0.000,0.000,0.3080,0,-2
16936,-1.1417,-2.6036,0.3075,0.0953,-0.0289,-0.0010,-0.93,0.44,-0.60,0,3.468,-1.146,-1.045,7.948,-0.004,-0.008,0.000,0.000,0.000,0.000,0.3050,1,0
16988,-1.1365,-2.6053,0.3075,0.0926,-0.0224,0.0029,-0.84,0.51,-0.22,0,3.457,-2.089,1.034,6.960,-0.008,-0.007,0.000,0.000,0.000,0.000,0.3070,1,-1
17039,-1.1332,-2.6068,0.3067,0.0855,-0.0162,0.0015,-0.90,0.47,0.12,0,3.463,-0.875,1.283,5.102,-0.001,-0.010,0.000,0.000,0.000,0.000,0.3070,1,0
17089,-1.1293,-2.6073,0.3068,0.0812,-0.0080,0.0033,-1.02,0.43,0.40,0,3.457,-0.618,3.913,4.280,-0.001,-0.009,0.000,0.000,0.000,0.000,0.3090,0,0
17141,-1.1262,-2.6095,0.3079,0.0756,-0.0038,0.0087,-1.03,0.32,0.61,0,3.468,5.936,1.575,3.003,0.000,-0.017,0.000,0.000,0.000,0.000,0.3060,0,-1
17191,-1.1240,-2.6100,0.3083,0.0692,0.0035,0.0095,-0.88,0.26,0.78,0,3.463,1.202,0.494,1.651,-0.000,-0.010,0.000,0.000,0.000,0.000,0.3090,0,0
17243,-1.1191,-2.6077,0.3081,0.0704,0.0154,0.0061,-0.80,0.21,0.91,0,3.468,0.235,2.057,1.449,-0.001,-0.011,0.000,0.000,0.000,0.000,0.3100,0,-1
17294,-1.1162,-2.6071,0.3084,0.0672,0.0213,0.0054,-0.75,0.13,0.96,0,3.457,2.663,0.227,1.360,-0.002,-0.011,0.000,0.000,0.000,0.000,0.3090,-3,-2
17345,-1.1136,-2.6070,0.3093,0.0647,0.0249,0.0070,-0.65,0.09,1.02,0,3.463,0.835,-1.039,0.142,-0.003,-0.012,0.000,0.000,0.000,0.000,0.3070,-1,0
17395,-1.1106,-2.6038,0.3096,0.0630,0.0343,0.0052,-0.58,0.15,1.04,0,3.457,1.573,-1.075,0.832,0.000,-0.014,0.000,0.000,0.000,0.000,0.3070,-2,-2
17447,-1.1075,-2.6028,0.3079,0.0617,0.0373,-0.0044,-0.56,0.15,1.08,0,3.463,2.970,0.021,-0.165,0.001,-0.014,0.000,0.000,0.000,0.000,0.3040,0,0
17497,-1.1037,-2.6007,0.3076,0.0616,0.0421,-0.0047,-0.41,0.20,1.09,0,3.452,0.147,-1.297,-0.369,-0.002,-0.014,0.000,0.000,0.000,0.000,0.3090,0,-2
17549,-1.1019,-2.5965,0.3070,0.0567,0.0503,-0.0033,-0.34,0.30,1.05,0,3.463,0.860,0.089,-1.649,-0.002,-0.012,0.000,0.000,0.000,0.000,0.3040,0,0
17600,-1.0980,-2.5963,0.3069,0.0566,0.0473,-0.0004,-0.26,0.27,0.95,0,3.452,-1.823,3.002,-1.801,-0.002,-0.015,0.000,0.000,0.000,0.000,0.3020,-1,0
17651,-1.0912,-2.5925,0.3040,0.0636,0.0527,-0.0126,-0.25,0.17,0.86,0,3.457,4.046,-1.405,-2.645,-0.002,-0.012,0.000,0.000,0.000,0.000,0.3040,0,-2
17701,-1.0890,-2.5913,0.3034,0.0601,0.0513,-0.0085,-0.13,0.19,0.71,0,3.457,0.444,-2.008,-3.497,-0.002,-0.013,0.000,0.000,0.000,0.000,0.3070,0,-2
17753,-1.0865,-2.5874,0.3049,0.0571,0.0556,0.0063,-0.16,0.30,0.58,0,3.463,-0.358,0.587,-2.553,-0.006,-0.015,0.000,0.000,0.000,0.000,0.3050,0,-1
17804,-1.0825,-2.5859,0.3054,0.0569,0.0540,0.0116,-0.21,0.30,0.46,0,3.457,-1.226,0.650,-1.270,-0.001,-0.015,0.000,0.000,0.000,0.000,0.3060,0,0
17855,-1.0801,-2.5853,0.3059,0.0537,0.0511,0.0131,-0.21,0.26,0.38,0,3.463,0.130,1.745,-1.475,-0.002,-0.009,0.000,0.000,0.000,0.000,0.3050,0,0
17905,-1.0759,-2.5811,0.3066,0.0550,0.0565,0.0142,-0.26,0.16,0.32,0,3.457,-2.635,-2.095,-1.502,0.001,-0.013,0.000,0.000,0.000,0.000,0.3030,-1,0
17956,-1.0729,-2.5772,0.3051,0.0540,0.0610,0.0033,-0.26,0.25,0.23,0,3.457,-0.364,-1.025,-2.643,0.001,-0.012,0.000,0.000,0.000,0.000,0.3040,0,-1
18007,-1.0703,-2.5750,0.3052,0.0519,0.0613,0.0025,-0.23,0.31,0.09,0,3.452,-2.351,-1.788,-2.957,0.002,-0.012,0.000,0.000,0.000,0.000,0.3050,0,0
18058,-1.0674,-2.5738,0.3048,0.0500,0.0592,0.0014,-0.32,0.34,-0.06,0,3.452,-3.292,-3.385,-3.985,0.001,-0.011,0.000,0.000,0.000,0.000,0.3070,0,-1
18110,-1.0640,-2.5726,0.3049,0.0489,0.0583,0.0021,-0.53,0.51,-0.24,0,3.452,-0.014,-1.837,-4.811,-0.002,-0.006,0.000,0.000,0.000,0.000,0.3040,1,0
18161,-1.0615,-2.5678,0.3053,0.0447,0.0669,0.0035,-0.56,0.64,-0.46,0,3.457,7.886,-0.290,-6.860,0.001,-0.009,0.000,0.000,0.000,0.000,0.3060,0,-1
18211,-1.0604,-2.5677,0.3055,0.0371,0.0650,0.0047,-0.41,0.68,-0.72,0,3.452,4.462,2.583,-7.278,0.001,-0.013,0.000,0.000,0.000,0.000,0.3030,-3,0
18263,-1.0595,-2.5657,0.3048,0.0295,0.0659,0.0016,-0.32,0.68,-1.01,0,3.452,-5.579,3.360,-5.764,-0.004,-0.014,0.000,0.000,0.000,0.000,0.3050,0,0
18314,-1.0596,-2.5592,0.3049,0.0208,0.0751,0.0034,-0.38,0.59,-1.34,0,3.452,3.914,3.769,-7.560,0.002,-0.012,0.000,0.000,0.000,0.000,0.3040,-1,0
18365,-1.0586,-2.5530,0.3047,0.0162,0.0833,0.0037,-0.28,0.46,-1.69,0,3.457,7.022,3.541,-7.835,0.003,-0.015,0.000,0.000,0.000,0.000,0.3020,-4,1
18416,-1.0589,-2.5518,0.3050,0.0104,0.0790,0.0067,0.04,0.32,-2.08,0,3.447,-0.236,1.579,-6.067,-0.001,-0.017,0.000,0.000,0.000,0.000,0.3050,0,0
18467,-1.0586,-2.5425,0.3043,0.0078,0.0895,0.0057,0.17,0.12,-2.41,0,3.457,2.544,2.784,-4.379,-0.001,-0.007,0.000,0.000,0.000,0.000,0.3030,0,0
18518,-1.0605,-2.5394,0.3047,0.0020,0.0850,0.0101,0.31,0.10,-2.70,0,3.447,4.578,2.723,-3.731,0.001,-0.011,0.000,0.000,0.000,0.000,0.3030,0,1
18569,-1.0584,-2.5294,0.3038,0.0054,0.0947,0.0067,0.34,0.03,-2.87,0,3.452,6.214,2.497,-2.730,0.000,-0.014,0.000,0.000,0.000,0.000,0.3050,-1,0
18620,-1.0589,-2.5280,0.3041,0.0038,0.0877,0.0088,0.49,-0.04,-3.00,0,3.452,-2.137,-1.837,-2.123,0.001,-0.014,0.000,0.000,0.000,0.000,0.3030,0,0
18670,-1.0579,-2.5261,0.3042,0.0055,0.0788,0.0085,0.49,0.00,-3.15,0,3.452,-5.488,-6.001,-2.381,0.002,-0.014,0.000,0.000,0.000,0.000,0.3010,0,0
18721,-1.0571,-2.5233,0.3047,0.0064,0.0723,0.0098,0.33,0.17,-3.30,0,3.447,-7.745,-4.257,-1.331,0.003,-0.008,0.000,0.000,0.000,0.000,0.3010,0,-1
18773,-1.0565,-2.5309,0.3024,0.0052,0.0464,-0.0008,0.20,0.31,-3.41,0,3.452,-1.692,-2.492,-0.993,0.002,-0.013,0.000,0.000,0.000,0.000,0.3020,-1,0
18824,-1.0538,-2.5244,0.3024,0.0078,0.0538,0.0017,-0.05,0.37,-3.47,0,3.447,-3.574,-0.284,-0.150,0.002,-0.008,0.000,0.000,0.000,0.000,0.3050,0,0
18874,-1.0534,-2.5323,0.3034,0.0047,0.0323,0.0098,-0.12,0.40,-3.50,0,3.452,-5.191,-3.560,0.227,0.003,-0.012,0.000,0.000,0.000,0.000,0.3070,0,0
18925,-1.0505,-2.5311,0.3040,0.0073,0.0325,0.0132,-0.33,0.51,-3.49,0,3.452,-4.434,-3.540,1.033,-0.001,-0.009,0.000,0.000,0.000,0.000,0.3050,0,-1
18977,-1.0528,-2.5403,0.3057,-0.0022,0.0129,0.0200,-0.45,0.64,-3.48,0,3.457,1.839,4.486,1.064,0.001,-0.013,0.000,0.000,0.000,0.000,0.3040,0,1
19027,-1.0495,-2.5344,0.3068,-0.0000,0.0275,0.0223,-0.58,0.58,-3.45,0,3.447,-4.379,-3.655,-0.165,0.008,-0.013,0.000,0.000,0.000,0.000,0.3060,0,-1
19079,-1.0530,-2.5442,0.3062,-0.0117,0.0093,0.0164,-0.66,0.64,-3.45,0,3.452,-8.766,-2.695,0.471,0.001,-0.011,0.000,0.000,0.000,0.000,0.3070,0,1
19130,-1.0494,-2.5376,0.3071,-0.0079,0.0281,0.0173,-1.07,0.75,-3.45,0,3.447,-0.875,1.280,1.104,0.002,-0.008,0.000,0.000,0.000,0.000,0.3080,-1,1
19180,-1.0506,-2.5476,0.3079,-0.0149,0.0135,0.0183,-1.06,0.73,-3.43,0,3.452,-0.435,1.997,0.731,0.002,-0.009,0.000,0.000,0.000,0.000,0.3050,-4,0
19232,-1.0506,-2.5464,0.3088,-0.0186,0.0233,0.0179,-1.06,0.61,-3.42,0,3.447,0.020,0.675,-1.235,0.003,-0.008,0.000,0.000,0.000,0.000,0.3060,-1,0
19283,-1.0536,-2.5469,0.3070,-0.0275,0.0283,0.0040,-0.99,0.61,-3.48,0,3.452,0.520,-0.199,-1.345,0.002,-0.009,0.000,0.000,0.000,0.000,0.3050,0,2
19334,-1.0521,-2.5422,0.3071,-0.0261,0.0429,0.0029,-0.84,0.58,-3.55,0,3.447,5.673,0.250,-1.300,0.002,-0.015,0.000,0.000,0.000,0.000,0.3090,0,0
19385,-1.0536,-2.5361,0.3073,-0.0305,0.0590,0.0048,-0.58,0.52,-3.61,0,3.452,4.210,2.523,-1.220,0.003,-0.015,0.000,0.000,0.000,0.000,0.3070,0,1
19436,-1.0551,-2.5358,0.3076,-0.0344,0.0581,0.0058,-0.29,0.39,-3.65,0,3.447,3.162,-0.453,-0.452,0.000,-0.015,0.000,0.000,0.000,0.000,0.3100,-1,0
19487,-1.0546,-2.5289,0.3085,-0.0327,0.0701,0.0093,-0.24,0.36,-3.65,0,3.452,3.560,0.184,-0.457,0.001,-0.013,0.000,0.000,0.000,0.000,0.3100,0,0
19537,-1.0570,-2.5307,0.3090,-0.0372,0.0602,0.0081,-0.04,0.30,-3.66,0,3.447,3.263,0.828,-0.042,0.004,-0.011,0.000,0.000,0.000,0.000,0.3060,-8,1
19589,-1.0566,-2.5251,0.3083,-0.0345,0.0664,0.0005,0.04,0.20,-3.65,0,3.447,0.872,-2.186,-0.382,0.005,-0.012,0.000,0.000,0.000,0.000,0.3100,1,0
19640,-1.0582,-2.5208,0.3083,-0.0360,0.0675,-0.0018,0.21,0.27,-3.69,0,3.442,-2.113,-7.688,-1.052,0.006,-0.010,0.000,0.000,0.000,0.000,0.3060,0,0
19691,-1.0570,-2.5136,0.3078,-0.0317,0.0751,-0.0050,0.12,0.60,-3.74,0,3.447,0.106,-6.394,-1.991,0.002,-0.014,0.000,0.000,0.000,0.000,0.3050,3,1
19742,-1.0590,-2.5144,0.3076,-0.0374,0.0639,-0.0034,0.26,0.90,-3.84,0,3.442,4.906,0.975,-1.668,0.002,-0.010,0.000,0.000,0.000,0.000,0.3050,-4,0
19793,-1.0601,-2.5057,0.3057,-0.0428,0.0755,-0.0094,0.31,0.82,-3.91,0,3.442,3.435,1.102,-1.610,0.004,-0.011,0.000,0.000,0.000,0.000,0.3030,0,1
19844,-1.0618,-2.5086,0.3053,-0.0487,0.0577,-0.0048,0.57,0.80,-4.01,0,3.436,0.686,2.431,-0.417,0.006,-0.008,0.000,0.000,0.000,0.000,0.3040,-2,0
19895,-1.0640,-2.5066,0.3040,-0.0550,0.0516,-0.0051,0.62,0.75,-4.04,0,3.447,-7.286,4.470,0.524,0.001,-0.013,0.000,0.000,0.000,0.000,0.3020,-2,1
19945,-1.0655,-2.5022,0.3039,-0.0587,0.0507,-0.0008,0.44,0.54,-4.03,0,3.442,2.588,1.828,0.968,0.003,-0.013,0.000,0.000,0.000,0.000,0.2990,3,0
19997,-1.0702,-2.5035,0.3014,-0.0675,0.0383,-0.0097,0.57,0.45,-3.99,0,3.447,-4.868,-0.247,3.209,0.006,-0.012,0.000,0.000,0.000,0.000,0.3010,0,0
20048,-1.0711,-2.5007,0.3010,-0.0659,0.0364,-0.0055,0.56,0.38,-3.91,0,3.436,-0.714,1.603,2.894,0.001,-0.011,0.000,0.000,0.000,0.000,0.3030,0,0
20099,-1.0742,-2.5002,0.3017,-0.0687,0.0292,0.0044,0.41,0.39,-3.76,0,3.447,-0.205,-1.925,3.332,0.004,-0.010,0.000,0.000,0.000,0.000,0.3010,0,1
20149,-1.0789,-2.5063,0.3021,-0.0750,0.0086,0.0098,0.51,0.44,-3.60,0,3.442,-1.479,2.613,4.520,0.005,-0.011,0.000,0.000,0.000,0.000,0.3030,1,2
20201,-1.0803,-2.5014,0.3024,-0.0734,0.0150,0.0127,0.47,0.29,-3.42,0,3.447,-1.820,-0.414,3.160,0.004,-0.006,0.000,0.000,0.000,0.000,0.3010,-9,0
20252,-1.0819,-2.4936,0.3032,-0.0711,0.0276,0.0164,0.30,0.28,-3.29,0,3.442,10.210,-1.473,3.162,0.001,-0.010,0.000,0.000,0.000,0.000,0.3050,-3,0
20303,-1.0848,-2.5026,0.3037,-0.0724,-0.0019,0.0162,0.90,0.41,-3.13,0,3.452,3.013,3.958,4.178,0.005,-0.009,0.000,0.000,0.000,0.000,0.3030,2,0
20353,-1.0879,-2.5015,0.3045,-0.0751,-0.0066,0.0158,1.11,0.29,-2.91,0,3.442,-9.462,-0.073,3.437,0.003,-0.008,0.000,0.000,0.000,0.000,0.3040,-1,1
20405,-1.0911,-2.5077,0.3042,-0.0764,-0.0291,0.0075,0.79,0.26,-2.71,0,3.447,-5.035,-4.050,3.947,-0.000,-0.013,0.000,0.000,0.000,0.000,0.3060,1,0
20456,-1.0956,-2.5061,0.3045,-0.0808,-0.0282,0.0054,0.50,0.42,-2.54,0,3.442,1.929,1.728,1.152,0.003,-0.011,0.000,0.000,0.000,0.000,0.3060,3,2
20506,-1.0972,-2.5029,0.3057,-0.0779,-0.0203,0.0080,0.40,0.48,-2.42,0,3.447,1.485,0.622,0.940,0.001,-0.012,0.000,0.000,0.000,0.000,0.3040,0,1
20558,-1.1020,-2.5142,0.3061,-0.0841,-0.0482,0.0057,0.55,0.46,-2.36,0,3.442,-7.053,-1.272,-0.056,0.002,-0.012,0.000,0.000,0.000,0.000,0.3060,8,1
20608,-1.1062,-2.5196,0.3055,-0.0880,-0.0597,0.0008,0.38,0.54,-2.35,0,3.447,-13.197,-5.342,0.484,0.003,-0.010,0.000,0.000,0.000,0.000,0.3090,4,3
20659,-1.1092,-2.5224,0.3055,-0.0888,-0.0609,-0.0003,-0.18,0.70,-2.36,0,3.442,-5.393,-1.842,0.944,0.003,-0.009,0.000,0.000,0.000,0.000,0.3030,0,1
20710,-1.1133,-2.5316,0.3055,-0.0931,-0.0746,-0.0029,-0.32,0.68,-2.37,0,3.442,-0.312,3.429,-0.511,0.006,-0.011,0.000,0.000,0.000,0.000,0.3080,0,2
20762,-1.1176,-2.5317,0.3054,-0.0976,-0.0628,-0.0035,-0.44,0.56,-2.37,0,3.442,-2.849,0.755,-0.021,0.007,-0.008,0.000,0.000,0.000,0.000,0.3050,1,2
20812,-1.1236,-2.5353,0.3059,-0.1050,-0.0605,-0.0017,-0.53,0.55,-2.38,0,3.447,0.505,-0.077,0.968,0.005,-0.007,0.000,0.000,0.000,0.000,0.3040,0,1
20864,-1.1294,-2.5377,0.3058,-0.1108,-0.0541,-0.0021,-0.56,0.56,-2.34,0,3.436,0.209,4.212,0.344,0.008,-0.004,0.000,0.000,0.000,0.000,0.2990,2,2
20915,-1.1335,-2.5387,0.3023,-0.1110,-0.0453,-0.0197,-0.44,0.37,-2.36,0,3.442,1.300,-3.445,2.838,0.002,-0.006,0.000,0.000,0.000,0.000,0.3050,0,1
20966,-1.1401,-2.5403,0.3014,-0.1165,-0.0399,-0.0192,-0.33,0.38,-2.28,0,3.436,3.834,4.045,1.512,0.004,-0.010,0.000,0.000,0.000,0.000,0.2990,0,2
21017,-1.1450,-2.5411,0.3010,-0.1169,-0.0341,-0.0160,-0.24,0.31,-2.21,0,3.436,4.267,0.049,4.516,0.005,-0.009,0.000,0.000,0.000,0.000,0.2990,2,4
21068,-1.1505,-2.5394,0.3003,-0.1182,-0.0235,-0.0127,0.05,0.20,-2.06,0,3.436,10.589,2.498,1.655,0.003,-0.010,0.000,0.000,0.000,0.000,0.2990,0,0
21118,-1.1577,-2.5401,0.2990,-0.1230,-0.0225,-0.0105,0.32,0.15,-1.91,0,3.436,5.949,0.199,2.736,0.004,-0.005,0.000,0.000,0.000,0.000,0.2980,1,2
21170,-1.1660,-2.5417,0.2986,-0.1295,-0.0266,-0.0058,0.53,0.16,-1.75,0,3.431,1.267,1.851,2.626,0.005,-0.012,0.000,0.000,0.000,0.000,0.2970,2,3
21220,-1.1719,-2.5407,0.2977,-0.1295,-0.0250,-0.0037,0.61,0.05,-1.60,0,3.436,2.886,-0.253,2.002,0.002,-0.007,0.000,0.000,0.000,0.000,0.2960,0,2
21271,-1.1782,-2.5447,0.2976,-0.1298,-0.0371,0.0019,0.70,0.09,-1.49,0,3.431,0.564,-0.612,1.321,0.006,-0.013,0.000,0.000,0.000,0.000,0.2970,2,3
21323,-1.1848,-2.5414,0.2970,-0.1304,-0.0299,0.0040,0.77,0.05,-1.41,0,3.436,2.806,-1.210,1.486,0.003,-0.011,0.000,0.000,0.000,0.000,0.2970,0,1
21374,-1.1903,-2.5464,0.2974,-0.1285,-0.0452,0.0103,0.82,0.13,-1.31,0,3.436,-1.801,-0.254,4.172,0.006,-0.012,0.000,0.000,0.000,0.000,0.3020,7,5
21425,-1.1954,-2.5436,0.2996,-0.1259,-0.0381,0.0227,0.69,0.17,-1.13,0,3.442,0.876,-0.560,3.957,0.010,-0.007,0.000,0.000,0.000,0.000,0.2970,-3,3
21476,-1.2016,-2.5484,0.3008,-0.1268,-0.0504,0.0268,0.61,0.12,-0.94,0,3.436,0.957,0.140,3.824,0.009,-0.009,0.000,0.000,0.000,0.000,0.2990,0,1
21527,-1.2082,-2.5517,0.2997,-0.1285,-0.0580,0.0174,0.69,0.11,-0.74,0,3.442,-4.366,-1.380,4.315,0.007,-0.006,0.000,0.000,0.000,0.000,0.3010,-3,2
21578,-1.2137,-2.5537,0.3006,-0.1271,-0.0612,0.0185,0.55,0.17,-0.53,0,3.431,-4.830,-3.807,3.700,0.004,-0.006,0.000,0.000,0.000,0.000,0.2990,0,0
21629,-1.2216,-2.5572,0.3006,-0.1329,-0.0669,0.0144,0.39,0.33,-0.34,0,3.442,-4.521,-0.476,2.995,0.007,-0.007,0.000,0.000,0.000,0.000,0.2980,-1,1
21680,-1.2276,-2.5550,0.3014,-0.1337,-0.0550,0.0156,0.10,0.33,-0.23,0,3.431,2.803,2.146,2.005,0.005,-0.011,0.000,0.000,0.000,0.000,0.2990,-3,3
21731,-1.2334,-2.5597,0.2999,-0.1339,-0.0609,0.0072,0.11,0.26,-0.10,0,3.436,0.222,0.985,1.252,0.008,-0.010,0.000,0.000,0.000,0.000,0.3020,0,1
21782,-1.2406,-2.5631,0.3003,-0.1371,-0.0636,0.0091,0.21,0.19,-0.04,0,3.431,-0.470,-0.040,1.707,0.004,-0.008,0.000,0.000,0.000,0.000,0.3020,8,3
21833,-1.2463,-2.5614,0.3018,-0.1351,-0.0522,0.0162,0.20,0.16,0.05,0,3.436,-0.233,3.134,2.510,0.004,-0.010,0.000,0.000,0.000,0.000,0.2990,0,4
21884,-1.2538,-2.5673,0.3027,-0.1382,-0.0615,0.0181,0.13,0.05,0.14,0,3.431,2.152,1.020,2.070,0.006,-0.006,0.000,0.000,0.000,0.000,0.3020,0,2
21934,-1.2602,-2.5657,0.3018,-0.1368,-0.0502,0.0116,0.13,-0.07,0.24,0,3.442,1.038,2.641,3.248,0.006,-0.009,0.000,0.000,0.000,0.000,0.3010,0,3
21985,-1.2666,-2.5676,0.3024,-0.1349,-0.0502,0.0128,0.18,-0.13,0.41,0,3.431,7.340,-1.041,3.928,0.002,-0.011,0.000,0.000,0.000,0.000,0.3030,0,1
22037,-1.2735,-2.5701,0.3026,-0.1344,-0.0519,0.0127,0.46,-0.11,0.63,0,3.442,0.516,1.922,5.391,0.005,-0.006,0.000,0.000,0.000,0.000,0.3030,-3,1
22088,-1.2803,-2.5685,0.3033,-0.1332,-0.0449,0.0130,0.46,-0.19,0.87,0,3.431,1.804,-3.626,5.383,0.006,-0.003,0.000,0.000,0.000,0.000,0.3030,0,3
22139,-1.2861,-2.5718,0.3035,-0.1298,-0.0518,0.0112,0.50,-0.09,1.17,0,3.442,3.490,0.266,5.310,0.009,-0.008,0.000,0.000,0.000,0.000,0.3050,3,3
22190,-1.2932,-2.5734,0.3040,-0.1302,-0.0536,0.0101,0.61,-0.09,1.44,0,3.436,-2.863,2.650,4.927,0.006,-0.005,0.000,0.000,0.000,0.000,0.3060,-3,1
22241,-1.2999,-2.5761,0.3054,-0.1298,-0.0587,0.0118,0.57,-0.17,1.67,0,3.442,-3.517,-2.211,4.870,0.007,-0.004,0.000,0.000,0.000,0.000,0.3050,-1,0
22291,-1.3063,-2.5795,0.3059,-0.1280,-0.0643,0.0090,0.44,-0.13,1.94,0,3.431,-2.478,-1.438,3.816,0.010,-0.007,0.000,0.000,0.000,0.000,0.3060,0,1
22343,-1.3123,-2.5813,0.3059,-0.1261,-0.0646,0.0048,0.25,-0.04,2.15,0,3.442,0.951,-1.714,3.798,0.009,-0.008,0.000,0.000,0.000,0.000,0.3040,0,4
22393,-1.3173,-2.5819,0.3061,-0.1225,-0.0600,0.0034,0.17,0.04,2.35,0,3.431,-3.387,-0.371,3.411,0.009,-0.008,0.000,0.000,0.000,0.000,0.3050,0,1
22444,-1.3242,-2.5856,0.3051,-0.1245,-0.0635,-0.0028,0.11,0.05,2.51,0,3.436,-1.842,-0.807,2.208,0.005,-0.006,0.000,0.000,0.000,0.000,0.3020,8,5
22496,-1.3302,-2.5835,0.3050,-0.1241,-0.0507,-0.0017,0.06,0.12,2.65,0,3.431,0.690,-0.442,2.310,0.002,-0.008,0.000,0.000,0.000,0.000,0.3020,0,2
22548,-1.3375,-2.5782,0.3028,-0.1271,-0.0311,-0.0094,-0.13,0.08,2.74,0,3.436,6.457,-0.017,1.239,0.008,-0.006,0.000,0.000,0.000,0.000,0.3000,0,1
22599,-1.3441,-2.5776,0.3024,-0.1279,-0.0247,-0.0054,0.05,-0.07,2.85,0,3.426,3.265,0.614,2.333,0.011,-0.007,0.000,0.000,0.000,0.000,0.2990,0,2
22649,-1.3493,-2.5793,0.3001,-0.1245,-0.0262,-0.0121,0.29,-0.09,2.97,0,3.436,-1.324,-0.280,2.002,0.005,-0.004,0.000,0.000,0.000,0.000,0.3000,3,2
22701,-1.3563,-2.5952,0.2995,-0.1259,-0.0654,-0.0085,0.45,-0.07,3.12,0,3.426,-6.703,1.053,1.476,0.005,-0.009,0.000,0.000,0.000,0.000,0.2990,0,1
22752,-1.3613,-2.5950,0.2993,-0.1215,-0.0595,-0.0025,0.09,-0.15,3.20,0,3.436,-5.096,2.417,1.310,0.008,-0.009,0.000,0.000,0.000,0.000,0.3010,-1,3
22803,-1.3661,-2.5975,0.2993,-0.1169,-0.0587,0.0032,-0.24,-0.26,3.29,0,3.431,2.944,-0.572,1.991,0.008,-0.005,0.000,0.000,0.000,0.000,0.3020,0,1
22854,-1.3711,-2.5947,0.3012,-0.1124,-0.0422,0.0154,-0.22,-0.30,3.35,0,3.436,1.306,0.553,0.742,0.003,-0.010,0.000,0.000,0.000,0.000,0.3030,2,2
22905,-1.3770,-2.6124,0.3020,-0.1114,-0.0797,0.0175,0.09,-0.24,3.45,0,3.431,-11.312,-0.818,0.020,0.008,-0.009,0.000,0.000,0.000,0.000,0.3010,0,4
22956,-1.3803,-2.6102,0.3025,-0.1037,-0.0639,0.0154,-0.52,-0.25,3.46,0,3.436,-2.245,-2.483,-0.132,0.004,-0.004,0.000,0.000,0.000,0.000,0.3030,0,1
23007,-1.3870,-2.6163,0.3033,-0.1058,-0.0667,0.0174,-0.66,-0.16,3.46,0,3.431,2.165,1.220,-1.788,0.003,-0.008,0.000,0.000,0.000,0.000,0.3020,-5,2
23057,-1.3933,-2.6235,0.3033,-0.1075,-0.0711,0.0132,-0.57,-0.18,3.39,0,3.436,-4.066,2.155,-2.059,0.003,-0.004,0.000,0.000,0.000,0.000,0.3040,0,1
23109,-1.3992,-2.6260,0.3039,-0.1075,-0.0644,0.0123,-0.73,-0.23,3.31,0,3.426,-4.482,-0.902,-0.574,0.005,-0.005,0.000,0.000,0.000,0.000,0.3010,3,2
23160,-1.4031,-2.6238,0.3031,-0.1023,-0.0448,0.0047,-0.94,-0.20,3.24,0,3.436,2.423,-0.182,-2.644,0.005,-0.008,0.000,0.000,0.000,0.000,0.3020,0,2
23210,-1.4103,-2.6354,0.3033,-0.1061,-0.0604,0.0043,-0.72,-0.17,3.12,0,3.426,-1.739,1.418,-1.793,0.006,-0.010,0.000,0.000,0.000,0.000,0.3010,0,1
23262,-1.4155,-2.6331,0.3021,-0.1045,-0.0413,-0.0030,-0.82,-0.28,3.02,0,3.431,-2.998,1.256,-2.098,0.006,-0.009,0.000,0.000,0.000,0.000,0.3020,-1,2
23312,-1.4207,-2.6388,0.3019,-0.1056,-0.0461,-0.0022,-0.94,-0.33,2.90,0,3.426,2.324,0.030,-2.015,0.005,-0.010,0.000,0.000,0.000,0.000,0.3030,9,2
23364,-1.4265,-2.6350,0.3024,-0.1044,-0.0238,0.0033,-0.85,-0.35,2.81,0,3.436,4.027,-0.424,-2.204,0.005,-0.006,0.000,0.000,0.000,0.000,0.3000,-1,1
23414,-1.4307,-2.6367,0.3026,-0.0995,-0.0166,0.0060,-0.79,-0.38,2.71,0,3.426,-0.327,0.831,-1.967,0.006,-0.010,0.000,0.000,0.000,0.000,0.3010,0,2
23466,-1.4361,-2.6388,0.3013,-0.0979,-0.0138,0.0005,-0.76,-0.40,2.61,0,3.431,6.742,-0.599,-1.389,0.003,-0.009,0.000,0.000,0.000,0.000,0.3020,0,2
23517,-1.4410,-2.6344,0.3014,-0.0949,0.0053,0.0032,-0.57,-0.40,2.52,0,3.426,3.967,0.117,-1.813,0.005,-0.013,0.000,0.000,0.000,0.000,0.3050,9,2
23568,-1.4473,-2.6330,0.3032,-0.0954,0.0128,0.0146,-0.35,-0.38,2.46,0,3.436,-1.990,3.807,-0.080,0.008,-0.014,0.000,0.000,0.000,0.000,0.3000,0,1
23619,-1.4513,-2.6328,0.3039,-0.0906,0.0161,0.0163,-0.38,-0.50,2.41,0,3.426,1.669,0.232,-0.661,0.005,-0.009,0.000,0.000,0.000,0.000,0.2980,7,2
23670,-1.4560,-2.6326,0.3008,-0.0875,0.0176,-0.0013,-0.16,-0.48,2.36,0,3.431,1.819,0.329,-1.820,0.003,-0.010,0.000,0.000,0.000,0.000,0.2990,0,1
23721,-1.4601,-2.6323,0.3007,-0.0827,0.0188,-0.0011,-0.19,-0.48,2.29,0,3.421,-2.282,0.529,-2.134,0.004,-0.014,0.000,0.000,0.000,0.000,0.3000,0,2
23772,-1.4644,-2.6307,0.2999,-0.0792,0.0224,-0.0034,-0.31,-0.50,2.17,0,3.431,2.005,-0.820,-2.489,0.004,-0.010,0.000,0.000,0.000,0.000,0.2960,-3,0
23823,-1.4692,-2.6356,0.2998,-0.0776,0.0097,-0.0005,-0.20,-0.48,2.07,0,3.421,-3.832,-1.300,-2.821,0.006,-0.015,0.000,0.000,0.000,0.000,0.2990,-3,2
23873,-1.4730,-2.6301,0.2983,-0.0736,0.0236,-0.0037,-0.36,-0.41,1.91,0,3.431,-1.301,-0.386,-2.332,0.003,-0.012,0.000,0.000,0.000,0.000,0.2970,9,2
23924,-1.4786,-2.6257,0.2982,-0.0747,0.0340,0.0015,-0.37,-0.39,1.79,0,3.421,1.808,1.731,-2.093,0.003,-0.013,0.000,0.000,0.000,0.000,0.2990,-2,1
23976,-1.4815,-2.6280,0.2983,-0.0696,0.0289,0.0057,-0.36,-0.44,1.66,0,3.426,-0.305,0.026,-2.862,0.005,-0.011,0.000,0.000,0.000,0.000,0.2990,-3,0
24026,-1.4848,-2.6267,0.2987,-0.0659,0.0311,0.0103,-0.44,-0.46,1.55,0,3.421,2.409,-1.784,-3.077,0.004,-0.013,0.000,0.000,0.000,0.000,0.2990,3,2
24078,-1.4882,-2.6236,0.2992,-0.0626,0.0381,0.0141,-0.38,-0.36,1.44,0,3.431,-0.253,-1.214,-2.813,0.005,-0.012,0.000,0.000,0.000,0.000,0.2980,0,1
24129,-1.4917,-2.6244,0.3000,-0.0606,0.0359,0.0174,-0.33,-0.33,1.31,0,3.426,-4.077,1.529,-2.832,0.006,-0.015,0.000,0.000,0.000,0.000,0.3010,0,1
24179,-1.4947,-2.6226,0.3003,-0.0578,0.0386,0.0176,-0.52,-0.38,1.16,0,3.431,-1.037,-0.373,-2.351,0.004,-0.014,0.000,0.000,0.000,0.000,0.2990,-1,0
24230,-1.4985,-2.6224,0.3013,-0.0572,0.0387,0.0211,-0.59,-0.37,1.04,0,3.426,-1.136,-0.359,-2.063,-0.001,-0.011,0.000,0.000,0.000,0.000,0.3020,1,1
24281,-1.5017,-2.6222,0.3014,-0.0553,0.0390,0.0184,-0.50,-0.36,0.93,0,3.431,-2.256,-0.994,-1.405,0.003,-0.006,0.000,0.000,0.000,0.000,0.3000,0,0
24333,-1.5041,-2.6208,0.3024,-0.0519,0.0427,0.0187,-0.62,-0.33,0.83,0,3.421,-1.731,0.460,-1.747,0.006,-0.011,0.000,0.000,0.000,0.000,0.3060,-13,0
24384,-1.5072,-2.6197,0.3036,-0.0503,0.0450,0.0227,-0.81,-0.32,0.72,0,3.431,1.753,0.074,-1.112,-0.002,-0.012,0.000,0.000,0.000,0.000,0.3030,-6,1
24435,-1.5094,-2.6078,0.3047,-0.0470,0.0735,0.0243,-0.75,-0.31,0.65,0,3.426,7.237,1.592,-0.848,-0.001,-0.011,0.000,0.000,0.000,0.000,0.3060,0,2
24486,-1.5131,-2.6093,0.3054,-0.0475,0.0665,0.0219,-0.27,-0.37,0.61,0,3.436,0.730,0.836,-0.724,0.005,-0.015,0.000,0.000,0.000,0.000,0.3070,-2,1
24537,-1.5152,-2.6008,0.3064,-0.0438,0.0816,0.0208,-0.26,-0.49,0.57,0,3.426,0.676,0.791,-0.592,0.002,-0.011,0.000,0.000,0.000,0.000,0.3050,0,0
24588,-1.5181,-2.5998,0.3066,-0.0417,0.0765,0.0152,-0.20,-0.50,0.54,0,3.431,3.024,1.642,-0.782,0.004,-0.012,0.000,0.000,0.000,0.000,0.3090,0,0
24639,-1.5211,-2.5992,0.3073,-0.0397,0.0707,0.0133,-0.03,-0.50,0.51,0,3.426,-1.880,1.834,-0.572,0.004,-0.011,0.000,0.000,0.000,0.000,0.3090,-5,0
24690,-1.5223,-2.5918,0.3089,-0.0337,0.0805,0.0157,-0.20,-0.63,0.47,0,3.431,3.309,-1.454,0.200,0.000,-0.009,0.000,0.000,0.000,0.000,0.3100,-1,0
24741,-1.5245,-2.5845,0.3096,-0.0300,0.0893,0.0135,-0.06,-0.57,0.47,0,3.426,4.738,-2.820,-0.515,0.002,-0.010,0.000,0.000,0.000,0.000,0.3050,0,0
24792,-1.5273,-2.5873,0.3082,-0.0285,0.0733,0.0005,0.17,-0.49,0.44,0,3.426,-3.361,-1.546,-1.225,0.002,-0.012,0.000,0.000,0.000,0.000,0.3080,0,2
24842,-1.5292,-2.5848,0.3082,-0.0257,0.0696,-0.0024,0.04,-0.43,0.40,0,3.421,-2.963,2.126,-0.924,0.001,-0.009,0.000,0.000,0.000,0.000,0.3060,0,0
24894,-1.5320,-2.5820,0.3072,-0.0255,0.0678,-0.0072,-0.11,-0.47,0.35,0,3.426,0.077,0.391,-1.916,-0.002,-0.010,0.000,0.000,0.000,0.000,0.3080,-4,0
24945,-1.5330,-2.5728,0.3068,-0.0209,0.0818,-0.0069,-0.22,-0.51,0.24,0,3.421,1.550,-0.204,-1.856,-0.003,-0.014,0.000,0.000,0.000,0.000,0.3090,0,0
24996,-1.5340,-2.5667,0.3079,-0.0167,0.0876,0.0015,-0.17,-0.52,0.15,0,3.426,2.962,1.624,-2.702,-0.002,-0.010,0.000,0.000,0.000,0.000,0.3080,-4,0
25046,-1.5349,-2.5600,0.3080,-0.0127,0.0941,0.0039,-0.09,-0.52,0.02,0,3.421,2.342,3.418,-3.021,-0.000,-0.015,0.000,0.000,0.000,0.000,0.3020,-3,0
25097,-1.5349,-2.5531,0.3057,-0.0069,0.0991,-0.0090,0.00,-0.60,-0.10,0,3.426,5.105,-0.484,-1.757,0.000,-0.012,0.000,0.000,0.000,0.000,0.3040,-3,0
25149,-1.5360,-2.5469,0.3053,-0.0038,0.1015,-0.0072,0.21,-0.56,-0.20,0,3.421,7.183,-2.363,-2.258,-0.002,-0.012,0.000,0.000,0.000,0.000,0.3020,0,0
25200,-1.5360,-2.5414,0.3033,0.0012,0.1005,-0.0139,0.39,-0.48,-0.27,0,3.421,3.183,-0.079,-0.249,-0.003,-0.009,0.000,0.000,0.000,0.000,0.3060,-5,0
25251,-1.5358,-2.5347,0.3027,0.0054,0.1010,-0.0109,0.41,-0.54,-0.30,0,3.421,8.045,1.199,-1.466,0.001,-0.009,0.000,0.000,0.000,0.000,0.3040,0,0
25302,-1.5363,-2.5248,0.3040,0.0084,0.1068,-0.0008,0.67,-0.63,-0.32,0,3.426,-0.861,-1.398,1.166,-0.002,-0.006,0.000,0.000,0.000,0.000,0.2990,0,0
25353,-1.5371,-2.5225,0.3040,0.0107,0.0952,0.0009,0.75,-0.59,-0.27,0,3.415,0.601,-0.797,1.186,-0.000,-0.012,0.000,0.000,0.000,0.000,0.3030,0,0
25404,-1.5364,-2.5235,0.3021,0.0157,0.0771,-0.0053,0.89,-0.56,-0.20,0,3.426,-5.179,0.675,2.232,-0.000,-0.007,0.000,0.000,0.000,0.000,0.3040,0,0
25454,-1.5363,-2.5218,0.3019,0.0188,0.0655,-0.0035,0.80,-0.50,-0.10,0,3.421,-3.411,0.841,1.827,-0.002,-0.011,0.000,0.000,0.000,0.000,0.3000,2,0
25506,-1.5348,-2.5241,0.3017,0.0240,0.0476,-0.0026,0.70,-0.51,-0.01,0,3.426,-5.904,1.451,3.540,-0.003,-0.009,0.000,0.000,0.000,0.000,0.3010,0,1
25556,-1.5336,-2.5304,0.3016,0.0283,0.0255,-0.0015,0.52,-0.53,0.15,0,3.415,-11.518,-0.558,2.812,-0.004,-0.005,0.000,0.000,0.000,0.000,0.2990,2,0
25608,-1.5345,-2.5323,0.3003,0.0277,0.0155,-0.0064,0.12,-0.47,0.30,0,3.426,-8.155,1.731,3.040,0.000,-0.013,0.000,0.000,0.000,0.000,0.3000,4,0
25658,-1.5318,-2.5325,0.3000,0.0344,0.0135,-0.0046,-0.26,-0.52,0.43,0,3.415,-5.363,2.397,2.145,0.000,-0.010,0.000,0.000,0.000,0.000,0.3000,0,1
25709,-1.5309,-2.5413,0.2999,0.0372,-0.0020,-0.0022,-0.48,-0.60,0.54,0,3.426,-8.439,0.126,2.637,-0.001,-0.007,0.000,0.000,0.000,0.000,0.3010,1,0
25761,-1.5312,-2.5517,0.2998,0.0375,-0.0184,-0.0005,-0.75,-0.56,0.70,0,3.421,-6.486,-0.235,2.495,-0.003,-0.006,0.000,0.000,0.000,0.000,0.2980,0,0
25812,-1.5302,-2.5553,0.2994,0.0402,-0.0180,-0.0023,-1.03,-0.53,0.81,0,3.421,-1.870,0.336,2.547,-0.002,-0.006,0.000,0.000,0.000,0.000,0.2980,3,-1
25863,-1.5262,-2.5443,0.2993,0.0485,0.0145,-0.0028,-1.20,-0.54,0.91,0,3.415,1.535,-1.398,3.159,-0.001,-0.010,0.000,0.000,0.000,0.000,0.2980,1,-2
25914,-1.5234,-2.5499,0.2983,0.0533,0.0118,-0.0058,-1.10,-0.49,1.08,0,3.421,5.221,-4.834,2.746,-0.005,-0.012,0.000,0.000,0.000,0.000,0.2960,0,-1
25964,-1.5189,-2.5517,0.2980,0.0604,0.0158,-0.0043,-0.92,-0.32,1.23,0,3.415,-0.305,-2.715,2.146,-0.003,-0.013,0.000,0.000,0.000,0.000,0.2980,-9,-2
26016,-1.5179,-2.5564,0.2973,0.0584,0.0121,-0.0040,-0.93,-0.18,1.36,0,3.421,-0.003,0.910,3.527,0.000,-0.006,0.000,0.000,0.000,0.000,0.2980,0,-1
26067,-1.5131,-2.5405,0.2972,0.0635,0.0506,-0.0010,-1.00,-0.23,1.53,0,3.415,17.143,-2.091,2.621,-0.002,-0.011,0.000,0.000,0.000,0.000,0.2990,-10,-2
26118,-1.5104,-2.5361,0.2982,0.0641,0.0622,0.0073,-0.57,-0.16,1.71,0,3.426,8.341,-0.734,3.932,0.000,-0.012,0.000,0.000,0.000,0.000,0.2950,1,0
26168,-1.5076,-2.5347,0.2986,0.0642,0.0611,0.0091,0.09,-0.13,1.87,0,3.415,6.130,1.254,2.741,-0.004,-0.010,0.000,0.000,0.000,0.000,0.2960,2,-1
26219,-1.5021,-2.5191,0.2967,0.0704,0.0870,-0.0014,0.27,-0.23,2.03,0,3.421,9.862,1.019,0.079,0.004,-0.011,0.000,0.000,0.000,0.000,0.2960,-5,-2
26271,-1.5006,-2.5190,0.2966,0.0682,0.0756,0.0010,0.63,-0.26,2.10,0,3.415,7.081,-1.368,0.217,-0.000,-0.008,0.000,0.000,0.000,0.000,0.2970,0,-1
26322,-1.4973,-2.5129,0.2966,0.0699,0.0740,0.0020,1.09,-0.18,2.12,0,3.421,0.972,1.244,-1.800,0.005,-0.011,0.000,0.000,0.000,0.000,0.2990,3,0
26373,-1.4923,-2.5005,0.2967,0.0751,0.0848,0.0026,1.15,-0.22,2.07,0,3.415,6.512,1.247,-3.389,-0.000,-0.011,0.000,0.000,0.000,0.000,0.2910,0,0
26424,-1.4893,-2.5018,0.2952,0.0759,0.0638,-0.0056,1.33,-0.30,1.95,0,3.415,2.059,0.403,-2.570,0.001,-0.012,0.000,0.000,0.000,0.000,0.2930,1,0
26475,-1.4835,-2.4936,0.2949,0.0832,0.0637,-0.0050,1.46,-0.30,1.83,0,3.410,4.698,-0.764,-2.541,0.000,-0.011,0.000,0.000,0.000,0.000,0.2910,-9,-4
26526,-1.4821,-2.5036,0.2926,0.0798,0.0211,-0.0109,1.64,-0.29,1.70,0,3.415,-6.093,-0.574,-1.534,-0.002,-0.010,0.000,0.000,0.000,0.000,0.2930,3,-1
26576,-1.4773,-2.4998,0.2922,0.0840,0.0131,-0.0056,1.55,-0.27,1.61,0,3.410,-8.456,1.605,-1.569,-0.002,-0.009,0.000,0.000,0.000,0.000,0.2940,1,-1
26627,-1.4724,-2.4964,0.2932,0.0884,0.0080,0.0069,1.07,-0.39,1.54,0,3.421,-3.220,-1.801,-0.284,-0.001,-0.011,0.000,0.000,0.000,0.000,0.2950,4,-1
26679,-1.4703,-2.5068,0.2937,0.0861,-0.0255,0.0141,0.96,-0.25,1.51,0,3.415,-8.942,-0.920,-1.264,-0.001,-0.009,0.000,0.000,0.000,0.000,0.2950,1,0
26730,-1.4659,-2.4981,0.2952,0.0884,-0.0099,0.0220,0.45,-0.21,1.47,0,3.421,-4.274,1.911,-0.656,-0.001,-0.001,0.000,0.000,0.000,0.000,0.2930,-6,-3
26781,-1.4604,-2.4872,0.2964,0.0926,0.0132,0.0266,0.04,-0.34,1.40,0,3.415,11.043,1.045,-1.768,-0.003,-0.005,0.000,0.000,0.000,0.000,0.2960,2,-1
26831,-1.4573,-2.4948,0.2961,0.0916,-0.0079,0.0237,0.60,-0.32,1.33,0,3.421,-0.878,1.354,-2.246,-0.002,-0.006,0.000,0.000,0.000,0.000,0.2940,-1,-1
26883,-1.4513,-2.4848,0.2973,0.0979,0.0117,0.0255,0.49,-0.39,1.23,0,3.415,1.487,-0.428,-0.120,-0.001,-0.007,0.000,0.000,0.000,0.000,0.2990,1,-2
26933,-1.4479,-2.4814,0.2978,0.0971,0.0143,0.0241,0.45,-0.34,1.21,0,3.426,10.869,-0.427,-1.326,-0.001,-0.006,0.000,0.000,0.000,0.000,0.3020,0,-1
26985,-1.4418,-2.4871,0.2991,0.1028,-0.0061,0.0260,0.98,-0.32,1.16,0,3.415,-4.343,1.761,-2.128,-0.001,-0.005,0.000,0.000,0.000,0.000,0.3040,7,0
27036,-1.4356,-2.4807,0.3028,0.1085,0.0029,0.0369,0.93,-0.37,1.06,0,3.426,-3.262,-1.412,-2.972,-0.003,-0.007,0.000,0.000,0.000,0.000,0.3000,8,0
27086,-1.4339,-2.4958,0.3046,0.1022,-0.0409,0.0363,0.84,-0.28,0.95,0,3.415,-2.481,2.857,-4.571,-0.004,-0.009,0.000,0.000,0.000,0.000,0.3030,-3,-1
27138,-1.4294,-2.5041,0.3035,0.1034,-0.0618,0.0204,0.57,-0.32,0.78,0,3.421,-11.408,1.487,-2.385,-0.000,-0.003,0.000,0.000,0.000,0.000,0.3050,0,-1
27189,-1.4264,-2.5106,0.3045,0.1005,-0.0750,0.0176,0.14,-0.38,0.64,0,3.415,-3.305,0.304,-3.413,-0.003,-0.008,0.000,0.000,0.000,0.000,0.3060,0,-2
27239,-1.4220,-2.5085,0.3058,0.1019,-0.0611,0.0182,-0.18,-0.39,0.49,0,3.421,2.637,4.967,-4.095,-0.006,-0.007,0.000,0.000,0.000,0.000,0.3040,2,-1
27291,-1.4172,-2.5182,0.3067,0.1044,-0.0765,0.0160,-0.09,-0.55,0.32,0,3.410,-1.806,-0.617,-4.534,-0.005,-0.009,0.000,0.000,0.000,0.000,0.3050,2,-2
27342,-1.4112,-2.5177,0.3056,0.1109,-0.0649,0.0055,-0.24,-0.57,0.12,0,3.421,-1.098,-3.197,-4.549,-0.006,-0.007,0.000,0.000,0.000,0.000,0.3060,-4,-2
27392,-1.4064,-2.5265,0.3058,0.1133,-0.0766,0.0036,-0.29,-0.36,-0.10,0,3.415,2.067,-3.056,-5.019,-0.005,-0.010,0.000,0.000,0.000,0.000,0.3050,4,-2
27444,-1.4017,-2.5277,0.3057,0.1131,-0.0681,0.0008,-0.15,-0.20,-0.34,0,3.421,3.573,3.356,-4.432,-0.004,-0.002,0.000,0.000,0.000,0.000,0.3000,0,0
27495,-1.3944,-2.5292,0.3057,0.1194,-0.0617,-0.0007,-0.04,-0.42,-0.58,0,3.410,7.199,-1.469,-3.103,-0.001,-0.010,0.000,0.000,0.000,0.000,0.3050,0,-3
27546,-1.3892,-2.5345,0.3035,0.1208,-0.0681,-0.0106,0.37,-0.44,-0.77,0,3.421,1.863,-3.223,-2.855,-0.006,-0.005,0.000,0.000,0.000,0.000,0.3030,0,0
27597,-1.3820,-2.5365,0.3029,0.1270,-0.0680,-0.0120,0.49,-0.28,-0.94,0,3.410,-3.064,-1.837,-1.807,-0.001,-0.015,0.000,0.000,0.000,0.000,0.3040,8,-2
27648,-1.3725,-2.5346,0.3030,0.1373,-0.0576,-0.0084,0.43,-0.24,-1.07,0,3.415,-2.764,-4.722,-2.966,-0.005,-0.008,0.000,0.000,0.000,0.000,0.2990,-1,-2
27699,-1.3655,-2.5418,0.3026,0.1391,-0.0712,-0.0067,0.37,-0.02,-1.24,0,3.410,2.122,-2.946,-3.041,-0.002,-0.012,0.000,0.000,0.000,0.000,0.3020,-2,-3
27750,-1.3601,-2.5466,0.3010,0.1349,-0.0777,-0.0103,0.41,0.23,-1.37,0,3.415,-2.067,-2.562,-1.138,-0.004,-0.011,0.000,0.000,0.000,0.000,0.2980,5,0
27801,-1.3528,-2.5468,0.3006,0.1341,-0.0720,-0.0062,0.39,0.38,-1.44,0,3.410,-0.048,3.179,-1.670,-0.008,-0.010,0.000,0.000,0.000,0.000,0.2960,4,-1
27852,-1.3469,-2.5477,0.2977,0.1292,-0.0674,-0.0147,0.32,0.28,-1.50,0,3.410,-3.618,0.332,0.563,-0.005,-0.007,0.000,0.000,0.000,0.000,0.2990,0,-3
27903,-1.3418,-2.5538,0.2970,0.1233,-0.0766,-0.0111,0.40,0.22,-1.55,0,3.405,-0.228,0.662,-1.238,-0.006,-0.008,0.000,0.000,0.000,0.000,0.3000,-3,0
27954,-1.3336,-2.5590,0.2986,0.1266,-0.0837,0.0021,0.33,0.16,-1.62,0,3.415,-1.332,2.513,-3.039,-0.004,-0.012,0.000,0.000,0.000,0.000,0.2960,3,-3
28005,-1.3287,-2.5561,0.2988,0.1248,-0.0694,0.0064,0.27,0.08,-1.72,0,3.410,-2.844,2.045,-1.769,-0.004,-0.006,0.000,0.000,0.000,0.000,0.2950,0,-2
28055,-1.3227,-2.5605,0.2966,0.1237,-0.0739,-0.0031,0.15,0.04,-1.81,0,3.410,0.998,0.886,-0.777,-0.001,-0.007,0.000,0.000,0.000,0.000,0.2980,5,0
28107,-1.3166,-2.5639,0.2966,0.1230,-0.0749,0.0014,0.24,0.06,-1.87,0,3.410,-4.166,-0.615,1.026,-0.004,-0.009,0.000,0.000,0.000,0.000,0.2960,0,-3
28157,-1.3113,-2.5705,0.2969,0.1207,-0.0836,0.0055,0.12,0.03,-1.86,0,3.415,-4.840,0.266,0.926,-0.006,-0.009,0.000,0.000,0.000,0.000,0.2940,1,-1
28209,-1.3048,-2.5787,0.2972,0.1216,-0.0952,0.0082,-0.09,0.04,-1.82,0,3.405,-5.284,-0.581,1.950,-0.009,-0.008,0.000,0.000,0.000,0.000,0.2960,5,-2
28260,-1.3010,-2.5833,0.2960,0.1153,-0.0947,0.0030,-0.30,0.10,-1.76,0,3.410,-3.327,1.082,1.670,-0.010,-0.005,0.000,0.000,0.000,0.000,0.2950,4,-1
28311,-1.2953,-2.5865,0.2962,0.1144,-0.0876,0.0071,-0.48,0.01,-1.67,0,3.410,-3.432,1.880,0.253,-0.007,-0.009,0.000,0.000,0.000,0.000,0.2920,0,-2
28362,-1.2920,-2.5950,0.2944,0.1084,-0.0946,-0.0009,-0.54,-0.10,-1.65,0,3.410,-1.489,3.374,0.184,-0.003,-0.007,0.000,0.000,0.000,0.000,0.2980,13,2
28412,-1.2851,-2.5960,0.2944,0.1127,-0.0800,0.0015,-0.46,-0.18,-1.66,0,3.410,-0.611,1.009,-0.046,-0.003,-0.010,0.000,0.000,0.000,0.000,0.2970,1,-1
28464,-1.2813,-2.6047,0.2967,0.1101,-0.0873,0.0143,-0.53,-0.24,-1.66,0,3.415,-0.495,1.478,-1.208,-0.005,-0.006,0.000,0.000,0.000,0.000,0.2980,0,-1
28515,-1.2772,-2.6118,0.2975,0.1088,-0.0907,0.0164,-0.54,-0.28,-1.70,0,3.410,1.792,0.594,-1.657,-0.001,-0.009,0.000,0.000,0.000,0.000,0.2990,8,-1
28566,-1.2725,-2.6145,0.2987,0.1094,-0.0814,0.0191,-0.49,-0.33,-1.78,0,3.421,1.321,0.534,-2.793,-0.002,-0.010,0.000,0.000,0.000,0.000,0.2940,0,-1
28617,-1.2670,-2.6226,0.2997,0.1126,-0.0874,0.0193,-0.50,-0.38,-1.90,0,3.405,-0.754,-1.713,-2.483,-0.005,-0.008,0.000,0.000,0.000,0.000,0.2950,0,-3
28668,-1.2618,-2.6257,0.2965,0.1145,-0.0805,-0.0002,-0.54,-0.33,-2.01,0,3.410,3.611,-0.738,-3.231,-0.006,-0.011,0.000,0.000,0.000,0.000,0.2980,-1,-3
28718,-1.2546,-2.6277,0.2965,0.1210,-0.0710,0.0008,-0.49,-0.22,-2.12,0,3.405,0.683,-1.247,-1.099,-0.006,-0.009,0.000,0.000,0.000,0.000,0.2990,1,0
28770,-1.2469,-2.6311,0.2980,0.1271,-0.0670,0.0095,-0.35,-0.15,-2.23,0,3.410,0.333,-3.053,-1.139,-0.010,-0.006,0.000,0.000,0.000,0.000,0.2970,0,-4
28820,-1.2409,-2.6318,0.2986,0.1277,-0.0571,0.0125,-0.31,-0.14,-2.31,0,3.405,1.705,-0.910,-0.751,-0.006,-0.007,0.000,0.000,0.000,0.000,0.2980,0,-2
28871,-1.2342,-2.6357,0.2982,0.1292,-0.0573,0.0107,-0.21,-0.02,-2.36,0,3.410,-2.294,-2.002,1.636,-0.005,-0.013,0.000,0.000,0.000,0.000,0.2980,3,-3
28923,-1.2272,-2.6381,0.2988,0.1308,-0.0544,0.0126,-0.14,0.05,-2.35,0,3.405,1.269,-4.109,-1.336,-0.004,-0.013,0.000,0.000,0.000,0.000,0.2990,-1,-4
28973,-1.2203,-2.6409,0.2990,0.1312,-0.0533,0.0130,-0.09,0.29,-2.38,0,3.410,-4.009,-0.784,0.047,-0.005,-0.010,0.000,0.000,0.000,0.000,0.2980,1,-1
29024,-1.2134,-2.6423,0.2997,0.1299,-0.0492,0.0158,-0.24,0.37,-2.43,0,3.405,1.557,-0.603,-1.700,-0.003,-0.004,0.000,0.000,0.000,0.000,0.2990,0,-2
29076,-1.2064,-2.6447,0.2994,0.1285,-0.0469,0.0129,-0.14,0.44,-2.52,0,3.415,4.653,-0.927,-2.705,-0.004,-0.007,0.000,0.000,0.000,0.000,0.2990,0,-1
29127,-1.1988,-2.6465,0.3001,0.1280,-0.0439,0.0156,-0.05,0.44,-2.62,0,3.405,2.231,1.455,-3.730,-0.005,-0.009,0.000,0.000,0.000,0.000,0.3020,1,-3
29178,-1.1935,-2.6488,0.3009,0.1216,-0.0433,0.0182,-0.08,0.50,-2.74,0,3.415,-0.365,2.303,-2.571,-0.004,-0.009,0.000,0.000,0.000,0.000,0.3020,0,-2
29229,-1.1874,-2.6517,0.3019,0.1174,-0.0445,0.0203,-0.10,0.53,-2.89,0,3.405,-2.186,1.104,-2.095,-0.006,-0.012,0.000,0.000,0.000,0.000,0.3020,1,-1
29279,-1.1806,-2.6519,0.3026,0.1155,-0.0380,0.0196,-0.12,0.45,-3.03,0,3.410,1.811,2.490,-2.586,-0.002,-0.008,0.000,0.000,0.000,0.000,0.3040,1,-2
29331,-1.1752,-2.6551,0.3036,0.1106,-0.0399,0.0199,-0.02,0.38,-3.15,0,3.405,0.971,0.592,-1.337,-0.007,-0.008,0.000,0.000,0.000,0.000,0.3020,0,0
29382,-1.1688,-2.6570,0.3036,0.1097,-0.0393,0.0147,-0.02,0.32,-3.20,0,3.410,-0.727,1.258,0.113,-0.007,-0.007,0.000,0.000,0.000,0.000,0.3060,0,-2
29433,-1.1633,-2.6590,0.3043,0.1073,-0.0391,0.0145,-0.09,0.31,-3.17,0,3.405,0.242,0.721,1.642,-0.003,-0.008,0.000,0.000,0.000,0.000,0.3040,4,-3
29484,-1.1578,-2.6594,0.3051,0.1050,-0.0341,0.0129,-0.20,0.28,-3.04,0,3.415,0.988,-0.822,4.560,-0.002,-0.012,0.000,0.000,0.000,0.000,0.3010,0,0
29534,-1.1507,-2.6624,0.3057,0.1076,-0.0353,0.0113,-0.28,0.22,-2.82,0,3.405,-0.447,-1.817,5.634,-0.005,-0.011,0.000,0.000,0.000,0.000,0.3030,0,-2
29586,-1.1445,-2.6654,0.3034,0.1080,-0.0361,-0.0028,-0.28,0.19,-2.58,0,3.410,-4.447,-2.247,7.040,-0.004,-0.011,0.000,0.000,0.000,0.000,0.3040,0,0
29637,-1.1387,-2.6668,0.3033,0.1075,-0.0330,-0.0021,-0.37,0.27,-2.29,0,3.405,3.075,-0.981,5.717,-0.005,-0.011,0.000,0.000,0.000,0.000,0.3080,-1,-2
29687,-1.1312,-2.6695,0.3053,0.1109,-0.0327,0.0109,-0.37,0.31,-1.96,0,3.415,-0.071,-2.195,7.418,-0.002,-0.013,0.000,0.000,0.000,0.000,0.3040,1,-2
29739,-1.1252,-2.6712,0.3059,0.1096,-0.0299,0.0124,-0.50,0.42,-1.58,0,3.405,-2.180,-0.943,7.634,-0.002,-0.012,0.000,0.000,0.000,0.000,0.3040,0,0
29790,-1.1197,-2.6740,0.3049,0.1065,-0.0291,0.0044,-0.60,0.51,-1.18,0,3.415,0.519,1.412,8.004,-0.003,-0.014,0.000,0.000,0.000,0.000,0.3050,0,-2
29841,-1.1128,-2.6756,0.3051,0.1062,-0.0245,0.0042,-0.65,0.48,-0.77,0,3.410,-0.515,0.311,7.931,-0.000,-0.013,0.000,0.000,0.000,0.000,0.3030,0,-4
29891,-1.1073,-2.6773,0.3043,0.1027,-0.0206,-0.0032,-0.74,0.51,-0.37,0,3.410,-3.491,-3.440,6.922,-0.002,-0.014,0.000,0.000,0.000,0.000,0.3020,2,-1
29943,-1.1006,-2.6780,0.3041,0.1023,-0.0135,-0.0054,-0.90,0.61,-0.03,0,3.405,-2.600,-5.121,4.856,-0.001,-0.013,0.000,0.000,0.000,0.000,0.3000,1,-3
29994,-1.0955,-2.6793,0.3016,0.0976,-0.0076,-0.0169,-1.03,0.82,0.25,0,3.405,-1.232,-0.383,3.634,-0.004,-0.014,0.000,0.000,0.000,0.000,0.3010,0,-2
30045,-1.0909,-2.6801,0.3007,0.0902,-0.0001,-0.0152,-1.12,0.87,0.45,0,3.399,-2.939,0.963,3.807,-0.006,-0.013,0.000,0.000,0.000,0.000,0.3000,0,-3
30096,-1.0866,-2.6803,0.3001,0.0824,0.0083,-0.0115,-1.15,0.86,0.61,0,3.405,-0.844,0.974,2.299,0.001,-0.012,0.000,0.000,0.000,0.000,0.3010,0,-1
30147,-1.0826,-2.6806,0.2996,0.0750,0.0159,-0.0076,-1.10,0.79,0.72,0,3.399,3.159,0.837,0.512,-0.001,-0.012,0.000,0.000,0.000,0.000,0.2990,0,0
30198,-1.0761,-2.6780,0.2996,0.0748,0.0292,-0.0031,-1.00,0.67,0.80,0,3.410,4.099,1.214,1.379,0.001,-0.013,0.000,0.000,0.000,0.000,0.2960,0,-2
30249,-1.0726,-2.6768,0.2996,0.0688,0.0365,0.0008,-0.82,0.59,0.86,0,3.399,3.608,1.583,1.177,-0.003,-0.009,0.000,0.000,0.000,0.000,0.2990,0,-1
30300,-1.0682,-2.6746,0.2983,0.0657,0.0439,-0.0020,-0.62,0.50,0.91,0,3.405,2.652,1.835,1.035,-0.001,-0.010,0.000,0.000,0.000,0.000,0.2990,0,-1
30351,-1.0640,-2.6716,0.2982,0.0641,0.0507,-0.0004,-0.49,0.39,0.96,0,3.399,0.944,0.080,-0.688,-0.001,-0.012,0.000,0.000,0.000,0.000,0.3000,0,-2
30401,-1.0598,-2.6704,0.2992,0.0632,0.0514,0.0069,-0.37,0.34,0.92,0,3.410,-0.503,0.230,-2.279,-0.002,-0.013,0.000,0.000,0.000,0.000,0.2970,0,-1
30453,-1.0569,-2.6682,0.2996,0.0597,0.0536,0.0091,-0.33,0.37,0.79,0,3.399,0.964,-1.006,-5.052,-0.001,-0.008,0.000,0.000,0.000,0.000,0.2980,0,-1
30504,-1.0531,-2.6661,0.2984,0.0586,0.0549,0.0017,-0.36,0.34,0.55,0,3.405,-1.004,-1.088,-4.869,-0.000,-0.015,0.000,0.000,0.000,0.000,0.2960,0,-1
30554,-1.0486,-2.6636,0.2985,0.0592,0.0569,0.0037,-0.27,0.38,0.34,0,3.399,2.292,-2.774,-6.006,-0.000,-0.012,0.000,0.000,0.000,0.000,0.2950,0,-1
30606,-1.0453,-2.6606,0.2964,0.0569,0.0600,-0.0046,-0.29,0.44,0.08,0,3.405,-2.143,-2.577,-5.840,-0.000,-0.013,0.000,0.000,0.000,0.000,0.2970,0,-2
30657,-1.0425,-2.6590,0.2963,0.0533,0.0590,-0.0026,-0.29,0.50,-0.20,0,3.399,1.529,1.862,-5.875,-0.001,-0.016,0.000,0.000,0.000,0.000,0.2930,0,0
30707,-1.0372,-2.6545,0.2951,0.0556,0.0656,-0.0058,-0.36,0.41,-0.47,0,3.399,1.814,-1.893,-4.122,-0.001,-0.014,0.000,0.000,0.000,0.000,0.2930,-1,0
30758,-1.0341,-2.6514,0.2949,0.0528,0.0676,-0.0019,-0.23,0.46,-0.73,0,3.399,4.205,-0.247,-5.734,0.001,-0.017,0.000,0.000,0.000,0.000,0.2890,-1,-2
30810,-1.0325,-2.6485,0.2919,0.0466,0.0683,-0.0131,-0.08,0.54,-1.00,0,3.399,-0.391,0.592,-4.010,-0.001,-0.013,0.000,0.000,0.000,0.000,0.2950,-3,0
30861,-1.0270,-2.6440,0.2913,0.0496,0.0714,-0.0082,-0.11,0.47,-1.22,0,3.394,2.892,-1.241,-2.853,-0.002,-0.017,0.000,0.000,0.000,0.000,0.2930,0,0
30912,-1.0255,-2.6401,0.2930,0.0436,0.0730,0.0071,-0.07,0.49,-1.36,0,3.405,0.079,-0.124,-1.658,-0.000,-0.013,0.000,0.000,0.000,0.000,0.2930,0,0
30963,-1.0220,-2.6358,0.2935,0.0425,0.0749,0.0130,-0.01,0.54,-1.46,0,3.394,0.784,2.748,-1.634,-0.005,-0.015,0.000,0.000,0.000,0.000,0.2970,0,0
31014,-1.0208,-2.6298,0.2953,0.0359,0.0805,0.0234,-0.06,0.48,-1.52,0,3.410,2.263,2.164,0.179,0.005,-0.008,0.000,0.000,0.000,0.000,0.2980,0,0
31065,-1.0179,-2.6246,0.2965,0.0348,0.0839,0.0263,-0.04,0.36,-1.50,0,3.405,3.871,1.311,0.148,0.002,-0.013,0.000,0.000,0.000,0.000,0.2970,-1,-1
31116,-1.0163,-2.6205,0.2980,0.0317,0.0840,0.0271,0.11,0.28,-1.49,0,3.410,-0.143,-0.632,0.802,-0.004,-0.012,0.000,0.000,0.000,0.000,0.2990,-1,0
31167,-1.0128,-2.6174,0.2993,0.0338,0.0805,0.0251,0.15,0.28,-1.48,0,3.405,-0.603,0.463,2.073,0.001,-0.015,0.000,0.000,0.000,0.000,0.2990,0,0
31218,-1.0099,-2.6129,0.2998,0.0343,0.0805,0.0188,0.08,0.22,-1.41,0,3.410,-0.042,-2.334,1.535,0.001,-0.014,0.000,0.000,0.000,0.000,0.3030,-4,-2
31268,-1.0082,-2.6119,0.3006,0.0322,0.0734,0.0153,0.09,0.27,-1.33,0,3.405,-2.351,-1.522,2.136,-0.001,-0.016,0.000,0.000,0.000,0.000,0.3000,-1,-1
31320,-1.0053,-2.6047,0.3015,0.0323,0.0798,0.0112,0.10,0.36,-1.21,0,3.410,0.591,-1.643,1.919,0.001,-0.010,0.000,0.000,0.000,0.000,0.2960,-2,0
31370,-1.0031,-2.6049,0.3019,0.0308,0.0699,0.0070,0.13,0.41,-1.10,0,3.399,-1.252,-1.165,2.530,-0.003,-0.008,0.000,0.000,0.000,0.000,0.2970,0,-1
31421,-1.0028,-2.6050,0.2982,0.0249,0.0612,-0.0143,0.15,0.45,-0.99,0,3.399,-3.827,-1.344,1.632,0.001,-0.014,0.000,0.000,0.000,0.000,0.2990,1,0
31472,-1.0015,-2.6067,0.2975,0.0211,0.0504,-0.0152,0.02,0.51,-0.89,0,3.394,-6.007,1.076,0.039,0.001,-0.013,0.000,0.000,0.000,0.000,0.2990,0,0
31523,-0.9996,-2.6064,0.2981,0.0189,0.0463,-0.0085,-0.26,0.50,-0.86,0,3.399,-2.094,-3.008,-1.028,0.001,-0.011,0.000,0.000,0.000,0.000,0.2980,-2,-2
31575,-0.9987,-2.6040,0.2978,0.0147,0.0491,-0.0053,-0.45,0.52,-0.88,0,3.394,-1.999,-1.938,-2.165,0.002,-0.007,0.000,0.000,0.000,0.000,0.2950,0,0
31626,-0.9953,-2.6008,0.2966,0.0160,0.0545,-0.0082,-0.52,0.53,-0.98,0,3.399,-1.309,-2.660,-2.710,0.002,-0.010,0.000,0.000,0.000,0.000,0.2950,-3,0
31676,-0.9944,-2.5984,0.2962,0.0117,0.0582,-0.0045,-0.57,0.62,-1.11,0,3.394,5.089,0.091,-4.147,0.001,-0.007,0.000,0.000,0.000,0.000,0.2970,0,0
31728,-0.9944,-2.5938,0.2961,0.0053,0.0663,0.0007,-0.46,0.69,-1.28,0,3.399,-1.231,-3.370,-2.001,0.002,-0.014,0.000,0.000,0.000,0.000,0.2950,0,0
31779,-0.9934,-2.5938,0.2963,0.0010,0.0630,0.0047,-0.32,0.73,-1.45,0,3.394,-0.417,-3.744,-1.895,0.005,-0.015,0.000,0.000,0.000,0.000,0.2950,-1,0
31830,-0.9926,-2.5874,0.2955,-0.0035,0.0721,0.0040,-0.27,0.81,-1.57,0,3.399,3.727,0.830,-2.030,0.003,-0.015,0.000,0.000,0.000,0.000,0.2950,0,0
31881,-0.9928,-2.5828,0.2959,-0.0102,0.0766,0.0082,-0.19,0.82,-1.66,0,3.394,3.516,2.068,-2.065,0.003,-0.013,0.000,0.000,0.000,0.000,0.2940,0,1
31932,-0.9946,-2.5770,0.2951,-0.0194,0.0823,0.0065,-0.04,0.80,-1.76,0,3.399,6.210,3.373,-2.319,0.001,-0.017,0.000,0.000,0.000,0.000,0.2960,0,0
31984,-0.9945,-2.5737,0.2956,-0.0237,0.0811,0.0099,0.14,0.72,-1.84,0,3.394,2.979,-0.891,-2.362,-0.001,-0.014,0.000,0.000,0.000,0.000,0.2970,0,0
32035,-0.9966,-2.5691,0.2967,-0.0313,0.0806,0.0147,0.39,0.66,-1.94,0,3.399,1.355,1.077,-2.359,0.001,-0.014,0.000,0.000,0.000,0.000,0.2960,-2,0
32085,-0.9996,-2.5650,0.2975,-0.0397,0.0776,0.0170,0.50,0.68,-2.09,0,3.394,4.023,1.065,-3.100,0.006,-0.015,0.000,0.000,0.000,0.000,0.3000,0,0
32137,-1.0026,-2.5639,0.2987,-0.0475,0.0678,0.0216,0.67,0.60,-2.23,0,3.399,-0.675,3.699,-1.283,0.003,-0.009,0.000,0.000,0.000,0.000,0.2990,0,1
32188,-1.0033,-2.5588,0.2998,-0.0491,0.0656,0.0229,0.69,0.43,-2.32,0,3.394,-0.770,0.690,-1.346,0.005,-0.012,0.000,0.000,0.000,0.000,0.2990,0,1
32238,-1.0063,-2.5587,0.3000,-0.0538,0.0540,0.0183,0.59,0.37,-2.37,0,3.399,-1.032,4.017,0.774,0.004,-0.011,0.000,0.000,0.000,0.000,0.2990,0,1
32289,-1.0079,-2.5600,0.3009,-0.0546,0.0414,0.0197,0.53,0.24,-2.34,0,3.394,-3.582,0.735,1.368,0.006,-0.008,0.000,0.000,0.000,0.000,0.3000,1,0
32341,-1.0109,-2.5620,0.3006,-0.0574,0.0296,0.0140,0.40,0.23,-2.28,0,3.399,-1.889,0.661,0.651,0.007,-0.010,0.000,0.000,0.000,0.000,0.3010,1,1
32392,-1.0096,-2.5645,0.3013,-0.0506,0.0188,0.0147,0.28,0.19,-2.21,0,3.394,-1.398,-1.185,0.689,0.004,-0.016,0.000,0.000,0.000,0.000,0.3000,-1,0
32443,-1.0129,-2.5664,0.3011,-0.0538,0.0111,0.0101,0.14,0.22,-2.13,0,3.399,-1.513,-2.768,0.551,0.005,-0.013,0.000,0.000,0.000,0.000,0.3010,1,0
32494,-1.0141,-2.5677,0.3016,-0.0527,0.0065,0.0091,-0.04,0.31,-2.04,0,3.394,-2.990,-0.714,2.759,0.003,-0.015,0.000,0.000,0.000,0.000,0.2990,0,0
32545,-1.0155,-2.5710,0.3006,-0.0527,-0.0003,0.0012,-0.18,0.38,-1.90,0,3.399,-2.460,-0.321,3.732,0.005,-0.013,0.000,0.000,0.000,0.000,0.2980,2,0
32595,-1.0176,-2.5716,0.3007,-0.0547,0.0002,0.0006,-0.28,0.38,-1.74,0,3.389,-6.232,-5.826,4.527,0.003,-0.012,0.000,0.000,0.000,0.000,0.2990,0,0
32647,-1.0211,-2.5747,0.2991,-0.0596,-0.0039,-0.0053,-0.37,0.49,-1.53,0,3.394,-2.987,-1.044,5.361,0.002,-0.014,0.000,0.000,0.000,0.000,0.3010,0,1
32698,-1.0234,-2.5742,0.2989,-0.0619,0.0008,-0.0024,-0.46,0.48,-1.30,0,3.394,0.026,2.689,4.577,0.002,-0.010,0.000,0.000,0.000,0.000,0.3020,0,0
32748,-1.0256,-2.5746,0.3008,-0.0643,0.0030,0.0091,-0.45,0.39,-1.09,0,3.399,4.481,-0.690,2.904,0.006,-0.013,0.000,0.000,0.000,0.000,0.2990,0,0
32799,-1.0290,-2.5750,0.3013,-0.0679,0.0053,0.0117,-0.33,0.43,-0.94,0,3.394,2.040,0.287,2.703,0.005,-0.014,0.000,0.000,0.000,0.000,0.2980,0,2
32851,-1.0330,-2.5753,0.2996,-0.0727,0.0068,0.0029,-0.27,0.45,-0.80,0,3.394,2.056,1.827,1.191,-0.000,-0.011,0.000,0.000,0.000,0.000,0.2990,0,1
32902,-1.0365,-2.5750,0.2998,-0.0761,0.0090,0.0051,-0.17,0.42,-0.73,0,3.394,2.394,-0.654,0.412,0.004,-0.014,0.000,0.000,0.000,0.000,0.2980,0,2
32953,-1.0410,-2.5753,0.2990,-0.0810,0.0088,0.0029,-0.06,0.43,-0.69,0,3.394,0.783,-1.277,-0.327,0.005,-0.014,0.000,0.000,0.000,0.000,0.2960,-1,1
33003,-1.0438,-2.5745,0.2992,-0.0815,0.0104,0.0063,-0.09,0.46,-0.68,0,3.389,0.206,-0.901,0.138,0.003,-0.013,0.000,0.000,0.000,0.000,0.2990,0,1
33054,-1.0468,-2.5722,0.2984,-0.0829,0.0150,0.0057,-0.05,0.48,-0.69,0,3.394,2.424,-0.979,0.619,-0.000,-0.015,0.000,0.000,0.000,0.000,0.2990,0,0
33105,-1.0509,-2.5718,0.2988,-0.0865,0.0146,0.0097,0.12,0.46,-0.70,0,3.389,3.213,-0.510,0.554,0.006,-0.015,0.000,0.000,0.000,0.000,0.2990,0,1
33156,-1.0545,-2.5696,0.2993,-0.0884,0.0170,0.0132,0.25,0.48,-0.69,0,3.399,0.509,-0.533,0.459,0.001,-0.011,0.000,0.000,0.000,0.000,0.3010,-1,1
33208,-1.0589,-2.5697,0.3000,-0.0924,0.0128,0.0165,0.34,0.48,-0.68,0,3.394,3.292,1.344,1.014,0.006,-0.012,0.000,0.000,0.000,0.000,0.2970,1,2
33259,-1.0615,-2.5695,0.2996,-0.0916,0.0091,0.0120,0.47,0.39,-0.63,0,3.394,3.057,0.484,2.303,0.005,-0.012,0.000,0.000,0.000,0.000,0.3000,0,0
33309,-1.0670,-2.5696,0.3002,-0.0971,0.0042,0.0135,0.60,0.37,-0.53,0,3.389,-2.263,2.016,3.137,0.005,-0.011,0.000,0.000,0.000,0.000,0.2990,0,1
33361,-1.0718,-2.5695,0.3001,-0.1000,-0.0010,0.0102,0.59,0.29,-0.41,0,3.394,-1.472,0.291,2.279,0.001,-0.014,0.000,0.000,0.000,0.000,0.3010,2,1
33412,-1.0768,-2.5697,0.3006,-0.1024,-0.0059,0.0118,0.50,0.24,-0.29,0,3.389,2.041,-0.561,2.932,-0.000,-0.012,0.000,0.000,0.000,0.000,0.3020,0,2
33462,-1.0809,-2.5712,0.3016,-0.1020,-0.0126,0.0164,0.54,0.28,-0.15,0,3.394,1.959,-2.708,2.112,0.006,-0.011,0.000,0.000,0.000,0.000,0.3040,0,0
33514,-1.0860,-2.5736,0.3025,-0.1044,-0.0213,0.0174,0.58,0.36,-0.01,0,3.394,-2.754,1.785,3.090,0.004,-0.012,0.000,0.000,0.000,0.000,0.3000,0,0
33564,-1.0920,-2.5753,0.3024,-0.1090,-0.0277,0.0115,0.50,0.35,0.13,0,3.394,0.532,-0.313,2.648,0.003,-0.012,0.000,0.000,0.000,0.000,0.3060,3,2
33615,-1.0959,-2.5757,0.3030,-0.1079,-0.0296,0.0095,0.51,0.32,0.27,0,3.394,3.234,-0.759,2.280,0.010,-0.013,0.000,0.000,0.000,0.000,0.3030,0,0
33666,-1.1021,-2.5789,0.3042,-0.1124,-0.0374,0.0121,0.50,0.35,0.43,0,3.399,1.813,-0.973,2.059,0.006,-0.009,0.000,0.000,0.000,0.000,0.3030,0,1
33717,-1.1082,-2.5809,0.3048,-0.1164,-0.0418,0.0130,0.58,0.39,0.53,0,3.389,-3.476,0.287,1.344,0.008,-0.009,0.000,0.000,0.000,0.000,0.3030,0,1
33769,-1.1104,-2.5838,0.3039,-0.1109,-0.0486,0.0049,0.42,0.30,0.60,0,3.399,-0.333,-0.455,0.223,0.003,-0.010,0.000,0.000,0.000,0.000,0.3030,0,2
33819,-1.1143,-2.5847,0.3041,-0.1093,-0.0486,0.0047,0.37,0.28,0.62,0,3.394,1.978,0.473,-0.562,0.004,-0.007,0.000,0.000,0.000,0.000,0.3030,0,1
33871,-1.1205,-2.5864,0.3035,-0.1132,-0.0500,0.0006,0.46,0.28,0.60,0,3.394,0.961,1.322,-1.291,0.004,-0.012,0.000,0.000,0.000,0.000,0.2990,1,2
33921,-1.1242,-2.5890,0.3035,-0.1107,-0.0538,0.0014,0.42,0.21,0.54,0,3.389,-4.040,1.904,0.616,0.006,-0.011,0.000,0.000,0.000,0.000,0.3030,0,2
33973,-1.1286,-2.5925,0.3019,-0.1098,-0.0594,-0.0044,0.45,0.14,0.51,0,3.394,9.201,2.677,0.021,0.008,-0.007,0.000,0.000,0.000,0.000,0.3000,1,1
34023,-1.1320,-2.5958,0.3018,-0.1055,-0.0641,-0.0026,0.73,-0.06,0.55,0,3.389,-5.723,-0.103,1.868,0.009,-0.008,0.000,0.000,0.000,0.000,0.2990,0,1
34074,-1.1362,-2.5970,0.3001,-0.1024,-0.0649,-0.0099,0.65,-0.13,0.60,0,3.389,-5.332,-3.486,-0.000,0.005,-0.007,0.000,0.000,0.000,0.000,0.3000,0,0
34125,-1.1403,-2.6027,0.2996,-0.0989,-0.0765,-0.0092,0.41,0.08,0.60,0,3.389,-1.331,-4.038,-0.965,0.006,-0.009,0.000,0.000,0.000,0.000,0.2990,1,2
34177,-1.1431,-2.6063,0.2993,-0.0941,-0.0793,-0.0055,0.24,0.24,0.56,0,3.389,-5.072,-5.947,-0.908,0.003,-0.007,0.000,0.000,0.000,0.000,0.3000,3,1
34228,-1.1466,-2.6110,0.2991,-0.0932,-0.0832,-0.0013,0.11,0.49,0.49,0,3.384,-9.700,-4.645,-2.460,0.004,-0.008,0.000,0.000,0.000,0.000,0.3010,4,2
34278,-1.1503,-2.6148,0.3002,-0.0949,-0.0831,0.0094,-0.28,0.75,0.37,0,3.394,-5.297,-0.843,-2.140,0.002,-0.008,0.000,0.000,0.000,0.000,0.3010,0,1
34330,-1.1558,-2.6218,0.3008,-0.1027,-0.0878,0.0142,-0.60,0.82,0.24,0,3.389,0.289,0.514,-2.132,0.007,-0.008,0.000,0.000,0.000,0.000,0.3000,0,0
34381,-1.1599,-2.6236,0.3010,-0.1069,-0.0770,0.0148,-0.61,0.78,0.15,0,3.394,-0.345,1.270,-2.026,0.003,-0.007,0.000,0.000,0.000,0.000,0.2970,0,3
34431,-1.1657,-2.6284,0.3018,-0.1142,-0.0745,0.0166,-0.60,0.73,0.05,0,3.389,-0.912,2.092,-1.602,0.003,-0.012,0.000,0.000,0.000,0.000,0.3010,1,1
34483,-1.1713,-2.6297,0.3004,-0.1197,-0.0637,0.0089,-0.65,0.60,-0.01,0,3.389,5.427,-0.746,0.450,0.006,-0.013,0.000,0.000,0.000,0.000,0.3020,0,2
34534,-1.1765,-2.6334,0.3010,-0.1227,-0.0596,0.0123,-0.45,0.57,-0.01,0,3.389,0.177,3.615,0.769,0.003,-0.010,0.000,0.000,0.000,0.000,0.2990,1,2
34585,-1.1819,-2.6331,0.3009,-0.1254,-0.0476,0.0098,-0.45,0.41,0.03,0,3.394,3.025,0.216,1.990,0.006,-0.006,0.000,0.000,0.000,0.000,0.3040,-1,0
34635,-1.1883,-2.6348,0.3014,-0.1293,-0.0425,0.0129,-0.33,0.35,0.14,0,3.389,3.807,0.649,2.546,0.008,-0.010,0.000,0.000,0.000,0.000,0.3020,0,3
34687,-1.1922,-2.6351,0.3029,-0.1261,-0.0354,0.0206,-0.13,0.32,0.25,0,3.394,1.753,0.915,2.363,0.006,-0.005,0.000,0.000,0.000,0.000,0.3020,0,1
34737,-1.1972,-2.6342,0.3041,-0.1254,-0.0278,0.0239,0.09,0.31,0.35,0,3.389,6.820,-1.026,0.707,0.008,-0.007,0.000,0.000,0.000,0.000,0.3040,0,1
34789,-1.2025,-2.6378,0.3041,-0.1257,-0.0340,0.0205,0.37,0.33,0.39,0,3.394,3.775,0.235,0.233,0.004,-0.006,0.000,0.000,0.000,0.000,0.3050,4,3
34839,-1.2082,-2.6358,0.3052,-0.1270,-0.0274,0.0210,0.42,0.37,0.43,0,3.389,1.277,2.807,-1.493,0.006,-0.010,0.000,0.000,0.000,0.000,0.3090,-5,1
34891,-1.2154,-2.6369,0.3073,-0.1320,-0.0294,0.0278,0.39,0.25,0.40,0,3.399,3.408,2.744,-1.197,0.005,-0.007,0.000,0.000,0.000,0.000,0.3100,-4,3
34942,-1.2211,-2.6365,0.3087,-0.1314,-0.0281,0.0276,0.44,0.14,0.38,0,3.394,4.973,-0.812,-1.881,0.004,-0.008,0.000,0.000,0.000,0.000,0.3140,0,1
34993,-1.2278,-2.6401,0.3121,-0.1325,-0.0388,0.0360,0.79,0.12,0.31,0,3.399,-0.321,2.783,-2.328,0.005,-0.011,0.000,0.000,0.000,0.000,0.3110,0,2
35044,-1.2340,-2.6363,0.3138,-0.1324,-0.0303,0.0319,0.73,0.03,0.22,0,3.394,0.989,3.188,-3.722,0.005,-0.007,0.000,0.000,0.000,0.000,0.3110,-1,3
35094,-1.2408,-2.6403,0.3126,-0.1328,-0.0420,0.0128,0.66,-0.11,0.06,0,3.399,1.438,-0.235,-4.297,0.008,-0.004,0.000,0.000,0.000,0.000,0.3090,0,1
35146,-1.2484,-2.6447,0.3131,-0.1346,-0.0538,0.0076,0.67,-0.11,-0.12,0,3.389,-1.014,0.503,-3.515,0.001,-0.004,0.000,0.000,0.000,0.000,0.3100,4,4
35196,-1.2553,-2.6452,0.3107,-0.1341,-0.0536,-0.0104,0.61,-0.11,-0.24,0,3.394,-1.937,3.332,-1.919,0.003,-0.004,0.000,0.000,0.000,0.000,0.3110,-3,3
35247,-1.2632,-2.6504,0.3100,-0.1361,-0.0644,-0.0141,0.45,-0.21,-0.38,0,3.384,-7.565,3.668,-0.545,0.002,-0.004,0.000,0.000,0.000,0.000,0.3090,0,1
35298,-1.2712,-2.6526,0.3095,-0.1371,-0.0653,-0.0152,0.15,-0.42,-0.40,0,3.394,-2.499,-1.075,2.961,0.011,-0.001,0.000,0.000,0.000,0.000,0.3080,0,2
35349,-1.2774,-2.6549,0.3087,-0.1321,-0.0639,-0.0142,-0.11,-0.43,-0.30,0,3.384,-1.842,-1.118,2.161,0.005,-0.008,0.000,0.000,0.000,0.000,0.3090,3,1
35400,-1.2836,-2.6558,0.3082,-0.1278,-0.0572,-0.0112,-0.22,-0.39,-0.17,0,3.394,-2.851,-0.113,3.057,0.008,-0.009,0.000,0.000,0.000,0.000,0.3050,0,1
35452,-1.2896,-2.6576,0.3077,-0.1232,-0.0519,-0.0091,-0.44,-0.40,-0.00,0,3.384,-0.183,0.607,3.880,0.010,-0.006,0.000,0.000,0.000,0.000,0.3040,0,1
35503,-1.2951,-2.6613,0.3051,-0.1187,-0.0517,-0.0178,-0.37,-0.40,0.15,0,3.389,0.670,-2.480,3.986,0.009,-0.006,0.000,0.000,0.000,0.000,0.3030,0,0
35554,-1.3016,-2.6602,0.3042,-0.1166,-0.0392,-0.0160,-0.38,-0.39,0.34,0,3.384,0.851,-2.145,6.197,0.007,-0.008,0.000,0.000,0.000,0.000,0.3000,0,1
35604,-1.3085,-2.6673,0.3016,-0.1168,-0.0492,-0.0232,-0.25,-0.26,0.63,0,3.389,1.497,0.636,4.996,0.007,-0.008,0.000,0.000,0.000,0.000,0.2990,4,1
35656,-1.3144,-2.6686,0.3005,-0.1153,-0.0444,-0.0195,-0.21,-0.21,0.92,0,3.378,4.761,-1.956,5.764,0.004,-0.007,0.000,0.000,0.000,0.000,0.2980,0,1
35707,-1.3186,-2.6717,0.2985,-0.1099,-0.0446,-0.0187,-0.16,-0.21,1.22,0,3.384,-8.473,-2.223,6.784,0.005,-0.006,0.000,0.000,0.000,0.000,0.2980,0,1
35757,-1.3234,-2.6694,0.2978,-0.1061,-0.0316,-0.0119,-0.43,-0.11,1.51,0,3.378,1.539,-0.553,7.006,0.008,-0.008,0.000,0.000,0.000,0.000,0.2990,0,1
35809,-1.3296,-2.6756,0.2981,-0.1083,-0.0392,-0.0007,-0.39,0.00,1.86,0,3.389,1.870,0.972,5.189,0.010,-0.008,0.000,0.000,0.000,0.000,0.2970,0,2
35859,-1.3339,-2.6735,0.2982,-0.1052,-0.0260,0.0044,-0.34,-0.04,2.16,0,3.384,-2.522,-0.086,6.880,0.005,-0.006,0.000,0.000,0.000,0.000,0.2970,-3,1
35911,-1.3397,-2.6790,0.2975,-0.1061,-0.0331,0.0044,-0.42,-0.07,2.51,0,3.389,-3.975,-2.060,4.520,0.004,-0.009,0.000,0.000,0.000,0.000,0.2940,1,2
35961,-1.3453,-2.6811,0.2979,-0.1064,-0.0311,0.0079,-0.46,-0.02,2.75,0,3.378,4.340,-1.281,2.157,0.004,-0.006,0.000,0.000,0.000,0.000,0.2960,0,2
36012,-1.3515,-2.6834,0.2961,-0.1091,-0.0294,0.0004,-0.37,0.03,2.92,0,3.389,-0.832,2.638,1.297,0.007,-0.005,0.000,0.000,0.000,0.000,0.2990,1,2
36064,-1.3570,-2.6868,0.2962,-0.1094,-0.0315,0.0032,-0.41,-0.06,3.04,0,3.384,-1.865,-0.038,2.170,0.011,-0.006,0.000,0.000,0.000,0.000,0.2970,-3,0
36115,-1.3627,-2.6861,0.2975,-0.1096,-0.0222,0.0093,-0.55,-0.09,3.14,0,3.389,1.364,1.506,2.232,0.007,-0.008,0.000,0.000,0.000,0.000,0.2980,4,4
36165,-1.3676,-2.6958,0.2981,-0.1080,-0.0397,0.0118,-0.27,-0.16,3.27,0,3.384,-2.888,2.235,2.930,0.005,-0.006,0.000,0.000,0.000,0.000,0.2980,3,2
36217,-1.3743,-2.6997,0.2984,-0.1100,-0.0418,0.0116,-0.36,-0.27,3.42,0,3.389,-5.930,0.550,2.849,0.008,-0.012,0.000,0.000,0.000,0.000,0.2970,-3,0
36267,-1.3791,-2.7106,0.2990,-0.1067,-0.0607,0.0128,-0.61,-0.37,3.57,0,3.384,-3.580,2.340,1.582,0.006,-0.011,0.000,0.000,0.000,0.000,0.2980,-1,3
36318,-1.3826,-2.7134,0.2984,-0.0997,-0.0547,0.0091,-0.78,-0.42,3.67,0,3.389,-6.351,0.560,1.458,0.006,-0.007,0.000,0.000,0.000,0.000,0.3030,1,2
36369,-1.3888,-2.7151,0.2988,-0.0994,-0.0459,0.0091,-1.05,-0.43,3.75,0,3.384,-3.400,1.985,2.176,0.006,-0.012,0.000,0.000,0.000,0.000,0.3020,1,4
36420,-1.3934,-2.7140,0.3017,-0.0952,-0.0279,0.0213,-1.29,-0.41,3.81,0,3.389,3.100,1.210,1.020,0.004,-0.010,0.000,0.000,0.000,0.000,0.3010,0,1
36471,-1.4016,-2.7177,0.3028,-0.1008,-0.0237,0.0218,-1.29,-0.48,3.89,0,3.384,-0.042,3.859,2.833,0.005,-0.010,0.000,0.000,0.000,0.000,0.2990,8,4
36522,-1.4053,-2.7132,0.3013,-0.0944,0.0008,0.0090,-1.17,-0.51,4.00,0,3.389,2.704,2.377,3.706,0.006,-0.015,0.000,0.000,0.000,0.000,0.3000,-3,0
36574,-1.4121,-2.7218,0.3017,-0.0963,-0.0112,0.0088,-1.06,-0.56,4.20,0,3.378,4.156,2.188,5.212,0.006,-0.015,0.000,0.000,0.000,0.000,0.3000,0,1
36624,-1.4152,-2.7089,0.3007,-0.0875,0.0306,0.0015,-0.94,-0.68,4.42,0,3.389,7.019,0.809,5.382,0.008,-0.016,0.000,0.000,0.000,0.000,0.3020,-2,2
36676,-1.4201,-2.7104,0.3008,-0.0837,0.0310,0.0032,-0.69,-0.80,4.70,0,3.378,9.465,-2.044,4.632,0.004,-0.016,0.000,0.000,0.000,0.000,0.2990,-9,-1
36727,-1.4231,-2.7024,0.3006,-0.0746,0.0524,0.0015,-0.39,-0.80,4.92,0,3.389,6.610,-2.842,3.631,0.006,-0.019,0.000,0.000,0.000,0.000,0.2960,9,4
36777,-1.4270,-2.6961,0.3007,-0.0689,0.0633,0.0029,0.11,-0.65,5.13,0,3.378,3.181,-2.174,3.006,0.005,-0.016,0.000,0.000,0.000,0.000,0.2990,-6,0
36829,-1.4310,-2.6964,0.2986,-0.0650,0.0552,-0.0049,0.22,-0.59,5.25,0,3.384,3.133,-0.205,0.896,0.003,-0.012,0.000,0.000,0.000,0.000,0.2990,0,3
36879,-1.4336,-2.6872,0.2984,-0.0579,0.0688,-0.0018,0.30,-0.46,5.34,0,3.378,1.317,-2.192,1.624,0.003,-0.018,0.000,0.000,0.000,0.000,0.2990,0,1
36931,-1.4390,-2.6883,0.2989,-0.0602,0.0554,0.0043,0.56,-0.34,5.41,0,3.389,-5.816,-2.487,1.870,0.003,-0.010,0.000,0.000,0.000,0.000,0.2990,-8,0
36981,-1.4426,-2.6856,0.2992,-0.0587,0.0510,0.0065,0.41,-0.32,5.43,0,3.378,-3.430,0.782,1.091,0.001,-0.011,0.000,0.000,0.000,0.000,0.2990,9,4
37032,-1.4458,-2.6787,0.2993,-0.0561,0.0582,0.0075,0.37,-0.26,5.50,0,3.389,-0.546,0.137,-0.123,0.003,-0.010,0.000,0.000,0.000,0.000,0.2950,-3,1
37083,-1.4513,-2.6812,0.2997,-0.0605,0.0434,0.0085,0.29,-0.26,5.49,0,3.378,-3.054,3.343,0.624,0.000,-0.013,0.000,0.000,0.000,0.000,0.2990,-2,0
37135,-1.4549,-2.6772,0.2981,-0.0593,0.0458,0.0010,0.12,-0.40,5.50,0,3.384,0.905,1.830,1.334,0.005,-0.013,0.000,0.000,0.000,0.000,0.3000,-1,0
37186,-1.4597,-2.6808,0.2982,-0.0608,0.0307,0.0033,0.12,-0.48,5.59,0,3.378,-5.043,-0.564,1.198,0.006,-0.015,0.000,0.000,0.000,0.000,0.3000,0,1
37236,-1.4620,-2.6754,0.2997,-0.0549,0.0397,0.0117,-0.13,-0.49,5.65,0,3.389,-3.482,3.143,1.197,0.003,-0.011,0.000,0.000,0.000,0.000,0.3000,0,0
37288,-1.4657,-2.6776,0.3004,-0.0533,0.0319,0.0149,-0.32,-0.58,5.74,0,3.378,-1.615,4.175,1.073,0.003,-0.009,0.000,0.000,0.000,0.000,0.2980,0,1
37338,-1.4714,-2.6840,0.2998,-0.0565,0.0163,0.0106,-0.36,-0.72,5.85,0,3.389,-5.996,2.578,1.048,0.001,-0.010,0.000,0.000,0.000,0.000,0.3010,0,1
37389,-1.4735,-2.6909,0.3004,-0.0494,0.0006,0.0109,-0.51,-0.87,5.93,0,3.378,-3.201,0.596,-1.542,0.002,-0.015,0.000,0.000,0.000,0.000,0.3020,0,0
37440,-1.4755,-2.6870,0.3015,-0.0441,0.0139,0.0145,-0.76,-0.86,5.92,0,3.384,-7.252,1.585,-1.667,0.001,-0.012,0.000,0.000,0.000,0.000,0.3000,0,1
37492,-1.4789,-2.6940,0.3022,-0.0408,0.0029,0.0154,-1.06,-0.88,5.82,0,3.378,-5.939,0.911,-3.244,0.003,-0.013,0.000,0.000,0.000,0.000,0.3020,0,0
37542,-1.4814,-2.6889,0.3018,-0.0355,0.0243,0.0106,-1.45,-0.97,5.67,0,3.384,2.338,-0.486,-2.800,0.004,-0.014,0.000,0.000,0.000,0.000,0.2990,0,0
37594,-1.4832,-2.6844,0.3024,-0.0287,0.0443,0.0112,-1.46,-0.93,5.50,0,3.378,7.807,-2.799,-3.865,0.003,-0.017,0.000,0.000,0.000,0.000,0.2990,-1,0
37645,-1.4866,-2.6878,0.3003,-0.0271,0.0434,-0.0001,-1.11,-0.84,5.32,0,3.384,1.933,-2.808,-4.663,0.001,-0.016,0.000,0.000,0.000,0.000,0.3030,0,0
37696,-1.4880,-2.6803,0.3003,-0.0213,0.0658,0.0017,-1.13,-0.71,5.12,0,3.378,1.567,-3.241,-4.417,0.003,-0.005,0.000,0.000,0.000,0.000,0.3010,-1,0
37746,-1.4896,-2.6757,0.3015,-0.0175,0.0784,0.0069,-1.19,-0.56,4.91,0,3.384,8.593,0.246,-6.086,-0.002,-0.012,0.000,0.000,0.000,0.000,0.3010,-6,0
37797,-1.4904,-2.6708,0.3018,-0.0135,0.0906,0.0071,-0.85,-0.47,4.64,0,3.378,10.664,-3.139,-9.181,-0.004,-0.011,0.000,0.000,0.000,0.000,0.2970,-1,0
37849,-1.4915,-2.6668,0.2998,-0.0111,0.0959,-0.0052,-0.39,-0.37,4.24,0,3.378,3.272,-4.248,-9.082,0.002,-0.007,0.000,0.000,0.000,0.000,0.3000,-2,-1
37899,-1.4928,-2.6620,0.2996,-0.0099,0.0996,-0.0039,-0.25,-0.20,3.77,0,3.373,4.756,-1.120,-8.194,-0.001,-0.012,0.000,0.000,0.000,0.000,0.2990,-3,0
37951,-1.4930,-2.6603,0.2994,-0.0079,0.0940,-0.0019,0.02,-0.07,3.35,0,3.384,0.410,3.219,-5.229,0.000,-0.011,0.000,0.000,0.000,0.000,0.2980,-1,0
38001,-1.4945,-2.6526,0.2994,-0.0096,0.1007,0.0013,0.08,-0.12,3.04,0,3.373,5.142,1.090,-3.740,0.003,-0.012,0.000,0.000,0.000,0.000,0.3000,-4,1
38053,-1.4950,-2.6455,0.2993,-0.0087,0.1049,0.0032,0.25,-0.17,2.82,0,3.384,0.734,4.360,-2.632,-0.001,-0.009,0.000,0.000,0.000,0.000,0.2990,-2,0
38104,-1.4963,-2.6341,0.2994,-0.0089,0.1173,0.0044,0.37,-0.37,2.65,0,3.378,5.130,0.117,-3.415,-0.001,-0.010,0.000,0.000,0.000,0.000,0.2970,-7,0
38155,-1.4964,-2.6316,0.2985,-0.0053,0.1067,-0.0003,0.59,-0.44,2.48,0,3.384,2.462,0.646,-2.703,0.005,-0.008,0.000,0.000,0.000,0.000,0.2990,0,0
38206,-1.4970,-2.6220,0.2985,-0.0023,0.1112,0.0005,0.84,-0.37,2.33,0,3.373,0.193,1.697,-2.732,0.004,-0.012,0.000,0.000,0.000,0.000,0.2990,-3,0
38257,-1.4968,-2.6133,0.2989,0.0018,0.1119,0.0025,0.80,-0.49,2.20,0,3.384,0.631,1.345,-2.082,0.005,-0.010,0.000,0.000,0.000,0.000,0.2960,-1,0
38308,-1.4973,-2.6083,0.2990,0.0045,0.1036,0.0040,0.85,-0.54,2.09,0,3.373,0.197,-1.427,-2.206,0.003,-0.012,0.000,0.000,0.000,0.000,0.2970,-9,-1
38359,-1.4982,-2.6089,0.2974,0.0063,0.0836,-0.0040,0.86,-0.48,1.97,0,3.378,-3.315,1.698,-2.706,0.005,-0.012,0.000,0.000,0.000,0.000,0.2940,0,0
38410,-1.4974,-2.5981,0.2972,0.0115,0.0910,-0.0030,0.70,-0.52,1.84,0,3.373,-2.033,3.072,-3.895,0.003,-0.008,0.000,0.000,0.000,0.000,0.2980,0,0
38460,-1.4970,-2.5924,0.2964,0.0155,0.0884,-0.0033,0.60,-0.63,1.63,0,3.378,-0.217,-1.734,-3.977,0.007,-0.010,0.000,0.000,0.000,0.000,0.2920,0,0
38512,-1.4965,-2.5914,0.2963,0.0200,0.0755,-0.0006,0.66,-0.59,1.40,0,3.368,-3.967,0.374,-5.083,0.001,-0.013,0.000,0.000,0.000,0.000,0.2990,1,0
38563,-1.4981,-2.5972,0.2961,0.0187,0.0489,0.0032,0.69,-0.49,1.17,0,3.378,-7.049,0.108,-5.676,-0.001,-0.010,0.000,0.000,0.000,0.000,0.2930,0,0
38613,-1.4973,-2.5977,0.2964,0.0225,0.0370,0.0073,0.34,-0.48,0.90,0,3.368,-5.020,-0.296,-8.133,0.001,-0.011,0.000,0.000,0.000,0.000,0.2950,1,0
38665,-1.4968,-2.6055,0.2950,0.0248,0.0128,0.0031,0.07,-0.46,0.56,0,3.378,-1.514,-0.437,-8.513,-0.002,-0.008,0.000,0.000,0.000,0.000,0.2960,1,0
38715,-1.4969,-2.6099,0.2953,0.0256,0.0013,0.0069,-0.02,-0.44,0.12,0,3.373,-4.573,2.666,-9.038,0.000,-0.010,0.000,0.000,0.000,0.000,0.2940,1,0
38767,-1.4974,-2.6194,0.2952,0.0252,-0.0196,0.0069,-0.17,-0.54,-0.32,0,3.378,-6.972,2.936,-9.864,0.002,-0.006,0.000,0.000,0.000,0.000,0.2960,1,0
38818,-1.4965,-2.6244,0.2956,0.0288,-0.0267,0.0100,-0.44,-0.66,-0.81,0,3.373,-5.310,2.132,-8.963,-0.000,-0.008,0.000,0.000,0.000,0.000,0.2990,8,0
38869,-1.4957,-2.6255,0.2974,0.0330,-0.0226,0.0210,-0.65,-0.77,-1.23,0,3.384,0.539,0.780,-6.379,-0.003,-0.014,0.000,0.000,0.000,0.000,0.2990,0,0
38919,-1.4961,-2.6379,0.2986,0.0350,-0.0402,0.0251,-0.61,-0.83,-1.58,0,3.378,4.647,4.241,-2.741,0.002,-0.007,0.000,0.000,0.000,0.000,0.2980,0,0
38970,-1.4935,-2.6393,0.2992,0.0437,-0.0344,0.0214,-0.37,-1.02,-1.74,0,3.389,4.764,7.208,2.031,-0.001,-0.013,0.000,0.000,0.000,0.000,0.2990,4,1
39022,-1.4880,-2.6352,0.3002,0.0592,-0.0195,0.0188,-0.08,-1.32,-1.67,0,3.378,-0.592,-2.170,3.537,0.000,-0.010,0.000,0.000,0.000,0.000,0.2980,4,0
39073,-1.4815,-2.6211,0.2994,0.0779,0.0126,0.0077,-0.19,-1.35,-1.52,0,3.384,5.732,-11.194,4.862,0.000,-0.009,0.000,0.000,0.000,0.000,0.2970,3,-2
39124,-1.4740,-2.6151,0.2997,0.0966,0.0253,0.0062,-0.10,-1.00,-1.28,0,3.373,7.990,-8.068,5.832,-0.001,-0.014,0.000,0.000,0.000,0.000,0.2950,0,-1
39174,-1.4685,-2.6090,0.2972,0.1065,0.0369,-0.0075,0.12,-0.57,-0.99,0,3.378,5.398,-6.038,7.510,-0.002,-0.011,0.000,0.000,0.000,0.000,0.3000,0,-2
39226,-1.4666,-2.6031,0.2969,0.1042,0.0439,-0.0050,0.37,-0.30,-0.64,0,3.373,8.399,-3.638,6.694,-0.002,-0.011,0.000,0.000,0.000,0.000,0.2990,3,0
39277,-1.4643,-2.6092,0.2986,0.1006,0.0245,0.0074,0.87,-0.12,-0.25,0,3.378,-2.366,-0.542,5.892,-0.002,-0.009,0.000,0.000,0.000,0.000,0.2990,1,-2
39328,-1.4582,-2.6028,0.2990,0.1042,0.0291,0.0089,0.70,-0.09,0.07,0,3.373,-7.936,-3.341,6.602,0.000,-0.009,0.000,0.000,0.000,0.000,0.2990,1,-2
39378,-1.4577,-2.6100,0.2993,0.0949,0.0060,0.0104,0.48,0.10,0.40,0,3.378,-2.272,1.304,5.992,0.000,-0.010,0.000,0.000,0.000,0.000,0.2990,0,0
39429,-1.4557,-2.6161,0.2999,0.0882,-0.0112,0.0141,0.44,0.12,0.68,0,3.373,-1.286,6.496,3.751,-0.002,-0.008,0.000,0.000,0.000,0.000,0.2990,4,0
39480,-1.4494,-2.6124,0.2997,0.0916,-0.0055,0.0112,0.27,-0.19,0.90,0,3.384,-2.496,1.599,4.705,-0.002,0.000,0.000,0.000,0.000,0.000,0.2990,5,0
39531,-1.4455,-2.6152,0.3003,0.0918,-0.0126,0.0141,0.19,-0.26,1.11,0,3.373,-3.931,-1.401,3.986,-0.003,-0.008,0.000,0.000,0.000,0.000,0.2980,0,0
39582,-1.4449,-2.6262,0.2994,0.0854,-0.0358,0.0071,0.13,-0.21,1.27,0,3.378,-7.111,1.107,6.473,0.001,-0.010,0.000,0.000,0.000,0.000,0.2970,3,0
39633,-1.4386,-2.6209,0.2997,0.0914,-0.0210,0.0071,-0.30,-0.22,1.56,0,3.373,-1.516,1.536,6.460,-0.004,-0.005,0.000,0.000,0.000,0.000,0.2980,2,0
39684,-1.4376,-2.6289,0.2984,0.0853,-0.0331,0.0010,-0.43,-0.24,1.88,0,3.378,2.989,-0.824,6.069,-0.001,-0.002,0.000,0.000,0.000,0.000,0.2970,0,0
39736,-1.4318,-2.6268,0.2985,0.0906,-0.0204,0.0038,-0.44,-0.18,2.28,0,3.373,-1.044,1.344,5.006,-0.004,-0.005,0.000,0.000,0.000,0.000,0.2990,0,-1
39787,-1.4289,-2.6338,0.2984,0.0886,-0.0306,0.0043,-0.41,-0.25,2.48,0,3.378,4.418,-0.505,3.793,0.000,-0.008,0.000,0.000,0.000,0.000,0.2950,5,0
39838,-1.4262,-2.6377,0.2986,0.0869,-0.0326,0.0063,-0.14,-0.32,2.74,0,3.373,-5.844,5.129,5.069,0.001,-0.006,0.000,0.000,0.000,0.000,0.2950,0,-1
39890,-1.4241,-2.6449,0.2962,0.0846,-0.0429,-0.0065,-0.38,-0.39,2.98,0,3.373,-2.509,2.467,3.189,-0.001,0.000,0.000,0.000,0.000,0.000,0.2960,0,0
39941,-1.4193,-2.6435,0.2959,0.0891,-0.0315,-0.0054,-0.61,-0.48,3.13,0,3.368,2.199,2.861,-0.122,-0.002,-0.001,0.000,0.000,0.000,0.000,0.2990,2,-1
39991,-1.4168,-2.6525,0.2971,0.0882,-0.0444,0.0042,-0.36,-0.50,3.14,0,3.378,-6.878,-5.143,-0.726,-0.001,-0.007,0.000,0.000,0.000,0.000,0.2980,5,0
