time_ms,pos_x,pos_y,pos_z,vel_x,vel_y,vel_z,roll,pitch,yaw,thrust,vbat,gyro_x,gyro_y,gyro_z,acc_x,acc_y,acc_z,rate_roll,rate_pitch,rate_yaw,range_z,flow_dx,flow_dy,mekf_roll,mekf_pitch,mekf_yaw,mekf_x,mekf_y,mekf_z,our_ref_x,our_ref_y,our_ref_z,our_thrust,our_roll_cmd,our_pitch_cmd,our_yaw_rate_cmd,multi_front,multi_back,multi_left,multi_right,multi_up,ai_feat_count
0,0.4497,1.3662,0.0056,-0.0022,-0.0004,-0.0005,0.30,0.90,-79.27,0,3.922,-0.183,0.069,0.204,0.014,0.007,1.001,0.000,0.000,0.000,0.0060,-21,-2,0.00,0.00,0.00,0.0000,0.0000,0.0000,0.0000,0.0000,0.0000,0.0000,0.00,0.00,0.00,1.0190,0.2000,0.0000,0.1290,2.6920,0
100,0.4508,1.3662,0.0059,0.0033,-0.0006,0.0009,0.14,0.83,-78.90,0,3.927,-0.120,-0.218,0.032,0.015,0.006,0.999,0.000,0.000,0.000,0.0070,4,-9,0.00,0.00,0.00,0.0000,0.0000,0.0000,0.0000,0.0000,0.0000,0.0000,0.00,0.00,0.00,1.0190,0.2000,1.2350,0.1320,2.6910,0
202,0.4485,1.3666,0.0062,-0.0102,0.0013,0.0024,0.47,0.81,-78.55,0,3.922,0.240,-0.038,-0.228,0.014,0.005,0.998,0.000,0.000,0.000,0.0070,2,-2,0.00,0.00,0.00,0.0000,0.0000,0.0000,0.0000,0.0000,0.0000,0.0000,0.00,0.00,0.00,1.0160,0.1990,1.2350,0.1320,2.6910,0
303,0.4489,1.3660,0.0068,-0.0055,-0.0014,0.0040,0.41,0.85,-78.19,0,3.927,-0.050,0.020,-0.321,0.019,0.009,0.996,0.000,0.000,0.000,0.0060,14,-2,0.00,0.00,0.00,0.0000,0.0000,0.0000,0.0000,0.0000,0.0000,0.0000,0.00,0.00,0.00,1.0160,0.1990,1.2350,0.1300,2.6930,0
404,0.4509,1.3662,0.0071,0.0074,0.0000,0.0035,0.43,0.84,-77.84,0,3.922,0.126,-0.164,-0.222,0.015,0.009,1.000,0.000,0.000,0.000,0.0060,4,-3,0.00,0.00,0.00,0.0000,0.0000,0.0000,0.0000,0.0000,0.0000,0.0000,0.00,0.00,0.00,1.0180,0.1970,1.2350,0.1300,2.6930,0
504,0.4493,1.3661,0.0067,0.0006,-0.0005,0.0007,0.38,0.84,-77.48,0,3.927,0.107,0.206,-0.216,0.016,0.007,0.999,0.000,0.000,0.000,0.0040,0,-1,0.00,0.00,0.00,0.0000,0.0000,0.0000,0.0000,0.0000,0.0000,0.0000,0.00,0.00,0.00,1.0180,0.1970,1.2310,0.1300,2.6930,0
606,0.4498,1.3649,0.0065,0.0045,-0.0073,-0.0007,0.32,0.81,-77.12,0,3.922,-0.088,0.220,-0.315,0.017,0.006,1.002,0.000,0.000,0.000,0.0070,1,2,0.00,0.00,0.00,0.0000,0.0000,0.0000,0.0000,0.0000,0.0000,0.0000,0.00,0.00,0.00,1.0150,0.1950,1.2310,0.1300,2.6930,0
707,0.4495,1.3663,0.0052,0.0035,0.0014,-0.0061,0.32,0.90,-76.77,0,3.922,-0.115,-0.015,0.397,0.017,0.006,0.999,0.000,0.000,0.000,0.0070,23,0,0.00,0.00,0.00,0.0000,0.0000,0.0000,0.0000,0.0000,0.0000,0.0000,0.00,0.00,0.00,1.0150,0.1950,1.2310,0.1300,2.6930,0
808,0.4491,1.3660,0.0058,0.0021,-0.0004,-0.0025,0.54,0.87,-76.42,0,3.922,-0.013,0.142,-0.153,0.017,0.009,1.001,0.000,0.000,0.000,0.0050,-4,-5,0.00,0.00,0.00,0.0000,0.0000,0.0000,0.0000,0.0000,0.0000,0.0000,0.00,0.00,0.00,1.0190,0.2000,1.2310,0.1300,2.6930,0
909,0.4419,1.3660,0.0063,-0.0315,-0.0008,-0.0003,0.52,0.88,-76.07,0,3.938,-0.115,0.089,-0.130,0.015,0.007,0.998,0.000,0.000,0.000,0.0060,-15,-1,0.00,0.00,0.00,0.0000,0.0000,0.0000,0.0000,0.0000,0.0000,0.0000,0.00,0.00,0.00,1.0190,0.2000,1.2240,0.1300,2.6950,0
1010,0.4412,1.3654,0.0057,-0.0291,-0.0038,-0.0034,0.40,0.89,-75.72,0,3.933,-0.156,-0.049,0.031,0.013,0.008,1.001,0.000,0.000,0.000,0.0060,3,-1,0.00,0.00,0.00,0.0000,0.0000,0.0000,0.0000,0.0000,0.0000,0.0000,0.00,0.00,0.00,1.0130,0.2020,1.2240,0.1300,2.6950,0
1111,0.4430,1.3656,0.0058,-0.0144,-0.0023,-0.0026,0.44,0.87,-75.38,0,3.927,-0.084,-0.055,0.043,0.016,0.008,0.998,0.000,0.000,0.000,0.0090,-11,-4,0.00,0.00,0.00,0.0000,0.0000,0.0000,0.0000,0.0000,0.0000,0.0000,0.00,0.00,0.00,1.0130,0.2020,1.2280,0.1300,2.6920,0
1212,0.4413,1.3648,0.0058,-0.0189,-0.0065,-0.0026,0.34,0.82,-75.03,0,3.922,-0.116,-0.130,-0.432,0.016,0.008,1.000,0.000,0.000,0.000,0.0050,0,-3,0.00,0.00,0.00,0.0000,0.0000,0.0000,0.0000,0.0000,0.0000,0.0000,0.00,0.00,0.00,1.0140,0.1990,1.2280,0.1300,2.6920,0
1313,0.4414,1.3659,0.0074,-0.0145,0.0005,0.0045,0.39,0.87,-74.69,0,3.927,0.169,-0.271,0.034,0.017,0.008,0.999,0.000,0.000,0.000,0.0080,0,2,0.00,0.00,0.00,0.0000,0.0000,0.0000,0.0000,0.0000,0.0000,0.0000,0.00,0.00,0.00,1.0140,0.1990,1.2310,0.1310,2.6940,0
1414,0.4427,1.3654,0.0065,-0.0030,-0.0019,-0.0003,0.31,0.88,-74.34,0,3.922,-0.155,-0.004,-0.021,0.017,0.005,1.000,0.000,0.000,0.000,0.0070,3,-1,0.00,0.00,0.00,0.0000,0.0000,0.0000,0.0000,0.0000,0.0000,0.0000,0.00,0.00,0.00,1.0160,0.2010,1.2310,0.1310,2.6940,0
1515,0.4419,1.3660,0.0073,-0.0057,0.0017,0.0028,0.35,0.88,-74.00,0,3.927,0.130,-0.189,-0.387,0.016,0.006,0.997,0.000,0.000,0.000,0.0050,-1,0,0.00,0.00,0.00,0.0000,0.0000,0.0000,0.0000,0.0000,0.0000,0.0000,0.00,0.00,0.00,1.0160,0.2010,1.2340,0.1290,2.6940,0
1566,0.4427,1.3654,0.0073,0.0009,-0.0024,0.0023,0.27,0.85,-73.67,0,3.922,0.141,0.372,-0.044,0.017,0.008,1.001,0.000,0.000,0.000,0.0090,2,1,0.00,0.00,0.00,0.0000,0.0000,0.0000,0.0000,0.0000,0.0000,0.0000,0.00,0.00,0.00,1.0210,0.1990,1.2340,0.1290,2.6940,0
1616,0.4413,1.3658,0.0062,-0.0057,0.0005,-0.0029,0.35,0.89,-73.33,0,3.933,0.312,-0.015,-0.327,0.016,0.008,0.999,0.000,0.000,0.000,0.0110,-4,-6,0.00,0.00,0.00,0.0000,0.0000,0.0000,0.0000,0.0000,0.0000,0.0000,0.00,0.00,0.00,1.0210,0.1990,1.2280,0.1290,2.6920,0
1668,0.4422,1.3662,0.0075,0.0014,0.0021,0.0034,0.24,0.81,-73.00,0,3.933,0.187,0.136,-0.009,0.013,0.006,1.000,0.000,0.000,0.000,0.0070,-9,-3,0.00,0.00,0.00,0.0000,0.0000,0.0000,0.0000,0.0000,0.0000,0.0000,0.00,0.00,0.00,1.0110,0.1990,1.2280,0.1290,2.6920,0
1718,0.4411,1.3654,0.0095,-0.0041,-0.0018,0.0112,0.24,0.82,-72.66,0,3.922,-0.017,0.231,-0.383,0.016,0.006,0.996,0.000,0.000,0.000,0.0040,-10,-6,0.00,0.00,0.00,0.0000,0.0000,0.0000,0.0000,0.0000,0.0000,0.0000,0.00,0.00,0.00,1.0110,0.1990,1.2310,0.1330,2.6980,0
1770,0.4410,1.3653,0.0089,-0.0044,-0.0020,0.0056,0.24,0.79,-72.33,0,3.922,-0.039,-0.001,-0.269,0.016,0.006,1.001,0.000,0.000,0.000,0.0090,8,-3,0.00,0.00,0.00,0.0000,0.0000,0.0000,0.0000,0.0000,0.0000,0.0000,0.00,0.00,0.00,1.0160,0.1990,1.2310,0.1330,2.6980,0
1821,0.4428,1.3658,0.0066,0.0067,0.0014,-0.0055,0.32,0.82,-72.06,0,3.927,-0.308,-0.010,-0.044,0.014,0.008,0.999,0.000,0.000,0.000,0.0050,-7,-5,0.00,0.00,0.00,0.0000,0.0000,0.0000,0.0000,0.0000,0.0000,0.0000,0.00,0.00,0.00,1.0160,0.1990,1.2310,0.1310,2.6930,0
1872,0.4432,1.3664,0.0076,0.0101,0.0045,-0.0004,0.16,0.82,-71.66,0,3.922,0.229,-0.205,-0.264,0.015,0.010,0.999,0.000,0.000,0.000,0.0070,-9,-5,0.00,0.00,0.00,0.0000,0.0000,0.0000,0.0000,0.0000,0.0000,0.0000,0.00,0.00,0.00,1.0160,0.1940,1.2310,0.1310,2.6930,0
1924,0.4440,1.3692,0.0063,0.0118,0.0180,-0.0065,0.11,0.91,-71.33,0,3.927,-0.158,0.036,-0.165,0.017,0.007,0.995,0.000,0.000,0.000,0.0090,-14,-1,0.00,0.00,0.00,0.0000,0.0000,0.0000,0.0000,0.0000,0.0000,0.0000,0.00,0.00,0.00,1.0160,0.1940,1.2290,0.1300,2.6960,0
1975,0.4450,1.3697,0.0064,0.0149,0.0167,-0.0058,0.06,0.92,-71.00,0,3.922,0.164,0.065,-0.038,0.017,0.008,0.999,0.000,0.000,0.000,0.0080,-20,-3,0.00,0.00,0.00,0.0000,0.0000,0.0000,0.0000,0.0000,0.0000,0.0000,0.00,0.00,0.00,1.0150,0.2000,1.2290,0.1300,2.6960,0
2026,0.4449,1.3699,0.0076,0.0105,0.0135,0.0005,0.06,0.89,-70.67,0,3.927,0.131,-0.031,0.042,0.015,0.007,0.997,0.000,0.000,0.000,0.0070,-15,0,0.00,0.00,0.00,0.0000,0.0000,0.0000,0.0000,0.0000,0.0000,0.0000,0.00,0.00,0.00,1.0150,0.2000,1.2320,0.1290,2.6930,0
2077,0.4469,1.3706,0.0080,0.0183,0.0141,0.0019,0.07,0.90,-70.41,0,3.922,-0.165,-0.208,0.136,0.016,0.008,1.000,0.000,0.000,0.000,0.0090,-8,-5,0.00,0.00,0.00,0.0000,0.0000,0.0000,0.0000,0.0000,0.0000,0.0000,0.00,0.00,0.00,1.0160,0.1920,1.2320,0.1290,2.6930,0
2128,0.4463,1.3711,0.0077,0.0116,0.0133,-0.0004,0.20,0.86,-70.09,0,3.927,0.043,0.370,0.082,0.018,0.008,0.997,0.000,0.000,0.000,0.0050,9,5,0.00,0.00,0.00,0.0000,0.0000,0.0000,0.0000,0.0000,0.0000,0.0000,0.00,0.00,0.00,1.0160,0.1920,1.2320,0.1250,2.6940,0
2180,0.4480,1.3706,0.0084,0.0181,0.0074,0.0022,0.34,0.89,-69.77,0,3.933,0.140,-0.053,0.100,0.014,0.008,1.000,0.000,0.000,0.000,0.0090,-16,8,0.00,0.00,0.00,0.0000,0.0000,0.0000,0.0000,0.0000,0.0000,0.0000,0.00,0.00,0.00,1.0140,0.2040,1.2320,0.1250,2.6940,0
2230,0.4420,1.3705,0.0068,-0.0144,0.0056,-0.0054,0.34,0.99,-69.45,0,3.927,-0.043,0.060,-0.072,0.017,0.008,0.998,0.000,0.000,0.000,0.0070,0,0,0.00,0.00,0.00,0.0000,0.0000,0.0000,0.0000,0.0000,0.0000,0.0000,0.00,0.00,0.00,1.0140,0.2040,1.2310,0.1320,2.6930,0
2282,0.4460,1.3752,0.0077,0.0084,0.0260,-0.0014,0.26,1.00,-69.13,0,3.922,-0.235,0.045,0.043,0.015,0.009,1.002,0.000,0.000,0.000,0.0060,-25,-5,0.00,0.00,0.00,0.0000,0.0000,0.0000,0.0000,0.0000,0.0000,0.0000,0.00,0.00,0.00,1.0160,0.1920,1.2310,0.1320,2.6930,0
2332,0.4460,1.3758,0.0073,0.0069,0.0234,-0.0024,0.06,0.92,-68.80,0,3.922,-0.008,0.190,0.087,0.017,0.007,0.995,0.000,0.000,0.000,0.0090,-4,0,0.00,0.00,0.00,0.0000,0.0000,0.0000,0.0000,0.0000,0.0000,0.0000,0.00,0.00,0.00,1.0160,0.1920,1.2300,0.1330,2.6950,0
2384,0.4536,1.3781,0.0065,0.0435,0.0302,-0.0062,-0.00,0.91,-68.48,0,3.922,0.052,0.133,-0.200,0.016,0.007,0.999,0.000,0.000,0.000,0.0060,-8,-4,0.00,0.00,0.00,0.0000,0.0000,0.0000,0.0000,0.0000,0.0000,0.0000,0.00,0.00,0.00,1.0190,0.1940,1.2300,0.1330,2.6950,0
2435,0.4523,1.3780,0.0078,0.0281,0.0232,0.0003,0.11,0.86,-68.17,0,3.922,-0.190,-0.257,0.054,0.016,0.006,0.998,0.000,0.000,0.000,0.0070,0,0,0.00,0.00,0.00,0.0000,0.0000,0.0000,0.0000,0.0000,0.0000,0.0000,0.00,0.00,0.00,1.0190,0.1940,1.2320,0.1300,2.6950,0
2486,0.4525,1.3772,0.0070,0.0223,0.0131,-0.0037,0.25,0.84,-67.86,0,3.922,-0.078,0.287,-0.028,0.019,0.010,1.000,0.000,0.000,0.000,0.0090,14,-1,0.00,0.00,0.00,0.0000,0.0000,0.0000,0.0000,0.0000,0.0000,0.0000,0.00,0.00,0.00,1.0150,0.2020,1.2320,0.1300,2.6950,0
2537,0.4545,1.3780,0.0068,0.0292,0.0140,-0.0039,0.35,0.81,-67.54,0,3.927,-0.085,0.116,0.244,0.015,0.008,0.997,0.000,0.000,0.000,0.0060,3,0,0.00,0.00,0.00,0.0000,0.0000,0.0000,0.0000,0.0000,0.0000,0.0000,0.00,0.00,0.00,1.0150,0.2020,1.2350,0.1280,2.6880,0
2588,0.4545,1.3781,0.0079,0.0252,0.0109,0.0009,0.29,0.81,-67.22,0,3.922,-0.025,0.215,-0.204,0.016,0.008,0.999,0.000,0.000,0.000,0.0070,0,-2,0.00,0.00,0.00,0.0000,0.0000,0.0000,0.0000,0.0000,0.0000,0.0000,0.00,0.00,0.00,1.0210,0.2030,1.2350,0.1280,2.6880,0
2638,0.4524,1.3781,0.0070,0.0107,0.0082,-0.0030,0.38,0.82,-66.91,0,3.922,-0.124,0.083,-0.103,0.015,0.007,1.000,0.000,0.000,0.000,0.0050,-17,0,0.00,0.00,0.00,0.0000,0.0000,0.0000,0.0000,0.0000,0.0000,0.0000,0.00,0.00,0.00,1.0210,0.2030,1.2300,0.1330,2.6920,0
2690,0.4573,1.3799,0.0067,0.0343,0.0159,-0.0039,0.03,0.82,-66.61,0,3.933,0.163,-0.153,-0.468,0.015,0.007,0.998,0.000,0.000,0.000,0.0060,28,5,0.00,0.00,0.00,0.0000,0.0000,0.0000,0.0000,0.0000,0.0000,0.0000,0.00,0.00,0.00,1.0190,0.1970,1.2300,0.1330,2.6920,0
2742,0.4606,1.3822,0.0057,0.0423,0.0232,-0.0076,0.40,0.90,-66.29,0,3.933,-0.037,-0.026,-0.065,0.016,0.007,0.998,0.000,0.000,0.000,0.0060,26,3,0.00,0.00,0.00,0.0000,0.0000,0.0000,0.0000,0.0000,0.0000,0.0000,0.00,0.00,0.00,1.0190,0.1970,1.2300,0.1280,2.6940,0
2793,0.4549,1.3812,0.0059,0.0066,0.0132,-0.0050,0.65,0.91,-65.98,0,3.933,0.129,0.190,-0.156,0.016,0.007,1.002,0.000,0.000,0.000,0.0060,15,-5,0.00,0.00,0.00,0.0000,0.0000,0.0000,0.0000,0.0000,0.0000,0.0000,0.00,0.00,0.00,1.0110,0.1990,1.2300,0.1280,2.6940,0
2844,0.4527,1.3807,0.0061,-0.0025,0.0079,-0.0025,0.61,0.82,-65.68,0,3.938,-0.163,0.154,0.289,0.015,0.005,0.998,0.000,0.000,0.000,0.0070,4,0,0.00,0.00,0.00,0.0000,0.0000,0.0000,0.0000,0.0000,0.0000,0.0000,0.00,0.00,0.00,1.0110,0.1990,1.2320,0.1310,2.6970,0
2896,0.4507,1.3795,0.0060,-0.0114,0.0004,-0.0030,0.56,0.84,-65.37,0,3.917,0.071,-0.020,-0.060,0.016,0.007,0.997,0.000,0.000,0.000,0.0080,-10,0,0.00,0.00,0.00,0.0000,0.0000,0.0000,0.0000,0.0000,0.0000,0.0000,0.00,0.00,0.00,1.0180,0.1970,1.2320,0.1310,2.6970,0
2947,0.4489,1.3790,0.0063,-0.0175,-0.0036,-0.0019,0.47,0.84,-65.06,0,3.922,-0.155,-0.134,-0.041,0.017,0.004,1.000,0.000,0.000,0.000,0.0080,16,-2,0.00,0.00,0.00,0.0000,0.0000,0.0000,0.0000,0.0000,0.0000,0.0000,0.00,0.00,0.00,1.0180,0.1970,1.2300,0.1290,2.6940,0
2998,0.4523,1.3792,0.0072,0.0031,-0.0033,0.0023,0.55,0.76,-64.76,0,3.922,-0.187,0.068,-0.162,0.014,0.006,0.999,0.000,0.000,0.000,0.0060,17,-7,0.00,0.00,0.00,0.0000,0.0000,0.0000,0.0000,0.0000,0.0000,0.0000,0.00,0.00,0.00,1.0160,0.2060,1.2300,0.1290,2.6940,0
3049,0.4485,1.3774,0.0078,-0.0147,-0.0116,0.0035,0.69,0.72,-64.46,0,3.922,-0.284,0.336,0.068,0.016,0.009,0.998,0.000,0.000,0.000,0.0100,15,-4,0.00,0.00,0.00,0.0000,0.0000,0.0000,0.0000,0.0000,0.0000,0.0000,0.00,0.00,0.00,1.0160,0.2060,1.2280,0.1290,2.6950,0
3100,0.4453,1.3761,0.0071,-0.0261,-0.0151,-0.0006,0.73,0.77,-64.16,0,3.922,-0.035,-0.261,-0.122,0.017,0.008,0.999,0.000,0.000,0.000,0.0060,20,-4,0.00,0.00,0.00,0.0000,0.0000,0.0000,0.0000,0.0000,0.0000,0.0000,0.00,0.00,0.00,1.0150,0.2050,1.2280,0.1290,2.6950,0
3151,0.4460,1.3767,0.0088,-0.0147,-0.0085,0.0065,0.66,0.78,-63.86,0,3.922,-0.005,-0.331,-0.180,0.017,0.009,0.996,0.000,0.000,0.000,0.0050,1,0,0.00,0.00,0.00,0.0000,0.0000,0.0000,0.0000,0.0000,0.0000,0.0000,0.00,0.00,0.00,1.0150,0.2050,1.2290,0.1320,2.6930,0
3202,0.4448,1.3740,0.0078,-0.0148,-0.0203,0.0003,0.52,0.75,-63.56,0,3.922,-0.182,-0.122,0.200,0.014,0.007,0.998,0.000,0.000,0.000,0.0080,-4,-1,0.00,0.00,0.00,0.0000,0.0000,0.0000,0.0000,0.0000,0.0000,0.0000,0.00,0.00,0.00,1.0150,0.1960,1.2290,0.1320,2.6930,0
3253,0.4392,1.3716,0.0063,-0.0426,-0.0305,-0.0075,0.68,0.77,-63.26,0,3.922,-0.255,0.001,0.009,0.017,0.008,0.998,0.000,0.000,0.000,0.0070,2,4,0.00,0.00,0.00,0.0000,0.0000,0.0000,0.0000,0.0000,0.0000,0.0000,0.00,0.00,0.00,1.0150,0.1960,1.2280,0.1300,2.6930,0
3304,0.4391,1.3707,0.0069,-0.0338,-0.0305,-0.0035,0.65,0.80,-62.96,0,3.922,-0.011,-0.221,-0.172,0.018,0.007,0.999,0.000,0.000,0.000,0.0080,8,-3,0.00,0.00,0.00,0.0000,0.0000,0.0000,0.0000,0.0000,0.0000,0.0000,0.00,0.00,0.00,1.0150,0.2080,1.2280,0.1300,2.6930,0
3356,0.4392,1.3712,0.0069,-0.0257,-0.0217,-0.0031,0.61,0.76,-62.67,0,3.922,-0.224,0.101,0.003,0.017,0.007,0.999,0.000,0.000,0.000,0.0050,-6,1,0.00,0.00,0.00,0.0000,0.0000,0.0000,0.0000,0.0000,0.0000,0.0000,0.00,0.00,0.00,1.0150,0.2080,1.2340,0.1300,2.6920,0
3408,0.4390,1.3724,0.0075,-0.0213,-0.0110,-0.0003,0.39,0.86,-62.38,0,3.922,0.042,0.143,-0.165,0.018,0.006,0.997,0.000,0.000,0.000,0.0080,-7,0,0.00,0.00,0.00,0.0000,0.0000,0.0000,0.0000,0.0000,0.0000,0.0000,0.00,0.00,0.00,1.0150,0.1990,1.2340,0.1300,2.6920,0
3459,0.4382,1.3708,0.0062,-0.0205,-0.0170,-0.0058,0.39,0.81,-62.08,0,3.922,-0.092,-0.145,-0.108,0.016,0.007,0.997,0.000,0.000,0.000,0.0060,-7,0,0.00,0.00,0.00,0.0000,0.0000,0.0000,0.0000,0.0000,0.0000,0.0000,0.00,0.00,0.00,1.0150,0.1990,1.2340,0.1310,2.6970,0
3511,0.4385,1.3711,0.0069,-0.0141,-0.0127,-0.0017,0.32,0.82,-61.79,0,3.917,0.136,-0.362,-0.033,0.016,0.006,1.000,0.000,0.000,0.000,0.0080,11,-5,0.00,0.00,0.00,0.0000,0.0000,0.0000,0.0000,0.0000,0.0000,0.0000,0.00,0.00,0.00,1.0200,0.2040,1.2340,0.1310,2.6970,0
3561,0.4407,1.3721,0.0065,0.0003,-0.0055,-0.0032,0.37,0.77,-61.50,0,3.922,0.068,0.143,-0.129,0.017,0.005,0.999,0.000,0.000,0.000,0.0060,-29,-5,0.00,0.00,0.00,0.0000,0.0000,0.0000,0.0000,0.0000,0.0000,0.0000,0.00,0.00,0.00,1.0200,0.2040,1.2290,0.1280,2.6910,0
3613,0.4388,1.3700,0.0071,-0.0077,-0.0140,-0.0002,0.06,0.74,-61.21,0,3.922,0.114,-0.070,0.055,0.014,0.008,0.999,0.000,0.000,0.000,0.0060,-16,-4,0.00,0.00,0.00,0.0000,0.0000,0.0000,0.0000,0.0000,0.0000,0.0000,0.00,0.00,0.00,1.0180,0.2000,1.2290,0.1280,2.6910,0
3664,0.4461,1.3731,0.0068,0.0301,0.0038,-0.0013,-0.12,0.74,-60.92,0,3.922,-0.166,-0.257,-0.062,0.016,0.008,0.998,0.000,0.000,0.000,0.0040,2,-7,0.00,0.00,0.00,0.0000,0.0000,0.0000,0.0000,0.0000,0.0000,0.0000,0.00,0.00,0.00,1.0180,0.2000,1.2270,0.1330,2.6900,0
3714,0.4529,1.3777,0.0060,0.0572,0.0265,-0.0053,-0.17,0.77,-60.63,0,3.922,0.187,0.334,-0.034,0.015,0.007,0.998,0.000,0.000,0.000,0.0100,-20,0,0.00,0.00,0.00,0.0000,0.0000,0.0000,0.0000,0.0000,0.0000,0.0000,0.00,0.00,0.00,1.0200,0.1980,1.2270,0.1330,2.6900,0
3765,0.4528,1.3774,0.0050,0.0466,0.0202,-0.0086,-0.25,0.83,-60.35,0,3.922,-0.120,-0.111,-0.306,0.016,0.004,1.001,0.000,0.000,0.000,0.0050,-11,5,0.00,0.00,0.00,0.0000,0.0000,0.0000,0.0000,0.0000,0.0000,0.0000,0.00,0.00,0.00,1.0200,0.1980,1.2280,0.1310,2.6870,0
3817,0.4583,1.3793,0.0072,0.0651,0.0245,0.0022,-0.26,0.84,-60.08,0,3.917,0.317,0.156,-0.260,0.017,0.004,0.998,0.000,0.000,0.000,0.0030,1,-4,0.00,0.00,0.00,0.0000,0.0000,0.0000,0.0000,0.0000,0.0000,0.0000,0.00,0.00,0.00,1.0200,0.2000,1.2280,0.1310,2.6870,0
3868,-0.0000,0.0000,0.2884,-0.0035,0.0000,-0.0000,0.01,-0.03,-0.00,0,3.922,-0.039,0.199,0.052,0.015,0.008,1.000,0.000,0.000,0.000,0.0060,-7,-1,0.00,0.00,0.00,0.0000,0.0000,0.0000,0.0000,0.0000,0.0000,0.0000,0.00,0.00,0.00,1.0200,0.2000,1.2340,0.1310,2.6920,0
3919,0.0002,-0.0001,0.0030,0.0071,-0.0008,-0.0003,-0.13,-0.00,-0.01,0,3.922,0.263,0.095,-0.260,0.016,0.009,0.998,0.000,0.000,0.000,0.0050,0,0,0.00,0.00,0.00,0.0000,0.0000,0.0000,0.0000,0.0000,0.0000,0.0000,0.00,0.00,0.00,1.0140,0.2010,1.2340,0.1310,2.6920,0
3971,0.0002,0.0003,0.0046,0.0082,0.0056,0.0005,0.06,0.20,-0.01,0,3.922,-0.008,0.008,-0.122,0.017,0.007,0.996,0.000,0.000,0.000,0.0050,-11,-2,0.00,0.00,0.00,0.0000,0.0000,0.0000,0.0000,0.0000,0.0000,0.0000,0.00,0.00,0.00,1.0140,0.2010,1.2320,0.1310,2.6870,0
4022,0.0009,-0.0009,0.0048,0.0159,-0.0093,0.0006,-0.07,0.11,-0.01,0,3.922,0.069,0.187,-0.000,0.015,0.010,0.998,0.000,0.000,0.000,0.0090,-13,2,0.00,0.00,0.00,0.0000,0.0000,0.0000,0.0000,0.0000,0.0000,0.0000,0.00,0.00,0.00,1.0150,0.1970,1.2320,0.1310,2.6870,0
4074,0.0004,-0.0004,0.0050,0.0077,-0.0013,0.0007,-0.28,0.63,-0.01,0,3.922,0.180,0.105,0.019,0.018,0.006,1.000,0.000,0.000,0.000,0.0050,0,-9,0.00,0.00,0.00,0.0000,0.0000,0.0000,0.0000,0.0000,0.0000,0.0000,0.00,0.00,0.00,1.0150,0.1970,1.2340,0.1300,2.6860,0
4125,0.0000,0.0001,0.0071,0.0027,0.0030,0.0105,0.29,0.34,-0.01,0,3.922,-0.147,-0.106,0.011,0.015,0.007,1.000,0.000,0.000,0.000,0.0060,-5,0,0.00,0.00,0.00,0.0000,0.0000,0.0000,0.0000,0.0000,0.0000,0.0000,0.00,0.00,0.00,1.0160,0.1930,1.2340,0.1300,2.6860,0
4176,0.0006,-0.0001,0.0065,0.0067,0.0006,0.0050,0.17,0.67,-0.02,0,3.922,-0.042,0.165,-0.335,0.015,0.005,0.997,0.000,0.000,0.000,0.0090,9,-1,0.00,0.00,0.00,0.0000,0.0000,0.0000,0.0000,0.0000,0.0000,0.0000,0.00,0.00,0.00,1.0160,0.1930,1.2340,0.1280,2.6930,0
4227,0.0008,0.0010,0.0065,0.0074,0.0090,0.0037,0.48,0.65,-0.02,0,3.922,0.226,0.076,-0.213,0.017,0.007,0.997,0.000,0.000,0.000,0.0120,-2,2,0.00,0.00,0.00,0.0000,0.0000,0.0000,0.0000,0.0000,0.0000,0.0000,0.00,0.00,0.00,1.0130,0.1940,1.2340,0.1280,2.6930,0
4277,0.0008,0.0011,0.0081,0.0067,0.0091,0.0086,0.18,0.77,-0.02,0,3.922,-0.196,-0.005,-0.142,0.016,0.008,0.999,0.000,0.000,0.000,0.0070,-4,-10,0.00,0.00,0.00,0.0000,0.0000,0.0000,0.0000,0.0000,0.0000,0.0000,0.00,0.00,0.00,1.0130,0.1940,1.2310,0.1270,2.6960,0
4329,0.0010,0.0003,0.0106,0.0077,0.0032,0.0177,0.23,0.50,-0.03,0,3.922,-0.151,-0.019,-0.102,0.017,0.006,0.996,0.000,0.000,0.000,0.0060,-3,3,0.00,0.00,0.00,0.0000,0.0000,0.0000,0.0000,0.0000,0.0000,0.0000,0.00,0.00,0.00,1.0190,0.2000,1.2310,0.1270,2.6960,0
4380,0.0013,-0.0002,0.0096,0.0091,-0.0005,0.0091,0.31,0.78,-0.03,0,3.922,-0.152,0.139,-0.319,0.016,0.007,0.998,0.000,0.000,0.000,0.0040,-10,-1,0.00,0.00,0.00,0.0000,0.0000,0.0000,0.0000,0.0000,0.0000,0.0000,0.00,0.00,0.00,1.0190,0.2000,1.2280,0.1300,2.6900,0
4431,0.0010,-0.0012,0.0082,0.0072,-0.0065,0.0003,0.27,0.74,-0.03,0,3.917,0.113,0.200,-0.293,0.015,0.007,0.997,0.000,0.000,0.000,0.0070,4,-7,0.00,0.00,0.00,0.0000,0.0000,0.0000,0.0000,0.0000,0.0000,0.0000,0.00,0.00,0.00,1.0190,0.2000,1.2280,0.1300,2.6900,0
4482,-0.0004,-0.0003,0.0061,-0.0017,-0.0007,-0.0100,0.45,0.75,-0.04,0,3.922,-0.185,0.254,0.156,0.018,0.007,0.999,0.000,0.000,0.000,0.0070,12,1,0.00,0.00,0.00,0.0000,0.0000,0.0000,0.0000,0.0000,0.0000,0.0000,0.00,0.00,0.00,1.0190,0.2000,1.2310,0.1300,2.6840,0
4533,0.0008,-0.0008,0.0062,0.0053,-0.0033,-0.0083,0.59,0.82,-0.05,0,3.922,0.237,0.134,-0.179,0.013,0.007,0.997,0.000,0.000,0.000,0.0070,-1,-1,0.00,0.00,0.00,0.0000,0.0000,0.0000,0.0000,0.0000,0.0000,0.0000,0.00,0.00,0.00,1.0110,0.2000,1.2310,0.1300,2.6840,0
4583,-0.0009,-0.0065,0.0062,-0.0042,-0.0310,-0.0066,0.65,0.89,-0.06,0,3.922,-0.135,-0.018,0.157,0.017,0.007,1.002,0.000,0.000,0.000,0.0060,17,0,0.00,0.00,0.00,0.0000,0.0000,0.0000,0.0000,0.0000,0.0000,0.0000,0.00,0.00,0.00,1.0110,0.2000,1.2360,0.1310,2.6860,0
4635,0.0003,-0.0053,0.0064,0.0035,-0.0185,-0.0045,0.74,0.82,-0.06,0,3.922,0.280,0.022,-0.075,0.015,0.007,1.000,0.000,0.000,0.000,0.0080,-6,-6,0.00,0.00,0.00,0.0000,0.0000,0.0000,0.0000,0.0000,0.0000,0.0000,0.00,0.00,0.00,1.0180,0.2010,1.2360,0.1310,2.6860,0
4686,-0.0007,-0.0093,0.0060,-0.0014,-0.0326,-0.0053,0.56,0.79,-0.06,0,3.922,-0.009,0.053,0.125,0.016,0.008,0.998,0.000,0.000,0.000,0.0090,14,-2,0.00,0.00,0.00,0.0000,0.0000,0.0000,0.0000,0.0000,0.0000,0.0000,0.00,0.00,0.00,1.0180,0.2010,1.2260,0.1320,2.6930,0
4737,-0.0002,-0.0091,0.0070,0.0017,-0.0242,-0.0001,0.69,0.81,-0.06,0,3.917,0.122,-0.133,-0.109,0.017,0.007,0.998,0.000,0.000,0.000,0.0060,-53,3,0.00,0.00,0.00,0.0000,0.0000,0.0000,0.0000,0.0000,0.0000,0.0000,0.00,0.00,0.00,1.0180,0.2030,1.2260,0.1320,2.6930,0
4788,0.0006,-0.0077,0.0082,0.0068,-0.0088,0.0054,-0.22,0.82,-0.03,0,3.922,-0.046,0.101,-0.128,0.017,0.006,0.999,0.000,0.000,0.000,0.0080,1,2,0.00,0.00,0.00,0.0000,0.0000,0.0000,0.0000,0.0000,0.0000,0.0000,0.00,0.00,0.00,1.0180,0.2030,1.2260,0.1270,2.6900,0
4838,-0.0000,0.0015,0.0078,0.0033,0.0335,0.0027,0.05,0.84,-0.05,0,3.927,-0.039,0.213,0.254,0.016,0.007,1.000,0.000,0.000,0.000,0.0070,0,-1,0.00,0.00,0.00,0.0000,0.0000,0.0000,0.0000,0.0000,0.0000,0.0000,0.00,0.00,0.00,1.0110,0.2000,1.2260,0.1270,2.6900,0
4890,-0.0002,0.0045,0.0080,0.0028,0.0424,0.0025,-0.01,0.81,-0.05,0,3.933,-0.242,-0.151,-0.178,0.017,0.007,1.001,0.000,0.000,0.000,0.0080,-4,0,0.00,0.00,0.00,0.0000,0.0000,0.0000,0.0000,0.0000,0.0000,0.0000,0.00,0.00,0.00,1.0110,0.2000,1.2320,0.1300,2.6940,0
4940,0.0007,0.0031,0.0078,0.0076,0.0287,0.0009,0.08,0.78,-0.06,0,3.927,-0.211,0.276,0.277,0.016,0.007,0.999,0.000,0.000,0.000,0.0100,0,-3,0.00,0.00,0.00,0.0000,0.0000,0.0000,0.0000,0.0000,0.0000,0.0000,0.00,0.00,0.00,1.0160,0.2020,1.2320,0.1300,2.6940,0
4992,-0.0005,0.0039,0.0080,0.0012,0.0275,0.0010,0.15,0.80,-0.06,0,3.922,0.006,0.004,-0.288,0.017,0.007,1.000,0.000,0.000,0.000,0.0060,-10,-17,0.00,0.00,0.00,0.0000,0.0000,0.0000,0.0000,0.0000,0.0000,0.0000,0.00,0.00,0.00,1.0160,0.2020,1.2320,0.1260,2.6850,0
5043,-0.0005,0.0032,0.0091,0.0015,0.0190,0.0052,0.13,0.65,-0.06,0,3.917,0.008,0.025,0.051,0.014,0.009,0.999,0.000,0.000,0.000,0.0090,-9,0,0.00,0.00,0.00,0.0000,0.0000,0.0000,0.0000,0.0000,0.0000,0.0000,0.00,0.00,0.00,1.0140,0.2010,1.2320,0.1260,2.6850,0
5094,0.0022,-0.0004,0.0079,0.0136,-0.0027,-0.0015,0.32,0.73,-0.07,0,3.537,1.410,-0.185,1.197,0.014,0.005,0.997,0.000,0.000,0.000,0.0050,-1,2,0.00,0.00,0.00,0.0000,0.0000,0.0000,0.0000,0.0000,0.0000,0.0000,0.00,0.00,0.00,1.0140,0.2010,1.2230,0.1300,2.6950,0
5145,0.0024,0.0011,0.0084,0.0095,0.0031,0.0015,0.31,0.78,-0.07,0,3.611,-0.836,-0.559,-0.438,0.013,-0.001,0.994,0.000,0.000,0.000,0.0040,3,-3,0.00,0.00,0.00,0.0000,0.0000,0.0000,0.0000,0.0000,0.0000,0.0000,0.00,0.00,0.00,1.0200,0.1950,1.2230,0.1300,2.6950,0
5196,0.0019,0.0010,0.0067,-0.0015,-0.0003,-0.0066,0.25,0.80,-0.08,0,3.632,-3.810,0.092,-2.004,0.018,-0.017,1.010,0.000,0.000,0.000,0.0060,0,4,0.00,0.00,0.00,0.0000,0.0000,0.0000,0.0000,0.0000,0.0000,0.0000,0.00,0.00,0.00,1.0200,0.1950,1.2280,0.1330,2.6940,0
5248,0.0038,0.0021,0.0050,0.0023,0.0039,-0.0126,0.10,0.77,-0.14,0,3.658,-3.463,1.413,-1.174,0.011,-0.004,1.022,0.000,0.000,0.000,0.0030,-10,-1,0.00,0.00,0.00,0.0000,0.0000,0.0000,0.0000,0.0000,0.0000,0.0000,0.00,0.00,0.00,1.0160,0.2020,1.2280,0.1330,2.6940,0
5299,0.0032,0.0022,0.0050,-0.0064,0.0027,-0.0071,-0.33,0.80,-0.24,0,3.669,-2.214,-0.272,-7.841,0.007,-0.011,0.940,0.000,0.000,0.000,0.0060,-11,0,0.00,0.00,0.00,0.0000,0.0000,0.0000,0.0000,0.0000,0.0000,0.0000,0.00,0.00,0.00,1.0160,0.2020,1.2240,0.1360,2.6920,0
5350,0.0046,0.0067,0.0037,-0.0044,0.0240,-0.0137,-0.67,0.81,-0.56,0,3.674,-7.067,1.719,-16.629,0.018,-0.026,1.014,0.000,0.000,0.000,0.0070,-5,0,0.00,0.00,0.00,0.0000,0.0000,0.0000,0.0000,0.0000,0.0000,0.0000,0.00,0.00,0.00,1.0260,0.2120,1.2240,0.1360,2.6920,0
5401,0.0049,0.0104,0.0040,-0.0071,0.0388,-0.0120,-0.72,0.79,-1.32,0,3.679,1.662,-2.238,-9.938,0.015,0.003,1.032,0.000,0.000,0.000,0.0080,-6,-4,0.00,0.00,0.00,0.0000,0.0000,0.0000,0.0000,0.0000,0.0000,0.0000,0.00,0.00,0.00,1.0260,0.2120,1.2130,0.1450,2.6960,0
5452,0.0056,0.0195,0.0045,-0.0078,0.0775,-0.0077,-1.06,0.72,-1.80,0,3.679,3.292,-3.146,-4.018,0.002,-0.022,0.980,0.000,0.000,0.000,0.0090,-11,4,0.00,0.00,0.00,0.0000,0.0000,0.0000,0.0000,0.0000,0.0000,0.0000,0.00,0.00,0.00,1.0260,0.2230,1.2130,0.1450,2.6960,0
5504,0.0095,0.0241,0.0059,0.0079,0.0891,-0.0049,-0.86,0.47,-1.88,0,3.663,-7.028,-6.233,-2.388,0.012,-0.013,1.040,0.000,0.000,0.000,0.0060,-3,2,0.00,0.00,0.00,0.0000,0.0000,0.0000,0.0000,0.0000,0.0000,0.0000,0.00,0.00,0.00,1.0260,0.2230,1.2030,0.1440,2.6890,0
5556,0.0092,0.0294,0.0073,0.0019,0.0989,0.0072,-1.02,0.60,-1.89,0,3.658,9.270,-3.747,3.728,0.023,-0.024,1.038,0.000,0.000,0.000,0.0060,-8,2,0.00,0.00,0.00,0.0000,0.0000,0.0000,0.0000,0.0000,0.0000,0.0000,0.00,0.00,0.00,1.0240,0.2340,1.2030,0.1440,2.6890,0
5607,0.0071,0.0318,0.0070,-0.0121,0.0935,-0.0022,-0.99,0.68,-1.74,0,3.658,-0.525,-4.903,-0.842,0.004,-0.025,0.981,0.000,0.000,0.000,0.0070,2,0,0.00,0.00,0.00,0.0000,0.0000,0.0000,0.0000,0.0000,0.0000,0.0000,0.00,0.00,0.00,1.0240,0.2340,1.2040,0.1470,2.6960,0
5658,0.0054,0.0303,0.0072,-0.0224,0.0694,0.0026,-0.60,0.62,-1.63,0,3.653,-4.703,-0.487,4.030,0.019,-0.036,0.988,0.000,0.000,0.000,0.0070,12,11,0.00,0.00,0.00,0.0000,0.0000,0.0000,0.0000,0.0000,0.0000,0.0000,0.00,0.00,0.00,1.0270,0.2280,1.2040,0.1470,2.6960,0
5709,0.0014,0.0283,0.0074,-0.0409,0.0477,0.0023,-0.41,0.93,-1.58,0,3.648,7.093,6.046,-1.516,0.010,-0.036,1.016,0.000,0.000,0.000,0.0060,3,12,0.00,0.00,0.00,0.0000,0.0000,0.0000,0.0000,0.0000,0.0000,0.0000,0.00,0.00,0.00,1.0270,0.2280,1.1970,0.1520,2.6900,0
5760,-0.0031,0.0203,0.0072,-0.0575,0.0019,0.0041,0.24,0.58,-1.56,0,3.642,-3.001,7.309,8.206,0.003,-0.035,1.024,0.000,0.000,0.000,0.0090,27,0,0.00,0.00,0.00,0.0000,0.0000,0.0000,0.0000,0.0000,0.0000,0.0000,0.00,0.00,0.00,1.0160,0.2330,1.1970,0.1520,2.6900,0
5812,-0.0142,0.0100,0.0054,-0.1011,-0.0514,-0.0039,0.90,0.61,-1.17,0,3.632,-10.615,-19.132,6.144,0.006,0.004,1.024,0.000,0.000,0.000,0.0070,42,-2,0.00,0.00,0.00,0.0000,0.0000,0.0000,0.0000,0.0000,0.0000,0.0000,0.00,0.00,0.00,1.0160,0.2330,1.2160,0.1480,2.6900,0
5864,-0.0154,-0.0060,0.0058,-0.0875,-0.1199,-0.0033,0.76,1.14,-0.87,0,3.632,-2.520,13.892,0.839,-0.002,-0.032,0.985,0.000,0.000,0.000,0.0110,4,0,0.00,0.00,0.00,0.0000,0.0000,0.0000,0.0000,0.0000,0.0000,0.0000,0.00,0.00,0.00,1.0310,0.2080,1.2160,0.1480,2.6900,0
5915,-0.0166,-0.0235,0.0048,-0.0813,-0.1778,-0.0025,1.11,0.82,-0.73,0,3.632,0.163,-7.087,5.120,0.034,-0.034,1.087,0.000,0.000,0.000,0.0100,15,-3,0.00,0.00,0.00,0.0000,0.0000,0.0000,0.0000,0.0000,0.0000,0.0000,0.00,0.00,0.00,1.0310,0.2080,1.1870,0.0000,2.6870,0
5966,-0.0195,-0.0346,0.0074,-0.0818,-0.1972,0.0151,0.66,0.61,-0.40,0,3.632,-49.410,-9.174,5.518,0.017,-0.018,0.990,0.000,0.000,0.000,0.0120,26,4,0.00,0.00,0.00,0.0000,0.0000,0.0000,0.0000,0.0000,0.0000,0.0000,0.00,0.00,0.00,1.0290,0.2010,1.1870,0.0000,2.6870,0
6017,-0.0230,-0.0524,0.0077,-0.0853,-0.2407,0.0129,-1.02,1.11,-0.21,0,3.621,-45.648,23.099,2.055,0.001,-0.033,1.009,0.000,0.000,0.000,0.0010,4,6,0.00,0.00,0.00,0.0000,0.0000,0.0000,0.0000,0.0000,0.0000,0.0000,0.00,0.00,0.00,1.0290,0.2010,1.1290,0.0000,2.6940,0
6068,-0.0294,-0.0633,0.0116,-0.1053,-0.2220,0.0473,-3.64,0.17,-0.17,0,3.616,-25.317,17.289,0.403,0.003,-0.037,0.964,0.000,0.000,0.000,0.0000,-27,18,0.00,0.00,0.00,0.0000,0.0000,0.0000,0.0000,0.0000,0.0000,0.0000,0.00,0.00,0.00,1.0180,0.2120,1.1290,0.0000,2.6940,0
6120,-0.0374,-0.0573,0.0093,-0.1211,-0.1093,0.0201,-5.62,-0.34,-0.11,0,3.605,46.051,6.309,9.974,-0.007,-0.044,0.988,0.000,0.000,0.000,0.0000,-26,0,0.00,0.00,0.00,0.0000,0.0000,0.0000,0.0000,0.0000,0.0000,0.0000,0.00,0.00,0.00,1.0180,0.2120,0.0000,1.1580,2.6930,0
6171,-0.0435,-0.0302,0.0006,-0.1193,0.0899,-0.0347,-5.21,-0.77,0.16,0,3.589,23.970,25.279,11.061,0.001,-0.028,1.041,0.000,0.000,0.000,0.0000,-68,0,0.00,0.00,0.00,0.0000,0.0000,0.0000,0.0000,0.0000,0.0000,0.0000,0.00,0.00,0.00,0.9880,0.2280,0.0000,1.1580,2.6930,0
6223,-0.0424,0.0047,-0.0114,-0.0790,0.2739,-0.0812,-5.18,-2.10,0.61,0,3.568,90.952,14.226,4.360,-0.001,-0.042,1.052,0.000,0.000,0.000,0.0000,-38,-4,0.00,0.00,0.00,0.0000,0.0000,0.0000,0.0000,0.0000,0.0000,0.0000,0.00,0.00,0.00,0.9880,0.2280,0.0000,1.1270,2.6890,0
6274,-0.0379,0.0540,-0.0306,-0.0212,0.4807,-0.1460,-2.32,-3.46,0.81,0,3.558,109.811,6.259,2.787,0.000,-0.030,1.102,0.000,0.000,0.000,0.0000,-24,-6,0.00,0.00,0.00,0.0000,0.0000,0.0000,0.0000,0.0000,0.0000,0.0000,0.00,0.00,0.00,0.8100,0.2770,0.0000,1.1270,2.6890,0
6325,-0.0331,0.0918,-0.0290,0.0391,0.5597,-0.0732,2.50,-4.04,0.92,0,3.568,68.152,-34.858,5.592,-0.007,-0.019,1.137,0.000,0.000,0.000,0.0000,-11,-20,0.00,0.00,0.00,0.0000,0.0000,0.0000,0.0000,0.0000,0.0000,0.0000,0.00,0.00,0.00,0.8100,0.2770,1.2980,0.0000,2.6890,0
6376,-0.0232,0.1169,-0.0140,0.1127,0.5046,0.0668,6.85,-2.88,1.22,0,3.589,18.123,-32.671,7.244,-0.006,-0.019,1.043,0.000,0.000,0.000,0.0150,17,-14,0.00,0.00,0.00,0.0000,0.0000,0.0000,0.0000,0.0000,0.0000,0.0000,0.00,0.00,0.00,1.0070,0.0000,1.2980,0.0000,2.6890,0
6427,-0.0116,0.1214,0.0035,0.1618,0.3274,0.1739,9.32,-0.90,1.80,0,3.595,-17.085,-15.315,11.455,-0.012,-0.017,0.986,0.000,0.000,0.000,0.0250,31,-11,0.00,0.00,0.00,0.0000,0.0000,0.0000,0.0000,0.0000,0.0000,0.0000,0.00,0.00,0.00,1.0070,0.0000,1.6300,0.1560,2.7140,0
6478,-0.0020,0.1057,0.0192,0.1784,0.0881,0.2156,9.63,0.10,2.69,0,3.589,-67.405,-29.082,13.226,-0.001,-0.002,1.001,0.000,0.000,0.000,0.0390,19,-5,0.00,0.00,0.00,0.0000,0.0000,0.0000,0.0000,0.0000,0.0000,0.0000,0.00,0.00,0.00,1.0580,0.0000,1.6300,0.1560,2.7140,0
6529,0.0036,0.0791,0.0262,0.1673,-0.1362,0.1946,7.22,1.77,3.43,0,3.579,-64.405,-41.471,10.900,-0.009,-0.006,0.998,0.000,0.000,0.000,0.0490,17,-3,0.00,0.00,0.00,0.0000,0.0000,0.0000,0.0000,0.0000,0.0000,0.0000,0.00,0.00,0.00,1.0580,0.0000,1.6520,0.0000,2.6910,0
6580,0.0072,0.0564,0.0377,0.1341,-0.2701,0.1962,4.53,4.02,3.98,0,3.584,-64.675,-5.128,9.959,-0.006,-0.013,0.978,0.000,0.000,0.000,0.0610,39,1,0.00,0.00,0.00,0.0000,0.0000,0.0000,0.0000,0.0000,0.0000,0.0000,0.00,0.00,0.00,1.0980,0.1880,1.6520,0.0000,2.6910,0
6631,0.0096,0.0358,0.0500,0.0867,-0.3408,0.1957,2.26,4.54,4.39,0,3.574,-77.394,50.305,3.057,-0.006,-0.010,0.990,0.000,0.000,0.000,0.0650,18,5,0.00,0.00,0.00,0.0000,0.0000,0.0000,0.0000,0.0000,0.0000,0.0000,0.00,0.00,0.00,1.0980,0.1880,1.4220,1.0930,2.6390,0
6682,0.0093,0.0259,0.0691,0.0309,-0.3111,0.2310,-2.72,2.24,4.85,0,3.574,-34.985,1.343,0.486,0.010,-0.002,1.011,0.000,0.000,0.000,0.0790,22,9,0.00,0.00,0.00,0.0000,0.0000,0.0000,0.0000,0.0000,0.0000,0.0000,0.00,0.00,0.00,1.0860,0.1510,1.4220,1.0930,2.6390,0
6733,0.0063,0.0110,0.0773,-0.0095,-0.2901,0.2192,-4.23,2.08,4.87,0,3.579,-23.575,35.808,-5.136,-0.007,0.004,0.964,0.000,0.000,0.000,0.0860,0,12,0.00,0.00,0.00,0.0000,0.0000,0.0000,0.0000,0.0000,0.0000,0.0000,0.00,0.00,0.00,1.0860,0.1510,1.3050,1.1250,2.6210,0
6785,0.0077,0.0093,0.0914,-0.0129,-0.1896,0.2259,-6.03,0.59,4.76,0,3.574,-8.357,16.417,-10.010,0.004,0.008,0.985,0.000,0.000,0.000,0.0960,-9,-20,0.00,0.00,0.00,0.0000,0.0000,0.0000,0.0000,0.0000,0.0000,0.0000,0.00,0.00,0.00,1.0790,0.0000,1.3050,1.1250,2.6210,0
6836,0.0090,0.0123,0.0986,-0.0054,-0.0854,0.2011,-7.06,-0.97,4.32,0,3.574,34.347,-19.282,-12.492,0.010,-0.002,0.986,0.000,0.000,0.000,0.0970,3,1,0.00,0.00,0.00,0.0000,0.0000,0.0000,0.0000,0.0000,0.0000,0.0000,0.00,0.00,0.00,1.0790,0.0000,1.2700,1.0940,2.6190,0
6887,0.0113,0.0109,0.1074,0.0071,-0.0219,0.1863,-5.61,-0.10,3.73,0,3.558,48.798,-0.521,-6.921,0.006,-0.009,0.993,0.000,0.000,0.000,0.1020,6,21,0.00,0.00,0.00,0.0000,0.0000,0.0000,0.0000,0.0000,0.3000,0.2811,-0.25,-1.05,-112.01,1.0940,0.0000,1.2700,1.0940,2.6190,0
6938,0.0107,0.0077,0.1105,-0.0008,0.0033,0.1536,-3.00,0.39,3.26,0,3.558,18.937,17.528,-1.768,0.007,-0.015,1.000,0.000,0.000,0.000,0.1050,0,4,-5.61,-0.10,3.73,0.0113,0.0109,0.1020,0.0000,0.0000,0.3000,0.2841,0.65,-0.67,-97.92,1.0940,0.0000,1.3810,1.0820,2.5930,0
6990,0.0046,0.0040,0.1140,-0.0319,0.0051,0.1340,-1.63,-0.33,3.05,0,3.552,9.104,2.813,1.186,0.002,-0.016,1.016,0.000,0.000,0.000,0.1140,-1,4,-4.54,0.56,3.56,0.0032,0.0085,0.1043,0.0000,0.0000,0.3000,0.2856,0.48,1.08,-91.65,1.1010,0.0000,1.3810,1.0820,2.5930,0
7042,0.0013,0.0032,0.1161,-0.0388,0.0117,0.1207,-1.09,-0.47,3.04,0,3.552,15.342,5.427,3.189,0.005,-0.014,1.021,0.000,0.000,0.000,0.1150,0,2,-3.72,0.34,3.61,-0.0014,0.0099,0.1113,0.0000,0.0000,0.3000,0.2866,0.71,1.59,-91.31,1.1010,0.0000,1.4280,1.0690,2.5890,0
7093,-0.0017,0.0021,0.1211,-0.0406,0.0118,0.1220,-0.30,-0.66,3.18,0,3.547,7.022,5.162,2.946,0.005,-0.018,1.021,0.000,0.000,0.000,0.1210,0,5,-1.39,1.56,3.80,-0.0040,0.0105,0.1180,0.0000,0.0000,0.3000,0.2856,0.65,1.87,-95.40,1.1090,0.0000,1.4280,1.0690,2.5890,0
7143,-0.0039,0.0017,0.1243,-0.0363,0.0093,0.1204,0.21,-0.91,3.33,0,3.547,-3.979,0.126,3.229,0.006,-0.013,1.044,0.000,0.000,0.000,0.1260,2,4,-0.52,0.12,3.96,-0.0091,0.0107,0.1247,0.0000,0.0000,0.3000,0.2851,0.51,1.83,-99.83,1.1090,0.0000,1.4950,1.0700,2.5820,0
7195,-0.0066,0.0007,0.1290,-0.0330,0.0021,0.1314,0.13,-0.89,3.47,0,3.547,0.139,2.124,1.564,0.003,-0.017,1.039,0.000,0.000,0.000,0.1360,1,0,0.22,-0.15,4.14,-0.0140,0.0083,0.1307,0.0000,0.0000,0.3000,0.2831,0.14,1.87,-104.17,1.1160,0.0000,1.4950,1.0700,2.5820,0
7246,-0.0083,-0.0009,0.1344,-0.0260,-0.0053,0.1435,0.19,-0.97,3.56,0,3.547,4.736,1.013,1.007,0.006,-0.014,1.032,0.000,0.000,0.000,0.1440,0,3,0.11,1.14,4.10,-0.0145,0.0071,0.1417,0.0000,0.0000,0.3000,0.2808,-0.30,1.69,-106.75,1.1160,0.0000,1.5330,1.0660,2.5670,0
7297,-0.0108,-0.0016,0.1429,-0.0237,-0.0086,0.1643,0.44,-0.92,3.57,0,3.552,-0.876,0.511,0.498,0.002,-0.015,1.023,0.000,0.000,0.000,0.1540,9,1,0.00,0.69,4.22,-0.0185,0.0066,0.1523,0.0000,0.0000,0.3000,0.2769,-0.49,1.78,-107.06,1.1260,0.0000,1.5330,1.0660,2.5670,0
7349,-0.0117,-0.0036,0.1520,-0.0146,-0.0188,0.1799,0.63,-0.95,3.59,0,3.558,-2.130,0.737,0.001,0.001,-0.016,1.014,0.000,0.000,0.000,0.1580,0,0,1.80,0.87,4.25,-0.0192,-0.0063,0.1620,0.0000,0.0000,0.3000,0.2735,-1.09,1.46,-107.76,1.1260,0.0000,1.6210,1.0660,2.5380,0
7401,-0.0127,-0.0074,0.1623,-0.0080,-0.0341,0.1944,0.50,-1.00,3.57,0,3.552,-4.598,1.026,-1.110,0.003,-0.015,1.009,0.000,0.000,0.000,0.1800,1,0,1.69,0.92,4.25,-0.0201,-0.0147,0.1702,0.0000,0.0000,0.3000,0.2700,-2.07,1.24,-107.15,1.1360,0.0000,1.6210,1.0660,2.5380,0
7452,-0.0117,-0.0122,0.1699,0.0060,-0.0498,0.1907,0.27,-1.12,3.51,0,3.563,-2.175,-4.741,-3.375,0.006,-0.012,1.004,0.000,0.000,0.000,0.1790,2,-1,-0.24,1.22,4.03,-0.0192,-0.0069,0.1890,0.0000,0.0000,0.3000,0.2690,-3.13,0.53,-105.31,1.1360,0.0000,1.6500,1.0660,2.5190,0
7503,-0.0119,-0.0158,0.1848,0.0121,-0.0560,0.2162,0.02,-0.93,3.42,0,3.558,-5.681,-3.553,-1.343,-0.001,-0.016,0.993,0.000,0.000,0.000,0.1960,0,0,-0.35,1.07,3.84,-0.0174,-0.0098,0.1965,0.0000,0.0000,0.3000,0.2634,-3.74,0.27,-102.55,1.1440,0.0000,1.6500,1.0660,2.5190,0
7554,-0.0110,-0.0181,0.1925,0.0201,-0.0531,0.2008,-0.28,-0.75,3.34,0,3.563,-4.471,-1.381,-2.917,0.001,-0.017,0.986,0.000,0.000,0.000,0.2080,0,0,-0.64,0.89,3.77,-0.0157,-0.0130,0.2068,0.0000,0.0000,0.3000,0.2636,-3.76,-0.17,-100.19,1.1440,0.0000,1.6510,1.0600,2.4990,0
7606,-0.0082,-0.0236,0.2043,0.0321,-0.0605,0.2033,-0.45,-0.69,3.21,0,3.568,-3.877,-3.807,-3.261,0.000,-0.016,0.979,0.000,0.000,0.000,0.2160,0,-1,-0.87,0.81,3.63,-0.0136,-0.0165,0.2175,0.0000,0.0000,0.3000,0.2612,-4.53,-0.93,-96.39,1.1530,0.0000,1.6510,1.0600,2.4990,0
7658,-0.0067,-0.0262,0.2162,0.0364,-0.0550,0.2030,-0.66,-0.51,3.05,0,3.563,-1.390,-2.952,-1.760,-0.001,-0.013,0.979,0.000,0.000,0.000,0.2270,1,-1,-1.66,0.39,3.43,-0.0158,-0.0094,0.2269,0.0000,0.0000,0.3000,0.2589,-4.50,-1.26,-91.60,1.1530,0.0000,1.6460,1.0520,2.4760,0
7709,-0.0045,-0.0379,0.2259,0.0410,-0.0805,0.1903,-0.57,-0.29,2.97,0,3.563,-2.787,-0.869,-3.274,0.002,-0.014,0.974,0.000,0.000,0.000,0.2400,1,-1,-1.67,0.26,3.35,-0.0141,-0.0101,0.2362,0.0000,0.0000,0.3000,0.2585,-6.55,-1.64,-88.99,1.1610,0.0000,1.6460,1.0520,2.4760,0
7760,-0.0028,-0.0392,0.2359,0.0415,-0.0668,0.1791,-0.72,-0.20,2.82,0,3.563,-4.804,-1.872,-2.068,-0.001,-0.017,0.970,0.000,0.000,0.000,0.2470,0,0,-1.75,0.24,3.19,-0.0121,-0.0110,0.2460,0.0000,0.0000,0.3000,0.2578,-6.01,-1.79,-84.53,1.1610,0.0000,1.6530,1.0560,2.4590,0
7811,0.0000,-0.0413,0.2466,0.0451,-0.0568,0.1731,-1.00,-0.17,2.74,0,3.563,-4.751,-3.148,0.723,0.004,-0.014,0.970,0.000,0.000,0.000,0.2560,-2,-5,-2.00,0.14,3.08,-0.0103,-0.0109,0.2542,0.0000,0.0000,0.3000,0.2564,-5.71,-2.18,-82.18,1.1620,0.0000,1.6530,1.0560,2.4590,0
7863,0.0019,-0.0445,0.2550,0.0449,-0.0502,0.1573,-1.11,-0.10,2.74,0,3.563,-6.241,-8.155,1.301,0.003,-0.019,0.972,0.000,0.000,0.000,0.2650,0,-1,-2.42,0.34,3.33,-0.0002,-0.0056,0.2616,0.0000,0.0000,0.3000,0.2566,-5.62,-2.30,-82.32,1.1620,0.0000,1.6380,1.0570,2.4450,0
7913,0.0063,-0.0429,0.2630,0.0507,-0.0303,0.1446,-1.23,0.22,2.79,0,3.563,2.578,-8.691,0.088,-0.004,-0.013,0.974,0.000,0.000,0.000,0.2670,0,0,-2.69,-0.13,3.37,0.0032,-0.0042,0.2692,0.0000,0.0000,0.3000,0.2564,-4.57,-2.90,-83.78,1.1590,0.0000,1.6380,1.0570,2.4450,0
7965,0.0102,-0.0420,0.2710,0.0517,-0.0140,0.1364,-1.28,0.61,2.83,0,3.558,5.888,-0.028,0.148,-0.000,-0.011,0.980,0.000,0.000,0.000,0.2750,-1,0,-2.56,-0.57,3.40,0.0073,-0.0010,0.2745,0.0000,0.0000,0.3000,0.2558,-3.72,-3.24,-84.87,1.1590,0.0000,1.6470,1.0600,2.4330,0
8016,0.0124,-0.0398,0.2754,0.0452,0.0032,0.1159,-1.05,0.71,2.84,0,3.552,10.714,0.888,-1.059,-0.002,-0.016,0.979,0.000,0.000,0.000,0.2750,-2,0,-2.12,-0.83,3.14,0.0031,-0.0018,0.2806,0.0000,0.0000,0.3000,0.2572,-2.73,-3.07,-85.26,1.1550,0.0000,1.6470,1.0600,2.4330,0
8067,0.0140,-0.0364,0.2807,0.0378,0.0189,0.1044,-0.69,0.69,2.82,0,3.552,2.655,1.509,-0.826,0.000,-0.020,0.985,0.000,0.000,0.000,0.2820,0,-2,-1.62,-0.81,3.09,0.0033,0.0028,0.2836,0.0000,0.0000,0.3000,0.2574,-1.72,-2.83,-84.52,1.1550,0.0000,1.6720,1.0670,2.4120,0
8118,0.0149,-0.0315,0.2827,0.0297,0.0338,0.0832,-0.44,0.65,2.77,0,3.547,8.081,4.474,-2.609,0.003,-0.022,0.990,0.000,0.000,0.000,0.2870,-1,0,-1.41,-0.64,3.07,0.0072,0.0042,0.2875,0.0000,0.0000,0.3000,0.2594,-0.65,-2.48,-83.07,1.1470,0.0000,1.6720,1.0670,2.4120,0
8169,0.0169,-0.0263,0.2863,0.0258,0.0453,0.0762,-0.11,0.47,2.65,0,3.547,5.748,-0.899,-2.493,0.003,-0.020,0.997,0.000,0.000,0.000,0.2880,-2,0,-0.99,-0.44,2.91,0.0074,0.0072,0.2913,0.0000,0.0000,0.3000,0.2594,0.27,-2.44,-79.53,1.1470,0.0000,1.6800,1.0710,2.4100,0
8221,0.0177,-0.0208,0.2904,0.0210,0.0535,0.0756,0.18,0.52,2.51,0,3.547,6.094,-0.901,-2.486,-0.001,-0.019,0.996,0.000,0.000,0.000,0.2920,-4,-1,-0.75,-0.51,2.81,0.0073,0.0125,0.2942,0.0000,0.0000,0.3000,0.2587,1.06,-2.27,-75.32,1.1360,0.0000,1.6800,1.0710,2.4100,0
8272,0.0199,-0.0175,0.2930,0.0193,0.0529,0.0694,0.45,0.54,2.38,0,3.542,10.213,0.505,-4.286,0.002,-0.020,0.997,0.000,0.000,0.000,0.2960,-2,-1,-0.60,-0.51,2.81,0.0094,0.0232,0.2969,0.0000,0.0000,0.3000,0.2589,1.27,-2.35,-71.30,1.1360,0.0000,1.6770,1.0760,2.3990,0
8324,0.0204,-0.0118,0.2959,0.0143,0.0550,0.0652,0.92,0.50,2.20,0,3.542,3.441,-0.464,-3.876,0.006,-0.016,1.000,0.000,0.000,0.000,0.3050,-2,0,-0.09,-0.45,2.62,0.0119,0.0293,0.3000,0.0000,0.0000,0.3000,0.2588,1.77,-2.15,-65.90,1.1250,0.0000,1.6770,1.0760,2.3990,0
8375,0.0230,-0.0067,0.2992,0.0149,0.0523,0.0648,1.13,0.47,2.02,0,3.547,1.858,-0.159,-3.892,-0.000,-0.021,1.000,0.000,0.000,0.000,0.3080,-2,0,0.06,-0.50,2.43,0.0116,0.0353,0.3049,0.0000,0.0000,0.3000,0.2582,2.02,-2.37,-60.70,1.1250,0.0000,1.6840,1.0900,2.3900,0
8427,0.0229,-0.0034,0.3047,0.0104,0.0477,0.0772,1.11,0.43,1.85,0,3.547,-1.327,4.496,-4.628,-0.001,-0.015,0.995,0.000,0.000,0.000,0.3130,-4,2,0.13,-0.52,2.26,0.0114,0.0415,0.3095,0.0000,0.0000,0.3000,0.2558,2.05,-2.17,-55.54,1.1250,0.0000,1.6840,1.0900,2.3900,0
8478,0.0249,-0.0023,0.3098,0.0107,0.0356,0.0814,1.06,0.28,1.64,0,3.552,1.079,0.760,-5.297,0.001,-0.012,0.992,0.000,0.000,0.000,0.3150,0,0,-0.07,-0.39,2.14,0.0049,0.0535,0.3139,0.0000,0.0000,0.3000,0.2544,1.55,-2.34,-49.32,1.1250,0.0000,1.6730,1.0940,2.3930,0
8529,0.0245,0.0041,0.3150,0.0069,0.0371,0.0831,1.04,0.17,1.42,0,3.552,-4.098,2.498,-4.695,0.001,-0.011,0.987,0.000,0.000,0.000,0.3190,0,0,-0.01,-0.35,1.87,0.0035,0.0591,0.3177,0.0000,0.0000,0.3000,0.2532,2.10,-2.13,-42.61,1.1230,0.0000,1.6730,1.0940,2.3930,0
8581,0.0241,0.0054,0.3186,0.0041,0.0278,0.0750,0.90,0.08,1.21,0,3.547,0.187,1.631,-3.897,0.002,-0.012,0.988,0.000,0.000,0.000,0.3210,0,-1,-0.22,-0.22,1.63,0.0020,0.0644,0.3213,0.0000,0.0000,0.3000,0.2534,1.75,-1.97,-36.28,1.1230,0.0000,1.6510,1.0880,2.3740,0
8633,0.0251,0.0081,0.3220,0.0052,0.0236,0.0669,0.75,0.03,1.06,0,3.547,-2.108,-1.205,-1.369,0.003,-0.014,0.982,0.000,0.000,0.000,0.3210,0,0,0.08,-0.00,1.17,0.0116,0.0481,0.3249,0.0000,0.0000,0.3000,0.2537,1.74,-2.09,-31.78,1.1300,0.0000,1.6510,1.0880,2.3740,0
8684,0.0267,0.0099,0.3243,0.0078,0.0190,0.0557,0.71,0.07,0.97,0,3.542,-3.817,0.213,0.076,0.006,-0.016,0.989,0.000,0.000,0.000,0.3240,1,0,-0.03,-0.06,1.10,0.0121,0.0489,0.3262,0.0000,0.0000,0.3000,0.2544,1.64,-2.33,-29.12,1.1300,0.0000,1.6390,1.0860,2.3670,0
8735,0.0285,0.0106,0.3250,0.0104,0.0127,0.0402,0.63,0.05,0.94,0,3.537,-0.814,-0.361,0.285,0.006,-0.015,0.988,0.000,0.000,0.000,0.3260,-1,0,-0.17,-0.07,1.09,0.0116,0.0453,0.3275,0.0000,0.0000,0.3000,0.2560,1.37,-2.57,-28.29,1.1210,0.0000,1.6390,1.0860,2.3670,0
8786,0.0287,0.0082,0.3262,0.0094,0.0017,0.0326,0.50,0.05,0.99,0,3.537,-4.098,-0.026,0.655,0.005,-0.015,0.996,0.000,0.000,0.000,0.3320,0,0,-0.24,-0.09,1.12,0.0118,0.0468,0.3288,0.0000,0.0000,0.3000,0.2566,0.67,-2.53,-29.82,1.1210,0.0000,1.6270,1.0940,2.3700,0
8837,0.0305,0.0088,0.3275,0.0117,-0.0013,0.0276,0.39,0.05,1.01,0,3.542,-1.536,-1.077,-0.242,0.004,-0.012,0.996,0.000,0.000,0.000,0.3300,0,0,-0.45,-0.09,1.15,0.0124,0.0463,0.3314,0.0000,0.0000,0.3000,0.2569,0.56,-2.77,-30.28,1.1190,0.0000,1.6270,1.0940,2.3700,0
8888,0.0333,0.0080,0.3309,0.0159,-0.0060,0.0348,0.33,0.05,0.99,0,3.542,-6.737,-0.265,0.458,0.003,-0.012,1.000,0.000,0.000,0.000,0.3330,0,0,-0.53,-0.15,1.14,0.0130,0.0457,0.3325,0.0000,0.0000,0.3000,0.2554,0.28,-3.19,-29.61,1.1190,0.0000,1.6290,1.0910,2.3630,0
8939,0.0393,0.0073,0.3320,0.0260,-0.0094,0.0313,0.10,0.02,0.98,0,3.542,-1.444,-3.629,0.089,0.004,-0.012,0.995,0.000,0.000,0.000,0.3350,0,-2,-0.87,-0.16,1.17,0.0136,0.0451,0.3342,0.0000,0.0000,0.3000,0.2556,0.06,-4.11,-29.31,1.1170,0.0000,1.6290,1.0910,2.3630,0
8991,0.0414,0.0061,0.3339,0.0274,-0.0119,0.0316,0.14,0.17,0.96,0,3.542,1.620,-4.203,-1.369,0.002,-0.013,0.996,0.000,0.000,0.000,0.3320,0,0,-0.98,-0.29,1.15,0.0187,0.0473,0.3359,0.0000,0.0000,0.3000,0.2552,-0.14,-4.34,-28.68,1.1170,0.0000,1.6150,1.0940,2.3550,0
9042,0.0448,0.0067,0.3358,0.0298,-0.0107,0.0311,0.20,0.35,0.88,0,3.537,-8.160,-0.571,0.138,0.002,-0.011,0.997,0.000,0.000,0.000,0.3390,0,0,-0.89,-0.51,1.09,0.0201,0.0474,0.3360,0.0000,0.0000,0.3000,0.2549,-0.04,-4.71,-26.53,1.1140,0.0000,1.6150,1.0940,2.3550,0
9093,0.0488,0.0068,0.3352,0.0318,-0.0109,0.0197,-0.05,0.40,0.86,0,3.537,0.586,-0.525,-1.016,0.002,-0.013,0.997,0.000,0.000,0.000,0.3390,0,-1,-1.31,-0.54,1.09,0.0213,0.0475,0.3380,0.0000,0.0000,0.3000,0.2563,-0.04,-5.07,-25.87,1.1140,0.0000,1.6130,1.0940,2.3480,0
9144,0.0499,0.0077,0.3381,0.0275,-0.0081,0.0267,-0.01,0.49,0.83,0,3.537,2.514,-0.344,-1.268,0.004,-0.015,0.992,0.000,0.000,0.000,0.3410,0,2,-1.27,-0.57,1.03,0.0225,0.0470,0.3395,0.0000,0.0000,0.3000,0.2550,0.16,-4.96,-24.88,1.1150,0.0000,1.6130,1.0940,2.3480,0
9195,0.0543,0.0075,0.3397,0.0290,-0.0078,0.0271,0.09,0.50,0.76,0,3.537,-5.059,3.613,0.159,-0.000,-0.014,0.996,0.000,0.000,0.000,0.3410,0,-1,-1.13,-0.63,0.96,0.0208,0.0472,0.3410,0.0000,0.0000,0.3000,0.2546,0.16,-5.36,-22.93,1.1150,0.0000,1.6080,1.0920,2.3490,0
9246,0.0489,0.0058,0.3416,0.0129,-0.0109,0.0267,-0.05,0.43,0.78,0,3.531,1.013,0.568,0.134,0.003,-0.010,0.995,0.000,0.000,0.000,0.3450,0,0,-1.39,-0.42,0.97,0.0222,0.0476,0.3420,0.0000,0.0000,0.3000,0.2543,-0.12,-4.20,-23.40,1.1120,0.0000,1.6080,1.0920,2.3490,0
9298,0.0494,0.0067,0.3425,0.0091,-0.0080,0.0227,-0.14,0.32,0.81,0,3.537,6.126,0.782,0.503,0.005,-0.014,0.996,0.000,0.000,0.000,0.3450,-1,0,-1.34,-0.39,0.97,0.0224,0.0484,0.3438,0.0000,0.0000,0.3000,0.2545,0.09,-4.05,-24.26,1.1120,0.0000,1.6030,1.0910,2.3500,0
9349,0.0486,0.0056,0.3448,0.0042,-0.0084,0.0257,0.01,0.23,0.84,0,3.531,1.819,1.721,0.183,0.007,-0.015,0.990,0.000,0.000,0.000,0.3470,0,0,-1.04,-0.36,1.01,0.0222,0.0506,0.3450,0.0000,0.0000,0.3000,0.2538,-0.01,-3.76,-25.31,1.1150,0.0000,1.6030,1.0910,2.3500,0
9400,0.0478,0.0069,0.3460,0.0005,-0.0055,0.0222,-0.02,0.09,0.88,0,3.537,3.148,3.260,0.893,0.005,-0.012,0.992,0.000,0.000,0.000,0.3460,0,1,-0.94,-0.27,1.02,0.0223,0.0520,0.3463,0.0000,0.0000,0.3000,0.2539,0.24,-3.53,-26.53,1.1150,0.0000,1.6080,1.0930,2.3460,0
9452,0.0478,0.0067,0.3475,-0.0003,-0.0053,0.0209,-0.02,-0.05,0.94,0,3.537,6.238,0.719,0.912,0.003,-0.015,0.993,0.000,0.000,0.000,0.3480,-4,0,-0.75,-0.14,1.02,0.0191,0.0508,0.3468,0.0000,0.0000,0.3000,0.2538,0.22,-3.49,-28.17,1.1110,0.0000,1.6080,1.0930,2.3460,0
9504,0.0468,0.0073,0.3476,-0.0016,-0.0035,0.0139,-0.00,-0.09,1.03,0,3.531,0.044,-0.016,2.160,0.007,-0.017,0.996,0.000,0.000,0.000,0.3480,0,-1,-0.51,-0.10,1.11,0.0186,0.0586,0.3476,0.0000,0.0000,0.3000,0.2545,0.36,-3.34,-30.95,1.1110,0.0000,1.6100,1.0910,2.3410,0
9555,0.0454,0.0135,0.3484,-0.0031,0.0069,0.0116,-0.01,-0.16,1.11,0,3.526,3.018,-0.446,0.482,0.008,-0.013,0.998,0.000,0.000,0.000,0.3490,0,1,-0.49,-0.07,1.22,0.0206,0.0595,0.3480,0.0000,0.0000,0.3000,0.2546,1.31,-3.17,-33.31,1.1070,0.0000,1.6100,1.0910,2.3410,0
9607,0.0455,0.0146,0.3487,-0.0014,0.0085,0.0086,0.04,-0.16,1.17,0,3.531,3.217,-1.620,-0.294,0.003,-0.012,1.001,0.000,0.000,0.000,0.3480,-1,0,-0.33,-0.12,1.24,0.0184,0.0601,0.3487,0.0000,0.0000,0.3000,0.2549,1.47,-3.26,-35.02,1.1070,0.0000,1.6270,1.0970,2.3400,0
9659,0.0467,0.0163,0.3492,0.0021,0.0105,0.0081,0.14,-0.15,1.17,0,3.531,0.643,-0.103,0.048,0.000,-0.013,0.995,0.000,0.000,0.000,0.3480,0,0,-0.17,-0.20,1.23,0.0182,0.0631,0.3488,0.0000,0.0000,0.3000,0.2548,1.70,-3.52,-35.03,1.1020,0.0000,1.6270,1.0970,2.3400,0
9710,0.0462,0.0169,0.3490,0.0024,0.0094,0.0058,0.24,-0.08,1.15,0,3.526,-1.341,-1.169,-0.799,0.002,-0.014,1.003,0.000,0.000,0.000,0.3510,1,-2,-0.14,-0.21,1.24,0.0179,0.0645,0.3488,0.0000,0.0000,0.3000,0.2551,1.68,-3.49,-34.35,1.1020,0.0000,1.6220,1.0960,2.3380,0
9762,0.0461,0.0173,0.3487,0.0028,0.0073,0.0033,0.30,-0.00,1.11,0,3.526,-1.317,-0.751,-1.378,0.004,-0.015,0.997,0.000,0.000,0.000,0.3500,0,0,-0.14,-0.18,1.14,0.0272,0.0587,0.3498,0.0000,0.0000,0.3000,0.2554,1.60,-3.50,-33.29,1.0990,0.0000,1.6220,1.0960,2.3380,0
9813,0.0471,0.0212,0.3501,0.0040,0.0109,0.0095,0.29,0.07,1.02,0,3.526,0.859,0.744,-3.056,0.005,-0.016,1.004,0.000,0.000,0.000,0.3510,-3,0,-0.21,-0.22,1.07,0.0287,0.0582,0.3501,0.0000,0.0000,0.3000,0.2545,2.07,-3.65,-30.75,1.0990,0.0000,1.6270,1.1010,2.3390,0
9864,0.0467,0.0201,0.3506,0.0025,0.0057,0.0107,0.19,0.07,0.90,0,3.526,-0.063,-0.311,-2.454,0.003,-0.017,1.002,0.000,0.000,0.000,0.3490,0,0,-0.29,-0.21,0.97,0.0265,0.0711,0.3510,0.0000,0.0000,0.3000,0.2543,1.74,-3.54,-26.87,1.1030,0.0000,1.6270,1.1010,2.3390,0
9915,0.0495,0.0254,0.3513,0.0062,0.0117,0.0125,0.27,0.07,0.75,0,3.526,1.151,1.746,-3.003,0.006,-0.015,1.001,0.000,0.000,0.000,0.3530,0,1,-0.29,-0.23,0.84,0.0273,0.0725,0.3509,0.0000,0.0000,0.3000,0.2539,2.42,-3.93,-22.39,1.1030,0.0000,1.6110,1.0950,2.3420,0
9967,0.0509,0.0274,0.3508,0.0074,0.0117,0.0087,0.39,0.07,0.60,0,3.526,0.839,1.049,-4.364,0.002,-0.010,1.003,0.000,0.000,0.000,0.3540,0,0,-0.21,-0.19,0.72,0.0226,0.0712,0.3520,0.0000,0.0000,0.3000,0.2544,2.56,-4.09,-17.86,1.1060,0.0000,1.6110,1.0950,2.3420,0
10018,0.0509,0.0297,0.3524,0.0065,0.0114,0.0160,0.37,0.03,0.42,0,3.526,-2.506,-0.147,-3.849,-0.001,-0.014,1.002,0.000,0.000,0.000,0.3510,0,0,-0.17,-0.14,0.49,0.0224,0.0717,0.3533,0.0000,0.0000,0.3000,0.2533,2.72,-4.06,-12.50,1.1060,0.0000,1.6000,1.1030,2.3400,0
10070,0.0509,0.0308,0.3540,0.0058,0.0093,0.0198,0.28,0.01,0.22,0,3.526,-1.389,0.873,-4.062,0.002,-0.013,0.998,0.000,0.000,0.000,0.3510,0,0,-0.29,-0.15,0.29,0.0221,0.0720,0.3533,0.0000,0.0000,0.3000,0.2526,2.72,-4.04,-6.45,1.1090,0.0000,1.6000,1.1030,2.3400,0
10122,0.0512,0.0313,0.3534,0.0058,0.0069,0.0128,0.22,-0.02,-0.01,0,3.526,1.884,-0.284,-4.786,0.001,-0.012,1.002,0.000,0.000,0.000,0.3530,0,0,-0.37,-0.10,0.08,0.0218,0.0721,0.3532,0.0000,0.0000,0.3000,0.2535,2.62,-4.05,0.37,1.1090,0.0000,1.5740,1.0930,2.3340,0
10174,0.0515,0.0316,0.3528,0.0060,0.0049,0.0077,0.25,0.02,-0.25,0,3.521,-0.837,-2.340,-5.745,0.001,-0.014,1.003,0.000,0.000,0.000,0.3510,0,1,-0.27,-0.12,-0.17,0.0215,0.0720,0.3537,0.0000,0.0000,0.3000,0.2542,2.54,-4.07,7.62,1.1160,0.0000,1.5740,1.0930,2.3340,0
10226,0.0555,0.0318,0.3533,0.0120,0.0029,0.0086,0.21,0.01,-0.54,0,3.521,-2.947,-3.435,-5.814,-0.001,-0.014,1.006,0.000,0.000,0.000,0.3570,0,0,-0.32,-0.26,-0.45,0.0193,0.0734,0.3535,0.0000,0.0000,0.3000,0.2540,2.47,-4.65,16.09,1.1160,0.0000,1.5480,1.1000,2.3350,0
10277,0.0536,0.0326,0.3526,0.0079,0.0022,0.0047,0.13,0.05,-0.82,0,3.521,0.081,-0.210,-4.849,0.004,-0.008,0.999,0.000,0.000,0.000,0.3570,1,0,-0.48,-0.44,-0.75,0.0185,0.0731,0.3552,0.0000,0.0000,0.3000,0.2545,2.49,-4.31,24.74,1.1280,0.0000,1.5480,1.1000,2.3350,0
10329,0.0562,0.0312,0.3552,0.0109,-0.0013,0.0160,0.18,0.03,-1.09,0,3.526,-6.256,-4.470,-5.225,0.001,-0.016,0.998,0.000,0.000,0.000,0.3550,0,0,-0.45,-0.44,-1.01,0.0185,0.0713,0.3566,0.0000,0.0000,0.3000,0.2528,2.22,-4.68,32.80,1.1280,0.0000,1.5180,1.1010,2.3380,0
10381,0.0549,0.0309,0.3569,0.0075,-0.0030,0.0202,0.02,0.16,-1.34,0,3.526,-2.562,-2.512,-3.244,0.003,-0.010,0.995,0.000,0.000,0.000,0.3570,2,0,-0.77,-0.67,-1.28,0.0177,0.0704,0.3569,0.0000,0.0000,0.3000,0.2520,2.13,-4.43,40.22,1.1430,0.0000,1.5180,1.1010,2.3380,0
10431,0.0572,0.0295,0.3568,0.0097,-0.0052,0.0143,-0.01,0.05,-1.54,0,3.526,-1.497,-0.246,-3.615,0.004,-0.014,0.999,0.000,0.000,0.000,0.3570,-1,0,-0.86,-0.79,-1.48,0.0180,0.0660,0.3576,0.0000,0.0000,0.3000,0.2527,1.91,-4.69,46.08,1.1430,0.0000,1.4970,1.0880,2.3320,0
10483,0.0564,0.0280,0.3576,0.0069,-0.0071,0.0137,-0.05,0.04,-1.69,0,3.521,2.638,1.327,-3.013,0.003,-0.014,0.996,0.000,0.000,0.000,0.3600,0,0,-0.96,-0.80,-1.64,0.0173,0.0664,0.3581,0.0000,0.0000,0.3000,0.2526,1.71,-4.50,50.84,1.1620,0.0000,1.4970,1.0880,2.3320,0
10535,0.0555,0.0301,0.3579,0.0046,-0.0028,0.0104,-0.06,0.05,-1.82,0,3.526,0.501,0.743,-3.364,0.005,-0.009,0.995,0.000,0.000,0.000,0.3600,0,0,-0.82,-0.74,-1.80,0.0162,0.0653,0.3592,0.0000,0.0000,0.3000,0.2529,2.07,-4.32,54.47,1.1620,0.0000,1.4890,1.0910,2.3330,0
10586,0.0545,0.0328,0.3594,0.0022,0.0023,0.0131,-0.06,0.00,-1.95,0,3.521,4.103,2.216,-4.118,0.003,-0.014,0.995,0.000,0.000,0.000,0.3620,0,1,-0.79,-0.70,-1.98,0.0148,0.0643,0.3599,0.0000,0.0000,0.3000,0.2523,2.52,-4.14,58.49,1.1710,0.4350,1.4890,1.0910,2.3330,0
10638,0.0552,0.0324,0.3602,0.0033,0.0020,0.0109,0.08,-0.07,-2.11,0,3.521,1.583,-0.731,-1.760,0.000,-0.014,0.990,0.000,0.000,0.000,0.3590,0,0,-0.61,-0.58,-2.16,0.0143,0.0663,0.3609,0.0000,0.0000,0.3000,0.2524,2.48,-4.24,63.28,1.1710,0.4350,1.4880,1.0860,2.3230,0
10690,0.0511,0.0330,0.3616,-0.0031,0.0023,0.0102,0.11,-0.08,-2.21,0,3.521,-2.153,-1.390,-0.535,-0.002,-0.011,0.989,0.000,0.000,0.000,0.3620,0,0,-0.52,-0.62,-2.25,0.0127,0.0659,0.3605,0.0000,0.0000,0.3000,0.2522,2.54,-3.64,66.23,1.1870,0.4900,1.4880,1.0860,2.3230,0
10742,0.0511,0.0328,0.3606,-0.0023,0.0009,-0.0002,0.14,-0.08,-2.26,0,3.521,-2.821,2.356,-0.281,0.003,-0.011,0.996,0.000,0.000,0.000,0.3620,0,-1,-0.64,-0.69,-2.28,0.0108,0.0655,0.3608,0.0000,0.0000,0.3000,0.2535,2.45,-3.65,67.79,1.1870,0.4900,1.4820,1.0880,2.3230,0
10794,0.0458,0.0335,0.3612,-0.0104,0.0009,-0.0002,0.04,-0.13,-2.29,0,3.521,1.283,3.983,-0.992,-0.002,-0.016,0.993,0.000,0.000,0.000,0.3620,0,0,-0.79,-0.49,-2.29,0.0178,0.0661,0.3612,0.0000,0.0000,0.3000,0.2534,2.50,-2.88,68.82,1.1870,0.5030,1.4820,1.0880,2.3230,0
10846,0.0478,0.0340,0.3616,-0.0053,0.0012,-0.0009,0.04,-0.19,-2.34,0,3.521,2.344,-0.229,-0.990,0.002,-0.011,0.996,0.000,0.000,0.000,0.3620,0,0,-0.73,-0.28,-2.35,0.0173,0.0659,0.3612,0.0000,0.0000,0.3000,0.2534,2.56,-3.28,70.31,1.1870,0.5030,1.4730,1.0900,2.3270,0
10897,0.0464,0.0339,0.3617,-0.0057,0.0005,-0.0021,0.14,-0.15,-2.40,0,3.516,-2.303,-2.414,0.009,0.005,-0.009,0.996,0.000,0.000,0.000,0.3630,0,0,-0.60,-0.29,-2.40,0.0168,0.0657,0.3611,0.0000,0.0000,0.3000,0.2535,2.51,-3.15,72.07,1.1880,0.5100,1.4730,1.0900,2.3270,0
10949,0.0457,0.0344,0.3617,-0.0053,0.0001,-0.0028,0.11,-0.02,-2.43,0,3.521,-1.377,-0.014,-0.380,0.005,-0.011,0.995,0.000,0.000,0.000,0.3630,0,1,-0.72,-0.42,-2.39,0.0163,0.0655,0.3613,0.0000,0.0000,0.3000,0.2535,2.53,-3.12,72.94,1.1880,0.5100,1.4730,1.0940,2.3280,0
11001,0.0459,0.0347,0.3621,-0.0044,-0.0004,-0.0029,0.07,-0.04,-2.42,0,3.521,-1.677,2.809,0.549,0.004,-0.015,0.995,0.000,0.000,0.000,0.3620,0,0,-0.80,-0.43,-2.41,0.0146,0.0660,0.3614,0.0000,0.0000,0.3000,0.2535,2.53,-3.18,72.75,1.1870,0.5100,1.4730,1.0940,2.3280,0
11052,0.0454,0.0353,0.3624,-0.0045,0.0001,-0.0037,0.03,-0.10,-2.44,0,3.521,2.152,-1.863,-0.226,0.005,-0.014,0.995,0.000,0.000,0.000,0.3600,0,0,-0.89,-0.28,-2.39,0.0137,0.0659,0.3611,0.0000,0.0000,0.3000,0.2535,2.59,-3.14,73.06,1.1870,0.5100,1.4850,1.0940,2.3270,0
11104,0.0450,0.0346,0.3619,-0.0041,-0.0014,-0.0077,0.09,-0.02,-2.49,0,3.516,3.062,-0.614,-0.375,0.006,-0.009,0.990,0.000,0.000,0.000,0.3590,1,2,-0.78,-0.38,-2.40,0.0128,0.0659,0.3601,0.0000,0.0000,0.3000,0.2540,2.47,-3.12,74.59,1.1890,0.5050,1.4850,1.0940,2.3270,0
11156,0.0459,0.0354,0.3605,-0.0021,-0.0007,-0.0142,0.14,0.05,-2.51,0,3.516,-2.082,1.907,-0.427,0.003,-0.015,0.997,0.000,0.000,0.000,0.3570,0,0,-0.59,-0.44,-2.43,0.0085,0.0633,0.3588,0.0000,0.0000,0.3000,0.2550,2.55,-3.28,75.32,1.1890,0.5050,1.4790,1.1000,2.3290,0
11208,0.0422,0.0350,0.3590,-0.0087,-0.0024,-0.0180,0.06,-0.00,-2.51,0,3.516,0.381,2.011,-0.038,0.006,-0.014,0.998,0.000,0.000,0.000,0.3580,1,1,-0.70,-0.34,-2.46,0.0066,0.0626,0.3572,0.0000,0.0000,0.3000,0.2557,2.43,-2.68,75.36,1.1960,0.5220,1.4790,1.1000,2.3290,0
11259,0.0438,0.0364,0.3571,-0.0050,-0.0002,-0.0229,0.07,-0.04,-2.52,0,3.510,2.108,0.939,1.367,0.008,-0.011,1.006,0.000,0.000,0.000,0.3580,0,1,-0.66,-0.24,-2.47,0.0048,0.0607,0.3563,0.0000,0.0000,0.3000,0.2566,2.63,-2.96,75.61,1.1960,0.5220,1.4790,1.0930,2.3360,0
11311,0.0404,0.0349,0.3565,-0.0105,-0.0033,-0.0189,0.06,0.08,-2.48,0,3.516,1.937,2.327,1.506,0.007,-0.014,1.002,0.000,0.000,0.000,0.3590,0,1,-0.56,-0.19,-2.40,0.0023,0.0601,0.3558,0.0000,0.0000,0.3000,0.2563,2.38,-2.45,74.46,1.1940,0.5180,1.4790,1.0930,2.3360,0
11362,0.0409,0.0351,0.3565,-0.0090,-0.0031,-0.0134,0.03,-0.01,-2.43,0,3.516,-0.103,-0.524,1.257,0.004,-0.010,1.005,0.000,0.000,0.000,0.3530,0,1,-0.47,-0.08,-2.32,-0.0003,0.0596,0.3560,0.0000,0.0000,0.3000,0.2557,2.40,-2.57,72.94,1.1940,0.5180,1.4820,1.0960,2.3370,0
11414,0.0345,0.0354,0.3571,-0.0195,-0.0025,-0.0067,0.01,-0.06,-2.35,0,3.510,0.017,1.226,1.733,0.006,-0.009,1.000,0.000,0.000,0.000,0.3580,0,1,-0.48,-0.11,-2.25,-0.0032,0.0592,0.3545,0.0000,0.0000,0.3000,0.2548,2.46,-1.60,70.35,1.1920,0.5140,1.4820,1.0960,2.3370,0
11466,0.0313,0.0357,0.3546,-0.0230,-0.0016,-0.0159,-0.02,-0.05,-2.25,0,3.510,-0.521,6.393,1.986,0.005,-0.008,1.004,0.000,0.000,0.000,0.3530,0,1,-0.48,-0.06,-2.16,-0.0062,0.0589,0.3549,0.0000,0.0000,0.3000,0.2563,2.52,-1.20,67.61,1.1920,0.5140,1.4890,1.1000,2.3320,0
11518,0.0297,0.0357,0.3556,-0.0234,-0.0015,-0.0075,-0.05,-0.19,-2.15,0,3.510,-2.483,1.386,2.322,0.009,-0.013,1.002,0.000,0.000,0.000,0.3510,0,0,-0.51,0.27,-2.06,-0.0093,0.0588,0.3538,0.0000,0.0000,0.3000,0.2552,2.53,-1.07,64.41,1.1740,0.5000,1.4890,1.1000,2.3320,0
11570,0.0258,0.0362,0.3539,-0.0264,-0.0001,-0.0121,-0.06,-0.33,-2.04,0,3.510,3.331,2.627,1.829,0.003,-0.014,1.001,0.000,0.000,0.000,0.3530,0,0,-0.64,0.34,-1.94,-0.0114,0.0581,0.3524,0.0477,0.0299,0.3000,0.2560,-6.75,8.79,61.08,1.1740,0.5000,1.4950,1.0930,2.3380,0
11621,0.0252,0.0343,0.3518,-0.0223,-0.0034,-0.0182,0.04,-0.44,-1.95,0,3.510,-1.055,-1.582,1.551,0.004,-0.013,0.999,0.000,0.000,0.000,0.3530,0,0,-0.47,0.48,-1.84,-0.0131,0.0573,0.3521,0.0477,0.0299,0.3000,0.2570,-7.02,8.61,58.59,1.1780,0.5080,1.4950,1.0930,2.3380,0
11673,0.0242,0.0341,0.3516,-0.0187,-0.0037,-0.0140,-0.03,-0.39,-1.88,0,3.510,-1.941,1.643,0.928,0.001,-0.018,1.005,0.000,0.000,0.000,0.3500,0,0,-0.52,0.40,-1.76,-0.0147,0.0564,0.3518,0.0477,0.0299,0.3000,0.2566,-7.06,8.52,56.49,1.1780,0.5080,1.5100,1.0930,2.3370,0
11724,0.0228,0.0338,0.3517,-0.0162,-0.0037,-0.0083,-0.06,-0.49,-1.85,0,3.510,2.647,-0.754,0.186,0.005,-0.015,1.003,0.000,0.000,0.000,0.3520,0,0,-0.62,0.49,-1.72,-0.0159,0.0552,0.3508,0.0477,0.0299,0.3000,0.2560,-7.10,8.53,55.40,1.1700,0.4990,1.5100,1.0930,2.3370,0
11775,0.0221,0.0336,0.3504,-0.0121,-0.0034,-0.0103,-0.08,-0.44,-1.82,0,3.510,-3.494,-4.314,1.124,0.001,-0.010,1.004,0.000,0.000,0.000,0.3510,-2,1,-0.48,0.45,-1.71,-0.0169,0.0539,0.3508,0.0477,0.0299,0.3000,0.2564,-7.08,8.37,54.73,1.1700,0.4990,1.5000,1.0970,2.3360,0
11827,0.0266,0.0297,0.3508,0.0002,-0.0094,-0.0042,-0.16,-0.27,-1.78,0,3.510,0.299,1.671,1.320,0.006,-0.013,1.003,0.000,0.000,0.000,0.3490,0,0,-0.75,0.23,-1.71,-0.0165,0.0683,0.3507,0.0477,0.0299,0.3000,0.2557,-7.67,7.49,53.32,1.1700,0.4990,1.5000,1.0970,2.3360,0
11879,0.0246,0.0320,0.3507,-0.0010,-0.0042,-0.0031,-0.01,-0.28,-1.71,0,3.505,-1.255,-3.127,2.415,0.005,-0.010,1.002,0.000,0.000,0.000,0.3530,0,1,-0.73,0.32,-1.64,-0.0168,0.0693,0.3500,0.0477,0.0299,0.3000,0.2556,-7.26,7.69,51.41,1.1700,0.4990,1.5080,1.0960,2.3400,0
11930,0.0254,0.0322,0.3497,0.0028,-0.0035,-0.0060,-0.06,-0.17,-1.61,0,3.510,0.255,1.749,1.861,0.003,-0.010,0.998,0.000,0.000,0.000,0.3500,0,0,-0.79,0.14,-1.50,-0.0184,0.0694,0.3509,0.0477,0.0299,0.3000,0.2561,-7.20,7.44,48.40,1.1610,0.4940,1.5080,1.0960,2.3400,0
11981,0.0246,0.0325,0.3511,0.0026,-0.0020,0.0012,-0.04,-0.19,-1.54,0,3.510,2.162,-1.740,0.449,0.003,-0.013,1.000,0.000,0.000,0.000,0.3530,0,0,-0.77,0.23,-1.41,-0.0188,0.0703,0.3505,0.0477,0.0299,0.3000,0.2551,-7.13,7.54,46.06,1.1610,0.4940,1.5190,1.0940,2.3360,0
12032,0.0264,0.0322,0.3506,0.0069,-0.0023,-0.0019,0.03,-0.16,-1.50,0,3.510,-2.323,-1.164,0.529,0.003,-0.015,1.000,0.000,0.000,0.000,0.3520,0,1,-0.66,0.14,-1.39,-0.0189,0.0712,0.3512,0.0477,0.0299,0.3000,0.2555,-7.16,7.20,44.97,1.1560,0.4960,1.5190,1.0940,2.3360,0
12084,0.0299,0.0331,0.3518,0.0136,-0.0005,0.0032,-0.05,-0.02,-1.47,0,3.510,-0.223,-3.192,1.074,0.000,-0.011,0.997,0.000,0.000,0.000,0.3530,0,0,-0.76,0.06,-1.35,-0.0216,0.0702,0.3515,0.0477,0.0299,0.3000,0.2547,-7.03,6.64,44.04,1.1560,0.4960,1.5190,1.0960,2.3390,0
12136,0.0275,0.0349,0.3520,0.0083,0.0030,0.0024,-0.07,0.17,-1.42,0,3.510,0.734,1.248,1.490,0.003,-0.011,0.994,0.000,0.000,0.000,0.3500,0,-1,-0.77,-0.11,-1.29,-0.0222,0.0707,0.3519,0.0477,0.0299,0.3000,0.2547,-6.73,7.07,42.46,1.1520,0.4840,1.5190,1.0960,2.3390,0
12187,0.0278,0.0367,0.3526,0.0068,0.0065,0.0029,0.01,0.10,-1.35,0,3.510,0.342,-3.249,1.916,0.005,-0.008,0.993,0.000,0.000,0.000,0.3490,0,0,-0.73,-0.01,-1.20,-0.0198,0.0705,0.3512,0.0477,0.0299,0.3000,0.2546,-6.44,7.13,40.45,1.1520,0.4840,1.5190,1.1000,2.3370,0
12239,0.0281,0.0420,0.3513,0.0058,0.0146,-0.0050,0.10,0.15,-1.27,0,3.505,3.352,-0.406,1.234,0.004,-0.014,0.995,0.000,0.000,0.000,0.3500,0,-1,-0.71,-0.17,-1.10,-0.0195,0.0709,0.3501,0.0477,0.0299,0.3000,0.2557,-5.64,7.12,38.00,1.1490,0.0000,1.5190,1.1000,2.3370,0
12290,0.0293,0.0430,0.3498,0.0057,0.0142,-0.0125,0.20,0.23,-1.21,0,3.505,-1.432,-2.597,1.594,0.002,-0.015,0.999,0.000,0.000,0.000,0.3520,0,-1,-0.53,-0.18,-1.04,-0.0171,0.0706,0.3495,0.0477,0.0299,0.3000,0.2568,-5.57,7.00,36.17,1.1490,0.0000,1.5270,1.0990,2.3380,0
12341,0.0301,0.0452,0.3492,0.0042,0.0154,-0.0137,0.20,0.27,-1.14,0,3.505,4.350,4.778,0.669,0.004,-0.012,0.996,0.000,0.000,0.000,0.3500,0,0,-0.61,-0.30,-0.95,-0.0151,0.0707,0.3496,0.0477,0.0299,0.3000,0.2570,-5.35,7.02,34.20,1.1400,0.4950,1.5270,1.0990,2.3380,0
12392,0.0304,0.0438,0.3500,0.0019,0.0099,-0.0083,0.33,0.16,-1.09,0,3.505,-2.552,-1.895,-0.062,0.001,-0.014,0.995,0.000,0.000,0.000,0.3490,0,1,-0.39,-0.05,-0.92,-0.0140,0.0707,0.3491,0.0477,0.0299,0.3000,0.2563,-5.72,7.13,32.68,1.1400,0.4950,1.5320,1.1020,2.3460,0
12443,0.0310,0.0453,0.3495,0.0017,0.0090,-0.0105,0.31,0.12,-1.08,0,3.500,-3.621,-2.226,0.301,0.007,-0.013,0.998,0.000,0.000,0.000,0.3490,0,0,-0.52,-0.19,-0.92,-0.0180,0.0709,0.3484,0.0477,0.0299,0.3000,0.2566,-5.65,7.08,32.33,1.1390,0.4860,1.5320,1.1020,2.3460,0
12495,0.0297,0.0426,0.3487,-0.0016,0.0012,-0.0141,0.24,0.10,-1.06,0,3.500,-3.232,1.123,-0.214,0.003,-0.015,0.996,0.000,0.000,0.000,0.3470,0,1,-0.70,-0.30,-0.90,-0.0180,0.0707,0.3478,0.0477,0.0299,0.3000,0.2571,-6.20,7.32,31.80,1.1390,0.4860,1.5300,1.1050,2.3410,0
12546,0.0278,0.0431,0.3481,-0.0056,0.0001,-0.0152,0.17,0.04,-1.07,0,3.500,-2.094,-1.733,-0.602,0.003,-0.012,1.000,0.000,0.000,0.000,0.3440,0,1,-0.87,-0.27,-0.91,-0.0211,0.0709,0.3467,0.0477,0.0299,0.3000,0.2574,-6.22,7.64,32.24,1.1380,0.4850,1.5300,1.1050,2.3410,0
12598,0.0297,0.0441,0.3467,-0.0018,0.0006,-0.0187,0.09,-0.02,-1.09,0,3.500,-2.976,-1.243,-0.206,0.004,-0.010,1.006,0.000,0.000,0.000,0.3470,0,-1,-0.98,-0.37,-0.94,-0.0233,0.0709,0.3449,0.0477,0.0299,0.3000,0.2580,-6.11,7.30,32.73,1.1380,0.4850,1.5320,1.1040,2.3480,0
12649,0.0263,0.0439,0.3443,-0.0075,-0.0005,-0.0242,0.07,-0.05,-1.09,0,3.500,1.312,0.093,1.271,0.004,-0.012,1.001,0.000,0.000,0.000,0.3450,0,1,-1.13,-0.41,-0.95,-0.0217,0.0709,0.3447,0.0477,0.0299,0.3000,0.2590,-6.15,7.78,32.68,1.1340,0.4780,1.5320,1.1040,2.3480,0
12701,0.0285,0.0428,0.3446,-0.0026,-0.0028,-0.0165,-0.01,-0.09,-1.05,0,3.500,-2.614,0.912,-0.177,0.004,-0.012,1.005,0.000,0.000,0.000,0.3460,0,0,-1.07,-0.42,-0.89,-0.0242,0.0711,0.3440,0.0477,0.0299,0.3000,0.2581,-6.35,7.42,31.40,1.1340,0.4780,1.5280,1.1060,2.3500,0
12753,0.0275,0.0435,0.3440,-0.0033,-0.0015,-0.0138,0.01,-0.17,-1.01,0,3.500,-4.930,-3.180,1.262,0.005,-0.011,1.005,0.000,0.000,0.000,0.3460,0,1,-1.20,-0.37,-0.90,-0.0253,0.0715,0.3440,0.0477,0.0299,0.3000,0.2580,-6.25,7.54,30.35,1.1370,0.0000,1.5280,1.1060,2.3500,0
12805,0.0273,0.0434,0.3444,-0.0019,-0.0013,-0.0074,-0.06,-0.14,-0.97,0,3.500,-4.788,-2.591,0.573,0.004,-0.009,1.003,0.000,0.000,0.000,0.3430,0,1,-1.45,-0.55,-0.84,-0.0278,0.0706,0.3443,0.0477,0.0299,0.3000,0.2572,-6.27,7.50,29.15,1.1370,0.0000,1.5390,1.1050,2.3520,0
12856,0.0259,0.0430,0.3449,-0.0029,-0.0012,-0.0023,-0.07,-0.18,-0.92,0,3.500,2.404,0.259,0.068,-0.001,-0.011,0.999,0.000,0.000,0.000,0.3430,0,0,-1.69,-0.69,-0.81,-0.0305,0.0709,0.3436,0.0477,0.0299,0.3000,0.2565,-6.30,7.67,27.66,1.1340,0.4820,1.5390,1.1050,2.3520,0
12907,0.0269,0.0414,0.3439,0.0005,-0.0037,-0.0064,0.00,-0.24,-0.90,0,3.494,-4.395,-3.889,1.516,0.002,-0.012,0.998,0.000,0.000,0.000,0.3430,0,0,-1.57,-0.68,-0.81,-0.0326,0.0721,0.3431,0.0477,0.0299,0.3000,0.2572,-6.52,7.42,26.90,1.1340,0.4820,1.5410,1.1040,2.3470,0
12958,0.0270,0.0412,0.3430,0.0028,-0.0035,-0.0090,-0.08,-0.17,-0.86,0,3.494,2.023,-3.269,-0.455,0.002,-0.012,0.996,0.000,0.000,0.000,0.3430,0,0,-1.80,-0.87,-0.73,-0.0349,0.0737,0.3426,0.0477,0.0299,0.3000,0.2576,-6.52,7.29,25.90,1.1360,0.0000,1.5410,1.1040,2.3470,0
13009,0.0261,0.0408,0.3425,0.0020,-0.0033,-0.0104,-0.01,-0.03,-0.87,0,3.500,2.933,4.530,-0.461,0.005,-0.013,0.997,0.000,0.000,0.000,0.3410,-1,2,-1.69,-1.04,-0.74,-0.0376,0.0758,0.3422,0.0477,0.0299,0.3000,0.2579,-6.53,7.39,26.13,1.1360,0.0000,1.5420,1.1070,2.3530,0
13062,0.0265,0.0424,0.3424,0.0029,-0.0004,-0.0099,0.09,-0.16,-0.89,0,3.494,1.993,2.609,-0.628,0.005,-0.014,1.000,0.000,0.000,0.000,0.3440,-3,0,-1.50,-0.77,-0.76,-0.0345,0.0706,0.3415,0.0477,0.0299,0.3000,0.2578,-6.28,7.31,26.64,1.1300,0.4790,1.5420,1.1070,2.3530,0
13113,0.0229,0.0404,0.3412,-0.0023,-0.0048,-0.0136,0.07,-0.13,-0.90,0,3.500,0.898,0.251,-0.141,0.006,-0.009,1.005,0.000,0.000,0.000,0.3420,0,-1,-1.41,-0.63,-0.76,-0.0359,0.0752,0.3418,0.0477,0.0299,0.3000,0.2585,-6.61,7.80,27.02,1.1300,0.4790,1.5450,1.1110,2.3550,0
13164,0.0243,0.0438,0.3420,0.0015,0.0003,-0.0069,0.10,-0.13,-0.91,0,3.500,-1.438,-3.290,-1.245,0.002,-0.010,0.999,0.000,0.000,0.000,0.3420,-2,2,-1.36,-0.60,-0.75,-0.0358,0.0768,0.3416,0.0477,0.0299,0.3000,0.2576,-6.15,7.55,27.45,1.1280,0.4730,1.5450,1.1110,2.3550,0
13216,0.0263,0.0422,0.3417,0.0062,-0.0035,-0.0077,0.10,-0.07,-0.97,0,3.500,0.652,-2.115,-0.824,0.004,-0.015,0.997,0.000,0.000,0.000,0.3370,0,0,-1.45,-0.79,-0.82,-0.0400,0.0815,0.3412,0.0477,0.0299,0.3000,0.2577,-6.44,7.18,29.03,1.1280,0.4730,1.5330,1.1090,2.3560,0
13268,0.0267,0.0429,0.3415,0.0070,-0.0033,-0.0086,0.07,0.03,-1.01,0,3.494,1.832,-0.362,0.190,-0.000,-0.012,0.997,0.000,0.000,0.000,0.3380,0,1,-1.41,-0.90,-0.86,-0.0425,0.0850,0.3394,0.0477,0.0299,0.3000,0.2579,-6.38,7.10,30.30,1.1290,0.0000,1.5330,1.1090,2.3560,0
13319,0.0311,0.0425,0.3388,0.0141,-0.0044,-0.0194,0.10,0.08,-1.02,0,3.489,-3.952,-7.352,0.274,-0.002,-0.014,1.003,0.000,0.000,0.000,0.3390,0,-1,-1.26,-0.90,-0.89,-0.0429,0.0814,0.3387,0.0477,0.0299,0.3000,0.2595,-6.42,6.42,30.46,1.1290,0.0000,1.5310,1.1040,2.3550,0
13370,0.0318,0.0422,0.3374,0.0136,-0.0053,-0.0206,0.05,0.21,-1.01,0,3.489,-4.606,-4.002,0.765,0.001,-0.012,1.004,0.000,0.000,0.000,0.3350,0,0,-1.46,-1.24,-0.84,-0.0424,0.0825,0.3383,0.0477,0.0299,0.3000,0.2599,-6.47,6.38,30.16,1.1320,0.4700,1.5310,1.1040,2.3550,0
13420,0.0317,0.0422,0.3374,0.0102,-0.0050,-0.0137,-0.11,0.36,-0.98,0,3.489,2.528,-1.589,0.185,0.001,-0.012,1.002,0.000,0.000,0.000,0.3360,-1,-2,-1.69,-1.45,-0.80,-0.0450,0.0848,0.3368,0.0477,0.0299,0.3000,0.2592,-6.48,6.57,29.49,1.1320,0.4700,1.5300,1.1050,2.3560,0
13472,0.0309,0.0412,0.3356,0.0049,-0.0056,-0.0176,-0.14,0.46,-0.95,0,3.489,1.756,1.985,0.960,-0.001,-0.010,1.006,0.000,0.000,0.000,0.3370,0,0,-1.55,-1.43,-0.66,-0.0350,0.0851,0.3366,0.0477,0.0299,0.3000,0.2599,-6.56,6.85,28.36,1.1300,0.4600,1.5300,1.1050,2.3560,0
13524,0.0328,0.0402,0.3351,0.0041,-0.0060,-0.0138,-0.06,0.30,-0.89,0,3.494,-1.242,0.352,1.518,0.006,-0.018,1.003,0.000,0.000,0.000,0.3330,2,0,-1.46,-1.32,-0.61,-0.0361,0.0880,0.3364,0.0477,0.0299,0.3000,0.2596,-6.65,6.77,26.74,1.1300,0.4600,1.5200,1.1060,2.3520,0
13575,0.0321,0.0410,0.3355,-0.0001,-0.0035,-0.0069,0.02,0.23,-0.81,0,3.489,1.710,1.618,1.192,0.002,-0.011,1.004,0.000,0.000,0.000,0.3350,0,0,-1.43,-1.28,-0.70,-0.0344,0.0783,0.3355,0.0477,0.0299,0.3000,0.2588,-6.50,7.04,24.35,1.1280,0.4430,1.5200,1.1060,2.3520,0
13626,0.0317,0.0405,0.3340,-0.0028,-0.0038,-0.0109,-0.04,0.24,-0.74,0,3.494,-3.330,2.766,1.305,0.001,-0.012,1.007,0.000,0.000,0.000,0.3320,-3,1,-1.35,-1.20,-0.64,-0.0358,0.0790,0.3352,0.0477,0.0299,0.3000,0.2595,-6.52,7.17,22.19,1.1280,0.4430,1.5410,1.1050,2.3520,0
13678,0.0307,0.0392,0.3340,-0.0064,-0.0058,-0.0062,-0.09,0.14,-0.67,0,3.489,0.557,4.237,0.947,0.005,-0.011,1.001,0.000,0.000,0.000,0.3340,-1,3,-1.58,-1.05,-0.44,-0.0373,0.0875,0.3341,0.0477,0.0299,0.3000,0.2590,-6.73,7.42,20.10,1.1290,0.0000,1.5410,1.1050,2.3520,0
13729,0.0328,0.0403,0.3328,-0.0025,-0.0025,-0.0088,-0.04,-0.03,-0.61,0,3.489,-4.459,-7.688,1.810,-0.003,-0.011,1.002,0.000,0.000,0.000,0.3290,0,0,-1.55,-0.86,-0.45,-0.0436,0.0908,0.3338,0.0477,0.0299,0.3000,0.2595,-6.48,7.09,18.24,1.1290,0.0000,1.5500,1.1040,2.3530,0
13780,0.0330,0.0408,0.3330,-0.0009,-0.0010,-0.0046,-0.08,0.07,-0.52,0,3.484,1.393,0.319,1.827,0.003,-0.013,1.000,0.000,0.000,0.000,0.3340,2,0,-1.78,-1.25,-0.35,-0.0471,0.0942,0.3321,0.0477,0.0299,0.3000,0.2590,-6.39,7.00,15.67,1.1220,0.0000,1.5500,1.1040,2.3530,0
13832,0.0330,0.0394,0.3308,-0.0013,-0.0033,-0.0118,-0.01,0.05,-0.44,0,3.494,-1.492,-0.753,-0.062,0.001,-0.011,1.008,0.000,0.000,0.000,0.3330,4,4,-1.60,-1.17,-0.37,-0.0430,0.0837,0.3334,0.0477,0.0299,0.3000,0.2602,-6.57,6.99,13.15,1.1220,0.0000,1.5570,1.1030,2.3530,0
13884,0.0320,0.0382,0.3318,-0.0036,-0.0050,-0.0032,-0.00,0.03,-0.41,0,3.489,-2.468,0.032,0.515,0.004,-0.012,0.999,0.000,0.000,0.000,0.3340,-2,-2,-1.61,-1.26,-0.57,-0.0517,0.0768,0.3333,0.0477,0.0299,0.3000,0.2591,-6.76,7.20,12.36,1.1250,0.0000,1.5570,1.1030,2.3530,0
13936,0.0298,0.0344,0.3324,-0.0078,-0.0121,0.0021,-0.13,-0.04,-0.39,0,3.489,-1.836,-0.885,-0.602,0.006,-0.012,1.004,0.000,0.000,0.000,0.3330,0,2,-1.78,-1.20,-0.39,-0.0493,0.0808,0.3340,0.0477,0.0299,0.3000,0.2584,-7.38,7.57,11.61,1.1250,0.0000,1.5670,1.1100,2.3560,0
13987,0.0302,0.0341,0.3333,-0.0061,-0.0108,0.0067,-0.15,-0.03,-0.41,0,3.489,0.217,-1.242,-1.429,0.002,-0.011,0.996,0.000,0.000,0.000,0.3360,0,0,-1.86,-1.26,-0.46,-0.0549,0.0813,0.3339,0.0477,0.0299,0.3000,0.2577,-7.36,7.49,12.22,1.1280,0.0000,1.5670,1.1100,2.3560,0
14038,0.0258,0.0339,0.3335,-0.0141,-0.0090,0.0058,-0.12,-0.14,-0.47,0,3.494,-0.449,3.541,-1.695,0.002,-0.013,0.991,0.000,0.000,0.000,0.3330,0,1,-1.85,-1.33,-0.53,-0.0593,0.0830,0.3347,0.0477,0.0299,0.3000,0.2578,-7.28,8.17,14.06,1.1280,0.0000,1.5630,1.1030,2.3530,0
14089,0.0242,0.0339,0.3350,-0.0152,-0.0070,0.0084,-0.18,-0.20,-0.55,0,3.489,0.689,2.338,-2.161,0.005,-0.009,0.995,0.000,0.000,0.000,0.3340,0,1,-1.84,-1.10,-0.60,-0.0566,0.0800,0.3346,0.0477,0.0299,0.3000,0.2572,-7.21,8.36,16.47,1.1320,0.0000,1.5630,1.1030,2.3530,0
14141,0.0234,0.0341,0.3342,-0.0134,-0.0044,0.0005,-0.16,-0.31,-0.65,0,3.489,2.203,-1.037,-2.867,0.004,-0.013,0.997,0.000,0.000,0.000,0.3330,-1,-2,-1.79,-0.98,-0.72,-0.0602,0.0807,0.3343,0.0477,0.0299,0.3000,0.2582,-7.04,8.30,19.40,1.1320,0.0000,1.5580,1.1020,2.3570,0
14192,0.0208,0.0337,0.3340,-0.0152,-0.0037,-0.0034,-0.09,-0.33,-0.77,0,3.484,-0.483,-2.039,-2.893,0.001,-0.012,0.997,0.000,0.000,0.000,0.3330,2,0,-1.68,-0.99,-0.75,-0.0567,0.0834,0.3339,0.0477,0.0299,0.3000,0.2587,-7.03,8.55,23.08,1.1410,0.0000,1.5580,1.1020,2.3570,0
14244,0.0227,0.0366,0.3333,-0.0070,0.0037,-0.0076,-0.06,-0.28,-0.90,0,3.489,1.303,-1.267,-2.676,0.003,-0.012,1.000,0.000,0.000,0.000,0.3320,-1,0,-1.66,-1.08,-0.95,-0.0575,0.0792,0.3335,0.0477,0.0299,0.3000,0.2592,-6.46,8.01,26.92,1.1410,0.0000,1.5510,1.1050,2.3560,0
14295,0.0223,0.0347,0.3327,-0.0049,0.0002,-0.0092,-0.11,-0.27,-1.01,0,3.484,-1.455,-2.118,-1.996,0.004,-0.012,1.000,0.000,0.000,0.000,0.3340,-1,1,-1.60,-1.14,-1.05,-0.0580,0.0821,0.3328,0.0477,0.0299,0.3000,0.2595,-6.75,7.94,30.40,1.1480,0.0000,1.5510,1.1050,2.3560,0
14347,0.0223,0.0360,0.3319,-0.0022,0.0038,-0.0110,-0.12,-0.17,-1.11,0,3.484,2.169,0.140,-2.857,0.005,-0.013,0.998,0.000,0.000,0.000,0.3340,1,0,-1.67,-1.25,-1.14,-0.0613,0.0854,0.3328,0.0477,0.0299,0.3000,0.2599,-6.48,7.80,33.33,1.1480,0.0000,1.5430,1.1020,2.3520,0
14398,0.0208,0.0382,0.3324,-0.0041,0.0092,-0.0074,-0.02,-0.11,-1.24,0,3.484,0.666,0.950,-2.947,0.000,-0.016,0.999,0.000,0.000,0.000,0.3300,0,0,-1.52,-1.23,-1.32,-0.0617,0.0829,0.3330,0.0477,0.0299,0.3000,0.2594,-6.08,8.01,37.28,1.1460,0.4640,1.5430,1.1020,2.3520,0
14450,0.0210,0.0389,0.3329,-0.0021,0.0102,-0.0034,0.00,-0.17,-1.38,0,3.484,1.549,-0.033,-1.066,0.004,-0.012,0.997,0.000,0.000,0.000,0.3300,0,0,-1.49,-1.18,-1.47,-0.0650,0.0851,0.3318,0.0477,0.0299,0.3000,0.2588,-5.99,7.92,41.39,1.1460,0.4640,1.5430,1.1020,2.3580,0
14502,0.0137,0.0389,0.3313,-0.0179,0.0089,-0.0098,0.06,-0.08,-1.47,0,3.479,2.915,-0.958,-2.034,0.005,-0.012,0.997,0.000,0.000,0.000,0.3310,0,0,-1.40,-1.19,-1.52,-0.0688,0.0878,0.3307,0.0477,0.0299,0.3000,0.2599,-6.03,9.14,44.09,1.1560,0.0000,1.5430,1.1020,2.3580,0
14554,0.0114,0.0389,0.3302,-0.0206,0.0073,-0.0126,0.15,-0.07,-1.52,0,3.484,-1.060,4.269,-0.184,0.000,-0.011,1.004,0.000,0.000,0.000,0.3270,0,1,-1.25,-1.24,-1.63,-0.0730,0.0908,0.3301,0.0477,0.0299,0.3000,0.2604,-6.09,9.40,45.72,1.1560,0.0000,1.5280,1.1080,2.3530,0
14606,0.0103,0.0383,0.3300,-0.0202,0.0039,-0.0103,0.09,-0.22,-1.54,0,3.479,-0.491,1.610,-0.187,0.005,-0.011,1.003,0.000,0.000,0.000,0.3320,0,1,-1.22,-0.91,-1.65,-0.0573,0.0770,0.3295,0.0477,0.0299,0.3000,0.2601,-6.31,9.47,46.09,1.1620,0.4800,1.5280,1.1080,2.3530,0
14658,0.0085,0.0386,0.3280,-0.0200,0.0033,-0.0162,0.03,-0.32,-1.54,0,3.484,-2.718,-3.445,0.782,0.006,-0.008,1.003,0.000,0.000,0.000,0.3270,0,0,-1.24,-0.83,-1.66,-0.0597,0.0776,0.3298,0.0542,0.0377,0.3000,0.2612,-6.78,9.99,46.29,1.1620,0.4800,1.5310,1.1010,2.3600,0
14709,0.0069,0.0388,0.3292,-0.0188,0.0032,-0.0059,-0.05,-0.28,-1.50,0,3.479,0.140,4.293,0.733,0.003,-0.013,1.002,0.000,0.000,0.000,0.3230,-1,0,-1.38,-1.00,-1.62,-0.0617,0.0787,0.3287,0.0606,0.0454,0.3000,0.2598,-7.27,10.52,45.00,1.1610,0.4820,1.5310,1.1010,2.3600,0
14761,0.0069,0.0376,0.3278,-0.0141,0.0002,-0.0095,-0.05,-0.40,-1.47,0,3.479,-0.804,-3.834,0.292,0.006,-0.014,1.004,0.000,0.000,0.000,0.3290,0,0,-1.38,-0.75,-1.56,-0.0600,0.0803,0.3266,0.0671,0.0530,0.3000,0.2605,-7.92,10.71,44.13,1.1610,0.4820,1.5310,1.1030,2.3550,0
14812,0.0066,0.0391,0.3250,-0.0100,0.0037,-0.0177,-0.08,-0.39,-1.42,0,3.479,2.635,-2.462,0.932,0.001,-0.007,1.001,0.000,0.000,0.000,0.3270,0,0,-1.42,-0.95,-1.54,-0.0618,0.0820,0.3269,0.0735,0.0606,0.3000,0.2619,-8.04,10.89,42.71,1.1570,0.0000,1.5310,1.1030,2.3550,0
14864,0.0062,0.0393,0.3264,-0.0067,0.0044,-0.0050,-0.01,-0.29,-1.38,0,3.479,1.204,2.544,1.996,-0.001,-0.013,1.006,0.000,0.000,0.000,0.3320,0,0,-1.29,-1.08,-1.49,-0.0639,0.0843,0.3266,0.0799,0.0681,0.3000,0.2602,-8.44,11.25,41.25,1.1570,0.0000,1.5330,1.1060,2.3630,0
14914,0.0055,0.0395,0.3265,-0.0056,0.0047,-0.0011,-0.07,-0.13,-1.32,0,3.484,-2.101,-3.056,0.438,0.001,-0.008,1.003,0.000,0.000,0.000,0.3270,-1,0,-1.23,-0.94,-1.39,-0.0665,0.0868,0.3282,0.0862,0.0755,0.3000,0.2598,-8.80,11.68,39.72,1.1560,0.4650,1.5330,1.1060,2.3630,0
14966,0.0066,0.0392,0.3294,-0.0012,0.0039,0.0127,-0.04,-0.19,-1.27,0,3.484,-1.021,-1.766,1.331,0.004,-0.011,0.998,0.000,0.000,0.000,0.3280,-1,0,-1.28,-1.01,-1.36,-0.0582,0.0821,0.3285,0.0925,0.0827,0.3000,0.2578,-9.27,11.89,38.24,1.1560,0.4650,1.5450,1.1010,2.3620,0
15017,0.0071,0.0403,0.3288,0.0017,0.0059,0.0069,0.01,-0.11,-1.23,0,3.479,-1.237,1.670,1.510,0.005,-0.012,0.997,0.000,0.000,0.000,0.3300,-4,0,-1.34,-1.10,-1.28,-0.0588,0.0841,0.3285,0.0988,0.0899,0.3000,0.2585,-9.40,12.08,36.79,1.1540,0.4880,1.5450,1.1010,2.3620,0
15069,0.0061,0.0388,0.3287,0.0002,0.0018,0.0038,-0.03,-0.06,-1.17,0,3.484,3.875,0.312,0.750,0.003,-0.009,0.995,0.000,0.000,0.000,0.3300,2,0,-1.44,-1.01,-1.16,-0.0597,0.0899,0.3290,0.1051,0.0969,0.3000,0.2589,-9.98,12.60,35.15,1.1540,0.4880,1.5480,1.1110,2.3620,0
15121,0.0066,0.0434,0.3295,0.0016,0.0110,0.0050,0.06,-0.07,-1.13,0,3.479,-2.444,-0.132,1.375,0.002,-0.012,0.996,0.000,0.000,0.000,0.3310,0,0,-1.20,-0.99,-1.16,-0.0605,0.0892,0.3295,0.1114,0.1038,0.3000,0.2586,-9.51,12.90,33.85,1.1490,0.4690,1.5480,1.1110,2.3620,0
15172,0.0069,0.0432,0.3300,0.0026,0.0095,0.0045,0.01,-0.06,-1.08,0,3.484,1.315,1.408,1.284,0.006,-0.008,0.994,0.000,0.000,0.000,0.3300,0,0,-1.33,-0.99,-1.09,-0.0622,0.0918,0.3300,0.1175,0.1103,0.3000,0.2585,-9.83,13.21,32.32,1.1490,0.4690,1.5680,1.1050,2.3640,0
15223,0.0071,0.0447,0.3306,0.0033,0.0113,0.0041,0.04,-0.04,-1.01,0,3.479,2.115,-0.142,0.204,0.005,-0.007,0.996,0.000,0.000,0.000,0.3240,0,0,-1.26,-0.92,-1.03,-0.0642,0.0947,0.3298,0.1236,0.1167,0.3000,0.2584,-9.86,13.53,30.20,1.1490,0.4760,1.5680,1.1050,2.3640,0
15274,0.0063,0.0458,0.3304,0.0016,0.0122,-0.0003,0.13,-0.03,-0.96,0,3.479,4.418,1.263,0.831,0.004,-0.008,0.998,0.000,0.000,0.000,0.3290,0,0,-1.16,-0.93,-1.02,-0.0664,0.0979,0.3277,0.1297,0.1228,0.3000,0.2590,-9.89,13.99,28.72,1.1490,0.4760,1.5530,1.1080,2.3630,0
15324,0.0062,0.0489,0.3271,0.0015,0.0164,-0.0167,0.15,-0.01,-0.90,0,3.473,0.160,-4.422,0.718,0.005,-0.009,0.996,0.000,0.000,0.000,0.3280,0,0,-0.93,-0.86,-0.98,-0.0690,0.1015,0.3276,0.1356,0.1286,0.3000,0.2614,-9.55,14.23,26.92,1.1470,0.4570,1.5530,1.1080,2.3630,0
15376,0.0064,0.0504,0.3273,0.0018,0.0165,-0.0124,0.13,0.07,-0.85,0,3.479,-0.551,-1.509,1.363,0.002,-0.013,1.000,0.000,0.000,0.000,0.3290,0,0,-0.92,-1.08,-0.94,-0.0718,0.1054,0.3271,0.1416,0.1343,0.3000,0.2608,-9.58,14.57,25.48,1.1470,0.4570,1.5640,1.1020,2.3660,0
15428,0.0056,0.0506,0.3271,-0.0005,0.0140,-0.0110,0.19,0.01,-0.76,0,3.473,3.133,4.995,0.271,0.006,-0.015,0.997,0.000,0.000,0.000,0.3260,0,1,-0.95,-1.16,-0.87,-0.0752,0.1094,0.3271,0.1476,0.1397,0.3000,0.2607,-9.77,15.07,22.84,1.1450,0.4460,1.5640,1.1020,2.3660,0
15479,0.0042,0.0514,0.3276,-0.0030,0.0126,-0.0073,0.24,-0.12,-0.73,0,3.479,-1.402,-4.458,0.286,0.003,-0.011,1.000,0.000,0.000,0.000,0.3260,0,0,-0.67,-0.80,-0.95,-0.0600,0.0905,0.3271,0.1534,0.1448,0.3000,0.2602,-9.86,15.61,21.99,1.1450,0.4460,1.5850,1.1120,2.3660,0
15530,0.0021,0.0507,0.3264,-0.0060,0.0084,-0.0104,0.18,0.02,-0.69,0,3.473,-0.417,-1.623,0.798,0.007,-0.014,1.002,0.000,0.000,0.000,0.3230,0,0,-0.74,-1.02,-0.94,-0.0609,0.0907,0.3262,0.1591,0.1496,0.3000,0.2608,-10.10,16.17,20.85,1.1410,0.4480,1.5850,1.1120,2.3660,0
15581,-0.0014,0.0485,0.3258,-0.0126,0.0020,-0.0103,0.10,0.02,-0.65,0,3.473,-1.807,2.662,0.695,0.004,-0.007,1.004,0.000,0.000,0.000,0.3270,0,0,-0.76,-1.11,-0.90,-0.0620,0.0909,0.3248,0.1648,0.1540,0.3000,0.2609,-10.54,16.98,19.39,1.1410,0.4480,1.5920,1.1080,2.3710,0
15632,-0.0034,0.0486,0.3239,-0.0153,0.0010,-0.0158,0.05,-0.10,-0.64,0,3.473,-1.541,-0.065,0.475,0.002,-0.012,1.001,0.000,0.000,0.000,0.3240,0,0,-0.86,-0.97,-0.86,-0.0636,0.0912,0.3250,0.1704,0.1582,0.3000,0.2619,-10.51,17.46,19.09,1.1460,0.4380,1.5920,1.1080,2.3710,0
15684,-0.0055,0.0472,0.3248,-0.0167,-0.0020,-0.0065,0.01,-0.22,-0.60,0,3.479,-0.938,1.904,1.440,0.005,-0.009,1.010,0.000,0.000,0.000,0.3240,0,1,-0.93,-0.97,-0.84,-0.0656,0.0917,0.3242,0.1761,0.1620,0.3000,0.2607,-10.73,18.02,18.12,1.1460,0.4380,1.5890,1.1080,2.3690,0
15736,-0.0082,0.0478,0.3241,-0.0187,-0.0008,-0.0068,-0.07,-0.19,-0.55,0,3.468,-0.715,1.815,1.909,0.005,-0.012,1.001,0.000,0.000,0.000,0.3260,0,0,-0.97,-0.83,-0.81,-0.0628,0.0905,0.3241,0.1816,0.1655,0.3000,0.2608,-10.53,18.54,16.52,1.1470,0.0000,1.5890,1.1080,2.3690,0
15787,-0.0102,0.0466,0.3238,-0.0191,-0.0024,-0.0053,-0.07,-0.22,-0.48,0,3.473,-0.367,3.123,1.680,-0.000,-0.010,0.998,0.000,0.000,0.000,0.3200,0,1,-1.01,-0.73,-0.71,-0.0640,0.0908,0.3246,0.1869,0.1686,0.3000,0.2607,-10.56,18.96,14.50,1.1470,0.0000,1.5990,1.1060,2.3690,0
15839,-0.0112,0.0436,0.3246,-0.0173,-0.0077,-0.0011,0.01,-0.40,-0.42,0,3.473,-5.255,1.227,2.423,0.004,-0.014,0.997,0.000,0.000,0.000,0.3240,1,1,-1.02,-0.57,-0.63,-0.0655,0.0909,0.3231,0.1923,0.1714,0.3000,0.2601,-10.88,19.24,12.73,1.1450,0.0000,1.5990,1.1060,2.3690,0
15890,-0.0135,0.0427,0.3221,-0.0170,-0.0087,-0.0133,-0.02,-0.46,-0.36,0,3.473,-4.594,-2.593,2.228,0.002,-0.009,1.003,0.000,0.000,0.000,0.3230,3,0,-1.28,-0.51,-0.51,-0.0676,0.0903,0.3230,0.1974,0.1738,0.3000,0.2619,-10.73,19.50,10.85,1.1450,0.0000,1.6060,1.1040,2.3680,0
15942,-0.0168,0.0416,0.3224,-0.0179,-0.0096,-0.0086,-0.11,-0.42,-0.27,0,3.468,-2.006,0.265,1.191,-0.001,-0.012,1.004,0.000,0.000,0.000,0.3220,0,0,-1.48,-0.63,-0.39,-0.0690,0.0872,0.3229,0.2026,0.1758,0.3000,0.2613,-10.66,20.02,8.17,1.1490,0.3970,1.6060,1.1040,2.3680,0
15993,-0.0174,0.0367,0.3224,-0.0139,-0.0167,-0.0052,-0.21,-0.35,-0.19,0,3.473,-2.583,0.317,1.551,0.000,-0.013,1.001,0.000,0.000,0.000,0.3240,0,0,-1.59,-0.62,-0.33,-0.0711,0.0868,0.3225,0.2075,0.1773,0.3000,0.2610,-11.09,20.13,5.64,1.1490,0.3970,1.6160,1.1040,2.3710,0
16044,-0.0177,0.0350,0.3220,-0.0103,-0.0168,-0.0039,-0.22,-0.36,-0.10,0,3.473,-3.956,-1.755,1.538,0.005,-0.014,1.001,0.000,0.000,0.000,0.3210,0,0,-1.72,-0.60,-0.25,-0.0734,0.0868,0.3229,0.2124,0.1786,0.3000,0.2609,-10.94,20.22,3.12,1.1480,0.3640,1.6160,1.1040,2.3710,0
16095,-0.0177,0.0336,0.3229,-0.0062,-0.0160,0.0020,-0.30,-0.37,-0.04,0,3.473,0.477,-2.493,1.006,0.004,-0.011,1.005,0.000,0.000,0.000,0.3190,0,0,-1.92,-0.68,-0.17,-0.0759,0.0872,0.3223,0.2171,0.1794,0.3000,0.2601,-10.75,20.32,1.20,1.1480,0.3640,1.6260,1.1030,2.3740,0
16147,-0.0182,0.0336,0.3221,-0.0036,-0.0119,-0.0007,-0.32,-0.29,0.02,0,3.468,0.246,1.591,0.911,0.006,-0.009,1.002,0.000,0.000,0.000,0.3180,0,0,-1.90,-0.81,-0.12,-0.0786,0.0882,0.3212,0.2219,0.1798,0.3000,0.2606,-10.20,20.40,-0.48,1.1470,0.0000,1.6260,1.1030,2.3740,0
16199,-0.0166,0.0347,0.3204,0.0022,-0.0061,-0.0073,-0.28,-0.35,0.05,0,3.468,1.961,-4.593,-0.083,0.005,-0.010,1.006,0.000,0.000,0.000,0.3220,-1,0,-1.88,-0.72,-0.07,-0.0816,0.0898,0.3201,0.2264,0.1798,0.3000,0.2616,-9.48,20.18,-1.40,1.1470,0.0000,1.6260,1.1060,2.3720,0
16250,-0.0171,0.0326,0.3188,0.0039,-0.0075,-0.0114,-0.17,-0.23,0.03,0,3.468,-1.272,-3.498,-1.076,0.000,-0.011,1.000,0.000,0.000,0.000,0.3220,0,0,-1.73,-0.87,0.02,-0.0693,0.0834,0.3213,0.2308,0.1795,0.3000,0.2623,-9.28,20.26,-0.95,1.1430,0.0000,1.6260,1.1060,2.3720,0
16301,-0.0156,0.0346,0.3200,0.0080,-0.0016,-0.0028,-0.20,-0.11,-0.01,0,3.473,3.696,0.407,-2.333,-0.002,-0.013,0.996,0.000,0.000,0.000,0.3230,1,0,-1.80,-1.05,-0.03,-0.0699,0.0845,0.3216,0.2351,0.1787,0.3000,0.2612,-8.51,20.25,0.23,1.1430,0.0000,1.6270,1.1070,2.3720,0
16353,-0.0163,0.0364,0.3209,0.0066,0.0035,0.0024,-0.10,-0.03,-0.10,0,3.468,1.111,1.105,-1.306,-0.001,-0.011,1.001,0.000,0.000,0.000,0.3220,0,0,-1.58,-1.02,-0.15,-0.0702,0.0836,0.3222,0.2394,0.1775,0.3000,0.2604,-7.74,20.56,3.11,1.1450,0.0000,1.6270,1.1070,2.3720,0
16404,-0.0153,0.0377,0.3221,0.0081,0.0066,0.0070,0.02,-0.02,-0.21,0,3.473,1.798,2.694,-1.325,0.002,-0.012,0.998,0.000,0.000,0.000,0.3260,0,0,-1.52,-0.96,-0.22,-0.0715,0.0848,0.3223,0.2434,0.1760,0.3000,0.2597,-7.08,20.64,6.18,1.1450,0.0000,1.6190,1.1060,2.3690,0
16456,-0.0155,0.0373,0.3224,0.0070,0.0049,0.0058,0.09,0.03,-0.29,0,3.473,1.234,-2.309,-1.428,0.001,-0.008,0.995,0.000,0.000,0.000,0.3230,-1,0,-1.43,-0.83,-0.29,-0.0733,0.0864,0.3236,0.2474,0.1741,0.3000,0.2598,-6.71,20.83,8.62,1.1520,0.0000,1.6190,1.1060,2.3690,0
16508,-0.0141,0.0375,0.3245,0.0086,0.0040,0.0120,0.07,0.23,-0.35,0,3.473,4.974,3.427,-2.248,0.005,-0.007,0.993,0.000,0.000,0.000,0.3190,0,0,-1.34,-0.91,-0.33,-0.0710,0.0863,0.3238,0.2512,0.1717,0.3000,0.2587,-6.27,20.88,10.50,1.1520,0.0000,1.6220,1.1080,2.3670,0
16559,-0.0155,0.0391,0.3243,0.0032,0.0057,0.0052,0.25,0.15,-0.46,0,3.468,-1.710,0.654,-2.373,0.000,-0.015,0.997,0.000,0.000,0.000,0.3220,0,3,-1.08,-0.73,-0.45,-0.0720,0.0881,0.3222,0.2549,0.1690,0.3000,0.2595,-5.54,21.25,13.69,1.1540,0.0000,1.6220,1.1080,2.3670,0
16611,-0.0154,0.0393,0.3216,0.0022,0.0034,-0.0106,0.27,0.07,-0.57,0,3.468,-2.644,-0.941,-2.460,-0.001,-0.011,0.996,0.000,0.000,0.000,0.3200,0,-1,-1.14,-0.74,-0.60,-0.0775,0.0878,0.3219,0.2584,0.1660,0.3000,0.2617,-5.05,21.23,17.19,1.1540,0.0000,1.6240,1.1080,2.3730,0
16662,-0.0212,0.0380,0.3213,-0.0093,-0.0016,-0.0115,0.26,0.04,-0.71,0,3.463,-1.984,3.011,-2.416,0.005,-0.009,1.004,0.000,0.000,0.000,0.3250,0,0,-1.27,-0.77,-0.72,-0.0781,0.0887,0.3210,0.2618,0.1626,0.3000,0.2619,-4.84,22.14,21.30,1.1610,0.4110,1.6240,1.1080,2.3730,0
16713,-0.0210,0.0383,0.3200,-0.0084,-0.0031,-0.0141,0.21,-0.04,-0.85,0,3.473,-0.216,3.768,-3.651,0.006,-0.007,0.997,0.000,0.000,0.000,0.3200,0,1,-1.37,-0.62,-0.85,-0.0806,0.0904,0.3219,0.2650,0.1588,0.3000,0.2624,-4.33,22.13,25.46,1.1610,0.4110,1.6020,1.1040,2.3820,0
16764,-0.0245,0.0337,0.3220,-0.0139,-0.0130,-0.0032,0.16,-0.09,-0.98,0,3.468,-1.727,4.649,-1.829,-0.001,-0.006,0.998,0.000,0.000,0.000,0.3190,0,0,-1.35,-0.42,-1.04,-0.0815,0.0891,0.3212,0.2681,0.1548,0.3000,0.2608,-4.57,22.77,29.46,1.1650,0.0000,1.6020,1.1040,2.3820,0
16815,-0.0259,0.0337,0.3207,-0.0141,-0.0130,-0.0082,0.06,-0.27,-1.10,0,3.468,-1.437,1.800,-1.377,0.002,-0.011,1.002,0.000,0.000,0.000,0.3200,0,0,-1.44,-0.18,-1.14,-0.0839,0.0907,0.3201,0.2710,0.1504,0.3000,0.2616,-3.99,22.86,32.94,1.1650,0.0000,1.5910,1.1040,2.3760,0
16865,-0.0283,0.0276,0.3194,-0.0151,-0.0238,-0.0120,-0.01,-0.30,-1.18,0,3.463,-1.959,2.299,-1.136,-0.001,-0.008,0.995,0.000,0.000,0.000,0.3180,0,0,-1.51,-0.09,-1.21,-0.0862,0.0927,0.3197,0.2738,0.1457,0.3000,0.2623,-4.33,23.04,35.39,1.1740,0.4150,1.5910,1.1040,2.3760,0
16917,-0.0313,0.0265,0.3191,-0.0167,-0.0235,-0.0121,-0.10,-0.37,-1.27,0,3.468,-3.231,0.633,-0.541,0.007,-0.013,1.006,0.000,0.000,0.000,0.3200,0,0,-1.61,0.02,-1.27,-0.0887,0.0953,0.3186,0.2765,0.1406,0.3000,0.2623,-3.79,23.32,38.01,1.1740,0.4150,1.5960,1.0990,2.3780,0
16969,-0.0317,0.0235,0.3179,-0.0128,-0.0258,-0.0138,-0.27,-0.40,-1.30,0,3.457,-1.344,-1.542,-0.230,-0.003,-0.011,1.003,0.000,0.000,0.000,0.3170,2,0,-1.78,0.05,-1.30,-0.0910,0.0982,0.3186,0.2790,0.1352,0.3000,0.2627,-3.50,23.20,39.12,1.1710,0.4060,1.5960,1.0990,2.3780,0
17020,-0.0308,0.0214,0.3183,-0.0065,-0.0250,-0.0079,-0.38,-0.51,-1.32,0,3.457,-10.659,108.872,0.640,-0.008,-0.013,1.001,0.000,0.000,0.000,0.3160,0,9,-1.71,0.04,-1.16,-0.0834,0.0797,0.3187,0.2813,0.1296,0.3000,0.2620,-3.02,22.97,39.58,1.1710,0.4060,1.5770,1.0910,2.3770,0
17071,-0.0235,0.0199,0.3172,0.0182,-0.0213,-0.0105,-0.93,-5.15,-1.31,0,3.463,0.665,106.036,0.857,0.005,-0.009,1.013,0.000,0.000,0.000,0.3140,0,7,-2.27,5.53,-1.38,-0.0902,0.0800,0.3200,0.2835,0.1238,0.3000,0.2625,-2.34,21.51,39.34,1.1440,0.0000,1.5770,1.0910,2.3770,0
17121,-0.0220,0.0179,0.3161,0.0725,-0.0164,-0.0125,-1.12,-10.54,-1.37,0,3.463,7.961,10.530,2.385,-0.001,-0.012,1.008,0.000,0.000,0.000,0.3150,0,-2,-2.27,10.87,-1.65,-0.0961,0.0809,0.3216,0.2856,0.1177,0.3000,0.2629,-1.64,19.14,41.16,1.1440,0.0000,1.5510,1.0910,2.4020,0
17172,-0.0238,0.0163,0.3144,0.1342,-0.0127,-0.0213,-0.79,-11.55,-1.30,0,3.457,0.064,-4.926,2.236,-0.008,-0.012,0.999,0.000,0.000,0.000,0.3160,0,-5,-1.83,11.41,-1.47,-0.0920,0.0811,0.3194,0.2875,0.1114,0.3000,0.2642,-0.96,16.54,38.92,1.1000,0.0000,1.5510,1.0910,2.4020,0
17224,-0.0127,0.0169,0.3131,0.2371,-0.0056,-0.0284,-0.91,-11.23,-1.17,0,3.457,-4.353,-9.569,3.903,-0.004,-0.011,1.010,0.000,0.000,0.000,0.3110,0,-9,-1.77,11.20,-1.18,-0.0807,0.0810,0.3165,0.2892,0.1049,0.3000,0.2652,0.03,11.20,35.00,1.1000,0.0000,1.5270,1.0900,2.4270,0
17275,-0.0025,0.0169,0.3129,0.3244,0.0005,-0.0286,-1.02,-10.85,-0.98,0,3.452,6.998,-33.043,3.840,-0.012,-0.015,1.015,0.000,0.000,0.000,0.3110,0,-8,-1.89,10.78,-0.69,-0.0601,0.0803,0.3105,0.2908,0.0981,0.3000,0.2653,0.91,6.50,29.54,1.0780,0.0000,1.5270,1.0900,2.4270,0
17327,0.0171,0.0141,0.3103,0.4195,0.0013,-0.0359,-0.71,-9.26,-0.72,0,3.457,-1.118,-48.039,5.234,-0.017,-0.015,1.015,0.000,0.000,0.000,0.3090,0,-15,-1.44,9.12,-0.22,-0.0371,0.0801,0.3078,0.2922,0.0911,0.3000,0.2666,1.35,0.67,21.70,1.0780,0.0000,1.4910,1.0940,2.4250,0
17377,0.0384,0.0147,0.3089,0.4958,0.0077,-0.0329,-0.64,-6.97,-0.46,0,3.452,-2.162,-48.925,5.601,-0.019,-0.013,1.022,0.000,0.000,0.000,0.3060,1,-10,-1.40,6.74,0.42,0.0003,0.0796,0.3012,0.2934,0.0841,0.3000,0.2665,2.28,-4.40,13.69,1.0440,0.0000,1.4910,1.0940,2.4250,0
17429,0.0632,0.0173,0.3077,0.5524,0.0176,-0.0259,-0.72,-4.42,-0.15,0,3.452,1.753,-50.386,6.496,-0.024,-0.009,1.022,0.000,0.000,0.000,0.3080,0,-6,-1.40,4.31,1.21,0.0310,0.0771,0.3007,0.2945,0.0769,0.3000,0.2660,3.50,-8.79,4.48,1.0440,0.0000,1.4550,1.0990,2.4030,0
17480,0.0867,0.0154,0.3060,0.5798,0.0170,-0.0185,-0.61,-1.82,0.24,0,3.452,-5.082,-44.640,7.231,-0.023,-0.010,1.019,0.000,0.000,0.000,0.2990,-2,-16,-1.29,1.61,1.63,0.0529,0.0781,0.3053,0.2955,0.0695,0.3000,0.2655,3.91,-11.70,-7.18,1.0020,0.0000,1.4550,1.0990,2.4030,0
17531,0.1135,0.0142,0.3066,0.5764,0.0179,-0.0001,-0.58,0.50,0.61,0,3.452,-5.735,-33.920,6.509,-0.020,-0.010,1.021,0.000,0.000,0.000,0.3070,0,-10,-1.58,-0.55,1.68,0.0981,0.0853,0.3000,0.2963,0.0621,0.3000,0.2634,4.47,-13.53,-18.34,1.0020,0.0000,1.4320,1.0930,2.3860,0
17582,0.1312,0.0130,0.3031,0.5578,0.0164,-0.0090,-0.68,2.39,0.97,0,3.452,7.348,-27.248,3.942,-0.022,-0.011,1.015,0.000,0.000,0.000,0.3240,0,-11,-1.87,-2.28,2.18,0.1294,0.0866,0.3024,0.2969,0.0545,0.3000,0.2650,4.84,-13.90,-29.14,0.9500,0.0000,1.4320,1.0930,2.3860,0
17634,0.1552,0.0141,0.3050,0.5274,0.0219,0.0091,-0.50,3.75,1.22,0,3.473,1.023,-19.139,4.020,-0.017,-0.014,1.006,0.000,0.000,0.000,0.3240,5,-15,-1.50,-3.63,2.51,0.1661,0.0887,0.3091,0.2973,0.0468,0.3000,0.2627,5.76,-14.38,-36.56,0.9500,0.0000,1.4200,1.0920,2.3850,0
17686,0.1776,0.0170,0.3154,0.4834,0.0301,0.0579,-0.43,4.78,1.43,0,3.473,2.323,-11.337,3.855,-0.019,-0.015,0.989,0.000,0.000,0.000,0.3220,0,-4,-1.41,-4.51,3.27,0.2121,0.0773,0.3132,0.2976,0.0391,0.3000,0.2555,7.06,-14.42,-42.79,0.8970,0.0000,1.4200,1.0920,2.3850,0
17737,0.2019,0.0162,0.3224,0.4440,0.0269,0.0741,-0.38,5.48,1.61,0,3.473,2.350,-4.740,5.417,-0.011,-0.010,0.977,0.000,0.000,0.000,0.3230,0,-11,-1.30,-5.20,3.42,0.2274,0.0783,0.3199,0.2977,0.0315,0.3000,0.2524,7.45,-14.59,-48.37,0.8970,0.0000,1.4000,1.0880,2.3880,0
17788,0.2198,0.0184,0.3253,0.3898,0.0310,0.0620,-0.29,5.74,1.86,0,3.473,0.952,-0.532,4.383,-0.015,-0.013,0.974,0.000,0.000,0.000,0.3220,-3,-2,-1.22,-5.37,3.73,0.2620,0.0805,0.3213,0.2977,0.0238,0.3000,0.2531,8.29,-13.44,-55.76,0.8510,0.0000,1.4000,1.0880,2.3880,0
17840,0.2392,0.0181,0.3266,0.3446,0.0264,0.0408,-0.10,5.81,2.06,0,3.468,1.132,2.508,2.065,-0.009,-0.016,0.974,0.000,0.000,0.000,0.3200,0,0,-1.25,-5.49,4.03,0.2692,0.0902,0.3237,0.2974,0.0161,0.3000,0.2552,8.46,-12.75,-61.79,0.8510,0.0000,1.3910,1.0880,2.3890,0
17891,0.2532,0.0195,0.3259,0.2916,0.0258,0.0124,-0.10,5.64,2.18,0,3.457,-5.745,8.799,1.721,-0.003,-0.010,0.975,0.000,0.000,0.000,0.3190,0,0,-1.20,-5.36,4.14,0.2871,0.0928,0.3225,0.2971,0.0084,0.3000,0.2584,8.88,-11.31,-65.29,0.8150,0.0000,1.3910,1.0880,2.3890,0
17943,0.2667,0.0207,0.3230,0.2447,0.0248,-0.0157,-0.34,5.21,2.25,0,3.457,2.427,8.743,0.514,-0.002,-0.010,0.984,0.000,0.000,0.000,0.3170,-1,-2,-1.50,-4.91,4.22,0.3029,0.0956,0.3205,0.2965,0.0007,0.3000,0.2619,9.23,-10.13,-67.56,0.8150,0.0000,1.3840,1.0850,2.3880,0
17994,0.2766,0.0192,0.3200,0.1966,0.0180,-0.0348,-0.26,4.82,2.24,0,3.452,0.599,9.396,-1.391,-0.004,-0.008,0.994,0.000,0.000,0.000,0.3150,1,1,-1.33,-4.73,4.05,0.2663,0.0902,0.3199,0.2958,-0.0068,0.3000,0.2646,9.12,-8.70,-67.34,0.7880,0.0000,1.3840,1.0850,2.3880,0
18046,0.2832,0.0262,0.3167,0.1495,0.0353,-0.0468,-0.29,4.37,2.24,0,3.447,2.807,13.487,-0.215,-0.002,-0.015,1.006,0.000,0.000,0.000,0.3150,-2,0,-1.27,-4.27,3.86,0.2663,0.0890,0.3163,0.2949,-0.0142,0.3000,0.2665,10.67,-7.15,-67.35,0.7880,0.0000,1.3810,1.0900,2.3900,0
18097,0.2906,0.0250,0.3137,0.1148,0.0283,-0.0499,-0.13,3.62,2.17,0,3.447,3.442,17.415,-2.107,0.001,-0.012,1.013,0.000,0.000,0.000,0.3070,0,0,-1.15,-3.57,3.97,0.2657,0.0935,0.3141,0.2939,-0.0215,0.3000,0.2674,10.58,-6.26,-65.07,0.7690,0.0000,1.3810,1.0900,2.3900,0
18148,0.2938,0.0275,0.3122,0.0789,0.0311,-0.0423,0.07,2.85,2.09,0,3.447,0.352,11.103,-1.219,0.004,-0.013,1.018,0.000,0.000,0.000,0.3040,2,-2,-0.97,-2.69,3.85,0.2643,0.0955,0.3104,0.2927,-0.0286,0.3000,0.2669,11.21,-5.07,-62.71,0.7690,0.0000,1.3750,1.0990,2.3970,0
18199,0.2971,0.0276,0.3078,0.0536,0.0261,-0.0471,0.13,2.22,1.99,0,3.442,-0.866,9.575,-1.416,0.004,-0.008,1.020,0.000,0.000,0.000,0.3060,-3,-1,-0.85,-2.04,3.25,0.2767,0.0857,0.3081,0.2914,-0.0355,0.3000,0.2682,11.22,-4.35,-59.67,0.7650,0.0000,1.3750,1.0990,2.3970,0
18250,0.2991,0.0257,0.3040,0.0334,0.0163,-0.0449,0.05,1.82,1.94,0,3.447,-1.726,7.966,-1.368,0.002,-0.009,1.021,0.000,0.000,0.000,0.3030,0,-2,-0.94,-1.54,3.39,0.2773,0.0917,0.3067,0.2899,-0.0424,0.3000,0.2687,10.90,-3.79,-58.11,0.7650,0.0000,1.3730,1.0950,2.4040,0
18301,0.3024,0.0232,0.3032,0.0231,0.0063,-0.0295,0.09,1.33,1.80,0,3.447,-4.300,8.138,-2.198,0.003,-0.012,1.019,0.000,0.000,0.000,0.3000,5,-2,-1.02,-1.10,3.26,0.2815,0.0922,0.3050,0.2882,-0.0489,0.3000,0.2672,10.58,-3.82,-54.01,0.7580,0.0000,1.3730,1.0950,2.4040,0
18352,0.3015,0.0266,0.3021,0.0063,0.0139,-0.0187,-0.09,0.95,1.71,0,3.447,-4.258,4.623,-2.677,-0.000,-0.009,1.024,0.000,0.000,0.000,0.3000,0,0,-1.14,-0.65,2.76,0.2880,0.0810,0.3034,0.2864,-0.0553,0.3000,0.2662,11.40,-3.26,-51.22,0.7580,0.0000,1.3730,1.0900,2.3970,0
18403,0.3036,0.0247,0.3003,0.0029,0.0081,-0.0127,-0.31,0.67,1.61,0,3.447,2.216,5.567,-1.910,0.006,-0.006,1.016,0.000,0.000,0.000,0.3030,2,-1,-1.36,-0.42,2.62,0.2886,0.0799,0.3026,0.2844,-0.0615,0.3000,0.2659,11.20,-3.53,-48.28,0.7590,0.0000,1.3730,1.0900,2.3970,0
18453,0.3028,0.0257,0.2998,-0.0052,0.0123,-0.0037,-0.33,0.40,1.56,0,3.452,0.127,6.386,1.517,0.004,-0.007,1.012,0.000,0.000,0.000,0.3030,0,0,-1.20,-0.12,2.39,0.2922,0.0735,0.3032,0.2823,-0.0674,0.3000,0.2650,11.65,-3.40,-46.66,0.7590,0.0000,1.3710,1.0930,2.4050,0
18504,0.3045,0.0244,0.3014,-0.0033,0.0100,0.0100,-0.24,0.10,1.58,0,3.452,-2.417,-0.787,0.982,0.001,-0.008,1.010,0.000,0.000,0.000,0.3030,0,0,-1.20,0.20,2.46,0.2933,0.0721,0.3039,0.2800,-0.0731,0.3000,0.2633,11.66,-3.92,-47.31,0.7560,0.0000,1.3710,1.0930,2.4050,0
18556,0.3036,0.0249,0.3029,-0.0063,0.0120,0.0199,-0.27,0.06,1.64,0,3.452,1.711,0.433,1.400,0.006,-0.010,1.010,0.000,0.000,0.000,0.3030,-2,1,-1.32,0.16,2.51,0.2946,0.0710,0.3047,0.2776,-0.0786,0.3000,0.2619,11.94,-4.05,-49.11,0.7560,0.0000,1.3720,1.0850,2.4040,0
18607,0.3060,0.0224,0.3040,0.0005,0.0057,0.0235,-0.17,0.02,1.70,0,3.452,5.057,0.279,0.792,0.007,-0.010,0.997,0.000,0.000,0.000,0.3040,1,1,-1.30,0.13,2.67,0.2871,0.0796,0.3057,0.2750,-0.0838,0.3000,0.2613,11.57,-4.86,-51.10,0.7540,0.0000,1.3720,1.0850,2.4040,0
18658,0.3063,0.0248,0.3046,0.0011,0.0123,0.0211,-0.09,-0.05,1.77,0,3.452,-0.852,-1.181,2.489,0.001,-0.009,0.999,0.000,0.000,0.000,0.3070,0,0,-1.02,0.14,2.70,0.2859,0.0791,0.3064,0.2722,-0.0886,0.3000,0.2615,12.06,-5.23,-53.03,0.7540,0.0000,1.3760,1.0910,2.3970,0
18709,0.3060,0.0245,0.3053,0.0008,0.0109,0.0187,-0.03,0.03,1.86,0,3.452,1.862,-2.294,2.571,0.005,-0.008,0.999,0.000,0.000,0.000,0.3050,0,-2,-1.06,0.08,2.83,0.2855,0.0803,0.3076,0.2693,-0.0932,0.3000,0.2616,11.97,-5.53,-55.95,0.7510,0.0000,1.3760,1.0910,2.3970,0
18760,0.3075,0.0249,0.3070,0.0042,0.0109,0.0215,-0.01,0.10,1.98,0,3.452,-3.364,-0.413,0.820,0.002,-0.007,0.998,0.000,0.000,0.000,0.3080,3,-1,-0.95,0.01,2.95,0.2910,0.0795,0.3080,0.2663,-0.0974,0.3000,0.2609,12.01,-6.14,-59.28,0.7510,0.0000,1.3770,1.0950,2.3950,0
18811,0.3112,0.0257,0.3070,0.0121,0.0116,0.0152,-0.03,0.14,2.01,0,3.452,0.561,-2.587,0.169,0.006,-0.008,0.992,0.000,0.000,0.000,0.3100,3,-3,-1.08,-0.01,3.01,0.2934,0.0756,0.3090,0.2632,-0.1013,0.3000,0.2616,12.01,-7.11,-60.17,0.7490,0.0000,1.3770,1.0950,2.3950,0
18863,0.3117,0.0250,0.3082,0.0105,0.0092,0.0157,0.03,0.35,2.02,0,3.457,-0.201,-5.031,-0.269,0.002,-0.006,0.995,0.000,0.000,0.000,0.3100,1,-2,-1.01,-0.10,3.02,0.2996,0.0708,0.3100,0.2598,-0.1048,0.3000,0.2613,11.78,-7.43,-60.54,0.7490,0.0000,1.3730,1.0930,2.3940,0
18914,0.3104,0.0254,0.3098,0.0026,0.0092,0.0162,-0.09,0.59,2.04,0,3.452,0.827,2.098,0.225,0.004,-0.014,0.992,0.000,0.000,0.000,0.3060,0,0,-1.01,-0.35,3.01,0.3046,0.0687,0.3105,0.2564,-0.1080,0.3000,0.2610,11.70,-7.34,-61.20,0.7470,0.0000,1.3730,1.0930,2.3940,0
18966,0.3198,0.0222,0.3106,0.0197,0.0010,0.0136,0.05,0.51,2.02,0,3.452,2.727,-8.084,-0.825,0.005,-0.008,0.998,0.000,0.000,0.000,0.3080,1,-3,-0.96,-0.24,3.02,0.3079,0.0677,0.3095,0.2527,-0.1109,0.3000,0.2611,10.96,-9.16,-60.46,0.7470,0.0000,1.3700,1.0950,2.3940,0
19018,0.3206,0.0228,0.3089,0.0150,0.0017,0.0014,0.08,0.84,1.98,0,3.447,-4.102,-8.844,-1.907,0.001,-0.008,0.998,0.000,0.000,0.000,0.3090,2,-5,-0.81,-0.64,2.98,0.3144,0.0657,0.3091,0.2489,-0.1134,0.3000,0.2628,10.78,-9.32,-59.33,0.7450,0.0000,1.3700,1.0950,2.3940,0
19070,0.3199,0.0240,0.3084,0.0047,0.0038,-0.0021,-0.11,1.19,1.90,0,3.447,-4.953,1.784,-2.776,0.004,-0.014,1.003,0.000,0.000,0.000,0.3080,0,-1,-1.00,-1.05,2.86,0.3256,0.0620,0.3089,0.2450,-0.1155,0.3000,0.2632,10.74,-9.18,-57.09,0.7450,0.0000,1.3760,1.0970,2.3960,0
19122,0.3249,0.0236,0.3086,0.0054,0.0032,-0.0004,-0.26,1.17,1.76,0,3.447,-2.733,-3.235,-3.990,0.004,-0.010,1.004,0.000,0.000,0.000,0.3110,0,0,-1.26,-0.96,2.72,0.3293,0.0616,0.3088,0.2410,-0.1172,0.3000,0.2630,10.46,-9.94,-52.75,0.7470,0.0000,1.3760,1.0970,2.3960,0
19172,0.3270,0.0219,0.3083,0.0001,0.0008,0.0000,-0.30,1.26,1.57,0,3.452,-4.257,-1.842,-2.402,0.005,-0.006,1.006,0.000,0.000,0.000,0.3070,6,0,-1.40,-1.14,2.52,0.3335,0.0608,0.3096,0.2369,-0.1185,0.3000,0.2630,9.97,-10.23,-47.10,0.7470,0.0000,1.3720,1.0870,2.3940,0
19224,0.3265,0.0245,0.3097,-0.0112,0.0093,0.0079,-0.33,1.32,1.41,0,3.447,-2.274,3.331,-2.609,0.004,-0.005,1.001,0.000,0.000,0.000,0.3120,2,0,-1.47,-1.30,2.34,0.3296,0.0401,0.3096,0.2326,-0.1195,0.3000,0.2619,10.29,-10.12,-42.21,0.7500,0.0000,1.3720,1.0870,2.3940,0
19276,0.3252,0.0224,0.3087,-0.0237,0.0063,0.0022,-0.40,1.19,1.26,0,3.452,0.558,5.460,-3.005,0.004,-0.010,1.002,0.000,0.000,0.000,0.3110,0,0,-1.58,-1.13,2.19,0.3305,0.0347,0.3107,0.2282,-0.1200,0.3000,0.2627,9.66,-9.83,-37.73,0.7500,0.0000,1.3720,1.0860,2.3840,0
19327,0.3248,0.0249,0.3105,-0.0315,0.0151,0.0108,-0.48,0.92,1.10,0,3.447,2.739,4.050,-5.510,0.006,-0.005,1.001,0.000,0.000,0.000,0.3140,-3,2,-1.55,-0.85,2.03,0.3315,0.0308,0.3113,0.2237,-0.1201,0.3000,0.2614,9.94,-9.91,-32.94,0.7530,0.0000,1.3720,1.0860,2.3840,0
19379,0.3238,0.0221,0.3113,-0.0375,0.0104,0.0122,-0.31,0.72,0.84,0,3.452,2.941,4.395,-3.783,0.005,-0.010,0.994,0.000,0.000,0.000,0.3130,0,1,-1.53,-0.71,1.85,0.3231,0.0450,0.3132,0.2190,-0.1198,0.3000,0.2611,9.17,-9.99,-25.31,0.7530,0.0000,1.3720,1.0870,2.3920,0
19430,0.3201,0.0249,0.3132,-0.0475,0.0178,0.0168,-0.10,0.48,0.61,0,3.447,1.086,5.795,-4.401,0.004,-0.010,0.994,0.000,0.000,0.000,0.3150,-1,1,-1.37,-0.50,1.65,0.3208,0.0452,0.3137,0.2143,-0.1192,0.3000,0.2603,9.34,-9.73,-18.16,0.7660,0.0000,1.3720,1.0870,2.3920,0
19482,0.3176,0.0249,0.3138,-0.0519,0.0166,0.0129,-0.02,0.24,0.38,0,3.452,2.290,5.170,-4.101,0.003,-0.010,0.993,0.000,0.000,0.000,0.3140,0,0,-1.32,-0.21,1.42,0.3181,0.0476,0.3144,0.2095,-0.1181,0.3000,0.2606,8.85,-9.76,-11.49,0.7660,0.0000,1.3730,1.0900,2.3940,0
19533,0.3165,0.0245,0.3150,-0.0501,0.0135,0.0124,0.08,-0.06,0.17,0,3.447,-0.039,6.084,-4.778,0.004,-0.009,0.995,0.000,0.000,0.000,0.3140,0,0,-1.21,0.05,1.20,0.3162,0.0492,0.3145,0.2045,-0.1167,0.3000,0.2604,8.24,-10.21,-4.98,0.7710,0.0000,1.3730,1.0900,2.3940,0
19584,0.3140,0.0251,0.3149,-0.0495,0.0128,0.0062,0.05,-0.30,-0.08,0,3.447,-3.297,4.269,-4.242,0.004,-0.010,0.996,0.000,0.000,0.000,0.3150,0,0,-1.21,0.36,0.95,0.3144,0.0511,0.3145,0.1995,-0.1149,0.3000,0.2611,7.78,-10.47,2.34,0.7710,0.0000,1.3720,1.0850,2.3920,0
19636,0.3116,0.0258,0.3147,-0.0471,0.0123,0.0019,-0.02,-0.43,-0.33,0,3.447,2.347,0.524,-5.443,0.007,-0.011,0.994,0.000,0.000,0.000,0.3130,0,0,-1.38,0.57,0.73,0.3129,0.0533,0.3146,0.1943,-0.1126,0.3000,0.2616,7.29,-10.84,9.94,0.7760,0.0000,1.3720,1.0850,2.3920,0
19688,0.3093,0.0264,0.3149,-0.0434,0.0126,0.0004,-0.01,-0.54,-0.55,0,3.447,1.345,-2.121,-5.150,0.007,-0.010,1.006,0.000,0.000,0.000,0.3140,1,-1,-1.26,0.59,0.45,0.3118,0.0559,0.3139,0.1890,-0.1100,0.3000,0.2617,6.84,-11.29,16.62,0.7760,0.0000,1.3670,1.0870,2.3940,0
19739,0.3061,0.0271,0.3139,-0.0415,0.0128,-0.0033,0.02,-0.52,-0.82,0,3.442,-1.791,1.119,-5.750,0.002,-0.011,0.999,0.000,0.000,0.000,0.3110,1,-2,-1.09,0.51,0.22,0.3177,0.0407,0.3143,0.1837,-0.1070,0.3000,0.2623,6.36,-11.56,24.63,0.7810,0.0000,1.3670,1.0870,2.3940,0
19791,0.3045,0.0276,0.3138,-0.0364,0.0124,-0.0029,0.01,-0.68,-1.07,0,3.447,-1.553,-8.236,-6.057,0.007,-0.009,1.007,0.000,0.000,0.000,0.3130,-2,0,-1.18,0.57,-0.06,0.3198,0.0398,0.3130,0.1782,-0.1037,0.3000,0.2623,5.84,-12.13,32.19,0.7810,0.0000,1.3680,1.0940,2.3900,0
19842,0.3071,0.0250,0.3123,-0.0221,0.0054,-0.0073,0.01,-0.52,-1.37,0,3.447,0.837,-4.506,-6.029,-0.003,-0.009,0.997,0.000,0.000,0.000,0.3140,0,-1,-1.28,0.13,-0.39,0.3210,0.0418,0.3131,0.1726,-0.1000,0.3000,0.2630,4.76,-13.36,41.01,0.7860,0.0000,1.3680,1.0940,2.3900,0
19893,0.3059,0.0295,0.3123,-0.0180,0.0138,-0.0056,0.08,-0.42,-1.69,0,3.447,1.685,-1.023,-5.305,0.002,-0.009,1.004,0.000,0.000,0.000,0.3150,0,-1,-1.23,-0.10,-0.69,0.3230,0.0423,0.3133,0.1671,-0.0960,0.3000,0.2629,4.91,-13.90,50.80,0.7860,0.0000,1.3690,1.1010,2.3910,0
19945,0.3060,0.0316,0.3129,-0.0125,0.0164,-0.0009,0.11,-0.31,-1.96,0,3.442,5.102,-3.315,-4.266,0.003,-0.011,0.999,0.000,0.000,0.000,0.3120,0,0,-1.14,-0.15,-0.96,0.3254,0.0430,0.3138,0.1614,-0.0916,0.3000,0.2622,4.62,-14.62,58.85,0.7990,0.0000,1.3690,1.1010,2.3910,0
19996,0.3064,0.0320,0.3140,-0.0081,0.0145,0.0056,0.20,-0.24,-2.13,0,3.447,3.478,0.693,-3.545,0.001,-0.010,0.998,0.000,0.000,0.000,0.3100,-1,1,-0.87,-0.33,-1.18,0.3272,0.0442,0.3133,0.1557,-0.0870,0.3000,0.2613,3.99,-15.32,63.97,0.7990,0.0000,1.3650,1.1070,2.3880,0
20046,0.3067,0.0372,0.3133,-0.0047,0.0222,0.0012,0.30,-0.20,-2.37,0,3.442,-0.834,-5.288,-1.640,0.000,-0.006,0.999,0.000,0.000,0.000,0.3120,-1,-1,-0.70,-0.34,-1.35,0.3228,0.0459,0.3123,0.1499,-0.0821,0.3000,0.2619,4.12,-15.89,71.18,0.8060,0.0000,1.3650,1.1070,2.3880,0
20098,0.3041,0.0403,0.3116,-0.0080,0.0238,-0.0068,0.25,-0.02,-2.46,0,3.442,10.196,0.977,-0.205,0.001,-0.014,1.004,0.000,0.000,0.000,0.3140,0,0,-0.75,-0.59,-1.44,0.3245,0.0483,0.3121,0.1441,-0.0768,0.3000,0.2631,3.80,-15.94,73.68,0.8060,0.0000,1.3690,1.1100,2.3880,0
20149,0.3060,0.0432,0.3115,-0.0036,0.0249,-0.0047,0.53,0.12,-2.48,0,3.442,6.726,2.882,-0.084,-0.004,-0.012,0.997,0.000,0.000,0.000,0.3150,-1,0,-0.21,-0.54,-1.45,0.3248,0.0501,0.3126,0.1381,-0.0713,0.3000,0.2629,3.45,-16.70,74.55,0.8070,0.0000,1.3690,1.1100,2.3880,0
20200,0.3057,0.0418,0.3126,-0.0049,0.0147,0.0012,0.85,0.04,-2.48,0,3.447,2.745,0.974,0.796,0.003,-0.012,1.001,0.000,0.000,0.000,0.3100,0,-2,0.13,-0.39,-1.45,0.3250,0.0516,0.3132,0.1321,-0.0655,0.3000,0.2621,2.27,-17.11,74.44,0.8070,0.0000,1.3710,1.1080,2.3950,0
20252,0.3053,0.0420,0.3138,-0.0058,0.0061,0.0059,1.05,-0.07,-2.43,0,3.442,4.533,-3.686,1.429,-0.000,-0.008,1.000,0.000,0.000,0.000,0.3130,0,0,0.27,-0.32,-1.45,0.3285,0.0520,0.3123,0.1260,-0.0593,0.3000,0.2613,1.26,-17.52,72.86,0.8060,0.0000,1.3710,1.1080,2.3950,0
20304,0.3067,0.0411,0.3121,-0.0023,-0.0048,-0.0037,1.20,0.13,-2.35,0,3.442,5.803,0.209,1.745,0.004,-0.008,0.999,0.000,0.000,0.000,0.3110,2,0,0.51,-0.51,-1.37,0.3291,0.0527,0.3124,0.1197,-0.0529,0.3000,0.2627,0.05,-18.11,70.59,0.8060,0.0000,1.3690,1.1050,2.3810,0
20356,0.3079,0.0418,0.3123,-0.0011,-0.0126,-0.0030,1.43,0.22,-2.29,0,3.442,-0.843,0.626,1.091,-0.002,-0.005,0.998,0.000,0.000,0.000,0.3130,0,0,0.86,-0.50,-1.27,0.3285,0.0460,0.3117,0.1136,-0.0464,0.3000,0.2626,-0.88,-18.67,68.70,0.8110,0.0000,1.3690,1.1050,2.3810,0
20407,0.3081,0.0393,0.3115,-0.0026,-0.0277,-0.0068,1.50,0.16,-2.22,0,3.447,-0.332,-2.471,1.349,-0.004,-0.006,1.005,0.000,0.000,0.000,0.3170,1,0,0.82,-0.47,-1.21,0.3283,0.0442,0.3119,0.1074,-0.0397,0.3000,0.2631,-2.38,-19.00,66.70,0.8110,0.0000,1.3700,1.1120,2.3890,0
20458,0.3090,0.0346,0.3119,-0.0024,-0.0467,-0.0019,1.45,0.23,-2.16,0,3.447,0.852,-3.385,1.803,0.002,-0.011,1.001,0.000,0.000,0.000,0.3130,0,0,0.79,-0.59,-1.16,0.3287,0.0432,0.3135,0.1012,-0.0328,0.3000,0.2625,-4.21,-19.53,64.79,0.8150,0.0000,1.3700,1.1120,2.3890,0
20509,0.3082,0.0305,0.3146,-0.0066,-0.0620,0.0107,1.47,0.40,-2.10,0,3.447,-0.998,0.921,-0.069,0.000,-0.009,0.998,0.000,0.000,0.000,0.3150,3,3,0.83,-0.77,-1.07,0.3282,0.0406,0.3136,0.0949,-0.0257,0.3000,0.2607,-5.85,-19.84,62.99,0.8150,0.0000,1.3740,1.1000,2.3850,0
20561,0.3122,0.0286,0.3143,-0.0009,-0.0712,0.0054,1.46,0.34,-2.12,0,3.442,0.425,-1.107,-1.076,0.004,-0.009,0.993,0.000,0.000,0.000,0.3140,2,0,0.80,-0.78,-0.91,0.3195,0.0351,0.3139,0.0885,-0.0184,0.3000,0.2613,-7.00,-20.70,63.46,0.8300,0.0000,1.3740,1.1000,2.3850,0
20613,0.3108,0.0231,0.3148,-0.0065,-0.0865,0.0035,1.46,0.38,-2.17,0,3.447,-2.054,-2.389,-1.174,0.002,-0.005,0.991,0.000,0.000,0.000,0.3140,6,0,0.83,-0.82,-1.01,0.3183,0.0295,0.3138,0.0821,-0.0110,0.3000,0.2614,-8.66,-20.79,65.08,0.8300,0.0000,1.3840,1.0900,2.3910,0
20664,0.3089,0.0199,0.3145,-0.0137,-0.0956,-0.0012,1.37,0.55,-2.23,0,3.442,-2.686,2.408,0.407,0.002,-0.003,0.989,0.000,0.000,0.000,0.3110,1,3,0.79,-0.93,-1.15,0.3172,0.0160,0.3130,0.0758,-0.0036,0.3000,0.2620,-9.84,-20.74,66.84,0.8560,0.0000,1.3840,1.0900,2.3910,0
20715,0.3116,0.0102,0.3141,-0.0113,-0.1161,-0.0079,1.23,0.49,-2.21,0,3.442,-8.156,-1.236,1.633,0.006,-0.004,0.995,0.000,0.000,0.000,0.3100,4,0,0.63,-0.85,-1.00,0.3097,0.0119,0.3118,0.0694,0.0039,0.3000,0.2628,-11.94,-21.34,66.43,0.8560,0.0000,1.3930,1.0850,2.3950,0
20767,0.3113,0.0037,0.3120,-0.0147,-0.1274,-0.0184,1.00,0.51,-2.16,0,3.436,-9.931,-5.554,3.803,0.003,-0.007,1.002,0.000,0.000,0.000,0.3120,7,-2,0.24,-0.89,-1.01,0.3086,0.0006,0.3102,0.0630,0.0116,0.3000,0.2643,-13.34,-21.47,64.83,0.8830,0.0000,1.3930,1.0850,2.3950,0
20817,0.3091,-0.0029,0.3100,-0.0227,-0.1350,-0.0238,0.67,0.74,-2.00,0,3.442,-8.190,-5.607,5.334,0.001,-0.008,1.000,0.000,0.000,0.000,0.3110,1,0,-0.20,-1.12,-1.04,0.3131,-0.0185,0.3094,0.0566,0.0192,0.3000,0.2652,-14.54,-21.33,59.90,0.8830,0.0000,1.4060,1.0700,2.3890,0
20869,0.3084,-0.0116,0.3098,-0.0288,-0.1432,-0.0197,0.27,0.95,-1.77,0,3.436,-12.718,-3.037,3.566,0.005,-0.007,1.008,0.000,0.000,0.000,0.3090,4,0,-0.66,-1.38,-0.77,0.3124,-0.0236,0.3096,0.0502,0.0268,0.3000,0.2648,-15.97,-21.46,53.07,0.9120,0.0000,1.4060,1.0700,2.3890,0
20920,0.3081,-0.0143,0.3096,-0.0338,-0.1348,-0.0147,-0.15,0.78,-1.56,0,3.442,-6.025,-1.558,4.539,0.003,-0.005,1.008,0.000,0.000,0.000,0.3080,0,2,-1.31,-1.52,-0.64,0.3122,-0.0355,0.3088,0.0439,0.0345,0.3000,0.2643,-16.26,-21.66,46.81,0.9120,0.0000,1.4130,1.0490,2.3930,0
20970,0.3066,-0.0242,0.3086,-0.0401,-0.1400,-0.0122,-0.35,0.80,-1.34,0,3.436,-4.679,-1.080,2.634,0.003,-0.005,1.004,0.000,0.000,0.000,0.3110,0,0,-1.68,-1.61,-0.30,0.3062,-0.0362,0.3085,0.0375,0.0421,0.3000,0.2643,-17.55,-21.69,40.29,0.9360,0.0000,1.4130,1.0490,2.3930,0
21021,0.3045,-0.0283,0.3078,-0.0463,-0.1306,-0.0101,-0.44,0.66,-1.20,0,3.442,-0.894,1.536,3.512,0.000,-0.003,1.003,0.000,0.000,0.000,0.3040,6,1,-1.92,-1.66,-0.16,0.3022,-0.0433,0.3090,0.0312,0.0497,0.3000,0.2642,-17.83,-21.69,36.06,0.9360,0.0000,1.4240,1.0350,2.3910,0
21073,0.3011,-0.0338,0.3090,-0.0538,-0.1242,-0.0009,-0.46,0.56,-1.01,0,3.436,-3.117,-0.208,1.958,0.007,-0.008,1.003,0.000,0.000,0.000,0.3060,0,0,-1.91,-1.53,-0.11,0.3063,-0.0578,0.3075,0.0248,0.0573,0.3000,0.2629,-18.38,-21.65,30.20,0.9670,0.0000,1.4240,1.0350,2.3910,0
21124,0.2994,-0.0440,0.3063,-0.0558,-0.1292,-0.0118,-0.57,0.54,-0.92,0,3.436,-1.451,-0.786,0.300,0.004,-0.006,0.998,0.000,0.000,0.000,0.3060,5,2,-2.08,-1.53,-0.01,0.3027,-0.0649,0.3068,0.0184,0.0648,0.3000,0.2646,-19.49,-21.71,27.66,0.9670,0.0000,1.4320,1.0210,2.3980,0
21175,0.2957,-0.0491,0.3056,-0.0620,-0.1216,-0.0133,-0.63,0.49,-0.87,0,3.436,-3.708,4.834,-0.923,0.003,-0.007,1.000,0.000,0.000,0.000,0.3020,5,2,-2.13,-1.56,-0.02,0.3014,-0.0743,0.3062,0.0121,0.0722,0.3000,0.2650,-19.81,-21.57,26.22,0.9990,0.0000,1.4320,1.0210,2.3980,0
21225,0.2930,-0.0566,0.3051,-0.0646,-0.1190,-0.0121,-0.71,0.18,-0.94,0,3.431,-1.596,3.858,-2.294,0.001,-0.002,1.002,0.000,0.000,0.000,0.3070,4,0,-2.28,-1.32,-0.16,0.2963,-0.0861,0.3042,0.0059,0.0794,0.3000,0.2649,-20.49,-21.66,28.14,0.9990,0.0000,1.4420,1.0200,2.3920,0
21277,0.2841,-0.0595,0.3029,-0.0796,-0.1048,-0.0175,-0.89,0.00,-1.05,0,3.436,-1.083,0.631,-1.958,0.005,-0.000,1.005,0.000,0.000,0.000,0.3060,0,0,-2.33,-1.11,-0.30,0.2944,-0.0967,0.3045,-0.0004,0.0866,0.3000,0.2659,-20.30,-20.79,31.50,1.0400,0.0000,1.4420,1.0200,2.3920,0
21328,0.2818,-0.0644,0.3043,-0.0757,-0.0962,-0.0054,-0.98,-0.04,-1.15,0,3.436,5.516,6.290,-1.165,0.002,-0.003,1.002,0.000,0.000,0.000,0.3060,2,3,-2.38,-1.08,-0.40,0.2896,-0.1029,0.3047,-0.0067,0.0936,0.3000,0.2643,-20.64,-21.28,34.44,1.0400,0.0000,1.4460,1.0140,2.3990,0
21379,0.2760,-0.0662,0.3050,-0.0796,-0.0812,0.0012,-0.70,-0.34,-1.21,0,3.436,5.921,3.108,0.853,0.002,-0.004,0.996,0.000,0.000,0.000,0.3040,0,1,-2.14,-0.75,-0.41,0.2857,-0.1029,0.3051,-0.0129,0.1005,0.3000,0.2635,-20.44,-21.17,36.37,1.0680,0.0000,1.4460,1.0140,2.3990,0
21430,0.2742,-0.0696,0.3056,-0.0705,-0.0746,0.0036,-0.38,-0.68,-1.21,0,3.436,4.843,-4.119,1.331,0.004,-0.006,0.999,0.000,0.000,0.000,0.3030,1,0,-1.85,-0.58,-0.33,0.2819,-0.1040,0.3045,-0.0191,0.1071,0.3000,0.2631,-20.63,-21.80,36.39,1.0680,0.0000,1.4550,1.0140,2.4010,0
21481,0.2703,-0.0721,0.3049,-0.0662,-0.0693,-0.0011,-0.19,-0.53,-1.17,0,3.436,7.364,1.912,0.869,-0.002,-0.012,0.998,0.000,0.000,0.000,0.3050,-1,0,-1.60,-0.76,-0.22,0.2804,-0.1067,0.3039,-0.0252,0.1136,0.3000,0.2637,-20.72,-22.02,35.23,1.0860,0.0000,1.4550,1.0140,2.4010,0
21533,0.2648,-0.0737,0.3039,-0.0677,-0.0636,-0.0050,0.07,-0.49,-1.15,0,3.436,-1.516,1.120,0.940,0.000,-0.008,1.001,0.000,0.000,0.000,0.3050,7,0,-1.25,-0.64,-0.11,0.2790,-0.1048,0.3040,-0.0314,0.1199,0.3000,0.2644,-20.72,-21.91,34.39,1.0860,0.0000,1.4590,1.0070,2.3960,0
21584,0.2636,-0.0725,0.3042,-0.0583,-0.0537,-0.0027,0.21,-0.57,-1.15,0,3.431,4.440,-3.727,-1.393,0.005,-0.004,1.005,0.000,0.000,0.000,0.3050,1,0,-1.22,-0.56,-0.12,0.2781,-0.1221,0.3044,-0.0374,0.1259,0.3000,0.2641,-20.40,-22.56,34.54,1.0950,0.0000,1.4590,1.0070,2.3960,0
21635,0.2610,-0.0767,0.3045,-0.0530,-0.0583,0.0002,0.30,-0.43,-1.22,0,3.431,6.592,-5.939,-3.388,0.003,-0.007,0.996,0.000,0.000,0.000,0.3040,-1,0,-0.99,-0.73,-0.16,0.2775,-0.1252,0.3046,-0.0434,0.1317,0.3000,0.2637,-21.00,-22.95,36.64,1.0950,0.0000,1.4640,1.0100,2.4010,0
21687,0.2597,-0.0780,0.3048,-0.0468,-0.0571,0.0010,0.49,-0.20,-1.37,0,3.436,-0.809,-3.727,-2.121,0.001,-0.002,0.995,0.000,0.000,0.000,0.3040,1,0,-0.69,-1.02,-0.29,0.2769,-0.1231,0.3046,-0.0494,0.1373,0.3000,0.2635,-21.13,-23.44,41.09,1.1380,0.0000,1.4640,1.0100,2.4010,0
21738,0.2584,-0.0809,0.3044,-0.0436,-0.0611,-0.0032,0.51,0.09,-1.50,0,3.436,-1.243,-2.187,2.099,0.002,-0.006,1.002,0.000,0.000,0.000,0.3030,1,1,-0.73,-1.19,-0.39,0.2767,-0.1260,0.3042,-0.0552,0.1425,0.3000,0.2641,-21.50,-23.73,44.93,1.1380,0.0000,1.4690,1.0060,2.3960,0
21789,0.2568,-0.0839,0.3040,-0.0435,-0.0650,-0.0042,0.46,0.42,-1.46,0,3.431,1.192,-3.831,2.415,0.007,-0.006,1.000,0.000,0.000,0.000,0.3070,3,0,-0.79,-1.30,-0.29,0.2736,-0.1289,0.3036,-0.0610,0.1474,0.3000,0.2643,-21.86,-23.91,43.69,1.1700,0.0000,1.4690,1.0060,2.3960,0
21841,0.2545,-0.0871,0.3033,-0.0473,-0.0686,-0.0051,0.56,0.54,-1.36,0,3.436,1.775,2.764,0.965,0.002,-0.013,1.000,0.000,0.000,0.000,0.3050,1,2,-0.69,-1.48,-0.19,0.2732,-0.1376,0.3045,-0.0669,0.1521,0.3000,0.2645,-22.19,-23.89,40.88,1.1700,0.0000,1.4790,0.9990,2.4010,0
21893,0.2531,-0.0934,0.3050,-0.0497,-0.0797,0.0042,0.51,0.58,-1.28,0,3.431,-7.875,-11.648,1.853,0.002,-0.007,0.995,0.000,0.000,0.000,0.3060,6,0,-0.60,-1.35,-0.14,0.2672,-0.1406,0.3044,-0.0726,0.1564,0.3000,0.2632,-23.11,-24.10,38.44,1.1820,0.0000,1.4790,0.9990,2.4010,0
21944,0.2506,-0.0969,0.3052,-0.0547,-0.0818,0.0025,0.24,0.86,-1.13,0,3.431,-3.871,2.195,2.308,0.001,-0.007,0.996,0.000,0.000,0.000,0.3030,2,1,-0.92,-1.92,-0.14,0.2671,-0.1585,0.3046,-0.0781,0.1603,0.3000,0.2633,-23.34,-24.00,34.04,1.1820,0.0000,1.4830,0.9930,2.3940,0
21995,0.2487,-0.1038,0.3057,-0.0597,-0.0895,0.0018,0.04,0.83,-0.99,0,3.431,-5.838,0.691,4.592,-0.002,-0.008,0.997,0.000,0.000,0.000,0.3050,5,1,-1.11,-1.80,-0.03,0.2641,-0.1645,0.3039,-0.0836,0.1639,0.3000,0.2633,-23.99,-23.95,29.57,1.2000,0.0000,1.4830,0.9930,2.3940,0
22045,0.2455,-0.1059,0.3044,-0.0670,-0.0834,-0.0049,-0.26,0.79,-0.77,0,3.431,-5.489,0.651,6.174,0.004,-0.010,0.999,0.000,0.000,0.000,0.3030,3,0,-1.36,-1.75,0.12,0.2612,-0.1794,0.3036,-0.0889,0.1672,0.3000,0.2643,-23.70,-23.64,23.11,1.2000,0.0000,1.4930,0.9850,2.3960,0
22096,0.2426,-0.1122,0.3044,-0.0725,-0.0852,-0.0043,-0.56,0.80,-0.47,0,3.431,-11.430,-5.314,7.147,0.005,-0.006,1.001,0.000,0.000,0.000,0.3020,3,2,-1.63,-1.68,0.41,0.2610,-0.1886,0.3031,-0.0942,0.1701,0.3000,0.2642,-24.03,-23.50,14.16,1.1980,0.0000,1.4930,0.9850,2.3960,0
22148,0.2392,-0.1184,0.3034,-0.0788,-0.0845,-0.0077,-1.01,1.06,-0.15,0,3.431,-3.241,2.918,4.847,0.001,-0.011,1.001,0.000,0.000,0.000,0.3010,-1,3,-2.21,-1.94,0.75,0.2550,-0.1979,0.3022,-0.0995,0.1727,0.3000,0.2647,-24.18,-23.25,4.49,1.1980,0.0000,1.4950,0.9750,2.4000,0
22200,0.2362,-0.1224,0.3023,-0.0851,-0.0752,-0.0099,-1.24,1.01,0.12,0,3.426,-9.506,3.646,6.054,0.004,-0.012,1.001,0.000,0.000,0.000,0.3020,2,3,-2.45,-1.79,1.10,0.2459,-0.1947,0.3015,-0.1047,0.1748,0.3000,0.2652,-23.84,-23.01,-3.50,1.2020,0.0000,1.4950,0.9750,2.4000,0
22252,0.2356,-0.1239,0.3013,-0.0842,-0.0635,-0.0136,-1.67,0.69,0.40,0,3.431,-10.880,-3.342,6.418,0.006,-0.010,1.008,0.000,0.000,0.000,0.3010,4,4,-2.94,-1.60,1.37,0.2369,-0.2011,0.3011,-0.1098,0.1767,0.3000,0.2658,-23.22,-23.19,-11.92,1.2020,0.0000,1.5080,0.9690,2.4010,0
22304,0.2328,-0.1255,0.3011,-0.0866,-0.0460,-0.0091,-2.21,0.75,0.72,0,3.431,-1.287,-3.791,7.313,0.003,-0.016,1.011,0.000,0.000,0.000,0.3020,1,2,-3.45,-1.78,1.58,0.2252,-0.2138,0.3006,-0.1148,0.1781,0.3000,0.2653,-22.44,-23.17,-21.64,1.1980,0.0000,1.5080,0.9690,2.4010,0
22355,0.2301,-0.1301,0.3008,-0.0886,-0.0337,-0.0041,-2.25,0.89,1.07,0,3.431,-4.079,-0.385,7.797,0.002,-0.007,1.013,0.000,0.000,0.000,0.3040,4,0,-3.54,-1.93,2.02,0.2194,-0.2169,0.3013,-0.1196,0.1791,0.3000,0.2649,-22.01,-23.17,-31.97,1.1980,0.0000,1.5120,0.9630,2.3990,0
22407,0.2259,-0.1304,0.3013,-0.0953,-0.0120,0.0029,-2.39,0.87,1.44,0,3.431,-0.455,-2.707,8.425,0.005,-0.010,1.005,0.000,0.000,0.000,0.3030,-1,0,-3.70,-1.86,2.45,0.2195,-0.2290,0.3036,-0.1243,0.1797,0.3000,0.2640,-20.94,-22.91,-43.20,1.1850,0.0000,1.5120,0.9630,2.3990,0
22458,0.2166,-0.1319,0.3029,-0.1144,0.0056,0.0123,-2.46,0.97,1.86,0,3.431,7.515,4.179,8.700,0.005,-0.016,0.999,0.000,0.000,0.000,0.3040,-7,10,-3.78,-1.91,3.12,0.2197,-0.2258,0.3047,-0.1289,0.1799,0.3000,0.2627,-20.10,-21.88,-55.90,1.1850,0.0000,1.5170,0.9580,2.3960,0
22510,0.2159,-0.1346,0.3036,-0.1102,0.0167,0.0136,-2.14,0.85,2.29,0,3.431,-0.154,1.903,9.221,0.007,-0.012,0.993,0.000,0.000,0.000,0.3080,-2,3,-3.53,-1.81,3.36,0.1880,-0.2062,0.3034,-0.1334,0.1797,0.3000,0.2624,-19.50,-22.20,-68.84,1.1330,0.0000,1.5170,0.9580,2.3960,0
22561,0.2061,-0.1284,0.3043,-0.1271,0.0465,0.0123,-2.06,0.62,2.75,0,3.436,3.384,3.940,7.491,0.004,-0.011,0.997,0.000,0.000,0.000,0.3030,-1,0,-3.56,-1.66,3.92,0.1785,-0.2008,0.3053,-0.1378,0.1791,0.3000,0.2624,-17.49,-21.08,-82.52,1.1330,0.0000,1.5290,0.9600,2.4040,0
22612,0.1956,-0.1256,0.3067,-0.1433,0.0640,0.0167,-1.90,0.42,3.12,0,3.431,3.360,9.954,5.817,0.007,-0.013,0.990,0.000,0.000,0.000,0.3050,-2,3,-3.38,-1.35,4.52,0.1783,-0.1979,0.3064,-0.1420,0.1781,0.3000,0.2615,-16.22,-19.99,-93.69,1.0650,0.0000,1.5290,0.9600,2.4040,0
22664,0.1914,-0.1246,0.3055,-0.1402,0.0733,0.0049,-1.62,-0.00,3.39,0,3.431,2.027,1.998,3.097,0.008,-0.017,0.992,0.000,0.000,0.000,0.3050,-11,24,-3.20,-0.82,4.80,0.1684,-0.1925,0.3064,-0.1462,0.1768,0.3000,0.2630,-15.24,-19.90,-101.65,1.0650,0.0000,1.5420,0.9710,2.3980,0
22716,0.1960,-0.1277,0.3055,-0.1110,0.0680,0.0010,-1.38,-0.11,3.52,0,3.426,2.678,-1.146,0.425,0.010,-0.014,0.992,0.000,0.000,0.000,0.3030,-1,0,-3.24,-1.13,3.81,0.0921,-0.1636,0.2992,-0.1502,0.1750,0.3000,0.2634,-15.22,-21.51,-105.53,1.0310,0.0000,1.5420,0.9710,2.3980,0
22768,0.1742,-0.1154,0.3051,-0.1489,0.1010,-0.0044,-1.21,-0.15,3.55,0,3.426,5.413,5.040,-1.970,0.005,-0.013,0.993,0.000,0.000,0.000,0.3050,0,0,-3.04,-1.03,4.24,0.0915,-0.1606,0.3051,-0.1541,0.1728,0.3000,0.2641,-12.46,-18.67,-106.62,1.0310,0.0000,1.5490,0.9860,2.4020,0
22819,0.1688,-0.1102,0.3038,-0.1433,0.1113,-0.0115,-0.98,-0.42,3.48,0,3.426,8.918,3.360,-4.082,0.008,-0.015,0.995,0.000,0.000,0.000,0.3030,-2,2,-2.76,-0.78,4.12,0.0721,-0.1491,0.3044,-0.1578,0.1703,0.3000,0.2651,-11.13,-18.62,-104.40,1.0150,0.0000,1.5490,0.9860,2.4020,0
22870,0.1599,-0.1022,0.3038,-0.1454,0.1261,-0.0102,-0.64,-0.64,3.27,0,3.426,5.200,-0.747,-7.556,0.005,-0.019,0.997,0.000,0.000,0.000,0.3050,-4,4,-2.12,-0.34,4.62,0.0987,-0.1656,0.3125,-0.1614,0.1674,0.3000,0.2649,-9.43,-18.09,-98.00,1.0150,0.0000,1.5570,1.0030,2.3980,0
22921,0.1545,-0.0965,0.3029,-0.1360,0.1300,-0.0139,-0.40,-0.61,2.95,0,3.426,2.710,1.609,-6.517,0.001,-0.013,1.003,0.000,0.000,0.000,0.3000,-4,0,-1.86,-0.39,4.23,0.0865,-0.1556,0.3107,-0.1648,0.1642,0.3000,0.2655,-8.33,-18.22,-88.45,1.0210,0.0000,1.5570,1.0030,2.3980,0
22972,0.1481,-0.0917,0.3034,-0.1298,0.1286,-0.0088,-0.07,-0.70,2.61,0,3.426,3.298,-0.734,-6.676,0.008,-0.017,1.005,0.000,0.000,0.000,0.3000,-2,2,-1.74,-0.26,4.04,0.0843,-0.1453,0.3081,-0.1681,0.1606,0.3000,0.2649,-7.54,-18.21,-78.26,1.0210,0.0000,1.5610,1.0080,2.3980,0
23024,0.1410,-0.0818,0.3013,-0.1259,0.1380,-0.0138,0.12,-0.71,2.25,0,3.421,0.099,-4.593,-6.382,0.003,-0.016,1.002,0.000,0.000,0.000,0.2990,2,1,-1.54,-0.29,3.74,0.0775,-0.1394,0.3061,-0.1713,0.1566,0.3000,0.2658,-5.85,-17.95,-67.53,1.0300,0.0000,1.5610,1.0080,2.3980,0
23076,0.1373,-0.0752,0.3001,-0.1137,0.1364,-0.0136,0.22,-0.63,1.95,0,3.426,-0.196,-3.997,-6.217,0.000,-0.013,1.011,0.000,0.000,0.000,0.2980,-3,4,-1.44,-0.50,3.50,0.0744,-0.1445,0.3051,-0.1743,0.1523,0.3000,0.2660,-4.89,-18.29,-58.57,1.0300,0.0000,1.5490,1.0290,2.4050,0
23127,0.1333,-0.0737,0.2990,-0.1039,0.1214,-0.0123,0.22,-0.45,1.65,0,3.421,-6.296,-7.127,-6.591,-0.000,-0.016,1.005,0.000,0.000,0.000,0.2960,3,0,-1.46,-0.74,3.15,0.0628,-0.1367,0.3029,-0.1772,0.1477,0.3000,0.2661,-4.90,-18.50,-49.38,1.0420,0.0000,1.5490,1.0290,2.4050,0
23179,0.1272,-0.0679,0.2980,-0.1026,0.1196,-0.0091,-0.01,-0.13,1.33,0,3.421,-11.281,-6.585,-7.170,0.005,-0.013,1.009,0.000,0.000,0.000,0.2990,-2,3,-1.67,-1.06,2.91,0.0626,-0.1450,0.3023,-0.1799,0.1428,0.3000,0.2659,-4.00,-18.23,-39.79,1.0420,0.0000,1.5280,1.0410,2.4050,0
23230,0.1222,-0.0645,0.2967,-0.1012,0.1132,-0.0099,-0.46,0.19,0.97,0,3.421,-1.149,0.208,-7.507,0.005,-0.015,1.009,0.000,0.000,0.000,0.2970,-3,3,-2.26,-1.42,2.54,0.0537,-0.1396,0.3015,-0.1825,0.1375,0.3000,0.2662,-3.47,-17.99,-29.01,1.0620,0.0000,1.5280,1.0410,2.4050,0
23281,0.1152,-0.0601,0.2976,-0.1081,0.1132,0.0004,-0.57,0.26,0.60,0,3.421,-2.915,-3.460,-8.036,0.009,-0.015,1.008,0.000,0.000,0.000,0.2960,-1,0,-2.33,-1.42,2.16,0.0446,-0.1313,0.3003,-0.1850,0.1320,0.3000,0.2650,-2.58,-17.37,-17.91,1.0620,0.0000,1.5090,1.0470,2.3960,0
23333,0.1092,-0.0568,0.2974,-0.1119,0.1115,0.0034,-0.67,0.33,0.22,0,3.421,-7.230,-3.108,-7.658,0.006,-0.015,1.005,0.000,0.000,0.000,0.2960,-2,4,-2.44,-1.56,1.81,0.0441,-0.1285,0.3003,-0.1872,0.1262,0.3000,0.2647,-1.83,-16.86,-6.53,1.0830,0.0000,1.5090,1.0470,2.3960,0
23384,0.1030,-0.0520,0.2969,-0.1165,0.1152,0.0041,-1.02,0.40,-0.14,0,3.426,-4.315,2.579,-8.004,-0.001,-0.016,1.001,0.000,0.000,0.000,0.2960,0,2,-2.80,-1.77,1.39,0.0324,-0.1229,0.2992,-0.1893,0.1203,0.3000,0.2647,-0.70,-16.26,4.33,1.0830,0.0000,1.4910,1.0520,2.4020,0
23435,0.0943,-0.0466,0.2967,-0.1273,0.1225,0.0044,-1.18,0.22,-0.51,0,3.421,-0.853,5.565,-6.674,0.006,-0.014,1.009,0.000,0.000,0.000,0.2980,-3,7,-2.96,-1.63,0.97,0.0265,-0.1230,0.2993,-0.1913,0.1140,0.3000,0.2647,0.62,-15.23,15.26,1.0980,0.0000,1.4910,1.0520,2.4020,0
23487,0.0890,-0.0416,0.2966,-0.1262,0.1291,0.0060,-1.37,0.20,-0.83,0,3.426,0.278,3.216,-6.346,0.009,-0.014,1.009,0.000,0.000,0.000,0.2940,-4,9,-3.01,-1.44,0.52,0.0058,-0.1137,0.2984,-0.1931,0.1075,0.3000,0.2645,1.89,-14.92,25.02,1.0980,0.0000,1.4740,1.0560,2.3970,0
23537,0.0815,-0.0356,0.2977,-0.1295,0.1389,0.0117,-1.36,0.01,-1.12,0,3.421,-0.190,6.743,-3.328,0.007,-0.011,1.005,0.000,0.000,0.000,0.2990,-2,0,-3.00,-1.38,0.04,-0.0200,-0.1017,0.2956,-0.1947,0.1009,0.3000,0.2637,3.38,-14.31,33.48,1.1140,0.0000,1.4740,1.0560,2.3970,0
23589,0.0702,-0.0271,0.2963,-0.1411,0.1535,0.0044,-1.32,-0.34,-1.33,0,3.421,9.962,8.028,-2.565,0.009,-0.010,1.005,0.000,0.000,0.000,0.2970,-2,7,-2.99,-0.96,0.01,-0.0217,-0.0957,0.2990,-0.1962,0.0939,0.3000,0.2648,5.24,-12.95,40.02,1.1140,0.0000,1.4690,1.0750,2.3970,0
23641,0.0655,-0.0224,0.2980,-0.1322,0.1562,0.0125,-1.02,-0.56,-1.47,0,3.421,4.258,5.205,-1.872,0.004,-0.016,0.995,0.000,0.000,0.000,0.2960,-3,6,-2.44,-0.60,-0.27,-0.0422,-0.0892,0.2987,-0.1976,0.0868,0.3000,0.2636,6.32,-13.03,44.02,1.1140,0.0000,1.4690,1.0750,2.3970,0
23693,0.0561,-0.0146,0.2980,-0.1341,0.1644,0.0094,-0.90,-0.65,-1.57,0,3.421,-0.099,-4.499,-0.349,0.010,-0.013,1.006,0.000,0.000,0.000,0.2990,-2,2,-2.21,-0.36,-0.42,-0.0597,-0.0800,0.2981,-0.1987,0.0796,0.3000,0.2639,7.81,-12.25,47.13,1.1140,0.0000,1.4640,1.0810,2.3920,0
23744,0.0475,-0.0088,0.2975,-0.1333,0.1649,0.0065,-0.83,-0.62,-1.58,0,3.421,4.776,5.672,-0.493,0.008,-0.009,1.001,0.000,0.000,0.000,0.3030,-4,4,-2.19,-0.53,-0.33,-0.0658,-0.0746,0.3003,-0.1997,0.0723,0.3000,0.2643,8.79,-11.61,47.35,1.1110,0.0000,1.4640,1.0810,2.3920,0
23796,0.0428,-0.0011,0.2986,-0.1229,0.1700,0.0110,-0.74,-0.82,-1.55,0,3.426,-0.959,-5.802,2.025,0.007,-0.013,1.001,0.000,0.000,0.000,0.3010,-1,1,-1.95,-0.24,-0.36,-0.0783,-0.0622,0.3018,-0.2006,0.0647,0.3000,0.2636,10.14,-11.71,46.50,1.1110,0.0000,1.4600,1.0990,2.3930,0
23848,0.0353,0.0063,0.3014,-0.1199,0.1727,0.0204,-0.63,-0.75,-1.43,0,3.426,-2.070,-3.358,4.554,0.004,-0.010,0.997,0.000,0.000,0.000,0.3050,-7,4,-1.95,-0.48,-0.15,-0.0816,-0.0597,0.3042,-0.2012,0.0571,0.3000,0.2621,11.38,-11.30,42.84,1.1030,0.0000,1.4600,1.0990,2.3930,0
23900,0.0312,0.0115,0.3021,-0.1088,0.1686,0.0180,-0.66,-0.60,-1.24,0,3.426,1.917,-0.373,4.433,0.005,-0.013,0.991,0.000,0.000,0.000,0.3090,-3,3,-2.13,-0.65,0.08,-0.0938,-0.0384,0.3047,-0.2018,0.0494,0.3000,0.2622,12.07,-11.41,37.31,1.1030,0.0000,1.4780,1.1070,2.3880,0
23952,0.0251,0.0209,0.3044,-0.1046,0.1753,0.0213,-0.57,-0.66,-1.04,0,3.426,2.584,-0.077,4.883,0.006,-0.015,0.988,0.000,0.000,0.000,0.3100,-4,3,-2.01,-0.64,0.33,-0.1034,-0.0289,0.3074,-0.2021,0.0416,0.3000,0.2614,13.56,-11.10,31.14,1.0930,0.0000,1.4780,1.1070,2.3880,0
24003,0.0206,0.0289,0.3077,-0.0974,0.1776,0.0273,-0.44,-0.49,-0.81,0,3.431,5.324,1.099,3.744,0.006,-0.014,0.987,0.000,0.000,0.000,0.3140,-1,0,-1.87,-0.63,0.60,-0.1129,-0.0168,0.3091,-0.2023,0.0339,0.3000,0.2602,14.76,-11.04,24.39,1.0930,0.0000,1.5040,1.1190,2.3810,0
