time_ms,pos_x,pos_y,pos_z,vel_x,vel_y,vel_z,roll,pitch,yaw,thrust,vbat,gyro_x,gyro_y,gyro_z,acc_x,acc_y,acc_z,rate_roll,rate_pitch,rate_yaw,range_z,flow_dx,flow_dy,mekf_roll,mekf_pitch,mekf_yaw,mekf_x,mekf_y,mekf_z,our_ref_x,our_ref_y,our_ref_z,our_thrust,our_roll_cmd,our_pitch_cmd,our_yaw_rate_cmd,multi_front,multi_back,multi_left,multi_right,multi_up,ai_feat_count,vo_x,vo_y,vo_sigma,pg_x,pg_y,lc_count,canfly,is_tumbled,ctrltarget_z,motor_m1req,ctrltarget_x,ctrltarget_y,motor_m2req,motor_m3req,motor_m4req
0,-0.0034,0.0081,0.0064,0.0005,-0.0014,-0.0064,-0.21,-0.61,0.10,0,4.091,-0.295,-0.191,0.081,-0.013,-0.003,0.999,0.000,0.000,0.000,0.0060,-7,0,0.00,0.00,0.00,0.0000,0.0000,0.0000,0.0000,0.0000,0.0000,0.0000,0.00,0.00,0.00,0.0000,0.1050,1.2790,1.1690,2.6960,0,0.0000,0.0000,0.0000,0.0000,0.0000,0,1,0,0.3000,0,-0.0000,0.0004,0,0,0
150,-0.0023,0.0081,0.0061,0.0067,-0.0018,-0.0056,-0.21,-0.68,0.09,0,4.096,0.096,0.077,-0.160,-0.010,-0.003,1.001,0.000,0.000,0.000,0.0080,-3,0,0.00,0.00,0.00,0.0000,0.0000,0.0000,0.0000,0.0000,0.0000,0.0000,0.00,0.00,0.00,0.0000,0.1060,1.2790,1.1690,2.6920,0,0.0000,0.0000,0.0000,0.0000,0.0000,0,1,0,0.3000,0,-0.0000,0.0004,0,0,0
301,-0.0044,0.0081,0.0067,-0.0049,-0.0018,-0.0011,-0.18,-0.59,0.09,0,4.096,-0.141,0.211,0.151,-0.013,-0.003,1.000,0.000,0.000,0.000,0.0080,-7,-2,0.00,0.00,0.00,0.0000,0.0000,0.0000,0.0000,0.0000,0.0000,0.0000,0.00,0.00,0.00,0.0000,0.1060,1.2830,1.1700,2.6920,0,0.0000,0.0000,0.0000,0.0000,0.0000,0,1,0,0.3000,0,-0.0000,0.0004,0,0,0
453,-0.0037,0.0086,0.0067,-0.0005,0.0011,-0.0014,-0.24,-0.65,0.09,0,4.096,0.034,-0.322,0.124,-0.015,-0.002,1.000,0.000,0.000,0.000,0.0080,0,0,0.00,0.00,0.00,0.0000,0.0000,0.0000,0.0000,0.0000,0.0000,0.0000,0.00,0.00,0.00,0.0000,0.1060,1.2830,1.1700,2.6970,0,0.0000,0.0000,0.0000,0.0000,0.0000,0,1,0,0.3000,0,-0.0000,0.0004,0,0,0
604,-0.0042,0.0081,0.0076,-0.0038,-0.0021,0.0032,-0.14,-0.60,0.09,0,4.091,-0.272,0.197,-0.013,-0.013,-0.004,1.001,0.000,0.000,0.000,0.0050,-2,2,0.00,0.00,0.00,0.0000,0.0000,0.0000,0.0000,0.0000,0.0000,0.0000,0.00,0.00,0.00,0.0000,0.1060,1.2830,1.1690,2.6970,0,0.0000,0.0000,0.0000,0.0000,0.0000,0,1,0,0.3000,0,-0.0000,0.0004,0,0,0
755,-0.0037,0.0089,0.0078,-0.0010,0.0026,0.0038,-0.20,-0.61,0.10,0,4.096,0.053,-0.008,-0.105,-0.012,0.001,1.000,0.000,0.000,0.000,0.0050,1,0,0.00,0.00,0.00,0.0000,0.0000,0.0000,0.0000,0.0000,0.0000,0.0000,0.00,0.00,0.00,0.0000,0.1050,1.2830,1.1690,2.7020,0,0.0000,0.0000,0.0000,0.0000,0.0000,0,1,0,0.3000,0,-0.0000,0.0004,0,0,0
907,-0.0046,0.0083,0.0065,-0.0057,-0.0004,-0.0030,-0.14,-0.61,0.10,0,4.091,0.084,0.031,-0.061,-0.013,-0.002,0.998,0.000,0.000,0.000,0.0060,-3,0,0.00,0.00,0.00,0.0000,0.0000,0.0000,0.0000,0.0000,0.0000,0.0000,0.00,0.00,0.00,0.0000,0.1050,1.2790,1.1650,2.7020,0,0.0000,0.0000,0.0000,0.0000,0.0000,0,1,0,0.3000,0,-0.0000,0.0004,0,0,0
959,-0.0043,0.0080,0.0056,-0.0035,-0.0014,-0.0058,-0.17,-0.63,0.10,0,4.096,0.153,-0.040,0.137,-0.013,-0.002,0.999,0.000,0.000,0.000,0.0090,-3,-1,0.00,0.00,0.00,0.0000,0.0000,0.0000,0.0000,0.0000,0.0000,0.0000,0.00,0.00,0.00,0.0000,0.1020,1.2790,1.1650,2.7030,0,0.0000,0.0000,0.0000,0.0000,0.0000,0,1,0,0.3000,0,-0.0000,0.0004,0,0,0
1010,-0.0045,0.0080,0.0069,-0.0049,-0.0009,0.0018,-0.17,-0.63,0.10,0,4.096,0.065,-0.255,0.431,-0.012,-0.001,1.002,0.000,0.000,0.000,0.0070,2,-1,0.00,0.00,0.00,0.0000,0.0000,0.0000,0.0000,0.0000,0.0000,0.0000,0.00,0.00,0.00,0.0000,0.1020,1.2770,1.1690,2.7030,0,0.0000,0.0000,0.0000,0.0000,0.0000,0,1,0,0.3000,0,-0.0000,0.0004,0,0,0
1061,-0.0042,0.0086,0.0070,-0.0028,0.0024,0.0021,-0.14,-0.65,0.10,0,4.091,0.039,-0.125,-0.101,-0.012,-0.003,1.002,0.000,0.000,0.000,0.0060,-3,0,0.00,0.00,0.00,0.0000,0.0000,0.0000,0.0000,0.0000,0.0000,0.0000,0.00,0.00,0.00,0.0000,0.1050,1.2770,1.1690,2.7030,0,0.0000,0.0000,0.0000,0.0000,0.0000,0,1,0,0.3000,0,-0.0000,0.0004,0,0,0
1113,-0.0037,0.0081,0.0067,0.0000,-0.0004,-0.0001,-0.17,-0.66,0.11,0,4.091,0.147,-0.124,-0.030,-0.011,-0.000,1.000,0.000,0.000,0.000,0.0070,0,1,0.00,0.00,0.00,0.0000,0.0000,0.0000,0.0000,0.0000,0.0000,0.0000,0.00,0.00,0.00,0.0000,0.1050,1.2830,1.1690,2.7030,0,0.0000,0.0000,0.0000,0.0000,0.0000,0,1,0,0.3000,0,-0.0000,0.0004,0,0,0
1164,-0.0034,0.0091,0.0067,0.0016,0.0048,0.0004,-0.18,-0.66,0.11,0,4.096,-0.027,0.136,0.096,-0.011,-0.004,1.000,0.000,0.000,0.000,0.0060,-3,0,0.00,0.00,0.00,0.0000,0.0000,0.0000,0.0000,0.0000,0.0000,0.0000,0.00,0.00,0.00,0.0000,0.1050,1.2830,1.1690,2.7040,0,0.0000,0.0000,0.0000,0.0000,0.0000,0,1,0,0.3000,0,-0.0000,0.0004,0,0,0
1215,-0.0047,0.0081,0.0065,-0.0044,-0.0010,-0.0007,-0.17,-0.62,0.11,0,4.091,-0.094,0.076,-0.014,-0.013,-0.000,1.002,0.000,0.000,0.000,0.0090,0,6,0.00,0.00,0.00,0.0000,0.0000,0.0000,0.0000,0.0000,0.0000,0.0000,0.00,0.00,0.00,0.0000,0.1050,1.2810,1.1660,2.7040,0,0.0000,0.0000,0.0000,0.0000,0.0000,0,1,0,0.3000,0,-0.0000,0.0004,0,0,0
1267,-0.0028,0.0092,0.0065,0.0052,0.0048,-0.0005,-0.19,-0.64,0.11,0,4.096,0.090,0.101,0.019,-0.012,-0.004,1.001,0.000,0.000,0.000,0.0060,-1,1,0.00,0.00,0.00,0.0000,0.0000,0.0000,0.0000,0.0000,0.0000,0.0000,0.00,0.00,0.00,0.0000,0.1040,1.2810,1.1660,2.6990,0,0.0000,0.0000,0.0000,0.0000,0.0000,0,1,0,0.3000,0,-0.0000,0.0004,0,0,0
1317,-0.0042,0.0081,0.0078,-0.0018,-0.0018,0.0057,-0.14,-0.63,0.11,0,4.091,-0.016,-0.163,0.165,-0.012,-0.004,1.000,0.000,0.000,0.000,0.0050,2,-5,0.00,0.00,0.00,0.0000,0.0000,0.0000,0.0000,0.0000,0.0000,0.0000,0.00,0.00,0.00,0.0000,0.1040,1.2850,1.1710,2.6990,0,0.0000,0.0000,0.0000,0.0000,0.0000,0,1,0,0.3000,0,-0.0000,0.0004,0,0,0
1368,-0.0035,0.0096,0.0072,0.0019,0.0061,0.0020,-0.17,-0.72,0.11,0,4.091,0.199,0.056,0.005,-0.014,-0.002,1.001,0.000,0.000,0.000,0.0080,-10,0,0.00,0.00,0.00,0.0000,0.0000,0.0000,0.0000,0.0000,0.0000,0.0000,0.00,0.00,0.00,0.0000,0.1050,1.2850,1.1710,2.6910,0,0.0000,0.0000,0.0000,0.0000,0.0000,0,1,0,0.3000,0,-0.0000,0.0004,0,0,0
1419,-0.0042,0.0078,0.0069,-0.0025,-0.0031,0.0009,-0.22,-0.64,0.11,0,4.091,-0.258,0.118,0.249,-0.014,-0.003,1.001,0.000,0.000,0.000,0.0060,-5,0,0.00,0.00,0.00,0.0000,0.0000,0.0000,0.0000,0.0000,0.0000,0.0000,0.00,0.00,0.00,0.0000,0.1050,1.2830,1.1670,2.6910,0,0.0000,0.0000,0.0000,0.0000,0.0000,0,1,0,0.3000,0,-0.0000,0.0004,0,0,0
1470,-0.0040,0.0081,0.0070,-0.0014,-0.0021,0.0014,-0.18,-0.65,0.11,0,4.096,0.114,0.255,0.015,-0.012,-0.005,0.999,0.000,0.000,0.000,0.0060,-5,-3,0.00,0.00,0.00,0.0000,0.0000,0.0000,0.0000,0.0000,0.0000,0.0000,0.00,0.00,0.00,0.0000,0.1060,1.2830,1.1670,2.7010,0,0.0000,0.0000,0.0000,0.0000,0.0000,0,1,0,0.3000,0,-0.0000,0.0004,0,0,0
1521,-0.0042,0.0081,0.0063,-0.0026,-0.0024,-0.0018,-0.19,-0.67,0.12,0,4.091,-0.073,0.001,-0.085,-0.015,-0.001,0.999,0.000,0.000,0.000,0.0070,-4,5,0.00,0.00,0.00,0.0000,0.0000,0.0000,0.0000,0.0000,0.0000,0.0000,0.00,0.00,0.00,0.0000,0.1060,1.2800,1.1700,2.7010,0,0.0000,0.0000,0.0000,0.0000,0.0000,0,1,0,0.3000,0,-0.0000,0.0004,0,0,0
1573,-0.0020,0.0083,0.0063,0.0088,-0.0003,-0.0010,-0.19,-0.68,0.11,0,4.091,-0.106,0.131,0.354,-0.013,-0.005,1.001,0.000,0.000,0.000,0.0070,-1,-1,0.00,0.00,0.00,0.0000,0.0000,0.0000,0.0000,0.0000,0.0000,0.0000,0.00,0.00,0.00,0.0000,0.1040,1.2800,1.1700,2.6990,0,0.0000,0.0000,0.0000,0.0000,0.0000,0,1,0,0.3000,0,-0.0000,0.0004,0,0,0
1623,-0.0045,0.0081,0.0068,-0.0049,-0.0016,0.0022,-0.15,-0.64,0.12,0,4.091,0.224,-0.432,0.109,-0.010,-0.003,1.000,0.000,0.000,0.000,0.0070,-7,0,0.00,0.00,0.00,0.0000,0.0000,0.0000,0.0000,0.0000,0.0000,0.0000,0.00,0.00,0.00,0.0000,0.1040,1.2870,1.1680,2.6990,0,0.0000,0.0000,0.0000,0.0000,0.0000,0,1,0,0.3000,0,-0.0000,0.0004,0,0,0
1674,-0.0022,0.0086,0.0069,0.0080,0.0015,0.0016,-0.23,-0.72,0.11,0,4.091,-0.133,0.116,0.241,-0.013,-0.005,1.000,0.000,0.000,0.000,0.0080,-3,-3,0.00,0.00,0.00,0.0000,0.0000,0.0000,0.0000,0.0000,0.0000,0.0000,0.00,0.00,0.00,0.0000,0.1030,1.2870,1.1680,2.7010,0,0.0000,0.0000,0.0000,0.0000,0.0000,0,1,0,0.3000,0,-0.0000,0.0004,0,0,0
1726,-0.0045,0.0078,0.0071,-0.0044,-0.0032,0.0022,-0.15,-0.67,0.11,0,4.091,-0.123,0.081,0.148,-0.013,-0.000,1.000,0.000,0.000,0.000,0.0080,4,-6,0.00,0.00,0.00,0.0000,0.0000,0.0000,0.0000,0.0000,0.0000,0.0000,0.00,0.00,0.00,0.0000,0.1030,1.2840,1.1650,2.7010,0,0.0000,0.0000,0.0000,0.0000,0.0000,0,1,0,0.3000,0,-0.0000,0.0004,0,0,0
1776,-0.0037,0.0092,0.0077,-0.0000,0.0046,0.0041,-0.14,-0.74,0.11,0,4.096,-0.133,-0.046,0.021,-0.011,-0.003,1.001,0.000,0.000,0.000,0.0090,0,0,0.00,0.00,0.00,0.0000,0.0000,0.0000,0.0000,0.0000,0.0000,0.0000,0.00,0.00,0.00,0.0000,0.1050,1.2840,1.1650,2.6900,0,0.0000,0.0000,0.0000,0.0000,0.0000,0,1,0,0.3000,0,-0.0000,0.0004,0,0,0
1828,-0.0045,0.0081,0.0084,-0.0035,-0.0007,0.0069,-0.14,-0.64,0.11,0,4.091,0.070,-0.061,-0.002,-0.012,-0.003,0.999,0.000,0.000,0.000,0.0060,-1,3,0.00,0.00,0.00,0.0000,0.0000,0.0000,0.0000,0.0000,0.0000,0.0000,0.00,0.00,0.00,0.0000,0.1050,1.2810,1.1690,2.6900,0,0.0000,0.0000,0.0000,0.0000,0.0000,0,1,0,0.3000,0,-0.0000,0.0004,0,0,0
1879,-0.0020,0.0089,0.0088,0.0096,0.0032,0.0067,-0.18,-0.70,0.11,0,4.091,0.057,-0.185,0.292,-0.011,-0.002,1.002,0.000,0.000,0.000,0.0080,0,-3,0.00,0.00,0.00,0.0000,0.0000,0.0000,0.0000,0.0000,0.0000,0.0000,0.00,0.00,0.00,0.0000,0.1040,1.2810,1.1690,2.6980,0,0.0000,0.0000,0.0000,0.0000,0.0000,0,1,0,0.3000,0,-0.0000,0.0004,0,0,0
1930,-0.0045,0.0081,0.0078,-0.0036,-0.0011,0.0015,-0.14,-0.66,0.11,0,4.091,-0.315,-0.126,0.118,-0.011,-0.003,0.999,0.000,0.000,0.000,0.0040,-2,-5,0.00,0.00,0.00,0.0000,0.0000,0.0000,0.0000,0.0000,0.0000,0.0000,0.00,0.00,0.00,0.0000,0.1040,1.2870,1.1680,2.6980,0,0.0000,0.0000,0.0000,0.0000,0.0000,0,1,0,0.3000,0,-0.0000,0.0004,0,0,0
1981,-0.0042,0.0081,0.0079,-0.0018,-0.0012,0.0012,-0.16,-0.68,0.11,0,4.091,0.000,-0.013,0.306,-0.013,-0.004,1.003,0.000,0.000,0.000,0.0070,-6,0,0.00,0.00,0.00,0.0000,0.0000,0.0000,0.0000,0.0000,0.0000,0.0000,0.00,0.00,0.00,0.0000,0.1090,1.2870,1.1680,2.6970,0,0.0000,0.0000,0.0000,0.0000,0.0000,0,1,0,0.3000,0,-0.0000,0.0004,0,0,0
2032,-0.0045,0.0081,0.0064,-0.0033,-0.0015,-0.0049,-0.20,-0.63,0.11,0,4.091,0.129,-0.182,-0.105,-0.013,-0.000,0.999,0.000,0.000,0.000,0.0060,4,3,0.00,0.00,0.00,0.0000,0.0000,0.0000,0.0000,0.0000,0.0000,0.0000,0.00,0.00,0.00,0.0000,0.1090,1.2840,1.1690,2.6970,0,0.0000,0.0000,0.0000,0.0000,0.0000,0,1,0,0.3000,0,-0.0000,0.0004,0,0,0
2083,-0.0033,0.0090,0.0062,0.0027,0.0035,-0.0045,-0.14,-0.65,0.11,0,4.096,-0.091,-0.103,-0.121,-0.011,-0.005,0.998,0.000,0.000,0.000,0.0050,0,-8,0.00,0.00,0.00,0.0000,0.0000,0.0000,0.0000,0.0000,0.0000,0.0000,0.00,0.00,0.00,0.0000,0.1060,1.2840,1.1690,2.6990,0,0.0000,0.0000,0.0000,0.0000,0.0000,0,1,0,0.3000,0,-0.0000,0.0004,0,0,0
2134,-0.0042,0.0081,0.0059,-0.0017,-0.0013,-0.0051,-0.14,-0.72,0.11,0,4.091,0.111,-0.048,-0.051,-0.012,-0.006,1.001,0.000,0.000,0.000,0.0090,-5,-6,0.00,0.00,0.00,0.0000,0.0000,0.0000,0.0000,0.0000,0.0000,0.0000,0.00,0.00,0.00,0.0000,0.1060,1.2840,1.1680,2.6990,0,0.0000,0.0000,0.0000,0.0000,0.0000,0,1,0,0.3000,0,-0.0000,0.0004,0,0,0
2185,-0.0042,0.0081,0.0052,-0.0019,-0.0011,-0.0067,-0.19,-0.70,0.11,0,4.096,0.159,-0.115,-0.264,-0.010,-0.003,1.001,0.000,0.000,0.000,0.0060,-4,-3,0.00,0.00,0.00,0.0000,0.0000,0.0000,0.0000,0.0000,0.0000,0.0000,0.00,0.00,0.00,0.0000,0.1030,1.2840,1.1680,2.7010,0,0.0000,0.0000,0.0000,0.0000,0.0000,0,1,0,0.3000,0,-0.0000,0.0004,0,0,0
2237,-0.0044,0.0081,0.0066,-0.0031,-0.0011,0.0001,-0.18,-0.66,0.11,0,4.091,0.092,-0.014,0.110,-0.013,-0.003,1.002,0.000,0.000,0.000,0.0070,-5,0,0.00,0.00,0.00,0.0000,0.0000,0.0000,0.0000,0.0000,0.0000,0.0000,0.00,0.00,0.00,0.0000,0.1030,1.2860,1.1660,2.7010,0,0.0000,0.0000,0.0000,0.0000,0.0000,0,1,0,0.3000,0,-0.0000,0.0004,0,0,0
2287,-0.0045,0.0090,0.0066,-0.0033,0.0040,0.0008,-0.23,-0.63,0.11,0,4.091,-0.223,0.075,0.074,-0.014,-0.003,0.998,0.000,0.000,0.000,0.0070,-1,0,0.00,0.00,0.00,0.0000,0.0000,0.0000,0.0000,0.0000,0.0000,0.0000,0.00,0.00,0.00,0.0000,0.1070,1.2860,1.1660,2.6980,0,0.0000,0.0000,0.0000,0.0000,0.0000,0,1,0,0.3000,0,-0.0000,0.0004,0,0,0
2338,-0.0045,0.0081,0.0069,-0.0035,-0.0013,0.0020,-0.16,-0.64,0.11,0,4.091,-0.062,0.269,0.006,-0.013,-0.002,1.001,0.000,0.000,0.000,0.0070,0,-3,0.00,0.00,0.00,0.0000,0.0000,0.0000,0.0000,0.0000,0.0000,0.0000,0.00,0.00,0.00,0.0000,0.1070,1.2870,1.1650,2.6980,0,0.0000,0.0000,0.0000,0.0000,0.0000,0,1,0,0.3000,0,-0.0000,0.0004,0,0,0
2389,-0.0042,0.0088,0.0070,-0.0016,0.0025,0.0021,-0.17,-0.68,0.11,0,4.096,0.120,0.052,0.057,-0.008,-0.001,1.001,0.000,0.000,0.000,0.0060,1,-3,0.00,0.00,0.00,0.0000,0.0000,0.0000,0.0000,0.0000,0.0000,0.0000,0.00,0.00,0.00,0.0000,0.1060,1.2870,1.1650,2.7040,0,0.0000,0.0000,0.0000,0.0000,0.0000,0,1,0,0.3000,0,-0.0000,0.0004,0,0,0
2440,-0.0044,0.0083,0.0067,-0.0023,0.0003,-0.0000,-0.14,-0.67,0.11,0,4.091,0.154,-0.155,-0.086,-0.012,-0.004,1.000,0.000,0.000,0.000,0.0050,1,2,0.00,0.00,0.00,0.0000,0.0000,0.0000,0.0000,0.0000,0.0000,0.0000,0.00,0.00,0.00,0.0000,0.1060,1.2840,1.1670,2.7040,0,0.0000,0.0000,0.0000,0.0000,0.0000,0,1,0,0.3000,0,-0.0000,0.0004,0,0,0
2492,-0.0032,0.0092,0.0067,0.0051,0.0048,0.0008,-0.18,-0.67,0.11,0,4.091,0.039,-0.065,-0.057,-0.013,-0.003,0.998,0.000,0.000,0.000,0.0080,-6,0,0.00,0.00,0.00,0.0000,0.0000,0.0000,0.0000,0.0000,0.0000,0.0000,0.00,0.00,0.00,0.0000,0.1000,1.2840,1.1670,2.6860,0,0.0000,0.0000,0.0000,0.0000,0.0000,0,1,0,0.3000,0,-0.0000,0.0004,0,0,0
2542,-0.0045,0.0081,0.0059,-0.0024,-0.0009,-0.0028,-0.20,-0.64,0.11,0,4.091,-0.032,-0.121,-0.053,-0.012,-0.003,1.001,0.000,0.000,0.000,0.0070,0,-3,0.00,0.00,0.00,0.0000,0.0000,0.0000,0.0000,0.0000,0.0000,0.0000,0.00,0.00,0.00,0.0000,0.1000,1.2860,1.1720,2.6860,0,0.0000,0.0000,0.0000,0.0000,0.0000,0,1,0,0.3000,0,-0.0000,0.0004,0,0,0
2593,-0.0045,0.0088,0.0069,-0.0023,0.0025,0.0022,-0.17,-0.66,0.11,0,4.091,0.003,0.033,0.270,-0.010,-0.003,1.002,0.000,0.000,0.000,0.0070,-3,0,0.00,0.00,0.00,0.0000,0.0000,0.0000,0.0000,0.0000,0.0000,0.0000,0.00,0.00,0.00,0.0000,0.1060,1.2860,1.1720,2.6960,0,0.0000,0.0000,0.0000,0.0000,0.0000,0,1,0,0.3000,0,-0.0000,0.0004,0,0,0
2644,-0.0043,0.0082,0.0071,-0.0009,-0.0013,0.0026,-0.17,-0.64,0.11,0,4.091,0.165,-0.049,0.213,-0.012,-0.006,0.999,0.000,0.000,0.000,0.0060,0,0,0.00,0.00,0.00,0.0000,0.0000,0.0000,0.0000,0.0000,0.0000,0.0000,0.00,0.00,0.00,0.0000,0.1060,1.2850,1.1690,2.6960,0,0.0000,0.0000,0.0000,0.0000,0.0000,0,1,0,0.3000,0,-0.0000,0.0004,0,0,0
2695,-0.0034,0.0092,0.0072,0.0037,0.0037,0.0026,-0.19,-0.68,0.12,0,4.096,0.041,0.247,0.098,-0.011,-0.005,1.001,0.000,0.000,0.000,0.0050,-7,-4,0.00,0.00,0.00,0.0000,0.0000,0.0000,0.0000,0.0000,0.0000,0.0000,0.00,0.00,0.00,0.0000,0.1040,1.2850,1.1690,2.6960,0,0.0000,0.0000,0.0000,0.0000,0.0000,0,1,0,0.3000,0,-0.0000,0.0004,0,0,0
2746,-0.0033,0.0086,0.0060,0.0039,-0.0003,-0.0033,-0.23,-0.73,0.12,0,4.091,0.024,-0.170,0.287,-0.012,-0.001,1.001,0.000,0.000,0.000,0.0050,-6,-9,0.00,0.00,0.00,0.0000,0.0000,0.0000,0.0000,0.0000,0.0000,0.0000,0.00,0.00,0.00,0.0000,0.1040,1.2860,1.1690,2.6960,0,0.0000,0.0000,0.0000,0.0000,0.0000,0,1,0,0.3000,0,-0.0000,0.0004,0,0,0
2797,-0.0045,0.0088,0.0059,-0.0029,0.0012,-0.0028,-0.22,-0.72,0.12,0,4.096,0.014,0.230,0.428,-0.013,0.001,0.999,0.000,0.000,0.000,0.0040,0,1,0.00,0.00,0.00,0.0000,0.0000,0.0000,0.0000,0.0000,0.0000,0.0000,0.00,0.00,0.00,0.0000,0.1080,1.2860,1.1690,2.7030,0,0.0000,0.0000,0.0000,0.0000,0.0000,0,1,0,0.3000,0,-0.0000,0.0004,0,0,0
2849,-0.0040,0.0081,0.0048,-0.0010,-0.0021,-0.0073,-0.13,-0.64,0.12,0,4.091,-0.018,-0.042,-0.056,-0.010,-0.000,0.999,0.000,0.000,0.000,0.0040,-1,-6,0.00,0.00,0.00,0.0000,0.0000,0.0000,0.0000,0.0000,0.0000,0.0000,0.00,0.00,0.00,0.0000,0.1080,1.2860,1.1720,2.7030,0,0.0000,0.0000,0.0000,0.0000,0.0000,0,1,0,0.3000,0,-0.0000,0.0004,0,0,0
2899,-0.0045,0.0088,0.0045,-0.0032,0.0026,-0.0072,-0.18,-0.69,0.12,0,4.091,0.205,0.077,-0.030,-0.013,-0.000,0.996,0.000,0.000,0.000,0.0060,-2,-1,0.00,0.00,0.00,0.0000,0.0000,0.0000,0.0000,0.0000,0.0000,0.0000,0.00,0.00,0.00,0.0000,0.1050,1.2860,1.1720,2.6990,0,0.0000,0.0000,0.0000,0.0000,0.0000,0,1,0,0.3000,0,-0.0000,0.0004,0,0,0
2950,-0.0047,0.0081,0.0039,-0.0045,-0.0010,-0.0083,-0.15,-0.63,0.12,0,4.091,-0.054,0.046,0.113,-0.013,-0.004,1.001,0.000,0.000,0.000,0.0060,-2,0,0.00,0.00,0.00,0.0000,0.0000,0.0000,0.0000,0.0000,0.0000,0.0000,0.00,0.00,0.00,0.0000,0.1050,1.2820,1.1680,2.6990,0,0.0000,0.0000,0.0000,0.0000,0.0000,0,1,0,0.3000,0,-0.0000,0.0004,0,0,0
3002,-0.0034,0.0085,0.0046,0.0026,0.0012,-0.0037,-0.17,-0.68,0.12,0,4.096,-0.154,0.037,0.129,-0.012,-0.003,1.002,0.000,0.000,0.000,0.0040,-5,0,0.00,0.00,0.00,0.0000,0.0000,0.0000,0.0000,0.0000,0.0000,0.0000,0.00,0.00,0.00,0.0000,0.1030,1.2820,1.1680,2.6980,0,0.0000,0.0000,0.0000,0.0000,0.0000,0,1,0,0.3000,0,-0.0000,0.0004,0,0,0
3052,-0.0045,0.0081,0.0052,-0.0031,-0.0014,-0.0006,-0.18,-0.63,0.12,0,4.091,-0.157,-0.046,0.148,-0.012,-0.004,1.001,0.000,0.000,0.000,0.0060,-4,-2,0.00,0.00,0.00,0.0000,0.0000,0.0000,0.0000,0.0000,0.0000,0.0000,0.00,0.00,0.00,0.0000,0.1030,1.2830,1.1660,2.6980,0,0.0000,0.0000,0.0000,0.0000,0.0000,0,1,0,0.3000,0,-0.0000,0.0004,0,0,0
3103,-0.0038,0.0083,0.0045,0.0012,-0.0005,-0.0026,-0.17,-0.68,0.12,0,4.096,-0.108,-0.079,-0.096,-0.012,-0.003,1.001,0.000,0.000,0.000,0.0060,0,-4,0.00,0.00,0.00,0.0000,0.0000,0.0000,0.0000,0.0000,0.0000,0.0000,0.00,0.00,0.00,0.0000,0.1030,1.2830,1.1660,2.7090,0,0.0000,0.0000,0.0000,0.0000,0.0000,0,1,0,0.3000,0,-0.0000,0.0004,0,0,0
3155,-0.0042,0.0083,0.0055,-0.0016,-0.0006,0.0025,-0.13,-0.68,0.12,0,4.091,-0.115,0.263,0.026,-0.014,-0.004,0.999,0.000,0.000,0.000,0.0070,-2,0,0.00,0.00,0.00,0.0000,0.0000,0.0000,0.0000,0.0000,0.0000,0.0000,0.00,0.00,0.00,0.0000,0.1030,1.2810,1.1690,2.7090,0,0.0000,0.0000,0.0000,0.0000,0.0000,0,1,0,0.3000,0,-0.0000,0.0004,0,0,0
3205,-0.0034,0.0085,0.0057,0.0026,-0.0000,0.0023,-0.16,-0.67,0.12,0,4.096,0.231,0.071,0.103,-0.010,-0.003,0.999,0.000,0.000,0.000,0.0080,-1,0,0.00,0.00,0.00,0.0000,0.0000,0.0000,0.0000,0.0000,0.0000,0.0000,0.00,0.00,0.00,0.0000,0.1020,1.2810,1.1690,2.7020,0,0.0000,0.0000,0.0000,0.0000,0.0000,0,1,0,0.3000,0,-0.0000,0.0004,0,0,0
3257,-0.0042,0.0083,0.0071,-0.0020,-0.0008,0.0085,-0.14,-0.63,0.12,0,4.091,-0.162,0.027,0.105,-0.010,-0.004,1.002,0.000,0.000,0.000,0.0060,2,4,0.00,0.00,0.00,0.0000,0.0000,0.0000,0.0000,0.0000,0.0000,0.0000,0.00,0.00,0.00,0.0000,0.1020,1.2810,1.1690,2.7020,0,0.0000,0.0000,0.0000,0.0000,0.0000,0,1,0,0.3000,0,-0.0000,0.0004,0,0,0
3308,-0.0023,0.0100,0.0076,0.0092,0.0087,0.0090,-0.19,-0.68,0.12,0,4.096,-0.128,-0.092,-0.065,-0.012,-0.004,1.000,0.000,0.000,0.000,0.0060,-1,0,0.00,0.00,0.00,0.0000,0.0000,0.0000,0.0000,0.0000,0.0000,0.0000,0.00,0.00,0.00,0.0000,0.1010,1.2810,1.1690,2.7020,0,0.0000,0.0000,0.0000,0.0000,0.0000,0,1,0,0.3000,0,-0.0000,0.0004,0,0,0
3360,-0.0042,0.0083,0.0072,-0.0018,-0.0016,0.0056,-0.14,-0.63,0.12,0,4.091,-0.091,-0.019,-0.255,-0.011,-0.001,0.999,0.000,0.000,0.000,0.0060,5,0,0.00,0.00,0.00,0.0000,0.0000,0.0000,0.0000,0.0000,0.0000,0.0000,0.00,0.00,0.00,0.0000,0.1010,1.2860,1.1690,2.7020,0,0.0000,0.0000,0.0000,0.0000,0.0000,0,1,0,0.3000,0,-0.0000,0.0004,0,0,0
3410,-0.0025,0.0092,0.0069,0.0080,0.0036,0.0024,-0.13,-0.70,0.12,0,4.096,0.034,0.076,-0.384,-0.013,-0.003,1.001,0.000,0.000,0.000,0.0080,0,0,0.00,0.00,0.00,0.0000,0.0000,0.0000,0.0000,0.0000,0.0000,0.0000,0.00,0.00,0.00,0.0000,0.1040,1.2860,1.1690,2.7060,0,0.0000,0.0000,0.0000,0.0000,0.0000,0,1,0,0.3000,0,-0.0000,0.0004,0,0,0
3461,-0.0044,0.0081,0.0066,-0.0034,-0.0019,0.0006,-0.13,-0.61,0.12,0,4.091,-0.086,0.070,0.139,-0.011,-0.001,1.002,0.000,0.000,0.000,0.0090,-4,-4,0.00,0.00,0.00,0.0000,0.0000,0.0000,0.0000,0.0000,0.0000,0.0000,0.00,0.00,0.00,0.0000,0.1040,1.2890,1.1660,2.7060,0,0.0000,0.0000,0.0000,0.0000,0.0000,0,1,0,0.3000,0,-0.0000,0.0004,0,0,0
3512,-0.0034,0.0092,0.0074,0.0031,0.0042,0.0046,-0.21,-0.70,0.12,0,4.096,-0.371,-0.116,0.080,-0.012,-0.003,0.999,0.000,0.000,0.000,0.0100,0,2,0.00,0.00,0.00,0.0000,0.0000,0.0000,0.0000,0.0000,0.0000,0.0000,0.00,0.00,0.00,0.0000,0.1030,1.2890,1.1660,2.7080,0,0.0000,0.0000,0.0000,0.0000,0.0000,0,1,0,0.3000,0,-0.0000,0.0004,0,0,0
3563,-0.0038,0.0081,0.0091,-0.0004,-0.0025,0.0120,-0.13,-0.62,0.12,0,4.091,-0.079,-0.048,0.218,-0.010,-0.001,1.000,0.000,0.000,0.000,0.0070,-3,-3,0.00,0.00,0.00,0.0000,0.0000,0.0000,0.0000,0.0000,0.0000,0.0000,0.00,0.00,0.00,0.0000,0.1030,1.2870,1.1690,2.7080,0,0.0000,0.0000,0.0000,0.0000,0.0000,0,1,0,0.3000,0,-0.0000,0.0004,0,0,0
3615,-0.0040,0.0078,0.0097,-0.0013,-0.0035,0.0120,-0.15,-0.66,0.11,0,4.096,0.068,-0.002,-0.271,-0.013,-0.004,1.002,0.000,0.000,0.000,0.0070,-5,-3,0.00,0.00,0.00,0.0000,0.0000,0.0000,0.0000,0.0000,0.0000,0.0000,0.00,0.00,0.00,0.0000,0.1040,1.2870,1.1690,2.7010,0,0.0000,0.0000,0.0000,0.0000,0.0000,0,1,0,0.3000,0,-0.0000,0.0004,0,0,0
3666,-0.0040,0.0081,0.0081,-0.0017,-0.0026,0.0020,-0.18,-0.66,0.11,0,4.091,-0.028,-0.083,-0.174,-0.013,-0.003,1.000,0.000,0.000,0.000,0.0090,-4,0,0.00,0.00,0.00,0.0000,0.0000,0.0000,0.0000,0.0000,0.0000,0.0000,0.00,0.00,0.00,0.0000,0.1040,1.2830,1.1640,2.7010,0,0.0000,0.0000,0.0000,0.0000,0.0000,0,1,0,0.3000,0,-0.0000,0.0004,0,0,0
3716,-0.0025,0.0091,0.0083,0.0067,0.0039,0.0028,-0.22,-0.70,0.11,0,4.096,-0.113,-0.021,-0.164,-0.012,-0.005,1.001,0.000,0.000,0.000,0.0070,-3,-6,0.00,0.00,0.00,0.0000,0.0000,0.0000,0.0000,0.0000,0.0000,0.0000,0.00,0.00,0.00,0.0000,0.1040,1.2830,1.1640,2.7070,0,0.0000,0.0000,0.0000,0.0000,0.0000,0,1,0,0.3000,0,-0.0000,0.0004,0,0,0
3768,-0.0044,0.0085,0.0089,-0.0039,-0.0003,0.0053,-0.18,-0.67,0.11,0,4.091,-0.020,-0.148,-0.161,-0.011,-0.002,1.001,0.000,0.000,0.000,0.0040,3,0,0.00,0.00,0.00,0.0000,0.0000,0.0000,0.0000,0.0000,0.0000,0.0000,0.00,0.00,0.00,0.0000,0.1040,1.2860,1.1690,2.7070,0,0.0000,0.0000,0.0000,0.0000,0.0000,0,1,0,0.3000,0,-0.0000,0.0004,0,0,0
3819,-0.0045,0.0100,0.0082,-0.0038,0.0079,0.0016,-0.18,-0.62,0.11,0,4.091,0.282,-0.058,-0.143,-0.012,-0.003,0.999,0.000,0.000,0.000,0.0060,-5,-4,0.00,0.00,0.00,0.0000,0.0000,0.0000,0.0000,0.0000,0.0000,0.0000,0.00,0.00,0.00,0.0000,0.1040,1.2860,1.1690,2.7040,0,0.0000,0.0000,0.0000,0.0000,0.0000,0,1,0,0.3000,0,-0.0000,0.0004,0,0,0
3871,0.0000,0.0000,0.4480,-0.0010,0.0011,0.0002,-0.09,-0.08,0.00,0,4.086,-0.081,0.061,-0.001,-0.011,-0.003,1.001,0.000,0.000,0.000,0.0060,0,1,0.00,0.00,0.00,0.0000,0.0000,0.0000,0.0000,0.0000,0.0000,0.0000,0.00,0.00,0.00,0.0000,0.1040,1.2800,1.1650,2.7040,0,0.0000,0.0000,0.0000,0.0000,0.0000,0,1,0,0.3000,0,-0.0000,0.0004,0,0,0
3922,0.0003,0.0005,0.0061,0.0008,0.0063,0.0013,-0.12,-0.11,0.00,0,4.096,-0.034,0.088,-0.188,-0.009,-0.003,1.001,0.000,0.000,0.000,0.0080,0,0,0.00,0.00,0.00,0.0000,0.0000,0.0000,0.0000,0.0000,0.0000,0.0000,0.00,0.00,0.00,0.0000,0.1080,1.2800,1.1650,2.6920,0,0.0000,0.0000,0.0000,0.0000,0.0000,0,1,0,0.3000,0,-0.0000,0.0004,0,0,0
3973,-0.0003,-0.0001,0.0069,-0.0092,-0.0037,0.0041,0.09,-0.02,0.00,0,4.091,-0.275,0.095,0.231,-0.013,-0.001,0.999,0.000,0.000,0.000,0.0040,0,8,0.00,0.00,0.00,0.0000,0.0000,0.0000,0.0000,0.0000,0.0000,0.0000,0.00,0.00,0.00,0.0000,0.1080,1.2840,1.1720,2.6920,0,0.0000,0.0000,0.0000,0.0000,0.0000,0,1,0,0.3000,0,-0.0000,0.0004,0,0,0
4025,0.0012,0.0009,0.0071,0.0069,0.0070,0.0039,-0.19,-0.12,0.00,0,4.091,0.120,0.050,-0.063,-0.013,-0.004,1.001,0.000,0.000,0.000,0.0060,1,-5,0.00,0.00,0.00,0.0000,0.0000,0.0000,0.0000,0.0000,0.0000,0.0000,0.00,0.00,0.00,0.0000,0.1070,1.2840,1.1720,2.7070,0,0.0000,0.0000,0.0000,0.0000,0.0000,0,1,0,0.3000,0,-0.0000,0.0004,0,0,0
4077,-0.0007,0.0000,0.0059,-0.0126,-0.0034,-0.0013,0.06,-0.44,0.01,0,4.091,0.062,-0.024,-0.162,-0.011,0.001,1.000,0.000,0.000,0.000,0.0060,-3,1,0.00,0.00,0.00,0.0000,0.0000,0.0000,0.0000,0.0000,0.0000,0.0000,0.00,0.00,0.00,0.0000,0.1070,1.2860,1.1700,2.7070,0,0.0000,0.0000,0.0000,0.0000,0.0000,0,1,0,0.3000,0,-0.0000,0.0004,0,0,0
4129,0.0008,0.0000,0.0059,0.0011,-0.0026,-0.0005,-0.13,-0.49,0.01,0,4.091,0.065,-0.037,0.129,-0.013,-0.002,1.000,0.000,0.000,0.000,0.0060,-9,0,0.00,0.00,0.00,0.0000,0.0000,0.0000,0.0000,0.0000,0.0000,0.0000,0.00,0.00,0.00,0.0000,0.1050,1.2860,1.1700,2.7020,0,0.0000,0.0000,0.0000,0.0000,0.0000,0,1,0,0.3000,0,-0.0000,0.0004,0,0,0
4180,-0.0005,-0.0003,0.0060,-0.0102,-0.0049,-0.0002,-0.34,-0.37,0.01,0,4.091,0.195,0.097,-0.268,-0.009,-0.003,1.001,0.000,0.000,0.000,0.0040,-1,-2,0.00,0.00,0.00,0.0000,0.0000,0.0000,0.0000,0.0000,0.0000,0.0000,0.00,0.00,0.00,0.0000,0.1050,1.2810,1.1720,2.7020,0,0.0000,0.0000,0.0000,0.0000,0.0000,0,1,0,0.3000,0,-0.0000,0.0004,0,0,0
4230,0.0001,0.0009,0.0061,-0.0040,0.0034,0.0010,-0.17,-0.57,0.01,0,4.096,0.120,-0.255,-0.169,-0.011,-0.001,0.998,0.000,0.000,0.000,0.0070,0,-8,0.00,0.00,0.00,0.0000,0.0000,0.0000,0.0000,0.0000,0.0000,0.0000,0.00,0.00,0.00,0.0000,0.1050,1.2810,1.1720,2.7010,0,0.0000,0.0000,0.0000,0.0000,0.0000,0,1,0,0.3000,0,-0.0000,0.0004,0,0,0
4282,-0.0004,0.0000,0.0051,-0.0066,-0.0029,-0.0037,-0.05,-0.69,0.01,0,4.091,0.306,0.286,0.049,-0.013,-0.002,1.001,0.000,0.000,0.000,0.0060,3,0,0.00,0.00,0.00,0.0000,0.0000,0.0000,0.0000,0.0000,0.0000,0.0000,0.00,0.00,0.00,0.0000,0.1050,1.2830,1.1640,2.7010,0,0.0000,0.0000,0.0000,0.0000,0.0000,0,1,0,0.3000,0,-0.0000,0.0004,0,0,0
4333,-0.0005,0.0012,0.0060,-0.0070,0.0046,0.0016,-0.08,-0.49,0.00,0,4.096,-0.001,-0.150,0.043,-0.013,-0.004,1.000,0.000,0.000,0.000,0.0080,-1,0,0.00,0.00,0.00,0.0000,0.0000,0.0000,0.0000,0.0000,0.0000,0.0000,0.00,0.00,0.00,0.0000,0.1040,1.2830,1.1640,2.7120,0,0.0000,0.0000,0.0000,0.0000,0.0000,0,1,0,0.3000,0,-0.0000,0.0004,0,0,0
4385,-0.0003,-0.0002,0.0068,-0.0058,-0.0044,0.0054,-0.08,-0.52,0.00,0,4.086,0.026,0.053,-0.019,-0.012,-0.003,0.999,0.000,0.000,0.000,0.0060,0,4,0.00,0.00,0.00,0.0000,0.0000,0.0000,0.0000,0.0000,0.0000,0.0000,0.00,0.00,0.00,0.0000,0.1040,1.2820,1.1690,2.7120,0,0.0000,0.0000,0.0000,0.0000,0.0000,0,1,0,0.3000,0,-0.0000,0.0004,0,0,0
4437,0.0021,0.0016,0.0071,0.0086,0.0067,0.0059,-0.19,-0.62,-0.00,0,4.091,0.094,-0.044,0.072,-0.012,-0.003,1.001,0.000,0.000,0.000,0.0050,-3,1,0.00,0.00,0.00,0.0000,0.0000,0.0000,0.0000,0.0000,0.0000,0.0000,0.00,0.00,0.00,0.0000,0.1030,1.2820,1.1690,2.7030,0,0.0000,0.0000,0.0000,0.0000,0.0000,0,1,0,0.3000,0,-0.0000,0.0004,0,0,0
4487,-0.0000,-0.0002,0.0061,-0.0033,-0.0042,0.0000,-0.12,-0.55,-0.00,0,4.086,0.112,0.199,-0.062,-0.012,-0.001,1.003,0.000,0.000,0.000,0.0050,-2,-6,0.00,0.00,0.00,0.0000,0.0000,0.0000,0.0000,0.0000,0.0000,0.0000,0.00,0.00,0.00,0.0000,0.1030,1.2850,1.1690,2.7030,0,0.0000,0.0000,0.0000,0.0000,0.0000,0,1,0,0.3000,0,-0.0000,0.0004,0,0,0
4538,0.0003,0.0012,0.0062,-0.0012,0.0041,0.0013,-0.19,-0.69,-0.01,0,4.096,0.058,0.052,0.102,-0.012,-0.002,0.999,0.000,0.000,0.000,0.0090,1,0,0.00,0.00,0.00,0.0000,0.0000,0.0000,0.0000,0.0000,0.0000,0.0000,0.00,0.00,0.00,0.0000,0.1070,1.2850,1.1690,2.7000,0,0.0000,0.0000,0.0000,0.0000,0.0000,0,1,0,0.3000,0,-0.0000,0.0004,0,0,0
4590,-0.0004,0.0001,0.0071,-0.0058,-0.0017,0.0068,-0.08,-0.57,-0.01,0,4.086,-0.089,0.022,0.076,-0.013,-0.003,0.999,0.000,0.000,0.000,0.0060,0,-9,0.00,0.00,0.00,0.0000,0.0000,0.0000,0.0000,0.0000,0.0000,0.0000,0.00,0.00,0.00,0.0000,0.1070,1.2850,1.1650,2.7000,0,0.0000,0.0000,0.0000,0.0000,0.0000,0,1,0,0.3000,0,-0.0000,0.0004,0,0,0
4641,-0.0004,0.0001,0.0073,-0.0054,-0.0010,0.0065,-0.10,-0.70,-0.01,0,4.096,-0.027,-0.110,0.115,-0.012,-0.003,1.000,0.000,0.000,0.000,0.0070,-6,-4,0.00,0.00,0.00,0.0000,0.0000,0.0000,0.0000,0.0000,0.0000,0.0000,0.00,0.00,0.00,0.0000,0.1040,1.2850,1.1650,2.6920,0,0.0000,0.0000,0.0000,0.0000,0.0000,0,1,0,0.3000,0,-0.0000,0.0004,0,0,0
4692,-0.0001,-0.0001,0.0070,-0.0041,-0.0023,0.0036,-0.17,-0.64,-0.01,0,4.091,0.062,0.246,0.208,-0.011,-0.002,0.999,0.000,0.000,0.000,0.0050,3,3,0.00,0.00,0.00,0.0000,0.0000,0.0000,0.0000,0.0000,0.0000,0.0000,0.00,0.00,0.00,0.0000,0.1040,1.2820,1.1660,2.6920,0,0.0000,0.0000,0.0000,0.0000,0.0000,0,1,0,0.3000,0,-0.0000,0.0004,0,0,0
4743,0.0007,0.0007,0.0072,0.0000,0.0019,0.0036,-0.10,-0.60,-0.01,0,4.091,0.187,0.269,0.207,-0.012,-0.000,1.000,0.000,0.000,0.000,0.0060,0,-3,0.00,0.00,0.00,0.0000,0.0000,0.0000,0.0000,0.0000,0.0000,0.0000,0.00,0.00,0.00,0.0000,0.1070,1.2820,1.1660,2.7020,0,0.0000,0.0000,0.0000,0.0000,0.0000,0,1,0,0.3000,0,-0.0000,0.0004,0,0,0
4794,-0.0001,0.0007,0.0062,-0.0038,0.0020,-0.0013,-0.13,-0.64,-0.01,0,4.086,-0.151,0.136,-0.170,-0.009,-0.002,1.002,0.000,0.000,0.000,0.0080,-6,0,0.00,0.00,0.00,0.0000,0.0000,0.0000,0.0000,0.0000,0.0000,0.0000,0.00,0.00,0.00,0.0000,0.1070,1.2840,1.1710,2.7020,0,0.0000,0.0000,0.0000,0.0000,0.0000,0,1,0,0.3000,0,-0.0000,0.0004,0,0,0
4845,0.0010,0.0007,0.0061,0.0018,0.0017,-0.0008,-0.20,-0.65,-0.01,0,4.096,-0.248,-0.059,-0.146,-0.013,-0.002,1.001,0.000,0.000,0.000,0.0060,2,-3,0.00,0.00,0.00,0.0000,0.0000,0.0000,0.0000,0.0000,0.0000,0.0000,0.00,0.00,0.00,0.0000,0.1040,1.2840,1.1710,2.7010,0,0.0000,0.0000,0.0000,0.0000,0.0000,0,1,0,0.3000,0,-0.0000,0.0004,0,0,0
4897,-0.0004,0.0004,0.0067,-0.0049,0.0004,0.0017,-0.09,-0.63,-0.01,0,4.091,-0.018,0.106,0.002,-0.012,-0.003,1.000,0.000,0.000,0.000,0.0050,-3,-8,0.00,0.00,0.00,0.0000,0.0000,0.0000,0.0000,0.0000,0.0000,0.0000,0.00,0.00,0.00,0.0000,0.1040,1.2820,1.1670,2.7010,0,0.0000,0.0000,0.0000,0.0000,0.0000,0,1,0,0.3000,0,-0.0000,0.0004,0,0,0
4948,-0.0002,-0.0002,0.0068,-0.0035,-0.0029,0.0021,-0.14,-0.71,-0.01,0,4.096,0.253,-0.126,0.009,-0.010,-0.002,1.002,0.000,0.000,0.000,0.0090,0,-1,0.00,0.00,0.00,0.0000,0.0000,0.0000,0.0000,0.0000,0.0000,0.0000,0.00,0.00,0.00,0.0000,0.1060,1.2820,1.1670,2.7050,0,0.0000,0.0000,0.0000,0.0000,0.0000,0,1,0,0.3000,0,-0.0000,0.0004,0,0,0
5000,-0.0004,0.0002,0.0060,-0.0042,-0.0013,-0.0012,-0.11,-0.61,-0.01,0,4.091,-0.140,-0.030,-0.052,-0.011,0.000,0.999,0.000,0.000,0.000,0.0060,5,1,0.00,0.00,0.00,0.0000,0.0000,0.0000,0.0000,0.0000,0.0000,0.0000,0.00,0.00,0.00,0.0000,0.1060,1.2860,1.1680,2.7050,0,0.0000,0.0000,0.0000,0.0000,0.0000,0,1,0,0.3000,0,-0.0034,0.0081,0,0,0
5051,0.0015,0.0023,0.0075,0.0063,0.0098,0.0055,-0.14,-0.66,-0.01,0,4.091,-0.013,0.299,0.058,-0.009,-0.002,0.999,0.000,0.000,0.000,0.0070,-2,0,0.00,0.00,0.00,0.0000,0.0000,0.0000,0.0000,0.0000,0.0000,0.0000,0.00,0.00,0.00,0.0000,0.1040,1.2860,1.1680,2.7130,0,0.0000,0.0000,0.0000,0.0000,0.0000,0,1,0,0.2000,0,-0.0034,0.0081,0,0,0
5103,-0.0003,0.0002,0.0070,-0.0026,-0.0009,0.0018,-0.13,-0.60,-0.01,0,4.091,0.306,-0.159,0.054,-0.009,-0.001,0.999,0.000,0.000,0.000,0.0040,-1,-5,0.00,0.00,0.00,0.0000,0.0000,0.0000,0.0000,0.0000,0.0000,0.0000,0.00,0.00,0.00,0.0000,0.1040,1.2860,1.1720,2.7130,0,0.0000,0.0000,0.0000,0.0000,0.0000,0,1,0,0.2000,0,-0.0034,0.0081,0,0,0
5153,0.0002,-0.0001,0.0071,-0.0000,-0.0025,0.0020,-0.10,-0.68,-0.00,0,4.096,-0.218,0.107,0.020,-0.010,-0.002,1.004,0.000,0.000,0.000,0.0050,0,-8,0.00,0.00,0.00,0.0000,0.0000,0.0000,0.0000,0.0000,0.0000,0.0000,0.00,0.00,0.00,0.0000,0.1000,1.2860,1.1720,2.7040,0,0.0000,0.0000,0.0000,0.0000,0.0000,0,1,0,0.2000,0,-0.0023,0.0081,0,0,0
5204,-0.0001,-0.0001,0.0053,-0.0015,-0.0024,-0.0056,-0.09,-0.70,-0.00,0,4.091,-0.057,-0.029,-0.228,-0.012,-0.003,1.001,0.000,0.000,0.000,0.0080,0,1,0.00,0.00,0.00,0.0000,0.0000,0.0000,0.0000,0.0000,0.0000,0.0000,0.00,0.00,0.00,0.0000,0.1000,1.2820,1.1690,2.7040,0,0.0000,0.0000,0.0000,0.0000,0.0000,0,1,0,0.2200,0,-0.0023,0.0081,0,0,0
5255,0.0010,0.0010,0.0051,0.0038,0.0029,-0.0045,-0.13,-0.63,-0.00,0,4.096,0.322,0.236,0.012,-0.012,-0.004,1.002,0.000,0.000,0.000,0.0060,0,-7,0.00,0.00,0.00,0.0000,0.0000,0.0000,0.0000,0.0000,0.0000,0.0000,0.00,0.00,0.00,0.0000,0.1030,1.2820,1.1690,2.6980,0,0.0000,0.0000,0.0000,0.0000,0.0000,0,1,0,0.2200,0,-0.0023,0.0081,0,0,0
5306,-0.0004,-0.0001,0.0063,-0.0029,-0.0023,0.0020,-0.09,-0.67,-0.00,0,4.091,0.001,-0.028,0.236,-0.012,-0.002,1.004,0.000,0.000,0.000,0.0070,-2,-5,0.00,0.00,0.00,0.0000,0.0000,0.0000,0.0000,0.0000,0.0000,0.0000,0.00,0.00,0.00,0.0000,0.1030,1.2870,1.1660,2.6980,0,0.0000,0.0000,0.0000,0.0000,0.0000,0,1,0,0.2200,0,-0.0044,0.0081,0,0,0
5357,-0.0003,0.0007,0.0064,-0.0029,0.0014,0.0025,-0.14,-0.64,-0.00,0,4.091,0.030,0.016,-0.230,-0.012,-0.003,1.001,0.000,0.000,0.000,0.0080,-3,0,0.00,0.00,0.00,0.0000,0.0000,0.0000,0.0000,0.0000,0.0000,0.0000,0.00,0.00,0.00,0.0000,0.1080,1.2870,1.1660,2.7060,0,0.0000,0.0000,0.0000,0.0000,0.0000,0,1,0,0.2400,0,-0.0044,0.0081,0,0,0
5409,-0.0003,-0.0001,0.0073,-0.0031,-0.0026,0.0063,-0.12,-0.59,-0.00,0,4.086,0.186,0.143,0.103,-0.014,-0.003,1.002,0.000,0.000,0.000,0.0080,1,8,0.00,0.00,0.00,0.0000,0.0000,0.0000,0.0000,0.0000,0.0000,0.0000,0.00,0.00,0.00,0.0000,0.1080,1.2840,1.1620,2.7060,0,0.0000,0.0000,0.0000,0.0000,0.0000,0,1,0,0.2400,0,-0.0044,0.0081,0,0,0
5460,0.0019,0.0011,0.0076,0.0077,0.0036,0.0067,-0.12,-0.60,-0.00,0,4.096,-0.113,0.105,0.229,-0.011,-0.003,1.002,0.000,0.000,0.000,0.0080,-1,0,0.00,0.00,0.00,0.0000,0.0000,0.0000,0.0000,0.0000,0.0000,0.0000,0.00,0.00,0.00,0.0000,0.1030,1.2840,1.1620,2.7110,0,0.0000,0.0000,0.0000,0.0000,0.0000,0,1,0,0.2400,0,-0.0037,0.0086,0,0,0
5511,-0.0004,-0.0002,0.0082,-0.0041,-0.0032,0.0080,-0.10,-0.59,-0.00,0,4.091,0.145,-0.152,-0.020,-0.013,-0.002,1.002,0.000,0.000,0.000,0.0050,-5,5,0.00,0.00,0.00,0.0000,0.0000,0.0000,0.0000,0.0000,0.0000,0.0000,0.00,0.00,0.00,0.0000,0.1030,1.2790,1.1670,2.7110,0,0.0000,0.0000,0.0000,0.0000,0.0000,0,1,0,0.2600,0,-0.0037,0.0086,0,0,0
5562,0.0013,0.0010,0.0085,0.0044,0.0024,0.0083,-0.19,-0.61,-0.00,0,4.096,0.083,0.065,-0.378,-0.013,0.001,1.000,0.000,0.000,0.000,0.0070,0,-3,0.00,0.00,0.00,0.0000,0.0000,0.0000,0.0000,0.0000,0.0000,0.0000,0.00,0.00,0.00,0.0000,0.1080,1.2790,1.1670,2.6920,0,0.0000,0.0000,0.0000,0.0000,0.0000,0,1,0,0.2600,0,-0.0037,0.0086,0,0,0
5613,-0.0009,-0.0001,0.0071,-0.0062,-0.0029,0.0005,-0.09,-0.61,-0.00,0,4.091,-0.116,0.268,0.210,-0.013,-0.002,1.003,0.000,0.000,0.000,0.0090,-3,0,0.00,0.00,0.00,0.0000,0.0000,0.0000,0.0000,0.0000,0.0000,0.0000,0.00,0.00,0.00,0.0000,0.1080,1.2820,1.1720,2.6920,0,0.0000,0.0000,0.0000,0.0000,0.0000,0,1,0,0.2600,0,-0.0042,0.0081,0,0,0
5664,0.0015,-0.0001,0.0071,0.0055,-0.0026,0.0012,-0.13,-0.67,0.00,0,4.091,-0.255,-0.099,0.104,-0.012,-0.002,0.999,0.000,0.000,0.000,0.0070,-5,-9,0.00,0.00,0.00,0.0000,0.0000,0.0000,0.0000,0.0000,0.0000,0.0000,0.00,0.00,0.00,0.0000,0.1080,1.2820,1.1720,2.7060,0,0.0000,0.0000,0.0000,0.0000,0.0000,0,1,0,0.2800,0,-0.0042,0.0081,0,0,0
5715,-0.0003,-0.0003,0.0077,-0.0039,-0.0043,0.0037,-0.14,-0.69,0.00,0,4.086,-0.083,-0.103,0.153,-0.011,-0.003,0.998,0.000,0.000,0.000,0.0070,4,0,0.00,0.00,0.00,0.0000,0.0000,0.0000,0.0000,0.0000,0.0000,0.0000,0.00,0.00,0.00,0.0000,0.1080,1.2780,1.1680,2.7060,0,0.0000,0.0000,0.0000,0.0000,0.0000,0,1,0,0.2800,0,-0.0042,0.0081,0,0,0
5766,-0.0003,0.0011,0.0080,-0.0034,0.0030,0.0038,-0.10,-0.61,0.00,0,4.096,0.021,0.074,-0.141,-0.014,-0.002,0.998,0.000,0.000,0.000,0.0050,-3,-1,0.00,0.00,0.00,0.0000,0.0000,0.0000,0.0000,0.0000,0.0000,0.0000,0.00,0.00,0.00,0.0000,0.1060,1.2780,1.1680,2.7020,0,0.0000,0.0000,0.0000,0.0000,0.0000,0,1,0,0.2800,0,-0.0037,0.0089,0,0,0
5817,0.0002,0.0002,0.0066,-0.0012,-0.0015,-0.0044,-0.13,-0.64,0.00,0,4.091,-0.040,-0.082,0.179,-0.014,-0.004,1.001,0.000,0.000,0.000,0.0070,0,0,0.00,0.00,0.00,0.0000,0.0000,0.0000,0.0000,0.0000,0.0000,0.0000,0.00,0.00,0.00,0.0000,0.1060,1.2840,1.1640,2.7020,0,0.0000,0.0000,0.0000,0.0000,0.0000,0,1,0,0.3000,0,-0.0037,0.0089,0,0,0
5868,0.0009,0.0011,0.0064,0.0018,0.0029,-0.0044,-0.14,-0.66,0.01,0,4.096,-0.155,-0.088,0.074,-0.015,-0.002,1.002,0.000,0.000,0.000,0.0080,-2,-3,0.00,0.00,0.00,0.0000,0.0000,0.0000,0.0000,0.0000,0.0000,0.0000,0.00,0.00,0.00,0.0000,0.1070,1.2840,1.1640,2.7250,0,0.0000,0.0000,0.0000,0.0000,0.0000,0,1,0,0.3000,0,-0.0037,0.0089,0,0,0
5919,0.0000,0.0007,0.0066,-0.0030,-0.0001,-0.0019,-0.15,-0.65,0.01,0,4.091,-0.099,-0.207,-0.168,-0.014,-0.002,0.998,0.000,0.000,0.000,0.0050,-2,0,0.00,0.00,0.00,0.0000,0.0000,0.0000,0.0000,0.0000,0.0000,0.0000,0.00,0.00,0.00,0.0000,0.1070,1.2800,1.1650,2.7250,0,0.0000,0.0000,0.0000,0.0000,0.0000,0,1,0,0.3000,0,-0.0037,0.0089,0,0,0
5970,0.0017,0.0000,0.0072,0.0060,-0.0034,0.0013,-0.12,-0.69,0.01,0,4.091,0.229,-0.216,-0.205,-0.011,-0.002,1.002,0.000,0.000,0.000,0.0050,-2,0,0.00,0.00,0.00,0.0000,0.0000,0.0000,0.0000,0.0000,0.0000,0.0000,0.00,0.00,0.00,0.0000,0.1100,1.2800,1.1650,2.6950,0,0.0000,0.0000,0.0000,0.0000,0.0000,0,1,0,0.3000,0,-0.0037,0.0089,0,0,0
6021,-0.0002,0.0000,0.0061,-0.0043,-0.0032,-0.0032,-0.12,-0.60,0.01,0,4.091,0.244,-0.270,0.083,-0.014,-0.002,1.000,0.000,0.000,0.000,0.0040,-2,-6,0.00,0.00,0.00,0.0000,0.0000,0.0000,0.0000,0.0000,0.0000,0.0000,0.00,0.00,0.00,0.0000,0.1100,1.2830,1.1660,2.6950,0,0.0000,0.0000,0.0000,0.0000,0.0000,0,1,0,0.3000,0,-0.0037,0.0089,0,0,0
6073,0.0004,0.0006,0.0054,-0.0009,0.0007,-0.0054,-0.15,-0.69,0.01,0,4.096,-0.148,-0.068,0.220,-0.015,-0.002,1.000,0.000,0.000,0.000,0.0080,2,0,0.00,0.00,0.00,0.0000,0.0000,0.0000,0.0000,0.0000,0.0000,0.0000,0.00,0.00,0.00,0.0000,0.1100,1.2830,1.1660,2.6950,0,0.0000,0.0000,0.0000,0.0000,0.0000,0,1,0,0.3000,0,-0.0037,0.0089,0,0,0
6123,-0.0003,0.0004,0.0059,-0.0051,-0.0008,-0.0010,-0.10,-0.61,0.01,0,4.091,0.008,-0.222,-0.018,-0.012,-0.003,1.000,0.000,0.000,0.000,0.0050,1,1,0.00,0.00,0.00,0.0000,0.0000,0.0000,0.0000,0.0000,0.0000,0.0000,0.00,0.00,0.00,0.0000,0.1100,1.2870,1.1710,2.6950,0,0.0000,0.0000,0.0000,0.0000,0.0000,0,1,0,0.3000,0,-0.0037,0.0089,0,0,0
6174,0.0009,0.0009,0.0059,0.0018,0.0021,-0.0004,-0.14,-0.65,0.01,0,4.096,0.291,0.053,-0.162,-0.014,-0.003,0.999,0.000,0.000,0.000,0.0060,-2,-1,0.00,0.00,0.00,0.0000,0.0000,0.0000,0.0000,0.0000,0.0000,0.0000,0.00,0.00,0.00,0.0000,0.1130,1.2870,1.1710,2.7060,0,0.0000,0.0000,0.0000,0.0000,0.0000,0,1,0,0.3000,0,-0.0037,0.0089,0,0,0
6226,-0.0003,0.0002,0.0056,-0.0060,-0.0016,-0.0009,-0.15,-0.62,0.01,0,4.091,-0.170,-0.234,0.048,-0.011,-0.002,1.001,0.000,0.000,0.000,0.0070,-5,-2,0.00,0.00,0.00,0.0000,0.0000,0.0000,0.0000,0.0000,0.0000,0.0000,0.00,0.00,0.00,0.0000,0.1130,1.2840,1.1660,2.7060,0,0.0000,0.0000,0.0000,0.0000,0.0000,0,1,0,0.3000,0,-0.0037,0.0089,0,0,0
6278,-0.0001,-0.0000,0.0056,-0.0038,-0.0026,-0.0006,-0.17,-0.65,0.01,0,4.091,0.049,-0.051,0.413,-0.011,-0.001,1.001,0.000,0.000,0.000,0.0060,-7,-6,0.00,0.00,0.00,0.0000,0.0000,0.0000,0.0000,0.0000,0.0000,0.0000,0.00,0.00,0.00,0.0000,0.1130,1.2840,1.1660,2.6990,0,0.0000,0.0000,0.0000,0.0000,0.0000,0,1,0,0.3000,0,-0.0037,0.0089,0,0,0
6329,-0.0003,-0.0005,0.0063,-0.0049,-0.0048,0.0032,-0.17,-0.68,0.01,0,4.086,-0.183,-0.080,0.089,-0.014,-0.005,1.000,0.000,0.000,0.000,0.0060,-1,-2,0.00,0.00,0.00,0.0000,0.0000,0.0000,0.0000,0.0000,0.0000,0.0000,0.00,0.00,0.00,0.0000,0.1130,1.2820,1.1680,2.6990,0,0.0000,0.0000,0.0000,0.0000,0.0000,0,1,0,0.3000,0,-0.0037,0.0089,0,0,0
6379,-0.0001,0.0004,0.0064,-0.0035,0.0004,0.0032,-0.15,-0.65,0.02,0,4.096,0.044,-0.285,0.116,-0.012,-0.003,0.999,0.000,0.000,0.000,0.0060,1,0,0.00,0.00,0.00,0.0000,0.0000,0.0000,0.0000,0.0000,0.0000,0.0000,0.00,0.00,0.00,0.0000,0.1110,1.2820,1.1680,2.7040,0,0.0000,0.0000,0.0000,0.0000,0.0000,0,1,0,0.3000,0,-0.0037,0.0089,0,0,0
6430,0.0004,0.0004,0.0063,-0.0002,0.0003,0.0023,-0.13,-0.65,0.02,0,4.091,0.003,-0.115,-0.066,-0.013,-0.003,1.000,0.000,0.000,0.000,0.0060,0,0,0.00,0.00,0.00,0.0000,0.0000,0.0000,0.0000,0.0000,0.0000,0.0000,0.00,0.00,0.00,0.0000,0.1110,1.2870,1.1680,2.7040,0,0.0000,0.0000,0.0000,0.0000,0.0000,0,1,0,0.3000,0,-0.0037,0.0089,0,0,0
6481,0.0006,0.0007,0.0063,0.0008,0.0017,0.0017,-0.15,-0.66,0.02,0,4.091,-0.103,0.059,0.126,-0.013,-0.003,1.004,0.000,0.000,0.000,0.0080,0,-2,0.00,0.00,0.00,0.0000,0.0000,0.0000,0.0000,0.0000,0.0000,0.0000,0.00,0.00,0.00,0.0000,0.1130,1.2870,1.1680,2.7070,0,0.0000,0.0000,0.0000,0.0000,0.0000,0,1,0,0.3000,0,-0.0037,0.0089,0,0,0
6533,-0.0004,-0.0001,0.0069,-0.0043,-0.0028,0.0053,-0.12,-0.65,0.02,0,4.091,0.069,-0.019,0.049,-0.014,-0.004,1.000,0.000,0.000,0.000,0.0050,3,1,0.00,0.00,0.00,0.0000,0.0000,0.0000,0.0000,0.0000,0.0000,0.0000,0.00,0.00,0.00,0.0000,0.1130,1.2810,1.1670,2.7070,0,0.0000,0.0000,0.0000,0.0000,0.0000,0,1,0,0.3000,0,-0.0037,0.0089,0,0,0
6584,0.0007,0.0007,0.0072,0.0013,0.0017,0.0059,-0.13,-0.66,0.02,0,4.096,-0.182,-0.202,0.132,-0.012,-0.004,1.001,0.000,0.000,0.000,0.0060,0,0,0.00,0.00,0.00,0.0000,0.0000,0.0000,0.0000,0.0000,0.0000,0.0000,0.00,0.00,0.00,0.0000,0.1090,1.2810,1.1670,2.7030,0,0.0000,0.0000,0.0000,0.0000,0.0000,0,1,0,0.3000,0,-0.0037,0.0089,0,0,0
6636,-0.0001,-0.0003,0.0062,-0.0027,-0.0036,0.0003,-0.12,-0.64,0.03,0,4.086,-0.068,0.094,-0.283,-0.010,0.001,1.001,0.000,0.000,0.000,0.0040,-1,-1,0.00,0.00,0.00,0.0000,0.0000,0.0000,0.0000,0.0000,0.0000,0.0000,0.00,0.00,0.00,0.0000,0.1090,1.2870,1.1660,2.7030,0,0.0000,0.0000,0.0000,0.0000,0.0000,0,1,0,0.3000,0,-0.0037,0.0089,0,0,0
6688,0.0007,0.0010,0.0062,0.0018,0.0041,0.0011,-0.19,-0.68,0.02,0,4.096,-0.065,0.092,-0.022,-0.010,-0.004,0.999,0.000,0.000,0.000,0.0080,-1,0,0.00,0.00,0.00,0.0000,0.0000,0.0000,0.0000,0.0000,0.0000,0.0000,0.00,0.00,0.00,0.0000,0.1120,1.2870,1.1660,2.6980,0,0.0000,0.0000,0.0000,0.0000,0.0000,0,1,0,0.3000,0,-0.0037,0.0089,0,0,0
6738,-0.0004,-0.0001,0.0052,-0.0037,-0.0017,-0.0034,-0.14,-0.63,0.02,0,4.091,-0.009,-0.047,-0.100,-0.012,-0.002,1.000,0.000,0.000,0.000,0.0070,0,-4,0.00,0.00,0.00,0.0000,0.0000,0.0000,0.0000,0.0000,0.0000,0.0000,0.00,0.00,0.00,0.0000,0.1120,1.2920,1.1700,2.6980,0,0.0000,0.0000,0.0000,0.0000,0.0000,0,1,0,0.3000,0,-0.0037,0.0089,0,0,0
6790,-0.0001,0.0004,0.0065,-0.0018,0.0010,0.0033,-0.15,-0.68,0.02,0,4.096,-0.006,0.222,0.149,-0.013,-0.003,1.001,0.000,0.000,0.000,0.0070,-4,-4,0.00,0.00,0.00,0.0000,0.0000,0.0000,0.0000,0.0000,0.0000,0.0000,0.00,0.00,0.00,0.0000,0.1050,1.2920,1.1700,2.7000,0,0.0000,0.0000,0.0000,0.0000,0.0000,0,1,0,0.3000,0,-0.0037,0.0089,0,0,0
6841,0.0001,-0.0001,0.0069,-0.0011,-0.0017,0.0044,-0.18,-0.69,0.02,0,4.091,-0.235,0.084,0.254,-0.012,-0.004,0.999,0.000,0.000,0.000,0.0040,0,0,0.00,0.00,0.00,0.0000,0.0000,0.0000,0.0000,0.0000,0.0000,0.0000,0.00,0.00,0.00,0.0000,0.1050,1.2830,1.1680,2.7000,0,0.0000,0.0000,0.0000,0.0000,0.0000,0,1,0,0.3000,0,-0.0037,0.0089,0,0,0
6892,0.0012,0.0015,0.0072,0.0039,0.0061,0.0051,-0.20,-0.68,0.02,0,4.096,-0.389,-0.123,0.094,-0.013,-0.004,1.001,0.000,0.000,0.000,0.0070,-6,-2,0.00,0.00,0.00,0.0000,0.0000,0.0000,0.0000,0.0000,0.0000,0.0000,0.00,0.00,0.00,0.0000,0.1040,1.2830,1.1680,2.7130,0,0.0000,0.0000,0.0000,0.0000,0.0000,0,1,0,0.3000,0,-0.0037,0.0089,0,0,0
6943,-0.0002,0.0002,0.0063,-0.0033,-0.0007,0.0005,-0.21,-0.65,0.02,0,4.086,-0.067,-0.102,0.164,-0.011,-0.002,1.001,0.000,0.000,0.000,0.0080,-5,-5,0.00,0.00,0.00,0.0000,0.0000,0.0000,0.0000,0.0000,0.0000,0.0000,0.00,0.00,0.00,0.0000,0.1040,1.2820,1.1660,2.7130,0,0.0000,0.0000,0.0000,0.0000,0.0000,0,1,0,0.3000,0,-0.0037,0.0089,0,0,0
6993,-0.0004,-0.0001,0.0063,-0.0042,-0.0019,0.0008,-0.18,-0.67,0.02,0,4.091,0.088,-0.127,0.044,-0.013,-0.004,1.002,0.000,0.000,0.000,0.0080,0,0,0.00,0.00,0.00,0.0000,0.0000,0.0000,0.0000,0.0000,0.0000,0.0000,0.00,0.00,0.00,0.0000,0.1030,1.2820,1.1660,2.6980,0,0.0000,0.0000,0.0000,0.0000,0.0000,0,1,0,0.3000,0,-0.0037,0.0089,0,0,0
7045,-0.0002,0.0002,0.0076,-0.0026,-0.0008,0.0063,-0.14,-0.63,0.02,0,4.091,0.051,-0.023,-0.063,-0.010,-0.003,1.001,0.000,0.000,0.000,0.0070,3,4,0.00,0.00,0.00,0.0000,0.0000,0.0000,0.0000,0.0000,0.0000,0.0000,0.00,0.00,0.00,0.0000,0.1030,1.2840,1.1710,2.6980,0,0.0000,0.0000,0.0000,0.0000,0.0000,0,1,0,0.3000,0,-0.0037,0.0089,0,0,0
7096,0.0010,0.0013,0.0079,0.0032,0.0048,0.0071,-0.16,-0.64,0.03,0,4.096,-0.123,0.016,0.267,-0.012,-0.002,1.000,0.000,0.000,0.000,0.0070,-2,-7,0.00,0.00,0.00,0.0000,0.0000,0.0000,0.0000,0.0000,0.0000,0.0000,0.00,0.00,0.00,0.0000,0.1020,1.2840,1.1710,2.6900,0,0.0000,0.0000,0.0000,0.0000,0.0000,0,1,0,0.3000,0,-0.0037,0.0089,0,0,0
7147,-0.0009,0.0008,0.0078,-0.0062,0.0012,0.0052,-0.18,-0.67,0.03,0,4.091,0.224,0.256,0.027,-0.010,-0.003,1.000,0.000,0.000,0.000,0.0080,-2,0,0.00,0.00,0.00,0.0000,0.0000,0.0000,0.0000,0.0000,0.0000,0.0000,0.00,0.00,0.00,0.0000,0.1020,1.2840,1.1670,2.6900,0,0.0000,0.0000,0.0000,0.0000,0.0000,0,1,0,0.3000,0,-0.0037,0.0089,0,0,0
7198,0.0010,0.0016,0.0077,0.0034,0.0054,0.0037,-0.21,-0.68,0.03,0,4.096,-0.090,-0.092,0.182,-0.010,-0.003,1.002,0.000,0.000,0.000,0.0070,-1,0,0.00,0.00,0.00,0.0000,0.0000,0.0000,0.0000,0.0000,0.0000,0.0000,0.00,0.00,0.00,0.0000,0.1070,1.2840,1.1670,2.7030,0,0.0000,0.0000,0.0000,0.0000,0.0000,0,1,0,0.3000,0,-0.0037,0.0089,0,0,0
7249,-0.0004,-0.0001,0.0081,-0.0028,-0.0028,0.0049,-0.14,-0.63,0.04,0,4.086,0.178,0.267,-0.039,-0.012,-0.004,1.001,0.000,0.000,0.000,0.0050,-6,-5,0.00,0.00,0.00,0.0000,0.0000,0.0000,0.0000,0.0000,0.0000,0.0000,0.00,0.00,0.00,0.0000,0.1070,1.2820,1.1650,2.7030,0,0.0000,0.0000,0.0000,0.0000,0.0000,0,1,0,0.3000,0,-0.0037,0.0089,0,0,0
7301,-0.0001,0.0008,0.0078,-0.0008,0.0015,0.0030,-0.22,-0.69,0.03,0,4.096,0.008,-0.138,0.090,-0.011,-0.006,1.002,0.000,0.000,0.000,0.0060,-5,-9,0.00,0.00,0.00,0.0000,0.0000,0.0000,0.0000,0.0000,0.0000,0.0000,0.00,0.00,0.00,0.0000,0.1090,1.2820,1.1650,2.7050,0,0.0000,0.0000,0.0000,0.0000,0.0000,0,1,0,0.3000,0,-0.0037,0.0089,0,0,0
7352,-0.0004,-0.0000,0.0063,-0.0022,-0.0033,-0.0033,-0.18,-0.71,0.04,0,4.091,0.150,-0.010,-0.141,-0.012,-0.002,1.000,0.000,0.000,0.000,0.0060,-3,-4,0.00,0.00,0.00,0.0000,0.0000,0.0000,0.0000,0.0000,0.0000,0.0000,0.00,0.00,0.00,0.0000,0.1090,1.2840,1.1650,2.7050,0,0.0000,0.0000,0.0000,0.0000,0.0000,0,1,0,0.3000,0,-0.0037,0.0089,0,0,0
7402,-0.0001,0.0005,0.0062,-0.0008,0.0002,-0.0034,-0.18,-0.67,0.04,0,4.096,0.059,-0.187,0.108,-0.013,-0.002,0.998,0.000,0.000,0.000,0.0070,-5,-9,0.00,0.00,0.00,0.0000,0.0000,0.0000,0.0000,0.0000,0.0000,0.0000,0.00,0.00,0.00,0.0000,0.1050,1.2840,1.1650,2.7020,0,0.0000,0.0000,0.0000,0.0000,0.0000,0,1,0,0.3000,0,-0.0037,0.0089,0,0,0
7453,-0.0003,0.0000,0.0064,-0.0025,-0.0025,-0.0016,-0.18,-0.71,0.04,0,4.091,0.016,-0.046,0.389,-0.012,-0.005,1.000,0.000,0.000,0.000,0.0060,5,3,0.00,0.00,0.00,0.0000,0.0000,0.0000,0.0000,0.0000,0.0000,0.0000,0.00,0.00,0.00,0.0000,0.1050,1.2900,1.1660,2.7020,0,0.0000,0.0000,0.0000,0.0000,0.0000,0,1,0,0.3000,0,-0.0037,0.0089,0,0,0
7504,0.0020,0.0023,0.0064,0.0092,0.0094,-0.0012,-0.17,-0.68,0.03,0,4.096,-0.237,-0.200,0.145,-0.014,-0.003,1.000,0.000,0.000,0.000,0.0060,-4,3,0.00,0.00,0.00,0.0000,0.0000,0.0000,0.0000,0.0000,0.0000,0.0000,0.00,0.00,0.00,0.0000,0.1040,1.2900,1.1660,2.7060,0,0.0000,0.0000,0.0000,0.0000,0.0000,0,1,0,0.3000,0,-0.0037,0.0089,0,0,0
7555,0.0007,0.0005,0.0062,0.0017,0.0000,-0.0014,-0.19,-0.63,0.04,0,4.086,0.018,0.100,-0.069,-0.013,-0.004,1.001,0.000,0.000,0.000,0.0080,-8,-9,0.00,0.00,0.00,0.0000,0.0000,0.0000,0.0000,0.0000,0.0000,0.0000,0.00,0.00,0.00,0.0000,0.1040,1.2850,1.1650,2.7060,0,0.0000,0.0000,0.0000,0.0000,0.0000,0,1,0,0.3000,0,-0.0037,0.0089,0,0,0
7607,-0.0004,0.0003,0.0060,-0.0031,-0.0017,-0.0016,-0.23,-0.71,0.04,0,4.096,-0.234,0.037,0.234,-0.013,-0.004,1.001,0.000,0.000,0.000,0.0060,0,-1,0.00,0.00,0.00,0.0000,0.0000,0.0000,0.0000,0.0000,0.0000,0.0000,0.00,0.00,0.00,0.0000,0.1050,1.2850,1.1650,2.7200,0,0.0000,0.0000,0.0000,0.0000,0.0000,0,1,0,0.3000,0,-0.0037,0.0089,0,0,0
7658,-0.0004,-0.0000,0.0071,-0.0034,-0.0035,0.0034,-0.13,-0.63,0.04,0,4.091,-0.232,0.140,0.088,-0.012,-0.002,1.000,0.000,0.000,0.000,0.0060,-1,2,0.00,0.00,0.00,0.0000,0.0000,0.0000,0.0000,0.0000,0.0000,0.0000,0.00,0.00,0.00,0.0000,0.1050,1.2850,1.1700,2.7200,0,0.0000,0.0000,0.0000,0.0000,0.0000,0,1,0,0.3000,0,-0.0037,0.0089,0,0,0
7710,0.0007,0.0013,0.0067,0.0025,0.0035,0.0015,-0.20,-0.64,0.04,0,4.096,0.109,-0.007,-0.085,-0.012,-0.002,0.999,0.000,0.000,0.000,0.0070,0,-1,0.00,0.00,0.00,0.0000,0.0000,0.0000,0.0000,0.0000,0.0000,0.0000,0.00,0.00,0.00,0.0000,0.1050,1.2850,1.1700,2.6980,0,0.0000,0.0000,0.0000,0.0000,0.0000,0,1,0,0.3000,0,-0.0037,0.0089,0,0,0
7760,-0.0005,0.0001,0.0067,-0.0042,-0.0031,0.0009,-0.14,-0.63,0.04,0,4.086,-0.071,0.200,0.084,-0.013,-0.005,1.001,0.000,0.000,0.000,0.0040,-2,3,0.00,0.00,0.00,0.0000,0.0000,0.0000,0.0000,0.0000,0.0000,0.0000,0.00,0.00,0.00,0.0000,0.1050,1.2820,1.1690,2.6980,0,0.0000,0.0000,0.0000,0.0000,0.0000,0,1,0,0.3000,0,-0.0037,0.0089,0,0,0
7811,0.0019,0.0010,0.0067,0.0080,0.0021,0.0011,-0.19,-0.68,0.04,0,4.091,-0.010,0.069,-0.167,-0.010,-0.003,1.002,0.000,0.000,0.000,0.0060,-9,0,0.00,0.00,0.00,0.0000,0.0000,0.0000,0.0000,0.0000,0.0000,0.0000,0.00,0.00,0.00,0.0000,0.1030,1.2820,1.1690,2.6980,0,0.0000,0.0000,0.0000,0.0000,0.0000,0,1,0,0.3000,0,-0.0037,0.0089,0,0,0
7862,-0.0000,0.0001,0.0056,-0.0018,-0.0023,-0.0027,-0.22,-0.63,0.04,0,4.086,-0.045,0.024,-0.042,-0.013,-0.005,1.002,0.000,0.000,0.000,0.0070,-7,0,0.00,0.00,0.00,0.0000,0.0000,0.0000,0.0000,0.0000,0.0000,0.0000,0.00,0.00,0.00,0.0000,0.1030,1.2850,1.1680,2.6980,0,0.0000,0.0000,0.0000,0.0000,0.0000,0,1,0,0.3000,0,-0.0037,0.0089,0,0,0
7913,-0.0003,0.0005,0.0056,-0.0023,-0.0001,-0.0016,-0.22,-0.63,0.04,0,4.096,0.143,0.007,0.085,-0.012,-0.002,1.001,0.000,0.000,0.000,0.0080,0,-1,0.00,0.00,0.00,0.0000,0.0000,0.0000,0.0000,0.0000,0.0000,0.0000,0.00,0.00,0.00,0.0000,0.1070,1.2850,1.1680,2.6970,0,0.0000,0.0000,0.0000,0.0000,0.0000,0,1,0,0.3000,0,-0.0037,0.0089,0,0,0
7964,-0.0003,0.0006,0.0070,-0.0021,-0.0004,0.0063,-0.15,-0.64,0.04,0,4.086,-0.363,0.055,-0.219,-0.015,-0.003,0.999,0.000,0.000,0.000,0.0060,-1,-2,0.00,0.00,0.00,0.0000,0.0000,0.0000,0.0000,0.0000,0.0000,0.0000,0.00,0.00,0.00,0.0000,0.1070,1.2800,1.1680,2.6970,0,0.0000,0.0000,0.0000,0.0000,0.0000,0,1,0,0.3000,0,-0.0037,0.0089,0,0,0
8015,0.0004,0.0010,0.0073,0.0014,0.0023,0.0064,-0.18,-0.68,0.05,0,4.086,-0.256,-0.379,0.116,-0.012,0.000,0.998,0.000,0.000,0.000,0.0070,-6,-1,0.00,0.00,0.00,0.0000,0.0000,0.0000,0.0000,0.0000,0.0000,0.0000,0.00,0.00,0.00,0.0000,0.1010,1.2800,1.1680,2.6980,0,0.0000,0.0000,0.0000,0.0000,0.0000,0,1,0,0.3000,0,-0.0037,0.0089,0,0,0
8067,-0.0002,0.0001,0.0070,-0.0023,-0.0016,0.0034,-0.19,-0.64,0.05,0,4.091,0.025,-0.101,0.304,-0.011,-0.002,1.001,0.000,0.000,0.000,0.0070,-3,4,0.00,0.00,0.00,0.0000,0.0000,0.0000,0.0000,0.0000,0.0000,0.0000,0.00,0.00,0.00,0.0000,0.1010,1.2870,1.1710,2.6980,0,0.0000,0.0000,0.0000,0.0000,0.0000,0,1,0,0.3000,0,-0.0037,0.0089,0,0,0
8118,0.0009,0.0001,0.0072,0.0039,-0.0015,0.0037,-0.16,-0.64,0.06,0,4.091,0.140,0.103,0.338,-0.012,-0.001,1.002,0.000,0.000,0.000,0.0050,-2,0,0.00,0.00,0.00,0.0000,0.0000,0.0000,0.0000,0.0000,0.0000,0.0000,0.00,0.00,0.00,0.0000,0.1020,1.2870,1.1710,2.7110,0,0.0000,0.0000,0.0000,0.0000,0.0000,0,1,0,0.3000,0,-0.0037,0.0089,0,0,0
8169,-0.0002,0.0001,0.0063,-0.0020,-0.0018,-0.0013,-0.15,-0.63,0.06,0,4.091,0.125,-0.119,-0.015,-0.011,-0.003,1.001,0.000,0.000,0.000,0.0070,-4,0,0.00,0.00,0.00,0.0000,0.0000,0.0000,0.0000,0.0000,0.0000,0.0000,0.00,0.00,0.00,0.0000,0.1020,1.2850,1.1690,2.7110,0,0.0000,0.0000,0.0000,0.0000,0.0000,0,1,0,0.3000,0,-0.0037,0.0089,0,0,0
8221,0.0011,0.0008,0.0063,0.0050,0.0017,-0.0008,-0.20,-0.68,0.06,0,4.091,-0.011,0.048,0.084,-0.013,-0.003,1.000,0.000,0.000,0.000,0.0020,-1,0,0.00,0.00,0.00,0.0000,0.0000,0.0000,0.0000,0.0000,0.0000,0.0000,0.00,0.00,0.00,0.0000,0.1060,1.2850,1.1690,2.7020,0,0.0000,0.0000,0.0000,0.0000,0.0000,0,1,0,0.3000,0,-0.0037,0.0089,0,0,0
8272,-0.0003,0.0001,0.0047,-0.0028,-0.0026,-0.0088,-0.14,-0.62,0.06,0,4.091,-0.231,-0.007,0.067,-0.011,-0.002,1.002,0.000,0.000,0.000,0.0060,-1,-2,0.00,0.00,0.00,0.0000,0.0000,0.0000,0.0000,0.0000,0.0000,0.0000,0.00,0.00,0.00,0.0000,0.1060,1.2810,1.1670,2.7020,0,0.0000,0.0000,0.0000,0.0000,0.0000,0,1,0,0.3000,0,-0.0037,0.0089,0,0,0
8322,0.0004,0.0011,0.0043,0.0014,0.0030,-0.0084,-0.19,-0.67,0.06,0,4.091,-0.004,0.212,-0.174,-0.014,-0.001,0.999,0.000,0.000,0.000,0.0080,-2,0,0.00,0.00,0.00,0.0000,0.0000,0.0000,0.0000,0.0000,0.0000,0.0000,0.00,0.00,0.00,0.0000,0.1050,1.2810,1.1670,2.7000,0,0.0000,0.0000,0.0000,0.0000,0.0000,0,1,0,0.3000,0,-0.0037,0.0089,0,0,0
8373,-0.0004,0.0003,0.0061,-0.0035,-0.0012,0.0031,-0.16,-0.62,0.05,0,4.091,0.041,0.075,-0.214,-0.012,-0.003,1.001,0.000,0.000,0.000,0.0060,1,-4,0.00,0.00,0.00,0.0000,0.0000,0.0000,0.0000,0.0000,0.0000,0.0000,0.00,0.00,0.00,0.0000,0.1050,1.2870,1.1690,2.7000,0,0.0000,0.0000,0.0000,0.0000,0.0000,0,1,0,0.3000,0,-0.0037,0.0089,0,0,0
8424,-0.0001,0.0008,0.0063,-0.0020,0.0013,0.0034,-0.15,-0.68,0.05,0,4.096,-0.150,-0.094,0.106,-0.014,-0.003,1.000,0.000,0.000,0.000,0.0070,1,-9,0.00,0.00,0.00,0.0000,0.0000,0.0000,0.0000,0.0000,0.0000,0.0000,0.00,0.00,0.00,0.0000,0.1040,1.2870,1.1690,2.7030,0,0.0000,0.0000,0.0000,0.0000,0.0000,0,1,0,0.3000,0,-0.0037,0.0089,0,0,0
8475,-0.0004,0.0003,0.0063,-0.0037,-0.0011,0.0037,-0.13,-0.72,0.05,0,4.086,0.046,-0.005,0.438,-0.014,-0.002,1.002,0.000,0.000,0.000,0.0070,5,0,0.00,0.00,0.00,0.0000,0.0000,0.0000,0.0000,0.0000,0.0000,0.0000,0.00,0.00,0.00,0.0000,0.1040,1.2840,1.1720,2.7030,0,0.0000,0.0000,0.0000,0.0000,0.0000,0,1,0,0.3000,0,-0.0037,0.0089,0,0,0
8527,0.0009,0.0023,0.0069,0.0026,0.0095,0.0058,-0.17,-0.67,0.06,0,4.091,-0.286,-0.025,-0.048,-0.013,-0.001,1.000,0.000,0.000,0.000,0.0060,-1,2,0.00,0.00,0.00,0.0000,0.0000,0.0000,0.0000,0.0000,0.0000,0.0000,0.00,0.00,0.00,0.0000,0.1080,1.2840,1.1720,2.6990,0,0.0000,0.0000,0.0000,0.0000,0.0000,0,1,0,0.3000,0,-0.0037,0.0089,0,0,0
8579,0.0004,0.0000,0.0068,-0.0004,-0.0020,0.0038,-0.14,-0.64,0.05,0,4.086,-0.214,0.265,0.354,-0.012,-0.003,1.002,0.000,0.000,0.000,0.0090,2,-4,0.00,0.00,0.00,0.0000,0.0000,0.0000,0.0000,0.0000,0.0000,0.0000,0.00,0.00,0.00,0.0000,0.1080,1.2860,1.1680,2.6990,0,0.0000,0.0000,0.0000,0.0000,0.0000,0,1,0,0.3000,0,-0.0037,0.0089,0,0,0
8630,0.0009,0.0005,0.0070,0.0028,0.0012,0.0042,-0.13,-0.72,0.05,0,4.091,-0.003,-0.169,0.390,-0.012,-0.001,1.003,0.000,0.000,0.000,0.0080,0,-1,0.00,0.00,0.00,0.0000,0.0000,0.0000,0.0000,0.0000,0.0000,0.0000,0.00,0.00,0.00,0.0000,0.1010,1.2860,1.1680,2.6950,0,0.0000,0.0000,0.0000,0.0000,0.0000,0,1,0,0.3000,0,-0.0037,0.0089,0,0,0
8681,-0.0000,0.0001,0.0082,-0.0028,-0.0010,0.0087,-0.13,-0.65,0.05,0,4.091,-0.085,0.117,0.040,-0.012,-0.004,0.999,0.000,0.000,0.000,0.0040,1,0,0.00,0.00,0.00,0.0000,0.0000,0.0000,0.0000,0.0000,0.0000,0.0000,0.00,0.00,0.00,0.0000,0.1010,1.2850,1.1630,2.6950,0,0.0000,0.0000,0.0000,0.0000,0.0000,0,1,0,0.3000,0,-0.0037,0.0089,0,0,0
8733,0.0007,0.0019,0.0087,0.0016,0.0082,0.0092,-0.19,-0.68,0.06,0,4.091,0.146,-0.088,-0.127,-0.013,-0.003,1.002,0.000,0.000,0.000,0.0060,0,0,0.00,0.00,0.00,0.0000,0.0000,0.0000,0.0000,0.0000,0.0000,0.0000,0.00,0.00,0.00,0.0000,0.1030,1.2850,1.1630,2.7030,0,0.0000,0.0000,0.0000,0.0000,0.0000,0,1,0,0.3000,0,-0.0037,0.0089,0,0,0
8783,-0.0001,0.0001,0.0064,-0.0024,-0.0015,-0.0022,-0.13,-0.65,0.06,0,4.086,-0.101,0.125,0.052,-0.012,-0.004,0.998,0.000,0.000,0.000,0.0070,0,-1,0.00,0.00,0.00,0.0000,0.0000,0.0000,0.0000,0.0000,0.0000,0.0000,0.00,0.00,0.00,0.0000,0.1030,1.2820,1.1670,2.7030,0,0.0000,0.0000,0.0000,0.0000,0.0000,0,1,0,0.3000,0,-0.0037,0.0089,0,0,0
8834,-0.0001,0.0009,0.0063,-0.0022,0.0027,-0.0018,-0.17,-0.67,0.07,0,4.091,-0.104,-0.200,0.094,-0.013,-0.003,1.002,0.000,0.000,0.000,0.0050,0,1,0.00,0.00,0.00,0.0000,0.0000,0.0000,0.0000,0.0000,0.0000,0.0000,0.00,0.00,0.00,0.0000,0.1030,1.2820,1.1670,2.7010,0,0.0000,0.0000,0.0000,0.0000,0.0000,0,1,0,0.3000,0,-0.0037,0.0089,0,0,0
8885,0.0004,0.0001,0.0066,0.0006,-0.0023,-0.0004,-0.14,-0.67,0.07,0,4.091,0.106,-0.438,0.214,-0.012,-0.004,1.000,0.000,0.000,0.000,0.0080,2,0,0.00,0.00,0.00,0.0000,0.0000,0.0000,0.0000,0.0000,0.0000,0.0000,0.00,0.00,0.00,0.0000,0.1030,1.2830,1.1670,2.7010,0,0.0000,0.0000,0.0000,0.0000,0.0000,0,1,0,0.3000,0,-0.0037,0.0089,0,0,0
8936,-0.0001,0.0006,0.0058,-0.0016,0.0010,-0.0034,-0.14,-0.65,0.07,0,4.091,-0.262,0.163,0.227,-0.010,-0.001,0.999,0.000,0.000,0.000,0.0090,-5,-9,0.00,0.00,0.00,0.0000,0.0000,0.0000,0.0000,0.0000,0.0000,0.0000,0.00,0.00,0.00,0.0000,0.1080,1.2830,1.1670,2.6970,0,0.0000,0.0000,0.0000,0.0000,0.0000,0,1,0,0.3000,0,-0.0037,0.0089,0,0,0
8987,-0.0003,0.0001,0.0077,-0.0028,-0.0016,0.0064,-0.18,-0.73,0.07,0,4.086,-0.019,0.001,-0.018,-0.012,-0.003,1.004,0.000,0.000,0.000,0.0050,-1,1,0.00,0.00,0.00,0.0000,0.0000,0.0000,0.0000,0.0000,0.0000,0.0000,0.00,0.00,0.00,0.0000,0.1080,1.2800,1.1690,2.6970,0,0.0000,0.0000,0.0000,0.0000,0.0000,0,1,0,0.3000,0,-0.0037,0.0089,0,0,0
9038,0.0008,0.0008,0.0081,0.0029,0.0021,0.0067,-0.17,-0.68,0.07,0,4.091,0.226,-0.119,0.093,-0.015,-0.005,1.000,0.000,0.000,0.000,0.0070,-3,0,0.00,0.00,0.00,0.0000,0.0000,0.0000,0.0000,0.0000,0.0000,0.0000,0.00,0.00,0.00,0.0000,0.1080,1.2800,1.1690,2.6950,0,0.0000,0.0000,0.0000,0.0000,0.0000,0,1,0,0.3000,0,-0.0037,0.0089,0,0,0
9089,0.0008,0.0001,0.0069,0.0027,-0.0021,0.0011,-0.16,-0.69,0.07,0,4.091,0.186,-0.227,-0.085,-0.010,-0.002,1.002,0.000,0.000,0.000,0.0090,-2,1,0.00,0.00,0.00,0.0000,0.0000,0.0000,0.0000,0.0000,0.0000,0.0000,0.00,0.00,0.00,0.0000,0.1080,1.2810,1.1670,2.6950,0,0.0000,0.0000,0.0000,0.0000,0.0000,0,1,0,0.3000,0,-0.0037,0.0089,0,0,0
9140,0.0008,0.0006,0.0070,0.0028,0.0004,0.0017,-0.17,-0.67,0.06,0,4.091,-0.051,-0.194,0.161,-0.013,-0.003,1.001,0.000,0.000,0.000,0.0060,3,-6,0.00,0.00,0.00,0.0000,0.0000,0.0000,0.0000,0.0000,0.0000,0.0000,0.00,0.00,0.00,0.0000,0.1090,1.2810,1.1670,2.7000,0,0.0000,0.0000,0.0000,0.0000,0.0000,0,1,0,0.3000,0,-0.0037,0.0089,0,0,0
9192,0.0004,0.0008,0.0073,0.0006,0.0018,0.0024,-0.13,-0.72,0.07,0,4.091,-0.052,0.160,-0.224,-0.011,-0.003,0.999,0.000,0.000,0.000,0.0070,0,5,0.00,0.00,0.00,0.0000,0.0000,0.0000,0.0000,0.0000,0.0000,0.0000,0.00,0.00,0.00,0.0000,0.1090,1.2880,1.1650,2.7000,0,0.0000,0.0000,0.0000,0.0000,0.0000,0,1,0,0.3000,0,-0.0037,0.0089,0,0,0
9244,0.0017,0.0008,0.0075,0.0079,0.0016,0.0026,-0.16,-0.67,0.07,0,4.091,0.095,0.074,-0.311,-0.012,-0.002,1.000,0.000,0.000,0.000,0.0080,0,0,0.00,0.00,0.00,0.0000,0.0000,0.0000,0.0000,0.0000,0.0000,0.0000,0.00,0.00,0.00,0.0000,0.1100,1.2880,1.1650,2.7010,0,0.0000,0.0000,0.0000,0.0000,0.0000,0,1,0,0.3000,0,-0.0037,0.0089,0,0,0
9296,-0.0002,0.0001,0.0073,-0.0031,-0.0018,0.0012,-0.13,-0.63,0.06,0,4.091,0.336,0.055,-0.138,-0.011,-0.002,1.001,0.000,0.000,0.000,0.0090,-1,8,0.00,0.00,0.00,0.0000,0.0000,0.0000,0.0000,0.0000,0.0000,0.0000,0.00,0.00,0.00,0.0000,0.1100,1.2830,1.1690,2.7010,0,0.0000,0.0000,0.0000,0.0000,0.0000,0,1,0,0.3000,0,-0.0037,0.0089,0,0,0
9346,0.0019,0.0013,0.0078,0.0094,0.0051,0.0037,-0.19,-0.64,0.06,0,4.091,-0.126,-0.193,0.075,-0.013,-0.001,1.001,0.000,0.000,0.000,0.0070,-1,-1,0.00,0.00,0.00,0.0000,0.0000,0.0000,0.0000,0.0000,0.0000,0.0000,0.00,0.00,0.00,0.0000,0.1120,1.2830,1.1690,2.7060,0,0.0000,0.0000,0.0000,0.0000,0.0000,0,1,0,0.3000,0,-0.0037,0.0089,0,0,0
9397,-0.0005,0.0001,0.0080,-0.0044,-0.0014,0.0037,-0.14,-0.63,0.06,0,4.091,0.155,0.141,-0.195,-0.013,0.001,1.000,0.000,0.000,0.000,0.0050,-3,3,0.00,0.00,0.00,0.0000,0.0000,0.0000,0.0000,0.0000,0.0000,0.0000,0.00,0.00,0.00,0.0000,0.1120,1.2780,1.1710,2.7060,0,0.0000,0.0000,0.0000,0.0000,0.0000,0,1,0,0.3000,0,-0.0037,0.0089,0,0,0
9449,0.0019,0.0001,0.0082,0.0087,-0.0014,0.0038,-0.16,-0.69,0.06,0,4.091,-0.017,0.162,-0.311,-0.012,-0.002,1.001,0.000,0.000,0.000,0.0050,-9,-9,0.00,0.00,0.00,0.0000,0.0000,0.0000,0.0000,0.0000,0.0000,0.0000,0.00,0.00,0.00,0.0000,0.1130,1.2780,1.1710,2.7020,0,0.0000,0.0000,0.0000,0.0000,0.0000,0,1,0,0.3000,0,-0.0037,0.0089,0,0,0
9499,-0.0003,0.0001,0.0060,-0.0029,-0.0016,-0.0069,-0.22,-0.72,0.06,0,4.091,-0.001,-0.043,0.368,-0.012,-0.004,1.000,0.000,0.000,0.000,0.0050,-3,5,0.00,0.00,0.00,0.0000,0.0000,0.0000,0.0000,0.0000,0.0000,0.0000,0.00,0.00,0.00,0.0000,0.1130,1.2840,1.1680,2.7020,0,0.0000,0.0000,0.0000,0.0000,0.0000,0,1,0,0.3000,0,-0.0037,0.0089,0,0,0
9551,0.0019,0.0001,0.0058,0.0085,-0.0015,-0.0062,-0.16,-0.67,0.07,0,4.086,-0.036,-0.052,-0.329,-0.012,-0.002,1.001,0.000,0.000,0.000,0.0050,-8,-9,0.00,0.00,0.00,0.0000,0.0000,0.0000,0.0000,0.0000,0.0000,0.0000,0.00,0.00,0.00,0.0000,0.1060,1.2840,1.1680,2.6980,0,0.0000,0.0000,0.0000,0.0000,0.0000,0,1,0,0.3000,0,-0.0037,0.0089,0,0,0
9601,-0.0003,0.0003,0.0051,-0.0037,0.0001,-0.0079,-0.22,-0.72,0.06,0,4.091,-0.155,0.088,0.116,-0.012,-0.004,1.000,0.000,0.000,0.000,0.0100,9,6,0.00,0.00,0.00,0.0000,0.0000,0.0000,0.0000,0.0000,0.0000,0.0000,0.00,0.00,0.00,0.0000,0.1060,1.2850,1.1670,2.6980,0,0.0000,0.0000,0.0000,0.0000,0.0000,0,1,0,0.3000,0,-0.0037,0.0089,0,0,0
9652,0.0014,0.0023,0.0048,0.0056,0.0107,-0.0067,-0.12,-0.63,0.06,0,4.091,0.069,-0.024,0.082,-0.013,-0.003,0.999,0.000,0.000,0.000,0.0070,-9,1,0.00,0.00,0.00,0.0000,0.0000,0.0000,0.0000,0.0000,0.0000,0.0000,0.00,0.00,0.00,0.0000,0.1050,1.2850,1.1670,2.7010,0,0.0000,0.0000,0.0000,0.0000,0.0000,0,1,0,0.3000,0,-0.0037,0.0089,0,0,0
9703,0.0004,0.0001,0.0074,0.0003,-0.0018,0.0067,-0.20,-0.65,0.06,0,4.091,0.098,0.081,-0.089,-0.011,-0.004,1.002,0.000,0.000,0.000,0.0080,-4,0,0.00,0.00,0.00,0.0000,0.0000,0.0000,0.0000,0.0000,0.0000,0.0000,0.00,0.00,0.00,0.0000,0.1050,1.2840,1.1630,2.7010,0,0.0000,0.0000,0.0000,0.0000,0.0000,0,1,0,0.3000,0,-0.0037,0.0089,0,0,0
9754,0.0018,0.0001,0.0076,0.0075,-0.0030,0.0060,-0.15,-0.72,0.06,0,4.091,-0.023,-0.169,-0.170,-0.013,-0.001,1.001,0.000,0.000,0.000,0.0060,-3,1,0.00,0.00,0.00,0.0000,0.0000,0.0000,0.0000,0.0000,0.0000,0.0000,0.00,0.00,0.00,0.0000,0.1060,1.2840,1.1630,2.7020,0,0.0000,0.0000,0.0000,0.0000,0.0000,0,1,0,0.3000,0,-0.0037,0.0089,0,0,0
9805,0.0002,0.0001,0.0081,-0.0012,-0.0027,0.0074,-0.14,-0.64,0.06,0,4.091,-0.096,-0.132,-0.067,-0.012,-0.003,1.001,0.000,0.000,0.000,0.0080,2,3,0.00,0.00,0.00,0.0000,0.0000,0.0000,0.0000,0.0000,0.0000,0.0000,0.00,0.00,0.00,0.0000,0.1060,1.2770,1.1680,2.7020,0,0.0000,0.0000,0.0000,0.0000,0.0000,0,1,0,0.3000,0,-0.0037,0.0089,0,0,0
9857,0.0009,0.0005,0.0074,0.0032,0.0002,0.0033,-0.11,-0.65,0.07,0,4.086,0.102,0.285,-0.033,-0.011,-0.003,1.002,0.000,0.000,0.000,0.0070,0,-2,0.00,0.00,0.00,0.0000,0.0000,0.0000,0.0000,0.0000,0.0000,0.0000,0.00,0.00,0.00,0.0000,0.1040,1.2770,1.1680,2.7020,0,0.0000,0.0000,0.0000,0.0000,0.0000,0,1,0,0.3000,0,-0.0037,0.0089,0,0,0
9908,-0.0002,0.0001,0.0075,-0.0030,-0.0020,0.0030,-0.12,-0.65,0.07,0,4.091,0.132,-0.166,-0.032,-0.014,-0.003,1.002,0.000,0.000,0.000,0.0080,0,4,0.00,0.00,0.00,0.0000,0.0000,0.0000,0.0000,0.0000,0.0000,0.0000,0.00,0.00,0.00,0.0000,0.1040,1.2780,1.1700,2.7020,0,0.0000,0.0000,0.0000,0.0000,0.0000,0,1,0,0.3000,0,-0.0037,0.0089,0,0,0
9958,0.0017,0.0020,0.0077,0.0074,0.0084,0.0032,-0.20,-0.67,0.07,0,4.091,-0.246,-0.357,0.037,-0.013,-0.000,0.998,0.000,0.000,0.000,0.0070,-9,0,0.00,0.00,0.00,0.0000,0.0000,0.0000,0.0000,0.0000,0.0000,0.0000,0.00,0.00,0.00,0.0000,0.1060,1.2780,1.1700,2.7000,0,0.0000,0.0000,0.0000,0.0000,0.0000,0,1,0,0.3000,0,-0.0037,0.0089,0,0,0
10010,-0.0002,0.0001,0.0076,-0.0040,-0.0026,0.0020,-0.20,-0.62,0.06,0,4.091,0.292,0.042,-0.198,-0.012,-0.003,1.002,0.000,0.000,0.000,0.0060,2,0,0.00,0.00,0.00,0.0000,0.0000,0.0000,0.0000,0.0000,0.0000,0.0000,0.00,0.00,0.00,0.0000,0.1060,1.2850,1.1680,2.7000,0,0.0000,0.0000,0.0000,0.0000,0.0000,0,1,0,0.3000,0,-0.0037,0.0089,0,0,0
10061,-0.0000,0.0006,0.0078,-0.0022,-0.0002,0.0025,-0.11,-0.63,0.06,0,4.091,-0.258,-0.142,0.154,-0.011,-0.003,1.000,0.000,0.000,0.000,0.0070,-2,-5,0.00,0.00,0.00,0.0000,0.0000,0.0000,0.0000,0.0000,0.0000,0.0000,0.00,0.00,0.00,0.0000,0.1070,1.2850,1.1680,2.6990,0,0.0000,0.0000,0.0000,0.0000,0.0000,0,1,0,0.3000,0,-0.0037,0.0089,0,0,0
10112,-0.0003,-0.0002,0.0070,-0.0038,-0.0039,-0.0015,-0.13,-0.68,0.06,0,4.091,0.041,0.163,0.125,-0.014,-0.001,1.003,0.000,0.000,0.000,0.0080,0,3,0.00,0.00,0.00,0.0000,0.0000,0.0000,0.0000,0.0000,0.0000,0.0000,0.00,0.00,0.00,0.0000,0.1070,1.2830,1.1660,2.6990,0,0.0000,0.0000,0.0000,0.0000,0.0000,0,1,0,0.3000,0,-0.0037,0.0089,0,0,0
10164,0.0020,0.0008,0.0069,0.0090,0.0018,-0.0005,-0.15,-0.69,0.06,0,4.086,0.200,0.017,-0.072,-0.013,-0.004,1.000,0.000,0.000,0.000,0.0080,-3,-2,0.00,0.00,0.00,0.0000,0.0000,0.0000,0.0000,0.0000,0.0000,0.0000,0.00,0.00,0.00,0.0000,0.1040,1.2830,1.1660,2.7100,0,0.0000,0.0000,0.0000,0.0000,0.0000,0,1,0,0.3000,0,-0.0037,0.0089,0,0,0
10215,0.0004,0.0003,0.0075,0.0000,-0.0006,0.0026,-0.16,-0.67,0.06,0,4.091,-0.057,0.017,-0.208,-0.011,-0.003,1.002,0.000,0.000,0.000,0.0030,3,-6,0.00,0.00,0.00,0.0000,0.0000,0.0000,0.0000,0.0000,0.0000,0.0000,0.00,0.00,0.00,0.0000,0.1040,1.2840,1.1650,2.7100,0,0.0000,0.0000,0.0000,0.0000,0.0000,0,1,0,0.3000,0,-0.0037,0.0089,0,0,0
10265,-0.0003,0.0022,0.0079,-0.0034,0.0094,0.0040,-0.17,-0.68,0.06,0,4.091,0.154,-0.201,-0.315,-0.011,-0.002,0.999,0.000,0.000,0.000,0.0060,-1,-4,0.00,0.00,0.00,0.0000,0.0000,0.0000,0.0000,0.0000,0.0000,0.0000,0.00,0.00,0.00,0.0000,0.1070,1.2840,1.1650,2.7070,0,0.0000,0.0000,0.0000,0.0000,0.0000,0,1,0,0.3000,0,-0.0037,0.0089,0,0,0
10316,-0.0003,0.0001,0.0057,-0.0034,-0.0020,-0.0065,-0.13,-0.66,0.06,0,4.091,0.025,-0.079,0.125,-0.012,-0.006,1.002,0.000,0.000,0.000,0.0090,1,1,0.00,0.00,0.00,0.0000,0.0000,0.0000,0.0000,0.0000,0.0000,0.0000,0.00,0.00,0.00,0.0000,0.1070,1.2810,1.1670,2.7070,0,0.0000,0.0000,0.0000,0.0000,0.0000,0,1,0,0.3000,0,-0.0037,0.0089,0,0,0
10367,0.0018,0.0012,0.0054,0.0078,0.0037,-0.0061,-0.15,-0.70,0.06,0,4.091,-0.377,-0.049,0.106,-0.010,-0.003,1.002,0.000,0.000,0.000,0.0050,0,-3,0.00,0.00,0.00,0.0000,0.0000,0.0000,0.0000,0.0000,0.0000,0.0000,0.00,0.00,0.00,0.0000,0.1060,1.2810,1.1670,2.7080,0,0.0000,0.0000,0.0000,0.0000,0.0000,0,1,0,0.3000,0,-0.0037,0.0089,0,0,0
10418,-0.0003,0.0001,0.0062,-0.0042,-0.0030,-0.0017,-0.12,-0.64,0.06,0,4.091,-0.160,0.133,-0.112,-0.012,-0.004,1.001,0.000,0.000,0.000,0.0070,-3,-4,0.00,0.00,0.00,0.0000,0.0000,0.0000,0.0000,0.0000,0.0000,0.0000,0.00,0.00,0.00,0.0000,0.1060,1.2830,1.1650,2.7080,0,0.0000,0.0000,0.0000,0.0000,0.0000,0,1,0,0.3000,0,-0.0037,0.0089,0,0,0
10470,0.0009,0.0005,0.0062,0.0029,-0.0004,-0.0016,-0.17,-0.70,0.06,0,4.086,0.055,0.240,0.160,-0.014,-0.004,1.001,0.000,0.000,0.000,0.0060,-1,1,0.00,0.00,0.00,0.0000,0.0000,0.0000,0.0000,0.0000,0.0000,0.0000,0.00,0.00,0.00,0.0000,0.1070,1.2830,1.1650,2.7020,0,0.0000,0.0000,0.0000,0.0000,0.0000,0,1,0,0.3000,0,-0.0037,0.0089,0,0,0
10520,0.0002,0.0000,0.0066,-0.0018,-0.0028,0.0011,-0.14,-0.62,0.07,0,4.086,-0.168,-0.157,0.294,-0.014,-0.002,1.000,0.000,0.000,0.000,0.0070,0,0,0.00,0.00,0.00,0.0000,0.0000,0.0000,0.0000,0.0000,0.0000,0.0000,0.00,0.00,0.00,0.0000,0.1070,1.2840,1.1670,2.7020,0,0.0000,0.0000,0.0000,0.0000,0.0000,0,1,0,0.3000,0,-0.0037,0.0089,0,0,0
10572,-0.0003,0.0003,0.0064,-0.0044,-0.0007,-0.0003,-0.14,-0.61,0.06,0,4.091,-0.088,-0.176,0.320,-0.011,-0.001,1.002,0.000,0.000,0.000,0.0050,-5,-5,0.00,0.00,0.00,0.0000,0.0000,0.0000,0.0000,0.0000,0.0000,0.0000,0.00,0.00,0.00,0.0000,0.1060,1.2840,1.1670,2.6890,0,0.0000,0.0000,0.0000,0.0000,0.0000,0,1,0,0.3000,0,-0.0037,0.0089,0,0,0
10622,-0.0004,0.0003,0.0067,-0.0040,-0.0005,0.0014,-0.20,-0.67,0.07,0,4.086,0.173,-0.058,0.054,-0.012,-0.001,1.000,0.000,0.000,0.000,0.0080,-9,9,0.00,0.00,0.00,0.0000,0.0000,0.0000,0.0000,0.0000,0.0000,0.0000,0.00,0.00,0.00,0.0000,0.1060,1.2830,1.1640,2.6890,0,0.0000,0.0000,0.0000,0.0000,0.0000,0,1,0,0.3000,0,-0.0037,0.0089,0,0,0
10674,0.0018,0.0000,0.0060,0.0074,-0.0019,-0.0016,-0.22,-0.61,0.06,0,4.086,0.023,0.078,0.393,-0.012,-0.002,1.000,0.000,0.000,0.000,0.0090,-2,-6,0.00,0.00,0.00,0.0000,0.0000,0.0000,0.0000,0.0000,0.0000,0.0000,0.00,0.00,0.00,0.0000,0.1030,1.2830,1.1640,2.7110,0,0.0000,0.0000,0.0000,0.0000,0.0000,0,1,0,0.3000,0,-0.0037,0.0089,0,0,0
10725,-0.0003,0.0003,0.0078,-0.0041,-0.0002,0.0079,-0.17,-0.67,0.07,0,4.091,-0.054,-0.010,0.006,-0.011,-0.002,1.001,0.000,0.000,0.000,0.0080,-3,5,0.00,0.00,0.00,0.0000,0.0000,0.0000,0.0000,0.0000,0.0000,0.0000,0.00,0.00,0.00,0.0000,0.1030,1.2840,1.1700,2.7110,0,0.0000,0.0000,0.0000,0.0000,0.0000,0,1,0,0.3000,0,-0.0037,0.0089,0,0,0
10776,0.0017,0.0001,0.0083,0.0070,-0.0013,0.0085,-0.16,-0.65,0.07,0,4.086,0.038,0.205,0.070,-0.012,0.001,1.000,0.000,0.000,0.000,0.0060,0,0,0.00,0.00,0.00,0.0000,0.0000,0.0000,0.0000,0.0000,0.0000,0.0000,0.00,0.00,0.00,0.0000,0.1030,1.2840,1.1700,2.6970,0,0.0000,0.0000,0.0000,0.0000,0.0000,0,1,0,0.3000,0,-0.0037,0.0089,0,0,0
10828,-0.0004,0.0003,0.0075,-0.0043,0.0007,0.0028,-0.14,-0.61,0.07,0,4.091,0.190,-0.145,0.228,-0.009,-0.002,0.999,0.000,0.000,0.000,0.0060,0,8,0.00,0.00,0.00,0.0000,0.0000,0.0000,0.0000,0.0000,0.0000,0.0000,0.00,0.00,0.00,0.0000,0.1030,1.2850,1.1690,2.6970,0,0.0000,0.0000,0.0000,0.0000,0.0000,0,1,0,0.3000,0,0.0000,0.0000,0,0,0
10880,0.0019,0.0013,0.0077,0.0089,0.0064,0.0028,-0.18,-0.62,0.06,0,4.091,-0.004,-0.106,0.177,-0.013,-0.002,1.001,0.000,0.000,0.000,0.0080,0,0,0.00,0.00,0.00,0.0000,0.0000,0.0000,0.0000,0.0000,0.0000,0.0000,0.00,0.00,0.00,0.0000,0.1050,1.2850,1.1690,2.6890,0,0.0000,0.0000,0.0000,0.0000,0.0000,0,0,0,0.0000,0,0.0000,0.0000,0,0,0
10931,-0.0004,0.0003,0.0074,-0.0037,0.0006,0.0022,-0.14,-0.61,0.06,0,4.091,0.019,-0.026,0.125,-0.013,-0.002,1.001,0.000,0.000,0.000,0.0050,-4,6,0.00,0.00,0.00,0.0000,0.0000,0.0000,0.0000,0.0000,0.0000,0.0000,0.00,0.00,0.00,0.0000,0.1050,1.2830,1.1680,2.6890,0,0.0000,0.0000,0.0000,0.0000,0.0000,0,0,0,0.0000,0,-0.0037,0.0089,0,0,0
10982,0.0015,0.0014,0.0076,0.0060,0.0060,0.0024,-0.22,-0.62,0.06,0,4.091,-0.185,0.026,0.312,-0.014,-0.003,0.999,0.000,0.000,0.000,0.0070,0,-4,0.00,0.00,0.00,0.0000,0.0000,0.0000,0.0000,0.0000,0.0000,0.0000,0.00,0.00,0.00,0.0000,0.1050,1.2830,1.1680,2.7040,0,0.0000,0.0000,0.0000,0.0000,0.0000,0,1,0,0.3000,0,-0.0037,0.0089,0,0,0
11033,-0.0012,0.0001,0.0064,-0.0080,-0.0015,-0.0024,-0.13,-0.62,0.06,0,4.091,-0.116,-0.152,0.005,-0.012,-0.003,0.999,0.000,0.000,0.000,0.0070,0,0,0.00,0.00,0.00,0.0000,0.0000,0.0000,0.0000,0.0000,0.0000,0.0000,0.00,0.00,0.00,0.0000,0.1050,1.2790,1.1690,2.7040,0,0.0000,0.0000,0.0000,0.0000,0.0000,0,1,0,0.3000,0,-0.0037,0.0089,0,0,0
11084,0.0004,0.0000,0.0066,0.0006,-0.0015,-0.0005,-0.13,-0.64,0.07,0,4.086,-0.013,-0.414,0.240,-0.014,-0.004,1.000,0.000,0.000,0.000,0.0040,-7,-3,0.00,0.00,0.00,0.0000,0.0000,0.0000,0.0000,0.0000,0.0000,0.0000,0.00,0.00,0.00,0.0000,0.1050,1.2790,1.1690,2.6870,0,0.0000,0.0000,0.0000,0.0000,0.0000,0,1,0,0.3000,0,-0.0037,0.0089,0,0,0
11135,-0.0004,0.0001,0.0056,-0.0041,-0.0016,-0.0053,-0.21,-0.64,0.07,0,4.091,-0.010,0.082,0.083,-0.012,-0.000,1.000,0.000,0.000,0.000,0.0060,9,-9,0.00,0.00,0.00,0.0000,0.0000,0.0000,0.0000,0.0000,0.0000,0.0000,0.00,0.00,0.00,0.0000,0.1050,1.2880,1.1680,2.6870,0,0.0000,0.0000,0.0000,0.0000,0.0000,0,1,0,0.3000,0,-0.0037,0.0089,0,0,0
11186,-0.0004,0.0024,0.0054,-0.0037,0.0101,-0.0047,-0.13,-0.71,0.07,0,4.091,-0.099,-0.175,-0.010,-0.013,-0.004,1.001,0.000,0.000,0.000,0.0070,-5,-5,0.00,0.00,0.00,0.0000,0.0000,0.0000,0.0000,0.0000,0.0000,0.0000,0.00,0.00,0.00,0.0000,0.1100,1.2880,1.1680,2.7010,0,0.0000,0.0000,0.0000,0.0000,0.0000,0,1,0,0.3000,0,-0.0037,0.0089,0,0,0
11237,-0.0003,0.0001,0.0056,-0.0038,-0.0020,-0.0024,-0.18,-0.67,0.07,0,4.091,-0.173,0.366,0.123,-0.011,-0.003,1.000,0.000,0.000,0.000,0.0070,-7,-7,0.00,0.00,0.00,0.0000,0.0000,0.0000,0.0000,0.0000,0.0000,0.0000,0.00,0.00,0.00,0.0000,0.1100,1.2850,1.1650,2.7010,0,0.0000,0.0000,0.0000,0.0000,0.0000,0,1,0,0.3000,0,-0.0037,0.0089,0,0,0
11289,0.0004,0.0003,0.0062,0.0001,-0.0007,0.0010,-0.21,-0.71,0.07,0,4.091,-0.142,-0.068,0.031,-0.011,-0.004,0.999,0.000,0.000,0.000,0.0070,1,4,0.00,0.00,0.00,0.0000,0.0000,0.0000,0.0000,0.0000,0.0000,0.0000,0.00,0.00,0.00,0.0000,0.1010,1.2850,1.1650,2.7060,0,0.0000,0.0000,0.0000,0.0000,0.0000,0,1,0,0.3000,0,-0.0037,0.0089,0,0,0
11339,0.0007,0.0004,0.0067,0.0008,-0.0013,0.0026,-0.14,-0.61,0.07,0,4.091,-0.144,-0.048,-0.062,-0.013,-0.003,1.001,0.000,0.000,0.000,0.0060,-3,3,0.00,0.00,0.00,0.0000,0.0000,0.0000,0.0000,0.0000,0.0000,0.0000,0.00,0.00,0.00,0.0000,0.1010,1.2840,1.1690,2.7060,0,0.0000,0.0000,0.0000,0.0000,0.0000,0,1,0,0.3000,0,-0.0037,0.0089,0,0,0
11390,0.0009,0.0006,0.0070,0.0021,-0.0002,0.0035,-0.18,-0.63,0.07,0,4.091,-0.098,-0.120,0.191,-0.014,-0.005,1.000,0.000,0.000,0.000,0.0080,0,-3,0.00,0.00,0.00,0.0000,0.0000,0.0000,0.0000,0.0000,0.0000,0.0000,0.00,0.00,0.00,0.0000,0.1030,1.2840,1.1690,2.7040,0,0.0000,0.0000,0.0000,0.0000,0.0000,0,1,0,0.3000,0,-0.0037,0.0089,0,0,0
11441,-0.0004,0.0002,0.0067,-0.0050,-0.0032,0.0017,-0.14,-0.63,0.07,0,4.091,-0.123,-0.050,-0.011,-0.013,-0.003,1.002,0.000,0.000,0.000,0.0090,1,3,0.00,0.00,0.00,0.0000,0.0000,0.0000,0.0000,0.0000,0.0000,0.0000,0.00,0.00,0.00,0.0000,0.1030,1.2860,1.1680,2.7040,0,0.0000,0.0000,0.0000,0.0000,0.0000,0,1,0,0.3000,0,-0.0037,0.0089,0,0,0
11492,0.0006,0.0008,0.0075,0.0006,0.0014,0.0058,-0.16,-0.62,0.07,0,4.091,-0.117,0.128,-0.070,-0.012,-0.001,1.000,0.000,0.000,0.000,0.0080,-2,-2,0.00,0.00,0.00,0.0000,0.0000,0.0000,0.0000,0.0000,0.0000,0.0000,0.00,0.00,0.00,0.0000,0.1040,1.2860,1.1680,2.7110,0,0.0000,0.0000,0.0000,0.0000,0.0000,0,1,0,0.3000,0,-0.0037,0.0089,0,0,0
11543,-0.0008,0.0001,0.0083,-0.0069,-0.0013,0.0075,-0.16,-0.61,0.07,0,4.086,-0.179,0.004,-0.147,-0.015,-0.000,1.002,0.000,0.000,0.000,0.0060,1,-1,0.00,0.00,0.00,0.0000,0.0000,0.0000,0.0000,0.0000,0.0000,0.0000,0.00,0.00,0.00,0.0000,0.1040,1.2810,1.1630,2.7110,0,0.0000,0.0000,0.0000,0.0000,0.0000,0,1,0,0.3000,0,-0.0037,0.0089,0,0,0
11594,0.0004,0.0013,0.0087,-0.0004,0.0053,0.0079,-0.18,-0.66,0.06,0,4.091,-0.005,0.026,0.207,-0.012,-0.004,1.001,0.000,0.000,0.000,0.0060,-2,-3,0.00,0.00,0.00,0.0000,0.0000,0.0000,0.0000,0.0000,0.0000,0.0000,0.00,0.00,0.00,0.0000,0.1030,1.2810,1.1630,2.7120,0,0.0000,0.0000,0.0000,0.0000,0.0000,0,1,0,0.3000,0,-0.0037,0.0089,0,0,0
11645,-0.0003,0.0001,0.0070,-0.0043,-0.0012,-0.0014,-0.16,-0.65,0.06,0,4.091,-0.201,-0.258,-0.030,-0.014,-0.004,1.001,0.000,0.000,0.000,0.0070,-5,-1,0.00,0.00,0.00,0.0000,0.0000,0.0000,0.0000,0.0000,0.0000,0.0000,0.00,0.00,0.00,0.0000,0.1030,1.2810,1.1690,2.7120,0,0.0000,0.0000,0.0000,0.0000,0.0000,0,1,0,0.3000,0,-0.0037,0.0089,0,0,0
11696,-0.0004,0.0001,0.0069,-0.0048,-0.0020,-0.0014,-0.20,-0.63,0.06,0,4.091,-0.035,0.218,-0.116,-0.014,-0.001,1.002,0.000,0.000,0.000,0.0060,-7,-4,0.00,0.00,0.00,0.0000,0.0000,0.0000,0.0000,0.0000,0.0000,0.0000,0.00,0.00,0.00,0.0000,0.1020,1.2810,1.1690,2.7070,0,0.0000,0.0000,0.0000,0.0000,0.0000,0,1,0,0.3000,0,-0.0037,0.0089,0,0,0
11747,-0.0004,0.0001,0.0065,-0.0043,-0.0022,-0.0030,-0.22,-0.67,0.06,0,4.091,0.083,0.030,0.071,-0.012,-0.002,1.001,0.000,0.000,0.000,0.0060,-4,-3,0.00,0.00,0.00,0.0000,0.0000,0.0000,0.0000,0.0000,0.0000,0.0000,0.00,0.00,0.00,0.0000,0.1020,1.2800,1.1670,2.7070,0,0.0000,0.0000,0.0000,0.0000,0.0000,0,1,0,0.3000,0,-0.0037,0.0089,0,0,0
11798,-0.0001,0.0004,0.0064,-0.0028,-0.0008,-0.0023,-0.20,-0.67,0.05,0,4.091,0.104,0.103,0.210,-0.013,-0.003,1.000,0.000,0.000,0.000,0.0060,1,4,0.00,0.00,0.00,0.0000,0.0000,0.0000,0.0000,0.0000,0.0000,0.0000,0.00,0.00,0.00,0.0000,0.1020,1.2800,1.1670,2.6970,0,0.0000,0.0000,0.0000,0.0000,0.0000,0,1,0,0.3000,0,-0.0037,0.0089,0,0,0
11850,0.0009,0.0006,0.0061,0.0030,0.0008,-0.0030,-0.16,-0.64,0.06,0,4.091,0.048,-0.032,0.071,-0.011,-0.003,1.001,0.000,0.000,0.000,0.0070,0,0,0.00,0.00,0.00,0.0000,0.0000,0.0000,0.0000,0.0000,0.0000,0.0000,0.00,0.00,0.00,0.0000,0.1020,1.2840,1.1660,2.6970,0,0.0000,0.0000,0.0000,0.0000,0.0000,0,1,0,0.3000,0,-0.0037,0.0089,0,0,0
11902,0.0012,0.0009,0.0059,0.0046,0.0023,-0.0031,-0.18,-0.70,0.05,0,4.091,-0.106,-0.014,-0.124,-0.011,-0.002,1.001,0.000,0.000,0.000,0.0060,-2,-2,0.00,0.00,0.00,0.0000,0.0000,0.0000,0.0000,0.0000,0.0000,0.0000,0.00,0.00,0.00,0.0000,0.1100,1.2840,1.1660,2.6980,0,0.0000,0.0000,0.0000,0.0000,0.0000,0,1,0,0.3000,0,-0.0037,0.0089,0,0,0
11952,-0.0002,0.0001,0.0062,-0.0024,-0.0020,-0.0009,-0.17,-0.66,0.05,0,4.091,-0.183,0.134,0.059,-0.010,-0.005,0.999,0.000,0.000,0.000,0.0060,7,7,0.00,0.00,0.00,0.0000,0.0000,0.0000,0.0000,0.0000,0.0000,0.0000,0.00,0.00,0.00,0.0000,0.1100,1.2890,1.1690,2.6980,0,0.0000,0.0000,0.0000,0.0000,0.0000,0,1,0,0.3000,0,-0.0037,0.0089,0,0,0
12004,0.0020,0.0025,0.0062,0.0087,0.0099,-0.0006,-0.17,-0.65,0.06,0,4.091,-0.111,-0.280,-0.120,-0.014,-0.003,1.001,0.000,0.000,0.000,0.0050,0,-3,0.00,0.00,0.00,0.0000,0.0000,0.0000,0.0000,0.0000,0.0000,0.0000,0.00,0.00,0.00,0.0000,0.1080,1.2890,1.1690,2.6920,0,0.0000,0.0000,0.0000,0.0000,0.0000,0,1,0,0.3000,0,-0.0037,0.0089,0,0,0
12055,-0.0004,0.0001,0.0057,-0.0038,-0.0025,-0.0028,-0.16,-0.67,0.06,0,4.086,0.409,0.113,-0.055,-0.008,-0.001,1.003,0.000,0.000,0.000,0.0050,-3,-2,0.00,0.00,0.00,0.0000,0.0000,0.0000,0.0000,0.0000,0.0000,0.0000,0.00,0.00,0.00,0.0000,0.1080,1.2860,1.1670,2.6920,0,0.0000,0.0000,0.0000,0.0000,0.0000,0,1,0,0.3000,0,-0.0037,0.0089,0,0,0
12106,0.0009,0.0002,0.0056,0.0036,-0.0012,-0.0018,-0.19,-0.70,0.06,0,4.096,0.184,0.315,-0.073,-0.010,-0.003,1.001,0.000,0.000,0.000,0.0070,0,0,0.00,0.00,0.00,0.0000,0.0000,0.0000,0.0000,0.0000,0.0000,0.0000,0.00,0.00,0.00,0.0000,0.1040,1.2860,1.1670,2.7090,0,0.0000,0.0000,0.0000,0.0000,0.0000,0,1,0,0.3000,0,-0.0037,0.0089,0,0,0
12157,-0.0004,0.0004,0.0052,-0.0030,-0.0003,-0.0023,-0.16,-0.63,0.06,0,4.086,0.157,-0.008,0.054,-0.010,-0.001,0.999,0.000,0.000,0.000,0.0060,4,-3,0.00,0.00,0.00,0.0000,0.0000,0.0000,0.0000,0.0000,0.0000,0.0000,0.00,0.00,0.00,0.0000,0.1040,1.2860,1.1670,2.7090,0,0.0000,0.0000,0.0000,0.0000,0.0000,0,1,0,0.3000,0,-0.0037,0.0089,0,0,0
12209,-0.0004,0.0019,0.0061,-0.0026,0.0072,0.0022,-0.17,-0.66,0.06,0,4.091,-0.092,-0.123,-0.051,-0.011,-0.004,1.001,0.000,0.000,0.000,0.0060,-3,0,0.00,0.00,0.00,0.0000,0.0000,0.0000,0.0000,0.0000,0.0000,0.0000,0.00,0.00,0.00,0.0000,0.1060,1.2860,1.1670,2.6930,0,0.0000,0.0000,0.0000,0.0000,0.0000,0,1,0,0.3000,0,-0.0037,0.0089,0,0,0
12260,-0.0001,0.0002,0.0062,-0.0012,-0.0010,0.0024,-0.19,-0.63,0.05,0,4.091,0.229,0.144,-0.171,-0.014,-0.001,1.002,0.000,0.000,0.000,0.0090,7,0,0.00,0.00,0.00,0.0000,0.0000,0.0000,0.0000,0.0000,0.0000,0.0000,0.00,0.00,0.00,0.0000,0.1060,1.2820,1.1640,2.6930,0,0.0000,0.0000,0.0000,0.0000,0.0000,0,1,0,0.3000,0,-0.0037,0.0089,0,0,0
12310,-0.0001,0.0020,0.0062,-0.0014,0.0082,0.0028,-0.15,-0.63,0.05,0,4.091,0.150,0.169,-0.347,-0.012,-0.002,1.002,0.000,0.000,0.000,0.0060,-7,1,0.00,0.00,0.00,0.0000,0.0000,0.0000,0.0000,0.0000,0.0000,0.0000,0.00,0.00,0.00,0.0000,0.1040,1.2820,1.1640,2.6990,0,0.0000,0.0000,0.0000,0.0000,0.0000,0,1,0,0.3000,0,-0.0037,0.0089,0,0,0
12361,-0.0001,0.0007,0.0071,-0.0018,0.0018,0.0052,-0.25,-0.62,0.05,0,4.091,0.031,-0.266,-0.284,-0.013,-0.002,0.999,0.000,0.000,0.000,0.0060,3,-9,0.00,0.00,0.00,0.0000,0.0000,0.0000,0.0000,0.0000,0.0000,0.0000,0.00,0.00,0.00,0.0000,0.1040,1.2830,1.1670,2.6990,0,0.0000,0.0000,0.0000,0.0000,0.0000,0,1,0,0.3000,0,-0.0037,0.0089,0,0,0
12413,-0.0004,0.0010,0.0074,-0.0030,0.0032,0.0055,-0.16,-0.71,0.06,0,4.091,0.104,-0.192,-0.155,-0.012,-0.004,0.998,0.000,0.000,0.000,0.0060,-4,1,0.00,0.00,0.00,0.0000,0.0000,0.0000,0.0000,0.0000,0.0000,0.0000,0.00,0.00,0.00,0.0000,0.1050,1.2830,1.1670,2.7000,0,0.0000,0.0000,0.0000,0.0000,0.0000,0,1,0,0.3000,0,-0.0037,0.0089,0,0,0
12464,-0.0001,-0.0004,0.0066,-0.0027,-0.0037,-0.0000,-0.18,-0.62,0.06,0,4.086,0.014,-0.206,-0.258,-0.013,-0.004,1.003,0.000,0.000,0.000,0.0040,5,-6,0.00,0.00,0.00,0.0000,0.0000,0.0000,0.0000,0.0000,0.0000,0.0000,0.00,0.00,0.00,0.0000,0.1050,1.2810,1.1680,2.7000,0,0.0000,0.0000,0.0000,0.0000,0.0000,0,1,0,0.3000,0,-0.0037,0.0089,0,0,0
12515,0.0004,0.0015,0.0066,0.0003,0.0061,0.0009,-0.16,-0.71,0.06,0,4.091,0.011,0.100,0.150,-0.010,-0.003,1.002,0.000,0.000,0.000,0.0080,0,0,0.00,0.00,0.00,0.0000,0.0000,0.0000,0.0000,0.0000,0.0000,0.0000,0.00,0.00,0.00,0.0000,0.1060,1.2810,1.1680,2.7060,0,0.0000,0.0000,0.0000,0.0000,0.0000,0,1,0,0.3000,0,-0.0037,0.0089,0,0,0
12566,-0.0004,0.0002,0.0064,-0.0039,-0.0009,0.0021,-0.16,-0.62,0.06,0,4.086,-0.101,-0.143,0.140,-0.012,-0.003,1.002,0.000,0.000,0.000,0.0060,3,-6,0.00,0.00,0.00,0.0000,0.0000,0.0000,0.0000,0.0000,0.0000,0.0000,0.00,0.00,0.00,0.0000,0.1060,1.2820,1.1690,2.7060,0,0.0000,0.0000,0.0000,0.0000,0.0000,0,1,0,0.3000,0,-0.0037,0.0089,0,0,0
12618,-0.0004,0.0027,0.0066,-0.0038,0.0114,0.0028,-0.22,-0.68,0.06,0,4.091,0.260,-0.264,0.040,-0.013,-0.002,1.001,0.000,0.000,0.000,0.0070,0,0,0.00,0.00,0.00,0.0000,0.0000,0.0000,0.0000,0.0000,0.0000,0.0000,0.00,0.00,0.00,0.0000,0.1000,1.2820,1.1690,2.7080,0,0.0000,0.0000,0.0000,0.0000,0.0000,0,1,0,0.3000,0,-0.0037,0.0089,0,0,0
12670,-0.0004,0.0002,0.0065,-0.0037,-0.0016,0.0023,-0.15,-0.62,0.06,0,4.086,0.097,0.055,-0.153,-0.014,-0.003,1.000,0.000,0.000,0.000,0.0080,1,-5,0.00,0.00,0.00,0.0000,0.0000,0.0000,0.0000,0.0000,0.0000,0.0000,0.00,0.00,0.00,0.0000,0.1000,1.2830,1.1720,2.7080,0,0.0000,0.0000,0.0000,0.0000,0.0000,0,1,0,0.3000,0,-0.0037,0.0089,0,0,0
12720,-0.0005,0.0004,0.0069,-0.0039,-0.0001,0.0039,-0.15,-0.68,0.06,0,4.096,-0.067,0.143,0.248,-0.011,-0.005,1.002,0.000,0.000,0.000,0.0080,0,-6,0.00,0.00,0.00,0.0000,0.0000,0.0000,0.0000,0.0000,0.0000,0.0000,0.00,0.00,0.00,0.0000,0.1050,1.2830,1.1720,2.7060,0,0.0000,0.0000,0.0000,0.0000,0.0000,0,1,0,0.3000,0,-0.0037,0.0089,0,0,0
12771,-0.0002,0.0001,0.0077,-0.0016,-0.0015,0.0066,-0.15,-0.71,0.06,0,4.086,-0.309,-0.025,0.324,-0.010,-0.004,1.000,0.000,0.000,0.000,0.0060,-3,7,0.00,0.00,0.00,0.0000,0.0000,0.0000,0.0000,0.0000,0.0000,0.0000,0.00,0.00,0.00,0.0000,0.1050,1.2840,1.1670,2.7060,0,0.0000,0.0000,0.0000,0.0000,0.0000,0,1,0,0.3000,0,-0.0037,0.0089,0,0,0
12823,0.0022,-0.0001,0.0082,0.0099,-0.0023,0.0076,-0.18,-0.64,0.06,0,4.091,-0.052,0.046,0.047,-0.012,-0.001,1.000,0.000,0.000,0.000,0.0070,-5,-6,0.00,0.00,0.00,0.0000,0.0000,0.0000,0.0000,0.0000,0.0000,0.0000,0.00,0.00,0.00,0.0000,0.1030,1.2840,1.1670,2.7060,0,0.0000,0.0000,0.0000,0.0000,0.0000,0,1,0,0.3000,0,-0.0037,0.0089,0,0,0
12874,0.0004,0.0002,0.0073,0.0012,-0.0006,0.0025,-0.20,-0.70,0.06,0,4.086,-0.097,-0.192,-0.056,-0.011,-0.003,1.002,0.000,0.000,0.000,0.0070,1,-4,0.00,0.00,0.00,0.0000,0.0000,0.0000,0.0000,0.0000,0.0000,0.0000,0.00,0.00,0.00,0.0000,0.1030,1.2880,1.1680,2.7060,0,0.0000,0.0000,0.0000,0.0000,0.0000,0,1,0,0.3000,0,-0.0037,0.0089,0,0,0
12924,0.0009,0.0004,0.0074,0.0031,0.0008,0.0032,-0.15,-0.69,0.06,0,4.091,0.105,-0.028,-0.212,-0.013,-0.002,1.002,0.000,0.000,0.000,0.0050,-3,0,0.00,0.00,0.00,0.0000,0.0000,0.0000,0.0000,0.0000,0.0000,0.0000,0.00,0.00,0.00,0.0000,0.1040,1.2880,1.1680,2.7060,0,0.0000,0.0000,0.0000,0.0000,0.0000,0,1,0,0.3000,0,-0.0037,0.0089,0,0,0
12975,-0.0003,0.0002,0.0065,-0.0036,-0.0001,-0.0020,-0.18,-0.61,0.06,0,4.091,-0.137,-0.114,0.005,-0.012,-0.002,1.000,0.000,0.000,0.000,0.0060,-4,-1,0.00,0.00,0.00,0.0000,0.0000,0.0000,0.0000,0.0000,0.0000,0.0000,0.00,0.00,0.00,0.0000,0.1040,1.2770,1.1700,2.7060,0,0.0000,0.0000,0.0000,0.0000,0.0000,0,1,0,0.3000,0,-0.0037,0.0089,0,0,0
13027,-0.0003,0.0007,0.0064,-0.0031,0.0027,-0.0018,-0.21,-0.62,0.06,0,4.091,-0.080,-0.033,-0.191,-0.012,-0.000,1.001,0.000,0.000,0.000,0.0070,0,0,0.00,0.00,0.00,0.0000,0.0000,0.0000,0.0000,0.0000,0.0000,0.0000,0.00,0.00,0.00,0.0000,0.1060,1.2770,1.1700,2.6960,0,0.0000,0.0000,0.0000,0.0000,0.0000,0,1,0,0.3000,0,-0.0037,0.0089,0,0,0
13077,-0.0004,0.0002,0.0061,-0.0032,-0.0001,-0.0026,-0.14,-0.61,0.06,0,4.086,0.146,-0.094,-0.036,-0.012,-0.003,1.001,0.000,0.000,0.000,0.0040,3,-2,0.00,0.00,0.00,0.0000,0.0000,0.0000,0.0000,0.0000,0.0000,0.0000,0.00,0.00,0.00,0.0000,0.1060,1.2870,1.1690,2.6960,0,0.0000,0.0000,0.0000,0.0000,0.0000,0,1,0,0.3000,0,-0.0037,0.0089,0,0,0
13128,-0.0002,0.0028,0.0065,-0.0018,0.0127,0.0002,-0.21,-0.65,0.06,0,4.091,-0.193,-0.162,0.153,-0.013,-0.004,0.998,0.000,0.000,0.000,0.0090,0,0,0.00,0.00,0.00,0.0000,0.0000,0.0000,0.0000,0.0000,0.0000,0.0000,0.00,0.00,0.00,0.0000,0.1060,1.2870,1.1690,2.7040,0,0.0000,0.0000,0.0000,0.0000,0.0000,0,1,0,0.3000,0,-0.0037,0.0089,0,0,0
13179,-0.0004,0.0005,0.0052,-0.0033,0.0001,-0.0053,-0.15,-0.62,0.06,0,4.091,0.173,0.121,0.142,-0.010,-0.003,1.001,0.000,0.000,0.000,0.0060,-2,-9,0.00,0.00,0.00,0.0000,0.0000,0.0000,0.0000,0.0000,0.0000,0.0000,0.00,0.00,0.00,0.0000,0.1060,1.2830,1.1720,2.7040,0,0.0000,0.0000,0.0000,0.0000,0.0000,0,1,0,0.3000,0,-0.0037,0.0089,0,0,0
13231,-0.0005,0.0005,0.0069,-0.0030,0.0003,0.0032,-0.17,-0.72,0.06,0,4.086,-0.103,-0.096,-0.215,-0.013,-0.004,0.999,0.000,0.000,0.000,0.0070,-3,-6,0.00,0.00,0.00,0.0000,0.0000,0.0000,0.0000,0.0000,0.0000,0.0000,0.00,0.00,0.00,0.0000,0.1040,1.2830,1.1720,2.7030,0,0.0000,0.0000,0.0000,0.0000,0.0000,0,1,0,0.3000,0,-0.0037,0.0089,0,0,0
13281,-0.0005,0.0002,0.0068,-0.0040,-0.0009,0.0022,-0.17,-0.69,0.06,0,4.091,0.051,0.178,-0.098,-0.011,-0.004,1.000,0.000,0.000,0.000,0.0040,5,0,0.00,0.00,0.00,0.0000,0.0000,0.0000,0.0000,0.0000,0.0000,0.0000,0.00,0.00,0.00,0.0000,0.1040,1.2830,1.1660,2.7030,0,0.0000,0.0000,0.0000,0.0000,0.0000,0,1,0,0.3000,0,-0.0037,0.0089,0,0,0
13332,0.0010,0.0027,0.0069,0.0033,0.0114,0.0025,-0.17,-0.68,0.06,0,4.091,-0.139,0.151,-0.234,-0.012,-0.003,0.999,0.000,0.000,0.000,0.0070,-5,-3,0.00,0.00,0.00,0.0000,0.0000,0.0000,0.0000,0.0000,0.0000,0.0000,0.00,0.00,0.00,0.0000,0.1090,1.2830,1.1660,2.6990,0,0.0000,0.0000,0.0000,0.0000,0.0000,0,1,0,0.3000,0,-0.0037,0.0089,0,0,0
13384,-0.0003,0.0002,0.0056,-0.0033,-0.0014,-0.0033,-0.17,-0.66,0.06,0,4.091,0.074,-0.412,0.345,-0.010,-0.003,1.002,0.000,0.000,0.000,0.0040,-2,0,0.00,0.00,0.00,0.0000,0.0000,0.0000,0.0000,0.0000,0.0000,0.0000,0.00,0.00,0.00,0.0000,0.1090,1.2820,1.1660,2.6990,0,0.0000,0.0000,0.0000,0.0000,0.0000,0,1,0,0.3000,0,-0.0037,0.0089,0,0,0
13435,-0.0003,-0.0000,0.0061,-0.0035,-0.0021,-0.0000,-0.14,-0.63,0.06,0,4.091,-0.160,-0.079,0.092,-0.013,-0.004,1.002,0.000,0.000,0.000,0.0040,0,-2,0.00,0.00,0.00,0.0000,0.0000,0.0000,0.0000,0.0000,0.0000,0.0000,0.00,0.00,0.00,0.0000,0.1080,1.2820,1.1660,2.7000,0,0.0000,0.0000,0.0000,0.0000,0.0000,0,1,0,0.3000,0,-0.0037,0.0089,0,0,0
13487,-0.0008,0.0002,0.0050,-0.0056,-0.0011,-0.0044,-0.13,-0.63,0.06,0,4.091,-0.024,-0.012,0.112,-0.011,-0.005,1.001,0.000,0.000,0.000,0.0090,0,0,0.00,0.00,0.00,0.0000,0.0000,0.0000,0.0000,0.0000,0.0000,0.0000,0.00,0.00,0.00,0.0000,0.1080,1.2830,1.1700,2.7000,0,0.0000,0.0000,0.0000,0.0000,0.0000,0,1,0,0.3000,0,-0.0037,0.0089,0,0,0
13538,-0.0003,0.0023,0.0043,-0.0024,0.0096,-0.0060,-0.22,-0.63,0.06,0,4.086,-0.107,0.272,0.417,-0.010,-0.005,1.000,0.000,0.000,0.000,0.0050,-2,0,0.00,0.00,0.00,0.0000,0.0000,0.0000,0.0000,0.0000,0.0000,0.0000,0.00,0.00,0.00,0.0000,0.1070,1.2830,1.1700,2.7060,0,0.0000,0.0000,0.0000,0.0000,0.0000,0,1,0,0.3000,0,-0.0037,0.0089,0,0,0
13588,-0.0003,-0.0003,0.0066,-0.0026,-0.0053,0.0054,-0.13,-0.64,0.06,0,4.086,0.266,-0.113,0.047,-0.011,-0.004,1.000,0.000,0.000,0.000,0.0050,-2,2,0.00,0.00,0.00,0.0000,0.0000,0.0000,0.0000,0.0000,0.0000,0.0000,0.00,0.00,0.00,0.0000,0.1070,1.2820,1.1700,2.7060,0,0.0000,0.0000,0.0000,0.0000,0.0000,0,1,0,0.3000,0,-0.0037,0.0089,0,0,0
13639,0.0020,0.0010,0.0060,0.0100,0.0011,0.0020,-0.19,-0.71,0.07,0,4.091,-0.143,0.151,-0.211,-0.009,-0.001,1.002,0.000,0.000,0.000,0.0050,0,0,0.00,0.00,0.00,0.0000,0.0000,0.0000,0.0000,0.0000,0.0000,0.0000,0.00,0.00,0.00,0.0000,0.1040,1.2820,1.1700,2.6980,0,0.0000,0.0000,0.0000,0.0000,0.0000,0,1,0,0.3000,0,-0.0037,0.0089,0,0,0
13690,-0.0003,0.0002,0.0054,-0.0016,-0.0024,-0.0010,-0.14,-0.63,0.07,0,4.086,-0.381,0.126,0.037,-0.011,-0.003,0.998,0.000,0.000,0.000,0.0070,0,-9,0.00,0.00,0.00,0.0000,0.0000,0.0000,0.0000,0.0000,0.0000,0.0000,0.00,0.00,0.00,0.0000,0.1040,1.2800,1.1690,2.6980,0,0.0000,0.0000,0.0000,0.0000,0.0000,0,1,0,0.3000,0,-0.0037,0.0089,0,0,0
13741,-0.0003,0.0005,0.0053,-0.0018,-0.0007,-0.0012,-0.15,-0.72,0.06,0,4.091,0.100,0.188,-0.351,-0.011,-0.004,1.000,0.000,0.000,0.000,0.0060,0,-3,0.00,0.00,0.00,0.0000,0.0000,0.0000,0.0000,0.0000,0.0000,0.0000,0.00,0.00,0.00,0.0000,0.1030,1.2800,1.1690,2.7000,0,0.0000,0.0000,0.0000,0.0000,0.0000,0,1,0,0.3000,0,-0.0037,0.0089,0,0,0
13792,-0.0004,0.0002,0.0061,-0.0021,-0.0019,0.0024,-0.14,-0.65,0.06,0,4.086,0.109,-0.096,0.022,-0.013,-0.003,1.001,0.000,0.000,0.000,0.0060,3,-2,0.00,0.00,0.00,0.0000,0.0000,0.0000,0.0000,0.0000,0.0000,0.0000,0.00,0.00,0.00,0.0000,0.1030,1.2830,1.1630,2.7000,0,0.0000,0.0000,0.0000,0.0000,0.0000,0,1,0,0.3000,0,-0.0037,0.0089,0,0,0
13843,0.0004,0.0010,0.0063,0.0022,0.0026,0.0029,-0.14,-0.67,0.06,0,4.091,-0.073,0.036,0.234,-0.011,-0.004,1.001,0.000,0.000,0.000,0.0060,3,-9,0.00,0.00,0.00,0.0000,0.0000,0.0000,0.0000,0.0000,0.0000,0.0000,0.00,0.00,0.00,0.0000,0.1050,1.2830,1.1630,2.6910,0,0.0000,0.0000,0.0000,0.0000,0.0000,0,1,0,0.3000,0,-0.0037,0.0089,0,0,0
13894,-0.0003,0.0010,0.0063,-0.0019,0.0026,0.0021,-0.14,-0.71,0.06,0,4.091,-0.193,-0.136,-0.125,-0.011,-0.003,1.002,0.000,0.000,0.000,0.0080,-2,-2,0.00,0.00,0.00,0.0000,0.0000,0.0000,0.0000,0.0000,0.0000,0.0000,0.00,0.00,0.00,0.0000,0.1050,1.2860,1.1690,2.6910,0,0.0000,0.0000,0.0000,0.0000,0.0000,0,1,0,0.3000,0,-0.0037,0.0089,0,0,0
13945,-0.0001,0.0009,0.0063,-0.0008,0.0030,0.0025,-0.19,-0.64,0.06,0,4.091,0.122,-0.366,-0.170,-0.012,-0.004,0.998,0.000,0.000,0.000,0.0050,-4,-4,0.00,0.00,0.00,0.0000,0.0000,0.0000,0.0000,0.0000,0.0000,0.0000,0.00,0.00,0.00,0.0000,0.1070,1.2860,1.1690,2.6980,0,0.0000,0.0000,0.0000,0.0000,0.0000,0,1,0,0.3000,0,-0.0037,0.0089,0,0,0
13996,-0.0003,0.0003,0.0073,-0.0021,-0.0013,0.0065,-0.19,-0.65,0.06,0,4.086,0.176,-0.010,0.025,-0.012,-0.002,1.000,0.000,0.000,0.000,0.0080,3,0,0.00,0.00,0.00,0.0000,0.0000,0.0000,0.0000,0.0000,0.0000,0.0000,0.00,0.00,0.00,0.0000,0.1070,1.2860,1.1680,2.6980,0,0.0000,0.0000,0.0000,0.0000,0.0000,0,1,0,0.3000,0,-0.0037,0.0089,0,0,0
14047,-0.0001,0.0023,0.0065,-0.0011,0.0096,0.0016,-0.20,-0.61,0.06,0,4.091,-0.137,0.048,0.352,-0.011,-0.001,1.001,0.000,0.000,0.000,0.0080,-1,-2,0.00,0.00,0.00,0.0000,0.0000,0.0000,0.0000,0.0000,0.0000,0.0000,0.00,0.00,0.00,0.0000,0.1030,1.2860,1.1680,2.6970,0,0.0000,0.0000,0.0000,0.0000,0.0000,0,1,0,0.3000,0,-0.0037,0.0089,0,0,0
14098,-0.0003,-0.0002,0.0076,-0.0024,-0.0034,0.0070,-0.13,-0.63,0.06,0,4.091,0.131,-0.194,-0.538,-0.013,-0.004,1.000,0.000,0.000,0.000,0.0050,-8,0,0.00,0.00,0.00,0.0000,0.0000,0.0000,0.0000,0.0000,0.0000,0.0000,0.00,0.00,0.00,0.0000,0.1030,1.2850,1.1690,2.6970,0,0.0000,0.0000,0.0000,0.0000,0.0000,0,1,0,0.3000,0,-0.0037,0.0089,0,0,0
14149,-0.0003,0.0005,0.0080,-0.0022,0.0007,0.0076,-0.23,-0.61,0.05,0,4.091,-0.061,0.207,0.095,-0.012,-0.006,1.000,0.000,0.000,0.000,0.0080,0,0,0.00,0.00,0.00,0.0000,0.0000,0.0000,0.0000,0.0000,0.0000,0.0000,0.00,0.00,0.00,0.0000,0.1050,1.2850,1.1690,2.7050,0,0.0000,0.0000,0.0000,0.0000,0.0000,0,1,0,0.3000,0,-0.0037,0.0089,0,0,0
14200,-0.0003,0.0003,0.0073,-0.0028,-0.0018,0.0033,-0.13,-0.62,0.05,0,4.086,-0.185,-0.058,0.049,-0.011,-0.002,1.001,0.000,0.000,0.000,0.0080,-4,-4,0.00,0.00,0.00,0.0000,0.0000,0.0000,0.0000,0.0000,0.0000,0.0000,0.00,0.00,0.00,0.0000,0.1050,1.2830,1.1670,2.7050,0,0.0000,0.0000,0.0000,0.0000,0.0000,0,1,0,0.3000,0,-0.0037,0.0089,0,0,0
14251,-0.0001,0.0002,0.0075,-0.0018,-0.0016,0.0040,-0.18,-0.67,0.06,0,4.091,0.203,0.290,0.020,-0.013,-0.004,1.000,0.000,0.000,0.000,0.0060,-5,0,0.00,0.00,0.00,0.0000,0.0000,0.0000,0.0000,0.0000,0.0000,0.0000,0.00,0.00,0.00,0.0000,0.1020,1.2830,1.1670,2.6950,0,0.0000,0.0000,0.0000,0.0000,0.0000,0,1,0,0.3000,0,-0.0037,0.0089,0,0,0
14303,-0.0001,0.0002,0.0080,-0.0021,-0.0021,0.0059,-0.19,-0.63,0.06,0,4.091,-0.054,0.068,-0.066,-0.012,-0.004,1.002,0.000,0.000,0.000,0.0040,-9,-7,0.00,0.00,0.00,0.0000,0.0000,0.0000,0.0000,0.0000,0.0000,0.0000,0.00,0.00,0.00,0.0000,0.1020,1.2850,1.1680,2.6950,0,0.0000,0.0000,0.0000,0.0000,0.0000,0,1,0,0.3000,0,-0.0037,0.0089,0,0,0
14354,0.0002,0.0002,0.0073,-0.0001,-0.0021,0.0024,-0.23,-0.72,0.05,0,4.091,-0.068,0.097,-0.413,-0.013,-0.001,1.000,0.000,0.000,0.000,0.0060,-1,-3,0.00,0.00,0.00,0.0000,0.0000,0.0000,0.0000,0.0000,0.0000,0.0000,0.00,0.00,0.00,0.0000,0.1050,1.2850,1.1680,2.6910,0,0.0000,0.0000,0.0000,0.0000,0.0000,0,1,0,0.3000,0,-0.0037,0.0089,0,0,0
14405,-0.0001,0.0007,0.0058,-0.0017,0.0010,-0.0043,-0.17,-0.66,0.05,0,4.091,-0.216,-0.029,0.295,-0.012,0.000,0.998,0.000,0.000,0.000,0.0070,-2,0,0.00,0.00,0.00,0.0000,0.0000,0.0000,0.0000,0.0000,0.0000,0.0000,0.00,0.00,0.00,0.0000,0.1050,1.2880,1.1690,2.6910,0,0.0000,0.0000,0.0000,0.0000,0.0000,0,1,0,0.3000,0,-0.0037,0.0089,0,0,0
14456,-0.0001,0.0010,0.0057,-0.0014,0.0026,-0.0042,-0.18,-0.62,0.05,0,4.091,0.341,0.131,0.105,-0.011,-0.005,0.998,0.000,0.000,0.000,0.0060,-3,-1,0.00,0.00,0.00,0.0000,0.0000,0.0000,0.0000,0.0000,0.0000,0.0000,0.00,0.00,0.00,0.0000,0.1040,1.2880,1.1690,2.6940,0,0.0000,0.0000,0.0000,0.0000,0.0000,0,1,0,0.3000,0,-0.0037,0.0089,0,0,0
14507,-0.0003,0.0002,0.0061,-0.0025,-0.0015,-0.0012,-0.16,-0.63,0.05,0,4.091,0.140,0.174,-0.085,-0.013,-0.002,1.002,0.000,0.000,0.000,0.0060,-4,-7,0.00,0.00,0.00,0.0000,0.0000,0.0000,0.0000,0.0000,0.0000,0.0000,0.00,0.00,0.00,0.0000,0.1040,1.2820,1.1690,2.6940,0,0.0000,0.0000,0.0000,0.0000,0.0000,0,1,0,0.3000,0,-0.0037,0.0089,0,0,0
14558,-0.0004,0.0002,0.0061,-0.0032,-0.0020,-0.0008,-0.17,-0.69,0.05,0,4.091,0.061,-0.190,0.094,-0.013,-0.002,1.003,0.000,0.000,0.000,0.0060,-2,-2,0.00,0.00,0.00,0.0000,0.0000,0.0000,0.0000,0.0000,0.0000,0.0000,0.00,0.00,0.00,0.0000,0.1050,1.2820,1.1690,2.6960,0,0.0000,0.0000,0.0000,0.0000,0.0000,0,1,0,0.3000,0,-0.0037,0.0089,0,0,0
14610,-0.0008,0.0002,0.0060,-0.0062,-0.0021,0.0000,-0.14,-0.62,0.05,0,4.086,0.380,0.142,0.005,-0.013,-0.001,0.999,0.000,0.000,0.000,0.0070,-1,-3,0.00,0.00,0.00,0.0000,0.0000,0.0000,0.0000,0.0000,0.0000,0.0000,0.00,0.00,0.00,0.0000,0.1050,1.2840,1.1660,2.6960,0,0.0000,0.0000,0.0000,0.0000,0.0000,0,1,0,0.3000,0,-0.0037,0.0089,0,0,0
14660,0.0004,0.0007,0.0061,0.0004,0.0011,0.0004,-0.15,-0.68,0.05,0,4.091,-0.097,0.239,0.263,-0.012,-0.001,1.003,0.000,0.000,0.000,0.0110,0,-2,0.00,0.00,0.00,0.0000,0.0000,0.0000,0.0000,0.0000,0.0000,0.0000,0.00,0.00,0.00,0.0000,0.1050,1.2840,1.1660,2.6990,0,0.0000,0.0000,0.0000,0.0000,0.0000,0,1,0,0.3000,0,-0.0037,0.0089,0,0,0
14711,-0.0004,0.0002,0.0066,-0.0034,-0.0016,0.0026,-0.13,-0.64,0.05,0,4.086,-0.210,0.364,-0.029,-0.011,-0.004,1.001,0.000,0.000,0.000,0.0060,-2,-5,0.00,0.00,0.00,0.0000,0.0000,0.0000,0.0000,0.0000,0.0000,0.0000,0.00,0.00,0.00,0.0000,0.1050,1.2810,1.1690,2.6990,0,0.0000,0.0000,0.0000,0.0000,0.0000,0,1,0,0.3000,0,-0.0037,0.0089,0,0,0
14763,-0.0006,0.0005,0.0090,-0.0043,0.0000,0.0129,-0.16,-0.67,0.04,0,4.086,0.168,0.102,0.063,-0.013,-0.003,1.002,0.000,0.000,0.000,0.0100,-2,0,0.00,0.00,0.00,0.0000,0.0000,0.0000,0.0000,0.0000,0.0000,0.0000,0.00,0.00,0.00,0.0000,0.1070,1.2810,1.1690,2.6980,0,0.0000,0.0000,0.0000,0.0000,0.0000,0,1,0,0.3000,0,-0.0037,0.0089,0,0,0
14814,-0.0004,0.0010,0.0080,-0.0032,0.0026,0.0067,-0.18,-0.63,0.04,0,4.091,0.056,0.111,-0.140,-0.013,-0.002,1.001,0.000,0.000,0.000,0.0060,5,8,0.00,0.00,0.00,0.0000,0.0000,0.0000,0.0000,0.0000,0.0000,0.0000,0.00,0.00,0.00,0.0000,0.1070,1.2800,1.1670,2.6980,0,0.0000,0.0000,0.0000,0.0000,0.0000,0,1,0,0.3000,0,-0.0037,0.0089,0,0,0
14866,0.0021,0.0027,0.0094,0.0095,0.0110,0.0108,-0.16,-0.63,0.04,0,4.091,-0.100,-0.282,-0.108,-0.013,-0.000,1.000,0.000,0.000,0.000,0.0090,-2,-5,0.00,0.00,0.00,0.0000,0.0000,0.0000,0.0000,0.0000,0.0000,0.0000,0.00,0.00,0.00,0.0000,0.1070,1.2800,1.1670,2.6910,0,0.0000,0.0000,0.0000,0.0000,0.0000,0,1,0,0.3000,0,-0.0037,0.0089,0,0,0
14917,-0.0004,0.0004,0.0082,-0.0037,-0.0003,0.0035,-0.16,-0.68,0.05,0,4.086,-0.028,0.073,0.184,-0.011,0.000,0.999,0.000,0.000,0.000,0.0080,1,8,0.00,0.00,0.00,0.0000,0.0000,0.0000,0.0000,0.0000,0.0000,0.0000,0.00,0.00,0.00,0.0000,0.1070,1.2810,1.1690,2.6910,0,0.0000,0.0000,0.0000,0.0000,0.0000,0,1,0,0.3000,0,-0.0037,0.0089,0,0,0
14968,0.0020,0.0020,0.0088,0.0081,0.0074,0.0054,-0.19,-0.64,0.05,0,4.091,-0.025,0.052,0.002,-0.015,-0.002,0.998,0.000,0.000,0.000,0.0060,-9,0,0.00,0.00,0.00,0.0000,0.0000,0.0000,0.0000,0.0000,0.0000,0.0000,0.00,0.00,0.00,0.0000,0.1040,1.2810,1.1690,2.7020,0,0.0000,0.0000,0.0000,0.0000,0.0000,0,1,0,0.3000,0,-0.0037,0.0089,0,0,0
15019,-0.0000,0.0002,0.0076,-0.0028,-0.0018,-0.0012,-0.21,-0.64,0.05,0,4.086,0.024,-0.239,-0.274,-0.013,-0.003,1.002,0.000,0.000,0.000,0.0090,0,-6,0.00,0.00,0.00,0.0000,0.0000,0.0000,0.0000,0.0000,0.0000,0.0000,0.00,0.00,0.00,0.0000,0.1040,1.2810,1.1690,2.7020,0,0.0000,0.0000,0.0000,0.0000,0.0000,0,1,0,0.3000,0,-0.0037,0.0089,0,0,0
15071,0.0004,0.0002,0.0076,-0.0001,-0.0019,-0.0005,-0.13,-0.72,0.05,0,4.086,0.262,-0.054,-0.192,-0.012,-0.002,1.000,0.000,0.000,0.000,0.0030,0,-1,0.00,0.00,0.00,0.0000,0.0000,0.0000,0.0000,0.0000,0.0000,0.0000,0.00,0.00,0.00,0.0000,0.1040,1.2810,1.1690,2.6980,0,0.0000,0.0000,0.0000,0.0000,0.0000,0,1,0,0.3000,0,-0.0037,0.0089,0,0,0
15121,-0.0003,0.0007,0.0084,-0.0037,0.0010,0.0032,-0.14,-0.64,0.05,0,4.086,-0.054,-0.010,-0.001,-0.010,-0.005,1.002,0.000,0.000,0.000,0.0040,1,2,0.00,0.00,0.00,0.0000,0.0000,0.0000,0.0000,0.0000,0.0000,0.0000,0.00,0.00,0.00,0.0000,0.1040,1.2830,1.1650,2.6980,0,0.0000,0.0000,0.0000,0.0000,0.0000,0,1,0,0.3000,0,-0.0037,0.0089,0,0,0
15172,0.0006,0.0014,0.0058,0.0017,0.0047,-0.0074,-0.16,-0.65,0.05,0,4.091,0.000,-0.336,0.060,-0.010,-0.002,0.999,0.000,0.000,0.000,0.0080,-1,0,0.00,0.00,0.00,0.0000,0.0000,0.0000,0.0000,0.0000,0.0000,0.0000,0.00,0.00,0.00,0.0000,0.1120,1.2830,1.1650,2.6940,0,0.0000,0.0000,0.0000,0.0000,0.0000,0,1,0,0.3000,0,-0.0037,0.0089,0,0,0
15223,-0.0003,0.0002,0.0045,-0.0024,-0.0017,-0.0111,-0.13,-0.63,0.05,0,4.086,-0.126,-0.143,-0.176,-0.012,-0.002,1.002,0.000,0.000,0.000,0.0060,0,-2,0.00,0.00,0.00,0.0000,0.0000,0.0000,0.0000,0.0000,0.0000,0.0000,0.00,0.00,0.00,0.0000,0.1120,1.2860,1.1700,2.6940,0,0.0000,0.0000,0.0000,0.0000,0.0000,0,1,0,0.3000,0,-0.0037,0.0089,0,0,0
15275,0.0006,0.0007,0.0058,0.0027,0.0012,-0.0031,-0.14,-0.68,0.04,0,4.091,0.155,0.187,0.062,-0.012,-0.004,1.002,0.000,0.000,0.000,0.0060,-5,-8,0.00,0.00,0.00,0.0000,0.0000,0.0000,0.0000,0.0000,0.0000,0.0000,0.00,0.00,0.00,0.0000,0.1050,1.2860,1.1700,2.6990,0,0.0000,0.0000,0.0000,0.0000,0.0000,0,1,0,0.3000,0,-0.0037,0.0089,0,0,0
15326,-0.0001,0.0002,0.0059,-0.0017,-0.0014,-0.0013,-0.17,-0.71,0.04,0,4.086,-0.132,0.027,-0.038,-0.011,-0.005,1.002,0.000,0.000,0.000,0.0080,-4,1,0.00,0.00,0.00,0.0000,0.0000,0.0000,0.0000,0.0000,0.0000,0.0000,0.00,0.00,0.00,0.0000,0.1050,1.2860,1.1720,2.6990,0,0.0000,0.0000,0.0000,0.0000,0.0000,0,1,0,0.3000,0,-0.0037,0.0089,0,0,0
15377,0.0004,0.0003,0.0059,0.0002,-0.0019,-0.0006,-0.16,-0.63,0.04,0,4.091,-0.136,-0.044,0.266,-0.010,-0.004,1.001,0.000,0.000,0.000,0.0090,-1,1,0.00,0.00,0.00,0.0000,0.0000,0.0000,0.0000,0.0000,0.0000,0.0000,0.00,0.00,0.00,0.0000,0.1030,1.2860,1.1720,2.7000,0,0.0000,0.0000,0.0000,0.0000,0.0000,0,1,0,0.3000,0,-0.0037,0.0089,0,0,0
15429,0.0002,0.0003,0.0078,-0.0011,-0.0019,0.0089,-0.13,-0.62,0.04,0,4.091,0.141,0.200,0.032,-0.011,-0.003,1.001,0.000,0.000,0.000,0.0060,1,2,0.00,0.00,0.00,0.0000,0.0000,0.0000,0.0000,0.0000,0.0000,0.0000,0.00,0.00,0.00,0.0000,0.1030,1.2860,1.1690,2.7000,0,0.0000,0.0000,0.0000,0.0000,0.0000,0,1,0,0.3000,0,-0.0037,0.0089,0,0,0
