time_ms,pos_x,pos_y,pos_z,vel_x,vel_y,vel_z,roll,pitch,yaw,thrust,vbat,gyro_x,gyro_y,gyro_z,acc_x,acc_y,acc_z,rate_roll,rate_pitch,rate_yaw,range_z,flow_dx,flow_dy,mekf_roll,mekf_pitch,mekf_yaw,mekf_x,mekf_y,mekf_z,our_ref_x,our_ref_y,our_ref_z,our_thrust,our_roll_cmd,our_pitch_cmd,our_yaw_rate_cmd,multi_front,multi_back,multi_left,multi_right,multi_up,ai_feat_count
0,-3.2912,2.3459,0.0103,0.0016,0.0192,0.0038,-0.89,0.88,-28.75,0,4.144,0.053,-0.066,0.031,0.015,-0.015,1.002,0.000,0.000,0.000,0.0080,-2,1,0.00,0.00,0.00,0.0000,0.0000,0.0000,0.0000,0.0000,0.0000,0.0000,0.00,0.00,0.00,1.4600,0.2190,0.8260,0.3100,2.6980,0
100,-3.2908,2.3456,0.0094,0.0031,0.0129,-0.0004,-0.87,0.86,-28.61,0,4.138,-0.330,-0.190,-0.041,0.013,-0.013,1.000,0.000,0.000,0.000,0.0070,-2,-6,0.00,0.00,0.00,0.0000,0.0000,0.0000,0.0000,0.0000,0.0000,0.0000,0.00,0.00,0.00,1.4600,0.2190,0.8260,0.3100,2.6980,0
202,-3.2911,2.3447,0.0083,0.0014,0.0058,-0.0044,-0.83,0.81,-28.47,0,4.149,-0.081,0.102,-0.022,0.015,-0.016,1.001,0.000,0.000,0.000,0.0090,0,-15,0.00,0.00,0.00,0.0000,0.0000,0.0000,0.0000,0.0000,0.0000,0.0000,0.00,0.00,0.00,1.4630,0.2160,0.8230,0.3100,2.6980,0
304,-3.2911,2.3452,0.0085,0.0014,0.0070,-0.0020,-0.83,0.71,-28.33,0,4.144,0.043,-0.096,-0.170,0.016,-0.014,1.002,0.000,0.000,0.000,0.0080,4,-5,0.00,0.00,0.00,0.0000,0.0000,0.0000,0.0000,0.0000,0.0000,0.0000,0.00,0.00,0.00,1.4630,0.2160,0.8230,0.3100,2.6980,0
406,-3.2891,2.3446,0.0082,0.0099,0.0027,-0.0024,-0.77,0.73,-28.20,0,4.144,0.120,-0.198,-0.377,0.015,-0.015,0.998,0.000,0.000,0.000,0.0090,-15,1,0.00,0.00,0.00,0.0000,0.0000,0.0000,0.0000,0.0000,0.0000,0.0000,0.00,0.00,0.00,1.4610,0.2180,0.8230,0.3180,2.6940,0
506,-3.2875,2.3451,0.0085,0.0163,0.0041,0.0000,-0.91,0.80,-28.07,0,4.144,0.134,-0.255,-0.176,0.016,-0.014,1.000,0.000,0.000,0.000,0.0110,0,1,0.00,0.00,0.00,0.0000,0.0000,0.0000,0.0000,0.0000,0.0000,0.0000,0.00,0.00,0.00,1.4610,0.2180,0.8230,0.3180,2.6940,0
608,-3.2832,2.3397,0.0099,0.0352,-0.0255,0.0072,-0.68,0.56,-27.94,0,4.149,-0.026,-0.363,-0.305,0.018,-0.012,1.001,0.000,0.000,0.000,0.0080,0,-2,0.00,0.00,0.00,0.0000,0.0000,0.0000,0.0000,0.0000,0.0000,0.0000,0.00,0.00,0.00,1.4610,0.2090,0.8240,0.3120,2.6890,0
710,-3.2794,2.3352,0.0092,0.0475,-0.0430,0.0023,-0.65,0.41,-27.82,0,4.138,0.159,-0.049,-0.045,0.015,-0.016,1.000,0.000,0.000,0.000,0.0060,3,3,0.00,0.00,0.00,0.0000,0.0000,0.0000,0.0000,0.0000,0.0000,0.0000,0.00,0.00,0.00,1.4610,0.2090,0.8240,0.3120,2.6890,0
810,-3.2804,2.3356,0.0080,0.0331,-0.0332,-0.0030,-0.68,0.58,-27.68,0,4.144,0.187,-0.191,0.046,0.017,-0.015,1.001,0.000,0.000,0.000,0.0070,-1,1,0.00,0.00,0.00,0.0000,0.0000,0.0000,0.0000,0.0000,0.0000,0.0000,0.00,0.00,0.00,1.4540,0.2150,0.8230,0.3120,2.7020,0
912,-3.2794,2.3351,0.0075,0.0316,-0.0301,-0.0042,-0.71,0.67,-27.55,0,4.144,0.141,-0.040,-0.440,0.017,-0.014,1.001,0.000,0.000,0.000,0.0100,3,-1,0.00,0.00,0.00,0.0000,0.0000,0.0000,0.0000,0.0000,0.0000,0.0000,0.00,0.00,0.00,1.4540,0.2150,0.8230,0.3120,2.7020,0
1013,-3.2769,2.3426,0.0086,0.0380,0.0129,0.0020,-0.96,0.79,-27.43,0,4.144,0.068,0.138,-0.101,0.015,-0.014,1.001,0.000,0.000,0.000,0.0100,2,-2,0.00,0.00,0.00,0.0000,0.0000,0.0000,0.0000,0.0000,0.0000,0.0000,0.00,0.00,0.00,1.4630,0.2150,0.8240,0.3080,2.7010,0
1115,-3.2774,2.3426,0.0095,0.0274,0.0106,0.0066,-0.88,0.81,-27.30,0,4.144,-0.008,-0.149,-0.255,0.017,-0.014,0.998,0.000,0.000,0.000,0.0090,1,-1,0.00,0.00,0.00,0.0000,0.0000,0.0000,0.0000,0.0000,0.0000,0.0000,0.00,0.00,0.00,1.4630,0.2150,0.8240,0.3080,2.7010,0
1216,-3.2771,2.3428,0.0095,0.0232,0.0105,0.0056,-0.88,0.88,-27.18,0,4.144,0.036,-0.135,-0.266,0.015,-0.015,1.000,0.000,0.000,0.000,0.0100,0,-5,0.00,0.00,0.00,0.0000,0.0000,0.0000,0.0000,0.0000,0.0000,0.0000,0.00,0.00,0.00,1.4610,0.2150,0.8240,0.3090,2.6960,0
1318,-3.2780,2.3430,0.0100,0.0132,0.0100,0.0070,-0.87,0.87,-27.05,0,4.144,0.039,-0.054,0.018,0.014,-0.013,1.001,0.000,0.000,0.000,0.0080,0,0,0.00,0.00,0.00,0.0000,0.0000,0.0000,0.0000,0.0000,0.0000,0.0000,0.00,0.00,0.00,1.4610,0.2150,0.8240,0.3090,2.6960,0
1418,-3.2774,2.3421,0.0094,0.0114,0.0029,0.0028,-0.84,0.91,-26.92,0,4.149,-0.150,0.123,-0.067,0.015,-0.014,1.002,0.000,0.000,0.000,0.0100,-5,1,0.00,0.00,0.00,0.0000,0.0000,0.0000,0.0000,0.0000,0.0000,0.0000,0.00,0.00,0.00,1.4570,0.2080,0.8200,0.3100,2.6940,0
1519,-3.2775,2.3432,0.0098,0.0084,0.0077,0.0048,-0.88,0.94,-26.80,0,4.144,-0.018,-0.342,-0.242,0.017,-0.012,1.001,0.000,0.000,0.000,0.0090,2,-1,0.00,0.00,0.00,0.0000,0.0000,0.0000,0.0000,0.0000,0.0000,0.0000,0.00,0.00,0.00,1.4570,0.2080,0.8200,0.3100,2.6940,0
1571,-3.2773,2.3436,0.0097,0.0062,0.0080,0.0040,-0.81,0.94,-26.66,0,4.144,0.112,0.019,-0.214,0.013,-0.016,1.000,0.000,0.000,0.000,0.0090,-1,1,0.00,0.00,0.00,0.0000,0.0000,0.0000,0.0000,0.0000,0.0000,0.0000,0.00,0.00,0.00,1.4560,0.2210,0.8280,0.3110,2.6910,0
1621,-3.2772,2.3422,0.0095,0.0050,-0.0008,0.0025,-0.84,0.94,-26.54,0,4.144,0.019,-0.322,-0.139,0.018,-0.015,1.000,0.000,0.000,0.000,0.0110,-24,2,0.00,0.00,0.00,0.0000,0.0000,0.0000,0.0000,0.0000,0.0000,0.0000,0.00,0.00,0.00,1.4560,0.2210,0.8280,0.3110,2.6910,0
1673,-3.2747,2.3415,0.0104,0.0145,-0.0045,0.0069,-1.01,0.81,-26.41,0,4.144,0.016,-0.085,0.013,0.017,-0.014,1.002,0.000,0.000,0.000,0.0100,6,-6,0.00,0.00,0.00,0.0000,0.0000,0.0000,0.0000,0.0000,0.0000,0.0000,0.00,0.00,0.00,1.4600,0.2130,0.8240,0.3100,2.6930,0
1723,-3.2710,2.3466,0.0106,0.0281,0.0191,0.0061,-0.90,0.79,-26.29,0,4.138,0.087,-0.227,-0.458,0.014,-0.014,0.997,0.000,0.000,0.000,0.0080,0,0,0.00,0.00,0.00,0.0000,0.0000,0.0000,0.0000,0.0000,0.0000,0.0000,0.00,0.00,0.00,1.4600,0.2130,0.8240,0.3100,2.6930,0
1774,-3.2709,2.3469,0.0096,0.0218,0.0177,0.0004,-0.94,0.87,-26.17,0,4.149,0.062,-0.483,-0.219,0.014,-0.016,1.000,0.000,0.000,0.000,0.0080,-3,-3,0.00,0.00,0.00,0.0000,0.0000,0.0000,0.0000,0.0000,0.0000,0.0000,0.00,0.00,0.00,1.4570,0.2130,0.8210,0.3120,2.6910,0
1826,-3.2708,2.3472,0.0090,0.0173,0.0159,-0.0023,-0.91,0.87,-26.08,0,4.138,0.041,0.146,-0.059,0.014,-0.014,1.002,0.000,0.000,0.000,0.0100,0,0,0.00,0.00,0.00,0.0000,0.0000,0.0000,0.0000,0.0000,0.0000,0.0000,0.00,0.00,0.00,1.4570,0.2130,0.8210,0.3120,2.6910,0
1878,-3.2713,2.3476,0.0094,0.0098,0.0143,0.0010,-0.82,0.90,-25.96,0,4.144,-0.156,0.209,0.027,0.016,-0.012,1.002,0.000,0.000,0.000,0.0090,-6,-2,0.00,0.00,0.00,0.0000,0.0000,0.0000,0.0000,0.0000,0.0000,0.0000,0.00,0.00,0.00,1.4570,0.2070,0.8240,0.3110,2.6940,0
1929,-3.2704,2.3472,0.0093,0.0110,0.0099,0.0005,-0.83,0.92,-25.84,0,4.144,0.052,-0.239,-0.278,0.013,-0.015,1.000,0.000,0.000,0.000,0.0090,0,3,0.00,0.00,0.00,0.0000,0.0000,0.0000,0.0000,0.0000,0.0000,0.0000,0.00,0.00,0.00,1.4570,0.2070,0.8240,0.3110,2.6940,0
1979,-3.2704,2.3474,0.0092,0.0080,0.0084,0.0009,-0.76,0.95,-25.72,0,4.144,0.073,0.046,-0.365,0.016,-0.015,0.999,0.000,0.000,0.000,0.0100,-6,-10,0.00,0.00,0.00,0.0000,0.0000,0.0000,0.0000,0.0000,0.0000,0.0000,0.00,0.00,0.00,1.4570,0.2170,0.8230,0.3110,2.6930,0
2031,-3.2746,2.3491,0.0097,-0.0145,0.0146,0.0032,-0.89,1.23,-25.59,0,4.138,-0.153,0.074,0.296,0.016,-0.012,1.001,0.000,0.000,0.000,0.0070,0,0,0.00,0.00,0.00,0.0000,0.0000,0.0000,0.0000,0.0000,0.0000,0.0000,0.00,0.00,0.00,1.4570,0.2170,0.8230,0.3110,2.6930,0
2083,-3.2792,2.3537,0.0085,-0.0335,0.0322,-0.0022,-0.81,1.27,-25.48,0,4.149,-0.136,-0.008,0.020,0.016,-0.016,1.002,0.000,0.000,0.000,0.0090,-4,-2,0.00,0.00,0.00,0.0000,0.0000,0.0000,0.0000,0.0000,0.0000,0.0000,0.00,0.00,0.00,1.4590,0.2190,0.8230,0.3160,2.6940,0
2134,-3.2804,2.3535,0.0088,-0.0336,0.0233,0.0001,-0.81,1.15,-25.34,0,4.138,0.247,-0.260,-0.166,0.015,-0.016,1.001,0.000,0.000,0.000,0.0080,0,2,0.00,0.00,0.00,0.0000,0.0000,0.0000,0.0000,0.0000,0.0000,0.0000,0.00,0.00,0.00,1.4590,0.2190,0.8230,0.3160,2.6940,0
2185,-3.2795,2.3543,0.0085,-0.0238,0.0213,-0.0009,-0.77,1.09,-25.25,0,4.144,0.082,-0.038,-0.165,0.015,-0.016,1.000,0.000,0.000,0.000,0.0070,0,1,0.00,0.00,0.00,0.0000,0.0000,0.0000,0.0000,0.0000,0.0000,0.0000,0.00,0.00,0.00,1.4600,0.2140,0.8260,0.3120,2.6950,0
2237,-3.2785,2.3528,0.0079,-0.0157,0.0083,-0.0028,-0.67,0.98,-25.14,0,4.144,-0.085,0.074,-0.286,0.016,-0.016,1.002,0.000,0.000,0.000,0.0100,-5,3,0.00,0.00,0.00,0.0000,0.0000,0.0000,0.0000,0.0000,0.0000,0.0000,0.00,0.00,0.00,1.4600,0.2140,0.8260,0.3120,2.6950,0
2287,-3.2784,2.3525,0.0090,-0.0127,0.0036,0.0034,-0.72,0.97,-25.02,0,4.144,-0.056,0.102,0.092,0.016,-0.016,1.000,0.000,0.000,0.000,0.0060,2,-4,0.00,0.00,0.00,0.0000,0.0000,0.0000,0.0000,0.0000,0.0000,0.0000,0.00,0.00,0.00,1.4660,0.2140,0.8260,0.3080,2.6940,0
2338,-3.2785,2.3527,0.0077,-0.0114,0.0031,-0.0028,-0.65,0.88,-24.91,0,4.144,0.386,0.023,-0.253,0.015,-0.014,1.000,0.000,0.000,0.000,0.0070,4,-1,0.00,0.00,0.00,0.0000,0.0000,0.0000,0.0000,0.0000,0.0000,0.0000,0.00,0.00,0.00,1.4660,0.2140,0.8260,0.3080,2.6940,0
2389,-3.2782,2.3526,0.0073,-0.0085,0.0016,-0.0038,-0.71,0.89,-24.79,0,4.149,0.058,0.062,-0.101,0.016,-0.018,1.001,0.000,0.000,0.000,0.0080,-7,0,0.00,0.00,0.00,0.0000,0.0000,0.0000,0.0000,0.0000,0.0000,0.0000,0.00,0.00,0.00,1.4650,0.2180,0.8240,0.3120,2.6930,0
2441,-3.2785,2.3527,0.0075,-0.0084,0.0007,-0.0018,-0.75,0.90,-24.67,0,4.138,-0.171,-0.040,0.259,0.015,-0.014,0.999,0.000,0.000,0.000,0.0060,3,0,0.00,0.00,0.00,0.0000,0.0000,0.0000,0.0000,0.0000,0.0000,0.0000,0.00,0.00,0.00,1.4650,0.2180,0.8240,0.3120,2.6930,0
2492,-3.2785,2.3517,0.0067,-0.0070,-0.0053,-0.0037,-0.69,0.88,-24.56,0,4.144,-0.152,-0.354,-0.296,0.015,-0.015,1.001,0.000,0.000,0.000,0.0050,-2,3,0.00,0.00,0.00,0.0000,0.0000,0.0000,0.0000,0.0000,0.0000,0.0000,0.00,0.00,0.00,1.4660,0.2180,0.8250,0.3130,2.6970,0
2542,-3.2783,2.3526,0.0058,-0.0050,-0.0010,-0.0065,-0.72,0.91,-24.44,0,4.144,0.186,0.091,-0.317,0.014,-0.015,0.999,0.000,0.000,0.000,0.0090,0,-1,0.00,0.00,0.00,0.0000,0.0000,0.0000,0.0000,0.0000,0.0000,0.0000,0.00,0.00,0.00,1.4660,0.2180,0.8250,0.3130,2.6970,0
2594,-3.2731,2.3469,0.0072,0.0210,-0.0291,0.0019,-0.65,0.64,-24.33,0,4.144,-0.158,-0.247,-0.199,0.017,-0.017,0.999,0.000,0.000,0.000,0.0120,4,5,0.00,0.00,0.00,0.0000,0.0000,0.0000,0.0000,0.0000,0.0000,0.0000,0.00,0.00,0.00,1.4570,0.2130,0.8230,0.3140,2.6920,0
2646,-3.2729,2.3471,0.0097,0.0174,-0.0242,0.0133,-0.65,0.72,-24.21,0,4.138,0.199,-0.156,-0.226,0.016,-0.015,1.003,0.000,0.000,0.000,0.0090,-2,-3,0.00,0.00,0.00,0.0000,0.0000,0.0000,0.0000,0.0000,0.0000,0.0000,0.00,0.00,0.00,1.4570,0.2130,0.8230,0.3140,2.6920,0
2697,-3.2737,2.3475,0.0100,0.0099,-0.0185,0.0121,-0.70,0.73,-24.10,0,4.144,-0.086,-0.516,-0.105,0.016,-0.017,0.998,0.000,0.000,0.000,0.0090,6,-4,0.00,0.00,0.00,0.0000,0.0000,0.0000,0.0000,0.0000,0.0000,0.0000,0.00,0.00,0.00,1.4660,0.2130,0.8210,0.3120,2.6890,0
2748,-3.2731,2.3475,0.0101,0.0103,-0.0155,0.0101,-0.68,0.75,-23.99,0,4.138,0.116,-0.037,0.208,0.015,-0.015,1.000,0.000,0.000,0.000,0.0090,-4,4,0.00,0.00,0.00,0.0000,0.0000,0.0000,0.0000,0.0000,0.0000,0.0000,0.00,0.00,0.00,1.4660,0.2130,0.8210,0.3120,2.6890,0
2799,-3.2730,2.3472,0.0100,0.0079,-0.0133,0.0074,-0.79,0.83,-23.88,0,4.144,0.063,-0.082,-0.316,0.017,-0.015,1.003,0.000,0.000,0.000,0.0060,3,5,0.00,0.00,0.00,0.0000,0.0000,0.0000,0.0000,0.0000,0.0000,0.0000,0.00,0.00,0.00,1.4640,0.2130,0.8210,0.3110,2.6960,0
2850,-3.2739,2.3474,0.0084,0.0011,-0.0101,-0.0008,-0.72,0.89,-23.77,0,4.144,0.000,-0.472,-0.301,0.014,-0.012,0.999,0.000,0.000,0.000,0.0080,4,5,0.00,0.00,0.00,0.0000,0.0000,0.0000,0.0000,0.0000,0.0000,0.0000,0.00,0.00,0.00,1.4640,0.2130,0.8210,0.3110,2.6960,0
2901,-3.2742,2.3473,0.0083,-0.0012,-0.0076,-0.0006,-0.75,0.88,-23.66,0,4.144,0.047,-0.127,0.049,0.015,-0.016,1.001,0.000,0.000,0.000,0.0090,0,-15,0.00,0.00,0.00,0.0000,0.0000,0.0000,0.0000,0.0000,0.0000,0.0000,0.00,0.00,0.00,1.4580,0.2150,0.8260,0.3160,2.6980,0
2953,-3.2731,2.3470,0.0087,0.0032,-0.0069,0.0013,-0.76,0.73,-23.55,0,4.144,-0.062,-0.210,-0.191,0.014,-0.015,1.003,0.000,0.000,0.000,0.0090,19,-9,0.00,0.00,0.00,0.0000,0.0000,0.0000,0.0000,0.0000,0.0000,0.0000,0.00,0.00,0.00,1.4580,0.2150,0.8260,0.3160,2.6980,0
3005,-3.2709,2.3446,0.0089,0.0119,-0.0180,0.0032,-0.58,0.73,-23.44,0,4.144,0.060,0.071,-0.098,0.016,-0.014,0.999,0.000,0.000,0.000,0.0070,0,-3,0.00,0.00,0.00,0.0000,0.0000,0.0000,0.0000,0.0000,0.0000,0.0000,0.00,0.00,0.00,1.4580,0.2120,0.8220,0.3110,2.6930,0
3055,-3.2715,2.3407,0.0082,0.0066,-0.0332,0.0003,-0.67,0.77,-23.33,0,4.138,0.016,-0.126,-0.527,0.015,-0.014,1.002,0.000,0.000,0.000,0.0080,8,-4,0.00,0.00,0.00,0.0000,0.0000,0.0000,0.0000,0.0000,0.0000,0.0000,0.00,0.00,0.00,1.4580,0.2120,0.8220,0.3110,2.6930,0
3107,-3.2722,2.3408,0.0082,0.0008,-0.0260,0.0005,-0.63,0.84,-23.22,0,4.144,-0.003,-0.053,-0.281,0.015,-0.015,1.003,0.000,0.000,0.000,0.0100,-10,0,0.00,0.00,0.00,0.0000,0.0000,0.0000,0.0000,0.0000,0.0000,0.0000,0.00,0.00,0.00,1.4520,0.2120,0.8260,0.3120,2.6950,0
3158,-3.2724,2.3397,0.0092,-0.0017,-0.0271,0.0051,-0.84,0.89,-23.12,0,4.144,0.045,-0.198,-0.033,0.013,-0.016,1.003,0.000,0.000,0.000,0.0080,6,-1,0.00,0.00,0.00,0.0000,0.0000,0.0000,0.0000,0.0000,0.0000,0.0000,0.00,0.00,0.00,1.4520,0.2120,0.8260,0.3120,2.6950,0
3210,-3.2693,2.3483,0.0088,0.0135,0.0200,0.0029,-0.95,0.97,-23.01,0,4.144,0.090,-0.132,-0.552,0.016,-0.012,1.001,0.000,0.000,0.000,0.0100,-9,-3,0.00,0.00,0.00,0.0000,0.0000,0.0000,0.0000,0.0000,0.0000,0.0000,0.00,0.00,0.00,1.4640,0.2140,0.8250,0.3130,2.6970,0
3261,-3.2715,2.3469,0.0097,0.0001,0.0105,0.0075,-1.02,0.91,-22.90,0,4.144,-0.169,-0.198,-0.335,0.017,-0.016,1.001,0.000,0.000,0.000,0.0120,-3,5,0.00,0.00,0.00,0.0000,0.0000,0.0000,0.0000,0.0000,0.0000,0.0000,0.00,0.00,0.00,1.4640,0.2140,0.8250,0.3130,2.6970,0
3312,-3.2703,2.3467,0.0113,0.0059,0.0063,0.0133,-0.93,0.93,-22.80,0,4.144,0.209,-0.118,-0.211,0.017,-0.016,1.001,0.000,0.000,0.000,0.0100,5,5,0.00,0.00,0.00,0.0000,0.0000,0.0000,0.0000,0.0000,0.0000,0.0000,0.00,0.00,0.00,1.4560,0.2110,0.8230,0.3100,2.6920,0
3363,-3.2742,2.3447,0.0114,-0.0162,-0.0043,0.0117,-0.73,1.08,-22.69,0,4.138,-0.206,-0.013,-0.098,0.016,-0.014,1.001,0.000,0.000,0.000,0.0110,2,0,0.00,0.00,0.00,0.0000,0.0000,0.0000,0.0000,0.0000,0.0000,0.0000,0.00,0.00,0.00,1.4560,0.2110,0.8230,0.3100,2.6920,0
3415,-3.2741,2.3451,0.0117,-0.0122,-0.0015,0.0110,-0.77,1.01,-22.59,0,4.144,-0.004,-0.302,-0.018,0.016,-0.013,1.003,0.000,0.000,0.000,0.0070,0,-2,0.00,0.00,0.00,0.0000,0.0000,0.0000,0.0000,0.0000,0.0000,0.0000,0.00,0.00,0.00,1.4640,0.2120,0.8260,0.3170,2.6930,0
3467,-3.2748,2.3441,0.0100,-0.0138,-0.0060,0.0019,-0.82,0.98,-22.48,0,4.144,0.141,0.089,-0.326,0.014,-0.015,1.001,0.000,0.000,0.000,0.0100,-4,0,0.00,0.00,0.00,0.0000,0.0000,0.0000,0.0000,0.0000,0.0000,0.0000,0.00,0.00,0.00,1.4640,0.2120,0.8260,0.3170,2.6930,0
3518,-3.2745,2.3441,0.0101,-0.0102,-0.0046,0.0026,-0.82,0.98,-22.38,0,4.144,-0.109,-0.020,-0.147,0.015,-0.016,0.999,0.000,0.000,0.000,0.0090,-7,2,0.00,0.00,0.00,0.0000,0.0000,0.0000,0.0000,0.0000,0.0000,0.0000,0.00,0.00,0.00,1.4670,0.2210,0.8200,0.3100,2.6900,0
3569,-3.2743,2.3443,0.0097,-0.0077,-0.0024,0.0006,-0.83,0.99,-22.27,0,4.138,-0.127,-0.271,-0.176,0.016,-0.011,1.003,0.000,0.000,0.000,0.0100,-3,-5,0.00,0.00,0.00,0.0000,0.0000,0.0000,0.0000,0.0000,0.0000,0.0000,0.00,0.00,0.00,1.4670,0.2210,0.8200,0.3100,2.6900,0
3620,-3.2753,2.3438,0.0099,-0.0116,-0.0053,0.0014,-0.82,0.91,-22.18,0,4.144,0.114,-0.160,-0.031,0.015,-0.014,1.000,0.000,0.000,0.000,0.0100,-2,5,0.00,0.00,0.00,0.0000,0.0000,0.0000,0.0000,0.0000,0.0000,0.0000,0.00,0.00,0.00,1.4610,0.2100,0.8210,0.3100,2.7010,0
3671,-3.2746,2.3444,0.0101,-0.0060,-0.0010,0.0024,-0.83,0.99,-22.08,0,4.144,-0.185,-0.204,0.095,0.015,-0.015,0.999,0.000,0.000,0.000,0.0100,0,1,0.00,0.00,0.00,0.0000,0.0000,0.0000,0.0000,0.0000,0.0000,0.0000,0.00,0.00,0.00,1.4610,0.2100,0.8210,0.3100,2.7010,0
3722,-3.2745,2.3453,0.0102,-0.0053,0.0038,0.0030,-0.80,0.93,-21.97,0,4.144,-0.267,-0.177,0.275,0.015,-0.013,1.000,0.000,0.000,0.000,0.0080,15,-13,0.00,0.00,0.00,0.0000,0.0000,0.0000,0.0000,0.0000,0.0000,0.0000,0.00,0.00,0.00,1.4580,0.2150,0.8230,0.3120,2.6970,0
3773,-3.2744,2.3443,0.0093,-0.0041,-0.0011,-0.0016,-0.66,0.79,-21.87,0,4.144,0.017,-0.153,-0.071,0.016,-0.015,1.000,0.000,0.000,0.000,0.0100,5,0,0.00,0.00,0.00,0.0000,0.0000,0.0000,0.0000,0.0000,0.0000,0.0000,0.00,0.00,0.00,1.4580,0.2150,0.8230,0.3120,2.6970,0
3825,-3.2744,2.3443,0.0098,-0.0043,0.0012,0.0016,-0.79,0.93,-21.77,0,4.144,-0.139,-0.366,-0.315,0.016,-0.015,1.000,0.000,0.000,0.000,0.0100,-4,2,0.00,0.00,0.00,0.0000,0.0000,0.0000,0.0000,0.0000,0.0000,0.0000,0.00,0.00,0.00,1.4620,0.2160,0.8210,0.3130,2.6960,0
3875,0.0000,-0.0001,-0.0000,0.0010,-0.0078,-0.0000,-0.02,0.02,-0.00,0,4.144,-0.057,-0.292,-0.196,0.017,-0.015,1.004,0.000,0.000,0.000,0.0100,0,0,0.00,0.00,0.00,0.0000,0.0000,0.0000,0.0000,0.0000,0.0000,0.0000,0.00,0.00,0.00,1.4620,0.2160,0.8210,0.3130,2.6960,0
3927,0.0002,-0.0001,0.0100,0.0082,-0.0042,0.0001,-0.06,-0.03,-0.01,0,4.144,0.032,0.078,-0.008,0.017,-0.014,1.003,0.000,0.000,0.000,0.0110,12,-4,0.00,0.00,0.00,0.0000,0.0000,0.0000,0.0000,0.0000,0.0000,0.0000,0.00,0.00,0.00,1.4620,0.2170,0.8210,0.3110,2.6930,0
3977,-0.0021,0.0002,0.0106,-0.0256,-0.0014,0.0012,-0.04,0.66,-0.02,0,4.144,-0.389,-0.192,0.122,0.015,-0.017,0.999,0.000,0.000,0.000,0.0090,4,-4,0.00,0.00,0.00,0.0000,0.0000,0.0000,0.0000,0.0000,0.0000,0.0000,0.00,0.00,0.00,1.4620,0.2170,0.8210,0.3110,2.6930,0
4028,-0.0016,-0.0008,0.0101,-0.0058,-0.0139,0.0001,-0.35,0.56,-0.02,0,4.144,-0.077,0.056,-0.296,0.017,-0.016,1.001,0.000,0.000,0.000,0.0070,-6,-5,0.00,0.00,0.00,0.0000,0.0000,0.0000,0.0000,0.0000,0.0000,0.0000,0.00,0.00,0.00,1.4600,0.2190,0.8240,0.3140,2.6930,0
4080,-0.0019,0.0006,0.0089,-0.0038,0.0011,-0.0051,-0.66,0.30,-0.03,0,4.144,-0.034,0.124,-0.014,0.017,-0.015,1.001,0.000,0.000,0.000,0.0090,-5,7,0.00,0.00,0.00,0.0000,0.0000,0.0000,0.0000,0.0000,0.0000,0.0000,0.00,0.00,0.00,1.4600,0.2190,0.8240,0.3140,2.6930,0
4131,-0.0016,0.0007,0.0089,0.0033,0.0013,-0.0037,-0.38,0.63,-0.04,0,4.144,-0.003,-0.241,-0.166,0.016,-0.014,1.001,0.000,0.000,0.000,0.0070,-8,-4,0.00,0.00,0.00,0.0000,0.0000,0.0000,0.0000,0.0000,0.0000,0.0000,0.00,0.00,0.00,1.4640,0.2160,0.8230,0.3110,2.6990,0
4182,-0.0031,0.0010,0.0080,-0.0072,0.0033,-0.0072,-0.56,0.48,-0.04,0,4.138,-0.007,-0.326,-0.204,0.014,-0.014,1.003,0.000,0.000,0.000,0.0100,1,-1,0.00,0.00,0.00,0.0000,0.0000,0.0000,0.0000,0.0000,0.0000,0.0000,0.00,0.00,0.00,1.4640,0.2160,0.8230,0.3110,2.6990,0
4233,-0.0029,0.0011,0.0089,-0.0030,0.0043,-0.0002,-1.19,0.54,-0.04,0,4.144,0.027,-0.181,-0.078,0.015,-0.015,1.000,0.000,0.000,0.000,0.0070,-5,4,0.00,0.00,0.00,0.0000,0.0000,0.0000,0.0000,0.0000,0.0000,0.0000,0.00,0.00,0.00,1.4590,0.2150,0.8220,0.3150,2.6920,0
4285,-0.0018,0.0045,0.0080,0.0066,0.0248,-0.0041,-1.23,0.68,-0.05,0,4.138,0.138,-0.117,-0.364,0.016,-0.014,0.999,0.000,0.000,0.000,0.0070,1,-1,0.00,0.00,0.00,0.0000,0.0000,0.0000,0.0000,0.0000,0.0000,0.0000,0.00,0.00,0.00,1.4590,0.2150,0.8220,0.3150,2.6920,0
4336,-0.0020,0.0054,0.0074,0.0060,0.0237,-0.0051,-0.95,0.59,-0.06,0,4.144,0.018,-0.181,-0.186,0.016,-0.014,0.999,0.000,0.000,0.000,0.0110,-1,0,0.00,0.00,0.00,0.0000,0.0000,0.0000,0.0000,0.0000,0.0000,0.0000,0.00,0.00,0.00,1.4580,0.2120,0.8240,0.3080,2.7000,0
4387,-0.0019,0.0043,0.0089,0.0073,0.0115,0.0027,-0.86,0.65,-0.07,0,4.144,-0.001,0.014,0.059,0.015,-0.016,1.003,0.000,0.000,0.000,0.0040,4,-3,0.00,0.00,0.00,0.0000,0.0000,0.0000,0.0000,0.0000,0.0000,0.0000,0.00,0.00,0.00,1.4580,0.2120,0.8240,0.3080,2.7000,0
4438,-0.0024,0.0034,0.0068,0.0037,0.0029,-0.0074,-0.83,0.65,-0.08,0,4.144,-0.215,0.046,0.228,0.018,-0.014,0.999,0.000,0.000,0.000,0.0070,1,3,0.00,0.00,0.00,0.0000,0.0000,0.0000,0.0000,0.0000,0.0000,0.0000,0.00,0.00,0.00,1.4600,0.2130,0.8220,0.3110,2.6970,0
4490,-0.0020,0.0043,0.0066,0.0060,0.0056,-0.0057,-0.79,0.75,-0.08,0,4.144,-0.071,-0.109,0.262,0.013,-0.016,1.002,0.000,0.000,0.000,0.0060,3,1,0.00,0.00,0.00,0.0000,0.0000,0.0000,0.0000,0.0000,0.0000,0.0000,0.00,0.00,0.00,1.4600,0.2130,0.8220,0.3110,2.6970,0
4540,-0.0021,0.0040,0.0061,0.0051,0.0029,-0.0066,-0.73,0.74,-0.09,0,4.144,-0.106,-0.095,-0.191,0.017,-0.015,1.001,0.000,0.000,0.000,0.0060,1,3,0.00,0.00,0.00,0.0000,0.0000,0.0000,0.0000,0.0000,0.0000,0.0000,0.00,0.00,0.00,1.4610,0.2170,0.8220,0.3140,2.6900,0
4591,-0.0023,0.0045,0.0058,0.0027,0.0046,-0.0057,-0.72,0.80,-0.10,0,4.138,0.292,-0.131,-0.105,0.017,-0.014,1.002,0.000,0.000,0.000,0.0080,4,-1,0.00,0.00,0.00,0.0000,0.0000,0.0000,0.0000,0.0000,0.0000,0.0000,0.00,0.00,0.00,1.4610,0.2170,0.8220,0.3140,2.6900,0
4643,-0.0022,0.0052,0.0067,0.0047,0.0075,-0.0000,-0.77,0.76,-0.10,0,4.144,-0.040,0.266,-0.381,0.017,-0.014,1.000,0.000,0.000,0.000,0.0110,0,-4,0.00,0.00,0.00,0.0000,0.0000,0.0000,0.0000,0.0000,0.0000,0.0000,0.00,0.00,0.00,1.4610,0.2200,0.8240,0.3120,2.6930,0
4693,-0.0021,0.0041,0.0088,0.0046,0.0005,0.0096,-0.75,0.73,-0.11,0,4.144,0.233,-0.025,-0.282,0.017,-0.014,1.000,0.000,0.000,0.000,0.0120,-1,1,0.00,0.00,0.00,0.0000,0.0000,0.0000,0.0000,0.0000,0.0000,0.0000,0.00,0.00,0.00,1.4610,0.2200,0.8240,0.3120,2.6930,0
4744,-0.0014,0.0041,0.0107,0.0081,-0.0004,0.0161,-0.73,0.82,-0.12,0,4.144,-0.099,-0.065,0.050,0.017,-0.017,1.000,0.000,0.000,0.000,0.0090,4,-1,0.00,0.00,0.00,0.0000,0.0000,0.0000,0.0000,0.0000,0.0000,0.0000,0.00,0.00,0.00,1.4580,0.2110,0.8240,0.3120,2.6900,0
4796,-0.0020,0.0034,0.0106,0.0044,-0.0043,0.0119,-0.71,0.80,-0.12,0,4.138,-0.045,0.002,-0.077,0.016,-0.014,1.000,0.000,0.000,0.000,0.0080,-1,0,0.00,0.00,0.00,0.0000,0.0000,0.0000,0.0000,0.0000,0.0000,0.0000,0.00,0.00,0.00,1.4580,0.2110,0.8240,0.3120,2.6900,0
4847,-0.0030,0.0034,0.0099,-0.0008,-0.0048,0.0060,-0.77,0.85,-0.12,0,4.144,0.155,-0.102,-0.165,0.015,-0.015,1.001,0.000,0.000,0.000,0.0100,-7,4,0.00,0.00,0.00,0.0000,0.0000,0.0000,0.0000,0.0000,0.0000,0.0000,0.00,0.00,0.00,1.4630,0.2140,0.8260,0.3140,2.7010,0
4897,-0.0016,0.0042,0.0102,0.0068,-0.0003,0.0066,-0.80,0.85,-0.13,0,4.144,0.163,-0.139,-0.290,0.016,-0.014,1.001,0.000,0.000,0.000,0.0100,0,-3,0.00,0.00,0.00,0.0000,0.0000,0.0000,0.0000,0.0000,0.0000,0.0000,0.00,0.00,0.00,1.4630,0.2140,0.8260,0.3140,2.7010,0
4949,-0.0016,0.0040,0.0105,0.0056,-0.0021,0.0067,-0.77,0.83,-0.14,0,4.144,-0.163,-0.052,0.081,0.017,-0.015,1.000,0.000,0.000,0.000,0.0070,1,5,0.00,0.00,0.00,0.0000,0.0000,0.0000,0.0000,0.0000,0.0000,0.0000,0.00,0.00,0.00,1.4550,0.2180,0.8250,0.3140,2.6900,0
5000,-0.0018,0.0023,0.0091,0.0045,-0.0104,-0.0005,-0.68,0.89,-0.15,0,4.138,-0.020,0.211,-0.083,0.017,-0.016,1.001,0.000,0.000,0.000,0.0100,0,0,0.00,0.00,0.00,0.0000,0.0000,0.0000,0.0000,0.0000,0.0000,0.0000,0.00,0.00,0.00,1.4550,0.2180,0.8250,0.3140,2.6900,0
5051,-0.0014,0.0017,0.0096,0.0069,-0.0118,0.0022,-0.71,0.88,-0.16,0,4.144,0.024,-0.153,-0.233,0.020,-0.013,1.002,0.000,0.000,0.000,0.0070,-7,-1,0.00,0.00,0.00,0.0000,0.0000,0.0000,0.0000,0.0000,0.0000,0.0000,0.00,0.00,0.00,1.4650,0.2120,0.8300,0.3090,2.6970,0
5102,-0.0018,0.0021,0.0085,0.0046,-0.0081,-0.0030,-0.74,0.89,-0.16,0,3.774,-0.851,-0.934,0.471,0.010,-0.016,0.993,0.000,0.000,0.000,0.0080,-8,-3,0.00,0.00,0.00,0.0000,0.0000,0.0000,0.0000,0.0000,0.0000,0.0000,0.00,0.00,0.00,1.4650,0.2120,0.8300,0.3090,2.6970,0
5154,-0.0030,0.0019,0.0082,-0.0012,-0.0079,-0.0022,-0.75,0.85,-0.16,0,3.869,-0.361,-0.299,0.242,0.009,-0.021,0.996,0.000,0.000,0.000,0.0080,24,-21,0.00,0.00,0.00,0.0000,0.0000,0.0000,0.0000,0.0000,0.0000,0.0000,0.00,0.00,0.00,1.4590,0.2110,0.8220,0.3130,2.6920,0
5206,-0.0041,0.0092,0.0079,-0.0136,0.0357,-0.0031,-0.80,0.78,-0.16,0,3.890,0.271,3.206,-0.008,0.006,-0.009,0.999,0.000,0.000,0.000,0.0080,0,1,0.00,0.00,0.00,0.0000,0.0000,0.0000,0.0000,0.0000,0.0000,0.0000,0.00,0.00,0.00,1.4590,0.2110,0.8220,0.3130,2.6920,0
5257,-0.0007,0.0060,0.0084,-0.0017,0.0192,0.0010,-0.79,0.77,-0.16,0,3.917,0.763,1.962,3.480,0.001,-0.005,1.012,0.000,0.000,0.000,0.0090,8,-6,0.00,0.00,0.00,0.0000,0.0000,0.0000,0.0000,0.0000,0.0000,0.0000,0.00,0.00,0.00,1.4380,0.2060,0.8140,0.3090,2.6930,0
5307,0.0004,0.0001,0.0089,-0.0018,-0.0087,0.0008,-0.43,0.74,-0.00,0,3.911,1.851,1.853,-0.677,-0.001,-0.010,1.034,0.000,0.000,0.000,0.0080,0,-6,0.00,0.00,0.00,0.0000,0.0000,0.0000,0.0000,0.0000,0.0000,0.0000,0.00,0.00,0.00,1.4380,0.2060,0.8140,0.3090,2.6930,0
5359,-0.0004,-0.0013,0.0086,-0.0104,-0.0092,0.0004,-0.40,0.60,0.10,0,3.922,3.049,-0.026,7.035,0.009,-0.010,1.005,0.000,0.000,0.000,0.0100,-26,-4,0.00,0.00,0.00,0.0000,0.0000,0.0000,0.0000,0.0000,0.0000,0.0000,0.00,0.00,0.00,1.4610,0.2110,0.8260,0.2930,2.6990,0
5409,-0.0005,-0.0012,0.0094,-0.0144,-0.0031,0.0066,-0.64,0.51,0.38,0,3.911,4.361,-3.428,3.928,0.008,-0.019,1.035,0.000,0.000,0.000,0.0080,-16,37,0.00,0.00,0.00,0.0000,0.0000,0.0000,0.0000,0.0000,0.0000,0.0000,0.00,0.00,0.00,1.4610,0.2110,0.8260,0.2930,2.6990,0
5460,-0.0048,0.0142,0.0083,-0.0385,0.0746,-0.0003,-1.09,1.11,0.56,0,3.922,0.878,3.753,1.493,0.009,-0.016,1.043,0.000,0.000,0.000,0.0090,-9,-4,0.00,0.00,0.00,0.0000,0.0000,0.0000,0.0000,0.0000,0.0000,0.0000,0.00,0.00,0.00,1.4730,0.2080,0.8280,0.2940,2.6930,0
5512,-0.0191,0.0266,0.0070,-0.1020,0.1232,-0.0049,-1.16,1.28,0.70,0,3.906,-10.080,1.477,3.700,0.010,-0.005,0.995,0.000,0.000,0.000,0.0120,-8,-2,0.00,0.00,0.00,0.0000,0.0000,0.0000,0.0000,0.0000,0.0000,0.0000,0.00,0.00,0.00,1.4730,0.2080,0.8280,0.2940,2.6930,0
5562,-0.0253,0.0366,0.0090,-0.1124,0.1492,0.0005,-1.41,1.05,0.86,0,3.917,-1.513,3.399,10.379,0.011,-0.030,0.989,0.000,0.000,0.000,0.0070,-4,-5,0.00,0.00,0.00,0.0000,0.0000,0.0000,0.0000,0.0000,0.0000,0.0000,0.00,0.00,0.00,1.4750,0.2130,0.8260,0.2810,2.6900,0
5613,-0.0249,0.0424,0.0095,-0.0913,0.1482,0.0083,-1.00,0.70,1.27,0,3.906,1.562,-2.714,-5.202,0.021,-0.033,0.999,0.000,0.000,0.000,0.0100,-8,4,0.00,0.00,0.00,0.0000,0.0000,0.0000,0.0000,0.0000,0.0000,0.0000,0.00,0.00,0.00,1.4750,0.2130,0.8260,0.2810,2.6900,0
5665,-0.0260,0.0524,0.0099,-0.0811,0.1723,0.0092,-1.36,0.64,1.22,0,3.906,-8.478,5.950,10.673,0.003,-0.014,0.987,0.000,0.000,0.000,0.0090,-31,4,0.00,0.00,0.00,0.0000,0.0000,0.0000,0.0000,0.0000,0.0000,0.0000,0.00,0.00,0.00,1.5020,0.2150,0.8270,0.2710,2.6910,0
5717,-0.0302,0.0702,0.0083,-0.0870,0.2256,-0.0067,-1.64,0.60,1.63,0,3.890,10.347,3.377,4.706,-0.008,-0.022,1.059,0.000,0.000,0.000,0.0050,-28,6,0.00,0.00,0.00,0.0000,0.0000,0.0000,0.0000,0.0000,0.0000,0.0000,0.00,0.00,0.00,1.5020,0.2150,0.8270,0.2710,2.6910,0
5769,-0.0349,0.0871,0.0053,-0.0943,0.2644,-0.0125,-1.35,0.44,1.98,0,3.896,43.452,-10.380,5.414,0.011,-0.014,1.056,0.000,0.000,0.000,0.0100,0,2,0.00,0.00,0.00,0.0000,0.0000,0.0000,0.0000,0.0000,0.0000,0.0000,0.00,0.00,0.00,1.5250,0.2190,0.8300,0.2560,2.6970,0
5820,-0.0402,0.0995,0.0081,-0.1015,0.2683,0.0229,0.68,0.46,2.30,0,3.890,45.413,7.914,9.429,0.002,0.009,0.983,0.000,0.000,0.000,0.0140,-9,-4,0.00,0.00,0.00,0.0000,0.0000,0.0000,0.0000,0.0000,0.0000,0.0000,0.00,0.00,0.00,1.5250,0.2190,0.8300,0.2560,2.6970,0
5870,-0.0413,0.1121,0.0131,-0.0848,0.2591,0.0513,3.22,0.19,2.75,0,3.890,27.251,-0.260,10.930,-0.011,-0.005,0.935,0.000,0.000,0.000,0.0020,15,6,0.00,0.00,0.00,0.0000,0.0000,0.0000,0.0000,0.0000,0.0000,0.0000,0.00,0.00,0.00,1.5450,0.2170,0.8790,0.1570,2.6950,0
5921,-0.0418,0.1121,0.0115,-0.0689,0.1749,0.0254,5.25,0.20,3.35,0,3.869,-8.769,6.043,12.888,0.001,0.021,1.000,0.000,0.000,0.000,0.0000,31,-7,0.00,0.00,0.00,0.0000,0.0000,0.0000,0.0000,0.0000,0.0000,0.0000,0.00,0.00,0.00,1.5450,0.2170,0.8790,0.1570,2.6950,0
5979,-0.0454,0.0903,0.0056,-0.0692,-0.0042,-0.0305,5.70,-0.03,3.99,0,3.869,-27.344,-0.158,10.165,0.000,0.021,1.036,0.000,0.000,0.000,0.0000,69,-4,0.00,0.00,0.00,0.0000,0.0000,0.0000,0.0000,0.0000,0.0000,0.0000,0.00,0.00,0.00,1.5770,0.2060,0.8980,0.1560,2.7130,0
6030,-0.0426,0.0498,-0.0078,-0.0397,-0.2398,-0.0966,6.05,-0.13,4.55,0,3.832,-32.981,19.393,2.947,-0.001,0.018,1.039,0.000,0.000,0.000,0.0000,21,-4,0.00,0.00,0.00,0.0000,0.0000,0.0000,0.0000,0.0000,0.0000,0.0000,0.00,0.00,0.00,1.5770,0.2060,0.8980,0.1560,2.7130,0
6081,-0.0374,-0.0071,-0.0274,-0.0022,-0.4909,-0.1556,5.48,-1.04,4.85,0,3.843,-134.988,19.049,4.563,-0.003,-0.003,1.100,0.000,0.000,0.000,0.0010,32,-10,0.00,0.00,0.00,0.0000,0.0000,0.0000,0.0000,0.0000,0.0000,0.0000,0.00,0.00,0.00,1.5400,0.2110,0.8800,0.2260,2.6950,0
6133,-0.0311,-0.0456,-0.0232,0.0400,-0.5891,-0.0657,0.72,-2.18,4.75,0,3.843,-124.423,26.539,3.873,-0.022,-0.020,1.121,0.000,0.000,0.000,0.0000,12,0,0.00,0.00,0.00,0.0000,0.0000,0.0000,0.0000,0.0000,0.0000,0.0000,0.00,0.00,0.00,1.5400,0.2110,0.8800,0.2260,2.6950,0
6184,-0.0237,-0.0877,-0.0197,0.0845,-0.6400,0.0158,-6.02,-3.61,4.94,0,3.864,-58.430,-22.550,1.317,-0.012,-0.007,1.043,0.000,0.000,0.000,0.0000,-4,-15,0.00,0.00,0.00,0.0000,0.0000,0.0000,0.0000,0.0000,0.0000,0.0000,0.00,0.00,0.00,0.0000,0.0000,0.0000,1.2510,2.7240,0
6235,-0.0187,-0.1115,-0.0031,0.1114,-0.5258,0.1275,-10.36,-3.34,4.86,0,3.864,23.421,-34.836,-5.822,-0.004,-0.013,0.992,0.000,0.000,0.000,0.0000,-5,-5,0.00,0.00,0.00,0.0000,0.0000,0.0000,0.0000,0.0000,0.0000,0.0000,0.00,0.00,0.00,0.0000,0.0000,0.0000,1.2510,2.7240,0
6287,-0.0126,-0.1053,0.0099,0.1262,-0.2787,0.1658,-11.66,-1.56,4.63,0,3.864,64.569,-27.249,-17.411,-0.005,-0.025,0.962,0.000,0.000,0.000,0.0060,-25,4,0.00,0.00,0.00,0.0000,0.0000,0.0000,0.0000,0.0000,0.0000,0.0000,0.00,0.00,0.00,0.0000,0.1880,0.1790,1.3030,2.7590,0
6338,-0.0114,-0.0900,0.0155,0.1033,-0.0628,0.1433,-9.44,0.39,3.91,0,3.848,58.485,-4.794,-25.949,-0.008,-0.033,0.951,0.000,0.000,0.000,0.0140,-5,1,0.00,0.00,0.00,0.0000,0.0000,0.0000,0.0000,0.0000,0.0000,0.0000,0.00,0.00,0.00,0.0000,0.1880,0.1790,1.3030,2.7590,0
6390,-0.0166,-0.0822,0.0198,0.0465,0.0471,0.1134,-6.51,1.34,2.54,0,3.848,35.004,-15.666,-19.889,0.004,-0.021,1.006,0.000,0.000,0.000,0.0180,-13,14,0.00,0.00,0.00,0.0000,0.0000,0.0000,0.0000,0.0000,0.0000,0.0000,0.00,0.00,0.00,1.7260,0.0000,0.6930,1.2540,2.6890,0
6440,-0.0232,-0.0685,0.0227,-0.0071,0.1391,0.0979,-4.59,2.42,1.28,0,3.832,59.744,20.437,-21.746,-0.003,-0.036,1.021,0.000,0.000,0.000,0.0210,21,1,0.00,0.00,0.00,0.0000,0.0000,0.0000,0.0000,0.0000,0.0000,0.0000,0.00,0.00,0.00,1.7260,0.0000,0.6930,1.2540,2.6890,0
6492,-0.0311,-0.0657,0.0261,-0.0591,0.1500,0.0945,-1.11,1.72,0.07,0,3.832,60.718,34.402,-14.951,0.005,-0.046,1.028,0.000,0.000,0.000,0.0250,0,9,0.00,0.00,0.00,0.0000,0.0000,0.0000,0.0000,0.0000,0.0000,0.0000,0.00,0.00,0.00,1.7470,0.2210,0.7940,0.0000,2.6710,0
6543,-0.0382,-0.0824,0.0312,-0.0923,0.0438,0.1050,2.52,-0.08,-0.82,0,3.822,-13.684,-2.805,-3.729,0.007,-0.041,0.992,0.000,0.000,0.000,0.0280,-57,-1,0.00,0.00,0.00,0.0000,0.0000,0.0000,0.0000,0.0000,0.0000,0.0000,0.00,0.00,0.00,1.7470,0.2210,0.7940,0.0000,2.6710,0
6593,-0.0389,-0.0675,0.0351,-0.0728,0.0844,0.1066,2.19,-0.68,-1.03,0,3.827,-24.385,-14.803,-3.335,0.001,-0.019,1.049,0.000,0.000,0.000,0.0340,-25,0,0.00,0.00,0.00,0.0000,0.0000,0.0000,0.0000,0.0000,0.0000,0.0000,0.00,0.00,0.00,0.0000,0.0000,0.7900,0.0000,2.6620,0
6645,-0.0397,-0.0345,0.0368,-0.0545,0.2065,0.0993,-0.16,-0.11,-1.08,0,3.806,57.872,23.975,4.063,0.005,-0.016,1.034,0.000,0.000,0.000,0.0320,-21,-4,0.00,0.00,0.00,0.0000,0.0000,0.0000,0.0000,0.0000,0.0000,0.0000,0.00,0.00,0.00,0.0000,0.0000,0.7900,0.0000,2.6620,0
6695,-0.0352,-0.0022,0.0328,-0.0205,0.3103,0.0730,0.88,-1.08,-0.94,0,3.822,77.967,23.516,5.430,0.005,-0.038,1.054,0.000,0.000,0.000,0.0710,-35,-3,0.00,0.00,0.00,0.0000,0.0000,0.0000,0.0000,0.0000,0.0000,0.0000,0.00,0.00,0.00,1.7240,0.2590,0.7510,0.0000,2.6500,0
6746,-0.0309,0.0320,0.0490,0.0176,0.3784,0.1431,4.30,-2.58,-0.67,0,3.827,23.075,-15.719,7.090,-0.009,-0.032,1.040,0.000,0.000,0.000,0.0710,-19,-9,0.00,0.00,0.00,0.0000,0.0000,0.0000,0.0000,0.0000,0.0000,0.0000,0.00,0.00,0.00,1.7240,0.2590,0.7510,0.0000,2.6500,0
6798,-0.0269,0.0532,0.0654,0.0526,0.3463,0.1980,6.39,-1.98,-0.43,0,3.832,1.140,-18.421,11.420,-0.003,-0.022,1.037,0.000,0.000,0.000,0.0750,-6,-4,0.00,0.00,0.00,0.0000,0.0000,0.0000,0.0000,0.0000,0.0000,0.0000,0.00,0.00,0.00,1.7180,0.2170,0.7800,0.3900,2.6690,0
6848,-0.0212,0.0659,0.0801,0.0812,0.2719,0.2338,6.71,-1.15,-0.00,0,3.832,15.804,-31.487,11.477,-0.002,-0.014,1.003,0.000,0.000,0.000,0.0880,-10,-11,0.00,0.00,0.00,0.0000,0.0000,0.0000,0.0000,0.0000,0.0000,0.0000,0.00,0.00,0.00,1.7180,0.2170,0.7800,0.3900,2.6690,0
6900,-0.0153,0.0749,0.0940,0.0961,0.1971,0.2490,7.43,0.40,0.35,0,3.838,-20.092,-6.862,5.584,-0.000,-0.017,0.975,0.000,0.000,0.000,0.0950,2,-2,0.00,0.00,0.00,0.0000,0.0000,0.0000,0.0000,0.0000,0.0000,0.0000,0.00,0.00,0.00,1.7640,0.2270,0.8060,0.4510,2.6410,0
6951,-0.0107,0.0779,0.1063,0.0900,0.1081,0.2408,7.14,1.24,0.59,0,3.827,-37.625,19.541,2.735,0.004,-0.008,0.997,0.000,0.000,0.000,0.1070,2,-6,0.00,0.00,0.00,0.0000,0.0000,0.0000,0.0000,0.0000,0.3000,0.2755,10.00,-3.32,-17.79,1.7640,0.2270,0.8060,0.4510,2.6410,0
7002,-0.0065,0.0777,0.1160,0.0816,0.0323,0.2233,5.48,0.49,0.82,0,3.827,-26.486,3.269,2.850,0.001,-0.005,0.984,0.000,0.000,0.000,0.1030,7,-3,7.14,1.24,0.59,-0.0107,0.0779,0.1070,0.0000,0.0000,0.3000,0.2755,6.66,-3.22,-24.65,1.8030,0.2140,0.7880,0.0000,2.6270,0
7053,-0.0022,0.0748,0.1196,0.0819,-0.0256,0.1849,4.09,0.12,1.01,0,3.816,-26.395,-19.967,4.336,0.005,-0.013,0.991,0.000,0.000,0.000,0.1100,6,-3,6.00,1.52,0.76,-0.0053,0.0674,0.1028,0.0000,0.0000,0.3000,0.2790,3.84,-3.48,-30.29,1.8030,0.2140,0.7880,0.0000,2.6270,0
7105,0.0000,0.0703,0.1219,0.0735,-0.0686,0.1470,2.88,0.94,1.17,0,3.816,-28.854,-5.104,3.419,-0.005,-0.010,0.999,0.000,0.000,0.000,0.1180,4,0,2.85,0.27,0.86,-0.0015,0.0595,0.1117,0.0000,0.0000,0.3000,0.2827,1.62,-3.22,-35.19,1.8010,0.0000,0.7610,1.1670,2.6040,0
7157,0.0025,0.0647,0.1265,0.0612,-0.0977,0.1323,1.41,1.40,1.39,0,3.811,-34.372,8.680,6.579,0.002,-0.006,1.018,0.000,0.000,0.000,0.1220,10,-3,-1.47,-1.96,1.10,-0.0003,0.0526,0.1210,0.0000,0.0000,0.3000,0.2834,-0.03,-2.83,-41.74,1.8010,0.0000,0.7610,1.1670,2.6040,0
7208,0.0055,0.0586,0.1295,0.0514,-0.1129,0.1201,-0.16,1.09,1.61,0,3.816,-24.376,7.699,2.486,0.001,-0.002,1.041,0.000,0.000,0.000,0.1310,5,1,-0.79,-0.13,1.36,0.0031,0.0412,0.1286,0.0000,0.0000,0.3000,0.2842,-1.08,-2.59,-48.34,1.8070,0.0000,0.7500,1.3810,2.5820,0
7259,0.0079,0.0521,0.1360,0.0425,-0.1131,0.1380,-1.46,0.74,1.75,0,3.806,-4.849,8.582,0.626,0.003,-0.005,1.037,0.000,0.000,0.000,0.1330,6,-2,-3.00,-0.86,1.43,0.0026,0.0339,0.1379,0.0000,0.0000,0.3000,0.2810,-1.54,-2.39,-52.38,1.8070,0.0000,0.7500,1.3810,2.5820,0
7310,0.0079,0.0445,0.1404,0.0278,-0.1095,0.1435,-1.80,0.34,1.79,0,3.816,-2.277,-1.009,-1.355,0.002,-0.008,1.030,0.000,0.000,0.000,0.1430,3,0,-3.00,0.23,1.53,0.0052,0.0266,0.1432,0.0000,0.0000,0.3000,0.2796,-1.88,-1.75,-53.84,1.8090,0.1810,0.7600,1.4010,2.5720,0
7362,0.0108,0.0394,0.1485,0.0310,-0.0933,0.1608,-1.97,0.23,1.73,0,3.811,-7.796,2.346,-1.534,-0.000,-0.009,1.026,0.000,0.000,0.000,0.1470,4,-1,-3.49,-0.11,1.40,0.0054,0.0225,0.1510,0.0000,0.0000,0.3000,0.2762,-1.53,-2.11,-51.96,1.8090,0.1810,0.7600,1.4010,2.5720,0
7413,0.0131,0.0344,0.1546,0.0315,-0.0782,0.1634,-2.28,0.21,1.62,0,3.816,4.508,-1.326,-3.257,0.004,-0.004,1.020,0.000,0.000,0.000,0.1600,0,0,-3.62,0.11,1.35,0.0070,0.0175,0.1580,0.0000,0.0000,0.3000,0.2748,-1.19,-2.31,-48.63,1.7940,0.1630,0.7790,1.3960,2.5560,0
7465,0.0153,0.0300,0.1648,0.0319,-0.0619,0.1821,-2.24,0.14,1.49,0,3.811,6.135,0.091,-1.537,0.001,-0.013,1.010,0.000,0.000,0.000,0.1650,1,-3,-3.39,0.03,1.18,0.0084,0.0146,0.1676,0.0000,0.0000,0.3000,0.2709,-0.77,-2.50,-44.72,1.7940,0.1630,0.7790,1.3960,2.5560,0
7516,0.0158,0.0264,0.1723,0.0260,-0.0473,0.1801,-1.83,0.21,1.38,0,3.822,4.659,1.596,-1.215,0.004,-0.008,1.011,0.000,0.000,0.000,0.1780,0,2,-3.33,0.29,1.20,0.0122,0.0159,0.1752,0.0000,0.0000,0.3000,0.2697,-0.34,-2.28,-41.38,1.7820,0.1470,0.8090,1.3930,2.5350,0
7568,0.0182,0.0246,0.1833,0.0279,-0.0311,0.1933,-1.59,0.16,1.29,0,3.816,7.248,-1.159,-0.175,0.002,-0.017,1.000,0.000,0.000,0.000,0.1890,0,0,-3.08,0.00,0.97,0.0109,0.0163,0.1859,0.0000,0.0000,0.3000,0.2662,0.28,-2.56,-38.64,1.7820,0.1470,0.8090,1.3930,2.5350,0
7620,0.0176,0.0231,0.1940,0.0193,-0.0191,0.1993,-1.22,0.19,1.23,0,3.822,8.873,-0.129,0.124,0.000,-0.013,0.993,0.000,0.000,0.000,0.1980,-1,-8,-2.70,-0.05,0.96,0.0120,0.0180,0.1964,0.0000,0.0000,0.3000,0.2635,0.74,-2.14,-36.92,1.7730,0.1410,0.8550,1.3910,2.5210,0
7672,0.0159,0.0230,0.2049,0.0079,-0.0077,0.2018,-0.77,0.18,1.23,0,3.816,5.187,1.781,-0.274,0.005,-0.015,0.990,0.000,0.000,0.000,0.2080,1,0,-2.07,0.87,1.38,0.0267,0.0188,0.2068,0.0000,0.0000,0.3000,0.2612,1.28,-1.50,-36.79,1.7730,0.1410,0.8550,1.3910,2.5210,0
7724,0.0191,0.0224,0.2144,0.0156,-0.0033,0.1953,-0.42,0.08,1.22,0,3.822,5.323,0.354,-0.159,0.005,-0.008,0.985,0.000,0.000,0.000,0.2220,9,-15,-1.64,0.72,1.32,0.0295,0.0190,0.2177,0.0000,0.0000,0.3000,0.2601,1.45,-2.10,-36.59,1.7660,0.1300,0.9350,1.4020,2.4920,0
7775,0.0202,0.0222,0.2267,0.0162,-0.0004,0.2000,-0.11,-0.09,1.23,0,3.822,4.071,-1.627,0.121,0.001,-0.013,0.978,0.000,0.000,0.000,0.2320,0,-1,-0.52,1.80,1.71,0.0533,0.0081,0.2254,0.0000,0.0000,0.3000,0.2573,1.59,-2.24,-37.01,1.7660,0.1300,0.9350,1.4020,2.4920,0
7827,0.0279,0.0205,0.2373,0.0379,-0.0052,0.1936,0.14,-0.05,1.23,0,3.822,1.771,-6.016,0.169,0.004,-0.011,0.977,0.000,0.000,0.000,0.2390,-1,-1,-0.43,1.36,1.68,0.0593,0.0076,0.2385,0.0000,0.0000,0.3000,0.2560,1.24,-3.85,-37.02,1.7610,0.0000,0.0000,1.4030,2.4750,0
7878,0.0318,0.0211,0.2466,0.0444,-0.0037,0.1811,0.28,0.13,1.24,0,3.811,0.982,-5.860,-0.419,0.001,-0.013,0.976,0.000,0.000,0.000,0.2430,1,0,-0.52,0.75,1.67,0.0635,0.0092,0.2484,0.0000,0.0000,0.3000,0.2556,1.37,-4.45,-37.21,1.7610,0.0000,0.0000,1.4030,2.4750,0
7930,0.0333,0.0215,0.2502,0.0426,-0.0038,0.1542,0.30,0.38,1.22,0,3.822,1.465,-1.127,0.257,-0.002,-0.012,0.977,0.000,0.000,0.000,0.2520,0,-1,-0.43,0.13,1.76,0.0653,0.0071,0.2555,0.0000,0.0000,0.3000,0.2578,1.38,-4.44,-36.49,1.7510,0.0000,0.0000,1.4130,2.4590,0
7981,0.0381,0.0208,0.2575,0.0479,-0.0075,0.1421,0.37,0.45,1.24,0,3.811,-0.875,-1.413,0.180,0.002,-0.011,0.987,0.000,0.000,0.000,0.2590,1,0,-0.42,-0.07,1.82,0.0681,0.0070,0.2617,0.0000,0.0000,0.3000,0.2577,1.15,-5.04,-37.29,1.7510,0.0000,0.0000,1.4130,2.4590,0
8032,0.0408,0.0204,0.2631,0.0454,-0.0106,0.1259,0.40,0.52,1.25,0,3.816,-3.550,-1.192,0.371,0.006,-0.012,0.985,0.000,0.000,0.000,0.2660,1,0,-0.43,-0.32,1.92,0.0688,0.0047,0.2676,0.0000,0.0000,0.3000,0.2584,0.97,-5.09,-37.51,1.7510,0.0000,0.0000,1.4290,2.4430,0
8083,0.0463,0.0197,0.2694,0.0505,-0.0142,0.1195,0.29,0.56,1.28,0,3.811,-1.864,-2.170,1.311,0.000,-0.011,0.985,0.000,0.000,0.000,0.2720,1,-1,-0.59,-0.50,2.01,0.0692,0.0022,0.2734,0.0000,0.0000,0.3000,0.2579,0.75,-5.74,-38.53,1.7510,0.0000,0.0000,1.4290,2.4430,0
8135,0.0497,0.0188,0.2747,0.0486,-0.0169,0.1103,0.19,0.64,1.33,0,3.816,0.158,-3.346,0.835,-0.000,-0.012,0.985,0.000,0.000,0.000,0.2800,0,0,-0.67,-0.63,2.08,0.0720,-0.0003,0.2788,0.0000,0.0000,0.3000,0.2579,0.55,-5.89,-40.00,1.7470,0.0000,0.0000,1.4360,2.4320,0
8186,0.0507,0.0173,0.2815,0.0399,-0.0204,0.1100,0.15,0.75,1.38,0,3.811,-2.270,0.547,1.122,0.002,-0.010,0.989,0.000,0.000,0.000,0.2830,0,0,-0.66,-0.80,2.13,0.0749,-0.0024,0.2845,0.0000,0.0000,0.3000,0.2567,0.28,-5.58,-41.46,1.7470,0.0000,0.0000,1.4360,2.4320,0
8238,0.0583,0.0152,0.2870,0.0456,-0.0239,0.0982,0.07,0.73,1.42,0,3.816,-2.423,-0.783,0.505,0.004,-0.008,0.992,0.000,0.000,0.000,0.2870,0,-4,-0.78,-0.77,2.19,0.0775,-0.0044,0.2893,0.0000,0.0000,0.3000,0.2569,-0.03,-6.39,-42.62,1.7360,0.1120,0.0000,1.4450,2.4350,0
8290,0.0604,0.0131,0.2904,0.0413,-0.0273,0.0910,-0.06,0.75,1.47,0,3.806,-1.205,-1.993,1.303,0.000,-0.011,0.992,0.000,0.000,0.000,0.2950,-1,-4,-1.06,-0.70,2.18,0.0854,0.0019,0.2936,0.0000,0.0000,0.3000,0.2570,-0.36,-6.33,-44.14,1.7360,0.1120,0.0000,1.4450,2.4350,0
8340,0.0599,0.0112,0.2958,0.0288,-0.0283,0.0903,-0.17,0.82,1.52,0,3.811,-2.839,1.487,1.089,0.003,-0.010,0.990,0.000,0.000,0.000,0.2990,2,-1,-1.16,-0.71,2.22,0.0926,0.0036,0.2983,0.0000,0.0000,0.3000,0.2561,-0.54,-5.73,-45.72,1.7360,0.0000,0.0000,1.4660,2.4120,0
8393,0.0673,0.0107,0.3008,0.0362,-0.0250,0.0895,-0.23,0.73,1.57,0,3.806,1.572,0.580,0.525,0.003,-0.011,0.987,0.000,0.000,0.000,0.3020,0,0,-1.23,-0.64,2.24,0.0963,0.0006,0.3032,0.0000,0.0000,0.3000,0.2552,-0.41,-6.63,-46.98,1.7360,0.0000,0.0000,1.4660,2.4120,0
8444,0.0678,0.0086,0.3045,0.0272,-0.0251,0.0801,-0.25,0.71,1.60,0,3.811,0.555,0.089,0.649,0.006,-0.007,0.990,0.000,0.000,0.000,0.3050,0,-1,-1.14,-0.61,2.27,0.0998,0.0007,0.3068,0.0000,0.0000,0.3000,0.2556,-0.57,-6.23,-47.99,1.7330,0.1040,0.0000,1.4710,2.4000,0
8496,0.0705,0.0081,0.3078,0.0245,-0.0217,0.0722,-0.28,0.71,1.65,0,3.806,-0.196,1.023,0.600,0.002,-0.013,0.994,0.000,0.000,0.000,0.3080,-1,-1,-1.11,-0.69,2.33,0.0990,0.0005,0.3102,0.0000,0.0000,0.3000,0.2558,-0.44,-6.29,-49.61,1.7330,0.1040,0.0000,1.4710,2.4000,0
8547,0.0719,0.0065,0.3104,0.0192,-0.0209,0.0621,-0.32,0.63,1.69,0,3.811,-0.085,0.226,0.182,0.005,-0.013,0.995,0.000,0.000,0.000,0.3120,0,1,-1.15,-0.63,2.37,0.1017,0.0027,0.3130,0.0000,0.0000,0.3000,0.2564,-0.53,-6.12,-50.58,1.7270,0.1000,0.0000,1.4820,2.3960,0
8598,0.0739,0.0074,0.3136,0.0161,-0.0143,0.0593,-0.29,0.57,1.71,0,3.801,0.992,2.029,1.567,-0.001,-0.012,0.993,0.000,0.000,0.000,0.3110,0,-1,-1.15,-0.68,2.39,0.1003,0.0030,0.3160,0.0000,0.0000,0.3000,0.2561,-0.14,-6.12,-51.39,1.7270,0.1000,0.0000,1.4820,2.3960,0
8650,0.0729,0.0059,0.3144,0.0078,-0.0138,0.0466,-0.16,0.45,1.76,0,3.806,2.018,1.874,0.780,0.004,-0.013,0.999,0.000,0.000,0.000,0.3160,-1,0,-1.09,-0.55,2.46,0.1028,0.0034,0.3176,0.0000,0.0000,0.3000,0.2573,-0.22,-5.63,-52.93,1.7270,0.1020,2.2890,1.4830,2.3990,0
8702,0.0743,0.0055,0.3170,0.0061,-0.0120,0.0451,-0.14,0.34,1.79,0,3.801,1.845,3.562,1.281,0.007,-0.011,0.998,0.000,0.000,0.000,0.3170,1,0,-1.01,-0.47,2.52,0.1029,0.0062,0.3200,0.0000,0.0000,0.3000,0.2570,-0.16,-5.66,-53.79,1.7270,0.1020,2.2890,1.4830,2.3990,0
8753,0.0746,0.0059,0.3186,0.0034,-0.0090,0.0409,-0.06,0.18,1.83,0,3.806,1.693,0.070,0.081,0.005,-0.011,1.005,0.000,0.000,0.000,0.3200,-1,0,-0.85,-0.29,2.55,0.1031,0.0036,0.3218,0.0000,0.0000,0.3000,0.2571,0.01,-5.55,-54.87,1.7330,0.0960,0.0000,1.4870,2.3900,0
8804,0.0745,0.0056,0.3209,0.0014,-0.0081,0.0420,0.01,0.10,1.84,0,3.795,-1.975,4.731,-0.541,0.003,-0.013,1.001,0.000,0.000,0.000,0.3190,0,0,-0.80,-0.30,2.58,0.1031,0.0066,0.3240,0.0000,0.0000,0.3000,0.2566,0.03,-5.46,-55.27,1.7330,0.0960,0.0000,1.4870,2.3900,0
8856,0.0749,0.0035,0.3217,0.0014,-0.0117,0.0368,-0.04,-0.05,1.86,0,3.806,-0.546,2.374,-0.643,0.004,-0.009,1.005,0.000,0.000,0.000,0.3230,0,0,-0.90,-0.06,2.54,0.1036,0.0078,0.3251,0.0000,0.0000,0.3000,0.2570,-0.30,-5.48,-55.69,1.7240,0.0980,0.0000,1.4950,2.3850,0
8907,0.0753,0.0032,0.3238,0.0024,-0.0107,0.0394,-0.04,-0.15,1.85,0,3.801,3.916,0.062,-1.381,0.006,-0.011,1.004,0.000,0.000,0.000,0.3290,0,-1,-0.93,0.06,2.51,0.1042,0.0093,0.3271,0.0000,0.0000,0.3000,0.2563,-0.27,-5.57,-55.57,1.7240,0.0980,0.0000,1.4950,2.3850,0
8959,0.0755,0.0029,0.3280,0.0038,-0.0098,0.0510,-0.02,-0.21,1.79,0,3.806,1.633,-1.113,-1.851,0.007,-0.013,0.998,0.000,0.000,0.000,0.3270,5,0,-0.65,0.08,2.41,0.1063,0.0046,0.3304,0.0000,0.0000,0.3000,0.2543,-0.25,-5.70,-53.60,1.7250,0.0000,0.0000,1.4880,2.3760,0
9011,0.0756,0.0039,0.3296,0.0050,-0.0070,0.0467,0.07,-0.13,1.67,0,3.801,0.462,-0.028,-2.284,0.004,-0.012,0.995,0.000,0.000,0.000,0.3340,-2,-20,-0.45,0.01,2.30,0.1072,-0.0040,0.3319,0.0000,0.0000,0.3000,0.2544,-0.04,-5.76,-50.22,1.7250,0.0000,0.0000,1.4880,2.3760,0
9062,0.0757,-0.0020,0.3336,0.0059,-0.0177,0.0533,-0.08,-0.36,1.57,0,3.806,3.407,-4.921,-2.275,0.005,-0.011,0.999,0.000,0.000,0.000,0.3310,-3,-2,-0.49,0.52,1.87,0.1466,0.0002,0.3347,0.0000,0.0000,0.3000,0.2529,-0.99,-5.85,-47.07,1.7170,0.0980,2.5600,0.0000,2.3760,0
9113,0.0997,0.0047,0.3344,0.0520,-0.0033,0.0437,-0.10,-0.23,1.46,0,3.795,3.180,-13.980,-2.435,0.001,-0.014,0.992,0.000,0.000,0.000,0.3340,0,-2,-0.41,0.24,1.76,0.1541,0.0068,0.3362,0.0000,0.0000,0.3000,0.2538,0.20,-9.76,-43.77,1.7170,0.0980,2.5600,0.0000,2.3760,0
9165,0.1011,0.0070,0.3360,0.0511,0.0020,0.0387,0.01,0.42,1.34,0,3.806,-0.639,-6.589,-1.739,0.001,-0.010,0.994,0.000,0.000,0.000,0.3380,0,0,-0.24,-0.49,1.66,0.1617,0.0072,0.3377,0.0000,0.0000,0.3000,0.2541,0.63,-9.80,-40.30,1.7130,0.0000,0.0000,1.4880,2.3730,0
9216,0.1065,0.0079,0.3384,0.0531,0.0033,0.0381,0.04,0.85,1.27,0,3.795,3.939,-1.805,-2.101,0.006,-0.014,0.994,0.000,0.000,0.000,0.3380,-1,0,-0.27,-0.84,1.57,0.1704,0.0080,0.3396,0.0000,0.0000,0.3000,0.2537,0.75,-10.30,-37.98,1.7130,0.0000,0.0000,1.4880,2.3730,0
9268,0.1092,0.0063,0.3397,0.0465,-0.0005,0.0326,0.11,0.94,1.17,0,3.801,-1.432,0.126,-1.143,0.004,-0.010,0.995,0.000,0.000,0.000,0.3400,0,0,-0.11,-1.17,1.69,0.1582,0.0119,0.3420,0.0000,0.0000,0.3000,0.2540,0.45,-10.17,-34.99,1.7080,0.1000,2.6250,1.4920,2.3680,0
9319,0.1093,0.0079,0.3411,0.0347,0.0015,0.0296,0.12,1.02,1.10,0,3.795,-2.000,1.311,-0.956,0.002,-0.015,0.993,0.000,0.000,0.000,0.3410,0,0,-0.19,-1.16,1.63,0.1622,0.0128,0.3430,0.0000,0.0000,0.3000,0.2541,0.67,-9.62,-33.11,1.7080,0.1000,2.6250,1.4920,2.3680,0
9370,0.1097,0.0077,0.3422,0.0238,-0.0002,0.0263,0.12,1.03,1.04,0,3.801,2.318,4.317,-1.368,0.007,-0.010,0.998,0.000,0.000,0.000,0.3430,0,1,-0.29,-1.10,1.58,0.1657,0.0133,0.3437,0.0000,0.0000,0.3000,0.2542,0.57,-9.13,-31.31,1.6990,0.0000,2.6410,1.5000,2.3630,0
9422,0.1104,0.0066,0.3436,0.0147,-0.0033,0.0259,0.18,0.85,0.98,0,3.795,0.711,4.430,-0.979,0.001,-0.021,0.996,0.000,0.000,0.000,0.3460,-1,1,-0.16,-1.04,1.68,0.1531,0.0126,0.3447,0.0000,0.0000,0.3000,0.2540,0.34,-8.75,-29.42,1.6990,0.0000,2.6410,1.5000,2.3630,0
9473,0.1088,0.0068,0.3458,0.0036,-0.0040,0.0292,0.12,0.64,0.95,0,3.801,1.907,4.266,-1.702,0.005,-0.011,0.999,0.000,0.000,0.000,0.3470,0,0,-0.14,-0.83,1.67,0.1515,0.0141,0.3462,0.0000,0.0000,0.3000,0.2532,0.32,-8.14,-28.44,1.6990,0.0000,2.6660,1.4880,2.3630,0
9524,0.1075,0.0061,0.3475,-0.0042,-0.0059,0.0294,0.07,0.47,0.89,0,3.795,-5.316,4.036,-0.187,0.006,-0.015,0.999,0.000,0.000,0.000,0.3450,0,0,-0.05,-0.61,1.58,0.1508,0.0139,0.3476,0.0000,0.0000,0.3000,0.2529,0.18,-7.68,-26.77,1.6990,0.0000,2.6660,1.4880,2.3630,0
9576,0.1045,0.0029,0.3475,-0.0133,-0.0120,0.0218,-0.03,0.32,0.85,0,3.795,1.968,3.862,-1.318,0.001,-0.014,0.998,0.000,0.000,0.000,0.3460,0,1,-0.32,-0.41,1.57,0.1500,0.0133,0.3479,0.0000,0.0000,0.3000,0.2537,-0.36,-7.00,-25.46,1.7050,0.0000,2.6470,1.4990,2.3640,0
9628,0.1043,0.0012,0.3476,-0.0150,-0.0138,0.0167,-0.02,0.11,0.77,0,3.790,-3.241,5.394,-1.244,0.006,-0.015,0.998,0.000,0.000,0.000,0.3460,0,-1,-0.24,-0.21,1.53,0.1484,0.0151,0.3483,0.0000,0.0000,0.3000,0.2542,-0.57,-6.90,-23.19,1.7050,0.0000,2.6470,1.4990,2.3640,0
9679,0.1024,0.0015,0.3475,-0.0178,-0.0118,0.0113,-0.14,-0.16,0.72,0,3.795,-1.473,0.355,-0.576,0.005,-0.012,1.005,0.000,0.000,0.000,0.3490,2,3,-0.41,0.09,1.44,0.1493,0.0147,0.3484,0.0000,0.0000,0.3000,0.2548,-0.44,-6.61,-21.48,1.7020,0.0000,2.6290,1.4900,2.3660,0
9730,0.1039,0.0021,0.3487,-0.0126,-0.0086,0.0143,-0.23,-0.18,0.68,0,3.790,3.327,-0.321,-0.749,0.002,-0.015,1.002,0.000,0.000,0.000,0.3480,-1,0,-0.45,0.05,1.47,0.1441,0.0110,0.3494,0.0000,0.0000,0.3000,0.2543,-0.25,-6.98,-20.29,1.7020,0.0000,2.6290,1.4900,2.3660,0
9782,0.0935,-0.0011,0.3490,-0.0278,-0.0112,0.0132,-0.17,-0.19,0.63,0,3.795,-3.583,4.959,-0.244,0.006,-0.011,1.001,0.000,0.000,0.000,0.3480,0,0,-0.31,0.05,1.42,0.1434,0.0122,0.3500,0.0000,0.0000,0.3000,0.2543,-0.61,-5.50,-18.90,1.7060,0.0930,2.6230,1.4940,2.3610,0
9833,0.0942,-0.0012,0.3490,-0.0226,-0.0092,0.0111,-0.15,-0.39,0.58,0,3.790,0.633,0.946,-0.439,0.005,-0.016,1.001,0.000,0.000,0.000,0.3500,0,-1,-0.50,0.30,1.41,0.1424,0.0112,0.3503,0.0000,0.0000,0.3000,0.2545,-0.51,-5.80,-17.54,1.7060,0.0930,2.6230,1.4940,2.3610,0
9884,0.0928,-0.0002,0.3500,-0.0200,-0.0054,0.0136,-0.15,-0.50,0.56,0,3.795,-0.199,0.395,-0.964,0.006,-0.013,1.002,0.000,0.000,0.000,0.3530,0,0,-0.49,0.41,1.32,0.1469,0.0125,0.3511,0.0000,0.0000,0.3000,0.2541,-0.26,-5.83,-16.68,1.7040,0.0900,2.6510,1.4680,2.3580,0
9936,0.0921,-0.0029,0.3520,-0.0153,-0.0081,0.0214,-0.12,-0.51,0.51,0,3.790,-0.154,-1.247,-1.245,0.005,-0.015,1.001,0.000,0.000,0.000,0.3500,1,0,-0.51,0.43,1.27,0.1476,0.0117,0.3526,0.0000,0.0000,0.3000,0.2529,-0.60,-6.05,-15.21,1.7040,0.0900,2.6510,1.4680,2.3580,0
9988,0.0916,-0.0041,0.3519,-0.0108,-0.0085,0.0161,-0.14,-0.44,0.45,0,3.795,-0.943,-0.196,-1.208,0.005,-0.012,1.001,0.000,0.000,0.000,0.3530,0,-2,-0.50,0.34,1.23,0.1467,0.0092,0.3528,0.0000,0.0000,0.3000,0.2534,-0.70,-6.21,-13.43,1.7040,0.0870,2.6670,1.4940,2.3540,0
10040,0.0935,-0.0034,0.3531,-0.0030,-0.0053,0.0179,-0.13,-0.36,0.38,0,3.785,1.301,-2.441,-0.898,0.001,-0.013,1.002,0.000,0.000,0.000,0.3520,2,0,-0.56,0.37,1.13,0.1511,0.0086,0.3538,0.0000,0.0000,0.3000,0.2530,-0.49,-6.74,-11.33,1.7040,0.0870,2.6670,1.4940,2.3540,0
10090,0.0956,-0.0050,0.3533,0.0037,-0.0065,0.0146,-0.08,-0.23,0.30,0,3.795,0.608,-1.381,-1.980,0.006,-0.010,0.999,0.000,0.000,0.000,0.3530,0,-1,-0.45,0.23,1.12,0.1518,0.0038,0.3542,0.0000,0.0000,0.3000,0.2533,-0.67,-7.20,-8.95,1.7020,0.0000,2.6610,1.4870,2.3560,0
10142,0.0975,-0.0065,0.3537,0.0086,-0.0077,0.0134,-0.09,-0.11,0.20,0,3.790,0.814,-3.517,-2.012,0.003,-0.010,1.003,0.000,0.000,0.000,0.3530,1,-1,-0.44,0.17,1.01,0.1548,0.0031,0.3547,0.0000,0.0000,0.3000,0.2534,-0.83,-7.58,-6.01,1.7020,0.0000,2.6610,1.4870,2.3560,0
10192,0.0994,-0.0064,0.3540,0.0120,-0.0063,0.0124,-0.07,0.07,0.12,0,3.790,1.163,-0.662,-1.434,0.005,-0.013,1.004,0.000,0.000,0.000,0.3530,0,-1,-0.38,-0.01,0.90,0.1580,0.0001,0.3551,0.0000,0.0000,0.3000,0.2534,-0.76,-7.87,-3.66,1.6900,0.0890,2.6690,1.4830,2.3570,0
10243,0.1028,-0.0063,0.3540,0.0164,-0.0051,0.0107,-0.05,0.14,0.06,0,3.785,1.091,-1.805,-1.512,0.008,-0.014,1.005,0.000,0.000,0.000,0.3560,-1,-4,-0.34,-0.03,0.82,0.1613,-0.0004,0.3554,0.0000,0.0000,0.3000,0.2536,-0.69,-8.33,-1.70,1.6900,0.0890,2.6690,1.4830,2.3570,0
10294,0.1045,-0.0064,0.3554,0.0170,-0.0043,0.0159,-0.02,0.16,-0.01,0,3.790,1.327,-2.397,-0.971,0.005,-0.009,0.999,0.000,0.000,0.000,0.3560,1,-1,-0.32,-0.05,0.65,0.1734,0.0021,0.3565,0.0000,0.0000,0.3000,0.2528,-0.66,-8.50,0.22,1.6810,0.0000,2.6700,1.4850,2.3510,0
10345,0.1083,-0.0065,0.3563,0.0206,-0.0039,0.0164,-0.00,0.23,-0.05,0,3.785,0.097,-1.422,-0.332,0.008,-0.012,0.997,0.000,0.000,0.000,0.3560,-1,0,-0.24,-0.18,0.62,0.1772,-0.0011,0.3573,0.0000,0.0000,0.3000,0.2525,-0.65,-8.96,1.40,1.6810,0.0000,2.6700,1.4850,2.3510,0
10396,0.1090,-0.0103,0.3568,0.0181,-0.0103,0.0144,0.04,0.36,-0.05,0,3.790,1.330,-2.208,-0.636,-0.001,-0.015,0.998,0.000,0.000,0.000,0.3550,2,-1,-0.27,-0.28,0.61,0.1776,0.0019,0.3580,0.0000,0.0000,0.3000,0.2527,-1.24,-8.89,1.62,1.6840,0.0890,2.6820,1.4950,2.3540,0
10447,0.1106,-0.0072,0.3565,0.0161,-0.0045,0.0088,0.06,0.44,-0.06,0,3.785,-3.902,1.012,-0.056,0.008,-0.010,1.002,0.000,0.000,0.000,0.3580,0,-1,-0.16,-0.40,0.60,0.1813,-0.0047,0.3578,0.0000,0.0000,0.3000,0.2533,-0.73,-8.89,1.93,1.6840,0.0890,2.6820,1.4950,2.3540,0
10498,0.1124,-0.0096,0.3576,0.0144,-0.0085,0.0114,-0.02,0.36,-0.10,0,3.785,-0.639,-0.955,0.097,0.001,-0.013,1.003,0.000,0.000,0.000,0.3550,0,0,-0.38,-0.35,0.59,0.1848,-0.0048,0.3586,0.0000,0.0000,0.3000,0.2528,-1.10,-8.95,2.98,1.6810,0.0910,2.6850,1.4860,2.3450,0
10550,0.1145,-0.0102,0.3568,0.0137,-0.0089,0.0054,-0.04,0.38,-0.11,0,3.785,-0.718,-0.478,0.360,0.001,-0.012,1.000,0.000,0.000,0.000,0.3570,0,2,-0.41,-0.39,0.60,0.1885,-0.0069,0.3583,0.0000,0.0000,0.3000,0.2536,-1.16,-9.04,3.37,1.6810,0.0910,2.6850,1.4860,2.3450,0
10601,0.1160,-0.0104,0.3571,0.0119,-0.0081,0.0064,-0.04,0.43,-0.12,0,3.790,-0.333,1.738,-0.287,0.007,-0.010,1.002,0.000,0.000,0.000,0.3560,0,-1,-0.50,-0.56,0.74,0.1712,-0.0022,0.3589,0.0000,0.0000,0.3000,0.2535,-1.14,-9.07,3.73,1.6790,0.0940,2.6840,1.4910,2.3500,0
10652,0.1161,-0.0112,0.3568,0.0078,-0.0084,0.0036,-0.07,0.34,-0.12,0,3.779,-2.179,0.258,0.732,0.004,-0.013,1.004,0.000,0.000,0.000,0.3570,0,-1,-0.52,-0.45,0.71,0.1740,-0.0025,0.3588,0.0000,0.0000,0.3000,0.2538,-1.21,-8.87,3.55,1.6790,0.0940,2.6840,1.4910,2.3500,0
10704,0.1175,-0.0113,0.3571,0.0067,-0.0071,0.0044,-0.10,0.30,-0.11,0,3.790,0.636,0.132,1.027,0.004,-0.014,1.003,0.000,0.000,0.000,0.3600,0,0,-0.64,-0.42,0.74,0.1769,-0.0027,0.3589,0.0000,0.0000,0.3000,0.2537,-1.16,-8.93,3.41,1.6730,0.0000,2.6710,1.4840,2.3500,0
10755,0.1199,-0.0110,0.3587,0.0078,-0.0052,0.0109,-0.09,0.29,-0.08,0,3.785,0.594,0.784,0.154,0.002,-0.012,0.994,0.000,0.000,0.000,0.3590,0,0,-0.61,-0.41,0.79,0.1777,-0.0037,0.3600,0.0000,0.0000,0.3000,0.2527,-1.05,-9.19,2.34,1.6730,0.0000,2.6710,1.4840,2.3500,0
10805,0.1255,-0.0127,0.3593,0.0149,-0.0071,0.0111,-0.05,0.20,-0.05,0,3.785,1.767,-1.394,0.068,0.005,-0.012,0.995,0.000,0.000,0.000,0.3570,0,0,-0.58,-0.37,0.80,0.1783,-0.0048,0.3602,0.0000,0.0000,0.3000,0.2525,-1.27,-9.93,1.51,1.6670,0.0000,2.6930,1.4990,2.3540,0
10856,0.1262,-0.0130,0.3586,0.0132,-0.0065,0.0041,-0.10,0.21,-0.02,0,3.779,1.779,0.071,-0.141,0.002,-0.016,0.997,0.000,0.000,0.000,0.3550,-3,-2,-0.49,-0.44,0.80,0.1788,-0.0059,0.3597,0.0000,0.0000,0.3000,0.2534,-1.26,-9.87,0.70,1.6670,0.0000,2.6930,1.4990,2.3540,0
10908,0.1290,-0.0146,0.3570,0.0152,-0.0076,-0.0051,-0.12,0.21,-0.03,0,3.779,-2.419,-0.168,0.390,0.005,-0.016,1.001,0.000,0.000,0.000,0.3560,0,0,-0.53,-0.40,0.81,0.1862,0.0142,0.3585,0.0000,0.0000,0.3000,0.2547,-1.42,-10.12,0.84,1.6660,0.0000,2.6890,1.5020,2.3470,0
10959,0.1309,-0.0135,0.3563,0.0152,-0.0044,-0.0068,-0.18,0.29,-0.00,0,3.779,0.197,-0.782,-0.143,0.007,-0.016,1.003,0.000,0.000,0.000,0.3600,0,0,-0.65,-0.40,0.83,0.1877,0.0160,0.3578,0.0000,0.0000,0.3000,0.2550,-1.18,-10.24,0.06,1.6660,0.0000,2.6890,1.5020,2.3470,0
11010,0.1328,-0.0135,0.3579,0.0148,-0.0023,0.0042,-0.25,0.32,-0.01,0,3.785,2.096,-1.880,0.530,0.004,-0.010,1.003,0.000,0.000,0.000,0.3590,0,-1,-0.64,-0.44,0.82,0.1892,0.0176,0.3585,0.0000,0.0000,0.3000,0.2535,-1.08,-10.42,0.16,1.6720,0.0910,2.6630,1.4860,2.3510,0
11062,0.1333,-0.0137,0.3587,0.0116,-0.0007,0.0074,-0.14,0.32,-0.00,0,3.779,0.599,0.484,0.383,0.006,-0.012,0.998,0.000,0.000,0.000,0.3590,-1,-1,-0.50,-0.54,0.84,0.1900,0.0148,0.3590,0.0000,0.0000,0.3000,0.2530,-1.02,-10.32,0.06,1.6720,0.0910,2.6630,1.4860,2.3510,0
11113,0.1349,-0.0148,0.3591,0.0106,-0.0019,0.0078,0.01,0.35,0.00,0,3.779,-0.422,0.597,-0.228,0.005,-0.010,1.001,0.000,0.000,0.000,0.3550,1,0,-0.48,-0.51,0.86,0.1921,0.0166,0.3592,0.0000,0.0000,0.3000,0.2529,-1.16,-10.39,-0.03,1.6680,0.0910,2.6920,1.4910,2.3530,0
11165,0.1331,-0.0137,0.3574,0.0038,0.0001,-0.0026,0.02,0.35,0.01,0,3.779,1.741,-0.634,0.462,0.004,-0.011,0.999,0.000,0.000,0.000,0.3580,0,1,-0.48,-0.49,0.84,0.1928,0.0155,0.3581,0.0000,0.0000,0.3000,0.2543,-0.98,-9.90,-0.19,1.6680,0.0910,2.6920,1.4910,2.3530,0
11217,0.1351,-0.0135,0.3576,0.0043,0.0005,-0.0014,-0.01,0.28,0.03,0,3.779,0.647,0.452,-0.480,0.003,-0.015,1.000,0.000,0.000,0.000,0.3550,0,0,-0.39,-0.54,0.87,0.1916,0.0157,0.3581,0.0000,0.0000,0.3000,0.2542,-0.95,-10.06,-0.79,1.6690,0.0930,2.6840,1.4920,2.3500,0
11267,0.1337,-0.0156,0.3563,-0.0005,-0.0033,-0.0069,0.09,0.20,0.03,0,3.774,-5.768,1.728,1.467,0.005,-0.015,0.999,0.000,0.000,0.000,0.3570,1,0,-0.36,-0.52,0.85,0.1919,0.0157,0.3571,0.0000,0.0000,0.3000,0.2550,-1.28,-9.71,-0.84,1.6690,0.0930,2.6840,1.4920,2.3500,0
11318,0.1339,-0.0134,0.3564,-0.0015,0.0004,-0.0046,-0.02,0.12,0.06,0,3.779,-1.392,1.903,0.499,0.007,-0.012,1.005,0.000,0.000,0.000,0.3540,3,1,-0.62,-0.43,0.91,0.1917,0.0124,0.3570,0.0000,0.0000,0.3000,0.2547,-0.94,-9.69,-1.78,1.6710,0.0890,2.6790,1.4940,2.3520,0
11370,0.1348,-0.0137,0.3550,-0.0007,0.0003,-0.0086,-0.05,0.06,0.08,0,3.774,2.974,0.738,-1.081,0.006,-0.013,1.001,0.000,0.000,0.000,0.3560,0,1,-0.64,-0.35,0.91,0.1899,0.0059,0.3560,0.0000,0.0000,0.3000,0.2554,-0.97,-9.77,-2.27,1.6710,0.0890,2.6790,1.4940,2.3520,0
11422,0.1349,-0.0159,0.3552,-0.0009,-0.0027,-0.0040,-0.04,0.02,0.05,0,3.779,-2.249,-0.293,-1.276,0.006,-0.013,1.004,0.000,0.000,0.000,0.3560,0,0,-0.50,-0.33,0.87,0.1876,0.0051,0.3559,0.0000,0.0000,0.3000,0.2549,-1.28,-9.79,-1.55,1.6690,0.0900,2.6640,1.4980,2.3500,0
11474,0.1338,-0.0142,0.3555,-0.0028,0.0005,-0.0001,-0.03,-0.03,0.03,0,3.774,-0.005,0.362,0.123,0.004,-0.013,1.003,0.000,0.000,0.000,0.3540,0,0,-0.62,-0.35,0.80,0.1868,0.0032,0.3560,0.0000,0.0000,0.3000,0.2544,-1.00,-9.64,-0.98,1.6690,0.0900,2.6640,1.4980,2.3500,0
11525,0.1352,-0.0139,0.3548,0.0001,0.0012,-0.0023,-0.04,-0.00,0.04,0,3.774,-2.224,-0.671,-0.170,0.005,-0.013,1.004,0.000,0.000,0.000,0.3530,2,0,-0.62,-0.33,0.81,0.1861,0.0012,0.3554,0.1143,-0.0080,0.3000,0.2548,-0.36,-1.64,-1.24,1.6720,0.0860,2.6510,1.5010,2.3610,0
11576,0.1351,-0.0154,0.3538,-0.0003,-0.0010,-0.0055,-0.00,0.08,0.05,0,3.769,-0.185,-0.918,-0.613,0.003,-0.012,1.004,0.000,0.000,0.000,0.3530,0,0,-0.72,-0.34,0.79,0.1883,-0.0020,0.3548,0.1143,-0.0080,0.3000,0.2553,-0.58,-1.60,-1.49,1.6720,0.0860,2.6510,1.5010,2.3610,0
11628,0.1380,-0.0158,0.3532,0.0041,-0.0014,-0.0060,-0.02,0.07,0.02,0,3.774,0.859,-0.998,-1.529,0.008,-0.016,1.005,0.000,0.000,0.000,0.3530,1,0,-0.73,-0.39,0.76,0.1880,-0.0042,0.3543,0.1143,-0.0080,0.3000,0.2555,-0.62,-2.03,-0.51,1.6670,0.0890,2.6850,1.4990,2.3590,0
11680,0.1383,-0.0121,0.3529,0.0038,0.0048,-0.0045,0.02,0.09,-0.03,0,3.774,-1.886,-1.198,0.193,0.003,-0.015,1.002,0.000,0.000,0.000,0.3550,-1,0,-0.69,-0.44,0.68,0.1882,-0.0056,0.3541,0.1143,-0.0080,0.3000,0.2554,-0.05,-2.04,0.82,1.6670,0.0890,2.6850,1.4990,2.3590,0
11732,0.1380,-0.0134,0.3538,0.0020,0.0020,0.0029,0.03,0.13,-0.06,0,3.774,-1.801,-0.314,-0.261,0.008,-0.008,1.002,0.000,0.000,0.000,0.3530,0,0,-0.81,-0.50,0.70,0.1881,-0.0050,0.3546,0.1143,-0.0080,0.3000,0.2544,-0.28,-1.93,1.82,1.6720,0.0000,2.6810,1.5000,2.3510,0
11784,0.1392,-0.0121,0.3536,0.0022,0.0039,0.0016,0.05,0.16,-0.08,0,3.774,2.178,-1.767,-0.944,0.004,-0.020,0.998,0.000,0.000,0.000,0.3570,0,0,-0.91,-0.52,0.69,0.1878,-0.0064,0.3543,0.1143,-0.0080,0.3000,0.2546,-0.09,-2.03,2.48,1.6720,0.0000,2.6810,1.5000,2.3510,0
11836,0.1419,-0.0105,0.3554,0.0052,0.0060,0.0101,0.08,0.16,-0.11,0,3.779,3.103,-1.964,-1.580,0.006,-0.009,0.999,0.000,0.000,0.000,0.3530,0,-1,-0.79,-0.61,0.64,0.1874,-0.0080,0.3553,0.1143,-0.0080,0.3000,0.2533,0.13,-2.39,3.37,1.6650,0.0000,2.6730,1.5030,2.3640,0
11887,0.1490,-0.0107,0.3547,0.0156,0.0049,0.0045,0.10,0.14,-0.17,0,3.769,2.464,-1.369,-0.906,0.004,-0.013,0.998,0.000,0.000,0.000,0.3530,-1,-1,-0.67,-0.67,0.58,0.1924,-0.0046,0.3549,0.1143,-0.0080,0.3000,0.2540,0.05,-3.40,5.25,1.6650,0.0000,2.6730,1.5030,2.3640,0
11938,0.1501,-0.0105,0.3540,0.0150,0.0040,-0.0007,0.07,0.19,-0.21,0,3.774,2.260,-3.753,-0.188,0.009,-0.012,1.004,0.000,0.000,0.000,0.3540,0,0,-0.55,-0.73,0.54,0.1941,-0.0034,0.3544,0.1143,-0.0080,0.3000,0.2547,0.03,-3.44,6.35,1.6590,0.0860,2.6660,1.5000,2.3560,0
11990,0.1517,-0.0080,0.3539,0.0148,0.0072,-0.0006,0.12,0.29,-0.22,0,3.769,2.379,-1.281,-0.176,0.005,-0.012,0.999,0.000,0.000,0.000,0.3530,0,-1,-0.44,-0.92,0.53,0.1946,-0.0037,0.3544,0.1143,-0.0080,0.3000,0.2547,0.36,-3.55,6.51,1.6590,0.0860,2.6660,1.5000,2.3560,0
12041,0.1526,-0.0088,0.3534,0.0126,0.0042,-0.0033,0.17,0.30,-0.23,0,3.774,-2.628,1.433,-1.013,0.009,-0.010,1.001,0.000,0.000,0.000,0.3520,0,0,-0.32,-0.97,0.53,0.1975,-0.0034,0.3540,0.1143,-0.0080,0.3000,0.2551,0.16,-3.51,6.84,1.6580,0.0880,2.6800,1.4960,2.3530,0
12092,0.1542,-0.0072,0.3526,0.0119,0.0050,-0.0062,0.16,0.29,-0.27,0,3.769,-0.416,-0.009,-0.503,0.003,-0.014,1.003,0.000,0.000,0.000,0.3530,1,0,-0.45,-0.90,0.48,0.1982,-0.0037,0.3535,0.1143,-0.0080,0.3000,0.2556,0.31,-3.58,8.12,1.6580,0.0880,2.6800,1.4960,2.3530,0
12143,0.1560,-0.0069,0.3525,0.0114,0.0037,-0.0054,0.18,0.32,-0.31,0,3.774,-1.827,0.563,-0.355,0.004,-0.014,0.995,0.000,0.000,0.000,0.3530,-2,0,-0.46,-0.90,0.43,0.1979,-0.0065,0.3534,0.1143,-0.0080,0.3000,0.2555,0.27,-3.69,9.30,1.6580,0.0000,2.6620,1.5060,2.3640,0
12195,0.1561,-0.0082,0.3525,0.0077,-0.0004,-0.0036,0.17,0.39,-0.32,0,3.769,-3.771,2.964,-0.199,0.005,-0.013,0.999,0.000,0.000,0.000,0.3520,0,-2,-0.58,-0.87,0.45,0.1979,-0.0034,0.3532,0.1143,-0.0080,0.3000,0.2553,-0.02,-3.52,9.58,1.6580,0.0000,2.6620,1.5060,2.3640,0
12246,0.1565,-0.0091,0.3521,0.0045,-0.0035,-0.0046,0.14,0.32,-0.32,0,3.774,-0.318,-1.000,-0.475,0.005,-0.015,0.998,0.000,0.000,0.000,0.3500,0,0,-0.78,-0.68,0.43,0.2019,-0.0035,0.3527,0.1143,-0.0080,0.3000,0.2555,-0.23,-3.39,9.64,1.6610,0.0000,2.6750,1.5040,2.3590,0
12298,0.1596,-0.0099,0.3510,0.0075,-0.0056,-0.0085,0.06,0.30,-0.35,0,3.764,-1.655,0.176,0.038,0.010,-0.012,1.006,0.000,0.000,0.000,0.3490,1,0,-0.79,-0.73,0.40,0.2023,-0.0038,0.3516,0.1143,-0.0080,0.3000,0.2561,-0.39,-3.76,10.51,1.6610,0.0000,2.6750,1.5040,2.3590,0
12350,0.1683,-0.0065,0.3497,0.0205,0.0005,-0.0120,-0.03,0.21,-0.36,0,3.769,0.981,-3.237,0.894,-0.003,-0.015,1.005,0.000,0.000,0.000,0.3480,0,1,-0.86,-0.73,0.38,0.2019,-0.0074,0.3506,0.1143,-0.0080,0.3000,0.2567,0.15,-5.00,10.78,1.6550,0.0890,2.6520,1.5060,2.3630,0
12401,0.1690,-0.0091,0.3485,0.0181,-0.0040,-0.0136,-0.05,0.28,-0.34,0,3.764,1.963,-0.416,-0.086,0.001,-0.014,1.008,0.000,0.000,0.000,0.3470,2,3,-0.81,-0.91,0.44,0.1997,-0.0077,0.3496,0.1143,-0.0080,0.3000,0.2571,-0.26,-4.92,10.10,1.6550,0.0890,2.6520,1.5060,2.3630,0
12452,0.1697,-0.0090,0.3473,0.0158,-0.0029,-0.0133,-0.01,0.40,-0.33,0,3.769,0.601,-0.723,-0.157,0.005,-0.014,1.008,0.000,0.000,0.000,0.3460,0,2,-0.68,-0.98,0.40,0.1925,-0.0127,0.3486,0.1143,-0.0080,0.3000,0.2573,-0.20,-4.86,10.03,1.6560,0.0000,2.6450,1.4940,2.3650,0
12504,0.1702,-0.0100,0.3463,0.0120,-0.0041,-0.0112,-0.05,0.40,-0.33,0,3.764,-1.261,-1.281,0.059,-0.001,-0.015,1.004,0.000,0.000,0.000,0.3450,0,0,-0.66,-1.04,0.40,0.1868,-0.0133,0.3477,0.1143,-0.0080,0.3000,0.2573,-0.33,-4.72,9.81,1.6560,0.0000,2.6450,1.4940,2.3650,0
12555,0.1725,-0.0092,0.3453,0.0120,-0.0017,-0.0097,-0.15,0.40,-0.32,0,3.769,0.792,1.226,0.135,0.007,-0.012,1.008,0.000,0.000,0.000,0.3450,0,-1,-0.72,-1.10,0.40,0.1832,-0.0148,0.3468,0.1143,-0.0080,0.3000,0.2573,-0.15,-4.88,9.67,1.6540,0.0940,2.6480,1.5060,2.3610,0
12607,0.1705,-0.0107,0.3448,0.0030,-0.0030,-0.0048,-0.06,0.36,-0.31,0,3.764,-0.688,1.843,0.212,0.008,-0.014,1.004,0.000,0.000,0.000,0.3450,0,1,-0.71,-0.95,0.44,0.1933,-0.0124,0.3468,0.1143,-0.0080,0.3000,0.2568,-0.32,-4.32,9.43,1.6540,0.0940,2.6480,1.5060,2.3610,0
12658,0.1730,-0.0085,0.3448,0.0047,0.0018,-0.0016,-0.10,0.31,-0.33,0,3.769,-0.671,-0.142,-0.014,0.003,-0.019,1.008,0.000,0.000,0.000,0.3420,-2,0,-0.75,-0.86,0.46,0.1905,-0.0127,0.3464,0.1143,-0.0080,0.3000,0.2565,0.06,-4.58,10.02,1.6500,0.0940,2.6420,1.4980,2.3600,0
12709,0.1713,-0.0104,0.3435,-0.0017,-0.0013,-0.0049,-0.13,0.24,-0.30,0,3.764,3.330,1.229,0.030,0.009,-0.014,1.007,0.000,0.000,0.000,0.3480,1,0,-0.82,-0.86,0.51,0.1900,-0.0079,0.3453,0.1143,-0.0080,0.3000,0.2571,-0.23,-4.15,9.03,1.6500,0.0940,2.6420,1.4980,2.3600,0
12761,0.1727,-0.0079,0.3456,-0.0010,0.0044,0.0092,-0.04,0.17,-0.30,0,3.769,-0.324,0.196,0.580,0.004,-0.015,1.001,0.000,0.000,0.000,0.3490,0,0,-0.63,-0.78,0.49,0.1894,-0.0105,0.3465,0.1143,-0.0080,0.3000,0.2552,0.23,-4.31,8.91,1.6550,0.0860,2.6550,1.5080,2.3670,0
12813,0.1729,-0.0096,0.3476,-0.0016,0.0012,0.0176,0.01,0.11,-0.27,0,3.764,-1.993,-0.011,1.002,0.007,-0.013,0.997,0.000,0.000,0.000,0.3450,0,0,-0.65,-0.77,0.52,0.1874,-0.0109,0.3478,0.1143,-0.0080,0.3000,0.2539,-0.05,-4.33,7.98,1.6550,0.0860,2.6550,1.5080,2.3670,0
12865,0.1737,-0.0095,0.3470,-0.0009,0.0011,0.0104,-0.00,0.07,-0.22,0,3.769,0.874,0.596,1.469,0.004,-0.014,0.993,0.000,0.000,0.000,0.3490,0,0,-0.75,-0.77,0.57,0.1852,-0.0114,0.3474,0.1143,-0.0080,0.3000,0.2548,-0.05,-4.40,6.68,1.6490,0.0860,2.6740,1.5040,2.3610,0
12916,0.1736,-0.0085,0.3483,-0.0014,0.0029,0.0119,0.07,0.04,-0.19,0,3.764,1.042,0.365,0.839,0.004,-0.017,0.996,0.000,0.000,0.000,0.3460,1,0,-0.71,-0.74,0.64,0.1828,-0.0119,0.3481,0.1143,-0.0080,0.3000,0.2544,0.12,-4.37,5.67,1.6490,0.0860,2.6740,1.5040,2.3610,0
12967,0.1749,-0.0082,0.3476,0.0010,0.0027,0.0037,0.08,0.02,-0.15,0,3.764,2.076,-1.707,-0.268,0.008,-0.011,0.996,0.000,0.000,0.000,0.3460,1,0,-0.65,-0.65,0.68,0.1934,-0.0137,0.3478,0.1143,-0.0080,0.3000,0.2554,0.13,-4.57,4.63,1.6540,0.0950,2.6820,1.4980,2.3640,0
13018,0.1753,-0.0094,0.3469,0.0017,-0.0004,-0.0020,0.09,0.08,-0.14,0,3.758,-1.611,-1.718,0.376,0.003,-0.014,0.997,0.000,0.000,0.000,0.3460,1,0,-0.54,-0.73,0.66,0.1931,-0.0155,0.3472,0.1143,-0.0080,0.3000,0.2561,-0.10,-4.62,4.29,1.6540,0.0950,2.6820,1.4980,2.3640,0
13070,0.1750,-0.0118,0.3464,0.0003,-0.0059,-0.0050,0.06,0.16,-0.12,0,3.764,-0.911,0.960,-0.064,0.005,-0.010,0.998,0.000,0.000,0.000,0.3470,0,1,-0.61,-0.82,0.68,0.1927,-0.0176,0.3467,0.1143,-0.0080,0.3000,0.2565,-0.54,-4.53,3.52,1.6520,0.0000,2.6570,1.5070,2.3630,0
13120,0.1760,-0.0124,0.3465,0.0009,-0.0069,-0.0033,-0.05,0.19,-0.11,0,3.758,-1.761,1.623,-0.089,0.005,-0.013,0.999,0.000,0.000,0.000,0.3450,0,1,-0.66,-0.78,0.68,0.1906,-0.0183,0.3466,0.1143,-0.0080,0.3000,0.2563,-0.64,-4.63,3.23,1.6520,0.0000,2.6570,1.5070,2.3630,0
13172,0.1765,-0.0134,0.3456,0.0005,-0.0079,-0.0067,-0.05,0.13,-0.12,0,3.769,1.108,-0.601,-0.953,0.002,-0.016,1.000,0.000,0.000,0.000,0.3480,0,-2,-0.76,-0.71,0.68,0.1880,-0.0189,0.3458,0.1143,-0.0080,0.3000,0.2569,-0.76,-4.64,3.50,1.6510,0.0880,2.6620,0.0000,2.3610,0
13224,0.1788,-0.0133,0.3465,0.0038,-0.0066,-0.0003,-0.05,0.14,-0.16,0,3.758,-2.283,1.083,-0.009,0.005,-0.013,0.996,0.000,0.000,0.000,0.3470,-1,0,-0.70,-0.70,0.63,0.1916,-0.0193,0.3463,0.1143,-0.0080,0.3000,0.2560,-0.69,-4.98,4.72,1.6510,0.0880,2.6620,0.0000,2.3610,0
13276,0.1807,-0.0155,0.3467,0.0066,-0.0097,0.0010,-0.12,0.10,-0.18,0,3.764,0.248,-1.231,-1.104,0.002,-0.014,1.001,0.000,0.000,0.000,0.3470,0,-1,-0.85,-0.64,0.65,0.1913,-0.0172,0.3462,0.1143,-0.0080,0.3000,0.2558,-1.00,-5.26,5.48,1.6520,0.0000,2.6440,1.5030,2.3610,0
13326,0.1837,-0.0149,0.3469,0.0114,-0.0064,0.0007,-0.19,0.07,-0.22,0,3.758,-1.055,-3.016,0.091,0.004,-0.015,0.998,0.000,0.000,0.000,0.3450,0,0,-0.83,-0.68,0.59,0.1936,-0.0172,0.3462,0.1143,-0.0080,0.3000,0.2558,-0.80,-5.71,6.74,1.6520,0.0000,2.6440,1.5030,2.3610,0
13377,0.1850,-0.0174,0.3460,0.0119,-0.0095,-0.0031,-0.18,0.23,-0.26,0,3.758,-0.796,-2.103,-0.308,0.004,-0.014,0.998,0.000,0.000,0.000,0.3420,-1,0,-0.89,-0.83,0.60,0.1931,-0.0175,0.3456,0.1143,-0.0080,0.3000,0.2564,-1.13,-5.81,7.76,1.6440,0.0900,2.6320,1.5080,2.3670,0
13429,0.1884,-0.0178,0.3440,0.0160,-0.0079,-0.0116,-0.15,0.35,-0.29,0,3.758,-0.990,-0.533,0.205,0.007,-0.016,1.005,0.000,0.000,0.000,0.3440,1,0,-0.96,-0.92,0.61,0.1943,-0.0129,0.3441,0.1143,-0.0080,0.3000,0.2577,-1.08,-6.22,8.73,1.6440,0.0900,2.6320,1.5080,2.3670,0
13479,0.1895,-0.0179,0.3436,0.0139,-0.0060,-0.0093,-0.17,0.41,-0.30,0,3.758,-1.145,-0.030,-0.054,0.004,-0.015,1.005,0.000,0.000,0.000,0.3400,0,0,-0.99,-0.95,0.60,0.1941,-0.0151,0.3437,0.1143,-0.0080,0.3000,0.2575,-0.99,-6.20,8.91,1.6420,0.0910,0.0000,1.4900,2.3750,0
13530,0.1894,-0.0192,0.3416,0.0090,-0.0068,-0.0147,-0.19,0.37,-0.29,0,3.753,1.900,-3.700,0.210,0.001,-0.013,1.006,0.000,0.000,0.000,0.3410,0,0,-1.05,-0.95,0.60,0.1932,-0.0149,0.3423,0.1143,-0.0080,0.3000,0.2585,-1.11,-5.94,8.83,1.6420,0.0910,0.0000,1.4900,2.3750,0
13581,0.1901,-0.0206,0.3408,0.0061,-0.0077,-0.0127,-0.12,0.44,-0.29,0,3.758,-0.164,1.620,-0.302,0.007,-0.012,1.009,0.000,0.000,0.000,0.3400,0,1,-0.95,-1.14,0.62,0.1919,-0.0146,0.3417,0.1143,-0.0080,0.3000,0.2584,-1.26,-5.85,8.75,1.6360,0.0900,2.6440,1.5060,2.3660,0
13632,0.1921,-0.0210,0.3400,0.0064,-0.0066,-0.0110,-0.17,0.34,-0.28,0,3.753,-0.535,0.782,1.880,0.001,-0.015,1.005,0.000,0.000,0.000,0.3420,0,-2,-0.95,-1.04,0.59,0.1921,-0.0158,0.3411,0.1143,-0.0080,0.3000,0.2584,-1.24,-6.01,8.26,1.6360,0.0900,2.6440,1.5060,2.3660,0
13684,0.1931,-0.0231,0.3406,0.0052,-0.0093,-0.0021,-0.21,0.24,-0.22,0,3.764,0.719,-1.551,1.449,0.004,-0.013,1.006,0.000,0.000,0.000,0.3440,-1,0,-0.98,-0.97,0.70,0.1944,-0.0156,0.3415,0.1143,-0.0080,0.3000,0.2573,-1.52,-6.06,6.56,1.6360,0.0850,2.6030,1.5030,2.3690,0
13736,0.1981,-0.0232,0.3422,0.0139,-0.0072,0.0084,-0.16,0.17,-0.18,0,3.753,1.609,-1.800,-0.358,0.002,-0.012,1.001,0.000,0.000,0.000,0.3390,1,0,-0.95,-1.05,0.80,0.1938,-0.0136,0.3425,0.1143,-0.0080,0.3000,0.2558,-1.44,-6.86,5.38,1.6360,0.0850,2.6030,1.5030,2.3690,0
13788,0.1991,-0.0234,0.3410,0.0133,-0.0057,0.0015,-0.17,0.17,-0.17,0,3.758,0.918,-3.032,0.024,0.003,-0.014,1.002,0.000,0.000,0.000,0.3400,2,0,-0.85,-1.14,0.76,0.1932,-0.0155,0.3418,0.1143,-0.0080,0.3000,0.2568,-1.38,-6.88,5.01,1.6370,0.0000,2.6150,1.5030,2.3670,0
13840,0.1993,-0.0250,0.3406,0.0106,-0.0072,-0.0006,-0.14,0.26,-0.14,0,3.753,1.086,-1.517,0.697,0.007,-0.010,1.001,0.000,0.000,0.000,0.3400,1,0,-0.77,-1.28,0.73,0.1926,-0.0201,0.3415,0.1143,-0.0080,0.3000,0.2571,-1.56,-6.76,4.26,1.6370,0.0000,2.6150,1.5030,2.3670,0
13891,0.2009,-0.0262,0.3403,0.0106,-0.0078,-0.0021,-0.16,0.38,-0.10,0,3.758,0.291,-0.233,1.023,0.003,-0.013,1.002,0.000,0.000,0.000,0.3390,0,0,-0.70,-1.35,0.75,0.1921,-0.0227,0.3413,0.1143,-0.0080,0.3000,0.2573,-1.68,-6.87,3.06,1.6310,0.0000,2.6060,1.5180,2.3730,0
13942,0.2024,-0.0261,0.3396,0.0099,-0.0055,-0.0048,-0.17,0.40,-0.08,0,3.753,-0.427,1.159,0.922,0.005,-0.009,1.004,0.000,0.000,0.000,0.3370,0,0,-0.69,-1.36,0.80,0.1900,-0.0238,0.3407,0.1143,-0.0080,0.3000,0.2578,-1.55,-6.93,2.29,1.6310,0.0000,2.6060,1.5180,2.3730,0
13994,0.2038,-0.0251,0.3382,0.0087,-0.0011,-0.0095,-0.18,0.31,-0.02,0,3.753,-1.376,-0.726,0.714,0.007,-0.013,1.006,0.000,0.000,0.000,0.3390,0,-1,-0.71,-1.30,0.85,0.1874,-0.0249,0.3398,0.1143,-0.0080,0.3000,0.2585,-1.27,-6.95,0.63,1.6340,0.0890,2.6000,1.5190,2.3730,0
14045,0.2049,-0.0271,0.3382,0.0077,-0.0040,-0.0061,-0.09,0.33,0.03,0,3.753,-1.004,-1.786,1.182,0.001,-0.010,1.005,0.000,0.000,0.000,0.3360,-1,-2,-0.81,-1.24,0.95,0.2004,-0.0217,0.3402,0.1143,-0.0080,0.3000,0.2582,-1.55,-6.99,-0.82,1.6340,0.0890,2.6000,1.5190,2.3730,0
14095,0.2042,-0.0274,0.3369,0.0026,-0.0035,-0.0098,-0.11,0.39,0.07,0,3.758,-0.260,1.570,0.013,0.007,-0.011,1.006,0.000,0.000,0.000,0.3360,1,-3,-0.87,-1.31,1.03,0.2034,-0.0200,0.3391,0.1143,-0.0080,0.3000,0.2588,-1.55,-6.69,-2.24,1.6280,0.0840,2.6040,1.5170,2.3700,0
14146,0.2080,-0.0274,0.3361,0.0078,-0.0022,-0.0088,-0.12,0.28,0.10,0,3.753,0.796,2.979,1.571,0.006,-0.011,1.006,0.000,0.000,0.000,0.3340,0,0,-0.87,-1.19,1.02,0.2087,-0.0217,0.3384,0.1143,-0.0080,0.3000,0.2588,-1.48,-7.20,-2.89,1.6280,0.0840,2.6040,1.5170,2.3700,0
14197,0.2070,-0.0292,0.3348,0.0025,-0.0049,-0.0110,-0.14,0.22,0.13,0,3.753,-0.382,-1.197,0.961,0.007,-0.014,1.006,0.000,0.000,0.000,0.3380,1,0,-0.83,-1.04,1.10,0.2092,-0.0217,0.3374,0.1143,-0.0080,0.3000,0.2593,-1.74,-6.88,-3.99,1.6290,0.0000,2.5910,1.5150,2.3710,0
14249,0.2109,-0.0281,0.3360,0.0093,-0.0010,-0.0010,-0.09,0.18,0.17,0,3.753,-1.628,-0.755,1.123,0.006,-0.012,1.003,0.000,0.000,0.000,0.3380,0,0,-0.83,-1.10,1.11,0.2090,-0.0252,0.3380,0.1143,-0.0080,0.3000,0.2580,-1.49,-7.50,-5.24,1.6290,0.0000,2.5910,1.5150,2.3710,0
14301,0.2147,-0.0291,0.3369,0.0158,-0.0022,0.0051,-0.09,0.19,0.21,0,3.758,-0.094,-0.082,0.296,0.009,-0.014,0.999,0.000,0.000,0.000,0.3350,0,0,-0.91,-1.14,1.17,0.2088,-0.0259,0.3384,0.1143,-0.0080,0.3000,0.2572,-1.62,-8.11,-6.33,1.6310,0.0920,2.5740,1.5110,2.3730,0
14352,0.2164,-0.0290,0.3363,0.0169,-0.0009,0.0018,-0.14,0.19,0.23,0,3.753,1.742,-0.329,-0.199,0.003,-0.015,1.002,0.000,0.000,0.000,0.3360,0,0,-0.92,-1.14,1.19,0.2083,-0.0265,0.3378,0.1143,-0.0080,0.3000,0.2577,-1.55,-8.27,-6.85,1.6310,0.0920,2.5740,1.5110,2.3730,0
14403,0.2161,-0.0298,0.3362,0.0127,-0.0016,0.0016,-0.09,0.28,0.22,0,3.758,1.679,-1.640,0.257,0.002,-0.015,0.996,0.000,0.000,0.000,0.3370,1,-1,-0.83,-1.16,1.18,0.2074,-0.0271,0.3375,0.1143,-0.0080,0.3000,0.2577,-1.63,-8.05,-6.57,1.6240,0.0000,2.5750,1.5150,2.3730,0
14455,0.2170,-0.0288,0.3367,0.0110,0.0014,0.0039,-0.06,0.34,0.21,0,3.753,1.517,0.200,-0.294,0.003,-0.012,0.998,0.000,0.000,0.000,0.3370,0,0,-0.74,-1.18,1.20,0.2156,-0.0285,0.3376,0.1143,-0.0080,0.3000,0.2573,-1.43,-8.04,-6.31,1.6240,0.0000,2.5750,1.5150,2.3730,0
14506,0.2182,-0.0298,0.3370,0.0097,-0.0004,0.0039,-0.01,0.33,0.18,0,3.753,-0.203,0.712,-1.176,0.004,-0.008,0.999,0.000,0.000,0.000,0.3340,0,-2,-0.66,-1.17,1.19,0.2155,-0.0293,0.3375,0.1143,-0.0080,0.3000,0.2573,-1.59,-8.07,-5.41,1.6280,0.0860,2.5620,1.5220,2.3760,0
14558,0.2181,-0.0300,0.3357,0.0057,-0.0009,-0.0038,-0.00,0.30,0.13,0,3.748,-2.337,-0.492,-0.604,0.001,-0.011,1.003,0.000,0.000,0.000,0.3340,1,1,-0.67,-1.09,1.14,0.2200,-0.0290,0.3364,0.1143,-0.0080,0.3000,0.2584,-1.62,-7.84,-3.95,1.6280,0.0860,2.5620,1.5220,2.3760,0
14609,0.2198,-0.0296,0.3347,0.0063,0.0002,-0.0065,-0.07,0.33,0.10,0,3.753,2.019,1.420,-0.374,0.006,-0.010,1.004,0.000,0.000,0.000,0.3360,0,-1,-0.79,-1.13,1.09,0.2189,-0.0306,0.3357,0.1143,-0.0080,0.3000,0.2588,-1.53,-7.98,-2.85,1.6210,0.0000,2.5530,1.5120,2.3730,0
14661,0.2201,-0.0298,0.3351,0.0039,0.0002,-0.0023,0.00,0.24,0.09,0,3.748,0.666,0.264,-0.283,0.003,-0.013,1.002,0.000,0.000,0.000,0.3350,-2,0,-0.68,-1.05,1.08,0.2201,-0.0309,0.3358,0.1143,-0.0080,0.3000,0.2583,-1.55,-7.91,-2.57,1.6210,0.0000,2.5530,1.5120,2.3730,0
14711,0.2185,-0.0311,0.3350,-0.0023,-0.0025,-0.0007,0.01,0.25,0.09,0,3.753,0.229,0.573,0.727,0.004,-0.010,1.004,0.000,0.000,0.000,0.3350,0,-1,-0.68,-1.03,1.10,0.2200,-0.0276,0.3356,0.1143,-0.0080,0.3000,0.2582,-1.77,-7.51,-2.84,1.6220,0.0000,2.5320,1.5100,2.3650,0
14763,0.2190,-0.0308,0.3350,-0.0033,-0.0019,0.0003,-0.05,0.23,0.13,0,3.748,-0.697,1.945,1.316,0.002,-0.013,1.001,0.000,0.000,0.000,0.3320,0,-1,-0.67,-0.98,1.13,0.2216,-0.0274,0.3355,0.1143,-0.0080,0.3000,0.2580,-1.72,-7.50,-3.97,1.6220,0.0000,2.5320,1.5100,2.3650,0
14815,0.2223,-0.0306,0.3336,0.0024,-0.0010,-0.0054,-0.04,0.16,0.17,0,3.748,1.957,0.164,0.808,0.001,-0.013,1.003,0.000,0.000,0.000,0.3320,1,-3,-0.71,-0.86,1.20,0.2236,-0.0272,0.3346,0.1143,-0.0080,0.3000,0.2589,-1.66,-7.98,-5.06,1.6200,0.0000,2.5270,1.5150,2.3850,0
14867,0.2209,-0.0309,0.3326,-0.0021,-0.0014,-0.0073,-0.01,0.06,0.19,0,3.748,-0.931,0.405,-0.108,0.005,-0.011,1.002,0.000,0.000,0.000,0.3310,0,-2,-0.59,-0.80,1.22,0.2308,-0.0295,0.3339,0.1143,-0.0080,0.3000,0.2593,-1.70,-7.66,-5.62,1.6200,0.0000,2.5270,1.5150,2.3850,0
14919,0.2264,-0.0306,0.3316,0.0096,-0.0005,-0.0091,-0.04,0.01,0.20,0,3.753,2.087,-1.419,1.723,0.002,-0.011,1.004,0.000,0.000,0.000,0.3340,1,-1,-0.64,-0.74,1.21,0.2362,-0.0295,0.3329,0.1143,-0.0080,0.3000,0.2597,-1.64,-8.58,-6.03,1.6210,0.0000,2.5190,1.5190,2.3710,0
14971,0.2275,-0.0295,0.3324,0.0107,0.0024,-0.0012,-0.04,0.05,0.25,0,3.748,1.158,-2.722,0.110,0.009,-0.011,1.005,0.000,0.000,0.000,0.3310,-1,-2,-0.51,-0.81,1.29,0.2393,-0.0322,0.3333,0.1143,-0.0080,0.3000,0.2587,-1.42,-8.75,-7.63,1.6210,0.0000,2.5190,1.5190,2.3710,0
15022,0.2296,-0.0296,0.3317,0.0133,0.0023,-0.0024,0.01,0.17,0.28,0,3.748,0.466,-2.270,0.602,0.000,-0.011,1.000,0.000,0.000,0.000,0.3300,1,0,-0.47,-0.92,1.30,0.2451,-0.0293,0.3327,0.1143,-0.0080,0.3000,0.2589,-1.44,-9.01,-8.53,1.6200,0.0000,2.5340,1.5290,2.3790,0
15074,0.2304,-0.0288,0.3308,0.0120,0.0038,-0.0044,0.04,0.26,0.32,0,3.748,-1.351,0.685,1.507,0.005,-0.009,1.007,0.000,0.000,0.000,0.3330,0,0,-0.43,-1.05,1.33,0.2455,-0.0322,0.3319,0.1143,-0.0080,0.3000,0.2593,-1.31,-8.98,-9.67,1.6200,0.0000,2.5340,1.5290,2.3790,0
15125,0.2307,-0.0305,0.3318,0.0092,-0.0004,0.0018,0.01,0.27,0.37,0,3.748,-0.743,0.534,0.415,0.004,-0.011,1.003,0.000,0.000,0.000,0.3280,0,-1,-0.51,-1.01,1.41,0.2470,-0.0330,0.3324,0.1143,-0.0080,0.3000,0.2585,-1.63,-8.90,-11.06,1.6220,0.0000,2.5200,1.5180,2.3830,0
15177,0.2320,-0.0305,0.3301,0.0091,-0.0005,-0.0045,0.01,0.24,0.38,0,3.748,-1.445,-0.314,0.936,0.003,-0.015,0.999,0.000,0.000,0.000,0.3330,1,0,-0.56,-0.98,1.43,0.2495,-0.0314,0.3313,0.1143,-0.0080,0.3000,0.2595,-1.63,-8.97,-11.46,1.6220,0.0000,2.5200,1.5180,2.3830,0
15229,0.2321,-0.0314,0.3314,0.0063,-0.0025,0.0023,0.03,0.23,0.43,0,3.753,-2.382,-1.512,0.429,0.005,-0.013,1.004,0.000,0.000,0.000,0.3320,0,2,-0.62,-1.00,1.48,0.2499,-0.0340,0.3319,0.1143,-0.0080,0.3000,0.2585,-1.80,-8.88,-12.97,1.6150,0.0000,2.5050,1.5250,2.3820,0
15280,0.2349,-0.0325,0.3318,0.0101,-0.0050,0.0038,0.00,0.27,0.44,0,3.743,0.184,1.214,0.344,0.008,-0.017,0.998,0.000,0.000,0.000,0.3300,0,3,-0.75,-1.11,1.52,0.2449,-0.0343,0.3321,0.1143,-0.0080,0.3000,0.2582,-2.00,-9.26,-13.22,1.6150,0.0000,2.5050,1.5250,2.3820,0
15332,0.2331,-0.0331,0.3311,0.0033,-0.0056,-0.0008,-0.10,0.21,0.47,0,3.748,2.274,3.018,1.535,0.003,-0.013,0.999,0.000,0.000,0.000,0.3290,0,0,-0.75,-1.10,1.55,0.2369,-0.0347,0.3315,0.1143,-0.0080,0.3000,0.2589,-2.06,-8.79,-14.05,1.6200,0.0900,0.0000,1.5250,2.3730,0
15384,0.2323,-0.0334,0.3300,-0.0003,-0.0053,-0.0053,-0.08,0.13,0.50,0,3.748,0.583,-2.330,0.359,0.002,-0.012,0.999,0.000,0.000,0.000,0.3310,0,0,-0.63,-0.94,1.63,0.2342,-0.0356,0.3307,0.1143,-0.0080,0.3000,0.2595,-2.07,-8.55,-15.06,1.6200,0.0900,0.0000,1.5250,2.3730,0
15434,0.2345,-0.0324,0.3303,0.0035,-0.0018,-0.0019,-0.09,0.09,0.51,0,3.748,-1.856,0.397,0.495,0.002,-0.013,1.004,0.000,0.000,0.000,0.3290,0,-1,-0.60,-1.06,1.65,0.2314,-0.0365,0.3307,0.1143,-0.0080,0.3000,0.2591,-1.84,-8.90,-15.21,1.6130,0.0000,2.4810,1.5260,2.3750,0
15486,0.2333,-0.0332,0.3296,-0.0002,-0.0027,-0.0046,-0.12,0.10,0.52,0,3.743,-0.222,-1.057,-0.211,0.004,-0.010,1.005,0.000,0.000,0.000,0.3270,0,1,-0.71,-0.93,1.66,0.2459,-0.0334,0.3307,0.1143,-0.0080,0.3000,0.2596,-1.93,-8.63,-15.62,1.6130,0.0000,2.4810,1.5260,2.3750,0
15537,0.2330,-0.0343,0.3281,-0.0021,-0.0039,-0.0088,-0.07,0.15,0.52,0,3.748,1.062,1.866,-0.191,0.004,-0.017,1.004,0.000,0.000,0.000,0.3310,0,-1,-0.73,-1.00,1.65,0.2441,-0.0335,0.3297,0.1143,-0.0080,0.3000,0.2603,-2.06,-8.49,-15.71,1.6210,0.0000,2.4590,1.5230,2.3830,0
15589,0.2347,-0.0333,0.3291,0.0004,-0.0010,-0.0016,-0.07,0.12,0.51,0,3.743,0.337,-0.707,-1.026,0.006,-0.012,1.004,0.000,0.000,0.000,0.3260,0,-4,-0.67,-0.89,1.64,0.2453,-0.0336,0.3302,0.1143,-0.0080,0.3000,0.2593,-1.86,-8.77,-15.31,1.6210,0.0000,2.4590,1.5230,2.3830,0
15640,0.2332,-0.0351,0.3276,-0.0036,-0.0040,-0.0068,-0.10,0.06,0.47,0,3.748,-0.821,0.865,0.208,0.003,-0.014,1.005,0.000,0.000,0.000,0.3300,-2,-2,-0.66,-0.86,1.58,0.2533,-0.0335,0.3291,0.1143,-0.0080,0.3000,0.2602,-2.12,-8.45,-14.14,1.6100,0.0900,2.4580,1.5180,2.3820,0
15691,0.2330,-0.0362,0.3285,-0.0047,-0.0055,-0.0003,-0.11,0.08,0.46,0,3.743,2.172,3.349,0.252,0.005,-0.010,1.002,0.000,0.000,0.000,0.3250,-1,1,-0.73,-0.79,1.61,0.2579,-0.0291,0.3296,0.1143,-0.0080,0.3000,0.2593,-2.28,-8.41,-13.91,1.6100,0.0900,2.4580,1.5180,2.3820,0
15742,0.2337,-0.0354,0.3268,-0.0035,-0.0025,-0.0055,-0.09,-0.03,0.49,0,3.743,-2.613,-3.739,0.313,0.005,-0.011,1.002,0.000,0.000,0.000,0.3260,1,1,-0.63,-0.64,1.62,0.2558,-0.0265,0.3285,0.1143,-0.0080,0.3000,0.2602,-2.07,-8.49,-14.75,1.6160,0.0000,2.3910,1.5360,2.3840,0
15794,0.2355,-0.0343,0.3262,0.0010,0.0006,-0.0060,-0.06,0.05,0.52,0,3.743,2.172,-0.523,-0.191,0.002,-0.008,1.004,0.000,0.000,0.000,0.3280,-1,-3,-0.74,-0.85,1.64,0.2534,-0.0289,0.3279,0.1143,-0.0080,0.3000,0.2603,-1.85,-8.82,-15.55,1.6160,0.0000,2.3910,1.5360,2.3840,0
15846,0.2357,-0.0352,0.3269,0.0012,-0.0006,0.0004,-0.07,-0.02,0.51,0,3.748,0.217,1.281,0.493,0.003,-0.013,1.005,0.000,0.000,0.000,0.3270,0,0,-0.64,-0.82,1.63,0.2614,-0.0258,0.3282,0.1143,-0.0080,0.3000,0.2595,-1.98,-8.87,-15.42,1.6160,0.0000,2.4150,1.5310,2.3800,0
15898,0.2415,-0.0340,0.3270,0.0130,0.0025,0.0016,-0.08,0.01,0.53,0,3.743,0.847,-1.939,0.022,0.006,-0.018,0.995,0.000,0.000,0.000,0.3300,0,-3,-0.63,-0.75,1.65,0.2623,-0.0248,0.3281,0.1143,-0.0080,0.3000,0.2594,-1.74,-9.84,-15.97,1.6160,0.0000,2.4150,1.5310,2.3800,0
15949,0.2424,-0.0349,0.3286,0.0133,0.0011,0.0081,-0.10,0.09,0.57,0,3.748,2.973,-1.718,0.992,0.003,-0.013,0.992,0.000,0.000,0.000,0.3270,0,-2,-0.58,-0.79,1.65,0.2739,-0.0258,0.3289,0.1143,-0.0080,0.3000,0.2584,-1.88,-9.95,-17.14,1.6100,0.0850,2.3210,1.5380,2.3790,0
16000,0.2436,-0.0337,0.3282,0.0133,0.0040,0.0030,-0.04,0.22,0.61,0,3.743,3.565,-1.684,0.717,0.002,-0.010,0.995,0.000,0.000,0.000,0.3260,0,0,-0.42,-0.86,1.69,0.2792,-0.0255,0.3282,0.1143,-0.0080,0.3000,0.2590,-1.65,-10.01,-18.31,1.6100,0.0850,2.3210,1.5380,2.3790,0
16051,0.2442,-0.0341,0.3271,0.0111,0.0031,-0.0042,-0.02,0.29,0.67,0,3.743,-0.924,0.536,-0.733,0.002,-0.017,1.001,0.000,0.000,0.000,0.3250,1,-1,-0.24,-0.94,1.73,0.2818,-0.0253,0.3274,0.1143,-0.0080,0.3000,0.2600,-1.72,-9.92,-20.10,1.6120,0.0880,0.0000,1.5280,2.3870,0
16102,0.2447,-0.0340,0.3259,0.0087,0.0032,-0.0106,-0.08,0.25,0.68,0,3.737,1.279,-0.023,0.715,0.003,-0.014,0.999,0.000,0.000,0.000,0.3220,0,0,-0.27,-0.92,1.69,0.2826,-0.0289,0.3264,0.1143,-0.0080,0.3000,0.2609,-1.70,-9.81,-20.51,1.6120,0.0880,0.0000,1.5280,2.3870,0
16154,0.2458,-0.0329,0.3235,0.0080,0.0053,-0.0191,0.01,0.26,0.69,0,3.737,-0.279,-0.488,0.475,0.006,-0.016,1.003,0.000,0.000,0.000,0.3220,-1,0,-0.20,-0.93,1.73,0.2844,-0.0300,0.3246,0.1143,-0.0080,0.3000,0.2622,-1.51,-9.80,-20.75,1.6090,0.0000,0.0000,1.5390,2.3820,0
16206,0.2458,-0.0318,0.3220,0.0050,0.0068,-0.0199,0.00,0.25,0.70,0,3.737,0.812,1.089,-0.267,0.003,-0.009,1.007,0.000,0.000,0.000,0.3230,0,-2,-0.26,-0.97,1.78,0.2826,-0.0248,0.3234,0.1143,-0.0080,0.3000,0.2626,-1.36,-9.66,-20.97,1.6090,0.0000,0.0000,1.5390,2.3820,0
16258,0.2460,-0.0293,0.3218,0.0030,0.0112,-0.0125,0.01,0.17,0.70,0,3.743,2.177,0.864,0.198,0.002,-0.010,1.005,0.000,0.000,0.000,0.3230,0,-5,-0.22,-0.89,1.75,0.2867,-0.0249,0.3229,0.1143,-0.0080,0.3000,0.2619,-0.99,-9.60,-21.10,1.6110,0.0000,0.0000,1.5490,2.3810,0
16309,0.2486,-0.0285,0.3219,0.0064,0.0118,-0.0066,0.06,0.10,0.70,0,3.737,2.148,-0.175,0.136,0.003,-0.013,1.003,0.000,0.000,0.000,0.3220,0,1,-0.11,-0.77,1.70,0.2974,-0.0248,0.3227,0.1143,-0.0080,0.3000,0.2612,-0.90,-9.97,-20.99,1.6110,0.0000,0.0000,1.5490,2.3810,0
16361,0.2497,-0.0298,0.3217,0.0069,0.0071,-0.0039,0.17,0.09,0.70,0,3.743,-1.112,-1.534,-1.629,0.002,-0.013,1.004,0.000,0.000,0.000,0.3210,0,-1,-0.00,-0.81,1.73,0.2961,-0.0249,0.3224,0.1143,-0.0080,0.3000,0.2609,-1.22,-10.07,-20.85,1.6080,0.0870,2.2010,1.5420,2.3880,0
16412,0.2576,-0.0280,0.3212,0.0216,0.0088,-0.0035,0.13,0.10,0.65,0,3.737,1.565,-2.926,-1.158,0.002,-0.016,1.003,0.000,0.000,0.000,0.3210,0,0,-0.06,-0.88,1.64,0.2988,-0.0251,0.3219,0.1143,-0.0080,0.3000,0.2610,-1.01,-11.30,-19.54,1.6080,0.0870,2.2010,1.5420,2.3880,0
16464,0.2582,-0.0276,0.3210,0.0197,0.0077,-0.0021,0.11,0.21,0.58,0,3.743,0.913,-2.003,-0.433,0.004,-0.013,1.005,0.000,0.000,0.000,0.3210,-1,0,0.02,-1.03,1.58,0.3003,-0.0261,0.3216,0.1143,-0.0080,0.3000,0.2609,-1.04,-11.26,-17.32,1.6060,0.0890,0.0000,1.5540,2.3860,0
16514,0.2602,-0.0275,0.3209,0.0197,0.0062,-0.0010,0.10,0.33,0.53,0,3.732,0.343,-3.841,-0.789,0.008,-0.013,1.001,0.000,0.000,0.000,0.3190,-1,-2,0.02,-1.15,1.59,0.2986,-0.0200,0.3215,0.1143,-0.0080,0.3000,0.2608,-1.10,-11.40,-15.97,1.6060,0.0890,0.0000,1.5540,2.3860,0
16566,0.2603,-0.0266,0.3200,0.0152,0.0064,-0.0043,0.11,0.39,0.49,0,3.737,0.870,-0.580,-1.321,0.006,-0.017,1.001,0.000,0.000,0.000,0.3180,0,0,0.02,-1.32,1.52,0.3028,-0.0179,0.3208,0.1143,-0.0080,0.3000,0.2613,-1.02,-11.18,-14.59,1.6050,0.0000,0.0000,1.5490,2.3850,0
16616,0.2594,-0.0258,0.3188,0.0082,0.0060,-0.0073,0.12,0.44,0.40,0,3.737,0.496,1.212,-2.344,0.002,-0.013,1.003,0.000,0.000,0.000,0.3200,0,-1,0.07,-1.35,1.45,0.3034,-0.0182,0.3199,0.1143,-0.0080,0.3000,0.2618,-0.99,-10.78,-12.07,1.6050,0.0000,0.0000,1.5490,2.3850,0
16668,0.2596,-0.0249,0.3192,0.0038,0.0061,-0.0025,0.13,0.40,0.30,0,3.737,1.570,-0.051,-1.300,0.002,-0.015,1.004,0.000,0.000,0.000,0.3170,-1,-1,0.09,-1.26,1.31,0.3069,-0.0174,0.3199,0.1143,-0.0080,0.3000,0.2613,-0.92,-10.61,-9.14,1.6010,0.0000,0.0000,1.5420,2.3870,0
16719,0.2598,-0.0238,0.3181,0.0014,0.0067,-0.0058,0.16,0.32,0.24,0,3.737,-0.097,0.034,-0.716,0.005,-0.014,1.008,0.000,0.000,0.000,0.3180,0,0,0.15,-1.25,1.24,0.3090,-0.0155,0.3190,0.1143,-0.0080,0.3000,0.2618,-0.81,-10.50,-7.10,1.6010,0.0000,0.0000,1.5420,2.3870,0
16771,0.2610,-0.0226,0.3179,0.0009,0.0073,-0.0028,0.18,0.29,0.19,0,3.737,-0.046,2.213,-1.321,0.008,-0.009,1.005,0.000,0.000,0.000,0.3160,0,1,0.15,-1.25,1.20,0.3093,-0.0162,0.3188,0.1143,-0.0080,0.3000,0.2615,-0.70,-10.57,-5.67,1.6020,0.0000,0.0000,1.5390,2.3920,0
16822,0.2614,-0.0226,0.3170,-0.0004,0.0052,-0.0036,0.15,0.17,0.15,0,3.732,0.913,1.463,-0.475,0.003,-0.009,1.008,0.000,0.000,0.000,0.3180,0,0,0.13,-1.16,1.18,0.3061,-0.0149,0.3181,0.1143,-0.0080,0.3000,0.2618,-0.80,-10.53,-4.51,1.6020,0.0000,0.0000,1.5390,2.3920,0
16874,0.2608,-0.0247,0.3174,-0.0029,-0.0013,0.0020,0.11,0.11,0.12,0,3.743,-0.382,-0.234,-0.109,0.005,-0.008,1.006,0.000,0.000,0.000,0.3190,0,-1,0.18,-1.08,1.16,0.3048,-0.0157,0.3184,0.1143,-0.0080,0.3000,0.2611,-1.26,-10.40,-3.55,1.5960,0.0910,0.0000,1.5280,2.3990,0
16925,0.2620,-0.0222,0.3183,-0.0010,0.0030,0.0076,0.07,0.08,0.07,0,3.732,-0.496,-1.203,-1.643,0.002,-0.011,1.001,0.000,0.000,0.000,0.3170,2,1,0.14,-1.05,1.09,0.3095,-0.0147,0.3192,0.1143,-0.0080,0.3000,0.2603,-0.88,-10.60,-2.00,1.5960,0.0910,0.0000,1.5280,2.3990,0
16977,0.2632,-0.0219,0.3180,0.0009,0.0027,0.0058,0.03,0.10,0.00,0,3.737,-3.194,-35.041,-1.498,0.008,-0.011,1.003,0.000,0.000,0.000,0.3160,1,-5,0.14,-1.12,1.00,0.3075,-0.0188,0.3190,0.1143,-0.0080,0.3000,0.2606,-0.87,-10.77,-0.05,1.5940,0.0850,0.0000,1.5490,2.3940,0
17029,0.2697,-0.0215,0.3173,0.0137,0.0034,0.0026,-0.11,1.32,-0.08,0,3.732,-4.775,-65.149,-0.321,-0.002,-0.008,1.006,0.000,0.000,0.000,0.3150,0,-4,-0.01,-2.86,0.78,0.3169,-0.0219,0.3191,0.1143,-0.0080,0.3000,0.2611,-0.81,-11.78,2.33,1.5940,0.0850,0.0000,1.5490,2.3940,0
17080,0.2752,-0.0213,0.3164,0.0121,0.0045,0.0001,-0.34,4.39,-0.12,0,3.737,1.022,-25.298,-1.390,0.000,-0.008,1.005,0.000,0.000,0.000,0.3180,-1,1,-0.27,-6.18,0.68,0.3254,-0.0227,0.3191,0.1143,-0.0080,0.3000,0.2615,-0.74,-12.07,3.69,1.5960,0.1040,0.0000,1.5490,2.3970,0
17132,0.2780,-0.0231,0.3172,-0.0188,0.0030,0.0042,-0.42,6.03,-0.17,0,3.732,1.229,0.229,-2.383,0.007,-0.010,1.005,0.000,0.000,0.000,0.3180,-1,0,-0.25,-7.48,0.74,0.3230,-0.0206,0.3192,0.1143,-0.0080,0.3000,0.2609,-0.94,-10.88,5.00,1.5960,0.1040,0.0000,1.5490,2.3970,0
17184,0.2774,-0.0232,0.3177,-0.0665,0.0060,0.0041,-0.43,6.16,-0.25,0,3.737,-0.198,-1.389,-0.765,0.007,-0.014,1.002,0.000,0.000,0.000,0.3210,1,3,-0.21,-7.45,0.74,0.3223,-0.0180,0.3197,0.1143,-0.0080,0.3000,0.2608,-0.81,-8.65,7.51,1.5400,0.1140,0.0000,1.5390,2.4090,0
17235,0.2710,-0.0230,0.3194,-0.1232,0.0094,0.0092,-0.47,6.18,-0.32,0,3.737,-0.271,9.732,-1.521,0.009,-0.015,1.003,0.000,0.000,0.000,0.3190,0,2,-0.19,-7.53,0.61,0.3129,-0.0211,0.3201,0.1143,-0.0080,0.3000,0.2599,-0.63,-5.57,9.53,1.5400,0.1140,0.0000,1.5390,2.4090,0
17286,0.2614,-0.0211,0.3194,-0.1801,0.0161,0.0050,-0.42,5.79,-0.39,0,3.737,2.608,26.031,-1.644,0.011,-0.019,0.998,0.000,0.000,0.000,0.3160,-2,9,-0.21,-7.02,0.59,0.3059,-0.0212,0.3205,0.1143,-0.0080,0.3000,0.2604,-0.17,-2.19,11.76,1.5600,0.1150,0.0000,1.5330,2.3990,0
17338,0.2456,-0.0202,0.3179,-0.2414,0.0200,-0.0055,-0.31,4.63,-0.47,0,3.732,2.678,28.284,-0.542,0.017,-0.015,1.002,0.000,0.000,0.000,0.3170,0,4,-0.16,-5.78,1.07,0.2809,-0.0145,0.3172,0.1143,-0.0080,0.3000,0.2618,0.07,1.84,14.11,1.5600,0.1150,0.0000,1.5330,2.3990,0
17390,0.2330,-0.0195,0.3173,-0.2801,0.0219,-0.0086,-0.14,3.16,-0.53,0,3.732,1.875,28.975,-0.959,0.017,-0.016,1.005,0.000,0.000,0.000,0.3120,1,15,-0.03,-4.28,1.05,0.2677,-0.0148,0.3175,0.1143,-0.0080,0.3000,0.2623,0.21,4.54,15.87,1.6160,0.0000,0.0000,1.5010,2.3980,0
17442,0.2222,-0.0145,0.3146,-0.2986,0.0321,-0.0179,-0.12,1.66,-0.59,0,3.727,2.411,26.435,-1.521,0.020,-0.013,1.010,0.000,0.000,0.000,0.3130,0,8,0.09,-2.94,1.04,0.2230,-0.0184,0.3116,0.1143,-0.0080,0.3000,0.2638,1.03,6.13,17.70,1.6160,0.0000,0.0000,1.5010,2.3980,0
17494,0.2048,-0.0132,0.3132,-0.3161,0.0327,-0.0167,-0.01,0.18,-0.67,0,3.732,1.779,25.449,-0.469,0.019,-0.011,1.013,0.000,0.000,0.000,0.3140,0,9,0.20,-1.57,1.06,0.1982,-0.0187,0.3111,0.1143,-0.0080,0.3000,0.2639,1.15,8.13,19.97,1.6600,0.0970,2.5320,1.4700,2.3950,0
17545,0.1891,-0.0118,0.3130,-0.3166,0.0325,-0.0100,0.12,-1.12,-0.68,0,3.727,3.342,23.044,0.306,0.020,-0.011,1.006,0.000,0.000,0.000,0.3100,0,10,0.29,-0.27,1.14,0.1707,-0.0191,0.3110,0.1143,-0.0080,0.3000,0.2632,1.25,9.26,20.32,1.6600,0.0970,2.5320,1.4700,2.3950,0
17597,0.1753,-0.0092,0.3113,-0.3031,0.0338,-0.0120,0.26,-2.34,-0.66,0,3.732,4.577,14.332,0.719,0.020,-0.012,1.011,0.000,0.000,0.000,0.3090,0,3,0.45,0.87,1.27,0.1399,-0.0196,0.3095,0.1143,-0.0080,0.3000,0.2638,1.49,9.57,19.70,1.6740,0.0000,2.5270,1.4430,2.4020,0
17649,0.1624,-0.0090,0.3098,-0.2789,0.0281,-0.0126,0.45,-3.17,-0.61,0,3.727,1.265,5.114,0.964,0.015,-0.012,1.009,0.000,0.000,0.000,0.3120,0,2,0.67,1.71,1.22,0.1301,-0.0200,0.3115,0.1143,-0.0080,0.3000,0.2641,1.24,9.33,18.40,1.6740,0.0000,2.5270,1.4430,2.4020,0
17700,0.1514,-0.0069,0.3105,-0.2463,0.0255,-0.0037,0.57,-3.57,-0.55,0,3.732,-0.726,2.330,1.732,0.012,-0.014,1.011,0.000,0.000,0.000,0.3060,0,8,0.72,2.07,1.15,0.1236,-0.0201,0.3136,0.1143,-0.0080,0.3000,0.2630,1.26,8.63,16.52,1.7000,0.0000,2.5140,1.4240,2.3990,0
17752,0.1405,-0.0068,0.3082,-0.2146,0.0182,-0.0110,0.59,-3.72,-0.45,0,3.721,-1.703,0.414,2.659,0.015,-0.012,1.009,0.000,0.000,0.000,0.3070,0,1,0.67,2.14,1.32,0.0995,-0.0206,0.3116,0.1143,-0.0080,0.3000,0.2642,0.93,7.89,13.41,1.7000,0.0000,2.5140,1.4240,2.3990,0
17804,0.1322,-0.0063,0.3073,-0.1784,0.0120,-0.0103,0.62,-3.83,-0.32,0,3.732,-3.298,-2.600,2.222,0.013,-0.008,1.002,0.000,0.000,0.000,0.3080,1,0,0.56,2.25,1.27,0.0966,-0.0205,0.3121,0.1143,-0.0080,0.3000,0.2643,0.67,6.79,9.50,1.7190,0.0780,2.5240,1.4170,2.4040,0
17856,0.1258,-0.0044,0.3072,-0.1417,0.0101,-0.0060,0.54,-3.70,-0.22,0,3.721,-3.399,-8.387,2.155,0.011,-0.013,1.006,0.000,0.000,0.000,0.3030,0,-1,0.39,2.19,1.23,0.0969,-0.0234,0.3122,0.1143,-0.0080,0.3000,0.2639,0.72,5.55,6.63,1.7190,0.0780,2.5240,1.4170,2.4040,0
17907,0.1213,-0.0053,0.3050,-0.1055,0.0024,-0.0125,0.46,-3.30,-0.13,0,3.727,1.730,-12.274,2.095,0.008,-0.015,1.010,0.000,0.000,0.000,0.3010,0,-1,0.18,1.84,1.12,0.1007,-0.0228,0.3105,0.1143,-0.0080,0.3000,0.2650,0.29,4.16,3.76,1.7260,0.0000,2.4540,1.4220,2.4060,0
17959,0.1174,-0.0050,0.3027,-0.0744,-0.0012,-0.0168,0.47,-2.76,-0.03,0,3.721,-6.089,-9.998,1.312,0.008,-0.012,1.014,0.000,0.000,0.000,0.3070,0,0,0.25,1.27,1.04,0.1040,-0.0224,0.3084,0.1143,-0.0080,0.3000,0.2659,0.14,2.97,1.00,1.7260,0.0000,2.4540,1.4220,2.4060,0
18011,0.1180,-0.0065,0.3042,-0.0410,-0.0081,-0.0015,0.27,-2.27,0.00,0,3.732,-4.244,-14.389,0.712,0.008,-0.011,1.011,0.000,0.000,0.000,0.3060,3,1,-0.07,0.75,1.11,0.1007,-0.0253,0.3088,0.1143,-0.0080,0.3000,0.2640,-0.29,1.39,-0.13,1.7350,0.0910,2.4890,1.4190,2.4020,0
18062,0.1157,-0.0083,0.3051,-0.0237,-0.0139,0.0068,0.09,-1.60,0.04,0,3.721,-2.140,-11.324,0.677,0.005,-0.016,1.005,0.000,0.000,0.000,0.3040,0,-3,-0.26,0.02,1.23,0.1023,-0.0326,0.3089,0.1143,-0.0080,0.3000,0.2629,-0.68,0.74,-1.30,1.7350,0.0910,2.4890,1.4190,2.4020,0
18113,0.1209,-0.0095,0.3049,0.0059,-0.0159,0.0075,-0.03,-1.09,0.05,0,3.732,-2.835,-13.194,-0.403,0.005,-0.014,1.008,0.000,0.000,0.000,0.3060,3,-2,-0.39,-0.50,1.12,0.1085,-0.0332,0.3086,0.1143,-0.0080,0.3000,0.2628,-0.87,-1.02,-1.43,1.7430,0.0950,2.3740,1.4320,2.3980,0
18165,0.1247,-0.0102,0.3058,0.0236,-0.0156,0.0113,-0.17,-0.43,0.07,0,3.727,-3.167,-15.008,0.017,0.010,-0.012,1.005,0.000,0.000,0.000,0.3090,0,0,-0.51,-1.14,1.17,0.1138,-0.0412,0.3088,0.1143,-0.0080,0.3000,0.2623,-0.90,-2.12,-2.24,1.7430,0.0950,2.3740,1.4320,2.3980,0
18216,0.1266,-0.0115,0.3078,0.0287,-0.0151,0.0200,-0.31,0.29,0.09,0,3.732,-2.046,-10.791,-0.172,0.008,-0.007,1.004,0.000,0.000,0.000,0.3120,-1,-2,-0.68,-1.92,1.18,0.1142,-0.0458,0.3100,0.1143,-0.0080,0.3000,0.2610,-0.98,-2.51,-2.70,1.7410,0.0980,0.0000,1.4400,2.3970,0
18268,0.1318,-0.0134,0.3107,0.0364,-0.0150,0.0296,-0.47,0.76,0.09,0,3.727,-1.113,-6.569,-0.965,0.002,-0.015,0.994,0.000,0.000,0.000,0.3100,0,0,-0.87,-2.42,0.96,0.1215,-0.0348,0.3126,0.1143,-0.0080,0.3000,0.2594,-1.11,-3.26,-2.67,1.7410,0.0980,0.0000,1.4400,2.3970,0
18318,0.1337,-0.0145,0.3115,0.0303,-0.0123,0.0252,-0.51,1.12,0.06,0,3.732,-0.765,-6.304,-1.829,0.005,-0.012,0.995,0.000,0.000,0.000,0.3130,1,0,-0.93,-2.76,0.92,0.1218,-0.0363,0.3130,0.1143,-0.0080,0.3000,0.2597,-1.07,-3.10,-1.89,1.7290,0.1020,2.2340,1.4400,2.3880,0
18370,0.1344,-0.0166,0.3132,0.0191,-0.0118,0.0244,-0.61,1.34,-0.01,0,3.727,0.152,-4.000,-1.885,0.006,-0.017,0.990,0.000,0.000,0.000,0.3160,0,0,-0.96,-3.07,0.83,0.1227,-0.0379,0.3141,0.1143,-0.0080,0.3000,0.2595,-1.19,-2.63,0.39,1.7290,0.1020,2.2340,1.4400,2.3880,0
18420,0.1425,-0.0158,0.3155,0.0261,-0.0035,0.0256,-0.61,1.50,-0.10,0,3.732,-0.568,-4.353,-1.886,0.012,-0.012,0.990,0.000,0.000,0.000,0.3160,0,0,-0.95,-3.28,0.74,0.1210,-0.0395,0.3155,0.1143,-0.0080,0.3000,0.2589,-0.74,-3.55,2.94,1.7210,0.0000,0.0000,1.4440,2.3920,0
18472,0.1435,-0.0159,0.3166,0.0133,0.0016,0.0205,-0.58,1.77,-0.18,0,3.727,0.423,-2.250,-1.677,0.009,-0.017,0.987,0.000,0.000,0.000,0.3160,0,0,-0.97,-3.50,0.65,0.1181,-0.0409,0.3162,0.1143,-0.0080,0.3000,0.2592,-0.50,-3.00,5.36,1.7210,0.0000,0.0000,1.4440,2.3920,0
18523,0.1450,-0.0153,0.3170,0.0016,0.0078,0.0124,-0.50,1.88,-0.26,0,3.732,1.722,2.223,-1.837,0.007,-0.012,0.988,0.000,0.000,0.000,0.3190,0,1,-0.94,-3.62,0.56,0.1140,-0.0424,0.3163,0.1143,-0.0080,0.3000,0.2600,-0.16,-2.55,7.75,1.7220,0.1080,0.0000,1.4350,2.3970,0
18575,0.1441,-0.0138,0.3183,-0.0155,0.0147,0.0096,-0.44,1.74,-0.36,0,3.727,5.495,4.567,-1.599,0.009,-0.010,0.989,0.000,0.000,0.000,0.3180,0,1,-0.89,-3.38,0.69,0.1291,-0.0383,0.3185,0.1143,-0.0080,0.3000,0.2601,0.28,-1.67,10.73,1.7220,0.1080,0.0000,1.4350,2.3970,0
18626,0.1438,-0.0117,0.3184,-0.0279,0.0218,0.0034,-0.24,1.51,-0.44,0,3.732,4.223,4.548,-1.241,0.006,-0.015,0.989,0.000,0.000,0.000,0.3160,-1,2,-0.60,-3.14,0.60,0.1260,-0.0384,0.3183,0.1143,-0.0080,0.3000,0.2607,0.76,-1.06,13.15,1.7190,0.1110,2.3570,1.4330,2.3910,0
18677,0.1424,-0.0103,0.3173,-0.0398,0.0245,-0.0067,-0.03,1.26,-0.54,0,3.721,4.825,4.825,-2.752,0.010,-0.013,0.991,0.000,0.000,0.000,0.3110,-2,0,-0.40,-2.92,0.58,0.1212,-0.0374,0.3172,0.1143,-0.0080,0.3000,0.2620,0.98,-0.39,16.07,1.7190,0.1110,2.3570,1.4330,2.3910,0
18729,0.1394,-0.0088,0.3139,-0.0520,0.0254,-0.0239,0.12,0.89,-0.66,0,3.721,5.803,6.248,-1.267,0.011,-0.012,1.002,0.000,0.000,0.000,0.3110,0,0,-0.17,-2.65,0.56,0.1188,-0.0348,0.3147,0.1143,-0.0080,0.3000,0.2645,1.12,0.40,19.66,1.7250,0.1080,0.0000,1.4200,2.3930,0
18779,0.1365,-0.0049,0.3115,-0.0600,0.0309,-0.0303,0.28,0.58,-0.74,0,3.716,1.680,5.922,-1.693,0.010,-0.015,1.008,0.000,0.000,0.000,0.3090,-1,3,0.13,-2.32,0.49,0.1133,-0.0343,0.3127,0.1143,-0.0080,0.3000,0.2657,1.65,0.97,22.20,1.7250,0.1080,0.0000,1.4200,2.3930,0
18831,0.1336,-0.0035,0.3091,-0.0644,0.0283,-0.0321,0.41,0.32,-0.83,0,3.721,3.229,6.096,-2.449,0.012,-0.012,1.013,0.000,0.000,0.000,0.3060,0,1,0.20,-2.00,0.49,0.1105,-0.0317,0.3110,0.1143,-0.0080,0.3000,0.2663,1.62,1.37,24.99,1.7350,0.0000,2.4190,1.4170,2.4030,0
18882,0.1277,-0.0017,0.3064,-0.0731,0.0262,-0.0329,0.58,0.03,-0.94,0,3.716,1.839,8.421,-1.586,0.006,-0.017,1.011,0.000,0.000,0.000,0.3050,0,5,0.37,-1.66,0.36,0.1062,-0.0316,0.3089,0.1143,-0.0080,0.3000,0.2669,1.64,2.18,28.33,1.7350,0.0000,2.4190,1.4170,2.4030,0
18934,0.1265,-0.0015,0.3046,-0.0675,0.0190,-0.0271,0.69,-0.36,-1.02,0,3.721,-0.229,3.832,-1.169,0.018,-0.012,1.021,0.000,0.000,0.000,0.3050,0,0,0.46,-1.28,0.31,0.0946,-0.0318,0.3068,0.1143,-0.0080,0.3000,0.2666,1.33,2.01,30.70,1.7300,0.1010,2.4980,1.4040,2.4000,0
18985,0.1215,-0.0006,0.3039,-0.0682,0.0131,-0.0162,0.68,-0.58,-1.09,0,3.716,0.225,1.859,-1.586,0.012,-0.009,1.024,0.000,0.000,0.000,0.3030,1,1,0.45,-1.08,0.25,0.0868,-0.0327,0.3060,0.1143,-0.0080,0.3000,0.2656,1.12,2.40,32.81,1.7300,0.1010,2.4980,1.4040,2.4000,0
19037,0.1172,-0.0005,0.3030,-0.0654,0.0061,-0.0080,0.68,-0.74,-1.16,0,3.721,-2.856,4.452,-0.879,0.008,-0.009,1.013,0.000,0.000,0.000,0.3000,0,1,0.47,-0.88,0.06,0.0924,-0.0343,0.3066,0.1143,-0.0080,0.3000,0.2649,0.80,2.57,34.69,1.7390,0.1000,0.0000,1.4020,2.4010,0
19089,0.1163,0.0000,0.3015,-0.0538,0.0011,-0.0052,0.56,-0.93,-1.20,0,3.716,-3.344,1.067,-0.744,0.005,-0.014,1.015,0.000,0.000,0.000,0.3030,0,0,0.31,-0.63,0.01,0.0888,-0.0350,0.3053,0.1143,-0.0080,0.3000,0.2649,0.60,2.10,35.89,1.7390,0.1000,0.0000,1.4020,2.4010,0
19141,0.1108,-0.0007,0.3022,-0.0528,-0.0054,0.0063,0.45,-1.01,-1.20,0,3.727,-2.057,-0.469,0.020,0.007,-0.014,1.014,0.000,0.000,0.000,0.3020,0,1,0.14,-0.58,-0.03,0.0839,-0.0371,0.3055,0.1143,-0.0080,0.3000,0.2635,0.25,2.45,36.01,1.7440,0.0000,2.4250,1.4040,2.3980,0
19193,0.1097,-0.0022,0.3025,-0.0411,-0.0123,0.0129,0.38,-1.01,-1.22,0,3.716,-4.042,1.240,-0.163,0.006,-0.007,1.009,0.000,0.000,0.000,0.3040,0,0,-0.01,-0.55,-0.10,0.0862,-0.0340,0.3060,0.1143,-0.0080,0.3000,0.2627,-0.18,1.98,36.59,1.7440,0.0000,2.4250,1.4040,2.3980,0
19243,0.1102,-0.0033,0.3039,-0.0269,-0.0164,0.0214,0.24,-1.08,-1.22,0,3.727,-3.759,-2.410,-0.737,0.009,-0.008,1.004,0.000,0.000,0.000,0.3030,1,0,-0.22,-0.48,-0.11,0.0829,-0.0354,0.3067,0.1143,-0.0080,0.3000,0.2615,-0.45,1.28,36.50,1.7460,0.0000,2.4070,1.4020,2.4030,0
19295,0.1090,-0.0058,0.3044,-0.0177,-0.0226,0.0214,0.09,-0.97,-1.22,0,3.716,-2.049,-4.015,0.402,0.006,-0.011,1.003,0.000,0.000,0.000,0.3010,0,-2,-0.41,-0.55,-0.19,0.0859,-0.0368,0.3070,0.1143,-0.0080,0.3000,0.2614,-0.92,0.94,36.58,1.7460,0.0000,2.4070,1.4020,2.4030,0
19346,0.1080,-0.0063,0.3037,-0.0103,-0.0220,0.0143,0.00,-0.85,-1.22,0,3.721,-4.352,-3.104,0.325,0.009,-0.014,1.004,0.000,0.000,0.000,0.3030,1,0,-0.52,-0.73,-0.20,0.0885,-0.0374,0.3064,0.1143,-0.0080,0.3000,0.2623,-0.93,0.66,36.57,1.7470,0.0000,0.0000,1.4080,2.3980,0
19398,0.1099,-0.0105,0.3039,0.0015,-0.0289,0.0134,-0.18,-0.69,-1.20,0,3.716,-4.594,-5.493,-0.605,0.003,-0.015,1.001,0.000,0.000,0.000,0.3020,0,1,-0.74,-0.88,-0.18,0.0882,-0.0399,0.3065,0.1143,-0.0080,0.3000,0.2624,-1.55,-0.04,36.04,1.7470,0.0000,0.0000,1.4080,2.3980,0
19448,0.1103,-0.0127,0.3036,0.0078,-0.0291,0.0105,-0.39,-0.47,-1.17,0,3.727,-4.556,-5.659,0.750,0.003,-0.011,1.006,0.000,0.000,0.000,0.3060,1,-1,-0.99,-1.18,-0.21,0.0857,-0.0403,0.3061,0.1143,-0.0080,0.3000,0.2628,-1.72,-0.37,35.11,1.7460,0.1020,0.0000,1.4090,2.4020,0
19501,0.1107,-0.0122,0.3052,0.0111,-0.0211,0.0177,-0.63,-0.19,-1.14,0,3.716,-2.004,-3.475,1.484,0.003,-0.014,1.000,0.000,0.000,0.000,0.3040,0,1,-1.21,-1.43,-0.16,0.0873,-0.0430,0.3072,0.1143,-0.0080,0.3000,0.2617,-1.31,-0.55,34.25,1.7460,0.1020,0.0000,1.4090,2.4020,0
19553,0.1117,-0.0132,0.3054,0.0134,-0.0156,0.0158,-0.73,0.04,-1.10,0,3.727,2.759,-0.984,-0.221,0.004,-0.010,0.997,0.000,0.000,0.000,0.3130,1,-1,-1.33,-1.62,-0.09,0.0845,-0.0432,0.3072,0.1143,-0.0080,0.3000,0.2618,-1.12,-0.73,32.89,1.7430,0.1040,0.0000,1.4120,2.3900,0
19605,0.1183,-0.0124,0.3097,0.0267,-0.0060,0.0307,-0.70,0.09,-1.06,0,3.716,3.726,-8.923,0.522,0.007,-0.010,0.993,0.000,0.000,0.000,0.3090,-1,0,-1.17,-1.64,-0.06,0.0865,-0.0459,0.3101,0.1143,-0.0080,0.3000,0.2594,-0.61,-1.84,31.80,1.7430,0.1040,0.0000,1.4120,2.3900,0
19657,0.1182,-0.0118,0.3106,0.0229,0.0016,0.0270,-0.59,0.34,-1.05,0,3.721,2.857,-4.276,0.546,0.008,-0.012,0.994,0.000,0.000,0.000,0.3090,0,-2,-1.00,-2.09,-0.02,0.0861,-0.0435,0.3107,0.1143,-0.0080,0.3000,0.2597,-0.21,-1.65,31.53,1.7360,0.1030,0.0000,1.4220,2.3880,0
19709,0.1194,-0.0100,0.3110,0.0195,0.0103,0.0206,-0.45,0.66,-1.04,0,3.721,2.839,0.351,0.391,0.004,-0.015,0.989,0.000,0.000,0.000,0.3140,-1,0,-0.85,-2.26,0.07,0.0914,-0.0436,0.3112,0.1143,-0.0080,0.3000,0.2603,0.34,-1.57,31.12,1.7360,0.1030,0.0000,1.4220,2.3880,0
19761,0.1223,-0.0085,0.3132,0.0185,0.0161,0.0224,-0.25,0.71,-1.04,0,3.727,3.265,-0.862,0.020,0.006,-0.011,0.994,0.000,0.000,0.000,0.3130,0,-1,-0.73,-2.23,0.12,0.0912,-0.0409,0.3125,0.1143,-0.0080,0.3000,0.2597,0.72,-1.74,31.22,1.7390,0.1090,0.0000,1.4340,2.3850,0
19812,0.1189,-0.0071,0.3141,0.0029,0.0191,0.0183,-0.05,0.77,-1.03,0,3.716,2.798,0.540,0.284,0.007,-0.015,0.991,0.000,0.000,0.000,0.3140,-1,-1,-0.55,-2.24,0.15,0.0940,-0.0409,0.3132,0.1143,-0.0080,0.3000,0.2599,0.96,-0.75,30.77,1.7390,0.1090,0.0000,1.4340,2.3850,0
19863,0.1227,-0.0028,0.3147,0.0047,0.0270,0.0138,0.12,0.81,-1.00,0,3.727,5.626,0.950,0.867,0.006,-0.014,0.993,0.000,0.000,0.000,0.3150,-1,0,-0.43,-2.19,0.21,0.0968,-0.0382,0.3138,0.1143,-0.0080,0.3000,0.2603,1.64,-1.10,30.00,1.7350,0.1080,2.4400,1.4220,2.3890,0
19915,0.1220,-0.0026,0.3154,-0.0038,0.0233,0.0097,0.38,0.76,-0.95,0,3.716,4.721,3.723,0.729,0.007,-0.007,0.991,0.000,0.000,0.000,0.3160,-1,-1,-0.16,-2.13,0.28,0.0966,-0.0353,0.3143,0.1143,-0.0080,0.3000,0.2606,1.49,-0.65,28.40,1.7350,0.1080,2.4400,1.4220,2.3890,0
19966,0.1225,-0.0001,0.3160,-0.0081,0.0229,0.0075,0.59,0.62,-0.90,0,3.727,3.951,3.204,1.538,0.009,-0.015,0.996,0.000,0.000,0.000,0.3190,-1,0,0.07,-1.90,0.36,0.0996,-0.0324,0.3148,0.1143,-0.0080,0.3000,0.2607,1.64,-0.48,27.02,1.7390,0.1110,2.5550,1.4240,2.3930,0
20017,0.1223,0.0039,0.3177,-0.0127,0.0247,0.0113,0.67,0.55,-0.82,0,3.716,2.699,2.411,2.156,0.009,-0.012,0.990,0.000,0.000,0.000,0.3150,-1,0,0.26,-1.72,0.46,0.0995,-0.0294,0.3161,0.1143,-0.0080,0.3000,0.2600,2.02,-0.25,24.48,1.7390,0.1110,2.5550,1.4240,2.3930,0
20068,0.1209,0.0056,0.3168,-0.0188,0.0202,0.0016,0.80,0.46,-0.71,0,3.721,2.631,3.391,2.571,0.009,-0.014,0.996,0.000,0.000,0.000,0.3180,0,1,0.38,-1.59,0.59,0.0995,-0.0263,0.3156,0.1143,-0.0080,0.3000,0.2612,1.92,0.14,21.16,1.7410,0.1100,2.5650,1.4220,2.3890,0
20119,0.1203,0.0063,0.3173,-0.0216,0.0125,0.0002,0.98,0.26,-0.58,0,3.711,1.078,0.941,2.229,0.007,-0.014,0.997,0.000,0.000,0.000,0.3110,0,0,0.51,-1.42,0.71,0.0963,-0.0263,0.3160,0.1143,-0.0080,0.3000,0.2613,1.60,0.32,17.30,1.7410,0.1100,2.5650,1.4220,2.3890,0
20170,0.1201,0.0072,0.3141,-0.0217,0.0048,-0.0163,1.08,0.16,-0.45,0,3.721,-3.935,1.430,2.270,0.011,-0.013,1.000,0.000,0.000,0.000,0.3140,0,0,0.57,-1.37,0.83,0.0934,-0.0263,0.3141,0.1143,-0.0080,0.3000,0.2637,1.28,0.33,13.40,1.7480,0.1050,2.6310,1.4220,2.3980,0
20221,0.1189,0.0070,0.3133,-0.0232,-0.0047,-0.0181,0.91,0.09,-0.31,0,3.711,-1.365,0.827,3.154,0.013,-0.010,1.005,0.000,0.000,0.000,0.3130,0,0,0.36,-1.30,0.95,0.0901,-0.0269,0.3136,0.1143,-0.0080,0.3000,0.2640,0.83,0.49,9.44,1.7480,0.1050,2.6310,1.4220,2.3980,0
20272,0.1170,0.0062,0.3125,-0.0255,-0.0131,-0.0163,0.79,-0.02,-0.17,0,3.716,-3.032,0.611,3.611,0.010,-0.013,1.007,0.000,0.000,0.000,0.3090,0,0,0.29,-1.26,1.11,0.0866,-0.0279,0.3130,0.1143,-0.0080,0.3000,0.2640,0.38,0.73,5.23,1.7500,0.1000,2.5250,1.4340,2.3900,0
20324,0.1148,0.0053,0.3101,-0.0273,-0.0198,-0.0216,0.62,-0.08,-0.02,0,3.711,-4.447,1.135,2.729,0.009,-0.011,1.007,0.000,0.000,0.000,0.3090,0,0,0.13,-1.23,1.29,0.0827,-0.0294,0.3115,0.1143,-0.0080,0.3000,0.2650,-0.00,0.96,0.72,1.7500,0.1000,2.5250,1.4340,2.3900,0
20376,0.1118,0.0030,0.3088,-0.0303,-0.0275,-0.0197,0.43,-0.15,0.12,0,3.716,-6.439,3.996,3.031,0.008,-0.012,1.011,0.000,0.000,0.000,0.3060,0,0,-0.10,-1.17,1.43,0.0785,-0.0312,0.3104,0.1143,-0.0080,0.3000,0.2650,-0.52,1.31,-3.71,1.7580,0.0970,2.4480,1.4330,2.4010,0
20426,0.1098,-0.0006,0.3066,-0.0299,-0.0355,-0.0208,0.21,-0.30,0.27,0,3.711,-5.922,1.850,2.610,0.008,-0.013,1.013,0.000,0.000,0.000,0.3060,2,0,-0.44,-0.96,1.59,0.0742,-0.0332,0.3089,0.1143,-0.0080,0.3000,0.2655,-1.15,1.43,-8.00,1.7580,0.0970,2.4480,1.4330,2.4010,0
20478,0.1088,-0.0014,0.3056,-0.0261,-0.0348,-0.0163,-0.02,-0.42,0.40,0,3.716,-4.250,2.169,1.338,0.011,-0.011,1.008,0.000,0.000,0.000,0.3050,3,0,-0.78,-0.73,1.61,0.1024,-0.0257,0.3088,0.1143,-0.0080,0.3000,0.2653,-1.17,1.33,-12.04,1.7620,0.1000,0.0000,1.4400,2.4060,0
20530,0.1067,-0.0065,0.3047,-0.0240,-0.0412,-0.0120,-0.21,-0.52,0.50,0,3.706,-8.013,-0.435,1.579,0.008,-0.014,1.013,0.000,0.000,0.000,0.3000,3,0,-0.98,-0.61,1.69,0.1024,-0.0281,0.3079,0.1143,-0.0080,0.3000,0.2650,-1.83,1.37,-14.87,1.7620,0.1000,0.0000,1.4400,2.4060,0
20582,0.1067,-0.0104,0.3020,-0.0171,-0.0424,-0.0159,-0.54,-0.59,0.59,0,3.711,-6.097,-2.594,1.813,0.010,-0.013,1.014,0.000,0.000,0.000,0.3000,2,0,-1.38,-0.63,1.80,0.1027,-0.0314,0.3059,0.1143,-0.0080,0.3000,0.2659,-2.15,1.05,-17.77,1.7610,0.1000,0.0000,1.4460,2.4040,0
20633,0.1070,-0.0113,0.3005,-0.0099,-0.0345,-0.0137,-0.85,-0.53,0.68,0,3.711,1.079,-1.877,0.588,0.009,-0.011,1.013,0.000,0.000,0.000,0.3020,1,0,-1.68,-0.76,1.93,0.1028,-0.0344,0.3046,0.1143,-0.0080,0.3000,0.2660,-1.84,0.70,-20.32,1.7610,0.1000,0.0000,1.4460,2.4040,0
20684,0.1075,-0.0134,0.3009,-0.0036,-0.0280,-0.0019,-0.91,-0.46,0.72,0,3.716,0.225,-3.893,0.374,0.005,-0.012,1.012,0.000,0.000,0.000,0.3000,0,0,-1.62,-0.85,1.97,0.1028,-0.0366,0.3043,0.1143,-0.0080,0.3000,0.2646,-1.70,0.36,-21.73,1.7620,0.0910,0.0000,1.4720,2.4070,0
20736,0.1098,-0.0127,0.3005,0.0052,-0.0160,0.0016,-0.92,-0.37,0.75,0,3.711,2.352,-2.129,-0.305,0.008,-0.011,1.010,0.000,0.000,0.000,0.3040,0,0,-1.61,-1.05,1.99,0.1024,-0.0380,0.3038,0.1143,-0.0080,0.3000,0.2643,-1.09,-0.21,-22.65,1.7620,0.0910,0.0000,1.4720,2.4070,0
20788,0.1121,-0.0122,0.3025,0.0120,-0.0055,0.0152,-0.91,-0.27,0.76,0,3.721,7.511,-1.603,0.257,0.008,-0.015,1.002,0.000,0.000,0.000,0.3030,-2,1,-1.48,-1.16,1.98,0.1016,-0.0389,0.3047,0.1143,-0.0080,0.3000,0.2625,-0.57,-0.69,-22.70,1.7660,0.0000,0.0000,0.0000,2.3980,0
20839,0.1138,-0.0117,0.3035,0.0165,0.0034,0.0205,-0.68,-0.17,0.77,0,3.711,7.759,-4.546,-0.301,0.007,-0.013,0.998,0.000,0.000,0.000,0.3030,0,0,-1.16,-1.24,1.94,0.1003,-0.0319,0.3051,0.1143,-0.0080,0.3000,0.2617,-0.11,-1.03,-23.07,1.7660,0.0000,0.0000,0.0000,2.3980,0
20890,0.1148,-0.0096,0.3041,0.0177,0.0119,0.0198,-0.35,0.00,0.74,0,3.716,4.309,-3.944,-1.548,0.007,-0.014,1.000,0.000,0.000,0.000,0.3060,-1,-1,-0.76,-1.47,1.93,0.0989,-0.0305,0.3052,0.1143,-0.0080,0.3000,0.2616,0.44,-1.15,-22.26,1.7600,0.0970,0.0000,1.4660,2.3990,0
20942,0.1181,-0.0042,0.3059,0.0220,0.0245,0.0231,-0.15,0.23,0.67,0,3.716,4.510,-3.131,-2.099,0.006,-0.006,0.998,0.000,0.000,0.000,0.3090,0,0,-0.54,-1.63,1.92,0.1020,-0.0290,0.3064,0.1143,-0.0080,0.3000,0.2609,1.42,-1.59,-20.10,1.7600,0.0970,0.0000,1.4660,2.3990,0
20992,0.1202,-0.0030,0.3084,0.0217,0.0251,0.0287,0.13,0.46,0.57,0,3.721,5.827,-1.601,-1.297,0.007,-0.010,0.997,0.000,0.000,0.000,0.3080,-1,-1,-0.30,-1.80,1.82,0.1007,-0.0275,0.3080,0.1143,-0.0080,0.3000,0.2599,1.54,-1.74,-17.09,1.7590,0.1000,0.0000,1.4600,2.3990,0
21043,0.1200,0.0031,0.3094,0.0150,0.0332,0.0250,0.47,0.60,0.50,0,3.711,8.022,-0.110,-2.538,0.010,-0.014,0.994,0.000,0.000,0.000,0.3090,0,0,-0.01,-1.83,1.80,0.1041,-0.0260,0.3090,0.1143,-0.0080,0.3000,0.2601,2.36,-1.40,-14.91,1.7590,0.1000,0.0000,1.4600,2.3990,0
21094,0.1219,0.0050,0.3102,0.0126,0.0291,0.0195,0.85,0.60,0.43,0,3.721,0.672,-0.303,-0.669,0.010,-0.013,0.986,0.000,0.000,0.000,0.3120,0,1,0.40,-1.84,1.67,0.1030,-0.0249,0.3096,0.1143,-0.0080,0.3000,0.2605,2.29,-1.42,-12.86,1.7530,0.0000,0.0000,1.4440,2.3980,0
21145,0.1252,0.0078,0.3116,0.0148,0.0269,0.0193,1.00,0.62,0.37,0,3.711,1.193,-1.277,-2.731,0.005,-0.013,0.990,0.000,0.000,0.000,0.3120,0,0,0.45,-1.85,1.63,0.1014,-0.0253,0.3106,0.1143,-0.0080,0.3000,0.2603,2.39,-1.76,-11.01,1.7530,0.0000,0.0000,1.4440,2.3980,0
21197,0.1230,0.0106,0.3124,0.0037,0.0218,0.0152,1.18,0.68,0.24,0,3.716,3.289,1.238,-1.295,0.003,-0.007,0.992,0.000,0.000,0.000,0.3100,0,0,0.51,-1.92,1.49,0.0991,-0.0255,0.3112,0.1143,-0.0080,0.3000,0.2606,2.35,-1.08,-7.31,1.7560,0.0000,2.5850,1.4410,2.3980,0
21247,0.1233,0.0128,0.3118,-0.0014,0.0145,0.0055,1.33,0.62,0.15,0,3.711,-1.307,1.343,-0.545,0.006,-0.010,0.995,0.000,0.000,0.000,0.3120,-1,1,0.69,-1.85,1.42,0.0961,-0.0261,0.3108,0.1143,-0.0080,0.3000,0.2617,2.15,-0.85,-4.60,1.7560,0.0000,2.5850,1.4410,2.3980,0
21299,0.1235,0.0143,0.3120,-0.0058,0.0054,0.0023,1.35,0.57,0.10,0,3.716,-2.145,0.264,-1.048,0.008,-0.008,0.997,0.000,0.000,0.000,0.3100,1,0,0.57,-1.72,1.37,0.0996,-0.0210,0.3115,0.1143,-0.0080,0.3000,0.2620,1.82,-0.66,-3.11,1.7550,0.1020,2.6150,1.4350,2.3940,0
21349,0.1230,0.0131,0.3111,-0.0107,-0.0083,-0.0041,1.29,0.53,0.05,0,3.711,-3.839,1.803,-1.679,0.006,-0.012,1.001,0.000,0.000,0.000,0.3110,0,-1,0.47,-1.70,1.29,0.0981,-0.0222,0.3109,0.1143,-0.0080,0.3000,0.2629,1.10,-0.40,-1.53,1.7550,0.1020,2.6150,1.4350,2.3940,0
21400,0.1231,0.0111,0.3109,-0.0135,-0.0223,-0.0061,1.14,0.44,-0.02,0,3.716,-6.216,2.564,-1.616,0.010,-0.011,1.002,0.000,0.000,0.000,0.3080,3,0,0.28,-1.59,1.18,0.0977,-0.0227,0.3109,0.1143,-0.0080,0.3000,0.2632,0.29,-0.26,0.67,1.7530,0.1050,2.5780,1.4380,2.4040,0
21451,0.1218,0.0077,0.3092,-0.0187,-0.0372,-0.0123,0.88,0.30,-0.11,0,3.706,-7.133,0.504,-1.801,0.004,-0.009,1.006,0.000,0.000,0.000,0.3090,2,2,0.00,-1.44,1.05,0.0965,-0.0280,0.3099,0.1143,-0.0080,0.3000,0.2641,-0.65,0.07,3.16,1.7530,0.1050,2.5780,1.4380,2.4040,0
21502,0.1224,0.0068,0.3087,-0.0176,-0.0415,-0.0113,0.55,0.26,-0.19,0,3.711,-8.173,1.585,-2.042,0.006,-0.011,1.005,0.000,0.000,0.000,0.3040,2,0,-0.34,-1.43,0.97,0.0918,-0.0329,0.3094,0.1143,-0.0080,0.3000,0.2641,-0.91,-0.03,5.77,1.7550,0.0000,2.4140,1.4340,2.4070,0
21554,0.1207,0.0003,0.3061,-0.0214,-0.0555,-0.0190,0.21,0.20,-0.30,0,3.706,-9.494,2.095,-2.012,0.008,-0.010,1.008,0.000,0.000,0.000,0.3020,3,0,-0.74,-1.33,0.83,0.0906,-0.0380,0.3078,0.1143,-0.0080,0.3000,0.2654,-2.01,0.27,8.95,1.7550,0.0000,2.4140,1.4340,2.4070,0
21605,0.1206,-0.0032,0.3035,-0.0211,-0.0589,-0.0247,-0.26,0.12,-0.40,0,3.706,-3.865,0.663,-1.040,0.005,-0.008,1.016,0.000,0.000,0.000,0.2990,3,1,-1.20,-1.21,0.70,0.0898,-0.0456,0.3059,0.1143,-0.0080,0.3000,0.2666,-2.41,0.27,12.02,1.7510,0.1060,0.0000,1.4320,2.4040,0
21656,0.1191,-0.0059,0.3005,-0.0231,-0.0565,-0.0274,-0.55,0.09,-0.48,0,3.700,-5.779,2.058,-0.757,0.011,-0.006,1.012,0.000,0.000,0.000,0.2990,2,0,-1.37,-1.17,0.63,0.0869,-0.0536,0.3038,0.1143,-0.0080,0.3000,0.2674,-2.48,0.46,14.31,1.7510,0.1060,0.0000,1.4320,2.4040,0
21707,0.1164,-0.0114,0.2990,-0.0274,-0.0579,-0.0216,-0.77,0.01,-0.55,0,3.706,-6.603,1.790,-2.331,0.009,-0.010,1.020,0.000,0.000,0.000,0.2970,2,0,-1.65,-1.05,0.59,0.0865,-0.0593,0.3025,0.1143,-0.0080,0.3000,0.2671,-2.92,0.85,16.57,1.7510,0.1070,0.0000,1.4400,2.4050,0
21758,0.1177,-0.0141,0.2974,-0.0215,-0.0512,-0.0168,-1.07,-0.08,-0.63,0,3.706,-6.064,1.716,-0.751,0.010,-0.008,1.016,0.000,0.000,0.000,0.2990,2,0,-1.98,-0.94,0.49,0.0863,-0.0651,0.3012,0.1143,-0.0080,0.3000,0.2669,-2.81,0.48,18.78,1.7510,0.1070,0.0000,1.4400,2.4050,0
21809,0.1152,-0.0177,0.2977,-0.0242,-0.0447,-0.0040,-1.32,-0.15,-0.68,0,3.711,-1.768,1.314,-0.379,0.008,-0.010,1.018,0.000,0.000,0.000,0.2970,0,0,-2.27,-0.84,0.47,0.0862,-0.0709,0.3012,0.1143,-0.0080,0.3000,0.2654,-2.77,0.79,20.45,1.7450,0.0000,0.0000,1.4250,2.4040,0
21860,0.1150,-0.0205,0.2974,-0.0207,-0.0352,0.0024,-1.40,-0.23,-0.72,0,3.706,3.222,0.028,-1.056,0.007,-0.011,1.010,0.000,0.000,0.000,0.2970,0,0,-2.36,-0.77,0.44,0.0839,-0.0744,0.3009,0.1143,-0.0080,0.3000,0.2648,-2.53,0.64,21.45,1.7450,0.0000,0.0000,1.4250,2.4040,0
21912,0.1134,-0.0228,0.2974,-0.0202,-0.0247,0.0074,-1.43,-0.27,-0.74,0,3.706,3.292,0.373,0.438,0.010,-0.006,1.011,0.000,0.000,0.000,0.2940,0,0,-2.20,-0.77,0.39,0.0814,-0.0773,0.3007,0.1143,-0.0080,0.3000,0.2642,-2.20,0.73,22.22,1.7440,0.1030,0.0000,1.4340,2.4080,0
21962,0.1130,-0.0228,0.2963,-0.0161,-0.0102,0.0048,-1.43,-0.36,-0.73,0,3.700,3.938,1.541,0.595,0.008,-0.010,1.009,0.000,0.000,0.000,0.2950,-1,0,-2.03,-0.75,0.41,0.0789,-0.0791,0.2998,0.1143,-0.0080,0.3000,0.2647,-1.53,0.56,21.80,1.7440,0.1030,0.0000,1.4340,2.4080,0
22013,0.1129,-0.0206,0.2960,-0.0116,0.0074,0.0064,-1.20,-0.37,-0.70,0,3.711,7.911,-0.546,0.207,0.009,-0.018,1.005,0.000,0.000,0.000,0.2980,-2,-1,-1.89,-0.59,0.59,0.0905,-0.0708,0.2996,0.1143,-0.0080,0.3000,0.2646,-0.55,0.37,20.96,1.7450,0.0000,0.0000,1.4300,2.4130,0
22065,0.1126,-0.0194,0.2973,-0.0079,0.0190,0.0147,-0.80,-0.29,-0.67,0,3.706,5.899,0.371,2.006,0.007,-0.009,1.007,0.000,0.000,0.000,0.2990,0,0,-1.50,-0.61,0.61,0.0913,-0.0681,0.3000,0.1143,-0.0080,0.3000,0.2635,0.08,0.21,19.96,1.7450,0.0000,0.0000,1.4300,2.4130,0
22115,0.1130,-0.0150,0.2988,-0.0037,0.0333,0.0204,-0.48,-0.25,-0.57,0,3.711,9.135,-2.070,1.665,0.004,-0.017,0.998,0.000,0.000,0.000,0.3040,-3,0,-1.19,-0.59,0.72,0.0911,-0.0664,0.3008,0.1143,-0.0080,0.3000,0.2626,1.07,-0.01,17.14,1.7500,0.0990,0.0000,1.4360,2.4020,0
22167,0.1143,-0.0110,0.3022,0.0015,0.0421,0.0339,-0.07,-0.12,-0.47,0,3.711,10.711,-1.333,1.899,0.004,-0.014,0.994,0.000,0.000,0.000,0.3040,-1,1,-0.77,-0.69,0.76,0.0910,-0.0602,0.3028,0.1143,-0.0080,0.3000,0.2605,1.78,-0.35,13.97,1.7500,0.0990,0.0000,1.4360,2.4020,0
22217,0.1154,-0.0073,0.3044,0.0052,0.0464,0.0355,0.47,-0.04,-0.36,0,3.716,6.804,-2.680,2.656,0.005,-0.011,0.993,0.000,0.000,0.000,0.3050,-2,0,-0.22,-0.77,0.84,0.0892,-0.0573,0.3042,0.1143,-0.0080,0.3000,0.2599,2.25,-0.61,10.79,1.7480,0.0000,0.0000,1.4270,2.4050,0
22269,0.1148,-0.0060,0.3060,0.0036,0.0407,0.0308,0.83,0.05,-0.25,0,3.706,2.303,-1.800,2.135,0.007,-0.016,0.992,0.000,0.000,0.000,0.3060,-1,1,0.11,-0.90,0.96,0.0885,-0.0527,0.3053,0.1143,-0.0080,0.3000,0.2601,2.07,-0.49,7.57,1.7480,0.0000,0.0000,1.4270,2.4050,0
22320,0.1158,-0.0053,0.3070,0.0052,0.0308,0.0237,0.95,0.10,-0.14,0,3.716,-2.126,0.541,2.785,0.004,-0.013,0.990,0.000,0.000,0.000,0.3090,-1,0,0.22,-1.00,1.06,0.0862,-0.0498,0.3063,0.1143,-0.0080,0.3000,0.2607,1.65,-0.64,4.10,1.7530,0.0000,2.5740,1.4260,2.3990,0
22371,0.1175,-0.0021,0.3088,0.0075,0.0267,0.0212,0.93,0.11,-0.02,0,3.711,-0.452,-2.190,1.847,0.013,-0.013,0.987,0.000,0.000,0.000,0.3080,-2,-1,0.11,-0.96,1.20,0.0855,-0.0469,0.3077,0.1143,-0.0080,0.3000,0.2606,1.68,-0.87,0.63,1.7530,0.0000,2.5740,1.4260,2.3990,0
22423,0.1182,-0.0021,0.3091,0.0073,0.0157,0.0134,1.03,0.22,0.06,0,3.711,-4.997,-1.757,2.286,0.007,-0.007,0.993,0.000,0.000,0.000,0.3090,0,0,0.06,-1.05,1.27,0.0869,-0.0418,0.3081,0.1143,-0.0080,0.3000,0.2614,1.15,-0.90,-1.66,1.7550,0.1020,2.5920,1.4350,2.3970,0
22474,0.1200,-0.0002,0.3095,0.0088,0.0101,0.0083,0.95,0.37,0.12,0,3.706,-2.050,-2.102,1.114,0.007,-0.008,0.997,0.000,0.000,0.000,0.3090,1,0,-0.20,-1.14,1.38,0.0858,-0.0393,0.3086,0.1143,-0.0080,0.3000,0.2619,1.03,-1.10,-3.73,1.7550,0.1020,2.5920,1.4350,2.3970,0
22526,0.1223,-0.0007,0.3095,0.0101,0.0003,0.0029,0.77,0.45,0.20,0,3.706,0.662,-2.117,0.844,0.008,-0.012,0.997,0.000,0.000,0.000,0.3080,0,-1,-0.24,-1.23,1.49,0.0881,-0.0463,0.3091,0.1143,-0.0080,0.3000,0.2624,0.52,-1.32,-5.88,1.7560,0.0000,2.5320,0.0000,2.4020,0
22577,0.1221,-0.0033,0.3088,0.0050,-0.0120,-0.0038,0.77,0.56,0.25,0,3.700,-5.626,-1.107,0.557,0.008,-0.013,0.995,0.000,0.000,0.000,0.3080,0,0,-0.21,-1.32,1.52,0.0897,-0.0461,0.3089,0.1143,-0.0080,0.3000,0.2633,-0.24,-1.07,-7.36,1.7560,0.0000,2.5320,0.0000,2.4020,0
22628,0.1227,-0.0050,0.3082,0.0010,-0.0207,-0.0074,0.43,0.62,0.27,0,3.706,-6.567,-1.271,-0.100,0.010,-0.012,1.002,0.000,0.000,0.000,0.3060,1,-1,-0.49,-1.37,1.55,0.0888,-0.0462,0.3085,0.1143,-0.0080,0.3000,0.2638,-0.76,-0.92,-8.10,1.7550,0.1040,2.4290,1.4480,2.4050,0
22680,0.1226,-0.0075,0.3069,-0.0042,-0.0277,-0.0121,0.11,0.62,0.27,0,3.700,-4.847,1.789,0.188,0.007,-0.011,1.001,0.000,0.000,0.000,0.3060,1,0,-0.81,-1.39,1.54,0.0938,-0.0494,0.3078,0.1143,-0.0080,0.3000,0.2646,-1.27,-0.67,-8.13,1.7550,0.1040,2.4290,1.4480,2.4050,0
22732,0.1229,-0.0097,0.3060,-0.0081,-0.0304,-0.0116,-0.12,0.56,0.28,0,3.700,-6.203,0.633,0.826,0.007,-0.011,1.002,0.000,0.000,0.000,0.3030,3,1,-1.05,-1.30,1.55,0.0937,-0.0516,0.3071,0.1143,-0.0080,0.3000,0.2647,-1.55,-0.50,-8.43,1.7530,0.0000,0.0000,1.4540,2.3990,0
22783,0.1230,-0.0132,0.3041,-0.0116,-0.0342,-0.0158,-0.34,0.50,0.30,0,3.695,-4.976,1.519,0.877,0.007,-0.010,1.007,0.000,0.000,0.000,0.3010,0,0,-1.33,-1.28,1.59,0.0917,-0.0582,0.3057,0.1143,-0.0080,0.3000,0.2655,-1.96,-0.35,-8.96,1.7530,0.0000,0.0000,1.4540,2.3990,0
22835,0.1209,-0.0157,0.3020,-0.0192,-0.0329,-0.0179,-0.65,0.44,0.32,0,3.700,-6.344,2.130,-0.396,0.005,-0.009,1.011,0.000,0.000,0.000,0.3020,0,0,-1.58,-1.20,1.64,0.0903,-0.0600,0.3041,0.1143,-0.0080,0.3000,0.2661,-2.08,0.15,-9.64,1.7540,0.0990,0.0000,1.4590,2.3960,0
22886,0.1207,-0.0193,0.3014,-0.0213,-0.0317,-0.0132,-0.90,0.32,0.30,0,3.700,-2.727,4.905,-1.456,0.010,-0.010,1.012,0.000,0.000,0.000,0.2990,2,1,-1.91,-1.09,1.61,0.0884,-0.0613,0.3034,0.1143,-0.0080,0.3000,0.2657,-2.27,0.27,-9.03,1.7540,0.0990,0.0000,1.4590,2.3960,0
22938,0.1193,-0.0199,0.2998,-0.0246,-0.0223,-0.0123,-1.03,0.12,0.24,0,3.706,-0.513,1.039,-1.834,0.007,-0.008,1.011,0.000,0.000,0.000,0.2980,0,0,-2.02,-0.81,1.56,0.0907,-0.0671,0.3023,0.1143,-0.0080,0.3000,0.2659,-1.87,0.52,-7.17,1.7550,0.1000,0.0000,1.4530,2.4010,0
22988,0.1175,-0.0218,0.2985,-0.0268,-0.0154,-0.0105,-1.11,-0.01,0.17,0,3.695,0.200,3.943,-1.442,0.006,-0.008,1.008,0.000,0.000,0.000,0.2980,-1,0,-2.04,-0.76,1.47,0.0893,-0.0680,0.3012,0.1143,-0.0080,0.3000,0.2660,-1.69,0.74,-4.97,1.7550,0.1000,0.0000,1.4530,2.4010,0
23039,0.1165,-0.0221,0.2980,-0.0259,-0.0053,-0.0058,-1.09,-0.19,0.09,0,3.700,5.207,2.378,-1.879,0.006,-0.009,1.015,0.000,0.000,0.000,0.2990,0,3,-2.05,-0.55,1.42,0.0905,-0.0656,0.3005,0.1143,-0.0080,0.3000,0.2656,-1.24,0.77,-2.56,1.7520,0.1000,0.0000,1.4530,2.4030,0
23090,0.1161,-0.0204,0.2983,-0.0221,0.0077,0.0016,-0.93,-0.31,-0.01,0,3.700,5.263,-0.687,-2.024,0.008,-0.012,1.009,0.000,0.000,0.000,0.2970,0,0,-1.78,-0.46,1.25,0.0853,-0.0647,0.3006,0.1143,-0.0080,0.3000,0.2647,-0.51,0.63,0.20,1.7520,0.1000,0.0000,1.4530,2.4030,0
23141,0.1154,-0.0183,0.2979,-0.0184,0.0190,0.0037,-0.77,-0.35,-0.10,0,3.706,6.744,-0.116,-1.975,0.007,-0.016,1.005,0.000,0.000,0.000,0.2990,-3,-3,-1.51,-0.50,1.15,0.0832,-0.0633,0.3002,0.1143,-0.0080,0.3000,0.2645,0.16,0.50,3.10,1.7490,0.0940,0.0000,1.4540,2.4130,0
23192,0.1155,-0.0142,0.2987,-0.0134,0.0320,0.0097,-0.50,-0.37,-0.20,0,3.700,7.425,2.123,-1.311,0.003,-0.014,1.002,0.000,0.000,0.000,0.2990,-2,-1,-1.21,-0.41,1.24,0.0941,-0.0571,0.3007,0.1143,-0.0080,0.3000,0.2637,1.05,0.26,6.01,1.7490,0.0940,0.0000,1.4540,2.4130,0
23243,0.1178,-0.0100,0.2993,-0.0044,0.0412,0.0125,-0.05,-0.39,-0.27,0,3.706,10.440,-4.566,-1.080,0.007,-0.015,0.999,0.000,0.000,0.000,0.3030,0,1,-0.84,-0.29,1.18,0.0960,-0.0525,0.3007,0.1143,-0.0080,0.3000,0.2633,1.78,-0.32,8.21,1.7490,0.0990,1.5900,1.4380,2.4060,0
23294,0.1181,-0.0082,0.3016,-0.0001,0.0408,0.0217,0.42,-0.18,-0.32,0,3.700,3.804,-4.364,-1.089,0.005,-0.011,0.995,0.000,0.000,0.000,0.3030,-1,0,-0.29,-0.54,1.11,0.0945,-0.0509,0.3022,0.1143,-0.0080,0.3000,0.2619,1.90,-0.55,9.71,1.7490,0.0990,1.5900,1.4380,2.4060,0
23345,0.1201,-0.0062,0.3032,0.0056,0.0371,0.0239,0.69,-0.01,-0.38,0,3.706,2.914,-0.934,-1.088,0.006,-0.011,0.997,0.000,0.000,0.000,0.3030,0,0,-0.10,-0.77,1.06,0.0946,-0.0479,0.3030,0.1143,-0.0080,0.3000,0.2614,1.88,-0.96,11.30,1.7490,0.0000,2.4590,1.4330,2.4030,0
23396,0.1207,-0.0040,0.3040,0.0063,0.0323,0.0210,0.81,0.11,-0.42,0,3.700,5.767,-0.728,-0.962,0.005,-0.012,0.992,0.000,0.000,0.000,0.3050,-2,0,0.05,-0.81,1.00,0.0947,-0.0453,0.3036,0.1143,-0.0080,0.3000,0.2615,1.80,-1.03,12.65,1.7490,0.0000,2.4590,1.4330,2.4030,0
23448,0.1210,-0.0016,0.3053,0.0055,0.0271,0.0204,0.92,0.23,-0.46,0,3.706,1.756,-2.633,-0.988,0.004,-0.014,0.996,0.000,0.000,0.000,0.3050,-1,0,0.34,-0.85,0.94,0.0947,-0.0412,0.3044,0.1143,-0.0080,0.3000,0.2613,1.73,-1.02,13.74,1.7470,0.0000,2.5330,1.4380,2.4030,0
23500,0.1231,0.0016,0.3059,0.0076,0.0233,0.0153,1.09,0.32,-0.50,0,3.700,0.979,-1.585,-1.418,0.004,-0.011,0.992,0.000,0.000,0.000,0.3050,0,0,0.43,-0.98,0.88,0.0945,-0.0385,0.3049,0.1143,-0.0080,0.3000,0.2618,1.77,-1.27,15.07,1.7470,0.0000,2.5330,1.4380,2.4030,0
23552,0.1249,0.0016,0.3060,0.0080,0.0123,0.0093,1.11,0.41,-0.56,0,3.706,-1.208,-3.347,-0.858,0.004,-0.007,0.998,0.000,0.000,0.000,0.3040,2,0,0.48,-1.07,0.80,0.0938,-0.0366,0.3050,0.1143,-0.0080,0.3000,0.2624,1.25,-1.41,16.66,1.7420,0.1010,2.5800,1.4400,2.4080,0
23673,0.1259,0.0018,0.3053,0.0058,0.0026,0.0008,1.05,0.58,-0.60,0,3.695,-5.575,-4.493,-1.219,0.007,-0.008,0.997,0.000,0.000,0.000,0.3030,0,1,0.49,-1.22,0.80,0.0946,-0.0461,0.3048,0.1143,-0.0080,0.3000,0.2634,0.81,-1.37,18.01,1.7420,0.1010,2.5800,1.4400,2.4080,0
23794,0.1253,-0.0003,0.3042,-0.0009,-0.0104,-0.0055,0.79,0.75,-0.68,0,3.700,-5.521,1.828,-1.749,0.004,-0.010,1.002,0.000,0.000,0.000,0.3050,1,0,-0.22,-1.76,0.64,0.0916,-0.0447,0.3038,0.1143,-0.0080,0.3000,0.2643,0.05,-1.01,20.31,1.7410,0.1080,2.5030,1.4360,2.4020,0
23916,0.1272,-0.0014,0.3043,-0.0030,-0.0179,-0.0042,0.52,0.71,-0.77,0,3.695,-1.637,0.141,-3.399,0.006,-0.005,1.003,0.000,0.000,0.000,0.3030,2,0,-0.88,-1.48,0.34,0.0925,-0.0474,0.3048,0.1143,-0.0080,0.3000,0.2642,-0.38,-1.05,23.05,1.7410,0.1080,2.5030,1.4360,2.4020,0
24038,0.1277,-0.0046,0.3035,-0.0071,-0.0271,-0.0063,0.30,0.61,-0.89,0,3.695,-7.685,-0.696,-1.519,0.005,-0.010,1.007,0.000,0.000,0.000,0.3010,1,0,-1.02,-1.41,-0.13,0.0931,-0.0538,0.3049,0.1143,-0.0080,0.3000,0.2646,-1.04,-0.89,26.68,1.7380,0.1050,0.0000,1.4320,2.4070,0
24159,0.1261,-0.0087,0.3021,-0.0148,-0.0355,-0.0091,0.04,0.63,-0.97,0,3.695,-3.011,1.526,-2.371,0.006,-0.013,1.003,0.000,0.000,0.000,0.2990,3,2,-1.95,-1.43,-0.30,0.0936,-0.0568,0.3047,0.1143,-0.0080,0.3000,0.2651,-1.71,-0.42,29.12,1.7380,0.1050,0.0000,1.4320,2.4070,0
24281,0.1262,-0.0093,0.3003,-0.0178,-0.0329,-0.0135,-0.22,0.53,-1.08,0,3.700,-4.883,2.062,-2.864,0.007,-0.012,1.010,0.000,0.000,0.000,0.2970,1,-1,-2.21,-1.25,-0.64,0.0875,-0.0658,0.3040,0.1143,-0.0080,0.3000,0.2659,-1.63,-0.28,32.33,1.7360,0.1010,0.0000,1.4230,2.4070,0
24403,0.1237,-0.0140,0.2982,-0.0251,-0.0371,-0.0156,-0.48,0.40,-1.20,0,3.690,-6.589,3.395,-2.064,0.007,-0.011,1.014,0.000,0.000,0.000,0.2970,1,1,-2.77,-0.89,-0.71,0.0919,-0.0701,0.3042,0.1143,-0.0080,0.3000,0.2666,-2.15,0.23,36.00,1.7360,0.1010,0.0000,1.4230,2.4070,0
24524,0.1241,-0.0148,0.2972,-0.0244,-0.0305,-0.0122,-0.75,0.25,-1.31,0,3.695,-2.117,2.757,-1.929,0.008,-0.006,1.012,0.000,0.000,0.000,0.2980,1,1,-3.50,-0.46,-0.90,0.0895,-0.0733,0.3056,0.1143,-0.0080,0.3000,0.2664,-1.90,0.17,39.33,1.7330,0.1080,0.0000,1.4250,2.4080,0
24646,0.1226,-0.0160,0.2972,-0.0266,-0.0232,-0.0041,-0.93,0.10,-1.38,0,3.690,1.228,1.029,-1.450,0.005,-0.011,1.012,0.000,0.000,0.000,0.2940,0,0,-3.64,-0.13,-1.00,0.0871,-0.0763,0.3091,0.1143,-0.0080,0.3000,0.2655,-1.65,0.38,41.47,1.7330,0.1080,0.0000,1.4250,2.4080,0
