time_ms,pos_x,pos_y,pos_z,vel_x,vel_y,vel_z,roll,pitch,yaw,thrust,vbat,gyro_x,gyro_y,gyro_z,acc_x,acc_y,acc_z,rate_roll,rate_pitch,rate_yaw,range_z,flow_dx,flow_dy,mekf_roll,mekf_pitch,mekf_yaw,mekf_x,mekf_y,mekf_z,our_ref_x,our_ref_y,our_ref_z,our_thrust,our_roll_cmd,our_pitch_cmd,our_yaw_rate_cmd,multi_front,multi_back,multi_left,multi_right,multi_up,ai_feat_count,vo_x,vo_y,vo_sigma,pg_x,pg_y,lc_count
0,-0.4993,0.3045,0.0086,0.0034,-0.0118,-0.0053,-0.15,0.42,-16.25,0,4.059,0.029,0.151,-0.064,0.008,-0.005,0.999,0.000,0.000,0.000,0.0110,-20,-1,0.00,0.00,0.00,0.0000,0.0000,0.0000,0.0000,0.0000,0.0000,0.0000,0.00,0.00,0.00,0.2740,0.0000,0.0000,0.4810,0.0000,0,0.0000,0.0000,0.0000,0.0000,0.0000,0
101,-0.5003,0.3011,0.0094,-0.0024,-0.0278,0.0007,-0.26,0.44,-16.17,0,4.065,-0.144,-0.103,-0.031,0.008,-0.004,1.001,0.000,0.000,0.000,0.0100,0,0,0.00,0.00,0.00,0.0000,0.0000,0.0000,0.0000,0.0000,0.0000,0.0000,0.00,0.00,0.00,0.2740,0.0000,0.0000,0.4810,0.0000,0,0.0000,0.0000,0.0000,0.0000,0.0000,0
203,-0.4989,0.3050,0.0098,0.0047,-0.0031,0.0031,-0.28,0.44,-16.09,0,4.059,0.026,0.290,-0.353,0.009,-0.003,1.001,0.000,0.000,0.000,0.0120,4,0,0.00,0.00,0.00,0.0000,0.0000,0.0000,0.0000,0.0000,0.0000,0.0000,0.00,0.00,0.00,0.2740,0.0000,0.0000,0.4850,0.0000,0,0.0000,0.0000,0.0000,0.0000,0.0000,0
304,-0.4983,0.3048,0.0109,0.0066,-0.0032,0.0076,-0.24,0.43,-16.02,0,4.065,-0.043,-0.170,-0.110,0.007,-0.005,1.001,0.000,0.000,0.000,0.0080,14,0,0.00,0.00,0.00,0.0000,0.0000,0.0000,0.0000,0.0000,0.0000,0.0000,0.00,0.00,0.00,0.2750,0.0000,0.0000,0.4850,0.0000,0,0.0000,0.0000,0.0000,0.0000,0.0000,0
404,-0.4975,0.3080,0.0099,0.0098,0.0156,0.0012,-0.28,0.45,-15.94,0,4.065,0.139,-0.062,0.052,0.006,-0.005,1.000,0.000,0.000,0.000,0.0110,5,5,0.00,0.00,0.00,0.0000,0.0000,0.0000,0.0000,0.0000,0.0000,0.0000,0.00,0.00,0.00,0.2750,0.0000,0.0000,0.4820,0.0000,0,0.0000,0.0000,0.0000,0.0000,0.0000,0
506,-0.4986,0.3033,0.0106,0.0015,-0.0112,0.0045,-0.16,0.49,-15.86,0,4.065,-0.301,-0.046,0.102,0.008,-0.006,1.000,0.000,0.000,0.000,0.0090,5,2,0.00,0.00,0.00,0.0000,0.0000,0.0000,0.0000,0.0000,0.0000,0.0000,0.00,0.00,0.00,0.2790,0.0000,0.0000,0.4820,0.0000,0,0.0000,0.0000,0.0000,0.0000,0.0000,0
607,-0.5046,0.3066,0.0101,-0.0264,0.0074,0.0009,-0.25,0.69,-15.77,0,4.059,-0.011,0.126,0.187,0.011,-0.005,0.999,0.000,0.000,0.000,0.0070,22,-5,0.00,0.00,0.00,0.0000,0.0000,0.0000,0.0000,0.0000,0.0000,0.0000,0.00,0.00,0.00,0.2790,0.0000,0.0000,0.4830,0.0000,0,0.0000,0.0000,0.0000,0.0000,0.0000,0
708,-0.5060,0.3045,0.0088,-0.0287,-0.0049,-0.0065,0.01,0.60,-15.71,0,4.065,0.111,-0.114,-0.135,0.005,-0.004,1.001,0.000,0.000,0.000,0.0090,1,3,0.00,0.00,0.00,0.0000,0.0000,0.0000,0.0000,0.0000,0.0000,0.0000,0.00,0.00,0.00,0.2730,0.0000,0.0000,0.4830,0.0000,0,0.0000,0.0000,0.0000,0.0000,0.0000,0
809,-0.5028,0.3038,0.0089,-0.0070,-0.0054,-0.0046,-0.24,0.51,-15.63,0,4.065,0.178,-0.041,-0.202,0.008,-0.003,1.000,0.000,0.000,0.000,0.0100,24,-3,0.00,0.00,0.00,0.0000,0.0000,0.0000,0.0000,0.0000,0.0000,0.0000,0.00,0.00,0.00,0.2730,0.0000,0.0000,0.4820,0.0000,0,0.0000,0.0000,0.0000,0.0000,0.0000,0
909,-0.5050,0.2968,0.0093,-0.0168,-0.0420,-0.0015,0.25,0.44,-15.57,0,4.065,-0.173,0.119,-0.264,0.009,-0.003,1.000,0.000,0.000,0.000,0.0100,-4,1,0.00,0.00,0.00,0.0000,0.0000,0.0000,0.0000,0.0000,0.0000,0.0000,0.00,0.00,0.00,0.2760,0.1490,0.0000,0.4820,0.0000,0,0.0000,0.0000,0.0000,0.0000,0.0000,0
1010,-0.5061,0.2874,0.0092,-0.0190,-0.0812,-0.0025,0.24,0.41,-15.49,0,4.059,-0.124,0.037,0.114,0.006,-0.006,1.000,0.000,0.000,0.000,0.0100,4,4,0.00,0.00,0.00,0.0000,0.0000,0.0000,0.0000,0.0000,0.0000,0.0000,0.00,0.00,0.00,0.2760,0.1490,0.0000,0.4820,0.0000,0,0.0000,0.0000,0.0000,0.0000,0.0000,0
1112,-0.5056,0.2902,0.0099,-0.0117,-0.0516,0.0020,0.05,0.44,-15.41,0,4.065,-0.056,0.134,-0.015,0.009,-0.005,0.997,0.000,0.000,0.000,0.0080,0,5,0.00,0.00,0.00,0.0000,0.0000,0.0000,0.0000,0.0000,0.0000,0.0000,0.00,0.00,0.00,0.2750,0.1310,0.0000,0.4820,0.0000,0,0.0000,0.0000,0.0000,0.0000,0.0000,0
1213,-0.5057,0.2890,0.0092,-0.0086,-0.0469,-0.0023,-0.05,0.44,-15.33,0,4.059,0.016,-0.047,-0.017,0.009,-0.007,0.998,0.000,0.000,0.000,0.0100,-32,1,0.00,0.00,0.00,0.0000,0.0000,0.0000,0.0000,0.0000,0.0000,0.0000,0.00,0.00,0.00,0.2750,0.1310,0.0000,0.4830,0.0000,0,0.0000,0.0000,0.0000,0.0000,0.0000,0
1313,-0.5054,0.2956,0.0098,-0.0036,0.0002,0.0017,-0.73,0.46,-15.26,0,4.065,0.221,0.070,0.069,0.008,-0.006,1.000,0.000,0.000,0.000,0.0080,-25,3,0.00,0.00,0.00,0.0000,0.0000,0.0000,0.0000,0.0000,0.0000,0.0000,0.00,0.00,0.00,0.2740,0.0000,0.0000,0.4830,0.0000,0,0.0000,0.0000,0.0000,0.0000,0.0000,0
1415,-0.5038,0.2989,0.0092,0.0047,0.0140,-0.0018,-0.75,0.45,-15.18,0,4.059,-0.053,-0.167,-0.069,0.007,-0.004,1.000,0.000,0.000,0.000,0.0110,-5,3,0.00,0.00,0.00,0.0000,0.0000,0.0000,0.0000,0.0000,0.0000,0.0000,0.00,0.00,0.00,0.2740,0.0000,0.0000,0.4830,0.0000,0,0.0000,0.0000,0.0000,0.0000,0.0000,0
1516,-0.5026,0.3035,0.0100,0.0106,0.0324,0.0026,-0.68,0.44,-15.11,0,4.065,-0.296,-0.232,0.204,0.008,-0.003,1.000,0.000,0.000,0.000,0.0110,-4,5,0.00,0.00,0.00,0.0000,0.0000,0.0000,0.0000,0.0000,0.0000,0.0000,0.00,0.00,0.00,0.2750,0.0000,0.0000,0.4830,0.0000,0,0.0000,0.0000,0.0000,0.0000,0.0000,0
1568,-0.5025,0.3037,0.0106,0.0092,0.0280,0.0050,-0.60,0.46,-15.04,0,4.059,-0.214,0.069,0.077,0.007,-0.002,1.001,0.000,0.000,0.000,0.0100,29,-2,0.00,0.00,0.00,0.0000,0.0000,0.0000,0.0000,0.0000,0.0000,0.0000,0.00,0.00,0.00,0.2750,0.0000,0.0000,0.4840,0.0000,0,0.0000,0.0000,0.0000,0.0000,0.0000,0
1619,-0.5036,0.2978,0.0107,0.0026,-0.0093,0.0045,0.03,0.37,-14.96,0,4.065,0.005,-0.063,0.079,0.007,-0.004,1.001,0.000,0.000,0.000,0.0100,0,-2,0.00,0.00,0.00,0.0000,0.0000,0.0000,0.0000,0.0000,0.0000,0.0000,0.00,0.00,0.00,0.2730,0.0000,0.0000,0.4840,0.0000,0,0.0000,0.0000,0.0000,0.0000,0.0000,0
1670,-0.5040,0.2929,0.0106,0.0006,-0.0297,0.0029,-0.12,0.35,-14.89,0,4.059,-0.159,0.038,-0.053,0.007,-0.003,0.999,0.000,0.000,0.000,0.0120,2,4,0.00,0.00,0.00,0.0000,0.0000,0.0000,0.0000,0.0000,0.0000,0.0000,0.00,0.00,0.00,0.2730,0.0000,0.0000,0.4840,0.0000,0,0.0000,0.0000,0.0000,0.0000,0.0000,0
1721,-0.5055,0.2884,0.0112,-0.0058,-0.0453,0.0050,0.01,0.42,-14.81,0,4.065,-0.167,-0.152,0.226,0.008,-0.006,1.000,0.000,0.000,0.000,0.0100,-1,0,0.00,0.00,0.00,0.0000,0.0000,0.0000,0.0000,0.0000,0.0000,0.0000,0.00,0.00,0.00,0.2730,0.0000,0.0000,0.4840,0.0000,0,0.0000,0.0000,0.0000,0.0000,0.0000,0
1771,-0.5062,0.2881,0.0109,-0.0074,-0.0373,0.0020,-0.10,0.41,-14.74,0,4.059,0.012,-0.196,-0.127,0.007,-0.004,1.002,0.000,0.000,0.000,0.0080,-6,-1,0.00,0.00,0.00,0.0000,0.0000,0.0000,0.0000,0.0000,0.0000,0.0000,0.00,0.00,0.00,0.2730,0.0000,0.0000,0.4850,0.0000,0,0.0000,0.0000,0.0000,0.0000,0.0000,0
1822,-0.5052,0.2930,0.0099,0.0003,-0.0038,-0.0028,-0.41,0.42,-14.68,0,4.065,-0.134,0.043,0.107,0.006,-0.003,1.001,0.000,0.000,0.000,0.0090,-14,4,0.00,0.00,0.00,0.0000,0.0000,0.0000,0.0000,0.0000,0.0000,0.0000,0.00,0.00,0.00,0.2760,0.0000,0.0000,0.4850,0.0000,0,0.0000,0.0000,0.0000,0.0000,0.0000,0
1873,-0.5048,0.2955,0.0095,0.0028,0.0081,-0.0041,-0.55,0.46,-14.60,0,4.059,-0.252,-0.222,0.053,0.009,-0.003,1.001,0.000,0.000,0.000,0.0060,8,-1,0.00,0.00,0.00,0.0000,0.0000,0.0000,0.0000,0.0000,0.0000,0.0000,0.00,0.00,0.00,0.2760,0.0000,0.0000,0.4810,0.0000,0,0.0000,0.0000,0.0000,0.0000,0.0000,0
1925,-0.5041,0.2998,0.0078,0.0061,0.0278,-0.0113,-0.48,0.43,-14.53,0,4.065,0.103,-0.307,-0.065,0.008,-0.005,0.998,0.000,0.000,0.000,0.0130,21,1,0.00,0.00,0.00,0.0000,0.0000,0.0000,0.0000,0.0000,0.0000,0.0000,0.00,0.00,0.00,0.2750,0.0000,0.0000,0.4810,0.0000,0,0.0000,0.0000,0.0000,0.0000,0.0000,0
1976,-0.5070,0.2914,0.0098,-0.0092,-0.0200,0.0009,0.03,0.46,-14.46,0,4.059,0.079,0.070,0.179,0.008,-0.005,1.002,0.000,0.000,0.000,0.0090,15,4,0.00,0.00,0.00,0.0000,0.0000,0.0000,0.0000,0.0000,0.0000,0.0000,0.00,0.00,0.00,0.2750,0.0000,0.0000,0.4820,0.0000,0,0.0000,0.0000,0.0000,0.0000,0.0000,0
2027,-0.5086,0.2825,0.0093,-0.0146,-0.0606,-0.0024,0.25,0.45,-14.39,0,4.065,-0.130,0.136,-0.269,0.008,-0.007,1.000,0.000,0.000,0.000,0.0090,-5,1,0.00,0.00,0.00,0.0000,0.0000,0.0000,0.0000,0.0000,0.0000,0.0000,0.00,0.00,0.00,0.2770,0.1370,0.0000,0.4820,0.0000,0,0.0000,0.0000,0.0000,0.0000,0.0000,0
2077,-0.5102,0.2788,0.0091,-0.0181,-0.0658,-0.0024,0.08,0.43,-14.32,0,4.059,-0.394,0.127,0.119,0.009,-0.007,0.998,0.000,0.000,0.000,0.0080,35,-5,0.00,0.00,0.00,0.0000,0.0000,0.0000,0.0000,0.0000,0.0000,0.0000,0.00,0.00,0.00,0.2770,0.1370,0.0000,0.4820,0.0000,0,0.0000,0.0000,0.0000,0.0000,0.0000,0
2128,-0.5104,0.2788,0.0087,-0.0163,-0.0555,-0.0041,0.34,0.37,-14.25,0,4.065,-0.187,0.125,0.330,0.009,-0.002,1.000,0.000,0.000,0.000,0.0100,3,-2,0.00,0.00,0.00,0.0000,0.0000,0.0000,0.0000,0.0000,0.0000,0.0000,0.00,0.00,0.00,0.2750,0.0000,0.0000,0.4820,0.0000,0,0.0000,0.0000,0.0000,0.0000,0.0000,0
2180,-0.5120,0.2651,0.0086,-0.0200,-0.1090,-0.0041,0.41,0.34,-14.18,0,4.059,-0.032,-0.100,-0.228,0.008,-0.004,0.999,0.000,0.000,0.000,0.0090,-11,0,0.00,0.00,0.00,0.0000,0.0000,0.0000,0.0000,0.0000,0.0000,0.0000,0.00,0.00,0.00,0.2750,0.0000,0.0000,0.4860,0.0000,0,0.0000,0.0000,0.0000,0.0000,0.0000,0
2231,-0.5132,0.2605,0.0088,-0.0216,-0.1094,-0.0023,0.24,0.38,-14.12,0,4.065,-0.281,-0.156,0.388,0.008,-0.004,1.000,0.000,0.000,0.000,0.0090,0,0,0.00,0.00,0.00,0.0000,0.0000,0.0000,0.0000,0.0000,0.0000,0.0000,0.00,0.00,0.00,0.2750,0.1350,0.0000,0.4860,0.0000,0,0.0000,0.0000,0.0000,0.0000,0.0000,0
2282,-0.5128,0.2614,0.0093,-0.0149,-0.0839,0.0009,0.14,0.38,-14.05,0,4.059,0.033,-0.276,-0.067,0.008,-0.005,1.000,0.000,0.000,0.000,0.0080,-5,3,0.00,0.00,0.00,0.0000,0.0000,0.0000,0.0000,0.0000,0.0000,0.0000,0.00,0.00,0.00,0.2750,0.1350,0.0000,0.4820,0.0000,0,0.0000,0.0000,0.0000,0.0000,0.0000,0
2332,-0.5118,0.2597,0.0089,-0.0068,-0.0741,-0.0011,-0.06,0.38,-13.98,0,4.065,-0.178,-0.139,-0.021,0.009,-0.004,0.998,0.000,0.000,0.000,0.0080,-3,4,0.00,0.00,0.00,0.0000,0.0000,0.0000,0.0000,0.0000,0.0000,0.0000,0.00,0.00,0.00,0.2760,0.0000,0.0000,0.4820,0.0000,0,0.0000,0.0000,0.0000,0.0000,0.0000,0
2383,-0.5119,0.2610,0.0087,-0.0043,-0.0541,-0.0017,-0.19,0.41,-13.91,0,4.054,-0.030,0.308,0.141,0.008,-0.006,0.999,0.000,0.000,0.000,0.0090,-16,8,0.00,0.00,0.00,0.0000,0.0000,0.0000,0.0000,0.0000,0.0000,0.0000,0.00,0.00,0.00,0.2760,0.0000,0.0000,0.4850,0.0000,0,0.0000,0.0000,0.0000,0.0000,0.0000,0
2435,-0.5101,0.2753,0.0090,0.0080,0.0339,0.0013,-0.98,0.52,-13.84,0,4.065,0.184,-0.161,0.067,0.008,-0.005,0.999,0.000,0.000,0.000,0.0070,-6,1,0.00,0.00,0.00,0.0000,0.0000,0.0000,0.0000,0.0000,0.0000,0.0000,0.00,0.00,0.00,0.2760,0.0000,0.0000,0.4850,0.0000,0,0.0000,0.0000,0.0000,0.0000,0.0000,0
2486,-0.5106,0.2771,0.0083,0.0052,0.0358,-0.0022,-0.84,0.48,-13.77,0,4.054,0.108,0.117,-0.070,0.008,-0.004,0.999,0.000,0.000,0.000,0.0120,-15,5,0.00,0.00,0.00,0.0000,0.0000,0.0000,0.0000,0.0000,0.0000,0.0000,0.00,0.00,0.00,0.2760,0.0000,0.0000,0.4830,0.0000,0,0.0000,0.0000,0.0000,0.0000,0.0000,0
2536,-0.5110,0.2744,0.0101,0.0028,0.0156,0.0074,-0.73,0.49,-13.70,0,4.065,-0.041,-0.214,0.081,0.008,-0.003,0.999,0.000,0.000,0.000,0.0130,0,3,0.00,0.00,0.00,0.0000,0.0000,0.0000,0.0000,0.0000,0.0000,0.0000,0.00,0.00,0.00,0.2740,0.0000,0.0000,0.4830,0.0000,0,0.0000,0.0000,0.0000,0.0000,0.0000,0
2588,-0.5107,0.2786,0.0115,0.0052,0.0344,0.0131,-0.70,0.48,-13.64,0,4.054,0.108,0.041,-0.132,0.008,-0.004,1.000,0.000,0.000,0.000,0.0100,39,5,0.00,0.00,0.00,0.0000,0.0000,0.0000,0.0000,0.0000,0.0000,0.0000,0.00,0.00,0.00,0.2740,0.0000,0.0000,0.4790,0.0000,0,0.0000,0.0000,0.0000,0.0000,0.0000,0
2638,-0.5107,0.2764,0.0114,0.0043,0.0181,0.0091,-0.20,0.47,-13.57,0,4.065,-0.073,-0.115,-0.050,0.005,-0.007,0.999,0.000,0.000,0.000,0.0100,-4,1,0.00,0.00,0.00,0.0000,0.0000,0.0000,0.0000,0.0000,0.0000,0.0000,0.00,0.00,0.00,0.2770,0.0000,0.0000,0.4790,0.0000,0,0.0000,0.0000,0.0000,0.0000,0.0000,0
2689,-0.5134,0.2680,0.0112,-0.0095,-0.0242,0.0053,-0.25,0.45,-13.51,0,4.059,-0.629,0.580,-0.031,0.009,-0.003,1.004,0.000,0.000,0.000,0.0090,-8,4,0.00,0.00,0.00,0.0000,0.0000,0.0000,0.0000,0.0000,0.0000,0.0000,0.00,0.00,0.00,0.2770,0.0000,0.0000,0.4810,0.0000,0,0.0000,0.0000,0.0000,0.0000,0.0000,0
2741,-0.5132,0.2677,0.0105,-0.0063,-0.0208,-0.0002,-0.33,0.44,-13.44,0,4.065,-0.328,0.183,-0.167,0.006,-0.006,0.991,0.000,0.000,0.000,0.0090,27,2,0.00,0.00,0.00,0.0000,0.0000,0.0000,0.0000,0.0000,0.0000,0.0000,0.00,0.00,0.00,0.2780,0.0000,0.0000,0.4810,0.0000,0,0.0000,0.0000,0.0000,0.0000,0.0000,0
2792,-0.5124,0.2622,0.0099,0.0008,-0.0464,-0.0015,0.17,0.31,-13.37,0,4.054,0.355,0.049,0.094,0.006,-0.006,1.000,0.000,0.000,0.000,0.0090,6,-5,0.00,0.00,0.00,0.0000,0.0000,0.0000,0.0000,0.0000,0.0000,0.0000,0.00,0.00,0.00,0.2780,0.0000,0.0000,0.4840,0.0000,0,0.0000,0.0000,0.0000,0.0000,0.0000,0
2843,-0.5148,0.2546,0.0092,-0.0112,-0.0737,-0.0070,0.16,0.29,-13.30,0,4.065,-0.016,0.240,-0.136,0.006,-0.006,0.998,0.000,0.000,0.000,0.0110,20,4,0.00,0.00,0.00,0.0000,0.0000,0.0000,0.0000,0.0000,0.0000,0.0000,0.00,0.00,0.00,0.2770,0.0000,0.0000,0.4840,0.0000,0,0.0000,0.0000,0.0000,0.0000,0.0000,0
2894,-0.5137,0.2592,0.0102,-0.0026,-0.0330,0.0000,-0.05,0.39,-13.24,0,4.059,-0.087,-0.010,-0.036,0.007,-0.004,1.000,0.000,0.000,0.000,0.0100,6,5,0.00,0.00,0.00,0.0000,0.0000,0.0000,0.0000,0.0000,0.0000,0.0000,0.00,0.00,0.00,0.2770,0.0000,0.0000,0.4840,0.0000,0,0.0000,0.0000,0.0000,0.0000,0.0000,0
2946,-0.5158,0.2493,0.0099,-0.0115,-0.0772,-0.0026,0.16,0.39,-13.17,0,4.065,-0.010,-0.228,0.251,0.005,-0.005,1.002,0.000,0.000,0.000,0.0070,-2,-2,0.00,0.00,0.00,0.0000,0.0000,0.0000,0.0000,0.0000,0.0000,0.0000,0.00,0.00,0.00,0.2780,0.0000,0.0000,0.4840,0.0000,0,0.0000,0.0000,0.0000,0.0000,0.0000,0
2997,-0.5154,0.2450,0.0087,-0.0061,-0.0817,-0.0078,0.08,0.29,-13.11,0,4.059,0.199,-0.328,-0.078,0.008,-0.005,1.001,0.000,0.000,0.000,0.0110,28,2,0.00,0.00,0.00,0.0000,0.0000,0.0000,0.0000,0.0000,0.0000,0.0000,0.00,0.00,0.00,0.2780,0.0000,0.0000,0.4820,0.0000,0,0.0000,0.0000,0.0000,0.0000,0.0000,0
3047,-0.5162,0.2387,0.0093,-0.0096,-0.1002,-0.0033,0.47,0.33,-13.03,0,4.065,0.115,-0.171,-0.328,0.008,-0.007,0.999,0.000,0.000,0.000,0.0110,3,4,0.00,0.00,0.00,0.0000,0.0000,0.0000,0.0000,0.0000,0.0000,0.0000,0.00,0.00,0.00,0.2740,0.0000,0.0000,0.4820,0.0000,0,0.0000,0.0000,0.0000,0.0000,0.0000,0
3099,-0.5173,0.2338,0.0101,-0.0116,-0.1016,0.0027,0.21,0.38,-12.97,0,4.059,-0.061,-0.300,0.070,0.008,-0.005,1.003,0.000,0.000,0.000,0.0090,4,2,0.00,0.00,0.00,0.0000,0.0000,0.0000,0.0000,0.0000,0.0000,0.0000,0.00,0.00,0.00,0.2740,0.0000,0.0000,0.4840,0.0000,0,0.0000,0.0000,0.0000,0.0000,0.0000,0
3150,-0.5138,0.2339,0.0103,0.0129,-0.0770,0.0039,-0.04,0.22,-12.93,0,4.065,-0.042,0.159,0.137,0.007,-0.004,0.999,0.000,0.000,0.000,0.0070,-3,-2,0.00,0.00,0.00,0.0000,0.0000,0.0000,0.0000,0.0000,0.0000,0.0000,0.00,0.00,0.00,0.2770,0.0000,0.0000,0.4840,0.0000,0,0.0000,0.0000,0.0000,0.0000,0.0000,0
3200,-0.5179,0.2331,0.0093,-0.0108,-0.0626,-0.0012,-0.18,0.40,-12.85,0,4.059,0.206,0.059,-0.295,0.009,-0.003,0.999,0.000,0.000,0.000,0.0110,5,3,0.00,0.00,0.00,0.0000,0.0000,0.0000,0.0000,0.0000,0.0000,0.0000,0.00,0.00,0.00,0.2770,0.0000,0.0000,0.4850,0.0000,0,0.0000,0.0000,0.0000,0.0000,0.0000,0
3251,-0.5168,0.2343,0.0101,-0.0023,-0.0413,0.0036,-0.30,0.41,-12.79,0,4.065,-0.129,0.043,-0.018,0.007,-0.005,0.996,0.000,0.000,0.000,0.0090,4,0,0.00,0.00,0.00,0.0000,0.0000,0.0000,0.0000,0.0000,0.0000,0.0000,0.00,0.00,0.00,0.2770,0.0000,0.0000,0.4850,0.0000,0,0.0000,0.0000,0.0000,0.0000,0.0000,0
3303,-0.5176,0.2335,0.0098,-0.0046,-0.0329,0.0018,-0.36,0.41,-12.73,0,4.059,0.027,-0.096,-0.041,0.009,-0.005,0.999,0.000,0.000,0.000,0.0100,6,1,0.00,0.00,0.00,0.0000,0.0000,0.0000,0.0000,0.0000,0.0000,0.0000,0.00,0.00,0.00,0.2770,0.0000,0.0000,0.4860,0.0000,0,0.0000,0.0000,0.0000,0.0000,0.0000,0
3353,-0.5165,0.2340,0.0100,0.0036,-0.0206,0.0009,-0.45,0.38,-12.68,0,4.065,-0.077,-0.256,-0.055,0.006,-0.006,1.001,0.000,0.000,0.000,0.0090,5,-3,0.00,0.00,0.00,0.0000,0.0000,0.0000,0.0000,0.0000,0.0000,0.0000,0.00,0.00,0.00,0.2770,0.0000,0.0000,0.4860,0.0000,0,0.0000,0.0000,0.0000,0.0000,0.0000,0
3404,-0.5174,0.2340,0.0096,-0.0015,-0.0125,-0.0011,-0.48,0.39,-12.62,0,4.059,-0.003,0.008,0.019,0.008,-0.006,1.002,0.000,0.000,0.000,0.0100,-4,4,0.00,0.00,0.00,0.0000,0.0000,0.0000,0.0000,0.0000,0.0000,0.0000,0.00,0.00,0.00,0.2770,0.0000,0.0000,0.4850,0.0000,0,0.0000,0.0000,0.0000,0.0000,0.0000,0
3456,-0.5182,0.2287,0.0097,-0.0045,-0.0361,-0.0000,-0.38,0.44,-12.56,0,4.065,-0.268,-0.141,0.155,0.009,-0.005,1.000,0.000,0.000,0.000,0.0100,0,1,0.00,0.00,0.00,0.0000,0.0000,0.0000,0.0000,0.0000,0.0000,0.0000,0.00,0.00,0.00,0.2790,0.0000,0.0000,0.4850,0.0000,0,0.0000,0.0000,0.0000,0.0000,0.0000,0
3507,-0.5187,0.2321,0.0100,-0.0054,-0.0084,0.0018,-0.54,0.47,-12.49,0,4.059,-0.103,-0.019,0.190,0.009,-0.003,1.003,0.000,0.000,0.000,0.0100,-4,5,0.00,0.00,0.00,0.0000,0.0000,0.0000,0.0000,0.0000,0.0000,0.0000,0.00,0.00,0.00,0.2790,0.0000,0.0000,0.4850,0.0000,0,0.0000,0.0000,0.0000,0.0000,0.0000,0
3558,-0.5184,0.2344,0.0102,-0.0026,0.0066,0.0026,-0.67,0.50,-12.43,0,4.065,0.128,0.058,-0.128,0.010,-0.003,1.001,0.000,0.000,0.000,0.0080,-14,3,0.00,0.00,0.00,0.0000,0.0000,0.0000,0.0000,0.0000,0.0000,0.0000,0.00,0.00,0.00,0.2760,0.0000,0.0000,0.4850,0.0000,0,0.0000,0.0000,0.0000,0.0000,0.0000,0
3608,-0.5188,0.2346,0.0094,-0.0026,0.0089,-0.0020,-0.74,0.48,-12.37,0,4.059,-0.178,0.032,-0.180,0.007,-0.005,0.999,0.000,0.000,0.000,0.0090,8,5,0.00,0.00,0.00,0.0000,0.0000,0.0000,0.0000,0.0000,0.0000,0.0000,0.00,0.00,0.00,0.2760,0.0000,0.0000,0.4860,0.0000,0,0.0000,0.0000,0.0000,0.0000,0.0000,0
3659,-0.5175,0.2383,0.0092,0.0051,0.0267,-0.0028,-0.67,0.47,-12.30,0,4.059,0.194,0.166,0.052,0.005,-0.005,0.999,0.000,0.000,0.000,0.0090,2,0,0.00,0.00,0.00,0.0000,0.0000,0.0000,0.0000,0.0000,0.0000,0.0000,0.00,0.00,0.00,0.2740,0.0000,0.0000,0.4860,0.0000,0,0.0000,0.0000,0.0000,0.0000,0.0000,0
3711,-0.5188,0.2382,0.0091,-0.0015,0.0238,-0.0029,-0.65,0.46,-12.24,0,4.059,-0.026,0.082,-0.166,0.003,-0.007,1.000,0.000,0.000,0.000,0.0070,25,8,0.00,0.00,0.00,0.0000,0.0000,0.0000,0.0000,0.0000,0.0000,0.0000,0.00,0.00,0.00,0.2740,0.0000,0.0000,0.4840,0.0000,0,0.0000,0.0000,0.0000,0.0000,0.0000,0
3762,-0.5196,0.2355,0.0082,-0.0056,0.0067,-0.0067,-0.29,0.52,-12.19,0,4.065,0.065,0.064,0.002,0.009,-0.007,1.001,0.000,0.000,0.000,0.0080,-1,-2,0.00,0.00,0.00,0.0000,0.0000,0.0000,0.0000,0.0000,0.0000,0.0000,0.00,0.00,0.00,0.2750,0.0000,0.0000,0.4840,0.0000,0,0.0000,0.0000,0.0000,0.0000,0.0000,0
3814,-0.5220,0.2310,0.0079,-0.0149,-0.0150,-0.0056,-0.34,0.46,-12.13,0,4.059,0.085,-0.003,0.173,0.007,-0.004,0.998,0.000,0.000,0.000,0.0120,2,-11,0.00,0.00,0.00,0.0000,0.0000,0.0000,0.0000,0.0000,0.0000,0.0000,0.00,0.00,0.00,0.2750,0.0000,0.0000,0.4830,0.0000,0,0.0000,0.0000,0.0000,0.0000,0.0000,0
3865,-0.0001,-0.0000,0.0120,-0.0130,-0.0022,-0.0001,-0.00,-0.07,-0.00,0,4.065,-0.020,0.072,0.181,0.009,-0.004,1.001,0.000,0.000,0.000,0.0100,3,-1,0.00,0.00,0.00,0.0000,0.0000,0.0000,0.0000,0.0000,0.0000,0.0000,0.00,0.00,0.00,0.2750,0.0000,0.0000,0.4830,0.0000,0,0.0000,0.0000,0.0000,0.0000,0.0000,0
3916,-0.0001,0.0009,0.0111,-0.0008,0.0203,-0.0004,-0.51,0.03,-0.00,0,4.059,0.044,-0.257,0.058,0.008,-0.006,0.999,0.000,0.000,0.000,0.0060,11,1,0.00,0.00,0.00,0.0000,0.0000,0.0000,0.0000,0.0000,0.0000,0.0000,0.00,0.00,0.00,0.2750,0.0000,0.0000,0.4840,0.0000,0,0.0000,0.0000,0.0000,0.0000,0.0000,0
3967,0.0002,0.0021,0.0091,0.0056,0.0254,-0.0065,-0.15,0.06,-0.00,0,4.065,0.186,-0.281,-0.347,0.006,-0.005,1.002,0.000,0.000,0.000,0.0110,0,4,0.00,0.00,0.00,0.0000,0.0000,0.0000,0.0000,0.0000,0.0000,0.0000,0.00,0.00,0.00,0.2780,0.0000,0.0000,0.4840,0.0000,0,0.0000,0.0000,0.0000,0.0000,0.0000,0
4017,0.0005,-0.0036,0.0096,0.0088,-0.0515,-0.0037,1.29,0.22,-0.01,0,4.054,0.047,-0.203,-0.042,0.008,-0.003,1.000,0.000,0.000,0.000,0.0100,15,1,0.00,0.00,0.00,0.0000,0.0000,0.0000,0.0000,0.0000,0.0000,0.0000,0.00,0.00,0.00,0.2780,0.0000,0.0000,0.4860,0.0000,0,0.0000,0.0000,0.0000,0.0000,0.0000,0
4068,-0.0003,-0.0051,0.0099,0.0001,-0.0566,-0.0010,1.82,0.33,-0.02,0,4.065,0.016,-0.105,-0.028,0.006,-0.006,0.999,0.000,0.000,0.000,0.0110,4,2,0.00,0.00,0.00,0.0000,0.0000,0.0000,0.0000,0.0000,0.0000,0.0000,0.00,0.00,0.00,0.2760,0.0000,0.0000,0.4860,0.0000,0,0.0000,0.0000,0.0000,0.0000,0.0000,0
4120,-0.0003,-0.0073,0.0105,0.0013,-0.0590,0.0025,1.04,0.36,-0.02,0,4.059,0.131,-0.018,-0.172,0.007,-0.004,1.001,0.000,0.000,0.000,0.0100,-22,12,0.00,0.00,0.00,0.0000,0.0000,0.0000,0.0000,0.0000,0.0000,0.0000,0.00,0.00,0.00,0.2760,0.0000,0.0000,0.4860,0.0000,0,0.0000,0.0000,0.0000,0.0000,0.0000,0
4171,0.0012,-0.0059,0.0106,0.0148,-0.0324,0.0020,-0.55,0.47,-0.01,0,4.065,0.202,-0.169,-0.290,0.005,-0.007,0.998,0.000,0.000,0.000,0.0100,-2,0,0.00,0.00,0.00,0.0000,0.0000,0.0000,0.0000,0.0000,0.0000,0.0000,0.00,0.00,0.00,0.2750,0.0000,0.0000,0.4860,0.0000,0,0.0000,0.0000,0.0000,0.0000,0.0000,0
4222,-0.0019,-0.0019,0.0105,-0.0095,0.0016,0.0008,-0.43,0.47,-0.01,0,4.059,-0.282,-0.095,0.207,0.006,-0.007,0.998,0.000,0.000,0.000,0.0110,-9,1,0.00,0.00,0.00,0.0000,0.0000,0.0000,0.0000,0.0000,0.0000,0.0000,0.00,0.00,0.00,0.2750,0.0000,0.0000,0.4860,0.0000,0,0.0000,0.0000,0.0000,0.0000,0.0000,0
4272,-0.0014,-0.0035,0.0108,-0.0034,-0.0111,0.0013,-0.42,0.40,-0.01,0,4.059,-0.238,-0.202,0.087,0.007,-0.005,1.000,0.000,0.000,0.000,0.0110,6,1,0.00,0.00,0.00,0.0000,0.0000,0.0000,0.0000,0.0000,0.0000,0.0000,0.00,0.00,0.00,0.2740,0.0000,0.0000,0.4860,0.0000,0,0.0000,0.0000,0.0000,0.0000,0.0000,0
4323,-0.0005,-0.0005,0.0109,0.0041,0.0101,0.0015,-0.35,0.30,-0.01,0,4.059,-0.413,-0.205,0.202,0.005,-0.002,1.000,0.000,0.000,0.000,0.0070,1,1,0.00,0.00,0.00,0.0000,0.0000,0.0000,0.0000,0.0000,0.0000,0.0000,0.00,0.00,0.00,0.2740,0.0000,0.0000,0.4830,0.0000,0,0.0000,0.0000,0.0000,0.0000,0.0000,0
4375,-0.0007,-0.0073,0.0093,0.0032,-0.0345,-0.0078,0.10,0.32,-0.02,0,4.065,0.040,-0.180,-0.257,0.005,-0.005,1.000,0.000,0.000,0.000,0.0080,3,5,0.00,0.00,0.00,0.0000,0.0000,0.0000,0.0000,0.0000,0.0000,0.0000,0.00,0.00,0.00,0.2770,0.0000,0.0000,0.4830,0.0000,0,0.0000,0.0000,0.0000,0.0000,0.0000,0
4426,-0.0004,-0.0117,0.0085,0.0049,-0.0529,-0.0104,0.31,0.37,-0.02,0,4.054,0.051,0.044,-0.099,0.006,-0.004,0.999,0.000,0.000,0.000,0.0090,2,3,0.00,0.00,0.00,0.0000,0.0000,0.0000,0.0000,0.0000,0.0000,0.0000,0.00,0.00,0.00,0.2770,0.0000,0.0000,0.4820,0.0000,0,0.0000,0.0000,0.0000,0.0000,0.0000,0
4476,-0.0007,-0.0211,0.0080,0.0034,-0.0973,-0.0115,0.71,0.35,-0.02,0,4.059,-0.202,0.088,0.021,0.008,-0.006,1.000,0.000,0.000,0.000,0.0070,0,1,0.00,0.00,0.00,0.0000,0.0000,0.0000,0.0000,0.0000,0.0000,0.0000,0.00,0.00,0.00,0.2800,0.0000,0.0000,0.4820,0.0000,0,0.0000,0.0000,0.0000,0.0000,0.0000,0
4528,-0.0007,-0.0124,0.0081,0.0036,-0.0327,-0.0076,-0.07,0.32,-0.02,0,4.059,0.114,-0.164,-0.123,0.007,-0.005,1.000,0.000,0.000,0.000,0.0100,-14,0,0.00,0.00,0.00,0.0000,0.0000,0.0000,0.0000,0.0000,0.0000,0.0000,0.00,0.00,0.00,0.2800,0.0000,0.0000,0.4860,0.0000,0,0.0000,0.0000,0.0000,0.0000,0.0000,0
4578,-0.0012,-0.0155,0.0087,0.0009,-0.0424,-0.0024,-0.18,0.34,-0.01,0,4.059,-0.301,-0.036,0.156,0.008,-0.003,1.000,0.000,0.000,0.000,0.0090,0,1,0.00,0.00,0.00,0.0000,0.0000,0.0000,0.0000,0.0000,0.0000,0.0000,0.00,0.00,0.00,0.2780,0.0000,0.0000,0.4860,0.0000,0,0.0000,0.0000,0.0000,0.0000,0.0000,0
4630,-0.0007,-0.0124,0.0089,0.0041,-0.0172,-0.0009,-0.26,0.34,-0.01,0,4.059,-0.209,-0.062,-0.148,0.008,-0.004,0.998,0.000,0.000,0.000,0.0110,-13,6,0.00,0.00,0.00,0.0000,0.0000,0.0000,0.0000,0.0000,0.0000,0.0000,0.00,0.00,0.00,0.2780,0.0000,0.0000,0.4830,0.0000,0,0.0000,0.0000,0.0000,0.0000,0.0000,0
4680,0.0002,-0.0153,0.0098,0.0096,-0.0296,0.0034,-0.31,0.36,-0.02,0,4.065,-0.017,0.149,0.100,0.008,-0.004,1.001,0.000,0.000,0.000,0.0100,8,0,0.00,0.00,0.00,0.0000,0.0000,0.0000,0.0000,0.0000,0.0000,0.0000,0.00,0.00,0.00,0.2730,0.0000,0.0000,0.4830,0.0000,0,0.0000,0.0000,0.0000,0.0000,0.0000,0
4731,-0.0012,-0.0126,0.0100,0.0013,-0.0102,0.0040,-0.20,0.35,-0.02,0,4.054,0.047,-0.165,-0.104,0.006,-0.004,0.998,0.000,0.000,0.000,0.0080,-10,3,0.00,0.00,0.00,0.0000,0.0000,0.0000,0.0000,0.0000,0.0000,0.0000,0.00,0.00,0.00,0.2730,0.0000,0.0000,0.4850,0.0000,0,0.0000,0.0000,0.0000,0.0000,0.0000,0
4783,0.0002,-0.0164,0.0093,0.0085,-0.0253,-0.0012,-0.31,0.34,-0.02,0,4.054,-0.218,0.069,-0.126,0.008,-0.002,0.999,0.000,0.000,0.000,0.0090,-8,1,0.00,0.00,0.00,0.0000,0.0000,0.0000,0.0000,0.0000,0.0000,0.0000,0.00,0.00,0.00,0.2740,0.0000,0.0000,0.4850,0.0000,0,0.0000,0.0000,0.0000,0.0000,0.0000,0
4833,-0.0004,-0.0145,0.0092,0.0051,-0.0116,-0.0012,-0.39,0.34,-0.02,0,4.059,-0.223,0.036,-0.073,0.007,-0.005,0.999,0.000,0.000,0.000,0.0080,26,1,0.00,0.00,0.00,0.0000,0.0000,0.0000,0.0000,0.0000,0.0000,0.0000,0.00,0.00,0.00,0.2740,0.0000,0.0000,0.4830,0.0000,0,0.0000,0.0000,0.0000,0.0000,0.0000,0
4884,0.0023,-0.0154,0.0087,0.0190,-0.0138,-0.0041,0.01,0.23,-0.02,0,4.065,-0.305,-0.176,-0.106,0.007,-0.004,0.999,0.000,0.000,0.000,0.0110,-36,5,0.00,0.00,0.00,0.0000,0.0000,0.0000,0.0000,0.0000,0.0000,0.0000,0.00,0.00,0.00,0.2770,0.0000,0.0000,0.4830,0.0000,0,0.0000,0.0000,0.0000,0.0000,0.0000,0
4936,0.0017,-0.0289,0.0093,0.0132,-0.0740,-0.0012,-0.17,0.34,-0.02,0,4.054,-0.115,0.060,0.315,0.007,-0.006,1.000,0.000,0.000,0.000,0.0070,-21,0,0.00,0.00,0.00,0.0000,0.0000,0.0000,0.0000,0.0000,0.0000,0.0000,0.00,0.00,0.00,0.2770,0.0000,0.0000,0.4800,0.0000,0,0.0000,0.0000,0.0000,0.0000,0.0000,0
4986,0.0009,-0.0101,0.0089,0.0084,0.0271,-0.0029,-0.84,0.33,-0.02,0,4.059,0.021,0.100,-0.015,0.006,-0.006,1.002,0.000,0.000,0.000,0.0060,8,2,0.00,0.00,0.00,0.0000,0.0000,0.0000,0.0000,0.0000,0.0000,0.0000,0.00,0.00,0.00,0.2770,0.0000,0.0000,0.4800,0.0000,0,0.0000,0.0000,0.0000,0.0000,0.0000,0
5037,0.0018,-0.0043,0.0075,0.0109,0.0498,-0.0090,-0.69,0.33,-0.02,0,4.059,0.073,-0.124,-0.183,0.007,-0.003,1.001,0.000,0.000,0.000,0.0090,-45,1,0.00,0.00,0.00,0.0000,0.0000,0.0000,0.0000,0.0000,0.0000,0.0000,0.00,0.00,0.00,0.2770,0.0000,0.0000,0.4870,0.0000,0,0.0000,0.0000,0.0000,0.0000,0.0000,0
5089,0.0019,-0.0022,0.0079,0.0110,0.0536,-0.0043,-1.19,0.32,-0.02,0,3.626,-0.501,-1.297,0.561,0.011,-0.003,1.002,0.000,0.000,0.000,0.0090,-19,-8,0.00,0.00,0.00,0.0000,0.0000,0.0000,0.0000,0.0000,0.0000,0.0000,0.00,0.00,0.00,0.2730,0.0000,0.0000,0.4870,0.0000,0,0.0000,0.0000,0.0000,0.0000,0.0000,0
5140,0.0016,0.0110,0.0079,0.0059,0.1057,-0.0034,-1.28,0.29,-0.01,0,3.711,0.558,-1.219,0.022,0.010,-0.013,1.001,0.000,0.000,0.000,0.0090,7,6,0.00,0.00,0.00,0.0000,0.0000,0.0000,0.0000,0.0000,0.0000,0.0000,0.00,0.00,0.00,0.2730,0.0000,0.0000,0.4850,0.0000,0,0.0000,0.0000,0.0000,0.0000,0.0000,0
5190,0.0039,0.0162,0.0084,0.0120,0.1125,0.0009,-0.98,0.41,-0.02,0,3.753,0.687,-2.076,1.186,0.008,-0.015,1.014,0.000,0.000,0.000,0.0100,-1,0,0.00,0.00,0.00,0.0000,0.0000,0.0000,0.0000,0.0000,0.0000,0.0000,0.00,0.00,0.00,0.2730,0.0000,0.0000,0.4850,0.0000,0,0.0000,0.0000,0.0000,0.0000,0.0000,0
5242,0.0030,0.0135,0.0098,0.0026,0.0815,0.0103,-0.72,0.47,0.08,0,3.774,2.180,-4.038,-1.651,0.024,-0.023,0.995,0.000,0.000,0.000,0.0060,0,1,0.00,0.00,0.00,0.0000,0.0000,0.0000,0.0000,0.0000,0.0000,0.0000,0.00,0.00,0.00,0.2730,0.0000,0.0000,0.4850,0.0000,0,0.0000,0.0000,0.0000,0.0000,0.0000,0
5292,0.0032,0.0137,0.0086,-0.0002,0.0692,0.0007,-0.58,0.51,-0.08,0,3.785,4.127,-3.245,-2.868,0.002,0.019,1.000,0.000,0.000,0.000,0.0080,6,-4,0.00,0.00,0.00,0.0000,0.0000,0.0000,0.0000,0.0000,0.0000,0.0000,0.00,0.00,0.00,0.2770,0.0000,0.0000,0.4850,0.0000,0,0.0000,0.0000,0.0000,0.0000,0.0000,0
5344,0.0026,0.0150,0.0085,-0.0073,0.0638,0.0054,-0.39,0.58,-0.10,0,3.785,6.914,0.482,-5.404,-0.005,-0.024,1.024,0.000,0.000,0.000,0.0080,24,3,0.00,0.00,0.00,0.0000,0.0000,0.0000,0.0000,0.0000,0.0000,0.0000,0.00,0.00,0.00,0.2770,0.0000,0.0000,0.4840,0.0000,0,0.0000,0.0000,0.0000,0.0000,0.0000,0
5395,0.0047,0.0168,0.0086,0.0002,0.0613,0.0077,-0.14,0.62,-0.28,0,3.779,-3.442,-0.234,0.314,0.011,-0.020,0.978,0.000,0.000,0.000,0.0090,15,4,0.00,0.00,0.00,0.0000,0.0000,0.0000,0.0000,0.0000,0.0000,0.0000,0.00,0.00,0.00,0.2770,0.0000,0.0000,0.4840,0.0000,0,0.0000,0.0000,0.0000,0.0000,0.0000,0
5446,0.0025,0.0041,0.0090,-0.0153,-0.0106,0.0044,0.38,0.77,-0.29,0,3.774,-2.470,5.277,8.933,0.007,-0.029,1.019,0.000,0.000,0.000,0.0080,-21,3,0.00,0.00,0.00,0.0000,0.0000,0.0000,0.0000,0.0000,0.0000,0.0000,0.00,0.00,0.00,0.2770,0.0000,0.0000,0.4860,0.0000,0,0.0000,0.0000,0.0000,0.0000,0.0000,0
5497,-0.0003,0.0064,0.0089,-0.0303,0.0053,0.0041,-0.18,0.79,0.09,0,3.774,-9.312,1.095,-1.218,-0.004,-0.020,0.920,0.000,0.000,0.000,0.0090,7,8,0.00,0.00,0.00,0.0000,0.0000,0.0000,0.0000,0.0000,0.0000,0.0000,0.00,0.00,0.00,0.2780,0.0000,0.0000,0.4860,0.0000,0,0.0000,0.0000,0.0000,0.0000,0.0000,0
5547,-0.0074,0.0075,0.0092,-0.0647,0.0065,-0.0018,0.07,1.07,0.02,0,3.769,5.949,-2.147,5.167,-0.007,-0.015,1.019,0.000,0.000,0.000,0.0080,-3,21,0.00,0.00,0.00,0.0000,0.0000,0.0000,0.0000,0.0000,0.0000,0.0000,0.00,0.00,0.00,0.2780,0.0000,0.0000,0.4890,0.0000,0,0.0000,0.0000,0.0000,0.0000,0.0000,0
5599,-0.0163,0.0139,0.0084,-0.1000,0.0382,0.0046,-0.21,1.45,0.23,0,3.764,-0.523,-0.775,4.394,0.019,-0.014,1.003,0.000,0.000,0.000,0.0100,-15,1,0.00,0.00,0.00,0.0000,0.0000,0.0000,0.0000,0.0000,0.0000,0.0000,0.00,0.00,0.00,0.2760,0.0000,0.0000,0.4890,0.0000,0,0.0000,0.0000,0.0000,0.0000,0.0000,0
5650,-0.0280,0.0100,0.0086,-0.1430,0.0091,-0.0009,-0.15,1.46,0.51,0,3.758,-3.818,1.183,0.893,0.023,-0.008,1.011,0.000,0.000,0.000,0.0100,-21,-3,0.00,0.00,0.00,0.0000,0.0000,0.0000,0.0000,0.0000,0.0000,0.0000,0.00,0.00,0.00,0.2760,0.0000,0.0000,0.4870,0.0000,0,0.0000,0.0000,0.0000,0.0000,0.0000,0
5701,-0.0425,0.0206,0.0082,-0.1908,0.0603,-0.0042,-0.85,1.36,0.63,0,3.753,-4.920,6.177,6.507,0.013,0.009,0.993,0.000,0.000,0.000,0.0090,-10,-2,0.00,0.00,0.00,0.0000,0.0000,0.0000,0.0000,0.0000,0.0000,0.0000,0.00,0.00,0.00,0.2820,0.0000,0.0000,0.4870,0.0000,0,0.0000,0.0000,0.0000,0.0000,0.0000,0
5752,-0.0436,0.0252,0.0099,-0.1587,0.0718,0.0071,-1.02,0.81,0.79,0,3.753,16.084,6.030,-0.237,-0.006,-0.005,1.022,0.000,0.000,0.000,0.0120,-24,8,0.00,0.00,0.00,0.0000,0.0000,0.0000,0.0000,0.0000,0.0000,0.0000,0.00,0.00,0.00,0.2820,0.0000,0.0000,0.4990,0.0000,0,0.0000,0.0000,0.0000,0.0000,0.0000,0
5802,-0.0431,0.0259,0.0125,-0.1221,0.0658,0.0324,-0.58,0.31,0.79,0,3.748,23.640,-13.099,1.470,0.006,-0.010,1.024,0.000,0.000,0.000,0.0080,-3,10,0.00,0.00,0.00,0.0000,0.0000,0.0000,0.0000,0.0000,0.0000,0.0000,0.00,0.00,0.00,0.2820,0.0000,0.0000,0.4990,0.0000,0,0.0000,0.0000,0.0000,0.0000,0.0000,0
5854,-0.0453,0.0328,0.0119,-0.1049,0.0843,0.0282,0.82,0.14,0.80,0,3.743,8.200,16.874,7.359,-0.001,0.009,1.010,0.000,0.000,0.000,0.0120,1,-2,0.00,0.00,0.00,0.0000,0.0000,0.0000,0.0000,0.0000,0.0000,0.0000,0.00,0.00,0.00,0.2820,0.0000,0.0000,0.4760,0.0000,0,0.0000,0.0000,0.0000,0.0000,0.0000,0
5904,-0.0471,0.0369,0.0131,-0.0857,0.0780,0.0273,1.37,-0.91,1.18,0,3.737,-4.417,32.272,11.598,-0.004,0.003,1.013,0.000,0.000,0.000,0.0120,22,-5,0.00,0.00,0.00,0.0000,0.0000,0.0000,0.0000,0.0000,0.0000,0.0000,0.00,0.00,0.00,0.2790,0.0000,0.0000,0.4760,0.0000,0,0.0000,0.0000,0.0000,0.0000,0.0000,0
5956,-0.0360,0.0273,0.0135,0.0026,-0.0009,0.0220,1.91,-2.82,1.82,0,3.721,13.809,1.825,15.661,-0.022,0.006,0.983,0.000,0.000,0.000,0.0090,16,-16,0.00,0.00,0.00,0.0000,0.0000,0.0000,0.0000,0.0000,0.0000,0.0000,0.00,0.00,0.00,0.2790,0.0000,0.0000,0.4540,0.0000,0,0.0000,0.0000,0.0000,0.0000,0.0000,0
6007,-0.0185,0.0058,0.0082,0.1132,-0.1239,-0.0175,3.43,-3.63,2.55,0,3.711,-15.411,-13.488,-0.791,-0.012,-0.003,0.984,0.000,0.000,0.000,0.0000,26,-22,0.00,0.00,0.00,0.0000,0.0000,0.0000,0.0000,0.0000,0.0000,0.0000,0.00,0.00,0.00,0.2770,0.0000,0.0000,0.4540,0.0000,0,0.0000,0.0000,0.0000,0.0000,0.0000,0
6058,-0.0022,-0.0187,-0.0020,0.1943,-0.2402,-0.0724,3.65,-3.43,2.69,0,3.684,-94.989,-51.953,-5.202,-0.010,0.002,0.995,0.000,0.000,0.000,0.0000,68,-49,0.00,0.00,0.00,0.0000,0.0000,0.0000,0.0000,0.0000,0.0000,0.0000,0.00,0.00,0.00,0.2770,0.0000,0.0000,0.4390,0.0000,0,0.0000,0.0000,0.0000,0.0000,0.0000,0
6109,0.0161,-0.0492,-0.0103,0.2623,-0.3514,-0.0918,0.71,-1.77,2.54,0,3.679,-32.452,-38.114,-2.091,-0.001,-0.020,1.096,0.000,0.000,0.000,0.0000,6,-17,0.00,0.00,0.00,0.0000,0.0000,0.0000,0.0000,0.0000,0.0000,0.0000,0.00,0.00,0.00,0.2740,0.0000,0.0000,0.4390,1.1670,0,0.0000,0.0000,0.0000,0.0000,0.0000,0
6161,0.0386,-0.0727,-0.0109,0.3148,-0.3760,-0.0360,-1.70,0.40,2.28,0,3.690,-63.953,-69.526,-13.593,0.011,-0.022,1.095,0.000,0.000,0.000,0.0000,0,-22,0.00,0.00,0.00,0.0000,0.0000,0.0000,0.0000,0.0000,0.0000,0.0000,0.00,0.00,0.00,0.2740,0.0000,0.0000,0.4840,1.1670,0,0.0000,0.0000,0.0000,0.0000,0.0000,0
6211,0.0500,-0.0789,-0.0024,0.2786,-0.2923,0.0563,-5.28,3.92,1.76,0,3.706,-33.214,-31.994,-13.031,0.000,-0.007,1.070,0.000,0.000,0.000,0.0000,-7,5,0.00,0.00,0.00,0.0000,0.0000,0.0000,0.0000,0.0000,0.0000,0.0000,0.00,0.00,0.00,0.2780,0.0000,0.0000,0.4840,2.6580,0,0.0000,0.0000,0.0000,0.0000,0.0000,0
6263,0.0501,-0.0624,0.0039,0.1689,-0.0867,0.1043,-8.35,6.51,1.27,0,3.695,80.384,9.585,-17.620,0.001,-0.017,1.043,0.000,0.000,0.000,0.0080,-52,28,0.00,0.00,0.00,0.0000,0.0000,0.0000,0.0000,0.0000,0.0000,0.0000,0.00,0.00,0.00,0.2780,0.0000,0.0000,0.5080,2.6580,0,0.0000,0.0000,0.0000,0.0000,0.0000,0
6313,0.0437,-0.0508,0.0080,0.0434,0.0548,0.1178,-6.04,7.04,0.53,0,3.684,68.753,40.662,-11.355,-0.006,-0.021,0.986,0.000,0.000,0.000,0.0170,-18,17,0.00,0.00,0.00,0.0000,0.0000,0.0000,0.0000,0.0000,0.0000,0.0000,0.00,0.00,0.00,0.2900,0.1130,0.0000,0.5080,2.6410,0,0.0000,0.0000,0.0000,0.0000,0.0000,0
6364,0.0140,-0.0178,0.0070,-0.1598,0.2373,0.0953,-2.98,6.01,-0.28,0,3.669,60.278,85.452,-20.371,0.001,-0.024,1.022,0.000,0.000,0.000,0.0230,-45,47,0.00,0.00,0.00,0.0000,0.0000,0.0000,0.0000,0.0000,0.0000,0.0000,0.00,0.00,0.00,0.2900,0.1130,0.0000,0.5130,2.6410,0,0.0000,0.0000,0.0000,0.0000,0.0000,0
6416,-0.0155,0.0084,0.0093,-0.3036,0.3243,0.0929,-0.47,2.92,-1.39,0,3.669,67.490,71.133,-20.811,-0.000,-0.029,1.032,0.000,0.000,0.000,0.0310,-8,16,0.00,0.00,0.00,0.0000,0.0000,0.0000,0.0000,0.0000,0.0000,0.0000,0.00,0.00,0.00,0.3000,0.0000,0.0000,0.5130,0.0000,0,0.0000,0.0000,0.0000,0.0000,0.0000,0
6467,-0.0314,0.0245,0.0233,-0.3201,0.3148,0.1565,3.41,-1.06,-2.42,0,3.679,30.214,84.768,-13.538,0.005,-0.030,0.999,0.000,0.000,0.000,0.0400,-7,20,0.00,0.00,0.00,0.0000,0.0000,0.0000,0.0000,0.0000,0.0000,0.0000,0.00,0.00,0.00,0.3000,0.0000,0.0000,0.5390,0.0000,0,0.0000,0.0000,0.0000,0.0000,0.0000,0
6518,-0.0492,0.0360,0.0335,-0.3379,0.2843,0.1821,5.31,-5.00,-2.85,0,3.679,4.441,28.418,-3.904,-0.001,-0.030,1.001,0.000,0.000,0.000,0.0490,-8,16,0.00,0.00,0.00,0.0000,0.0000,0.0000,0.0000,0.0000,0.0000,0.0000,0.00,0.00,0.00,0.3160,0.0000,0.0000,0.5390,0.0000,0,0.0000,0.0000,0.0000,0.0000,0.0000,0
6570,-0.0661,0.0428,0.0459,-0.3018,0.2034,0.1973,5.89,-6.75,-2.93,0,3.679,-3.641,-7.243,4.070,0.005,-0.023,0.986,0.000,0.000,0.000,0.0630,2,0,0.00,0.00,0.00,0.0000,0.0000,0.0000,0.0000,0.0000,0.0000,0.0000,0.00,0.00,0.00,0.3160,0.0000,2.2140,0.5510,0.0000,0,0.0000,0.0000,0.0000,0.0000,0.0000,0
6621,-0.0766,0.0461,0.0594,-0.2290,0.1195,0.2077,5.98,-7.05,-2.78,0,3.674,-16.461,37.500,8.467,-0.011,-0.015,0.998,0.000,0.000,0.000,0.0720,12,5,0.00,0.00,0.00,0.0000,0.0000,0.0000,0.0000,0.0000,0.0000,0.0000,0.00,0.00,0.00,0.3350,0.0000,2.2140,0.5510,0.0000,0,0.0000,0.0000,0.0000,0.0000,0.0000,0
6671,-0.0789,0.0424,0.0708,-0.1329,0.0246,0.2055,5.59,-8.75,-2.13,0,3.669,-30.770,-32.397,16.441,0.013,-0.018,0.996,0.000,0.000,0.000,0.0760,20,-9,0.00,0.00,0.00,0.0000,0.0000,0.0000,0.0000,0.0000,0.0000,0.0000,0.00,0.00,0.00,0.3350,0.0000,2.3300,0.5640,0.0000,0,0.0000,0.0000,0.0000,0.0000,0.0000,0
6723,-0.0780,0.0380,0.0785,-0.0350,-0.0441,0.1833,4.35,-7.93,-1.40,0,3.669,-44.918,-52.841,23.251,0.001,-0.015,1.001,0.000,0.000,0.000,0.0820,8,-6,0.00,0.00,0.00,0.0000,0.0000,0.0000,0.0000,0.0000,0.0000,0.0000,0.00,0.00,0.00,0.3320,0.0000,2.3300,0.5640,0.8950,0,0.0000,0.0000,0.0000,0.0000,0.0000,0
6773,-0.0708,0.0229,0.0856,0.0719,-0.1369,0.1614,2.47,-5.39,-0.34,0,3.653,-45.284,-43.293,20.908,0.002,-0.007,1.001,0.000,0.000,0.000,0.0900,20,-18,0.00,0.00,0.00,0.0000,0.0000,0.0000,0.0000,0.0000,0.0000,0.0000,0.00,0.00,0.00,0.3320,0.0000,2.8220,0.5490,0.8950,0,0.0000,0.0000,0.0000,0.0000,0.0000,0
6824,-0.0652,0.0188,0.0911,0.1176,-0.1449,0.1556,0.39,-3.29,0.65,0,3.663,-16.949,-34.580,18.164,0.004,-0.005,1.015,0.000,0.000,0.000,0.0940,6,-7,0.00,0.00,0.00,0.0000,0.0000,0.0000,0.0000,0.0000,0.0000,0.0000,0.00,0.00,0.00,0.3100,0.0000,2.8220,0.5490,1.0210,0,0.0000,0.0000,0.0000,0.0000,0.0000,0
6876,-0.0533,0.0110,0.0983,0.1674,-0.1409,0.1538,-0.83,-1.49,1.47,0,3.653,-21.729,-36.980,16.642,0.005,-0.007,0.993,0.000,0.000,0.000,0.1020,6,-7,0.00,0.00,0.00,0.0000,0.0000,0.0000,0.0000,0.0000,0.3000,0.2864,-5.36,3.77,-44.23,0.3100,0.0000,0.0000,0.5260,1.0210,0,0.0000,0.0000,0.0000,0.0000,0.0000,0
6927,-0.0446,0.0034,0.1048,0.1776,-0.1364,0.1463,-1.79,0.30,2.35,0,3.658,-20.383,-24.526,13.949,0.003,-0.004,1.027,0.000,0.000,0.000,0.1010,16,-14,-0.83,1.49,1.47,-0.0533,0.0110,0.1020,0.0000,0.0000,0.3000,0.2860,-5.66,4.78,-70.64,0.2940,0.0000,0.0000,0.5260,0.0000,0,0.0000,0.0000,0.0000,0.0000,0.0000,0
6978,-0.0457,0.0058,0.1076,0.1358,-0.0879,0.1377,-2.91,1.78,3.11,0,3.642,10.658,-20.231,11.940,0.004,-0.012,1.023,0.000,0.000,0.000,0.1040,6,-7,-1.02,1.95,2.18,-0.0247,-0.0190,0.1035,0.0000,0.0000,0.3000,0.2864,-3.42,2.90,-93.21,0.2940,0.0000,0.0000,0.4970,0.0000,0,0.0000,0.0000,0.0000,0.0000,0.0000,0
7028,-0.0370,-0.0032,0.1100,0.1319,-0.0903,0.1209,-2.50,2.64,3.77,0,3.648,8.195,6.180,9.466,0.003,-0.009,1.010,0.000,0.000,0.000,0.1180,8,-6,-4.60,4.41,3.03,-0.0157,-0.0254,0.1413,0.0000,0.0000,0.3000,0.2878,-4.08,3.28,-112.97,0.2760,0.0000,0.0000,0.4970,0.0000,0,0.0000,0.0000,0.0000,0.0000,0.0000,0
7079,-0.0292,-0.0107,0.1168,0.1164,-0.0870,0.1293,-1.92,2.46,4.24,0,3.642,-12.117,6.036,7.665,0.000,-0.006,1.025,0.000,0.000,0.000,0.1220,7,-6,-4.05,5.14,3.46,-0.0086,-0.0334,0.1408,0.0000,0.0000,0.3000,0.2856,-4.46,3.14,-127.27,0.2760,0.0000,0.0000,0.4870,0.0000,0,0.0000,0.0000,0.0000,0.0000,0.0000,0
7130,-0.0227,-0.0180,0.1226,0.1003,-0.0874,0.1323,-2.23,2.19,4.62,0,3.648,-5.910,0.211,5.424,0.003,-0.010,1.021,0.000,0.000,0.000,0.1240,1,-2,-4.33,3.99,3.80,-0.0013,-0.0409,0.1385,0.0000,0.0000,0.3000,0.2842,-4.97,2.88,-138.70,0.2600,0.0000,0.0000,0.4870,0.0000,0,0.0000,0.0000,0.0000,0.0000,0.0000,0
7182,-0.0171,-0.0208,0.1272,0.0854,-0.0636,0.1298,-2.52,2.19,4.95,0,3.637,1.531,11.665,2.452,0.005,-0.012,1.018,0.000,0.000,0.000,0.1340,0,-5,-6.40,4.71,4.23,0.0007,-0.0412,0.1360,0.0000,0.0000,0.3000,0.2836,-4.13,2.60,-148.37,0.2600,0.0000,3.1330,0.4830,0.0000,0,0.0000,0.0000,0.0000,0.0000,0.0000,0
7232,-0.0120,-0.0269,0.1339,0.0707,-0.0593,0.1362,-2.29,1.59,5.00,0,3.642,3.180,-4.203,-0.493,0.004,-0.009,1.021,0.000,0.000,0.000,0.1410,0,-4,-6.51,2.75,4.41,0.0069,-0.0403,0.1409,0.0000,0.0000,0.3000,0.2816,-4.37,2.31,-150.14,0.2520,0.0000,3.1330,0.4830,0.0000,0,0.0000,0.0000,0.0000,0.0000,0.0000,0
7284,-0.0070,-0.0310,0.1415,0.0632,-0.0487,0.1469,-2.00,1.58,4.96,0,3.642,9.862,-5.924,-2.895,0.006,-0.014,1.019,0.000,0.000,0.000,0.1440,-1,-3,-5.93,2.43,4.47,0.0122,-0.0391,0.1472,0.0000,0.0000,0.3000,0.2791,-4.22,2.33,-148.88,0.2520,0.0000,0.0000,0.4870,0.0000,0,0.0000,0.0000,0.0000,0.0000,0.0000,0
7335,-0.0031,-0.0335,0.1469,0.0528,-0.0351,0.1440,-1.65,1.76,4.79,0,3.642,4.911,11.548,-4.142,0.005,-0.011,1.009,0.000,0.000,0.000,0.1560,0,-2,-5.05,2.60,4.39,0.0161,-0.0368,0.1523,0.0000,0.0000,0.3000,0.2784,-3.79,2.14,-143.84,0.2430,0.0000,0.0000,0.4870,0.0000,0,0.0000,0.0000,0.0000,0.0000,0.0000,0
7385,-0.0004,-0.0361,0.1550,0.0386,-0.0279,0.1528,-1.30,1.24,4.52,0,3.642,-2.794,10.355,-8.018,0.003,-0.007,1.019,0.000,0.000,0.000,0.1650,0,1,-4.23,1.96,4.19,0.0188,-0.0355,0.1606,0.0000,0.0000,0.3000,0.2759,-3.68,1.70,-135.61,0.2430,0.0000,0.0000,0.4910,0.0000,0,0.0000,0.0000,0.0000,0.0000,0.0000,0
7437,0.0025,-0.0370,0.1637,0.0324,-0.0165,0.1643,-1.36,0.70,4.17,0,3.653,-0.001,1.164,-8.282,0.004,-0.008,1.013,0.000,0.000,0.000,0.1740,-1,-3,-3.91,1.83,3.79,0.0171,-0.0342,0.1695,0.0000,0.0000,0.3000,0.2730,-3.26,1.64,-125.12,0.2320,0.0000,0.0000,0.4910,0.0000,0,0.0000,0.0000,0.0000,0.0000,0.0000,0
7488,0.0061,-0.0337,0.1729,0.0340,0.0099,0.1775,-1.44,0.50,3.81,0,3.648,9.247,4.388,-7.101,0.004,-0.004,1.009,0.000,0.000,0.000,0.1820,1,4,-3.65,1.33,3.41,0.0216,-0.0311,0.1794,0.0000,0.0000,0.3000,0.2699,-1.87,1.97,-114.32,0.2320,0.0000,0.0000,0.5120,0.0000,0,0.0000,0.0000,0.0000,0.0000,0.0000,0
7538,0.0090,-0.0322,0.1820,0.0341,0.0247,0.1843,-0.98,0.31,3.42,0,3.653,5.492,-0.261,-4.744,0.006,-0.009,1.001,0.000,0.000,0.000,0.1940,-1,-2,-2.66,1.77,3.26,0.0146,-0.0321,0.1886,0.0000,0.0000,0.3000,0.2674,-1.10,2.20,-102.45,0.2230,0.0000,0.0000,0.5120,0.0000,0,0.0000,0.0000,0.0000,0.0000,0.0000,0
7590,0.0149,-0.0317,0.1931,0.0479,0.0295,0.1951,-0.62,0.12,3.20,0,3.653,5.692,-4.342,-2.466,0.002,-0.008,0.993,0.000,0.000,0.000,0.2020,0,1,-2.27,1.41,2.97,0.0174,-0.0289,0.1996,0.0000,0.0000,0.3000,0.2642,-0.85,3.28,-95.96,0.2230,0.0000,0.0000,0.5050,0.0000,0,0.0000,0.0000,0.0000,0.0000,0.0000,0
7641,0.0180,-0.0301,0.2025,0.0491,0.0347,0.1925,-0.29,0.34,3.06,0,3.653,3.548,-4.849,-3.827,0.007,-0.006,0.986,0.000,0.000,0.000,0.2140,0,-1,-1.73,1.71,2.97,0.0151,-0.0284,0.2088,0.0000,0.0000,0.3000,0.2627,-0.50,3.58,-91.67,0.2130,0.0000,0.0000,0.5050,0.0000,0,0.0000,0.0000,0.0000,0.0000,0.0000,0
7693,0.0197,-0.0279,0.2138,0.0440,0.0385,0.1954,-0.07,0.59,2.87,0,3.653,4.460,-3.043,-5.787,0.008,-0.006,0.983,0.000,0.000,0.000,0.2130,3,0,-1.37,1.77,2.75,0.0164,-0.0275,0.2191,0.0000,0.0000,0.3000,0.2602,-0.16,3.49,-86.08,0.2130,0.0000,0.0000,0.4910,0.0000,0,0.0000,0.0000,0.0000,0.0000,0.0000,0
7743,0.0210,-0.0257,0.2189,0.0359,0.0399,0.1646,0.15,0.82,2.58,0,3.658,4.462,1.605,-5.431,0.005,-0.007,0.981,0.000,0.000,0.000,0.2400,-2,0,-0.68,1.88,2.59,0.0165,-0.0340,0.2250,0.0000,0.0000,0.3000,0.2626,0.06,3.17,-77.52,0.2100,0.0000,0.0000,0.4910,0.0000,0,0.0000,0.0000,0.0000,0.0000,0.0000,0
7795,0.0212,-0.0237,0.2331,0.0246,0.0389,0.1876,0.32,0.77,2.31,0,3.653,3.105,5.352,-5.717,0.008,-0.006,0.978,0.000,0.000,0.000,0.2300,0,0,-0.61,1.74,2.20,0.0155,-0.0292,0.2375,0.0000,0.0000,0.3000,0.2574,0.15,2.71,-69.16,0.2100,0.0000,0.0000,0.4710,0.0000,0,0.0000,0.0000,0.0000,0.0000,0.0000,0
7845,0.0226,-0.0198,0.2369,0.0193,0.0426,0.1489,0.50,0.47,2.01,0,3.648,6.450,0.511,-6.449,0.008,-0.009,0.977,0.000,0.000,0.000,0.2400,-3,-2,-0.44,1.47,1.90,0.0136,-0.0279,0.2424,0.0000,0.0000,0.3000,0.2609,0.60,2.52,-60.42,0.2030,0.0000,0.0000,0.4710,0.7420,0,0.0000,0.0000,0.0000,0.0000,0.0000,0
7896,0.0231,-0.0165,0.2429,0.0143,0.0421,0.1311,0.80,0.42,1.69,0,3.642,-0.293,-0.314,-5.969,0.000,-0.007,0.980,0.000,0.000,0.000,0.2480,0,0,-0.29,1.01,1.02,0.0231,-0.0212,0.2486,0.0000,0.0000,0.3000,0.2617,0.81,2.31,-50.72,0.2030,0.0000,0.0000,0.4560,0.7420,0,0.0000,0.0000,0.0000,0.0000,0.0000,0
7948,0.0244,-0.0124,0.2487,0.0129,0.0420,0.1176,0.83,0.51,1.40,0,3.642,-0.570,4.932,-4.399,0.002,-0.001,0.981,0.000,0.000,0.000,0.2540,-1,-1,-0.30,1.03,0.72,0.0232,-0.0183,0.2544,0.0000,0.0000,0.3000,0.2621,1.10,2.33,-41.88,0.1990,0.0000,0.0000,0.4560,0.7120,0,0.0000,0.0000,0.0000,0.0000,0.0000,0
7998,0.0249,-0.0087,0.2546,0.0087,0.0403,0.1091,0.79,0.35,1.16,0,3.637,6.800,1.598,-5.072,0.003,-0.010,0.990,0.000,0.000,0.000,0.2590,-1,-1,-0.21,0.67,0.42,0.0261,-0.0190,0.2597,0.0000,0.0000,0.3000,0.2619,1.28,2.17,-34.93,0.1990,0.0000,0.0000,0.4380,0.7120,0,0.0000,0.0000,0.0000,0.0000,0.0000,0
8050,0.0259,-0.0064,0.2595,0.0076,0.0346,0.1002,1.06,0.29,0.91,0,3.642,2.914,-3.491,-5.110,0.001,-0.012,0.992,0.000,0.000,0.000,0.2670,-1,1,0.12,0.55,0.09,0.0278,-0.0167,0.2647,0.0000,0.0000,0.3000,0.2619,1.17,2.20,-27.42,0.1980,0.0000,0.0000,0.4380,0.6870,0,0.0000,0.0000,0.0000,0.0000,0.0000,0
8101,0.0268,-0.0049,0.2659,0.0065,0.0254,0.1027,1.24,0.42,0.65,0,3.632,-5.743,3.953,-5.029,0.005,-0.003,0.998,0.000,0.000,0.000,0.2690,-2,2,0.25,0.80,-0.08,0.0260,-0.0143,0.2705,0.0000,0.0000,0.3000,0.2604,0.85,2.22,-19.50,0.1980,0.0000,0.0000,0.4510,0.6870,0,0.0000,0.0000,0.0000,0.0000,0.0000,0
8151,0.0275,-0.0024,0.2701,0.0045,0.0190,0.0958,0.95,0.20,0.42,0,3.637,-4.287,4.567,-4.250,0.007,-0.006,0.998,0.000,0.000,0.000,0.2770,0,0,-0.11,0.70,-0.22,0.0219,-0.0098,0.2749,0.0000,0.0000,0.3000,0.2604,0.73,2.17,-12.68,0.1990,0.0000,0.0000,0.4510,0.6750,0,0.0000,0.0000,0.0000,0.0000,0.0000,0
8202,0.0267,-0.0008,0.2762,0.0004,0.0128,0.1005,0.77,0.01,0.21,0,3.632,2.357,-0.216,-3.370,0.007,-0.004,0.997,0.000,0.000,0.000,0.2840,0,-1,-0.32,0.48,-0.43,0.0203,-0.0075,0.2804,0.0000,0.0000,0.3000,0.2587,0.55,1.93,-6.37,0.1990,0.0000,0.0000,0.5190,0.6750,0,0.0000,0.0000,0.0000,0.0000,0.0000,0
8253,0.0254,-0.0014,0.2824,-0.0031,0.0032,0.1055,0.80,0.02,0.04,0,3.637,-5.044,1.169,-3.146,0.003,-0.012,0.989,0.000,0.000,0.000,0.2920,0,1,-0.09,0.33,-0.77,0.0256,-0.0106,0.2867,0.0000,0.0000,0.3000,0.2570,0.04,1.68,-1.19,0.2000,0.0000,0.0000,0.5190,0.6580,0,0.0000,0.0000,0.0000,0.0000,0.0000,0
8304,0.0248,-0.0014,0.2899,-0.0044,-0.0033,0.1137,0.54,-0.04,-0.10,0,3.642,-5.370,4.422,-4.432,0.007,-0.003,0.991,0.000,0.000,0.000,0.2940,0,1,-0.33,0.32,-0.84,0.0236,-0.0102,0.2932,0.0000,0.0000,0.3000,0.2547,-0.27,1.60,2.95,0.2000,0.0000,0.0000,0.5600,0.6580,0,0.0000,0.0000,0.0000,0.0000,0.0000,0
8356,0.0270,-0.0013,0.2948,0.0020,-0.0070,0.1059,0.27,-0.30,-0.30,0,3.642,0.385,1.637,-3.468,0.008,-0.005,0.986,0.000,0.000,0.000,0.2980,0,0,-0.59,0.13,-0.99,0.0213,-0.0098,0.2984,0.0000,0.0000,0.3000,0.2546,-0.44,2.07,9.04,0.1920,0.1510,0.0000,0.5600,0.6390,0,0.0000,0.0000,0.0000,0.0000,0.0000,0
8406,0.0268,-0.0015,0.2996,0.0035,-0.0089,0.0973,0.25,-0.37,-0.46,0,3.632,-0.372,-3.720,-0.811,0.006,-0.009,0.985,0.000,0.000,0.000,0.2990,0,0,-0.57,0.05,-1.17,0.0206,-0.0091,0.3027,0.0000,0.0000,0.3000,0.2547,-0.55,2.12,13.80,0.1920,0.1510,0.0000,0.6120,0.6390,0,0.0000,0.0000,0.0000,0.0000,0.0000,0
8457,0.0275,-0.0018,0.3020,0.0076,-0.0105,0.0781,0.26,-0.22,-0.51,0,3.632,-0.938,-1.731,1.310,0.002,-0.012,0.984,0.000,0.000,0.000,0.3030,0,0,-0.59,0.23,-1.21,0.0200,-0.0083,0.3056,0.0000,0.0000,0.3000,0.2563,-0.64,2.36,15.23,0.1940,0.2230,0.0000,0.6120,0.6230,0,0.0000,0.0000,0.0000,0.0000,0.0000,0
8509,0.0285,-0.0022,0.3048,0.0108,-0.0123,0.0652,0.25,-0.15,-0.45,0,3.626,-1.275,-2.869,2.358,0.009,-0.008,0.992,0.000,0.000,0.000,0.3070,0,0,-0.64,0.32,-1.14,0.0193,-0.0076,0.3084,0.0000,0.0000,0.3000,0.2571,-0.76,2.58,13.40,0.1940,0.2230,0.0000,0.6590,0.6230,0,0.0000,0.0000,0.0000,0.0000,0.0000,0
8561,0.0297,-0.0026,0.3076,0.0133,-0.0137,0.0578,0.21,-0.04,-0.35,0,3.626,0.654,-4.037,2.643,0.004,-0.008,0.991,0.000,0.000,0.000,0.3100,-1,1,-0.71,0.47,-1.02,0.0187,-0.0067,0.3112,0.0000,0.0000,0.3000,0.2574,-0.85,2.78,10.35,0.1890,0.2780,0.0000,0.6590,0.6210,0,0.0000,0.0000,0.0000,0.0000,0.0000,0
8612,0.0323,-0.0029,0.3104,0.0179,-0.0148,0.0542,0.22,0.16,-0.21,0,3.626,0.129,-4.024,2.070,0.004,-0.010,0.991,0.000,0.000,0.000,0.3120,0,0,-0.65,0.67,-0.86,0.0184,-0.0072,0.3138,0.0000,0.0000,0.3000,0.2573,-0.93,3.19,6.45,0.1890,0.2780,0.0000,0.7260,0.6210,0,0.0000,0.0000,0.0000,0.0000,0.0000,0
8664,0.0312,-0.0028,0.3126,0.0124,-0.0148,0.0482,0.23,0.47,-0.12,0,3.632,-4.048,-1.343,1.787,0.007,-0.008,0.992,0.000,0.000,0.000,0.3170,0,0,-0.65,0.88,-0.75,0.0175,-0.0065,0.3159,0.0000,0.0000,0.3000,0.2575,-0.92,2.84,3.53,0.1900,0.2970,0.0000,0.7260,0.6290,0,0.0000,0.0000,0.0000,0.0000,0.0000,0
8715,0.0309,-0.0012,0.3160,0.0068,-0.0119,0.0496,0.04,0.56,-0.06,0,3.621,-1.802,2.337,0.650,0.006,-0.007,0.993,0.000,0.000,0.000,0.3230,-2,0,-0.86,0.95,-0.66,0.0165,-0.0057,0.3186,0.0000,0.0000,0.3000,0.2567,-0.67,2.57,1.66,0.1900,0.2970,0.0000,0.7640,0.6290,0,0.0000,0.0000,0.0000,0.0000,0.0000,0
8767,0.0316,-0.0025,0.3204,0.0030,-0.0136,0.0570,-0.07,0.45,-0.01,0,3.632,-0.242,1.075,0.929,0.003,-0.010,0.988,0.000,0.000,0.000,0.3220,0,0,-1.00,0.77,-0.74,0.0179,-0.0022,0.3223,0.0000,0.0000,0.3000,0.2551,-0.85,2.45,0.38,0.1890,0.3290,0.0000,0.7640,0.6210,0,0.0000,0.0000,0.0000,0.0000,0.0000,0
8818,0.0297,-0.0015,0.3229,-0.0048,-0.0100,0.0517,-0.03,0.45,0.03,0,3.626,1.701,2.289,0.886,0.003,-0.016,0.990,0.000,0.000,0.000,0.3260,0,0,-1.02,0.71,-0.70,0.0171,-0.0003,0.3243,0.0000,0.0000,0.3000,0.2552,-0.60,1.93,-0.91,0.1890,0.3290,0.0000,0.8070,0.6210,0,0.0000,0.0000,0.0000,0.0000,0.0000,0
8869,0.0289,-0.0021,0.3256,-0.0094,-0.0101,0.0486,0.06,0.31,0.08,0,3.626,-1.163,5.008,1.367,0.011,-0.009,0.990,0.000,0.000,0.000,0.3300,0,0,-0.93,0.60,-0.65,0.0160,0.0016,0.3267,0.0000,0.0000,0.3000,0.2550,-0.65,1.66,-2.44,0.1910,0.3670,0.0000,0.8070,0.6030,0,0.0000,0.0000,0.0000,0.0000,0.0000,0
8921,0.0296,-0.0018,0.3290,-0.0096,-0.0091,0.0486,0.02,0.08,0.15,0,3.626,-0.442,0.670,2.735,0.006,-0.005,0.992,0.000,0.000,0.000,0.3300,0,1,-0.99,0.34,-0.59,0.0149,0.0037,0.3294,0.0000,0.0000,0.3000,0.2543,-0.59,1.70,-4.63,0.1910,0.3670,0.0000,0.8290,0.6030,0,0.0000,0.0000,0.0000,0.0000,0.0000,0
8973,0.0312,-0.0180,0.3308,-0.0066,-0.0395,0.0413,0.18,0.05,0.30,0,3.626,-5.411,0.943,2.589,0.009,-0.010,0.989,0.000,0.000,0.000,0.3320,0,0,-0.89,0.29,-0.35,0.0145,-0.0014,0.3315,0.0000,0.0000,0.3000,0.2548,-3.24,1.96,-9.03,0.1880,0.3910,0.0000,0.8290,0.5880,0,0.0000,0.0000,0.0000,0.0000,0.0000,0
9025,0.0320,-0.0190,0.3326,-0.0045,-0.0389,0.0357,-0.13,-0.06,0.45,0,3.616,-5.762,-0.553,1.587,0.010,-0.008,0.991,0.000,0.000,0.000,0.3300,0,0,-1.18,0.24,-0.21,0.0137,-0.0007,0.3331,0.0000,0.0000,0.3000,0.2551,-3.27,2.12,-13.42,0.1880,0.3910,0.0000,0.8450,0.5880,0,0.0000,0.0000,0.0000,0.0000,0.0000,0
9077,0.0310,-0.0220,0.3324,-0.0055,-0.0398,0.0223,-0.37,-0.07,0.51,0,3.621,3.880,-1.495,-0.695,0.008,-0.014,0.997,0.000,0.000,0.000,0.3370,1,0,-1.48,0.27,-0.13,0.0131,0.0003,0.3333,0.0000,0.0000,0.3000,0.2565,-3.51,1.99,-15.35,0.1870,0.4000,0.0000,0.8450,0.5840,0,0.0000,0.0000,0.0000,0.0000,0.0000,0
9127,0.0321,-0.0240,0.3351,-0.0025,-0.0372,0.0293,-0.23,-0.11,0.46,0,3.621,-5.410,1.829,-3.500,0.007,-0.011,1.001,0.000,0.000,0.000,0.3360,0,-1,-1.19,0.33,-0.07,0.0137,-0.0035,0.3355,0.0000,0.0000,0.3000,0.2553,-3.55,2.22,-13.94,0.1870,0.4000,0.0000,0.8600,0.5840,0,0.0000,0.0000,0.0000,0.0000,0.0000,0
9178,0.0314,-0.0269,0.3363,-0.0027,-0.0368,0.0276,-0.41,-0.21,0.32,0,3.626,-1.422,-3.830,-4.242,0.007,-0.010,1.003,0.000,0.000,0.000,0.3400,0,0,-1.46,0.22,-0.26,0.0145,-0.0034,0.3368,0.0000,0.0000,0.3000,0.2552,-3.75,2.16,-9.64,0.1870,0.4060,0.0000,0.8600,0.5770,0,0.0000,0.0000,0.0000,0.0000,0.0000,0
9230,0.0326,-0.0294,0.3388,0.0012,-0.0348,0.0347,-0.43,-0.06,0.11,0,3.621,1.625,-3.646,-7.654,0.007,-0.013,0.997,0.000,0.000,0.000,0.3350,0,0,-1.53,0.42,-0.47,0.0147,-0.0028,0.3391,0.0000,0.0000,0.3000,0.2540,-3.85,2.45,-3.34,0.1870,0.4060,0.0000,0.8720,0.5770,0,0.0000,0.0000,0.0000,0.0000,0.0000,0
9280,0.0327,-0.0311,0.3382,0.0017,-0.0312,0.0232,-0.44,0.13,-0.27,0,3.621,-9.313,3.441,-7.236,0.005,-0.010,0.995,0.000,0.000,0.000,0.3440,1,-1,-1.44,0.62,-0.87,0.0149,-0.0020,0.3391,0.0000,0.0000,0.3000,0.2553,-3.78,2.46,8.18,0.1880,0.4100,0.0000,0.8720,0.5810,0,0.0000,0.0000,0.0000,0.0000,0.0000,0
9331,0.0334,-0.0320,0.3413,0.0019,-0.0263,0.0301,-0.81,0.03,-0.65,0,3.621,3.922,0.931,-7.959,0.007,-0.010,0.998,0.000,0.000,0.000,0.3430,-1,-1,-1.82,0.42,-1.15,0.0177,-0.0069,0.3419,0.0000,0.0000,0.3000,0.2540,-3.63,2.55,19.55,0.1880,0.4100,0.0000,0.8730,0.5810,0,0.0000,0.0000,0.0000,0.0000,0.0000,0
9383,0.0350,-0.0344,0.3429,0.0042,-0.0218,0.0292,-0.61,0.02,-1.05,0,3.621,6.630,-1.634,-7.334,0.004,-0.016,0.993,0.000,0.000,0.000,0.3430,-2,-2,-1.63,0.37,-1.58,0.0195,-0.0054,0.3435,0.0000,0.0000,0.3000,0.2538,-3.58,2.77,31.55,0.1850,0.4150,0.0000,0.8730,0.5760,0,0.0000,0.0000,0.0000,0.0000,0.0000,0
9433,0.0357,-0.0333,0.3439,0.0049,-0.0130,0.0252,-0.34,0.07,-1.36,0,3.616,-3.396,0.517,-5.450,-0.001,-0.012,0.995,0.000,0.000,0.000,0.3430,0,-1,-1.32,0.43,-2.01,0.0231,-0.0020,0.3444,0.0000,0.0000,0.3000,0.2540,-3.07,2.86,40.66,0.1850,0.4150,0.0000,0.8720,0.5760,0,0.0000,0.0000,0.0000,0.0000,0.0000,0
9484,0.0389,-0.0313,0.3442,0.0091,-0.0059,0.0183,-0.45,0.10,-1.72,0,3.621,0.088,-1.151,-4.047,0.007,-0.008,1.002,0.000,0.000,0.000,0.3430,0,0,-1.47,0.40,-2.27,0.0256,-0.0011,0.3449,0.0000,0.0000,0.3000,0.2547,-2.58,3.28,51.54,0.1820,0.4210,0.0000,0.8720,0.5710,0,0.0000,0.0000,0.0000,0.0000,0.0000,0
9536,0.0401,-0.0321,0.3443,0.0095,-0.0031,0.0135,-0.44,0.18,-1.90,0,3.616,3.213,1.646,-1.834,0.002,-0.009,1.004,0.000,0.000,0.000,0.3460,0,0,-1.47,0.46,-2.47,0.0273,0.0010,0.3453,0.0000,0.0000,0.3000,0.2552,-2.50,3.38,56.95,0.1820,0.4210,0.0000,0.8680,0.5710,0,0.0000,0.0000,0.0000,0.0000,0.0000,0
9587,0.0403,-0.0310,0.3454,0.0078,0.0026,0.0176,-0.35,0.18,-1.97,0,3.621,-0.704,0.800,-2.523,0.006,-0.006,0.996,0.000,0.000,0.000,0.3450,-1,0,-1.30,0.38,-2.57,0.0289,0.0036,0.3465,0.0000,0.0000,0.3000,0.2546,-2.14,3.33,59.15,0.1810,0.4160,0.0000,0.8680,0.5720,0,0.0000,0.0000,0.0000,0.0000,0.0000,0
9637,0.0404,-0.0291,0.3458,0.0058,0.0084,0.0148,-0.40,0.15,-2.09,0,3.616,4.133,0.842,-1.884,0.005,-0.008,1.006,0.000,0.000,0.000,0.3480,-1,0,-1.27,0.39,-2.62,0.0253,0.0005,0.3471,0.0000,0.0000,0.3000,0.2548,-1.73,3.23,62.74,0.1810,0.4160,0.0000,0.8680,0.5720,0,0.0000,0.0000,0.0000,0.0000,0.0000,0
9689,0.0381,-0.0272,0.3472,0.0006,0.0141,0.0184,-0.23,0.11,-2.19,0,3.616,6.425,-2.720,-0.263,0.005,-0.012,0.997,0.000,0.000,0.000,0.3480,-1,0,-1.07,0.35,-2.72,0.0257,0.0032,0.3485,0.0000,0.0000,0.3000,0.2541,-1.31,2.83,65.83,0.1830,0.4210,0.0000,0.8680,0.5700,0,0.0000,0.0000,0.0000,0.0000,0.0000,0
9739,0.0408,-0.0243,0.3482,0.0042,0.0189,0.0191,0.13,0.12,-2.23,0,3.616,5.606,2.524,2.176,-0.000,-0.010,1.000,0.000,0.000,0.000,0.3490,0,0,-0.74,0.50,-2.74,0.0260,0.0061,0.3493,0.0000,0.0000,0.3000,0.2539,-0.87,3.20,66.81,0.1830,0.4210,0.0000,0.8590,0.5700,0,0.0000,0.0000,0.0000,0.0000,0.0000,0
9790,0.0393,-0.0205,0.3491,0.0004,0.0223,0.0202,0.34,0.09,-2.13,0,3.616,5.510,7.715,3.706,0.006,-0.012,0.997,0.000,0.000,0.000,0.3480,-1,2,-0.46,0.37,-2.63,0.0262,0.0087,0.3502,0.0000,0.0000,0.3000,0.2536,-0.43,2.91,63.88,0.1830,0.4360,0.0000,0.8590,0.5700,0,0.0000,0.0000,0.0000,0.0000,0.0000,0
9841,0.0372,-0.0193,0.3493,-0.0034,0.0191,0.0162,0.65,-0.25,-1.94,0,3.611,0.661,3.210,4.874,0.002,-0.010,1.001,0.000,0.000,0.000,0.3470,0,0,-0.17,0.05,-2.37,0.0192,0.0100,0.3504,0.0000,0.0000,0.3000,0.2539,-0.50,2.57,58.22,0.1830,0.4360,0.0000,0.8500,0.5700,0,0.0000,0.0000,0.0000,0.0000,0.0000,0
9893,0.0346,-0.0161,0.3488,-0.0049,0.0170,0.0091,0.71,-0.43,-1.72,0,3.611,-9.194,2.916,9.723,0.004,-0.006,1.001,0.000,0.000,0.000,0.3480,0,0,-0.13,-0.12,-2.12,0.0179,0.0121,0.3501,0.0000,0.0000,0.3000,0.2548,-0.36,2.30,51.62,0.1830,0.4370,0.0000,0.8500,0.5480,0,0.0000,0.0000,0.0000,0.0000,0.0000,0
9943,0.0354,-0.0183,0.3487,0.0004,0.0067,0.0051,0.34,-0.58,-1.26,0,3.611,0.388,1.349,13.669,0.006,-0.009,1.007,0.000,0.000,0.000,0.3510,0,0,-0.61,-0.27,-1.61,0.0168,0.0140,0.3501,0.0000,0.0000,0.3000,0.2553,-1.02,2.61,37.74,0.1830,0.4370,0.0000,0.8610,0.5480,0,0.0000,0.0000,0.0000,0.0000,0.0000,0
9994,0.0340,-0.0187,0.3499,0.0029,0.0028,0.0124,0.33,-0.67,-0.65,0,3.611,11.506,-2.670,17.335,0.007,-0.010,1.011,0.000,0.000,0.000,0.3490,-1,-1,-0.59,-0.35,-0.93,0.0160,0.0160,0.3512,0.0000,0.0000,0.3000,0.2542,-1.24,2.64,19.45,0.1860,0.4360,0.0000,0.8610,0.5420,0,0.0000,0.0000,0.0000,0.0000,0.0000,0
10046,0.0333,-0.0171,0.3500,0.0068,0.0015,0.0141,0.85,-0.59,0.20,0,3.611,-6.564,-2.131,16.227,0.005,-0.009,1.007,0.000,0.000,0.000,0.3530,0,0,0.04,-0.27,-0.06,0.0215,0.0132,0.3517,0.0000,0.0000,0.3000,0.2540,-1.19,2.78,-5.95,0.1860,0.4360,0.0000,0.8760,0.5420,0,0.0000,0.0000,0.0000,0.0000,0.0000,0
10096,0.0356,-0.0148,0.3518,0.0150,-0.0018,0.0216,0.69,-0.53,1.02,0,3.611,-1.332,3.015,9.490,0.007,-0.008,1.017,0.000,0.000,0.000,0.3510,-2,-2,-0.29,-0.16,0.79,0.0224,0.0140,0.3533,0.0000,0.0000,0.3000,0.2529,-1.19,3.36,-30.61,0.1880,0.4460,0.0000,0.8760,0.5390,0,0.0000,0.0000,0.0000,0.0000,0.0000,0
10148,0.0364,-0.0197,0.3522,0.0196,-0.0149,0.0221,0.54,-0.64,1.56,0,3.611,9.503,-11.868,3.423,0.006,-0.014,1.007,0.000,0.000,0.000,0.3520,0,1,-0.40,-0.35,1.13,0.0266,0.0184,0.3541,0.0000,0.0000,0.3000,0.2527,-2.19,3.64,-46.76,0.1880,0.4460,0.0000,0.8840,0.5390,0,0.0000,0.0000,0.0000,0.0000,0.0000,0
10198,0.0385,-0.0189,0.3529,0.0264,-0.0176,0.0236,0.90,-0.20,1.78,0,3.616,-7.463,-9.281,-3.380,0.010,-0.017,1.004,0.000,0.000,0.000,0.3550,4,0,0.10,0.30,1.37,0.0264,0.0192,0.3552,0.0000,0.0000,0.3000,0.2525,-2.27,4.14,-53.53,0.1810,0.4460,0.0000,0.8840,0.5350,0,0.0000,0.0000,0.0000,0.0000,0.0000,0
10250,0.0396,-0.0197,0.3546,0.0273,-0.0246,0.0271,0.66,0.28,1.67,0,3.611,-6.181,0.679,-5.931,0.009,-0.015,1.005,0.000,0.000,0.000,0.3560,0,0,-0.20,0.77,1.34,0.0274,0.0134,0.3570,0.0000,0.0000,0.3000,0.2517,-2.67,4.28,-50.04,0.1810,0.4460,0.0000,0.8820,0.5350,0,0.0000,0.0000,0.0000,0.0000,0.0000,0
10301,0.0401,-0.0240,0.3562,0.0237,-0.0343,0.0312,0.25,0.23,1.37,0,3.611,-8.809,4.144,-2.449,-0.000,-0.010,0.985,0.000,0.000,0.000,0.3600,2,0,-0.51,0.74,1.03,0.0288,0.0123,0.3586,0.0000,0.0000,0.3000,0.2510,-3.48,4.15,-41.18,0.1800,0.4470,0.0000,0.8820,0.5350,0,0.0000,0.0000,0.0000,0.0000,0.0000,0
10352,0.0416,-0.0282,0.3589,0.0226,-0.0401,0.0347,-0.05,0.03,1.23,0,3.611,-11.983,-3.253,-1.129,0.003,-0.010,0.983,0.000,0.000,0.000,0.3630,2,0,-0.92,0.55,0.99,0.0279,0.0068,0.3605,0.0000,0.0000,0.3000,0.2501,-4.09,4.22,-36.75,0.1800,0.4470,0.0000,0.8930,0.5350,0,0.0000,0.0000,0.0000,0.0000,0.0000,0
10402,0.0431,-0.0309,0.3617,0.0231,-0.0399,0.0350,-0.64,0.12,1.19,0,3.616,-1.871,3.438,0.276,0.004,-0.004,0.986,0.000,0.000,0.000,0.3600,0,-1,-1.50,0.72,0.96,0.0281,0.0021,0.3624,0.0000,0.0000,0.3000,0.2495,-4.29,4.37,-35.61,0.1760,0.4490,0.0000,0.8930,0.5240,0,0.0000,0.0000,0.0000,0.0000,0.0000,0
10454,0.0453,-0.0354,0.3619,0.0236,-0.0384,0.0195,-0.80,0.12,1.17,0,3.611,17.793,-5.496,-2.064,0.004,-0.013,0.996,0.000,0.000,0.000,0.3610,-1,-1,-1.61,0.53,0.94,0.0304,0.0013,0.3625,0.0000,0.0000,0.3000,0.2512,-4.52,4.53,-35.09,0.1760,0.4490,0.0000,0.8970,0.5240,0,0.0000,0.0000,0.0000,0.0000,0.0000,0
10505,0.0452,-0.0369,0.3621,0.0204,-0.0323,0.0124,-0.05,0.31,1.11,0,3.611,3.287,-7.838,2.674,0.000,-0.017,0.990,0.000,0.000,0.000,0.3630,0,-2,-0.71,0.80,0.80,0.0329,0.0032,0.3627,0.0000,0.0000,0.3000,0.2519,-4.32,4.35,-33.28,0.1760,0.4590,0.0000,0.8970,0.5180,0,0.0000,0.0000,0.0000,0.0000,0.0000,0
10556,0.0471,-0.0365,0.3628,0.0182,-0.0292,0.0101,0.18,0.78,1.21,0,3.605,-8.725,1.305,8.523,-0.003,-0.009,0.997,0.000,0.000,0.000,0.3640,2,0,-0.55,1.16,0.89,0.0383,0.0030,0.3632,0.0000,0.0000,0.3000,0.2520,-4.13,4.38,-36.34,0.1760,0.4590,0.0000,0.8910,0.5180,0,0.0000,0.0000,0.0000,0.0000,0.0000,0
10608,0.0474,-0.0378,0.3637,0.0104,-0.0299,0.0118,-0.17,0.79,1.57,0,3.611,6.978,6.094,6.030,0.005,-0.011,0.995,0.000,0.000,0.000,0.3630,0,0,-0.96,1.09,1.35,0.0386,-0.0026,0.3638,0.0000,0.0000,0.3000,0.2517,-4.27,4.02,-47.19,0.1740,0.4630,0.0000,0.8910,0.5320,0,0.0000,0.0000,0.0000,0.0000,0.0000,0
10658,0.0472,-0.0425,0.3637,0.0030,-0.0346,0.0079,0.09,0.55,1.91,0,3.605,-1.069,11.385,1.611,0.006,-0.015,0.986,0.000,0.000,0.000,0.3650,0,0,-0.61,0.77,1.66,0.0391,-0.0041,0.3637,0.0000,0.0000,0.3000,0.2521,-4.83,3.64,-57.41,0.1740,0.4630,0.0000,0.8870,0.5320,0,0.0000,0.0000,0.0000,0.0000,0.0000,0
10710,0.0472,-0.0439,0.3645,-0.0012,-0.0352,0.0048,0.13,0.17,2.01,0,3.605,-1.475,-1.131,2.133,-0.002,-0.010,1.001,0.000,0.000,0.000,0.3640,1,0,-0.66,0.20,1.74,0.0393,-0.0058,0.3640,0.0000,0.0000,0.3000,0.2523,-4.97,3.43,-60.36,0.1740,0.4720,0.0000,0.8870,0.5090,0,0.0000,0.0000,0.0000,0.0000,0.0000,0
10760,0.0463,-0.0448,0.3644,-0.0038,-0.0344,0.0019,-0.00,0.14,2.11,0,3.600,2.250,-0.071,-0.500,0.001,-0.013,0.998,0.000,0.000,0.000,0.3620,2,0,-0.75,0.26,1.85,0.0391,-0.0057,0.3639,0.0000,0.0000,0.3000,0.2526,-4.99,3.24,-63.29,0.1740,0.4720,0.0000,0.8800,0.5090,0,0.0000,0.0000,0.0000,0.0000,0.0000,0
10812,0.0438,-0.0476,0.3634,-0.0095,-0.0366,-0.0028,0.07,0.22,2.12,0,3.605,-3.777,0.375,3.239,-0.002,-0.014,1.008,0.000,0.000,0.000,0.3630,0,-1,-0.61,0.26,1.83,0.0392,-0.0101,0.3632,0.0000,0.0000,0.3000,0.2533,-5.29,2.77,-63.70,0.1740,0.4780,0.0000,0.8800,0.5150,0,0.0000,0.0000,0.0000,0.0000,0.0000,0
10863,0.0421,-0.0514,0.3631,-0.0137,-0.0401,-0.0043,-0.17,0.23,2.23,0,3.600,-3.096,-5.608,10.218,-0.004,-0.012,0.995,0.000,0.000,0.000,0.3670,0,0,-0.82,0.22,1.98,0.0412,-0.0108,0.3631,0.0000,0.0000,0.3000,0.2535,-5.73,2.44,-66.79,0.1740,0.4780,0.0000,0.8780,0.5150,0,0.0000,0.0000,0.0000,0.0000,0.0000,0
10913,0.0406,-0.0531,0.3647,-0.0177,-0.0382,0.0037,-0.29,0.49,2.68,0,3.605,-0.528,2.402,15.631,0.000,-0.015,0.985,0.000,0.000,0.000,0.3590,0,0,-0.98,0.50,2.50,0.0413,-0.0125,0.3642,0.0000,0.0000,0.3000,0.2523,-5.78,2.15,-80.39,0.1770,0.4790,0.0000,0.8780,0.5420,0,0.0000,0.0000,0.0000,0.0000,0.0000,0
10965,0.0390,-0.0570,0.3622,-0.0233,-0.0400,-0.0164,-0.28,0.46,3.42,0,3.600,-13.073,7.874,19.823,0.005,-0.016,0.987,0.000,0.000,0.000,0.3630,3,0,-1.01,0.37,3.28,0.0412,-0.0142,0.3622,0.0000,0.0000,0.3000,0.2550,-6.09,1.74,-102.47,0.1770,0.4790,0.0000,0.8680,0.5420,0,0.0000,0.0000,0.0000,0.0000,0.0000,0
11016,0.0379,-0.0593,0.3618,-0.0265,-0.0377,-0.0213,-0.77,0.04,4.38,0,3.595,14.100,7.319,23.526,0.008,-0.022,0.988,0.000,0.000,0.000,0.3590,-1,0,-1.64,-0.08,4.33,0.0426,-0.0229,0.3616,0.0000,0.0000,0.3000,0.2556,-6.13,1.50,-131.49,0.1860,0.4880,0.0000,0.8680,0.5520,0,0.0000,0.0000,0.0000,0.0000,0.0000,0
11067,0.0361,-0.0646,0.3598,-0.0277,-0.0382,-0.0296,-0.34,-0.36,5.54,0,3.584,-2.424,4.489,28.856,0.003,-0.010,0.979,0.000,0.000,0.000,0.3560,1,1,-0.94,-0.48,5.50,0.0426,-0.0228,0.3597,0.0000,0.0000,0.3000,0.2568,-6.51,1.31,-166.24,0.1860,0.4880,0.0000,0.8660,0.5520,0,0.0000,0.0000,0.0000,0.0000,0.0000,0
11118,0.0314,-0.0629,0.3570,-0.0309,-0.0288,-0.0445,-0.35,-0.65,6.94,0,3.589,-15.073,-5.950,33.349,0.006,-0.011,0.997,0.000,0.000,0.000,0.3540,4,-2,-1.04,-0.71,6.99,0.0412,-0.0259,0.3567,0.0000,0.0000,0.3000,0.2590,-5.90,0.81,-208.25,0.1990,0.4850,0.0000,0.8660,0.5490,0,0.0000,0.0000,0.0000,0.0000,0.0000,0
11169,0.0264,-0.0659,0.3542,-0.0332,-0.0271,-0.0511,-1.04,-0.42,8.63,0,3.584,-8.769,-16.901,27.898,0.014,-0.007,1.017,0.000,0.000,0.000,0.3520,1,-2,-1.73,-0.49,8.77,0.0469,-0.0344,0.3537,0.0000,0.0000,0.3000,0.2602,-6.00,0.33,-258.89,0.1990,0.4850,0.0000,0.8320,0.5490,0,0.0000,0.0000,0.0000,0.0000,0.0000,0
11221,0.0256,-0.0712,0.3516,-0.0313,-0.0249,-0.0464,-1.48,0.36,10.12,0,3.589,7.920,10.527,24.913,0.005,-0.016,1.017,0.000,0.000,0.000,0.3510,-1,4,-2.18,0.30,10.22,0.0527,-0.0369,0.3514,0.0000,0.0000,0.3000,0.2602,-6.27,0.37,-303.57,0.2070,0.4610,0.0000,0.8320,0.6150,0,0.0000,0.0000,0.0000,0.0000,0.0000,0
11272,0.0275,-0.0739,0.3504,-0.0293,-0.0189,-0.0304,-1.17,-0.03,11.35,0,3.584,6.847,11.447,16.720,0.012,-0.014,1.003,0.000,0.000,0.000,0.3510,1,4,-1.80,-0.20,11.43,0.0427,-0.0369,0.3502,0.0000,0.0000,0.3000,0.2587,-6.21,0.60,-340.46,0.2070,0.4610,0.0000,0.7680,0.6150,0,0.0000,0.0000,0.0000,0.0000,0.0000,0
11322,0.0276,-0.0722,0.3499,-0.0272,-0.0035,-0.0183,-0.83,-0.70,12.20,0,3.589,-8.300,11.024,6.734,0.014,-0.007,1.012,0.000,0.000,0.000,0.3490,1,0,-1.42,-0.73,12.27,0.0328,-0.0421,0.3493,0.0000,0.0000,0.3000,0.2575,-5.39,0.71,-366.00,0.2130,0.4620,0.0000,0.7680,0.5860,0,0.0000,0.0000,0.0000,0.0000,0.0000,0
11373,0.0186,-0.0722,0.3491,-0.0389,0.0051,-0.0132,-1.10,-1.14,12.54,0,3.589,8.026,-3.437,-1.982,0.011,-0.017,0.996,0.000,0.000,0.000,0.3520,-1,0,-1.81,-1.30,12.62,0.0332,-0.0451,0.3483,0.0000,0.0000,0.3000,0.2571,-4.99,-0.50,-376.27,0.2130,0.4620,0.0000,0.7030,0.5860,0,0.0000,0.0000,0.0000,0.0000,0.0000,0
11424,0.0172,-0.0732,0.3500,-0.0309,0.0131,0.0015,-0.74,-0.96,12.48,0,3.600,4.829,-1.102,-7.323,0.008,-0.020,0.983,0.000,0.000,0.000,0.3490,0,0,-1.44,-1.12,12.46,0.0326,-0.0424,0.3484,0.0000,0.0000,0.3000,0.2553,-4.71,-0.22,-374.33,0.2220,0.4570,0.0000,0.7030,0.5910,0,0.0000,0.0000,0.0000,0.0000,0.0000,0
11476,0.0166,-0.0721,0.3497,-0.0224,0.0217,-0.0010,-0.43,-0.88,12.13,0,3.589,-3.360,-1.518,-8.972,0.006,-0.027,0.997,0.000,0.000,0.000,0.3500,0,0,-1.20,-1.05,12.09,0.0332,-0.0426,0.3472,0.0000,0.0000,0.3000,0.2556,-4.21,0.15,-363.77,0.2220,0.4570,0.0000,0.7170,0.5910,0,0.0000,0.0000,0.0000,0.0000,0.0000,0
11527,0.0143,-0.0718,0.3498,-0.0189,0.0251,0.0018,-0.56,-0.82,11.66,0,3.595,3.595,-11.928,-15.864,0.008,-0.010,1.010,0.000,0.000,0.000,0.3500,0,-2,-1.38,-0.96,11.63,0.0344,-0.0427,0.3467,0.0000,0.0000,0.3000,0.2553,-4.03,0.16,-349.85,0.2220,0.4620,0.0000,0.7170,0.6100,0,0.0000,0.0000,0.0000,0.0000,0.0000,0
11577,0.0133,-0.0704,0.3499,-0.0137,0.0310,-0.0003,-0.34,-0.28,10.90,0,3.589,1.980,-0.997,-22.116,0.007,-0.021,0.982,0.000,0.000,0.000,0.3490,0,-1,-1.21,-0.35,10.84,0.0382,-0.0420,0.3468,0.0365,-0.0414,0.3000,0.2555,-0.64,-2.31,-327.13,0.2220,0.4620,0.0000,0.7660,0.6100,0,0.0000,0.0000,0.0000,0.0000,0.0000,0
11628,0.0142,-0.0679,0.3495,-0.0083,0.0365,-0.0025,-0.19,-0.19,9.82,0,3.589,4.485,4.950,-24.806,0.006,-0.009,0.981,0.000,0.000,0.000,0.3470,-1,1,-1.11,-0.28,9.73,0.0412,-0.0415,0.3461,0.0365,-0.0414,0.3000,0.2558,-0.20,-1.98,-294.75,0.2190,0.4730,0.0000,0.7660,0.6250,0,0.0000,0.0000,0.0000,0.0000,0.0000,0
11679,0.0151,-0.0666,0.3483,-0.0042,0.0372,-0.0141,0.03,-0.43,8.61,0,3.584,14.578,-5.982,-23.220,0.013,-0.010,1.007,0.000,0.000,0.000,0.3500,-1,0,-0.91,-0.49,8.43,0.0400,-0.0395,0.3448,0.0365,-0.0414,0.3000,0.2573,-0.07,-1.71,-258.33,0.2190,0.4730,0.0000,0.8150,0.6250,0,0.0000,0.0000,0.0000,0.0000,0.0000,0
11730,0.0131,-0.0643,0.3485,-0.0049,0.0382,-0.0105,0.76,-0.15,7.44,0,3.589,7.864,-2.899,-19.796,0.003,-0.020,0.992,0.000,0.000,0.000,0.3410,-1,0,-0.18,-0.16,7.22,0.0407,-0.0368,0.3450,0.0365,-0.0414,0.3000,0.2568,0.14,-1.90,-223.07,0.2190,0.4650,0.0000,0.8150,0.6140,0,0.0000,0.0000,0.0000,0.0000,0.0000,0
11781,0.0151,-0.0631,0.3450,0.0023,0.0308,-0.0275,1.26,0.01,6.43,0,3.579,-1.351,0.019,-14.098,0.011,-0.023,1.008,0.000,0.000,0.000,0.3500,1,0,0.20,0.00,6.19,0.0411,-0.0341,0.3424,0.0365,-0.0414,0.3000,0.2593,-0.13,-1.38,-192.95,0.2190,0.4650,3.1880,0.8370,0.6140,0,0.0000,0.0000,0.0000,0.0000,0.0000,0
11833,0.0149,-0.0612,0.3464,0.0026,0.0216,-0.0129,1.12,0.01,5.71,0,3.589,-10.363,-5.735,-12.221,0.009,-0.021,1.015,0.000,0.000,0.000,0.3470,0,0,0.16,0.01,5.52,0.0420,-0.0363,0.3434,0.0365,-0.0414,0.3000,0.2575,-0.43,-1.40,-171.39,0.2110,0.4570,3.1880,0.8370,0.6120,0,0.0000,0.0000,0.0000,0.0000,0.0000,0
11884,0.0143,-0.0628,0.3463,0.0017,0.0067,-0.0054,0.66,0.21,5.09,0,3.584,0.741,-0.706,-9.464,0.004,-0.012,1.026,0.000,0.000,0.000,0.3480,0,-1,-0.38,0.31,4.88,0.0444,-0.0367,0.3439,0.0365,-0.0414,0.3000,0.2567,-1.27,-1.49,-152.65,0.2110,0.4570,0.0000,0.8440,0.6120,0,0.0000,0.0000,0.0000,0.0000,0.0000,0
11935,0.0165,-0.0648,0.3470,0.0051,-0.0044,0.0098,0.62,0.22,4.63,0,3.589,-26.567,0.943,-9.113,0.012,-0.019,0.999,0.000,0.000,0.000,0.3510,1,0,-0.35,0.36,4.39,0.0452,-0.0355,0.3454,0.0365,-0.0414,0.3000,0.2549,-1.95,-1.18,-138.99,0.2070,0.4730,0.0000,0.8440,0.6220,0,0.0000,0.0000,0.0000,0.0000,0.0000,0
11986,0.0173,-0.0688,0.3492,0.0047,-0.0179,0.0217,-0.52,0.17,4.19,0,3.589,-25.186,-5.429,-4.802,0.011,-0.005,0.999,0.000,0.000,0.000,0.3480,2,0,-1.69,0.33,3.96,0.0461,-0.0380,0.3475,0.0365,-0.0414,0.3000,0.2532,-2.92,-1.15,-125.66,0.2070,0.4730,0.0000,0.8510,0.6220,0,0.0000,0.0000,0.0000,0.0000,0.0000,0
12037,0.0175,-0.0696,0.3493,0.0030,-0.0139,0.0157,-1.72,0.34,3.87,0,3.589,11.113,-5.415,-3.123,0.004,0.005,0.991,0.000,0.000,0.000,0.3490,0,0,-2.95,0.63,3.77,0.0470,-0.0430,0.3484,0.0365,-0.0414,0.3000,0.2539,-2.77,-1.21,-115.98,0.1980,0.4710,0.0000,0.8510,0.6340,0,0.0000,0.0000,0.0000,0.0000,0.0000,0
12088,0.0165,-0.0717,0.3496,-0.0032,-0.0041,0.0111,-1.35,0.57,3.71,0,3.584,-3.592,13.841,2.234,0.006,-0.003,1.002,0.000,0.000,0.000,0.3510,0,0,-2.38,0.91,3.62,0.0485,-0.0427,0.3489,0.0365,-0.0414,0.3000,0.2543,-2.46,-1.58,-111.35,0.1980,0.4710,0.0000,0.8690,0.6340,0,0.0000,0.0000,0.0000,0.0000,0.0000,0
12139,0.0184,-0.0699,0.3504,-0.0037,0.0112,0.0100,-1.41,0.01,3.75,0,3.589,3.998,6.186,-3.541,0.010,-0.005,1.016,0.000,0.000,0.000,0.3500,-1,0,-2.56,0.20,3.70,0.0498,-0.0415,0.3500,0.0365,-0.0414,0.3000,0.2543,-1.58,-1.47,-112.51,0.2030,0.4690,0.0000,0.8690,0.6230,0,0.0000,0.0000,0.0000,0.0000,0.0000,0
12191,0.0200,-0.0696,0.3507,-0.0002,0.0223,0.0142,-1.24,-0.39,3.60,0,3.589,15.508,-1.637,-11.060,0.016,-0.007,1.009,0.000,0.000,0.000,0.3500,-1,0,-2.33,-0.07,3.50,0.0456,-0.0433,0.3510,0.0365,-0.0414,0.3000,0.2537,-1.02,-1.18,-107.90,0.2030,0.4690,2.3210,0.8670,0.6230,0,0.0000,0.0000,0.0000,0.0000,0.0000,0
12242,0.0196,-0.0688,0.3509,0.0013,0.0317,0.0148,-0.58,-0.31,3.10,0,3.589,1.287,2.061,-18.551,0.007,-0.010,0.994,0.000,0.000,0.000,0.3530,-2,0,-1.53,0.04,2.92,0.0459,-0.0403,0.3518,0.0365,-0.0414,0.3000,0.2536,-0.50,-1.14,-93.05,0.1990,0.4620,2.3210,0.8670,0.6060,0,0.0000,0.0000,0.0000,0.0000,0.0000,0
12293,0.0203,-0.0660,0.3522,0.0051,0.0392,0.0161,-0.43,-0.35,2.20,0,3.589,10.577,2.211,-21.629,0.003,-0.008,1.006,0.000,0.000,0.000,0.3500,-2,0,-1.48,-0.04,1.96,0.0462,-0.0352,0.3531,0.0365,-0.0414,0.3000,0.2532,0.07,-0.91,-66.05,0.1990,0.4620,2.0930,0.8670,0.6060,0,0.0000,0.0000,0.0000,0.0000,0.0000,0
12343,0.0189,-0.0601,0.3517,0.0041,0.0517,0.0084,-0.02,-0.38,1.14,0,3.589,5.800,-5.921,-25.486,0.006,-0.015,0.981,0.000,0.000,0.000,0.3510,-1,-2,-0.96,-0.13,0.84,0.0464,-0.0295,0.3531,0.0365,-0.0414,0.3000,0.2542,1.11,-1.06,-34.07,0.1990,0.4490,2.0930,0.8670,0.5950,0,0.0000,0.0000,0.0000,0.0000,0.0000,0
12395,0.0178,-0.0576,0.3517,0.0038,0.0515,0.0042,0.26,-0.24,-0.11,0,3.584,-8.660,-2.299,-27.249,-0.002,-0.007,1.004,0.000,0.000,0.000,0.3540,0,-1,-0.66,0.16,-0.41,0.0513,-0.0256,0.3530,0.0365,-0.0414,0.3000,0.2546,1.27,-1.15,3.40,0.1990,0.4490,0.0000,0.8660,0.5950,0,0.0000,0.0000,0.0000,0.0000,0.0000,0
12446,0.0202,-0.0534,0.3527,0.0106,0.0534,0.0056,-0.18,-0.14,-1.47,0,3.589,1.662,-0.028,-27.140,-0.000,-0.008,1.002,0.000,0.000,0.000,0.3540,-3,-1,-1.09,0.29,-1.81,0.0543,-0.0245,0.3539,0.0365,-0.0414,0.3000,0.2543,1.68,-0.64,44.05,0.1980,0.4410,0.0000,0.8660,0.6000,0,0.0000,0.0000,0.0000,0.0000,0.0000,0
12496,0.0204,-0.0516,0.3535,0.0108,0.0526,0.0087,-0.20,-0.14,-2.84,0,3.589,-0.572,-3.850,-21.764,0.001,-0.011,1.006,0.000,0.000,0.000,0.3520,0,0,-1.03,0.31,-3.21,0.0578,-0.0158,0.3544,0.0365,-0.0414,0.3000,0.2538,1.77,-0.62,85.26,0.1980,0.4410,0.0000,0.8740,0.6000,0,0.0000,0.0000,0.0000,0.0000,0.0000,0
12548,0.0213,-0.0464,0.3531,0.0128,0.0599,0.0076,-0.26,-0.03,-3.93,0,3.584,-7.555,-10.773,-15.237,0.000,-0.004,0.997,0.000,0.000,0.000,0.3560,0,-1,-1.05,0.52,-4.30,0.0598,-0.0107,0.3544,0.0365,-0.0414,0.3000,0.2540,2.50,-0.45,117.99,0.1960,0.4380,0.0000,0.8740,0.5970,0,0.0000,0.0000,0.0000,0.0000,0.0000,0
12598,0.0249,-0.0431,0.3546,0.0199,0.0628,0.0129,-0.53,0.38,-4.71,0,3.584,10.171,1.117,-9.401,0.004,-0.006,1.001,0.000,0.000,0.000,0.3580,-2,0,-1.34,1.09,-5.03,0.0615,-0.0192,0.3561,0.0365,-0.0414,0.3000,0.2531,2.90,0.15,141.45,0.1960,0.4380,0.0000,0.8720,0.5970,0,0.0000,0.0000,0.0000,0.0000,0.0000,0
12650,0.0257,-0.0393,0.3564,0.0169,0.0687,0.0192,-0.09,0.36,-5.22,0,3.589,20.497,4.129,-1.190,0.004,-0.004,0.990,0.000,0.000,0.000,0.3530,-2,0,-0.84,1.05,-5.51,0.0624,-0.0131,0.3575,0.0365,-0.0414,0.3000,0.2521,3.48,0.06,156.73,0.2030,0.4380,0.0000,0.8720,0.6040,0,0.0000,0.0000,0.0000,0.0000,0.0000,0
12701,0.0269,-0.0352,0.3556,0.0148,0.0711,0.0086,0.90,0.12,-5.32,0,3.589,3.985,-1.181,1.853,-0.002,-0.012,0.988,0.000,0.000,0.000,0.3550,-1,0,0.21,0.84,-5.57,0.0632,-0.0070,0.3566,0.0365,-0.0414,0.3000,0.2534,3.88,0.05,159.63,0.2030,0.4380,0.0000,0.8560,0.6040,0,0.0000,0.0000,0.0000,0.0000,0.0000,0
12753,0.0277,-0.0316,0.3555,0.0134,0.0643,0.0013,1.21,0.13,-5.23,0,3.584,1.323,-0.741,2.852,-0.008,-0.006,0.992,0.000,0.000,0.000,0.3530,-1,0,0.42,0.90,-5.47,0.0636,-0.0032,0.3562,0.0365,-0.0414,0.3000,0.2542,3.80,0.04,156.93,0.2020,0.4300,0.0000,0.8560,0.6030,0,0.0000,0.0000,0.0000,0.0000,0.0000,0
12804,0.0273,-0.0271,0.3544,0.0092,0.0579,-0.0095,1.26,0.18,-5.12,0,3.584,5.276,6.302,1.229,-0.004,-0.005,0.997,0.000,0.000,0.000,0.3570,-1,0,0.49,0.94,-5.33,0.0638,0.0002,0.3550,0.0365,-0.0414,0.3000,0.2556,3.80,-0.19,153.48,0.2020,0.4300,0.0000,0.8190,0.6030,0,0.0000,0.0000,0.0000,0.0000,0.0000,0
12854,0.0283,-0.0241,0.3552,0.0081,0.0480,-0.0051,1.46,-0.09,-5.02,0,3.579,-3.967,-2.689,2.109,-0.003,-0.011,0.992,0.000,0.000,0.000,0.3500,-1,0,0.75,0.61,-5.27,0.0640,0.0037,0.3552,0.0365,-0.0414,0.3000,0.2549,3.54,-0.18,150.51,0.2040,0.4330,0.0000,0.8190,0.5990,0,0.0000,0.0000,0.0000,0.0000,0.0000,0
12906,0.0264,-0.0210,0.3528,0.0025,0.0379,-0.0187,1.36,-0.01,-4.91,0,3.579,12.185,7.374,-0.466,-0.001,-0.006,0.998,0.000,0.000,0.000,0.3500,0,1,0.55,0.74,-5.18,0.0642,0.0072,0.3530,0.0365,-0.0414,0.3000,0.2568,3.25,-0.58,147.41,0.2040,0.4330,0.0000,0.8030,0.5990,0,0.0000,0.0000,0.0000,0.0000,0.0000,0
12957,0.0282,-0.0180,0.3510,0.0056,0.0288,-0.0251,1.80,-0.38,-4.92,0,3.579,-8.909,8.926,-0.908,-0.002,-0.008,0.998,0.000,0.000,0.000,0.3540,0,0,1.20,0.37,-5.17,0.0609,0.0076,0.3512,0.0365,-0.0414,0.3000,0.2579,3.02,-0.30,147.62,0.2000,0.4300,0.0000,0.8030,0.5950,0,0.0000,0.0000,0.0000,0.0000,0.0000,0
13007,0.0258,-0.0163,0.3514,0.0015,0.0152,-0.0194,1.50,-0.72,-4.98,0,3.579,-2.387,-4.250,0.062,-0.002,-0.004,1.005,0.000,0.000,0.000,0.3500,0,-1,0.74,-0.09,-5.21,0.0591,0.0091,0.3511,0.0365,-0.0414,0.3000,0.2572,2.50,-0.67,149.45,0.2000,0.4300,0.0000,0.7820,0.5950,0,0.0000,0.0000,0.0000,0.0000,0.0000,0
13058,0.0250,-0.0181,0.3503,0.0042,-0.0032,-0.0173,1.31,-0.59,-4.98,0,3.579,1.043,-5.069,-1.364,-0.002,-0.011,1.006,0.000,0.000,0.000,0.3500,1,0,0.64,0.06,-5.38,0.0676,0.0064,0.3501,0.0365,-0.0414,0.3000,0.2572,1.49,-0.60,149.48,0.2040,0.4250,0.0000,0.7820,0.6010,0,0.0000,0.0000,0.0000,0.0000,0.0000,0
13110,0.0262,-0.0188,0.3496,0.0101,-0.0154,-0.0156,1.31,-0.28,-5.03,0,3.579,-12.005,-12.762,1.916,-0.003,-0.011,1.009,0.000,0.000,0.000,0.3500,0,0,0.71,0.32,-5.46,0.0673,0.0038,0.3493,0.0365,-0.0414,0.3000,0.2571,0.85,-0.23,150.85,0.2040,0.4250,0.0000,0.7840,0.6010,0,0.0000,0.0000,0.0000,0.0000,0.0000,0
13160,0.0250,-0.0218,0.3494,0.0079,-0.0308,-0.0101,0.84,0.21,-4.95,0,3.579,-0.974,3.929,6.273,-0.001,-0.004,1.009,0.000,0.000,0.000,0.3480,0,0,0.08,0.98,-5.37,0.0668,0.0027,0.3491,0.0365,-0.0414,0.3000,0.2565,-0.11,-0.42,148.49,0.2060,0.4170,0.0000,0.7840,0.6240,0,0.0000,0.0000,0.0000,0.0000,0.0000,0
13211,0.0260,-0.0261,0.3485,0.0070,-0.0436,-0.0092,0.72,0.14,-4.64,0,3.579,6.416,-0.949,14.910,-0.001,-0.014,1.018,0.000,0.000,0.000,0.3490,0,0,0.03,0.79,-5.05,0.0657,0.0015,0.3486,0.0365,-0.0414,0.3000,0.2566,-1.04,-0.39,139.06,0.2060,0.4170,0.0000,0.8020,0.6240,0,0.0000,0.0000,0.0000,0.0000,0.0000,0
13263,0.0223,-0.0297,0.3485,-0.0035,-0.0526,-0.0021,0.95,0.31,-3.93,0,3.579,0.175,-15.934,20.320,0.002,-0.016,1.019,0.000,0.000,0.000,0.3450,0,-1,0.35,0.84,-4.29,0.0643,-0.0001,0.3489,0.0365,-0.0414,0.3000,0.2558,-1.74,-1.17,117.94,0.2010,0.4100,0.0000,0.8020,0.6410,0,0.0000,0.0000,0.0000,0.0000,0.0000,0
13315,0.0214,-0.0319,0.3471,-0.0084,-0.0592,-0.0021,0.88,1.01,-2.92,0,3.579,-5.953,-6.162,27.309,0.000,-0.013,1.017,0.000,0.000,0.000,0.3460,1,-1,0.27,1.60,-3.42,0.0762,0.0081,0.3488,0.0365,-0.0414,0.3000,0.2561,-2.21,-1.47,87.63,0.2010,0.4100,0.0000,0.7960,0.6410,0,0.0000,0.0000,0.0000,0.0000,0.0000,0
13366,0.0199,-0.0380,0.3467,-0.0191,-0.0727,0.0025,0.62,1.32,-1.57,0,3.579,-9.486,9.032,30.510,0.003,-0.014,1.006,0.000,0.000,0.000,0.3490,4,1,-0.07,1.91,-2.04,0.0772,0.0062,0.3489,0.0365,-0.0414,0.3000,0.2557,-3.31,-2.10,47.08,0.2070,0.4120,0.0000,0.7960,0.6780,0,0.0000,0.0000,0.0000,0.0000,0.0000,0
13417,0.0177,-0.0400,0.3479,-0.0328,-0.0740,0.0125,0.06,1.02,-0.04,0,3.579,-22.313,3.917,31.863,-0.003,-0.004,0.997,0.000,0.000,0.000,0.3490,1,0,-0.56,1.45,-0.54,0.0753,-0.0005,0.3501,0.0365,-0.0414,0.3000,0.2544,-3.54,-2.94,1.12,0.2070,0.4120,0.0000,0.8350,0.6780,0,0.0000,0.0000,0.0000,0.0000,0.0000,0
13468,0.0135,-0.0472,0.3487,-0.0464,-0.0812,0.0116,-1.11,0.83,1.56,0,3.579,-11.094,2.308,26.913,-0.000,0.006,0.994,0.000,0.000,0.000,0.3490,1,4,-1.73,1.21,1.06,0.0743,-0.0034,0.3507,0.0365,-0.0414,0.3000,0.2543,-4.41,-3.90,-46.66,0.2140,0.4130,0.0000,0.8350,0.6810,0,0.0000,0.0000,0.0000,0.0000,0.0000,0
13519,0.0130,-0.0509,0.3491,-0.0496,-0.0721,0.0069,-1.54,0.71,2.94,0,3.579,8.514,12.417,22.956,-0.005,-0.021,0.991,0.000,0.000,0.000,0.3500,0,0,-2.32,1.09,2.47,0.0658,-0.0063,0.3508,0.0365,-0.0414,0.3000,0.2547,-4.23,-4.08,-88.17,0.2140,0.4130,0.0000,0.8880,0.6810,0,0.0000,0.0000,0.0000,0.0000,0.0000,0
13570,0.0084,-0.0532,0.3497,-0.0600,-0.0576,0.0068,-1.27,0.15,4.08,0,3.584,5.992,10.260,21.291,-0.001,0.001,1.003,0.000,0.000,0.000,0.3500,0,1,-1.90,0.41,3.62,0.0615,-0.0078,0.3510,0.0365,-0.0414,0.3000,0.2546,-3.70,-4.93,-122.42,0.2210,0.4390,0.0000,0.8880,0.6780,0,0.0000,0.0000,0.0000,0.0000,0.0000,0
13620,-0.0008,-0.0552,0.3499,-0.0745,-0.0456,0.0018,-1.07,-0.25,5.17,0,3.579,-7.774,-5.854,18.404,0.003,-0.000,0.973,0.000,0.000,0.000,0.3470,2,1,-1.60,-0.18,4.70,0.0628,-0.0074,0.3513,0.0365,-0.0414,0.3000,0.2551,-3.25,-6.27,-155.03,0.2210,0.4390,0.0000,0.8780,0.6780,0,0.0000,0.0000,0.0000,0.0000,0.0000,0
13672,-0.0053,-0.0581,0.3486,-0.0753,-0.0380,-0.0150,-1.33,-0.12,6.13,0,3.574,21.676,17.425,17.683,-0.000,-0.004,1.004,0.000,0.000,0.000,0.3460,0,0,-1.96,0.08,5.60,0.0598,-0.0114,0.3499,0.0365,-0.0414,0.3000,0.2572,-3.07,-6.59,-184.04,0.2420,0.4590,0.0000,0.8780,0.6890,0,0.0000,0.0000,0.0000,0.0000,0.0000,0
13724,-0.0116,-0.0619,0.3470,-0.0805,-0.0316,-0.0176,-0.39,-0.85,7.01,0,3.574,11.213,17.826,16.233,-0.002,-0.008,0.999,0.000,0.000,0.000,0.3480,-1,1,-0.82,-0.85,6.50,0.0564,-0.0113,0.3484,0.0365,-0.0414,0.3000,0.2578,-3.03,-7.27,-210.27,0.2420,0.4590,0.0000,0.8690,0.6890,0,0.0000,0.0000,0.0000,0.0000,0.0000,0
13774,-0.0188,-0.0620,0.3470,-0.0804,-0.0243,-0.0113,0.27,-1.68,7.80,0,3.579,3.436,4.545,11.249,-0.003,0.000,1.015,0.000,0.000,0.000,0.3480,0,2,-0.24,-1.80,7.34,0.0558,-0.0085,0.3478,0.0365,-0.0414,0.3000,0.2571,-2.69,-7.79,-233.97,0.2500,0.4580,0.0000,0.8690,0.6630,0,0.0000,0.0000,0.0000,0.0000,0.0000,0
13826,-0.0207,-0.0610,0.3471,-0.0619,-0.0201,-0.0040,0.50,-1.87,8.34,0,3.574,6.302,-1.249,-0.085,0.003,-0.027,1.018,0.000,0.000,0.000,0.3460,-1,2,-0.04,-2.01,7.91,0.0510,-0.0086,0.3478,0.0365,-0.0414,0.3000,0.2563,-2.43,-7.07,-250.11,0.2500,0.4580,0.0000,0.8420,0.6630,0,0.0000,0.0000,0.0000,0.0000,0.0000,0
13877,-0.0284,-0.0630,0.3466,-0.0555,-0.0242,0.0015,0.76,-1.85,8.35,0,3.579,-3.413,-2.553,-7.842,-0.002,-0.016,1.000,0.000,0.000,0.000,0.3470,2,1,0.28,-1.92,7.88,0.0458,-0.0069,0.3476,0.0365,-0.0414,0.3000,0.2558,-2.78,-7.33,-250.53,0.2580,0.4470,0.0000,0.8420,0.6590,0,0.0000,0.0000,0.0000,0.0000,0.0000,0
13929,-0.0319,-0.0638,0.3470,-0.0410,-0.0277,0.0079,0.58,-1.76,7.87,0,3.574,-14.349,-2.154,-16.767,0.000,-0.000,1.005,0.000,0.000,0.000,0.3460,0,-1,0.13,-1.78,7.58,0.0435,-0.0118,0.3477,0.0365,-0.0414,0.3000,0.2550,-3.02,-6.92,-236.10,0.2580,0.4470,0.0000,0.8330,0.6590,0,0.0000,0.0000,0.0000,0.0000,0.0000,0
13980,-0.0313,-0.0657,0.3468,-0.0205,-0.0311,0.0082,0.02,-1.62,7.03,0,3.579,14.895,-0.603,-16.735,-0.009,0.006,0.998,0.000,0.000,0.000,0.3470,-2,1,-0.65,-1.68,6.67,0.0460,-0.0118,0.3475,0.0365,-0.0414,0.3000,0.2550,-3.31,-5.89,-210.88,0.2450,0.4540,0.0000,0.8330,0.6660,0,0.0000,0.0000,0.0000,0.0000,0.0000,0
14030,-0.0302,-0.0706,0.3472,-0.0029,-0.0376,0.0066,0.56,-1.49,6.34,0,3.574,-9.236,-9.468,-13.653,-0.005,-0.006,0.988,0.000,0.000,0.000,0.3470,6,1,0.04,-1.63,5.72,0.0430,-0.0068,0.3476,0.0365,-0.0414,0.3000,0.2551,-3.98,-4.96,-190.34,0.2450,0.4540,0.0000,0.8410,0.6660,0,0.0000,0.0000,0.0000,0.0000,0.0000,0
14081,-0.0311,-0.0690,0.3473,0.0080,-0.0342,0.0015,0.48,-1.13,5.60,0,3.574,-10.225,-3.206,-12.944,-0.004,-0.021,0.977,0.000,0.000,0.000,0.3450,2,0,-0.31,-1.13,5.44,0.0414,-0.0232,0.3475,0.0365,-0.0414,0.3000,0.2556,-3.70,-4.49,-168.06,0.2480,0.4440,0.0000,0.8410,0.6710,0,0.0000,0.0000,0.0000,0.0000,0.0000,0
14133,-0.0300,-0.0778,0.3463,0.0185,-0.0505,-0.0089,-0.10,-0.83,4.96,0,3.568,1.757,-2.777,-13.577,-0.003,-0.015,0.992,0.000,0.000,0.000,0.3480,-1,0,-0.82,-0.96,4.86,0.0419,-0.0295,0.3460,0.0365,-0.0414,0.3000,0.2569,-5.09,-3.89,-148.70,0.2480,0.4440,0.0000,0.8450,0.6710,0,0.0000,0.0000,0.0000,0.0000,0.0000,0
14183,-0.0296,-0.0811,0.3467,0.0236,-0.0504,-0.0081,-0.15,-0.71,4.27,0,3.574,-11.645,-8.879,-16.953,0.005,-0.011,0.985,0.000,0.000,0.000,0.3450,1,0,-0.78,-0.80,4.03,0.0418,-0.0269,0.3458,0.0365,-0.0414,0.3000,0.2568,-5.33,-3.62,-128.22,0.2430,0.4380,0.0000,0.8450,0.0000,0,0.0000,0.0000,0.0000,0.0000,0.0000,0
14234,-0.0252,-0.0852,0.3455,0.0359,-0.0524,-0.0216,-0.47,-0.46,3.46,0,3.568,-8.825,-9.606,-25.536,0.001,-0.009,0.998,0.000,0.000,0.000,0.3440,1,0,-1.37,-0.33,3.21,0.0421,-0.0302,0.3443,0.0365,-0.0414,0.3000,0.2585,-5.68,-2.70,-103.76,0.2430,0.4380,2.8310,0.8410,0.0000,0,0.0000,0.0000,0.0000,0.0000,0.0000,0
14286,-0.0260,-0.0881,0.3441,0.0330,-0.0477,-0.0240,-1.07,0.02,2.25,0,3.574,-6.122,0.116,-27.734,0.002,-0.008,1.001,0.000,0.000,0.000,0.3410,0,-2,-1.81,0.20,1.95,0.0423,-0.0337,0.3428,0.0365,-0.0414,0.3000,0.2590,-5.66,-2.89,-67.35,0.2400,0.4230,2.8310,0.8410,0.0000,0,0.0000,0.0000,0.0000,0.0000,0.0000,0
14338,-0.0226,-0.0912,0.3420,0.0361,-0.0402,-0.0275,-1.34,0.09,0.87,0,3.568,-1.942,12.726,-25.918,0.004,-0.016,1.006,0.000,0.000,0.000,0.3370,0,0,-2.13,0.21,0.48,0.0491,-0.0337,0.3409,0.0365,-0.0414,0.3000,0.2597,-5.50,-2.49,-26.04,0.2400,0.4230,2.3380,0.8450,0.0000,0,0.0000,0.0000,0.0000,0.0000,0.0000,0
14389,-0.0182,-0.0963,0.3389,0.0413,-0.0362,-0.0364,-1.38,-0.36,-0.46,0,3.563,10.619,-6.627,-27.936,0.009,-0.014,1.015,0.000,0.000,0.000,0.3390,-1,-2,-2.24,-0.40,-0.89,0.0510,-0.0346,0.3383,0.0365,-0.0414,0.3000,0.2613,-5.64,-1.92,13.89,0.2330,0.4300,2.3380,0.8450,0.0000,0,0.0000,0.0000,0.0000,0.0000,0.0000,0
14441,-0.0126,-0.1002,0.3378,0.0525,-0.0301,-0.0291,-1.05,-0.26,-1.79,0,3.563,3.519,-16.401,-24.620,0.008,-0.015,1.005,0.000,0.000,0.000,0.3360,0,-5,-1.73,-0.03,-2.35,0.0566,-0.0296,0.3374,0.0365,-0.0414,0.3000,0.2607,-5.65,-0.99,53.64,0.2330,0.4300,0.0000,0.8350,0.0000,0,0.0000,0.0000,0.0000,0.0000,0.0000,0
14492,-0.0064,-0.1006,0.3362,0.0615,-0.0196,-0.0264,-0.91,0.45,-2.99,0,3.568,-14.392,-3.035,-20.490,0.009,-0.015,1.009,0.000,0.000,0.000,0.3340,0,-3,-1.53,0.79,-3.53,0.0704,-0.0302,0.3359,0.0365,-0.0414,0.3000,0.2607,-5.18,-0.12,89.77,0.2250,0.3880,0.0000,0.8350,0.6730,0,0.0000,0.0000,0.0000,0.0000,0.0000,0
14542,-0.0019,-0.1013,0.3344,0.0607,-0.0105,-0.0266,-1.47,0.67,-4.07,0,3.563,-8.606,-8.957,-16.228,0.010,-0.009,1.022,0.000,0.000,0.000,0.3340,1,-11,-2.24,0.96,-4.53,0.0794,-0.0306,0.3345,0.0365,-0.0414,0.3000,0.2611,-4.79,0.16,122.16,0.2250,0.3880,0.0000,0.8070,0.6730,0,0.0000,0.0000,0.0000,0.0000,0.0000,0
14594,-0.0044,-0.1016,0.3335,0.0430,0.0032,-0.0172,-1.92,0.97,-4.89,0,3.568,4.889,-5.568,-13.020,0.006,-0.009,1.022,0.000,0.000,0.000,0.3340,0,-2,-2.62,1.28,-5.07,0.1108,-0.0355,0.3334,0.0365,-0.0414,0.3000,0.2602,-4.19,-0.86,146.68,0.2270,0.3730,0.0000,0.8070,0.6780,0,0.0000,0.0000,0.0000,0.0000,0.0000,0
14645,0.0046,-0.1031,0.3334,0.0495,0.0166,-0.0041,-1.79,1.39,-5.56,0,3.568,13.146,1.802,-12.707,0.007,-0.010,1.028,0.000,0.000,0.000,0.3360,-2,2,-2.33,1.61,-5.77,0.1176,-0.0361,0.3340,0.0365,-0.0414,0.3000,0.2588,-3.67,0.09,166.79,0.2270,0.3730,0.0000,0.8260,0.6780,0,0.0000,0.0000,0.0000,0.0000,0.0000,0
14696,0.0078,-0.1025,0.3346,0.0412,0.0312,0.0152,-1.22,1.32,-6.18,0,3.574,9.427,6.020,-13.310,0.007,-0.013,1.014,0.000,0.000,0.000,0.3350,-3,-4,-1.67,1.63,-6.57,0.1134,-0.0295,0.3362,0.0365,-0.0414,0.3000,0.2565,-2.97,-0.08,185.44,0.2220,0.3730,0.0000,0.8260,0.6680,0,0.0000,0.0000,0.0000,0.0000,0.0000,0
14746,0.0082,-0.0991,0.3355,0.0278,0.0456,0.0227,-0.74,1.07,-6.85,0,3.568,15.746,-2.228,-7.723,-0.001,-0.009,0.996,0.000,0.000,0.000,0.3320,-2,0,-1.20,1.29,-7.15,0.1270,-0.0214,0.3369,0.0365,-0.0414,0.3000,0.2555,-2.03,-0.70,205.49,0.2220,0.3730,0.0000,0.7890,0.6680,0,0.0000,0.0000,0.0000,0.0000,0.0000,0
14797,0.0113,-0.0969,0.3347,0.0233,0.0516,0.0135,-0.01,1.14,-7.30,0,3.574,27.293,2.514,-3.778,-0.001,-0.025,0.980,0.000,0.000,0.000,0.3320,-4,0,-0.41,1.44,-7.58,0.1283,-0.0151,0.3368,0.0365,-0.0414,0.3000,0.2567,-1.58,-0.69,219.08,0.2230,0.3970,0.0000,0.7890,0.6510,0,0.0000,0.0000,0.0000,0.0000,0.0000,0
14849,0.0112,-0.0945,0.3339,0.0110,0.0502,-0.0000,1.32,1.17,-7.53,0,3.563,6.776,9.204,0.088,0.003,-0.023,0.990,0.000,0.000,0.000,0.3360,0,0,0.94,1.34,-7.74,0.1301,-0.0021,0.3357,0.0365,-0.0414,0.3000,0.2583,-1.46,-1.29,225.89,0.2230,0.3970,0.8530,0.7180,0.6510,0,0.0000,0.0000,0.0000,0.0000,0.0000,0
14899,0.0128,-0.0911,0.3347,0.0033,0.0415,-0.0014,1.84,0.79,-7.55,0,3.574,-6.423,6.444,8.310,0.001,-0.019,0.997,0.000,0.000,0.000,0.3350,1,1,1.29,0.86,-7.72,0.1339,0.0028,0.3358,0.0365,-0.0414,0.3000,0.2583,-1.64,-1.54,226.44,0.2160,0.4060,0.8530,0.7180,0.6320,0,0.0000,0.0000,0.0000,0.0000,0.0000,0
14950,0.0110,-0.0884,0.3347,-0.0086,0.0295,-0.0046,1.65,0.39,-7.21,0,3.568,-0.443,8.450,10.427,0.004,-0.022,0.989,0.000,0.000,0.000,0.3360,2,1,1.06,0.61,-7.42,0.1223,-0.0092,0.3359,0.0365,-0.0414,0.3000,0.2586,-2.02,-2.23,216.31,0.2160,0.4060,0.8580,0.6560,0.6320,0,0.0000,0.0000,0.0000,0.0000,0.0000,0
15002,0.0097,-0.0890,0.3351,-0.0147,0.0118,-0.0050,1.60,0.02,-6.68,0,3.568,-11.202,11.329,13.195,0.007,-0.027,0.983,0.000,0.000,0.000,0.3350,1,0,1.06,0.21,-6.90,0.1194,-0.0140,0.3354,0.0365,-0.0414,0.3000,0.2586,-2.91,-2.62,200.40,0.2190,0.4140,0.8580,0.6560,0.6240,0,0.0000,0.0000,0.0000,0.0000,0.0000,0
15052,0.0070,-0.0913,0.3347,-0.0201,-0.0070,-0.0129,1.16,-0.47,-6.07,0,3.563,-14.877,-3.326,20.155,0.007,-0.018,0.989,0.000,0.000,0.000,0.3370,3,-2,0.49,-0.37,-6.21,0.1191,-0.0169,0.3345,0.0365,-0.0414,0.3000,0.2595,-3.96,-3.06,182.10,0.2190,0.4140,0.8660,0.6620,0.6240,0,0.0000,0.0000,0.0000,0.0000,0.0000,0
15104,0.0055,-0.0946,0.3352,-0.0184,-0.0225,-0.0141,0.50,-0.37,-5.13,0,3.568,-16.023,4.633,25.578,0.004,-0.018,0.995,0.000,0.000,0.000,0.3320,4,0,-0.21,-0.23,-5.29,0.1239,-0.0263,0.3340,0.0365,-0.0414,0.3000,0.2596,-4.92,-3.09,153.80,0.2160,0.4200,0.8660,0.6620,0.6240,0,0.0000,0.0000,0.0000,0.0000,0.0000,0
15155,0.0066,-0.0980,0.3332,-0.0111,-0.0308,-0.0231,-0.25,-0.54,-3.89,0,3.563,-14.593,6.505,25.935,0.001,-0.011,1.010,0.000,0.000,0.000,0.3270,1,0,-0.99,-0.48,-3.96,0.1232,-0.0385,0.3321,0.0365,-0.0414,0.3000,0.2609,-5.53,-2.65,116.61,0.2160,0.4200,0.8890,0.7310,0.6240,0,0.0000,0.0000,0.0000,0.0000,0.0000,0
15205,0.0055,-0.1034,0.3298,-0.0070,-0.0366,-0.0295,-1.01,-0.88,-2.55,0,3.563,0.760,-7.052,23.948,-0.000,-0.020,1.011,0.000,0.000,0.000,0.3290,2,-2,-1.73,-0.84,-2.64,0.1231,-0.0419,0.3296,0.0365,-0.0414,0.3000,0.2622,-6.15,-2.52,76.64,0.2110,0.4270,0.8890,0.7310,0.6150,0,0.0000,0.0000,0.0000,0.0000,0.0000,0
15256,0.0054,-0.1080,0.3286,0.0007,-0.0351,-0.0254,-1.05,-0.74,-1.34,0,3.563,-5.507,1.604,21.066,-0.002,-0.011,1.025,0.000,0.000,0.000,0.3280,2,-1,-1.67,-0.55,-1.46,0.1291,-0.0486,0.3284,0.0365,-0.0414,0.3000,0.2620,-6.41,-2.16,40.05,0.2110,0.4270,0.0000,0.8010,0.6150,0,0.0000,0.0000,0.0000,0.0000,0.0000,0
15308,0.0045,-0.1114,0.3277,0.0042,-0.0303,-0.0144,-1.26,-0.73,-0.22,0,3.563,-3.506,-5.540,20.403,0.008,-0.002,1.017,0.000,0.000,0.000,0.3260,1,2,-1.93,-0.67,-0.38,0.1323,-0.0552,0.3280,0.0365,-0.0414,0.3000,0.2610,-6.45,-2.07,6.47,0.2110,0.4380,0.0000,0.8010,0.6130,0,0.0000,0.0000,0.0000,0.0000,0.0000,0
15359,0.0065,-0.1154,0.3267,0.0134,-0.0286,-0.0093,-1.43,-0.50,0.80,0,3.558,-0.231,-4.898,18.490,0.004,-0.001,1.017,0.000,0.000,0.000,0.3300,0,0,-2.10,-0.36,0.69,0.1259,-0.0585,0.3277,0.0365,-0.0414,0.3000,0.2606,-6.66,-1.49,-24.04,0.2110,0.4380,0.0000,0.8230,0.6130,0,0.0000,0.0000,0.0000,0.0000,0.0000,0
15410,0.0065,-0.1174,0.3280,0.0164,-0.0153,0.0075,-1.47,-0.27,1.74,0,3.568,3.923,-7.808,16.685,-0.001,-0.005,1.011,0.000,0.000,0.000,0.3270,0,-2,-2.11,-0.15,1.64,0.1275,-0.0616,0.3289,0.0365,-0.0414,0.3000,0.2586,-6.23,-1.37,-52.24,0.2020,0.4550,0.0000,0.8230,0.6190,0,0.0000,0.0000,0.0000,0.0000,0.0000,0
15460,0.0075,-0.1189,0.3279,0.0183,-0.0055,0.0115,-1.28,0.03,2.57,0,3.563,1.287,-4.644,14.255,0.008,-0.018,1.007,0.000,0.000,0.000,0.3290,0,-1,-1.95,0.19,2.49,0.1339,-0.0568,0.3291,0.0365,-0.0414,0.3000,0.2581,-5.88,-1.20,-77.10,0.2020,0.4550,0.0000,0.8250,0.6190,0,0.0000,0.0000,0.0000,0.0000,0.0000,0
15512,0.0076,-0.1185,0.3289,0.0148,0.0064,0.0187,-1.28,0.30,3.31,0,3.568,2.561,6.595,8.816,0.004,-0.016,0.984,0.000,0.000,0.000,0.3310,0,0,-1.90,0.40,3.21,0.1371,-0.0569,0.3301,0.0365,-0.0414,0.3000,0.2572,-5.31,-1.37,-99.37,0.1990,0.4640,0.0000,0.8250,0.6190,0,0.0000,0.0000,0.0000,0.0000,0.0000,0
15563,0.0106,-0.1184,0.3304,0.0176,0.0158,0.0173,-1.20,0.09,3.78,0,3.568,9.897,-2.788,4.227,-0.000,-0.007,0.992,0.000,0.000,0.000,0.3300,0,-2,-1.76,0.04,3.66,0.1395,-0.0570,0.3309,0.0365,-0.0414,0.3000,0.2571,-4.86,-1.02,-113.34,0.1990,0.4640,2.2920,0.8260,0.6190,0,0.0000,0.0000,0.0000,0.0000,0.0000,0
15613,0.0143,-0.1167,0.3306,0.0239,0.0263,0.0118,-0.84,0.09,4.01,0,3.568,5.986,-8.140,0.562,0.007,-0.026,0.986,0.000,0.000,0.000,0.3320,0,0,-1.26,0.16,3.89,0.1440,-0.0571,0.3310,0.0365,-0.0414,0.3000,0.2576,-4.22,-0.45,-120.37,0.1940,0.4690,2.2920,0.8260,0.6030,0,0.0000,0.0000,0.0000,0.0000,0.0000,0
15665,0.0156,-0.1137,0.3316,0.0216,0.0372,0.0098,-0.58,0.48,4.06,0,3.563,2.607,1.601,1.690,0.006,-0.015,0.982,0.000,0.000,0.000,0.3350,-1,-2,-0.96,0.57,3.93,0.1470,-0.0568,0.3313,0.0365,-0.0414,0.3000,0.2576,-3.49,-0.47,-121.94,0.1940,0.4690,0.0000,0.8190,0.6030,0,0.0000,0.0000,0.0000,0.0000,0.0000,0
15716,0.0165,-0.1122,0.3332,0.0168,0.0405,0.0076,-0.40,0.49,4.11,0,3.568,15.740,5.722,-0.034,0.002,-0.005,0.979,0.000,0.000,0.000,0.3310,-4,0,-0.84,0.48,4.02,0.1507,-0.0530,0.3320,0.0365,-0.0414,0.3000,0.2576,-3.22,-0.64,-123.26,0.1920,0.4720,0.0000,0.8190,0.6040,0,0.0000,0.0000,0.0000,0.0000,0.0000,0
15766,0.0201,-0.1105,0.3323,0.0198,0.0418,-0.0089,0.24,0.21,4.13,0,3.563,13.099,3.894,-1.606,0.006,-0.015,0.988,0.000,0.000,0.000,0.3300,0,0,-0.09,0.20,4.00,0.1511,-0.0447,0.3309,0.0365,-0.0414,0.3000,0.2595,-3.02,-0.23,-124.04,0.1920,0.4720,2.3080,0.8150,0.6040,0,0.0000,0.0000,0.0000,0.0000,0.0000,0
15817,0.0207,-0.1068,0.3311,0.0184,0.0444,-0.0175,0.91,0.04,4.03,0,3.563,0.640,-5.012,-3.877,0.005,-0.025,0.984,0.000,0.000,0.000,0.3290,-1,0,0.56,0.00,3.92,0.1536,-0.0423,0.3295,0.0365,-0.0414,0.3000,0.2607,-2.62,-0.25,-120.95,0.1920,0.4740,2.3080,0.8150,0.5880,0,0.0000,0.0000,0.0000,0.0000,0.0000,0
15869,0.0219,-0.1040,0.3296,0.0189,0.0387,-0.0250,0.95,0.20,3.85,0,3.558,-0.365,9.901,-3.549,-0.001,-0.022,0.984,0.000,0.000,0.000,0.3270,-1,0,0.59,0.30,3.74,0.1504,-0.0403,0.3278,0.0365,-0.0414,0.3000,0.2618,-2.68,-0.14,-115.57,0.1920,0.4740,0.0000,0.7980,0.5880,0,0.0000,0.0000,0.0000,0.0000,0.0000,0
15920,0.0235,-0.1037,0.3277,0.0197,0.0271,-0.0352,0.97,-0.15,3.67,0,3.558,10.466,-3.989,-2.955,0.005,-0.025,0.998,0.000,0.000,0.000,0.3240,0,-2,0.56,-0.21,3.57,0.1507,-0.0380,0.3256,0.0365,-0.0414,0.3000,0.2632,-3.19,0.01,-110.14,0.1900,0.4730,0.0000,0.7980,0.5720,0,0.0000,0.0000,0.0000,0.0000,0.0000,0
15972,0.0238,-0.1018,0.3250,0.0195,0.0205,-0.0435,1.46,-0.04,3.50,0,3.552,5.948,-13.093,-1.845,0.007,-0.028,1.012,0.000,0.000,0.000,0.3200,0,0,1.10,-0.04,3.37,0.1556,-0.0378,0.3229,0.0365,-0.0414,0.3000,0.2646,-3.35,0.02,-104.91,0.1900,0.4730,0.0000,0.7870,0.5720,0,0.0000,0.0000,0.0000,0.0000,0.0000,0
16023,0.0246,-0.1029,0.3217,0.0198,0.0038,-0.0474,1.79,0.55,3.39,0,3.552,-8.027,-8.108,-5.476,0.011,-0.027,1.005,0.000,0.000,0.000,0.3170,1,-4,1.41,0.64,3.26,0.1580,-0.0388,0.3200,0.0365,-0.0414,0.3000,0.2657,-4.19,0.09,-101.73,0.1810,0.4570,0.0000,0.7870,0.5900,0,0.0000,0.0000,0.0000,0.0000,0.0000,0
16074,0.0282,-0.1023,0.3182,0.0226,-0.0098,-0.0494,1.44,0.83,3.14,0,3.547,-4.660,-6.553,-6.401,0.010,-0.016,1.015,0.000,0.000,0.000,0.3210,0,0,0.99,0.98,2.80,0.1698,-0.0390,0.3172,0.0365,-0.0414,0.3000,0.2665,-4.76,0.48,-94.15,0.1810,0.4570,0.0000,0.7520,0.5900,0,0.0000,0.0000,0.0000,0.0000,0.0000,0
16125,0.0310,-0.1055,0.3180,0.0201,-0.0284,-0.0350,1.21,1.08,2.83,0,3.558,-5.405,5.689,-9.332,0.011,-0.016,1.012,0.000,0.000,0.000,0.3130,3,0,0.76,1.31,2.47,0.1740,-0.0417,0.3167,0.0365,-0.0414,0.3000,0.2650,-5.87,0.55,-84.90,0.1790,0.4080,0.0000,0.7520,0.5950,0,0.0000,0.0000,0.0000,0.0000,0.0000,0
16176,0.0331,-0.1088,0.3149,0.0143,-0.0431,-0.0363,0.95,0.83,2.39,0,3.552,-22.188,0.722,-11.227,0.004,-0.014,1.019,0.000,0.000,0.000,0.3170,2,2,0.50,1.07,2.16,0.1700,-0.0473,0.3145,0.0365,-0.0414,0.3000,0.2657,-6.76,0.43,-71.59,0.1790,0.4080,0.0000,0.7460,0.5950,0,0.0000,0.0000,0.0000,0.0000,0.0000,0
16227,0.0334,-0.1133,0.3148,0.0067,-0.0563,-0.0204,-0.05,0.71,1.83,0,3.558,-6.624,-3.327,-8.040,0.002,-0.015,1.011,0.000,0.000,0.000,0.3110,2,0,-0.61,1.07,1.69,0.1672,-0.0527,0.3144,0.0365,-0.0414,0.3000,0.2640,-7.72,0.10,-54.98,0.1770,0.3890,0.0000,0.7460,0.5800,0,0.0000,0.0000,0.0000,0.0000,0.0000,0
16277,0.0335,-0.1179,0.3127,0.0006,-0.0604,-0.0201,-0.45,0.81,1.43,0,3.547,-18.328,11.622,-9.905,-0.001,-0.016,1.020,0.000,0.000,0.000,0.3110,0,0,-0.94,1.25,1.28,0.1675,-0.0583,0.3128,0.0365,-0.0414,0.3000,0.2644,-8.22,-0.18,-42.78,0.1770,0.3890,0.0000,0.7650,0.5800,0,0.0000,0.0000,0.0000,0.0000,0.0000,0
16328,0.0334,-0.1222,0.3114,-0.0061,-0.0598,-0.0161,-1.31,0.28,0.91,0,3.552,-25.860,7.046,-8.630,0.004,-0.011,1.012,0.000,0.000,0.000,0.3130,3,1,-1.84,0.68,0.77,0.1673,-0.0634,0.3121,0.0365,-0.0414,0.3000,0.2642,-8.50,-0.50,-27.39,0.1780,0.3750,0.0000,0.7650,0.5740,0,0.0000,0.0000,0.0000,0.0000,0.0000,0
16380,0.0342,-0.1262,0.3118,-0.0062,-0.0513,-0.0014,-2.44,-0.08,0.45,0,3.552,2.770,1.459,-4.409,0.002,-0.007,1.012,0.000,0.000,0.000,0.3140,0,-1,-3.16,0.36,0.33,0.1643,-0.0685,0.3124,0.0365,-0.0414,0.3000,0.2626,-8.43,-0.46,-13.60,0.1780,0.3750,0.0000,0.7880,0.5740,0,0.0000,0.0000,0.0000,0.0000,0.0000,0
16431,0.0334,-0.1289,0.3128,-0.0067,-0.0320,0.0111,-2.41,-0.11,0.24,0,3.558,22.104,-1.532,-2.140,0.004,-0.016,1.008,0.000,0.000,0.000,0.3130,-1,0,-3.03,0.28,0.12,0.1659,-0.0696,0.3133,0.0365,-0.0414,0.3000,0.2610,-7.78,-0.54,-7.33,0.1770,0.3780,0.0000,0.7880,0.5590,0,0.0000,0.0000,0.0000,0.0000,0.0000,0
16482,0.0341,-0.1309,0.3133,-0.0035,-0.0137,0.0129,-1.37,-0.03,0.10,0,3.558,15.027,-2.463,-5.592,0.007,-0.027,0.994,0.000,0.000,0.000,0.3120,-1,0,-1.92,0.35,0.03,0.1657,-0.0681,0.3139,0.0365,-0.0414,0.3000,0.2607,-7.08,-0.34,-3.05,0.1770,0.3780,0.0000,0.7910,0.5590,0,0.0000,0.0000,0.0000,0.0000,0.0000,0
16533,0.0333,-0.1295,0.3131,-0.0046,0.0024,0.0066,-0.58,0.10,-0.21,0,3.558,3.186,0.027,-10.888,0.008,-0.032,0.995,0.000,0.000,0.000,0.3150,0,-4,-1.18,0.49,-0.23,0.1656,-0.0660,0.3138,0.0365,-0.0414,0.3000,0.2614,-6.21,-0.45,6.38,0.1790,0.0000,0.0000,0.7910,0.5770,0,0.0000,0.0000,0.0000,0.0000,0.0000,0
16584,0.0333,-0.1292,0.3140,-0.0052,0.0077,0.0057,-0.38,0.05,-0.75,0,3.552,5.893,-3.884,-14.297,0.009,-0.023,0.992,0.000,0.000,0.000,0.3120,0,0,-1.01,0.42,-0.69,0.1751,-0.0660,0.3146,0.0365,-0.0414,0.3000,0.2614,-5.94,-0.47,22.57,0.1790,0.0000,0.0000,0.7330,0.5770,0,0.0000,0.0000,0.0000,0.0000,0.0000,0
16635,0.0361,-0.1277,0.3133,0.0015,0.0134,-0.0023,-0.15,0.17,-1.45,0,3.558,7.191,-5.853,-9.987,0.003,-0.031,0.984,0.000,0.000,0.000,0.3120,-1,-1,-0.70,0.63,-1.42,0.1769,-0.0667,0.3139,0.0365,-0.0414,0.3000,0.2624,-5.55,0.05,43.41,0.1730,0.0000,0.0000,0.7330,0.5790,0,0.0000,0.0000,0.0000,0.0000,0.0000,0
16686,0.0356,-0.1261,0.3125,-0.0014,0.0170,-0.0116,0.23,0.46,-1.97,0,3.547,-2.089,3.683,-7.700,0.001,-0.021,0.988,0.000,0.000,0.000,0.3120,1,0,-0.37,0.94,-1.90,0.1786,-0.0611,0.3131,0.0365,-0.0414,0.3000,0.2635,-5.24,-0.13,59.24,0.1730,0.0000,0.0000,0.6630,0.5790,0,0.0000,0.0000,0.0000,0.0000,0.0000,0
16737,0.0358,-0.1260,0.3119,-0.0046,0.0134,-0.0167,0.22,0.32,-2.38,0,3.552,-9.803,8.328,-7.416,0.006,-0.020,0.996,0.000,0.000,0.000,0.3090,0,0,-0.46,0.76,-2.31,0.1789,-0.0633,0.3121,0.0365,-0.0414,0.3000,0.2642,-5.40,-0.27,71.40,0.1740,0.1820,0.0000,0.6630,0.5940,0,0.0000,0.0000,0.0000,0.0000,0.0000,0
16787,0.0360,-0.1283,0.3100,-0.0060,0.0049,-0.0246,-0.19,-0.03,-2.75,0,3.547,-6.814,5.718,-8.833,0.005,-0.020,1.004,0.000,0.000,0.000,0.3100,0,0,-0.96,0.34,-2.69,0.1797,-0.0643,0.3103,0.0365,-0.0414,0.3000,0.2654,-5.92,-0.32,82.39,0.1740,0.1820,0.0000,0.6060,0.5940,0,0.0000,0.0000,0.0000,0.0000,0.0000,0
16838,0.0356,-0.1297,0.3093,-0.0058,0.0027,-0.0218,-0.52,-0.25,-3.14,0,3.552,-0.346,4.625,-10.347,0.011,-0.019,1.007,0.000,0.000,0.000,0.3050,1,0,-1.30,0.06,-3.14,0.1805,-0.0653,0.3094,0.0365,-0.0414,0.3000,0.2652,-6.12,-0.33,94.21,0.1770,0.0000,0.0000,0.6060,0.5730,0,0.0000,0.0000,0.0000,0.0000,0.0000,0
16889,0.0356,-0.1311,0.3068,-0.0031,0.0028,-0.0259,-0.52,-0.45,-3.64,0,3.542,2.281,2.517,-11.277,0.010,-0.019,1.014,0.000,0.000,0.000,0.3080,0,0,-1.31,-0.14,-3.68,0.1775,-0.0666,0.3073,0.0365,-0.0414,0.3000,0.2661,-6.20,-0.21,109.29,0.1770,0.0000,0.0000,0.5840,0.5730,0,0.0000,0.0000,0.0000,0.0000,0.0000,0
16941,0.0338,-0.1341,0.3067,-0.0032,-0.0005,-0.0155,-0.35,-0.53,-4.22,0,3.552,-13.066,-15.397,-10.139,0.009,-0.035,0.997,0.000,0.000,0.000,0.3050,2,0,-1.20,-0.25,-4.26,0.1781,-0.0676,0.3070,0.0365,-0.0414,0.3000,0.2650,-6.58,-0.34,126.70,0.1820,0.0000,0.0000,0.5840,0.5720,0,0.0000,0.0000,0.0000,0.0000,0.0000,0
16991,0.0334,-0.1352,0.3055,0.0004,-0.0002,-0.0153,-0.97,0.18,-4.75,0,3.542,-38.294,-14.155,-8.304,0.009,-0.015,1.012,0.000,0.000,0.000,0.3030,1,-4,-1.85,0.57,-4.76,0.1771,-0.0718,0.3059,0.0365,-0.0414,0.3000,0.2652,-6.64,-0.20,142.40,0.1820,0.0000,0.0000,0.5360,0.5720,0,0.0000,0.0000,0.0000,0.0000,0.0000,0
17043,0.0310,-0.1368,0.3040,-0.0060,0.0047,-0.0181,-2.73,0.95,-5.16,0,3.547,-2.884,-5.308,-6.301,0.005,-0.022,1.020,0.000,0.000,0.000,0.3080,0,-4,-3.75,1.25,-5.10,0.1829,-0.0744,0.3048,0.0365,-0.0414,0.3000,0.2658,-6.52,-0.66,154.74,0.1850,0.0000,0.0000,0.5360,0.5950,0,0.0000,0.0000,0.0000,0.0000,0.0000,0
17094,0.0322,-0.1406,0.3052,-0.0085,0.0175,-0.0004,-2.99,1.32,-5.46,0,3.547,-1.768,-12.477,-3.825,0.009,-0.032,1.015,0.000,0.000,0.000,0.3080,0,0,-3.90,1.50,-5.29,0.1903,-0.0749,0.3059,0.0365,-0.0414,0.3000,0.2637,-6.24,-0.71,163.92,0.1850,0.0000,0.6880,0.6920,0.5950,0,0.0000,0.0000,0.0000,0.0000,0.0000,0
17144,0.0334,-0.1399,0.3065,-0.0137,0.0425,0.0132,-3.13,1.90,-5.63,0,3.547,-12.008,-4.934,1.751,0.009,-0.024,1.018,0.000,0.000,0.000,0.3130,0,0,-3.99,2.14,-5.44,0.1928,-0.0746,0.3072,0.0365,-0.0414,0.3000,0.2620,-5.06,-0.87,168.81,0.1850,0.0000,0.6880,0.6920,0.6180,0,0.0000,0.0000,0.0000,0.0000,0.0000,0
17196,0.0328,-0.1377,0.3098,-0.0264,0.0700,0.0321,-3.64,2.09,-5.53,0,3.552,6.429,2.273,8.572,0.013,-0.025,1.001,0.000,0.000,0.000,0.3100,-3,-1,-4.59,2.38,-5.34,0.1948,-0.0731,0.3102,0.0365,-0.0414,0.3000,0.2593,-3.66,-1.53,165.77,0.1850,0.0000,0.6690,0.7290,0.6180,0,0.0000,0.0000,0.0000,0.0000,0.0000,0
17247,0.0318,-0.1342,0.3109,-0.0394,0.1007,0.0318,-3.30,1.87,-5.12,0,3.558,7.563,5.360,13.655,0.013,-0.028,0.985,0.000,0.000,0.000,0.3150,1,5,-4.28,2.23,-4.91,0.1959,-0.0697,0.3115,0.0365,-0.0414,0.3000,0.2591,-1.94,-2.22,153.62,0.1850,0.0000,0.6690,0.7290,0.6310,0,0.0000,0.0000,0.0000,0.0000,0.0000,0
17298,0.0335,-0.1242,0.3135,-0.0435,0.1398,0.0311,-2.98,1.59,-4.48,0,3.552,3.591,1.795,14.651,0.011,-0.025,0.996,0.000,0.000,0.000,0.3080,-3,0,-3.88,1.98,-4.58,0.1898,-0.0690,0.3137,0.0365,-0.0414,0.3000,0.2587,0.64,-2.30,134.28,0.1850,0.0000,0.6880,0.7250,0.6310,0,0.0000,0.0000,0.0000,0.0000,0.0000,0
17348,0.0298,-0.1198,0.3120,-0.0576,0.1591,0.0107,-2.87,1.44,-3.70,0,3.547,8.535,-4.821,19.572,0.009,-0.019,1.001,0.000,0.000,0.000,0.3080,-3,0,-3.74,1.83,-3.75,0.1894,-0.0620,0.3128,0.0365,-0.0414,0.3000,0.2612,1.86,-3.21,111.05,0.1870,0.0000,0.6880,0.7250,0.6370,0,0.0000,0.0000,0.0000,0.0000,0.0000,0
17399,0.0280,-0.1128,0.3106,-0.0657,0.1803,-0.0012,-2.42,1.55,-2.76,0,3.547,21.929,2.302,21.391,0.009,-0.017,1.003,0.000,0.000,0.000,0.3040,-5,4,-3.37,2.00,-2.66,0.1888,-0.0537,0.3119,0.0365,-0.0414,0.3000,0.2627,3.33,-3.69,82.91,0.1870,0.0000,0.7820,0.7280,0.6370,0,0.0000,0.0000,0.0000,0.0000,0.0000,0
17450,0.0261,-0.1058,0.3077,-0.0739,0.1956,-0.0173,-1.36,1.47,-1.71,0,3.542,18.761,4.607,17.502,0.014,-0.025,1.001,0.000,0.000,0.000,0.2990,-5,2,-2.31,1.89,-1.76,0.1807,-0.0418,0.3092,0.0365,-0.0414,0.3000,0.2650,4.50,-4.17,51.40,0.1910,0.0000,0.7820,0.7280,0.6650,0,0.0000,0.0000,0.0000,0.0000,0.0000,0
17502,0.0220,-0.0989,0.3034,-0.0860,0.1999,-0.0363,-0.41,1.21,-0.84,0,3.531,4.675,2.943,8.854,0.004,-0.020,1.010,0.000,0.000,0.000,0.3030,0,0,-1.42,1.63,-0.83,0.1754,-0.0284,0.3055,0.0365,-0.0414,0.3000,0.2679,5.13,-4.96,25.14,0.1910,0.0000,0.0000,0.6450,0.6650,0,0.0000,0.0000,0.0000,0.0000,0.0000,0
17554,0.0188,-0.0876,0.3023,-0.0930,0.2067,-0.0279,-0.07,0.99,-0.35,0,3.537,15.967,8.960,2.375,0.007,-0.024,1.016,0.000,0.000,0.000,0.2990,-4,3,-1.18,1.47,-0.38,0.1704,-0.0177,0.3046,0.0365,-0.0414,0.3000,0.2672,6.23,-5.52,10.57,0.1960,0.0000,0.0000,0.6450,0.6840,0,0.0000,0.0000,0.0000,0.0000,0.0000,0
17604,0.0155,-0.0775,0.3001,-0.0978,0.2063,-0.0258,0.69,0.60,-0.19,0,3.537,19.384,5.104,-3.588,0.001,-0.022,1.012,0.000,0.000,0.000,0.3000,-2,2,-0.28,0.98,-0.40,0.1677,-0.0189,0.3041,0.0365,-0.0414,0.3000,0.2674,6.90,-5.96,5.76,0.1960,0.0000,0.0000,0.5860,0.6840,0,0.0000,0.0000,0.0000,0.0000,0.0000,0
17656,0.0105,-0.0664,0.2994,-0.1030,0.2026,-0.0167,1.60,0.27,-0.32,0,3.542,16.478,9.439,-4.260,0.008,-0.021,1.017,0.000,0.000,0.000,0.3010,-6,2,0.70,0.73,-0.60,0.1620,-0.0122,0.3032,0.0365,-0.0414,0.3000,0.2665,7.51,-6.57,9.50,0.2060,0.0000,0.0000,0.5860,0.6920,0,0.0000,0.0000,0.0000,0.0000,0.0000,0
17707,0.0066,-0.0595,0.2997,-0.1021,0.1820,-0.0052,2.44,-0.21,-0.55,0,3.537,11.642,2.890,-6.669,0.005,-0.023,1.019,0.000,0.000,0.000,0.3060,-5,2,1.50,0.24,-0.70,0.1563,0.0026,0.3031,0.0365,-0.0414,0.3000,0.2652,7.08,-6.83,16.38,0.2060,0.0000,0.0000,0.5560,0.6920,0,0.0000,0.0000,0.0000,0.0000,0.0000,0
17757,0.0030,-0.0517,0.3024,-0.0969,0.1586,0.0170,3.04,-0.45,-0.88,0,3.547,0.281,-6.928,-5.742,0.009,-0.019,1.014,0.000,0.000,0.000,0.3070,-2,0,2.05,0.09,-0.98,0.1505,0.0157,0.3049,0.0365,-0.0414,0.3000,0.2623,6.61,-6.91,26.35,0.2190,0.1850,0.0000,0.5560,0.6970,0,0.0000,0.0000,0.0000,0.0000,0.0000,0
17808,-0.0029,-0.0418,0.3050,-0.0963,0.1385,0.0318,3.18,-0.19,-1.21,0,3.547,6.293,7.047,-6.966,0.007,-0.022,1.005,0.000,0.000,0.000,0.3100,-2,1,2.07,0.39,-1.34,0.1491,0.0220,0.3072,0.0365,-0.0414,0.3000,0.2602,6.42,-7.35,36.21,0.2190,0.1850,0.0000,0.5450,0.6970,0,0.0000,0.0000,0.0000,0.0000,0.0000,0
17860,-0.0068,-0.0370,0.3081,-0.0931,0.1071,0.0440,3.44,-0.55,-1.55,0,3.558,-2.579,14.090,-7.373,0.013,-0.021,0.997,0.000,0.000,0.000,0.3090,0,3,2.39,0.00,-1.70,0.1457,0.0282,0.3098,0.0365,-0.0414,0.3000,0.2583,5.31,-7.53,46.47,0.2220,0.2270,0.0000,0.5450,0.0000,0,0.0000,0.0000,0.0000,0.0000,0.0000,0
17911,-0.0109,-0.0320,0.3100,-0.0881,0.0787,0.0421,3.36,-1.21,-1.93,0,3.547,-9.285,1.443,-7.651,0.008,-0.024,0.995,0.000,0.000,0.000,0.3110,0,-2,2.28,-0.71,-1.96,0.1372,0.0292,0.3111,0.0365,-0.0414,0.3000,0.2582,4.32,-7.59,57.91,0.2220,0.2270,0.0000,0.5540,0.0000,0,0.0000,0.0000,0.0000,0.0000,0.0000,0
17961,-0.0157,-0.0301,0.3116,-0.0801,0.0459,0.0371,2.87,-1.46,-2.35,0,3.552,-5.052,-0.458,-9.885,0.012,-0.022,0.994,0.000,0.000,0.000,0.3140,2,1,1.80,-0.87,-2.61,0.1423,0.0285,0.3126,0.0365,-0.0414,0.3000,0.2584,2.89,-7.55,70.44,0.2340,0.3320,0.0000,0.5540,0.7250,0,0.0000,0.0000,0.0000,0.0000,0.0000,0
18012,-0.0203,-0.0290,0.3138,-0.0717,0.0194,0.0362,2.59,-1.40,-2.71,0,3.552,-2.654,0.849,-11.198,0.015,-0.018,0.984,0.000,0.000,0.000,0.3120,0,0,1.58,-0.85,-3.05,0.1390,0.0234,0.3142,0.0365,-0.0414,0.3000,0.2581,1.71,-7.49,81.25,0.2340,0.3320,0.0000,0.5970,0.7250,0,0.0000,0.0000,0.0000,0.0000,0.0000,0
18063,-0.0238,-0.0303,0.3139,-0.0612,-0.0069,0.0218,2.38,-1.48,-3.23,0,3.552,-4.486,2.429,-10.542,0.011,-0.022,0.985,0.000,0.000,0.000,0.3130,3,2,1.43,-0.91,-3.62,0.1374,0.0210,0.3143,0.0365,-0.0414,0.3000,0.2596,0.35,-7.19,96.98,0.2390,0.3470,0.0000,0.5970,0.0000,0,0.0000,0.0000,0.0000,0.0000,0.0000,0
18114,-0.0281,-0.0327,0.3141,-0.0534,-0.0311,0.0103,2.12,-1.59,-3.70,0,3.542,-18.044,-9.189,-5.797,0.010,-0.016,0.991,0.000,0.000,0.000,0.3160,0,0,1.22,-1.00,-3.94,0.1295,0.0156,0.3142,0.0365,-0.0414,0.3000,0.2608,-0.97,-7.10,111.06,0.2390,0.3470,0.0000,0.6240,0.0000,0,0.0000,0.0000,0.0000,0.0000,0.0000,0
18166,-0.0314,-0.0389,0.3151,-0.0435,-0.0591,0.0085,1.32,-1.30,-4.05,0,3.547,-20.508,0.119,-4.846,0.012,-0.018,0.996,0.000,0.000,0.000,0.3160,2,0,0.29,-0.54,-4.24,0.1279,0.0104,0.3148,0.0365,-0.0414,0.3000,0.2608,-2.74,-6.87,121.59,0.2430,0.3480,0.0000,0.6240,0.0000,0,0.0000,0.0000,0.0000,0.0000,0.0000,0
18217,-0.0317,-0.0430,0.3157,-0.0295,-0.0717,0.0071,0.32,-1.22,-4.29,0,3.542,-20.204,-2.259,-5.607,0.013,-0.013,1.003,0.000,0.000,0.000,0.3150,1,0,-0.82,-0.55,-4.61,0.1289,0.0103,0.3154,0.0365,-0.0414,0.3000,0.2609,-3.63,-6.24,128.79,0.2430,0.3480,0.0000,0.6920,0.0000,0,0.0000,0.0000,0.0000,0.0000,0.0000,0
18267,-0.0323,-0.0464,0.3156,-0.0177,-0.0727,0.0047,-0.93,-1.08,-4.62,0,3.547,-11.066,-7.791,-3.827,0.010,-0.010,1.006,0.000,0.000,0.000,0.3180,1,-1,-1.86,-0.43,-4.90,0.1287,0.0067,0.3155,0.0365,-0.0414,0.3000,0.2612,-3.91,-5.73,138.54,0.2520,0.3400,0.0000,0.6920,0.7460,0,0.0000,0.0000,0.0000,0.0000,0.0000,0
18318,-0.0330,-0.0508,0.3168,-0.0081,-0.0682,0.0126,-1.42,-0.75,-4.77,0,3.547,-7.396,0.133,1.233,0.014,-0.012,1.002,0.000,0.000,0.000,0.3140,2,-1,-2.41,-0.04,-5.11,0.1307,0.0030,0.3165,0.0365,-0.0414,0.3000,0.2601,-4.02,-5.34,143.04,0.2520,0.3400,0.0000,0.7490,0.7460,0,0.0000,0.0000,0.0000,0.0000,0.0000,0
18369,-0.0309,-0.0531,0.3161,0.0049,-0.0537,0.0068,-1.79,-0.70,-4.76,0,3.547,-7.694,-7.575,2.268,0.009,-0.018,1.004,0.000,0.000,0.000,0.3150,1,-2,-2.77,-0.06,-5.02,0.1329,-0.0025,0.3162,0.0365,-0.0414,0.3000,0.2608,-3.49,-4.57,142.94,0.2500,0.3130,0.0000,0.7490,0.7450,0,0.0000,0.0000,0.0000,0.0000,0.0000,0
18421,-0.0294,-0.0566,0.3159,0.0147,-0.0410,0.0055,-2.18,-0.37,-4.65,0,3.542,6.599,-8.948,1.941,0.008,-0.013,1.009,0.000,0.000,0.000,0.3150,0,0,-3.16,0.29,-4.89,0.1379,-0.0060,0.3162,0.0365,-0.0414,0.3000,0.2610,-3.13,-4.00,139.36,0.2500,0.3130,0.0000,0.7830,0.7450,0,0.0000,0.0000,0.0000,0.0000,0.0000,0
18473,-0.0260,-0.0581,0.3157,0.0247,-0.0224,0.0067,-1.97,0.14,-4.52,0,3.547,0.231,-9.930,2.365,0.007,-0.014,1.002,0.000,0.000,0.000,0.3170,0,-2,-2.82,0.75,-4.76,0.1405,-0.0079,0.3164,0.0365,-0.0414,0.3000,0.2609,-2.36,-3.29,135.52,0.2470,0.0000,0.0000,0.7830,0.7680,0,0.0000,0.0000,0.0000,0.0000,0.0000,0
18524,-0.0219,-0.0562,0.3166,0.0311,0.0006,0.0121,-1.79,0.53,-4.40,0,3.542,-2.255,-4.272,-1.173,0.010,-0.018,1.008,0.000,0.000,0.000,0.3140,0,-1,-2.82,1.25,-4.61,0.1446,-0.0070,0.3171,0.0365,-0.0414,0.3000,0.2602,-1.14,-2.71,132.05,0.2470,0.0000,0.0000,0.7740,0.7680,0,0.0000,0.0000,0.0000,0.0000,0.0000,0
18575,-0.0191,-0.0546,0.3159,0.0305,0.0194,0.0078,-1.82,0.64,-4.41,0,3.547,9.849,-1.557,-0.805,0.010,-0.019,1.000,0.000,0.000,0.000,0.3170,-1,0,-2.94,1.47,-4.66,0.1475,-0.0070,0.3169,0.0365,-0.0414,0.3000,0.2608,-0.13,-2.53,132.40,0.2440,0.0000,0.0000,0.7740,0.7700,0,0.0000,0.0000,0.0000,0.0000,0.0000,0
18625,-0.0172,-0.0520,0.3166,0.0271,0.0381,0.0098,-1.46,0.83,-4.45,0,3.542,22.597,-10.131,-0.988,0.009,-0.020,1.004,0.000,0.000,0.000,0.3170,-4,-3,-2.44,1.56,-4.72,0.1483,-0.0046,0.3175,0.0365,-0.0414,0.3000,0.2604,0.94,-2.56,133.58,0.2440,0.0000,0.0000,0.7720,0.7700,0,0.0000,0.0000,0.0000,0.0000,0.0000,0
18677,-0.0177,-0.0491,0.3171,0.0163,0.0514,0.0108,-0.55,1.17,-4.49,0,3.547,10.223,0.234,-3.814,0.008,-0.025,0.996,0.000,0.000,0.000,0.3160,-1,0,-1.37,2.03,-4.61,0.1564,0.0052,0.3180,0.0365,-0.0414,0.3000,0.2602,1.78,-3.11,134.77,0.2390,0.2210,0.0000,0.7720,0.7900,0,0.0000,0.0000,0.0000,0.0000,0.0000,0
18727,-0.0159,-0.0448,0.3170,0.0091,0.0593,0.0074,0.15,1.26,-4.65,0,3.537,10.409,0.643,-5.379,0.005,-0.024,0.999,0.000,0.000,0.000,0.3150,-2,0,-0.83,2.03,-4.84,0.1570,0.0082,0.3179,0.0365,-0.0414,0.3000,0.2606,2.46,-3.32,139.58,0.2390,0.2210,0.0000,0.7230,0.7900,0,0.0000,0.0000,0.0000,0.0000,0.0000,0
18778,-0.0155,-0.0409,0.3163,-0.0012,0.0604,0.0022,0.64,1.22,-4.92,0,3.542,20.131,3.829,-4.598,0.008,-0.017,0.994,0.000,0.000,0.000,0.3210,-1,3,-0.31,2.00,-5.09,0.1576,0.0141,0.3174,0.0365,-0.0414,0.3000,0.2613,2.78,-3.77,147.55,0.2410,0.2850,0.0000,0.7230,0.0000,0,0.0000,0.0000,0.0000,0.0000,0.0000,0
18829,-0.0150,-0.0372,0.3184,-0.0102,0.0564,0.0107,1.59,1.08,-5.15,0,3.542,5.706,6.475,-8.048,0.008,-0.021,0.985,0.000,0.000,0.000,0.3180,0,1,0.72,1.86,-5.39,0.1499,0.0179,0.3186,0.0365,-0.0414,0.3000,0.2600,2.87,-4.18,154.39,0.2410,0.2850,0.0000,0.6780,0.0000,0,0.0000,0.0000,0.0000,0.0000,0.0000,0
18881,-0.0176,-0.0347,0.3185,-0.0243,0.0426,0.0046,2.07,0.74,-5.50,0,3.547,-2.153,6.837,-11.200,0.010,-0.020,0.982,0.000,0.000,0.000,0.3230,1,0,1.04,1.53,-5.83,0.1469,0.0185,0.3183,0.0365,-0.0414,0.3000,0.2606,2.39,-5.02,165.09,0.2440,0.3570,0.0000,0.6780,0.0000,0,0.0000,0.0000,0.0000,0.0000,0.0000,0
18932,-0.0172,-0.0321,0.3205,-0.0270,0.0279,0.0066,1.96,0.28,-6.04,0,3.542,0.171,7.169,-13.165,0.011,-0.024,0.986,0.000,0.000,0.000,0.3210,0,1,0.97,1.14,-6.47,0.1464,0.0156,0.3192,0.0365,-0.0414,0.3000,0.2600,1.87,-5.13,181.05,0.2440,0.3570,0.0000,0.6330,0.0000,0,0.0000,0.0000,0.0000,0.0000,0.0000,0
18983,-0.0213,-0.0333,0.3208,-0.0372,0.0068,-0.0002,1.94,-0.03,-6.66,0,3.542,-1.363,0.138,-17.893,0.006,-0.026,0.979,0.000,0.000,0.000,0.3210,1,1,0.99,0.77,-7.12,0.1432,0.0160,0.3190,0.0365,-0.0414,0.3000,0.2607,0.78,-5.88,199.82,0.2490,0.3970,0.0000,0.6330,0.7870,0,0.0000,0.0000,0.0000,0.0000,0.0000,0
19033,-0.0240,-0.0329,0.3207,-0.0407,-0.0085,-0.0090,1.90,-0.15,-7.53,0,3.537,-17.774,10.402,-19.784,0.010,-0.016,0.989,0.000,0.000,0.000,0.3190,4,1,0.94,0.75,-8.04,0.1397,0.0134,0.3184,0.0365,-0.0414,0.3000,0.2616,0.09,-6.21,225.84,0.2490,0.3970,0.0000,0.6180,0.7870,0,0.0000,0.0000,0.0000,0.0000,0.0000,0
19084,-0.0253,-0.0331,0.3195,-0.0393,-0.0220,-0.0189,1.16,-0.56,-8.51,0,3.542,-11.538,12.059,-20.422,0.010,-0.017,0.990,0.000,0.000,0.000,0.3200,0,1,0.12,0.22,-9.11,0.1347,0.0017,0.3169,0.0365,-0.0414,0.3000,0.2629,-0.56,-6.21,255.29,0.2570,0.4210,0.0000,0.6180,0.0000,0,0.0000,0.0000,0.0000,0.0000,0.0000,0
19136,-0.0297,-0.0376,0.3190,-0.0409,-0.0388,-0.0218,0.55,-1.13,-9.55,0,3.537,-7.527,3.158,-21.073,0.013,-0.015,0.994,0.000,0.000,0.000,0.3140,3,1,-0.50,-0.39,-10.12,0.1314,0.0021,0.3164,0.0365,-0.0414,0.3000,0.2633,-1.67,-6.59,286.50,0.2570,0.4210,0.0000,0.6350,0.0000,0,0.0000,0.0000,0.0000,0.0000,0.0000,0
19187,-0.0294,-0.0394,0.3160,-0.0265,-0.0439,-0.0351,0.12,-1.33,-10.63,0,3.537,-20.398,-1.315,-14.895,0.011,-0.024,0.990,0.000,0.000,0.000,0.3130,1,0,-0.87,-0.53,-11.22,0.1265,-0.0066,0.3138,0.0365,-0.0414,0.3000,0.2654,-2.02,-5.85,318.84,0.2650,0.4200,0.0000,0.6350,0.0000,0,0.0000,0.0000,0.0000,0.0000,0.0000,0
19239,-0.0322,-0.0449,0.3135,-0.0198,-0.0536,-0.0426,-0.70,-1.29,-11.45,0,3.526,-14.995,8.810,-6.150,0.007,-0.015,1.001,0.000,0.000,0.000,0.3110,0,0,-1.93,-0.46,-11.99,0.1258,-0.0099,0.3116,0.0365,-0.0414,0.3000,0.2666,-2.85,-5.71,343.37,0.2650,0.4200,0.7940,0.6080,0.0000,0,0.0000,0.0000,0.0000,0.0000,0.0000,0
19291,-0.0312,-0.0494,0.3110,-0.0028,-0.0533,-0.0446,-1.45,-1.66,-11.85,0,3.531,-3.648,1.040,-1.338,0.008,-0.012,0.999,0.000,0.000,0.000,0.3110,0,-2,-2.72,-0.90,-12.33,0.1237,-0.0143,0.3093,0.0365,-0.0414,0.3000,0.2673,-3.13,-4.85,355.54,0.2500,0.4300,0.7940,0.6080,0.7290,0,0.0000,0.0000,0.0000,0.0000,0.0000,0
19342,-0.0321,-0.0521,0.3095,0.0112,-0.0443,-0.0411,-1.68,-1.73,-11.93,0,3.526,-2.489,-9.596,5.481,0.005,-0.018,1.004,0.000,0.000,0.000,0.3070,0,0,-2.97,-1.01,-12.47,0.1352,-0.0095,0.3076,0.0365,-0.0414,0.3000,0.2672,-2.90,-4.27,358.01,0.2500,0.4300,0.7560,0.6100,0.7290,0,0.0000,0.0000,0.0000,0.0000,0.0000,0
19393,-0.0286,-0.0545,0.3071,0.0342,-0.0341,-0.0416,-1.76,-1.29,-11.71,0,3.531,7.221,-11.026,8.280,0.006,-0.017,1.004,0.000,0.000,0.000,0.3040,-1,-4,-3.09,-0.54,-12.16,0.1368,-0.0108,0.3054,0.0365,-0.0414,0.3000,0.2677,-2.59,-2.96,351.17,0.2500,0.4320,0.7560,0.6100,0.7350,0,0.0000,0.0000,0.0000,0.0000,0.0000,0
19444,-0.0273,-0.0557,0.3044,0.0453,-0.0209,-0.0422,-1.49,-0.73,-11.28,0,3.521,9.583,-2.967,10.138,0.008,-0.020,1.009,0.000,0.000,0.000,0.3010,0,0,-2.74,-0.06,-11.66,0.1490,-0.0095,0.3027,0.0365,-0.0414,0.3000,0.2683,-2.06,-2.35,338.26,0.2500,0.4320,0.7420,0.6210,0.7350,0,0.0000,0.0000,0.0000,0.0000,0.0000,0
19495,-0.0227,-0.0538,0.3016,0.0582,-0.0039,-0.0435,-1.04,-0.53,-10.78,0,3.531,3.622,-7.562,9.719,0.005,-0.021,1.006,0.000,0.000,0.000,0.2980,-1,-1,-2.25,0.07,-11.14,0.1534,-0.0090,0.3003,0.0365,-0.0414,0.3000,0.2690,-1.15,-1.44,323.29,0.2440,0.4180,0.7420,0.6210,0.0000,0,0.0000,0.0000,0.0000,0.0000,0.0000,0
19546,-0.0196,-0.0542,0.2987,0.0635,0.0031,-0.0446,-0.89,-0.09,-10.30,0,3.521,6.538,-11.237,11.708,0.003,-0.021,1.015,0.000,0.000,0.000,0.2990,-1,-1,-2.07,0.48,-10.71,0.1517,-0.0079,0.2982,0.0365,-0.0414,0.3000,0.2697,-0.85,-0.98,309.00,0.2440,0.4180,0.7640,0.6230,0.0000,0,0.0000,0.0000,0.0000,0.0000,0.0000,0
19598,-0.0154,-0.0530,0.2975,0.0670,0.0120,-0.0333,-0.58,0.43,-9.77,0,3.526,3.523,-0.559,10.535,0.001,-0.020,1.013,0.000,0.000,0.000,0.2940,-1,1,-1.75,1.03,-10.10,0.1552,-0.0058,0.2970,0.0365,-0.0414,0.3000,0.2687,-0.37,-0.53,292.96,0.2540,0.4200,0.7640,0.6230,0.0000,0,0.0000,0.0000,0.0000,0.0000,0.0000,0
19648,-0.0138,-0.0516,0.2950,0.0596,0.0187,-0.0321,-0.36,0.58,-9.25,0,3.516,9.903,-6.850,10.642,0.002,-0.018,1.024,0.000,0.000,0.000,0.2980,-2,0,-1.58,1.08,-9.61,0.1544,-0.0032,0.2950,0.0365,-0.0414,0.3000,0.2690,0.04,-0.76,277.59,0.2540,0.4200,0.7750,0.6090,0.0000,0,0.0000,0.0000,0.0000,0.0000,0.0000,0
19700,-0.0122,-0.0493,0.2954,0.0517,0.0251,-0.0128,0.04,0.84,-8.72,0,3.531,2.250,-1.908,13.646,0.003,-0.015,1.016,0.000,0.000,0.000,0.2930,-1,-1,-1.11,1.41,-9.08,0.1556,0.0017,0.2953,0.0365,-0.0414,0.3000,0.2668,0.50,-1.03,261.67,0.2470,0.3910,0.7750,0.6090,0.8110,0,0.0000,0.0000,0.0000,0.0000,0.0000,0
19751,-0.0106,-0.0469,0.2941,0.0421,0.0278,-0.0087,0.21,1.02,-8.04,0,3.521,0.956,-0.449,20.841,-0.003,-0.014,1.013,0.000,0.000,0.000,0.2950,-2,0,-1.01,1.49,-8.35,0.1584,0.0043,0.2945,0.0365,-0.0414,0.3000,0.2666,0.79,-1.36,241.30,0.2470,0.3910,0.7910,0.5900,0.8110,0,0.0000,0.0000,0.0000,0.0000,0.0000,0
19802,-0.0089,-0.0455,0.2943,0.0322,0.0272,-0.0002,0.25,1.13,-7.05,0,3.526,3.924,-0.677,25.094,-0.004,-0.019,1.011,0.000,0.000,0.000,0.2930,-1,0,-1.00,1.49,-7.28,0.1591,0.0097,0.2948,0.0365,-0.0414,0.3000,0.2657,0.87,-1.71,211.45,0.2450,0.0000,0.7910,0.5900,0.0000,0,0.0000,0.0000,0.0000,0.0000,0.0000,0
19853,-0.0082,-0.0416,0.2938,0.0231,0.0331,0.0012,0.38,1.30,-5.83,0,3.526,2.761,-6.861,27.966,-0.004,-0.013,1.011,0.000,0.000,0.000,0.2910,-1,0,-0.83,1.50,-6.00,0.1594,0.0127,0.2947,0.0365,-0.0414,0.3000,0.2656,1.41,-2.09,174.84,0.2450,0.0000,0.0000,0.6060,0.0000,0,0.0000,0.0000,0.0000,0.0000,0.0000,0
19903,-0.0103,-0.0394,0.2927,0.0045,0.0325,-0.0001,0.55,1.74,-4.45,0,3.526,16.412,4.797,28.278,-0.002,-0.017,1.021,0.000,0.000,0.000,0.2950,-2,1,-0.73,1.83,-4.57,0.1595,0.0156,0.2942,0.0365,-0.0414,0.3000,0.2660,1.54,-3.09,133.64,0.2410,0.0000,0.0000,0.6060,0.8660,0,0.0000,0.0000,0.0000,0.0000,0.0000,0
19955,-0.0126,-0.0384,0.2938,-0.0160,0.0270,0.0135,1.22,1.62,-3.03,0,3.526,5.632,7.844,27.060,-0.001,-0.029,1.022,0.000,0.000,0.000,0.2940,-1,4,0.04,1.59,-3.14,0.1569,0.0215,0.2954,0.0365,-0.0414,0.3000,0.2643,1.36,-4.23,90.82,0.2410,0.0000,0.0000,0.5950,0.8660,0,0.0000,0.0000,0.0000,0.0000,0.0000,0
20005,-0.0141,-0.0358,0.2944,-0.0315,0.0209,0.0212,1.49,1.28,-1.66,0,3.537,-7.618,3.526,21.928,-0.002,-0.016,1.025,0.000,0.000,0.000,0.2930,0,0,0.30,1.24,-1.74,0.1460,0.0246,0.2962,0.0365,-0.0414,0.3000,0.2634,1.26,-5.07,49.88,0.2420,0.0000,0.0000,0.5950,0.0000,0,0.0000,0.0000,0.0000,0.0000,0.0000,0
20056,-0.0170,-0.0342,0.2946,-0.0449,0.0106,0.0245,1.15,1.02,-0.54,0,3.526,2.329,15.848,17.346,0.001,-0.019,1.020,0.000,0.000,0.000,0.2990,0,12,-0.10,1.07,-0.64,0.1412,0.0272,0.2973,0.0365,-0.0414,0.3000,0.2630,0.89,-5.91,16.34,0.2420,0.0000,0.0000,0.5800,0.0000,0,0.0000,0.0000,0.0000,0.0000,0.0000,0
20108,-0.0276,-0.0360,0.2977,-0.0731,-0.0067,0.0443,1.22,0.47,0.35,0,3.537,-12.191,29.030,8.600,0.008,-0.013,1.008,0.000,0.000,0.000,0.2990,0,1,0.06,0.47,0.33,0.1016,0.0234,0.2988,0.0365,-0.0414,0.3000,0.2602,-0.05,-8.04,-10.45,0.2470,0.0000,0.0000,0.5800,0.0000,0,0.0000,0.0000,0.0000,0.0000,0.0000,0
20158,-0.0384,-0.0374,0.2993,-0.0933,-0.0174,0.0455,0.77,-1.09,0.84,0,3.531,-11.688,23.151,2.415,0.008,-0.014,0.998,0.000,0.000,0.000,0.2950,0,1,-0.57,-1.09,0.72,0.0967,0.0235,0.3022,0.0365,-0.0414,0.3000,0.2598,-0.66,-9.75,-25.35,0.2470,0.0000,2.2410,0.6080,0.0000,0,0.0000,0.0000,0.0000,0.0000,0.0000,0
20210,-0.0443,-0.0387,0.2989,-0.0875,-0.0248,0.0314,0.23,-2.29,1.01,0,3.531,-3.756,8.176,4.518,0.007,-0.023,1.006,0.000,0.000,0.000,0.3000,0,1,-1.16,-2.28,0.78,0.0920,0.0235,0.3029,0.0365,-0.0414,0.3000,0.2614,-1.10,-9.83,-30.19,0.2600,0.2250,2.2410,0.6080,0.7630,0,0.0000,0.0000,0.0000,0.0000,0.0000,0
20261,-0.0484,-0.0394,0.3002,-0.0688,-0.0253,0.0289,0.04,-2.79,1.24,0,3.526,-12.332,3.651,8.875,-0.000,-0.015,1.011,0.000,0.000,0.000,0.3020,1,0,-1.34,-2.74,0.99,0.0885,0.0235,0.3046,0.0365,-0.0414,0.3000,0.2614,-1.17,-9.25,-37.06,0.2600,0.2250,2.4160,0.6790,0.7630,0,0.0000,0.0000,0.0000,0.0000,0.0000,0
20312,-0.0528,-0.0402,0.3019,-0.0491,-0.0240,0.0332,-0.44,-2.89,1.66,0,3.537,-1.227,7.215,10.231,0.006,-0.020,0.996,0.000,0.000,0.000,0.3070,1,0,-1.93,-2.97,1.47,0.0877,0.0213,0.3064,0.0365,-0.0414,0.3000,0.2607,-1.17,-8.67,-49.82,0.2660,0.2940,2.4160,0.6790,0.0000,0,0.0000,0.0000,0.0000,0.0000,0.0000,0
20364,-0.0552,-0.0409,0.3051,-0.0256,-0.0187,0.0428,-0.54,-3.24,2.17,0,3.531,-4.865,3.200,11.150,0.004,-0.024,0.994,0.000,0.000,0.000,0.3060,0,-1,-1.94,-3.37,2.04,0.0872,0.0190,0.3089,0.0365,-0.0414,0.3000,0.2590,-0.98,-7.79,-65.11,0.2660,0.2940,0.0000,0.7160,0.0000,0,0.0000,0.0000,0.0000,0.0000,0.0000,0
20416,-0.0570,-0.0428,0.3067,-0.0015,-0.0156,0.0374,-0.62,-3.32,2.67,0,3.537,-7.854,-13.605,15.484,-0.000,-0.020,0.994,0.000,0.000,0.000,0.3100,1,-2,-2.16,-3.59,2.63,0.0899,0.0192,0.3100,0.0365,-0.0414,0.3000,0.2593,-0.96,-6.78,-80.18,0.2700,0.3430,0.0000,0.7160,0.0000,0,0.0000,0.0000,0.0000,0.0000,0.0000,0
20466,-0.0558,-0.0430,0.3093,0.0274,-0.0079,0.0391,-0.94,-2.75,3.41,0,3.531,3.070,-2.998,18.468,-0.003,-0.025,0.988,0.000,0.000,0.000,0.3110,0,-2,-2.49,-2.94,3.58,0.0956,0.0172,0.3116,0.0365,-0.0414,0.3000,0.2586,-0.61,-5.35,-102.38,0.2700,0.3430,0.0000,0.7220,0.0000,0,0.0000,0.0000,0.0000,0.0000,0.0000,0
20518,-0.0522,-0.0446,0.3111,0.0545,-0.0022,0.0337,-0.83,-2.41,4.31,0,3.537,0.366,-12.158,18.009,-0.002,-0.029,0.965,0.000,0.000,0.000,0.3090,0,-1,-2.29,-2.85,4.54,0.1016,0.0178,0.3128,0.0365,-0.0414,0.3000,0.2589,-0.46,-3.80,-129.37,0.2730,0.3280,0.0000,0.7220,0.7730,0,0.0000,0.0000,0.0000,0.0000,0.0000,0
20569,-0.0486,-0.0443,0.3110,0.0749,0.0069,0.0143,-0.74,-1.87,5.21,0,3.526,-0.908,-16.421,16.508,-0.004,-0.012,0.983,0.000,0.000,0.000,0.3090,-1,-1,-2.22,-2.24,5.50,0.1047,0.0181,0.3122,0.0365,-0.0414,0.3000,0.2610,0.01,-2.56,-156.28,0.2730,0.3280,0.0000,0.7180,0.7730,0,0.0000,0.0000,0.0000,0.0000,0.0000,0
20620,-0.0453,-0.0437,0.3104,0.0878,0.0147,-0.0046,-0.85,-1.11,6.06,0,3.531,-4.074,-20.119,16.665,0.000,-0.029,0.982,0.000,0.000,0.000,0.3120,0,-4,-2.25,-1.42,6.29,0.1077,0.0212,0.3112,0.0365,-0.0414,0.3000,0.2631,0.41,-1.70,-181.69,0.2700,0.2920,0.0000,0.7180,0.7950,0,0.0000,0.0000,0.0000,0.0000,0.0000,0
20671,-0.0426,-0.0427,0.3108,0.0919,0.0229,-0.0062,-1.07,-0.23,6.91,0,3.521,-1.563,-8.979,15.958,-0.004,-0.006,0.998,0.000,0.000,0.000,0.3070,0,-3,-2.44,-0.47,7.28,0.1195,0.0230,0.3106,0.0365,-0.0414,0.3000,0.2632,0.87,-1.31,-207.19,0.2700,0.2920,0.0000,0.7130,0.7950,0,0.0000,0.0000,0.0000,0.0000,0.0000,0
20723,-0.0390,-0.0417,0.3089,0.0902,0.0309,-0.0212,-1.16,0.29,7.73,0,3.526,-0.241,-1.239,15.060,-0.002,-0.021,1.009,0.000,0.000,0.000,0.3120,0,0,-2.50,-0.06,8.19,0.1285,0.0245,0.3087,0.0365,-0.0414,0.3000,0.2652,1.31,-1.13,-231.80,0.2700,0.0000,0.0000,0.7130,0.0000,0,0.0000,0.0000,0.0000,0.0000,0.0000,0
20773,-0.0349,-0.0397,0.3096,0.0853,0.0412,-0.0092,-1.21,0.43,8.50,0,3.521,8.545,-0.823,15.282,-0.002,-0.010,0.989,0.000,0.000,0.000,0.3080,0,0,-2.51,-0.03,8.97,0.1356,0.0279,0.3091,0.0365,-0.0414,0.3000,0.2638,1.93,-1.08,-255.10,0.2700,0.0000,0.0000,0.7080,0.0000,0,0.0000,0.0000,0.0000,0.0000,0.0000,0
20824,-0.0319,-0.0385,0.3087,0.0774,0.0481,-0.0136,-0.83,0.45,9.26,0,3.526,17.983,0.294,17.353,-0.004,-0.022,1.024,0.000,0.000,0.000,0.3040,-2,0,-2.08,-0.02,9.74,0.1425,0.0320,0.3080,0.0365,-0.0414,0.3000,0.2644,2.34,-1.24,-277.89,0.2720,0.3430,0.0000,0.7080,0.0000,0,0.0000,0.0000,0.0000,0.0000,0.0000,0
20875,-0.0308,-0.0346,0.3063,0.0660,0.0572,-0.0184,-0.05,0.45,10.12,0,3.521,5.278,-7.177,13.665,-0.006,-0.012,1.011,0.000,0.000,0.000,0.3070,-2,-3,-1.13,0.12,10.37,0.1191,0.0250,0.3080,0.0365,-0.0414,0.3000,0.2654,3.02,-1.69,-303.48,0.2720,0.3430,0.0000,0.6770,0.0000,0,0.0000,0.0000,0.0000,0.0000,0.0000,0
20927,-0.0295,-0.0306,0.3062,0.0573,0.0602,-0.0112,0.15,0.90,10.80,0,3.526,18.417,2.887,7.574,0.003,-0.023,1.019,0.000,0.000,0.000,0.3040,-2,0,-0.88,0.45,11.08,0.1239,0.0305,0.3082,0.0365,-0.0414,0.3000,0.2646,3.46,-2.01,-324.02,0.2680,0.3890,0.0000,0.6770,0.0000,0,0.0000,0.0000,0.0000,0.0000,0.0000,0
