time_ms,pos_x,pos_y,pos_z,vel_x,vel_y,vel_z,roll,pitch,yaw,thrust,vbat,gyro_x,gyro_y,gyro_z,acc_x,acc_y,acc_z,rate_roll,rate_pitch,rate_yaw,range_z,flow_dx,flow_dy,mekf_roll,mekf_pitch,mekf_yaw,mekf_x,mekf_y,mekf_z,our_ref_x,our_ref_y,our_ref_z,our_thrust,our_roll_cmd,our_pitch_cmd,our_yaw_rate_cmd,multi_front,multi_back,multi_left,multi_right,multi_up,ai_feat_count,vo_x,vo_y,vo_sigma,pg_x,pg_y,lc_count
0,1.3027,1.3503,0.0092,0.0099,-0.0028,-0.0067,-0.64,-0.02,-5.15,0,4.091,0.138,0.269,0.116,-0.002,-0.011,1.001,0.000,0.000,0.000,0.0100,6,-3,0.00,0.00,0.00,0.0000,0.0000,0.0000,0.0000,0.0000,0.0000,0.0000,0.00,0.00,0.00,1.4520,0.9410,0.9620,1.0000,2.6980,0,0.0000,0.0000,0.0000,0.0000,0.0000,0
100,1.3026,1.3503,0.0094,0.0078,-0.0033,-0.0037,-0.60,-0.05,-5.12,0,4.096,0.336,-0.127,-0.129,-0.000,-0.012,1.000,0.000,0.000,0.000,0.0090,0,3,0.00,0.00,0.00,0.0000,0.0000,0.0000,0.0000,0.0000,0.0000,0.0000,0.00,0.00,0.00,1.4460,0.9410,0.9620,1.0000,2.7020,0,0.0000,0.0000,0.0000,0.0000,0.0000,0
202,1.3020,1.3504,0.0091,0.0028,-0.0042,-0.0044,-0.60,-0.06,-5.10,0,4.096,-0.303,-0.110,-0.036,-0.002,-0.012,1.000,0.000,0.000,0.000,0.0100,0,-3,0.00,0.00,0.00,0.0000,0.0000,0.0000,0.0000,0.0000,0.0000,0.0000,0.00,0.00,0.00,1.4460,0.9410,0.9650,1.0060,2.7020,0,0.0000,0.0000,0.0000,0.0000,0.0000,0
303,1.3028,1.3522,0.0094,0.0064,0.0060,-0.0021,-0.65,-0.05,-5.07,0,4.096,-0.036,0.020,0.126,0.001,-0.013,1.001,0.000,0.000,0.000,0.0100,0,-8,0.00,0.00,0.00,0.0000,0.0000,0.0000,0.0000,0.0000,0.0000,0.0000,0.00,0.00,0.00,1.4600,0.9400,0.9650,1.0060,2.7060,0,0.0000,0.0000,0.0000,0.0000,0.0000,0
403,1.3011,1.3511,0.0096,-0.0032,-0.0016,-0.0001,-0.64,-0.08,-5.05,0,4.091,-0.192,-0.011,0.010,-0.002,-0.012,1.002,0.000,0.000,0.000,0.0110,10,2,0.00,0.00,0.00,0.0000,0.0000,0.0000,0.0000,0.0000,0.0000,0.0000,0.00,0.00,0.00,1.4600,0.9400,0.9620,1.0060,2.7060,0,0.0000,0.0000,0.0000,0.0000,0.0000,0
505,1.3028,1.3483,0.0102,0.0050,-0.0171,0.0036,-0.33,-0.04,-5.02,0,4.096,0.029,0.163,-0.105,-0.002,-0.015,1.001,0.000,0.000,0.000,0.0130,-13,0,0.00,0.00,0.00,0.0000,0.0000,0.0000,0.0000,0.0000,0.0000,0.0000,0.00,0.00,0.00,1.4480,0.9470,0.9620,1.0060,2.7000,0,0.0000,0.0000,0.0000,0.0000,0.0000,0
606,1.3017,1.3473,0.0117,-0.0012,-0.0164,0.0104,-0.53,-0.03,-5.00,0,4.096,-0.001,-0.070,-0.223,0.001,-0.016,1.000,0.000,0.000,0.000,0.0110,24,-2,0.00,0.00,0.00,0.0000,0.0000,0.0000,0.0000,0.0000,0.0000,0.0000,0.00,0.00,0.00,1.4480,0.9470,0.9670,1.0030,2.7000,0,0.0000,0.0000,0.0000,0.0000,0.0000,0
707,1.3021,1.3385,0.0116,0.0011,-0.0591,0.0075,-0.39,-0.04,-4.97,0,4.096,0.139,0.005,-0.110,-0.001,-0.014,1.002,0.000,0.000,0.000,0.0140,-5,0,0.00,0.00,0.00,0.0000,0.0000,0.0000,0.0000,0.0000,0.0000,0.0000,0.00,0.00,0.00,1.4670,0.9430,0.9670,1.0030,2.7000,0,0.0000,0.0000,0.0000,0.0000,0.0000,0
808,1.3017,1.3396,0.0132,-0.0006,-0.0443,0.0134,-0.39,0.05,-4.95,0,4.096,-0.055,0.215,0.280,-0.000,-0.012,1.000,0.000,0.000,0.000,0.0110,0,-3,0.00,0.00,0.00,0.0000,0.0000,0.0000,0.0000,0.0000,0.0000,0.0000,0.00,0.00,0.00,1.4670,0.9430,0.9680,1.0060,2.7000,0,0.0000,0.0000,0.0000,0.0000,0.0000,0
909,1.3000,1.3403,0.0127,-0.0075,-0.0329,0.0076,-0.51,0.06,-4.92,0,4.096,-0.009,-0.237,0.180,-0.000,-0.014,0.999,0.000,0.000,0.000,0.0100,0,-4,0.00,0.00,0.00,0.0000,0.0000,0.0000,0.0000,0.0000,0.0000,0.0000,0.00,0.00,0.00,1.4460,0.9470,0.9680,1.0060,2.7070,0,0.0000,0.0000,0.0000,0.0000,0.0000,0
1010,1.3000,1.3404,0.0119,-0.0051,-0.0266,0.0019,-0.49,-0.02,-4.90,0,4.091,0.011,0.146,0.030,-0.001,-0.013,1.002,0.000,0.000,0.000,0.0120,-14,5,0.00,0.00,0.00,0.0000,0.0000,0.0000,0.0000,0.0000,0.0000,0.0000,0.00,0.00,0.00,1.4460,0.9470,0.9680,0.9990,2.7070,0,0.0000,0.0000,0.0000,0.0000,0.0000,0
1111,1.2985,1.3437,0.0121,-0.0124,-0.0033,0.0025,-0.63,0.09,-4.87,0,4.096,0.105,-0.098,0.203,-0.003,-0.010,0.999,0.000,0.000,0.000,0.0110,4,-3,0.00,0.00,0.00,0.0000,0.0000,0.0000,0.0000,0.0000,0.0000,0.0000,0.00,0.00,0.00,1.4490,0.9390,0.9680,0.9990,2.7160,0,0.0000,0.0000,0.0000,0.0000,0.0000,0
1212,1.3001,1.3390,0.0117,-0.0020,-0.0251,-0.0006,-0.60,-0.04,-4.85,0,4.091,0.105,0.184,-0.117,-0.001,-0.015,0.997,0.000,0.000,0.000,0.0130,-2,5,0.00,0.00,0.00,0.0000,0.0000,0.0000,0.0000,0.0000,0.0000,0.0000,0.00,0.00,0.00,1.4490,0.9390,0.9670,0.9990,2.7160,0,0.0000,0.0000,0.0000,0.0000,0.0000,0
1313,1.2977,1.3438,0.0123,-0.0142,0.0043,0.0024,-0.60,0.07,-4.82,0,4.096,0.007,0.045,0.002,0.001,-0.011,1.001,0.000,0.000,0.000,0.0100,-1,5,0.00,0.00,0.00,0.0000,0.0000,0.0000,0.0000,0.0000,0.0000,0.0000,0.00,0.00,0.00,1.4700,0.9360,0.9670,0.9990,2.7120,0,0.0000,0.0000,0.0000,0.0000,0.0000,0
1414,1.2966,1.3394,0.0115,-0.0178,-0.0155,-0.0020,-0.67,0.05,-4.79,0,4.096,0.013,0.114,0.248,-0.002,-0.013,1.002,0.000,0.000,0.000,0.0110,1,4,0.00,0.00,0.00,0.0000,0.0000,0.0000,0.0000,0.0000,0.0000,0.0000,0.00,0.00,0.00,1.4700,0.9360,0.9720,0.9990,2.7120,0,0.0000,0.0000,0.0000,0.0000,0.0000,0
1515,1.2953,1.3357,0.0112,-0.0218,-0.0320,-0.0034,-0.43,0.09,-4.78,0,4.096,0.134,0.229,0.171,-0.001,-0.014,1.000,0.000,0.000,0.000,0.0120,-16,-2,0.00,0.00,0.00,0.0000,0.0000,0.0000,0.0000,0.0000,0.0000,0.0000,0.00,0.00,0.00,1.4530,0.9420,0.9720,0.9990,2.6980,0,0.0000,0.0000,0.0000,0.0000,0.0000,0
1565,1.2957,1.3381,0.0116,-0.0151,-0.0113,0.0002,-0.93,0.08,-4.74,0,4.091,-0.105,-0.280,0.129,-0.000,-0.013,0.998,0.000,0.000,0.000,0.0120,-16,-4,0.00,0.00,0.00,0.0000,0.0000,0.0000,0.0000,0.0000,0.0000,0.0000,0.00,0.00,0.00,1.4530,0.9420,0.9620,0.9980,2.6980,0,0.0000,0.0000,0.0000,0.0000,0.0000,0
1617,1.2961,1.3474,0.0117,-0.0093,0.0361,0.0004,-1.05,0.00,-4.71,0,4.096,-0.428,0.083,0.155,-0.001,-0.011,0.998,0.000,0.000,0.000,0.0110,1,0,0.00,0.00,0.00,0.0000,0.0000,0.0000,0.0000,0.0000,0.0000,0.0000,0.00,0.00,0.00,1.4530,0.9390,0.9620,0.9980,2.7010,0,0.0000,0.0000,0.0000,0.0000,0.0000,0
1667,1.2954,1.3484,0.0115,-0.0118,0.0350,-0.0012,-1.15,-0.02,-4.69,0,4.091,0.072,0.021,0.249,-0.002,-0.012,0.999,0.000,0.000,0.000,0.0120,-21,-4,0.00,0.00,0.00,0.0000,0.0000,0.0000,0.0000,0.0000,0.0000,0.0000,0.00,0.00,0.00,1.4530,0.9390,0.9620,1.0000,2.7010,0,0.0000,0.0000,0.0000,0.0000,0.0000,0
1719,1.2980,1.3563,0.0114,0.0045,0.0684,-0.0020,-1.17,-0.07,-4.66,0,4.096,0.287,-0.134,-0.060,-0.002,-0.013,1.000,0.000,0.000,0.000,0.0110,-3,0,0.00,0.00,0.00,0.0000,0.0000,0.0000,0.0000,0.0000,0.0000,0.0000,0.00,0.00,0.00,1.4550,0.9440,0.9620,1.0000,2.7070,0,0.0000,0.0000,0.0000,0.0000,0.0000,0
1770,1.2970,1.3527,0.0116,-0.0011,0.0375,-0.0006,-0.97,-0.05,-4.64,0,4.091,0.120,-0.073,0.317,0.000,-0.013,1.003,0.000,0.000,0.000,0.0100,4,-4,0.00,0.00,0.00,0.0000,0.0000,0.0000,0.0000,0.0000,0.0000,0.0000,0.00,0.00,0.00,1.4550,0.9440,0.9680,0.9980,2.7070,0,0.0000,0.0000,0.0000,0.0000,0.0000,0
1821,1.2966,1.3480,0.0110,-0.0025,0.0054,-0.0025,-0.76,0.02,-4.62,0,4.096,-0.029,-0.278,0.043,-0.002,-0.011,1.001,0.000,0.000,0.000,0.0110,-14,0,0.00,0.00,0.00,0.0000,0.0000,0.0000,0.0000,0.0000,0.0000,0.0000,0.00,0.00,0.00,1.4580,0.9280,0.9680,0.9980,2.6960,0,0.0000,0.0000,0.0000,0.0000,0.0000,0
1872,1.2964,1.3478,0.0110,-0.0024,0.0050,-0.0014,-0.67,-0.02,-4.60,0,4.091,-0.132,-0.074,-0.030,-0.001,-0.014,1.000,0.000,0.000,0.000,0.0120,-8,1,0.00,0.00,0.00,0.0000,0.0000,0.0000,0.0000,0.0000,0.0000,0.0000,0.00,0.00,0.00,1.4580,0.9280,0.0000,0.9970,2.6960,0,0.0000,0.0000,0.0000,0.0000,0.0000,0
1922,1.2954,1.3486,0.0114,-0.0062,0.0088,0.0011,-0.75,-0.04,-4.57,0,4.096,0.056,0.250,0.434,0.001,-0.011,1.000,0.000,0.000,0.000,0.0100,-2,-3,0.00,0.00,0.00,0.0000,0.0000,0.0000,0.0000,0.0000,0.0000,0.0000,0.00,0.00,0.00,1.4670,0.9470,0.0000,0.9970,2.7110,0,0.0000,0.0000,0.0000,0.0000,0.0000,0
1974,1.2955,1.3416,0.0109,-0.0045,-0.0287,-0.0025,-0.46,-0.10,-4.54,0,4.091,-0.125,-0.144,0.033,-0.002,-0.012,1.002,0.000,0.000,0.000,0.0120,-21,-2,0.00,0.00,0.00,0.0000,0.0000,0.0000,0.0000,0.0000,0.0000,0.0000,0.00,0.00,0.00,1.4670,0.9470,0.0000,1.0030,2.7110,0,0.0000,0.0000,0.0000,0.0000,0.0000,0
2025,1.2966,1.3466,0.0115,0.0027,0.0049,0.0014,-0.83,-0.02,-4.52,0,4.096,-0.105,-0.034,-0.083,-0.002,-0.010,1.000,0.000,0.000,0.000,0.0120,-4,0,0.00,0.00,0.00,0.0000,0.0000,0.0000,0.0000,0.0000,0.0000,0.0000,0.00,0.00,0.00,1.4660,0.9400,0.0000,1.0030,2.7070,0,0.0000,0.0000,0.0000,0.0000,0.0000,0
2076,1.2951,1.3499,0.0118,-0.0047,0.0201,0.0031,-0.80,-0.03,-4.50,0,4.091,0.134,-0.223,-0.021,0.002,-0.012,0.998,0.000,0.000,0.000,0.0090,-9,-3,0.00,0.00,0.00,0.0000,0.0000,0.0000,0.0000,0.0000,0.0000,0.0000,0.00,0.00,0.00,1.4660,0.9400,0.5630,0.9960,2.7070,0,0.0000,0.0000,0.0000,0.0000,0.0000,0
2127,1.2957,1.3509,0.0107,0.0010,0.0216,-0.0031,-0.70,-0.04,-4.48,0,4.096,-0.080,0.128,0.036,-0.001,-0.013,0.998,0.000,0.000,0.000,0.0100,1,0,0.00,0.00,0.00,0.0000,0.0000,0.0000,0.0000,0.0000,0.0000,0.0000,0.00,0.00,0.00,1.4570,0.9390,0.5630,0.9960,2.7040,0,0.0000,0.0000,0.0000,0.0000,0.0000,0
2177,1.2968,1.3461,0.0104,0.0065,-0.0073,-0.0045,-0.70,-0.12,-4.45,0,4.091,-0.202,0.262,-0.076,-0.001,-0.013,0.999,0.000,0.000,0.000,0.0120,-6,-7,0.00,0.00,0.00,0.0000,0.0000,0.0000,0.0000,0.0000,0.0000,0.0000,0.00,0.00,0.00,1.4570,0.9390,0.5420,1.0020,2.7040,0,0.0000,0.0000,0.0000,0.0000,0.0000,0
2228,1.2975,1.3479,0.0110,0.0094,0.0029,-0.0003,-0.63,-0.13,-4.43,0,4.096,-0.018,-0.035,0.099,-0.001,-0.013,0.998,0.000,0.000,0.000,0.0140,-24,-4,0.00,0.00,0.00,0.0000,0.0000,0.0000,0.0000,0.0000,0.0000,0.0000,0.00,0.00,0.00,1.4590,0.9340,0.5420,1.0020,2.6980,0,0.0000,0.0000,0.0000,0.0000,0.0000,0
2280,1.2980,1.3512,0.0123,0.0107,0.0220,0.0060,-0.90,-0.08,-4.41,0,4.091,-0.195,-0.036,-0.104,-0.001,-0.013,0.998,0.000,0.000,0.000,0.0100,0,-4,0.00,0.00,0.00,0.0000,0.0000,0.0000,0.0000,0.0000,0.0000,0.0000,0.00,0.00,0.00,1.4590,0.9340,0.5360,0.9970,2.6980,0,0.0000,0.0000,0.0000,0.0000,0.0000,0
2331,1.2986,1.3536,0.0115,0.0117,0.0284,-0.0001,-0.90,-0.07,-4.38,0,4.096,-0.165,-0.160,0.105,-0.002,-0.014,1.002,0.000,0.000,0.000,0.0110,-20,-5,0.00,0.00,0.00,0.0000,0.0000,0.0000,0.0000,0.0000,0.0000,0.0000,0.00,0.00,0.00,1.4610,0.9360,0.5360,0.9970,2.7070,0,0.0000,0.0000,0.0000,0.0000,0.0000,0
2382,1.2993,1.3577,0.0112,0.0137,0.0453,-0.0009,-0.96,-0.12,-4.36,0,4.091,-0.011,-0.277,-0.063,-0.002,-0.013,1.002,0.000,0.000,0.000,0.0110,-18,1,0.00,0.00,0.00,0.0000,0.0000,0.0000,0.0000,0.0000,0.0000,0.0000,0.00,0.00,0.00,1.4610,0.9360,0.5410,0.9990,2.7070,0,0.0000,0.0000,0.0000,0.0000,0.0000,0
2433,1.3006,1.3611,0.0112,0.0170,0.0543,-0.0008,-1.31,-0.12,-4.34,0,4.096,0.046,-0.187,-0.022,0.000,-0.013,1.001,0.000,0.000,0.000,0.0110,-15,-16,0.00,0.00,0.00,0.0000,0.0000,0.0000,0.0000,0.0000,0.0000,0.0000,0.00,0.00,0.00,1.4480,0.9360,0.5410,0.9990,2.7140,0,0.0000,0.0000,0.0000,0.0000,0.0000,0
2484,1.3040,1.3727,0.0106,0.0327,0.1002,-0.0043,-1.61,-0.12,-4.33,0,4.086,-0.003,-0.081,-0.005,-0.001,-0.015,0.998,0.000,0.000,0.000,0.0100,-1,-3,0.00,0.00,0.00,0.0000,0.0000,0.0000,0.0000,0.0000,0.0000,0.0000,0.00,0.00,0.00,1.4480,0.9360,0.5390,1.0020,2.7140,0,0.0000,0.0000,0.0000,0.0000,0.0000,0
2535,1.3028,1.3775,0.0105,0.0211,0.1015,-0.0026,-1.38,-0.08,-4.30,0,4.096,-0.214,0.101,-0.058,0.000,-0.013,1.000,0.000,0.000,0.000,0.0110,0,1,0.00,0.00,0.00,0.0000,0.0000,0.0000,0.0000,0.0000,0.0000,0.0000,0.00,0.00,0.00,1.4630,0.9340,0.5390,1.0020,2.7030,0,0.0000,0.0000,0.0000,0.0000,0.0000,0
2585,1.3035,1.3814,0.0108,0.0206,0.0995,-0.0009,-1.20,-0.08,-4.28,0,4.091,-0.100,0.290,-0.023,-0.002,-0.013,0.999,0.000,0.000,0.000,0.0130,5,-5,0.00,0.00,0.00,0.0000,0.0000,0.0000,0.0000,0.0000,0.0000,0.0000,0.00,0.00,0.00,1.4630,0.9340,0.5420,1.0000,2.7030,0,0.0000,0.0000,0.0000,0.0000,0.0000,0
2637,1.3033,1.3788,0.0122,0.0153,0.0648,0.0080,-1.05,-0.08,-4.25,0,4.096,-0.155,-0.085,0.192,-0.001,-0.012,1.000,0.000,0.000,0.000,0.0110,17,-4,0.00,0.00,0.00,0.0000,0.0000,0.0000,0.0000,0.0000,0.0000,0.0000,0.00,0.00,0.00,1.4570,0.9290,0.5420,1.0000,2.7040,0,0.0000,0.0000,0.0000,0.0000,0.0000,0
2688,1.3036,1.3775,0.0122,0.0138,0.0412,0.0070,-0.78,-0.09,-4.22,0,4.091,0.049,0.172,-0.070,-0.001,-0.012,0.999,0.000,0.000,0.000,0.0120,-31,-1,0.00,0.00,0.00,0.0000,0.0000,0.0000,0.0000,0.0000,0.0000,0.0000,0.00,0.00,0.00,1.4570,0.9290,0.5470,0.9980,2.7040,0,0.0000,0.0000,0.0000,0.0000,0.0000,0
2738,1.3041,1.3900,0.0120,0.0136,0.0971,0.0026,-1.08,-0.06,-4.20,0,4.096,-0.200,0.093,-0.067,-0.001,-0.011,0.998,0.000,0.000,0.000,0.0110,-27,-4,0.00,0.00,0.00,0.0000,0.0000,0.0000,0.0000,0.0000,0.0000,0.0000,0.00,0.00,0.00,1.4660,0.9410,0.5470,0.9980,2.7010,0,0.0000,0.0000,0.0000,0.0000,0.0000,0
2790,1.3046,1.3911,0.0121,0.0135,0.0862,0.0021,-1.04,-0.08,-4.18,0,4.091,-0.079,-0.040,-0.048,0.000,-0.010,1.000,0.000,0.000,0.000,0.0120,-10,4,0.00,0.00,0.00,0.0000,0.0000,0.0000,0.0000,0.0000,0.0000,0.0000,0.00,0.00,0.00,1.4660,0.9410,0.5440,0.9980,2.7010,0,0.0000,0.0000,0.0000,0.0000,0.0000,0
2841,1.3036,1.4006,0.0118,0.0054,0.1152,-0.0006,-1.28,0.04,-4.16,0,4.096,-0.084,-0.288,-0.144,-0.001,-0.013,1.000,0.000,0.000,0.000,0.0150,0,-4,0.00,0.00,0.00,0.0000,0.0000,0.0000,0.0000,0.0000,0.0000,0.0000,0.00,0.00,0.00,1.4430,0.9400,0.5440,0.9980,2.7070,0,0.0000,0.0000,0.0000,0.0000,0.0000,0
2891,1.3034,1.4006,0.0137,0.0032,0.0896,0.0100,-1.05,0.05,-4.14,0,4.091,-0.094,-0.140,0.019,-0.002,-0.013,1.001,0.000,0.000,0.000,0.0110,6,0,0.00,0.00,0.00,0.0000,0.0000,0.0000,0.0000,0.0000,0.0000,0.0000,0.00,0.00,0.00,1.4430,0.9400,0.5440,1.0050,2.7070,0,0.0000,0.0000,0.0000,0.0000,0.0000,0
2943,1.3026,1.4015,0.0132,-0.0026,0.0722,0.0057,-0.99,0.02,-4.12,0,4.096,-0.028,0.088,0.426,-0.001,-0.015,1.001,0.000,0.000,0.000,0.0120,-6,-4,0.00,0.00,0.00,0.0000,0.0000,0.0000,0.0000,0.0000,0.0000,0.0000,0.00,0.00,0.00,1.4650,0.9380,0.5440,1.0050,2.7030,0,0.0000,0.0000,0.0000,0.0000,0.0000,0
2995,1.3026,1.4054,0.0128,-0.0027,0.0766,0.0031,-0.85,-0.06,-4.10,0,4.091,0.138,-0.257,0.048,0.001,-0.014,1.000,0.000,0.000,0.000,0.0100,-27,-6,0.00,0.00,0.00,0.0000,0.0000,0.0000,0.0000,0.0000,0.0000,0.0000,0.00,0.00,0.00,1.4650,0.9380,0.5430,1.0030,2.7030,0,0.0000,0.0000,0.0000,0.0000,0.0000,0
3046,1.3061,1.4115,0.0116,0.0154,0.0885,-0.0045,-0.89,-0.08,-4.08,0,4.096,0.143,-0.144,-0.202,-0.003,-0.013,1.001,0.000,0.000,0.000,0.0100,-8,-4,0.00,0.00,0.00,0.0000,0.0000,0.0000,0.0000,0.0000,0.0000,0.0000,0.00,0.00,0.00,1.4740,0.9280,0.5430,1.0030,2.7100,0,0.0000,0.0000,0.0000,0.0000,0.0000,0
3096,1.3069,1.4142,0.0109,0.0159,0.0827,-0.0065,-0.90,-0.05,-4.06,0,4.091,-0.036,-0.105,-0.210,-0.002,-0.015,0.998,0.000,0.000,0.000,0.0080,3,0,0.00,0.00,0.00,0.0000,0.0000,0.0000,0.0000,0.0000,0.0000,0.0000,0.00,0.00,0.00,1.4740,0.9280,0.5410,1.0030,2.7100,0,0.0000,0.0000,0.0000,0.0000,0.0000,0
3148,1.3059,1.4140,0.0097,0.0080,0.0625,-0.0109,-0.75,-0.12,-4.04,0,4.096,-0.050,-0.037,0.030,-0.003,-0.012,0.999,0.000,0.000,0.000,0.0090,-16,-8,0.00,0.00,0.00,0.0000,0.0000,0.0000,0.0000,0.0000,0.0000,0.0000,0.00,0.00,0.00,1.4570,0.9400,0.5410,1.0030,2.7060,0,0.0000,0.0000,0.0000,0.0000,0.0000,0
3199,1.3073,1.4179,0.0090,0.0134,0.0680,-0.0123,-0.65,-0.07,-4.01,0,4.091,-0.063,-0.235,-0.080,-0.000,-0.014,1.001,0.000,0.000,0.000,0.0120,10,-1,0.00,0.00,0.00,0.0000,0.0000,0.0000,0.0000,0.0000,0.0000,0.0000,0.00,0.00,0.00,1.4570,0.9400,0.5420,1.0030,2.7060,0,0.0000,0.0000,0.0000,0.0000,0.0000,0
3249,1.3068,1.4121,0.0102,0.0090,0.0236,-0.0024,-0.56,-0.02,-3.99,0,4.091,0.062,-0.287,0.009,-0.001,-0.014,1.000,0.000,0.000,0.000,0.0120,-4,-1,0.00,0.00,0.00,0.0000,0.0000,0.0000,0.0000,0.0000,0.0000,0.0000,0.00,0.00,0.00,1.4460,0.9360,0.5420,1.0030,2.7140,0,0.0000,0.0000,0.0000,0.0000,0.0000,0
3301,1.3072,1.4142,0.0110,0.0095,0.0257,0.0017,-0.45,-0.10,-3.97,0,4.091,-0.041,-0.011,0.335,0.000,-0.012,0.999,0.000,0.000,0.000,0.0110,-4,7,0.00,0.00,0.00,0.0000,0.0000,0.0000,0.0000,0.0000,0.0000,0.0000,0.00,0.00,0.00,1.4460,0.9360,0.5430,1.0030,2.7140,0,0.0000,0.0000,0.0000,0.0000,0.0000,0
3352,1.3055,1.4140,0.0111,-0.0013,0.0166,0.0020,-0.39,-0.05,-3.95,0,4.096,-0.003,-0.072,0.516,-0.003,-0.012,0.998,0.000,0.000,0.000,0.0100,1,-6,0.00,0.00,0.00,0.0000,0.0000,0.0000,0.0000,0.0000,0.0000,0.0000,0.00,0.00,0.00,1.4550,0.9370,0.5430,1.0030,2.6940,0,0.0000,0.0000,0.0000,0.0000,0.0000,0
3403,1.3059,1.4135,0.0107,0.0006,0.0097,-0.0005,-0.41,-0.02,-3.93,0,4.091,0.251,0.004,-0.207,-0.001,-0.013,1.000,0.000,0.000,0.000,0.0110,2,-1,0.00,0.00,0.00,0.0000,0.0000,0.0000,0.0000,0.0000,0.0000,0.0000,0.00,0.00,0.00,1.4550,0.9370,0.5420,1.0010,2.6940,0,0.0000,0.0000,0.0000,0.0000,0.0000,0
3453,1.3063,1.4130,0.0108,0.0019,0.0026,0.0002,-0.35,-0.05,-3.91,0,4.096,-0.064,-0.012,0.080,0.000,-0.015,1.000,0.000,0.000,0.000,0.0140,-48,11,0.00,0.00,0.00,0.0000,0.0000,0.0000,0.0000,0.0000,0.0000,0.0000,0.00,0.00,0.00,1.4670,0.9470,0.5420,1.0010,2.7130,0,0.0000,0.0000,0.0000,0.0000,0.0000,0
3505,1.3046,1.4243,0.0122,-0.0084,0.0595,0.0061,-0.80,0.04,-3.88,0,4.091,-0.173,0.001,0.129,-0.000,-0.013,0.999,0.000,0.000,0.000,0.0110,2,-3,0.00,0.00,0.00,0.0000,0.0000,0.0000,0.0000,0.0000,0.0000,0.0000,0.00,0.00,0.00,1.4670,0.9470,0.5400,1.0030,2.7130,0,0.0000,0.0000,0.0000,0.0000,0.0000,0
3557,1.3048,1.4253,0.0119,-0.0062,0.0533,0.0035,-0.72,-0.01,-3.87,0,4.096,-0.013,-0.011,0.026,-0.002,-0.016,0.999,0.000,0.000,0.000,0.0120,-5,-4,0.00,0.00,0.00,0.0000,0.0000,0.0000,0.0000,0.0000,0.0000,0.0000,0.00,0.00,0.00,1.4610,0.9380,0.5400,1.0030,2.7090,0,0.0000,0.0000,0.0000,0.0000,0.0000,0
3608,1.3046,1.4252,0.0123,-0.0061,0.0382,0.0042,-0.60,0.01,-3.84,0,4.091,0.076,0.136,-0.133,-0.001,-0.013,1.003,0.000,0.000,0.000,0.0120,5,4,0.00,0.00,0.00,0.0000,0.0000,0.0000,0.0000,0.0000,0.0000,0.0000,0.00,0.00,0.00,1.4610,0.9380,0.5420,0.9990,2.7090,0,0.0000,0.0000,0.0000,0.0000,0.0000,0
3659,1.3053,1.4245,0.0123,-0.0009,0.0273,0.0038,-0.59,-0.01,-3.83,0,4.096,-0.116,0.059,-0.139,-0.001,-0.014,0.999,0.000,0.000,0.000,0.0090,1,-2,0.00,0.00,0.00,0.0000,0.0000,0.0000,0.0000,0.0000,0.0000,0.0000,0.00,0.00,0.00,1.4560,0.9370,0.5420,0.9990,2.7010,0,0.0000,0.0000,0.0000,0.0000,0.0000,0
3709,1.3049,1.4234,0.0111,-0.0026,0.0128,-0.0034,-0.52,-0.06,-3.81,0,4.091,0.062,0.068,0.034,-0.001,-0.013,1.000,0.000,0.000,0.000,0.0110,2,-2,0.00,0.00,0.00,0.0000,0.0000,0.0000,0.0000,0.0000,0.0000,0.0000,0.00,0.00,0.00,1.4560,0.9370,0.5430,1.0010,2.7010,0,0.0000,0.0000,0.0000,0.0000,0.0000,0
3761,1.3041,1.4237,0.0110,-0.0068,0.0077,-0.0032,-0.44,-0.03,-3.79,0,4.096,-0.169,0.167,0.085,-0.002,-0.013,0.999,0.000,0.000,0.000,0.0110,-15,-3,0.00,0.00,0.00,0.0000,0.0000,0.0000,0.0000,0.0000,0.0000,0.0000,0.00,0.00,0.00,1.4680,0.9480,0.5430,1.0010,2.7080,0,0.0000,0.0000,0.0000,0.0000,0.0000,0
3811,1.3052,1.4265,0.0109,0.0011,0.0196,-0.0026,-0.44,-0.05,-3.77,0,4.091,-0.062,0.157,0.063,-0.001,-0.012,1.000,0.000,0.000,0.000,0.0100,-2,-4,0.00,0.00,0.00,0.0000,0.0000,0.0000,0.0000,0.0000,0.0000,0.0000,0.00,0.00,0.00,1.4680,0.9480,0.5440,0.9990,2.7080,0,0.0000,0.0000,0.0000,0.0000,0.0000,0
3863,0.0000,0.0000,0.0100,0.0012,0.0118,0.0000,0.04,-0.02,0.00,0,4.096,0.127,-0.040,0.037,-0.001,-0.015,1.000,0.000,0.000,0.000,0.0130,8,-3,0.00,0.00,0.00,0.0000,0.0000,0.0000,0.0000,0.0000,0.0000,0.0000,0.00,0.00,0.00,1.4570,0.9360,0.5440,0.9990,2.7140,0,0.0000,0.0000,0.0000,0.0000,0.0000,0
3914,0.0002,-0.0002,0.0116,0.0038,-0.0084,0.0012,-0.13,0.26,0.01,0,4.091,-0.041,0.096,-0.286,0.001,-0.012,1.002,0.000,0.000,0.000,0.0110,-3,-3,0.00,0.00,0.00,0.0000,0.0000,0.0000,0.0000,0.0000,0.0000,0.0000,0.00,0.00,0.00,1.4570,0.9360,0.5430,1.0030,2.7140,0,0.0000,0.0000,0.0000,0.0000,0.0000,0
3965,0.0004,-0.0002,0.0114,0.0054,-0.0096,-0.0001,-0.09,0.32,0.00,0,4.096,-0.037,-0.191,0.125,-0.000,-0.012,1.001,0.000,0.000,0.000,0.0120,4,-2,0.00,0.00,0.00,0.0000,0.0000,0.0000,0.0000,0.0000,0.0000,0.0000,0.00,0.00,0.00,1.4480,0.9360,0.5430,1.0030,2.7090,0,0.0000,0.0000,0.0000,0.0000,0.0000,0
4016,0.0006,-0.0002,0.0117,0.0054,-0.0082,0.0017,-0.39,0.06,0.01,0,4.091,0.135,0.033,0.212,-0.001,-0.014,1.000,0.000,0.000,0.000,0.0140,-2,-2,0.00,0.00,0.00,0.0000,0.0000,0.0000,0.0000,0.0000,0.0000,0.0000,0.00,0.00,0.00,1.4480,0.9360,0.5430,0.9970,2.7090,0,0.0000,0.0000,0.0000,0.0000,0.0000,0
4067,0.0014,0.0056,0.0127,0.0120,0.0514,0.0051,-1.29,0.05,0.01,0,4.091,-0.161,-0.154,0.117,-0.003,-0.015,0.998,0.000,0.000,0.000,0.0090,-12,-6,0.00,0.00,0.00,0.0000,0.0000,0.0000,0.0000,0.0000,0.0000,0.0000,0.00,0.00,0.00,1.4510,0.9450,0.5430,0.9970,2.7000,0,0.0000,0.0000,0.0000,0.0000,0.0000,0
4118,0.0011,0.0099,0.0113,0.0070,0.0750,-0.0049,-1.96,-0.28,0.00,0,4.091,0.016,0.114,-0.028,-0.000,-0.011,1.000,0.000,0.000,0.000,0.0120,17,-1,0.00,0.00,0.00,0.0000,0.0000,0.0000,0.0000,0.0000,0.0000,0.0000,0.00,0.00,0.00,1.4510,0.9450,0.5450,1.0030,2.7000,0,0.0000,0.0000,0.0000,0.0000,0.0000,0
4169,0.0009,0.0138,0.0116,0.0027,0.0849,-0.0024,-1.35,0.14,0.01,0,4.091,0.065,0.361,-0.081,-0.001,-0.013,0.999,0.000,0.000,0.000,0.0120,8,-8,0.00,0.00,0.00,0.0000,0.0000,0.0000,0.0000,0.0000,0.0000,0.0000,0.00,0.00,0.00,1.4440,0.9500,0.5450,1.0030,2.7070,0,0.0000,0.0000,0.0000,0.0000,0.0000,0
4220,0.0023,0.0080,0.0121,0.0134,0.0243,0.0013,0.05,-0.07,0.01,0,4.091,-0.093,0.054,0.099,-0.001,-0.015,0.996,0.000,0.000,0.000,0.0090,-4,-2,0.00,0.00,0.00,0.0000,0.0000,0.0000,0.0000,0.0000,0.0000,0.0000,0.00,0.00,0.00,1.4440,0.9500,0.5410,0.9950,2.7070,0,0.0000,0.0000,0.0000,0.0000,0.0000,0
4271,0.0016,0.0001,0.0109,0.0062,-0.0334,-0.0065,0.04,-0.12,0.02,0,4.096,0.206,-0.137,-0.267,-0.001,-0.012,1.000,0.000,0.000,0.000,0.0110,8,-4,0.00,0.00,0.00,0.0000,0.0000,0.0000,0.0000,0.0000,0.0000,0.0000,0.00,0.00,0.00,1.4680,0.9360,0.5410,0.9950,2.7030,0,0.0000,0.0000,0.0000,0.0000,0.0000,0
4322,0.0012,0.0012,0.0109,0.0028,-0.0227,-0.0050,-0.22,0.09,0.01,0,4.086,-0.028,-0.043,0.164,-0.003,-0.013,1.001,0.000,0.000,0.000,0.0130,-1,0,0.00,0.00,0.00,0.0000,0.0000,0.0000,0.0000,0.0000,0.0000,0.0000,0.00,0.00,0.00,1.4680,0.9360,0.5410,1.0000,2.7030,0,0.0000,0.0000,0.0000,0.0000,0.0000,0
4373,0.0002,0.0038,0.0117,-0.0033,-0.0044,0.0012,-0.39,0.09,0.01,0,4.091,-0.111,0.215,-0.140,0.000,-0.013,1.000,0.000,0.000,0.000,0.0090,-21,0,0.00,0.00,0.00,0.0000,0.0000,0.0000,0.0000,0.0000,0.0000,0.0000,0.00,0.00,0.00,1.4460,0.9410,0.5410,1.0000,2.7010,0,0.0000,0.0000,0.0000,0.0000,0.0000,0
4424,-0.0000,0.0080,0.0107,-0.0035,0.0209,-0.0042,-0.74,0.06,0.01,0,4.091,-0.011,-0.140,0.029,-0.003,-0.014,1.001,0.000,0.000,0.000,0.0100,10,0,0.00,0.00,0.00,0.0000,0.0000,0.0000,0.0000,0.0000,0.0000,0.0000,0.00,0.00,0.00,1.4460,0.9410,0.5430,1.0000,2.7010,0,0.0000,0.0000,0.0000,0.0000,0.0000,0
4475,0.0012,0.0131,0.0105,0.0041,0.0439,-0.0050,-1.30,-0.15,0.02,0,4.091,-0.008,0.008,0.265,-0.002,-0.013,1.002,0.000,0.000,0.000,0.0110,13,-4,0.00,0.00,0.00,0.0000,0.0000,0.0000,0.0000,0.0000,0.0000,0.0000,0.00,0.00,0.00,1.4660,0.9320,0.5430,1.0000,2.6980,0,0.0000,0.0000,0.0000,0.0000,0.0000,0
4526,0.0020,0.0158,0.0107,0.0073,0.0467,-0.0027,-1.11,-0.13,0.02,0,4.091,-0.037,0.134,-0.190,-0.003,-0.012,1.001,0.000,0.000,0.000,0.0100,0,-2,0.00,0.00,0.00,0.0000,0.0000,0.0000,0.0000,0.0000,0.0000,0.0000,0.00,0.00,0.00,1.4660,0.9320,0.5390,0.9970,2.6980,0,0.0000,0.0000,0.0000,0.0000,0.0000,0
4576,0.0036,0.0136,0.0105,0.0147,0.0249,-0.0022,-0.88,-0.14,0.02,0,4.091,-0.121,-0.112,0.493,0.000,-0.013,0.998,0.000,0.000,0.000,0.0110,6,-5,0.00,0.00,0.00,0.0000,0.0000,0.0000,0.0000,0.0000,0.0000,0.0000,0.00,0.00,0.00,1.4750,0.9400,0.5390,0.9970,2.6970,0,0.0000,0.0000,0.0000,0.0000,0.0000,0
4627,0.0029,0.0137,0.0107,0.0085,0.0188,-0.0007,-0.77,-0.08,0.03,0,4.091,-0.005,0.333,-0.303,-0.002,-0.013,0.998,0.000,0.000,0.000,0.0100,-3,-2,0.00,0.00,0.00,0.0000,0.0000,0.0000,0.0000,0.0000,0.0000,0.0000,0.00,0.00,0.00,1.4750,0.9400,0.5430,1.0010,2.6970,0,0.0000,0.0000,0.0000,0.0000,0.0000,0
4679,0.0039,0.0211,0.0103,0.0119,0.0525,-0.0032,-1.04,-0.12,0.02,0,4.086,0.280,-0.043,-0.122,0.000,-0.013,0.999,0.000,0.000,0.000,0.0130,-9,0,0.00,0.00,0.00,0.0000,0.0000,0.0000,0.0000,0.0000,0.0000,0.0000,0.00,0.00,0.00,1.4350,0.9370,0.5430,1.0010,2.7050,0,0.0000,0.0000,0.0000,0.0000,0.0000,0
4729,0.0034,0.0215,0.0114,0.0070,0.0451,0.0037,-0.85,-0.09,0.03,0,4.086,-0.011,-0.236,0.033,0.001,-0.013,0.999,0.000,0.000,0.000,0.0110,-26,4,0.00,0.00,0.00,0.0000,0.0000,0.0000,0.0000,0.0000,0.0000,0.0000,0.00,0.00,0.00,1.4350,0.9370,0.5420,1.0010,2.7050,0,0.0000,0.0000,0.0000,0.0000,0.0000,0
4780,0.0036,0.0272,0.0113,0.0069,0.0670,0.0018,-1.23,-0.05,0.02,0,4.091,-0.068,-0.122,-0.041,-0.000,-0.012,1.002,0.000,0.000,0.000,0.0070,18,1,0.00,0.00,0.00,0.0000,0.0000,0.0000,0.0000,0.0000,0.0000,0.0000,0.00,0.00,0.00,1.4480,0.9380,0.5420,1.0010,2.7030,0,0.0000,0.0000,0.0000,0.0000,0.0000,0
4832,0.0031,0.0248,0.0099,0.0037,0.0397,-0.0049,-0.85,-0.02,0.03,0,4.086,-0.101,-0.251,-0.066,-0.001,-0.013,0.998,0.000,0.000,0.000,0.0100,-9,6,0.00,0.00,0.00,0.0000,0.0000,0.0000,0.0000,0.0000,0.0000,0.0000,0.00,0.00,0.00,1.4480,0.9380,0.5400,1.0010,2.7030,0,0.0000,0.0000,0.0000,0.0000,0.0000,0
4883,0.0022,0.0256,0.0099,-0.0012,0.0347,-0.0038,-0.80,-0.01,0.03,0,4.086,-0.075,-0.127,-0.109,-0.003,-0.015,0.999,0.000,0.000,0.000,0.0090,4,-3,0.00,0.00,0.00,0.0000,0.0000,0.0000,0.0000,0.0000,0.0000,0.0000,0.00,0.00,0.00,1.4500,0.9340,0.5400,1.0010,2.7050,0,0.0000,0.0000,0.0000,0.0000,0.0000,0
4934,0.0027,0.0237,0.0094,0.0014,0.0169,-0.0052,-0.71,-0.03,0.03,0,4.086,0.266,-0.064,-0.095,-0.002,-0.012,1.000,0.000,0.000,0.000,0.0120,1,0,0.00,0.00,0.00,0.0000,0.0000,0.0000,0.0000,0.0000,0.0000,0.0000,0.00,0.00,0.00,1.4500,0.9340,0.5390,1.0030,2.7050,0,0.0000,0.0000,0.0000,0.0000,0.0000,0
4985,0.0033,0.0347,0.0102,0.0045,0.0656,-0.0004,-1.20,-0.08,0.03,0,4.096,0.072,-0.155,-0.095,-0.001,-0.013,0.999,0.000,0.000,0.000,0.0110,0,-3,0.00,0.00,0.00,0.0000,0.0000,0.0000,0.0000,0.0000,0.0000,0.0000,0.00,0.00,0.00,1.4500,0.9480,0.5390,1.0030,2.7100,0,0.0000,0.0000,0.0000,0.0000,0.0000,0
5036,0.0046,0.0384,0.0106,0.0098,0.0691,0.0017,-1.02,-0.03,0.02,0,4.091,0.048,0.002,-0.020,-0.001,-0.014,1.000,0.000,0.000,0.000,0.0130,3,5,0.00,0.00,0.00,0.0000,0.0000,0.0000,0.0000,0.0000,0.0000,0.0000,0.00,0.00,0.00,1.4500,0.9480,0.5400,1.0030,2.7100,0,0.0000,0.0000,0.0000,0.0000,0.0000,0
5087,0.0035,0.0381,0.0119,0.0026,0.0520,0.0082,-0.87,-0.09,0.03,0,4.091,0.224,-0.276,-0.237,0.002,-0.013,0.999,0.000,0.000,0.000,0.0110,-2,-6,0.00,0.00,0.00,0.0000,0.0000,0.0000,0.0000,0.0000,0.0000,0.0000,0.00,0.00,0.00,1.4570,0.9260,0.5400,1.0030,2.7040,0,0.0000,0.0000,0.0000,0.0000,0.0000,0
5139,0.0046,0.0383,0.0119,0.0076,0.0412,0.0062,-0.79,-0.04,0.03,0,4.086,-0.010,0.096,-0.011,-0.001,-0.012,1.000,0.000,0.000,0.000,0.0110,3,-1,0.00,0.00,0.00,0.0000,0.0000,0.0000,0.0000,0.0000,0.0000,0.0000,0.00,0.00,0.00,1.4570,0.9260,0.5410,1.0030,2.7040,0,0.0000,0.0000,0.0000,0.0000,0.0000,0
5190,0.0048,0.0382,0.0117,0.0077,0.0305,0.0043,-0.69,-0.08,0.03,0,4.096,-0.141,-0.051,-0.236,-0.000,-0.013,1.000,0.000,0.000,0.000,0.0120,3,0,0.00,0.00,0.00,0.0000,0.0000,0.0000,0.0000,0.0000,0.0000,0.0000,0.00,0.00,0.00,1.4630,0.9350,0.5410,1.0030,2.7070,0,0.0000,0.0000,0.0000,0.0000,0.0000,0
5240,0.0046,0.0381,0.0120,0.0054,0.0224,0.0051,-0.62,0.02,0.03,0,4.086,-0.198,-0.078,0.018,-0.003,-0.015,1.003,0.000,0.000,0.000,0.0070,14,0,0.00,0.00,0.00,0.0000,0.0000,0.0000,0.0000,0.0000,0.0000,0.0000,0.00,0.00,0.00,1.4630,0.9350,0.5390,1.0030,2.7070,0,0.0000,0.0000,0.0000,0.0000,0.0000,0
5292,0.0046,0.0363,0.0101,0.0049,0.0055,-0.0061,-0.50,-0.02,0.03,0,4.096,0.140,0.078,0.120,-0.002,-0.015,0.997,0.000,0.000,0.000,0.0130,5,0,0.00,0.00,0.00,0.0000,0.0000,0.0000,0.0000,0.0000,0.0000,0.0000,0.00,0.00,0.00,1.4430,0.9390,0.5390,1.0030,2.7060,0,0.0000,0.0000,0.0000,0.0000,0.0000,0
5343,0.0056,0.0374,0.0111,0.0095,0.0069,-0.0001,-0.54,-0.08,0.03,0,4.086,-0.063,0.143,0.145,-0.000,-0.014,1.000,0.000,0.000,0.000,0.0090,-5,0,0.00,0.00,0.00,0.0000,0.0000,0.0000,0.0000,0.0000,0.0000,0.0000,0.00,0.00,0.00,1.4430,0.9390,0.5400,1.0000,2.7060,0,0.0000,0.0000,0.0000,0.0000,0.0000,0
5394,0.0058,0.0399,0.0102,0.0093,0.0164,-0.0050,-0.53,-0.04,0.03,0,4.096,0.150,-0.142,-0.059,-0.002,-0.013,0.999,0.000,0.000,0.000,0.0110,4,8,0.00,0.00,0.00,0.0000,0.0000,0.0000,0.0000,0.0000,0.0000,0.0000,0.00,0.00,0.00,1.4480,0.9380,0.5400,1.0000,2.7010,0,0.0000,0.0000,0.0000,0.0000,0.0000,0
5445,0.0057,0.0387,0.0104,0.0068,0.0057,-0.0029,-0.52,-0.04,0.03,0,4.091,0.031,-0.364,-0.267,0.000,-0.012,1.000,0.000,0.000,0.000,0.0090,-21,-3,0.00,0.00,0.00,0.0000,0.0000,0.0000,0.0000,0.0000,0.0000,0.0000,0.00,0.00,0.00,1.4480,0.9380,0.5430,0.9920,2.7010,0,0.0000,0.0000,0.0000,0.0000,0.0000,0
5496,0.0054,0.0446,0.0097,0.0047,0.0350,-0.0065,-0.89,0.01,0.03,0,4.096,-0.006,-0.022,-0.014,-0.004,-0.014,0.999,0.000,0.000,0.000,0.0100,-37,-3,0.00,0.00,0.00,0.0000,0.0000,0.0000,0.0000,0.0000,0.0000,0.0000,0.00,0.00,0.00,1.4430,0.9460,0.5430,0.9920,2.7040,0,0.0000,0.0000,0.0000,0.0000,0.0000,0
5547,0.0043,0.0548,0.0093,-0.0012,0.0792,-0.0078,-1.11,0.03,0.03,0,4.091,-0.028,0.210,-0.363,-0.002,-0.013,1.003,0.000,0.000,0.000,0.0090,0,-9,0.00,0.00,0.00,0.0000,0.0000,0.0000,0.0000,0.0000,0.0000,0.0000,0.00,0.00,0.00,1.4430,0.9460,0.5430,1.0010,2.7040,0,0.0000,0.0000,0.0000,0.0000,0.0000,0
5598,0.0054,0.0558,0.0092,0.0047,0.0671,-0.0061,-0.96,0.01,0.03,0,4.096,-0.081,0.056,0.072,-0.000,-0.016,1.000,0.000,0.000,0.000,0.0110,8,-1,0.00,0.00,0.00,0.0000,0.0000,0.0000,0.0000,0.0000,0.0000,0.0000,0.00,0.00,0.00,1.4580,0.9390,0.5430,1.0010,2.7120,0,0.0000,0.0000,0.0000,0.0000,0.0000,0
5648,0.0037,0.0539,0.0100,-0.0039,0.0423,-0.0001,-0.83,0.01,0.03,0,4.091,0.161,0.000,-0.045,-0.003,-0.015,0.998,0.000,0.000,0.000,0.0100,1,-3,0.00,0.00,0.00,0.0000,0.0000,0.0000,0.0000,0.0000,0.0000,0.0000,0.00,0.00,0.00,1.4580,0.9390,0.5440,0.9960,2.7120,0,0.0000,0.0000,0.0000,0.0000,0.0000,0
5700,0.0049,0.0558,0.0100,0.0035,0.0407,-0.0001,-0.73,0.01,0.03,0,4.096,0.172,-0.074,0.011,0.000,-0.013,1.000,0.000,0.000,0.000,0.0110,7,1,0.00,0.00,0.00,0.0000,0.0000,0.0000,0.0000,0.0000,0.0000,0.0000,0.00,0.00,0.00,1.4670,0.9390,0.5440,0.9960,2.7070,0,0.0000,0.0000,0.0000,0.0000,0.0000,0
5751,0.0043,0.0536,0.0105,-0.0001,0.0197,0.0026,-0.65,0.01,0.03,0,4.091,-0.011,-0.272,0.092,-0.002,-0.012,1.000,0.000,0.000,0.000,0.0100,17,3,0.00,0.00,0.00,0.0000,0.0000,0.0000,0.0000,0.0000,0.0000,0.0000,0.00,0.00,0.00,1.4670,0.9390,0.5390,1.0000,2.7070,0,0.0000,0.0000,0.0000,0.0000,0.0000,0
5803,0.0047,0.0519,0.0104,0.0023,0.0026,0.0014,-0.51,-0.01,0.03,0,4.096,0.020,-0.050,0.054,-0.002,-0.014,1.001,0.000,0.000,0.000,0.0110,10,-6,0.00,0.00,0.00,0.0000,0.0000,0.0000,0.0000,0.0000,0.0000,0.0000,0.00,0.00,0.00,1.4640,0.9350,0.5390,1.0000,2.7000,0,0.0000,0.0000,0.0000,0.0000,0.0000,0
5854,0.0043,0.0541,0.0107,-0.0004,0.0103,0.0025,-0.48,-0.05,0.03,0,4.086,-0.002,0.208,-0.100,0.000,-0.015,0.999,0.000,0.000,0.000,0.0090,-12,0,0.00,0.00,0.00,0.0000,0.0000,0.0000,0.0000,0.0000,0.0000,0.0000,0.00,0.00,0.00,1.4640,0.9350,0.5380,1.0000,2.7000,0,0.0000,0.0000,0.0000,0.0000,0.0000,0
5905,0.0054,0.0564,0.0101,0.0046,0.0197,-0.0013,-0.56,-0.07,0.03,0,4.096,0.150,-0.040,-0.261,-0.002,-0.014,1.000,0.000,0.000,0.000,0.0110,4,-1,0.00,0.00,0.00,0.0000,0.0000,0.0000,0.0000,0.0000,0.0000,0.0000,0.00,0.00,0.00,1.4680,0.9460,0.5380,1.0000,2.7040,0,0.0000,0.0000,0.0000,0.0000,0.0000,0
5956,0.0054,0.0543,0.0105,0.0042,0.0035,0.0011,-0.54,-0.07,0.02,0,4.091,-0.089,-0.182,-0.007,0.001,-0.014,1.000,0.000,0.000,0.000,0.0100,21,4,0.00,0.00,0.00,0.0000,0.0000,0.0000,0.0000,0.0000,0.0000,0.0000,0.00,0.00,0.00,1.4680,0.9460,0.5440,1.0020,2.7040,0,0.0000,0.0000,0.0000,0.0000,0.0000,0
6007,0.0058,0.0541,0.0105,0.0054,-0.0018,0.0011,-0.68,-0.06,0.02,0,4.096,-0.259,-0.360,0.344,-0.002,-0.012,1.000,0.000,0.000,0.000,0.0100,-6,4,0.00,0.00,0.00,0.0000,0.0000,0.0000,0.0000,0.0000,0.0000,0.0000,0.00,0.00,0.00,1.4630,0.9420,0.5440,1.0020,2.7000,0,0.0000,0.0000,0.0000,0.0000,0.0000,0
6058,0.0047,0.0591,0.0103,-0.0013,0.0209,-0.0000,-0.65,-0.02,0.03,0,4.091,0.260,0.129,0.085,-0.001,-0.011,0.999,0.000,0.000,0.000,0.0100,-9,-8,0.00,0.00,0.00,0.0000,0.0000,0.0000,0.0000,0.0000,0.0000,0.0000,0.00,0.00,0.00,1.4630,0.9420,0.5390,1.0010,2.7000,0,0.0000,0.0000,0.0000,0.0000,0.0000,0
6109,0.0065,0.0597,0.0102,0.0077,0.0193,-0.0003,-0.57,-0.07,0.03,0,4.096,-0.200,-0.202,0.048,-0.001,-0.014,1.001,0.000,0.000,0.000,0.0120,0,-7,0.00,0.00,0.00,0.0000,0.0000,0.0000,0.0000,0.0000,0.0000,0.0000,0.00,0.00,0.00,1.4510,0.9420,0.5390,1.0010,2.7110,0,0.0000,0.0000,0.0000,0.0000,0.0000,0
6160,0.0050,0.0597,0.0110,-0.0010,0.0144,0.0039,-0.53,-0.10,0.03,0,4.086,-0.153,0.076,0.036,-0.001,-0.012,1.002,0.000,0.000,0.000,0.0110,-1,0,0.00,0.00,0.00,0.0000,0.0000,0.0000,0.0000,0.0000,0.0000,0.0000,0.00,0.00,0.00,1.4510,0.9420,0.5410,0.9970,2.7110,0,0.0000,0.0000,0.0000,0.0000,0.0000,0
6211,0.0056,0.0578,0.0112,0.0022,0.0009,0.0039,-0.53,-0.10,0.03,0,4.096,0.031,-0.052,-0.145,-0.002,-0.012,0.996,0.000,0.000,0.000,0.0090,1,0,0.00,0.00,0.00,0.0000,0.0000,0.0000,0.0000,0.0000,0.0000,0.0000,0.00,0.00,0.00,1.4620,0.9300,0.5410,0.9970,2.7110,0,0.0000,0.0000,0.0000,0.0000,0.0000,0
6263,0.0058,0.0592,0.0104,0.0023,0.0067,-0.0014,-0.52,-0.04,0.03,0,4.086,0.269,-0.004,-0.031,-0.001,-0.012,0.998,0.000,0.000,0.000,0.0110,-6,-1,0.00,0.00,0.00,0.0000,0.0000,0.0000,0.0000,0.0000,0.0000,0.0000,0.00,0.00,0.00,1.4620,0.9300,0.5430,1.0010,2.7110,0,0.0000,0.0000,0.0000,0.0000,0.0000,0
6315,0.0052,0.0597,0.0107,-0.0014,0.0076,0.0001,-0.59,-0.00,0.03,0,4.091,-0.051,0.125,0.187,0.001,-0.014,0.998,0.000,0.000,0.000,0.0090,1,0,0.00,0.00,0.00,0.0000,0.0000,0.0000,0.0000,0.0000,0.0000,0.0000,0.00,0.00,0.00,1.4600,0.9420,0.5430,1.0010,2.7110,0,0.0000,0.0000,0.0000,0.0000,0.0000,0
6366,0.0056,0.0578,0.0100,0.0013,-0.0054,-0.0039,-0.56,-0.01,0.03,0,4.086,-0.048,-0.047,-0.310,-0.001,-0.013,1.000,0.000,0.000,0.000,0.0110,0,-1,0.00,0.00,0.00,0.0000,0.0000,0.0000,0.0000,0.0000,0.0000,0.0000,0.00,0.00,0.00,1.4600,0.9420,0.5430,0.9960,2.7110,0,0.0000,0.0000,0.0000,0.0000,0.0000,0
6417,0.0056,0.0591,0.0103,0.0018,0.0004,-0.0006,-0.53,-0.02,0.03,0,4.096,0.172,0.007,0.154,-0.001,-0.011,0.999,0.000,0.000,0.000,0.0070,-3,0,0.00,0.00,0.00,0.0000,0.0000,0.0000,0.0000,0.0000,0.0000,0.0000,0.00,0.00,0.00,1.4540,0.9470,0.5430,0.9960,2.7000,0,0.0000,0.0000,0.0000,0.0000,0.0000,0
6468,0.0049,0.0598,0.0089,-0.0013,0.0037,-0.0075,-0.49,-0.04,0.03,0,4.086,-0.248,-0.105,0.430,0.001,-0.013,0.999,0.000,0.000,0.000,0.0090,17,4,0.00,0.00,0.00,0.0000,0.0000,0.0000,0.0000,0.0000,0.0000,0.0000,0.00,0.00,0.00,1.4540,0.9470,0.5420,0.9980,2.7000,0,0.0000,0.0000,0.0000,0.0000,0.0000,0
6519,0.0056,0.0563,0.0088,0.0028,-0.0160,-0.0067,-0.58,-0.00,0.03,0,4.096,0.028,-0.070,0.102,-0.001,-0.013,0.999,0.000,0.000,0.000,0.0090,7,-3,0.00,0.00,0.00,0.0000,0.0000,0.0000,0.0000,0.0000,0.0000,0.0000,0.00,0.00,0.00,1.4700,0.9480,0.5420,0.9980,2.6970,0,0.0000,0.0000,0.0000,0.0000,0.0000,0
6570,0.0054,0.0575,0.0087,0.0016,-0.0105,-0.0055,-0.58,-0.01,0.03,0,4.086,-0.006,-0.079,0.026,-0.000,-0.015,1.003,0.000,0.000,0.000,0.0140,4,0,0.00,0.00,0.00,0.0000,0.0000,0.0000,0.0000,0.0000,0.0000,0.0000,0.00,0.00,0.00,1.4700,0.9480,0.5400,1.0010,2.6970,0,0.0000,0.0000,0.0000,0.0000,0.0000,0
6621,0.0047,0.0589,0.0109,-0.0024,-0.0045,0.0083,-0.46,-0.08,0.02,0,4.091,-0.047,-0.024,0.045,-0.003,-0.013,1.000,0.000,0.000,0.000,0.0090,1,0,0.00,0.00,0.00,0.0000,0.0000,0.0000,0.0000,0.0000,0.0000,0.0000,0.00,0.00,0.00,1.4490,0.9400,0.5400,1.0010,2.6980,0,0.0000,0.0000,0.0000,0.0000,0.0000,0
6672,0.0047,0.0588,0.0104,-0.0033,-0.0047,0.0037,-0.59,-0.02,0.02,0,4.086,0.120,0.188,-0.029,0.001,-0.013,1.000,0.000,0.000,0.000,0.0130,-1,-4,0.00,0.00,0.00,0.0000,0.0000,0.0000,0.0000,0.0000,0.0000,0.0000,0.00,0.00,0.00,1.4490,0.9400,0.5360,1.0030,2.6980,0,0.0000,0.0000,0.0000,0.0000,0.0000,0
6723,0.0058,0.0585,0.0117,0.0033,-0.0069,0.0094,-0.60,-0.01,0.02,0,4.096,0.019,0.001,-0.372,-0.000,-0.014,1.001,0.000,0.000,0.000,0.0110,13,0,0.00,0.00,0.00,0.0000,0.0000,0.0000,0.0000,0.0000,0.0000,0.0000,0.00,0.00,0.00,1.4540,0.9430,0.5360,1.0030,2.7080,0,0.0000,0.0000,0.0000,0.0000,0.0000,0
6774,0.0049,0.0581,0.0118,-0.0013,-0.0095,0.0072,-0.54,-0.02,0.02,0,4.086,-0.009,0.007,-0.354,-0.002,-0.015,1.001,0.000,0.000,0.000,0.0100,5,-9,0.00,0.00,0.00,0.0000,0.0000,0.0000,0.0000,0.0000,0.0000,0.0000,0.00,0.00,0.00,1.4540,0.9430,0.5410,0.9990,2.7080,0,0.0000,0.0000,0.0000,0.0000,0.0000,0
6825,0.0067,0.0583,0.0113,0.0078,-0.0089,0.0027,-0.58,-0.04,0.02,0,4.096,-0.037,0.069,0.319,-0.001,-0.015,1.001,0.000,0.000,0.000,0.0120,-4,3,0.00,0.00,0.00,0.0000,0.0000,0.0000,0.0000,0.0000,0.0000,0.0000,0.00,0.00,0.00,1.4470,0.9360,0.5410,0.9990,2.7030,0,0.0000,0.0000,0.0000,0.0000,0.0000,0
6876,0.0047,0.0598,0.0117,-0.0034,-0.0009,0.0048,-0.55,-0.04,0.02,0,4.086,-0.023,0.003,-0.115,-0.000,-0.013,1.002,0.000,0.000,0.000,0.0090,2,-4,0.00,0.00,0.00,0.0000,0.0000,0.0000,0.0000,0.0000,0.0000,0.0000,0.00,0.00,0.00,1.4470,0.9360,0.5450,0.9970,2.7030,0,0.0000,0.0000,0.0000,0.0000,0.0000,0
6927,0.0067,0.0577,0.0107,0.0067,-0.0115,-0.0013,-0.65,-0.01,0.03,0,4.091,-0.074,0.089,-0.322,-0.002,-0.013,0.999,0.000,0.000,0.000,0.0110,1,-2,0.00,0.00,0.00,0.0000,0.0000,0.0000,0.0000,0.0000,0.0000,0.0000,0.00,0.00,0.00,1.4510,0.9420,0.5450,0.9970,2.7060,0,0.0000,0.0000,0.0000,0.0000,0.0000,0
6978,0.0054,0.0590,0.0109,-0.0006,-0.0044,-0.0007,-0.53,-0.08,0.02,0,4.091,0.043,-0.006,-0.382,-0.000,-0.013,1.001,0.000,0.000,0.000,0.0090,-2,-2,0.00,0.00,0.00,0.0000,0.0000,0.0000,0.0000,0.0000,0.0000,0.0000,0.00,0.00,0.00,1.4510,0.9420,0.5410,1.0010,2.7060,0,0.0000,0.0000,0.0000,0.0000,0.0000,0
7029,0.0052,0.0598,0.0101,-0.0020,0.0008,-0.0040,-0.66,-0.02,0.02,0,4.096,-0.119,-0.051,0.171,0.000,-0.011,1.000,0.000,0.000,0.000,0.0120,3,0,0.00,0.00,0.00,0.0000,0.0000,0.0000,0.0000,0.0000,0.0000,0.0000,0.00,0.00,0.00,1.4580,0.9390,0.5410,1.0010,2.7020,0,0.0000,0.0000,0.0000,0.0000,0.0000,0
7080,0.0048,0.0583,0.0108,-0.0041,-0.0078,0.0010,-0.57,-0.09,0.02,0,4.086,-0.237,0.026,0.060,-0.001,-0.015,1.003,0.000,0.000,0.000,0.0080,-1,1,0.00,0.00,0.00,0.0000,0.0000,0.0000,0.0000,0.0000,0.0000,0.0000,0.00,0.00,0.00,1.4580,0.9390,0.5450,1.0000,2.7020,0,0.0000,0.0000,0.0000,0.0000,0.0000,0
7131,0.0054,0.0589,0.0097,-0.0002,-0.0036,-0.0053,-0.58,-0.04,0.03,0,4.091,-0.104,0.089,0.089,0.002,-0.011,1.002,0.000,0.000,0.000,0.0120,4,3,0.00,0.00,0.00,0.0000,0.0000,0.0000,0.0000,0.0000,0.0000,0.0000,0.00,0.00,0.00,1.4560,0.9420,0.5450,1.0000,2.7000,0,0.0000,0.0000,0.0000,0.0000,0.0000,0
7182,0.0060,0.0541,0.0105,0.0031,-0.0275,0.0007,-0.50,-0.05,0.02,0,4.086,-0.005,0.181,0.097,-0.001,-0.011,0.999,0.000,0.000,0.000,0.0100,3,-2,0.00,0.00,0.00,0.0000,0.0000,0.0000,0.0000,0.0000,0.0000,0.0000,0.00,0.00,0.00,1.4560,0.9420,0.5380,0.9980,2.7000,0,0.0000,0.0000,0.0000,0.0000,0.0000,0
7233,0.0066,0.0551,0.0104,0.0056,-0.0179,-0.0007,-0.58,-0.07,0.02,0,4.091,-0.256,-0.010,-0.088,0.001,-0.014,1.000,0.000,0.000,0.000,0.0130,3,2,0.00,0.00,0.00,0.0000,0.0000,0.0000,0.0000,0.0000,0.0000,0.0000,0.00,0.00,0.00,1.4510,0.9430,0.5380,0.9980,2.7030,0,0.0000,0.0000,0.0000,0.0000,0.0000,0
7284,0.0062,0.0549,0.0115,0.0030,-0.0163,0.0051,-0.56,-0.07,0.02,0,4.086,0.492,0.062,-0.218,-0.002,-0.015,1.001,0.000,0.000,0.000,0.0110,-16,2,0.00,0.00,0.00,0.0000,0.0000,0.0000,0.0000,0.0000,0.0000,0.0000,0.00,0.00,0.00,1.4510,0.9430,0.5430,1.0030,2.7030,0,0.0000,0.0000,0.0000,0.0000,0.0000,0
7335,0.0063,0.0569,0.0116,0.0018,-0.0024,0.0047,-0.61,0.01,0.02,0,4.096,0.022,-0.067,0.205,0.001,-0.012,0.999,0.000,0.000,0.000,0.0100,-6,0,0.00,0.00,0.00,0.0000,0.0000,0.0000,0.0000,0.0000,0.0000,0.0000,0.00,0.00,0.00,1.4550,0.9460,0.5430,1.0030,2.7010,0,0.0000,0.0000,0.0000,0.0000,0.0000,0
7386,0.0050,0.0557,0.0111,-0.0043,-0.0069,0.0011,-0.66,-0.01,0.02,0,4.086,0.184,0.170,0.202,-0.002,-0.012,1.000,0.000,0.000,0.000,0.0110,-11,-2,0.00,0.00,0.00,0.0000,0.0000,0.0000,0.0000,0.0000,0.0000,0.0000,0.00,0.00,0.00,1.4550,0.9460,0.5400,1.0030,2.7010,0,0.0000,0.0000,0.0000,0.0000,0.0000,0
7437,0.0070,0.0603,0.0110,0.0068,0.0204,0.0011,-0.67,-0.12,0.02,0,4.091,-0.077,0.064,0.226,-0.001,-0.011,0.999,0.000,0.000,0.000,0.0130,-4,4,0.00,0.00,0.00,0.0000,0.0000,0.0000,0.0000,0.0000,0.0000,0.0000,0.00,0.00,0.00,1.4430,0.9330,0.5400,1.0030,2.7080,0,0.0000,0.0000,0.0000,0.0000,0.0000,0
7489,0.0078,0.0565,0.0120,0.0090,-0.0013,0.0059,-0.64,-0.10,0.03,0,4.086,-0.130,-0.070,-0.075,-0.000,-0.013,1.000,0.000,0.000,0.000,0.0090,-9,-2,0.00,0.00,0.00,0.0000,0.0000,0.0000,0.0000,0.0000,0.0000,0.0000,0.00,0.00,0.00,1.4430,0.9330,0.5430,1.0050,2.7080,0,0.0000,0.0000,0.0000,0.0000,0.0000,0
7540,0.0084,0.0565,0.0110,0.0108,-0.0002,-0.0014,-0.71,-0.11,0.03,0,4.091,-0.024,-0.182,0.013,0.002,-0.013,0.998,0.000,0.000,0.000,0.0110,-14,-3,0.00,0.00,0.00,0.0000,0.0000,0.0000,0.0000,0.0000,0.0000,0.0000,0.00,0.00,0.00,1.4400,0.9390,0.5430,1.0050,2.7010,0,0.0000,0.0000,0.0000,0.0000,0.0000,0
7591,0.0084,0.0583,0.0110,0.0090,0.0108,-0.0012,-0.79,-0.09,0.03,0,4.086,-0.044,0.149,0.199,-0.002,-0.012,1.000,0.000,0.000,0.000,0.0110,6,-4,0.00,0.00,0.00,0.0000,0.0000,0.0000,0.0000,0.0000,0.0000,0.0000,0.00,0.00,0.00,1.4400,0.9390,0.5440,0.9970,2.7010,0,0.0000,0.0000,0.0000,0.0000,0.0000,0
7642,0.0096,0.0516,0.0109,0.0134,-0.0287,-0.0013,-0.52,-0.11,0.03,0,4.096,0.052,-0.095,-0.108,-0.003,-0.015,1.001,0.000,0.000,0.000,0.0090,2,-3,0.00,0.00,0.00,0.0000,0.0000,0.0000,0.0000,0.0000,0.0000,0.0000,0.00,0.00,0.00,1.4570,0.9450,0.5440,0.9970,2.7050,0,0.0000,0.0000,0.0000,0.0000,0.0000,0
7694,0.0089,0.0516,0.0102,0.0065,-0.0234,-0.0043,-0.58,-0.03,0.03,0,4.086,-0.177,0.302,-0.030,0.002,-0.013,1.000,0.000,0.000,0.000,0.0100,-9,-2,0.00,0.00,0.00,0.0000,0.0000,0.0000,0.0000,0.0000,0.0000,0.0000,0.00,0.00,0.00,1.4570,0.9450,0.5440,1.0000,2.7050,0,0.0000,0.0000,0.0000,0.0000,0.0000,0
7746,0.0096,0.0542,0.0100,0.0098,-0.0045,-0.0041,-0.62,-0.02,0.03,0,4.091,-0.006,0.015,0.190,-0.001,-0.012,1.001,0.000,0.000,0.000,0.0090,20,0,0.00,0.00,0.00,0.0000,0.0000,0.0000,0.0000,0.0000,0.0000,0.0000,0.00,0.00,0.00,1.4560,0.9440,0.5440,1.0000,2.7060,0,0.0000,0.0000,0.0000,0.0000,0.0000,0
7797,0.0091,0.0541,0.0096,0.0053,-0.0026,-0.0054,-0.62,-0.01,0.03,0,4.086,-0.023,-0.080,0.256,-0.002,-0.015,1.002,0.000,0.000,0.000,0.0110,-2,0,0.00,0.00,0.00,0.0000,0.0000,0.0000,0.0000,0.0000,0.0000,0.0000,0.00,0.00,0.00,1.4560,0.9440,0.5440,1.0010,2.7060,0,0.0000,0.0000,0.0000,0.0000,0.0000,0
7848,0.0102,0.0503,0.0101,0.0099,-0.0209,-0.0013,-0.63,-0.04,0.03,0,4.091,0.160,-0.124,0.092,-0.000,-0.013,1.001,0.000,0.000,0.000,0.0110,9,-1,0.00,0.00,0.00,0.0000,0.0000,0.0000,0.0000,0.0000,0.0000,0.0000,0.00,0.00,0.00,1.4540,0.9350,0.5440,1.0010,2.7080,0,0.0000,0.0000,0.0000,0.0000,0.0000,0
7899,0.0084,0.0528,0.0105,-0.0015,-0.0050,0.0008,-0.65,-0.01,0.03,0,4.091,0.031,-0.051,0.083,-0.002,-0.014,0.999,0.000,0.000,0.000,0.0080,-5,-1,0.00,0.00,0.00,0.0000,0.0000,0.0000,0.0000,0.0000,0.0000,0.0000,0.00,0.00,0.00,1.4540,0.9350,0.5440,0.9980,2.7080,0,0.0000,0.0000,0.0000,0.0000,0.0000,0
7950,0.0074,0.0489,0.0095,-0.0068,-0.0249,-0.0045,-0.17,0.01,0.03,0,4.091,-0.071,0.108,0.282,-0.001,-0.011,0.998,0.000,0.000,0.000,0.0080,-1,1,0.00,0.00,0.00,0.0000,0.0000,0.0000,0.0000,0.0000,0.0000,0.0000,0.00,0.00,0.00,1.4360,0.9420,0.5440,0.9980,2.7020,0,0.0000,0.0000,0.0000,0.0000,0.0000,0
8001,0.0076,0.0413,0.0088,-0.0053,-0.0563,-0.0066,-0.30,0.00,0.03,0,4.086,-0.099,-0.132,0.114,-0.001,-0.011,0.999,0.000,0.000,0.000,0.0100,-25,-1,0.00,0.00,0.00,0.0000,0.0000,0.0000,0.0000,0.0000,0.0000,0.0000,0.00,0.00,0.00,1.4360,0.9420,0.5410,0.9970,2.7020,0,0.0000,0.0000,0.0000,0.0000,0.0000,0
8053,0.0074,0.0454,0.0095,-0.0057,-0.0202,-0.0011,-0.63,-0.01,0.03,0,4.096,-0.178,-0.154,0.360,-0.003,-0.012,1.001,0.000,0.000,0.000,0.0110,4,2,0.00,0.00,0.00,0.0000,0.0000,0.0000,0.0000,0.0000,0.0000,0.0000,0.00,0.00,0.00,1.4530,0.9410,0.5410,0.9970,2.7070,0,0.0000,0.0000,0.0000,0.0000,0.0000,0
8104,0.0078,0.0395,0.0100,-0.0028,-0.0474,0.0017,-0.46,-0.00,0.04,0,4.086,0.278,0.211,-0.022,0.001,-0.012,0.999,0.000,0.000,0.000,0.0090,-17,-3,0.00,0.00,0.00,0.0000,0.0000,0.0000,0.0000,0.0000,0.0000,0.0000,0.00,0.00,0.00,1.4530,0.9410,0.5430,0.9990,2.7070,0,0.0000,0.0000,0.0000,0.0000,0.0000,0
8155,0.0081,0.0440,0.0098,-0.0001,-0.0113,0.0008,-0.76,-0.01,0.03,0,4.091,0.051,-0.108,-0.238,-0.002,-0.014,0.999,0.000,0.000,0.000,0.0110,0,-5,0.00,0.00,0.00,0.0000,0.0000,0.0000,0.0000,0.0000,0.0000,0.0000,0.00,0.00,0.00,1.4690,0.9480,0.5430,0.9990,2.7000,0,0.0000,0.0000,0.0000,0.0000,0.0000,0
8207,0.0081,0.0412,0.0104,0.0001,-0.0243,0.0033,-0.60,-0.06,0.03,0,4.086,0.101,0.116,0.016,-0.002,-0.013,1.000,0.000,0.000,0.000,0.0110,6,-1,0.00,0.00,0.00,0.0000,0.0000,0.0000,0.0000,0.0000,0.0000,0.0000,0.00,0.00,0.00,1.4690,0.9480,0.5430,0.9970,2.7000,0,0.0000,0.0000,0.0000,0.0000,0.0000,0
8258,0.0085,0.0388,0.0107,0.0015,-0.0326,0.0040,-0.56,-0.03,0.03,0,4.091,-0.101,-0.114,0.019,0.000,-0.011,1.001,0.000,0.000,0.000,0.0080,3,-4,0.00,0.00,0.00,0.0000,0.0000,0.0000,0.0000,0.0000,0.0000,0.0000,0.00,0.00,0.00,1.4700,0.9390,0.5430,0.9970,2.7050,0,0.0000,0.0000,0.0000,0.0000,0.0000,0
8309,0.0079,0.0427,0.0098,-0.0018,-0.0047,-0.0019,-0.78,-0.08,0.03,0,4.086,0.046,-0.188,-0.290,-0.002,-0.012,1.001,0.000,0.000,0.000,0.0100,-10,2,0.00,0.00,0.00,0.0000,0.0000,0.0000,0.0000,0.0000,0.0000,0.0000,0.00,0.00,0.00,1.4700,0.9390,0.5410,1.0030,2.7050,0,0.0000,0.0000,0.0000,0.0000,0.0000,0
8360,0.0083,0.0439,0.0099,-0.0000,0.0043,-0.0009,-1.07,0.00,0.03,0,4.080,-0.029,0.152,0.009,0.000,-0.013,1.000,0.000,0.000,0.000,0.0110,5,7,0.00,0.00,0.00,0.0000,0.0000,0.0000,0.0000,0.0000,0.0000,0.0000,0.00,0.00,0.00,1.4650,0.9370,0.5410,1.0030,2.7170,0,0.0000,0.0000,0.0000,0.0000,0.0000,0
8411,0.0073,0.0428,0.0105,-0.0050,-0.0047,0.0024,-0.78,-0.04,0.03,0,4.091,0.044,0.020,-0.281,0.000,-0.012,1.001,0.000,0.000,0.000,0.0150,16,7,0.00,0.00,0.00,0.0000,0.0000,0.0000,0.0000,0.0000,0.0000,0.0000,0.00,0.00,0.00,1.4650,0.9370,0.5450,1.0010,2.7170,0,0.0000,0.0000,0.0000,0.0000,0.0000,0
8462,0.0087,0.0426,0.0126,0.0033,-0.0050,0.0129,-0.79,-0.01,0.03,0,4.075,0.171,-0.230,-0.139,0.000,-0.015,0.999,0.000,0.000,0.000,0.0110,-8,-3,0.00,0.00,0.00,0.0000,0.0000,0.0000,0.0000,0.0000,0.0000,0.0000,0.00,0.00,0.00,1.4400,0.9280,0.5450,1.0010,2.7050,0,0.0000,0.0000,0.0000,0.0000,0.0000,0
8513,0.0079,0.0452,0.0123,-0.0017,0.0099,0.0085,-0.85,-0.03,0.03,0,4.086,0.088,0.220,-0.250,-0.001,-0.012,1.000,0.000,0.000,0.000,0.0110,-11,-5,0.00,0.00,0.00,0.0000,0.0000,0.0000,0.0000,0.0000,0.0000,0.0000,0.00,0.00,0.00,1.4400,0.9280,0.5470,1.0010,2.7050,0,0.0000,0.0000,0.0000,0.0000,0.0000,0
8564,0.0083,0.0463,0.0121,0.0020,0.0155,0.0051,-0.65,-0.03,0.04,0,4.091,0.059,0.113,0.335,-0.003,-0.013,0.997,0.000,0.000,0.000,0.0120,9,0,0.00,0.00,0.00,0.0000,0.0000,0.0000,0.0000,0.0000,0.0000,0.0000,0.00,0.00,0.00,1.4430,0.9480,0.5470,1.0010,2.7090,0,0.0000,0.0000,0.0000,0.0000,0.0000,0
8615,0.0081,0.0401,0.0124,0.0010,-0.0167,0.0048,-0.68,-0.01,0.04,0,4.091,0.128,0.117,0.202,-0.001,-0.013,0.998,0.000,0.000,0.000,0.0130,10,2,0.00,0.00,0.00,0.0000,0.0000,0.0000,0.0000,0.0000,0.0000,0.0000,0.00,0.00,0.00,1.4430,0.9480,0.5400,1.0000,2.7090,0,0.0000,0.0000,0.0000,0.0000,0.0000,0
8666,0.0077,0.0369,0.0127,-0.0007,-0.0321,0.0050,-0.47,0.01,0.04,0,4.086,0.132,0.008,-0.048,-0.000,-0.015,0.999,0.000,0.000,0.000,0.0140,-4,3,0.00,0.00,0.00,0.0000,0.0000,0.0000,0.0000,0.0000,0.0000,0.0000,0.00,0.00,0.00,1.4630,0.9460,0.5400,1.0000,2.7080,0,0.0000,0.0000,0.0000,0.0000,0.0000,0
8717,0.0066,0.0271,0.0132,-0.0053,-0.0742,0.0059,-0.28,-0.04,0.04,0,4.091,0.027,-0.049,-0.080,-0.002,-0.015,1.000,0.000,0.000,0.000,0.0120,-1,-4,0.00,0.00,0.00,0.0000,0.0000,0.0000,0.0000,0.0000,0.0000,0.0000,0.00,0.00,0.00,1.4630,0.9460,0.5390,1.0020,2.7080,0,0.0000,0.0000,0.0000,0.0000,0.0000,0
8768,0.0075,0.0324,0.0134,0.0006,-0.0326,0.0056,-0.53,0.01,0.04,0,4.086,-0.062,-0.187,0.270,0.001,-0.013,1.001,0.000,0.000,0.000,0.0100,1,-5,0.00,0.00,0.00,0.0000,0.0000,0.0000,0.0000,0.0000,0.0000,0.0000,0.00,0.00,0.00,1.4580,0.9410,0.5390,1.0020,2.7040,0,0.0000,0.0000,0.0000,0.0000,0.0000,0
8819,0.0085,0.0263,0.0121,0.0077,-0.0573,-0.0037,-0.40,-0.11,0.04,0,4.086,-0.166,0.328,0.104,-0.002,-0.016,1.000,0.000,0.000,0.000,0.0140,4,0,0.00,0.00,0.00,0.0000,0.0000,0.0000,0.0000,0.0000,0.0000,0.0000,0.00,0.00,0.00,1.4580,0.9410,0.5410,1.0050,2.7040,0,0.0000,0.0000,0.0000,0.0000,0.0000,0
8870,0.0068,0.0249,0.0128,-0.0023,-0.0533,0.0019,-0.52,-0.04,0.04,0,4.091,-0.089,0.096,0.088,-0.001,-0.014,1.000,0.000,0.000,0.000,0.0100,3,-8,0.00,0.00,0.00,0.0000,0.0000,0.0000,0.0000,0.0000,0.0000,0.0000,0.00,0.00,0.00,1.4620,0.9400,0.5410,1.0050,2.7040,0,0.0000,0.0000,0.0000,0.0000,0.0000,0
8921,0.0086,0.0257,0.0119,0.0072,-0.0395,-0.0038,-0.56,-0.11,0.04,0,4.091,0.171,-0.060,0.147,0.000,-0.015,0.998,0.000,0.000,0.000,0.0120,-4,1,0.00,0.00,0.00,0.0000,0.0000,0.0000,0.0000,0.0000,0.0000,0.0000,0.00,0.00,0.00,1.4620,0.9400,0.5450,1.0020,2.7040,0,0.0000,0.0000,0.0000,0.0000,0.0000,0
8972,0.0070,0.0312,0.0119,-0.0019,-0.0021,-0.0023,-0.70,-0.07,0.04,0,4.091,0.064,0.019,0.191,0.000,-0.016,1.001,0.000,0.000,0.000,0.0120,44,-12,0.00,0.00,0.00,0.0000,0.0000,0.0000,0.0000,0.0000,0.0000,0.0000,0.00,0.00,0.00,1.4520,0.9400,0.5450,1.0020,2.7040,0,0.0000,0.0000,0.0000,0.0000,0.0000,0
9023,0.0097,0.0171,0.0118,0.0122,-0.0738,-0.0037,-0.31,-0.15,0.04,0,4.091,-0.002,-0.066,-0.149,-0.001,-0.014,1.001,0.000,0.000,0.000,0.0100,-24,0,0.00,0.00,0.00,0.0000,0.0000,0.0000,0.0000,0.0000,0.0000,0.0000,0.00,0.00,0.00,1.4520,0.9400,0.5440,0.9990,2.7040,0,0.0000,0.0000,0.0000,0.0000,0.0000,0
9074,0.0107,0.0210,0.0115,0.0149,-0.0362,-0.0035,-0.62,-0.19,0.03,0,4.091,0.015,0.069,0.110,0.000,-0.013,0.999,0.000,0.000,0.000,0.0120,6,0,0.00,0.00,0.00,0.0000,0.0000,0.0000,0.0000,0.0000,0.0000,0.0000,0.00,0.00,0.00,1.4630,0.9490,0.5440,0.9990,2.7000,0,0.0000,0.0000,0.0000,0.0000,0.0000,0
9125,0.0097,0.0166,0.0116,0.0074,-0.0505,-0.0020,-0.51,-0.09,0.03,0,4.086,-0.044,-0.289,-0.401,-0.001,-0.014,1.001,0.000,0.000,0.000,0.0110,-28,-8,0.00,0.00,0.00,0.0000,0.0000,0.0000,0.0000,0.0000,0.0000,0.0000,0.00,0.00,0.00,1.4630,0.9490,0.5390,1.0030,2.7000,0,0.0000,0.0000,0.0000,0.0000,0.0000,0
9176,0.0115,0.0220,0.0116,0.0152,-0.0094,-0.0009,-0.98,-0.13,0.03,0,4.091,-0.119,0.350,-0.138,-0.004,-0.013,1.001,0.000,0.000,0.000,0.0110,1,0,0.00,0.00,0.00,0.0000,0.0000,0.0000,0.0000,0.0000,0.0000,0.0000,0.00,0.00,0.00,1.4480,0.9410,0.5390,1.0030,2.7000,0,0.0000,0.0000,0.0000,0.0000,0.0000,0
9227,0.0119,0.0253,0.0113,0.0142,0.0099,-0.0018,-0.96,-0.09,0.03,0,4.091,0.241,0.009,-0.104,-0.002,-0.014,0.998,0.000,0.000,0.000,0.0130,1,-4,0.00,0.00,0.00,0.0000,0.0000,0.0000,0.0000,0.0000,0.0000,0.0000,0.00,0.00,0.00,1.4480,0.9410,0.5450,1.0010,2.7000,0,0.0000,0.0000,0.0000,0.0000,0.0000,0
9278,0.0119,0.0235,0.0120,0.0119,-0.0000,0.0016,-0.76,-0.09,0.03,0,4.086,0.079,0.199,0.175,-0.000,-0.013,1.001,0.000,0.000,0.000,0.0110,2,-4,0.00,0.00,0.00,0.0000,0.0000,0.0000,0.0000,0.0000,0.0000,0.0000,0.00,0.00,0.00,1.4670,0.9420,0.5450,1.0010,2.6980,0,0.0000,0.0000,0.0000,0.0000,0.0000,0
9330,0.0116,0.0107,0.0114,0.0085,-0.0621,-0.0026,-0.51,-0.07,0.03,0,4.091,0.090,-0.110,0.175,-0.001,-0.015,1.002,0.000,0.000,0.000,0.0120,5,-3,0.00,0.00,0.00,0.0000,0.0000,0.0000,0.0000,0.0000,0.0000,0.0000,0.00,0.00,0.00,1.4670,0.9420,0.5440,1.0030,2.6980,0,0.0000,0.0000,0.0000,0.0000,0.0000,0
9381,0.0124,0.0076,0.0116,0.0113,-0.0663,-0.0007,-0.32,-0.06,0.04,0,4.086,-0.056,0.068,-0.148,-0.002,-0.015,1.000,0.000,0.000,0.000,0.0090,7,-5,0.00,0.00,0.00,0.0000,0.0000,0.0000,0.0000,0.0000,0.0000,0.0000,0.00,0.00,0.00,1.4570,0.9360,0.5440,1.0030,2.7090,0,0.0000,0.0000,0.0000,0.0000,0.0000,0
9432,0.0112,0.0045,0.0106,0.0038,-0.0673,-0.0051,-0.40,-0.06,0.04,0,4.086,0.065,-0.093,-0.266,-0.001,-0.013,0.998,0.000,0.000,0.000,0.0120,-5,0,0.00,0.00,0.00,0.0000,0.0000,0.0000,0.0000,0.0000,0.0000,0.0000,0.00,0.00,0.00,1.4570,0.9360,0.5350,1.0050,2.7090,0,0.0000,0.0000,0.0000,0.0000,0.0000,0
9483,0.0120,0.0090,0.0114,0.0080,-0.0267,0.0012,-0.71,-0.07,0.04,0,4.091,-0.032,0.046,0.342,-0.001,-0.014,0.999,0.000,0.000,0.000,0.0100,15,0,0.00,0.00,0.00,0.0000,0.0000,0.0000,0.0000,0.0000,0.0000,0.0000,0.00,0.00,0.00,1.4650,0.9470,0.5350,1.0050,2.7130,0,0.0000,0.0000,0.0000,0.0000,0.0000,0
9534,0.0120,0.0029,0.0108,0.0065,-0.0520,-0.0031,-0.61,-0.04,0.04,0,4.091,0.055,-0.151,-0.220,-0.000,-0.010,0.999,0.000,0.000,0.000,0.0120,-6,-2,0.00,0.00,0.00,0.0000,0.0000,0.0000,0.0000,0.0000,0.0000,0.0000,0.00,0.00,0.00,1.4650,0.9470,0.5400,1.0020,2.7130,0,0.0000,0.0000,0.0000,0.0000,0.0000,0
9586,0.0116,0.0059,0.0114,0.0031,-0.0238,0.0012,-0.75,-0.04,0.04,0,4.091,0.019,-0.095,0.183,-0.004,-0.013,1.000,0.000,0.000,0.000,0.0100,15,-7,0.00,0.00,0.00,0.0000,0.0000,0.0000,0.0000,0.0000,0.0000,0.0000,0.00,0.00,0.00,1.4570,0.9320,0.5400,1.0020,2.7040,0,0.0000,0.0000,0.0000,0.0000,0.0000,0
9637,0.0121,0.0025,0.0109,0.0050,-0.0357,-0.0022,-0.77,0.02,0.04,0,4.091,-0.077,-0.149,-0.607,-0.002,-0.013,1.002,0.000,0.000,0.000,0.0120,-25,0,0.00,0.00,0.00,0.0000,0.0000,0.0000,0.0000,0.0000,0.0000,0.0000,0.00,0.00,0.00,1.4570,0.9320,0.5400,1.0020,2.7040,0,0.0000,0.0000,0.0000,0.0000,0.0000,0
9688,0.0112,0.0090,0.0115,0.0000,0.0070,0.0019,-0.92,-0.03,0.04,0,4.086,-0.321,-0.033,0.074,-0.002,-0.013,1.001,0.000,0.000,0.000,0.0140,-12,-8,0.00,0.00,0.00,0.0000,0.0000,0.0000,0.0000,0.0000,0.0000,0.0000,0.00,0.00,0.00,0.0000,0.9360,0.5400,1.0020,2.7050,0,0.0000,0.0000,0.0000,0.0000,0.0000,0
9739,0.0114,0.0061,0.0127,0.0013,-0.0054,0.0075,-0.90,-0.00,0.04,0,4.086,-0.109,-0.039,-0.041,0.000,-0.015,0.998,0.000,0.000,0.000,0.0120,-3,-4,0.00,0.00,0.00,0.0000,0.0000,0.0000,0.0000,0.0000,0.0000,0.0000,0.00,0.00,0.00,0.0000,0.9360,0.5420,1.0020,2.7050,0,0.0000,0.0000,0.0000,0.0000,0.0000,0
9791,0.0116,-0.0007,0.0126,0.0029,-0.0388,0.0044,-0.80,0.01,0.04,0,4.091,0.193,-0.077,-0.101,-0.000,-0.014,1.002,0.000,0.000,0.000,0.0110,1,-8,0.00,0.00,0.00,0.0000,0.0000,0.0000,0.0000,0.0000,0.0000,0.0000,0.00,0.00,0.00,1.4500,0.9450,0.5420,1.0020,2.7140,0,0.0000,0.0000,0.0000,0.0000,0.0000,0
9842,0.0110,0.0026,0.0123,0.0000,-0.0149,0.0019,-0.82,0.03,0.04,0,4.086,0.351,0.045,-0.131,0.000,-0.014,1.001,0.000,0.000,0.000,0.0110,0,-2,0.00,0.00,0.00,0.0000,0.0000,0.0000,0.0000,0.0000,0.0000,0.0000,0.00,0.00,0.00,1.4500,0.9450,0.5430,1.0030,2.7140,0,0.0000,0.0000,0.0000,0.0000,0.0000,0
9893,0.0106,0.0017,0.0118,-0.0010,-0.0156,-0.0010,-0.83,-0.04,0.04,0,4.091,0.012,0.176,-0.158,0.000,-0.013,1.002,0.000,0.000,0.000,0.0120,5,-1,0.00,0.00,0.00,0.0000,0.0000,0.0000,0.0000,0.0000,0.0000,0.0000,0.00,0.00,0.00,1.4490,0.9340,0.5430,1.0030,2.7090,0,0.0000,0.0000,0.0000,0.0000,0.0000,0
9944,0.0093,0.0031,0.0119,-0.0072,-0.0046,-0.0007,-0.82,-0.01,0.04,0,4.091,-0.023,-0.066,0.024,0.001,-0.014,1.001,0.000,0.000,0.000,0.0070,-15,-4,0.00,0.00,0.00,0.0000,0.0000,0.0000,0.0000,0.0000,0.0000,0.0000,0.00,0.00,0.00,1.4490,0.9340,0.5460,1.0020,2.7090,0,0.0000,0.0000,0.0000,0.0000,0.0000,0
9995,0.0102,0.0047,0.0098,-0.0019,0.0068,-0.0117,-0.87,0.01,0.04,0,4.086,-0.266,0.342,0.395,-0.000,-0.014,1.001,0.000,0.000,0.000,0.0090,-10,0,0.00,0.00,0.00,0.0000,0.0000,0.0000,0.0000,0.0000,0.0000,0.0000,0.00,0.00,0.00,1.4390,0.9490,0.5460,1.0020,2.7120,0,0.0000,0.0000,0.0000,0.0000,0.0000,0
10046,0.0108,0.0042,0.0091,0.0021,0.0061,-0.0120,-0.87,-0.00,0.03,0,4.086,-0.039,-0.072,-0.153,-0.001,-0.013,1.000,0.000,0.000,0.000,0.0120,4,1,0.00,0.00,0.00,0.0000,0.0000,0.0000,0.0000,0.0000,0.0000,0.0000,0.00,0.00,0.00,1.4390,0.9490,0.5400,1.0030,2.7120,0,0.0000,0.0000,0.0000,0.0000,0.0000,0
10097,0.0099,0.0005,0.0101,-0.0019,-0.0126,-0.0034,-0.82,-0.01,0.04,0,4.091,-0.129,0.008,0.205,0.002,-0.013,1.000,0.000,0.000,0.000,0.0120,19,1,0.00,0.00,0.00,0.0000,0.0000,0.0000,0.0000,0.0000,0.0000,0.0000,0.00,0.00,0.00,1.4620,0.9420,0.5400,1.0030,2.7010,0,0.0000,0.0000,0.0000,0.0000,0.0000,0
10148,0.0099,-0.0015,0.0108,-0.0013,-0.0219,0.0005,-0.73,-0.07,0.04,0,4.086,-0.018,0.040,0.021,-0.002,-0.011,0.998,0.000,0.000,0.000,0.0100,-19,0,0.00,0.00,0.00,0.0000,0.0000,0.0000,0.0000,0.0000,0.0000,0.0000,0.00,0.00,0.00,1.4620,0.9420,0.5430,1.0020,2.7010,0,0.0000,0.0000,0.0000,0.0000,0.0000,0
10199,0.0095,-0.0043,0.0108,-0.0037,-0.0293,0.0003,-0.63,-0.02,0.04,0,4.086,0.103,0.403,-0.176,-0.003,-0.015,1.000,0.000,0.000,0.000,0.0130,-10,1,0.00,0.00,0.00,0.0000,0.0000,0.0000,0.0000,0.0000,0.0000,0.0000,0.00,0.00,0.00,1.4600,0.9410,0.5430,1.0020,2.7000,0,0.0000,0.0000,0.0000,0.0000,0.0000,0
10250,0.0099,-0.0034,0.0118,-0.0014,-0.0182,0.0054,-0.86,0.00,0.04,0,4.086,-0.227,-0.235,-0.169,-0.002,-0.013,1.001,0.000,0.000,0.000,0.0110,-14,8,0.00,0.00,0.00,0.0000,0.0000,0.0000,0.0000,0.0000,0.0000,0.0000,0.00,0.00,0.00,1.4600,0.9410,0.5420,1.0010,2.7000,0,0.0000,0.0000,0.0000,0.0000,0.0000,0
10301,0.0091,0.0011,0.0117,-0.0052,0.0096,0.0035,-0.90,-0.01,0.03,0,4.091,0.145,0.001,0.174,0.001,-0.012,1.001,0.000,0.000,0.000,0.0100,-37,-3,0.00,0.00,0.00,0.0000,0.0000,0.0000,0.0000,0.0000,0.0000,0.0000,0.00,0.00,0.00,1.4700,0.9330,0.5420,1.0010,2.7110,0,0.0000,0.0000,0.0000,0.0000,0.0000,0
10352,0.0089,0.0076,0.0110,-0.0045,0.0463,-0.0012,-1.21,-0.01,0.04,0,4.086,-0.175,0.115,0.326,0.001,-0.014,0.997,0.000,0.000,0.000,0.0090,-6,4,0.00,0.00,0.00,0.0000,0.0000,0.0000,0.0000,0.0000,0.0000,0.0000,0.00,0.00,0.00,1.4700,0.9330,0.5420,0.9990,2.7110,0,0.0000,0.0000,0.0000,0.0000,0.0000,0
10404,0.0097,0.0061,0.0104,0.0007,0.0303,-0.0046,-0.98,-0.03,0.04,0,4.091,0.050,0.173,-0.015,-0.000,-0.012,0.999,0.000,0.000,0.000,0.0060,13,-1,0.00,0.00,0.00,0.0000,0.0000,0.0000,0.0000,0.0000,0.0000,0.0000,0.00,0.00,0.00,1.4520,0.9440,0.5420,0.9990,2.7020,0,0.0000,0.0000,0.0000,0.0000,0.0000,0
10456,0.0089,0.0064,0.0085,-0.0032,0.0262,-0.0132,-1.00,-0.12,0.04,0,4.086,0.188,0.002,-0.176,0.001,-0.014,1.001,0.000,0.000,0.000,0.0120,0,0,0.00,0.00,0.00,0.0000,0.0000,0.0000,0.0000,0.0000,0.0000,0.0000,0.00,0.00,0.00,1.4520,0.9440,0.5430,0.9960,2.7020,0,0.0000,0.0000,0.0000,0.0000,0.0000,0
10507,0.0091,0.0077,0.0097,-0.0017,0.0276,-0.0034,-0.87,-0.11,0.03,0,4.091,0.055,-0.397,-0.164,-0.001,-0.014,0.998,0.000,0.000,0.000,0.0070,14,0,0.00,0.00,0.00,0.0000,0.0000,0.0000,0.0000,0.0000,0.0000,0.0000,0.00,0.00,0.00,1.4540,0.9400,0.5430,0.9960,2.7090,0,0.0000,0.0000,0.0000,0.0000,0.0000,0
10559,0.0111,-0.0008,0.0085,0.0080,-0.0205,-0.0088,-0.24,-0.05,0.03,0,4.086,0.021,-0.216,-0.017,-0.001,-0.013,0.999,0.000,0.000,0.000,0.0100,5,-5,0.00,0.00,0.00,0.0000,0.0000,0.0000,0.0000,0.0000,0.0000,0.0000,0.00,0.00,0.00,1.4540,0.9400,0.5420,1.0030,2.7090,0,0.0000,0.0000,0.0000,0.0000,0.0000,0
10610,0.0100,-0.0094,0.0088,0.0022,-0.0563,-0.0046,-0.40,-0.01,0.03,0,4.086,-0.080,0.423,0.314,-0.003,-0.013,1.001,0.000,0.000,0.000,0.0090,9,-6,0.00,0.00,0.00,0.0000,0.0000,0.0000,0.0000,0.0000,0.0000,0.0000,0.00,0.00,0.00,1.4500,0.9400,0.5420,1.0030,2.7120,0,0.0000,0.0000,0.0000,0.0000,0.0000,0
10661,0.0107,-0.0091,0.0089,0.0053,-0.0458,-0.0030,-0.51,-0.05,0.03,0,4.086,-0.206,-0.119,-0.064,-0.004,-0.014,0.998,0.000,0.000,0.000,0.0120,-16,-4,0.00,0.00,0.00,0.0000,0.0000,0.0000,0.0000,0.0000,0.0000,0.0000,0.00,0.00,0.00,1.4500,0.9400,0.5430,0.9960,2.7120,0,0.0000,0.0000,0.0000,0.0000,0.0000,0
10712,0.0109,-0.0069,0.0104,0.0059,-0.0256,0.0051,-0.55,-0.09,0.02,0,4.091,0.019,0.094,0.019,-0.000,-0.012,1.001,0.000,0.000,0.000,0.0100,0,0,0.00,0.00,0.00,0.0000,0.0000,0.0000,0.0000,0.0000,0.0000,0.0000,0.00,0.00,0.00,1.4380,0.9340,0.5430,0.9960,2.7010,0,0.0000,0.0000,0.0000,0.0000,0.0000,0
10763,0.0102,-0.0093,0.0104,0.0024,-0.0320,0.0039,-0.65,-0.05,0.03,0,4.086,0.133,0.036,-0.174,0.002,-0.013,1.001,0.000,0.000,0.000,0.0100,-1,1,0.00,0.00,0.00,0.0000,0.0000,0.0000,0.0000,0.0000,0.0000,0.0000,0.00,0.00,0.00,1.4380,0.9340,0.5440,1.0000,2.7010,0,0.0000,0.0000,0.0000,0.0000,0.0000,0
10814,0.0104,-0.0034,0.0105,0.0038,0.0042,0.0038,-0.63,-0.07,0.02,0,4.091,0.149,0.027,-0.018,-0.002,-0.014,1.001,0.000,0.000,0.000,0.0130,4,0,0.00,0.00,0.00,0.0000,0.0000,0.0000,0.0000,0.0000,0.0000,0.0000,0.00,0.00,0.00,1.4350,0.9450,0.5440,1.0000,2.6980,0,0.0000,0.0000,0.0000,0.0000,0.0000,0
10866,0.0102,-0.0091,0.0118,0.0022,-0.0229,0.0089,-0.67,-0.11,0.02,0,4.086,0.074,0.303,-0.131,-0.002,-0.013,0.999,0.000,0.000,0.000,0.0110,-4,0,0.00,0.00,0.00,0.0000,0.0000,0.0000,0.0000,0.0000,0.0000,0.0000,0.00,0.00,0.00,1.4350,0.9450,0.5390,0.9970,2.6980,0,0.0000,0.0000,0.0000,0.0000,0.0000,0
10918,0.0114,-0.0119,0.0118,0.0066,-0.0333,0.0070,-0.47,-0.05,0.02,0,4.086,-0.071,0.239,-0.186,-0.002,-0.011,1.001,0.000,0.000,0.000,0.0110,0,0,0.00,0.00,0.00,0.0000,0.0000,0.0000,0.0000,0.0000,0.0000,0.0000,0.00,0.00,0.00,0.0000,0.9450,0.5390,0.9970,2.7150,0,0.0000,0.0000,0.0000,0.0000,0.0000,0
10969,0.0112,-0.0202,0.0114,0.0050,-0.0685,0.0026,-0.30,-0.13,0.02,0,4.080,-0.024,-0.086,0.254,-0.001,-0.010,1.000,0.000,0.000,0.000,0.0090,16,-16,0.00,0.00,0.00,0.0000,0.0000,0.0000,0.0000,0.0000,0.0000,0.0000,0.00,0.00,0.00,0.0000,0.9450,0.5400,1.0030,2.7150,0,0.0000,0.0000,0.0000,0.0000,0.0000,0
11020,0.0138,-0.0235,0.0105,0.0176,-0.0720,-0.0028,-0.25,-0.17,0.02,0,4.091,0.057,-0.306,-0.070,-0.002,-0.014,0.997,0.000,0.000,0.000,0.0100,2,0,0.00,0.00,0.00,0.0000,0.0000,0.0000,0.0000,0.0000,0.0000,0.0000,0.00,0.00,0.00,1.4350,0.9410,0.5400,1.0030,2.7090,0,0.0000,0.0000,0.0000,0.0000,0.0000,0
11071,0.0136,-0.0311,0.0101,0.0126,-0.0944,-0.0042,-0.14,-0.14,0.02,0,4.086,0.198,0.265,0.013,-0.003,-0.013,1.000,0.000,0.000,0.000,0.0080,4,-7,0.00,0.00,0.00,0.0000,0.0000,0.0000,0.0000,0.0000,0.0000,0.0000,0.00,0.00,0.00,1.4350,0.9410,0.5420,0.9990,2.7090,0,0.0000,0.0000,0.0000,0.0000,0.0000,0
11122,0.0143,-0.0320,0.0094,0.0141,-0.0795,-0.0070,-0.35,-0.07,0.02,0,4.086,0.090,-0.115,-0.185,0.003,-0.014,0.999,0.000,0.000,0.000,0.0100,-19,3,0.00,0.00,0.00,0.0000,0.0000,0.0000,0.0000,0.0000,0.0000,0.0000,0.00,0.00,0.00,1.4540,0.9400,0.5420,0.9990,2.7130,0,0.0000,0.0000,0.0000,0.0000,0.0000,0
11174,0.0147,-0.0312,0.0097,0.0145,-0.0619,-0.0037,-0.70,-0.10,0.02,0,4.086,-0.065,-0.043,-0.199,0.001,-0.013,1.001,0.000,0.000,0.000,0.0110,27,1,0.00,0.00,0.00,0.0000,0.0000,0.0000,0.0000,0.0000,0.0000,0.0000,0.00,0.00,0.00,1.4540,0.9400,0.5410,1.0000,2.7130,0,0.0000,0.0000,0.0000,0.0000,0.0000,0
11225,0.0148,-0.0388,0.0100,0.0126,-0.0895,-0.0020,0.02,-0.02,0.02,0,4.091,0.047,-0.194,-0.232,-0.003,-0.013,1.001,0.000,0.000,0.000,0.0110,6,-6,0.00,0.00,0.00,0.0000,0.0000,0.0000,0.0000,0.0000,0.0000,0.0000,0.00,0.00,0.00,1.4480,0.9370,0.5410,1.0000,2.7090,0,0.0000,0.0000,0.0000,0.0000,0.0000,0
11276,0.0135,-0.0467,0.0104,0.0053,-0.1077,0.0006,-0.27,-0.02,0.02,0,4.086,0.051,0.127,-0.082,-0.003,-0.013,1.000,0.000,0.000,0.000,0.0110,3,-1,0.00,0.00,0.00,0.0000,0.0000,0.0000,0.0000,0.0000,0.0000,0.0000,0.00,0.00,0.00,1.4480,0.9370,0.5410,1.0020,2.7090,0,0.0000,0.0000,0.0000,0.0000,0.0000,0
11327,0.0135,-0.0457,0.0112,0.0043,-0.0814,0.0058,-0.42,-0.03,0.02,0,4.091,0.132,0.126,-0.000,-0.002,-0.014,0.999,0.000,0.000,0.000,0.0120,-5,-9,0.00,0.00,0.00,0.0000,0.0000,0.0000,0.0000,0.0000,0.0000,0.0000,0.00,0.00,0.00,1.4530,0.9470,0.5410,1.0020,2.7050,0,0.0000,0.0000,0.0000,0.0000,0.0000,0
11378,0.0133,-0.0455,0.0120,0.0030,-0.0619,0.0091,-0.55,-0.06,0.01,0,4.086,0.077,0.015,-0.071,-0.001,-0.014,1.001,0.000,0.000,0.000,0.0090,-26,-6,0.00,0.00,0.00,0.0000,0.0000,0.0000,0.0000,0.0000,0.0000,0.0000,0.00,0.00,0.00,1.4530,0.9470,0.5420,1.0030,2.7050,0,0.0000,0.0000,0.0000,0.0000,0.0000,0
11429,0.0132,-0.0391,0.0112,0.0028,-0.0131,0.0043,-0.72,-0.04,0.01,0,4.091,0.116,0.176,-0.253,-0.000,-0.015,1.001,0.000,0.000,0.000,0.0110,1,0,0.00,0.00,0.00,0.0000,0.0000,0.0000,0.0000,0.0000,0.0000,0.0000,0.00,0.00,0.00,1.4620,0.9540,0.5420,1.0030,2.7140,0,0.0000,0.0000,0.0000,0.0000,0.0000,0
11480,0.0133,-0.0452,0.0114,0.0030,-0.0369,0.0034,-0.74,-0.04,0.01,0,4.086,-0.095,-0.180,0.181,-0.002,-0.012,0.999,0.000,0.000,0.000,0.0100,-35,4,0.00,0.00,0.00,0.0000,0.0000,0.0000,0.0000,0.0000,0.0000,0.0000,0.00,0.00,0.00,1.4620,0.9540,0.5460,0.9990,2.7140,0,0.0000,0.0000,0.0000,0.0000,0.0000,0
11531,0.0122,-0.0384,0.0111,-0.0041,0.0111,0.0015,-1.27,-0.04,0.02,0,4.086,0.096,0.130,0.001,0.002,-0.012,1.001,0.000,0.000,0.000,0.0110,-5,-6,0.00,0.00,0.00,0.0000,0.0000,0.0000,0.0000,0.0000,0.0000,0.0000,0.00,0.00,0.00,1.4590,0.9410,0.5460,0.9990,2.6940,0,0.0000,0.0000,0.0000,0.0000,0.0000,0
11582,0.0122,-0.0349,0.0110,-0.0038,0.0286,0.0011,-1.23,-0.02,0.01,0,4.086,-0.005,0.121,-0.285,-0.001,-0.011,1.000,0.000,0.000,0.000,0.0120,20,3,0.00,0.00,0.00,0.0000,0.0000,0.0000,0.0000,0.0000,0.0000,0.0000,0.00,0.00,0.00,1.4590,0.9410,0.5420,0.9970,2.6940,0,0.0000,0.0000,0.0000,0.0000,0.0000,0
11633,0.0138,-0.0331,0.0115,0.0061,0.0343,0.0032,-1.11,-0.02,0.01,0,4.091,-0.215,0.110,0.048,-0.002,-0.012,1.001,0.000,0.000,0.000,0.0110,14,0,0.00,0.00,0.00,0.0000,0.0000,0.0000,0.0000,0.0000,0.0000,0.0000,0.00,0.00,0.00,1.4640,0.9260,0.5420,0.9970,2.7000,0,0.0000,0.0000,0.0000,0.0000,0.0000,0
11685,0.0128,-0.0379,0.0117,-0.0003,0.0033,0.0034,-0.97,-0.04,0.02,0,4.091,-0.178,-0.069,0.079,-0.000,-0.012,1.002,0.000,0.000,0.000,0.0110,5,3,0.00,0.00,0.00,0.0000,0.0000,0.0000,0.0000,0.0000,0.0000,0.0000,0.00,0.00,0.00,1.4640,0.9260,0.5390,1.0050,2.7000,0,0.0000,0.0000,0.0000,0.0000,0.0000,0
11736,0.0120,-0.0373,0.0115,-0.0050,0.0069,0.0021,-0.73,-0.04,0.02,0,4.091,-0.048,-0.041,-0.035,-0.001,-0.014,0.998,0.000,0.000,0.000,0.0100,-11,-8,0.00,0.00,0.00,0.0000,0.0000,0.0000,0.0000,0.0000,0.0000,0.0000,0.00,0.00,0.00,1.4490,0.9450,0.5390,1.0050,2.7060,0,0.0000,0.0000,0.0000,0.0000,0.0000,0
11787,0.0148,-0.0402,0.0110,0.0110,-0.0052,-0.0011,-0.79,-0.05,0.02,0,4.086,0.066,-0.044,0.101,-0.002,-0.013,1.000,0.000,0.000,0.000,0.0080,-15,-8,0.00,0.00,0.00,0.0000,0.0000,0.0000,0.0000,0.0000,0.0000,0.0000,0.00,0.00,0.00,1.4490,0.9450,0.5390,1.0020,2.7060,0,0.0000,0.0000,0.0000,0.0000,0.0000,0
11838,0.0122,-0.0434,0.0097,-0.0041,-0.0202,-0.0076,-0.79,-0.02,0.02,0,4.086,0.006,-0.012,0.289,-0.002,-0.013,1.001,0.000,0.000,0.000,0.0120,3,21,0.00,0.00,0.00,0.0000,0.0000,0.0000,0.0000,0.0000,0.0000,0.0000,0.00,0.00,0.00,1.4510,0.9410,0.5390,1.0020,2.7110,0,0.0000,0.0000,0.0000,0.0000,0.0000,0
11889,0.0081,-0.0430,0.0105,-0.0281,-0.0137,-0.0011,-0.88,0.16,0.01,0,4.086,-0.133,-0.135,0.052,-0.001,-0.012,1.000,0.000,0.000,0.000,0.0110,3,0,0.00,0.00,0.00,0.0000,0.0000,0.0000,0.0000,0.0000,0.0000,0.0000,0.00,0.00,0.00,1.4510,0.9410,0.5400,0.9950,2.7110,0,0.0000,0.0000,0.0000,0.0000,0.0000,0
11940,0.0080,-0.0370,0.0108,-0.0231,0.0241,0.0002,-1.28,0.15,0.02,0,4.091,-0.193,-0.062,0.087,-0.001,-0.012,0.999,0.000,0.000,0.000,0.0100,4,-3,0.00,0.00,0.00,0.0000,0.0000,0.0000,0.0000,0.0000,0.0000,0.0000,0.00,0.00,0.00,1.4520,0.9510,0.5400,0.9950,2.7020,0,0.0000,0.0000,0.0000,0.0000,0.0000,0
11992,0.0058,-0.0309,0.0104,-0.0297,0.0510,-0.0023,-1.22,0.11,0.02,0,4.086,-0.031,-0.080,-0.244,-0.002,-0.012,1.002,0.000,0.000,0.000,0.0110,11,-1,0.00,0.00,0.00,0.0000,0.0000,0.0000,0.0000,0.0000,0.0000,0.0000,0.00,0.00,0.00,1.4520,0.9510,0.5440,1.0010,2.7020,0,0.0000,0.0000,0.0000,0.0000,0.0000,0
12043,0.0067,-0.0334,0.0109,-0.0193,0.0278,0.0013,-1.06,0.03,0.02,0,4.091,0.154,-0.077,-0.032,-0.001,-0.014,1.001,0.000,0.000,0.000,0.0120,4,3,0.00,0.00,0.00,0.0000,0.0000,0.0000,0.0000,0.0000,0.0000,0.0000,0.00,0.00,0.00,1.4730,0.9370,0.5440,1.0010,2.6980,0,0.0000,0.0000,0.0000,0.0000,0.0000,0
12095,0.0069,-0.0323,0.0114,-0.0150,0.0271,0.0041,-1.04,0.02,0.02,0,4.086,-0.016,-0.098,-0.017,-0.002,-0.014,1.000,0.000,0.000,0.000,0.0110,0,-1,0.00,0.00,0.00,0.0000,0.0000,0.0000,0.0000,0.0000,0.0000,0.0000,0.00,0.00,0.00,1.4730,0.9370,0.5410,1.0000,2.6980,0,0.0000,0.0000,0.0000,0.0000,0.0000,0
12146,0.0070,-0.0324,0.0114,-0.0111,0.0197,0.0032,-0.93,0.03,0.01,0,4.086,-0.186,0.035,0.096,-0.002,-0.015,1.001,0.000,0.000,0.000,0.0100,-10,1,0.00,0.00,0.00,0.0000,0.0000,0.0000,0.0000,0.0000,0.0000,0.0000,0.00,0.00,0.00,1.4620,0.9460,0.5410,1.0000,2.7000,0,0.0000,0.0000,0.0000,0.0000,0.0000,0
12197,0.0072,-0.0304,0.0110,-0.0076,0.0263,0.0002,-0.89,-0.04,0.02,0,4.086,0.172,0.008,-0.102,-0.001,-0.012,1.000,0.000,0.000,0.000,0.0110,-3,1,0.00,0.00,0.00,0.0000,0.0000,0.0000,0.0000,0.0000,0.0000,0.0000,0.00,0.00,0.00,1.4620,0.9460,0.5420,1.0010,2.7000,0,0.0000,0.0000,0.0000,0.0000,0.0000,0
12249,0.0074,-0.0325,0.0110,-0.0046,0.0102,0.0007,-0.80,-0.03,0.02,0,4.091,0.063,0.018,-0.081,-0.002,-0.013,0.998,0.000,0.000,0.000,0.0100,3,1,0.00,0.00,0.00,0.0000,0.0000,0.0000,0.0000,0.0000,0.0000,0.0000,0.00,0.00,0.00,1.4580,0.9420,0.5420,1.0010,2.6990,0,0.0000,0.0000,0.0000,0.0000,0.0000,0
12300,0.0064,-0.0319,0.0106,-0.0084,0.0102,-0.0019,-0.81,-0.09,0.02,0,4.086,0.005,-0.023,0.234,-0.000,-0.013,0.998,0.000,0.000,0.000,0.0110,4,2,0.00,0.00,0.00,0.0000,0.0000,0.0000,0.0000,0.0000,0.0000,0.0000,0.00,0.00,0.00,1.4580,0.9420,0.5430,1.0010,2.6990,0,0.0000,0.0000,0.0000,0.0000,0.0000,0
12351,0.0075,-0.0246,0.0107,-0.0002,0.0479,-0.0014,-1.02,-0.09,0.02,0,4.086,-0.051,-0.197,0.100,-0.002,-0.015,0.999,0.000,0.000,0.000,0.0110,-7,1,0.00,0.00,0.00,0.0000,0.0000,0.0000,0.0000,0.0000,0.0000,0.0000,0.00,0.00,0.00,1.4530,0.9320,0.5430,1.0010,2.7180,0,0.0000,0.0000,0.0000,0.0000,0.0000,0
12403,0.0071,-0.0221,0.0108,-0.0017,0.0517,-0.0010,-1.21,-0.05,0.02,0,4.086,-0.091,-0.030,0.050,0.001,-0.015,1.000,0.000,0.000,0.000,0.0130,5,0,0.00,0.00,0.00,0.0000,0.0000,0.0000,0.0000,0.0000,0.0000,0.0000,0.00,0.00,0.00,1.4530,0.9320,0.5370,0.9990,2.7180,0,0.0000,0.0000,0.0000,0.0000,0.0000,0
12454,0.0095,-0.0207,0.0119,0.0128,0.0459,0.0051,-1.00,-0.20,0.03,0,4.086,0.008,-0.054,-0.125,-0.000,-0.016,0.998,0.000,0.000,0.000,0.0120,-5,8,0.00,0.00,0.00,0.0000,0.0000,0.0000,0.0000,0.0000,0.0000,0.0000,0.00,0.00,0.00,1.4510,0.9440,0.5370,0.9990,2.7060,0,0.0000,0.0000,0.0000,0.0000,0.0000,0
12506,0.0088,-0.0184,0.0121,0.0067,0.0472,0.0050,-0.96,-0.13,0.03,0,4.086,0.119,0.052,0.146,-0.001,-0.012,1.002,0.000,0.000,0.000,0.0110,11,4,0.00,0.00,0.00,0.0000,0.0000,0.0000,0.0000,0.0000,0.0000,0.0000,0.00,0.00,0.00,1.4510,0.9440,0.5410,1.0000,2.7060,0,0.0000,0.0000,0.0000,0.0000,0.0000,0
12556,0.0096,-0.0205,0.0120,0.0101,0.0257,0.0031,-0.81,-0.12,0.03,0,4.091,0.019,0.059,-0.037,-0.001,-0.015,0.998,0.000,0.000,0.000,0.0120,-15,-3,0.00,0.00,0.00,0.0000,0.0000,0.0000,0.0000,0.0000,0.0000,0.0000,0.00,0.00,0.00,1.4400,0.9390,0.5410,1.0000,2.7090,0,0.0000,0.0000,0.0000,0.0000,0.0000,0
12607,0.0093,-0.0168,0.0121,0.0073,0.0397,0.0030,-0.75,-0.15,0.04,0,4.086,-0.064,-0.243,0.323,-0.002,-0.014,1.001,0.000,0.000,0.000,0.0100,2,8,0.00,0.00,0.00,0.0000,0.0000,0.0000,0.0000,0.0000,0.0000,0.0000,0.00,0.00,0.00,1.4400,0.9390,0.5420,1.0030,2.7090,0,0.0000,0.0000,0.0000,0.0000,0.0000,0
12659,0.0057,-0.0205,0.0114,-0.0123,0.0127,-0.0009,-0.71,-0.05,0.04,0,4.086,0.320,0.065,-0.041,-0.005,-0.013,0.998,0.000,0.000,0.000,0.0110,3,-4,0.00,0.00,0.00,0.0000,0.0000,0.0000,0.0000,0.0000,0.0000,0.0000,0.00,0.00,0.00,1.4460,0.9420,0.5420,1.0030,2.6960,0,0.0000,0.0000,0.0000,0.0000,0.0000,0
12710,0.0073,-0.0203,0.0113,-0.0020,0.0095,-0.0018,-0.66,-0.06,0.04,0,4.086,0.233,0.076,0.353,-0.001,-0.015,0.999,0.000,0.000,0.000,0.0130,14,-5,0.00,0.00,0.00,0.0000,0.0000,0.0000,0.0000,0.0000,0.0000,0.0000,0.00,0.00,0.00,1.4460,0.9420,0.5400,1.0020,2.6960,0,0.0000,0.0000,0.0000,0.0000,0.0000,0
12761,0.0073,-0.0221,0.0120,-0.0014,-0.0043,0.0028,-0.64,-0.04,0.04,0,4.080,0.016,-0.137,0.150,-0.002,-0.016,1.002,0.000,0.000,0.000,0.0110,-19,-10,0.00,0.00,0.00,0.0000,0.0000,0.0000,0.0000,0.0000,0.0000,0.0000,0.00,0.00,0.00,1.4630,0.9430,0.5400,1.0020,2.7040,0,0.0000,0.0000,0.0000,0.0000,0.0000,0
12812,0.0062,-0.0211,0.0117,-0.0063,-0.0004,0.0004,-0.73,-0.13,0.03,0,4.086,0.111,-0.076,0.128,0.001,-0.012,0.998,0.000,0.000,0.000,0.0090,-4,0,0.00,0.00,0.00,0.0000,0.0000,0.0000,0.0000,0.0000,0.0000,0.0000,0.00,0.00,0.00,1.4630,0.9430,0.5410,1.0010,2.7040,0,0.0000,0.0000,0.0000,0.0000,0.0000,0
12863,0.0106,-0.0115,0.0105,0.0173,0.0456,-0.0071,-0.88,-0.20,0.03,0,4.086,-0.190,0.047,-0.127,0.001,-0.012,1.001,0.000,0.000,0.000,0.0120,4,-5,0.00,0.00,0.00,0.0000,0.0000,0.0000,0.0000,0.0000,0.0000,0.0000,0.00,0.00,0.00,1.4490,0.9430,0.5410,1.0010,2.6960,0,0.0000,0.0000,0.0000,0.0000,0.0000,0
12914,0.0108,-0.0123,0.0111,0.0154,0.0319,-0.0021,-0.76,-0.15,0.03,0,4.086,-0.042,-0.277,-0.212,-0.001,-0.013,0.998,0.000,0.000,0.000,0.0110,1,-2,0.00,0.00,0.00,0.0000,0.0000,0.0000,0.0000,0.0000,0.0000,0.0000,0.00,0.00,0.00,1.4490,0.9430,0.5420,1.0020,2.6960,0,0.0000,0.0000,0.0000,0.0000,0.0000,0
12965,0.0117,-0.0195,0.0111,0.0171,-0.0104,-0.0014,-0.48,-0.19,0.03,0,4.080,-0.197,-0.331,0.146,0.000,-0.015,1.002,0.000,0.000,0.000,0.0130,21,-4,0.00,0.00,0.00,0.0000,0.0000,0.0000,0.0000,0.0000,0.0000,0.0000,0.00,0.00,0.00,1.4590,0.9480,0.5420,1.0020,2.7050,0,0.0000,0.0000,0.0000,0.0000,0.0000,0
13016,0.0118,-0.0229,0.0118,0.0151,-0.0294,0.0035,-0.25,-0.16,0.04,0,4.086,0.014,0.191,-0.012,-0.000,-0.015,1.002,0.000,0.000,0.000,0.0100,-5,-3,0.00,0.00,0.00,0.0000,0.0000,0.0000,0.0000,0.0000,0.0000,0.0000,0.00,0.00,0.00,1.4590,0.9480,0.5430,1.0060,2.7050,0,0.0000,0.0000,0.0000,0.0000,0.0000,0
13067,0.0124,-0.0248,0.0112,0.0170,-0.0333,-0.0001,-0.33,-0.05,0.05,0,4.086,-0.007,0.039,0.006,-0.001,-0.011,1.000,0.000,0.000,0.000,0.0130,20,-10,0.00,0.00,0.00,0.0000,0.0000,0.0000,0.0000,0.0000,0.0000,0.0000,0.00,0.00,0.00,1.4620,0.9340,0.5430,1.0060,2.7050,0,0.0000,0.0000,0.0000,0.0000,0.0000,0
13118,0.0141,-0.0292,0.0119,0.0240,-0.0516,0.0033,-0.24,-0.18,0.05,0,4.086,-0.098,-0.076,0.199,-0.000,-0.013,1.001,0.000,0.000,0.000,0.0080,9,8,0.00,0.00,0.00,0.0000,0.0000,0.0000,0.0000,0.0000,0.0000,0.0000,0.00,0.00,0.00,1.4620,0.9340,0.5390,1.0030,2.7050,0,0.0000,0.0000,0.0000,0.0000,0.0000,0
13168,0.0138,-0.0354,0.0104,0.0175,-0.0750,-0.0057,-0.11,-0.21,0.05,0,4.086,-0.041,0.102,-0.106,-0.001,-0.013,0.999,0.000,0.000,0.000,0.0110,2,0,0.00,0.00,0.00,0.0000,0.0000,0.0000,0.0000,0.0000,0.0000,0.0000,0.00,0.00,0.00,1.4550,0.9430,0.5390,1.0030,2.7030,0,0.0000,0.0000,0.0000,0.0000,0.0000,0
13220,0.0155,-0.0347,0.0107,0.0221,-0.0574,-0.0030,-0.32,-0.12,0.05,0,4.086,-0.009,0.052,-0.068,-0.002,-0.012,1.000,0.000,0.000,0.000,0.0100,2,0,0.00,0.00,0.00,0.0000,0.0000,0.0000,0.0000,0.0000,0.0000,0.0000,0.00,0.00,0.00,1.4550,0.9430,0.5400,1.0030,2.7030,0,0.0000,0.0000,0.0000,0.0000,0.0000,0
13271,0.0155,-0.0347,0.0105,0.0183,-0.0474,-0.0032,0.08,-0.17,0.05,0,4.086,-0.050,0.195,0.192,-0.001,-0.013,1.000,0.000,0.000,0.000,0.0110,0,4,0.00,0.00,0.00,0.0000,0.0000,0.0000,0.0000,0.0000,0.0000,0.0000,0.00,0.00,0.00,1.4580,0.9440,0.5400,1.0030,2.7020,0,0.0000,0.0000,0.0000,0.0000,0.0000,0
13322,0.0157,-0.0457,0.0106,0.0152,-0.0893,-0.0020,-0.11,-0.18,0.06,0,4.086,-0.007,-0.061,-0.101,-0.000,-0.015,1.001,0.000,0.000,0.000,0.0120,-17,-14,0.00,0.00,0.00,0.0000,0.0000,0.0000,0.0000,0.0000,0.0000,0.0000,0.00,0.00,0.00,1.4580,0.9440,0.5360,0.9990,2.7020,0,0.0000,0.0000,0.0000,0.0000,0.0000,0
13373,0.0188,-0.0430,0.0117,0.0281,-0.0560,0.0051,-0.61,-0.16,0.05,0,4.086,-0.037,-0.049,0.087,-0.001,-0.015,1.001,0.000,0.000,0.000,0.0110,9,-4,0.00,0.00,0.00,0.0000,0.0000,0.0000,0.0000,0.0000,0.0000,0.0000,0.00,0.00,0.00,1.4420,0.9470,0.5360,0.9990,2.7050,0,0.0000,0.0000,0.0000,0.0000,0.0000,0
13424,0.0190,-0.0408,0.0118,0.0237,-0.0356,0.0040,-0.62,-0.11,0.06,0,4.086,0.132,-0.329,-0.150,-0.000,-0.013,1.000,0.000,0.000,0.000,0.0140,2,1,0.00,0.00,0.00,0.0000,0.0000,0.0000,0.0000,0.0000,0.0000,0.0000,0.00,0.00,0.00,1.4420,0.9470,0.5410,0.9960,2.7050,0,0.0000,0.0000,0.0000,0.0000,0.0000,0
13475,0.0179,-0.0396,0.0129,0.0140,-0.0234,0.0093,-0.73,-0.07,0.06,0,4.091,-0.173,-0.116,-0.010,-0.000,-0.012,1.001,0.000,0.000,0.000,0.0150,-4,-3,0.00,0.00,0.00,0.0000,0.0000,0.0000,0.0000,0.0000,0.0000,0.0000,0.00,0.00,0.00,1.4540,0.9400,0.5410,0.9960,2.7050,0,0.0000,0.0000,0.0000,0.0000,0.0000,0
13526,0.0179,-0.0375,0.0141,0.0107,-0.0071,0.0138,-0.71,-0.03,0.06,0,4.086,-0.260,-0.113,-0.006,-0.000,-0.013,0.999,0.000,0.000,0.000,0.0120,-32,-1,0.00,0.00,0.00,0.0000,0.0000,0.0000,0.0000,0.0000,0.0000,0.0000,0.00,0.00,0.00,1.4540,0.9400,0.5400,1.0020,2.7050,0,0.0000,0.0000,0.0000,0.0000,0.0000,0
13577,0.0184,-0.0308,0.0136,0.0102,0.0343,0.0072,-1.08,-0.04,0.06,0,4.086,-0.226,-0.135,0.079,-0.004,-0.011,0.999,0.000,0.000,0.000,0.0110,12,0,0.00,0.00,0.00,0.0000,0.0000,0.0000,0.0000,0.0000,0.0000,0.0000,0.00,0.00,0.00,1.4590,0.9360,0.5400,1.0020,2.7110,0,0.0000,0.0000,0.0000,0.0000,0.0000,0
13628,0.0214,-0.0281,0.0127,0.0222,0.0423,0.0010,-1.09,-0.13,0.06,0,4.086,0.006,0.070,0.148,-0.003,-0.010,1.003,0.000,0.000,0.000,0.0090,-7,-27,0.00,0.00,0.00,0.0000,0.0000,0.0000,0.0000,0.0000,0.0000,0.0000,0.00,0.00,0.00,1.4590,0.9360,0.5410,0.9960,2.7110,0,0.0000,0.0000,0.0000,0.0000,0.0000,0
13679,0.0257,-0.0278,0.0112,0.0418,0.0379,-0.0077,-1.02,-0.24,0.06,0,4.086,-0.291,0.321,0.130,-0.001,-0.014,1.000,0.000,0.000,0.000,0.0110,2,-6,0.00,0.00,0.00,0.0000,0.0000,0.0000,0.0000,0.0000,0.0000,0.0000,0.00,0.00,0.00,1.4620,0.9460,0.5410,0.9960,2.7120,0,0.0000,0.0000,0.0000,0.0000,0.0000,0
13730,0.0232,-0.0276,0.0112,0.0216,0.0324,-0.0053,-0.99,-0.07,0.05,0,4.086,-0.049,-0.019,-0.263,-0.001,-0.014,1.000,0.000,0.000,0.000,0.0090,-3,-2,0.00,0.00,0.00,0.0000,0.0000,0.0000,0.0000,0.0000,0.0000,0.0000,0.00,0.00,0.00,1.4620,0.9460,0.5380,0.9990,2.7120,0,0.0000,0.0000,0.0000,0.0000,0.0000,0
13781,0.0230,-0.0223,0.0100,0.0165,0.0533,-0.0105,-1.30,-0.09,0.06,0,4.091,0.082,-0.015,0.254,-0.002,-0.014,0.998,0.000,0.000,0.000,0.0120,8,-8,0.00,0.00,0.00,0.0000,0.0000,0.0000,0.0000,0.0000,0.0000,0.0000,0.00,0.00,0.00,1.4670,0.9410,0.5380,0.9990,2.7160,0,0.0000,0.0000,0.0000,0.0000,0.0000,0
13832,0.0244,-0.0171,0.0105,0.0202,0.0668,-0.0053,-1.26,-0.12,0.06,0,4.086,0.201,0.007,0.148,-0.002,-0.012,0.997,0.000,0.000,0.000,0.0110,6,5,0.00,0.00,0.00,0.0000,0.0000,0.0000,0.0000,0.0000,0.0000,0.0000,0.00,0.00,0.00,1.4670,0.9410,0.5400,1.0010,2.7160,0,0.0000,0.0000,0.0000,0.0000,0.0000,0
13883,0.0228,-0.0160,0.0108,0.0072,0.0579,-0.0027,-1.07,-0.01,0.05,0,4.091,-0.123,0.104,0.127,-0.000,-0.013,0.999,0.000,0.000,0.000,0.0110,-28,-7,0.00,0.00,0.00,0.0000,0.0000,0.0000,0.0000,0.0000,0.0000,0.0000,0.00,0.00,0.00,1.4470,0.9470,0.5400,1.0010,2.7090,0,0.0000,0.0000,0.0000,0.0000,0.0000,0
13934,0.0245,-0.0097,0.0106,0.0142,0.0814,-0.0042,-1.28,-0.06,0.06,0,4.086,-0.088,0.148,0.309,-0.001,-0.013,0.999,0.000,0.000,0.000,0.0110,-7,-2,0.00,0.00,0.00,0.0000,0.0000,0.0000,0.0000,0.0000,0.0000,0.0000,0.00,0.00,0.00,1.4470,0.9470,0.5430,1.0020,2.7090,0,0.0000,0.0000,0.0000,0.0000,0.0000,0
13985,0.0249,-0.0086,0.0109,0.0131,0.0687,-0.0012,-1.02,-0.03,0.05,0,4.086,-0.318,-0.135,-0.110,-0.002,-0.016,1.000,0.000,0.000,0.000,0.0100,16,0,0.00,0.00,0.00,0.0000,0.0000,0.0000,0.0000,0.0000,0.0000,0.0000,0.00,0.00,0.00,1.4480,0.9450,0.5430,1.0020,2.7020,0,0.0000,0.0000,0.0000,0.0000,0.0000,0
14036,0.0242,-0.0120,0.0108,0.0066,0.0373,-0.0011,-0.60,-0.04,0.05,0,4.086,0.218,-0.127,0.016,-0.001,-0.015,1.002,0.000,0.000,0.000,0.0120,8,6,0.00,0.00,0.00,0.0000,0.0000,0.0000,0.0000,0.0000,0.0000,0.0000,0.00,0.00,0.00,1.4480,0.9450,0.5400,1.0030,2.7020,0,0.0000,0.0000,0.0000,0.0000,0.0000,0
14087,0.0246,-0.0184,0.0113,0.0068,-0.0022,0.0026,-0.55,-0.00,0.05,0,4.091,0.227,-0.007,-0.184,-0.003,-0.014,1.000,0.000,0.000,0.000,0.0090,-2,0,0.00,0.00,0.00,0.0000,0.0000,0.0000,0.0000,0.0000,0.0000,0.0000,0.00,0.00,0.00,1.4500,0.9390,0.5400,1.0030,2.7130,0,0.0000,0.0000,0.0000,0.0000,0.0000,0
14138,0.0252,-0.0170,0.0105,0.0080,0.0040,-0.0025,-0.57,-0.05,0.05,0,4.086,-0.055,0.070,-0.243,0.000,-0.013,1.001,0.000,0.000,0.000,0.0130,-22,15,0.00,0.00,0.00,0.0000,0.0000,0.0000,0.0000,0.0000,0.0000,0.0000,0.00,0.00,0.00,1.4500,0.9390,0.5390,1.0010,2.7130,0,0.0000,0.0000,0.0000,0.0000,0.0000,0
14189,0.0228,-0.0136,0.0116,-0.0075,0.0222,0.0035,-0.58,0.11,0.05,0,4.091,-0.241,0.206,-0.312,0.002,-0.011,1.001,0.000,0.000,0.000,0.0120,-2,-2,0.00,0.00,0.00,0.0000,0.0000,0.0000,0.0000,0.0000,0.0000,0.0000,0.00,0.00,0.00,1.4680,0.9310,0.5390,1.0010,2.6970,0,0.0000,0.0000,0.0000,0.0000,0.0000,0
14240,0.0222,-0.0170,0.0120,-0.0089,0.0015,0.0053,-0.59,0.09,0.05,0,4.086,-0.118,0.044,0.075,-0.001,-0.013,1.001,0.000,0.000,0.000,0.0120,0,0,0.00,0.00,0.00,0.0000,0.0000,0.0000,0.0000,0.0000,0.0000,0.0000,0.00,0.00,0.00,1.4680,0.9310,0.5410,1.0010,2.6970,0,0.0000,0.0000,0.0000,0.0000,0.0000,0
14291,0.0227,-0.0185,0.0122,-0.0043,-0.0074,0.0048,-0.59,0.06,0.05,0,4.086,-0.024,-0.198,-0.141,-0.003,-0.014,1.000,0.000,0.000,0.000,0.0120,16,-14,0.00,0.00,0.00,0.0000,0.0000,0.0000,0.0000,0.0000,0.0000,0.0000,0.00,0.00,0.00,1.4590,0.9440,0.5410,1.0010,2.7130,0,0.0000,0.0000,0.0000,0.0000,0.0000,0
14342,0.0247,-0.0220,0.0123,0.0075,-0.0267,0.0049,-0.57,0.00,0.04,0,4.086,-0.032,0.104,-0.162,0.001,-0.014,1.001,0.000,0.000,0.000,0.0120,-11,-3,0.00,0.00,0.00,0.0000,0.0000,0.0000,0.0000,0.0000,0.0000,0.0000,0.00,0.00,0.00,1.4590,0.9440,0.5400,1.0010,2.7130,0,0.0000,0.0000,0.0000,0.0000,0.0000,0
14393,0.0236,-0.0104,0.0124,0.0013,0.0375,0.0037,-0.93,-0.03,0.05,0,4.091,-0.042,-0.259,-0.040,0.001,-0.013,0.999,0.000,0.000,0.000,0.0100,4,1,0.00,0.00,0.00,0.0000,0.0000,0.0000,0.0000,0.0000,0.0000,0.0000,0.00,0.00,0.00,1.4600,0.9390,0.5400,1.0010,2.7170,0,0.0000,0.0000,0.0000,0.0000,0.0000,0
14445,0.0245,-0.0074,0.0116,0.0054,0.0429,-0.0012,-0.99,0.02,0.05,0,4.086,-0.275,-0.115,0.025,-0.000,-0.014,0.999,0.000,0.000,0.000,0.0100,-1,-1,0.00,0.00,0.00,0.0000,0.0000,0.0000,0.0000,0.0000,0.0000,0.0000,0.00,0.00,0.00,1.4600,0.9390,0.5440,1.0010,2.7170,0,0.0000,0.0000,0.0000,0.0000,0.0000,0
14496,0.0238,-0.0054,0.0109,0.0007,0.0431,-0.0051,-0.89,-0.02,0.05,0,4.091,-0.237,-0.090,0.304,0.000,-0.009,1.000,0.000,0.000,0.000,0.0110,-4,-5,0.00,0.00,0.00,0.0000,0.0000,0.0000,0.0000,0.0000,0.0000,0.0000,0.00,0.00,0.00,1.4480,0.9410,0.5440,1.0010,2.7070,0,0.0000,0.0000,0.0000,0.0000,0.0000,0
14547,0.0251,-0.0044,0.0108,0.0078,0.0396,-0.0040,-0.80,-0.06,0.05,0,4.086,0.148,-0.150,0.126,-0.001,-0.013,0.999,0.000,0.000,0.000,0.0100,12,2,0.00,0.00,0.00,0.0000,0.0000,0.0000,0.0000,0.0000,0.0000,0.0000,0.00,0.00,0.00,1.4480,0.9410,0.5400,1.0050,2.7070,0,0.0000,0.0000,0.0000,0.0000,0.0000,0
14598,0.0236,-0.0090,0.0105,-0.0015,0.0075,-0.0044,-0.59,0.00,0.04,0,4.091,-0.214,0.211,-0.087,0.001,-0.013,1.000,0.000,0.000,0.000,0.0090,1,-4,0.00,0.00,0.00,0.0000,0.0000,0.0000,0.0000,0.0000,0.0000,0.0000,0.00,0.00,0.00,1.4680,0.9510,0.5400,1.0050,2.7010,0,0.0000,0.0000,0.0000,0.0000,0.0000,0
14649,0.0236,-0.0130,0.0097,-0.0005,-0.0144,-0.0070,-0.55,0.03,0.04,0,4.080,-0.117,-0.062,0.242,-0.002,-0.013,0.999,0.000,0.000,0.000,0.0100,3,4,0.00,0.00,0.00,0.0000,0.0000,0.0000,0.0000,0.0000,0.0000,0.0000,0.00,0.00,0.00,1.4680,0.9510,0.5420,1.0050,2.7010,0,0.0000,0.0000,0.0000,0.0000,0.0000,0
14700,0.0217,-0.0129,0.0096,-0.0105,-0.0137,-0.0060,-0.58,0.02,0.04,0,4.091,-0.068,0.044,-0.091,-0.002,-0.012,0.998,0.000,0.000,0.000,0.0130,0,0,0.00,0.00,0.00,0.0000,0.0000,0.0000,0.0000,0.0000,0.0000,0.0000,0.00,0.00,0.00,1.4480,0.9480,0.5420,1.0050,2.7100,0,0.0000,0.0000,0.0000,0.0000,0.0000,0
14752,0.0224,-0.0129,0.0109,-0.0056,-0.0135,0.0015,-0.51,0.02,0.04,0,4.086,0.096,0.155,0.012,0.001,-0.015,1.001,0.000,0.000,0.000,0.0100,2,3,0.00,0.00,0.00,0.0000,0.0000,0.0000,0.0000,0.0000,0.0000,0.0000,0.00,0.00,0.00,1.4480,0.9480,0.5420,1.0020,2.7100,0,0.0000,0.0000,0.0000,0.0000,0.0000,0
14803,0.0217,-0.0137,0.0105,-0.0080,-0.0166,-0.0006,-0.57,-0.05,0.04,0,4.091,-0.380,0.120,0.384,-0.001,-0.013,1.002,0.000,0.000,0.000,0.0090,-8,1,0.00,0.00,0.00,0.0000,0.0000,0.0000,0.0000,0.0000,0.0000,0.0000,0.00,0.00,0.00,1.4670,0.9500,0.5420,1.0020,2.7040,0,0.0000,0.0000,0.0000,0.0000,0.0000,0
14854,0.0227,-0.0130,0.0099,-0.0024,-0.0113,-0.0037,-0.56,-0.03,0.04,0,4.080,-0.030,0.094,0.119,-0.000,-0.015,1.001,0.000,0.000,0.000,0.0110,2,-8,0.00,0.00,0.00,0.0000,0.0000,0.0000,0.0000,0.0000,0.0000,0.0000,0.00,0.00,0.00,1.4670,0.9500,0.5420,1.0020,2.7040,0,0.0000,0.0000,0.0000,0.0000,0.0000,0
14905,0.0234,-0.0130,0.0103,0.0023,-0.0107,-0.0004,-0.61,-0.06,0.05,0,4.086,-0.160,-0.123,0.169,0.002,-0.012,0.999,0.000,0.000,0.000,0.0110,-14,-1,0.00,0.00,0.00,0.0000,0.0000,0.0000,0.0000,0.0000,0.0000,0.0000,0.00,0.00,0.00,1.4440,0.9400,0.5420,1.0020,2.6910,0,0.0000,0.0000,0.0000,0.0000,0.0000,0
14956,0.0229,-0.0096,0.0107,-0.0002,0.0076,0.0012,-0.57,-0.04,0.05,0,4.080,-0.019,-0.019,0.210,-0.000,-0.012,1.002,0.000,0.000,0.000,0.0110,-7,0,0.00,0.00,0.00,0.0000,0.0000,0.0000,0.0000,0.0000,0.0000,0.0000,0.00,0.00,0.00,1.4440,0.9400,0.5490,1.0030,2.6910,0,0.0000,0.0000,0.0000,0.0000,0.0000,0
15007,0.0222,-0.0101,0.0109,-0.0037,0.0056,0.0023,-0.63,0.00,0.05,0,4.091,0.066,0.072,-0.124,0.000,-0.011,1.000,0.000,0.000,0.000,0.0100,-5,-3,0.00,0.00,0.00,0.0000,0.0000,0.0000,0.0000,0.0000,0.0000,0.0000,0.00,0.00,0.00,1.4620,0.9420,0.5490,1.0030,2.7010,0,0.0000,0.0000,0.0000,0.0000,0.0000,0
15058,0.0234,-0.0117,0.0106,0.0032,-0.0025,0.0002,-0.59,-0.06,0.05,0,4.080,0.199,-0.338,-0.198,0.001,-0.010,1.001,0.000,0.000,0.000,0.0130,9,0,0.00,0.00,0.00,0.0000,0.0000,0.0000,0.0000,0.0000,0.0000,0.0000,0.00,0.00,0.00,1.4620,0.9420,0.5410,1.0020,2.7010,0,0.0000,0.0000,0.0000,0.0000,0.0000,0
15108,0.0233,-0.0131,0.0117,0.0034,-0.0093,0.0055,-0.62,-0.04,0.05,0,4.086,-0.041,-0.018,-0.173,-0.001,-0.013,0.998,0.000,0.000,0.000,0.0140,0,0,0.00,0.00,0.00,0.0000,0.0000,0.0000,0.0000,0.0000,0.0000,0.0000,0.00,0.00,0.00,0.0000,0.9400,0.5410,1.0020,2.7090,0,0.0000,0.0000,0.0000,0.0000,0.0000,0
15160,0.0222,-0.0130,0.0129,-0.0033,-0.0083,0.0100,-0.63,0.01,0.05,0,4.086,-0.009,0.020,0.018,0.000,-0.013,0.998,0.000,0.000,0.000,0.0100,-4,5,0.00,0.00,0.00,0.0000,0.0000,0.0000,0.0000,0.0000,0.0000,0.0000,0.00,0.00,0.00,0.0000,0.9400,0.5460,0.9990,2.7090,0,0.0000,0.0000,0.0000,0.0000,0.0000,0
15212,0.0222,-0.0123,0.0120,-0.0027,-0.0035,0.0022,-0.61,-0.03,0.05,0,4.086,0.313,0.328,-0.033,-0.003,-0.012,0.999,0.000,0.000,0.000,0.0130,-7,0,0.00,0.00,0.00,0.0000,0.0000,0.0000,0.0000,0.0000,0.0000,0.0000,0.00,0.00,0.00,1.4550,0.9310,0.5460,0.9990,2.6980,0,0.0000,0.0000,0.0000,0.0000,0.0000,0
15263,0.0226,-0.0130,0.0125,-0.0005,-0.0073,0.0041,-0.62,-0.05,0.05,0,4.080,0.116,-0.226,0.012,-0.000,-0.012,1.000,0.000,0.000,0.000,0.0090,-2,-3,0.00,0.00,0.00,0.0000,0.0000,0.0000,0.0000,0.0000,0.0000,0.0000,0.00,0.00,0.00,1.4550,0.9310,0.5430,1.0010,2.6980,0,0.0000,0.0000,0.0000,0.0000,0.0000,0
15314,0.0229,-0.0113,0.0111,0.0009,0.0020,-0.0041,-0.62,-0.03,0.04,0,4.091,0.118,0.065,0.237,-0.001,-0.011,0.998,0.000,0.000,0.000,0.0090,-6,4,0.00,0.00,0.00,0.0000,0.0000,0.0000,0.0000,0.0000,0.0000,0.0000,0.00,0.00,0.00,1.4660,0.9480,0.5430,1.0010,2.7050,0,0.0000,0.0000,0.0000,0.0000,0.0000,0
15365,0.0214,-0.0116,0.0101,-0.0074,0.0011,-0.0087,-0.66,0.01,0.04,0,4.086,-0.050,0.027,0.104,-0.001,-0.012,1.000,0.000,0.000,0.000,0.0110,-7,0,0.00,0.00,0.00,0.0000,0.0000,0.0000,0.0000,0.0000,0.0000,0.0000,0.00,0.00,0.00,1.4660,0.9480,0.5410,0.9990,2.7050,0,0.0000,0.0000,0.0000,0.0000,0.0000,0
15417,0.0214,-0.0108,0.0102,-0.0067,0.0052,-0.0058,-0.69,-0.09,0.05,0,4.091,-0.085,0.171,0.182,-0.004,-0.013,1.000,0.000,0.000,0.000,0.0100,-3,0,0.00,0.00,0.00,0.0000,0.0000,0.0000,0.0000,0.0000,0.0000,0.0000,0.00,0.00,0.00,1.4530,0.9470,0.5410,0.9990,2.7040,0,0.0000,0.0000,0.0000,0.0000,0.0000,0
15468,0.0221,-0.0111,0.0100,-0.0030,0.0038,-0.0055,-0.63,-0.09,0.05,0,4.086,0.007,0.231,-0.007,0.001,-0.012,1.000,0.000,0.000,0.000,0.0110,-17,-1,0.00,0.00,0.00,0.0000,0.0000,0.0000,0.0000,0.0000,0.0000,0.0000,0.00,0.00,0.00,1.4530,0.9470,0.5470,0.9980,2.7040,0,0.0000,0.0000,0.0000,0.0000,0.0000,0
15519,0.0219,-0.0079,0.0103,-0.0034,0.0201,-0.0020,-1.00,-0.04,0.05,0,4.086,-0.178,-0.118,0.146,-0.002,-0.012,0.999,0.000,0.000,0.000,0.0130,9,-5,0.00,0.00,0.00,0.0000,0.0000,0.0000,0.0000,0.0000,0.0000,0.0000,0.00,0.00,0.00,1.4560,0.9400,0.5470,0.9980,2.7070,0,0.0000,0.0000,0.0000,0.0000,0.0000,0
15571,0.0229,-0.0051,0.0115,0.0017,0.0270,0.0046,-0.93,-0.03,0.05,0,4.080,0.136,0.019,-0.242,0.000,-0.012,1.000,0.000,0.000,0.000,0.0060,0,1,0.00,0.00,0.00,0.0000,0.0000,0.0000,0.0000,0.0000,0.0000,0.0000,0.00,0.00,0.00,1.4560,0.9400,0.5400,1.0020,2.7070,0,0.0000,0.0000,0.0000,0.0000,0.0000,0
15622,0.0222,-0.0063,0.0093,-0.0010,0.0139,-0.0076,-0.85,-0.02,0.05,0,4.091,-0.320,-0.007,0.070,-0.002,-0.014,0.999,0.000,0.000,0.000,0.0110,0,-1,0.00,0.00,0.00,0.0000,0.0000,0.0000,0.0000,0.0000,0.0000,0.0000,0.00,0.00,0.00,1.4590,0.9410,0.5400,1.0020,2.7020,0,0.0000,0.0000,0.0000,0.0000,0.0000,0
15674,0.0218,-0.0035,0.0099,-0.0025,0.0243,-0.0029,-0.81,-0.06,0.06,0,4.086,0.207,0.156,0.137,-0.001,-0.013,1.000,0.000,0.000,0.000,0.0120,1,-10,0.00,0.00,0.00,0.0000,0.0000,0.0000,0.0000,0.0000,0.0000,0.0000,0.00,0.00,0.00,1.4590,0.9410,0.5380,1.0030,2.7020,0,0.0000,0.0000,0.0000,0.0000,0.0000,0
15725,0.0240,-0.0036,0.0107,0.0103,0.0178,0.0021,-0.74,-0.07,0.05,0,4.086,0.148,0.014,-0.105,-0.001,-0.013,0.999,0.000,0.000,0.000,0.0110,-2,-3,0.00,0.00,0.00,0.0000,0.0000,0.0000,0.0000,0.0000,0.0000,0.0000,0.00,0.00,0.00,1.4500,0.9470,0.5380,1.0030,2.7090,0,0.0000,0.0000,0.0000,0.0000,0.0000,0
15776,0.0216,-0.0032,0.0109,-0.0026,0.0160,0.0027,-0.72,-0.06,0.05,0,4.086,0.168,-0.456,0.074,-0.002,-0.011,1.002,0.000,0.000,0.000,0.0130,10,5,0.00,0.00,0.00,0.0000,0.0000,0.0000,0.0000,0.0000,0.0000,0.0000,0.00,0.00,0.00,1.4500,0.9470,0.5440,1.0060,2.7090,0,0.0000,0.0000,0.0000,0.0000,0.0000,0
15827,0.0216,-0.0070,0.0119,-0.0019,-0.0084,0.0072,-0.72,-0.02,0.05,0,4.086,-0.173,0.147,-0.128,-0.002,-0.012,1.000,0.000,0.000,0.000,0.0110,-17,-3,0.00,0.00,0.00,0.0000,0.0000,0.0000,0.0000,0.0000,0.0000,0.0000,0.00,0.00,0.00,1.4520,0.9440,0.5440,1.0060,2.7120,0,0.0000,0.0000,0.0000,0.0000,0.0000,0
15878,0.0204,0.0002,0.0118,-0.0073,0.0301,0.0047,-0.82,0.01,0.05,0,4.080,-0.016,-0.010,-0.016,-0.001,-0.012,0.999,0.000,0.000,0.000,0.0120,16,-6,0.00,0.00,0.00,0.0000,0.0000,0.0000,0.0000,0.0000,0.0000,0.0000,0.00,0.00,0.00,1.4520,0.9440,0.5390,0.9970,2.7120,0,0.0000,0.0000,0.0000,0.0000,0.0000,0
15929,0.0202,-0.0005,0.0122,-0.0058,0.0174,0.0062,-0.78,-0.00,0.05,0,4.086,-0.036,-0.258,-0.240,0.000,-0.015,1.000,0.000,0.000,0.000,0.0150,9,-9,0.00,0.00,0.00,0.0000,0.0000,0.0000,0.0000,0.0000,0.0000,0.0000,0.00,0.00,0.00,0.0000,0.9460,0.5390,0.9970,2.7150,0,0.0000,0.0000,0.0000,0.0000,0.0000,0
15980,0.0182,0.0030,0.0135,-0.0148,0.0321,0.0110,-0.79,-0.02,0.05,0,4.080,0.037,0.081,0.098,0.001,-0.013,1.000,0.000,0.000,0.000,0.0080,-2,0,0.00,0.00,0.00,0.0000,0.0000,0.0000,0.0000,0.0000,0.0000,0.0000,0.00,0.00,0.00,0.0000,0.9460,0.5440,1.0000,2.7150,0,0.0000,0.0000,0.0000,0.0000,0.0000,0
16031,0.0182,0.0033,0.0116,-0.0111,0.0251,-0.0023,-0.79,-0.03,0.05,0,4.086,0.162,-0.056,-0.073,0.001,-0.011,1.000,0.000,0.000,0.000,0.0110,0,0,0.00,0.00,0.00,0.0000,0.0000,0.0000,0.0000,0.0000,0.0000,0.0000,0.00,0.00,0.00,1.4400,0.9450,0.5440,1.0000,2.7090,0,0.0000,0.0000,0.0000,0.0000,0.0000,0
16082,0.0201,0.0044,0.0113,0.0011,0.0252,-0.0028,-0.72,-0.05,0.05,0,4.086,0.082,-0.018,0.164,-0.000,-0.014,0.999,0.000,0.000,0.000,0.0120,4,2,0.00,0.00,0.00,0.0000,0.0000,0.0000,0.0000,0.0000,0.0000,0.0000,0.00,0.00,0.00,1.4400,0.9450,0.5420,1.0030,2.7090,0,0.0000,0.0000,0.0000,0.0000,0.0000,0
16133,0.0191,0.0050,0.0116,-0.0040,0.0237,-0.0007,-0.77,-0.07,0.05,0,4.086,0.054,0.089,-0.064,-0.001,-0.014,0.999,0.000,0.000,0.000,0.0120,33,-9,0.00,0.00,0.00,0.0000,0.0000,0.0000,0.0000,0.0000,0.0000,0.0000,0.00,0.00,0.00,1.4570,0.9310,0.5420,1.0030,2.6980,0,0.0000,0.0000,0.0000,0.0000,0.0000,0
16184,0.0204,-0.0039,0.0118,0.0051,-0.0321,0.0008,-0.29,-0.16,0.05,0,4.080,-0.046,-0.079,0.003,-0.000,-0.012,1.000,0.000,0.000,0.000,0.0090,0,-1,0.00,0.00,0.00,0.0000,0.0000,0.0000,0.0000,0.0000,0.0000,0.0000,0.00,0.00,0.00,1.4570,0.9310,0.5370,1.0000,2.6980,0,0.0000,0.0000,0.0000,0.0000,0.0000,0
16235,0.0216,-0.0067,0.0106,0.0113,-0.0416,-0.0057,-0.38,-0.17,0.04,0,4.091,0.069,0.162,-0.108,0.000,-0.013,1.001,0.000,0.000,0.000,0.0100,-5,0,0.00,0.00,0.00,0.0000,0.0000,0.0000,0.0000,0.0000,0.0000,0.0000,0.00,0.00,0.00,1.4590,0.9420,0.5370,1.0000,2.7060,0,0.0000,0.0000,0.0000,0.0000,0.0000,0
16287,0.0212,-0.0092,0.0103,0.0077,-0.0460,-0.0054,-0.27,-0.10,0.05,0,4.080,0.226,-0.018,-0.154,0.000,-0.014,1.000,0.000,0.000,0.000,0.0130,-6,0,0.00,0.00,0.00,0.0000,0.0000,0.0000,0.0000,0.0000,0.0000,0.0000,0.00,0.00,0.00,1.4590,0.9420,0.5430,1.0030,2.7060,0,0.0000,0.0000,0.0000,0.0000,0.0000,0
16338,0.0213,-0.0121,0.0113,0.0066,-0.0527,0.0008,-0.27,-0.11,0.05,0,4.086,0.122,-0.235,0.102,-0.000,-0.010,1.000,0.000,0.000,0.000,0.0110,8,-6,0.00,0.00,0.00,0.0000,0.0000,0.0000,0.0000,0.0000,0.0000,0.0000,0.00,0.00,0.00,1.4640,0.9370,0.5430,1.0030,2.7140,0,0.0000,0.0000,0.0000,0.0000,0.0000,0
16390,0.0209,-0.0121,0.0113,0.0044,-0.0428,0.0009,-0.43,-0.11,0.04,0,4.086,-0.156,-0.087,-0.116,-0.001,-0.014,1.001,0.000,0.000,0.000,0.0100,-10,-4,0.00,0.00,0.00,0.0000,0.0000,0.0000,0.0000,0.0000,0.0000,0.0000,0.00,0.00,0.00,1.4640,0.9370,0.5460,0.9990,2.7140,0,0.0000,0.0000,0.0000,0.0000,0.0000,0
16441,0.0205,-0.0091,0.0109,0.0013,-0.0176,-0.0015,-0.76,-0.08,0.04,0,4.091,-0.108,-0.155,-0.096,0.001,-0.013,1.000,0.000,0.000,0.000,0.0130,-4,-5,0.00,0.00,0.00,0.0000,0.0000,0.0000,0.0000,0.0000,0.0000,0.0000,0.00,0.00,0.00,1.4500,0.9430,0.5460,0.9990,2.7030,0,0.0000,0.0000,0.0000,0.0000,0.0000,0
16491,0.0211,-0.0041,0.0117,0.0043,0.0113,0.0036,-0.73,-0.12,0.04,0,4.080,-0.241,0.134,-0.081,-0.002,-0.013,0.999,0.000,0.000,0.000,0.0110,21,1,0.00,0.00,0.00,0.0000,0.0000,0.0000,0.0000,0.0000,0.0000,0.0000,0.00,0.00,0.00,1.4500,0.9430,0.5440,0.9980,2.7030,0,0.0000,0.0000,0.0000,0.0000,0.0000,0
16543,0.0230,-0.0100,0.0116,0.0142,-0.0246,0.0016,-0.47,-0.16,0.04,0,4.091,0.283,0.220,-0.068,0.001,-0.012,1.001,0.000,0.000,0.000,0.0120,3,-2,0.00,0.00,0.00,0.0000,0.0000,0.0000,0.0000,0.0000,0.0000,0.0000,0.00,0.00,0.00,1.4420,0.9400,0.5440,0.9980,2.7080,0,0.0000,0.0000,0.0000,0.0000,0.0000,0
16594,0.0225,-0.0080,0.0119,0.0087,-0.0090,0.0023,-0.65,-0.09,0.04,0,4.086,-0.259,-0.047,0.103,-0.001,-0.014,0.999,0.000,0.000,0.000,0.0120,22,-1,0.00,0.00,0.00,0.0000,0.0000,0.0000,0.0000,0.0000,0.0000,0.0000,0.00,0.00,0.00,1.4420,0.9400,0.5410,1.0020,2.7080,0,0.0000,0.0000,0.0000,0.0000,0.0000,0
16645,0.0231,-0.0113,0.0120,0.0109,-0.0275,0.0018,-0.49,-0.12,0.04,0,4.086,0.049,-0.072,0.032,-0.001,-0.014,1.001,0.000,0.000,0.000,0.0100,3,-1,0.00,0.00,0.00,0.0000,0.0000,0.0000,0.0000,0.0000,0.0000,0.0000,0.00,0.00,0.00,1.4530,0.9360,0.5410,1.0020,2.7040,0,0.0000,0.0000,0.0000,0.0000,0.0000,0
16696,0.0242,-0.0114,0.0113,0.0145,-0.0230,-0.0023,-0.69,-0.14,0.04,0,4.086,-0.052,0.080,0.059,-0.002,-0.015,1.002,0.000,0.000,0.000,0.0110,5,7,0.00,0.00,0.00,0.0000,0.0000,0.0000,0.0000,0.0000,0.0000,0.0000,0.00,0.00,0.00,1.4530,0.9360,0.5420,1.0000,2.7040,0,0.0000,0.0000,0.0000,0.0000,0.0000,0
16747,0.0239,-0.0094,0.0112,0.0090,-0.0099,-0.0021,-0.73,-0.10,0.04,0,4.086,0.263,0.058,-0.048,-0.001,-0.013,1.000,0.000,0.000,0.000,0.0120,14,-9,0.00,0.00,0.00,0.0000,0.0000,0.0000,0.0000,0.0000,0.0000,0.0000,0.00,0.00,0.00,1.4450,0.9470,0.5420,1.0000,2.7030,0,0.0000,0.0000,0.0000,0.0000,0.0000,0
16798,0.0253,-0.0114,0.0115,0.0149,-0.0202,-0.0004,-0.32,-0.15,0.04,0,4.080,-0.096,-0.007,-0.007,-0.001,-0.013,1.000,0.000,0.000,0.000,0.0100,6,0,0.00,0.00,0.00,0.0000,0.0000,0.0000,0.0000,0.0000,0.0000,0.0000,0.00,0.00,0.00,1.4450,0.9470,0.5440,0.9980,2.7030,0,0.0000,0.0000,0.0000,0.0000,0.0000,0
16849,0.0267,-0.0190,0.0107,0.0186,-0.0551,-0.0048,-0.41,-0.13,0.04,0,4.091,-0.037,-0.262,-0.093,-0.002,-0.011,1.002,0.000,0.000,0.000,0.0100,8,-5,0.00,0.00,0.00,0.0000,0.0000,0.0000,0.0000,0.0000,0.0000,0.0000,0.00,0.00,0.00,1.4640,0.9410,0.5440,0.9980,2.7100,0,0.0000,0.0000,0.0000,0.0000,0.0000,0
16900,0.0260,-0.0173,0.0105,0.0114,-0.0355,-0.0048,-0.55,-0.09,0.03,0,4.086,-0.027,-0.051,-0.435,0.001,-0.013,0.998,0.000,0.000,0.000,0.0090,10,-2,0.00,0.00,0.00,0.0000,0.0000,0.0000,0.0000,0.0000,0.0000,0.0000,0.00,0.00,0.00,1.4640,0.9410,0.5430,1.0030,2.7100,0,0.0000,0.0000,0.0000,0.0000,0.0000,0
16951,0.0267,-0.0202,0.0097,0.0123,-0.0444,-0.0080,-0.54,-0.15,0.03,0,4.086,0.029,-0.050,-0.078,0.000,-0.014,1.000,0.000,0.000,0.000,0.0140,0,-7,0.00,0.00,0.00,0.0000,0.0000,0.0000,0.0000,0.0000,0.0000,0.0000,0.00,0.00,0.00,1.4610,0.9330,0.5430,1.0030,2.7050,0,0.0000,0.0000,0.0000,0.0000,0.0000,0
17002,0.0280,-0.0173,0.0114,0.0169,-0.0222,0.0030,-0.67,-0.05,0.03,0,4.086,-0.134,-0.129,0.146,-0.002,-0.014,0.999,0.000,0.000,0.000,0.0110,18,-2,0.00,0.00,0.00,0.0000,0.0000,0.0000,0.0000,0.0000,0.0000,0.0000,0.00,0.00,0.00,1.4610,0.9330,0.5440,1.0000,2.7050,0,0.0000,0.0000,0.0000,0.0000,0.0000,0
17052,0.0278,-0.0191,0.0114,0.0128,-0.0285,0.0012,-0.48,0.05,0.04,0,4.091,-0.049,-0.341,-0.212,-0.003,-0.012,1.000,0.000,0.000,0.000,0.0100,2,-1,0.00,0.00,0.00,0.0000,0.0000,0.0000,0.0000,0.0000,0.0000,0.0000,0.00,0.00,0.00,1.4570,0.9420,0.5440,1.0000,2.7150,0,0.0000,0.0000,0.0000,0.0000,0.0000,0
17104,0.0258,-0.0217,0.0109,0.0009,-0.0350,-0.0017,-0.52,0.01,0.03,0,4.080,0.055,-0.218,0.393,-0.002,-0.012,1.000,0.000,0.000,0.000,0.0100,-11,-1,0.00,0.00,0.00,0.0000,0.0000,0.0000,0.0000,0.0000,0.0000,0.0000,0.00,0.00,0.00,1.4570,0.9420,0.5410,1.0000,2.7150,0,0.0000,0.0000,0.0000,0.0000,0.0000,0
17155,0.0254,-0.0191,0.0106,-0.0016,-0.0125,-0.0030,-0.61,0.01,0.04,0,4.086,-0.059,-0.087,-0.125,-0.000,-0.015,0.998,0.000,0.000,0.000,0.0130,0,0,0.00,0.00,0.00,0.0000,0.0000,0.0000,0.0000,0.0000,0.0000,0.0000,0.00,0.00,0.00,1.4550,0.9450,0.5410,1.0000,2.7020,0,0.0000,0.0000,0.0000,0.0000,0.0000,0
17206,0.0256,-0.0217,0.0115,-0.0004,-0.0223,0.0020,-0.65,0.01,0.04,0,4.080,0.097,-0.049,-0.176,-0.000,-0.012,1.002,0.000,0.000,0.000,0.0120,6,-10,0.00,0.00,0.00,0.0000,0.0000,0.0000,0.0000,0.0000,0.0000,0.0000,0.00,0.00,0.00,1.4550,0.9450,0.5460,1.0050,2.7020,0,0.0000,0.0000,0.0000,0.0000,0.0000,0
17256,0.0258,-0.0226,0.0118,0.0010,-0.0226,0.0035,-0.66,0.02,0.04,0,4.086,-0.046,0.301,0.078,0.000,-0.013,1.001,0.000,0.000,0.000,0.0120,-2,-1,0.00,0.00,0.00,0.0000,0.0000,0.0000,0.0000,0.0000,0.0000,0.0000,0.00,0.00,0.00,1.4620,0.9480,0.5460,1.0050,2.7060,0,0.0000,0.0000,0.0000,0.0000,0.0000,0
17308,0.0254,-0.0223,0.0120,-0.0020,-0.0172,0.0034,-0.70,-0.00,0.04,0,4.086,0.064,-0.188,0.050,-0.001,-0.013,0.998,0.000,0.000,0.000,0.0120,16,-5,0.00,0.00,0.00,0.0000,0.0000,0.0000,0.0000,0.0000,0.0000,0.0000,0.00,0.00,0.00,1.4620,0.9480,0.5420,1.0050,2.7060,0,0.0000,0.0000,0.0000,0.0000,0.0000,0
17358,0.0266,-0.0252,0.0121,0.0050,-0.0299,0.0032,-0.59,-0.04,0.04,0,4.086,-0.188,-0.035,0.102,-0.001,-0.014,1.001,0.000,0.000,0.000,0.0120,26,-7,0.00,0.00,0.00,0.0000,0.0000,0.0000,0.0000,0.0000,0.0000,0.0000,0.00,0.00,0.00,1.4550,0.9360,0.5420,1.0050,2.7010,0,0.0000,0.0000,0.0000,0.0000,0.0000,0
17409,0.0264,-0.0360,0.0118,0.0031,-0.0798,-0.0004,-0.32,-0.04,0.04,0,4.080,0.045,0.104,0.274,-0.001,-0.014,1.000,0.000,0.000,0.000,0.0100,19,6,0.00,0.00,0.00,0.0000,0.0000,0.0000,0.0000,0.0000,0.0000,0.0000,0.00,0.00,0.00,1.4550,0.9360,0.5420,1.0010,2.7010,0,0.0000,0.0000,0.0000,0.0000,0.0000,0
17461,0.0256,-0.0382,0.0112,-0.0023,-0.0774,-0.0038,-0.42,-0.00,0.04,0,4.080,0.243,-0.056,0.001,-0.001,-0.013,0.999,0.000,0.000,0.000,0.0100,0,-4,0.00,0.00,0.00,0.0000,0.0000,0.0000,0.0000,0.0000,0.0000,0.0000,0.00,0.00,0.00,1.4470,0.9390,0.5420,1.0010,2.7120,0,0.0000,0.0000,0.0000,0.0000,0.0000,0
17512,0.0277,-0.0336,0.0111,0.0088,-0.0393,-0.0031,-0.63,0.01,0.05,0,4.080,0.013,0.243,0.048,-0.001,-0.013,0.999,0.000,0.000,0.000,0.0120,25,-4,0.00,0.00,0.00,0.0000,0.0000,0.0000,0.0000,0.0000,0.0000,0.0000,0.00,0.00,0.00,1.4470,0.9390,0.5380,1.0010,2.7120,0,0.0000,0.0000,0.0000,0.0000,0.0000,0
17563,0.0265,-0.0390,0.0113,0.0016,-0.0608,-0.0013,-0.42,-0.00,0.04,0,4.091,-0.264,0.146,-0.052,-0.001,-0.014,0.998,0.000,0.000,0.000,0.0100,-11,-5,0.00,0.00,0.00,0.0000,0.0000,0.0000,0.0000,0.0000,0.0000,0.0000,0.00,0.00,0.00,1.4660,0.9370,0.5380,1.0010,2.7040,0,0.0000,0.0000,0.0000,0.0000,0.0000,0
17614,0.0267,-0.0350,0.0111,0.0018,-0.0260,-0.0019,-0.69,-0.03,0.04,0,4.086,0.203,-0.102,0.111,-0.002,-0.014,1.001,0.000,0.000,0.000,0.0120,4,-1,0.00,0.00,0.00,0.0000,0.0000,0.0000,0.0000,0.0000,0.0000,0.0000,0.00,0.00,0.00,1.4660,0.9370,0.5420,1.0020,2.7040,0,0.0000,0.0000,0.0000,0.0000,0.0000,0
17665,0.0265,-0.0243,0.0114,0.0010,0.0360,0.0004,-1.24,-0.02,0.05,0,4.086,-0.067,-0.228,0.242,0.001,-0.012,1.003,0.000,0.000,0.000,0.0140,3,0,0.00,0.00,0.00,0.0000,0.0000,0.0000,0.0000,0.0000,0.0000,0.0000,0.00,0.00,0.00,1.4650,0.9400,0.5420,1.0020,2.6990,0,0.0000,0.0000,0.0000,0.0000,0.0000,0
17716,0.0258,-0.0197,0.0124,-0.0026,0.0531,0.0056,-1.24,-0.02,0.05,0,4.080,0.058,0.196,-0.126,-0.002,-0.014,1.001,0.000,0.000,0.000,0.0140,0,3,0.00,0.00,0.00,0.0000,0.0000,0.0000,0.0000,0.0000,0.0000,0.0000,0.00,0.00,0.00,1.4650,0.9400,0.5450,0.9990,2.6990,0,0.0000,0.0000,0.0000,0.0000,0.0000,0
17766,0.0265,-0.0205,0.0134,0.0010,0.0392,0.0099,-1.10,-0.05,0.05,0,4.091,-0.088,-0.039,0.014,-0.001,-0.013,0.999,0.000,0.000,0.000,0.0110,1,-4,0.00,0.00,0.00,0.0000,0.0000,0.0000,0.0000,0.0000,0.0000,0.0000,0.00,0.00,0.00,1.4620,0.9380,0.5450,0.9990,2.6980,0,0.0000,0.0000,0.0000,0.0000,0.0000,0
17818,0.0269,-0.0215,0.0129,0.0030,0.0268,0.0045,-1.07,0.02,0.05,0,4.080,-0.135,0.143,0.080,-0.001,-0.014,1.000,0.000,0.000,0.000,0.0100,1,-11,0.00,0.00,0.00,0.0000,0.0000,0.0000,0.0000,0.0000,0.0000,0.0000,0.00,0.00,0.00,1.4620,0.9380,0.5400,0.9990,2.6980,0,0.0000,0.0000,0.0000,0.0000,0.0000,0
17869,0.0284,-0.0215,0.0118,0.0116,0.0216,-0.0024,-0.92,-0.01,0.05,0,4.086,-0.026,0.118,-0.049,-0.000,-0.015,1.000,0.000,0.000,0.000,0.0140,5,3,0.00,0.00,0.00,0.0000,0.0000,0.0000,0.0000,0.0000,0.0000,0.0000,0.00,0.00,0.00,1.4460,0.9470,0.5400,0.9990,2.6990,0,0.0000,0.0000,0.0000,0.0000,0.0000,0
17920,0.0265,-0.0214,0.0127,0.0003,0.0170,0.0031,-0.93,0.01,0.06,0,4.086,0.220,-0.160,-0.109,-0.003,-0.015,0.999,0.000,0.000,0.000,0.0070,-4,-16,0.00,0.00,0.00,0.0000,0.0000,0.0000,0.0000,0.0000,0.0000,0.0000,0.00,0.00,0.00,1.4460,0.9470,0.5420,1.0030,2.6990,0,0.0000,0.0000,0.0000,0.0000,0.0000,0
17970,0.0300,-0.0207,0.0104,0.0206,0.0167,-0.0105,-0.85,-0.05,0.06,0,4.086,-0.067,-0.263,-0.021,0.000,-0.015,0.999,0.000,0.000,0.000,0.0110,2,3,0.00,0.00,0.00,0.0000,0.0000,0.0000,0.0000,0.0000,0.0000,0.0000,0.00,0.00,0.00,1.4690,0.9350,0.5420,1.0030,2.7050,0,0.0000,0.0000,0.0000,0.0000,0.0000,0
18022,0.0289,-0.0176,0.0104,0.0117,0.0274,-0.0075,-0.95,-0.15,0.07,0,4.080,0.142,-0.344,-0.144,-0.001,-0.014,1.001,0.000,0.000,0.000,0.0080,3,-5,0.00,0.00,0.00,0.0000,0.0000,0.0000,0.0000,0.0000,0.0000,0.0000,0.00,0.00,0.00,1.4690,0.9350,0.5440,1.0020,2.7050,0,0.0000,0.0000,0.0000,0.0000,0.0000,0
18072,0.0289,-0.0176,0.0092,0.0098,0.0210,-0.0120,-0.34,-0.07,0.07,0,4.091,0.270,0.070,0.046,-0.001,-0.012,1.001,0.000,0.000,0.000,0.0110,7,-7,0.00,0.00,0.00,0.0000,0.0000,0.0000,0.0000,0.0000,0.0000,0.0000,0.00,0.00,0.00,1.4540,0.9420,0.5440,1.0020,2.7010,0,0.0000,0.0000,0.0000,0.0000,0.0000,0
18123,0.0288,-0.0303,0.0098,0.0078,-0.0458,-0.0054,-0.39,-0.06,0.07,0,4.080,0.298,0.164,-0.025,-0.001,-0.014,1.002,0.000,0.000,0.000,0.0100,-12,0,0.00,0.00,0.00,0.0000,0.0000,0.0000,0.0000,0.0000,0.0000,0.0000,0.00,0.00,0.00,1.4540,0.9420,0.5330,0.9990,2.7010,0,0.0000,0.0000,0.0000,0.0000,0.0000,0
18175,0.0292,-0.0266,0.0100,0.0086,-0.0166,-0.0026,-0.61,-0.11,0.07,0,4.086,-0.055,0.021,0.115,-0.001,-0.013,1.000,0.000,0.000,0.000,0.0130,-12,0,0.00,0.00,0.00,0.0000,0.0000,0.0000,0.0000,0.0000,0.0000,0.0000,0.00,0.00,0.00,1.4720,0.9330,0.5330,0.9990,2.6950,0,0.0000,0.0000,0.0000,0.0000,0.0000,0
18226,0.0282,-0.0244,0.0113,0.0015,-0.0013,0.0044,-0.74,-0.05,0.07,0,4.086,-0.072,-0.137,-0.260,0.000,-0.011,0.997,0.000,0.000,0.000,0.0110,-1,1,0.00,0.00,0.00,0.0000,0.0000,0.0000,0.0000,0.0000,0.0000,0.0000,0.00,0.00,0.00,1.4720,0.9330,0.5400,1.0000,2.6950,0,0.0000,0.0000,0.0000,0.0000,0.0000,0
18277,0.0288,-0.0256,0.0113,0.0047,-0.0070,0.0027,-0.61,-0.05,0.07,0,4.086,-0.035,-0.215,-0.049,-0.002,-0.011,1.001,0.000,0.000,0.000,0.0100,0,-6,0.00,0.00,0.00,0.0000,0.0000,0.0000,0.0000,0.0000,0.0000,0.0000,0.00,0.00,0.00,1.4490,0.9390,0.5400,1.0000,2.7020,0,0.0000,0.0000,0.0000,0.0000,0.0000,0
18328,0.0307,-0.0334,0.0109,0.0137,-0.0424,-0.0003,-0.41,-0.10,0.07,0,4.080,0.189,-0.017,-0.396,-0.002,-0.016,1.000,0.000,0.000,0.000,0.0080,28,-6,0.00,0.00,0.00,0.0000,0.0000,0.0000,0.0000,0.0000,0.0000,0.0000,0.00,0.00,0.00,1.4490,0.9390,0.5450,0.9960,2.7020,0,0.0000,0.0000,0.0000,0.0000,0.0000,0
18379,0.0309,-0.0385,0.0096,0.0127,-0.0630,-0.0073,-0.34,-0.12,0.07,0,4.091,0.057,-0.209,-0.502,-0.001,-0.012,1.001,0.000,0.000,0.000,0.0100,-10,-8,0.00,0.00,0.00,0.0000,0.0000,0.0000,0.0000,0.0000,0.0000,0.0000,0.00,0.00,0.00,1.4630,0.9330,0.5450,0.9960,2.7080,0,0.0000,0.0000,0.0000,0.0000,0.0000,0
18430,0.0308,-0.0330,0.0099,0.0102,-0.0231,-0.0036,-0.52,-0.06,0.07,0,4.080,0.125,0.123,-0.164,-0.001,-0.013,0.999,0.000,0.000,0.000,0.0090,0,0,0.00,0.00,0.00,0.0000,0.0000,0.0000,0.0000,0.0000,0.0000,0.0000,0.00,0.00,0.00,1.4630,0.9330,0.5410,1.0000,2.7080,0,0.0000,0.0000,0.0000,0.0000,0.0000,0
18481,0.0295,-0.0300,0.0095,0.0014,-0.0014,-0.0045,-0.59,0.00,0.07,0,4.091,0.170,0.153,-0.357,-0.003,-0.013,1.000,0.000,0.000,0.000,0.0110,2,5,0.00,0.00,0.00,0.0000,0.0000,0.0000,0.0000,0.0000,0.0000,0.0000,0.00,0.00,0.00,1.4580,0.9440,0.5410,1.0000,2.7070,0,0.0000,0.0000,0.0000,0.0000,0.0000,0
18532,0.0274,-0.0347,0.0101,-0.0107,-0.0224,-0.0004,-0.63,0.01,0.08,0,4.080,-0.248,0.208,0.069,-0.002,-0.012,1.001,0.000,0.000,0.000,0.0120,0,-6,0.00,0.00,0.00,0.0000,0.0000,0.0000,0.0000,0.0000,0.0000,0.0000,0.00,0.00,0.00,1.4580,0.9440,0.5440,1.0030,2.7070,0,0.0000,0.0000,0.0000,0.0000,0.0000,0
18583,0.0307,-0.0385,0.0109,0.0076,-0.0362,0.0035,-0.58,-0.02,0.08,0,4.086,-0.203,-0.030,0.005,-0.001,-0.012,1.002,0.000,0.000,0.000,0.0100,4,3,0.00,0.00,0.00,0.0000,0.0000,0.0000,0.0000,0.0000,0.0000,0.0000,0.00,0.00,0.00,1.4530,0.9290,0.5440,1.0030,2.7030,0,0.0000,0.0000,0.0000,0.0000,0.0000,0
18634,0.0287,-0.0439,0.0106,-0.0037,-0.0552,0.0014,-0.46,-0.02,0.08,0,4.080,0.263,-0.032,-0.083,-0.002,-0.013,0.999,0.000,0.000,0.000,0.0110,-6,0,0.00,0.00,0.00,0.0000,0.0000,0.0000,0.0000,0.0000,0.0000,0.0000,0.00,0.00,0.00,1.4530,0.9290,0.5380,1.0000,2.7030,0,0.0000,0.0000,0.0000,0.0000,0.0000,0
18685,0.0289,-0.0418,0.0110,-0.0021,-0.0337,0.0031,-0.54,-0.06,0.08,0,4.086,-0.174,0.095,-0.152,-0.002,-0.013,1.000,0.000,0.000,0.000,0.0110,53,-1,0.00,0.00,0.00,0.0000,0.0000,0.0000,0.0000,0.0000,0.0000,0.0000,0.00,0.00,0.00,1.4590,0.9470,0.5380,1.0000,2.7020,0,0.0000,0.0000,0.0000,0.0000,0.0000,0
18736,0.0287,-0.0541,0.0109,-0.0026,-0.0915,0.0001,-0.18,-0.05,0.08,0,4.080,0.170,0.247,-0.044,-0.003,-0.014,1.000,0.000,0.000,0.000,0.0130,-1,1,0.00,0.00,0.00,0.0000,0.0000,0.0000,0.0000,0.0000,0.0000,0.0000,0.00,0.00,0.00,1.4590,0.9470,0.5400,1.0000,2.7020,0,0.0000,0.0000,0.0000,0.0000,0.0000,0
18787,0.0294,-0.0551,0.0121,0.0001,-0.0780,0.0069,-0.31,-0.03,0.08,0,4.086,0.156,0.046,-0.009,-0.001,-0.011,1.002,0.000,0.000,0.000,0.0100,-5,-1,0.00,0.00,0.00,0.0000,0.0000,0.0000,0.0000,0.0000,0.0000,0.0000,0.00,0.00,0.00,1.4490,0.9370,0.5400,1.0000,2.7030,0,0.0000,0.0000,0.0000,0.0000,0.0000,0
18838,0.0298,-0.0536,0.0118,0.0026,-0.0536,0.0043,-0.43,-0.09,0.08,0,4.080,0.112,0.004,0.037,-0.002,-0.012,0.999,0.000,0.000,0.000,0.0090,-11,-2,0.00,0.00,0.00,0.0000,0.0000,0.0000,0.0000,0.0000,0.0000,0.0000,0.00,0.00,0.00,1.4490,0.9370,0.5440,0.9990,2.7030,0,0.0000,0.0000,0.0000,0.0000,0.0000,0
18888,0.0300,-0.0523,0.0109,0.0034,-0.0344,-0.0011,-0.54,-0.08,0.08,0,4.086,-0.220,-0.046,0.134,-0.001,-0.012,1.000,0.000,0.000,0.000,0.0120,15,5,0.00,0.00,0.00,0.0000,0.0000,0.0000,0.0000,0.0000,0.0000,0.0000,0.00,0.00,0.00,1.4560,0.9310,0.5440,0.9990,2.7060,0,0.0000,0.0000,0.0000,0.0000,0.0000,0
18940,0.0282,-0.0570,0.0113,-0.0062,-0.0501,0.0013,-0.62,-0.07,0.08,0,4.080,0.056,-0.026,-0.100,0.000,-0.013,0.999,0.000,0.000,0.000,0.0130,-16,0,0.00,0.00,0.00,0.0000,0.0000,0.0000,0.0000,0.0000,0.0000,0.0000,0.00,0.00,0.00,1.4560,0.9310,0.5400,1.0000,2.7060,0,0.0000,0.0000,0.0000,0.0000,0.0000,0
18991,0.0295,-0.0505,0.0123,0.0017,-0.0054,0.0059,-0.91,-0.05,0.08,0,4.086,-0.084,0.166,0.214,-0.001,-0.012,1.003,0.000,0.000,0.000,0.0130,17,-1,0.00,0.00,0.00,0.0000,0.0000,0.0000,0.0000,0.0000,0.0000,0.0000,0.00,0.00,0.00,1.4530,0.9450,0.5400,1.0000,2.7060,0,0.0000,0.0000,0.0000,0.0000,0.0000,0
19042,0.0291,-0.0564,0.0128,-0.0007,-0.0341,0.0067,-0.75,-0.08,0.08,0,4.080,0.247,-0.233,-0.225,-0.001,-0.013,1.001,0.000,0.000,0.000,0.0100,0,3,0.00,0.00,0.00,0.0000,0.0000,0.0000,0.0000,0.0000,0.0000,0.0000,0.00,0.00,0.00,1.4530,0.9450,0.5430,1.0010,2.7060,0,0.0000,0.0000,0.0000,0.0000,0.0000,0
19093,0.0291,-0.0528,0.0119,-0.0011,-0.0092,0.0005,-0.84,-0.07,0.08,0,4.086,-0.079,0.082,0.083,0.000,-0.013,1.000,0.000,0.000,0.000,0.0140,4,-5,0.00,0.00,0.00,0.0000,0.0000,0.0000,0.0000,0.0000,0.0000,0.0000,0.00,0.00,0.00,1.4590,0.9380,0.5430,1.0010,2.6970,0,0.0000,0.0000,0.0000,0.0000,0.0000,0
19143,0.0295,-0.0524,0.0128,0.0020,-0.0044,0.0051,-0.89,-0.02,0.08,0,4.080,0.119,-0.199,-0.226,-0.003,-0.013,1.000,0.000,0.000,0.000,0.0110,-8,7,0.00,0.00,0.00,0.0000,0.0000,0.0000,0.0000,0.0000,0.0000,0.0000,0.00,0.00,0.00,1.4590,0.9380,0.5430,1.0060,2.6970,0,0.0000,0.0000,0.0000,0.0000,0.0000,0
19194,0.0279,-0.0514,0.0122,-0.0069,0.0031,0.0010,-0.88,-0.05,0.08,0,4.091,-0.025,0.427,0.291,-0.000,-0.012,1.001,0.000,0.000,0.000,0.0090,-2,1,0.00,0.00,0.00,0.0000,0.0000,0.0000,0.0000,0.0000,0.0000,0.0000,0.00,0.00,0.00,1.4600,0.9460,0.5430,1.0060,2.7060,0,0.0000,0.0000,0.0000,0.0000,0.0000,0
19246,0.0287,-0.0527,0.0109,-0.0013,-0.0024,-0.0058,-0.85,-0.08,0.08,0,4.080,0.217,-0.009,-0.277,0.000,-0.011,0.999,0.000,0.000,0.000,0.0120,-8,-7,0.00,0.00,0.00,0.0000,0.0000,0.0000,0.0000,0.0000,0.0000,0.0000,0.00,0.00,0.00,1.4600,0.9460,0.5450,1.0010,2.7060,0,0.0000,0.0000,0.0000,0.0000,0.0000,0
19297,0.0300,-0.0514,0.0112,0.0062,0.0068,-0.0031,-0.85,-0.11,0.08,0,4.086,-0.167,-0.022,0.037,-0.003,-0.013,1.000,0.000,0.000,0.000,0.0120,1,0,0.00,0.00,0.00,0.0000,0.0000,0.0000,0.0000,0.0000,0.0000,0.0000,0.00,0.00,0.00,1.4520,0.9380,0.5450,1.0010,2.7160,0,0.0000,0.0000,0.0000,0.0000,0.0000,0
19348,0.0296,-0.0525,0.0115,0.0031,0.0015,-0.0009,-0.84,-0.08,0.08,0,4.080,0.116,-0.188,-0.070,0.002,-0.013,1.000,0.000,0.000,0.000,0.0100,8,0,0.00,0.00,0.00,0.0000,0.0000,0.0000,0.0000,0.0000,0.0000,0.0000,0.00,0.00,0.00,1.4520,0.9380,0.5390,1.0000,2.7160,0,0.0000,0.0000,0.0000,0.0000,0.0000,0
19399,0.0296,-0.0536,0.0109,0.0038,-0.0047,-0.0035,-0.82,-0.08,0.08,0,4.086,-0.017,-0.326,-0.030,-0.001,-0.013,0.999,0.000,0.000,0.000,0.0120,6,3,0.00,0.00,0.00,0.0000,0.0000,0.0000,0.0000,0.0000,0.0000,0.0000,0.00,0.00,0.00,1.4490,0.9470,0.5390,1.0000,2.7050,0,0.0000,0.0000,0.0000,0.0000,0.0000,0
19450,0.0289,-0.0536,0.0113,-0.0001,-0.0037,-0.0008,-0.82,-0.08,0.08,0,4.075,-0.077,0.059,-0.052,-0.002,-0.013,1.000,0.000,0.000,0.000,0.0100,12,-2,0.00,0.00,0.00,0.0000,0.0000,0.0000,0.0000,0.0000,0.0000,0.0000,0.00,0.00,0.00,1.4490,0.9470,0.5400,1.0030,2.7050,0,0.0000,0.0000,0.0000,0.0000,0.0000,0
19501,0.0296,-0.0527,0.0108,0.0032,0.0013,-0.0032,-1.10,-0.05,0.08,0,4.086,0.144,0.044,-0.231,-0.001,-0.014,1.000,0.000,0.000,0.000,0.0110,1,-7,0.00,0.00,0.00,0.0000,0.0000,0.0000,0.0000,0.0000,0.0000,0.0000,0.00,0.00,0.00,1.4490,0.9380,0.5400,1.0030,2.7070,0,0.0000,0.0000,0.0000,0.0000,0.0000,0
19551,0.0294,-0.0471,0.0109,0.0028,0.0275,-0.0016,-0.97,-0.03,0.08,0,4.075,0.015,0.152,-0.006,-0.001,-0.013,1.002,0.000,0.000,0.000,0.0120,14,-2,0.00,0.00,0.00,0.0000,0.0000,0.0000,0.0000,0.0000,0.0000,0.0000,0.00,0.00,0.00,1.4490,0.9380,0.5390,1.0020,2.7070,0,0.0000,0.0000,0.0000,0.0000,0.0000,0
19603,0.0298,-0.0498,0.0114,0.0054,0.0084,0.0020,-0.98,-0.04,0.08,0,4.086,-0.075,-0.094,0.021,-0.002,-0.011,1.000,0.000,0.000,0.000,0.0110,0,4,0.00,0.00,0.00,0.0000,0.0000,0.0000,0.0000,0.0000,0.0000,0.0000,0.00,0.00,0.00,1.4580,0.9390,0.5390,1.0020,2.7150,0,0.0000,0.0000,0.0000,0.0000,0.0000,0
19654,0.0277,-0.0516,0.0115,-0.0060,-0.0015,0.0017,-0.74,-0.04,0.09,0,4.080,0.251,0.203,0.042,0.001,-0.014,1.000,0.000,0.000,0.000,0.0100,-3,0,0.00,0.00,0.00,0.0000,0.0000,0.0000,0.0000,0.0000,0.0000,0.0000,0.00,0.00,0.00,1.4580,0.9390,0.5370,1.0020,2.7150,0,0.0000,0.0000,0.0000,0.0000,0.0000,0
19706,0.0296,-0.0538,0.0109,0.0061,-0.0122,-0.0014,-0.67,-0.16,0.09,0,4.086,-0.321,-0.139,-0.003,0.000,-0.015,0.997,0.000,0.000,0.000,0.0110,-1,-5,0.00,0.00,0.00,0.0000,0.0000,0.0000,0.0000,0.0000,0.0000,0.0000,0.00,0.00,0.00,0.0000,0.9370,0.5370,1.0020,2.7000,0,0.0000,0.0000,0.0000,0.0000,0.0000,0
19757,0.0287,-0.0578,0.0108,0.0010,-0.0324,-0.0019,-0.58,-0.07,0.09,0,4.080,-0.036,0.230,-0.065,-0.001,-0.014,1.005,0.000,0.000,0.000,0.0120,10,-7,0.00,0.00,0.00,0.0000,0.0000,0.0000,0.0000,0.0000,0.0000,0.0000,0.00,0.00,0.00,0.0000,0.9370,0.5230,0.9990,2.7000,0,0.0000,0.0000,0.0000,0.0000,0.0000,0
19808,0.0281,-0.0569,0.0113,-0.0025,-0.0217,0.0009,-0.60,-0.10,0.08,0,4.086,-0.084,-0.120,0.074,-0.003,-0.011,1.000,0.000,0.000,0.000,0.0140,-1,0,0.00,0.00,0.00,0.0000,0.0000,0.0000,0.0000,0.0000,0.0000,0.0000,0.00,0.00,0.00,1.4710,0.9490,0.5230,0.9990,2.7120,0,0.0000,0.0000,0.0000,0.0000,0.0000,0
19860,0.0292,-0.0570,0.0126,0.0021,-0.0149,0.0071,-0.65,-0.04,0.09,0,4.080,0.150,0.067,0.066,0.001,-0.012,1.001,0.000,0.000,0.000,0.0110,-26,0,0.00,0.00,0.00,0.0000,0.0000,0.0000,0.0000,0.0000,0.0000,0.0000,0.00,0.00,0.00,1.4710,0.9490,0.5900,0.9990,2.7120,0,0.0000,0.0000,0.0000,0.0000,0.0000,0
19910,0.0296,-0.0570,0.0121,0.0043,-0.0118,0.0030,-1.18,-0.12,0.08,0,4.086,0.140,0.006,0.136,-0.001,-0.013,1.001,0.000,0.000,0.000,0.0110,2,-7,0.00,0.00,0.00,0.0000,0.0000,0.0000,0.0000,0.0000,0.0000,0.0000,0.00,0.00,0.00,1.4710,0.9390,0.5900,0.9990,2.7060,0,0.0000,0.0000,0.0000,0.0000,0.0000,0
19961,0.0308,-0.0469,0.0118,0.0099,0.0361,0.0005,-1.07,-0.12,0.08,0,4.086,0.096,-0.123,0.060,0.000,-0.012,0.997,0.000,0.000,0.000,0.0160,-3,3,0.00,0.00,0.00,0.0000,0.0000,0.0000,0.0000,0.0000,0.0000,0.0000,0.00,0.00,0.00,1.4710,0.9390,0.8250,0.9970,2.7060,0,0.0000,0.0000,0.0000,0.0000,0.0000,0
20013,0.0302,-0.0418,0.0134,0.0058,0.0581,0.0087,-0.99,-0.08,0.09,0,4.086,0.246,0.190,-0.410,-0.003,-0.012,1.001,0.000,0.000,0.000,0.0110,0,-1,0.00,0.00,0.00,0.0000,0.0000,0.0000,0.0000,0.0000,0.0000,0.0000,0.00,0.00,0.00,1.4500,0.9320,0.8250,0.9970,2.7030,0,0.0000,0.0000,0.0000,0.0000,0.0000,0
20063,0.0302,-0.0453,0.0130,0.0054,0.0300,0.0047,-0.96,-0.11,0.09,0,4.080,-0.272,-0.194,0.094,-0.001,-0.013,1.000,0.000,0.000,0.000,0.0110,15,3,0.00,0.00,0.00,0.0000,0.0000,0.0000,0.0000,0.0000,0.0000,0.0000,0.00,0.00,0.00,1.4500,0.9320,0.9670,1.0010,2.7030,0,0.0000,0.0000,0.0000,0.0000,0.0000,0
20114,0.0257,-0.0488,0.0124,-0.0207,0.0039,0.0006,-0.39,0.01,0.08,0,4.086,0.379,0.065,-0.365,-0.003,-0.011,1.001,0.000,0.000,0.000,0.0100,17,-4,0.00,0.00,0.00,0.0000,0.0000,0.0000,0.0000,0.0000,0.0000,0.0000,0.00,0.00,0.00,1.4560,0.9420,0.9670,1.0010,2.7000,0,0.0000,0.0000,0.0000,0.0000,0.0000,0
20166,0.0272,-0.0601,0.0112,-0.0082,-0.0530,-0.0059,-0.43,-0.01,0.08,0,4.086,-0.074,0.007,-0.261,-0.001,-0.013,0.998,0.000,0.000,0.000,0.0110,4,-4,0.00,0.00,0.00,0.0000,0.0000,0.0000,0.0000,0.0000,0.0000,0.0000,0.00,0.00,0.00,1.4560,0.9420,0.9680,1.0030,2.7000,0,0.0000,0.0000,0.0000,0.0000,0.0000,0
20216,0.0293,-0.0509,0.0115,0.0043,0.0045,-0.0037,-1.02,-0.06,0.09,0,4.086,-0.199,-0.153,-0.020,-0.000,-0.013,1.001,0.000,0.000,0.000,0.0090,3,0,0.00,0.00,0.00,0.0000,0.0000,0.0000,0.0000,0.0000,0.0000,0.0000,0.00,0.00,0.00,1.4470,0.9480,0.9680,1.0030,2.7050,0,0.0000,0.0000,0.0000,0.0000,0.0000,0
20268,0.0277,-0.0459,0.0104,-0.0042,0.0270,-0.0088,-0.91,-0.07,0.09,0,4.086,0.152,0.187,-0.085,-0.002,-0.015,0.999,0.000,0.000,0.000,0.0080,7,3,0.00,0.00,0.00,0.0000,0.0000,0.0000,0.0000,0.0000,0.0000,0.0000,0.00,0.00,0.00,1.4470,0.9480,0.9610,1.0000,2.7050,0,0.0000,0.0000,0.0000,0.0000,0.0000,0
20319,0.0279,-0.0466,0.0092,-0.0027,0.0167,-0.0129,-0.85,-0.12,0.09,0,4.080,0.063,0.270,0.146,0.000,-0.012,1.002,0.000,0.000,0.000,0.0140,-1,0,0.00,0.00,0.00,0.0000,0.0000,0.0000,0.0000,0.0000,0.0000,0.0000,0.00,0.00,0.00,1.4500,0.9360,0.9610,1.0000,2.7090,0,0.0000,0.0000,0.0000,0.0000,0.0000,0
20369,0.0277,-0.0455,0.0109,-0.0038,0.0184,-0.0006,-0.81,-0.06,0.09,0,4.086,0.235,0.015,0.013,-0.003,-0.011,0.998,0.000,0.000,0.000,0.0120,16,0,0.00,0.00,0.00,0.0000,0.0000,0.0000,0.0000,0.0000,0.0000,0.0000,0.00,0.00,0.00,1.4500,0.9360,0.9660,1.0060,2.7090,0,0.0000,0.0000,0.0000,0.0000,0.0000,0
20421,0.0293,-0.0495,0.0114,0.0054,-0.0081,0.0022,-0.32,-0.09,0.09,0,4.086,0.074,-0.204,0.298,-0.001,-0.014,1.002,0.000,0.000,0.000,0.0100,9,-3,0.00,0.00,0.00,0.0000,0.0000,0.0000,0.0000,0.0000,0.0000,0.0000,0.00,0.00,0.00,1.4430,0.9410,0.9660,1.0060,2.6980,0,0.0000,0.0000,0.0000,0.0000,0.0000,0
20472,0.0293,-0.0568,0.0108,0.0052,-0.0429,-0.0012,-0.43,-0.08,0.09,0,4.086,0.072,0.025,-0.233,-0.002,-0.013,0.999,0.000,0.000,0.000,0.0100,-4,0,0.00,0.00,0.00,0.0000,0.0000,0.0000,0.0000,0.0000,0.0000,0.0000,0.00,0.00,0.00,1.4430,0.9410,0.9610,1.0000,2.6980,0,0.0000,0.0000,0.0000,0.0000,0.0000,0
20523,0.0294,-0.0576,0.0105,0.0055,-0.0404,-0.0020,-0.44,-0.12,0.09,0,4.086,0.294,0.237,-0.154,0.000,-0.014,1.000,0.000,0.000,0.000,0.0090,-4,-9,0.00,0.00,0.00,0.0000,0.0000,0.0000,0.0000,0.0000,0.0000,0.0000,0.00,0.00,0.00,1.4600,0.9340,0.9610,1.0000,2.7020,0,0.0000,0.0000,0.0000,0.0000,0.0000,0
20574,0.0294,-0.0557,0.0100,0.0048,-0.0220,-0.0043,-0.55,-0.08,0.10,0,4.080,-0.223,0.026,0.192,-0.002,-0.011,1.001,0.000,0.000,0.000,0.0110,26,0,0.00,0.00,0.00,0.0000,0.0000,0.0000,0.0000,0.0000,0.0000,0.0000,0.00,0.00,0.00,1.4600,0.9340,0.9680,1.0020,2.7020,0,0.0000,0.0000,0.0000,0.0000,0.0000,0
20625,0.0294,-0.0629,0.0101,0.0039,-0.0577,-0.0023,-0.22,-0.07,0.09,0,4.080,0.109,0.153,-0.081,-0.001,-0.015,1.000,0.000,0.000,0.000,0.0120,-7,-4,0.00,0.00,0.00,0.0000,0.0000,0.0000,0.0000,0.0000,0.0000,0.0000,0.00,0.00,0.00,1.4720,0.9380,0.9680,1.0020,2.7010,0,0.0000,0.0000,0.0000,0.0000,0.0000,0
20676,0.0296,-0.0646,0.0110,0.0047,-0.0534,0.0029,-0.36,-0.06,0.09,0,4.080,0.051,-0.172,-0.164,-0.001,-0.014,0.999,0.000,0.000,0.000,0.0130,9,-15,0.00,0.00,0.00,0.0000,0.0000,0.0000,0.0000,0.0000,0.0000,0.0000,0.00,0.00,0.00,1.4720,0.9380,0.9640,1.0030,2.7010,0,0.0000,0.0000,0.0000,0.0000,0.0000,0
20726,0.0326,-0.0647,0.0120,0.0213,-0.0435,0.0078,-0.46,-0.21,0.08,0,4.086,0.088,0.065,-0.110,-0.000,-0.012,1.001,0.000,0.000,0.000,0.0100,-1,-2,0.00,0.00,0.00,0.0000,0.0000,0.0000,0.0000,0.0000,0.0000,0.0000,0.00,0.00,0.00,1.4570,0.9420,0.9640,1.0030,2.6960,0,0.0000,0.0000,0.0000,0.0000,0.0000,0
20778,0.0300,-0.0650,0.0115,0.0049,-0.0360,0.0036,-0.47,-0.04,0.10,0,4.086,-0.068,-0.029,-0.028,0.001,-0.014,0.999,0.000,0.000,0.000,0.0100,-30,-6,0.00,0.00,0.00,0.0000,0.0000,0.0000,0.0000,0.0000,0.0000,0.0000,0.00,0.00,0.00,1.4570,0.9420,0.9650,0.9990,2.6960,0,0.0000,0.0000,0.0000,0.0000,0.0000,0
20829,0.0304,-0.0607,0.0112,0.0066,-0.0035,0.0017,-0.89,-0.08,0.08,0,4.086,0.089,-0.075,-0.283,0.001,-0.012,0.998,0.000,0.000,0.000,0.0100,-20,0,0.00,0.00,0.00,0.0000,0.0000,0.0000,0.0000,0.0000,0.0000,0.0000,0.00,0.00,0.00,1.4580,0.9380,0.9650,0.9990,2.7010,0,0.0000,0.0000,0.0000,0.0000,0.0000,0
20880,0.0304,-0.0539,0.0106,0.0064,0.0340,-0.0025,-1.15,-0.07,0.08,0,4.086,-0.000,0.049,-0.080,-0.003,-0.010,0.999,0.000,0.000,0.000,0.0090,-3,0,0.00,0.00,0.00,0.0000,0.0000,0.0000,0.0000,0.0000,0.0000,0.0000,0.00,0.00,0.00,1.4580,0.9380,0.9670,1.0000,2.7010,0,0.0000,0.0000,0.0000,0.0000,0.0000,0
20932,0.0296,-0.0500,0.0098,0.0005,0.0472,-0.0063,-1.08,-0.11,0.08,0,4.080,0.125,-0.019,-0.006,0.000,-0.015,1.001,0.000,0.000,0.000,0.0110,7,1,0.00,0.00,0.00,0.0000,0.0000,0.0000,0.0000,0.0000,0.0000,0.0000,0.00,0.00,0.00,1.4570,0.9350,0.9670,1.0000,2.7040,0,0.0000,0.0000,0.0000,0.0000,0.0000,0
20983,0.0303,-0.0509,0.0103,0.0041,0.0331,-0.0026,-1.00,-0.07,0.08,0,4.086,-0.060,-0.009,-0.169,0.000,-0.015,0.999,0.000,0.000,0.000,0.0110,-4,-2,0.00,0.00,0.00,0.0000,0.0000,0.0000,0.0000,0.0000,0.0000,0.0000,0.00,0.00,0.00,1.4570,0.9350,0.9600,1.0010,2.7040,0,0.0000,0.0000,0.0000,0.0000,0.0000,0
21034,0.0300,-0.0456,0.0104,0.0036,0.0547,-0.0012,-1.10,-0.06,0.08,0,4.086,0.262,-0.221,-0.034,-0.001,-0.013,0.997,0.000,0.000,0.000,0.0110,2,5,0.00,0.00,0.00,0.0000,0.0000,0.0000,0.0000,0.0000,0.0000,0.0000,0.00,0.00,0.00,1.4630,0.9400,0.9600,1.0010,2.7080,0,0.0000,0.0000,0.0000,0.0000,0.0000,0
21084,0.0276,-0.0419,0.0107,-0.0096,0.0638,-0.0001,-1.17,-0.06,0.08,0,4.080,0.118,-0.244,-0.091,-0.003,-0.014,0.999,0.000,0.000,0.000,0.0130,11,-3,0.00,0.00,0.00,0.0000,0.0000,0.0000,0.0000,0.0000,0.0000,0.0000,0.00,0.00,0.00,1.4630,0.9400,0.9700,1.0030,2.7080,0,0.0000,0.0000,0.0000,0.0000,0.0000,0
21136,0.0296,-0.0448,0.0119,0.0018,0.0347,0.0069,-0.60,-0.05,0.08,0,4.080,0.055,0.045,-0.113,-0.001,-0.013,1.000,0.000,0.000,0.000,0.0130,21,3,0.00,0.00,0.00,0.0000,0.0000,0.0000,0.0000,0.0000,0.0000,0.0000,0.00,0.00,0.00,1.4570,0.9280,0.9700,1.0030,2.7180,0,0.0000,0.0000,0.0000,0.0000,0.0000,0
21186,0.0283,-0.0559,0.0126,-0.0048,-0.0277,0.0085,-0.51,-0.01,0.08,0,4.086,0.096,0.102,0.156,0.001,-0.014,1.001,0.000,0.000,0.000,0.0130,3,-3,0.00,0.00,0.00,0.0000,0.0000,0.0000,0.0000,0.0000,0.0000,0.0000,0.00,0.00,0.00,1.4570,0.9280,0.9630,1.0020,2.7180,0,0.0000,0.0000,0.0000,0.0000,0.0000,0
21238,0.0289,-0.0523,0.0132,-0.0005,-0.0069,0.0090,-0.66,-0.05,0.08,0,4.080,0.070,-0.022,0.163,-0.002,-0.012,1.001,0.000,0.000,0.000,0.0110,9,-1,0.00,0.00,0.00,0.0000,0.0000,0.0000,0.0000,0.0000,0.0000,0.0000,0.00,0.00,0.00,1.4480,0.9410,0.9630,1.0020,2.7030,0,0.0000,0.0000,0.0000,0.0000,0.0000,0
