time_ms,pos_x,pos_y,pos_z,vel_x,vel_y,vel_z,roll,pitch,yaw,thrust,vbat,gyro_x,gyro_y,gyro_z,acc_x,acc_y,acc_z,rate_roll,rate_pitch,rate_yaw,range_z,flow_dx,flow_dy,mekf_roll,mekf_pitch,mekf_yaw,mekf_x,mekf_y,mekf_z,our_ref_x,our_ref_y,our_ref_z,our_thrust,our_roll_cmd,our_pitch_cmd,our_yaw_rate_cmd,multi_front,multi_back,multi_left,multi_right,multi_up,ai_feat_count,vo_x,vo_y,vo_sigma,pg_x,pg_y,lc_count
0,-1.7689,1.2433,0.0097,-0.0102,0.0110,0.0059,-0.38,0.84,-105.13,0,3.991,-0.225,-0.032,-0.344,0.014,-0.005,1.002,0.000,0.000,0.000,0.0080,35,-4,0.00,0.00,0.00,0.0000,0.0000,0.0000,0.0000,0.0000,0.0000,0.0000,0.00,0.00,0.00,1.0460,0.5590,1.3140,1.0810,2.7010,0,0.0000,0.0000,0.0000,0.0000,0.0000,0
100,-1.7750,1.2444,0.0092,-0.0399,0.0156,0.0022,0.15,0.78,-104.68,0,4.001,-0.018,0.105,-0.011,0.014,-0.004,1.001,0.000,0.000,0.000,0.0090,-9,-1,0.00,0.00,0.00,0.0000,0.0000,0.0000,0.0000,0.0000,0.0000,0.0000,0.00,0.00,0.00,1.0480,0.4840,1.3140,1.0810,2.7000,0,0.0000,0.0000,0.0000,0.0000,0.0000,0
202,-1.7883,1.2469,0.0088,-0.0954,0.0240,-0.0014,0.13,0.77,-104.23,0,3.996,-0.336,0.008,0.119,0.013,-0.005,0.999,0.000,0.000,0.000,0.0100,-1,6,0.00,0.00,0.00,0.0000,0.0000,0.0000,0.0000,0.0000,0.0000,0.0000,0.00,0.00,0.00,1.0480,0.4840,1.3100,1.0730,2.7000,0,0.0000,0.0000,0.0000,0.0000,0.0000,0
303,-1.7825,1.2451,0.0100,-0.0462,0.0084,0.0061,-0.22,0.82,-103.78,0,4.001,-0.245,-0.209,0.155,0.016,-0.006,1.000,0.000,0.000,0.000,0.0060,-4,1,0.00,0.00,0.00,0.0000,0.0000,0.0000,0.0000,0.0000,0.0000,0.0000,0.00,0.00,0.00,1.0520,0.5600,1.3100,1.0730,2.7030,0,0.0000,0.0000,0.0000,0.0000,0.0000,0
404,-1.7733,1.2429,0.0086,0.0142,-0.0074,-0.0028,-0.71,0.77,-103.32,0,3.996,-0.184,0.079,-0.183,0.014,-0.005,1.000,0.000,0.000,0.000,0.0080,-20,2,0.00,0.00,0.00,0.0000,0.0000,0.0000,0.0000,0.0000,0.0000,0.0000,0.00,0.00,0.00,1.0520,0.5600,1.3140,1.0770,2.7030,0,0.0000,0.0000,0.0000,0.0000,0.0000,0
504,-1.7649,1.2418,0.0080,0.0580,-0.0130,-0.0058,-1.17,0.80,-102.87,0,3.996,-0.386,-0.173,0.090,0.015,-0.005,1.002,0.000,0.000,0.000,0.0100,0,-2,0.00,0.00,0.00,0.0000,0.0000,0.0000,0.0000,0.0000,0.0000,0.0000,0.00,0.00,0.00,1.0510,0.5030,1.3140,1.0770,2.7010,0,0.0000,0.0000,0.0000,0.0000,0.0000,0
606,-1.7614,1.2420,0.0087,0.0644,-0.0086,0.0004,-0.98,0.80,-102.42,0,3.996,-0.314,-0.009,0.104,0.015,-0.007,0.997,0.000,0.000,0.000,0.0080,0,2,0.00,0.00,0.00,0.0000,0.0000,0.0000,0.0000,0.0000,0.0000,0.0000,0.00,0.00,0.00,1.0510,0.5030,1.3140,1.0760,2.7010,0,0.0000,0.0000,0.0000,0.0000,0.0000,0
706,-1.7566,1.2401,0.0084,0.0791,-0.0173,-0.0024,-1.08,0.78,-101.97,0,4.001,0.061,-0.097,-0.093,0.015,-0.004,1.000,0.000,0.000,0.000,0.0110,-24,3,0.00,0.00,0.00,0.0000,0.0000,0.0000,0.0000,0.0000,0.0000,0.0000,0.00,0.00,0.00,1.0490,0.5850,1.3140,1.0760,2.7040,0,0.0000,0.0000,0.0000,0.0000,0.0000,0
807,-1.7461,1.2425,0.0089,0.1201,-0.0007,0.0002,-1.53,0.98,-101.53,0,3.996,0.022,-0.233,-0.496,0.015,-0.004,1.000,0.000,0.000,0.000,0.0060,-4,1,0.00,0.00,0.00,0.0000,0.0000,0.0000,0.0000,0.0000,0.0000,0.0000,0.00,0.00,0.00,1.0490,0.5850,1.3140,1.0750,2.7040,0,0.0000,0.0000,0.0000,0.0000,0.0000,0
909,-1.7468,1.2439,0.0088,0.0893,0.0072,0.0011,-1.03,0.95,-101.10,0,4.001,0.050,-0.065,-0.132,0.015,-0.005,1.001,0.000,0.000,0.000,0.0060,-10,0,0.00,0.00,0.00,0.0000,0.0000,0.0000,0.0000,0.0000,0.0000,0.0000,0.00,0.00,0.00,1.0460,0.5210,1.3140,1.0750,2.7040,0,0.0000,0.0000,0.0000,0.0000,0.0000,0
1010,-1.7531,1.2451,0.0083,0.0371,0.0120,0.0006,-0.65,0.89,-100.66,0,3.996,-0.098,-0.103,-0.005,0.015,-0.004,1.002,0.000,0.000,0.000,0.0110,-5,6,0.00,0.00,0.00,0.0000,0.0000,0.0000,0.0000,0.0000,0.0000,0.0000,0.00,0.00,0.00,1.0460,0.5210,1.3130,1.0770,2.7040,0,0.0000,0.0000,0.0000,0.0000,0.0000,0
1111,-1.7519,1.2450,0.0096,0.0371,0.0086,0.0070,-0.60,0.91,-100.22,0,4.001,-0.154,0.015,0.158,0.014,-0.007,1.000,0.000,0.000,0.000,0.0070,-4,1,0.00,0.00,0.00,0.0000,0.0000,0.0000,0.0000,0.0000,0.0000,0.0000,0.00,0.00,0.00,1.0470,0.5260,1.3130,1.0770,2.6990,0,0.0000,0.0000,0.0000,0.0000,0.0000,0
1212,-1.7556,1.2458,0.0088,0.0093,0.0106,0.0023,-0.38,0.84,-99.78,0,3.991,-0.355,-0.202,-0.049,0.011,-0.004,0.999,0.000,0.000,0.000,0.0070,-14,0,0.00,0.00,0.00,0.0000,0.0000,0.0000,0.0000,0.0000,0.0000,0.0000,0.00,0.00,0.00,1.0470,0.5260,1.3130,1.0780,2.6990,0,0.0000,0.0000,0.0000,0.0000,0.0000,0
1312,-1.7500,1.2464,0.0081,0.0381,0.0113,-0.0028,-0.69,0.87,-99.34,0,3.996,0.094,0.129,-0.138,0.014,-0.005,1.001,0.000,0.000,0.000,0.0070,-4,-2,0.00,0.00,0.00,0.0000,0.0000,0.0000,0.0000,0.0000,0.0000,0.0000,0.00,0.00,0.00,1.0500,0.0000,1.3130,1.0780,2.6990,0,0.0000,0.0000,0.0000,0.0000,0.0000,0
1414,-1.7480,1.2471,0.0076,0.0393,0.0130,-0.0043,-0.59,0.85,-98.91,0,3.996,-0.034,-0.362,-0.002,0.017,-0.007,0.998,0.000,0.000,0.000,0.0060,-11,3,0.00,0.00,0.00,0.0000,0.0000,0.0000,0.0000,0.0000,0.0000,0.0000,0.00,0.00,0.00,1.0500,0.0000,1.3120,1.0780,2.6990,0,0.0000,0.0000,0.0000,0.0000,0.0000,0
1515,-1.7473,1.2462,0.0069,0.0353,0.0050,-0.0072,-0.63,0.83,-98.47,0,4.001,-0.058,0.035,0.138,0.018,-0.005,1.001,0.000,0.000,0.000,0.0090,0,1,0.00,0.00,0.00,0.0000,0.0000,0.0000,0.0000,0.0000,0.0000,0.0000,0.00,0.00,0.00,1.0520,0.5140,1.3120,1.0780,2.7030,0,0.0000,0.0000,0.0000,0.0000,0.0000,0
1567,-1.7452,1.2466,0.0076,0.0374,0.0052,-0.0021,-0.52,0.81,-98.03,0,3.996,-0.130,0.034,0.046,0.014,-0.006,1.001,0.000,0.000,0.000,0.0100,4,0,0.00,0.00,0.00,0.0000,0.0000,0.0000,0.0000,0.0000,0.0000,0.0000,0.00,0.00,0.00,1.0520,0.5140,1.3120,1.0770,2.7030,0,0.0000,0.0000,0.0000,0.0000,0.0000,0
1618,-1.7455,1.2471,0.0086,0.0265,0.0062,0.0041,-0.40,0.79,-97.60,0,4.001,-0.244,-0.073,-0.059,0.014,-0.007,1.000,0.000,0.000,0.000,0.0080,0,3,0.00,0.00,0.00,0.0000,0.0000,0.0000,0.0000,0.0000,0.0000,0.0000,0.00,0.00,0.00,1.0490,0.5010,1.3120,1.0770,2.7000,0,0.0000,0.0000,0.0000,0.0000,0.0000,0
1668,-1.7465,1.2477,0.0085,0.0152,0.0074,0.0025,-0.35,0.81,-97.18,0,3.991,-0.195,0.071,0.067,0.015,-0.007,1.000,0.000,0.000,0.000,0.0080,-5,-1,0.00,0.00,0.00,0.0000,0.0000,0.0000,0.0000,0.0000,0.0000,0.0000,0.00,0.00,0.00,1.0490,0.5010,1.3110,1.0750,2.7000,0,0.0000,0.0000,0.0000,0.0000,0.0000,0
1719,-1.7446,1.2478,0.0084,0.0202,0.0060,0.0008,-0.45,0.76,-96.75,0,3.996,-0.271,-0.023,-0.000,0.013,-0.007,1.000,0.000,0.000,0.000,0.0110,-32,4,0.00,0.00,0.00,0.0000,0.0000,0.0000,0.0000,0.0000,0.0000,0.0000,0.00,0.00,0.00,1.0460,0.0000,1.3110,1.0750,2.7100,0,0.0000,0.0000,0.0000,0.0000,0.0000,0
1771,-1.7327,1.2471,0.0091,0.0809,-0.0002,0.0031,-1.14,0.81,-96.32,0,3.991,-0.405,-0.128,-0.145,0.015,-0.004,1.001,0.000,0.000,0.000,0.0090,-6,-20,0.00,0.00,0.00,0.0000,0.0000,0.0000,0.0000,0.0000,0.0000,0.0000,0.00,0.00,0.00,1.0460,0.0000,1.3100,1.0800,2.7100,0,0.0000,0.0000,0.0000,0.0000,0.0000,0
1823,-1.7289,1.2518,0.0096,0.0803,0.0253,0.0053,-0.84,0.76,-95.89,0,4.001,-0.116,0.243,0.158,0.015,-0.004,1.000,0.000,0.000,0.000,0.0070,-4,0,0.00,0.00,0.00,0.0000,0.0000,0.0000,0.0000,0.0000,0.0000,0.0000,0.00,0.00,0.00,1.0470,0.5250,1.3100,1.0800,2.7040,0,0.0000,0.0000,0.0000,0.0000,0.0000,0
1873,-1.7288,1.2477,0.0091,0.0641,0.0008,0.0021,-0.69,0.74,-95.47,0,3.996,-0.222,-0.233,-0.044,0.016,-0.004,1.000,0.000,0.000,0.000,0.0080,-6,10,0.00,0.00,0.00,0.0000,0.0000,0.0000,0.0000,0.0000,0.0000,0.0000,0.00,0.00,0.00,1.0470,0.5250,1.3190,1.0780,2.7040,0,0.0000,0.0000,0.0000,0.0000,0.0000,0
1925,-1.7287,1.2454,0.0088,0.0504,-0.0131,0.0007,-0.60,0.72,-95.04,0,3.996,0.053,0.090,-0.190,0.014,-0.008,0.999,0.000,0.000,0.000,0.0080,-1,-11,0.00,0.00,0.00,0.0000,0.0000,0.0000,0.0000,0.0000,0.0000,0.0000,0.00,0.00,0.00,1.0480,0.5010,1.3190,1.0780,2.6990,0,0.0000,0.0000,0.0000,0.0000,0.0000,0
1976,-1.7278,1.2528,0.0086,0.0424,0.0276,-0.0006,-0.45,0.82,-94.63,0,3.991,-0.034,-0.319,-0.346,0.013,-0.004,1.000,0.000,0.000,0.000,0.0080,6,-9,0.00,0.00,0.00,0.0000,0.0000,0.0000,0.0000,0.0000,0.0000,0.0000,0.00,0.00,0.00,1.0480,0.5010,1.3130,1.0780,2.6990,0,0.0000,0.0000,0.0000,0.0000,0.0000,0
2027,-1.7306,1.2518,0.0086,0.0216,0.0176,-0.0004,-0.23,0.75,-94.20,0,4.001,-0.100,-0.206,0.030,0.014,-0.006,1.001,0.000,0.000,0.000,0.0080,-10,0,0.00,0.00,0.00,0.0000,0.0000,0.0000,0.0000,0.0000,0.0000,0.0000,0.00,0.00,0.00,1.0490,0.5050,1.3130,1.0780,2.7000,0,0.0000,0.0000,0.0000,0.0000,0.0000,0
2079,-1.7301,1.2510,0.0084,0.0197,0.0101,-0.0007,-0.39,0.78,-93.79,0,3.991,0.014,0.301,-0.202,0.016,-0.002,1.000,0.000,0.000,0.000,0.0100,-5,3,0.00,0.00,0.00,0.0000,0.0000,0.0000,0.0000,0.0000,0.0000,0.0000,0.00,0.00,0.00,1.0490,0.5050,1.3130,1.0790,2.7000,0,0.0000,0.0000,0.0000,0.0000,0.0000,0
2129,-1.7280,1.2497,0.0092,0.0241,0.0007,0.0033,-0.39,0.74,-93.37,0,4.001,-0.494,0.003,0.060,0.016,-0.007,0.999,0.000,0.000,0.000,0.0060,5,-3,0.00,0.00,0.00,0.0000,0.0000,0.0000,0.0000,0.0000,0.0000,0.0000,0.00,0.00,0.00,1.0500,0.5210,1.3130,1.0790,2.7070,0,0.0000,0.0000,0.0000,0.0000,0.0000,0
2181,-1.7255,1.2511,0.0079,0.0308,0.0072,-0.0041,-0.35,0.73,-93.04,0,3.996,-0.195,-0.126,-0.046,0.013,-0.005,1.001,0.000,0.000,0.000,0.0090,-4,-10,0.00,0.00,0.00,0.0000,0.0000,0.0000,0.0000,0.0000,0.0000,0.0000,0.00,0.00,0.00,1.0500,0.5210,1.3110,1.0750,2.7070,0,0.0000,0.0000,0.0000,0.0000,0.0000,0
2232,-1.7277,1.2558,0.0084,0.0129,0.0299,-0.0006,-0.30,0.83,-92.62,0,4.001,0.002,-0.043,-0.036,0.014,-0.006,1.000,0.000,0.000,0.000,0.0070,1,-1,0.00,0.00,0.00,0.0000,0.0000,0.0000,0.0000,0.0000,0.0000,0.0000,0.00,0.00,0.00,1.0450,0.5390,1.3110,1.0750,2.7030,0,0.0000,0.0000,0.0000,0.0000,0.0000,0
2283,-1.7235,1.2483,0.0079,0.0293,-0.0102,-0.0025,-0.40,0.62,-92.21,0,3.991,0.046,-0.029,-0.202,0.015,-0.006,0.999,0.000,0.000,0.000,0.0080,20,-33,0.00,0.00,0.00,0.0000,0.0000,0.0000,0.0000,0.0000,0.0000,0.0000,0.00,0.00,0.00,1.0450,0.5390,1.3170,1.0820,2.7030,0,0.0000,0.0000,0.0000,0.0000,0.0000,0
2334,-1.7254,1.2473,0.0080,0.0137,-0.0142,-0.0014,-0.11,0.31,-91.80,0,4.001,-0.402,-0.229,-0.269,0.017,-0.002,0.999,0.000,0.000,0.000,0.0100,-5,3,0.00,0.00,0.00,0.0000,0.0000,0.0000,0.0000,0.0000,0.0000,0.0000,0.00,0.00,0.00,1.0510,0.5320,1.3170,1.0820,2.7090,0,0.0000,0.0000,0.0000,0.0000,0.0000,0
2384,-1.7313,1.2393,0.0088,-0.0163,-0.0494,0.0029,-0.13,0.39,-91.39,0,3.996,-0.309,-0.110,0.098,0.013,-0.004,1.000,0.000,0.000,0.000,0.0070,-27,1,0.00,0.00,0.00,0.0000,0.0000,0.0000,0.0000,0.0000,0.0000,0.0000,0.00,0.00,0.00,1.0510,0.5320,1.3110,1.0820,2.7090,0,0.0000,0.0000,0.0000,0.0000,0.0000,0
2435,-1.7280,1.2389,0.0082,0.0030,-0.0436,-0.0009,-0.51,0.46,-90.99,0,4.001,-0.115,0.066,-0.301,0.013,-0.006,1.001,0.000,0.000,0.000,0.0050,4,0,0.00,0.00,0.00,0.0000,0.0000,0.0000,0.0000,0.0000,0.0000,0.0000,0.00,0.00,0.00,1.0500,0.5390,1.3110,1.0820,2.7090,0,0.0000,0.0000,0.0000,0.0000,0.0000,0
2486,-1.7165,1.2401,0.0068,0.0557,-0.0300,-0.0079,-0.60,0.57,-90.59,0,3.996,-0.132,-0.191,-0.188,0.016,-0.002,0.999,0.000,0.000,0.000,0.0050,-5,1,0.00,0.00,0.00,0.0000,0.0000,0.0000,0.0000,0.0000,0.0000,0.0000,0.00,0.00,0.00,1.0500,0.5390,1.3090,1.0820,2.7090,0,0.0000,0.0000,0.0000,0.0000,0.0000,0
2538,-1.7075,1.2350,0.0053,0.0938,-0.0514,-0.0144,-0.95,0.44,-90.19,0,3.996,-0.289,-0.146,-0.042,0.015,-0.003,1.001,0.000,0.000,0.000,0.0070,3,1,0.00,0.00,0.00,0.0000,0.0000,0.0000,0.0000,0.0000,0.0000,0.0000,0.00,0.00,0.00,1.0470,0.4940,1.3090,1.0820,2.7000,0,0.0000,0.0000,0.0000,0.0000,0.0000,0
2590,-1.6988,1.2332,0.0053,0.1185,-0.0499,-0.0102,-1.00,0.47,-89.79,0,3.991,-0.171,-0.177,-0.074,0.015,-0.004,1.000,0.000,0.000,0.000,0.0090,0,0,0.00,0.00,0.00,0.0000,0.0000,0.0000,0.0000,0.0000,0.0000,0.0000,0.00,0.00,0.00,1.0470,0.4940,1.3110,1.0760,2.7000,0,0.0000,0.0000,0.0000,0.0000,0.0000,0
2641,-1.6989,1.2331,0.0073,0.0950,-0.0403,0.0032,-0.85,0.53,-89.38,0,4.001,-0.044,-0.093,-0.105,0.016,-0.006,1.002,0.000,0.000,0.000,0.0070,-2,4,0.00,0.00,0.00,0.0000,0.0000,0.0000,0.0000,0.0000,0.0000,0.0000,0.00,0.00,0.00,1.0510,0.5120,1.3110,1.0760,2.6970,0,0.0000,0.0000,0.0000,0.0000,0.0000,0
2692,-1.7006,1.2326,0.0077,0.0669,-0.0354,0.0058,-0.59,0.64,-88.97,0,3.991,-0.024,-0.197,0.070,0.017,-0.005,1.000,0.000,0.000,0.000,0.0060,-2,-3,0.00,0.00,0.00,0.0000,0.0000,0.0000,0.0000,0.0000,0.0000,0.0000,0.00,0.00,0.00,1.0510,0.5120,1.3120,1.0780,2.6970,0,0.0000,0.0000,0.0000,0.0000,0.0000,0
2742,-1.7026,1.2309,0.0073,0.0420,-0.0380,0.0029,-0.39,0.57,-88.55,0,3.996,0.053,0.127,0.020,0.016,-0.006,1.001,0.000,0.000,0.000,0.0110,-1,1,0.00,0.00,0.00,0.0000,0.0000,0.0000,0.0000,0.0000,0.0000,0.0000,0.00,0.00,0.00,1.0450,0.4190,1.3120,1.0780,2.6990,0,0.0000,0.0000,0.0000,0.0000,0.0000,0
2794,-1.7137,1.2318,0.0090,-0.0240,-0.0271,0.0120,0.11,0.71,-88.14,0,3.991,-0.124,0.062,0.073,0.016,-0.004,1.000,0.000,0.000,0.000,0.0080,-1,-1,0.00,0.00,0.00,0.0000,0.0000,0.0000,0.0000,0.0000,0.0000,0.0000,0.00,0.00,0.00,1.0450,0.4190,1.3090,1.0760,2.6990,0,0.0000,0.0000,0.0000,0.0000,0.0000,0
2844,-1.7126,1.2324,0.0092,-0.0188,-0.0179,0.0097,0.05,0.77,-87.75,0,3.996,-0.010,-0.032,-0.166,0.017,-0.006,1.002,0.000,0.000,0.000,0.0070,3,0,0.00,0.00,0.00,0.0000,0.0000,0.0000,0.0000,0.0000,0.0000,0.0000,0.00,0.00,0.00,1.0500,0.0000,1.3090,1.0760,2.7010,0,0.0000,0.0000,0.0000,0.0000,0.0000,0
2896,-1.7085,1.2328,0.0088,0.0031,-0.0122,0.0048,-0.11,0.82,-87.35,0,3.991,-0.025,0.139,0.246,0.014,-0.007,1.001,0.000,0.000,0.000,0.0080,-3,3,0.00,0.00,0.00,0.0000,0.0000,0.0000,0.0000,0.0000,0.0000,0.0000,0.00,0.00,0.00,1.0500,0.0000,1.3180,1.0790,2.7010,0,0.0000,0.0000,0.0000,0.0000,0.0000,0
2948,-1.7099,1.2320,0.0086,-0.0061,-0.0135,0.0031,-0.12,0.84,-86.95,0,4.001,-0.057,-0.110,-0.127,0.015,-0.004,1.000,0.000,0.000,0.000,0.0080,-2,1,0.00,0.00,0.00,0.0000,0.0000,0.0000,0.0000,0.0000,0.0000,0.0000,0.00,0.00,0.00,1.0500,0.0000,1.3180,1.0790,2.7020,0,0.0000,0.0000,0.0000,0.0000,0.0000,0
2999,-1.7091,1.2325,0.0085,-0.0024,-0.0083,0.0017,-0.16,0.86,-86.55,0,3.991,-0.108,-0.127,-0.077,0.016,-0.007,1.000,0.000,0.000,0.000,0.0090,-26,1,0.00,0.00,0.00,0.0000,0.0000,0.0000,0.0000,0.0000,0.0000,0.0000,0.00,0.00,0.00,1.0500,0.0000,1.3130,1.0780,2.7020,0,0.0000,0.0000,0.0000,0.0000,0.0000,0
3049,-1.7040,1.2324,0.0087,0.0238,-0.0070,0.0026,-0.59,0.86,-86.15,0,3.996,-0.192,-0.217,0.146,0.015,-0.005,0.998,0.000,0.000,0.000,0.0100,-4,-1,0.00,0.00,0.00,0.0000,0.0000,0.0000,0.0000,0.0000,0.0000,0.0000,0.00,0.00,0.00,1.0490,0.0000,1.3130,1.0780,2.7090,0,0.0000,0.0000,0.0000,0.0000,0.0000,0
3100,-1.6995,1.2329,0.0094,0.0389,-0.0022,0.0057,-0.50,0.87,-85.77,0,3.991,-0.172,0.012,-0.061,0.012,-0.004,1.001,0.000,0.000,0.000,0.0100,2,-1,0.00,0.00,0.00,0.0000,0.0000,0.0000,0.0000,0.0000,0.0000,0.0000,0.00,0.00,0.00,1.0490,0.0000,1.3160,1.0850,2.7090,0,0.0000,0.0000,0.0000,0.0000,0.0000,0
3152,-1.6975,1.2330,0.0099,0.0406,0.0004,0.0070,-0.45,0.87,-85.38,0,3.996,-0.154,0.262,0.022,0.015,-0.005,1.001,0.000,0.000,0.000,0.0110,27,5,0.00,0.00,0.00,0.0000,0.0000,0.0000,0.0000,0.0000,0.0000,0.0000,0.00,0.00,0.00,1.0500,0.0000,1.3160,1.0850,2.6990,0,0.0000,0.0000,0.0000,0.0000,0.0000,0
3203,-1.7014,1.2331,0.0108,0.0099,0.0017,0.0107,0.02,0.94,-85.01,0,3.991,0.066,0.453,-0.036,0.013,-0.006,1.000,0.000,0.000,0.000,0.0090,-21,2,0.00,0.00,0.00,0.0000,0.0000,0.0000,0.0000,0.0000,0.0000,0.0000,0.00,0.00,0.00,1.0500,0.0000,1.3070,1.0810,2.6990,0,0.0000,0.0000,0.0000,0.0000,0.0000,0
3254,-1.7056,1.2306,0.0105,-0.0115,-0.0119,0.0066,-0.28,0.81,-84.61,0,4.001,0.050,0.069,-0.145,0.018,-0.003,1.000,0.000,0.000,0.000,0.0070,4,-1,0.00,0.00,0.00,0.0000,0.0000,0.0000,0.0000,0.0000,0.0000,0.0000,0.00,0.00,0.00,1.0490,0.0000,1.3070,1.0810,2.6980,0,0.0000,0.0000,0.0000,0.0000,0.0000,0
3305,-1.6980,1.2328,0.0093,0.0285,0.0014,-0.0011,-0.37,0.85,-84.22,0,3.991,-0.062,-0.236,0.220,0.013,-0.008,1.000,0.000,0.000,0.000,0.0110,-15,0,0.00,0.00,0.00,0.0000,0.0000,0.0000,0.0000,0.0000,0.0000,0.0000,0.00,0.00,0.00,1.0490,0.0000,1.3090,1.0800,2.6980,0,0.0000,0.0000,0.0000,0.0000,0.0000,0
3356,-1.7045,1.2313,0.0102,-0.0141,-0.0063,0.0040,-0.24,0.83,-83.84,0,3.996,-0.229,0.088,0.262,0.013,-0.006,1.001,0.000,0.000,0.000,0.0100,-8,1,0.00,0.00,0.00,0.0000,0.0000,0.0000,0.0000,0.0000,0.0000,0.0000,0.00,0.00,0.00,1.0500,0.0000,1.3090,1.0800,2.7060,0,0.0000,0.0000,0.0000,0.0000,0.0000,0
3408,-1.7023,1.2313,0.0103,-0.0026,-0.0051,0.0038,-0.28,0.83,-83.45,0,3.991,-0.094,-0.019,0.160,0.014,-0.006,1.000,0.000,0.000,0.000,0.0110,-7,-5,0.00,0.00,0.00,0.0000,0.0000,0.0000,0.0000,0.0000,0.0000,0.0000,0.00,0.00,0.00,1.0500,0.0000,1.3100,1.0810,2.7060,0,0.0000,0.0000,0.0000,0.0000,0.0000,0
3458,-1.7022,1.2324,0.0108,-0.0025,0.0016,0.0054,-0.29,0.83,-83.07,0,4.001,-0.187,0.069,-0.290,0.013,-0.005,1.000,0.000,0.000,0.000,0.0100,0,-1,0.00,0.00,0.00,0.0000,0.0000,0.0000,0.0000,0.0000,0.0000,0.0000,0.00,0.00,0.00,1.0490,0.0000,1.3100,1.0810,2.7050,0,0.0000,0.0000,0.0000,0.0000,0.0000,0
3510,-1.6925,1.2383,0.0107,0.0512,0.0346,0.0023,-0.66,1.05,-82.68,0,3.991,-0.191,0.097,0.060,0.014,-0.005,0.998,0.000,0.000,0.000,0.0090,-17,6,0.00,0.00,0.00,0.0000,0.0000,0.0000,0.0000,0.0000,0.0000,0.0000,0.00,0.00,0.00,1.0490,0.0000,1.3140,1.0750,2.7050,0,0.0000,0.0000,0.0000,0.0000,0.0000,0
3561,-1.6960,1.2369,0.0105,0.0218,0.0213,0.0008,-0.58,1.02,-82.30,0,4.001,-0.288,0.077,0.344,0.016,-0.004,1.001,0.000,0.000,0.000,0.0090,3,5,0.00,0.00,0.00,0.0000,0.0000,0.0000,0.0000,0.0000,0.0000,0.0000,0.00,0.00,0.00,1.0490,0.4160,1.3140,1.0750,2.7100,0,0.0000,0.0000,0.0000,0.0000,0.0000,0
3612,-1.6919,1.2381,0.0099,0.0362,0.0217,-0.0021,-0.50,0.98,-81.92,0,3.991,-0.320,0.051,0.177,0.014,-0.005,0.999,0.000,0.000,0.000,0.0080,0,-2,0.00,0.00,0.00,0.0000,0.0000,0.0000,0.0000,0.0000,0.0000,0.0000,0.00,0.00,0.00,1.0490,0.4160,1.3170,1.0750,2.7100,0,0.0000,0.0000,0.0000,0.0000,0.0000,0
3663,-1.6914,1.2388,0.0090,0.0327,0.0211,-0.0062,-0.50,0.89,-81.54,0,4.001,-0.160,0.121,-0.124,0.014,-0.006,1.000,0.000,0.000,0.000,0.0090,-10,0,0.00,0.00,0.00,0.0000,0.0000,0.0000,0.0000,0.0000,0.0000,0.0000,0.00,0.00,0.00,1.0480,0.3890,1.3170,1.0750,2.7060,0,0.0000,0.0000,0.0000,0.0000,0.0000,0
3714,-1.6936,1.2382,0.0089,0.0142,0.0137,-0.0047,-0.44,0.87,-81.17,0,3.991,-0.434,-0.335,-0.075,0.011,-0.007,1.001,0.000,0.000,0.000,0.0100,4,1,0.00,0.00,0.00,0.0000,0.0000,0.0000,0.0000,0.0000,0.0000,0.0000,0.00,0.00,0.00,1.0480,0.3890,1.3170,1.0770,2.7060,0,0.0000,0.0000,0.0000,0.0000,0.0000,0
3765,-1.6905,1.2398,0.0093,0.0278,0.0193,-0.0018,-0.42,0.89,-80.80,0,3.996,-0.111,-0.192,0.138,0.014,-0.005,0.999,0.000,0.000,0.000,0.0090,-5,-1,0.00,0.00,0.00,0.0000,0.0000,0.0000,0.0000,0.0000,0.0000,0.0000,0.00,0.00,0.00,1.0480,0.4110,1.3170,1.0770,2.7060,0,0.0000,0.0000,0.0000,0.0000,0.0000,0
3816,-1.6931,1.2385,0.0093,0.0081,0.0082,-0.0014,-0.34,0.82,-80.43,0,3.985,-0.259,-0.144,-0.299,0.012,-0.006,0.999,0.000,0.000,0.000,0.0080,1,-1,0.00,0.00,0.00,0.0000,0.0000,0.0000,0.0000,0.0000,0.0000,0.0000,0.00,0.00,0.00,1.0480,0.4110,1.3110,1.0810,2.7060,0,0.0000,0.0000,0.0000,0.0000,0.0000,0
3868,0.0000,-0.0000,0.0080,0.0025,-0.0018,-0.0001,0.00,-0.00,-0.00,0,4.001,-0.466,-0.021,0.371,0.014,-0.004,1.001,0.000,0.000,0.000,0.0080,-13,0,0.00,0.00,0.00,0.0000,0.0000,0.0000,0.0000,0.0000,0.0000,0.0000,0.00,0.00,0.00,1.0510,0.0000,1.3110,1.0810,2.7070,0,0.0000,0.0000,0.0000,0.0000,0.0000,0
3919,0.0003,-0.0006,0.0080,0.0098,-0.0133,-0.0001,-0.24,0.01,-0.00,0,3.991,-0.085,-0.114,0.232,0.014,-0.006,1.001,0.000,0.000,0.000,0.0110,11,5,0.00,0.00,0.00,0.0000,0.0000,0.0000,0.0000,0.0000,0.0000,0.0000,0.00,0.00,0.00,1.0510,0.0000,1.3180,1.0730,2.7070,0,0.0000,0.0000,0.0000,0.0000,0.0000,0
3970,0.0010,-0.0011,0.0093,0.0166,-0.0181,0.0037,0.87,0.31,-0.00,0,3.996,-0.222,0.209,0.296,0.014,-0.003,1.001,0.000,0.000,0.000,0.0080,0,1,0.00,0.00,0.00,0.0000,0.0000,0.0000,0.0000,0.0000,0.0000,0.0000,0.00,0.00,0.00,1.0520,0.0000,1.3180,1.0730,2.7030,0,0.0000,0.0000,0.0000,0.0000,0.0000,0
4020,0.0005,-0.0065,0.0088,0.0081,-0.0668,0.0002,1.19,0.48,-0.00,0,3.991,-0.149,-0.192,-0.146,0.015,-0.004,0.999,0.000,0.000,0.000,0.0100,15,0,0.00,0.00,0.00,0.0000,0.0000,0.0000,0.0000,0.0000,0.0000,0.0000,0.00,0.00,0.00,1.0520,0.0000,1.3140,1.0800,2.7030,0,0.0000,0.0000,0.0000,0.0000,0.0000,0
4072,0.0007,-0.0062,0.0096,0.0093,-0.0433,0.0045,1.15,0.47,0.00,0,3.996,-0.199,-0.118,0.181,0.015,-0.005,0.998,0.000,0.000,0.000,0.0100,9,0,0.00,0.00,0.00,0.0000,0.0000,0.0000,0.0000,0.0000,0.0000,0.0000,0.00,0.00,0.00,1.0490,0.4100,1.3140,1.0800,2.7050,0,0.0000,0.0000,0.0000,0.0000,0.0000,0
4122,0.0002,-0.0062,0.0101,0.0039,-0.0300,0.0057,0.41,0.63,0.01,0,3.991,-0.536,-0.003,0.269,0.014,-0.004,0.998,0.000,0.000,0.000,0.0080,15,1,0.00,0.00,0.00,0.0000,0.0000,0.0000,0.0000,0.0000,0.0000,0.0000,0.00,0.00,0.00,1.0490,0.4100,1.3110,1.0760,2.7050,0,0.0000,0.0000,0.0000,0.0000,0.0000,0
4174,0.0015,-0.0156,0.0094,0.0140,-0.0935,-0.0011,1.56,0.54,-0.00,0,3.996,-0.226,-0.195,-0.051,0.012,-0.006,1.000,0.000,0.000,0.000,0.0060,-4,5,0.00,0.00,0.00,0.0000,0.0000,0.0000,0.0000,0.0000,0.0000,0.0000,0.00,0.00,0.00,1.0510,0.0000,1.3110,1.0760,2.7040,0,0.0000,0.0000,0.0000,0.0000,0.0000,0
4224,0.0024,-0.0182,0.0081,0.0181,-0.0888,-0.0074,0.62,0.63,0.01,0,3.996,-0.317,0.087,0.228,0.015,-0.002,1.001,0.000,0.000,0.000,0.0100,-2,3,0.00,0.00,0.00,0.0000,0.0000,0.0000,0.0000,0.0000,0.0000,0.0000,0.00,0.00,0.00,1.0510,0.0000,1.3100,1.0750,2.7040,0,0.0000,0.0000,0.0000,0.0000,0.0000,0
4276,0.0013,-0.0181,0.0089,0.0086,-0.0688,-0.0004,0.27,0.71,0.02,0,3.996,-0.012,-0.078,-0.201,0.015,-0.006,0.999,0.000,0.000,0.000,0.0110,19,4,0.00,0.00,0.00,0.0000,0.0000,0.0000,0.0000,0.0000,0.0000,0.0000,0.00,0.00,0.00,1.0480,0.0000,1.3100,1.0750,2.7030,0,0.0000,0.0000,0.0000,0.0000,0.0000,0
4327,-0.0029,-0.0247,0.0098,-0.0185,-0.0960,0.0028,1.02,1.09,0.01,0,3.991,-0.079,0.171,-0.008,0.012,-0.005,1.001,0.000,0.000,0.000,0.0080,-12,0,0.00,0.00,0.00,0.0000,0.0000,0.0000,0.0000,0.0000,0.0000,0.0000,0.00,0.00,0.00,1.0480,0.0000,1.3100,1.0760,2.7030,0,0.0000,0.0000,0.0000,0.0000,0.0000,0
4378,-0.0025,-0.0284,0.0093,-0.0118,-0.0954,0.0008,0.22,0.90,0.03,0,3.996,-0.003,-0.043,-0.054,0.014,-0.006,0.999,0.000,0.000,0.000,0.0100,1,0,0.00,0.00,0.00,0.0000,0.0000,0.0000,0.0000,0.0000,0.0000,0.0000,0.00,0.00,0.00,1.0510,0.0000,1.3100,1.0760,2.7110,0,0.0000,0.0000,0.0000,0.0000,0.0000,0
4429,0.0019,-0.0231,0.0103,0.0143,-0.0511,0.0053,-0.08,0.60,0.03,0,3.991,-0.234,-0.071,0.026,0.015,-0.007,0.999,0.000,0.000,0.000,0.0120,-4,2,0.00,0.00,0.00,0.0000,0.0000,0.0000,0.0000,0.0000,0.0000,0.0000,0.00,0.00,0.00,1.0510,0.0000,1.3050,1.0800,2.7110,0,0.0000,0.0000,0.0000,0.0000,0.0000,0
4479,0.0020,-0.0182,0.0113,0.0128,-0.0154,0.0095,-0.57,0.66,0.05,0,3.996,-0.231,0.200,0.340,0.015,-0.008,1.000,0.000,0.000,0.000,0.0110,3,-2,0.00,0.00,0.00,0.0000,0.0000,0.0000,0.0000,0.0000,0.0000,0.0000,0.00,0.00,0.00,1.0510,0.4190,1.3050,1.0800,2.6990,0,0.0000,0.0000,0.0000,0.0000,0.0000,0
4530,0.0009,-0.0161,0.0115,0.0049,0.0006,0.0074,-0.61,0.70,0.05,0,3.991,-0.265,-0.019,-0.141,0.017,-0.006,1.000,0.000,0.000,0.000,0.0080,-9,3,0.00,0.00,0.00,0.0000,0.0000,0.0000,0.0000,0.0000,0.0000,0.0000,0.00,0.00,0.00,1.0510,0.4190,1.3070,1.0780,2.6990,0,0.0000,0.0000,0.0000,0.0000,0.0000,0
4582,0.0003,-0.0234,0.0102,0.0015,-0.0369,-0.0015,-0.41,0.81,0.04,0,3.996,-0.319,0.205,0.211,0.015,-0.003,1.000,0.000,0.000,0.000,0.0060,2,4,0.00,0.00,0.00,0.0000,0.0000,0.0000,0.0000,0.0000,0.0000,0.0000,0.00,0.00,0.00,1.0530,0.0000,1.3070,1.0780,2.7050,0,0.0000,0.0000,0.0000,0.0000,0.0000,0
4633,-0.0013,-0.0206,0.0086,-0.0070,-0.0180,-0.0098,-0.42,0.90,0.03,0,3.996,-0.190,-0.081,0.021,0.014,-0.007,1.000,0.000,0.000,0.000,0.0100,10,1,0.00,0.00,0.00,0.0000,0.0000,0.0000,0.0000,0.0000,0.0000,0.0000,0.00,0.00,0.00,1.0530,0.0000,1.3150,1.0810,2.7050,0,0.0000,0.0000,0.0000,0.0000,0.0000,0
4684,-0.0008,-0.0025,0.0087,-0.0016,0.0842,-0.0072,-1.24,0.81,0.06,0,3.996,-0.101,0.018,0.109,0.014,-0.007,1.000,0.000,0.000,0.000,0.0120,6,-3,0.00,0.00,0.00,0.0000,0.0000,0.0000,0.0000,0.0000,0.0000,0.0000,0.00,0.00,0.00,1.0510,0.0000,1.3150,1.0810,2.7110,0,0.0000,0.0000,0.0000,0.0000,0.0000,0
4735,-0.0033,-0.0004,0.0104,-0.0144,0.0806,0.0038,-1.17,0.88,0.05,0,3.991,-0.271,-0.160,-0.065,0.016,-0.005,0.999,0.000,0.000,0.000,0.0120,0,-2,0.00,0.00,0.00,0.0000,0.0000,0.0000,0.0000,0.0000,0.0000,0.0000,0.00,0.00,0.00,1.0510,0.0000,1.3110,1.0750,2.7110,0,0.0000,0.0000,0.0000,0.0000,0.0000,0
4786,-0.0048,-0.0086,0.0118,-0.0197,0.0274,0.0100,-0.71,0.92,0.04,0,3.996,0.139,-0.080,-0.129,0.014,-0.007,1.000,0.000,0.000,0.000,0.0100,1,4,0.00,0.00,0.00,0.0000,0.0000,0.0000,0.0000,0.0000,0.0000,0.0000,0.00,0.00,0.00,1.0510,0.0000,1.3110,1.0750,2.7090,0,0.0000,0.0000,0.0000,0.0000,0.0000,0
4837,-0.0035,-0.0073,0.0114,-0.0089,0.0300,0.0050,-0.70,0.88,0.03,0,3.991,-0.367,0.166,-0.027,0.012,-0.004,0.998,0.000,0.000,0.000,0.0100,30,0,0.00,0.00,0.00,0.0000,0.0000,0.0000,0.0000,0.0000,0.0000,0.0000,0.00,0.00,0.00,1.0510,0.0000,1.3130,1.0780,2.7090,0,0.0000,0.0000,0.0000,0.0000,0.0000,0
4887,-0.0044,-0.0084,0.0110,-0.0107,0.0201,0.0017,-0.28,0.86,0.03,0,3.991,0.035,-0.232,-0.074,0.013,-0.009,1.000,0.000,0.000,0.000,0.0100,-1,-3,0.00,0.00,0.00,0.0000,0.0000,0.0000,0.0000,0.0000,0.0000,0.0000,0.00,0.00,0.00,1.0530,0.4440,1.3130,1.0780,2.7040,0,0.0000,0.0000,0.0000,0.0000,0.0000,0
4938,-0.0052,-0.0152,0.0107,-0.0133,-0.0137,0.0002,-0.34,0.84,0.03,0,3.996,-0.007,0.257,0.063,0.014,-0.004,1.000,0.000,0.000,0.000,0.0080,2,1,0.00,0.00,0.00,0.0000,0.0000,0.0000,0.0000,0.0000,0.0000,0.0000,0.00,0.00,0.00,1.0530,0.4440,1.3120,1.0790,2.7040,0,0.0000,0.0000,0.0000,0.0000,0.0000,0
4990,-0.0044,-0.0146,0.0096,-0.0061,-0.0074,-0.0054,-0.36,0.81,0.03,0,3.996,-0.025,-0.033,0.002,0.015,-0.005,1.001,0.000,0.000,0.000,0.0090,-2,-1,0.00,0.00,0.00,0.0000,0.0000,0.0000,0.0000,0.0000,0.0000,0.0000,0.00,0.00,0.00,1.0490,0.0000,1.3120,1.0790,2.7000,0,0.0000,0.0000,0.0000,0.0000,0.0000,0
5040,-0.0043,-0.0155,0.0092,-0.0044,-0.0093,-0.0065,-0.38,0.77,0.03,0,3.991,-0.136,0.071,0.373,0.014,-0.006,1.003,0.000,0.000,0.000,0.0080,-29,7,0.00,0.00,0.00,0.0000,0.0000,0.0000,0.0000,0.0000,0.0000,0.0000,0.00,0.00,0.00,1.0490,0.0000,1.3120,1.0790,2.7000,0,0.0000,0.0000,0.0000,0.0000,0.0000,0
5092,-0.0045,-0.0114,0.0085,-0.0037,0.0140,-0.0081,-0.83,0.84,0.04,0,3.611,-0.009,0.234,0.056,0.005,0.003,0.997,0.000,0.000,0.000,0.0080,-2,0,0.00,0.00,0.00,0.0000,0.0000,0.0000,0.0000,0.0000,0.0000,0.0000,0.00,0.00,0.00,1.0520,0.0000,1.3120,1.0790,2.7080,0,0.0000,0.0000,0.0000,0.0000,0.0000,0
5142,-0.0072,-0.0059,0.0081,-0.0173,0.0372,-0.0077,-0.70,0.87,0.04,0,3.690,0.050,-0.826,-0.150,0.003,-0.007,1.012,0.000,0.000,0.000,0.0120,5,0,0.00,0.00,0.00,0.0000,0.0000,0.0000,0.0000,0.0000,0.0000,0.0000,0.00,0.00,0.00,1.0520,0.0000,1.3080,1.0760,2.7080,0,0.0000,0.0000,0.0000,0.0000,0.0000,0
5194,-0.0059,-0.0038,0.0096,-0.0133,0.0439,0.0020,-0.63,0.80,0.05,0,3.721,-1.576,0.521,-3.381,0.009,-0.005,1.002,0.000,0.000,0.000,0.0070,-10,7,0.00,0.00,0.00,0.0000,0.0000,0.0000,0.0000,0.0000,0.0000,0.0000,0.00,0.00,0.00,1.0470,0.0000,1.3080,1.0760,2.7000,0,0.0000,0.0000,0.0000,0.0000,0.0000,0
5246,-0.0054,-0.0107,0.0088,-0.0133,0.0048,-0.0056,-0.42,0.86,-0.10,0,3.743,2.221,-1.652,-1.986,0.004,-0.026,1.010,0.000,0.000,0.000,0.0080,0,0,0.00,0.00,0.00,0.0000,0.0000,0.0000,0.0000,0.0000,0.0000,0.0000,0.00,0.00,0.00,1.0470,0.0000,0.0000,1.0750,2.7000,0,0.0000,0.0000,0.0000,0.0000,0.0000,0
5296,-0.0072,-0.0103,0.0084,-0.0240,0.0075,-0.0026,-0.33,0.83,-0.17,0,3.753,-1.528,0.371,-3.412,-0.001,0.033,0.986,0.000,0.000,0.000,0.0060,7,1,0.00,0.00,0.00,0.0000,0.0000,0.0000,0.0000,0.0000,0.0000,0.0000,0.00,0.00,0.00,1.0470,0.0000,0.0000,1.0750,2.7050,0,0.0000,0.0000,0.0000,0.0000,0.0000,0
5348,-0.0070,-0.0072,0.0073,-0.0233,0.0243,-0.0106,-0.33,0.74,-0.14,0,3.748,0.909,1.863,1.149,0.007,-0.004,1.004,0.000,0.000,0.000,0.0100,-13,3,0.00,0.00,0.00,0.0000,0.0000,0.0000,0.0000,0.0000,0.0000,0.0000,0.00,0.00,0.00,1.0470,0.0000,1.3120,1.0680,2.7050,0,0.0000,0.0000,0.0000,0.0000,0.0000,0
5399,-0.0081,-0.0111,0.0083,-0.0291,0.0016,-0.0021,-0.30,0.78,-0.09,0,3.748,-0.904,-4.752,-5.695,0.000,-0.017,1.001,0.000,0.000,0.000,0.0090,-1,0,0.00,0.00,0.00,0.0000,0.0000,0.0000,0.0000,0.0000,0.0000,0.0000,0.00,0.00,0.00,1.0540,0.4130,1.3120,1.0680,2.7000,0,0.0000,0.0000,0.0000,0.0000,0.0000,0
5450,-0.0168,-0.0032,0.0083,-0.0715,0.0421,0.0009,-0.48,0.97,-0.34,0,3.748,1.364,0.424,-6.882,0.002,-0.015,1.005,0.000,0.000,0.000,0.0110,0,0,0.00,0.00,0.00,0.0000,0.0000,0.0000,0.0000,0.0000,0.0000,0.0000,0.00,0.00,0.00,1.0540,0.4130,1.3110,1.0620,2.7000,0,0.0000,0.0000,0.0000,0.0000,0.0000,0
5500,-0.0266,0.0040,0.0089,-0.1092,0.0701,0.0049,-0.69,1.22,-0.60,0,3.748,-0.224,2.260,-4.762,-0.007,0.002,0.975,0.000,0.000,0.000,0.0050,0,0,0.00,0.00,0.00,0.0000,0.0000,0.0000,0.0000,0.0000,0.0000,0.0000,0.00,0.00,0.00,1.0520,0.0000,1.3110,1.0620,2.7060,0,0.0000,0.0000,0.0000,0.0000,0.0000,0
5552,-0.0322,0.0076,0.0073,-0.1192,0.0758,-0.0036,-0.70,1.16,-0.83,0,3.743,-3.109,1.945,1.766,0.010,0.003,0.977,0.000,0.000,0.000,0.0080,0,0,0.00,0.00,0.00,0.0000,0.0000,0.0000,0.0000,0.0000,0.0000,0.0000,0.00,0.00,0.00,1.0520,0.0000,1.3050,1.0500,2.7060,0,0.0000,0.0000,0.0000,0.0000,0.0000,0
5602,-0.0385,0.0115,0.0074,-0.1291,0.0816,-0.0060,-0.64,1.14,-0.79,0,3.737,2.712,-5.517,3.405,0.015,-0.019,0.954,0.000,0.000,0.000,0.0090,0,0,0.00,0.00,0.00,0.0000,0.0000,0.0000,0.0000,0.0000,0.0000,0.0000,0.00,0.00,0.00,1.0510,0.3380,1.3050,1.0500,2.7080,0,0.0000,0.0000,0.0000,0.0000,0.0000,0
5654,-0.0452,0.0158,0.0080,-0.1387,0.0877,0.0007,-0.63,1.14,-0.70,0,3.737,11.773,1.215,-1.299,0.009,-0.026,1.007,0.000,0.000,0.000,0.0080,0,0,0.00,0.00,0.00,0.0000,0.0000,0.0000,0.0000,0.0000,0.0000,0.0000,0.00,0.00,0.00,1.0510,0.3380,1.3090,1.0480,2.7080,0,0.0000,0.0000,0.0000,0.0000,0.0000,0
5705,-0.0524,0.0203,0.0081,-0.1485,0.0929,0.0071,-0.22,1.02,-0.79,0,3.732,16.771,1.924,4.806,0.015,-0.011,1.003,0.000,0.000,0.000,0.0100,0,0,0.00,0.00,0.00,0.0000,0.0000,0.0000,0.0000,0.0000,0.0000,0.0000,0.00,0.00,0.00,1.0520,0.0000,1.3090,1.0480,2.7090,0,0.0000,0.0000,0.0000,0.0000,0.0000,0
5756,-0.0600,0.0250,0.0092,-0.1573,0.0950,0.0124,0.40,1.08,-0.65,0,3.727,-18.229,15.084,9.531,-0.003,-0.001,0.988,0.000,0.000,0.000,0.0100,0,0,0.00,0.00,0.00,0.0000,0.0000,0.0000,0.0000,0.0000,0.0000,0.0000,0.00,0.00,0.00,1.0520,0.0000,1.3160,0.0000,2.7090,0,0.0000,0.0000,0.0000,0.0000,0.0000,0
5807,-0.0682,0.0298,0.0099,-0.1656,0.0923,0.0118,0.03,0.15,-0.20,0,3.721,-17.294,12.544,13.041,0.009,-0.008,1.068,0.000,0.000,0.000,0.0110,10,-6,0.00,0.00,0.00,0.0000,0.0000,0.0000,0.0000,0.0000,0.0000,0.0000,0.00,0.00,0.00,1.0430,0.3930,1.3160,0.0000,2.6990,0,0.0000,0.0000,0.0000,0.0000,0.0000,0
5858,-0.0314,-0.0175,0.0117,-0.0150,-0.0826,0.0192,0.91,-1.93,0.41,0,3.716,23.710,-20.674,-2.059,0.016,-0.017,0.995,0.000,0.000,0.000,0.0120,21,-44,0.00,0.00,0.00,0.0000,0.0000,0.0000,0.0000,0.0000,0.0000,0.0000,0.00,0.00,0.00,1.0430,0.3930,1.3190,1.0600,2.6990,0,0.0000,0.0000,0.0000,0.0000,0.0000,0
5910,0.0001,-0.0418,0.0108,0.1035,-0.1552,0.0091,2.56,-2.20,0.39,0,3.711,-56.301,-27.627,0.963,0.007,-0.023,0.953,0.000,0.000,0.000,0.0090,-8,-1,0.00,0.00,0.00,0.0000,0.0000,0.0000,0.0000,0.0000,0.0000,0.0000,0.00,0.00,0.00,1.0350,0.4980,1.3190,1.0600,2.6990,0,0.0000,0.0000,0.0000,0.0000,0.0000,0
5961,0.0078,-0.0401,0.0116,0.1212,-0.1396,0.0012,-0.22,-0.53,0.36,0,3.706,-47.532,-0.584,-0.191,0.009,-0.004,1.010,0.000,0.000,0.000,0.0040,-16,-25,0.00,0.00,0.00,0.0000,0.0000,0.0000,0.0000,0.0000,0.0000,0.0000,0.00,0.00,0.00,1.0350,0.4980,1.3370,0.0000,2.6990,0,0.0000,0.0000,0.0000,0.0000,0.0000,0
6011,0.0038,-0.0246,0.0094,0.0924,-0.0644,-0.0055,-3.13,-0.27,0.34,0,3.700,29.662,-10.944,-0.701,0.015,-0.013,1.040,0.000,0.000,0.000,0.0000,-3,-6,0.00,0.00,0.00,0.0000,0.0000,0.0000,0.0000,0.0000,0.0000,0.0000,0.00,0.00,0.00,1.0510,0.5200,1.3370,0.0000,2.6980,0,0.0000,0.0000,0.0000,0.0000,0.0000,0
6062,0.0200,-0.0246,0.0052,0.1345,-0.0342,-0.0201,-1.93,0.10,0.39,0,3.690,14.267,-33.077,2.612,0.020,-0.012,1.008,0.000,0.000,0.000,0.0000,-1,-19,0.00,0.00,0.00,0.0000,0.0000,0.0000,0.0000,0.0000,0.0000,0.0000,0.00,0.00,0.00,1.0510,0.5200,1.2880,1.1560,2.6980,0,0.0000,0.0000,0.0000,0.0000,0.0000,0
6114,0.0149,-0.0177,0.0032,0.0893,0.0129,-0.0172,-1.29,1.97,0.55,0,3.684,14.144,-7.279,-4.946,0.018,-0.009,1.030,0.000,0.000,0.000,0.0000,-6,0,0.00,0.00,0.00,0.0000,0.0000,0.0000,0.0000,0.0000,0.0000,0.0000,0.00,0.00,0.00,1.0640,0.4730,1.2880,1.1560,2.7040,0,0.0000,0.0000,0.0000,0.0000,0.0000,0
6165,0.0309,-0.0110,0.0010,0.1177,0.0474,-0.0139,-0.65,2.26,0.38,0,3.684,48.376,13.097,-5.190,0.006,-0.016,1.037,0.000,0.000,0.000,0.0000,-10,5,0.00,0.00,0.00,0.0000,0.0000,0.0000,0.0000,0.0000,0.0000,0.0000,0.00,0.00,0.00,1.0640,0.4730,1.3140,1.1520,2.7040,0,0.0000,0.0000,0.0000,0.0000,0.0000,0
6216,0.0250,-0.0124,0.0010,0.0478,0.0347,0.0103,1.75,1.89,0.10,0,3.679,6.708,17.131,-3.839,0.003,-0.012,1.030,0.000,0.000,0.000,0.0000,23,-7,0.00,0.00,0.00,0.0000,0.0000,0.0000,0.0000,0.0000,0.0000,0.0000,0.00,0.00,0.00,1.0650,0.5530,1.3140,1.1520,2.7010,0,0.0000,0.0000,0.0000,0.0000,0.0000,0
6266,0.0217,-0.0048,0.0014,0.0099,0.0467,0.0275,2.43,1.35,-0.11,0,3.669,-57.535,26.033,-0.070,0.002,-0.003,1.021,0.000,0.000,0.000,0.0000,6,14,0.00,0.00,0.00,0.0000,0.0000,0.0000,0.0000,0.0000,0.0000,0.0000,0.00,0.00,0.00,1.0650,0.5530,1.3540,1.1170,2.7010,0,0.0000,0.0000,0.0000,0.0000,0.0000,0
6318,0.0113,-0.0108,0.0014,-0.0522,-0.0038,0.0321,0.07,0.70,-0.14,0,3.669,5.272,16.030,-1.246,0.005,-0.007,1.072,0.000,0.000,0.000,0.0030,-1,16,0.00,0.00,0.00,0.0000,0.0000,0.0000,0.0000,0.0000,0.0000,0.0000,0.00,0.00,0.00,1.0590,0.4970,1.3540,1.1170,2.6870,0,0.0000,0.0000,0.0000,0.0000,0.0000,0
6368,-0.0021,-0.0142,0.0028,-0.1075,-0.0174,0.0573,-0.50,0.34,-0.21,0,3.669,0.444,6.932,-7.590,0.005,-0.000,1.044,0.000,0.000,0.000,0.0100,5,12,0.00,0.00,0.00,0.0000,0.0000,0.0000,0.0000,0.0000,0.0000,0.0000,0.00,0.00,0.00,1.0590,0.4970,1.3270,1.1520,2.6870,0,0.0000,0.0000,0.0000,0.0000,0.0000,0
6420,-0.0145,-0.0164,0.0071,-0.1433,-0.0218,0.0846,-0.17,-0.19,-0.54,0,3.663,12.126,52.615,-4.557,0.002,-0.006,1.027,0.000,0.000,0.000,0.0210,-3,19,0.00,0.00,0.00,0.0000,0.0000,0.0000,0.0000,0.0000,0.0000,0.0000,0.00,0.00,0.00,1.0600,0.0000,1.3270,1.1520,2.6790,0,0.0000,0.0000,0.0000,0.0000,0.0000,0
6471,-0.0254,-0.0170,0.0156,-0.1572,-0.0169,0.1149,0.12,-2.15,-0.80,0,3.669,9.295,29.060,-5.344,0.004,-0.018,1.050,0.000,0.000,0.000,0.0270,0,4,0.00,0.00,0.00,0.0000,0.0000,0.0000,0.0000,0.0000,0.0000,0.0000,0.00,0.00,0.00,1.0600,0.0000,1.3320,1.1380,2.6790,0,0.0000,0.0000,0.0000,0.0000,0.0000,0
6522,-0.0364,-0.0170,0.0237,-0.1523,-0.0156,0.1414,0.70,-4.00,-1.07,0,3.663,1.380,11.018,-5.857,-0.003,-0.015,1.035,0.000,0.000,0.000,0.0400,-1,7,0.00,0.00,0.00,0.0000,0.0000,0.0000,0.0000,0.0000,0.0000,0.0000,0.00,0.00,0.00,1.0380,0.0000,1.3320,1.1380,2.6730,0,0.0000,0.0000,0.0000,0.0000,0.0000,0
6573,-0.0400,-0.0192,0.0357,-0.0969,-0.0304,0.1814,0.90,-4.78,-1.33,0,3.669,-1.699,-0.507,0.997,0.002,-0.017,1.009,0.000,0.000,0.000,0.0510,3,-2,0.00,0.00,0.00,0.0000,0.0000,0.0000,0.0000,0.0000,0.0000,0.0000,0.00,0.00,0.00,1.0380,0.0000,1.3550,1.1370,2.6730,0,0.0000,0.0000,0.0000,0.0000,0.0000,0
6623,-0.0401,-0.0241,0.0475,-0.0312,-0.0594,0.1988,1.05,-5.15,-1.32,0,3.663,-9.384,-23.087,2.303,0.000,-0.013,0.974,0.000,0.000,0.000,0.0660,1,-2,0.00,0.00,0.00,0.0000,0.0000,0.0000,0.0000,0.0000,0.0000,0.0000,0.00,0.00,0.00,1.0400,0.0000,1.3550,1.1370,2.6590,0,0.0000,0.0000,0.0000,0.0000,0.0000,0
6675,-0.0359,-0.0285,0.0615,0.0398,-0.0761,0.2144,0.75,-4.56,-1.23,0,3.663,-13.400,-37.062,3.350,-0.005,-0.021,0.989,0.000,0.000,0.000,0.0730,4,-17,0.00,0.00,0.00,0.0000,0.0000,0.0000,0.0000,0.0000,0.0000,0.0000,0.00,0.00,0.00,1.0400,0.0000,1.3660,1.1380,2.6590,0,0.0000,0.0000,0.0000,0.0000,0.0000,0
6726,-0.0368,-0.0314,0.0728,0.0540,-0.0767,0.2086,0.08,-2.54,-1.13,0,3.663,-0.409,-31.648,3.784,-0.001,-0.008,0.983,0.000,0.000,0.000,0.0820,3,-7,0.00,0.00,0.00,0.0000,0.0000,0.0000,0.0000,0.0000,0.0000,0.0000,0.00,0.00,0.00,1.0440,0.1640,1.3660,1.1380,2.6270,0,0.0000,0.0000,0.0000,0.0000,0.0000,0
6776,-0.0279,-0.0349,0.0832,0.1029,-0.0751,0.2026,-0.07,-0.89,-0.99,0,3.663,-8.882,-10.085,6.877,-0.015,-0.010,1.007,0.000,0.000,0.000,0.0940,6,-12,0.00,0.00,0.00,0.0000,0.0000,0.0000,0.0000,0.0000,0.0000,0.0000,0.00,0.00,0.00,1.0440,0.1640,1.3580,1.1400,2.6270,0,0.0000,0.0000,0.0000,0.0000,0.0000,0
6827,-0.0206,-0.0378,0.0934,0.1196,-0.0701,0.2010,-0.34,-0.30,-0.71,0,3.663,-12.491,-18.388,8.238,-0.007,-0.005,0.978,0.000,0.000,0.000,0.1000,4,-11,0.00,0.00,0.00,0.0000,0.0000,0.0000,0.0000,0.0000,0.0000,0.0000,0.00,0.00,0.00,1.0510,0.1950,1.3580,1.1400,2.6100,0,0.0000,0.0000,0.0000,0.0000,0.0000,0
6879,-0.0138,-0.0402,0.1027,0.1245,-0.0604,0.1892,-1.02,0.47,-0.31,0,3.658,10.630,-26.303,5.065,-0.002,-0.009,0.993,0.000,0.000,0.000,0.1120,0,-6,0.00,0.00,0.00,0.0000,0.0000,0.0000,0.0000,0.0000,0.3000,0.2817,-5.29,4.55,9.36,1.0510,0.1950,1.3750,1.1470,2.6100,0,0.0000,0.0000,0.0000,0.0000,0.0000,0
6930,-0.0071,-0.0437,0.1120,0.1217,-0.0556,0.1853,-0.67,1.81,-0.00,0,3.663,0.594,-9.444,4.022,-0.001,-0.014,0.985,0.000,0.000,0.000,0.1160,5,-5,-1.02,-0.47,-0.31,-0.0138,-0.0402,0.1120,0.0000,0.0000,0.3000,0.2804,-5.33,4.89,0.09,1.0630,0.2220,1.3750,1.1470,2.5910,0,0.0000,0.0000,0.0000,0.0000,0.0000,0
6981,-0.0016,-0.0455,0.1200,0.1033,-0.0458,0.1725,-0.50,2.49,0.21,0,3.658,-3.511,-1.457,2.318,-0.005,-0.011,0.989,0.000,0.000,0.000,0.1200,0,-1,-0.68,-0.29,-0.10,-0.0030,-0.0513,0.1144,0.0000,0.0000,0.3000,0.2803,-5.02,4.45,-6.40,1.0630,0.2220,1.3880,1.1450,2.5910,0,0.0000,0.0000,0.0000,0.0000,0.0000,0
7032,0.0040,-0.0473,0.1254,0.0883,-0.0390,0.1473,-0.74,2.60,0.36,0,3.653,1.583,-4.258,1.881,-0.002,-0.015,0.985,0.000,0.000,0.000,0.1260,2,-1,-3.43,1.73,0.06,-0.0020,-0.0507,0.1275,0.0000,0.0000,0.3000,0.2820,-4.82,4.13,-10.82,1.0600,0.0000,1.3880,1.1450,2.5860,0,0.0000,0.0000,0.0000,0.0000,0.0000,0
7084,0.0078,-0.0478,0.1304,0.0666,-0.0264,0.1294,-0.72,2.76,0.47,0,3.648,4.195,6.336,-0.770,-0.001,-0.011,0.996,0.000,0.000,0.000,0.1320,3,-1,-2.58,2.42,0.14,-0.0006,-0.0529,0.1296,0.0000,0.0000,0.3000,0.2830,-4.28,3.42,-14.21,1.0600,0.0000,1.3980,1.1510,2.5860,0,0.0000,0.0000,0.0000,0.0000,0.0000,0
7136,0.0109,-0.0483,0.1352,0.0453,-0.0167,0.1182,-0.60,2.54,0.48,0,3.648,2.284,7.296,-2.961,0.002,-0.015,1.002,0.000,0.000,0.000,0.1390,-1,1,-1.15,1.75,0.04,0.0005,-0.0562,0.1337,0.0000,0.0000,0.3000,0.2833,-3.89,2.69,-14.33,1.0520,0.0000,1.3980,1.1510,2.5660,0,0.0000,0.0000,0.0000,0.0000,0.0000,0
7188,0.0131,-0.0488,0.1407,0.0267,-0.0109,0.1147,-0.44,2.03,0.37,0,3.642,3.186,6.324,-4.819,0.007,-0.011,1.011,0.000,0.000,0.000,0.1440,5,6,-2.30,1.88,-0.06,-0.0007,-0.0554,0.1406,0.0000,0.0000,0.3000,0.2827,-3.68,2.03,-11.08,1.0520,0.0000,1.4140,1.1500,2.5660,0,0.0000,0.0000,0.0000,0.0000,0.0000,0
7239,0.0143,-0.0489,0.1459,0.0118,-0.0055,0.1159,-0.27,1.65,0.14,0,3.648,2.321,10.004,-5.530,0.008,-0.015,1.010,0.000,0.000,0.000,0.1510,3,4,-0.29,3.33,-0.43,-0.0084,-0.0612,0.1464,0.0000,0.0000,0.3000,0.2816,-3.47,1.46,-4.24,1.0450,0.0000,1.4140,1.1500,2.5510,0,0.0000,0.0000,0.0000,0.0000,0.0000,0
7290,0.0122,-0.0506,0.1520,-0.0115,-0.0094,0.1219,-0.14,1.26,-0.17,0,3.642,0.725,9.433,-5.591,-0.000,-0.012,1.015,0.000,0.000,0.000,0.1570,0,0,-0.01,2.78,-0.73,-0.0148,-0.0655,0.1528,0.0000,0.0000,0.3000,0.2798,-3.78,0.30,5.10,1.0450,0.0000,1.4160,1.1500,2.5510,0,0.0000,0.0000,0.0000,0.0000,0.0000,0
7341,0.0126,-0.0533,0.1583,-0.0160,-0.0176,0.1288,-0.04,0.74,-0.47,0,3.648,-2.625,10.589,-4.964,0.005,-0.017,1.013,0.000,0.000,0.000,0.1650,2,0,0.05,2.30,-1.02,-0.0227,-0.0698,0.1596,0.0000,0.0000,0.3000,0.2778,-4.35,0.13,14.19,1.0410,0.0000,1.4160,1.1500,2.5460,0,0.0000,0.0000,0.0000,0.0000,0.0000,0
7392,0.0120,-0.0538,0.1655,-0.0196,-0.0154,0.1383,-0.14,0.18,-0.74,0,3.642,-2.218,5.973,-3.572,0.005,-0.018,1.011,0.000,0.000,0.000,0.1670,0,0,-0.88,-0.30,-1.48,-0.0154,-0.0682,0.1725,0.0000,0.0000,0.3000,0.2755,-4.32,-0.07,22.11,1.0410,0.0000,1.4220,1.1460,2.5460,0,0.0000,0.0000,0.0000,0.0000,0.0000,0
7444,0.0090,-0.0552,0.1708,-0.0290,-0.0161,0.1349,-0.25,-0.11,-0.93,0,3.648,-0.474,6.474,-3.049,0.003,-0.014,1.011,0.000,0.000,0.000,0.1790,1,0,-1.00,-0.62,-1.67,-0.0166,-0.0704,0.1777,0.0000,0.0000,0.3000,0.2748,-4.45,-0.70,28.01,1.0360,0.0000,1.4220,1.1460,2.5270,0,0.0000,0.0000,0.0000,0.0000,0.0000,0
7495,0.0072,-0.0561,0.1789,-0.0290,-0.0145,0.1457,-0.27,-0.43,-1.10,0,3.642,0.184,8.446,-3.082,0.002,-0.016,1.010,0.000,0.000,0.000,0.1830,0,-4,-1.28,-1.15,-1.94,-0.0157,-0.0701,0.1843,0.0000,0.0000,0.3000,0.2722,-4.48,-0.83,33.06,1.0360,0.0000,1.4220,1.1460,2.5270,0,0.0000,0.0000,0.0000,0.0000,0.0000,0
7546,0.0061,-0.0573,0.1855,-0.0238,-0.0141,0.1461,-0.26,-0.86,-1.25,0,3.648,-0.276,1.528,-3.206,0.005,-0.013,1.006,0.000,0.000,0.000,0.1930,1,0,-1.34,-1.96,-2.16,-0.0113,-0.0705,0.1899,0.0000,0.0000,0.3000,0.2709,-4.57,-0.67,37.58,1.0450,0.0000,1.4220,1.1460,2.5120,0,0.0000,0.0000,0.0000,0.0000,0.0000,0
7597,0.0045,-0.0573,0.1936,-0.0191,-0.0095,0.1524,-0.27,-0.93,-1.40,0,3.642,2.538,-4.139,-3.171,0.001,-0.020,1.006,0.000,0.000,0.000,0.2020,0,-2,-1.28,-1.88,-2.27,-0.0102,-0.0719,0.1988,0.0000,0.0000,0.3000,0.2687,-4.40,-0.57,41.99,1.0450,0.0000,1.4350,1.1470,2.5120,0,0.0000,0.0000,0.0000,0.0000,0.0000,0
7648,0.0041,-0.0576,0.2023,-0.0102,-0.0069,0.1593,-0.20,-0.80,-1.53,0,3.653,4.305,-3.015,-1.883,0.004,-0.013,0.995,0.000,0.000,0.000,0.2140,-1,-2,-1.20,-1.72,-2.47,-0.0063,-0.0722,0.2073,0.0000,0.0000,0.3000,0.2663,-4.34,-0.19,45.79,1.0450,0.0000,1.4350,1.1470,2.5050,0,0.0000,0.0000,0.0000,0.0000,0.0000,0
7699,0.0055,-0.0567,0.2126,0.0021,-0.0018,0.1704,-0.08,-0.74,-1.64,0,3.653,2.433,-6.010,-0.248,-0.002,-0.021,0.987,0.000,0.000,0.000,0.2230,0,-2,-1.10,-1.57,-2.67,-0.0019,-0.0707,0.2169,0.0000,0.0000,0.3000,0.2631,-4.09,0.49,49.12,1.0450,0.0000,1.4540,1.1390,2.5050,0,0.0000,0.0000,0.0000,0.0000,0.0000,0
7750,0.0102,-0.0564,0.2226,0.0223,-0.0005,0.1750,0.08,-0.72,-1.70,0,3.653,1.666,-4.452,-0.415,0.004,-0.016,0.985,0.000,0.000,0.000,0.2290,0,0,-0.97,-1.25,-2.67,0.0029,-0.0708,0.2264,0.0000,0.0000,0.3000,0.2608,-4.04,1.79,50.97,1.0470,0.0000,1.4540,1.1390,2.4870,0,0.0000,0.0000,0.0000,0.0000,0.0000,0
7800,0.0122,-0.0567,0.2310,0.0299,-0.0023,0.1675,0.15,-0.45,-1.73,0,3.642,-0.176,-4.921,0.532,0.002,-0.012,0.978,0.000,0.000,0.000,0.2250,0,0,-0.88,-1.02,-2.69,0.0084,-0.0707,0.2344,0.0000,0.0000,0.3000,0.2600,-4.17,2.29,51.89,1.0470,0.0000,1.4940,1.1400,2.4870,0,0.0000,0.0000,0.0000,0.0000,0.0000,0
7852,0.0132,-0.0573,0.2337,0.0314,-0.0051,0.1303,0.17,-0.27,-1.71,0,3.642,-3.190,-2.218,2.035,-0.001,-0.013,0.988,0.000,0.000,0.000,0.2410,0,0,-0.89,-0.77,-2.66,0.0145,-0.0706,0.2385,0.0000,0.0000,0.3000,0.2635,-4.29,2.40,51.43,1.0450,0.0000,1.4940,1.1400,2.4820,0,0.0000,0.0000,0.0000,0.0000,0.0000,0
7904,0.0101,-0.0639,0.2410,0.0200,-0.0249,0.1264,0.18,-0.10,-1.63,0,3.642,-6.075,0.352,1.152,0.001,-0.015,0.988,0.000,0.000,0.000,0.2350,0,0,-1.06,-0.66,-2.55,0.0211,-0.0704,0.2457,0.0000,0.0000,0.3000,0.2626,-5.69,1.66,48.98,1.0450,0.0000,1.4970,1.1380,2.4820,0,0.0000,0.0000,0.0000,0.0000,0.0000,0
7955,0.0110,-0.0655,0.2423,0.0203,-0.0268,0.0960,-0.01,-0.06,-1.56,0,3.637,-5.346,0.323,1.715,0.000,-0.015,0.997,0.000,0.000,0.000,0.2440,0,0,-1.37,-0.68,-2.49,0.0278,-0.0702,0.2483,0.0000,0.0000,0.3000,0.2656,-5.83,1.72,46.73,1.0480,0.0000,1.4970,1.1380,2.4600,0,0.0000,0.0000,0.0000,0.0000,0.0000,0
8006,0.0125,-0.0671,0.2461,0.0220,-0.0269,0.0882,-0.27,-0.04,-1.49,0,3.637,-3.116,-2.279,1.217,0.001,-0.011,1.006,0.000,0.000,0.000,0.2470,0,0,-1.64,-0.70,-2.41,0.0348,-0.0698,0.2524,0.0000,0.0000,0.3000,0.2657,-5.93,1.90,44.63,1.0480,0.0000,1.5160,1.1370,2.4600,0,0.0000,0.0000,0.0000,0.0000,0.0000,0
8056,0.0141,-0.0692,0.2494,0.0236,-0.0264,0.0834,-0.45,0.06,-1.42,0,3.637,-0.659,-1.858,1.295,0.003,-0.008,1.008,0.000,0.000,0.000,0.2560,-3,0,-1.80,-0.58,-2.34,0.0420,-0.0689,0.2560,0.0000,0.0000,0.3000,0.2656,-6.06,2.09,42.53,1.0470,0.0000,1.5160,1.1370,2.4490,0,0.0000,0.0000,0.0000,0.0000,0.0000,0
8108,0.0144,-0.0695,0.2550,0.0208,-0.0201,0.0936,-0.56,0.17,-1.37,0,3.637,-0.496,-1.602,0.524,0.002,-0.017,1.008,0.000,0.000,0.000,0.2580,-1,0,-1.78,0.32,-2.22,0.0061,-0.0687,0.2629,0.0000,0.0000,0.3000,0.2635,-5.84,2.00,41.11,1.0470,0.0000,1.5300,1.1330,2.4490,0,0.0000,0.0000,0.0000,0.0000,0.0000,0
8158,0.0150,-0.0678,0.2595,0.0183,-0.0092,0.0966,-0.59,0.26,-1.33,0,3.637,1.139,0.584,-0.681,-0.000,-0.016,1.007,0.000,0.000,0.000,0.2670,0,0,-1.81,0.41,-2.19,0.0060,-0.0669,0.2670,0.0000,0.0000,0.3000,0.2623,-5.24,1.93,40.02,1.0460,0.0000,1.5300,1.1330,2.4330,0,0.0000,0.0000,0.0000,0.0000,0.0000,0
8210,0.0134,-0.0596,0.2661,0.0102,0.0166,0.1076,-0.63,0.29,-1.34,0,3.637,1.969,1.965,-1.122,0.001,-0.013,1.001,0.000,0.000,0.000,0.2730,0,0,-1.75,0.38,-2.23,0.0059,-0.0648,0.2729,0.0000,0.0000,0.3000,0.2599,-3.49,1.45,40.31,1.0460,0.0000,1.5480,1.1320,2.4330,0,0.0000,0.0000,0.0000,0.0000,0.0000,0
8260,0.0154,-0.0567,0.2726,0.0116,0.0268,0.1154,-0.52,0.21,-1.41,0,3.642,6.326,4.306,-1.637,0.003,-0.008,0.997,0.000,0.000,0.000,0.2840,0,0,-1.65,0.28,-2.29,0.0058,-0.0623,0.2786,0.0000,0.0000,0.3000,0.2578,-2.82,1.67,42.28,1.0490,0.0000,1.5480,1.1320,2.4280,0,0.0000,0.0000,0.0000,0.0000,0.0000,0
8312,0.0221,-0.0726,0.2814,0.0241,-0.0093,0.1313,-0.04,0.06,-1.49,0,3.648,-3.496,-5.494,-0.912,0.000,-0.012,0.985,0.000,0.000,0.000,0.2860,0,0,-1.34,0.06,-2.38,0.0058,-0.0590,0.2861,0.0000,0.0000,0.3000,0.2544,-5.75,2.79,44.65,1.0490,0.0000,1.5800,1.1330,2.4280,0,0.0000,0.0000,0.0000,0.0000,0.0000,0
8362,0.0227,-0.0711,0.2876,0.0221,-0.0046,0.1254,-0.12,0.22,-1.57,0,3.648,-4.617,0.591,-1.685,0.004,-0.011,0.980,0.000,0.000,0.000,0.2930,0,0,-1.52,0.35,-2.42,0.0056,-0.0557,0.2915,0.0000,0.0000,0.3000,0.2539,-5.43,2.74,47.18,1.0520,0.0000,1.5800,1.1330,2.4120,0,0.0000,0.0000,0.0000,0.0000,0.0000,0
8414,0.0228,-0.0712,0.2939,0.0180,-0.0029,0.1188,-0.28,0.23,-1.62,0,3.642,0.941,0.726,1.831,-0.003,-0.013,0.981,0.000,0.000,0.000,0.2990,0,3,-1.75,0.32,-2.50,0.0053,-0.0518,0.2971,0.0000,0.0000,0.3000,0.2534,-5.37,2.55,48.58,1.0520,0.0000,1.5950,1.1330,2.4120,0,0.0000,0.0000,0.0000,0.0000,0.0000,0
8465,0.0224,-0.0699,0.2999,0.0133,0.0025,0.1112,-0.22,0.24,-1.63,0,3.648,2.292,3.113,1.191,0.002,-0.010,0.978,0.000,0.000,0.000,0.3030,0,-1,-1.38,0.35,-2.50,0.0005,-0.0640,0.3030,0.0000,0.0000,0.3000,0.2531,-5.02,2.30,48.76,1.0570,0.0000,1.5950,1.1330,2.4010,0,0.0000,0.0000,0.0000,0.0000,0.0000,0
8517,0.0206,-0.0702,0.3047,0.0067,0.0030,0.0985,-0.10,0.10,-1.60,0,3.642,0.019,1.902,0.202,0.005,-0.014,0.981,0.000,0.000,0.000,0.3090,2,2,-1.26,0.17,-2.44,-0.0003,-0.0633,0.3074,0.0000,0.0000,0.3000,0.2536,-5.01,1.84,48.03,1.0570,0.0000,1.6020,1.1330,2.4010,0,0.0000,0.0000,0.0000,0.0000,0.0000,0
8567,0.0231,-0.0687,0.3096,0.0105,0.0068,0.0901,-0.11,-0.00,-1.57,0,3.642,0.410,1.162,3.012,0.005,-0.015,0.983,0.000,0.000,0.000,0.3140,0,0,-1.21,0.10,-2.45,-0.0028,-0.0640,0.3114,0.0000,0.0000,0.3000,0.2535,-4.72,2.21,47.01,1.0590,0.0000,1.6020,1.1330,2.3960,0,0.0000,0.0000,0.0000,0.0000,0.0000,0
8619,0.0233,-0.0704,0.3143,0.0101,0.0037,0.0828,-0.07,-0.03,-1.43,0,3.642,-0.478,-0.201,3.320,0.002,-0.011,0.982,0.000,0.000,0.000,0.3170,-7,-1,-1.19,0.04,-2.30,-0.0044,-0.0634,0.3157,0.0000,0.0000,0.3000,0.2534,-4.99,2.20,42.77,1.0590,0.0000,1.6260,1.1370,2.3960,0,0.0000,0.0000,0.0000,0.0000,0.0000,0
8670,0.0198,-0.0774,0.3180,0.0021,-0.0110,0.0718,-0.05,-0.02,-1.30,0,3.642,-5.460,3.563,2.289,0.002,-0.018,0.980,0.000,0.000,0.000,0.3220,6,0,-1.53,-0.04,-2.08,-0.0014,-0.0492,0.3195,0.0000,0.0000,0.3000,0.2539,-6.20,1.55,38.88,1.0610,0.0000,1.6260,1.1370,2.3860,0,0.0000,0.0000,0.0000,0.0000,0.0000,0
8720,0.0212,-0.0718,0.3213,0.0050,0.0013,0.0669,-0.20,-0.14,-1.15,0,3.637,-0.098,-0.777,2.497,-0.000,-0.014,0.990,0.000,0.000,0.000,0.3210,0,0,-1.60,-0.23,-1.98,-0.0017,-0.0539,0.3240,0.0000,0.0000,0.3000,0.2538,-5.20,1.80,34.57,1.0610,0.0000,1.6440,1.1390,2.3860,0,0.0000,0.0000,0.0000,0.0000,0.0000,0
8772,0.0221,-0.0593,0.3230,0.0076,0.0291,0.0518,-0.43,-0.20,-1.02,0,3.637,7.042,-3.743,2.385,0.007,-0.011,0.988,0.000,0.000,0.000,0.3250,-2,-2,-1.60,-0.20,-1.86,-0.0017,-0.0514,0.3257,0.0000,0.0000,0.3000,0.2551,-2.93,1.98,30.74,1.0680,0.0000,1.6440,1.1390,2.3790,0,0.0000,0.0000,0.0000,0.0000,0.0000,0
8823,0.0192,-0.0576,0.3252,0.0023,0.0329,0.0444,-0.16,-0.09,-0.90,0,3.632,9.413,-0.499,1.394,0.006,-0.011,0.987,0.000,0.000,0.000,0.3230,0,0,-1.25,-0.10,-1.72,0.0039,-0.0480,0.3276,0.0000,0.0000,0.3000,0.2555,-2.62,1.51,27.14,1.0680,0.0000,1.6550,1.1420,2.3790,0,0.0000,0.0000,0.0000,0.0000,0.0000,0
8874,0.0191,-0.0560,0.3255,0.0024,0.0340,0.0297,0.28,-0.09,-0.82,0,3.632,1.161,-1.817,1.102,0.004,-0.012,0.994,0.000,0.000,0.000,0.3260,0,0,-0.77,-0.07,-1.64,0.0058,-0.0447,0.3280,0.0000,0.0000,0.3000,0.2570,-2.44,1.50,24.67,1.0760,0.0000,1.6550,1.1420,2.3770,0,0.0000,0.0000,0.0000,0.0000,0.0000,0
8926,0.0174,-0.0532,0.3266,-0.0004,0.0339,0.0237,0.44,-0.08,-0.77,0,3.626,0.459,0.356,0.324,0.005,-0.012,1.002,0.000,0.000,0.000,0.3290,0,0,-0.71,0.02,-1.59,0.0078,-0.0414,0.3288,0.0000,0.0000,0.3000,0.2575,-2.24,1.24,23.22,1.0760,0.0000,1.6830,1.1370,2.3770,0,0.0000,0.0000,0.0000,0.0000,0.0000,0
8977,0.0134,-0.0510,0.3283,-0.0079,0.0315,0.0255,0.45,-0.07,-0.76,0,3.632,5.216,3.996,-0.160,0.001,-0.014,1.001,0.000,0.000,0.000,0.3330,0,0,-0.68,-0.00,-1.57,0.0098,-0.0381,0.3303,0.0000,0.0000,0.3000,0.2570,-2.20,0.60,22.78,1.0730,0.0000,1.6830,1.1370,2.3760,0,0.0000,0.0000,0.0000,0.0000,0.0000,0
9028,0.0132,-0.0493,0.3311,-0.0069,0.0278,0.0345,0.64,-0.16,-0.76,0,3.632,-0.574,-2.844,0.481,0.006,-0.016,0.999,0.000,0.000,0.000,0.3300,-1,0,-0.42,-0.21,-1.58,0.0119,-0.0347,0.3327,0.0000,0.0000,0.3000,0.2555,-2.27,0.63,22.71,1.0730,0.0000,1.6900,1.1390,2.3760,0,0.0000,0.0000,0.0000,0.0000,0.0000,0
9080,0.0099,-0.0481,0.3317,-0.0115,0.0222,0.0286,0.66,-0.11,-0.72,0,3.632,-1.734,5.970,0.851,0.004,-0.015,1.003,0.000,0.000,0.000,0.3330,0,2,-0.31,0.06,-1.50,0.0033,-0.0429,0.3338,0.0000,0.0000,0.3000,0.2560,-2.45,0.17,21.70,1.0770,0.0000,1.6900,1.1390,2.3700,0,0.0000,0.0000,0.0000,0.0000,0.0000,0
9131,0.0091,-0.0497,0.3332,-0.0110,0.0113,0.0289,0.59,-0.29,-0.69,0,3.626,-1.910,0.933,0.751,0.004,-0.014,1.004,0.000,0.000,0.000,0.3300,0,0,-0.40,-0.22,-1.43,0.0019,-0.0424,0.3350,0.0000,0.0000,0.3000,0.2557,-3.10,0.14,20.78,1.0770,0.0000,1.6940,1.1360,2.3700,0,0.0000,0.0000,0.0000,0.0000,0.0000,0
9182,0.0057,-0.0503,0.3326,-0.0139,0.0043,0.0188,0.54,-0.39,-0.66,0,3.626,-3.537,-2.112,0.700,0.003,-0.012,1.002,0.000,0.000,0.000,0.3350,0,0,-0.50,-0.27,-1.40,0.0019,-0.0420,0.3351,0.0000,0.0000,0.3000,0.2569,-3.46,-0.25,19.83,1.0820,0.0000,1.6940,1.1360,2.3670,0,0.0000,0.0000,0.0000,0.0000,0.0000,0
9233,0.0036,-0.0531,0.3343,-0.0134,-0.0059,0.0237,0.44,-0.39,-0.65,0,3.626,-4.148,1.997,0.177,0.003,-0.013,1.005,0.000,0.000,0.000,0.3330,0,1,-0.68,-0.16,-1.36,0.0022,-0.0416,0.3366,0.0000,0.0000,0.3000,0.2560,-4.16,-0.38,19.47,1.0820,0.0000,1.6940,1.1350,2.3670,0,0.0000,0.0000,0.0000,0.0000,0.0000,0
9284,0.0006,-0.0543,0.3344,-0.0147,-0.0112,0.0198,0.28,-0.47,-0.62,0,3.626,-3.022,0.634,-0.178,0.003,-0.014,1.006,0.000,0.000,0.000,0.3380,0,0,-0.88,-0.21,-1.30,-0.0010,-0.0419,0.3370,0.0000,0.0000,0.3000,0.2564,-4.50,-0.66,18.59,1.0850,0.0000,1.6940,1.1350,2.3640,0,0.0000,0.0000,0.0000,0.0000,0.0000,0
9336,-0.0007,-0.0575,0.3366,-0.0120,-0.0186,0.0273,0.13,-0.48,-0.60,0,3.621,-4.591,0.882,0.828,0.001,-0.015,1.003,0.000,0.000,0.000,0.3450,0,0,-1.03,-0.24,-1.31,-0.0013,-0.0417,0.3390,0.0000,0.0000,0.3000,0.2552,-5.11,-0.63,17.90,1.0850,0.0000,1.7070,1.1300,2.3640,0,0.0000,0.0000,0.0000,0.0000,0.0000,0
9387,-0.0030,-0.0618,0.3410,-0.0113,-0.0262,0.0453,-0.06,-0.45,-0.55,0,3.632,-4.123,0.804,1.546,-0.002,-0.010,0.998,0.000,0.000,0.000,0.3450,1,0,-1.27,-0.29,-1.27,-0.0015,-0.0414,0.3427,0.0000,0.0000,0.3000,0.2524,-5.86,-0.77,16.45,1.0830,0.0000,1.7070,1.1300,2.3590,0,0.0000,0.0000,0.0000,0.0000,0.0000,0
9437,-0.0028,-0.0646,0.3442,-0.0061,-0.0284,0.0509,-0.24,-0.48,-0.49,0,3.626,-2.587,-0.126,1.605,0.002,-0.007,1.000,0.000,0.000,0.000,0.3440,2,0,-1.43,-0.34,-1.17,-0.0014,-0.0448,0.3454,0.0000,0.0000,0.3000,0.2512,-6.19,-0.50,14.83,1.0830,0.0000,1.7130,1.1320,2.3590,0,0.0000,0.0000,0.0000,0.0000,0.0000,0
9488,-0.0030,-0.0673,0.3456,-0.0019,-0.0288,0.0435,-0.41,-0.47,-0.40,0,3.626,-2.056,-0.378,2.116,-0.002,-0.013,0.989,0.000,0.000,0.000,0.3450,0,0,-1.52,-0.33,-1.08,-0.0013,-0.0471,0.3471,0.0000,0.0000,0.3000,0.2517,-6.40,-0.30,12.10,1.0840,0.0000,1.7130,1.1320,2.3540,0,0.0000,0.0000,0.0000,0.0000,0.0000,0
9540,-0.0034,-0.0694,0.3467,0.0012,-0.0265,0.0356,-0.54,-0.38,-0.29,0,3.626,-0.026,-2.142,2.388,0.003,-0.010,0.995,0.000,0.000,0.000,0.3480,1,0,-1.63,-0.32,-0.97,-0.0011,-0.0473,0.3482,0.0000,0.0000,0.3000,0.2524,-6.43,-0.18,8.83,1.0840,0.0000,1.7150,1.1230,2.3540,0,0.0000,0.0000,0.0000,0.0000,0.0000,0
9591,-0.0027,-0.0722,0.3483,0.0056,-0.0249,0.0324,-0.52,-0.28,-0.17,0,3.626,-0.894,-1.446,2.227,-0.002,-0.011,0.999,0.000,0.000,0.000,0.3490,1,0,-1.59,-0.20,-0.83,-0.0014,-0.0500,0.3497,0.0000,0.0000,0.3000,0.2524,-6.55,0.09,5.13,1.0890,0.0000,1.7150,1.1230,2.3540,0,0.0000,0.0000,0.0000,0.0000,0.0000,0
9642,-0.0002,-0.0730,0.3496,0.0121,-0.0197,0.0290,-0.54,-0.21,-0.07,0,3.626,1.740,-2.321,1.392,0.000,-0.012,0.999,0.000,0.000,0.000,0.3500,0,0,-1.61,-0.13,-0.70,-0.0012,-0.0516,0.3510,0.0000,0.0000,0.3000,0.2525,-6.35,0.59,2.16,1.0890,0.0000,1.7150,1.1280,2.3540,0,0.0000,0.0000,0.0000,0.0000,0.0000,0
9693,-0.0002,-0.0756,0.3506,0.0127,-0.0182,0.0254,-0.50,-0.12,0.01,0,3.626,1.856,-2.251,1.306,0.000,-0.009,0.997,0.000,0.000,0.000,0.3510,-1,0,-1.53,-0.01,-0.63,-0.0009,-0.0517,0.3522,0.0000,0.0000,0.3000,0.2527,-6.46,0.62,-0.32,1.0900,0.0000,1.7150,1.1280,2.3520,0,0.0000,0.0000,0.0000,0.0000,0.0000,0
9744,0.0014,-0.0774,0.3516,0.0155,-0.0158,0.0233,-0.43,-0.00,0.09,0,3.621,1.563,-2.002,2.156,-0.000,-0.008,0.996,0.000,0.000,0.000,0.3520,0,0,-1.46,0.11,-0.57,-0.0012,-0.0487,0.3531,0.0000,0.0000,0.3000,0.2528,-6.48,0.87,-2.72,1.0900,0.0000,1.7250,1.1200,2.3520,0,0.0000,0.0000,0.0000,0.0000,0.0000,0
9795,0.0010,-0.0787,0.3524,0.0133,-0.0134,0.0209,-0.35,0.08,0.19,0,3.621,2.889,-0.598,2.074,0.002,-0.010,0.996,0.000,0.000,0.000,0.3530,-1,0,-1.38,0.21,-0.46,-0.0010,-0.0473,0.3539,0.0000,0.0000,0.3000,0.2529,-6.46,0.73,-5.76,1.0880,0.0000,1.7250,1.1200,2.3460,0,0.0000,0.0000,0.0000,0.0000,0.0000,0
9845,0.0031,-0.0805,0.3533,0.0154,-0.0127,0.0187,-0.26,0.06,0.29,0,3.621,0.750,-0.633,1.546,0.003,-0.009,0.998,0.000,0.000,0.000,0.3550,0,-1,-1.23,0.24,-0.35,-0.0011,-0.0456,0.3547,0.0000,0.0000,0.3000,0.2529,-6.56,0.99,-8.70,1.0880,0.0000,1.7300,1.1170,2.3460,0,0.0000,0.0000,0.0000,0.0000,0.0000,0
9896,0.0029,-0.0831,0.3546,0.0131,-0.0143,0.0191,-0.20,0.08,0.39,0,3.621,-1.094,-0.419,2.056,0.000,-0.011,1.000,0.000,0.000,0.000,0.3530,0,-1,-1.19,0.25,-0.27,0.0008,-0.0446,0.3557,0.0000,0.0000,0.3000,0.2526,-6.83,0.87,-11.71,1.0860,0.0000,1.7300,1.1170,2.3470,0,0.0000,0.0000,0.0000,0.0000,0.0000,0
9947,0.0039,-0.0847,0.3545,0.0129,-0.0142,0.0140,-0.29,0.09,0.51,0,3.616,-0.520,0.428,2.007,0.002,-0.011,1.000,0.000,0.000,0.000,0.3550,0,0,-1.23,0.25,-0.16,0.0030,-0.0438,0.3559,0.0000,0.0000,0.3000,0.2532,-6.92,0.92,-15.23,1.0860,0.0000,1.7370,1.1140,2.3470,0,0.0000,0.0000,0.0000,0.0000,0.0000,0
9998,0.0052,-0.0871,0.3551,0.0133,-0.0152,0.0128,-0.28,0.08,0.62,0,3.621,1.266,-0.293,2.344,-0.000,-0.010,1.004,0.000,0.000,0.000,0.3570,0,-1,-1.26,0.23,-0.06,0.0037,-0.0417,0.3565,0.0000,0.0000,0.3000,0.2532,-7.15,1.04,-18.57,1.0840,0.0000,1.7370,1.1140,2.3490,0,0.0000,0.0000,0.0000,0.0000,0.0000,0
10049,0.0041,-0.0886,0.3563,0.0093,-0.0142,0.0161,-0.23,0.08,0.73,0,3.621,-0.457,0.686,1.281,0.001,-0.016,1.002,0.000,0.000,0.000,0.3560,0,0,-1.14,0.21,0.05,0.0070,-0.0445,0.3577,0.0000,0.0000,0.3000,0.2526,-7.23,0.77,-21.94,1.0840,0.0000,1.7400,1.1190,2.3490,0,0.0000,0.0000,0.0000,0.0000,0.0000,0
10100,0.0056,-0.0882,0.3566,0.0104,-0.0103,0.0135,-0.30,0.06,0.81,0,3.621,-3.056,0.888,0.958,0.003,-0.011,1.001,0.000,0.000,0.000,0.3560,0,-1,-1.17,0.18,0.12,0.0080,-0.0431,0.3581,0.0000,0.0000,0.3000,0.2528,-7.01,0.93,-24.34,1.0900,0.0000,1.7400,1.1190,2.3450,0,0.0000,0.0000,0.0000,0.0000,0.0000,0
10151,0.0060,-0.0897,0.3568,0.0097,-0.0096,0.0114,-0.37,-0.02,0.86,0,3.621,2.482,1.485,0.461,0.000,-0.012,0.999,0.000,0.000,0.000,0.3590,0,0,-1.29,0.12,0.16,0.0106,-0.0449,0.3585,0.0000,0.0000,0.3000,0.2530,-7.07,0.93,-25.89,1.0900,0.0000,1.7440,1.1210,2.3450,0,0.0000,0.0000,0.0000,0.0000,0.0000,0
10202,0.0080,-0.0897,0.3581,0.0123,-0.0059,0.0145,-0.29,-0.07,0.89,0,3.621,1.384,-0.931,-0.788,0.002,-0.010,1.000,0.000,0.000,0.000,0.3550,1,0,-1.17,0.04,0.18,0.0119,-0.0436,0.3595,0.0000,0.0000,0.3000,0.2524,-6.92,1.20,-26.63,1.0890,0.0000,1.7440,1.1210,2.3420,0,0.0000,0.0000,0.0000,0.0000,0.0000,0
10254,0.0081,-0.0886,0.3573,0.0119,-0.0009,0.0067,-0.18,-0.01,0.87,0,3.616,-0.279,-1.266,-1.620,0.004,-0.012,1.000,0.000,0.000,0.000,0.3610,0,0,-1.04,0.11,0.12,0.0105,-0.0489,0.3591,0.0000,0.0000,0.3000,0.2534,-6.57,1.18,-26.02,1.0890,0.0000,1.7440,1.1190,2.3420,0,0.0000,0.0000,0.0000,0.0000,0.0000,0
10305,0.0095,-0.0904,0.3591,0.0133,-0.0022,0.0145,-0.18,0.01,0.80,0,3.621,1.026,-0.695,-1.284,-0.000,-0.015,0.997,0.000,0.000,0.000,0.3610,0,0,-1.05,0.18,0.04,0.0114,-0.0485,0.3604,0.0000,0.0000,0.3000,0.2523,-6.79,1.36,-23.91,1.0840,0.0000,1.7440,1.1190,2.3500,0,0.0000,0.0000,0.0000,0.0000,0.0000,0
10355,0.0115,-0.0905,0.3604,0.0157,-0.0008,0.0172,-0.17,-0.00,0.75,0,3.621,1.339,-0.603,-0.454,0.001,-0.013,0.999,0.000,0.000,0.000,0.3600,0,0,-1.00,0.22,-0.02,0.0121,-0.0480,0.3613,0.0000,0.0000,0.3000,0.2517,-6.75,1.63,-22.40,1.0840,0.0000,1.7420,1.1160,2.3500,0,0.0000,0.0000,0.0000,0.0000,0.0000,0
10406,0.0131,-0.0926,0.3607,0.0171,-0.0031,0.0131,-0.10,0.04,0.70,0,3.621,0.644,-2.889,-1.004,0.005,-0.014,1.000,0.000,0.000,0.000,0.3600,0,0,-0.93,0.25,-0.05,0.0128,-0.0474,0.3616,0.0000,0.0000,0.3000,0.2521,-7.00,1.82,-21.01,1.0820,0.0000,1.7420,1.1160,2.3400,0,0.0000,0.0000,0.0000,0.0000,0.0000,0
10457,0.0161,-0.0910,0.3608,0.0204,0.0007,0.0097,-0.09,0.09,0.65,0,3.616,0.301,-1.612,-0.349,-0.001,-0.011,0.996,0.000,0.000,0.000,0.3610,0,-1,-0.90,0.40,-0.09,0.0135,-0.0468,0.3618,0.0000,0.0000,0.3000,0.2524,-6.70,2.19,-19.42,1.0820,0.0000,1.7460,1.1170,2.3400,0,0.0000,0.0000,0.0000,0.0000,0.0000,0
10509,0.0187,-0.0908,0.3611,0.0222,0.0017,0.0080,-0.11,0.19,0.61,0,3.621,0.206,1.215,-0.994,0.000,-0.013,0.994,0.000,0.000,0.000,0.3610,-1,0,-0.86,0.47,-0.12,0.0151,-0.0500,0.3621,0.0000,0.0000,0.3000,0.2525,-6.63,2.47,-18.27,1.0840,0.0000,1.7460,1.1170,2.3370,0,0.0000,0.0000,0.0000,0.0000,0.0000,0
10559,0.0201,-0.0943,0.3613,0.0209,-0.0036,0.0053,-0.09,0.19,0.56,0,3.616,1.586,-1.358,-0.272,0.000,-0.012,0.997,0.000,0.000,0.000,0.3600,0,0,-0.85,0.41,-0.17,0.0155,-0.0490,0.3621,0.0000,0.0000,0.3000,0.2528,-7.14,2.51,-16.66,1.0840,0.0000,1.7520,1.1130,2.3370,0,0.0000,0.0000,0.0000,0.0000,0.0000,0
10611,0.0192,-0.0947,0.3609,0.0160,-0.0036,0.0007,-0.00,0.26,0.54,0,3.616,-1.186,-0.784,0.140,0.002,-0.016,1.002,0.000,0.000,0.000,0.3570,1,0,-0.77,0.48,-0.18,0.0158,-0.0486,0.3616,0.0000,0.0000,0.3000,0.2534,-7.15,2.19,-16.11,1.0850,0.0000,1.7520,1.1130,2.3330,0,0.0000,0.0000,0.0000,0.0000,0.0000,0
10662,0.0196,-0.0963,0.3593,0.0131,-0.0059,-0.0076,-0.05,0.30,0.54,0,3.611,-0.769,0.180,0.576,0.006,-0.010,1.002,0.000,0.000,0.000,0.3630,0,-1,-0.81,0.52,-0.19,0.0157,-0.0510,0.3603,0.0000,0.0000,0.3000,0.2546,-7.35,2.08,-16.13,1.0850,0.0000,1.7490,1.1140,2.3330,0,0.0000,0.0000,0.0000,0.0000,0.0000,0
10713,0.0197,-0.1000,0.3607,0.0096,-0.0108,0.0032,-0.12,0.25,0.57,0,3.616,-0.892,1.278,0.509,0.004,-0.016,1.000,0.000,0.000,0.000,0.3580,0,0,-0.85,0.50,-0.17,0.0171,-0.0511,0.3612,0.0000,0.0000,0.3000,0.2531,-7.89,1.92,-16.97,1.0810,0.0000,1.7490,1.1140,2.3380,0,0.0000,0.0000,0.0000,0.0000,0.0000,0
10764,0.0201,-0.1023,0.3597,0.0075,-0.0129,-0.0021,-0.13,0.19,0.60,0,3.616,-1.998,1.219,0.180,0.005,-0.017,1.004,0.000,0.000,0.000,0.3620,0,0,-0.89,0.43,-0.15,0.0173,-0.0514,0.3604,0.0000,0.0000,0.3000,0.2539,-8.13,1.85,-17.96,1.0810,0.0000,1.7510,1.1140,2.3380,0,0.0000,0.0000,0.0000,0.0000,0.0000,0
10815,0.0189,-0.1053,0.3607,0.0033,-0.0155,0.0047,-0.18,0.16,0.62,0,3.616,-1.513,2.479,-0.609,0.003,-0.016,1.002,0.000,0.000,0.000,0.3610,0,0,-0.99,0.37,-0.14,0.0175,-0.0516,0.3610,0.0000,0.0000,0.3000,0.2530,-8.50,1.56,-18.48,1.0830,0.0000,1.7510,1.1140,2.3380,0,0.0000,0.0000,0.0000,0.0000,0.0000,0
10867,0.0196,-0.1101,0.3610,0.0029,-0.0208,0.0060,-0.19,0.04,0.60,0,3.611,-0.614,3.435,0.214,0.006,-0.016,1.004,0.000,0.000,0.000,0.3610,0,1,-1.07,0.24,-0.17,0.0176,-0.0518,0.3613,0.0000,0.0000,0.3000,0.2528,-9.11,1.59,-18.03,1.0830,0.0000,1.7470,1.1090,2.3380,0,0.0000,0.0000,0.0000,0.0000,0.0000,0
10918,0.0204,-0.1115,0.3612,0.0039,-0.0197,0.0063,-0.25,-0.09,0.61,0,3.616,-1.576,1.098,-0.331,0.005,-0.014,0.998,0.000,0.000,0.000,0.3610,0,0,-1.11,0.09,-0.15,0.0137,-0.0513,0.3615,0.0000,0.0000,0.3000,0.2527,-9.16,1.70,-18.39,1.0750,0.0000,1.7470,1.1090,2.3350,0,0.0000,0.0000,0.0000,0.0000,0.0000,0
10970,0.0188,-0.1130,0.3613,0.0020,-0.0186,0.0048,-0.30,-0.14,0.61,0,3.611,0.467,1.468,-0.107,0.004,-0.012,1.002,0.000,0.000,0.000,0.3610,0,0,-1.19,0.04,-0.16,0.0131,-0.0512,0.3617,0.0000,0.0000,0.3000,0.2528,-9.21,1.49,-18.20,1.0750,0.0000,1.7470,1.1040,2.3350,0,0.0000,0.0000,0.0000,0.0000,0.0000,0
11021,0.0187,-0.1152,0.3613,0.0027,-0.0181,0.0029,-0.32,-0.15,0.60,0,3.611,-0.503,0.597,0.736,0.004,-0.014,0.997,0.000,0.000,0.000,0.3610,0,0,-1.16,-0.04,-0.17,0.0126,-0.0509,0.3618,0.0000,0.0000,0.3000,0.2530,-9.34,1.51,-17.97,1.0780,0.0000,1.7470,1.1040,2.3410,0,0.0000,0.0000,0.0000,0.0000,0.0000,0
11071,0.0206,-0.1194,0.3613,0.0069,-0.0208,0.0012,-0.32,-0.16,0.61,0,3.611,-0.855,-0.881,0.476,0.004,-0.010,0.996,0.000,0.000,0.000,0.3590,0,0,-1.19,-0.07,-0.13,0.0122,-0.0504,0.3618,0.0000,0.0000,0.3000,0.2532,-9.76,1.86,-18.32,1.0780,0.0000,1.7510,1.1040,2.3410,0,0.0000,0.0000,0.0000,0.0000,0.0000,0
11123,0.0207,-0.1235,0.3603,0.0078,-0.0232,-0.0048,-0.36,-0.14,0.64,0,3.611,-2.617,-1.822,0.694,0.000,-0.015,0.998,0.000,0.000,0.000,0.3600,0,0,-1.23,-0.02,-0.11,0.0120,-0.0496,0.3610,0.0000,0.0000,0.3000,0.2540,-10.14,1.90,-19.09,1.0770,0.0000,1.7510,1.1040,2.3370,0,0.0000,0.0000,0.0000,0.0000,0.0000,0
11174,0.0203,-0.1309,0.3600,0.0074,-0.0303,-0.0066,-0.44,-0.06,0.68,0,3.605,-0.564,-1.251,0.778,0.004,-0.011,1.003,0.000,0.000,0.000,0.3600,0,1,-1.37,0.07,-0.07,0.0117,-0.0486,0.3606,0.0000,0.0000,0.3000,0.2543,-10.99,1.85,-20.31,1.0770,0.0000,1.7530,1.0980,2.3370,0,0.0000,0.0000,0.0000,0.0000,0.0000,0
11225,0.0256,-0.1346,0.3598,0.0157,-0.0300,-0.0050,-0.48,0.03,0.71,0,3.611,-2.546,-1.205,0.299,0.002,-0.011,1.001,0.000,0.000,0.000,0.3570,-1,-1,-1.35,0.15,-0.03,0.0095,-0.0533,0.3605,0.0000,0.0000,0.3000,0.2541,-11.24,2.65,-21.19,1.0760,0.0000,1.7530,1.0980,2.3380,0,0.0000,0.0000,0.0000,0.0000,0.0000,0
11277,0.0241,-0.1378,0.3584,0.0117,-0.0288,-0.0114,-0.57,0.07,0.72,0,3.605,-1.114,-2.181,0.336,0.001,-0.016,1.004,0.000,0.000,0.000,0.3590,0,-1,-1.49,0.20,-0.01,0.0096,-0.0524,0.3594,0.0000,0.0000,0.3000,0.2551,-11.37,2.33,-21.55,1.0760,0.0000,1.7480,1.0940,2.3380,0,0.0000,0.0000,0.0000,0.0000,0.0000,0
11328,0.0260,-0.1361,0.3583,0.0130,-0.0192,-0.0078,-0.61,0.15,0.74,0,3.611,0.654,-1.839,0.609,0.005,-0.010,1.004,0.000,0.000,0.000,0.3590,-1,-3,-1.54,0.30,0.01,0.0101,-0.0517,0.3593,0.0000,0.0000,0.3000,0.2547,-10.82,2.54,-22.16,1.0730,0.0000,1.7480,1.0940,2.3430,0,0.0000,0.0000,0.0000,0.0000,0.0000,0
11378,0.0292,-0.1360,0.3584,0.0156,-0.0126,-0.0041,-0.60,0.19,0.76,0,3.605,2.372,-1.088,0.396,0.004,-0.012,0.997,0.000,0.000,0.000,0.3570,-2,0,-1.52,0.36,0.07,0.0132,-0.0498,0.3592,0.0000,0.0000,0.3000,0.2543,-10.52,2.91,-22.73,1.0730,0.0000,1.7440,1.0970,2.3430,0,0.0000,0.0000,0.0000,0.0000,0.0000,0
11430,0.0327,-0.1370,0.3577,0.0177,-0.0085,-0.0063,-0.50,0.27,0.77,0,3.611,1.047,-1.460,0.346,0.005,-0.018,1.002,0.000,0.000,0.000,0.3590,-1,-1,-1.42,0.41,0.09,0.0137,-0.0459,0.3584,0.0000,0.0000,0.3000,0.2547,-10.39,3.26,-23.03,1.0720,0.0000,1.7440,1.0970,2.3450,0,0.0000,0.0000,0.0000,0.0000,0.0000,0
11481,0.0309,-0.1358,0.3580,0.0109,-0.0023,-0.0037,-0.44,0.38,0.79,0,3.605,2.585,0.910,0.184,0.005,-0.015,1.001,0.000,0.000,0.000,0.3580,-2,0,-1.37,0.47,0.12,0.0157,-0.0429,0.3585,0.0000,0.0000,0.3000,0.2543,-10.02,2.80,-23.68,1.0720,0.0000,1.7470,1.1020,2.3450,0,0.0000,0.0000,0.0000,0.0000,0.0000,0
11531,0.0337,-0.1343,0.3579,0.0110,0.0037,-0.0029,-0.34,0.37,0.82,0,3.611,2.454,1.803,0.493,0.006,-0.016,1.002,0.000,0.000,0.000,0.3570,-1,0,-1.26,0.43,0.14,0.0161,-0.0378,0.3582,0.0000,0.0000,0.3000,0.2543,-9.64,3.01,-24.66,1.0700,0.0000,1.7470,1.1020,2.3400,0,0.0000,0.0000,0.0000,0.0000,0.0000,0
11582,0.0343,-0.1304,0.3574,0.0083,0.0120,-0.0043,-0.17,0.27,0.85,0,3.605,3.178,-0.337,0.363,0.008,-0.013,0.998,0.000,0.000,0.000,0.3580,0,0,-1.14,0.35,0.16,0.0164,-0.0341,0.3578,0.0143,-0.1013,0.3000,0.2545,-1.65,1.88,-25.61,1.0700,0.0000,1.7560,1.1010,2.3400,0,0.0000,0.0000,0.0000,0.0000,0.0000,0
11633,0.0342,-0.1293,0.3576,0.0054,0.0136,-0.0021,-0.02,0.25,0.87,0,3.611,2.974,-0.552,-0.436,0.005,-0.015,0.996,0.000,0.000,0.000,0.3550,-1,0,-0.98,0.36,0.18,0.0171,-0.0303,0.3577,0.0143,-0.1013,0.3000,0.2542,-1.50,1.74,-26.11,1.0710,0.0000,1.7560,1.1010,2.3460,0,0.0000,0.0000,0.0000,0.0000,0.0000,0
11685,0.0340,-0.1293,0.3563,0.0024,0.0124,-0.0087,0.13,0.27,0.87,0,3.600,1.152,1.364,-0.110,0.008,-0.012,0.998,0.000,0.000,0.000,0.3580,1,0,-0.79,0.40,0.14,0.0163,-0.0311,0.3568,0.0143,-0.1013,0.3000,0.2552,-1.55,1.57,-26.05,1.0710,0.0000,1.7600,1.1100,2.3460,0,0.0000,0.0000,0.0000,0.0000,0.0000,0
11735,0.0340,-0.1276,0.3568,0.0002,0.0130,-0.0054,0.17,0.18,0.85,0,3.611,1.804,2.741,-1.633,0.005,-0.012,1.001,0.000,0.000,0.000,0.3570,0,-1,-0.70,0.33,0.11,0.0165,-0.0323,0.3569,0.0143,-0.1013,0.3000,0.2547,-1.40,1.47,-25.51,1.0640,0.0000,1.7600,1.1100,2.3450,0,0.0000,0.0000,0.0000,0.0000,0.0000,0
11786,0.0335,-0.1291,0.3567,-0.0021,0.0082,-0.0047,0.26,0.08,0.79,0,3.605,-1.225,-0.826,-1.999,0.002,-0.015,0.998,0.000,0.000,0.000,0.3550,0,0,-0.60,0.18,0.02,0.0190,-0.0315,0.3566,0.0143,-0.1013,0.3000,0.2547,-1.74,1.32,-23.61,1.0640,0.0000,1.7530,1.1070,2.3450,0,0.0000,0.0000,0.0000,0.0000,0.0000,0
11838,0.0352,-0.1291,0.3558,0.0000,0.0054,-0.0083,0.22,0.09,0.70,0,3.605,-2.684,-0.268,-1.615,0.003,-0.014,0.997,0.000,0.000,0.000,0.3530,0,0,-0.66,0.22,-0.08,0.0197,-0.0297,0.3558,0.0143,-0.1013,0.3000,0.2552,-1.87,1.54,-20.98,1.0690,0.0000,1.7530,1.1070,2.3420,0,0.0000,0.0000,0.0000,0.0000,0.0000,0
11888,0.0351,-0.1304,0.3543,-0.0008,0.0012,-0.0157,0.12,0.10,0.62,0,3.600,-2.530,0.436,-0.041,0.006,-0.008,1.002,0.000,0.000,0.000,0.3540,0,0,-0.80,0.24,-0.17,0.0204,-0.0281,0.3545,0.0143,-0.1013,0.3000,0.2563,-2.16,1.49,-18.72,1.0690,0.0000,1.7500,1.1080,2.3420,0,0.0000,0.0000,0.0000,0.0000,0.0000,0
11939,0.0338,-0.1312,0.3536,-0.0037,-0.0012,-0.0148,0.02,0.07,0.61,0,3.605,-2.542,0.969,0.576,0.002,-0.011,1.001,0.000,0.000,0.000,0.3540,0,0,-0.93,0.22,-0.17,0.0211,-0.0263,0.3538,0.0143,-0.1013,0.3000,0.2563,-2.34,1.26,-18.23,1.0660,0.0000,1.7500,1.1080,2.3470,0,0.0000,0.0000,0.0000,0.0000,0.0000,0
11991,0.0357,-0.1334,0.3533,-0.0006,-0.0049,-0.0116,-0.08,0.03,0.63,0,3.600,-2.901,0.070,1.436,0.007,-0.015,1.002,0.000,0.000,0.000,0.3530,0,-1,-1.06,0.17,-0.14,0.0218,-0.0243,0.3533,0.0143,-0.1013,0.3000,0.2560,-2.67,1.55,-18.84,1.0660,0.0000,1.7500,1.1070,2.3470,0,0.0000,0.0000,0.0000,0.0000,0.0000,0
12042,0.0376,-0.1357,0.3528,0.0026,-0.0075,-0.0104,-0.21,-0.03,0.68,0,3.605,-2.192,-2.621,0.696,0.002,-0.011,1.000,0.000,0.000,0.000,0.3520,0,0,-1.14,0.17,-0.09,0.0221,-0.0339,0.3529,0.0143,-0.1013,0.3000,0.2560,-2.97,1.84,-20.54,1.0630,0.0000,1.7500,1.1070,2.3470,0,0.0000,0.0000,0.0000,0.0000,0.0000,0
12093,0.0385,-0.1360,0.3521,0.0037,-0.0056,-0.0118,-0.32,0.08,0.72,0,3.595,-0.012,-0.750,0.485,0.005,-0.012,1.001,0.000,0.000,0.000,0.3530,0,-1,-1.25,0.30,-0.05,0.0228,-0.0334,0.3522,0.0143,-0.1013,0.3000,0.2563,-2.90,1.96,-21.58,1.0630,0.0000,1.7460,1.1060,2.3470,0,0.0000,0.0000,0.0000,0.0000,0.0000,0
12144,0.0383,-0.1389,0.3521,0.0022,-0.0075,-0.0081,-0.35,0.14,0.76,0,3.600,1.665,2.022,1.392,0.004,-0.013,0.996,0.000,0.000,0.000,0.3480,-1,0,-1.25,0.33,-0.03,0.0247,-0.0335,0.3520,0.0143,-0.1013,0.3000,0.2559,-3.21,1.87,-22.66,1.0650,0.0000,1.7460,1.1060,2.3470,0,0.0000,0.0000,0.0000,0.0000,0.0000,0
12194,0.0399,-0.1404,0.3500,0.0036,-0.0066,-0.0175,-0.34,0.11,0.79,0,3.595,-2.178,-0.102,0.853,0.004,-0.014,1.004,0.000,0.000,0.000,0.3500,0,-2,-1.17,0.22,0.04,0.0253,-0.0319,0.3503,0.0143,-0.1013,0.3000,0.2573,-3.25,2.04,-23.68,1.0650,0.0000,1.7480,1.1040,2.3470,0,0.0000,0.0000,0.0000,0.0000,0.0000,0
12245,0.0382,-0.1394,0.3494,-0.0008,-0.0016,-0.0161,-0.41,0.11,0.83,0,3.600,0.501,-0.853,0.403,0.005,-0.008,1.003,0.000,0.000,0.000,0.3490,0,0,-1.28,0.20,0.09,0.0287,-0.0312,0.3496,0.0143,-0.1013,0.3000,0.2572,-2.94,1.71,-24.89,1.0650,0.0000,1.7480,1.1040,2.3510,0,0.0000,0.0000,0.0000,0.0000,0.0000,0
12297,0.0427,-0.1392,0.3487,0.0059,0.0022,-0.0147,-0.37,0.09,0.87,0,3.595,3.291,-1.345,0.645,0.002,-0.014,1.005,0.000,0.000,0.000,0.3490,-1,-1,-1.25,0.25,0.11,0.0302,-0.0298,0.3489,0.0143,-0.1013,0.3000,0.2572,-2.74,2.36,-26.05,1.0650,0.0000,1.7480,1.1060,2.3510,0,0.0000,0.0000,0.0000,0.0000,0.0000,0
12348,0.0442,-0.1401,0.3484,0.0072,0.0033,-0.0106,-0.26,0.09,0.90,0,3.600,-0.511,-2.812,0.747,0.003,-0.009,1.005,0.000,0.000,0.000,0.3440,0,0,-1.08,0.31,0.14,0.0322,-0.0280,0.3485,0.0143,-0.1013,0.3000,0.2568,-2.76,2.53,-27.08,1.0610,0.0000,1.7480,1.1060,2.3520,0,0.0000,0.0000,0.0000,0.0000,0.0000,0
12399,0.0465,-0.1366,0.3462,0.0097,0.0111,-0.0172,-0.15,0.20,0.95,0,3.595,-0.651,-1.715,-0.480,0.002,-0.010,1.004,0.000,0.000,0.000,0.3470,0,0,-1.11,0.46,0.18,0.0337,-0.0261,0.3468,0.0143,-0.1013,0.3000,0.2580,-2.12,2.80,-28.60,1.0610,0.0000,1.7530,1.1030,2.3520,0,0.0000,0.0000,0.0000,0.0000,0.0000,0
12450,0.0458,-0.1366,0.3460,0.0056,0.0111,-0.0125,-0.12,0.28,0.96,0,3.600,3.546,0.407,0.195,0.004,-0.016,1.002,0.000,0.000,0.000,0.3450,0,0,-1.14,0.54,0.16,0.0350,-0.0240,0.3465,0.0143,-0.1013,0.3000,0.2575,-2.13,2.56,-28.87,1.0610,0.0000,1.7530,1.1030,2.3600,0,0.0000,0.0000,0.0000,0.0000,0.0000,0
12501,0.0459,-0.1343,0.3452,0.0031,0.0151,-0.0117,-0.01,0.25,0.95,0,3.595,0.821,2.009,-0.846,0.005,-0.014,1.006,0.000,0.000,0.000,0.3450,-1,0,-0.96,0.52,0.17,0.0363,-0.0217,0.3457,0.0143,-0.1013,0.3000,0.2575,-1.77,2.45,-28.62,1.0610,0.0000,1.7510,1.1040,2.3600,0,0.0000,0.0000,0.0000,0.0000,0.0000,0
12551,0.0463,-0.1357,0.3448,0.0016,0.0112,-0.0080,0.08,0.12,0.94,0,3.600,0.474,0.310,-0.159,0.006,-0.014,1.005,0.000,0.000,0.000,0.3450,0,0,-0.88,0.45,0.10,0.0329,-0.0254,0.3455,0.0143,-0.1013,0.3000,0.2572,-2.06,2.41,-28.13,1.0590,0.0000,1.7510,1.1040,2.3590,0,0.0000,0.0000,0.0000,0.0000,0.0000,0
12603,0.0468,-0.1314,0.3446,0.0014,0.0172,-0.0054,0.17,0.11,0.90,0,3.595,1.254,0.003,-0.720,0.004,-0.010,1.005,0.000,0.000,0.000,0.3410,-2,0,-0.85,0.44,0.10,0.0331,-0.0242,0.3452,0.0143,-0.1013,0.3000,0.2570,-1.47,2.44,-27.12,1.0590,0.0000,1.7540,1.1110,2.3590,0,0.0000,0.0000,0.0000,0.0000,0.0000,0
12654,0.0470,-0.1327,0.3429,0.0009,0.0119,-0.0115,0.21,0.07,0.87,0,3.595,1.080,0.675,-0.789,0.008,-0.010,1.002,0.000,0.000,0.000,0.3410,0,0,-0.81,0.44,0.07,0.0330,-0.0203,0.3439,0.0143,-0.1013,0.3000,0.2579,-1.81,2.42,-26.09,1.0570,0.0000,1.7540,1.1110,2.3580,0,0.0000,0.0000,0.0000,0.0000,0.0000,0
12704,0.0479,-0.1324,0.3417,0.0020,0.0092,-0.0130,0.31,0.01,0.83,0,3.589,-1.087,0.034,-1.230,0.002,-0.009,1.008,0.000,0.000,0.000,0.3430,1,0,-0.76,0.40,0.03,0.0331,-0.0183,0.3429,0.0143,-0.1013,0.3000,0.2583,-1.92,2.54,-24.97,1.0570,0.0000,1.7520,1.1070,2.3580,0,0.0000,0.0000,0.0000,0.0000,0.0000,0
12755,0.0480,-0.1320,0.3419,0.0020,0.0066,-0.0061,0.28,0.03,0.80,0,3.595,-0.384,-0.388,-0.537,0.006,-0.009,1.005,0.000,0.000,0.000,0.3390,0,0,-0.76,0.40,-0.06,0.0331,-0.0216,0.3431,0.0143,-0.1013,0.3000,0.2575,-2.02,2.55,-24.01,1.0610,0.0000,1.7520,1.1070,2.3600,0,0.0000,0.0000,0.0000,0.0000,0.0000,0
12807,0.0477,-0.1370,0.3405,0.0009,-0.0054,-0.0093,0.24,0.06,0.77,0,3.595,-1.874,0.835,-0.593,0.003,-0.012,1.004,0.000,0.000,0.000,0.3400,0,0,-0.78,0.42,-0.09,0.0331,-0.0207,0.3419,0.0143,-0.1013,0.3000,0.2582,-2.95,2.47,-23.13,1.0610,0.0000,1.7480,1.1060,2.3600,0,0.0000,0.0000,0.0000,0.0000,0.0000,0
12858,0.0476,-0.1377,0.3401,0.0002,-0.0078,-0.0085,0.11,0.04,0.77,0,3.595,0.699,1.347,0.752,0.004,-0.018,1.006,0.000,0.000,0.000,0.3430,0,0,-0.88,0.38,-0.12,0.0329,-0.0198,0.3414,0.0143,-0.1013,0.3000,0.2581,-3.11,2.43,-23.03,1.0620,0.0000,1.7480,1.1060,2.3580,0,0.0000,0.0000,0.0000,0.0000,0.0000,0
12908,0.0479,-0.1397,0.3411,0.0005,-0.0115,0.0013,0.04,-0.03,0.78,0,3.595,-3.183,2.094,0.057,0.008,-0.006,1.004,0.000,0.000,0.000,0.3400,0,0,-0.84,0.31,-0.08,0.0326,-0.0189,0.3420,0.0143,-0.1013,0.3000,0.2569,-3.44,2.48,-23.38,1.0620,0.0000,1.7570,1.1030,2.3580,0,0.0000,0.0000,0.0000,0.0000,0.0000,0
12960,0.0441,-0.1441,0.3407,-0.0064,-0.0190,0.0015,-0.03,-0.02,0.79,0,3.595,-4.901,0.355,0.201,0.005,-0.014,1.002,0.000,0.000,0.000,0.3420,0,0,-1.00,0.21,-0.08,0.0325,-0.0178,0.3417,0.0143,-0.1013,0.3000,0.2569,-4.12,1.88,-23.71,1.0590,0.0000,1.7570,1.1030,2.3540,0,0.0000,0.0000,0.0000,0.0000,0.0000,0
13012,0.0457,-0.1468,0.3413,-0.0026,-0.0221,0.0051,-0.17,-0.04,0.79,0,3.589,-4.449,-1.284,1.142,0.009,-0.012,1.004,0.000,0.000,0.000,0.3400,0,0,-1.26,0.19,-0.07,0.0323,-0.0165,0.3421,0.0143,-0.1013,0.3000,0.2564,-4.48,2.18,-23.79,1.0590,0.0000,1.7510,1.1010,2.3540,0,0.0000,0.0000,0.0000,0.0000,0.0000,0
13062,0.0481,-0.1511,0.3409,0.0022,-0.0265,0.0030,-0.35,-0.06,0.83,0,3.595,-1.334,-2.754,0.288,0.009,-0.008,0.998,0.000,0.000,0.000,0.3420,0,0,-1.49,0.25,-0.01,0.0323,-0.0151,0.3418,0.0143,-0.1013,0.3000,0.2567,-4.99,2.58,-24.89,1.0600,0.0000,1.7510,1.1010,2.3600,0,0.0000,0.0000,0.0000,0.0000,0.0000,0
13114,0.0476,-0.1517,0.3415,0.0016,-0.0224,0.0052,-0.42,0.02,0.87,0,3.589,2.266,2.378,1.064,0.005,-0.012,0.999,0.000,0.000,0.000,0.3420,0,0,-1.55,0.39,0.01,0.0324,-0.0131,0.3422,0.0143,-0.1013,0.3000,0.2564,-4.85,2.52,-25.96,1.0600,0.0000,1.7410,1.0970,2.3600,0,0.0000,0.0000,0.0000,0.0000,0.0000,0
13165,0.0481,-0.1557,0.3419,0.0022,-0.0242,0.0073,-0.37,-0.06,0.89,0,3.595,-1.832,-4.925,0.113,0.006,-0.010,0.997,0.000,0.000,0.000,0.3430,1,0,-1.44,0.26,0.06,0.0325,-0.0108,0.3424,0.0143,-0.1013,0.3000,0.2561,-5.22,2.59,-26.74,1.0560,0.0000,1.7410,1.0970,2.3560,0,0.0000,0.0000,0.0000,0.0000,0.0000,0
13215,0.0476,-0.1576,0.3426,0.0012,-0.0223,0.0091,-0.45,0.15,0.90,0,3.595,-2.452,2.935,0.387,0.000,-0.016,0.997,0.000,0.000,0.000,0.3450,0,0,-1.43,0.52,0.03,0.0320,-0.0289,0.3430,0.0143,-0.1013,0.3000,0.2558,-5.28,2.50,-26.91,1.0560,0.0000,1.7450,1.1000,2.3560,0,0.0000,0.0000,0.0000,0.0000,0.0000,0
13267,0.0482,-0.1615,0.3439,0.0012,-0.0235,0.0130,-0.50,-0.00,0.88,0,3.595,-0.371,-2.276,-0.484,0.006,-0.009,0.994,0.000,0.000,0.000,0.3410,0,0,-1.55,0.37,0.05,0.0318,-0.0289,0.3439,0.0143,-0.1013,0.3000,0.2551,-5.63,2.56,-26.53,1.0590,0.0000,1.7450,1.1000,2.3580,0,0.0000,0.0000,0.0000,0.0000,0.0000,0
13319,0.0483,-0.1626,0.3431,0.0010,-0.0193,0.0048,-0.53,0.03,0.87,0,3.589,-0.903,-3.605,-0.656,0.003,-0.008,0.996,0.000,0.000,0.000,0.3430,0,-3,-1.57,0.49,0.03,0.0316,-0.0286,0.3431,0.0143,-0.1013,0.3000,0.2561,-5.49,2.54,-26.09,1.0590,0.0000,1.7470,1.1040,2.3580,0,0.0000,0.0000,0.0000,0.0000,0.0000,0
13369,0.0493,-0.1627,0.3431,0.0022,-0.0135,0.0020,-0.51,0.11,0.84,0,3.595,1.076,-1.064,-0.059,0.008,-0.011,0.995,0.000,0.000,0.000,0.3440,-1,0,-1.60,0.61,0.04,0.0362,-0.0289,0.3430,0.0143,-0.1013,0.3000,0.2564,-5.21,2.68,-25.11,1.0530,0.0000,1.7470,1.1040,2.3560,0,0.0000,0.0000,0.0000,0.0000,0.0000,0
13421,0.0546,-0.1602,0.3435,0.0101,-0.0039,0.0023,-0.47,0.22,0.82,0,3.589,5.455,3.646,-0.616,0.001,-0.016,0.997,0.000,0.000,0.000,0.3430,-2,0,-1.56,0.67,0.04,0.0373,-0.0274,0.3431,0.0143,-0.1013,0.3000,0.2563,-4.57,3.44,-24.51,1.0530,0.0000,1.7460,1.0990,2.3560,0,0.0000,0.0000,0.0000,0.0000,0.0000,0
13472,0.0548,-0.1560,0.3434,0.0079,0.0073,-0.0005,-0.24,0.06,0.77,0,3.595,2.402,-1.877,-0.593,0.005,-0.005,0.996,0.000,0.000,0.000,0.3430,0,0,-1.29,0.49,0.02,0.0380,-0.0244,0.3428,0.0143,-0.1013,0.3000,0.2566,-3.73,3.34,-23.22,1.0590,0.0000,1.7460,1.0990,2.3530,0,0.0000,0.0000,0.0000,0.0000,0.0000,0
13523,0.0552,-0.1527,0.3432,0.0071,0.0143,-0.0032,-0.15,0.17,0.75,0,3.589,5.453,-2.779,-1.940,0.004,-0.006,1.001,0.000,0.000,0.000,0.3390,-1,0,-1.17,0.58,-0.01,0.0388,-0.0221,0.3425,0.0143,-0.1013,0.3000,0.2570,-3.16,3.33,-22.54,1.0590,0.0000,1.7440,1.1020,2.3530,0,0.0000,0.0000,0.0000,0.0000,0.0000,0
13573,0.0607,-0.1528,0.3413,0.0148,0.0140,-0.0133,0.08,0.23,0.71,0,3.589,2.104,-2.853,-0.806,0.003,-0.009,0.999,0.000,0.000,0.000,0.3420,-1,-1,-0.87,0.73,-0.12,0.0385,-0.0209,0.3411,0.0143,-0.1013,0.3000,0.2584,-3.16,4.07,-21.33,1.0540,0.0000,1.7440,1.1020,2.3620,0,0.0000,0.0000,0.0000,0.0000,0.0000,0
13625,0.0598,-0.1503,0.3411,0.0102,0.0164,-0.0113,0.27,0.24,0.66,0,3.584,3.870,-0.598,-1.203,0.004,-0.013,1.003,0.000,0.000,0.000,0.3410,-1,0,-0.77,0.86,-0.15,0.0400,-0.0180,0.3409,0.0143,-0.1013,0.3000,0.2582,-2.86,3.79,-19.86,1.0540,0.0000,1.7460,1.1020,2.3620,0,0.0000,0.0000,0.0000,0.0000,0.0000,0
13676,0.0605,-0.1495,0.3407,0.0084,0.0138,-0.0099,0.36,0.30,0.64,0,3.589,-1.011,-1.666,-0.896,0.005,-0.012,1.002,0.000,0.000,0.000,0.3430,0,-1,-0.57,0.90,-0.21,0.0402,-0.0150,0.3405,0.0143,-0.1013,0.3000,0.2581,-2.94,3.76,-19.29,1.0550,0.0000,1.7460,1.1020,2.3590,0,0.0000,0.0000,0.0000,0.0000,0.0000,0
13727,0.0579,-0.1479,0.3414,0.0005,0.0124,-0.0028,0.44,0.35,0.61,0,3.589,0.374,1.680,-0.531,0.005,-0.013,1.001,0.000,0.000,0.000,0.3430,0,-1,-0.61,0.97,-0.27,0.0421,-0.0138,0.3410,0.0143,-0.1013,0.3000,0.2572,-2.90,3.21,-18.33,1.0550,0.0000,1.7470,1.1060,2.3590,0,0.0000,0.0000,0.0000,0.0000,0.0000,0
13778,0.0583,-0.1472,0.3420,-0.0018,0.0092,0.0025,0.45,0.27,0.61,0,3.589,-1.316,1.359,-0.573,0.004,-0.010,0.993,0.000,0.000,0.000,0.3410,0,0,-0.58,0.86,-0.32,0.0443,-0.0130,0.3415,0.0143,-0.1013,0.3000,0.2565,-3.01,3.14,-18.33,1.0520,0.0000,1.7470,1.1060,2.3550,0,0.0000,0.0000,0.0000,0.0000,0.0000,0
13830,0.0609,-0.1476,0.3417,0.0007,0.0038,-0.0003,0.39,0.12,0.60,0,3.589,0.143,2.364,-0.197,0.004,-0.015,0.999,0.000,0.000,0.000,0.3410,-1,0,-0.65,0.79,-0.35,0.0447,-0.0111,0.3410,0.0143,-0.1013,0.3000,0.2569,-3.30,3.43,-18.02,1.0520,0.0000,1.7420,1.0970,2.3550,0,0.0000,0.0000,0.0000,0.0000,0.0000,0
13880,0.0613,-0.1504,0.3413,0.0003,-0.0050,-0.0035,0.35,0.11,0.59,0,3.589,-1.630,1.971,-0.706,0.008,-0.013,0.996,0.000,0.000,0.000,0.3390,1,0,-0.64,0.67,-0.37,0.0446,-0.0096,0.3407,0.0143,-0.1013,0.3000,0.2573,-3.92,3.44,-17.83,1.0490,0.0000,1.7420,1.0970,2.3580,0,0.0000,0.0000,0.0000,0.0000,0.0000,0
13932,0.0612,-0.1509,0.3402,-0.0006,-0.0085,-0.0093,0.22,0.08,0.57,0,3.584,-1.642,0.856,-1.079,0.004,-0.011,1.005,0.000,0.000,0.000,0.3390,0,0,-0.70,0.57,-0.43,0.0446,-0.0110,0.3398,0.0143,-0.1013,0.3000,0.2581,-4.11,3.38,-16.98,1.0490,0.0000,1.7460,1.1060,2.3580,0,0.0000,0.0000,0.0000,0.0000,0.0000,0
13982,0.0611,-0.1528,0.3394,-0.0015,-0.0131,-0.0116,0.09,0.07,0.53,0,3.584,-3.344,-0.257,-0.440,0.005,-0.010,0.999,0.000,0.000,0.000,0.3410,0,-1,-0.78,0.53,-0.49,0.0445,-0.0099,0.3392,0.0143,-0.1013,0.3000,0.2585,-4.45,3.33,-15.89,1.0530,0.0000,1.7460,1.1060,2.3600,0,0.0000,0.0000,0.0000,0.0000,0.0000,0
14034,0.0598,-0.1562,0.3397,-0.0047,-0.0193,-0.0067,-0.03,0.09,0.50,0,3.584,-2.201,-0.702,-0.934,-0.000,-0.016,0.996,0.000,0.000,0.000,0.3390,0,0,-0.93,0.51,-0.55,0.0487,-0.0115,0.3394,0.0143,-0.1013,0.3000,0.2580,-5.00,3.09,-14.99,1.0530,0.0000,1.7410,1.1030,2.3600,0,0.0000,0.0000,0.0000,0.0000,0.0000,0
14085,0.0610,-0.1588,0.3392,-0.0028,-0.0225,-0.0079,-0.14,0.09,0.46,0,3.584,-4.144,0.194,-0.355,0.005,-0.008,0.999,0.000,0.000,0.000,0.3370,1,0,-1.04,0.55,-0.60,0.0491,-0.0108,0.3389,0.0143,-0.1013,0.3000,0.2582,-5.34,3.26,-13.71,1.0530,0.0000,1.7410,1.1030,2.3630,0,0.0000,0.0000,0.0000,0.0000,0.0000,0
14135,0.0659,-0.1591,0.3380,0.0066,-0.0195,-0.0118,-0.26,-0.01,0.42,0,3.584,-1.906,-0.146,-0.757,0.003,-0.006,1.001,0.000,0.000,0.000,0.3360,1,0,-1.22,0.54,-0.65,0.0488,-0.0155,0.3379,0.0143,-0.1013,0.3000,0.2588,-5.20,4.06,-12.68,1.0530,0.0000,1.7310,1.0970,2.3630,0,0.0000,0.0000,0.0000,0.0000,0.0000,0
14187,0.0662,-0.1616,0.3368,0.0065,-0.0204,-0.0148,-0.34,0.03,0.39,0,3.584,-2.434,-3.008,-0.634,0.004,-0.015,1.002,0.000,0.000,0.000,0.3360,0,0,-1.30,0.55,-0.70,0.0488,-0.0174,0.3368,0.0143,-0.1013,0.3000,0.2594,-5.42,4.06,-11.61,1.0490,0.0000,1.7310,1.0970,2.3630,0,0.0000,0.0000,0.0000,0.0000,0.0000,0
14238,0.0653,-0.1650,0.3360,0.0038,-0.0224,-0.0141,-0.39,0.17,0.34,0,3.579,-1.775,0.949,-1.126,0.004,-0.012,1.007,0.000,0.000,0.000,0.3330,2,-1,-1.43,0.71,-0.73,0.0487,-0.0174,0.3360,0.0143,-0.1013,0.3000,0.2594,-5.75,3.87,-10.26,1.0490,0.0000,1.7310,1.0950,2.3630,0,0.0000,0.0000,0.0000,0.0000,0.0000,0
14289,0.0667,-0.1651,0.3343,0.0048,-0.0172,-0.0179,-0.44,0.14,0.27,0,3.584,0.080,-2.286,-1.956,0.003,-0.012,1.005,0.000,0.000,0.000,0.3300,-2,0,-1.46,0.63,-0.84,0.0527,-0.0252,0.3348,0.0143,-0.1013,0.3000,0.2602,-5.50,4.00,-8.25,1.0500,0.0000,1.7310,1.0950,2.3710,0,0.0000,0.0000,0.0000,0.0000,0.0000,0
14340,0.0664,-0.1687,0.3320,0.0023,-0.0192,-0.0231,-0.49,0.22,0.19,0,3.579,0.543,0.732,-0.456,0.006,-0.006,1.006,0.000,0.000,0.000,0.3330,-1,-1,-1.49,0.75,-0.91,0.0529,-0.0215,0.3330,0.0143,-0.1013,0.3000,0.2612,-5.83,3.85,-5.81,1.0500,0.0000,1.7210,1.1000,2.3710,0,0.0000,0.0000,0.0000,0.0000,0.0000,0
14391,0.0662,-0.1688,0.3318,-0.0003,-0.0139,-0.0154,-0.42,0.19,0.14,0,3.584,1.612,0.893,-1.556,-0.000,-0.016,1.002,0.000,0.000,0.000,0.3350,-1,-1,-1.47,0.70,-0.91,0.0551,-0.0192,0.3325,0.0143,-0.1013,0.3000,0.2604,-5.60,3.73,-4.17,1.0500,0.0000,1.7210,1.1000,2.3650,0,0.0000,0.0000,0.0000,0.0000,0.0000,0
14443,0.0662,-0.1684,0.3327,-0.0019,-0.0081,-0.0035,-0.35,0.16,0.09,0,3.579,0.130,1.963,-0.333,0.003,-0.016,1.004,0.000,0.000,0.000,0.3350,0,-3,-1.40,0.64,-0.98,0.0575,-0.0165,0.3329,0.0143,-0.1013,0.3000,0.2589,-5.33,3.67,-2.57,1.0500,0.0000,1.7170,1.0910,2.3650,0,0.0000,0.0000,0.0000,0.0000,0.0000,0
14494,0.0663,-0.1697,0.3336,-0.0032,-0.0073,0.0051,-0.31,0.10,0.06,0,3.584,1.306,0.383,-0.492,0.002,-0.017,0.999,0.000,0.000,0.000,0.3330,0,0,-1.38,0.49,-0.98,0.0652,-0.0162,0.3334,0.0143,-0.1013,0.3000,0.2578,-5.40,3.64,-1.73,1.0480,0.0000,1.7170,1.0910,2.3640,0,0.0000,0.0000,0.0000,0.0000,0.0000,0
14545,0.0678,-0.1710,0.3336,-0.0008,-0.0069,0.0043,-0.25,0.07,0.05,0,3.579,0.460,-0.039,0.142,0.008,-0.014,0.999,0.000,0.000,0.000,0.3310,0,-3,-1.32,0.47,-1.01,0.0670,-0.0147,0.3332,0.0143,-0.1013,0.3000,0.2579,-5.48,3.86,-1.41,1.0480,0.0000,1.7270,1.0940,2.3640,0,0.0000,0.0000,0.0000,0.0000,0.0000,0
14596,0.0668,-0.1711,0.3326,-0.0035,-0.0045,-0.0021,-0.23,0.03,0.05,0,3.584,0.698,-0.994,0.262,0.002,-0.008,0.998,0.000,0.000,0.000,0.3300,0,0,-1.26,0.42,-0.99,0.0767,-0.0176,0.3324,0.0143,-0.1013,0.3000,0.2588,-5.35,3.64,-1.53,1.0460,0.0000,1.7270,1.0940,2.3640,0,0.0000,0.0000,0.0000,0.0000,0.0000,0
14647,0.0673,-0.1706,0.3314,-0.0027,-0.0011,-0.0074,-0.20,0.04,0.07,0,3.579,1.541,0.044,0.356,0.002,-0.014,1.000,0.000,0.000,0.000,0.3330,0,1,-1.23,0.47,-0.98,0.0799,-0.0164,0.3314,0.0143,-0.1013,0.3000,0.2596,-5.15,3.70,-2.01,1.0460,0.0000,1.7250,1.0910,2.3640,0,0.0000,0.0000,0.0000,0.0000,0.0000,0
14698,0.0683,-0.1709,0.3319,-0.0002,-0.0002,-0.0018,-0.11,0.01,0.09,0,3.584,0.805,2.097,0.230,0.002,-0.012,1.000,0.000,0.000,0.000,0.3320,0,1,-1.13,0.54,-1.00,0.0727,-0.0182,0.3318,0.0143,-0.1013,0.3000,0.2589,-5.14,3.91,-2.64,1.0480,0.0000,1.7250,1.0910,2.3670,0,0.0000,0.0000,0.0000,0.0000,0.0000,0
14749,0.0684,-0.1722,0.3319,-0.0000,-0.0021,-0.0022,-0.07,-0.02,0.10,0,3.579,-0.024,-1.160,-0.405,0.003,-0.014,1.003,0.000,0.000,0.000,0.3280,0,-2,-1.08,0.45,-1.00,0.0710,-0.0177,0.3316,0.0143,-0.1013,0.3000,0.2589,-5.32,3.92,-3.05,1.0480,0.0000,1.7260,1.0900,2.3670,0,0.0000,0.0000,0.0000,0.0000,0.0000,0
14800,0.0684,-0.1732,0.3302,0.0004,-0.0036,-0.0099,-0.09,-0.03,0.11,0,3.584,0.794,-0.684,0.292,0.007,-0.016,1.000,0.000,0.000,0.000,0.3300,0,0,-1.08,0.48,-1.02,0.0755,-0.0175,0.3304,0.0143,-0.1013,0.3000,0.2601,-5.44,3.92,-3.18,1.0490,0.0000,1.7260,1.0900,2.3670,0,0.0000,0.0000,0.0000,0.0000,0.0000,0
14851,0.0702,-0.1737,0.3298,0.0045,-0.0037,-0.0087,-0.03,-0.02,0.12,0,3.579,-1.129,0.147,1.045,0.003,-0.009,1.001,0.000,0.000,0.000,0.3310,0,0,-1.04,0.51,-1.00,0.0765,-0.0165,0.3300,0.0143,-0.1013,0.3000,0.2600,-5.48,4.25,-3.66,1.0490,0.0000,1.7210,1.0940,2.3670,0,0.0000,0.0000,0.0000,0.0000,0.0000,0
14902,0.0700,-0.1747,0.3301,0.0037,-0.0056,-0.0041,-0.03,0.02,0.18,0,3.584,0.609,-0.749,0.583,0.004,-0.012,1.003,0.000,0.000,0.000,0.3300,1,0,-1.10,0.50,-0.95,0.0774,-0.0153,0.3300,0.0143,-0.1013,0.3000,0.2595,-5.66,4.21,-5.28,1.0480,0.0000,1.7210,1.0940,2.3680,0,0.0000,0.0000,0.0000,0.0000,0.0000,0
14953,0.0677,-0.1779,0.3299,-0.0026,-0.0119,-0.0034,-0.04,0.13,0.27,0,3.579,-2.376,-0.314,1.180,0.004,-0.010,1.006,0.000,0.000,0.000,0.3290,0,-1,-1.01,0.56,-0.94,0.0754,-0.0232,0.3300,0.0143,-0.1013,0.3000,0.2594,-6.18,3.75,-8.02,1.0480,0.0000,1.7280,1.0890,2.3680,0,0.0000,0.0000,0.0000,0.0000,0.0000,0
15005,0.0680,-0.1791,0.3294,-0.0024,-0.0126,-0.0043,-0.15,0.07,0.36,0,3.584,-2.803,-1.653,3.508,0.002,-0.009,1.001,0.000,0.000,0.000,0.3300,0,-1,-1.13,0.56,-0.88,0.0770,-0.0233,0.3297,0.0143,-0.1013,0.3000,0.2596,-6.30,3.78,-10.78,1.0470,0.0000,1.7280,1.0890,2.3700,0,0.0000,0.0000,0.0000,0.0000,0.0000,0
15055,0.0672,-0.1799,0.3295,-0.0050,-0.0114,-0.0025,-0.31,0.04,0.49,0,3.579,0.630,-0.345,2.678,0.003,-0.012,1.001,0.000,0.000,0.000,0.3270,0,0,-1.28,0.63,-0.70,0.0788,-0.0233,0.3298,0.0143,-0.1013,0.3000,0.2594,-6.30,3.60,-14.76,1.0470,0.0000,1.7350,1.0920,2.3700,0,0.0000,0.0000,0.0000,0.0000,0.0000,0
15107,0.0686,-0.1807,0.3284,-0.0013,-0.0094,-0.0078,-0.33,-0.05,0.61,0,3.584,-0.784,-1.606,2.064,-0.002,-0.010,1.000,0.000,0.000,0.000,0.3310,0,0,-1.25,0.64,-0.56,0.0792,-0.0229,0.3289,0.0143,-0.1013,0.3000,0.2602,-6.25,3.87,-18.27,1.0480,0.0000,1.7350,1.0920,2.3710,0,0.0000,0.0000,0.0000,0.0000,0.0000,0
15158,0.0684,-0.1817,0.3292,-0.0013,-0.0077,-0.0020,-0.36,-0.02,0.70,0,3.574,-1.344,0.623,1.396,0.003,-0.017,1.001,0.000,0.000,0.000,0.3290,1,1,-1.29,0.73,-0.45,0.0792,-0.0221,0.3295,0.0143,-0.1013,0.3000,0.2594,-6.26,3.87,-21.14,1.0480,0.0000,1.7370,1.0910,2.3710,0,0.0000,0.0000,0.0000,0.0000,0.0000,0
15209,0.0686,-0.1830,0.3291,-0.0003,-0.0073,-0.0014,-0.23,-0.14,0.75,0,3.579,-2.834,-0.537,1.363,0.006,-0.013,0.999,0.000,0.000,0.000,0.3240,0,0,-1.32,0.71,-0.41,0.0761,-0.0278,0.3295,0.0143,-0.1013,0.3000,0.2593,-6.33,3.93,-22.64,1.0470,0.0000,1.7370,1.0910,2.3770,0,0.0000,0.0000,0.0000,0.0000,0.0000,0
15260,0.0683,-0.1851,0.3269,0.0003,-0.0091,-0.0133,-0.29,-0.11,0.82,0,3.574,-0.841,-3.720,1.576,0.006,-0.012,1.003,0.000,0.000,0.000,0.3310,0,0,-1.46,0.74,-0.34,0.0752,-0.0280,0.3277,0.0143,-0.1013,0.3000,0.2610,-6.52,3.91,-24.64,1.0470,0.0000,1.7410,1.0880,2.3770,0,0.0000,0.0000,0.0000,0.0000,0.0000,0
15310,0.0674,-0.1898,0.3283,-0.0010,-0.0165,-0.0011,-0.37,0.02,0.92,0,3.579,-0.692,0.437,1.372,0.001,-0.008,0.997,0.000,0.000,0.000,0.3260,0,-1,-1.50,0.93,-0.26,0.0740,-0.0278,0.3286,0.0143,-0.1013,0.3000,0.2594,-7.25,3.81,-27.58,1.0450,0.0000,1.7410,1.0880,2.3720,0,0.0000,0.0000,0.0000,0.0000,0.0000,0
15361,0.0686,-0.1916,0.3273,0.0015,-0.0156,-0.0062,-0.31,-0.02,0.97,0,3.574,-3.021,-2.428,1.511,0.002,-0.012,1.001,0.000,0.000,0.000,0.3230,1,-1,-1.53,0.85,-0.17,0.0797,-0.0289,0.3279,0.0143,-0.1013,0.3000,0.2602,-7.31,4.00,-29.02,1.0450,0.0000,1.7450,1.0880,2.3720,0,0.0000,0.0000,0.0000,0.0000,0.0000,0
15413,0.0707,-0.1930,0.3252,0.0061,-0.0146,-0.0150,-0.38,0.02,1.01,0,3.579,-4.317,-4.348,1.274,-0.002,-0.009,1.002,0.000,0.000,0.000,0.3280,0,0,-1.67,0.96,-0.10,0.0808,-0.0298,0.3263,0.0143,-0.1013,0.3000,0.2615,-7.32,4.35,-30.44,1.0450,0.0000,1.7450,1.0880,2.3790,0,0.0000,0.0000,0.0000,0.0000,0.0000,0
15464,0.0707,-0.1946,0.3260,0.0047,-0.0129,-0.0068,-0.55,0.24,1.06,0,3.574,2.784,5.509,-0.109,0.003,-0.012,1.004,0.000,0.000,0.000,0.3230,0,0,-1.90,1.18,-0.03,0.0804,-0.0290,0.3265,0.0143,-0.1013,0.3000,0.2605,-7.39,4.30,-31.93,1.0450,0.0000,1.7350,1.0820,2.3790,0,0.0000,0.0000,0.0000,0.0000,0.0000,0
15515,0.0701,-0.1952,0.3245,0.0009,-0.0084,-0.0115,-0.45,0.11,1.10,0,3.574,-1.364,-1.027,0.401,0.005,-0.013,1.005,0.000,0.000,0.000,0.3260,0,0,-1.75,0.90,-0.04,0.0796,-0.0277,0.3253,0.0143,-0.1013,0.3000,0.2613,-7.20,4.07,-33.04,1.0440,0.0000,1.7350,1.0820,2.3760,0,0.0000,0.0000,0.0000,0.0000,0.0000,0
15566,0.0698,-0.1926,0.3248,-0.0007,0.0015,-0.0064,-0.40,0.10,1.12,0,3.568,2.371,0.245,0.620,0.002,-0.008,1.007,0.000,0.000,0.000,0.3240,-1,0,-1.82,0.95,-0.02,0.0785,-0.0260,0.3254,0.0143,-0.1013,0.3000,0.2607,-6.58,3.98,-33.56,1.0440,0.0000,1.7480,1.0890,2.3760,0,0.0000,0.0000,0.0000,0.0000,0.0000,0
15617,0.0695,-0.1912,0.3242,-0.0022,0.0075,-0.0060,-0.37,0.22,1.15,0,3.574,5.502,3.299,-0.569,0.003,-0.011,1.003,0.000,0.000,0.000,0.3250,0,0,-1.66,0.90,0.01,0.0826,-0.0294,0.3253,0.0143,-0.1013,0.3000,0.2607,-6.19,3.89,-34.42,1.0460,0.0000,1.7480,1.0890,2.3780,0,0.0000,0.0000,0.0000,0.0000,0.0000,0
15668,0.0678,-0.1879,0.3244,-0.0073,0.0161,-0.0027,-0.16,0.07,1.12,0,3.574,6.156,2.831,-2.283,0.003,-0.013,1.000,0.000,0.000,0.000,0.3240,0,0,-1.38,0.73,-0.02,0.0819,-0.0278,0.3254,0.0143,-0.1013,0.3000,0.2603,-5.56,3.53,-33.70,1.0460,0.0000,1.7460,1.0890,2.3780,0,0.0000,0.0000,0.0000,0.0000,0.0000,0
15719,0.0670,-0.1878,0.3241,-0.0087,0.0156,-0.0030,0.07,-0.09,1.06,0,3.579,0.634,-2.359,-1.224,0.007,-0.015,0.997,0.000,0.000,0.000,0.3250,-1,0,-1.07,0.59,-0.14,0.0811,-0.0260,0.3251,0.0143,-0.1013,0.3000,0.2604,-5.58,3.40,-31.75,1.0510,0.0000,1.7460,1.0890,2.3780,0,0.0000,0.0000,0.0000,0.0000,0.0000,0
15771,0.0668,-0.1864,0.3244,-0.0073,0.0161,-0.0016,0.17,-0.05,0.97,0,3.568,3.163,0.038,-2.253,0.004,-0.011,0.999,0.000,0.000,0.000,0.3220,0,0,-1.02,0.69,-0.21,0.0822,-0.0259,0.3251,0.0143,-0.1013,0.3000,0.2602,-5.46,3.47,-29.16,1.0510,0.0000,1.7560,1.0940,2.3780,0,0.0000,0.0000,0.0000,0.0000,0.0000,0
15821,0.0637,-0.1826,0.3233,-0.0127,0.0206,-0.0061,0.21,0.01,0.86,0,3.574,2.008,1.351,-3.036,0.004,-0.018,1.000,0.000,0.000,0.000,0.3230,-2,1,-0.85,0.69,-0.32,0.0816,-0.0244,0.3241,0.0143,-0.1013,0.3000,0.2609,-4.97,2.98,-25.71,1.0560,0.0000,1.7560,1.0940,2.3710,0,0.0000,0.0000,0.0000,0.0000,0.0000,0
15873,0.0594,-0.1807,0.3230,-0.0201,0.0205,-0.0064,0.28,-0.06,0.71,0,3.568,3.108,3.109,-3.089,0.001,-0.013,0.999,0.000,0.000,0.000,0.3230,-1,2,-0.77,0.64,-0.46,0.0798,-0.0207,0.3236,0.0143,-0.1013,0.3000,0.2610,-4.85,2.33,-21.36,1.0560,0.0000,1.7470,1.0930,2.3710,0,0.0000,0.0000,0.0000,0.0000,0.0000,0
15924,0.0560,-0.1798,0.3228,-0.0241,0.0177,-0.0053,0.37,-0.14,0.58,0,3.574,1.918,3.607,-2.397,0.004,-0.021,0.997,0.000,0.000,0.000,0.3250,1,2,-0.61,0.50,-0.62,0.0765,-0.0181,0.3231,0.0143,-0.1013,0.3000,0.2609,-4.91,1.90,-17.37,1.0570,0.0000,1.7470,1.0930,2.3730,0,0.0000,0.0000,0.0000,0.0000,0.0000,0
15974,0.0534,-0.1775,0.3236,-0.0254,0.0174,-0.0002,0.41,-0.27,0.47,0,3.574,-0.321,2.884,-0.740,0.007,-0.017,1.000,0.000,0.000,0.000,0.3220,0,0,-0.49,0.33,-0.74,0.0725,-0.0184,0.3234,0.0143,-0.1013,0.3000,0.2602,-4.78,1.66,-13.96,1.0570,0.0000,1.7490,1.0890,2.3730,0,0.0000,0.0000,0.0000,0.0000,0.0000,0
16025,0.0495,-0.1781,0.3229,-0.0281,0.0112,-0.0039,0.45,-0.44,0.36,0,3.574,0.857,-0.526,-0.388,0.009,-0.010,0.997,0.000,0.000,0.000,0.3200,2,0,-0.50,0.19,-0.78,0.0699,-0.0173,0.3227,0.0143,-0.1013,0.3000,0.2608,-5.10,1.24,-10.90,1.0600,0.0000,1.7490,1.0890,2.3860,0,0.0000,0.0000,0.0000,0.0000,0.0000,0
16077,0.0480,-0.1757,0.3215,-0.0243,0.0113,-0.0111,0.46,-0.56,0.30,0,3.563,-0.385,1.528,-0.296,0.001,-0.013,0.997,0.000,0.000,0.000,0.3240,0,0,-0.40,0.18,-0.84,0.0719,-0.0242,0.3217,0.0143,-0.1013,0.3000,0.2618,-4.91,1.31,-9.09,1.0600,0.0000,1.7330,1.0870,2.3860,0,0.0000,0.0000,0.0000,0.0000,0.0000,0
16127,0.0435,-0.1785,0.3222,-0.0265,0.0010,-0.0057,0.41,-0.63,0.28,0,3.574,1.462,2.409,-0.924,0.006,-0.016,0.998,0.000,0.000,0.000,0.3190,0,0,-0.42,0.10,-0.86,0.0705,-0.0251,0.3219,0.0143,-0.1013,0.3000,0.2611,-5.61,0.89,-8.26,1.0600,0.0000,1.7330,1.0870,2.3780,0,0.0000,0.0000,0.0000,0.0000,0.0000,0
16179,0.0395,-0.1785,0.3206,-0.0270,-0.0025,-0.0138,0.41,-0.64,0.26,0,3.563,-2.126,-1.754,0.378,0.003,-0.012,1.000,0.000,0.000,0.000,0.3210,0,0,-0.34,-0.02,-0.91,0.0692,-0.0263,0.3205,0.0143,-0.1013,0.3000,0.2623,-5.75,0.59,-7.76,1.0600,0.0000,1.7370,1.0850,2.3780,0,0.0000,0.0000,0.0000,0.0000,0.0000,0
16230,0.0369,-0.1792,0.3203,-0.0245,-0.0067,-0.0118,0.27,-0.62,0.26,0,3.568,-1.920,3.254,0.558,0.004,-0.016,0.999,0.000,0.000,0.000,0.3160,1,0,-0.45,0.07,-0.89,0.0680,-0.0277,0.3201,0.0143,-0.1013,0.3000,0.2621,-6.00,0.52,-7.93,1.0620,0.0000,1.7370,1.0850,2.3820,0,0.0000,0.0000,0.0000,0.0000,0.0000,0
16280,0.0348,-0.1807,0.3180,-0.0214,-0.0112,-0.0203,0.13,-0.72,0.30,0,3.563,-2.628,-0.975,1.162,0.006,-0.013,1.003,0.000,0.000,0.000,0.3170,0,0,-0.57,-0.13,-0.92,0.0716,-0.0262,0.3183,0.0143,-0.1013,0.3000,0.2634,-6.28,0.51,-9.11,1.0620,0.0000,1.7380,1.0840,2.3820,0,0.0000,0.0000,0.0000,0.0000,0.0000,0
16332,0.0317,-0.1816,0.3169,-0.0198,-0.0127,-0.0197,-0.00,-0.64,0.36,0,3.568,-0.466,-4.833,0.993,0.007,-0.013,1.007,0.000,0.000,0.000,0.3140,0,-1,-0.70,-0.08,-0.86,0.0716,-0.0273,0.3172,0.0143,-0.1013,0.3000,0.2636,-6.41,0.37,-10.85,1.0650,0.0000,1.7380,1.0840,2.3900,0,0.0000,0.0000,0.0000,0.0000,0.0000,0
16383,0.0318,-0.1839,0.3151,-0.0125,-0.0161,-0.0215,-0.10,-0.49,0.40,0,3.563,-0.828,-0.960,1.163,0.006,-0.016,1.006,0.000,0.000,0.000,0.3140,0,-1,-0.74,0.16,-0.84,0.0736,-0.0271,0.3156,0.0143,-0.1013,0.3000,0.2641,-6.71,0.72,-12.15,1.0650,0.0000,1.7410,1.0840,2.3900,0,0.0000,0.0000,0.0000,0.0000,0.0000,0
16434,0.0314,-0.1852,0.3140,-0.0083,-0.0162,-0.0187,-0.26,-0.44,0.46,0,3.563,-2.184,-1.461,0.722,0.002,-0.014,1.011,0.000,0.000,0.000,0.3160,0,0,-0.78,0.20,-0.79,0.0753,-0.0276,0.3145,0.0143,-0.1013,0.3000,0.2640,-6.82,0.89,-13.90,1.0700,0.0000,1.7410,1.0840,2.3850,0,0.0000,0.0000,0.0000,0.0000,0.0000,0
16485,0.0313,-0.1851,0.3143,-0.0043,-0.0118,-0.0076,-0.36,-0.36,0.50,0,3.568,0.079,-1.197,0.538,0.002,-0.011,1.013,0.000,0.000,0.000,0.3120,0,0,-0.90,0.27,-0.75,0.0762,-0.0283,0.3147,0.0143,-0.1013,0.3000,0.2628,-6.64,1.08,-15.14,1.0700,0.0000,1.7380,1.0850,2.3850,0,0.0000,0.0000,0.0000,0.0000,0.0000,0
16536,0.0307,-0.1895,0.3132,-0.0024,-0.0172,-0.0058,-0.29,-0.22,0.55,0,3.563,-2.157,-2.377,0.602,0.005,-0.017,1.007,0.000,0.000,0.000,0.3160,0,0,-0.89,0.33,-0.72,0.0771,-0.0289,0.3139,0.0143,-0.1013,0.3000,0.2628,-7.20,1.12,-16.53,1.0730,0.0000,1.7380,1.0850,2.3890,0,0.0000,0.0000,0.0000,0.0000,0.0000,0
16587,0.0302,-0.1904,0.3143,-0.0019,-0.0147,0.0054,-0.38,-0.07,0.61,0,3.563,-4.116,0.290,1.270,0.003,-0.011,1.004,0.000,0.000,0.000,0.3140,0,0,-1.00,0.45,-0.69,0.0780,-0.0295,0.3147,0.0143,-0.1013,0.3000,0.2614,-7.18,1.12,-18.40,1.0730,0.0000,1.7450,1.0870,2.3890,0,0.0000,0.0000,0.0000,0.0000,0.0000,0
16638,0.0301,-0.1910,0.3144,-0.0014,-0.0112,0.0081,-0.48,-0.05,0.66,0,3.568,0.397,0.941,0.281,0.004,-0.015,1.002,0.000,0.000,0.000,0.3140,-1,0,-1.21,0.43,-0.63,0.0788,-0.0299,0.3148,0.0143,-0.1013,0.3000,0.2610,-7.07,1.13,-19.91,1.0680,0.0000,1.7450,1.0870,2.3900,0,0.0000,0.0000,0.0000,0.0000,0.0000,0
16689,0.0286,-0.1916,0.3145,-0.0044,-0.0073,0.0084,-0.44,-0.02,0.69,0,3.563,2.809,-0.225,-0.762,0.002,-0.012,1.007,0.000,0.000,0.000,0.3140,-1,0,-1.22,0.41,-0.61,0.0765,-0.0262,0.3149,0.0143,-0.1013,0.3000,0.2610,-6.93,0.88,-20.85,1.0680,0.0000,1.7450,1.0780,2.3900,0,0.0000,0.0000,0.0000,0.0000,0.0000,0
16739,0.0287,-0.1907,0.3146,-0.0036,-0.0012,0.0096,-0.38,0.03,0.67,0,3.568,3.442,2.248,-2.348,0.005,-0.016,1.002,0.000,0.000,0.000,0.3170,0,0,-1.08,0.42,-0.65,0.0765,-0.0249,0.3151,0.0143,-0.1013,0.3000,0.2608,-6.59,0.93,-20.06,1.0700,0.0000,1.7450,1.0780,2.3890,0,0.0000,0.0000,0.0000,0.0000,0.0000,0
16791,0.0253,-0.1889,0.3160,-0.0106,0.0056,0.0149,-0.28,-0.00,0.57,0,3.568,2.435,1.683,-2.746,-0.000,-0.018,0.999,0.000,0.000,0.000,0.3120,0,1,-0.91,0.31,-0.77,0.0764,-0.0239,0.3162,0.0143,-0.1013,0.3000,0.2600,-6.16,0.36,-17.11,1.0700,0.0000,1.7450,1.0850,2.3890,0,0.0000,0.0000,0.0000,0.0000,0.0000,0
16842,0.0243,-0.1859,0.3148,-0.0116,0.0136,0.0055,-0.17,-0.10,0.42,0,3.563,4.238,3.807,-3.605,0.008,-0.020,1.000,0.000,0.000,0.000,0.3190,-2,-1,-0.77,0.24,-0.91,0.0745,-0.0241,0.3154,0.0143,-0.1013,0.3000,0.2613,-5.55,0.23,-12.53,1.0710,0.0000,1.7450,1.0850,2.3900,0,0.0000,0.0000,0.0000,0.0000,0.0000,0
16893,0.0199,-0.1866,0.3168,-0.0186,0.0114,0.0140,0.04,-0.23,0.23,0,3.563,-0.308,-1.561,-3.418,0.005,-0.019,1.000,0.000,0.000,0.000,0.3200,0,0,-0.57,0.03,-1.11,0.0754,-0.0215,0.3170,0.0143,-0.1013,0.3000,0.2600,-5.73,-0.41,-6.87,1.0710,0.0000,1.7490,1.0840,2.3900,0,0.0000,0.0000,0.0000,0.0000,0.0000,0
16944,0.0185,-0.1820,0.3187,-0.0179,0.0193,0.0200,0.05,-0.21,0.03,0,3.568,-12.586,0.426,-4.312,0.007,-0.022,0.991,0.000,0.000,0.000,0.3130,2,0,-0.59,0.11,-1.28,0.0753,-0.0206,0.3184,0.0143,-0.1013,0.3000,0.2590,-5.06,-0.48,-0.79,1.0810,0.0000,1.7490,1.0840,2.3820,0,0.0000,0.0000,0.0000,0.0000,0.0000,0
16995,0.0181,-0.1816,0.3167,-0.0160,0.0184,0.0030,-0.51,-0.23,-0.17,0,3.563,-29.959,-1.123,-3.446,0.003,-0.021,0.997,0.000,0.000,0.000,0.3210,4,0,-1.18,0.10,-1.47,0.0751,-0.0260,0.3173,0.0143,-0.1013,0.3000,0.2612,-5.03,-0.41,5.24,1.0810,0.0000,1.7350,1.0800,2.3820,0,0.0000,0.0000,0.0000,0.0000,0.0000,0
17046,0.0168,-0.1831,0.3186,-0.0152,0.0180,0.0088,-1.92,-0.15,-0.36,0,3.568,-10.720,-0.056,-3.834,0.005,-0.016,0.998,0.000,0.000,0.000,0.3170,3,1,-2.66,0.16,-1.62,0.0748,-0.0324,0.3187,0.0143,-0.1013,0.3000,0.2602,-5.17,-0.46,10.88,1.0810,0.0000,1.7350,1.0800,2.3860,0,0.0000,0.0000,0.0000,0.0000,0.0000,0
17096,0.0176,-0.1830,0.3182,-0.0107,0.0318,0.0038,-2.60,-0.09,-0.54,0,3.563,-0.451,0.935,-4.442,0.000,-0.016,0.997,0.000,0.000,0.000,0.3170,0,0,-3.17,0.19,-1.80,0.0729,-0.0382,0.3185,0.0143,-0.1013,0.3000,0.2608,-4.51,-0.19,16.10,1.0810,0.0000,1.6670,1.0810,2.3860,0,0.0000,0.0000,0.0000,0.0000,0.0000,0
17147,0.0165,-0.1827,0.3178,-0.0110,0.0504,-0.0004,-2.68,-0.06,-0.73,0,3.563,-0.378,0.913,-3.400,-0.002,-0.018,1.000,0.000,0.000,0.000,0.3190,0,0,-3.19,0.15,-2.02,0.0724,-0.0399,0.3182,0.0143,-0.1013,0.3000,0.2613,-3.60,-0.29,21.96,1.0870,0.0000,1.6670,1.0810,2.3840,0,0.0000,0.0000,0.0000,0.0000,0.0000,0
17199,0.0142,-0.1795,0.3182,-0.0139,0.0736,0.0012,-2.71,-0.02,-0.90,0,3.563,4.217,-0.623,-2.198,0.005,-0.016,1.002,0.000,0.000,0.000,0.3190,-1,1,-3.21,0.12,-2.20,0.0719,-0.0407,0.3186,0.0143,-0.1013,0.3000,0.2611,-2.28,-0.59,27.04,1.0870,0.0000,1.6140,1.0910,2.3840,0,0.0000,0.0000,0.0000,0.0000,0.0000,0
17250,0.0146,-0.1725,0.3186,-0.0111,0.1026,0.0025,-2.56,-0.06,-1.02,0,3.568,12.606,2.623,-1.929,0.005,-0.016,1.000,0.000,0.000,0.000,0.3170,-7,0,-3.01,0.17,-2.36,0.0696,-0.0377,0.3188,0.0143,-0.1013,0.3000,0.2608,-0.41,-0.43,30.57,1.0860,0.0000,1.6140,1.0910,2.3920,0,0.0000,0.0000,0.0000,0.0000,0.0000,0
17301,0.0143,-0.1684,0.3180,-0.0094,0.1209,-0.0021,-1.98,-0.17,-1.12,0,3.563,12.152,-3.016,-0.683,0.005,-0.017,0.997,0.000,0.000,0.000,0.3180,-2,0,-2.43,0.04,-2.50,0.0697,-0.0272,0.3180,0.0143,-0.1013,0.3000,0.2615,0.75,-0.37,33.47,1.0860,0.0000,1.6120,1.0950,2.3920,0,0.0000,0.0000,0.0000,0.0000,0.0000,0
17351,0.0137,-0.1558,0.3179,-0.0080,0.1507,-0.0027,-1.32,-0.19,-1.18,0,3.563,12.785,-2.450,-1.364,0.002,-0.021,1.000,0.000,0.000,0.000,0.3180,-4,0,-1.82,0.19,-2.52,0.0696,-0.0219,0.3178,0.0143,-0.1013,0.3000,0.2615,3.04,-0.34,35.35,1.0870,0.0000,1.6120,1.0950,2.3840,0,0.0000,0.0000,0.0000,0.0000,0.0000,0
17402,0.0141,-0.1500,0.3179,-0.0049,0.1578,-0.0029,-0.68,-0.14,-1.23,0,3.563,16.635,0.644,-0.702,-0.002,-0.026,0.997,0.000,0.000,0.000,0.3150,-4,0,-1.22,0.31,-2.60,0.0698,-0.0126,0.3175,0.0143,-0.1013,0.3000,0.2616,3.79,-0.17,36.96,1.0870,0.0000,1.6460,1.1080,2.3840,0,0.0000,0.0000,0.0000,0.0000,0.0000,0
17453,0.0140,-0.1427,0.3165,-0.0031,0.1617,-0.0094,0.11,-0.10,-1.27,0,3.558,10.560,0.232,-0.506,0.006,-0.017,0.999,0.000,0.000,0.000,0.3180,-2,0,-0.40,0.28,-2.65,0.0701,-0.0025,0.3162,0.0143,-0.1013,0.3000,0.2625,4.47,-0.09,37.96,1.0880,0.0000,1.6460,1.1080,2.3870,0,0.0000,0.0000,0.0000,0.0000,0.0000,0
17505,0.0139,-0.1351,0.3168,-0.0024,0.1599,-0.0055,0.70,-0.07,-1.28,0,3.558,8.112,-2.324,0.763,-0.001,-0.019,0.999,0.000,0.000,0.000,0.3130,-4,0,0.14,0.26,-2.67,0.0702,0.0041,0.3164,0.0143,-0.1013,0.3000,0.2620,4.93,-0.07,38.27,1.0880,0.0000,1.6790,1.1230,2.3870,0,0.0000,0.0000,0.0000,0.0000,0.0000,0
17556,0.0135,-0.1285,0.3150,-0.0025,0.1511,-0.0131,1.12,0.01,-1.23,0,3.563,9.258,3.295,-0.053,0.005,-0.018,1.004,0.000,0.000,0.000,0.3160,-1,0,0.52,0.38,-2.64,0.0706,0.0150,0.3148,0.0143,-0.1013,0.3000,0.2632,4.96,-0.10,36.96,1.0900,0.0000,1.6790,1.1230,2.3880,0,0.0000,0.0000,0.0000,0.0000,0.0000,0
17606,0.0135,-0.1212,0.3150,-0.0025,0.1412,-0.0082,1.62,-0.14,-1.20,0,3.558,2.787,-0.392,1.058,0.007,-0.015,1.002,0.000,0.000,0.000,0.3140,-2,0,1.01,0.21,-2.64,0.0706,0.0188,0.3149,0.0143,-0.1013,0.3000,0.2627,5.02,-0.10,35.93,1.0900,0.0000,1.6860,1.1320,2.3880,0,0.0000,0.0000,0.0000,0.0000,0.0000,0
17657,0.0127,-0.1149,0.3144,-0.0032,0.1266,-0.0063,1.83,-0.13,-1.17,0,3.558,1.044,-1.418,1.010,0.002,-0.016,1.003,0.000,0.000,0.000,0.3150,0,-1,1.15,0.23,-2.59,0.0709,0.0249,0.3142,0.0143,-0.1013,0.3000,0.2626,4.78,-0.18,35.11,1.0910,0.0000,1.6860,1.1320,2.3860,0,0.0000,0.0000,0.0000,0.0000,0.0000,0
17709,0.0112,-0.1099,0.3145,-0.0057,0.1086,-0.0030,1.94,-0.05,-1.10,0,3.558,1.171,3.921,1.686,-0.002,-0.020,1.000,0.000,0.000,0.000,0.3110,0,2,1.22,0.28,-2.57,0.0737,0.0254,0.3142,0.0143,-0.1013,0.3000,0.2622,4.29,-0.41,33.09,1.0910,0.0000,1.6820,1.1430,2.3860,0,0.0000,0.0000,0.0000,0.0000,0.0000,0
17760,0.0129,-0.1053,0.3129,-0.0009,0.0907,-0.0091,2.01,-0.28,-0.99,0,3.558,-5.097,-0.799,2.622,0.003,-0.016,1.006,0.000,0.000,0.000,0.3110,0,0,1.30,0.12,-2.37,0.0676,0.0259,0.3129,0.0143,-0.1013,0.3000,0.2632,3.77,-0.07,29.75,1.0900,0.0000,1.6820,1.1430,2.3980,0,0.0000,0.0000,0.0000,0.0000,0.0000,0
17810,0.0123,-0.1010,0.3118,0.0000,0.0741,-0.0110,1.76,-0.26,-0.87,0,3.558,-1.009,-1.120,2.646,0.005,-0.013,1.008,0.000,0.000,0.000,0.3130,0,1,1.04,0.16,-2.24,0.0666,0.0270,0.3120,0.0143,-0.1013,0.3000,0.2636,3.28,-0.06,26.12,1.0900,0.0000,1.6890,1.1510,2.3980,0,0.0000,0.0000,0.0000,0.0000,0.0000,0
17862,0.0110,-0.0988,0.3121,-0.0013,0.0560,-0.0037,1.70,-0.22,-0.74,0,3.558,-4.958,-2.441,2.764,0.005,-0.009,1.009,0.000,0.000,0.000,0.3090,0,1,0.99,0.23,-2.07,0.0638,0.0266,0.3122,0.0143,-0.1013,0.3000,0.2627,2.60,-0.22,22.20,1.0990,0.0000,1.6890,1.1510,2.3820,0,0.0000,0.0000,0.0000,0.0000,0.0000,0
17912,0.0102,-0.0969,0.3107,-0.0015,0.0400,-0.0066,1.55,-0.21,-0.60,0,3.558,-5.744,4.050,2.524,0.004,-0.014,1.010,0.000,0.000,0.000,0.3100,0,0,0.73,0.37,-1.89,0.0611,0.0266,0.3112,0.0143,-0.1013,0.3000,0.2633,1.98,-0.28,18.10,1.0990,0.0000,1.6870,1.1540,2.3820,0,0.0000,0.0000,0.0000,0.0000,0.0000,0
17964,0.0067,-0.0960,0.3103,-0.0086,0.0247,-0.0033,1.28,-0.28,-0.45,0,3.552,-6.801,2.631,2.656,-0.003,-0.014,1.007,0.000,0.000,0.000,0.3130,0,0,0.44,0.17,-1.77,0.0595,0.0255,0.3111,0.0143,-0.1013,0.3000,0.2630,1.32,-0.87,13.64,1.1000,0.0000,1.6870,1.1540,2.3940,0,0.0000,0.0000,0.0000,0.0000,0.0000,0
18015,0.0060,-0.0985,0.3114,-0.0073,0.0050,0.0069,0.95,-0.39,-0.33,0,3.558,-4.603,2.042,2.071,0.008,-0.010,1.003,0.000,0.000,0.000,0.3130,0,0,0.09,0.03,-1.63,0.0577,0.0239,0.3120,0.0143,-0.1013,0.3000,0.2617,0.21,-0.86,9.86,1.1000,0.0000,1.6900,1.1440,2.3940,0,0.0000,0.0000,0.0000,0.0000,0.0000,0
18066,0.0048,-0.0999,0.3123,-0.0062,-0.0069,0.0128,0.67,-0.51,-0.21,0,3.558,-8.109,0.899,1.133,0.006,-0.012,1.001,0.000,0.000,0.000,0.3140,0,2,-0.14,-0.07,-1.52,0.0561,0.0220,0.3129,0.0143,-0.1013,0.3000,0.2609,-0.44,-0.89,6.23,1.1010,0.0000,1.6900,1.1440,2.3970,0,0.0000,0.0000,0.0000,0.0000,0.0000,0
18116,0.0036,-0.1022,0.3135,-0.0044,-0.0173,0.0173,0.23,-0.54,-0.13,0,3.558,-5.314,3.076,-0.087,0.003,-0.019,0.998,0.000,0.000,0.000,0.3140,0,0,-0.62,-0.11,-1.47,0.0540,0.0304,0.3139,0.0143,-0.1013,0.3000,0.2602,-1.10,-0.89,4.05,1.1010,0.0000,1.6900,1.1480,2.3970,0,0.0000,0.0000,0.0000,0.0000,0.0000,0
18167,0.0016,-0.1032,0.3142,-0.0044,-0.0196,0.0165,-0.10,-0.62,-0.10,0,3.558,-5.385,4.327,1.416,0.006,-0.011,0.995,0.000,0.000,0.000,0.3140,0,0,-0.88,-0.27,-1.48,0.0526,0.0298,0.3145,0.0143,-0.1013,0.3000,0.2601,-1.29,-1.04,2.94,1.1040,0.0000,1.6900,1.1480,2.3860,0,0.0000,0.0000,0.0000,0.0000,0.0000,0
18218,0.0002,-0.1064,0.3147,-0.0023,-0.0245,0.0135,-0.31,-0.72,-0.05,0,3.558,-3.841,1.641,0.256,0.000,-0.015,0.997,0.000,0.000,0.000,0.3190,1,0,-1.16,-0.49,-1.41,0.0514,0.0294,0.3148,0.0143,-0.1013,0.3000,0.2604,-1.74,-1.04,1.55,1.1040,0.0000,1.6780,1.1500,2.3860,0,0.0000,0.0000,0.0000,0.0000,0.0000,0
18269,-0.0006,-0.1098,0.3169,0.0018,-0.0272,0.0209,-0.56,-0.74,-0.01,0,3.563,-8.370,0.932,0.914,0.009,-0.009,0.995,0.000,0.000,0.000,0.3140,0,-1,-1.34,-0.59,-1.40,0.0527,0.0273,0.3166,0.0143,-0.1013,0.3000,0.2592,-2.12,-0.90,0.24,1.0990,0.0000,1.6780,1.1500,2.3860,0,0.0000,0.0000,0.0000,0.0000,0.0000,0
18321,-0.0013,-0.1130,0.3163,0.0056,-0.0275,0.0102,-0.90,-0.76,0.02,0,3.558,-0.421,-0.283,-0.677,0.001,-0.014,0.996,0.000,0.000,0.000,0.3180,0,0,-1.77,-0.65,-1.36,0.0538,0.0270,0.3162,0.0143,-0.1013,0.3000,0.2604,-2.36,-0.77,-0.49,1.0990,0.0000,1.6730,1.1480,2.3860,0,0.0000,0.0000,0.0000,0.0000,0.0000,0
18371,-0.0002,-0.1132,0.3173,0.0135,-0.0174,0.0102,-1.07,-0.79,0.01,0,3.558,0.548,-1.976,-1.256,-0.000,-0.011,0.995,0.000,0.000,0.000,0.3150,0,-2,-1.79,-0.63,-1.40,0.0545,0.0271,0.3170,0.0143,-0.1013,0.3000,0.2602,-1.89,-0.32,-0.20,1.1000,0.0000,1.6730,1.1480,2.3850,0,0.0000,0.0000,0.0000,0.0000,0.0000,0
18422,0.0006,-0.1138,0.3166,0.0201,-0.0084,0.0021,-1.09,-0.70,-0.02,0,3.558,1.654,-5.582,0.049,0.004,-0.013,0.995,0.000,0.000,0.000,0.3160,-1,-1,-1.75,-0.56,-1.42,0.0586,0.0267,0.3165,0.0143,-0.1013,0.3000,0.2612,-1.50,0.05,0.65,1.1000,0.0000,1.6620,1.1440,2.3850,0,0.0000,0.0000,0.0000,0.0000,0.0000,0
18474,0.0046,-0.1141,0.3164,0.0325,0.0006,-0.0021,-1.07,-0.47,-0.05,0,3.558,2.108,-3.952,-0.491,0.005,-0.015,0.999,0.000,0.000,0.000,0.3200,-1,-1,-1.68,-0.28,-1.43,0.0614,0.0285,0.3162,0.0143,-0.1013,0.3000,0.2617,-1.10,0.92,1.45,1.1030,0.0000,1.6620,1.1440,2.3880,0,0.0000,0.0000,0.0000,0.0000,0.0000,0
18525,0.0055,-0.1132,0.3178,0.0347,0.0109,0.0043,-0.95,-0.21,-0.07,0,3.558,4.157,-6.508,-0.518,0.002,-0.016,0.997,0.000,0.000,0.000,0.3160,-2,-1,-1.58,-0.08,-1.46,0.0644,0.0308,0.3173,0.0143,-0.1013,0.3000,0.2608,-0.55,1.10,2.03,1.1030,0.0000,1.6600,1.1440,2.3880,0,0.0000,0.0000,0.0000,0.0000,0.0000,0
18575,0.0093,-0.1106,0.3171,0.0411,0.0232,-0.0008,-0.75,0.06,-0.08,0,3.558,4.458,-1.375,0.213,0.001,-0.018,0.998,0.000,0.000,0.000,0.3140,-2,0,-1.39,0.25,-1.51,0.0675,0.0351,0.3167,0.0143,-0.1013,0.3000,0.2614,0.22,1.66,2.32,1.0980,0.0000,1.6600,1.1440,2.3880,0,0.0000,0.0000,0.0000,0.0000,0.0000,0
18627,0.0098,-0.1097,0.3158,0.0373,0.0284,-0.0090,-0.46,0.22,-0.10,0,3.552,5.504,-2.938,-1.524,0.003,-0.021,1.000,0.000,0.000,0.000,0.3170,-4,0,-1.18,0.34,-1.54,0.0688,0.0402,0.3157,0.0143,-0.1013,0.3000,0.2626,0.53,1.52,2.96,1.0980,0.0000,1.6690,1.1520,2.3880,0,0.0000,0.0000,0.0000,0.0000,0.0000,0
18678,0.0108,-0.1081,0.3160,0.0334,0.0323,-0.0065,-0.24,0.36,-0.13,0,3.552,4.044,-3.292,-0.612,0.004,-0.014,1.004,0.000,0.000,0.000,0.3160,0,0,-0.95,0.50,-1.68,0.0699,0.0501,0.3156,0.0143,-0.1013,0.3000,0.2623,0.83,1.40,4.00,1.1060,0.0000,1.6690,1.1520,2.3930,0,0.0000,0.0000,0.0000,0.0000,0.0000,0
18729,0.0122,-0.1019,0.3158,0.0296,0.0438,-0.0057,-0.00,0.55,-0.18,0,3.552,7.166,0.561,-0.769,-0.002,-0.012,0.999,0.000,0.000,0.000,0.3140,0,0,-0.74,0.67,-1.71,0.0717,0.0550,0.3155,0.0143,-0.1013,0.3000,0.2622,1.81,1.32,5.43,1.1060,0.0000,1.6710,1.1520,2.3930,0,0.0000,0.0000,0.0000,0.0000,0.0000,0
18780,0.0141,-0.0987,0.3149,0.0260,0.0457,-0.0091,0.35,0.57,-0.24,0,3.558,6.411,-0.079,-0.484,0.002,-0.016,1.003,0.000,0.000,0.000,0.3170,-1,0,-0.37,0.64,-1.75,0.0733,0.0598,0.3148,0.0143,-0.1013,0.3000,0.2628,2.12,1.29,7.19,1.1010,0.0000,1.6710,1.1520,2.3910,0,0.0000,0.0000,0.0000,0.0000,0.0000,0
18831,0.0132,-0.0948,0.3155,0.0165,0.0459,-0.0036,0.70,0.58,-0.27,0,3.552,3.942,1.492,-0.570,0.007,-0.016,1.002,0.000,0.000,0.000,0.3130,0,0,0.04,0.67,-1.76,0.0699,0.0512,0.3158,0.0143,-0.1013,0.3000,0.2621,2.41,0.78,8.12,1.1010,0.0000,1.6750,1.1520,2.3910,0,0.0000,0.0000,0.0000,0.0000,0.0000,0
18882,0.0127,-0.0926,0.3143,0.0087,0.0396,-0.0081,0.91,0.52,-0.30,0,3.552,5.087,4.384,0.293,0.001,-0.014,1.000,0.000,0.000,0.000,0.3110,-1,0,0.24,0.60,-1.79,0.0702,0.0528,0.3149,0.0143,-0.1013,0.3000,0.2628,2.26,0.37,9.00,1.0960,0.0000,1.6750,1.1520,2.3920,0,0.0000,0.0000,0.0000,0.0000,0.0000,0
18933,0.0139,-0.0915,0.3127,0.0066,0.0301,-0.0144,1.16,0.32,-0.29,0,3.547,0.118,2.834,0.508,0.001,-0.013,1.005,0.000,0.000,0.000,0.3110,0,1,0.49,0.37,-1.77,0.0702,0.0546,0.3136,0.0143,-0.1013,0.3000,0.2638,1.89,0.36,8.80,1.0960,0.0000,1.6790,1.1590,2.3920,0,0.0000,0.0000,0.0000,0.0000,0.0000,0
18983,0.0126,-0.0914,0.3116,0.0005,0.0172,-0.0150,1.25,0.17,-0.28,0,3.547,-4.385,0.992,0.954,0.003,-0.014,1.009,0.000,0.000,0.000,0.3120,1,0,0.50,0.24,-1.73,0.0685,0.0550,0.3126,0.0143,-0.1013,0.3000,0.2640,1.29,-0.02,8.37,1.0930,0.0000,1.6790,1.1590,2.3910,0,0.0000,0.0000,0.0000,0.0000,0.0000,0
19035,0.0101,-0.0921,0.3113,-0.0067,0.0034,-0.0102,1.12,0.09,-0.25,0,3.547,-3.440,2.557,0.794,0.000,-0.013,1.008,0.000,0.000,0.000,0.3130,1,0,0.30,0.19,-1.69,0.0683,0.0533,0.3124,0.0143,-0.1013,0.3000,0.2636,0.59,-0.54,7.42,1.0930,0.0000,1.6810,1.1670,2.3910,0,0.0000,0.0000,0.0000,0.0000,0.0000,0
19086,0.0095,-0.0924,0.3118,-0.0079,-0.0063,-0.0017,0.95,-0.03,-0.20,0,3.552,-5.241,6.032,-0.261,0.007,-0.012,1.006,0.000,0.000,0.000,0.3110,3,2,0.13,0.05,-1.65,0.0680,0.0510,0.3127,0.0143,-0.1013,0.3000,0.2625,0.12,-0.64,6.11,1.0970,0.0000,1.6810,1.1670,2.3970,0,0.0000,0.0000,0.0000,0.0000,0.0000,0
19137,0.0090,-0.0928,0.3115,-0.0074,-0.0136,0.0005,0.69,-0.29,-0.19,0,3.552,-3.740,1.953,-0.725,0.000,-0.009,1.006,0.000,0.000,0.000,0.3080,1,0,-0.10,-0.22,-1.59,0.0632,0.0444,0.3123,0.0143,-0.1013,0.3000,0.2624,-0.25,-0.65,5.65,1.0970,0.0000,1.6800,1.1630,2.3970,0,0.0000,0.0000,0.0000,0.0000,0.0000,0
19189,0.0060,-0.0964,0.3100,-0.0107,-0.0253,-0.0037,0.47,-0.44,-0.21,0,3.552,-6.324,1.552,-1.841,0.003,-0.014,1.006,0.000,0.000,0.000,0.3090,1,1,-0.29,-0.33,-1.64,0.0628,0.0412,0.3114,0.0143,-0.1013,0.3000,0.2631,-1.06,-1.02,6.44,1.0980,0.0000,1.6800,1.1630,2.3900,0,0.0000,0.0000,0.0000,0.0000,0.0000,0
19239,0.0045,-0.0980,0.3095,-0.0093,-0.0297,-0.0024,0.18,-0.49,-0.27,0,3.547,-6.291,2.369,-0.029,0.002,-0.012,1.006,0.000,0.000,0.000,0.3120,0,0,-0.62,-0.39,-1.71,0.0600,0.0384,0.3110,0.0143,-0.1013,0.3000,0.2630,-1.38,-1.05,8.22,1.0980,0.0000,1.6790,1.1510,2.3900,0,0.0000,0.0000,0.0000,0.0000,0.0000,0
19291,0.0038,-0.1025,0.3106,-0.0056,-0.0375,0.0062,-0.12,-0.62,-0.30,0,3.547,-5.431,-0.395,0.222,0.002,-0.007,1.007,0.000,0.000,0.000,0.3120,1,-1,-0.93,-0.51,-1.71,0.0590,0.0352,0.3117,0.0143,-0.1013,0.3000,0.2619,-2.07,-0.93,8.87,1.0980,0.0000,1.6790,1.1510,2.3900,0,0.0000,0.0000,0.0000,0.0000,0.0000,0
19342,0.0023,-0.1059,0.3114,-0.0035,-0.0397,0.0115,-0.37,-0.66,-0.29,0,3.547,-8.130,0.340,0.651,-0.001,-0.014,1.003,0.000,0.000,0.000,0.3090,1,0,-1.24,-0.53,-1.78,0.0641,0.0354,0.3125,0.0143,-0.1013,0.3000,0.2612,-2.42,-0.95,8.64,1.0980,0.0000,1.6680,1.1450,2.3900,0,0.0000,0.0000,0.0000,0.0000,0.0000,0
19392,0.0028,-0.1075,0.3107,0.0031,-0.0355,0.0061,-0.77,-0.62,-0.26,0,3.552,-3.933,-0.155,0.659,0.004,-0.010,1.000,0.000,0.000,0.000,0.3110,2,0,-1.64,-0.54,-1.74,0.0642,0.0327,0.3121,0.0143,-0.1013,0.3000,0.2619,-2.33,-0.60,7.83,1.0940,0.0000,1.6680,1.1450,2.3870,0,0.0000,0.0000,0.0000,0.0000,0.0000,0
19443,0.0035,-0.1106,0.3111,0.0097,-0.0317,0.0072,-1.02,-0.62,-0.23,0,3.547,-3.655,-1.549,1.088,-0.001,-0.009,1.006,0.000,0.000,0.000,0.3100,0,0,-1.82,-0.53,-1.67,0.0643,0.0278,0.3124,0.0143,-0.1013,0.3000,0.2617,-2.38,-0.23,6.90,1.0940,0.0000,1.6610,1.1530,2.3870,0,0.0000,0.0000,0.0000,0.0000,0.0000,0
19495,0.0051,-0.1134,0.3109,0.0173,-0.0258,0.0056,-1.19,-0.58,-0.20,0,3.547,-3.220,-1.146,0.692,-0.002,-0.017,1.005,0.000,0.000,0.000,0.3120,-1,0,-2.00,-0.45,-1.62,0.0652,0.0259,0.3123,0.0143,-0.1013,0.3000,0.2619,-2.29,0.24,5.94,1.0950,0.0000,1.6610,1.1530,2.3900,0,0.0000,0.0000,0.0000,0.0000,0.0000,0
19546,0.0070,-0.1152,0.3116,0.0246,-0.0173,0.0087,-1.35,-0.53,-0.16,0,3.547,-0.804,-4.358,1.447,0.002,-0.009,1.007,0.000,0.000,0.000,0.3100,0,0,-2.22,-0.38,-1.66,0.0640,0.0317,0.3129,0.0143,-0.1013,0.3000,0.2615,-2.02,0.72,4.71,1.0950,0.0000,1.6520,1.1440,2.3900,0,0.0000,0.0000,0.0000,0.0000,0.0000,0
19598,0.0084,-0.1149,0.3112,0.0292,-0.0036,0.0069,-1.40,-0.37,-0.09,0,3.547,3.483,-4.264,0.437,0.001,-0.014,1.001,0.000,0.000,0.000,0.3120,-1,0,-2.26,-0.16,-1.57,0.0648,0.0325,0.3128,0.0143,-0.1013,0.3000,0.2617,-1.35,1.03,2.66,1.0930,0.0000,1.6520,1.1440,2.3880,0,0.0000,0.0000,0.0000,0.0000,0.0000,0
19648,0.0129,-0.1141,0.3118,0.0389,0.0098,0.0101,-1.28,-0.17,-0.04,0,3.547,2.811,-6.968,0.183,0.000,-0.017,1.006,0.000,0.000,0.000,0.3150,0,-1,-2.08,0.08,-1.57,0.0639,0.0341,0.3133,0.0143,-0.1013,0.3000,0.2613,-0.66,1.81,1.30,1.0930,0.0000,1.6570,1.1500,2.3880,0,0.0000,0.0000,0.0000,0.0000,0.0000,0
19700,0.0155,-0.1129,0.3136,0.0418,0.0214,0.0184,-1.10,0.09,-0.04,0,3.552,6.535,-7.021,-0.292,-0.003,-0.017,1.000,0.000,0.000,0.000,0.3160,-1,0,-1.93,0.41,-1.52,0.0658,0.0351,0.3148,0.0143,-0.1013,0.3000,0.2600,-0.03,2.15,1.09,1.0940,0.0000,1.6570,1.1500,2.3950,0,0.0000,0.0000,0.0000,0.0000,0.0000,0
19751,0.0157,-0.1116,0.3152,0.0360,0.0306,0.0218,-0.86,0.49,-0.06,0,3.552,6.227,-2.036,-0.388,-0.002,-0.015,0.996,0.000,0.000,0.000,0.3160,-1,-1,-1.60,0.78,-1.53,0.0661,0.0379,0.3161,0.0143,-0.1013,0.3000,0.2594,0.51,1.89,1.65,1.0940,0.0000,1.6590,1.1520,2.3950,0,0.0000,0.0000,0.0000,0.0000,0.0000,0
19802,0.0179,-0.1091,0.3163,0.0324,0.0393,0.0202,-0.56,0.67,-0.06,0,3.552,7.248,-0.932,0.002,0.004,-0.009,0.991,0.000,0.000,0.000,0.3150,-3,-2,-1.28,0.87,-1.51,0.0683,0.0409,0.3170,0.0143,-0.1013,0.3000,0.2593,1.10,1.88,1.92,1.0940,0.0000,1.6590,1.1520,2.3810,0,0.0000,0.0000,0.0000,0.0000,0.0000,0
19853,0.0176,-0.1060,0.3163,0.0224,0.0457,0.0114,-0.24,0.72,-0.06,0,3.552,6.968,1.418,-1.104,-0.001,-0.014,0.993,0.000,0.000,0.000,0.3160,0,0,-0.95,0.89,-1.45,0.0730,0.0487,0.3169,0.0143,-0.1013,0.3000,0.2603,1.62,1.38,1.94,1.0940,0.0000,1.6620,1.1510,2.3810,0,0.0000,0.0000,0.0000,0.0000,0.0000,0
19904,0.0184,-0.1017,0.3165,0.0156,0.0516,0.0062,0.17,0.74,-0.11,0,3.552,7.890,1.904,-1.928,0.002,-0.013,0.994,0.000,0.000,0.000,0.3130,-2,0,-0.59,0.81,-1.51,0.0739,0.0528,0.3170,0.0143,-0.1013,0.3000,0.2608,2.20,1.11,3.36,1.0960,0.0000,1.6620,1.1510,2.3820,0,0.0000,0.0000,0.0000,0.0000,0.0000,0
19956,0.0188,-0.0964,0.3151,0.0090,0.0561,-0.0059,0.48,0.69,-0.18,0,3.547,6.657,2.206,-0.292,0.003,-0.011,0.999,0.000,0.000,0.000,0.3140,-1,0,-0.17,0.73,-1.62,0.0734,0.0545,0.3160,0.0143,-0.1013,0.3000,0.2624,2.78,0.82,5.35,1.0960,0.0000,1.6810,1.1530,2.3820,0,0.0000,0.0000,0.0000,0.0000,0.0000,0
20007,0.0177,-0.0941,0.3144,-0.0001,0.0505,-0.0096,0.81,0.59,-0.21,0,3.547,6.295,3.705,-0.701,0.004,-0.011,0.999,0.000,0.000,0.000,0.3130,0,0,0.18,0.61,-1.64,0.0734,0.0577,0.3153,0.0143,-0.1013,0.3000,0.2629,2.67,0.31,6.26,1.0950,0.0000,1.6810,1.1530,2.3930,0,0.0000,0.0000,0.0000,0.0000,0.0000,0
20057,0.0166,-0.0922,0.3134,-0.0071,0.0421,-0.0129,1.13,0.42,-0.23,0,3.542,0.471,4.156,-0.494,-0.001,-0.017,1.001,0.000,0.000,0.000,0.3110,1,0,0.50,0.42,-1.68,0.0733,0.0606,0.3145,0.0143,-0.1013,0.3000,0.2634,2.41,-0.10,7.03,1.0950,0.0000,1.6870,1.1620,2.3930,0,0.0000,0.0000,0.0000,0.0000,0.0000,0
20109,0.0138,-0.0900,0.3119,-0.0159,0.0328,-0.0183,1.21,0.25,-0.27,0,3.547,-0.947,4.459,-0.075,0.002,-0.009,1.006,0.000,0.000,0.000,0.3140,0,0,0.58,0.21,-1.75,0.0739,0.0539,0.3132,0.0143,-0.1013,0.3000,0.2643,2.11,-0.70,8.00,1.0920,0.0000,1.6870,1.1620,2.3880,0,0.0000,0.0000,0.0000,0.0000,0.0000,0
20160,0.0143,-0.0906,0.3123,-0.0147,0.0183,-0.0107,1.16,0.01,-0.27,0,3.542,-1.928,3.451,-0.214,0.003,-0.008,1.007,0.000,0.000,0.000,0.3130,0,0,0.53,-0.03,-1.75,0.0736,0.0540,0.3132,0.0143,-0.1013,0.3000,0.2634,1.40,-0.62,8.21,1.0920,0.0000,1.6890,1.1630,2.3880,0,0.0000,0.0000,0.0000,0.0000,0.0000,0
20211,0.0124,-0.0885,0.3123,-0.0172,0.0117,-0.0049,1.07,-0.17,-0.27,0,3.547,-2.266,3.110,-0.749,0.004,-0.014,1.004,0.000,0.000,0.000,0.3130,0,1,0.43,-0.20,-1.76,0.0734,0.0536,0.3132,0.0143,-0.1013,0.3000,0.2628,1.24,-0.87,8.12,1.0960,0.0000,1.6890,1.1630,2.3920,0,0.0000,0.0000,0.0000,0.0000,0.0000,0
20262,0.0117,-0.0906,0.3125,-0.0153,-0.0031,-0.0003,0.94,-0.34,-0.31,0,3.542,-2.286,1.447,-1.057,0.006,-0.008,1.004,0.000,0.000,0.000,0.3100,0,0,0.30,-0.34,-1.74,0.0697,0.0560,0.3133,0.0143,-0.1013,0.3000,0.2622,0.40,-0.83,9.30,1.0960,0.0000,1.6860,1.1550,2.3920,0,0.0000,0.0000,0.0000,0.0000,0.0000,0
20313,0.0091,-0.0925,0.3114,-0.0166,-0.0147,-0.0038,0.84,-0.42,-0.36,0,3.547,-6.950,0.765,-0.762,-0.002,-0.010,0.999,0.000,0.000,0.000,0.3150,1,0,0.18,-0.41,-1.80,0.0693,0.0554,0.3125,0.0143,-0.1013,0.3000,0.2628,-0.29,-1.07,10.81,1.0900,0.0000,1.6860,1.1550,2.3870,0,0.0000,0.0000,0.0000,0.0000,0.0000,0
20364,0.0082,-0.0985,0.3129,-0.0134,-0.0334,0.0047,0.61,-0.46,-0.41,0,3.542,-8.826,0.999,0.279,0.001,-0.013,0.997,0.000,0.000,0.000,0.3130,3,0,-0.17,-0.45,-1.84,0.0694,0.0535,0.3133,0.0143,-0.1013,0.3000,0.2616,-1.60,-0.99,12.23,1.0900,0.0000,1.6820,1.1530,2.3870,0,0.0000,0.0000,0.0000,0.0000,0.0000,0
20415,0.0075,-0.1015,0.3131,-0.0097,-0.0407,0.0046,0.24,-0.48,-0.40,0,3.547,-10.079,-1.936,0.487,-0.001,-0.009,0.996,0.000,0.000,0.000,0.3090,2,0,-0.58,-0.50,-1.80,0.0692,0.0484,0.3132,0.0143,-0.1013,0.3000,0.2616,-2.16,-0.87,12.03,1.0950,0.0000,1.6820,1.1530,2.3900,0,0.0000,0.0000,0.0000,0.0000,0.0000,0
20466,0.0063,-0.1070,0.3114,-0.0076,-0.0495,-0.0062,-0.20,-0.40,-0.38,0,3.542,-12.235,-0.297,1.496,-0.001,-0.014,0.998,0.000,0.000,0.000,0.3120,2,0,-1.08,-0.40,-1.75,0.0690,0.0440,0.3118,0.0143,-0.1013,0.3000,0.2631,-2.94,-0.84,11.54,1.0950,0.0000,1.6700,1.1530,2.3900,0,0.0000,0.0000,0.0000,0.0000,0.0000,0
20516,0.0068,-0.1093,0.3115,-0.0026,-0.0466,-0.0050,-0.74,-0.35,-0.34,0,3.547,-4.345,1.065,1.067,0.003,-0.005,1.001,0.000,0.000,0.000,0.3110,1,0,-1.69,-0.39,-1.65,0.0690,0.0393,0.3116,0.0143,-0.1013,0.3000,0.2629,-2.97,-0.58,10.14,1.0930,0.0000,1.6700,1.1530,2.3970,0,0.0000,0.0000,0.0000,0.0000,0.0000,0
20568,0.0069,-0.1144,0.3111,0.0009,-0.0462,-0.0058,-1.04,-0.39,-0.28,0,3.542,-2.459,0.661,0.683,0.003,-0.013,1.000,0.000,0.000,0.000,0.3100,1,0,-1.90,-0.44,-1.59,0.0691,0.0362,0.3111,0.0143,-0.1013,0.3000,0.2631,-3.31,-0.40,8.36,1.0930,0.0000,1.6550,1.1440,2.3970,0,0.0000,0.0000,0.0000,0.0000,0.0000,0
20619,0.0071,-0.1183,0.3104,0.0045,-0.0412,-0.0076,-1.17,-0.38,-0.23,0,3.547,-3.021,-2.007,0.716,0.001,-0.014,0.997,0.000,0.000,0.000,0.3120,1,0,-2.02,-0.47,-1.55,0.0691,0.0334,0.3105,0.0143,-0.1013,0.3000,0.2634,-3.35,-0.22,6.89,1.0870,0.0000,1.6550,1.1440,2.3940,0,0.0000,0.0000,0.0000,0.0000,0.0000,0
20670,0.0068,-0.1225,0.3109,0.0063,-0.0364,-0.0044,-1.30,-0.32,-0.18,0,3.542,-4.223,-2.513,0.197,-0.003,-0.011,1.000,0.000,0.000,0.000,0.3080,1,-1,-2.17,-0.37,-1.50,0.0692,0.0306,0.3105,0.0143,-0.1013,0.3000,0.2630,-3.42,-0.16,5.36,1.0870,0.0000,1.6590,1.1400,2.3940,0,0.0000,0.0000,0.0000,0.0000,0.0000,0
20720,0.0080,-0.1247,0.3094,0.0108,-0.0263,-0.0106,-1.48,-0.23,-0.13,0,3.542,-2.292,-0.623,-0.023,0.003,-0.015,1.003,0.000,0.000,0.000,0.3080,0,1,-2.37,-0.25,-1.46,0.0717,0.0278,0.3094,0.0143,-0.1013,0.3000,0.2639,-3.09,0.13,3.98,1.0820,0.0000,1.6590,1.1400,2.3970,0,0.0000,0.0000,0.0000,0.0000,0.0000,0
20772,0.0096,-0.1257,0.3084,0.0152,-0.0133,-0.0135,-1.63,-0.19,-0.14,0,3.542,1.162,-1.501,-0.402,0.001,-0.013,1.005,0.000,0.000,0.000,0.3090,0,0,-2.50,-0.19,-1.51,0.0695,0.0276,0.3085,0.0143,-0.1013,0.3000,0.2644,-2.55,0.45,4.14,1.0820,0.0000,1.6500,1.1390,2.3970,0,0.0000,0.0000,0.0000,0.0000,0.0000,0
20823,0.0110,-0.1264,0.3083,0.0183,-0.0002,-0.0101,-1.61,-0.15,-0.16,0,3.542,3.049,-2.564,0.518,0.000,-0.010,1.007,0.000,0.000,0.000,0.3080,-1,0,-2.43,-0.12,-1.52,0.0702,0.0275,0.3083,0.0143,-0.1013,0.3000,0.2641,-1.99,0.70,4.82,1.0900,0.0000,1.6500,1.1390,2.3930,0,0.0000,0.0000,0.0000,0.0000,0.0000,0
20874,0.0141,-0.1253,0.3078,0.0244,0.0152,-0.0080,-1.48,-0.03,-0.16,0,3.542,3.607,-4.727,-0.565,-0.004,-0.016,1.000,0.000,0.000,0.000,0.3060,-1,-1,-2.29,0.03,-1.53,0.0691,0.0302,0.3080,0.0143,-0.1013,0.3000,0.2640,-1.20,1.20,4.74,1.0900,0.0000,1.6400,1.1440,2.3930,0,0.0000,0.0000,0.0000,0.0000,0.0000,0
20924,0.0169,-0.1237,0.3068,0.0281,0.0287,-0.0100,-1.32,0.20,-0.17,0,3.542,6.890,-4.251,-0.314,0.002,-0.011,1.004,0.000,0.000,0.000,0.3020,0,0,-2.11,0.26,-1.53,0.0714,0.0328,0.3072,0.0143,-0.1013,0.3000,0.2644,-0.45,1.57,5.05,1.0880,0.0000,1.6400,1.1440,2.3930,0,0.0000,0.0000,0.0000,0.0000,0.0000,0
20976,0.0205,-0.1196,0.3044,0.0312,0.0451,-0.0179,-1.01,0.41,-0.19,0,3.537,9.912,-3.130,-0.450,0.003,-0.015,1.005,0.000,0.000,0.000,0.3040,-3,-1,-1.77,0.47,-1.53,0.0720,0.0354,0.3053,0.0143,-0.1013,0.3000,0.2657,0.61,1.96,5.74,1.0880,0.0000,1.6500,1.1420,2.3930,0,0.0000,0.0000,0.0000,0.0000,0.0000,0
