time_ms,pos_x,pos_y,pos_z,vel_x,vel_y,vel_z,roll,pitch,yaw,thrust,vbat,gyro_x,gyro_y,gyro_z,acc_x,acc_y,acc_z,rate_roll,rate_pitch,rate_yaw,range_z,flow_dx,flow_dy,mekf_roll,mekf_pitch,mekf_yaw,mekf_x,mekf_y,mekf_z,our_ref_x,our_ref_y,our_ref_z,our_thrust,our_roll_cmd,our_pitch_cmd,our_yaw_rate_cmd,multi_front,multi_back,multi_left,multi_right,multi_up,ai_feat_count,vo_x,vo_y,vo_sigma,pg_x,pg_y,lc_count
0,14.3123,-9.0857,0.0144,1.8354,-1.0444,-0.0020,-0.48,0.27,0.07,0,3.896,0.035,-0.141,-0.227,0.017,-0.013,1.001,0.000,0.000,0.000,0.0130,0,0,0.00,0.00,0.00,0.0000,0.0000,0.0000,0.0000,0.0000,0.0000,0.0000,0.00,0.00,0.00,1.1550,0.6370,1.5390,1.0190,2.7140,0,0.0000,0.0000,0.0000,0.0000,0.0000,0
101,14.6374,-9.3297,0.0137,1.8771,-1.0761,-0.0038,-0.46,0.25,0.07,0,3.885,0.084,0.265,-0.190,0.015,-0.014,1.001,0.000,0.000,0.000,0.0120,0,0,0.00,0.00,0.00,0.0000,0.0000,0.0000,0.0000,0.0000,0.0000,0.0000,0.00,0.00,0.00,1.1550,0.6370,1.5410,1.0160,2.7140,0,0.0000,0.0000,0.0000,0.0000,0.0000,0
202,15.1251,-9.7044,0.0129,1.9430,-1.1274,-0.0066,-0.43,0.22,0.07,0,3.890,-0.200,-0.146,0.127,0.016,-0.013,1.004,0.000,0.000,0.000,0.0160,0,0,0.00,0.00,0.00,0.0000,0.0000,0.0000,0.0000,0.0000,0.0000,0.0000,0.00,0.00,0.00,1.1510,0.6320,1.5410,1.0160,2.7140,0,0.0000,0.0000,0.0000,0.0000,0.0000,0
303,14.1586,-8.8948,0.0140,1.7874,-0.9984,0.0017,-0.50,0.31,0.07,0,3.890,0.114,0.053,0.074,0.013,-0.012,1.001,0.000,0.000,0.000,0.0130,0,0,0.00,0.00,0.00,0.0000,0.0000,0.0000,0.0000,0.0000,0.0000,0.0000,0.00,0.00,0.00,1.1510,0.6320,1.5290,1.0180,2.7140,0,0.0000,0.0000,0.0000,0.0000,0.0000,0
404,14.3874,-9.0582,0.0136,1.8130,-1.0174,-0.0000,-0.49,0.29,0.06,0,3.890,-0.056,-0.195,0.223,0.018,-0.015,1.001,0.000,0.000,0.000,0.0150,0,0,0.00,0.00,0.00,0.0000,0.0000,0.0000,0.0000,0.0000,0.0000,0.0000,0.00,0.00,0.00,1.1560,0.6340,1.5290,1.0180,2.7120,0,0.0000,0.0000,0.0000,0.0000,0.0000,0
505,14.4116,-9.0545,0.0142,1.8087,-1.0116,0.0038,-0.50,0.30,0.07,0,3.885,0.065,-0.021,-0.212,0.016,-0.012,1.000,0.000,0.000,0.000,0.0160,0,0,0.00,0.00,0.00,0.0000,0.0000,0.0000,0.0000,0.0000,0.0000,0.0000,0.00,0.00,0.00,1.1560,0.6340,1.5520,1.0150,2.7120,0,0.0000,0.0000,0.0000,0.0000,0.0000,0
605,14.5422,-9.1333,0.0151,1.8195,-1.0178,0.0082,-0.50,0.30,0.07,0,3.890,-0.096,0.240,-0.097,0.017,-0.013,1.003,0.000,0.000,0.000,0.0190,0,0,0.00,0.00,0.00,0.0000,0.0000,0.0000,0.0000,0.0000,0.0000,0.0000,0.00,0.00,0.00,1.1530,0.6330,1.5520,1.0150,2.7140,0,0.0000,0.0000,0.0000,0.0000,0.0000,0
707,14.7874,-9.2970,0.0171,1.8476,-1.0372,0.0173,-0.50,0.30,0.06,0,3.885,-0.259,0.229,0.171,0.015,-0.011,1.001,0.000,0.000,0.000,0.0150,0,0,0.00,0.00,0.00,0.0000,0.0000,0.0000,0.0000,0.0000,0.0000,0.0000,0.00,0.00,0.00,1.1530,0.6330,0.0000,1.0190,2.7140,0,0.0000,0.0000,0.0000,0.0000,0.0000,0
807,14.7707,-9.2727,0.0167,1.8372,-1.0278,0.0113,-0.49,0.29,0.07,0,3.896,-0.337,-0.082,0.099,0.015,-0.015,1.001,0.000,0.000,0.000,0.0140,0,0,0.00,0.00,0.00,0.0000,0.0000,0.0000,0.0000,0.0000,0.0000,0.0000,0.00,0.00,0.00,1.1590,0.6300,0.0000,1.0190,2.7110,0,0.0000,0.0000,0.0000,0.0000,0.0000,0
909,14.7661,-9.2613,0.0159,1.8284,-1.0206,0.0050,-0.50,0.30,0.07,0,3.885,-0.018,-0.006,0.307,0.015,-0.011,1.001,0.000,0.000,0.000,0.0140,0,0,0.00,0.00,0.00,0.0000,0.0000,0.0000,0.0000,0.0000,0.0000,0.0000,0.00,0.00,0.00,1.1590,0.6300,1.5440,1.0180,2.7110,0,0.0000,0.0000,0.0000,0.0000,0.0000,0
1010,14.7922,-9.2775,0.0152,1.8245,-1.0172,0.0005,-0.49,0.30,0.07,0,3.890,0.107,-0.095,0.188,0.019,-0.015,1.000,0.000,0.000,0.000,0.0190,0,0,0.00,0.00,0.00,0.0000,0.0000,0.0000,0.0000,0.0000,0.0000,0.0000,0.00,0.00,0.00,1.1520,0.6370,1.5440,1.0180,2.7130,0,0.0000,0.0000,0.0000,0.0000,0.0000,0
1111,14.9742,-9.3648,0.0168,1.8435,-1.0252,0.0088,-0.50,0.30,0.07,0,3.885,0.189,-0.136,-0.287,0.018,-0.012,1.003,0.000,0.000,0.000,0.0160,0,0,0.00,0.00,0.00,0.0000,0.0000,0.0000,0.0000,0.0000,0.0000,0.0000,0.00,0.00,0.00,1.1520,0.6370,1.5310,1.0190,2.7130,0,0.0000,0.0000,0.0000,0.0000,0.0000,0
1213,15.0637,-9.4238,0.0167,1.8493,-1.0286,0.0069,-0.49,0.30,0.07,0,3.890,-0.049,-0.019,-0.078,0.016,-0.013,1.000,0.000,0.000,0.000,0.0130,0,0,0.00,0.00,0.00,0.0000,0.0000,0.0000,0.0000,0.0000,0.0000,0.0000,0.00,0.00,0.00,1.1600,0.6320,1.5310,1.0190,2.7180,0,0.0000,0.0000,0.0000,0.0000,0.0000,0
1314,15.2053,-9.5403,0.0154,1.8627,-1.0395,-0.0012,-0.48,0.29,0.07,0,3.885,0.026,-0.249,-0.058,0.016,-0.013,1.002,0.000,0.000,0.000,0.0120,0,0,0.00,0.00,0.00,0.0000,0.0000,0.0000,0.0000,0.0000,0.0000,0.0000,0.00,0.00,0.00,1.1600,0.6320,1.5560,1.0180,2.7180,0,0.0000,0.0000,0.0000,0.0000,0.0000,0
1414,15.5064,-9.7749,0.0139,1.8992,-1.0680,-0.0088,-0.47,0.27,0.06,0,3.890,-0.267,-0.102,0.169,0.015,-0.013,1.003,0.000,0.000,0.000,0.0150,0,0,0.00,0.00,0.00,0.0000,0.0000,0.0000,0.0000,0.0000,0.0000,0.0000,0.00,0.00,0.00,1.1590,0.6220,1.5560,1.0180,2.7150,0,0.0000,0.0000,0.0000,0.0000,0.0000,0
1516,15.4235,-9.6821,0.0141,1.8788,-1.0495,-0.0047,-0.48,0.28,0.06,0,3.885,0.112,0.115,0.170,0.014,-0.014,1.002,0.000,0.000,0.000,0.0150,0,0,0.00,0.00,0.00,0.0000,0.0000,0.0000,0.0000,0.0000,0.0000,0.0000,0.00,0.00,0.00,1.1590,0.6220,1.5210,1.0160,2.7150,0,0.0000,0.0000,0.0000,0.0000,0.0000,0
1567,15.3707,-9.6139,0.0144,1.8626,-1.0343,-0.0011,-0.49,0.29,0.06,0,3.890,0.031,-0.314,0.282,0.017,-0.014,0.998,0.000,0.000,0.000,0.0130,0,0,0.00,0.00,0.00,0.0000,0.0000,0.0000,0.0000,0.0000,0.0000,0.0000,0.00,0.00,0.00,1.1560,0.6320,1.5210,1.0160,2.7160,0,0.0000,0.0000,0.0000,0.0000,0.0000,0
1618,15.5776,-9.7620,0.0138,1.8847,-1.0512,-0.0036,-0.48,0.28,0.06,0,3.885,-0.190,-0.374,0.110,0.015,-0.013,1.003,0.000,0.000,0.000,0.0120,0,0,0.00,0.00,0.00,0.0000,0.0000,0.0000,0.0000,0.0000,0.0000,0.0000,0.00,0.00,0.00,1.1560,0.6320,1.5370,1.0160,2.7160,0,0.0000,0.0000,0.0000,0.0000,0.0000,0
1669,15.8113,-9.9353,0.0129,1.9110,-1.0707,-0.0070,-0.47,0.27,0.06,0,3.890,-0.266,0.018,0.164,0.015,-0.015,1.003,0.000,0.000,0.000,0.0180,0,0,0.00,0.00,0.00,0.0000,0.0000,0.0000,0.0000,0.0000,0.0000,0.0000,0.00,0.00,0.00,1.1560,0.6340,1.5370,1.0160,2.7230,0,0.0000,0.0000,0.0000,0.0000,0.0000,0
1720,15.3290,-9.4951,0.0148,1.8325,-1.0024,0.0057,-0.51,0.32,0.07,0,3.885,0.112,0.190,-0.197,0.018,-0.014,1.003,0.000,0.000,0.000,0.0140,0,0,0.00,0.00,0.00,0.0000,0.0000,0.0000,0.0000,0.0000,0.0000,0.0000,0.00,0.00,0.00,1.1560,0.6340,1.5330,1.0200,2.7230,0,0.0000,0.0000,0.0000,0.0000,0.0000,0
1771,15.3795,-9.5189,0.0147,1.8321,-1.0006,0.0039,-0.51,0.32,0.07,0,3.885,0.140,-0.109,-0.265,0.017,-0.013,1.004,0.000,0.000,0.000,0.0150,0,0,0.00,0.00,0.00,0.0000,0.0000,0.0000,0.0000,0.0000,0.0000,0.0000,0.00,0.00,0.00,1.1580,0.6340,1.5330,1.0200,2.7070,0,0.0000,0.0000,0.0000,0.0000,0.0000,0
1822,15.4871,-9.5805,0.0149,1.8398,-1.0049,0.0049,-0.51,0.32,0.06,0,3.885,0.050,0.228,0.065,0.018,-0.010,1.002,0.000,0.000,0.000,0.0130,0,0,0.00,0.00,0.00,0.0000,0.0000,0.0000,0.0000,0.0000,0.0000,0.0000,0.00,0.00,0.00,1.1580,0.6340,1.5390,1.0200,2.7070,0,0.0000,0.0000,0.0000,0.0000,0.0000,0
1873,15.3172,-9.4381,0.0142,1.8083,-0.9790,0.0005,-0.53,0.33,0.06,0,3.890,-0.012,0.073,0.195,0.015,-0.012,1.001,0.000,0.000,0.000,0.0140,0,0,0.00,0.00,0.00,0.0000,0.0000,0.0000,0.0000,0.0000,0.0000,0.0000,0.00,0.00,0.00,1.1580,0.6240,1.5390,1.0200,2.7160,0,0.0000,0.0000,0.0000,0.0000,0.0000,0
1924,15.3683,-9.4572,0.0142,1.8077,-0.9761,0.0005,-0.53,0.33,0.06,0,3.885,-0.083,-0.070,-0.005,0.016,-0.012,1.002,0.000,0.000,0.000,0.0180,0,0,0.00,0.00,0.00,0.0000,0.0000,0.0000,0.0000,0.0000,0.0000,0.0000,0.00,0.00,0.00,1.1580,0.6240,1.5490,1.0240,2.7160,0,0.0000,0.0000,0.0000,0.0000,0.0000,0
1974,16.0611,-9.9670,0.0159,1.8979,-1.0443,0.0106,-0.50,0.30,0.06,0,3.890,-0.093,-0.014,-0.263,0.019,-0.013,1.001,0.000,0.000,0.000,0.0150,0,0,0.00,0.00,0.00,0.0000,0.0000,0.0000,0.0000,0.0000,0.0000,0.0000,0.00,0.00,0.00,1.1580,0.6360,1.5490,1.0240,2.7130,0,0.0000,0.0000,0.0000,0.0000,0.0000,0
2026,16.1083,-9.9940,0.0159,1.8968,-1.0426,0.0088,-0.50,0.30,0.06,0,3.885,-0.146,0.114,0.280,0.018,-0.011,1.002,0.000,0.000,0.000,0.0160,0,0,0.00,0.00,0.00,0.0000,0.0000,0.0000,0.0000,0.0000,0.0000,0.0000,0.00,0.00,0.00,1.1580,0.6360,1.5560,1.0160,2.7130,0,0.0000,0.0000,0.0000,0.0000,0.0000,0
2077,16.2277,-10.0711,0.0162,1.9061,-1.0481,0.0091,-0.51,0.30,0.06,0,3.890,-0.172,-0.170,-0.066,0.017,-0.012,1.003,0.000,0.000,0.000,0.0130,0,0,0.00,0.00,0.00,0.0000,0.0000,0.0000,0.0000,0.0000,0.0000,0.0000,0.00,0.00,0.00,1.1540,0.6390,1.5560,1.0160,2.7160,0,0.0000,0.0000,0.0000,0.0000,0.0000,0
2128,16.7090,-10.4909,0.0151,1.9672,-1.1025,0.0019,-0.48,0.27,0.06,0,3.885,0.055,-0.139,0.019,0.017,-0.013,1.002,0.000,0.000,0.000,0.0130,0,0,0.00,0.00,0.00,0.0000,0.0000,0.0000,0.0000,0.0000,0.0000,0.0000,0.00,0.00,0.00,1.1540,0.6390,1.5380,1.0160,2.7160,0,0.0000,0.0000,0.0000,0.0000,0.0000,0
2180,17.4100,-11.0946,0.0143,2.0583,-1.1822,-0.0029,-0.44,0.23,0.06,0,3.890,0.077,0.095,-0.069,0.017,-0.013,1.003,0.000,0.000,0.000,0.0160,0,0,0.00,0.00,0.00,0.0000,0.0000,0.0000,0.0000,0.0000,0.0000,0.0000,0.00,0.00,0.00,1.1510,0.6350,1.5380,1.0160,2.7100,0,0.0000,0.0000,0.0000,0.0000,0.0000,0
2231,16.7796,-10.4886,0.0149,1.9607,-1.0909,0.0024,-0.48,0.28,0.07,0,3.880,0.181,-0.104,-0.081,0.016,-0.013,1.004,0.000,0.000,0.000,0.0160,0,0,0.00,0.00,0.00,0.0000,0.0000,0.0000,0.0000,0.0000,0.0000,0.0000,0.00,0.00,0.00,1.1510,0.6350,1.5390,1.0210,2.7100,0,0.0000,0.0000,0.0000,0.0000,0.0000,0
2281,16.5823,-10.2794,0.0155,1.9250,-1.0560,0.0056,-0.50,0.30,0.06,0,3.890,-0.164,-0.036,-0.023,0.016,-0.011,1.001,0.000,0.000,0.000,0.0190,0,0,0.00,0.00,0.00,0.0000,0.0000,0.0000,0.0000,0.0000,0.0000,0.0000,0.00,0.00,0.00,1.1680,0.6340,1.5390,1.0210,2.7120,0,0.0000,0.0000,0.0000,0.0000,0.0000,0
2333,16.0788,-9.8038,0.0172,1.8454,-0.9839,0.0140,-0.54,0.35,0.07,0,3.885,-0.043,0.143,-0.642,0.015,-0.011,1.003,0.000,0.000,0.000,0.0150,0,0,0.00,0.00,0.00,0.0000,0.0000,0.0000,0.0000,0.0000,0.0000,0.0000,0.00,0.00,0.00,1.1680,0.6340,1.5370,1.0140,2.7120,0,0.0000,0.0000,0.0000,0.0000,0.0000,0
2384,15.9065,-9.6225,0.0166,1.8139,-0.9525,0.0081,-0.55,0.36,0.06,0,3.890,-0.174,0.063,0.392,0.015,-0.017,1.001,0.000,0.000,0.000,0.0170,0,0,0.00,0.00,0.00,0.0000,0.0000,0.0000,0.0000,0.0000,0.0000,0.0000,0.00,0.00,0.00,1.1530,0.6250,1.5370,1.0140,2.7120,0,0.0000,0.0000,0.0000,0.0000,0.0000,0
2435,16.0016,-9.6741,0.0171,1.8191,-0.9554,0.0092,-0.56,0.36,0.06,0,3.885,-0.054,-0.137,-0.009,0.014,-0.014,1.003,0.000,0.000,0.000,0.0170,0,0,0.00,0.00,0.00,0.0000,0.0000,0.0000,0.0000,0.0000,0.0000,0.0000,0.00,0.00,0.00,1.1530,0.6250,1.5350,1.0160,2.7120,0,0.0000,0.0000,0.0000,0.0000,0.0000,0
2486,15.9257,-9.5676,0.0173,1.8001,-0.9361,0.0085,-0.57,0.37,0.06,0,3.890,0.035,-0.082,-0.137,0.014,-0.012,1.002,0.000,0.000,0.000,0.0130,0,0,0.00,0.00,0.00,0.0000,0.0000,0.0000,0.0000,0.0000,0.0000,0.0000,0.00,0.00,0.00,1.1540,0.6350,1.5350,1.0160,2.7180,0,0.0000,0.0000,0.0000,0.0000,0.0000,0
2537,14.6111,-8.3033,0.0157,1.6108,-0.7545,-0.0017,-0.65,0.45,0.06,0,3.880,-0.265,-0.039,0.316,0.016,-0.013,1.003,0.000,0.000,0.000,0.0170,0,0,0.00,0.00,0.00,0.0000,0.0000,0.0000,0.0000,0.0000,0.0000,0.0000,0.00,0.00,0.00,1.1540,0.6350,1.5420,1.0160,2.7180,0,0.0000,0.0000,0.0000,0.0000,0.0000,0
2587,15.4724,-9.1217,0.0163,1.7227,-0.8639,0.0032,-0.60,0.40,0.06,0,3.890,-0.110,0.188,-0.130,0.015,-0.013,1.003,0.000,0.000,0.000,0.0160,0,0,0.00,0.00,0.00,0.0000,0.0000,0.0000,0.0000,0.0000,0.0000,0.0000,0.00,0.00,0.00,1.1540,0.6310,1.5420,1.0160,2.7150,0,0.0000,0.0000,0.0000,0.0000,0.0000,0
2639,15.3615,-8.9712,0.0163,1.6999,-0.8382,0.0034,-0.62,0.41,0.07,0,3.885,0.060,0.080,-0.119,0.017,-0.015,1.003,0.000,0.000,0.000,0.0140,0,0,0.00,0.00,0.00,0.0000,0.0000,0.0000,0.0000,0.0000,0.0000,0.0000,0.00,0.00,0.00,1.1540,0.6310,1.5340,1.0180,2.7150,0,0.0000,0.0000,0.0000,0.0000,0.0000,0
2690,14.4801,-8.0713,0.0154,1.5713,-0.7093,-0.0021,-0.68,0.47,0.07,0,3.890,-0.176,-0.092,-0.023,0.017,-0.014,1.002,0.000,0.000,0.000,0.0180,0,0,0.00,0.00,0.00,0.0000,0.0000,0.0000,0.0000,0.0000,0.0000,0.0000,0.00,0.00,0.00,1.1560,0.6180,1.5340,1.0180,2.7090,0,0.0000,0.0000,0.0000,0.0000,0.0000,0
2742,15.7057,-9.2718,0.0165,1.7326,-0.8705,0.0051,-0.60,0.40,0.07,0,3.885,0.132,0.075,0.337,0.016,-0.012,1.001,0.000,0.000,0.000,0.0160,0,0,0.00,0.00,0.00,0.0000,0.0000,0.0000,0.0000,0.0000,0.0000,0.0000,0.00,0.00,0.00,1.1560,0.6180,1.5500,1.0150,2.7090,0,0.0000,0.0000,0.0000,0.0000,0.0000,0
2793,15.6284,-9.1666,0.0164,1.7149,-0.8509,0.0040,-0.61,0.41,0.07,0,3.890,-0.018,-0.279,-0.300,0.015,-0.014,1.003,0.000,0.000,0.000,0.0180,0,0,0.00,0.00,0.00,0.0000,0.0000,0.0000,0.0000,0.0000,0.0000,0.0000,0.00,0.00,0.00,1.1580,0.6300,1.5500,1.0150,2.7190,0,0.0000,0.0000,0.0000,0.0000,0.0000,0
2844,15.8756,-9.3341,0.0172,1.7415,-0.8691,0.0082,-0.60,0.40,0.06,0,3.885,-0.199,-0.109,0.272,0.017,-0.012,1.001,0.000,0.000,0.000,0.0150,0,0,0.00,0.00,0.00,0.0000,0.0000,0.0000,0.0000,0.0000,0.0000,0.0000,0.00,0.00,0.00,1.1580,0.6300,1.5360,1.0180,2.7190,0,0.0000,0.0000,0.0000,0.0000,0.0000,0
2895,15.9953,-9.4811,0.0165,1.7508,-0.8837,0.0025,-0.60,0.40,0.07,0,3.890,0.096,-0.032,0.137,0.018,-0.013,1.002,0.000,0.000,0.000,0.0160,0,0,0.00,0.00,0.00,0.0000,0.0000,0.0000,0.0000,0.0000,0.0000,0.0000,0.00,0.00,0.00,1.1550,0.6370,1.5360,1.0180,2.7140,0,0.0000,0.0000,0.0000,0.0000,0.0000,0
2946,16.1305,-9.5919,0.0164,1.7616,-0.8936,0.0027,-0.60,0.40,0.07,0,3.885,0.056,-0.058,-0.039,0.016,-0.013,1.003,0.000,0.000,0.000,0.0160,0,0,0.00,0.00,0.00,0.0000,0.0000,0.0000,0.0000,0.0000,0.0000,0.0000,0.00,0.00,0.00,1.1550,0.6370,1.5270,1.0160,2.7140,0,0.0000,0.0000,0.0000,0.0000,0.0000,0
2997,16.2978,-9.7368,0.0163,1.7770,-0.9086,0.0025,-0.59,0.39,0.07,0,3.885,-0.075,-0.047,-0.012,0.017,-0.011,1.001,0.000,0.000,0.000,0.0150,0,0,0.00,0.00,0.00,0.0000,0.0000,0.0000,0.0000,0.0000,0.0000,0.0000,0.00,0.00,0.00,1.1550,0.6320,1.5270,1.0160,2.7110,0,0.0000,0.0000,0.0000,0.0000,0.0000,0
3048,16.6187,-10.0706,0.0159,1.8126,-0.9483,0.0005,-0.58,0.37,0.07,0,3.885,-0.222,-0.036,0.132,0.014,-0.012,1.001,0.000,0.000,0.000,0.0150,0,0,0.00,0.00,0.00,0.0000,0.0000,0.0000,0.0000,0.0000,0.0000,0.0000,0.00,0.00,0.00,1.1550,0.6320,1.5260,1.0160,2.7110,0,0.0000,0.0000,0.0000,0.0000,0.0000,0
3100,16.9226,-10.3844,0.0155,1.8456,-0.9847,-0.0011,-0.56,0.35,0.07,0,3.890,-0.056,-0.136,-0.131,0.015,-0.016,1.002,0.000,0.000,0.000,0.0150,0,0,0.00,0.00,0.00,0.0000,0.0000,0.0000,0.0000,0.0000,0.0000,0.0000,0.00,0.00,0.00,1.1590,0.6250,1.5260,1.0160,2.7120,0,0.0000,0.0000,0.0000,0.0000,0.0000,0
3151,17.1427,-10.5947,0.0153,1.8670,-1.0083,-0.0011,-0.55,0.34,0.07,0,3.880,-0.455,0.065,0.120,0.014,-0.014,1.003,0.000,0.000,0.000,0.0160,0,0,0.00,0.00,0.00,0.0000,0.0000,0.0000,0.0000,0.0000,0.0000,0.0000,0.00,0.00,0.00,1.1590,0.6250,1.5430,1.0160,2.7120,0,0.0000,0.0000,0.0000,0.0000,0.0000,0
3203,17.0022,-10.3406,0.0156,1.8404,-0.9691,0.0019,-0.57,0.36,0.07,0,3.896,0.160,0.022,0.079,0.015,-0.010,1.001,0.000,0.000,0.000,0.0180,0,0,0.00,0.00,0.00,0.0000,0.0000,0.0000,0.0000,0.0000,0.0000,0.0000,0.00,0.00,0.00,1.1570,0.6380,1.5430,1.0160,2.7180,0,0.0000,0.0000,0.0000,0.0000,0.0000,0
3254,16.5334,-9.6759,0.0167,1.7702,-0.8756,0.0080,-0.61,0.39,0.07,0,3.885,-0.046,-0.034,-0.077,0.015,-0.013,1.005,0.000,0.000,0.000,0.0140,0,0,0.00,0.00,0.00,0.0000,0.0000,0.0000,0.0000,0.0000,0.0000,0.0000,0.00,0.00,0.00,1.1570,0.6380,0.0000,1.0130,2.7180,0,0.0000,0.0000,0.0000,0.0000,0.0000,0
3305,16.8685,-9.9197,0.0158,1.8077,-0.9030,0.0017,-0.60,0.37,0.07,0,3.885,-0.199,0.165,-0.159,0.015,-0.014,1.003,0.000,0.000,0.000,0.0190,0,0,0.00,0.00,0.00,0.0000,0.0000,0.0000,0.0000,0.0000,0.0000,0.0000,0.00,0.00,0.00,1.1540,0.6360,0.0000,1.0130,2.7150,0,0.0000,0.0000,0.0000,0.0000,0.0000,0
3356,16.7897,-9.9998,0.0172,1.7894,-0.9095,0.0102,-0.60,0.38,0.07,0,3.885,-0.258,-0.215,0.045,0.016,-0.013,1.002,0.000,0.000,0.000,0.0120,0,0,0.00,0.00,0.00,0.0000,0.0000,0.0000,0.0000,0.0000,0.0000,0.0000,0.00,0.00,0.00,1.1540,0.6360,1.5570,1.0200,2.7150,0,0.0000,0.0000,0.0000,0.0000,0.0000,0
3408,16.7256,-9.7838,0.0152,1.7742,-0.8756,-0.0022,-0.61,0.38,0.06,0,3.890,-0.150,-0.051,0.264,0.017,-0.013,1.002,0.000,0.000,0.000,0.0170,0,0,0.00,0.00,0.00,0.0000,0.0000,0.0000,0.0000,0.0000,0.0000,0.0000,0.00,0.00,0.00,1.1610,0.6240,1.5570,1.0200,2.7150,0,0.0000,0.0000,0.0000,0.0000,0.0000,0
3459,16.8918,-9.9978,0.0159,1.7893,-0.8993,0.0023,-0.60,0.38,0.07,0,3.885,-0.102,0.074,-0.011,0.017,-0.013,1.003,0.000,0.000,0.000,0.0180,0,0,0.00,0.00,0.00,0.0000,0.0000,0.0000,0.0000,0.0000,0.0000,0.0000,0.00,0.00,0.00,1.1610,0.6240,1.5310,1.0200,2.7150,0,0.0000,0.0000,0.0000,0.0000,0.0000,0
3510,17.0756,-10.2003,0.0169,1.8065,-0.9227,0.0075,-0.59,0.38,0.07,0,3.890,-0.355,-0.049,0.086,0.017,-0.014,1.002,0.000,0.000,0.000,0.0180,0,0,0.00,0.00,0.00,0.0000,0.0000,0.0000,0.0000,0.0000,0.0000,0.0000,0.00,0.00,0.00,1.1580,0.6360,1.5310,1.0200,2.7170,0,0.0000,0.0000,0.0000,0.0000,0.0000,0
3561,17.1925,-10.2675,0.0176,1.8145,-0.9272,0.0097,-0.59,0.38,0.07,0,3.880,-0.157,0.153,-0.021,0.017,-0.016,1.001,0.000,0.000,0.000,0.0150,0,0,0.00,0.00,0.00,0.0000,0.0000,0.0000,0.0000,0.0000,0.0000,0.0000,0.00,0.00,0.00,1.1580,0.6360,1.5220,1.0150,2.7170,0,0.0000,0.0000,0.0000,0.0000,0.0000,0
3612,17.2527,-10.4104,0.0168,1.8159,-0.9403,0.0030,-0.59,0.37,0.07,0,3.885,-0.011,0.150,-0.284,0.015,-0.017,1.002,0.000,0.000,0.000,0.0150,0,0,0.00,0.00,0.00,0.0000,0.0000,0.0000,0.0000,0.0000,0.0000,0.0000,0.00,0.00,0.00,1.1510,0.6240,1.5220,1.0150,2.7220,0,0.0000,0.0000,0.0000,0.0000,0.0000,0
3663,17.3590,-10.6013,0.0161,1.8224,-0.9603,-0.0001,-0.58,0.37,0.06,0,3.885,-0.155,0.020,-0.026,0.015,-0.014,1.001,0.000,0.000,0.000,0.0140,0,0,0.00,0.00,0.00,0.0000,0.0000,0.0000,0.0000,0.0000,0.0000,0.0000,0.00,0.00,0.00,1.1510,0.6240,1.5470,1.0200,2.7220,0,0.0000,0.0000,0.0000,0.0000,0.0000,0
3714,17.5165,-10.9774,0.0152,1.8352,-1.0042,-0.0042,-0.56,0.36,0.07,0,3.890,-0.066,0.036,-0.119,0.014,-0.011,1.001,0.000,0.000,0.000,0.0150,0,0,0.00,0.00,0.00,0.0000,0.0000,0.0000,0.0000,0.0000,0.0000,0.0000,0.00,0.00,0.00,1.1560,0.6340,1.5470,1.0200,2.7230,0,0.0000,0.0000,0.0000,0.0000,0.0000,0
3765,17.6118,-11.0457,0.0150,1.8404,-1.0076,-0.0037,-0.56,0.36,0.07,0,3.880,0.138,-0.211,0.181,0.018,-0.013,1.002,0.000,0.000,0.000,0.0140,0,0,0.00,0.00,0.00,0.0000,0.0000,0.0000,0.0000,0.0000,0.0000,0.0000,0.00,0.00,0.00,1.1560,0.6340,1.5390,1.0160,2.7230,0,0.0000,0.0000,0.0000,0.0000,0.0000,0
3816,17.7588,-11.3655,0.0145,1.8521,-1.0448,-0.0047,-0.54,0.35,0.06,0,3.890,-0.153,-0.063,-0.064,0.017,-0.010,1.001,0.000,0.000,0.000,0.0140,0,0,0.00,0.00,0.00,0.0000,0.0000,0.0000,0.0000,0.0000,0.0000,0.0000,0.00,0.00,0.00,1.1540,0.6330,1.5390,1.0160,2.7180,0,0.0000,0.0000,0.0000,0.0000,0.0000,0
3867,0.0000,-0.0000,0.0140,0.0017,-0.0011,0.0003,-0.00,-0.00,0.00,0,3.890,-0.138,-0.138,-0.141,0.018,-0.015,1.002,0.000,0.000,0.000,0.0140,0,0,0.00,0.00,0.00,0.0000,0.0000,0.0000,0.0000,0.0000,0.0000,0.0000,0.00,0.00,0.00,1.1540,0.6330,1.5410,1.0200,2.7180,0,0.0000,0.0000,0.0000,0.0000,0.0000,0
3918,0.0003,-0.0002,0.0140,0.0105,-0.0078,0.0015,-0.01,0.00,-0.00,0,3.890,0.038,0.145,0.293,0.018,-0.014,1.001,0.000,0.000,0.000,0.0160,0,0,0.00,0.00,0.00,0.0000,0.0000,0.0000,0.0000,0.0000,0.0000,0.0000,0.00,0.00,0.00,1.1580,0.6250,1.5410,1.0200,2.7100,0,0.0000,0.0000,0.0000,0.0000,0.0000,0
3969,0.0011,-0.0007,0.0149,0.0192,-0.0135,0.0045,-0.01,-0.00,0.00,0,3.890,-0.205,-0.259,0.130,0.015,-0.013,1.002,0.000,0.000,0.000,0.0170,0,0,0.00,0.00,0.00,0.0000,0.0000,0.0000,0.0000,0.0000,0.0000,0.0000,0.00,0.00,0.00,1.1580,0.6250,1.5470,1.0230,2.7100,0,0.0000,0.0000,0.0000,0.0000,0.0000,0
4019,0.0022,-0.0016,0.0159,0.0268,-0.0196,0.0088,-0.01,-0.00,-0.00,0,3.890,-0.132,0.031,0.026,0.017,-0.011,1.003,0.000,0.000,0.000,0.0150,0,0,0.00,0.00,0.00,0.0000,0.0000,0.0000,0.0000,0.0000,0.0000,0.0000,0.00,0.00,0.00,1.1520,0.6330,1.5470,1.0230,2.7180,0,0.0000,0.0000,0.0000,0.0000,0.0000,0
4071,0.0038,-0.0027,0.0158,0.0350,-0.0260,0.0068,-0.02,-0.00,0.00,0,3.885,0.065,-0.204,0.230,0.015,-0.014,1.003,0.000,0.000,0.000,0.0170,0,0,0.00,0.00,0.00,0.0000,0.0000,0.0000,0.0000,0.0000,0.0000,0.0000,0.00,0.00,0.00,1.1520,0.6330,1.5360,1.0190,2.7180,0,0.0000,0.0000,0.0000,0.0000,0.0000,0
4122,0.0057,-0.0042,0.0166,0.0428,-0.0323,0.0100,-0.02,-0.00,0.01,0,3.890,-0.273,0.105,-0.018,0.017,-0.012,1.003,0.000,0.000,0.000,0.0160,0,0,0.00,0.00,0.00,0.0000,0.0000,0.0000,0.0000,0.0000,0.0000,0.0000,0.00,0.00,0.00,1.1590,0.6270,1.5360,1.0190,2.7090,0,0.0000,0.0000,0.0000,0.0000,0.0000,0
4173,0.0081,-0.0060,0.0167,0.0514,-0.0386,0.0084,-0.03,-0.00,0.01,0,3.885,-0.116,-0.001,0.112,0.019,-0.013,1.005,0.000,0.000,0.000,0.0140,0,0,0.00,0.00,0.00,0.0000,0.0000,0.0000,0.0000,0.0000,0.0000,0.0000,0.00,0.00,0.00,1.1590,0.6270,1.5390,1.0190,2.7090,0,0.0000,0.0000,0.0000,0.0000,0.0000,0
4224,0.0110,-0.0082,0.0157,0.0597,-0.0453,0.0023,-0.03,-0.00,0.01,0,3.885,-0.163,-0.101,0.376,0.015,-0.012,1.003,0.000,0.000,0.000,0.0170,0,0,0.00,0.00,0.00,0.0000,0.0000,0.0000,0.0000,0.0000,0.0000,0.0000,0.00,0.00,0.00,1.1560,0.6330,1.5390,1.0190,2.7110,0,0.0000,0.0000,0.0000,0.0000,0.0000,0
4275,0.0141,-0.0106,0.0164,0.0673,-0.0512,0.0062,-0.03,-0.00,0.01,0,3.885,0.110,-0.000,-0.142,0.018,-0.013,1.002,0.000,0.000,0.000,0.0150,0,0,0.00,0.00,0.00,0.0000,0.0000,0.0000,0.0000,0.0000,0.0000,0.0000,0.00,0.00,0.00,1.1560,0.6330,1.5360,1.0180,2.7110,0,0.0000,0.0000,0.0000,0.0000,0.0000,0
4325,0.0177,-0.0133,0.0160,0.0756,-0.0574,0.0034,-0.03,0.00,0.01,0,3.890,0.132,-0.121,-0.177,0.017,-0.012,1.004,0.000,0.000,0.000,0.0140,0,0,0.00,0.00,0.00,0.0000,0.0000,0.0000,0.0000,0.0000,0.0000,0.0000,0.00,0.00,0.00,1.1560,0.6350,1.5360,1.0180,2.7080,0,0.0000,0.0000,0.0000,0.0000,0.0000,0
4376,0.0218,-0.0164,0.0152,0.0839,-0.0637,-0.0004,-0.03,0.00,0.01,0,3.885,0.055,0.101,0.031,0.016,-0.011,1.001,0.000,0.000,0.000,0.0170,0,0,0.00,0.00,0.00,0.0000,0.0000,0.0000,0.0000,0.0000,0.0000,0.0000,0.00,0.00,0.00,1.1560,0.6350,1.5250,1.0160,2.7080,0,0.0000,0.0000,0.0000,0.0000,0.0000,0
4427,0.0261,-0.0197,0.0160,0.0912,-0.0691,0.0042,-0.03,0.01,0.01,0,3.890,-0.115,0.103,-0.153,0.016,-0.012,1.004,0.000,0.000,0.000,0.0140,0,0,0.00,0.00,0.00,0.0000,0.0000,0.0000,0.0000,0.0000,0.0000,0.0000,0.00,0.00,0.00,1.1560,0.6190,1.5250,1.0160,2.7130,0,0.0000,0.0000,0.0000,0.0000,0.0000,0
4479,0.0310,-0.0234,0.0153,0.0994,-0.0756,0.0004,-0.03,0.01,0.01,0,3.885,-0.175,-0.028,0.094,0.016,-0.011,1.004,0.000,0.000,0.000,0.0140,0,0,0.00,0.00,0.00,0.0000,0.0000,0.0000,0.0000,0.0000,0.0000,0.0000,0.00,0.00,0.00,1.1560,0.6190,1.5270,1.0180,2.7130,0,0.0000,0.0000,0.0000,0.0000,0.0000,0
4530,0.0362,-0.0274,0.0148,0.1074,-0.0815,-0.0011,-0.04,0.00,0.01,0,3.885,-0.145,-0.411,0.241,0.015,-0.014,1.002,0.000,0.000,0.000,0.0150,0,0,0.00,0.00,0.00,0.0000,0.0000,0.0000,0.0000,0.0000,0.0000,0.0000,0.00,0.00,0.00,1.1550,0.6350,1.5270,1.0180,2.7190,0,0.0000,0.0000,0.0000,0.0000,0.0000,0
4581,0.0419,-0.0317,0.0148,0.1157,-0.0881,0.0005,-0.04,0.00,0.01,0,3.885,-0.054,-0.113,0.106,0.016,-0.012,1.002,0.000,0.000,0.000,0.0140,0,0,0.00,0.00,0.00,0.0000,0.0000,0.0000,0.0000,0.0000,0.0000,0.0000,0.00,0.00,0.00,1.1550,0.6350,1.5380,1.0160,2.7190,0,0.0000,0.0000,0.0000,0.0000,0.0000,0
4632,0.0480,-0.0363,0.0145,0.1244,-0.0942,-0.0004,-0.05,0.01,0.00,0,3.890,-0.018,-0.341,-0.196,0.015,-0.015,1.002,0.000,0.000,0.000,0.0160,0,0,0.00,0.00,0.00,0.0000,0.0000,0.0000,0.0000,0.0000,0.0000,0.0000,0.00,0.00,0.00,1.1510,0.6230,1.5380,1.0160,2.7090,0,0.0000,0.0000,0.0000,0.0000,0.0000,0
4683,0.0529,-0.0401,0.0151,0.1304,-0.0991,0.0037,-0.05,0.02,0.00,0,3.885,-0.151,0.089,0.124,0.016,-0.012,1.002,0.000,0.000,0.000,0.0150,0,0,0.00,0.00,0.00,0.0000,0.0000,0.0000,0.0000,0.0000,0.0000,0.0000,0.00,0.00,0.00,1.1510,0.6230,1.5520,1.0160,2.7090,0,0.0000,0.0000,0.0000,0.0000,0.0000,0
4734,0.0597,-0.0452,0.0152,0.1380,-0.1055,0.0032,-0.05,0.02,0.01,0,3.890,-0.026,0.232,0.133,0.017,-0.016,1.003,0.000,0.000,0.000,0.0140,0,0,0.00,0.00,0.00,0.0000,0.0000,0.0000,0.0000,0.0000,0.0000,0.0000,0.00,0.00,0.00,1.1610,0.6320,1.5520,1.0160,2.7060,0,0.0000,0.0000,0.0000,0.0000,0.0000,0
4786,0.0670,-0.0508,0.0148,0.1462,-0.1119,0.0016,-0.05,0.02,0.01,0,3.885,-0.026,-0.014,0.144,0.018,-0.014,1.004,0.000,0.000,0.000,0.0120,0,0,0.00,0.00,0.00,0.0000,0.0000,0.0000,0.0000,0.0000,0.0000,0.0000,0.00,0.00,0.00,1.1610,0.6320,0.0000,1.0180,2.7060,0,0.0000,0.0000,0.0000,0.0000,0.0000,0
4837,0.0749,-0.0569,0.0137,0.1552,-0.1198,-0.0040,-0.05,0.01,0.01,0,3.885,0.086,0.041,0.235,0.016,-0.014,1.002,0.000,0.000,0.000,0.0150,0,0,0.00,0.00,0.00,0.0000,0.0000,0.0000,0.0000,0.0000,0.0000,0.0000,0.00,0.00,0.00,1.1530,0.6360,0.0000,1.0180,2.7150,0,0.0000,0.0000,0.0000,0.0000,0.0000,0
4888,0.0826,-0.0628,0.0141,0.1630,-0.1254,0.0011,-0.05,0.01,0.01,0,3.890,0.142,-0.080,-0.163,0.015,-0.013,1.003,0.000,0.000,0.000,0.0160,0,0,0.00,0.00,0.00,0.0000,0.0000,0.0000,0.0000,0.0000,0.0000,0.0000,0.00,0.00,0.00,1.1530,0.6360,1.5320,1.0140,2.7150,0,0.0000,0.0000,0.0000,0.0000,0.0000,0
4939,0.0906,-0.0690,0.0150,0.1701,-0.1306,0.0059,-0.05,0.02,0.01,0,3.890,0.047,-0.322,0.069,0.016,-0.011,1.002,0.000,0.000,0.000,0.0160,0,0,0.00,0.00,0.00,0.0000,0.0000,0.0000,0.0000,0.0000,0.0000,0.0000,0.00,0.00,0.00,1.1530,0.6320,1.5320,1.0140,2.7210,0,0.0000,0.0000,0.0000,0.0000,0.0000,0
4990,0.0992,-0.0755,0.0156,0.1776,-0.1364,0.0082,-0.06,0.02,0.02,0,3.885,-0.079,-0.169,-0.055,0.017,-0.013,1.002,0.000,0.000,0.000,0.0170,0,0,0.00,0.00,0.00,0.0000,0.0000,0.0000,0.0000,0.0000,0.0000,0.0000,0.00,0.00,0.00,1.1530,0.6320,1.5290,1.0190,2.7210,0,0.0000,0.0000,0.0000,0.0000,0.0000,0
5042,0.1099,-0.0837,0.0165,0.1861,-0.1425,0.0118,-0.06,0.02,0.02,0,3.890,0.242,-0.094,-0.225,0.018,-0.014,1.002,0.000,0.000,0.000,0.0180,0,0,0.00,0.00,0.00,0.0000,0.0000,0.0000,0.0000,0.0000,0.0000,0.0000,0.00,0.00,0.00,1.1560,0.6360,1.5290,1.0190,2.7150,0,0.0000,0.0000,0.0000,0.0000,0.0000,0
5093,0.1191,-0.0908,0.0176,0.1933,-0.1482,0.0152,-0.06,0.02,0.01,0,3.885,0.107,0.002,0.142,0.015,-0.013,1.001,0.000,0.000,0.000,0.0170,0,0,0.00,0.00,0.00,0.0000,0.0000,0.0000,0.0000,0.0000,0.0000,0.0000,0.00,0.00,0.00,1.1560,0.6360,1.5470,1.0180,2.7150,0,0.0000,0.0000,0.0000,0.0000,0.0000,0
5143,0.1273,-0.0971,0.0177,0.2001,-0.1534,0.0132,-0.06,0.02,0.01,0,3.885,0.101,-0.053,0.136,0.016,-0.013,1.001,0.000,0.000,0.000,0.0150,0,0,0.00,0.00,0.00,0.0000,0.0000,0.0000,0.0000,0.0000,0.0000,0.0000,0.00,0.00,0.00,1.1530,0.6250,1.5470,1.0180,2.7210,0,0.0000,0.0000,0.0000,0.0000,0.0000,0
5195,0.1384,-0.1056,0.0169,0.2090,-0.1606,0.0058,-0.06,0.02,0.01,0,3.389,-0.674,0.020,1.061,0.012,0.010,1.011,0.000,0.000,0.000,0.0160,0,0,0.00,0.00,0.00,0.0000,0.0000,0.0000,0.0000,0.0000,0.0000,0.0000,0.00,0.00,0.00,1.1530,0.6250,1.5490,1.0160,2.7210,0,0.0000,0.0000,0.0000,0.0000,0.0000,0
5247,0.1494,-0.1141,0.0167,0.2139,-0.1647,0.0045,-0.07,0.02,0.02,0,3.500,-0.158,0.929,0.383,0.007,-0.002,1.012,0.000,0.000,0.000,0.0160,0,0,0.00,0.00,0.00,0.0000,0.0000,0.0000,0.0000,0.0000,0.0000,0.0000,0.00,0.00,0.00,1.1510,0.6360,1.5490,1.0160,2.7090,0,0.0000,0.0000,0.0000,0.0000,0.0000,0
5298,0.1604,-0.1226,0.0166,0.2142,-0.1645,0.0049,-0.06,0.04,0.15,0,3.542,0.620,-0.689,9.547,-0.011,0.006,0.982,0.000,0.000,0.000,0.0140,0,0,0.00,0.00,0.00,0.0000,0.0000,0.0000,0.0000,0.0000,0.0000,0.0000,0.00,0.00,0.00,1.1510,0.6360,1.5490,1.0200,2.7090,0,0.0000,0.0000,0.0000,0.0000,0.0000,0
5349,0.1721,-0.1316,0.0157,0.2151,-0.1649,-0.0009,-0.09,0.05,0.61,0,3.563,-5.749,-5.709,-4.839,-0.013,-0.016,1.062,0.000,0.000,0.000,0.0200,0,0,0.00,0.00,0.00,0.0000,0.0000,0.0000,0.0000,0.0000,0.0000,0.0000,0.00,0.00,0.00,1.1500,0.6410,1.5490,1.0200,2.7120,0,0.0000,0.0000,0.0000,0.0000,0.0000,0
5400,0.1818,-0.1390,0.0175,0.2132,-0.1630,0.0159,-0.12,0.11,0.62,0,3.574,6.570,-2.666,1.489,-0.010,0.013,0.947,0.000,0.000,0.000,0.0150,0,0,0.00,0.00,0.00,0.0000,0.0000,0.0000,0.0000,0.0000,0.0000,0.0000,0.00,0.00,0.00,1.1500,0.6410,1.5510,1.0160,2.7120,0,0.0000,0.0000,0.0000,0.0000,0.0000,0
5452,0.1932,-0.1477,0.0169,0.2126,-0.1624,0.0017,-0.16,0.19,0.68,0,3.584,-6.860,-4.049,1.500,0.012,-0.020,1.071,0.000,0.000,0.000,0.0150,0,0,0.00,0.00,0.00,0.0000,0.0000,0.0000,0.0000,0.0000,0.0000,0.0000,0.00,0.00,0.00,1.1530,0.6410,1.5510,1.0160,2.7090,0,0.0000,0.0000,0.0000,0.0000,0.0000,0
5503,0.2040,-0.1560,0.0162,0.2111,-0.1616,0.0047,-0.17,0.27,0.80,0,3.589,-4.110,-18.747,4.215,0.023,0.018,1.024,0.000,0.000,0.000,0.0190,0,0,0.00,0.00,0.00,0.0000,0.0000,0.0000,0.0000,0.0000,0.0000,0.0000,0.00,0.00,0.00,1.1530,0.6410,1.5580,1.0210,2.7090,0,0.0000,0.0000,0.0000,0.0000,0.0000,0
5555,0.2144,-0.1639,0.0177,0.2083,-0.1602,0.0206,-0.13,1.33,0.81,0,3.595,-19.674,-12.763,0.306,0.028,-0.019,1.031,0.000,0.000,0.000,0.0270,0,0,0.00,0.00,0.00,0.0000,0.0000,0.0000,0.0000,0.0000,0.0000,0.0000,0.00,0.00,0.00,1.1690,0.6220,1.5580,1.0210,2.7200,0,0.0000,0.0000,0.0000,0.0000,0.0000,0
5606,0.2250,-0.1719,0.0224,0.1976,-0.1586,0.0442,-0.92,2.05,0.90,0,3.584,-18.159,-18.199,7.654,0.046,-0.017,1.027,0.000,0.000,0.000,0.0210,0,0,0.00,0.00,0.00,0.0000,0.0000,0.0000,0.0000,0.0000,0.0000,0.0000,0.00,0.00,0.00,1.1690,0.6220,1.5890,1.0230,2.7200,0,0.0000,0.0000,0.0000,0.0000,0.0000,0
5657,0.2336,-0.1794,0.0231,0.1788,-0.1506,0.0400,-1.83,2.93,1.30,0,3.574,-15.505,-32.776,10.377,0.043,-0.022,1.021,0.000,0.000,0.000,0.0110,0,0,0.00,0.00,0.00,0.0000,0.0000,0.0000,0.0000,0.0000,0.0000,0.0000,0.00,0.00,0.00,1.1980,0.5880,1.5890,1.0230,2.7240,0,0.0000,0.0000,0.0000,0.0000,0.0000,0
5708,0.2357,-0.1842,0.0196,0.1455,-0.1325,0.0236,-2.64,4.77,1.89,0,3.568,-25.665,-20.748,-1.810,0.049,-0.045,0.973,0.000,0.000,0.000,0.0020,-9,17,0.00,0.00,0.00,0.0000,0.0000,0.0000,0.0000,0.0000,0.0000,0.0000,0.00,0.00,0.00,1.1980,0.5880,1.4880,1.0430,2.7240,0,0.0000,0.0000,0.0000,0.0000,0.0000,0
5759,0.1584,-0.1568,0.0129,0.0128,-0.0747,-0.0180,-4.31,6.55,2.02,0,3.558,-47.235,19.268,-11.727,0.031,-0.045,0.940,0.000,0.000,0.000,0.0030,0,-5,0.00,0.00,0.00,0.0000,0.0000,0.0000,0.0000,0.0000,0.0000,0.0000,0.00,0.00,0.00,1.2880,0.3410,1.4880,1.0430,2.7360,0,0.0000,0.0000,0.0000,0.0000,0.0000,0
5810,0.1428,-0.1059,0.0082,-0.0539,0.0162,-0.0542,-6.35,5.63,1.35,0,3.558,7.203,8.987,-3.698,0.034,-0.043,0.881,0.000,0.000,0.000,0.0020,0,0,0.00,0.00,0.00,0.0000,0.0000,0.0000,0.0000,0.0000,0.0000,0.0000,0.00,0.00,0.00,1.2880,0.3410,0.0000,1.0560,2.7360,0,0.0000,0.0000,0.0000,0.0000,0.0000,0
5861,0.1806,-0.1141,0.0040,-0.0490,0.0522,-0.0888,-5.62,4.52,1.07,0,3.547,74.363,-11.313,-7.574,0.024,-0.042,0.951,0.000,0.000,0.000,0.0050,12,0,0.00,0.00,0.00,0.0000,0.0000,0.0000,0.0000,0.0000,0.0000,0.0000,0.00,0.00,0.00,1.2650,0.4300,0.0000,1.0560,2.7290,0,0.0000,0.0000,0.0000,0.0000,0.0000,0
5912,0.1767,-0.1586,0.0016,-0.0900,0.0180,-0.1013,-1.37,4.64,0.54,0,3.552,36.558,42.981,-0.694,0.053,-0.066,1.111,0.000,0.000,0.000,0.0070,0,0,0.00,0.00,0.00,0.0000,0.0000,0.0000,0.0000,0.0000,0.0000,0.0000,0.00,0.00,0.00,1.2650,0.4300,0.0000,1.0700,2.7290,0,0.0000,0.0000,0.0000,0.0000,0.0000,0
5963,0.1821,-0.1707,0.0014,-0.1045,0.0043,-0.0686,0.02,2.82,0.58,0,3.558,-66.373,53.538,-2.373,0.020,-0.031,0.987,0.000,0.000,0.000,0.0150,0,0,0.00,0.00,0.00,0.0000,0.0000,0.0000,0.0000,0.0000,0.0000,0.0000,0.00,0.00,0.00,1.2500,0.4620,0.0000,1.0700,2.7200,0,0.0000,0.0000,0.0000,0.0000,0.0000,0
6014,0.1727,-0.1687,0.0054,-0.1343,0.0073,-0.0098,-2.38,-0.30,0.45,0,3.563,13.932,-39.800,0.636,0.014,-0.024,1.008,0.000,0.000,0.000,0.0190,0,0,0.00,0.00,0.00,0.0000,0.0000,0.0000,0.0000,0.0000,0.0000,0.0000,0.00,0.00,0.00,1.2500,0.4620,0.0000,1.0760,2.7200,0,0.0000,0.0000,0.0000,0.0000,0.0000,0
6066,0.1638,-0.1668,0.0116,-0.1384,0.0286,0.0486,-2.03,1.29,0.46,0,3.568,0.608,-20.576,-1.489,0.021,-0.047,0.969,0.000,0.000,0.000,0.0150,0,0,0.00,0.00,0.00,0.0000,0.0000,0.0000,0.0000,0.0000,0.0000,0.0000,0.00,0.00,0.00,1.2330,0.0000,0.0000,1.0760,2.7190,0,0.0000,0.0000,0.0000,0.0000,0.0000,0
6117,0.1565,-0.1648,0.0146,-0.1490,0.0456,0.0477,-1.99,2.45,0.50,0,3.568,-26.227,9.753,0.646,0.017,-0.033,1.029,0.000,0.000,0.000,0.0140,0,0,0.00,0.00,0.00,0.0000,0.0000,0.0000,0.0000,0.0000,0.0000,0.0000,0.00,0.00,0.00,1.2330,0.0000,1.4450,1.0930,2.7190,0,0.0000,0.0000,0.0000,0.0000,0.0000,0
6169,0.1488,-0.1623,0.0157,-0.1695,0.0625,0.0424,-3.26,2.15,0.49,0,3.568,-3.588,22.890,-1.381,0.015,-0.051,0.963,0.000,0.000,0.000,0.0110,0,0,0.00,0.00,0.00,0.0000,0.0000,0.0000,0.0000,0.0000,0.0000,0.0000,0.00,0.00,0.00,1.2870,0.3390,1.4450,1.0930,2.7210,0,0.0000,0.0000,0.0000,0.0000,0.0000,0
6220,0.1401,-0.1587,0.0148,-0.1870,0.0886,0.0110,-3.59,0.91,0.43,0,3.552,20.188,24.066,3.424,0.012,-0.024,0.866,0.000,0.000,0.000,0.0160,0,0,0.00,0.00,0.00,0.0000,0.0000,0.0000,0.0000,0.0000,0.0000,0.0000,0.00,0.00,0.00,1.2870,0.3390,0.0000,1.1190,2.7210,0,0.0000,0.0000,0.0000,0.0000,0.0000,0
6270,0.1305,-0.1535,0.0152,-0.1939,0.1160,-0.0191,-1.36,-0.86,0.36,0,3.547,-25.786,99.972,20.468,0.025,-0.115,1.343,0.000,0.000,0.000,0.0180,0,0,0.00,0.00,0.00,0.0000,0.0000,0.0000,0.0000,0.0000,0.0000,0.0000,0.00,0.00,0.00,1.2770,0.3480,0.0000,1.1190,2.7140,0,0.0000,0.0000,0.0000,0.0000,0.0000,0
6322,0.1209,-0.1472,0.0162,-0.1886,0.1281,0.0336,0.03,-0.04,0.27,0,3.563,-41.493,11.802,2.313,0.005,-0.047,0.942,0.000,0.000,0.000,0.0150,0,0,0.00,0.00,0.00,0.0000,0.0000,0.0000,0.0000,0.0000,0.0000,0.0000,0.00,0.00,0.00,1.2770,0.3480,1.4490,1.1300,2.7140,0,0.0000,0.0000,0.0000,0.0000,0.0000,0
6373,0.1115,-0.1409,0.0174,-0.1864,0.1285,0.0492,-1.91,-0.47,0.27,0,3.558,-24.923,-35.047,-8.735,0.013,-0.035,0.928,0.000,0.000,0.000,0.0270,0,0,0.00,0.00,0.00,0.0000,0.0000,0.0000,0.0000,0.0000,0.0000,0.0000,0.00,0.00,0.00,1.3300,0.3200,1.4490,1.1300,2.7150,0,0.0000,0.0000,0.0000,0.0000,0.0000,0
6424,0.1024,-0.1341,0.0229,-0.1826,0.1440,0.0555,-2.44,-0.34,0.19,0,3.558,56.610,1.344,5.100,0.009,-0.049,0.987,0.000,0.000,0.000,0.0230,0,0,0.00,0.00,0.00,0.0000,0.0000,0.0000,0.0000,0.0000,0.0000,0.0000,0.00,0.00,0.00,1.3300,0.3200,0.0000,1.1640,2.7150,0,0.0000,0.0000,0.0000,0.0000,0.0000,0
6475,0.0933,-0.1264,0.0242,-0.1805,0.1642,0.0269,-0.73,0.24,0.31,0,3.547,-22.122,67.461,10.602,0.015,-0.052,0.984,0.000,0.000,0.000,0.0200,0,0,0.00,0.00,0.00,0.0000,0.0000,0.0000,0.0000,0.0000,0.0000,0.0000,0.00,0.00,0.00,1.3860,0.1630,0.0000,1.1640,2.7210,0,0.0000,0.0000,0.0000,0.0000,0.0000,0
6526,0.0841,-0.1180,0.0230,-0.1819,0.1697,0.0118,0.12,-0.20,0.26,0,3.552,-41.611,12.844,3.218,0.011,-0.025,0.914,0.000,0.000,0.000,0.0140,0,0,0.00,0.00,0.00,0.0000,0.0000,0.0000,0.0000,0.0000,0.0000,0.0000,0.00,0.00,0.00,1.3860,0.1630,1.4430,1.1710,2.7210,0,0.0000,0.0000,0.0000,0.0000,0.0000,0
6578,0.0750,-0.1095,0.0202,-0.1774,0.1694,0.0188,-1.26,-0.35,0.28,0,3.552,-4.101,-23.864,-2.800,0.014,-0.034,0.947,0.000,0.000,0.000,0.0240,0,0,0.00,0.00,0.00,0.0000,0.0000,0.0000,0.0000,0.0000,0.0000,0.0000,0.00,0.00,0.00,1.4230,0.2450,1.4430,1.1710,2.7220,0,0.0000,0.0000,0.0000,0.0000,0.0000,0
6629,0.0663,-0.1008,0.0225,-0.1740,0.1785,0.0240,-1.34,0.55,0.24,0,3.547,8.989,0.652,0.713,0.006,-0.034,1.005,0.000,0.000,0.000,0.0260,0,0,0.00,0.00,0.00,0.0000,0.0000,0.0000,0.0000,0.0000,0.0000,0.0000,0.00,0.00,0.00,1.4230,0.2450,0.0000,1.2070,2.7220,0,0.0000,0.0000,0.0000,0.0000,0.0000,0
6680,0.0575,-0.0917,0.0245,-0.1778,0.1892,0.0186,-0.69,0.27,0.31,0,3.542,26.472,1.414,-4.260,0.008,-0.021,0.977,0.000,0.000,0.000,0.0250,0,0,0.00,0.00,0.00,0.0000,0.0000,0.0000,0.0000,0.0000,0.0000,0.0000,0.00,0.00,0.00,1.5230,0.2470,0.0000,1.2070,2.7050,0,0.0000,0.0000,0.0000,0.0000,0.0000,0
6731,0.0484,-0.0818,0.0251,-0.1803,0.1949,0.0068,0.43,-0.18,0.21,0,3.537,-0.233,-11.036,-1.420,0.039,-0.063,1.186,0.000,0.000,0.000,0.0170,0,0,0.00,0.00,0.00,0.0000,0.0000,0.0000,0.0000,0.0000,0.0000,0.0000,0.00,0.00,0.00,1.5230,0.2470,1.4080,1.2180,2.7050,0,0.0000,0.0000,0.0000,0.0000,0.0000,0
6782,0.0393,-0.0721,0.0220,-0.1785,0.1927,0.0218,-0.09,-0.08,0.25,0,3.547,21.782,-1.808,1.031,0.003,-0.027,1.012,0.000,0.000,0.000,0.0100,0,0,0.00,0.00,0.00,0.0000,0.0000,0.0000,0.0000,0.0000,0.0000,0.0000,0.00,0.00,0.00,1.5860,0.2600,1.4080,1.2180,2.7150,0,0.0000,0.0000,0.0000,0.0000,0.0000,0
6833,0.0304,-0.0624,0.0176,-0.1787,0.1935,-0.0105,0.46,0.12,0.27,0,3.537,3.550,24.146,1.701,0.033,-0.041,1.028,0.000,0.000,0.000,0.0250,0,0,0.00,0.00,0.00,0.0000,0.0000,0.0000,0.0000,0.0000,0.0000,0.0000,0.00,0.00,0.00,1.5860,0.2600,1.3710,1.2340,2.7150,0,0.0000,0.0000,0.0000,0.0000,0.0000,0
6883,0.0214,-0.0528,0.0204,-0.1790,0.1895,0.0051,0.29,-0.25,0.26,0,3.542,14.430,-1.494,-1.551,-0.001,-0.013,1.049,0.000,0.000,0.000,0.0140,0,0,0.00,0.00,0.00,0.0000,0.0000,0.0000,0.0000,0.0000,0.0000,0.0000,0.00,0.00,0.00,1.6740,0.2720,1.3710,1.2340,2.7190,0,0.0000,0.0000,0.0000,0.0000,0.0000,0
6935,0.0125,-0.0435,0.0179,-0.1774,0.1866,-0.0008,0.44,0.16,0.14,0,3.537,28.707,12.307,-0.662,0.006,-0.008,0.969,0.000,0.000,0.000,0.0200,0,0,0.00,0.00,0.00,0.0000,0.0000,0.0000,0.0000,0.0000,0.0000,0.0000,0.00,0.00,0.00,1.6740,0.2720,1.3230,1.2590,2.7190,0,0.0000,0.0000,0.0000,0.0000,0.0000,0
6987,0.0036,-0.0342,0.0188,-0.1789,0.1827,0.0020,1.33,-0.87,0.18,0,3.537,-20.873,9.226,-1.062,0.002,-0.022,0.985,0.000,0.000,0.000,0.0180,0,0,0.00,0.00,0.00,0.0000,0.0000,0.0000,0.0000,0.0000,0.0000,0.0000,0.00,0.00,0.00,1.6980,0.2500,1.3230,1.2590,2.7140,0,0.0000,0.0000,0.0000,0.0000,0.0000,0
7038,-0.0052,-0.0253,0.0185,-0.1728,0.1735,-0.0048,0.24,-1.42,0.24,0,3.537,-15.079,-19.968,4.244,0.039,-0.058,1.046,0.000,0.000,0.000,0.0160,0,0,0.00,0.00,0.00,0.0000,0.0000,0.0000,0.0000,0.0000,0.0000,0.0000,0.00,0.00,0.00,1.6980,0.2500,1.2690,1.2650,2.7140,0,0.0000,0.0000,0.0000,0.0000,0.0000,0
7089,-0.0135,-0.0167,0.0173,-0.1605,0.1708,-0.0062,0.12,-0.76,0.37,0,3.537,-26.487,23.992,8.933,-0.013,-0.066,1.042,0.000,0.000,0.000,0.0150,0,0,0.00,0.00,0.00,0.0000,0.0000,0.0000,0.0000,0.0000,0.0000,0.0000,0.00,0.00,0.00,1.7360,0.2330,1.2690,1.2650,2.7180,0,0.0000,0.0000,0.0000,0.0000,0.0000,0
7139,-0.0213,-0.0082,0.0160,-0.1540,0.1685,-0.0129,-0.02,-1.00,0.65,0,3.531,16.743,-28.885,-3.440,0.020,-0.026,0.986,0.000,0.000,0.000,0.0270,0,0,0.00,0.00,0.00,0.0000,0.0000,0.0000,0.0000,0.0000,0.0000,0.0000,0.00,0.00,0.00,1.7360,0.2330,0.0000,1.3030,2.7180,0,0.0000,0.0000,0.0000,0.0000,0.0000,0
7191,-0.0291,0.0003,0.0205,-0.1470,0.1673,0.0209,0.73,-0.46,0.57,0,3.542,-3.309,31.421,-3.783,0.025,-0.033,0.993,0.000,0.000,0.000,0.0130,0,0,0.00,0.00,0.00,0.0000,0.0000,0.0000,0.0000,0.0000,0.0000,0.0000,0.00,0.00,0.00,1.7660,0.2200,0.0000,1.3030,2.7100,0,0.0000,0.0000,0.0000,0.0000,0.0000,0
7242,-0.0363,0.0086,0.0180,-0.1408,0.1626,0.0021,0.26,-1.05,0.56,0,3.537,10.990,-35.292,-5.747,0.009,-0.038,1.023,0.000,0.000,0.000,0.0180,0,0,0.00,0.00,0.00,0.0000,0.0000,0.0000,0.0000,0.0000,0.0000,0.0000,0.00,0.00,0.00,1.7660,0.2200,0.0000,1.3320,2.7100,0,0.0000,0.0000,0.0000,0.0000,0.0000,0
7292,-0.0430,0.0166,0.0183,-0.1317,0.1590,0.0123,1.01,-0.18,0.50,0,3.542,20.143,21.123,1.242,0.006,-0.008,0.993,0.000,0.000,0.000,0.0150,0,0,0.00,0.00,0.00,0.0000,0.0000,0.0000,0.0000,0.0000,0.0000,0.0000,0.00,0.00,0.00,1.7990,0.2070,0.0000,1.3320,2.7120,0,0.0000,0.0000,0.0000,0.0000,0.0000,0
7344,-0.0495,0.0243,0.0172,-0.1292,0.1501,-0.0011,1.21,-0.39,0.51,0,3.531,18.932,-0.304,-3.936,-0.006,-0.036,1.016,0.000,0.000,0.000,0.0270,0,0,0.00,0.00,0.00,0.0000,0.0000,0.0000,0.0000,0.0000,0.0000,0.0000,0.00,0.00,0.00,1.7990,0.2070,0.0000,1.3410,2.7120,0,0.0000,0.0000,0.0000,0.0000,0.0000,0
7395,-0.0561,0.0318,0.0215,-0.1263,0.1397,0.0261,1.37,-0.68,0.47,0,3.542,-13.037,5.675,-0.116,0.010,0.002,0.948,0.000,0.000,0.000,0.0160,0,0,0.00,0.00,0.00,0.0000,0.0000,0.0000,0.0000,0.0000,0.0000,0.0000,0.00,0.00,0.00,1.8240,0.1970,0.0000,1.3410,2.7110,0,0.0000,0.0000,0.0000,0.0000,0.0000,0
7446,-0.0622,0.0383,0.0199,-0.1217,0.1295,-0.0027,0.67,-0.70,0.50,0,3.531,9.644,-5.368,-0.630,0.039,-0.040,1.035,0.000,0.000,0.000,0.0260,0,0,0.00,0.00,0.00,0.0000,0.0000,0.0000,0.0000,0.0000,0.0000,0.0000,0.00,0.00,0.00,1.8240,0.1970,0.0000,1.3640,2.7110,0,0.0000,0.0000,0.0000,0.0000,0.0000,0
7497,-0.0683,0.0449,0.0226,-0.1163,0.1255,0.0202,0.22,-0.15,0.47,0,3.542,-8.985,-13.582,3.682,0.031,-0.036,1.007,0.000,0.000,0.000,0.0120,0,0,0.00,0.00,0.00,0.0000,0.0000,0.0000,0.0000,0.0000,0.0000,0.0000,0.00,0.00,0.00,0.0000,0.1930,0.0000,1.3640,2.7100,0,0.0000,0.0000,0.0000,0.0000,0.0000,0
7548,-0.0737,0.0506,0.0192,-0.1112,0.1223,0.0126,0.41,-0.72,0.74,0,3.531,22.274,-12.990,-2.006,-0.013,-0.018,0.990,0.000,0.000,0.000,0.0180,0,0,0.00,0.00,0.00,0.0000,0.0000,0.0000,0.0000,0.0000,0.0000,0.0000,0.00,0.00,0.00,0.0000,0.1930,0.3590,1.4050,2.7100,0,0.0000,0.0000,0.0000,0.0000,0.0000,0
7599,-0.0790,0.0565,0.0191,-0.1047,0.1164,0.0120,1.68,-0.39,0.65,0,3.537,28.367,23.032,0.431,0.024,-0.025,1.007,0.000,0.000,0.000,0.0190,0,0,0.00,0.00,0.00,0.0000,0.0000,0.0000,0.0000,0.0000,0.0000,0.0000,0.00,0.00,0.00,1.8620,0.1960,0.3590,1.4050,2.7050,0,0.0000,0.0000,0.0000,0.0000,0.0000,0
7650,-0.0842,0.0621,0.0195,-0.0998,0.1029,0.0127,1.84,-0.75,0.73,0,3.531,37.202,1.789,1.580,0.012,-0.037,0.990,0.000,0.000,0.000,0.0220,0,0,0.00,0.00,0.00,0.0000,0.0000,0.0000,0.0000,0.0000,0.0000,0.0000,0.00,0.00,0.00,1.8620,0.1960,0.5680,1.4000,2.7050,0,0.0000,0.0000,0.0000,0.0000,0.0000,0
7701,-0.0891,0.0670,0.0209,-0.0945,0.0851,0.0136,2.46,-0.68,0.83,0,3.531,-41.965,30.846,-4.537,0.012,-0.009,0.993,0.000,0.000,0.000,0.0260,0,0,0.00,0.00,0.00,0.0000,0.0000,0.0000,0.0000,0.0000,0.0000,0.0000,0.00,0.00,0.00,1.8730,0.1940,0.5680,1.4000,2.7170,0,0.0000,0.0000,0.0000,0.0000,0.0000,0
7752,-0.0940,0.0712,0.0233,-0.0847,0.0675,0.0134,0.70,-2.45,0.78,0,3.531,18.651,-12.703,-1.928,0.018,-0.024,1.033,0.000,0.000,0.000,0.0260,0,0,0.00,0.00,0.00,0.0000,0.0000,0.0000,0.0000,0.0000,0.0000,0.0000,0.00,0.00,0.00,1.8730,0.1940,0.0000,1.4090,2.7170,0,0.0000,0.0000,0.0000,0.0000,0.0000,0
7803,-0.0978,0.0746,0.0249,-0.0644,0.0634,0.0225,0.63,-1.73,0.67,0,3.531,5.617,-44.067,1.297,-0.005,-0.062,1.051,0.000,0.000,0.000,0.0170,0,0,0.00,0.00,0.00,0.0000,0.0000,0.0000,0.0000,0.0000,0.0000,0.0000,0.00,0.00,0.00,1.8560,0.1900,0.0000,1.4090,2.7110,0,0.0000,0.0000,0.0000,0.0000,0.0000,0
7854,-0.0999,0.0767,0.0224,-0.0523,0.0540,0.0092,0.80,-0.18,0.69,0,3.526,9.766,41.465,-1.128,0.003,-0.003,0.992,0.000,0.000,0.000,0.0200,0,0,0.00,0.00,0.00,0.0000,0.0000,0.0000,0.0000,0.0000,0.0000,0.0000,0.00,0.00,0.00,1.8560,0.1900,0.0000,1.4210,2.7110,0,0.0000,0.0000,0.0000,0.0000,0.0000,0
7905,-0.1022,0.0789,0.0215,-0.0482,0.0486,0.0015,0.06,-1.06,0.74,0,3.531,35.691,-10.481,-0.044,-0.011,-0.047,1.018,0.000,0.000,0.000,0.0100,0,0,0.00,0.00,0.00,0.0000,0.0000,0.0000,0.0000,0.0000,0.0000,0.0000,0.00,0.00,0.00,1.8740,0.1890,0.0000,1.4210,2.7110,0,0.0000,0.0000,0.0000,0.0000,0.0000,0
7956,-0.1031,0.0800,0.0168,-0.0404,0.0453,-0.0182,0.36,-0.65,0.86,0,3.521,6.895,-26.227,18.439,0.520,-0.570,1.178,0.000,0.000,0.000,0.0230,0,0,0.00,0.00,0.00,0.0000,0.0000,0.0000,0.0000,0.0000,0.0000,0.0000,0.00,0.00,0.00,1.8740,0.1890,0.3700,1.4450,2.7110,0,0.0000,0.0000,0.0000,0.0000,0.0000,0
8007,-0.1058,0.0829,0.0191,-0.0374,0.0449,0.0216,0.16,0.42,1.20,0,3.531,58.752,36.402,-1.079,0.002,-0.015,0.996,0.000,0.000,0.000,0.0100,0,0,0.00,0.00,0.00,0.0000,0.0000,0.0000,0.0000,0.0000,0.0000,0.0000,0.00,0.00,0.00,1.9010,0.1740,0.3700,1.4450,2.7090,0,0.0000,0.0000,0.0000,0.0000,0.0000,0
8058,-0.1066,0.0841,0.0158,-0.0389,0.0384,-0.0015,2.57,-0.50,1.21,0,3.526,14.429,-4.071,-0.776,-0.000,0.002,0.978,0.000,0.000,0.000,0.0190,0,0,0.00,0.00,0.00,0.0000,0.0000,0.0000,0.0000,0.0000,0.0000,0.0000,0.00,0.00,0.00,1.9010,0.1740,0.0000,1.4260,2.7090,0,0.0000,0.0000,0.0000,0.0000,0.0000,0
8110,-0.1088,0.0858,0.0174,-0.0355,0.0163,0.0104,3.29,-0.17,1.21,0,3.531,5.556,-12.344,-0.388,0.010,0.005,0.982,0.000,0.000,0.000,0.0090,0,0,0.00,0.00,0.00,0.0000,0.0000,0.0000,0.0000,0.0000,0.0000,0.0000,0.00,0.00,0.00,1.8930,0.1910,0.0000,1.4260,2.7110,0,0.0000,0.0000,0.0000,0.0000,0.0000,0
8162,-0.1097,0.0847,0.0139,-0.0335,-0.0132,-0.0196,3.68,0.30,1.13,0,3.521,-16.620,8.450,-2.099,0.019,-0.008,0.946,0.000,0.000,0.000,0.0000,0,0,0.00,0.00,0.00,0.0000,0.0000,0.0000,0.0000,0.0000,0.0000,0.0000,0.00,0.00,0.00,1.8930,0.1910,1.0570,0.0000,2.7110,0,0.0000,0.0000,0.0000,0.0000,0.0000,0
8212,-0.1105,0.0805,0.0068,-0.0334,-0.0466,-0.0659,3.11,-0.21,1.04,0,3.510,-11.294,42.546,-7.217,0.011,-0.002,0.958,0.000,0.000,0.000,0.0000,0,0,0.00,0.00,0.00,0.0000,0.0000,0.0000,0.0000,0.0000,0.0000,0.0000,0.00,0.00,0.00,1.8870,0.1950,1.0570,0.0000,2.7100,0,0.0000,0.0000,0.0000,0.0000,0.0000,0
8264,-0.1119,0.0763,0.0015,-0.0282,-0.0720,-0.0887,2.40,-1.96,0.73,0,3.510,-63.825,-38.643,3.695,0.004,-0.011,1.006,0.000,0.000,0.000,0.0140,0,0,0.00,0.00,0.00,0.0000,0.0000,0.0000,0.0000,0.0000,0.0000,0.0000,0.00,0.00,0.00,1.8870,0.1950,0.0000,1.3830,2.7100,0,0.0000,0.0000,0.0000,0.0000,0.0000,0
8316,-0.1140,0.0784,0.0041,-0.0121,-0.0838,-0.0520,0.11,-1.06,0.72,0,3.526,9.353,-22.947,-5.722,-0.006,-0.012,1.014,0.000,0.000,0.000,0.0210,0,0,0.00,0.00,0.00,0.0000,0.0000,0.0000,0.0000,0.0000,0.0000,0.0000,0.00,0.00,0.00,1.8570,0.1950,0.0000,1.3830,2.7190,0,0.0000,0.0000,0.0000,0.0000,0.0000,0
8367,-0.1161,0.0813,0.0099,-0.0072,-0.0759,-0.0079,-0.08,0.14,0.58,0,3.526,19.720,-25.543,5.365,0.000,0.016,1.085,0.000,0.000,0.000,0.0230,0,0,0.00,0.00,0.00,0.0000,0.0000,0.0000,0.0000,0.0000,0.0000,0.0000,0.00,0.00,0.00,1.8570,0.1950,0.0000,1.4420,2.7190,0,0.0000,0.0000,0.0000,0.0000,0.0000,0
8418,-0.1177,0.0813,0.0161,-0.0069,-0.0729,0.0647,0.25,-0.29,0.65,0,3.537,-7.733,-7.344,-3.468,0.011,-0.019,0.985,0.000,0.000,0.000,0.0120,0,0,0.00,0.00,0.00,0.0000,0.0000,0.0000,0.0000,0.0000,0.0000,0.0000,0.00,0.00,0.00,1.8710,0.1760,0.0000,1.4420,2.7280,0,0.0000,0.0000,0.0000,0.0000,0.0000,0
8469,-0.1174,0.0764,0.0163,-0.0043,-0.0756,0.0445,-0.12,-0.04,0.61,0,3.526,27.474,9.064,-5.853,0.006,-0.014,0.970,0.000,0.000,0.000,0.0220,0,0,0.00,0.00,0.00,0.0000,0.0000,0.0000,0.0000,0.0000,0.0000,0.0000,0.00,0.00,0.00,1.8710,0.1760,0.3610,1.4260,2.7280,0,0.0000,0.0000,0.0000,0.0000,0.0000,0
8520,-0.1180,0.0731,0.0200,-0.0034,-0.0751,0.0383,0.94,-0.51,0.30,0,3.526,-74.123,-33.513,-0.937,-0.008,-0.003,0.965,0.000,0.000,0.000,0.0190,0,0,0.00,0.00,0.00,0.0000,0.0000,0.0000,0.0000,0.0000,0.0000,0.0000,0.00,0.00,0.00,1.8620,0.1810,0.3610,1.4260,2.7220,0,0.0000,0.0000,0.0000,0.0000,0.0000,0
8571,-0.1179,0.0690,0.0208,-0.0012,-0.0818,0.0421,-0.12,-0.29,0.23,0,3.531,-5.157,-15.248,-0.839,0.011,-0.003,1.005,0.000,0.000,0.000,0.0170,0,0,0.00,0.00,0.00,0.0000,0.0000,0.0000,0.0000,0.0000,0.0000,0.0000,0.00,0.00,0.00,1.8620,0.1810,0.0000,1.4080,2.7220,0,0.0000,0.0000,0.0000,0.0000,0.0000,0
8622,-0.1175,0.0648,0.0209,0.0045,-0.0812,0.0469,-0.06,-0.66,0.21,0,3.531,12.629,12.506,2.672,0.004,-0.011,0.949,0.000,0.000,0.000,0.0270,0,0,0.00,0.00,0.00,0.0000,0.0000,0.0000,0.0000,0.0000,0.0000,0.0000,0.00,0.00,0.00,1.8540,0.1890,0.0000,1.4080,2.7200,0,0.0000,0.0000,0.0000,0.0000,0.0000,0
8673,-0.1174,0.0608,0.0248,0.0105,-0.0824,0.0407,0.68,-1.13,0.24,0,3.526,-39.824,-9.974,-2.853,-0.004,-0.017,0.944,0.000,0.000,0.000,0.0190,0,0,0.00,0.00,0.00,0.0000,0.0000,0.0000,0.0000,0.0000,0.0000,0.0000,0.00,0.00,0.00,1.8540,0.1890,0.3820,1.4000,2.7200,0,0.0000,0.0000,0.0000,0.0000,0.0000,0
8724,-0.1160,0.0565,0.0233,0.0190,-0.0854,0.0109,-0.15,-0.07,0.21,0,3.531,39.958,-29.220,2.444,0.033,0.020,1.029,0.000,0.000,0.000,0.0410,0,0,0.00,0.00,0.00,0.0000,0.0000,0.0000,0.0000,0.0000,0.0000,0.0000,0.00,0.00,0.00,1.8390,0.1850,0.3820,1.4000,2.7180,0,0.0000,0.0000,0.0000,0.0000,0.0000,0
8774,-0.1170,0.0523,0.0319,0.0204,-0.0844,0.0677,-0.13,-0.31,0.20,0,3.537,3.947,3.590,-2.912,0.000,-0.010,0.955,0.000,0.000,0.000,0.0180,0,0,0.00,0.00,0.00,0.0000,0.0000,0.0000,0.0000,0.0000,0.0000,0.0000,0.00,0.00,0.00,1.8390,0.1850,0.3410,1.3990,2.7180,0,0.0000,0.0000,0.0000,0.0000,0.0000,0
8826,-0.1139,0.0482,0.0281,0.0250,-0.0831,0.0324,-0.18,-0.65,0.03,0,3.526,12.738,-18.208,-0.618,0.002,-0.009,0.996,0.000,0.000,0.000,0.0180,0,0,0.00,0.00,0.00,0.0000,0.0000,0.0000,0.0000,0.0000,0.0000,0.0000,0.00,0.00,0.00,1.8280,0.2030,0.3410,1.3990,2.7200,0,0.0000,0.0000,0.0000,0.0000,0.0000,0
8877,-0.1110,0.0443,0.0244,0.0328,-0.0804,-0.0043,-0.38,-0.43,0.07,0,3.521,35.229,19.549,-3.972,-0.002,-0.013,0.964,0.000,0.000,0.000,0.0190,0,0,0.00,0.00,0.00,0.0000,0.0000,0.0000,0.0000,0.0000,0.0000,0.0000,0.00,0.00,0.00,1.8280,0.2030,0.3360,1.4040,2.7200,0,0.0000,0.0000,0.0000,0.0000,0.0000,0
8928,-0.1084,0.0405,0.0219,0.0365,-0.0785,-0.0131,-0.05,-0.20,-0.08,0,3.526,-1.919,10.355,2.572,0.013,-0.008,1.055,0.000,0.000,0.000,0.0100,0,0,0.00,0.00,0.00,0.0000,0.0000,0.0000,0.0000,0.0000,0.0000,0.0000,0.00,0.00,0.00,1.8230,0.1940,0.3360,1.4040,2.7220,0,0.0000,0.0000,0.0000,0.0000,0.0000,0
8979,-0.1044,0.0370,0.0166,0.0417,-0.0782,-0.0240,0.07,-0.31,-0.00,0,3.516,15.463,3.611,-3.144,0.000,-0.005,0.986,0.000,0.000,0.000,0.0160,0,0,0.00,0.00,0.00,0.0000,0.0000,0.0000,0.0000,0.0000,0.0000,0.0000,0.00,0.00,0.00,1.8230,0.1940,0.3580,1.3970,2.7220,0,0.0000,0.0000,0.0000,0.0000,0.0000,0
9029,-0.1023,0.0330,0.0156,0.0416,-0.0787,-0.0181,0.31,0.19,-0.17,0,3.521,-8.331,7.967,-3.627,0.018,-0.018,0.966,0.000,0.000,0.000,0.0230,0,0,0.00,0.00,0.00,0.0000,0.0000,0.0000,0.0000,0.0000,0.0000,0.0000,0.00,0.00,0.00,1.8250,0.2030,0.3580,1.3970,2.7130,0,0.0000,0.0000,0.0000,0.0000,0.0000,0
9081,-0.1017,0.0287,0.0179,0.0399,-0.0810,-0.0178,-0.23,-0.13,-0.34,0,3.521,10.844,30.410,-3.250,0.019,-0.007,1.057,0.000,0.000,0.000,0.0210,0,0,0.00,0.00,0.00,0.0000,0.0000,0.0000,0.0000,0.0000,0.0000,0.0000,0.00,0.00,0.00,1.8250,0.2030,0.4080,1.3950,2.7130,0,0.0000,0.0000,0.0000,0.0000,0.0000,0
9131,-0.1002,0.0245,0.0187,0.0424,-0.0774,0.0005,-0.05,-0.96,-0.53,0,3.521,-14.957,-28.197,-0.129,0.007,-0.016,0.981,0.000,0.000,0.000,0.0240,0,0,0.00,0.00,0.00,0.0000,0.0000,0.0000,0.0000,0.0000,0.0000,0.0000,0.00,0.00,0.00,1.8100,0.2120,0.4080,1.3950,2.7220,0,0.0000,0.0000,0.0000,0.0000,0.0000,0
9182,-0.0986,0.0205,0.0209,0.0497,-0.0776,0.0047,-0.14,-0.03,-0.44,0,3.521,-4.409,21.595,0.338,0.005,-0.019,0.935,0.000,0.000,0.000,0.0150,0,0,0.00,0.00,0.00,0.0000,0.0000,0.0000,0.0000,0.0000,0.0000,0.0000,0.00,0.00,0.00,1.8100,0.2120,0.4090,1.3890,2.7220,0,0.0000,0.0000,0.0000,0.0000,0.0000,0
9234,-0.0952,0.0168,0.0189,0.0526,-0.0790,-0.0022,0.03,-1.00,-0.25,0,3.526,-16.617,-41.948,-1.184,-0.019,-0.008,1.053,0.000,0.000,0.000,0.0190,0,0,0.00,0.00,0.00,0.0000,0.0000,0.0000,0.0000,0.0000,0.0000,0.0000,0.00,0.00,0.00,1.8120,0.2070,0.4090,1.3890,2.7150,0,0.0000,0.0000,0.0000,0.0000,0.0000,0
9284,-0.0930,0.0136,0.0188,0.0582,-0.0786,-0.0037,-0.04,-0.25,-0.19,0,3.521,-14.349,-3.360,0.315,-0.020,0.002,1.049,0.000,0.000,0.000,0.0210,0,0,0.00,0.00,0.00,0.0000,0.0000,0.0000,0.0000,0.0000,0.0000,0.0000,0.00,0.00,0.00,1.8120,0.2070,0.3920,1.3870,2.7150,0,0.0000,0.0000,0.0000,0.0000,0.0000,0
9335,-0.0904,0.0097,0.0198,0.0600,-0.0772,0.0012,0.03,-0.50,-0.10,0,3.526,-9.910,7.293,4.642,-0.010,-0.005,1.031,0.000,0.000,0.000,0.0190,0,0,0.00,0.00,0.00,0.0000,0.0000,0.0000,0.0000,0.0000,0.0000,0.0000,0.00,0.00,0.00,1.8080,0.2030,0.3920,1.3870,2.7080,0,0.0000,0.0000,0.0000,0.0000,0.0000,0
9386,-0.0871,0.0059,0.0197,0.0639,-0.0761,0.0210,-0.58,-0.54,-0.01,0,3.526,-3.416,1.832,1.668,-0.000,-0.017,0.964,0.000,0.000,0.000,0.0210,0,0,0.00,0.00,0.00,0.0000,0.0000,0.0000,0.0000,0.0000,0.0000,0.0000,0.00,0.00,0.00,1.8080,0.2030,0.4160,1.3910,2.7080,0,0.0000,0.0000,0.0000,0.0000,0.0000,0
9438,-0.0838,0.0022,0.0208,0.0681,-0.0712,0.0166,-0.86,-0.45,0.02,0,3.526,3.277,-0.469,-0.088,-0.013,-0.017,1.002,0.000,0.000,0.000,0.0190,0,0,0.00,0.00,0.00,0.0000,0.0000,0.0000,0.0000,0.0000,0.0000,0.0000,0.00,0.00,0.00,1.8080,0.2030,0.4160,1.3910,2.7140,0,0.0000,0.0000,0.0000,0.0000,0.0000,0
9489,-0.0792,-0.0017,0.0204,0.0732,-0.0628,0.0058,-0.69,-0.47,0.07,0,3.521,18.591,-2.458,1.609,-0.005,-0.014,1.031,0.000,0.000,0.000,0.0230,0,0,0.00,0.00,0.00,0.0000,0.0000,0.0000,0.0000,0.0000,0.0000,0.0000,0.00,0.00,0.00,1.8080,0.2030,0.3830,1.3960,2.7140,0,0.0000,0.0000,0.0000,0.0000,0.0000,0
9540,-0.0767,-0.0044,0.0216,0.0763,-0.0589,0.0059,-0.13,-0.50,0.19,0,3.526,-7.028,-2.453,3.635,0.006,-0.024,0.977,0.000,0.000,0.000,0.0180,0,0,0.00,0.00,0.00,0.0000,0.0000,0.0000,0.0000,0.0000,0.0000,0.0000,0.00,0.00,0.00,1.8120,0.2020,0.3830,1.3960,2.7100,0,0.0000,0.0000,0.0000,0.0000,0.0000,0
9591,-0.0710,-0.0072,0.0205,0.0819,-0.0571,0.0108,-0.02,-0.59,0.37,0,3.521,-6.623,-24.885,0.407,-0.002,-0.006,1.077,0.000,0.000,0.000,0.0150,0,0,0.00,0.00,0.00,0.0000,0.0000,0.0000,0.0000,0.0000,0.0000,0.0000,0.00,0.00,0.00,1.8120,0.2020,0.4300,1.3840,2.7100,0,0.0000,0.0000,0.0000,0.0000,0.0000,0
9642,-0.0653,-0.0088,0.0186,0.0875,-0.0559,0.0113,-0.11,-0.17,0.42,0,3.521,-27.164,-18.030,-3.520,0.008,-0.028,0.969,0.000,0.000,0.000,0.0210,0,0,0.00,0.00,0.00,0.0000,0.0000,0.0000,0.0000,0.0000,0.0000,0.0000,0.00,0.00,0.00,1.8180,0.1990,0.4300,1.3840,2.7160,0,0.0000,0.0000,0.0000,0.0000,0.0000,0
9693,-0.0614,-0.0119,0.0201,0.0890,-0.0543,0.0193,-0.79,-0.16,0.43,0,3.521,-10.225,21.811,-0.460,-0.015,-0.018,0.980,0.000,0.000,0.000,0.0340,0,0,0.00,0.00,0.00,0.0000,0.0000,0.0000,0.0000,0.0000,0.0000,0.0000,0.00,0.00,0.00,1.8180,0.1990,0.4350,1.3970,2.7160,0,0.0000,0.0000,0.0000,0.0000,0.0000,0
9744,-0.0602,-0.0170,0.0270,0.0878,-0.0470,0.0483,-1.99,-0.60,0.35,0,3.526,1.671,-24.843,0.153,0.003,-0.017,0.952,0.000,0.000,0.000,0.0200,0,0,0.00,0.00,0.00,0.0000,0.0000,0.0000,0.0000,0.0000,0.0000,0.0000,0.00,0.00,0.00,1.8160,0.2080,0.4350,1.3970,2.7190,0,0.0000,0.0000,0.0000,0.0000,0.0000,0
9795,-0.0549,-0.0165,0.0252,0.0923,-0.0315,0.0323,-1.83,0.14,0.40,0,3.521,49.291,-14.759,9.778,0.009,-0.019,1.048,0.000,0.000,0.000,0.0250,0,0,0.00,0.00,0.00,0.0000,0.0000,0.0000,0.0000,0.0000,0.0000,0.0000,0.00,0.00,0.00,1.8160,0.2080,0.3450,1.4120,2.7190,0,0.0000,0.0000,0.0000,0.0000,0.0000,0
9846,-0.0501,-0.0170,0.0259,0.0903,-0.0157,0.0243,-0.33,1.52,0.59,0,3.521,-19.596,23.512,2.291,0.002,-0.024,1.036,0.000,0.000,0.000,0.0270,0,0,0.00,0.00,0.00,0.0000,0.0000,0.0000,0.0000,0.0000,0.0000,0.0000,0.00,0.00,0.00,1.8450,0.1810,0.3450,1.4120,2.7220,0,0.0000,0.0000,0.0000,0.0000,0.0000,0
9897,-0.0458,-0.0178,0.0269,0.0792,-0.0125,0.0141,-0.33,0.44,0.67,0,3.521,1.922,19.617,-3.051,0.005,-0.016,1.027,0.000,0.000,0.000,0.0200,0,0,0.00,0.00,0.00,0.0000,0.0000,0.0000,0.0000,0.0000,0.0000,0.0000,0.00,0.00,0.00,1.8450,0.1810,0.4500,1.3990,2.7220,0,0.0000,0.0000,0.0000,0.0000,0.0000,0
9948,-0.0426,-0.0142,0.0244,0.0748,-0.0077,-0.0033,-0.06,-0.62,0.56,0,3.521,2.387,-14.840,0.884,0.001,-0.010,1.032,0.000,0.000,0.000,0.0160,0,0,0.00,0.00,0.00,0.0000,0.0000,0.0000,0.0000,0.0000,0.0000,0.0000,0.00,0.00,0.00,1.8110,0.1850,0.4500,1.3990,2.7150,0,0.0000,0.0000,0.0000,0.0000,0.0000,0
9999,-0.0399,-0.0095,0.0215,0.0785,-0.0033,0.0119,-0.18,0.11,0.55,0,3.516,-0.898,-9.441,4.564,-0.006,-0.026,0.998,0.000,0.000,0.000,0.0200,0,0,0.00,0.00,0.00,0.0000,0.0000,0.0000,0.0000,0.0000,0.0000,0.0000,0.00,0.00,0.00,1.8110,0.1850,0.4160,1.4030,2.7150,0,0.0000,0.0000,0.0000,0.0000,0.0000,0
10050,-0.0362,-0.0084,0.0211,0.0779,-0.0012,-0.0021,-0.21,0.58,0.71,0,3.516,0.601,-1.653,-0.632,0.001,-0.024,0.972,0.000,0.000,0.000,0.0280,0,0,0.00,0.00,0.00,0.0000,0.0000,0.0000,0.0000,0.0000,0.0000,0.0000,0.00,0.00,0.00,1.8400,0.1790,0.4160,1.4030,2.7160,0,0.0000,0.0000,0.0000,0.0000,0.0000,0
10101,-0.0311,-0.0128,0.0239,0.0737,-0.0022,0.0096,-0.17,0.82,0.66,0,3.521,-1.149,15.537,-1.037,0.006,-0.017,1.007,0.000,0.000,0.000,0.0170,0,0,0.00,0.00,0.00,0.0000,0.0000,0.0000,0.0000,0.0000,0.0000,0.0000,0.00,0.00,0.00,1.8400,0.1790,0.4190,1.4030,2.7160,0,0.0000,0.0000,0.0000,0.0000,0.0000,0
10152,-0.0292,-0.0093,0.0213,0.0660,0.0014,-0.0084,-0.33,0.32,0.57,0,3.516,20.376,16.612,-0.463,-0.019,-0.031,1.034,0.000,0.000,0.000,0.0340,0,0,0.00,0.00,0.00,0.0000,0.0000,0.0000,0.0000,0.0000,0.0000,0.0000,0.00,0.00,0.00,1.8360,0.1710,0.4190,1.4030,2.7170,0,0.0000,0.0000,0.0000,0.0000,0.0000,0
10202,-0.0223,-0.0144,0.0262,0.0656,0.0006,0.0156,-0.07,-0.54,0.50,0,3.521,-4.474,-7.274,3.322,0.010,-0.031,1.061,0.000,0.000,0.000,0.0110,0,0,0.00,0.00,0.00,0.0000,0.0000,0.0000,0.0000,0.0000,0.0000,0.0000,0.00,0.00,0.00,1.8360,0.1710,0.3950,1.4140,2.7170,0,0.0000,0.0000,0.0000,0.0000,0.0000,0
10253,-0.0226,-0.0105,0.0206,0.0678,0.0036,0.0089,-0.16,-0.14,0.52,0,3.510,1.363,-9.771,3.262,0.020,-0.022,1.029,0.000,0.000,0.000,0.0150,0,0,0.00,0.00,0.00,0.0000,0.0000,0.0000,0.0000,0.0000,0.0000,0.0000,0.00,0.00,0.00,1.8370,0.1690,0.3950,1.4140,2.7170,0,0.0000,0.0000,0.0000,0.0000,0.0000,0
10305,-0.0200,-0.0094,0.0184,0.0685,0.0053,-0.0083,-0.02,0.57,0.57,0,3.510,-8.778,-5.816,-6.095,-0.001,-0.013,1.009,0.000,0.000,0.000,0.0270,0,0,0.00,0.00,0.00,0.0000,0.0000,0.0000,0.0000,0.0000,0.0000,0.0000,0.00,0.00,0.00,1.8370,0.1690,0.3830,1.4220,2.7170,0,0.0000,0.0000,0.0000,0.0000,0.0000,0
10355,-0.0156,-0.0100,0.0219,0.0640,0.0054,0.0181,-0.13,1.36,0.31,0,3.521,-20.393,-4.321,1.005,0.023,-0.006,0.951,0.000,0.000,0.000,0.0190,0,0,0.00,0.00,0.00,0.0000,0.0000,0.0000,0.0000,0.0000,0.0000,0.0000,0.00,0.00,0.00,1.8580,0.1570,0.3830,1.4220,2.7130,0,0.0000,0.0000,0.0000,0.0000,0.0000,0
10407,-0.0132,-0.0094,0.0213,0.0528,0.0073,0.0091,-0.66,1.46,0.30,0,3.516,-16.242,11.522,2.419,0.023,-0.059,1.085,0.000,0.000,0.000,0.0250,0,0,0.00,0.00,0.00,0.0000,0.0000,0.0000,0.0000,0.0000,0.0000,0.0000,0.00,0.00,0.00,1.8580,0.1570,0.0000,1.4320,2.7130,0,0.0000,0.0000,0.0000,0.0000,0.0000,0
10457,-0.0096,-0.0092,0.0230,0.0402,0.0117,0.0165,-0.55,1.67,0.23,0,3.516,25.929,11.556,0.245,0.015,-0.020,1.012,0.000,0.000,0.000,0.0240,0,0,0.00,0.00,0.00,0.0000,0.0000,0.0000,0.0000,0.0000,0.0000,0.0000,0.00,0.00,0.00,1.8700,0.1570,0.0000,1.4320,2.7150,0,0.0000,0.0000,0.0000,0.0000,0.0000,0
10509,-0.0077,-0.0086,0.0238,0.0259,0.0154,0.0101,-0.11,1.46,0.23,0,3.510,-3.276,37.459,-1.602,0.018,-0.001,0.977,0.000,0.000,0.000,0.0240,0,0,0.00,0.00,0.00,0.0000,0.0000,0.0000,0.0000,0.0000,0.0000,0.0000,0.00,0.00,0.00,1.8700,0.1570,0.3630,1.4440,2.7150,0,0.0000,0.0000,0.0000,0.0000,0.0000,0
10560,-0.0070,-0.0077,0.0242,0.0145,0.0184,0.0129,-0.83,0.19,0.18,0,3.516,41.944,-12.230,1.580,0.021,-0.031,0.969,0.000,0.000,0.000,0.0250,0,0,0.00,0.00,0.00,0.0000,0.0000,0.0000,0.0000,0.0000,0.0000,0.0000,0.00,0.00,0.00,1.8600,0.1800,0.3630,1.4440,2.7060,0,0.0000,0.0000,0.0000,0.0000,0.0000,0
10611,-0.0058,-0.0068,0.0247,0.0122,0.0246,0.0073,-0.61,-0.01,0.29,0,3.516,2.250,3.648,-3.563,0.019,-0.017,1.052,0.000,0.000,0.000,0.0190,0,0,0.00,0.00,0.00,0.0000,0.0000,0.0000,0.0000,0.0000,0.0000,0.0000,0.00,0.00,0.00,1.8600,0.1800,0.3300,1.4540,2.7060,0,0.0000,0.0000,0.0000,0.0000,0.0000,0
10662,-0.0114,-0.0033,0.0227,0.0094,0.0307,0.0063,-0.53,0.04,0.12,0,3.516,-17.723,14.723,1.131,-0.005,-0.021,0.966,0.000,0.000,0.000,0.0220,0,0,0.00,0.00,0.00,0.0000,0.0000,0.0000,0.0000,0.0000,0.0000,0.0000,0.00,0.00,0.00,1.8560,0.1800,0.3300,1.4540,2.7100,0,0.0000,0.0000,0.0000,0.0000,0.0000,0
10713,-0.0117,-0.0012,0.0227,0.0098,0.0354,0.0113,-0.92,0.02,0.19,0,3.516,24.364,-40.700,0.626,0.003,-0.021,0.987,0.000,0.000,0.000,0.0190,0,0,0.00,0.00,0.00,0.0000,0.0000,0.0000,0.0000,0.0000,0.0000,0.0000,0.00,0.00,0.00,1.8560,0.1800,0.3530,1.4660,2.7100,0,0.0000,0.0000,0.0000,0.0000,0.0000,0
10764,-0.0146,0.0031,0.0213,0.0077,0.0421,-0.0007,-0.40,0.86,0.27,0,3.521,9.145,-7.686,-2.346,0.015,-0.018,0.940,0.000,0.000,0.000,0.0270,0,0,0.00,0.00,0.00,0.0000,0.0000,0.0000,0.0000,0.0000,0.0000,0.0000,0.00,0.00,0.00,1.8810,0.1670,0.3530,1.4660,2.7260,0,0.0000,0.0000,0.0000,0.0000,0.0000,0
10815,-0.0104,0.0020,0.0238,0.0026,0.0440,0.0092,-0.14,1.16,0.27,0,3.510,-12.575,6.230,-1.997,0.011,-0.019,0.980,0.000,0.000,0.000,0.0220,0,0,0.00,0.00,0.00,0.0000,0.0000,0.0000,0.0000,0.0000,0.0000,0.0000,0.00,0.00,0.00,1.8810,0.1670,0.3420,1.4810,2.7260,0,0.0000,0.0000,0.0000,0.0000,0.0000,0
10866,-0.0123,0.0058,0.0233,-0.0074,0.0470,0.0056,-0.14,0.96,0.17,0,3.516,-14.919,-43.227,-4.634,0.259,-0.270,1.085,0.000,0.000,0.000,0.0090,0,0,0.00,0.00,0.00,0.0000,0.0000,0.0000,0.0000,0.0000,0.0000,0.0000,0.00,0.00,0.00,1.8960,0.1670,0.3420,1.4810,2.7210,0,0.0000,0.0000,0.0000,0.0000,0.0000,0
10917,-0.0240,0.0173,0.0182,-0.0230,0.0547,0.0274,-0.92,2.97,-0.15,0,3.510,22.335,-45.969,7.518,-0.003,-0.021,0.975,0.000,0.000,0.000,0.0110,0,0,0.00,0.00,0.00,0.0000,0.0000,0.0000,0.0000,0.0000,0.0000,0.0000,0.00,0.00,0.00,1.8960,0.1670,0.3600,1.4850,2.7210,0,0.0000,0.0000,0.0000,0.0000,0.0000,0
10968,-0.0360,0.0273,0.0156,-0.0532,0.0656,-0.0105,-0.04,5.66,0.10,0,3.516,16.520,29.599,-2.697,0.014,-0.009,1.004,0.000,0.000,0.000,0.0030,0,0,0.00,0.00,0.00,0.0000,0.0000,0.0000,0.0000,0.0000,0.0000,0.0000,0.00,0.00,0.00,1.9480,0.1330,0.3600,1.4850,2.7230,0,0.0000,0.0000,0.0000,0.0000,0.0000,0
11019,-0.0619,0.0425,0.0097,-0.1106,0.0718,-0.0473,1.19,4.62,0.07,0,3.473,16.371,56.138,5.801,0.016,-0.023,0.984,0.000,0.000,0.000,0.0000,-2,-8,0.00,0.00,0.00,0.0000,0.0000,0.0000,0.0000,0.0000,0.0000,0.0000,0.00,0.00,0.00,1.9480,0.1330,0.0000,1.4680,2.7230,0,0.0000,0.0000,0.0000,0.0000,0.0000,0
11070,0.0633,-0.3209,0.0046,-0.0893,-0.1128,-0.0629,1.84,1.84,0.26,0,3.484,-123.526,-18.344,5.800,0.013,-0.022,0.968,0.000,0.000,0.000,0.0000,25,-12,0.00,0.00,0.00,0.0000,0.0000,0.0000,0.0000,0.0000,0.0000,0.0000,0.00,0.00,0.00,1.9210,0.1870,0.0000,1.4680,2.7150,0,0.0000,0.0000,0.0000,0.0000,0.0000,0
11120,0.2030,-0.0799,0.0002,-0.0420,0.0339,-0.0827,-4.10,2.96,0.49,0,3.473,57.155,4.597,-15.433,0.031,0.005,1.082,0.000,0.000,0.000,0.0050,0,0,0.00,0.00,0.00,0.0000,0.0000,0.0000,0.0000,0.0000,0.0000,0.0000,0.00,0.00,0.00,1.9210,0.1870,0.0000,1.4690,2.7150,0,0.0000,0.0000,0.0000,0.0000,0.0000,0
11172,0.2177,-0.1361,0.0015,-0.0510,-0.0059,-0.0066,-3.76,4.79,0.21,0,3.473,0.546,-143.410,-38.274,0.593,-0.254,0.990,0.000,0.000,0.000,0.0060,30,-20,0.00,0.00,0.00,0.0000,0.0000,0.0000,0.0000,0.0000,0.0000,0.0000,0.00,0.00,0.00,1.9470,0.1460,0.0000,1.4690,2.7250,0,0.0000,0.0000,0.0000,0.0000,0.0000,0
11222,0.3353,-0.1028,-0.0025,-0.3090,-0.0102,-0.0528,-2.58,13.06,-1.73,0,3.510,-35.526,-175.356,-87.229,0.333,-0.076,0.901,0.000,0.000,0.000,0.0080,15,8,0.00,0.00,0.00,0.0000,0.0000,0.0000,0.0000,0.0000,0.0000,0.0000,0.00,0.00,0.00,1.9470,0.1460,0.2800,1.5150,2.7250,0,0.0000,0.0000,0.0000,0.0000,0.0000,0
11274,0.3114,0.0516,0.0007,-0.4202,-0.0798,-0.0159,-1.42,19.79,-5.82,0,3.494,-119.874,-107.505,-156.509,0.238,-0.096,1.003,0.000,0.000,0.000,0.0210,25,11,0.00,0.00,0.00,0.0000,0.0000,0.0000,0.0000,0.0000,0.0000,0.0000,0.00,0.00,0.00,1.9410,0.0720,0.2800,1.5150,0.0000,0,0.0000,0.0000,0.0000,0.0000,0.0000,0
11325,0.2917,0.1073,0.0070,-0.6045,-0.0668,-0.0067,-3.92,25.87,-14.15,0,3.500,-179.298,-121.019,-240.342,0.300,-0.113,0.961,0.000,0.000,0.000,0.0260,52,13,0.00,0.00,0.00,0.0000,0.0000,0.0000,0.0000,0.0000,0.0000,0.0000,0.00,0.00,0.00,1.9410,0.0720,0.0000,1.6780,0.0000,0,0.0000,0.0000,0.0000,0.0000,0.0000,0
11376,0.2227,0.1813,0.0144,-0.8136,0.0050,-0.0241,-5.95,33.13,-28.24,0,3.510,-234.882,-162.194,-340.120,0.289,-0.086,0.910,0.000,0.000,0.000,0.0390,22,5,0.00,0.00,0.00,0.0000,0.0000,0.0000,0.0000,0.0000,0.0000,0.0000,0.00,0.00,0.00,0.0000,0.0570,0.0000,1.6780,0.0000,0,0.0000,0.0000,0.0000,0.0000,0.0000,0
11427,0.2103,0.3428,0.0203,-1.0507,0.1465,-0.0839,-5.01,42.69,-48.80,0,3.505,-342.498,-289.659,-308.796,0.710,0.127,1.045,0.000,0.000,0.000,0.0630,58,-10,0.00,0.00,0.00,0.0000,0.0000,0.0000,0.0000,0.0000,0.0000,0.0000,0.00,0.00,0.00,0.0000,0.0570,0.0000,0.0000,0.0000,0,0.0000,0.0000,0.0000,0.0000,0.0000,0
11478,-0.5001,-0.1660,0.0374,-1.1013,0.5020,-0.0940,-7.77,59.75,-65.09,0,3.526,-21.198,-124.665,-74.604,-0.116,-0.020,0.616,0.000,0.000,0.000,0.1190,16,-12,0.00,0.00,0.00,0.0000,0.0000,0.0000,0.0000,0.0000,0.3000,0.3247,9.55,-25.00,1952.59,0.0000,0.0340,0.0000,0.0000,0.0000,0,0.0000,0.0000,0.0000,0.0000,0.0000,0
11529,-0.7108,-0.2157,0.0488,-1.2554,0.9291,-0.2171,-7.19,66.62,-67.35,0,3.436,-414.901,-246.734,-153.310,4.317,-1.281,-0.762,0.000,0.000,0.000,0.1380,38,-17,-7.77,-59.75,-65.09,-0.5001,-0.1660,0.1190,0.0000,0.0000,0.3000,0.3358,21.28,-25.00,2020.52,0.0000,0.0340,1.7450,0.0000,0.0000,0,0.0000,0.0000,0.0000,0.0000,0.0000,0
11580,-0.9357,-0.1339,0.0455,-1.3256,1.0876,-0.5275,-24.73,79.57,-62.42,0,3.447,-265.033,-237.342,34.140,0.687,0.049,0.637,0.000,0.000,0.000,0.9010,22,-42,-31.62,-44.60,-68.66,-0.5448,-0.2413,0.1401,-0.0082,-0.0121,0.3000,0.3699,25.00,-25.00,1872.51,2.6870,0.0420,1.7450,0.0000,0.0000,0,0.0000,0.0000,0.0000,0.0000,0.0000,0
11631,-1.0377,-0.0733,0.0083,-1.2995,1.3098,-1.0030,-145.75,79.17,40.73,0,3.246,26.869,-772.908,-65.714,0.385,0.054,0.182,0.000,0.000,0.000,1.4200,17,-33,-57.47,-23.36,-70.25,-0.2872,-0.7310,0.3098,-0.0082,-0.0121,0.3000,0.4283,25.00,-25.00,-1221.94,2.6870,0.0420,0.0000,0.0000,0.0000,0,0.0000,0.0000,0.0000,0.0000,0.0000,0
11681,-1.6216,0.0225,-0.0194,-1.2638,1.3879,-1.3281,-148.63,40.06,56.24,0,3.457,-173.733,-1104.232,111.372,0.132,0.031,0.217,0.000,0.000,0.000,2.9990,9,-139,-115.00,74.55,8.00,-0.0103,-0.9335,1.2792,-0.0082,-0.0121,0.3000,0.4687,25.00,-25.00,-1687.24,1.4670,0.0250,0.0000,0.0000,0.0000,0,0.0000,0.0000,0.0000,0.0000,0.0000,0
11733,-2.2997,-0.3046,-0.0830,-1.2266,1.6515,-1.9636,-147.59,-13.58,74.20,0,3.684,-10.374,-444.593,-416.147,1.090,0.398,-2.295,0.000,0.000,0.000,2.7060,-5,-16,159.36,63.46,83.38,0.0851,-1.1932,3.3141,-0.0082,-0.0121,0.3000,0.5493,25.00,-25.00,-2226.04,1.4670,0.0250,0.0000,0.0000,0.0000,0,0.0000,0.0000,0.0000,0.0000,0.0000,0
11784,-0.7828,1.5674,-0.0129,-1.3749,1.6653,-0.5730,-147.63,-5.90,88.46,0,3.827,-87.678,-396.384,-376.518,-0.005,-0.046,0.020,0.000,0.000,0.000,0.0000,15,-9,128.42,14.27,109.87,-1.4623,-0.5704,3.6575,-0.0082,-0.0121,0.3000,0.3859,25.00,-25.00,-2653.73,0.0000,0.0000,0.0000,0.0000,0.0000,0,0.0000,0.0000,0.0000,0.0000,0.0000,0
11835,-0.0711,2.5834,0.0252,-1.4872,1.6976,-0.4886,-141.55,-7.66,120.48,0,3.822,-871.863,-151.973,-101.305,-1.597,-0.856,-2.725,0.000,0.000,0.000,2.7120,-14,8,128.77,-13.81,105.25,-2.1659,-0.1879,4.5907,-0.0082,-0.0121,0.3000,0.3696,25.00,-25.00,-3600.00,0.0000,0.0000,0.0960,0.0000,0.0000,0,0.0000,0.0000,0.0000,0.0000,0.0000,0
11885,0.6034,3.8173,0.1034,-0.9218,1.4782,0.2361,-154.81,12.94,123.21,0,3.832,-57.268,102.298,5.328,0.045,0.348,-0.339,0.000,0.000,0.000,2.7420,-21,0,26.73,-17.51,58.60,-3.8464,2.7992,2.5400,-0.0082,-0.0121,0.3000,0.2765,25.00,-0.20,-3600.00,0.0000,0.0000,0.0960,0.0000,0.0000,0,0.0000,0.0000,0.0000,0.0000,0.0000,0
11937,0.3341,4.4223,0.1269,-0.3904,0.9685,0.1559,-153.95,16.37,123.62,0,3.827,45.223,159.188,41.922,-0.190,0.265,-2.640,0.000,0.000,0.000,2.6860,1,1,33.57,-16.44,57.30,-4.3856,4.1649,2.6253,-0.0082,-0.0121,0.3000,0.2808,25.00,5.41,-3600.00,0.0000,0.0000,0.0000,0.0000,0.0000,0,0.0000,0.0000,0.0000,0.0000,0.0000,0
11988,0.1008,4.6814,0.1322,0.1603,0.6625,0.1097,-148.99,23.51,117.92,0,3.832,3.195,-153.714,31.817,-0.236,0.002,-1.908,0.000,0.000,0.000,2.7050,6,-2,41.38,-15.21,62.24,-4.9768,5.2981,2.6292,-0.0082,-0.0121,0.3000,0.2847,25.00,13.80,-3537.67,0.0450,0.0000,0.0000,0.0000,0.0280,0,0.0000,0.0000,0.0000,0.0000,0.0000,0
12046,0.0020,4.7668,0.1380,0.3013,0.5740,0.0929,-151.84,19.23,118.91,0,3.827,-27.376,-10.994,0.871,0.209,0.003,-0.753,0.000,0.000,0.000,2.6930,2,-1,42.87,-2.60,56.54,-5.7221,6.5530,2.5777,-0.0082,-0.0121,0.3000,0.2855,25.00,13.47,-3567.26,0.0450,0.0000,0.0000,0.0000,0.0280,0,0.0000,0.0000,0.0000,0.0000,0.0000,0
12097,-0.0325,4.7831,0.1487,0.5359,0.4312,0.0283,-152.71,20.61,117.35,0,3.838,-9.702,-18.130,0.288,0.042,0.022,-1.034,0.000,0.000,0.000,2.6930,4,-4,44.12,0.56,53.30,-6.2870,7.7533,2.5698,-0.0082,-0.0121,0.3000,0.2904,25.00,20.38,-3520.50,0.0140,0.0100,0.0000,0.0000,0.0120,0,0.0000,0.0000,0.0000,0.0000,0.0000,0
12148,-0.0006,4.7545,0.1660,0.7811,0.3612,0.0265,-153.09,21.23,116.88,0,3.827,2.473,-2.161,0.155,0.014,0.007,-1.014,0.000,0.000,0.000,2.6900,0,0,46.12,0.23,50.29,-6.9657,8.9350,2.5324,-0.0082,-0.0121,0.3000,0.2873,25.00,25.00,-3506.48,0.0140,0.0100,0.0140,0.0380,0.0120,0,0.0000,0.0000,0.0000,0.0000,0.0000,0
12198,0.0596,4.6928,0.1960,1.0106,0.2981,0.0608,-153.53,21.48,116.58,0,3.838,-0.732,-0.819,0.053,0.001,-0.002,-1.015,0.000,0.000,0.000,2.6890,5,1,47.79,-2.86,48.25,-7.7530,10.2295,2.4650,-0.0082,-0.0121,0.3000,0.2780,25.00,25.00,-3497.42,0.0180,0.0160,0.0140,0.0380,0.0090,0,0.0000,0.0000,0.0000,0.0000,0.0000,0
12250,0.1415,4.6251,0.2311,1.2430,0.2437,0.0993,-154.14,21.60,116.27,0,3.832,-0.385,0.499,0.384,0.000,-0.006,-1.018,0.000,0.000,0.000,2.6880,3,0,52.59,-5.99,45.55,-8.3706,10.9267,2.4729,-0.0082,-0.0121,0.3000,0.2672,25.00,25.00,-3488.06,0.0180,0.0160,0.0340,0.0370,0.0090,0,0.0000,0.0000,0.0000,0.0000,0.0000,0
12301,0.2375,4.5511,0.2718,1.4764,0.1850,0.1385,-154.60,21.76,115.99,0,3.838,-0.109,-0.073,0.016,-0.001,-0.004,-1.013,0.000,0.000,0.000,2.6850,1,-3,55.29,-13.46,45.68,-9.4729,11.7072,2.4142,-0.0082,-0.0121,0.3000,0.2552,25.00,25.00,-3479.65,0.0280,0.0170,0.0340,0.0370,0.0150,0,0.0000,0.0000,0.0000,0.0000,0.0000,0
12352,0.3406,4.4937,0.3081,1.7155,0.1271,0.1515,-154.84,21.96,115.75,0,3.827,0.101,0.072,-0.205,0.000,-0.003,-1.014,0.000,0.000,0.000,2.6900,8,0,59.37,-24.87,48.83,-11.1010,11.9341,2.3952,-0.0082,-0.0121,0.3000,0.2470,25.00,25.00,-3472.61,0.0280,0.0170,0.0290,0.0320,0.0150,0,0.0000,0.0000,0.0000,0.0000,0.0000,0
12402,0.4475,4.4227,0.3535,1.9408,0.0474,0.1854,-155.15,22.12,115.51,0,3.838,0.159,-0.047,0.097,0.001,-0.002,-1.016,0.000,0.000,0.000,2.6970,2,-2,66.00,-36.29,56.08,-13.2545,11.3504,2.4606,-0.0082,-0.0121,0.3000,0.2347,25.00,25.00,-3465.45,0.0180,0.0170,0.0290,0.0320,0.0060,0,0.0000,0.0000,0.0000,0.0000,0.0000,0
12454,0.5679,4.3711,0.3904,2.1811,-0.0207,0.1823,-155.30,22.34,115.30,0,3.832,-0.002,0.164,-0.063,0.000,-0.002,-1.012,0.000,0.000,0.000,2.7030,-6,0,72.15,-42.29,63.34,-15.3388,10.8840,2.5526,-0.0082,-0.0121,0.3000,0.2281,25.00,25.00,-3459.12,0.0180,0.0170,0.0310,0.0340,0.0060,0,0.0000,0.0000,0.0000,0.0000,0.0000,0
12505,0.6999,4.3133,0.4320,2.4193,-0.0950,0.1869,-155.50,22.52,115.10,0,3.838,-0.046,0.107,0.179,-0.001,-0.002,-1.014,0.000,0.000,0.000,2.6870,5,1,75.12,-43.82,66.86,-17.0097,10.9040,2.6039,-0.0082,-0.0121,0.3000,0.2197,25.00,25.00,-3453.03,0.0170,0.0170,0.0310,0.0340,0.0150,0,0.0000,0.0000,0.0000,0.0000,0.0000,0
12557,0.8397,4.2483,0.4786,2.6505,-0.1797,0.1986,-155.59,22.70,114.92,0,3.832,0.245,-0.123,-0.074,0.000,-0.005,-1.018,0.000,0.000,0.000,2.6870,0,-4,76.34,-43.49,68.10,-18.4675,11.1396,2.6044,-0.0082,-0.0121,0.3000,0.2097,25.00,25.00,-3447.48,0.0170,0.0170,0.0310,0.0330,0.0150,0,0.0000,0.0000,0.0000,0.0000,0.0000,0
12608,1.0001,4.1751,0.5323,2.8826,-0.2526,0.2200,-155.81,22.83,114.74,0,3.843,-0.179,0.218,0.134,0.002,-0.004,-1.017,0.000,0.000,0.000,2.6760,1,-2,77.26,-43.30,69.08,-19.8767,11.4840,2.5804,-0.0082,-0.0121,0.3000,0.1972,25.00,25.00,-3442.11,0.0280,0.0180,0.0310,0.0330,0.0090,0,0.0000,0.0000,0.0000,0.0000,0.0000,0
12658,1.1579,4.1155,0.5755,3.1136,-0.3395,0.2073,-155.88,23.03,114.57,0,3.832,0.095,-0.019,-0.104,0.000,-0.005,-1.015,0.000,0.000,0.000,2.6950,0,1,77.92,-42.90,69.75,-21.2765,11.8175,2.5411,-0.0082,-0.0121,0.3000,0.1904,25.00,25.00,-3437.02,0.0280,0.0180,0.0310,0.0340,0.0090,0,0.0000,0.0000,0.0000,0.0000,0.0000,0
12709,1.3274,4.0499,0.6228,3.3419,-0.4291,0.2003,-155.99,23.20,114.41,0,3.843,0.183,0.127,-0.049,0.002,-0.000,-1.016,0.000,0.000,0.000,2.6940,-1,5,78.65,-42.68,70.51,-22.7851,12.1282,2.5054,-0.0082,-0.0121,0.3000,0.1822,25.00,25.00,-3432.23,0.0200,0.0180,0.0310,0.0340,0.0150,0,0.0000,0.0000,0.0000,0.0000,0.0000,0
12761,1.5082,3.9901,0.6643,3.5768,-0.5153,0.1745,-155.99,23.40,114.26,0,3.838,-0.005,0.095,-0.038,0.002,-0.005,-1.015,0.000,0.000,0.000,2.6940,0,-3,79.27,-42.47,71.04,-24.3678,12.4611,2.4625,-0.0082,-0.0121,0.3000,0.1772,25.00,25.00,-3427.80,0.0200,0.0180,0.0300,0.0320,0.0150,0,0.0000,0.0000,0.0000,0.0000,0.0000,0
12812,1.7041,3.9044,0.7273,3.7953,-0.6091,0.1919,-156.20,23.54,114.11,0,3.843,-0.003,0.153,0.074,0.002,-0.003,-1.012,0.000,0.000,0.000,2.6760,-1,3,80.53,-43.23,72.24,-25.9592,12.8474,2.4241,-0.0082,-0.0121,0.3000,0.1634,25.00,25.00,-3423.26,0.0190,0.0190,0.0300,0.0320,0.0080,0,0.0000,0.0000,0.0000,0.0000,0.0000,0
12863,1.9000,3.8181,0.7891,4.0018,-0.7070,0.2017,-156.41,23.61,113.98,0,3.838,-0.018,-0.103,0.200,-0.002,-0.002,-1.015,0.000,0.000,0.000,2.6870,-3,5,81.56,-43.90,73.03,-27.5796,13.2861,2.3805,-0.0082,-0.0121,0.3000,0.1507,25.00,25.00,-3419.26,0.0190,0.0190,0.0350,0.0390,0.0080,0,0.0000,0.0000,0.0000,0.0000,0.0000,0
12914,2.1075,3.7420,0.8404,4.2190,-0.7978,0.1831,-156.48,23.76,113.84,0,3.843,-0.072,-0.073,0.019,0.002,-0.005,-1.016,0.000,0.000,0.000,2.6830,0,1,82.79,-45.01,73.90,-29.2485,13.8053,2.3499,-0.0082,-0.0121,0.3000,0.1430,25.00,25.00,-3415.17,0.0160,0.0190,0.0350,0.0390,0.0150,0,0.0000,0.0000,0.0000,0.0000,0.0000,0
12965,2.3210,3.6518,0.9045,4.4196,-0.8933,0.1883,-156.64,23.88,113.72,0,3.838,-0.167,-0.354,-0.124,0.000,-0.001,-1.017,0.000,0.000,0.000,2.6990,0,1,84.41,-46.45,75.12,-30.9239,14.3590,2.3251,-0.0082,-0.0121,0.3000,0.1303,25.00,25.00,-3411.57,0.0160,0.0190,0.0340,0.0370,0.0150,0,0.0000,0.0000,0.0000,0.0000,0.0000,0
13017,2.5426,3.5687,0.9576,4.6292,-0.9891,0.1663,-156.70,24.03,113.60,0,3.843,-0.049,0.122,0.206,0.002,-0.004,-1.015,0.000,0.000,0.000,2.6920,0,2,86.24,-48.03,76.54,-32.6559,14.9515,2.3118,-0.0082,-0.0121,0.3000,0.1226,25.00,25.00,-3407.97,0.0190,0.0130,0.0340,0.0370,0.0080,0,0.0000,0.0000,0.0000,0.0000,0.0000,0
13068,2.7689,3.4732,1.0226,4.8223,-1.0885,0.1651,-156.85,24.13,113.49,0,3.838,-0.140,0.008,-0.115,0.002,-0.002,-1.015,0.000,0.000,0.000,2.6830,0,2,88.00,-49.27,77.91,-34.3774,15.4956,2.3041,-0.0082,-0.0121,0.3000,0.1105,25.00,25.00,-3404.69,0.0190,0.0130,0.0370,0.0370,0.0080,0,0.0000,0.0000,0.0000,0.0000,0.0000,0
13119,3.0080,3.3916,1.0649,5.0381,-1.1870,0.1150,-156.82,24.36,113.36,0,3.843,-0.195,0.018,0.176,0.001,-0.005,-1.016,0.000,0.000,0.000,2.6970,-8,1,89.65,-50.23,79.26,-36.1168,16.0043,2.2966,-0.0082,-0.0121,0.3000,0.1079,25.00,25.00,-3400.95,0.0200,0.0180,0.0370,0.0370,0.0160,0,0.0000,0.0000,0.0000,0.0000,0.0000,0
13170,3.2531,3.2968,1.1219,5.2377,-1.2865,0.0922,-156.96,24.50,113.26,0,3.843,-0.075,0.003,0.086,0.002,-0.002,-1.015,0.000,0.000,0.000,2.6980,-5,-1,91.36,-51.30,80.77,-37.8991,16.5967,2.2992,-0.0082,-0.0121,0.3000,0.0996,25.00,25.00,-3397.74,0.0200,0.0180,0.0310,0.0360,0.0160,0,0.0000,0.0000,0.0000,0.0000,0.0000,0
13221,3.5022,3.1917,1.1930,5.4212,-1.3837,0.0919,-157.10,24.57,113.17,0,3.848,-0.032,-0.007,-0.025,0.001,-0.004,-1.016,0.000,0.000,0.000,2.6810,0,-1,93.04,-52.03,82.34,-39.6976,17.0911,2.3045,-0.0082,-0.0121,0.3000,0.0862,25.00,25.00,-3395.13,0.0170,0.0140,0.0310,0.0360,0.0070,0,0.0000,0.0000,0.0000,0.0000,0.0000,0
13272,3.7661,3.0897,1.2493,5.6204,-1.4861,0.0587,-157.11,24.73,113.06,0,3.838,-0.030,-0.128,0.073,-0.001,-0.005,-1.015,0.000,0.000,0.000,2.6880,-4,3,94.42,-52.22,83.66,-41.5107,17.4478,2.3047,-0.0082,-0.0121,0.3000,0.0791,25.00,25.00,-3391.95,0.0170,0.0140,0.0310,0.0320,0.0070,0,0.0000,0.0000,0.0000,0.0000,0.0000,0
13322,4.0258,2.9788,1.3188,5.7970,-1.5869,0.0478,-157.29,24.78,112.99,0,3.848,-0.022,0.262,0.240,0.000,-0.003,-1.014,0.000,0.000,0.000,2.6780,0,-2,95.48,-52.27,84.67,-43.3412,17.8120,2.3133,-0.0082,-0.0121,0.3000,0.0672,25.00,25.00,-3389.63,0.0180,0.0170,0.0310,0.0320,0.0140,0,0.0000,0.0000,0.0000,0.0000,0.0000,0
13374,4.2915,2.8657,1.3884,5.9710,-1.6868,0.0338,-157.38,24.90,112.90,0,3.843,-0.234,0.137,0.135,0.003,-0.000,-1.015,0.000,0.000,0.000,2.6750,-3,-3,96.66,-52.30,85.82,-45.2397,18.1839,2.3116,-0.0082,-0.0121,0.3000,0.0555,25.00,25.00,-3386.93,0.0180,0.0170,0.0310,0.0340,0.0140,0,0.0000,0.0000,0.0000,0.0000,0.0000,0
13426,4.5753,2.7606,1.4292,6.1736,-1.7916,-0.0303,-157.35,25.13,112.78,0,3.848,-0.161,-0.295,-0.052,-0.000,-0.005,-1.016,0.000,0.000,0.000,2.7020,-3,0,97.75,-52.44,86.87,-47.1740,18.6339,2.3124,-0.0082,-0.0121,0.3000,0.0547,25.00,25.00,-3383.48,0.0170,0.0180,0.0310,0.0340,0.0080,0,0.0000,0.0000,0.0000,0.0000,0.0000,0
13477,4.8541,2.6415,1.5039,6.3405,-1.8880,-0.0396,-157.49,25.16,112.73,0,3.843,-0.290,-0.072,0.262,-0.000,-0.004,-1.016,0.000,0.000,0.000,2.6940,0,-2,98.77,-52.55,87.77,-49.1170,19.0839,2.3299,-0.0082,-0.0121,0.3000,0.0416,25.00,25.00,-3381.87,0.0170,0.0180,0.0320,0.0350,0.0080,0,0.0000,0.0000,0.0000,0.0000,0.0000,0
13527,5.1323,2.5154,1.5755,6.5015,-1.9946,-0.0572,-157.61,25.27,112.65,0,3.848,0.002,0.165,-0.106,0.001,-0.002,-1.014,0.000,0.000,0.000,2.6880,0,1,99.73,-52.60,88.61,-51.0322,19.5217,2.3432,-0.0082,-0.0121,0.3000,0.0300,25.00,25.00,-3379.63,0.0170,0.0180,0.0320,0.0350,0.0170,0,0.0000,0.0000,0.0000,0.0000,0.0000,0
13578,5.4265,2.3956,1.6438,6.6725,-2.0865,-0.0835,-157.69,25.33,112.58,0,3.843,0.047,0.153,0.080,-0.002,-0.004,-1.014,0.000,0.000,0.000,2.6940,3,0,100.48,-52.58,89.18,-53.0133,19.9963,2.3498,-0.0082,-0.0121,0.3000,0.0199,25.00,25.00,-3377.48,0.0170,0.0180,0.0330,0.0360,0.0170,0,0.0000,0.0000,0.0000,0.0000,0.0000,0
13630,5.7109,2.2607,1.7175,6.8236,-2.1965,-0.1031,-157.82,25.43,112.52,0,3.848,0.062,-0.077,-0.045,0.003,-0.001,-1.013,0.000,0.000,0.000,2.6900,-1,6,101.22,-52.49,89.71,-55.0503,20.4649,2.3563,-0.0082,-0.0121,0.3000,0.0081,25.00,25.00,-3375.62,0.0170,0.0180,0.0330,0.0360,0.0060,0,0.0000,0.0000,0.0000,0.0000,0.0000,0
13681,6.0200,2.1377,1.7804,6.9976,-2.2873,-0.1420,-157.88,25.48,112.47,0,3.843,-0.029,-0.145,0.243,0.002,-0.003,-1.015,0.000,0.000,0.000,2.6970,1,0,101.62,-52.39,89.82,-57.1041,21.0127,2.3662,-0.0082,-0.0121,0.3000,0.0004,25.00,25.00,-3373.95,0.0170,0.0180,0.0300,0.0370,0.0060,0,0.0000,0.0000,0.0000,0.0000,0.0000,0
13731,6.3273,1.9990,1.8515,7.1560,-2.3927,-0.1714,-157.97,25.61,112.40,0,3.848,-0.192,0.271,0.259,0.003,-0.004,-1.016,0.000,0.000,0.000,2.6920,6,0,102.34,-52.52,90.25,-59.1138,21.6103,2.3780,-0.0082,-0.0121,0.3000,-0.0099,25.00,25.00,-3372.05,0.0220,0.0220,0.0300,0.0370,0.0170,0,0.0000,0.0000,0.0000,0.0000,0.0000,0
13783,6.6362,1.8642,1.9246,7.3105,-2.4881,-0.1986,-158.02,25.69,112.35,0,3.843,-0.117,0.018,-0.238,0.001,-0.003,-1.013,0.000,0.000,0.000,2.6960,2,4,102.98,-52.46,90.62,-61.2100,22.1494,2.3803,-0.0082,-0.0121,0.3000,-0.0207,25.00,25.00,-3370.38,0.0220,0.0220,0.0340,0.0370,0.0170,0,0.0000,0.0000,0.0000,0.0000,0.0000,0
13833,6.9660,1.7286,1.9729,7.4895,-2.5910,-0.2620,-158.02,25.83,112.28,0,3.848,0.142,0.188,-0.104,0.001,-0.002,-1.017,0.000,0.000,0.000,2.6950,3,4,103.43,-52.46,90.75,-63.2780,22.7533,2.3917,-0.0082,-0.0121,0.3000,-0.0230,25.00,25.00,-3368.26,0.0190,0.0180,0.0340,0.0370,0.0070,0,0.0000,0.0000,0.0000,0.0000,0.0000,0
13885,7.2874,1.5881,2.0437,7.6430,-2.6874,-0.2953,-158.10,25.92,112.23,0,3.843,-0.062,-0.143,-0.037,0.002,-0.004,-1.015,0.000,0.000,0.000,2.6960,6,2,103.91,-52.46,90.90,-65.4401,23.3918,2.3957,-0.0082,-0.0121,0.3000,-0.0328,-25.00,25.00,-3366.79,0.0190,0.0180,0.0280,0.0350,0.0070,0,0.0000,0.0000,0.0000,0.0000,0.0000,0
13936,7.6093,1.4463,2.1228,7.7875,-2.7781,-0.3185,-158.17,25.97,112.19,0,3.848,0.092,-0.037,-0.229,-0.001,-0.004,-1.015,0.000,0.000,0.000,2.6890,8,-7,104.35,-52.37,91.01,-67.5795,23.9682,2.4021,-0.0082,-0.0121,0.3000,-0.0452,-25.00,25.00,-3365.58,0.0200,0.0150,0.0280,0.0350,0.0150,0,0.0000,0.0000,0.0000,0.0000,0.0000,0
13987,7.9487,1.3078,2.1904,7.9465,-2.8653,-0.3593,-158.17,26.11,112.12,0,3.843,0.076,-0.039,0.058,0.002,-0.003,-1.016,0.000,0.000,0.000,2.6740,-6,4,105.13,-52.49,91.51,-69.7038,24.5829,2.4018,-0.0082,-0.0121,0.3000,-0.0536,-25.00,25.00,-3363.57,0.0200,0.0150,0.0310,0.0350,0.0150,0,0.0000,0.0000,0.0000,0.0000,0.0000,0
14038,8.2850,1.1539,2.2526,8.0984,-2.9706,-0.4080,-158.35,26.16,112.10,0,3.848,0.064,-0.033,0.064,0.000,-0.004,-1.015,0.000,0.000,0.000,2.6810,-1,0,105.51,-52.79,91.55,-71.9189,25.4756,2.4024,-0.0082,-0.0121,0.3000,-0.0601,-25.00,25.00,-3363.10,0.0180,0.0130,0.0310,0.0350,0.0070,0,0.0000,0.0000,0.0000,0.0000,0.0000,0
14090,8.6191,1.0002,2.3282,8.2377,-3.0669,-0.4403,-158.40,26.26,112.06,0,3.843,0.090,0.199,-0.002,0.002,-0.002,-1.017,0.000,0.000,0.000,2.6840,-5,5,105.99,-52.94,91.75,-74.1796,26.2635,2.4023,-0.0082,-0.0121,0.3000,-0.0709,-25.00,25.00,-3361.72,0.0180,0.0130,0.0340,0.0350,0.0070,0,0.0000,0.0000,0.0000,0.0000,0.0000,0
14141,8.9758,0.8504,2.3882,8.3971,-3.1589,-0.4937,-158.43,26.33,112.02,0,3.848,-0.111,0.123,0.064,0.000,-0.003,-1.014,0.000,0.000,0.000,2.6900,1,-1,106.27,-53.04,91.76,-76.4546,27.0768,2.4099,-0.0082,-0.0121,0.3000,-0.0765,-25.00,25.00,-3360.47,0.0160,0.0180,0.0340,0.0350,0.0150,0,0.0000,0.0000,0.0000,0.0000,0.0000,0
14192,9.2433,0.7246,2.4713,8.4898,-3.2267,-0.4947,-158.47,26.43,111.97,0,3.843,-0.142,-0.066,-0.086,0.001,-0.004,-1.014,0.000,0.000,0.000,2.6910,2,-3,106.70,-53.01,91.99,-78.7202,27.7455,2.4153,-0.0082,-0.0121,0.3000,-0.0921,-25.00,25.00,-3359.17,0.0160,0.0180,0.0310,0.0370,0.0150,0,0.0000,0.0000,0.0000,0.0000,0.0000,0
14243,9.6873,0.5393,2.5376,8.6828,-3.3373,-0.5688,-158.49,26.51,111.93,0,3.848,0.040,-0.069,0.015,0.001,-0.000,-1.016,0.000,0.000,0.000,2.6800,2,-3,107.12,-52.95,92.26,-81.0041,28.3856,2.4197,-0.0082,-0.0121,0.3000,-0.0966,-25.00,25.00,-3357.91,0.0170,0.0170,0.0310,0.0370,0.0080,0,0.0000,0.0000,0.0000,0.0000,0.0000,0
14294,10.0418,0.3703,2.6051,8.8211,-3.4390,-0.6159,-158.55,26.61,111.90,0,3.843,-0.241,-0.052,0.222,0.000,-0.003,-1.015,0.000,0.000,0.000,2.6910,0,-1,107.46,-52.84,92.44,-83.3190,29.0206,2.4192,-0.0082,-0.0121,0.3000,-0.1043,-25.00,25.00,-3356.98,0.0170,0.0170,0.0340,0.0340,0.0080,0,0.0000,0.0000,0.0000,0.0000,0.0000,0
14345,10.4084,0.2106,2.6753,8.9626,-3.5264,-0.6610,-158.61,26.67,111.87,0,3.843,-0.274,-0.266,0.016,-0.001,-0.004,-1.015,0.000,0.000,0.000,2.6960,1,0,107.76,-52.74,92.58,-85.6717,29.7105,2.4255,-0.0082,-0.0121,0.3000,-0.1127,-25.00,25.00,-3356.11,0.0200,0.0180,0.0340,0.0340,0.0140,0,0.0000,0.0000,0.0000,0.0000,0.0000,0
14397,10.7106,0.0857,2.7304,9.0797,-3.5917,-0.6986,-158.54,26.80,111.81,0,3.848,-0.081,0.133,0.092,0.001,-0.004,-1.015,0.000,0.000,0.000,2.6920,-1,0,107.99,-52.59,92.64,-88.1020,30.3963,2.4318,-0.0082,-0.0121,0.3000,-0.1190,-25.00,25.00,-3354.18,0.0200,0.0180,0.0340,0.0360,0.0140,0,0.0000,0.0000,0.0000,0.0000,0.0000,0
14448,11.0835,-0.0852,2.7969,9.2183,-3.6865,-0.7490,-158.60,26.90,111.78,0,3.848,-0.076,-0.251,-0.425,-0.002,-0.004,-1.016,0.000,0.000,0.000,2.6870,-1,1,108.21,-52.50,92.67,-90.5223,31.1635,2.4392,-0.0082,-0.0121,0.3000,-0.1261,-25.00,25.00,-3353.41,0.0230,0.0150,0.0340,0.0360,0.0080,0,0.0000,0.0000,0.0000,0.0000,0.0000,0
14499,11.4783,-0.2582,2.8455,9.3745,-3.7835,-0.8199,-158.57,27.03,111.73,0,3.843,-0.009,-0.043,-0.061,0.001,-0.004,-1.016,0.000,0.000,0.000,2.6950,2,-3,108.36,-52.43,92.63,-92.9717,31.9528,2.4432,-0.0082,-0.0121,0.3000,-0.1277,-25.00,25.00,-3351.84,0.0230,0.0150,0.0320,0.0350,0.0080,0,0.0000,0.0000,0.0000,0.0000,0.0000,0
14549,11.8776,-0.4362,2.8939,9.5281,-3.8829,-0.8905,-158.52,27.21,111.67,0,3.843,-0.054,-0.303,0.009,0.002,-0.004,-1.015,0.000,0.000,0.000,2.6900,0,-4,108.64,-52.34,92.71,-95.3787,32.7067,2.4496,-0.0082,-0.0121,0.3000,-0.1292,-25.00,25.00,-3349.97,0.0210,0.0160,0.0320,0.0350,0.0140,0,0.0000,0.0000,0.0000,0.0000,0.0000,0
14600,12.2672,-0.6000,2.9720,9.6618,-3.9596,-0.9294,-158.58,27.24,111.66,0,3.843,-0.179,0.279,0.122,0.001,-0.002,-1.017,0.000,0.000,0.000,2.6870,-5,-1,108.93,-52.37,92.80,-97.8530,33.5740,2.4503,-0.0082,-0.0121,0.3000,-0.1398,-25.00,25.00,-3349.82,0.0210,0.0160,0.0330,0.0350,0.0140,0,0.0000,0.0000,0.0000,0.0000,0.0000,0
14651,12.6891,-0.7707,3.0171,9.8243,-4.0453,-1.0048,-158.56,27.34,111.62,0,3.848,-0.112,0.071,-0.056,0.002,-0.003,-1.015,0.000,0.000,0.000,2.6900,4,1,109.18,-52.47,92.83,-100.3754,34.5905,2.4536,-0.0082,-0.0121,0.3000,-0.1402,-25.00,25.00,-3348.61,0.0210,0.0170,0.0330,0.0350,0.0080,0,0.0000,0.0000,0.0000,0.0000,0.0000,0
14703,13.0854,-0.9650,3.0877,9.9516,-4.1461,-1.0529,-158.57,27.43,111.60,0,3.848,-0.020,-0.015,-0.135,0.001,-0.005,-1.014,0.000,0.000,0.000,2.6940,0,0,109.21,-52.15,92.71,-102.9827,35.2911,2.4552,-0.0082,-0.0121,0.3000,-0.1483,-25.00,25.00,-3348.02,0.0210,0.0170,0.0330,0.0350,0.0080,0,0.0000,0.0000,0.0000,0.0000,0.0000,0
14754,13.5007,-1.1352,3.1648,10.0879,-4.2201,-1.0951,-158.56,27.53,111.57,0,3.843,-0.322,0.049,-0.072,0.000,-0.002,-1.014,0.000,0.000,0.000,2.6910,0,3,109.98,-52.29,93.32,-105.4461,36.1251,2.4493,-0.0082,-0.0121,0.3000,-0.1583,-25.00,25.00,-3347.19,0.0190,0.0160,0.0330,0.0350,0.0130,0,0.0000,0.0000,0.0000,0.0000,0.0000,0
14805,13.9293,-1.3252,3.2070,10.2399,-4.3158,-1.1741,-158.60,27.58,111.57,0,3.843,-0.143,-0.064,-0.196,0.002,-0.004,-1.016,0.000,0.000,0.000,2.6880,2,1,108.18,-51.34,91.23,-108.4371,37.0922,2.4987,-0.0082,-0.0121,0.3000,-0.1577,-25.00,25.00,-3347.07,0.0190,0.0160,0.0340,0.0360,0.0130,0,0.0000,0.0000,0.0000,0.0000,0.0000,0
14856,14.3808,-1.5166,3.2327,10.4077,-4.4116,-1.2693,-158.49,27.77,111.50,0,3.853,-0.046,0.137,0.095,0.002,-0.005,-1.015,0.000,0.000,0.000,2.6810,6,0,108.26,-51.25,91.12,-111.0589,37.9922,2.4910,-0.0082,-0.0121,0.3000,-0.1523,-25.00,25.00,-3344.88,0.0270,0.0170,0.0340,0.0360,0.0080,0,0.0000,0.0000,0.0000,0.0000,0.0000,0
14906,14.8097,-1.7208,3.2778,10.5489,-4.5141,-1.3441,-158.44,27.93,111.45,0,3.848,0.046,-0.219,-0.392,0.001,-0.003,-1.015,0.000,0.000,0.000,2.6860,0,0,108.36,-51.07,91.00,-113.6395,38.8394,2.4820,-0.0082,-0.0121,0.3000,-0.1528,-25.00,25.00,-3343.60,0.0270,0.0170,0.0330,0.0340,0.0080,0,0.0000,0.0000,0.0000,0.0000,0.0000,0
14957,15.2458,-1.8844,3.3535,10.6850,-4.5743,-1.3880,-158.42,28.01,111.43,0,3.853,-0.073,0.392,0.267,0.001,-0.003,-1.014,0.000,0.000,0.000,2.6050,6,0,109.05,-51.33,91.44,-116.1752,39.8648,2.4652,-0.0082,-0.0121,0.3000,-0.1623,-25.00,25.00,-3342.83,0.0220,0.0160,0.0330,0.0340,0.0150,0,0.0000,0.0000,0.0000,0.0000,0.0000,0
15009,15.6718,-2.0899,3.4127,10.8115,-4.6715,-1.4490,-158.50,28.04,111.44,0,3.848,-0.295,0.159,-0.006,0.001,-0.005,-1.014,0.000,0.000,0.000,2.4680,-1,0,107.55,-50.54,89.64,-119.2554,40.9874,2.4672,-0.0082,-0.0121,0.3000,-0.1669,-25.00,25.00,-3343.09,0.0220,0.0160,0.0280,0.0350,0.0150,0,0.0000,0.0000,0.0000,0.0000,0.0000,0
15059,16.1124,-2.2661,3.4839,10.9428,-4.7390,-1.4986,-158.57,28.07,111.45,0,3.853,0.057,0.532,0.155,-0.002,-0.003,-1.016,0.000,0.000,0.000,1.3400,0,0,107.07,-50.48,89.10,-121.9966,42.0168,2.3768,-0.0082,-0.0121,0.3000,-0.1750,-25.00,25.00,-3343.37,0.0200,0.0140,0.0280,0.0350,0.0080,0,0.0000,0.0000,0.0000,0.0000,0.0000,0
15111,16.5358,-2.4646,3.5591,11.0574,-4.8236,-1.5459,-158.55,28.20,111.41,0,3.848,-0.194,0.117,0.096,0.001,-0.004,-1.016,0.000,0.000,0.000,1.7250,5,3,103.72,-49.11,87.19,-125.3551,41.3426,1.7766,-0.0082,-0.0121,0.3000,-0.1841,-25.00,25.00,-3342.44,0.0200,0.0140,0.0300,0.0370,0.0080,0,0.0000,0.0000,0.0000,0.0000,0.0000,0
15162,16.9827,-2.6691,3.6131,11.1884,-4.9128,-1.6134,-158.60,28.20,111.42,0,3.853,0.284,0.205,-0.154,0.001,-0.002,-1.015,0.000,0.000,0.000,2.6720,-1,-3,101.14,-48.53,83.84,-128.7566,43.9072,1.6894,-0.0082,-0.0121,0.3000,-0.1871,-25.00,25.00,-3342.73,0.0210,0.0170,0.0300,0.0370,0.0140,0,0.0000,0.0000,0.0000,0.0000,0.0000,0
15213,17.4555,-2.8590,3.6583,11.3354,-4.9869,-1.6898,-158.59,28.33,111.40,0,3.848,-0.040,0.101,-0.230,0.002,-0.003,-1.016,0.000,0.000,0.000,2.6900,2,0,104.63,-50.36,85.18,-130.3279,47.1386,1.9108,-0.0082,-0.0121,0.3000,-0.1873,-25.00,25.00,-3342.01,0.0210,0.0170,0.0310,0.0360,0.0140,0,0.0000,0.0000,0.0000,0.0000,0.0000,0
15264,17.8918,-3.0560,3.7371,11.4460,-5.0635,-1.7340,-158.64,28.34,111.41,0,3.853,-0.302,-0.102,0.040,0.001,-0.003,-1.014,0.000,0.000,0.000,2.6910,0,-1,107.16,-51.32,86.37,-132.2786,49.3786,2.1104,-0.0082,-0.0121,0.3000,-0.1975,-25.00,25.00,-3342.33,0.0240,0.0140,0.0310,0.0360,0.0070,0,0.0000,0.0000,0.0000,0.0000,0.0000,0
15315,18.3581,-3.2667,3.7828,11.5794,-5.1506,-1.8098,-158.64,28.46,111.39,0,3.848,0.175,0.212,-0.210,0.002,-0.005,-1.014,0.000,0.000,0.000,2.7010,-4,0,108.73,-51.64,87.37,-134.6797,50.7460,2.2697,-0.0082,-0.0121,0.3000,-0.1979,-25.00,25.00,-3341.82,0.0240,0.0140,0.0310,0.0320,0.0070,0,0.0000,0.0000,0.0000,0.0000,0.0000,0
15366,18.8443,-3.4722,3.8180,11.7241,-5.2320,-1.8956,-158.62,28.56,111.37,0,3.853,0.120,-0.010,-0.007,0.001,-0.005,-1.016,0.000,0.000,0.000,2.6860,0,-1,109.67,-51.67,88.14,-137.4057,51.7103,2.3967,-0.0082,-0.0121,0.3000,-0.1953,-25.00,25.00,-3341.23,0.0190,0.0160,0.0310,0.0320,0.0140,0,0.0000,0.0000,0.0000,0.0000,0.0000,0
15417,19.3446,-3.7072,3.8260,11.8775,-5.3359,-2.0042,-158.49,28.77,111.31,0,3.848,-0.123,-0.097,-0.109,0.001,-0.004,-1.016,0.000,0.000,0.000,2.6930,0,1,110.08,-51.48,88.56,-140.3201,52.4501,2.4800,-0.0082,-0.0121,0.3000,-0.1851,-25.00,25.00,-3339.35,0.0190,0.0160,0.0290,0.0350,0.0140,0,0.0000,0.0000,0.0000,0.0000,0.0000,0
15468,19.8127,-3.8927,3.9053,11.9947,-5.3946,-2.0477,-158.54,28.75,111.33,0,3.853,-0.136,0.113,-0.266,0.002,-0.003,-1.016,0.000,0.000,0.000,2.6910,0,0,110.18,-51.24,88.73,-143.3334,53.2068,2.5392,-0.0082,-0.0121,0.3000,-0.1954,-25.00,25.00,-3339.96,0.0210,0.0130,0.0290,0.0350,0.0070,0,0.0000,0.0000,0.0000,0.0000,0.0000,0
15518,20.2897,-4.1190,3.9525,12.1181,-5.4855,-2.1201,-158.47,28.94,111.28,0,3.848,-0.051,-0.190,0.014,0.000,-0.004,-1.017,0.000,0.000,0.000,2.7000,0,0,110.51,-51.15,89.11,-146.2038,53.9600,2.5570,-0.0082,-0.0121,0.3000,-0.1965,-25.00,25.00,-3338.37,0.0210,0.0130,0.0320,0.0330,0.0070,0,0.0000,0.0000,0.0000,0.0000,0.0000,0
15570,20.8512,-4.3648,3.9131,12.3066,-5.5918,-2.2688,-158.25,29.21,111.17,0,3.853,-0.045,-0.109,0.230,0.003,-0.003,-1.016,0.000,0.000,0.000,2.6900,-2,1,110.78,-51.05,89.40,-149.2195,54.7947,2.5628,-0.0082,-0.0121,0.3000,-0.1730,-25.00,25.00,-3335.23,0.0150,0.0170,0.0320,0.0330,0.0180,0,0.0000,0.0000,0.0000,0.0000,0.0000,0
15621,21.3644,-4.5822,3.9614,12.4411,-5.6690,-2.3375,-158.37,29.17,111.24,0,3.848,-0.068,-0.141,-0.113,0.000,-0.004,-1.017,0.000,0.000,0.000,2.6970,5,1,108.31,-50.64,86.82,-153.1991,57.0863,2.7108,-0.0082,-0.0121,0.3000,-0.1747,-25.00,25.00,-3337.08,0.0150,0.0170,0.0300,0.0390,0.0180,0,0.0000,0.0000,0.0000,0.0000,0.0000,0
15672,21.8158,-4.7909,4.0633,12.5284,-5.7376,-2.3607,-158.45,29.15,111.28,0,3.853,0.107,-0.132,-0.127,0.001,-0.005,-1.014,0.000,0.000,0.000,2.6810,0,-3,107.97,-50.50,86.49,-156.2668,58.1285,2.6748,-0.0082,-0.0121,0.3000,-0.1914,-25.00,25.00,-3338.35,0.0190,0.0130,0.0300,0.0390,0.0090,0,0.0000,0.0000,0.0000,0.0000,0.0000,0
15722,22.2879,-4.9844,4.1569,12.6265,-5.7931,-2.3928,-158.57,29.15,111.33,0,3.848,-0.144,0.020,-0.122,0.001,-0.003,-1.015,0.000,0.000,0.000,2.6850,2,4,107.77,-50.53,86.24,-159.2739,59.3491,2.6310,-0.0082,-0.0121,0.3000,-0.2057,-25.00,25.00,-3339.99,0.0190,0.0130,0.0310,0.0370,0.0090,0,0.0000,0.0000,0.0000,0.0000,0.0000,0
15773,0.0000,0.0000,2.6849,0.0036,0.0021,-0.1779,-0.00,-0.00,-0.00,0,3.853,-0.030,0.105,0.345,0.000,-0.004,-1.015,0.000,0.000,0.000,2.6880,-6,0,107.60,-50.41,86.02,-162.3739,60.5055,2.5947,-0.0082,-0.0121,0.3000,-0.1667,25.00,25.00,0.06,0.0230,0.0140,0.0310,0.0370,0.0140,0,0.0000,0.0000,0.0000,0.0000,0.0000,0
15825,0.0002,0.0001,2.6643,0.0038,0.0003,-1.1643,-0.02,-0.00,0.00,0,3.848,-0.053,-0.211,-0.205,-0.002,-0.004,-1.015,0.000,0.000,0.000,2.6970,0,0,107.60,-50.53,85.88,-165.5004,62.0246,2.5662,-0.0082,-0.0121,0.3000,-0.0562,25.00,25.00,-0.01,0.0230,0.0140,0.0290,0.0380,0.0140,0,0.0000,0.0000,0.0000,0.0000,0.0000,0
15876,0.0004,0.0000,2.6200,0.0037,-0.0022,-2.1309,-0.01,-0.00,0.00,0,3.853,0.049,0.102,0.166,0.001,-0.003,-1.014,0.000,0.000,0.000,2.6830,5,0,107.92,-50.56,86.09,-168.5003,63.1733,2.5305,-0.0082,-0.0121,0.3000,0.0565,3.52,3.62,-0.06,0.0250,0.0130,0.0290,0.0380,0.0080,0,0.0000,0.0000,0.0000,0.0000,0.0000,0
