time_ms,pos_x,pos_y,pos_z,vel_x,vel_y,vel_z,roll,pitch,yaw,thrust,vbat,gyro_x,gyro_y,gyro_z,acc_x,acc_y,acc_z,rate_roll,rate_pitch,rate_yaw,range_z,flow_dx,flow_dy,mekf_roll,mekf_pitch,mekf_yaw,mekf_x,mekf_y,mekf_z,our_ref_x,our_ref_y,our_ref_z,our_thrust,our_roll_cmd,our_pitch_cmd,our_yaw_rate_cmd,multi_front,multi_back,multi_left,multi_right,multi_up,ai_feat_count,vo_x,vo_y,vo_sigma,pg_x,pg_y,lc_count
0,4.1970,-5.2024,0.0095,0.0126,0.0157,0.0013,0.09,0.56,7.87,0,3.816,-0.106,0.055,0.211,0.014,0.001,1.000,0.000,0.000,0.000,0.0090,-14,-8,0.00,0.00,0.00,0.0000,0.0000,0.0000,0.0000,0.0000,0.0000,0.0000,0.00,0.00,0.00,1.1830,0.0000,1.0080,0.0870,2.7040,527,0.0000,0.0000,0.0000,0.0000,0.0000,0
100,4.1980,-5.2083,0.0095,0.0144,-0.0141,0.0008,0.09,0.58,7.83,0,3.816,-0.010,-0.040,-0.087,0.014,0.001,1.001,0.000,0.000,0.000,0.0100,24,1,0.00,0.00,0.00,0.0000,0.0000,0.0000,0.0000,0.0000,0.0000,0.0000,0.00,0.00,0.00,1.1830,0.0000,1.0110,0.0880,2.7040,527,0.0000,0.0000,0.0000,0.0000,0.0000,0
202,4.1996,-5.2120,0.0098,0.0197,-0.0317,0.0020,0.45,0.63,7.79,0,3.822,-0.301,0.052,0.159,0.009,0.001,1.001,0.000,0.000,0.000,0.0080,18,-5,0.00,0.00,0.00,0.0000,0.0000,0.0000,0.0000,0.0000,0.0000,0.0000,0.00,0.00,0.00,1.1760,0.2950,1.0110,0.0880,2.6920,527,0.0000,0.0000,0.0000,0.0000,0.0000,0
302,4.1985,-5.2147,0.0093,0.0094,-0.0347,-0.0002,0.56,0.64,7.75,0,3.816,-0.199,-0.197,0.073,0.011,0.001,1.004,0.000,0.000,0.000,0.0090,-15,5,0.00,0.00,0.00,0.0000,0.0000,0.0000,0.0000,0.0000,0.0000,0.0000,0.00,0.00,0.00,1.1760,0.2950,1.0160,0.0890,2.6920,527,0.0000,0.0000,0.0000,0.0000,0.0000,0
404,4.2024,-5.2253,0.0089,0.0258,-0.0780,-0.0024,0.07,0.73,7.73,0,3.816,-0.353,0.226,0.081,0.012,0.000,0.999,0.000,0.000,0.000,0.0100,-1,-8,0.00,0.00,0.00,0.0000,0.0000,0.0000,0.0000,0.0000,0.0000,0.0000,0.00,0.00,0.00,1.1840,0.3060,1.0160,0.0890,2.7000,527,0.0000,0.0000,0.0000,0.0000,0.0000,0
504,4.1937,-5.2171,0.0098,-0.0230,-0.0240,0.0030,-0.02,0.87,7.70,0,3.822,-0.094,-0.129,-0.013,0.012,0.001,1.000,0.000,0.000,0.000,0.0100,-5,-5,0.00,0.00,0.00,0.0000,0.0000,0.0000,0.0000,0.0000,0.0000,0.0000,0.00,0.00,0.00,1.1840,0.3060,1.0110,0.0860,2.7000,527,0.0000,0.0000,0.0000,0.0000,0.0000,0
605,4.1957,-5.2207,0.0101,-0.0084,-0.0384,0.0037,0.12,0.77,7.65,0,3.811,-0.158,0.347,-0.177,0.010,-0.001,1.002,0.000,0.000,0.000,0.0110,-2,-9,0.00,0.00,0.00,0.0000,0.0000,0.0000,0.0000,0.0000,0.0000,0.0000,0.00,0.00,0.00,1.1800,0.2970,1.0110,0.0860,2.7010,527,0.0000,0.0000,0.0000,0.0000,0.0000,0
707,4.1946,-5.2171,0.0107,-0.0129,-0.0115,0.0065,-0.11,0.81,7.62,0,3.816,-0.266,-0.014,-0.036,0.013,0.000,1.000,0.000,0.000,0.000,0.0090,-10,-4,0.00,0.00,0.00,0.0000,0.0000,0.0000,0.0000,0.0000,0.0000,0.0000,0.00,0.00,0.00,1.1800,0.2970,1.0110,0.0860,2.7010,527,0.0000,0.0000,0.0000,0.0000,0.0000,0
808,4.1957,-5.2134,0.0102,-0.0043,0.0126,0.0022,-0.26,0.74,7.59,0,3.822,-0.224,0.217,-0.054,0.012,0.000,1.001,0.000,0.000,0.000,0.0100,-28,-12,0.00,0.00,0.00,0.0000,0.0000,0.0000,0.0000,0.0000,0.0000,0.0000,0.00,0.00,0.00,1.1750,0.2890,1.0110,0.0860,2.6950,527,0.0000,0.0000,0.0000,0.0000,0.0000,0
910,4.1931,-5.2070,0.0101,-0.0160,0.0439,0.0016,-0.85,0.62,7.57,0,3.816,-0.242,-0.166,-0.081,0.012,0.001,1.001,0.000,0.000,0.000,0.0110,-5,1,0.00,0.00,0.00,0.0000,0.0000,0.0000,0.0000,0.0000,0.0000,0.0000,0.00,0.00,0.00,1.1750,0.2890,1.0150,0.0860,2.6950,527,0.0000,0.0000,0.0000,0.0000,0.0000,0
1010,4.1945,-5.1920,0.0097,-0.0060,0.1104,-0.0001,-0.85,0.63,7.53,0,3.822,-0.179,-0.029,-0.099,0.011,0.000,1.000,0.000,0.000,0.000,0.0100,-4,0,0.00,0.00,0.00,0.0000,0.0000,0.0000,0.0000,0.0000,0.0000,0.0000,0.00,0.00,0.00,1.1790,0.2910,1.0150,0.0860,2.7010,527,0.0000,0.0000,0.0000,0.0000,0.0000,0
1111,4.1938,-5.1975,0.0109,-0.0084,0.0630,0.0060,-0.47,0.65,7.48,0,3.822,-0.079,0.101,-0.146,0.012,0.001,1.002,0.000,0.000,0.000,0.0080,11,10,0.00,0.00,0.00,0.0000,0.0000,0.0000,0.0000,0.0000,0.0000,0.0000,0.00,0.00,0.00,1.1790,0.2910,1.0080,0.0870,2.7010,527,0.0000,0.0000,0.0000,0.0000,0.0000,0
1213,4.1949,-5.1978,0.0100,-0.0005,0.0505,0.0009,-0.18,0.74,7.43,0,3.816,-0.050,0.175,-0.015,0.011,-0.001,0.999,0.000,0.000,0.000,0.0110,2,1,0.00,0.00,0.00,0.0000,0.0000,0.0000,0.0000,0.0000,0.0000,0.0000,0.00,0.00,0.00,1.1810,0.2900,1.0080,0.0870,2.7010,527,0.0000,0.0000,0.0000,0.0000,0.0000,0
1314,4.1926,-5.1953,0.0105,-0.0111,0.0562,0.0031,-0.38,0.67,7.40,0,3.816,-0.440,0.130,0.236,0.012,-0.000,1.000,0.000,0.000,0.000,0.0090,-5,-6,0.00,0.00,0.00,0.0000,0.0000,0.0000,0.0000,0.0000,0.0000,0.0000,0.00,0.00,0.00,1.1810,0.2900,1.0130,0.0870,2.7010,527,0.0000,0.0000,0.0000,0.0000,0.0000,0
1414,4.1924,-5.1902,0.0099,-0.0098,0.0775,-0.0014,-0.82,0.73,7.36,0,3.816,-0.305,0.248,-0.006,0.012,-0.001,1.001,0.000,0.000,0.000,0.0120,-11,0,0.00,0.00,0.00,0.0000,0.0000,0.0000,0.0000,0.0000,0.0000,0.0000,0.00,0.00,0.00,1.1790,0.0000,1.0130,0.0870,2.7080,527,0.0000,0.0000,0.0000,0.0000,0.0000,0
1516,4.1890,-5.1832,0.0107,-0.0251,0.0971,0.0031,-0.78,0.75,7.32,0,3.816,-0.011,-0.084,-0.121,0.014,-0.001,1.000,0.000,0.000,0.000,0.0110,32,3,0.00,0.00,0.00,0.0000,0.0000,0.0000,0.0000,0.0000,0.0000,0.0000,0.00,0.00,0.00,1.1790,0.0000,1.0160,0.0860,2.7080,527,0.0000,0.0000,0.0000,0.0000,0.0000,0
1566,4.1896,-5.1829,0.0114,-0.0156,0.0769,0.0073,-0.22,0.68,7.29,0,3.822,-0.144,0.236,0.297,0.013,-0.000,1.000,0.000,0.000,0.000,0.0110,0,-5,0.00,0.00,0.00,0.0000,0.0000,0.0000,0.0000,0.0000,0.0000,0.0000,0.00,0.00,0.00,1.1880,0.2880,1.0160,0.0860,2.6980,527,0.0000,0.0000,0.0000,0.0000,0.0000,0
1618,4.1900,-5.1893,0.0119,-0.0104,0.0300,0.0087,-0.01,0.67,7.25,0,3.816,-0.102,0.287,-0.078,0.012,0.002,1.000,0.000,0.000,0.000,0.0070,12,-4,0.00,0.00,0.00,0.0000,0.0000,0.0000,0.0000,0.0000,0.0000,0.0000,0.00,0.00,0.00,1.1880,0.2880,1.0140,0.0870,2.6980,527,0.0000,0.0000,0.0000,0.0000,0.0000,0
1668,4.1913,-5.1934,0.0101,-0.0001,0.0009,-0.0022,-0.02,0.66,7.22,0,3.816,-0.184,0.144,0.103,0.013,0.000,1.001,0.000,0.000,0.000,0.0080,0,-3,0.00,0.00,0.00,0.0000,0.0000,0.0000,0.0000,0.0000,0.0000,0.0000,0.00,0.00,0.00,1.1850,0.0000,1.0140,0.0870,2.7040,527,0.0000,0.0000,0.0000,0.0000,0.0000,0
1719,4.1902,-5.1914,0.0092,-0.0046,0.0094,-0.0059,0.02,0.64,7.18,0,3.816,-0.309,-0.207,0.060,0.013,0.001,1.002,0.000,0.000,0.000,0.0120,-4,6,0.00,0.00,0.00,0.0000,0.0000,0.0000,0.0000,0.0000,0.0000,0.0000,0.00,0.00,0.00,1.1850,0.0000,1.0100,0.0880,2.7040,527,0.0000,0.0000,0.0000,0.0000,0.0000,0
1770,4.1900,-5.1966,0.0102,-0.0041,-0.0215,0.0017,0.08,0.73,7.14,0,3.822,-0.112,0.202,-0.146,0.014,-0.001,0.999,0.000,0.000,0.000,0.0060,-2,9,0.00,0.00,0.00,0.0000,0.0000,0.0000,0.0000,0.0000,0.0000,0.0000,0.00,0.00,0.00,1.1820,0.0000,1.0100,0.0880,2.7030,527,0.0000,0.0000,0.0000,0.0000,0.0000,0
1821,4.1902,-5.1929,0.0087,-0.0009,0.0001,-0.0071,0.24,0.70,7.10,0,3.816,-0.295,-0.049,0.215,0.012,0.000,1.001,0.000,0.000,0.000,0.0050,8,0,0.00,0.00,0.00,0.0000,0.0000,0.0000,0.0000,0.0000,0.0000,0.0000,0.00,0.00,0.00,1.1820,0.0000,1.0160,0.0870,2.7030,527,0.0000,0.0000,0.0000,0.0000,0.0000,0
1872,4.1899,-5.1973,0.0070,-0.0009,-0.0222,-0.0136,0.34,0.66,7.07,0,3.822,-0.096,-0.271,-0.010,0.013,0.000,1.001,0.000,0.000,0.000,0.0070,20,2,0.00,0.00,0.00,0.0000,0.0000,0.0000,0.0000,0.0000,0.0000,0.0000,0.00,0.00,0.00,1.1840,0.3000,1.0160,0.0870,2.7070,527,0.0000,0.0000,0.0000,0.0000,0.0000,0
1923,4.1918,-5.2039,0.0064,0.0098,-0.0507,-0.0124,0.92,0.62,7.03,0,3.816,-0.112,-0.006,-0.359,0.014,-0.000,1.003,0.000,0.000,0.000,0.0070,13,-2,0.00,0.00,0.00,0.0000,0.0000,0.0000,0.0000,0.0000,0.0000,0.0000,0.00,0.00,0.00,1.1840,0.3000,1.0140,0.0850,2.7070,527,0.0000,0.0000,0.0000,0.0000,0.0000,0
1974,4.1926,-5.2175,0.0058,0.0129,-0.1077,-0.0118,0.76,0.63,7.00,0,3.816,-0.048,0.098,-0.069,0.012,-0.000,1.002,0.000,0.000,0.000,0.0100,0,1,0.00,0.00,0.00,0.0000,0.0000,0.0000,0.0000,0.0000,0.0000,0.0000,0.00,0.00,0.00,1.1820,0.0000,1.0140,0.0850,2.7000,527,0.0000,0.0000,0.0000,0.0000,0.0000,0
2026,4.1938,-5.2218,0.0075,0.0170,-0.1068,0.0008,0.67,0.57,6.96,0,3.816,-0.149,-0.159,-0.160,0.012,-0.001,1.002,0.000,0.000,0.000,0.0090,13,-4,0.00,0.00,0.00,0.0000,0.0000,0.0000,0.0000,0.0000,0.0000,0.0000,0.00,0.00,0.00,1.1820,0.0000,1.0130,0.0880,2.7000,527,0.0000,0.0000,0.0000,0.0000,0.0000,0
2078,4.1948,-5.2237,0.0084,0.0198,-0.0948,0.0059,0.66,0.54,6.92,0,3.822,-0.125,0.168,-0.390,0.015,0.002,1.001,0.000,0.000,0.000,0.0080,17,-10,0.00,0.00,0.00,0.0000,0.0000,0.0000,0.0000,0.0000,0.0000,0.0000,0.00,0.00,0.00,1.1770,0.0000,1.0130,0.0880,2.7020,527,0.0000,0.0000,0.0000,0.0000,0.0000,0
2129,4.1965,-5.2224,0.0089,0.0257,-0.0678,0.0071,0.54,0.62,6.89,0,3.816,0.037,-0.067,-0.161,0.010,-0.000,1.001,0.000,0.000,0.000,0.0110,-8,-3,0.00,0.00,0.00,0.0000,0.0000,0.0000,0.0000,0.0000,0.0000,0.0000,0.00,0.00,0.00,1.1770,0.0000,1.0160,0.0880,2.7020,527,0.0000,0.0000,0.0000,0.0000,0.0000,0
2181,4.1944,-5.2287,0.0100,0.0107,-0.0833,0.0110,0.39,0.61,6.86,0,3.822,-0.008,-0.059,-0.390,0.009,0.001,1.001,0.000,0.000,0.000,0.0080,0,-3,0.00,0.00,0.00,0.0000,0.0000,0.0000,0.0000,0.0000,0.0000,0.0000,0.00,0.00,0.00,1.1800,0.0000,1.0160,0.0880,2.7010,527,0.0000,0.0000,0.0000,0.0000,0.0000,0
2231,4.1948,-5.2276,0.0098,0.0109,-0.0591,0.0076,0.19,0.61,6.82,0,3.816,-0.086,-0.064,0.094,0.013,0.001,1.001,0.000,0.000,0.000,0.0080,26,4,0.00,0.00,0.00,0.0000,0.0000,0.0000,0.0000,0.0000,0.0000,0.0000,0.00,0.00,0.00,1.1800,0.0000,1.0110,0.0860,2.7010,527,0.0000,0.0000,0.0000,0.0000,0.0000,0
2282,4.1967,-5.2290,0.0093,0.0196,-0.0523,0.0036,0.30,0.53,6.78,0,3.822,-0.197,-0.149,-0.099,0.011,0.002,1.000,0.000,0.000,0.000,0.0100,-6,-8,0.00,0.00,0.00,0.0000,0.0000,0.0000,0.0000,0.0000,0.0000,0.0000,0.00,0.00,0.00,1.1820,0.2890,1.0110,0.0860,2.6980,527,0.0000,0.0000,0.0000,0.0000,0.0000,0
2334,4.1952,-5.2419,0.0094,0.0081,-0.1052,0.0022,0.38,0.63,6.76,0,3.816,-0.423,0.143,-0.054,0.012,0.002,1.000,0.000,0.000,0.000,0.0070,61,0,0.00,0.00,0.00,0.0000,0.0000,0.0000,0.0000,0.0000,0.0000,0.0000,0.00,0.00,0.00,1.1820,0.2890,1.0110,0.0870,2.6980,527,0.0000,0.0000,0.0000,0.0000,0.0000,0
2384,4.1947,-5.2405,0.0090,0.0037,-0.0748,0.0001,0.99,0.68,6.74,0,3.822,-0.007,0.134,0.106,0.013,0.001,1.000,0.000,0.000,0.000,0.0100,-7,-5,0.00,0.00,0.00,0.0000,0.0000,0.0000,0.0000,0.0000,0.0000,0.0000,0.00,0.00,0.00,1.1820,0.2950,1.0110,0.0870,2.7030,527,0.0000,0.0000,0.0000,0.0000,0.0000,0
2436,4.1960,-5.2604,0.0088,0.0102,-0.1517,-0.0021,0.62,0.64,6.70,0,3.816,0.092,-0.207,0.060,0.013,0.001,1.001,0.000,0.000,0.000,0.0100,-21,4,0.00,0.00,0.00,0.0000,0.0000,0.0000,0.0000,0.0000,0.0000,0.0000,0.00,0.00,0.00,1.1820,0.2950,1.0110,0.0870,2.7030,527,0.0000,0.0000,0.0000,0.0000,0.0000,0
2487,4.1968,-5.2569,0.0104,0.0124,-0.0986,0.0088,-0.11,0.76,6.67,0,3.822,-0.176,0.446,-0.089,0.012,0.001,1.000,0.000,0.000,0.000,0.0120,5,1,0.00,0.00,0.00,0.0000,0.0000,0.0000,0.0000,0.0000,0.0000,0.0000,0.00,0.00,0.00,1.1820,0.0000,1.0110,0.0870,2.7000,527,0.0000,0.0000,0.0000,0.0000,0.0000,0
2538,4.1923,-5.2484,0.0118,-0.0112,-0.0354,0.0151,-0.21,0.72,6.64,0,3.816,-0.209,0.240,0.077,0.010,0.001,1.003,0.000,0.000,0.000,0.0100,4,-26,0.00,0.00,0.00,0.0000,0.0000,0.0000,0.0000,0.0000,0.0000,0.0000,0.00,0.00,0.00,1.1820,0.0000,1.0100,0.0930,2.7000,527,0.0000,0.0000,0.0000,0.0000,0.0000,0
2589,4.1920,-5.2419,0.0114,-0.0102,0.0110,0.0112,-0.96,0.47,6.60,0,3.822,-0.143,0.064,-0.097,0.013,0.003,1.002,0.000,0.000,0.000,0.0110,-2,0,0.00,0.00,0.00,0.0000,0.0000,0.0000,0.0000,0.0000,0.0000,0.0000,0.00,0.00,0.00,1.1820,0.2900,1.0100,0.0930,2.6960,527,0.0000,0.0000,0.0000,0.0000,0.0000,0
2641,4.1959,-5.2314,0.0115,0.0107,0.0632,0.0093,-0.86,0.50,6.56,0,3.811,-0.439,0.002,0.392,0.013,-0.001,1.000,0.000,0.000,0.000,0.0090,0,-2,0.00,0.00,0.00,0.0000,0.0000,0.0000,0.0000,0.0000,0.0000,0.0000,0.00,0.00,0.00,1.1820,0.2900,1.0110,0.0870,2.6960,527,0.0000,0.0000,0.0000,0.0000,0.0000,0
2691,4.1958,-5.2308,0.0109,0.0089,0.0570,0.0040,-0.72,0.54,6.53,0,3.822,-0.291,0.160,-0.242,0.011,-0.000,1.000,0.000,0.000,0.000,0.0080,-6,1,0.00,0.00,0.00,0.0000,0.0000,0.0000,0.0000,0.0000,0.0000,0.0000,0.00,0.00,0.00,1.1790,0.0000,1.0110,0.0870,2.7010,527,0.0000,0.0000,0.0000,0.0000,0.0000,0
2743,4.1954,-5.2319,0.0100,0.0052,0.0433,-0.0019,-0.61,0.55,6.50,0,3.816,-0.034,-0.266,-0.055,0.011,0.001,1.000,0.000,0.000,0.000,0.0080,10,-7,0.00,0.00,0.00,0.0000,0.0000,0.0000,0.0000,0.0000,0.0000,0.0000,0.00,0.00,0.00,1.1790,0.0000,1.0110,0.0870,2.7010,527,0.0000,0.0000,0.0000,0.0000,0.0000,0
2793,4.1950,-5.2325,0.0093,0.0030,0.0336,-0.0057,-0.45,0.52,6.47,0,3.822,-0.046,0.122,0.053,0.015,0.002,1.001,0.000,0.000,0.000,0.0090,9,-1,0.00,0.00,0.00,0.0000,0.0000,0.0000,0.0000,0.0000,0.0000,0.0000,0.00,0.00,0.00,1.1820,0.0000,1.0110,0.0870,2.7030,527,0.0000,0.0000,0.0000,0.0000,0.0000,0
2845,4.1956,-5.2336,0.0091,0.0046,0.0247,-0.0050,-0.10,0.58,6.43,0,3.816,-0.063,-0.035,-0.122,0.011,-0.000,1.000,0.000,0.000,0.000,0.0100,9,0,0.00,0.00,0.00,0.0000,0.0000,0.0000,0.0000,0.0000,0.0000,0.0000,0.00,0.00,0.00,1.1820,0.0000,1.0110,0.0860,2.7030,527,0.0000,0.0000,0.0000,0.0000,0.0000,0
2897,4.2001,-5.2397,0.0094,0.0287,-0.0069,-0.0017,-0.09,0.44,6.42,0,3.816,-0.084,-0.187,-0.132,0.012,-0.001,1.001,0.000,0.000,0.000,0.0100,-14,-2,0.00,0.00,0.00,0.0000,0.0000,0.0000,0.0000,0.0000,0.0000,0.0000,0.00,0.00,0.00,1.1820,0.2850,1.0110,0.0860,2.7060,527,0.0000,0.0000,0.0000,0.0000,0.0000,0
2948,4.2014,-5.2472,0.0094,0.0294,-0.0427,-0.0010,0.01,0.48,6.38,0,3.816,-0.133,0.017,0.124,0.012,0.003,1.000,0.000,0.000,0.000,0.0100,5,2,0.00,0.00,0.00,0.0000,0.0000,0.0000,0.0000,0.0000,0.0000,0.0000,0.00,0.00,0.00,1.1820,0.2850,1.0150,0.0880,2.7060,527,0.0000,0.0000,0.0000,0.0000,0.0000,0
2999,4.2019,-5.2482,0.0097,0.0268,-0.0383,0.0006,-0.24,0.55,6.34,0,3.822,-0.183,0.113,-0.033,0.012,0.001,1.002,0.000,0.000,0.000,0.0120,-49,0,0.00,0.00,0.00,0.0000,0.0000,0.0000,0.0000,0.0000,0.0000,0.0000,0.00,0.00,0.00,1.1770,0.3000,1.0150,0.0880,2.6990,527,0.0000,0.0000,0.0000,0.0000,0.0000,0
3050,4.1993,-5.2409,0.0110,0.0100,0.0068,0.0070,-0.71,0.60,6.29,0,3.816,-0.437,0.143,0.073,0.010,0.001,1.001,0.000,0.000,0.000,0.0080,2,-4,0.00,0.00,0.00,0.0000,0.0000,0.0000,0.0000,0.0000,0.0000,0.0000,0.00,0.00,0.00,1.1770,0.3000,1.0110,0.0900,2.6990,527,0.0000,0.0000,0.0000,0.0000,0.0000,0
3101,4.1978,-5.2308,0.0100,0.0016,0.0531,-0.0001,-0.65,0.59,6.26,0,3.822,-0.318,-0.028,0.199,0.014,-0.001,1.003,0.000,0.000,0.000,0.0060,0,0,0.00,0.00,0.00,0.0000,0.0000,0.0000,0.0000,0.0000,0.0000,0.0000,0.00,0.00,0.00,1.1760,0.2930,1.0110,0.0900,2.6980,527,0.0000,0.0000,0.0000,0.0000,0.0000,0
3152,4.1983,-5.2310,0.0086,0.0034,0.0431,-0.0069,-0.49,0.59,6.23,0,3.816,-0.458,-0.110,-0.128,0.013,-0.002,1.000,0.000,0.000,0.000,0.0080,10,-10,0.00,0.00,0.00,0.0000,0.0000,0.0000,0.0000,0.0000,0.0000,0.0000,0.00,0.00,0.00,1.1760,0.2930,1.0110,0.0860,2.6980,527,0.0000,0.0000,0.0000,0.0000,0.0000,0
3203,4.1991,-5.2297,0.0082,0.0075,0.0429,-0.0075,-0.36,0.48,6.21,0,3.816,-0.118,-0.084,0.027,0.009,-0.001,0.998,0.000,0.000,0.000,0.0090,14,-5,0.00,0.00,0.00,0.0000,0.0000,0.0000,0.0000,0.0000,0.0000,0.0000,0.00,0.00,0.00,1.1800,0.2950,1.0110,0.0860,2.6990,527,0.0000,0.0000,0.0000,0.0000,0.0000,0
3254,4.2006,-5.2257,0.0083,0.0121,0.0565,-0.0054,-0.47,0.57,6.16,0,3.816,-0.306,-0.050,0.125,0.012,-0.000,0.999,0.000,0.000,0.000,0.0090,6,-5,0.00,0.00,0.00,0.0000,0.0000,0.0000,0.0000,0.0000,0.0000,0.0000,0.00,0.00,0.00,1.1800,0.2950,1.0110,0.0860,2.6990,527,0.0000,0.0000,0.0000,0.0000,0.0000,0
3305,4.2011,-5.2266,0.0086,0.0118,0.0445,-0.0022,-0.42,0.53,6.13,0,3.822,-0.015,0.183,-0.029,0.014,0.000,1.000,0.000,0.000,0.000,0.0110,-9,0,0.00,0.00,0.00,0.0000,0.0000,0.0000,0.0000,0.0000,0.0000,0.0000,0.00,0.00,0.00,1.1820,0.3000,1.0110,0.0860,2.7050,527,0.0000,0.0000,0.0000,0.0000,0.0000,0
3357,4.2023,-5.2272,0.0096,0.0157,0.0336,0.0039,-0.30,0.60,6.10,0,3.816,-0.093,0.085,0.133,0.010,0.001,0.999,0.000,0.000,0.000,0.0090,-7,0,0.00,0.00,0.00,0.0000,0.0000,0.0000,0.0000,0.0000,0.0000,0.0000,0.00,0.00,0.00,1.1820,0.3000,1.0110,0.0870,2.7050,527,0.0000,0.0000,0.0000,0.0000,0.0000,0
3408,4.2012,-5.2258,0.0095,0.0075,0.0351,0.0028,-0.29,0.60,6.07,0,3.822,0.082,0.274,-0.063,0.013,0.000,0.998,0.000,0.000,0.000,0.0070,4,2,0.00,0.00,0.00,0.0000,0.0000,0.0000,0.0000,0.0000,0.0000,0.0000,0.00,0.00,0.00,1.1830,0.2980,1.0110,0.0870,2.7060,527,0.0000,0.0000,0.0000,0.0000,0.0000,0
3459,4.2001,-5.2280,0.0087,0.0008,0.0174,-0.0019,-0.22,0.63,6.04,0,3.811,-0.292,-0.096,-0.007,0.011,-0.001,1.002,0.000,0.000,0.000,0.0080,4,4,0.00,0.00,0.00,0.0000,0.0000,0.0000,0.0000,0.0000,0.0000,0.0000,0.00,0.00,0.00,1.1830,0.2980,1.0110,0.0870,2.7060,527,0.0000,0.0000,0.0000,0.0000,0.0000,0
3510,4.2025,-5.2254,0.0083,0.0125,0.0282,-0.0027,-0.16,0.60,6.01,0,3.816,-0.206,-0.075,-0.165,0.012,0.001,0.999,0.000,0.000,0.000,0.0080,-1,-2,0.00,0.00,0.00,0.0000,0.0000,0.0000,0.0000,0.0000,0.0000,0.0000,0.00,0.00,0.00,1.1790,0.3030,1.0110,0.0870,2.6990,527,0.0000,0.0000,0.0000,0.0000,0.0000,0
3561,4.2009,-5.2272,0.0082,0.0027,0.0157,-0.0031,-0.15,0.63,5.98,0,3.816,0.033,0.096,-0.126,0.012,0.001,1.000,0.000,0.000,0.000,0.0090,-11,4,0.00,0.00,0.00,0.0000,0.0000,0.0000,0.0000,0.0000,0.0000,0.0000,0.00,0.00,0.00,1.1790,0.3030,1.0140,0.0850,2.6990,527,0.0000,0.0000,0.0000,0.0000,0.0000,0
3612,4.2017,-5.2258,0.0084,0.0065,0.0208,-0.0006,-0.15,0.64,5.95,0,3.822,-0.148,0.017,0.035,0.012,0.001,1.002,0.000,0.000,0.000,0.0130,-16,-11,0.00,0.00,0.00,0.0000,0.0000,0.0000,0.0000,0.0000,0.0000,0.0000,0.00,0.00,0.00,1.1810,0.3000,1.0140,0.0850,2.7010,527,0.0000,0.0000,0.0000,0.0000,0.0000,0
3664,4.2002,-5.2266,0.0104,-0.0016,0.0129,0.0100,-0.43,0.66,5.92,0,3.811,-0.203,0.005,-0.266,0.010,0.002,0.999,0.000,0.000,0.000,0.0090,-11,-10,0.00,0.00,0.00,0.0000,0.0000,0.0000,0.0000,0.0000,0.0000,0.0000,0.00,0.00,0.00,1.1810,0.3000,1.0110,0.0880,2.7010,527,0.0000,0.0000,0.0000,0.0000,0.0000,0
3715,4.1995,-5.2175,0.0100,-0.0051,0.0534,0.0050,-0.42,0.64,5.89,0,3.822,-0.257,-0.250,-0.004,0.013,0.001,1.000,0.000,0.000,0.000,0.0130,5,-4,0.00,0.00,0.00,0.0000,0.0000,0.0000,0.0000,0.0000,0.0000,0.0000,0.00,0.00,0.00,1.1830,0.2950,1.0110,0.0880,2.7010,527,0.0000,0.0000,0.0000,0.0000,0.0000,0
3765,4.1979,-5.2156,0.0115,-0.0119,0.0525,0.0115,-0.34,0.75,5.85,0,3.816,-0.033,0.100,-0.018,0.013,-0.001,1.002,0.000,0.000,0.000,0.0110,-8,-3,0.00,0.00,0.00,0.0000,0.0000,0.0000,0.0000,0.0000,0.0000,0.0000,0.00,0.00,0.00,1.1830,0.2950,1.0130,0.0900,2.7010,527,0.0000,0.0000,0.0000,0.0000,0.0000,0
3816,4.1982,-5.2166,0.0118,-0.0074,0.0371,0.0098,-0.29,0.72,5.83,0,3.822,-0.118,0.015,-0.250,0.009,0.001,1.003,0.000,0.000,0.000,0.0110,-22,2,0.00,0.00,0.00,0.0000,0.0000,0.0000,0.0000,0.0000,0.0000,0.0000,0.00,0.00,0.00,1.1810,0.2900,1.0130,0.0900,2.6980,527,0.0000,0.0000,0.0000,0.0000,0.0000,0
3867,0.0000,0.0000,0.0110,0.0063,0.0012,0.0001,-0.11,-0.24,-0.00,0,3.816,0.071,0.270,-0.249,0.012,-0.000,1.000,0.000,0.000,0.000,0.0100,-4,-4,0.00,0.00,0.00,0.0000,0.0000,0.0000,0.0000,0.0000,0.0000,0.0000,0.00,0.00,0.00,1.1810,0.2900,1.0110,0.0870,2.6980,527,0.0000,0.0000,0.0000,0.0000,0.0000,0
3918,0.0023,0.0026,0.0102,0.0468,0.0497,-0.0012,-1.15,-0.09,-0.01,0,3.822,-0.367,-0.175,0.058,0.010,0.002,1.000,0.000,0.000,0.000,0.0110,-3,3,0.00,0.00,0.00,0.0000,0.0000,0.0000,0.0000,0.0000,0.0000,0.0000,0.00,0.00,0.00,1.1800,0.0000,1.0110,0.0870,2.6920,527,0.0000,0.0000,0.0000,0.0000,0.0000,0
3969,0.0033,0.0100,0.0099,0.0365,0.1190,-0.0043,-1.72,0.42,-0.01,0,3.816,-0.090,0.219,-0.327,0.011,-0.000,1.002,0.000,0.000,0.000,0.0100,9,-1,0.00,0.00,0.00,0.0000,0.0000,0.0000,0.0000,0.0000,0.0000,0.0000,0.00,0.00,0.00,1.1800,0.0000,1.0080,0.0880,2.6920,527,0.0000,0.0000,0.0000,0.0000,0.0000,0
4020,0.0039,0.0179,0.0097,0.0288,0.1580,-0.0067,-1.80,0.42,-0.01,0,3.822,-0.309,0.248,0.249,0.011,0.000,1.003,0.000,0.000,0.000,0.0090,-21,-4,0.00,0.00,0.00,0.0000,0.0000,0.0000,0.0000,0.0000,0.0000,0.0000,0.00,0.00,0.00,1.1770,0.0000,1.0080,0.0880,2.6950,527,0.0000,0.0000,0.0000,0.0000,0.0000,0
4071,0.0039,0.0183,0.0101,0.0178,0.1079,0.0000,-2.18,0.69,-0.00,0,3.816,-0.261,0.250,0.184,0.013,0.001,1.003,0.000,0.000,0.000,0.0100,-20,-6,0.00,0.00,0.00,0.0000,0.0000,0.0000,0.0000,0.0000,0.0000,0.0000,0.00,0.00,0.00,1.1770,0.0000,1.0110,0.0910,2.6950,527,0.0000,0.0000,0.0000,0.0000,0.0000,0
4122,0.0047,0.0269,0.0101,0.0175,0.1398,0.0002,-1.33,0.56,-0.01,0,3.816,-0.133,0.109,0.104,0.011,-0.002,0.999,0.000,0.000,0.000,0.0090,0,4,0.00,0.00,0.00,0.0000,0.0000,0.0000,0.0000,0.0000,0.0000,0.0000,0.00,0.00,0.00,1.1810,0.3170,1.0110,0.0910,2.7010,527,0.0000,0.0000,0.0000,0.0000,0.0000,0
4173,0.0050,0.0265,0.0105,0.0123,0.0912,0.0034,0.10,0.95,-0.04,0,3.811,-0.237,-0.166,0.076,0.010,0.001,1.001,0.000,0.000,0.000,0.0120,17,10,0.00,0.00,0.00,0.0000,0.0000,0.0000,0.0000,0.0000,0.0000,0.0000,0.00,0.00,0.00,1.1810,0.3170,1.0110,0.0870,2.7010,527,0.0000,0.0000,0.0000,0.0000,0.0000,0
4225,0.0052,0.0259,0.0113,0.0095,0.0580,0.0068,0.80,1.06,-0.05,0,3.822,-0.294,0.227,0.380,0.012,0.000,0.999,0.000,0.000,0.000,0.0090,3,-4,0.00,0.00,0.00,0.0000,0.0000,0.0000,0.0000,0.0000,0.0000,0.0000,0.00,0.00,0.00,1.1820,0.2890,1.0110,0.0870,2.6950,527,0.0000,0.0000,0.0000,0.0000,0.0000,0
4276,0.0029,0.0246,0.0106,-0.0075,0.0316,0.0014,0.75,0.96,-0.04,0,3.816,0.035,-0.313,-0.361,0.012,0.002,0.998,0.000,0.000,0.000,0.0110,15,0,0.00,0.00,0.00,0.0000,0.0000,0.0000,0.0000,0.0000,0.0000,0.0000,0.00,0.00,0.00,1.1820,0.2890,1.0140,0.0900,2.6950,527,0.0000,0.0000,0.0000,0.0000,0.0000,0
4326,0.0043,0.0246,0.0108,0.0014,0.0184,0.0026,0.74,0.88,-0.05,0,3.822,-0.020,-0.128,-0.331,0.012,0.000,1.003,0.000,0.000,0.000,0.0140,0,-3,0.00,0.00,0.00,0.0000,0.0000,0.0000,0.0000,0.0000,0.0000,0.0000,0.00,0.00,0.00,1.1830,0.2960,1.0140,0.0900,2.7010,527,0.0000,0.0000,0.0000,0.0000,0.0000,0
4377,0.0032,0.0244,0.0124,-0.0064,0.0082,0.0103,0.89,0.90,-0.06,0,3.816,-0.112,-0.060,0.187,0.014,0.000,0.999,0.000,0.000,0.000,0.0090,-9,2,0.00,0.00,0.00,0.0000,0.0000,0.0000,0.0000,0.0000,0.0000,0.0000,0.00,0.00,0.00,1.1830,0.2960,1.0110,0.0870,2.7010,527,0.0000,0.0000,0.0000,0.0000,0.0000,0
4429,0.0027,0.0179,0.0111,-0.0087,-0.0364,0.0010,0.85,0.85,-0.06,0,3.816,-0.485,0.351,0.130,0.012,-0.000,0.999,0.000,0.000,0.000,0.0080,0,6,0.00,0.00,0.00,0.0000,0.0000,0.0000,0.0000,0.0000,0.0000,0.0000,0.00,0.00,0.00,1.1810,0.2940,1.0110,0.0870,2.6930,527,0.0000,0.0000,0.0000,0.0000,0.0000,0
4481,0.0041,0.0216,0.0101,-0.0012,-0.0183,-0.0045,0.78,0.80,-0.07,0,3.816,-0.382,0.144,0.291,0.013,-0.001,1.001,0.000,0.000,0.000,0.0120,28,0,0.00,0.00,0.00,0.0000,0.0000,0.0000,0.0000,0.0000,0.0000,0.0000,0.00,0.00,0.00,1.1810,0.2940,1.0110,0.0870,2.6930,527,0.0000,0.0000,0.0000,0.0000,0.0000,0
4532,0.0036,0.0220,0.0108,-0.0042,-0.0185,0.0006,1.51,1.12,-0.07,0,3.822,-0.143,-0.031,0.218,0.010,0.001,1.000,0.000,0.000,0.000,0.0100,-3,-9,0.00,0.00,0.00,0.0000,0.0000,0.0000,0.0000,0.0000,0.0000,0.0000,0.00,0.00,0.00,1.1790,0.2900,1.0110,0.0870,2.7010,527,0.0000,0.0000,0.0000,0.0000,0.0000,0
4583,-0.0015,0.0098,0.0104,-0.0292,-0.0778,-0.0014,1.16,1.00,-0.07,0,3.816,-0.076,0.186,-0.059,0.012,-0.002,0.999,0.000,0.000,0.000,0.0110,7,-4,0.00,0.00,0.00,0.0000,0.0000,0.0000,0.0000,0.0000,0.0000,0.0000,0.00,0.00,0.00,1.1790,0.2900,1.0110,0.0900,2.7010,527,0.0000,0.0000,0.0000,0.0000,0.0000,0
4635,-0.0010,0.0104,0.0110,-0.0216,-0.0651,0.0023,1.01,0.94,-0.07,0,3.822,0.066,0.172,-0.299,0.012,0.002,0.999,0.000,0.000,0.000,0.0080,2,-6,0.00,0.00,0.00,0.0000,0.0000,0.0000,0.0000,0.0000,0.0000,0.0000,0.00,0.00,0.00,1.1800,0.2940,1.0110,0.0900,2.6990,527,0.0000,0.0000,0.0000,0.0000,0.0000,0
4685,-0.0023,0.0093,0.0099,-0.0252,-0.0610,-0.0030,0.84,0.83,-0.07,0,3.816,-0.188,-0.039,-0.037,0.014,0.002,1.001,0.000,0.000,0.000,0.0110,-7,11,0.00,0.00,0.00,0.0000,0.0000,0.0000,0.0000,0.0000,0.0000,0.0000,0.00,0.00,0.00,1.1800,0.2940,1.0150,0.0880,2.6990,527,0.0000,0.0000,0.0000,0.0000,0.0000,0
4736,-0.0011,0.0098,0.0105,-0.0155,-0.0502,0.0011,0.62,0.83,-0.07,0,3.816,-0.157,-0.251,-0.179,0.013,-0.000,1.001,0.000,0.000,0.000,0.0070,0,0,0.00,0.00,0.00,0.0000,0.0000,0.0000,0.0000,0.0000,0.0000,0.0000,0.00,0.00,0.00,1.1810,0.0000,1.0150,0.0880,2.7020,527,0.0000,0.0000,0.0000,0.0000,0.0000,0
4787,-0.0006,0.0109,0.0092,-0.0101,-0.0390,-0.0055,0.55,0.78,-0.07,0,3.816,-0.242,0.568,-0.150,0.015,-0.002,1.002,0.000,0.000,0.000,0.0090,6,-3,0.00,0.00,0.00,0.0000,0.0000,0.0000,0.0000,0.0000,0.0000,0.0000,0.00,0.00,0.00,1.1810,0.0000,1.0150,0.0880,2.7020,527,0.0000,0.0000,0.0000,0.0000,0.0000,0
4839,-0.0019,0.0113,0.0090,-0.0138,-0.0322,-0.0042,0.47,0.75,-0.06,0,3.822,0.101,0.029,-0.026,0.011,0.000,0.999,0.000,0.000,0.000,0.0080,0,-4,0.00,0.00,0.00,0.0000,0.0000,0.0000,0.0000,0.0000,0.0000,0.0000,0.00,0.00,0.00,1.1830,0.0000,1.0150,0.0880,2.7090,527,0.0000,0.0000,0.0000,0.0000,0.0000,0
4890,-0.0010,0.0124,0.0085,-0.0075,-0.0218,-0.0050,0.37,0.75,-0.06,0,3.816,0.142,-0.057,-0.226,0.013,0.002,0.999,0.000,0.000,0.000,0.0120,9,-8,0.00,0.00,0.00,0.0000,0.0000,0.0000,0.0000,0.0000,0.0000,0.0000,0.00,0.00,0.00,1.1830,0.0000,1.0110,0.0860,2.7090,527,0.0000,0.0000,0.0000,0.0000,0.0000,0
4941,-0.0015,0.0125,0.0099,-0.0085,-0.0180,0.0043,0.36,0.65,-0.07,0,3.816,-0.228,0.281,0.029,0.012,-0.001,0.999,0.000,0.000,0.000,0.0100,28,-5,0.00,0.00,0.00,0.0000,0.0000,0.0000,0.0000,0.0000,0.0000,0.0000,0.00,0.00,0.00,1.1820,0.2950,1.0110,0.0860,2.7030,527,0.0000,0.0000,0.0000,0.0000,0.0000,0
4992,-0.0012,0.0107,0.0101,-0.0062,-0.0232,0.0036,0.40,0.60,-0.07,0,3.816,-0.204,-0.131,0.059,0.013,0.002,0.999,0.000,0.000,0.000,0.0070,2,2,0.00,0.00,0.00,0.0000,0.0000,0.0000,0.0000,0.0000,0.0000,0.0000,0.00,0.00,0.00,1.1820,0.2950,1.0110,0.0880,2.7030,527,0.0000,0.0000,0.0000,0.0000,0.0000,0
5044,-0.0003,0.0038,0.0090,-0.0008,-0.0498,-0.0039,0.62,0.56,-0.08,0,3.816,-0.170,0.159,-0.062,0.011,0.000,1.000,0.000,0.000,0.000,0.0090,4,-3,0.00,0.00,0.00,0.0000,0.0000,0.0000,0.0000,0.0000,0.0000,0.0000,0.00,0.00,0.00,1.1810,0.2990,1.0110,0.0880,2.7040,527,0.0000,0.0000,0.0000,0.0000,0.0000,0
5094,0.0011,0.0007,0.0089,0.0055,-0.0553,-0.0031,0.48,0.57,-0.08,0,3.394,-3.126,0.953,1.942,0.009,0.001,0.998,0.000,0.000,0.000,0.0120,-17,7,0.00,0.00,0.00,0.0000,0.0000,0.0000,0.0000,0.0000,0.0000,0.0000,0.00,0.00,0.00,1.1810,0.2990,1.0140,0.0870,2.7040,527,0.0000,0.0000,0.0000,0.0000,0.0000,0
5146,0.0027,0.0009,0.0103,0.0095,-0.0434,0.0065,0.12,0.65,-0.08,0,3.479,-0.077,0.750,0.252,0.018,-0.002,0.995,0.000,0.000,0.000,0.0110,-21,-6,0.00,0.00,0.00,0.0000,0.0000,0.0000,0.0000,0.0000,0.0000,0.0000,0.00,0.00,0.00,1.1850,0.2690,1.0140,0.0870,2.6990,527,0.0000,0.0000,0.0000,0.0000,0.0000,0
5196,-0.0006,0.0111,0.0109,-0.0124,0.0137,0.0078,-0.41,0.66,-0.08,0,3.505,2.283,-1.672,4.582,0.006,0.005,1.010,0.000,0.000,0.000,0.0070,-11,-5,0.00,0.00,0.00,0.0000,0.0000,0.0000,0.0000,0.0000,0.0000,0.0000,0.00,0.00,0.00,1.1850,0.2690,1.0150,0.0940,2.6990,527,0.0000,0.0000,0.0000,0.0000,0.0000,0
5247,0.0010,0.0193,0.0092,-0.0075,0.0500,-0.0048,-0.43,0.62,0.12,0,3.531,-0.447,-0.484,8.852,-0.001,-0.010,0.989,0.000,0.000,0.000,0.0100,0,0,0.00,0.00,0.00,0.0000,0.0000,0.0000,0.0000,0.0000,0.0000,0.0000,0.00,0.00,0.00,1.1880,0.3080,1.0150,0.0940,2.6980,527,0.0000,0.0000,0.0000,0.0000,0.0000,0
5298,0.0009,0.0214,0.0095,-0.0112,0.0510,-0.0005,-0.43,0.62,0.51,0,3.531,-0.792,-2.364,6.013,0.002,-0.030,1.002,0.000,0.000,0.000,0.0100,0,0,0.00,0.00,0.00,0.0000,0.0000,0.0000,0.0000,0.0000,0.0000,0.0000,0.00,0.00,0.00,1.1880,0.3080,1.0130,0.1250,2.6980,527,0.0000,0.0000,0.0000,0.0000,0.0000,0
5349,0.0002,0.0240,0.0098,-0.0168,0.0547,0.0023,-0.52,0.71,0.75,0,3.537,-2.474,1.208,8.581,0.016,-0.016,1.002,0.000,0.000,0.000,0.0100,0,0,0.00,0.00,0.00,0.0000,0.0000,0.0000,0.0000,0.0000,0.0000,0.0000,0.00,0.00,0.00,1.1960,0.0000,1.0130,0.1250,2.7070,527,0.0000,0.0000,0.0000,0.0000,0.0000,0
5401,-0.0008,0.0268,0.0099,-0.0230,0.0591,0.0013,-0.63,0.76,1.09,0,3.531,0.542,5.583,1.458,0.027,-0.007,1.035,0.000,0.000,0.000,0.0090,0,0,0.00,0.00,0.00,0.0000,0.0000,0.0000,0.0000,0.0000,0.0000,0.0000,0.00,0.00,0.00,1.1960,0.0000,1.0100,0.0000,2.7070,527,0.0000,0.0000,0.0000,0.0000,0.0000,0
5452,-0.0021,0.0299,0.0096,-0.0296,0.0642,-0.0004,-0.57,0.76,1.11,0,3.542,-0.061,4.322,-6.237,0.014,-0.007,1.019,0.000,0.000,0.000,0.0100,0,0,0.00,0.00,0.00,0.0000,0.0000,0.0000,0.0000,0.0000,0.0000,0.0000,0.00,0.00,0.00,1.1970,0.2240,1.0100,0.0000,2.7020,527,0.0000,0.0000,0.0000,0.0000,0.0000,0
5503,-0.0037,0.0332,0.0098,-0.0363,0.0689,0.0015,-0.58,0.77,0.85,0,3.531,-7.862,-5.870,-8.762,0.012,-0.018,1.037,0.000,0.000,0.000,0.0090,0,0,0.00,0.00,0.00,0.0000,0.0000,0.0000,0.0000,0.0000,0.0000,0.0000,0.00,0.00,0.00,1.1970,0.2240,1.0160,0.8670,2.7020,527,0.0000,0.0000,0.0000,0.0000,0.0000,0
5555,-0.0057,0.0368,0.0095,-0.0429,0.0735,-0.0005,-0.49,0.74,0.54,0,3.526,-1.271,5.762,-8.722,0.008,0.008,0.948,0.000,0.000,0.000,0.0100,20,-10,0.00,0.00,0.00,0.0000,0.0000,0.0000,0.0000,0.0000,0.0000,0.0000,0.00,0.00,0.00,1.1970,0.0000,1.0160,0.8670,2.7010,527,0.0000,0.0000,0.0000,0.0000,0.0000,0
5605,-0.0011,0.0289,0.0100,-0.0247,0.0360,-0.0017,0.40,0.25,0.10,0,3.521,-0.667,6.958,-6.595,0.009,-0.004,0.981,0.000,0.000,0.000,0.0100,6,-4,0.00,0.00,0.00,0.0000,0.0000,0.0000,0.0000,0.0000,0.0000,0.0000,0.00,0.00,0.00,1.1970,0.0000,1.0110,0.8530,2.7010,527,0.0000,0.0000,0.0000,0.0000,0.0000,0
5657,0.0297,-0.0133,0.0095,0.0770,-0.1071,-0.0028,1.11,-0.22,-0.19,0,3.521,-13.834,-8.765,2.084,-0.004,-0.012,0.952,0.000,0.000,0.000,0.0080,16,-38,0.00,0.00,0.00,0.0000,0.0000,0.0000,0.0000,0.0000,0.0000,0.0000,0.00,0.00,0.00,1.1910,0.0000,1.0110,0.8530,2.7040,527,0.0000,0.0000,0.0000,0.0000,0.0000,0
5708,0.0588,-0.0402,0.0062,0.1655,-0.1848,-0.0283,1.29,-0.55,-0.09,0,3.505,-5.407,1.273,-0.542,0.000,-0.018,1.018,0.000,0.000,0.000,0.0060,11,0,0.00,0.00,0.00,0.0000,0.0000,0.0000,0.0000,0.0000,0.0000,0.0000,0.00,0.00,0.00,1.1910,0.0000,1.0160,0.8460,2.7040,527,0.0000,0.0000,0.0000,0.0000,0.0000,0
5759,0.0570,-0.0482,0.0063,0.1368,-0.1909,-0.0118,1.09,-0.17,-0.12,0,3.510,-5.719,3.290,1.285,-0.002,-0.010,1.019,0.000,0.000,0.000,0.0070,-21,0,0.00,0.00,0.00,0.0000,0.0000,0.0000,0.0000,0.0000,0.0000,0.0000,0.00,0.00,0.00,1.1940,0.0000,1.0160,0.8460,2.6970,527,0.0000,0.0000,0.0000,0.0000,0.0000,0
5810,0.0497,-0.0540,0.0075,0.0909,-0.1835,0.0033,-0.44,0.07,-0.15,0,3.505,-28.260,-8.802,-1.762,0.005,-0.015,0.977,0.000,0.000,0.000,0.0130,0,0,0.00,0.00,0.00,0.0000,0.0000,0.0000,0.0000,0.0000,0.0000,0.0000,0.00,0.00,0.00,1.1940,0.0000,1.0140,0.8550,2.6970,527,0.0000,0.0000,0.0000,0.0000,0.0000,0
5860,0.0479,-0.0315,0.0117,0.0679,-0.0696,0.0299,-2.03,0.16,-0.27,0,3.505,8.690,-9.277,3.818,0.011,-0.038,0.961,0.000,0.000,0.000,0.0130,3,-5,0.00,0.00,0.00,0.0000,0.0000,0.0000,0.0000,0.0000,0.0000,0.0000,0.00,0.00,0.00,1.2020,0.0000,1.0140,0.8550,2.6990,527,0.0000,0.0000,0.0000,0.0000,0.0000,0
5911,0.0462,-0.0348,0.0131,0.0461,-0.0517,0.0174,-2.34,0.91,-0.11,0,3.489,11.609,-4.945,7.571,0.011,-0.041,0.959,0.000,0.000,0.000,0.0120,-9,6,0.00,0.00,0.00,0.0000,0.0000,0.0000,0.0000,0.0000,0.0000,0.0000,0.00,0.00,0.00,1.2020,0.0000,0.9960,0.8620,2.6990,527,0.0000,0.0000,0.0000,0.0000,0.0000,0
5962,0.0455,-0.0317,0.0128,0.0274,-0.0131,-0.0008,-1.97,1.34,0.28,0,3.489,12.739,2.966,6.223,0.028,-0.019,1.075,0.000,0.000,0.000,0.0120,-30,10,0.00,0.00,0.00,0.0000,0.0000,0.0000,0.0000,0.0000,0.0000,0.0000,0.00,0.00,0.00,1.2150,0.2440,0.9960,0.8620,2.6900,527,0.0000,0.0000,0.0000,0.0000,0.0000,0
6014,0.0431,-0.0208,0.0121,0.0069,0.0444,-0.0009,-1.86,1.09,0.62,0,3.473,26.753,-19.586,1.836,0.007,-0.024,1.046,0.000,0.000,0.000,0.0120,-5,5,0.00,0.00,0.00,0.0000,0.0000,0.0000,0.0000,0.0000,0.0000,0.0000,0.00,0.00,0.00,1.2150,0.2440,1.0080,0.8820,2.6900,527,0.0000,0.0000,0.0000,0.0000,0.0000,0
6065,0.0303,-0.0102,0.0115,-0.0624,0.0917,0.0051,-1.11,2.34,0.64,0,3.473,-14.297,-4.271,6.372,0.015,-0.016,1.023,0.000,0.000,0.000,0.0130,-8,31,0.00,0.00,0.00,0.0000,0.0000,0.0000,0.0000,0.0000,0.0000,0.0000,0.00,0.00,0.00,1.2180,0.2000,1.0080,0.8820,2.7050,527,0.0000,0.0000,0.0000,0.0000,0.0000,0
6116,0.0139,-0.0063,0.0112,-0.1445,0.0965,0.0154,-1.35,3.07,0.83,0,3.457,42.890,21.741,-0.369,0.013,-0.017,1.009,0.000,0.000,0.000,0.0120,-20,21,0.00,0.00,0.00,0.0000,0.0000,0.0000,0.0000,0.0000,0.0000,0.0000,0.00,0.00,0.00,1.2180,0.2000,1.0210,0.8720,2.7050,527,0.0000,0.0000,0.0000,0.0000,0.0000,0
6166,-0.0079,-0.0075,0.0102,-0.2366,0.0761,0.0142,0.15,2.60,0.82,0,3.457,-7.679,51.339,-2.279,0.008,-0.030,1.051,0.000,0.000,0.000,0.0000,4,-2,0.00,0.00,0.00,0.0000,0.0000,0.0000,0.0000,0.0000,0.0000,0.0000,0.00,0.00,0.00,1.2190,0.2340,1.0210,0.8720,2.6960,527,0.0000,0.0000,0.0000,0.0000,0.0000,0
6218,-0.0224,-0.0027,0.0073,-0.2518,0.0727,0.0177,0.87,-0.09,0.81,0,3.447,-25.455,64.402,3.018,0.005,-0.017,1.054,0.000,0.000,0.000,0.0000,28,37,0.00,0.00,0.00,0.0000,0.0000,0.0000,0.0000,0.0000,0.0000,0.0000,0.00,0.00,0.00,1.2190,0.2340,1.0350,0.8530,2.6960,527,0.0000,0.0000,0.0000,0.0000,0.0000,0
6268,-0.0363,-0.0200,0.0040,-0.2726,-0.0329,0.0119,0.23,-2.89,0.87,0,3.442,7.279,46.169,-0.839,-0.015,-0.029,1.064,0.000,0.000,0.000,0.0000,9,6,0.00,0.00,0.00,0.0000,0.0000,0.0000,0.0000,0.0000,0.0000,0.0000,0.00,0.00,0.00,0.0000,0.0000,1.0350,0.8530,2.6980,527,0.0000,0.0000,0.0000,0.0000,0.0000,0
6319,-0.0477,-0.0362,0.0022,-0.2365,-0.1051,0.0220,0.93,-5.69,0.91,0,3.431,-10.802,35.131,-9.622,-0.001,-0.041,1.048,0.000,0.000,0.000,0.0000,16,-10,0.00,0.00,0.00,0.0000,0.0000,0.0000,0.0000,0.0000,0.0000,0.0000,0.00,0.00,0.00,0.0000,0.0000,1.0230,0.8740,2.6980,527,0.0000,0.0000,0.0000,0.0000,0.0000,0
6371,-0.0480,-0.0479,0.0020,-0.1316,-0.1439,0.0377,0.51,-8.26,0.55,0,3.431,-49.069,-32.157,-11.173,0.008,-0.029,1.074,0.000,0.000,0.000,0.0040,13,-14,0.00,0.00,0.00,0.0000,0.0000,0.0000,0.0000,0.0000,0.0000,0.0000,0.00,0.00,0.00,0.2230,0.1590,1.0230,0.8740,2.7270,527,0.0000,0.0000,0.0000,0.0000,0.0000,0
6422,-0.0476,-0.0580,0.0041,-0.0369,-0.1613,0.0610,-1.32,-7.34,0.07,0,3.415,-32.235,-64.925,-7.140,-0.003,-0.021,1.079,0.000,0.000,0.000,0.0160,12,-45,0.00,0.00,0.00,0.0000,0.0000,0.0000,0.0000,0.0000,0.0000,0.0000,0.00,0.00,0.00,0.2230,0.1590,1.0280,0.8770,2.7270,527,0.0000,0.0000,0.0000,0.0000,0.0000,0
6474,-0.0354,-0.0667,0.0102,0.0910,-0.1523,0.1077,-3.17,-4.68,-0.23,0,3.431,-7.052,-42.077,-5.279,-0.010,-0.023,1.056,0.000,0.000,0.000,0.0270,1,-21,0.00,0.00,0.00,0.0000,0.0000,0.0000,0.0000,0.0000,0.0000,0.0000,0.00,0.00,0.00,1.1820,0.1860,1.0280,0.8770,2.6880,527,0.0000,0.0000,0.0000,0.0000,0.0000,0
6525,-0.0091,-0.0714,0.0178,0.2418,-0.1082,0.1540,-3.91,-2.94,-0.43,0,3.426,8.987,-63.586,2.042,0.001,-0.016,1.029,0.000,0.000,0.000,0.0390,-5,-41,0.00,0.00,0.00,0.0000,0.0000,0.0000,0.0000,0.0000,0.0000,0.0000,0.00,0.00,0.00,1.1820,0.1860,1.0140,0.9150,2.6880,527,0.0000,0.0000,0.0000,0.0000,0.0000,0
6575,0.0110,-0.0704,0.0302,0.3040,-0.0428,0.1980,-3.82,-0.31,-0.29,0,3.431,12.920,-64.129,9.483,-0.006,-0.017,1.026,0.000,0.000,0.000,0.0590,-8,-32,0.00,0.00,0.00,0.0000,0.0000,0.0000,0.0000,0.0000,0.0000,0.0000,0.00,0.00,0.00,1.1780,0.0000,1.0140,0.9150,2.6520,527,0.0000,0.0000,0.0000,0.0000,0.0000,0
6626,0.0334,-0.0669,0.0471,0.3372,0.0172,0.2463,-3.37,2.75,0.23,0,3.431,27.608,-66.084,14.689,-0.003,-0.016,1.012,0.000,0.000,0.000,0.0680,-7,-14,0.00,0.00,0.00,0.0000,0.0000,0.0000,0.0000,0.0000,0.0000,0.0000,0.00,0.00,0.00,1.1780,0.0000,1.0110,0.9720,2.6520,527,0.0000,0.0000,0.0000,0.0000,0.0000,0
6678,0.0492,-0.0595,0.0631,0.3062,0.0773,0.2747,-2.45,6.02,1.05,0,3.447,10.928,-26.581,16.949,-0.009,-0.016,0.987,0.000,0.000,0.000,0.0870,-10,-15,0.00,0.00,0.00,0.0000,0.0000,0.0000,0.0000,0.0000,0.0000,0.0000,0.00,0.00,0.00,1.1580,0.1500,1.0110,0.9720,2.6390,527,0.0000,0.0000,0.0000,0.0000,0.0000,0
6728,0.0609,-0.0524,0.0813,0.2383,0.1109,0.2944,-1.77,7.79,1.91,0,3.447,20.385,4.314,15.333,-0.003,-0.018,0.968,0.000,0.000,0.000,0.0970,-5,-1,0.00,0.00,0.00,0.0000,0.0000,0.0000,0.0000,0.0000,0.0000,0.0000,0.00,0.00,0.00,1.1580,0.1500,1.0290,0.9830,2.6390,527,0.0000,0.0000,0.0000,0.0000,0.0000,0
6779,0.0628,-0.0457,0.0968,0.1272,0.1268,0.2878,-1.02,7.96,2.58,0,3.447,39.906,29.964,12.570,0.001,-0.013,0.955,0.000,0.000,0.000,0.1050,-11,3,0.00,0.00,0.00,0.0000,0.0000,0.0000,0.0000,0.0000,0.3000,0.2722,2.65,9.97,-77.37,1.1580,0.1230,1.0290,0.9830,2.6240,527,0.0000,0.0000,0.0000,0.0000,0.0000,0
6830,0.0648,-0.0405,0.1084,0.0496,0.1248,0.2548,0.81,6.70,3.23,0,3.442,18.671,35.275,8.751,0.005,-0.016,0.943,0.000,0.000,0.000,0.1170,-9,5,-1.02,-7.96,2.58,0.0628,-0.0457,0.1050,0.0000,0.0000,0.3000,0.2736,2.89,6.61,-96.85,1.1580,0.1230,1.0370,0.9890,2.6240,527,0.0000,0.0000,0.0000,0.0000,0.0000,0
6882,0.0633,-0.0346,0.1190,-0.0158,0.1143,0.2191,1.87,4.98,3.68,0,3.436,3.492,31.630,3.925,0.005,-0.019,0.963,0.000,0.000,0.000,0.1230,-5,1,-0.56,-9.29,2.93,0.0478,-0.0264,0.1137,0.0000,0.0000,0.3000,0.2755,2.80,3.55,-110.47,1.1620,0.1210,1.0370,0.9890,2.5930,527,0.0000,0.0000,0.0000,0.0000,0.0000,0
6933,0.0596,-0.0293,0.1266,-0.0655,0.0972,0.1790,2.08,3.44,3.98,0,3.426,3.839,31.755,1.745,0.005,-0.016,0.962,0.000,0.000,0.000,0.1210,-2,5,1.39,-10.88,3.42,0.0480,-0.0204,0.1255,0.0000,0.0000,0.3000,0.2784,2.36,1.06,-119.40,1.1620,0.1210,1.0510,0.9910,2.5930,527,0.0000,0.0000,0.0000,0.0000,0.0000,0
6983,0.0547,-0.0249,0.1292,-0.0978,0.0793,0.1272,2.16,1.93,4.14,0,3.421,2.472,30.352,-2.117,0.007,-0.027,0.985,0.000,0.000,0.000,0.1300,-4,5,3.84,-7.56,3.88,0.0451,-0.0177,0.1347,0.0000,0.0000,0.3000,0.2835,1.83,-0.69,-124.09,1.1740,0.1370,1.0510,0.9910,2.5800,527,0.0000,0.0000,0.0000,0.0000,0.0000,0
7034,0.0496,-0.0218,0.1330,-0.1114,0.0585,0.1012,2.29,0.38,4.08,0,3.405,-0.408,25.130,-7.673,0.010,-0.024,0.998,0.000,0.000,0.000,0.1350,0,7,2.47,-5.92,3.73,0.0402,-0.0137,0.1368,0.0000,0.0000,0.3000,0.2856,1.12,-1.60,-122.32,1.1740,0.1370,1.0500,1.0080,2.5800,527,0.0000,0.0000,0.0000,0.0000,0.0000,0
7085,0.0432,-0.0191,0.1367,-0.1171,0.0406,0.0913,2.28,-0.88,3.82,0,3.410,-3.806,14.877,-9.666,0.007,-0.024,1.008,0.000,0.000,0.000,0.1360,0,9,3.05,-4.25,3.53,0.0322,-0.0141,0.1361,0.0000,0.0000,0.3000,0.2859,0.52,-2.25,-114.57,1.1880,0.1440,1.0500,1.0080,2.5670,527,0.0000,0.0000,0.0000,0.0000,0.0000,0
7136,0.0367,-0.0173,0.1391,-0.1130,0.0232,0.0816,2.11,-1.71,3.44,0,3.399,-4.663,10.038,-11.110,0.006,-0.021,1.023,0.000,0.000,0.000,0.1420,2,6,2.51,-2.70,3.20,0.0207,-0.0149,0.1336,0.0000,0.0000,0.3000,0.2866,-0.12,-2.50,-103.09,1.1880,0.1440,1.0460,1.0160,2.5670,527,0.0000,0.0000,0.0000,0.0000,0.0000,0
7187,0.0312,-0.0163,0.1428,-0.0978,0.0074,0.0861,1.85,-2.15,2.91,0,3.399,-9.812,2.665,-10.203,0.002,-0.020,1.035,0.000,0.000,0.000,0.1420,0,2,2.35,-2.89,2.65,0.0131,-0.0181,0.1376,0.0000,0.0000,0.3000,0.2854,-0.74,-2.20,-87.15,1.2040,0.1620,1.0460,1.0160,2.5700,527,0.0000,0.0000,0.0000,0.0000,0.0000,0
7239,0.0259,-0.0159,0.1451,-0.0823,-0.0059,0.0873,1.41,-2.27,2.34,0,3.394,-7.403,-0.093,-12.092,0.003,-0.017,1.038,0.000,0.000,0.000,0.1510,3,2,1.12,-3.61,2.30,0.0103,-0.0191,0.1448,0.0000,0.0000,0.3000,0.2848,-1.29,-1.88,-70.10,1.2040,0.1620,1.0400,1.0330,2.5700,527,0.0000,0.0000,0.0000,0.0000,0.0000,0
7290,0.0224,-0.0163,0.1504,-0.0619,-0.0169,0.1077,1.00,-2.28,1.73,0,3.405,-9.302,-9.251,-10.099,0.002,-0.018,1.036,0.000,0.000,0.000,0.1590,2,0,0.85,-3.62,1.62,0.0079,-0.0237,0.1516,0.0000,0.0000,0.3000,0.2816,-1.82,-1.24,-51.90,1.2080,0.0000,1.0400,1.0330,2.5560,527,0.0000,0.0000,0.0000,0.0000,0.0000,0
7340,0.0194,-0.0184,0.1574,-0.0428,-0.0291,0.1317,0.56,-1.98,1.18,0,3.405,-4.925,-8.606,-7.352,0.003,-0.016,1.027,0.000,0.000,0.000,0.1640,2,0,0.18,-3.30,1.17,0.0083,-0.0273,0.1600,0.0000,0.0000,0.3000,0.2777,-2.53,-0.60,-35.31,1.2080,0.0000,1.0350,1.0550,2.5560,527,0.0000,0.0000,0.0000,0.0000,0.0000,0
7391,0.0185,-0.0216,0.1642,-0.0225,-0.0403,0.1460,0.29,-1.58,0.81,0,3.410,-9.715,-6.727,-3.763,0.002,-0.018,1.021,0.000,0.000,0.000,0.1760,9,-6,-0.21,-2.80,0.83,0.0089,-0.0310,0.1684,0.0000,0.0000,0.3000,0.2749,-3.27,0.25,-24.18,1.2010,0.1710,1.0350,1.0550,2.5390,527,0.0000,0.0000,0.0000,0.0000,0.0000,0
7443,0.0167,-0.0229,0.1736,-0.0120,-0.0392,0.1668,-0.13,-1.35,0.58,0,3.410,-8.865,-6.737,-1.755,0.004,-0.015,1.018,0.000,0.000,0.000,0.1830,0,0,0.18,-3.12,0.46,0.0191,-0.0456,0.1770,0.0000,0.0000,0.3000,0.2709,-3.36,0.61,-17.40,1.2010,0.1710,1.0350,1.0710,2.5390,527,0.0000,0.0000,0.0000,0.0000,0.0000,0
7494,0.0190,-0.0274,0.1825,0.0089,-0.0470,0.1782,-0.55,-1.01,0.49,0,3.415,-2.362,-8.766,0.335,0.001,-0.015,1.007,0.000,0.000,0.000,0.1920,1,-2,-0.28,-2.78,0.37,0.0261,-0.0548,0.1868,0.0000,0.0000,0.3000,0.2680,-4.07,1.73,-14.63,1.2040,0.0000,1.0350,1.0710,2.5220,527,0.0000,0.0000,0.0000,0.0000,0.0000,0
7544,0.0193,-0.0300,0.1918,0.0174,-0.0427,0.1839,-0.70,-0.57,0.50,0,3.415,-6.259,-4.348,1.800,0.001,-0.011,1.003,0.000,0.000,0.000,0.1980,1,-4,-1.56,-1.59,0.65,0.0220,-0.0462,0.2030,0.0000,0.0000,0.3000,0.2656,-4.09,2.17,-15.15,1.2040,0.0000,1.0330,1.0870,2.5220,527,0.0000,0.0000,0.0000,0.0000,0.0000,0
7595,0.0199,-0.0315,0.1997,0.0199,-0.0351,0.1790,-0.93,-0.20,0.60,0,3.421,-1.572,-0.941,1.662,0.006,-0.014,0.995,0.000,0.000,0.000,0.2120,8,2,-1.92,-1.51,0.87,0.0288,-0.0481,0.2110,0.0000,0.0000,0.3000,0.2647,-3.85,2.34,-18.02,1.1920,0.0000,1.0330,1.0870,2.5020,527,0.0000,0.0000,0.0000,0.0000,0.0000,0
7646,0.0208,-0.0319,0.2108,0.0207,-0.0234,0.1894,-0.89,-0.09,0.70,0,3.415,4.395,-1.445,1.813,0.001,-0.015,0.986,0.000,0.000,0.000,0.2210,-2,-1,-1.39,-1.04,0.11,0.0282,-0.0602,0.2225,0.0000,0.0000,0.3000,0.2614,-3.38,2.47,-20.97,1.1920,0.0000,1.0370,0.0000,2.5020,527,0.0000,0.0000,0.0000,0.0000,0.0000,0
7697,0.0210,-0.0359,0.2206,0.0188,-0.0249,0.1874,-0.69,0.02,0.79,0,3.421,1.776,-1.952,1.147,0.002,-0.016,0.979,0.000,0.000,0.000,0.2200,-1,-1,-1.55,-0.91,0.51,0.0311,-0.0581,0.2316,0.0000,0.0000,0.3000,0.2598,-3.75,2.40,-23.56,1.1900,0.1610,1.0370,0.0000,2.4790,527,0.0000,0.0000,0.0000,0.0000,0.0000,0
7748,0.0217,-0.0351,0.2264,0.0181,-0.0134,0.1611,-0.54,0.13,0.86,0,3.410,6.284,4.880,1.668,0.000,-0.018,0.980,0.000,0.000,0.000,0.2340,0,1,-1.66,-0.74,0.72,0.0333,-0.0560,0.2365,0.0000,0.0000,0.3000,0.2616,-3.14,2.41,-25.66,1.1900,0.1610,1.0460,0.0000,2.4790,527,0.0000,0.0000,0.0000,0.0000,0.0000,0
7799,0.0232,-0.0348,0.2341,0.0188,-0.0063,0.1503,-0.27,0.02,0.92,0,3.415,0.581,-6.529,2.980,0.004,-0.017,0.982,0.000,0.000,0.000,0.2350,-1,-2,-1.36,-0.77,0.62,0.0319,-0.0559,0.2435,0.0000,0.0000,0.3000,0.2613,-2.77,2.55,-27.64,1.1880,0.0000,1.0460,0.0000,2.4710,527,0.0000,0.0000,0.0000,0.0000,0.0000,0
7850,0.0238,-0.0313,0.2387,0.0178,0.0076,0.1267,-0.29,0.21,1.05,0,3.405,5.657,1.029,3.375,0.000,-0.015,0.987,0.000,0.000,0.000,0.2410,-1,0,-1.44,-0.51,0.98,0.0362,-0.0534,0.2479,0.0000,0.0000,0.3000,0.2630,-1.86,2.53,-31.41,1.1880,0.0000,1.0490,0.0000,2.4710,527,0.0000,0.0000,0.0000,0.0000,0.0000,0
7902,0.0252,-0.0300,0.2433,0.0175,0.0122,0.1098,-0.10,0.34,1.21,0,3.405,5.167,0.912,2.477,0.003,-0.014,0.988,0.000,0.000,0.000,0.2480,-1,0,-1.21,-0.46,1.12,0.0363,-0.0509,0.2524,0.0000,0.0000,0.3000,0.2639,-1.54,2.60,-36.35,1.1840,0.1610,1.0490,0.0000,2.4550,527,0.0000,0.0000,0.0000,0.0000,0.0000,0
7952,0.0256,-0.0293,0.2488,0.0138,0.0132,0.1049,0.19,0.27,1.35,0,3.399,1.975,0.629,2.893,0.004,-0.017,0.994,0.000,0.000,0.000,0.2520,-1,0,-0.98,-0.42,1.21,0.0362,-0.0484,0.2568,0.0000,0.0000,0.3000,0.2634,-1.45,2.46,-40.58,1.1840,0.1610,1.0480,1.1670,2.4550,527,0.0000,0.0000,0.0000,0.0000,0.0000,0
8003,0.0260,-0.0266,0.2531,0.0108,0.0175,0.0968,0.30,0.27,1.48,0,3.405,3.188,3.262,1.384,0.001,-0.014,0.995,0.000,0.000,0.000,0.2650,-1,0,-0.90,-0.39,1.33,0.0363,-0.0458,0.2608,0.0000,0.0000,0.3000,0.2635,-1.06,2.35,-44.33,1.1780,0.1650,1.0480,1.1670,2.4460,527,0.0000,0.0000,0.0000,0.0000,0.0000,0
8054,0.0279,-0.0257,0.2613,0.0125,0.0154,0.1118,0.42,0.16,1.55,0,3.410,3.896,3.370,-0.624,0.002,-0.017,1.001,0.000,0.000,0.000,0.2640,-2,0,-0.76,-0.51,1.39,0.0365,-0.0431,0.2674,0.0000,0.0000,0.3000,0.2603,-1.11,2.59,-46.51,1.1780,0.1650,1.0530,0.0000,2.4460,527,0.0000,0.0000,0.0000,0.0000,0.0000,0
8105,0.0285,-0.0244,0.2656,0.0112,0.0135,0.1041,0.54,0.04,1.52,0,3.410,-1.184,0.736,-1.655,0.002,-0.016,0.996,0.000,0.000,0.000,0.2710,-1,-2,-0.64,-0.64,1.44,0.0364,-0.0378,0.2717,0.0000,0.0000,0.3000,0.2603,-1.11,2.58,-45.68,1.1810,0.1580,1.0530,0.0000,2.4330,527,0.0000,0.0000,0.0000,0.0000,0.0000,0
8156,0.0289,-0.0227,0.2713,0.0106,0.0116,0.1040,0.52,-0.04,1.45,0,3.410,-7.618,-3.536,-0.576,0.006,-0.013,0.998,0.000,0.000,0.000,0.2790,-1,0,-0.71,-0.75,1.43,0.0418,-0.0349,0.2767,0.0000,0.0000,0.3000,0.2593,-1.09,2.58,-43.54,1.1810,0.1580,1.0520,0.0000,2.4330,527,0.0000,0.0000,0.0000,0.0000,0.0000,0
8207,0.0313,-0.0229,0.2775,0.0152,0.0057,0.1079,0.33,0.09,1.42,0,3.410,-1.998,0.310,0.479,0.003,-0.010,0.995,0.000,0.000,0.000,0.2810,4,0,-1.11,-0.51,1.36,0.0418,-0.0320,0.2826,0.0000,0.0000,0.3000,0.2577,-1.39,2.99,-42.56,1.1790,0.1590,1.0520,0.0000,2.4240,527,0.0000,0.0000,0.0000,0.0000,0.0000,0
8258,0.0315,-0.0222,0.2821,0.0134,0.0038,0.1011,0.25,0.19,1.45,0,3.405,0.521,0.048,1.451,0.005,-0.009,0.993,0.000,0.000,0.000,0.2900,0,-1,-0.92,-0.46,0.91,0.0420,-0.0433,0.2877,0.0000,0.0000,0.3000,0.2576,-1.43,2.93,-43.44,1.1790,0.1590,1.0520,1.2350,2.4240,527,0.0000,0.0000,0.0000,0.0000,0.0000,0
8310,0.0316,-0.0250,0.2883,0.0106,-0.0050,0.1039,0.22,0.16,1.52,0,3.405,-5.427,0.646,2.591,0.008,-0.012,0.989,0.000,0.000,0.000,0.2940,0,0,-0.89,-0.48,0.99,0.0450,-0.0431,0.2935,0.0000,0.0000,0.3000,0.2561,-2.06,2.82,-45.66,1.1790,0.0000,1.0520,1.2350,2.4040,527,0.0000,0.0000,0.0000,0.0000,0.0000,0
8361,0.0311,-0.0260,0.2941,0.0067,-0.0085,0.1023,0.01,0.17,1.65,0,3.410,-2.571,0.321,3.295,0.005,-0.010,0.992,0.000,0.000,0.000,0.2990,0,0,-1.18,-0.51,1.12,0.0480,-0.0429,0.2984,0.0000,0.0000,0.3000,0.2552,-2.32,2.60,-49.58,1.1790,0.0000,1.0510,1.2960,2.4040,527,0.0000,0.0000,0.0000,0.0000,0.0000,0
8412,0.0443,-0.0254,0.2990,0.0356,-0.0059,0.0974,-0.09,-0.08,1.80,0,3.410,2.014,-4.764,0.887,0.004,-0.010,0.985,0.000,0.000,0.000,0.3030,0,0,-1.31,-0.53,1.29,0.0514,-0.0425,0.3032,0.0000,0.0000,0.3000,0.2548,-2.15,4.96,-54.02,1.1710,0.1650,1.0510,1.2960,2.4050,527,0.0000,0.0000,0.0000,0.0000,0.0000,0
8464,0.0465,-0.0257,0.3038,0.0371,-0.0053,0.0915,-0.03,0.06,1.84,0,3.410,2.341,-4.602,-1.809,0.006,-0.014,0.987,0.000,0.000,0.000,0.3060,0,-1,-1.20,-0.29,1.34,0.0552,-0.0417,0.3075,0.0000,0.0000,0.3000,0.2545,-2.14,5.20,-55.13,1.1710,0.1650,1.0540,0.0000,2.4050,527,0.0000,0.0000,0.0000,0.0000,0.0000,0
8515,0.0481,-0.0258,0.3072,0.0359,-0.0047,0.0783,-0.01,0.32,1.77,0,3.405,-0.980,-0.719,-3.362,0.002,-0.011,0.986,0.000,0.000,0.000,0.3100,0,0,-1.01,0.17,0.98,0.0428,-0.0453,0.3112,0.0000,0.0000,0.3000,0.2553,-2.12,5.24,-52.96,1.1730,0.1630,1.0540,0.0000,2.3880,527,0.0000,0.0000,0.0000,0.0000,0.0000,0
8566,0.0491,-0.0254,0.3108,0.0317,-0.0033,0.0696,-0.01,0.34,1.61,0,3.405,-3.013,0.681,-5.600,-0.000,-0.015,0.992,0.000,0.000,0.000,0.3120,0,-2,-1.06,0.21,0.81,0.0439,-0.0450,0.3144,0.0000,0.0000,0.3000,0.2555,-2.02,5.10,-48.31,1.1730,0.1630,1.0550,0.0000,2.3880,527,0.0000,0.0000,0.0000,0.0000,0.0000,0
8616,0.0495,-0.0258,0.3132,0.0264,-0.0038,0.0593,-0.05,0.32,1.33,0,3.399,-0.481,1.353,-7.081,0.001,-0.013,0.993,0.000,0.000,0.000,0.3150,0,0,-1.21,0.13,0.54,0.0479,-0.0451,0.3169,0.0000,0.0000,0.3000,0.2562,-2.07,4.87,-39.86,1.1680,0.1640,1.0550,0.0000,2.3900,527,0.0000,0.0000,0.0000,0.0000,0.0000,0
8667,0.0501,-0.0268,0.3159,0.0226,-0.0050,0.0542,-0.07,0.25,0.96,0,3.399,-2.644,-1.292,-8.181,0.004,-0.015,0.995,0.000,0.000,0.000,0.3180,0,0,-1.23,0.07,0.19,0.0496,-0.0446,0.3193,0.0000,0.0000,0.3000,0.2562,-2.20,4.73,-28.88,1.1680,0.1640,1.0520,1.6110,2.3900,527,0.0000,0.0000,0.0000,0.0000,0.0000,0
8719,0.0500,-0.0290,0.3183,0.0180,-0.0080,0.0507,-0.18,0.26,0.52,0,3.399,-0.130,0.891,-9.412,0.003,-0.014,0.998,0.000,0.000,0.000,0.3230,0,0,-1.37,0.15,-0.23,0.0514,-0.0439,0.3218,0.0000,0.0000,0.3000,0.2562,-2.50,4.51,-15.63,1.1630,0.1730,1.0520,1.6110,2.3870,527,0.0000,0.0000,0.0000,0.0000,0.0000,0
8769,0.0513,-0.0279,0.3219,0.0166,-0.0036,0.0546,-0.20,0.26,0.04,0,3.399,3.098,0.345,-9.455,0.003,-0.013,1.001,0.000,0.000,0.000,0.3230,-3,2,-1.37,0.11,-0.72,0.0531,-0.0430,0.3248,0.0000,0.0000,0.3000,0.2551,-2.22,4.55,-1.24,1.1630,0.1730,1.0580,0.0000,2.3870,527,0.0000,0.0000,0.0000,0.0000,0.0000,0
8820,0.0528,-0.0290,0.3239,0.0159,-0.0039,0.0500,-0.13,0.20,-0.44,0,3.399,0.932,1.206,-10.376,0.004,-0.017,0.998,0.000,0.000,0.000,0.3290,-4,1,-1.28,0.28,-1.21,0.0426,-0.0370,0.3271,0.0000,0.0000,0.3000,0.2552,-2.32,4.62,13.27,1.1540,0.1740,1.0580,0.0000,2.3740,527,0.0000,0.0000,0.0000,0.0000,0.0000,0
8871,0.0507,-0.0276,0.3277,0.0088,0.0004,0.0549,-0.09,0.16,-0.96,0,3.405,1.760,1.792,-10.739,0.001,-0.015,0.995,0.000,0.000,0.000,0.3280,-1,0,-1.29,0.24,-1.64,0.0411,-0.0314,0.3301,0.0000,0.0000,0.3000,0.2539,-2.01,4.15,28.94,1.1540,0.1740,1.0540,0.0000,2.3740,527,0.0000,0.0000,0.0000,0.0000,0.0000,0
8923,0.0504,-0.0248,0.3294,0.0062,0.0063,0.0484,0.04,0.02,-1.51,0,3.399,1.952,3.129,-10.339,0.002,-0.015,0.992,0.000,0.000,0.000,0.3290,0,2,-1.20,0.15,-2.18,0.0404,-0.0280,0.3321,0.0000,0.0000,0.3000,0.2543,-1.52,4.00,45.41,1.1590,0.1750,1.0540,0.0000,2.3730,527,0.0000,0.0000,0.0000,0.0000,0.0000,0
8973,0.0519,-0.0227,0.3308,0.0082,0.0097,0.0400,0.15,-0.18,-2.00,0,3.399,-2.474,-2.895,-7.101,0.006,-0.010,0.994,0.000,0.000,0.000,0.3340,0,0,-1.07,0.05,-2.82,0.0369,-0.0261,0.3333,0.0000,0.0000,0.3000,0.2550,-1.20,4.19,59.93,1.1590,0.1750,1.0600,0.0000,2.3730,527,0.0000,0.0000,0.0000,0.0000,0.0000,0
9024,0.0509,-0.0231,0.3333,0.0068,0.0071,0.0406,0.04,-0.03,-2.37,0,3.399,2.097,3.494,-5.417,0.001,-0.010,0.996,0.000,0.000,0.000,0.3330,-1,2,-1.19,0.20,-3.17,0.0353,-0.0227,0.3355,0.0000,0.0000,0.3000,0.2544,-1.36,4.06,71.00,1.1580,0.0000,1.0600,0.0000,2.3660,527,0.0000,0.0000,0.0000,0.0000,0.0000,0
9075,0.0536,-0.0230,0.3345,0.0114,0.0062,0.0349,0.05,-0.02,-2.66,0,3.399,5.359,5.336,-4.309,0.006,-0.013,0.995,0.000,0.000,0.000,0.3370,0,3,-1.03,0.07,-3.58,0.0308,-0.0223,0.3367,0.0000,0.0000,0.3000,0.2548,-1.39,4.48,79.94,1.1580,0.0000,1.0590,0.0000,2.3660,527,0.0000,0.0000,0.0000,0.0000,0.0000,0
9127,0.0519,-0.0243,0.3365,0.0073,0.0028,0.0344,0.29,-0.13,-2.88,0,3.399,-2.723,1.826,-2.238,0.005,-0.013,0.994,0.000,0.000,0.000,0.3340,-3,0,-0.74,-0.15,-3.90,0.0244,-0.0205,0.3385,0.0000,0.0000,0.3000,0.2545,-1.65,4.16,86.26,1.1550,0.1850,1.0590,0.0000,2.3630,527,0.0000,0.0000,0.0000,0.0000,0.0000,0
9177,0.0518,-0.0281,0.3366,0.0075,-0.0071,0.0235,0.22,-0.17,-2.99,0,3.394,-3.305,-5.673,-1.578,-0.001,-0.009,1.003,0.000,0.000,0.000,0.3360,1,-1,-0.94,-0.27,-3.87,0.0238,-0.0133,0.3385,0.0000,0.0000,0.3000,0.2556,-2.40,4.15,89.60,1.1550,0.1850,1.0660,0.0000,2.3630,527,0.0000,0.0000,0.0000,0.0000,0.0000,0
9228,0.0478,-0.0440,0.3370,0.0002,-0.0387,0.0180,0.22,0.18,-3.05,0,3.389,-4.549,-0.342,-0.313,0.001,-0.013,0.999,0.000,0.000,0.000,0.3380,0,-1,-1.05,-0.03,-4.03,0.0251,-0.0144,0.3394,0.0000,0.0000,0.3000,0.2561,-5.07,3.50,91.58,1.1530,0.0000,1.0660,0.0000,2.3640,527,0.0000,0.0000,0.0000,0.0000,0.0000,0
9280,0.0493,-0.0465,0.3380,0.0009,-0.0414,0.0183,0.07,0.32,-3.10,0,3.389,-5.631,2.540,-0.655,0.000,-0.011,1.004,0.000,0.000,0.000,0.3400,0,0,-1.26,-0.05,-4.06,0.0272,-0.0137,0.3404,0.0000,0.0000,0.3000,0.2559,-5.38,3.64,92.96,1.1530,0.0000,1.0640,0.0000,2.3640,527,0.0000,0.0000,0.0000,0.0000,0.0000,0
9330,0.0494,-0.0487,0.3394,-0.0014,-0.0418,0.0218,-0.18,0.24,-3.15,0,3.394,-4.002,-0.833,0.039,0.006,-0.009,1.005,0.000,0.000,0.000,0.3410,0,0,-1.55,-0.19,-4.10,0.0265,-0.0110,0.3416,0.0000,0.0000,0.3000,0.2553,-5.57,3.55,94.58,1.1570,0.1800,1.0640,0.0000,2.3620,527,0.0000,0.0000,0.0000,0.0000,0.0000,0
9382,0.0483,-0.0517,0.3408,-0.0053,-0.0413,0.0253,-0.40,0.28,-3.15,0,3.389,-4.999,2.548,0.679,0.003,-0.008,1.007,0.000,0.000,0.000,0.3400,2,0,-1.75,-0.14,-4.09,0.0261,-0.0077,0.3430,0.0000,0.0000,0.3000,0.2546,-5.78,3.29,94.54,1.1570,0.1800,1.0670,0.0000,2.3620,527,0.0000,0.0000,0.0000,0.0000,0.0000,0
9433,0.0485,-0.0506,0.3412,-0.0062,-0.0315,0.0223,-0.59,0.19,-3.13,0,3.389,1.738,4.751,-1.140,0.005,-0.012,1.002,0.000,0.000,0.000,0.3460,0,3,-1.78,-0.29,-4.44,0.0264,-0.0275,0.3444,0.0000,0.0000,0.3000,0.2549,-5.22,3.26,93.81,1.1530,0.1870,1.0670,0.0000,2.3550,527,0.0000,0.0000,0.0000,0.0000,0.0000,0
9484,0.0485,-0.0541,0.3440,-0.0065,-0.0299,0.0314,-0.58,-0.00,-3.17,0,3.394,1.147,-0.391,-0.268,0.003,-0.011,1.002,0.000,0.000,0.000,0.3460,0,0,-1.69,-0.47,-4.57,0.0216,-0.0271,0.3467,0.0000,0.0000,0.3000,0.2534,-5.43,3.26,95.03,1.1530,0.1870,1.0670,0.0000,2.3550,527,0.0000,0.0000,0.0000,0.0000,0.0000,0
9534,0.0445,-0.0531,0.3458,-0.0128,-0.0210,0.0335,-0.53,-0.02,-3.19,0,3.389,1.660,0.192,1.052,0.004,-0.013,0.998,0.000,0.000,0.000,0.3440,-1,0,-1.63,-0.45,-4.58,0.0210,-0.0266,0.3483,0.0000,0.0000,0.3000,0.2528,-4.94,2.67,95.61,1.1570,0.1840,1.0670,0.0000,2.3590,527,0.0000,0.0000,0.0000,0.0000,0.0000,0
9585,0.0420,-0.0521,0.3461,-0.0156,-0.0130,0.0271,-0.47,-0.03,-3.14,0,3.394,2.253,3.706,1.598,0.003,-0.012,1.000,0.000,0.000,0.000,0.3440,0,0,-1.57,-0.47,-4.49,0.0215,-0.0241,0.3487,0.0000,0.0000,0.3000,0.2534,-4.47,2.35,94.35,1.1570,0.1840,1.0670,0.0000,2.3590,527,0.0000,0.0000,0.0000,0.0000,0.0000,0
9636,0.0427,-0.0531,0.3460,-0.0125,-0.0100,0.0178,-0.34,-0.16,-3.12,0,3.389,1.667,0.709,0.879,0.005,-0.011,0.996,0.000,0.000,0.000,0.3500,-1,0,-1.45,-0.66,-4.42,0.0217,-0.0225,0.3488,0.0000,0.0000,0.3000,0.2544,-4.38,2.54,93.54,1.1450,0.1850,1.0670,0.0000,2.3530,527,0.0000,0.0000,0.0000,0.0000,0.0000,0
9687,0.0419,-0.0527,0.3482,-0.0112,-0.0062,0.0233,-0.22,-0.25,-3.05,0,3.389,0.560,-1.997,2.102,0.007,-0.010,0.999,0.000,0.000,0.000,0.3490,0,0,-1.36,-0.69,-4.39,0.0214,-0.0209,0.3504,0.0000,0.0000,0.3000,0.2534,-4.19,2.55,91.62,1.1450,0.1850,1.0710,0.0000,2.3530,527,0.0000,0.0000,0.0000,0.0000,0.0000,0
9739,0.0415,-0.0516,0.3492,-0.0088,-0.0020,0.0222,-0.23,-0.20,-2.97,0,3.384,2.111,-2.258,1.732,0.005,-0.012,0.998,0.000,0.000,0.000,0.3490,0,0,-1.33,-0.59,-4.28,0.0224,-0.0187,0.3513,0.0000,0.0000,0.3000,0.2533,-3.90,2.65,89.06,1.1490,0.1840,1.0710,0.0000,2.3530,527,0.0000,0.0000,0.0000,0.0000,0.0000,0
9790,0.0412,-0.0503,0.3498,-0.0069,0.0022,0.0186,-0.15,-0.18,-2.87,0,3.389,5.148,-1.919,3.086,0.006,-0.012,0.996,0.000,0.000,0.000,0.3500,-1,0,-1.22,-0.47,-4.19,0.0238,-0.0162,0.3517,0.0000,0.0000,0.3000,0.2536,-3.60,2.72,86.04,1.1490,0.1840,1.0710,0.0000,2.3530,527,0.0000,0.0000,0.0000,0.0000,0.0000,0
9841,0.0409,-0.0477,0.3504,-0.0054,0.0071,0.0156,0.08,-0.11,-2.73,0,3.389,2.451,-2.648,3.145,0.002,-0.012,0.996,0.000,0.000,0.000,0.3500,0,0,-0.91,-0.33,-4.13,0.0201,-0.0186,0.3523,0.0000,0.0000,0.3000,0.2538,-3.17,2.76,82.05,1.1570,0.0000,1.0710,0.0000,2.3470,527,0.0000,0.0000,0.0000,0.0000,0.0000,0
9892,0.0422,-0.0455,0.3507,-0.0020,0.0091,0.0120,0.19,-0.09,-2.56,0,3.384,0.981,-0.803,4.611,-0.000,-0.011,0.997,0.000,0.000,0.000,0.3530,1,-1,-0.78,-0.20,-3.97,0.0210,-0.0168,0.3524,0.0000,0.0000,0.3000,0.2541,-2.91,3.02,76.73,1.1570,0.0000,1.0660,0.0000,2.3470,527,0.0000,0.0000,0.0000,0.0000,0.0000,0
9943,0.0421,-0.0441,0.3520,-0.0013,0.0091,0.0151,0.28,-0.06,-2.33,0,3.389,2.514,2.427,4.663,0.003,-0.008,0.997,0.000,0.000,0.000,0.3520,0,0,-0.67,-0.18,-3.79,0.0231,-0.0208,0.3533,0.0000,0.0000,0.3000,0.2536,-2.82,3.06,69.98,1.1530,0.1760,1.0660,0.0000,2.3490,527,0.0000,0.0000,0.0000,0.0000,0.0000,0
9994,0.0458,-0.0435,0.3525,0.0055,0.0072,0.0137,0.40,-0.09,-2.11,0,3.384,1.510,-0.160,3.186,0.003,-0.012,1.002,0.000,0.000,0.000,0.3530,1,-1,-0.54,-0.30,-3.55,0.0245,-0.0201,0.3535,0.0000,0.0000,0.3000,0.2536,-2.86,3.65,63.22,1.1530,0.1760,1.0740,0.0000,2.3490,527,0.0000,0.0000,0.0000,0.0000,0.0000,0
10045,0.0461,-0.0455,0.3531,0.0062,-0.0001,0.0131,0.48,-0.05,-1.92,0,3.384,-2.624,-1.216,3.712,-0.000,-0.008,0.996,0.000,0.000,0.000,0.3530,0,1,-0.42,-0.30,-3.44,0.0263,-0.0237,0.3539,0.0000,0.0000,0.3000,0.2536,-3.36,3.71,57.74,1.1450,0.0000,1.0740,0.0000,2.3480,527,0.0000,0.0000,0.0000,0.0000,0.0000,0
10096,0.0490,-0.0493,0.3535,0.0104,-0.0101,0.0104,0.37,0.05,-1.74,0,3.384,-3.528,-1.466,3.533,0.010,-0.013,0.999,0.000,0.000,0.000,0.3550,0,0,-0.56,-0.21,-3.25,0.0254,-0.0238,0.3542,0.0000,0.0000,0.3000,0.2538,-4.13,4.12,52.08,1.1450,0.0000,1.0700,0.0000,2.3480,527,0.0000,0.0000,0.0000,0.0000,0.0000,0
10147,0.0485,-0.0499,0.3544,0.0083,-0.0132,0.0116,0.26,0.05,-1.56,0,3.384,-4.985,1.041,2.783,0.003,-0.011,1.001,0.000,0.000,0.000,0.3540,2,0,-0.74,-0.14,-3.07,0.0269,-0.0242,0.3549,0.0000,0.0000,0.3000,0.2535,-4.32,3.99,46.81,1.1420,0.0000,1.0700,0.0000,2.3410,527,0.0000,0.0000,0.0000,0.0000,0.0000,0
10198,0.0497,-0.0529,0.3546,0.0090,-0.0189,0.0093,0.09,0.12,-1.41,0,3.384,-3.355,-0.647,1.441,0.004,-0.007,1.005,0.000,0.000,0.000,0.3550,0,0,-0.93,-0.17,-3.00,0.0251,-0.0308,0.3552,0.0000,0.0000,0.3000,0.2537,-4.82,4.11,42.41,1.1420,0.0000,1.0730,0.0000,2.3410,527,0.0000,0.0000,0.0000,0.0000,0.0000,0
10249,0.0521,-0.0597,0.3551,0.0114,-0.0288,0.0107,-0.10,0.14,-1.33,0,3.384,-4.999,-3.848,3.016,0.001,-0.008,0.999,0.000,0.000,0.000,0.3550,1,0,-1.10,-0.13,-2.93,0.0262,-0.0322,0.3557,0.0000,0.0000,0.3000,0.2534,-5.80,4.41,39.97,1.1450,0.0000,1.0730,0.0000,2.3340,527,0.0000,0.0000,0.0000,0.0000,0.0000,0
10300,0.0509,-0.0636,0.3554,0.0074,-0.0315,0.0105,-0.33,0.24,-1.18,0,3.384,-2.721,-1.285,5.424,0.006,-0.009,1.001,0.000,0.000,0.000,0.3550,2,0,-1.34,0.08,-2.78,0.0249,-0.0345,0.3561,0.0000,0.0000,0.3000,0.2534,-6.21,4.13,35.50,1.1450,0.0000,1.0780,0.0000,2.3340,527,0.0000,0.0000,0.0000,0.0000,0.0000,0
10351,0.0513,-0.0647,0.3556,0.0052,-0.0277,0.0090,-0.46,0.34,-0.95,0,3.384,0.235,1.092,4.796,0.002,-0.007,1.000,0.000,0.000,0.000,0.3580,0,0,-1.45,0.14,-2.55,0.0251,-0.0389,0.3563,0.0000,0.0000,0.3000,0.2535,-6.10,4.04,28.52,1.1410,0.1610,1.0780,0.0000,2.3370,527,0.0000,0.0000,0.0000,0.0000,0.0000,0
10402,0.0497,-0.0687,0.3570,-0.0005,-0.0281,0.0145,-0.44,0.29,-0.70,0,3.384,-1.017,0.533,5.425,0.009,-0.013,1.000,0.000,0.000,0.000,0.3580,0,1,-1.44,0.08,-2.31,0.0258,-0.0402,0.3574,0.0000,0.0000,0.3000,0.2527,-6.44,3.66,21.12,1.1410,0.1610,1.0720,0.0000,2.3370,527,0.0000,0.0000,0.0000,0.0000,0.0000,0
10453,0.0497,-0.0709,0.3579,-0.0026,-0.0257,0.0160,-0.49,0.23,-0.43,0,3.384,-0.679,3.055,5.834,0.009,-0.014,0.998,0.000,0.000,0.000,0.3610,1,0,-1.51,0.09,-2.03,0.0212,-0.0390,0.3582,0.0000,0.0000,0.3000,0.2523,-6.49,3.57,12.98,1.1510,0.1680,1.0720,0.0000,2.3410,527,0.0000,0.0000,0.0000,0.0000,0.0000,0
10504,0.0487,-0.0727,0.3598,-0.0057,-0.0226,0.0217,-0.48,0.18,-0.15,0,3.384,0.801,1.652,5.450,0.005,-0.011,0.997,0.000,0.000,0.000,0.3570,0,0,-1.53,-0.07,-1.76,0.0211,-0.0411,0.3597,0.0000,0.0000,0.3000,0.2513,-6.50,3.36,4.52,1.1510,0.1680,1.0750,2.0630,2.3410,527,0.0000,0.0000,0.0000,0.0000,0.0000,0
10556,0.0473,-0.0744,0.3593,-0.0086,-0.0196,0.0123,-0.47,0.02,0.14,0,3.384,0.033,0.883,3.772,0.008,-0.012,0.995,0.000,0.000,0.000,0.3610,0,1,-1.49,-0.16,-1.49,0.0213,-0.0414,0.3595,0.0000,0.0000,0.3000,0.2525,-6.45,3.10,-4.15,1.1520,0.1680,1.0750,2.0630,2.3410,527,0.0000,0.0000,0.0000,0.0000,0.0000,0
10606,0.0474,-0.0780,0.3604,-0.0077,-0.0196,0.0124,-0.51,-0.06,0.35,0,3.384,0.076,2.242,3.026,0.004,-0.014,0.997,0.000,0.000,0.000,0.3580,0,0,-1.48,-0.17,-1.33,0.0169,-0.0414,0.3604,0.0000,0.0000,0.3000,0.2522,-6.71,3.15,-10.58,1.1520,0.1680,1.0750,0.0000,2.3410,527,0.0000,0.0000,0.0000,0.0000,0.0000,0
10658,0.0436,-0.0769,0.3597,-0.0128,-0.0119,0.0036,-0.52,-0.09,0.51,0,3.378,2.362,2.650,2.694,0.009,-0.011,0.995,0.000,0.000,0.000,0.3590,0,0,-1.48,-0.29,-1.18,0.0166,-0.0410,0.3600,0.0000,0.0000,0.3000,0.2533,-6.24,2.62,-15.35,1.1470,0.1690,1.0750,0.0000,2.3400,527,0.0000,0.0000,0.0000,0.0000,0.0000,0
10708,0.0420,-0.0775,0.3595,-0.0140,-0.0088,-0.0000,-0.44,-0.16,0.64,0,3.378,1.434,-0.009,2.021,0.008,-0.012,0.999,0.000,0.000,0.000,0.3580,0,0,-1.35,-0.43,-1.05,0.0167,-0.0403,0.3599,0.0000,0.0000,0.3000,0.2537,-6.12,2.43,-19.32,1.1470,0.1690,1.0770,0.0000,2.3400,527,0.0000,0.0000,0.0000,0.0000,0.0000,0
10759,0.0416,-0.0760,0.3588,-0.0122,-0.0019,-0.0036,-0.36,-0.26,0.76,0,3.373,5.440,1.046,1.934,0.006,-0.014,0.999,0.000,0.000,0.000,0.3600,-1,0,-1.28,-0.43,-0.94,0.0171,-0.0393,0.3594,0.0000,0.0000,0.3000,0.2542,-5.67,2.49,-22.79,1.1510,0.0000,1.0770,0.0000,2.3410,527,0.0000,0.0000,0.0000,0.0000,0.0000,0
10811,0.0415,-0.0750,0.3592,-0.0092,0.0029,-0.0008,-0.25,-0.37,0.87,0,3.373,7.315,-0.376,1.788,0.008,-0.009,1.003,0.000,0.000,0.000,0.3590,-1,0,-0.99,-0.46,-0.88,0.0144,-0.0396,0.3596,0.0000,0.0000,0.3000,0.2539,-5.38,2.63,-26.06,1.1510,0.0000,1.0790,2.1300,2.3410,527,0.0000,0.0000,0.0000,0.0000,0.0000,0
10861,0.0387,-0.0722,0.3591,-0.0102,0.0092,-0.0002,-0.05,-0.34,0.98,0,3.378,4.241,-0.227,0.823,0.008,-0.010,1.002,0.000,0.000,0.000,0.3570,-1,0,-0.62,-0.44,-0.78,0.0148,-0.0376,0.3595,0.0000,0.0000,0.3000,0.2538,-4.87,2.38,-29.44,1.1550,0.0000,1.0790,2.1300,2.3390,527,0.0000,0.0000,0.0000,0.0000,0.0000,0
10913,0.0405,-0.0710,0.3582,-0.0037,0.0107,-0.0054,0.16,-0.32,1.06,0,3.378,0.836,-0.737,0.872,0.004,-0.010,0.999,0.000,0.000,0.000,0.3600,0,0,-0.41,-0.43,-0.74,0.0154,-0.0353,0.3588,0.0000,0.0000,0.3000,0.2545,-4.69,2.82,-31.69,1.1550,0.0000,1.0790,0.0000,2.3390,527,0.0000,0.0000,0.0000,0.0000,0.0000,0
10963,0.0407,-0.0697,0.3588,-0.0005,0.0105,-0.0005,0.23,-0.29,1.10,0,3.378,5.265,-2.687,-0.708,0.003,-0.011,1.000,0.000,0.000,0.000,0.3550,0,0,-0.37,-0.39,-0.69,0.0166,-0.0338,0.3591,0.0000,0.0000,0.3000,0.2539,-4.62,3.00,-32.87,1.1540,0.0000,1.0790,0.0000,2.3390,527,0.0000,0.0000,0.0000,0.0000,0.0000,0
11014,0.0417,-0.0672,0.3571,0.0039,0.0112,-0.0088,0.37,-0.18,1.11,0,3.373,-1.294,1.564,-1.639,0.005,-0.016,1.001,0.000,0.000,0.000,0.3600,0,0,-0.10,-0.26,-0.73,0.0180,-0.0325,0.3578,0.0000,0.0000,0.3000,0.2551,-4.39,3.27,-33.40,1.1540,0.0000,1.0810,2.0930,2.3390,527,0.0000,0.0000,0.0000,0.0000,0.0000,0
11066,0.0438,-0.0615,0.3581,0.0084,0.0174,-0.0014,0.40,-0.19,1.05,0,3.373,0.098,-2.986,-1.690,0.008,-0.011,1.000,0.000,0.000,0.000,0.3590,0,-1,-0.17,-0.34,-0.81,0.0197,-0.0315,0.3584,0.0000,0.0000,0.3000,0.2541,-3.69,3.66,-31.48,1.1550,0.1660,1.0810,2.0930,2.3450,527,0.0000,0.0000,0.0000,0.0000,0.0000,0
11116,0.0428,-0.0593,0.3585,0.0076,0.0162,0.0014,0.36,-0.11,0.96,0,3.378,0.666,-3.969,-1.948,0.003,-0.010,1.004,0.000,0.000,0.000,0.3550,0,0,-0.14,-0.15,-0.90,0.0172,-0.0339,0.3586,0.0000,0.0000,0.3000,0.2537,-3.60,3.55,-28.69,1.1550,0.1660,1.0770,2.0170,2.3450,527,0.0000,0.0000,0.0000,0.0000,0.0000,0
11167,0.0445,-0.0614,0.3570,0.0106,0.0086,-0.0066,0.43,0.00,0.87,0,3.378,-3.114,0.885,-0.653,0.008,-0.012,1.001,0.000,0.000,0.000,0.3550,0,-2,-0.11,0.05,-1.00,0.0185,-0.0340,0.3575,0.0000,0.0000,0.3000,0.2549,-4.10,3.80,-26.10,1.1550,0.1660,1.0770,2.0170,2.3500,527,0.0000,0.0000,0.0000,0.0000,0.0000,0
11218,0.0481,-0.0604,0.3560,0.0158,0.0060,-0.0109,0.30,0.07,0.82,0,3.368,-3.512,-2.945,-1.514,0.004,-0.013,1.000,0.000,0.000,0.000,0.3540,1,0,-0.27,-0.02,-1.05,0.0225,-0.0340,0.3566,0.0000,0.0000,0.3000,0.2555,-4.15,4.31,-24.68,1.1550,0.1660,1.0770,1.9920,2.3500,527,0.0000,0.0000,0.0000,0.0000,0.0000,0
11270,0.0474,-0.0650,0.3549,0.0127,-0.0041,-0.0126,0.19,0.21,0.75,0,3.373,-1.031,-1.512,-1.316,0.008,-0.009,1.001,0.000,0.000,0.000,0.3550,0,0,-0.44,0.14,-1.13,0.0239,-0.0357,0.3557,0.0000,0.0000,0.3000,0.2559,-4.95,4.10,-22.64,1.1480,0.0000,1.0770,1.9920,2.3470,527,0.0000,0.0000,0.0000,0.0000,0.0000,0
11321,0.0478,-0.0683,0.3546,0.0108,-0.0104,-0.0098,0.04,0.35,0.67,0,3.368,-2.041,3.956,-1.610,0.002,-0.013,1.007,0.000,0.000,0.000,0.3530,0,1,-0.49,0.22,-1.20,0.0260,-0.0364,0.3552,0.0000,0.0000,0.3000,0.2557,-5.50,4.04,-19.96,1.1480,0.0000,1.0770,0.0000,2.3470,527,0.0000,0.0000,0.0000,0.0000,0.0000,0
11372,0.0481,-0.0708,0.3537,0.0077,-0.0142,-0.0103,-0.05,0.20,0.60,0,3.368,-4.540,-4.637,-2.466,0.007,-0.010,1.005,0.000,0.000,0.000,0.3550,0,0,-0.61,0.08,-1.22,0.0216,-0.0357,0.3545,0.0000,0.0000,0.3000,0.2559,-5.86,3.91,-17.91,1.1540,0.0000,1.0770,0.0000,2.3510,527,0.0000,0.0000,0.0000,0.0000,0.0000,0
11422,0.0480,-0.0725,0.3539,0.0051,-0.0154,-0.0046,-0.22,0.33,0.51,0,3.368,-1.310,2.565,-2.327,0.006,-0.010,1.010,0.000,0.000,0.000,0.3560,0,0,-0.84,0.32,-1.34,0.0223,-0.0362,0.3546,0.0000,0.0000,0.3000,0.2552,-6.05,3.79,-15.37,1.1540,0.0000,1.0790,0.0000,2.3510,527,0.0000,0.0000,0.0000,0.0000,0.0000,0
11473,0.0462,-0.0749,0.3547,-0.0007,-0.0165,0.0040,-0.25,0.22,0.39,0,3.373,-0.150,6.000,-2.852,0.004,-0.013,1.001,0.000,0.000,0.000,0.3530,0,0,-0.90,0.19,-1.46,0.0231,-0.0366,0.3553,0.0000,0.0000,0.3000,0.2541,-6.31,3.39,-11.69,1.1560,0.0000,1.0790,0.0000,2.3510,527,0.0000,0.0000,0.0000,0.0000,0.0000,0
11524,0.0437,-0.0789,0.3542,-0.0068,-0.0196,0.0018,-0.28,0.04,0.24,0,3.368,-0.988,0.297,-2.921,0.004,-0.012,1.004,0.000,0.000,0.000,0.3550,1,1,-0.91,-0.11,-1.61,0.0239,-0.0369,0.3549,0.0000,0.0000,0.3000,0.2545,-6.74,2.91,-7.30,1.1560,0.0000,1.0820,2.1030,2.3510,527,0.0000,0.0000,0.0000,0.0000,0.0000,0
11575,0.0419,-0.0806,0.3546,-0.0096,-0.0185,0.0035,-0.34,-0.01,0.11,0,3.373,1.098,4.651,-2.773,0.004,-0.011,0.997,0.000,0.000,0.000,0.3540,0,0,-0.94,-0.07,-1.76,0.0174,-0.0396,0.3553,0.0451,-0.0626,0.3000,0.2542,-2.27,-0.64,-3.15,1.1500,0.0000,1.0820,2.1030,2.3380,527,0.0000,0.0000,0.0000,0.0000,0.0000,0
11626,0.0381,-0.0821,0.3544,-0.0147,-0.0165,0.0017,-0.34,-0.18,-0.03,0,3.368,-1.250,1.899,-2.390,0.007,-0.011,0.999,0.000,0.000,0.000,0.3540,0,1,-0.89,-0.31,-1.91,0.0171,-0.0402,0.3551,0.0451,-0.0626,0.3000,0.2544,-2.29,-1.17,0.92,1.1500,0.0000,1.0790,0.0000,2.3380,527,0.0000,0.0000,0.0000,0.0000,0.0000,0
11677,0.0365,-0.0824,0.3543,-0.0147,-0.0130,0.0004,-0.34,-0.29,-0.15,0,3.368,2.331,4.315,-0.450,0.003,-0.011,0.995,0.000,0.000,0.000,0.3570,0,2,-0.96,-0.38,-2.02,0.0149,-0.0400,0.3550,0.0451,-0.0626,0.3000,0.2546,-2.14,-1.28,4.37,1.1570,0.0000,1.0790,0.0000,2.3430,527,0.0000,0.0000,0.0000,0.0000,0.0000,0
11728,0.0357,-0.0855,0.3554,-0.0124,-0.0142,0.0054,-0.30,-0.35,-0.20,0,3.373,0.182,-2.051,-0.608,0.007,-0.012,0.997,0.000,0.000,0.000,0.3530,1,0,-0.84,-0.58,-2.05,0.0121,-0.0400,0.3556,0.0451,-0.0626,0.3000,0.2538,-2.43,-1.24,6.14,1.1570,0.0000,1.0840,0.0000,2.3430,527,0.0000,0.0000,0.0000,0.0000,0.0000,0
11779,0.0328,-0.0840,0.3545,-0.0133,-0.0081,-0.0016,-0.24,-0.42,-0.24,0,3.373,1.379,-2.806,-1.156,0.005,-0.013,0.996,0.000,0.000,0.000,0.3530,0,0,-0.81,-0.48,-2.09,0.0118,-0.0417,0.3548,0.0451,-0.0626,0.3000,0.2548,-2.01,-1.48,7.09,1.1530,0.0000,1.0840,0.0000,2.3400,527,0.0000,0.0000,0.0000,0.0000,0.0000,0
11830,0.0348,-0.0871,0.3538,-0.0059,-0.0107,-0.0068,-0.21,-0.33,-0.28,0,3.362,0.541,-2.833,-0.704,0.004,-0.012,0.998,0.000,0.000,0.000,0.3530,0,0,-0.74,-0.33,-2.15,0.0117,-0.0422,0.3541,0.0451,-0.0626,0.3000,0.2554,-2.36,-0.98,8.52,1.1530,0.0000,1.0880,0.0000,2.3400,527,0.0000,0.0000,0.0000,0.0000,0.0000,0
11881,0.0356,-0.0859,0.3533,-0.0014,-0.0063,-0.0090,-0.15,-0.27,-0.32,0,3.368,0.396,-3.382,-0.461,0.005,-0.016,0.998,0.000,0.000,0.000,0.3550,0,-1,-0.72,-0.19,-2.18,0.0118,-0.0426,0.3534,0.0451,-0.0626,0.3000,0.2558,-2.06,-0.71,9.70,1.1590,0.0000,1.0880,0.0000,2.3490,527,0.0000,0.0000,0.0000,0.0000,0.0000,0
11932,0.0365,-0.0892,0.3537,0.0023,-0.0103,-0.0059,-0.10,-0.15,-0.34,0,3.368,0.327,-3.146,0.598,0.002,-0.014,0.999,0.000,0.000,0.000,0.3530,0,0,-0.71,-0.03,-2.19,0.0148,-0.0416,0.3535,0.0451,-0.0626,0.3000,0.2554,-2.50,-0.45,10.09,1.1590,0.0000,1.0860,0.0000,2.3490,527,0.0000,0.0000,0.0000,0.0000,0.0000,0
11983,0.0392,-0.0892,0.3532,0.0080,-0.0086,-0.0067,-0.07,-0.02,-0.33,0,3.368,-1.193,-3.164,1.165,0.003,-0.013,0.998,0.000,0.000,0.000,0.3530,1,0,-0.69,0.13,-2.16,0.0157,-0.0419,0.3530,0.0451,-0.0626,0.3000,0.2555,-2.41,0.02,9.91,1.1550,0.1670,1.0860,0.0000,2.3460,527,0.0000,0.0000,0.0000,0.0000,0.0000,0
12035,0.0423,-0.0887,0.3529,0.0129,-0.0064,-0.0070,-0.10,0.10,-0.29,0,3.368,1.603,-0.715,0.755,0.009,-0.012,1.002,0.000,0.000,0.000,0.3520,0,0,-0.73,0.30,-2.12,0.0151,-0.0445,0.3526,0.0451,-0.0626,0.3000,0.2556,-2.27,0.48,8.84,1.1550,0.1670,1.0920,1.9870,2.3460,527,0.0000,0.0000,0.0000,0.0000,0.0000,0
12085,0.0432,-0.0931,0.3523,0.0125,-0.0128,-0.0091,-0.06,0.15,-0.25,0,3.368,-2.387,-1.847,1.670,0.001,-0.015,0.999,0.000,0.000,0.000,0.3500,1,0,-0.65,0.34,-2.08,0.0158,-0.0453,0.3521,0.0451,-0.0626,0.3000,0.2560,-2.90,0.52,7.36,1.1530,0.1650,1.0920,1.9870,2.3470,527,0.0000,0.0000,0.0000,0.0000,0.0000,0
12136,0.0458,-0.0934,0.3511,0.0148,-0.0118,-0.0135,-0.07,0.23,-0.18,0,3.362,-2.023,-2.144,1.937,0.006,-0.015,1.000,0.000,0.000,0.000,0.3460,1,0,-0.76,0.44,-2.01,0.0153,-0.0476,0.3510,0.0451,-0.0626,0.3000,0.2567,-2.86,0.82,5.47,1.1530,0.1650,1.0940,0.0000,2.3470,527,0.0000,0.0000,0.0000,0.0000,0.0000,0
12188,0.0465,-0.0970,0.3486,0.0128,-0.0163,-0.0229,-0.17,0.32,-0.10,0,3.362,-1.833,-0.189,2.743,0.006,-0.015,1.004,0.000,0.000,0.000,0.3470,1,0,-0.85,0.54,-1.92,0.0154,-0.0500,0.3489,0.0451,-0.0626,0.3000,0.2582,-3.32,0.77,3.02,1.1540,0.1600,1.0940,0.0000,2.3480,527,0.0000,0.0000,0.0000,0.0000,0.0000,0
12239,0.0479,-0.0999,0.3472,0.0116,-0.0186,-0.0228,-0.20,0.35,0.02,0,3.362,0.665,-0.998,2.802,0.005,-0.011,1.007,0.000,0.000,0.000,0.3460,2,-1,-0.94,0.55,-1.79,0.0155,-0.0526,0.3477,0.0451,-0.0626,0.3000,0.2584,-3.63,0.81,-0.67,1.1540,0.1600,1.0940,2.0460,2.3480,527,0.0000,0.0000,0.0000,0.0000,0.0000,0
12290,0.0489,-0.1032,0.3461,0.0095,-0.0210,-0.0196,-0.22,0.37,0.14,0,3.362,-3.915,1.243,2.576,0.005,-0.013,1.007,0.000,0.000,0.000,0.3450,0,0,-0.88,0.58,-1.69,0.0175,-0.0577,0.3466,0.0451,-0.0626,0.3000,0.2583,-3.99,0.78,-4.28,0.0000,0.0000,1.0940,2.0460,2.3610,527,0.0000,0.0000,0.0000,0.0000,0.0000,0
12341,0.0506,-0.1086,0.3450,0.0086,-0.0268,-0.0165,-0.34,0.33,0.28,0,3.362,-2.554,-3.236,2.223,0.004,-0.016,1.007,0.000,0.000,0.000,0.3450,1,0,-1.08,0.52,-1.56,0.0179,-0.0600,0.3457,0.0451,-0.0626,0.3000,0.2581,-4.65,0.86,-8.35,0.0000,0.0000,1.0950,2.1350,2.3610,527,0.0000,0.0000,0.0000,0.0000,0.0000,0
12392,0.0506,-0.1147,0.3446,0.0051,-0.0327,-0.0112,-0.46,0.37,0.39,0,3.362,0.014,2.290,2.073,0.002,-0.012,1.007,0.000,0.000,0.000,0.3460,1,0,-1.22,0.69,-1.43,0.0175,-0.0611,0.3452,0.0451,-0.0626,0.3000,0.2576,-5.38,0.69,-11.66,1.1580,0.1700,1.0950,2.1350,2.3540,527,0.0000,0.0000,0.0000,0.0000,0.0000,0
12444,0.0505,-0.1161,0.3449,0.0014,-0.0284,-0.0032,-0.59,0.31,0.49,0,3.362,2.066,4.536,0.438,0.006,-0.010,1.007,0.000,0.000,0.000,0.3410,0,1,-1.21,0.57,-1.34,0.0174,-0.0639,0.3453,0.0451,-0.0626,0.3000,0.2567,-5.29,0.52,-14.56,1.1580,0.1700,1.1000,0.0000,2.3540,527,0.0000,0.0000,0.0000,0.0000,0.0000,0
12494,0.0518,-0.1206,0.3432,0.0010,-0.0293,-0.0083,-0.58,0.16,0.54,0,3.357,-4.820,-2.622,0.366,0.006,-0.010,1.003,0.000,0.000,0.000,0.3440,1,0,-1.11,0.35,-1.31,0.0150,-0.0643,0.3440,0.0451,-0.0626,0.3000,0.2576,-5.64,0.59,-16.27,1.1490,0.0000,1.1000,0.0000,2.3520,527,0.0000,0.0000,0.0000,0.0000,0.0000,0
12545,0.0513,-0.1216,0.3433,-0.0014,-0.0235,-0.0037,-0.80,0.25,0.57,0,3.357,-0.409,4.296,-0.299,0.006,-0.016,1.011,0.000,0.000,0.000,0.3420,0,0,-1.34,0.47,-1.31,0.0147,-0.0672,0.3440,0.0451,-0.0626,0.3000,0.2571,-5.45,0.43,-17.12,1.1490,0.0000,1.1000,2.1590,2.3520,527,0.0000,0.0000,0.0000,0.0000,0.0000,0
12596,0.0491,-0.1224,0.3427,-0.0073,-0.0165,-0.0024,-0.61,0.03,0.57,0,3.357,2.536,-0.568,-1.817,0.002,-0.016,1.006,0.000,0.000,0.000,0.3400,-1,0,-1.37,0.26,-1.33,0.0141,-0.0685,0.3436,0.0451,-0.0626,0.3000,0.2570,-5.17,-0.01,-17.03,1.1530,0.1560,1.1000,2.1590,2.3560,527,0.0000,0.0000,0.0000,0.0000,0.0000,0
12647,0.0464,-0.1237,0.3415,-0.0121,-0.0122,-0.0050,-0.61,-0.04,0.52,0,3.357,0.109,2.511,-1.225,0.001,-0.010,1.008,0.000,0.000,0.000,0.3430,-1,0,-1.28,0.27,-1.34,0.0152,-0.0625,0.3429,0.0451,-0.0626,0.3000,0.2575,-5.05,-0.43,-15.74,1.1530,0.1560,1.1050,2.1310,2.3560,527,0.0000,0.0000,0.0000,0.0000,0.0000,0
12699,0.0470,-0.1233,0.3421,-0.0097,-0.0056,0.0018,-0.52,-0.13,0.48,0,3.362,2.755,2.637,-0.104,0.004,-0.016,1.003,0.000,0.000,0.000,0.3440,0,0,-1.29,0.15,-1.38,0.0151,-0.0600,0.3433,0.0451,-0.0626,0.3000,0.2567,-4.72,-0.28,-14.39,1.1580,0.1610,1.1050,2.1310,2.3620,527,0.0000,0.0000,0.0000,0.0000,0.0000,0
12749,0.0459,-0.1234,0.3430,-0.0099,-0.0009,0.0089,-0.32,-0.13,0.43,0,3.362,2.167,3.299,-1.608,0.006,-0.016,1.000,0.000,0.000,0.000,0.3440,-1,0,-1.15,0.01,-1.39,0.0148,-0.0589,0.3440,0.0451,-0.0626,0.3000,0.2557,-4.52,-0.37,-12.88,1.1580,0.1610,1.1040,0.0000,2.3620,527,0.0000,0.0000,0.0000,0.0000,0.0000,0
12800,0.0444,-0.1253,0.3437,-0.0108,-0.0017,0.0122,-0.27,-0.21,0.35,0,3.362,0.903,-1.070,-1.563,0.005,-0.016,0.999,0.000,0.000,0.000,0.3450,0,0,-1.05,-0.16,-1.45,0.0151,-0.0565,0.3445,0.0451,-0.0626,0.3000,0.2552,-4.71,-0.52,-10.62,1.1520,0.1620,1.1040,0.0000,2.3570,527,0.0000,0.0000,0.0000,0.0000,0.0000,0
12851,0.0454,-0.1224,0.3447,-0.0065,0.0058,0.0142,-0.14,-0.25,0.26,0,3.362,4.812,0.481,-1.705,0.003,-0.016,0.996,0.000,0.000,0.000,0.3450,0,0,-1.00,-0.10,-1.53,0.0152,-0.0550,0.3451,0.0451,-0.0626,0.3000,0.2548,-4.15,-0.24,-7.82,1.1520,0.1620,1.1080,2.0450,2.3570,527,0.0000,0.0000,0.0000,0.0000,0.0000,0
12903,0.0430,-0.1219,0.3452,-0.0086,0.0072,0.0119,0.02,-0.17,0.20,0,3.362,1.446,0.784,-1.496,0.004,-0.013,0.994,0.000,0.000,0.000,0.3430,0,0,-0.76,-0.12,-1.62,0.0155,-0.0535,0.3455,0.0451,-0.0626,0.3000,0.2550,-4.04,-0.51,-5.86,1.1490,0.0000,1.1080,2.0450,2.3580,527,0.0000,0.0000,0.0000,0.0000,0.0000,0
12953,0.0428,-0.1202,0.3446,-0.0066,0.0097,0.0028,0.06,-0.25,0.14,0,3.357,2.446,2.513,-1.438,0.005,-0.014,0.992,0.000,0.000,0.000,0.3430,0,-1,-0.68,-0.16,-1.70,0.0159,-0.0520,0.3450,0.0451,-0.0626,0.3000,0.2561,-3.78,-0.43,-4.19,1.1490,0.0000,1.1010,0.0000,2.3580,527,0.0000,0.0000,0.0000,0.0000,0.0000,0
13004,0.0413,-0.1204,0.3439,-0.0070,0.0080,-0.0046,0.13,-0.23,0.07,0,3.357,0.298,0.701,-0.291,0.005,-0.015,0.994,0.000,0.000,0.000,0.3440,0,0,-0.52,-0.30,-1.81,0.0177,-0.0573,0.3443,0.0451,-0.0626,0.3000,0.2570,-3.86,-0.56,-1.97,1.1510,0.1630,1.1010,0.0000,2.3570,527,0.0000,0.0000,0.0000,0.0000,0.0000,0
13056,0.0442,-0.1226,0.3438,0.0008,0.0020,-0.0066,0.19,-0.26,0.05,0,3.352,-1.276,-0.676,0.803,0.004,-0.015,1.000,0.000,0.000,0.000,0.3430,1,0,-0.50,-0.33,-1.82,0.0188,-0.0572,0.3439,0.0451,-0.0626,0.3000,0.2573,-4.31,0.03,-1.50,1.1510,0.1630,1.1080,0.0000,2.3570,527,0.0000,0.0000,0.0000,0.0000,0.0000,0
13108,0.0461,-0.1225,0.3432,0.0063,0.0003,-0.0095,0.18,-0.15,0.04,0,3.357,-1.142,-1.362,0.103,0.003,-0.015,1.001,0.000,0.000,0.000,0.3450,1,-1,-0.55,-0.28,-1.78,0.0183,-0.0595,0.3434,0.0451,-0.0626,0.3000,0.2577,-4.38,0.43,-1.21,1.1470,0.0000,1.1080,0.0000,2.3620,527,0.0000,0.0000,0.0000,0.0000,0.0000,0
13159,0.0460,-0.1254,0.3436,0.0069,-0.0063,-0.0055,0.09,-0.02,0.03,0,3.357,1.966,1.366,0.115,0.005,-0.013,0.998,0.000,0.000,0.000,0.3430,0,0,-0.60,-0.22,-1.78,0.0203,-0.0613,0.3435,0.0451,-0.0626,0.3000,0.2571,-4.91,0.45,-0.90,1.1470,0.0000,1.1100,0.0000,2.3620,527,0.0000,0.0000,0.0000,0.0000,0.0000,0
13209,0.0480,-0.1294,0.3432,0.0101,-0.0140,-0.0069,0.12,0.00,0.02,0,3.352,-5.109,-0.181,0.707,0.001,-0.013,0.994,0.000,0.000,0.000,0.3420,3,-2,-0.50,-0.29,-1.78,0.0218,-0.0623,0.3431,0.0451,-0.0626,0.3000,0.2574,-5.56,0.75,-0.56,1.1530,0.0000,1.1100,0.0000,2.3570,527,0.0000,0.0000,0.0000,0.0000,0.0000,0
13260,0.0483,-0.1318,0.3424,0.0099,-0.0179,-0.0106,-0.05,-0.04,0.05,0,3.352,-2.156,-2.843,-0.393,0.008,-0.011,0.998,0.000,0.000,0.000,0.3420,2,-2,-0.70,-0.31,-1.77,0.0261,-0.0703,0.3422,0.0451,-0.0626,0.3000,0.2579,-5.90,0.76,-1.43,1.1530,0.0000,1.1160,2.0050,2.3570,527,0.0000,0.0000,0.0000,0.0000,0.0000,0
13312,0.0513,-0.1407,0.3419,0.0141,-0.0318,-0.0113,-0.13,0.17,0.07,0,3.357,-5.976,-1.832,1.206,0.004,-0.014,0.999,0.000,0.000,0.000,0.3410,2,0,-0.79,-0.18,-1.80,0.0307,-0.0753,0.3414,0.0451,-0.0626,0.3000,0.2581,-7.19,1.18,-2.13,1.1520,0.1540,1.1160,2.0050,2.3620,527,0.0000,0.0000,0.0000,0.0000,0.0000,0
13362,0.0527,-0.1463,0.3411,0.0138,-0.0376,-0.0127,-0.35,0.28,0.12,0,3.352,-7.138,-0.105,0.136,0.006,-0.015,1.005,0.000,0.000,0.000,0.3380,0,0,-1.09,-0.07,-1.73,0.0319,-0.0804,0.3407,0.0451,-0.0626,0.3000,0.2584,-7.85,1.26,-3.54,1.1520,0.1540,1.1210,2.0560,2.3620,527,0.0000,0.0000,0.0000,0.0000,0.0000,0
13413,0.0551,-0.1527,0.3394,0.0150,-0.0429,-0.0178,-0.58,0.25,0.14,0,3.352,-3.224,0.838,0.296,0.003,-0.014,1.004,0.000,0.000,0.000,0.3390,1,0,-1.44,-0.06,-1.72,0.0349,-0.0840,0.3394,0.0451,-0.0626,0.3000,0.2593,-8.53,1.49,-4.35,1.1490,0.0000,1.1210,2.0560,2.3610,527,0.0000,0.0000,0.0000,0.0000,0.0000,0
13464,0.0528,-0.1541,0.3387,0.0073,-0.0365,-0.0166,-0.71,0.30,0.18,0,3.352,-5.542,3.309,1.146,0.005,-0.015,1.004,0.000,0.000,0.000,0.3400,3,0,-1.63,-0.06,-1.70,0.0315,-0.0841,0.3390,0.0451,-0.0626,0.3000,0.2593,-8.32,0.96,-5.33,1.1490,0.0000,1.1200,2.1110,2.3610,527,0.0000,0.0000,0.0000,0.0000,0.0000,0
13515,0.0501,-0.1580,0.3388,-0.0006,-0.0344,-0.0093,-0.75,0.29,0.21,0,3.352,-4.209,3.058,0.288,0.004,-0.015,1.002,0.000,0.000,0.000,0.3370,0,1,-1.88,-0.22,-1.67,0.0322,-0.0910,0.3390,0.0451,-0.0626,0.3000,0.2585,-8.53,0.39,-6.19,1.1550,0.1510,1.1200,2.1110,2.3680,527,0.0000,0.0000,0.0000,0.0000,0.0000,0
13566,0.0501,-0.1635,0.3378,-0.0029,-0.0349,-0.0109,-0.83,0.19,0.22,0,3.352,3.947,3.567,0.363,0.006,-0.014,1.007,0.000,0.000,0.000,0.3370,0,0,-2.11,-0.35,-1.67,0.0306,-0.0919,0.3381,0.0451,-0.0626,0.3000,0.2588,-8.93,0.28,-6.53,1.1550,0.1510,1.1200,0.0000,2.3680,527,0.0000,0.0000,0.0000,0.0000,0.0000,0
13617,0.0471,-0.1659,0.3371,-0.0095,-0.0292,-0.0094,-0.89,0.08,0.23,0,3.352,-0.655,-0.083,0.323,0.005,-0.016,1.004,0.000,0.000,0.000,0.3340,-1,1,-1.91,-0.53,-1.66,0.0320,-0.0938,0.3376,0.0451,-0.0626,0.3000,0.2588,-8.83,-0.26,-6.82,1.1570,0.0000,1.1200,0.0000,2.3640,527,0.0000,0.0000,0.0000,0.0000,0.0000,0
13669,0.0451,-0.1671,0.3356,-0.0126,-0.0217,-0.0129,-0.84,-0.05,0.21,0,3.347,4.906,0.536,-0.462,0.002,-0.015,1.009,0.000,0.000,0.000,0.3340,-1,2,-1.99,-0.47,-1.71,0.0259,-0.0881,0.3364,0.0451,-0.0626,0.3000,0.2594,-8.54,-0.54,-6.24,1.1570,0.0000,1.1200,2.1090,2.3640,527,0.0000,0.0000,0.0000,0.0000,0.0000,0
13719,0.0433,-0.1659,0.3345,-0.0141,-0.0110,-0.0131,-0.70,-0.12,0.20,0,3.347,1.893,1.588,-0.280,0.003,-0.016,1.007,0.000,0.000,0.000,0.3330,0,2,-1.74,-0.47,-1.78,0.0218,-0.0857,0.3356,0.0451,-0.0626,0.3000,0.2597,-7.96,-0.74,-5.98,1.1520,0.1610,1.1200,2.1090,2.3640,527,0.0000,0.0000,0.0000,0.0000,0.0000,0
13770,0.0408,-0.1654,0.3335,-0.0165,-0.0035,-0.0124,-0.56,-0.17,0.20,0,3.347,4.009,2.209,0.126,0.006,-0.017,1.009,0.000,0.000,0.000,0.3310,-1,0,-1.64,-0.51,-1.84,0.0172,-0.0852,0.3348,0.0451,-0.0626,0.3000,0.2598,-7.57,-1.04,-5.95,1.1520,0.1610,1.1230,0.0000,2.3640,527,0.0000,0.0000,0.0000,0.0000,0.0000,0
13821,0.0373,-0.1662,0.3321,-0.0198,-0.0003,-0.0127,-0.43,-0.27,0.19,0,3.341,2.891,3.463,0.747,0.003,-0.016,1.007,0.000,0.000,0.000,0.3300,-1,1,-1.45,-0.63,-1.84,0.0171,-0.0824,0.3337,0.0451,-0.0626,0.3000,0.2601,-7.46,-1.45,-5.76,1.1530,0.1650,1.1230,0.0000,2.3680,527,0.0000,0.0000,0.0000,0.0000,0.0000,0
13872,0.0364,-0.1655,0.3309,-0.0171,0.0043,-0.0129,-0.35,-0.34,0.21,0,3.347,6.971,0.599,-0.619,0.004,-0.016,1.011,0.000,0.000,0.000,0.3330,-1,0,-1.31,-0.79,-1.83,0.0146,-0.0794,0.3327,0.0451,-0.0626,0.3000,0.2603,-7.19,-1.38,-6.31,1.1530,0.1650,1.1280,2.0400,2.3680,527,0.0000,0.0000,0.0000,0.0000,0.0000,0
13923,0.0342,-0.1639,0.3315,-0.0170,0.0092,-0.0025,-0.02,-0.33,0.19,0,3.352,-1.661,1.569,-1.226,0.001,-0.016,1.006,0.000,0.000,0.000,0.3320,0,0,-0.96,-0.82,-1.86,0.0146,-0.0762,0.3331,0.0451,-0.0626,0.3000,0.2591,-6.89,-1.54,-5.56,1.1640,0.1600,1.1280,2.0400,2.3690,527,0.0000,0.0000,0.0000,0.0000,0.0000,0
13974,0.0330,-0.1622,0.3317,-0.0148,0.0117,0.0029,-0.07,-0.38,0.14,0,3.347,4.223,0.392,-0.514,0.004,-0.018,1.004,0.000,0.000,0.000,0.3320,-1,0,-1.04,-0.90,-1.92,0.0149,-0.0737,0.3332,0.0451,-0.0626,0.3000,0.2585,-6.66,-1.52,-4.11,1.1640,0.1600,1.1260,0.0000,2.3690,527,0.0000,0.0000,0.0000,0.0000,0.0000,0
14026,0.0320,-0.1605,0.3320,-0.0123,0.0142,0.0061,0.09,-0.39,0.09,0,3.347,3.933,-2.604,-1.179,0.004,-0.016,1.001,0.000,0.000,0.000,0.3310,0,1,-0.82,-0.91,-1.96,0.0138,-0.0733,0.3334,0.0451,-0.0626,0.3000,0.2581,-6.44,-1.47,-2.56,1.1580,0.1610,1.1260,0.0000,2.3660,527,0.0000,0.0000,0.0000,0.0000,0.0000,0
14077,0.0322,-0.1590,0.3318,-0.0075,0.0147,0.0051,0.27,-0.39,0.07,0,3.347,2.584,-0.519,-1.155,0.005,-0.013,1.001,0.000,0.000,0.000,0.3310,0,0,-0.60,-0.75,-2.02,0.0116,-0.0728,0.3332,0.0451,-0.0626,0.3000,0.2582,-6.31,-1.23,-1.97,1.1580,0.1610,1.1220,1.8520,2.3660,527,0.0000,0.0000,0.0000,0.0000,0.0000,0
14127,0.0316,-0.1568,0.3316,-0.0046,0.0154,0.0037,0.32,-0.34,0.04,0,3.347,-1.818,-1.092,-1.319,0.000,-0.016,0.998,0.000,0.000,0.000,0.3340,0,-1,-0.47,-0.73,-2.08,0.0124,-0.0711,0.3330,0.0451,-0.0626,0.3000,0.2584,-6.11,-1.13,-1.10,1.1540,0.1620,1.1220,1.8520,2.3710,527,0.0000,0.0000,0.0000,0.0000,0.0000,0
14179,0.0315,-0.1561,0.3327,-0.0017,0.0129,0.0080,0.27,-0.31,0.01,0,3.347,3.833,2.508,-1.751,0.009,-0.016,0.999,0.000,0.000,0.000,0.3330,0,0,-0.54,-0.68,-2.13,0.0149,-0.0732,0.3337,0.0451,-0.0626,0.3000,0.2577,-6.20,-1.01,-0.43,1.1540,0.1620,1.1220,0.0000,2.3710,527,0.0000,0.0000,0.0000,0.0000,0.0000,0
14229,0.0319,-0.1563,0.3331,0.0016,0.0090,0.0074,0.32,-0.31,-0.02,0,3.352,-0.462,-3.341,0.119,0.003,-0.019,0.995,0.000,0.000,0.000,0.3320,1,0,-0.34,-0.81,-2.22,0.0167,-0.0726,0.3338,0.0451,-0.0626,0.3000,0.2577,-6.40,-0.82,0.58,1.1530,0.0000,1.1220,0.0000,2.3700,527,0.0000,0.0000,0.0000,0.0000,0.0000,0
14280,0.0321,-0.1559,0.3329,0.0041,0.0062,0.0031,0.33,-0.13,-0.05,0,3.347,1.491,-0.872,-0.554,0.002,-0.017,0.997,0.000,0.000,0.000,0.3320,0,0,-0.34,-0.61,-2.18,0.0138,-0.0766,0.3335,0.0451,-0.0626,0.3000,0.2582,-6.50,-0.69,1.49,1.1530,0.0000,1.1240,0.0000,2.3700,527,0.0000,0.0000,0.0000,0.0000,0.0000,0
14331,0.0361,-0.1569,0.3326,0.0130,0.0010,-0.0001,0.30,-0.08,-0.08,0,3.347,-1.586,-0.679,0.240,0.003,-0.014,0.998,0.000,0.000,0.000,0.3320,1,0,-0.26,-0.56,-2.21,0.0154,-0.0774,0.3330,0.0451,-0.0626,0.3000,0.2586,-6.81,0.03,2.40,1.1570,0.1650,1.1240,0.0000,2.3650,527,0.0000,0.0000,0.0000,0.0000,0.0000,0
14382,0.0364,-0.1582,0.3323,0.0129,-0.0040,-0.0033,0.19,-0.01,-0.09,0,3.347,-3.301,-3.862,0.591,0.001,-0.013,0.999,0.000,0.000,0.000,0.3310,1,0,-0.33,-0.50,-2.17,0.0133,-0.0796,0.3327,0.0451,-0.0626,0.3000,0.2590,-7.12,0.05,2.58,1.1570,0.1650,1.1210,0.0000,2.3650,527,0.0000,0.0000,0.0000,0.0000,0.0000,0
14433,0.0365,-0.1603,0.3316,0.0113,-0.0092,-0.0061,0.15,0.23,-0.11,0,3.347,-4.185,-1.836,0.096,0.003,-0.016,0.999,0.000,0.000,0.000,0.3320,1,0,-0.49,-0.30,-2.13,0.0137,-0.0822,0.3320,0.0451,-0.0626,0.3000,0.2594,-7.50,-0.02,3.40,1.1640,0.1570,1.1210,0.0000,2.3730,527,0.0000,0.0000,0.0000,0.0000,0.0000,0
14484,0.0369,-0.1630,0.3316,0.0090,-0.0144,-0.0049,-0.05,0.27,-0.11,0,3.347,-2.418,0.852,1.215,0.004,-0.017,0.997,0.000,0.000,0.000,0.3280,0,0,-0.70,-0.20,-2.11,0.0142,-0.0849,0.3317,0.0451,-0.0626,0.3000,0.2593,-7.94,-0.10,3.23,1.1640,0.1570,1.1280,0.0000,2.3730,527,0.0000,0.0000,0.0000,0.0000,0.0000,0
14535,0.0360,-0.1665,0.3299,0.0043,-0.0194,-0.0127,-0.17,0.20,-0.08,0,3.347,0.192,0.565,0.246,0.004,-0.017,1.001,0.000,0.000,0.000,0.3300,0,1,-0.82,-0.24,-2.05,0.0155,-0.0872,0.3302,0.0451,-0.0626,0.3000,0.2605,-8.39,-0.39,2.36,1.1660,0.1590,1.1280,0.0000,2.3630,527,0.0000,0.0000,0.0000,0.0000,0.0000,0
14586,0.0362,-0.1674,0.3295,0.0027,-0.0180,-0.0120,-0.20,0.15,-0.05,0,3.341,-3.509,-0.397,1.613,0.002,-0.013,1.001,0.000,0.000,0.000,0.3280,0,0,-0.85,-0.22,-2.01,0.0099,-0.0841,0.3299,0.0451,-0.0626,0.3000,0.2605,-8.38,-0.46,1.62,1.1660,0.1590,1.1260,0.0000,2.3630,527,0.0000,0.0000,0.0000,0.0000,0.0000,0
14638,0.0334,-0.1712,0.3285,-0.0043,-0.0221,-0.0135,-0.29,0.19,0.01,0,3.341,1.587,-0.758,0.412,0.008,-0.015,1.006,0.000,0.000,0.000,0.3280,0,2,-1.03,-0.20,-1.93,0.0102,-0.0854,0.3289,0.0451,-0.0626,0.3000,0.2608,-8.83,-0.98,-0.42,1.1600,0.1600,1.1260,0.0000,2.3740,527,0.0000,0.0000,0.0000,0.0000,0.0000,0
14688,0.0332,-0.1751,0.3279,-0.0057,-0.0250,-0.0118,-0.37,0.15,0.08,0,3.341,-7.339,0.897,0.061,0.006,-0.010,1.008,0.000,0.000,0.000,0.3260,2,1,-0.96,-0.11,-1.88,0.0027,-0.0838,0.3283,0.0451,-0.0626,0.3000,0.2607,-9.24,-1.06,-2.48,1.1600,0.1600,1.1260,0.0000,2.3740,527,0.0000,0.0000,0.0000,0.0000,0.0000,0
14739,0.0313,-0.1753,0.3267,-0.0096,-0.0196,-0.0122,-0.57,-0.04,0.11,0,3.341,-1.709,-2.010,-0.288,0.005,-0.014,1.004,0.000,0.000,0.000,0.3250,0,1,-1.30,-0.14,-1.88,0.0003,-0.0877,0.3274,0.0451,-0.0626,0.3000,0.2610,-9.00,-1.39,-3.37,1.1610,0.1550,1.1260,0.0000,2.3740,527,0.0000,0.0000,0.0000,0.0000,0.0000,0
14790,0.0306,-0.1791,0.3256,-0.0095,-0.0206,-0.0127,-0.55,-0.09,0.15,0,3.341,-3.611,1.007,-0.373,0.006,-0.017,1.006,0.000,0.000,0.000,0.3270,0,0,-1.39,-0.03,-1.89,-0.0022,-0.0880,0.3265,0.0451,-0.0626,0.3000,0.2613,-9.30,-1.43,-4.54,1.1610,0.1550,1.1290,0.4520,2.3740,527,0.0000,0.0000,0.0000,0.0000,0.0000,0
14842,0.0290,-0.1805,0.3259,-0.0108,-0.0166,-0.0053,-0.58,-0.12,0.16,0,3.341,-2.166,2.040,0.042,0.002,-0.012,1.008,0.000,0.000,0.000,0.3280,0,2,-1.58,-0.08,-1.91,-0.0033,-0.0886,0.3265,0.0451,-0.0626,0.3000,0.2604,-9.24,-1.61,-4.74,1.1660,0.1570,1.1290,0.4520,2.3740,527,0.0000,0.0000,0.0000,0.0000,0.0000,0
14892,0.0285,-0.1812,0.3267,-0.0098,-0.0117,0.0028,-0.60,-0.16,0.15,0,3.341,2.749,2.139,0.744,0.001,-0.018,1.008,0.000,0.000,0.000,0.3260,0,1,-1.70,-0.15,-1.92,-0.0093,-0.0881,0.3271,0.0451,-0.0626,0.3000,0.2594,-9.10,-1.60,-4.61,1.1660,0.1570,1.1270,0.0000,2.3740,527,0.0000,0.0000,0.0000,0.0000,0.0000,0
14943,0.0243,-0.1804,0.3265,-0.0153,-0.0042,0.0045,-0.54,-0.22,0.17,0,3.347,-1.828,1.994,0.706,0.004,-0.017,1.001,0.000,0.000,0.000,0.3280,-1,2,-1.56,-0.25,-1.89,-0.0121,-0.0879,0.3271,0.0451,-0.0626,0.3000,0.2592,-8.70,-2.17,-5.17,1.1700,0.1640,1.1270,0.0000,2.3730,527,0.0000,0.0000,0.0000,0.0000,0.0000,0
14995,0.0223,-0.1800,0.3274,-0.0158,0.0014,0.0085,-0.49,-0.32,0.21,0,3.341,4.800,-0.494,1.650,0.005,-0.017,1.000,0.000,0.000,0.000,0.3260,0,0,-1.66,-0.33,-1.87,-0.0171,-0.0854,0.3276,0.0451,-0.0626,0.3000,0.2586,-8.43,-2.34,-6.20,1.1700,0.1640,1.1250,0.0000,2.3730,527,0.0000,0.0000,0.0000,0.0000,0.0000,0
15045,0.0189,-0.1775,0.3271,-0.0182,0.0097,0.0059,-0.37,-0.32,0.23,0,3.341,4.023,4.767,0.153,0.002,-0.019,0.998,0.000,0.000,0.000,0.3240,0,0,-1.41,-0.31,-1.79,-0.0192,-0.0843,0.3275,0.0451,-0.0626,0.3000,0.2590,-7.86,-2.69,-6.84,1.1640,0.1600,1.1250,0.0000,2.3690,527,0.0000,0.0000,0.0000,0.0000,0.0000,0
15096,0.0192,-0.1764,0.3259,-0.0133,0.0133,-0.0017,-0.21,-0.41,0.23,0,3.341,2.051,-3.178,-0.404,0.001,-0.020,0.997,0.000,0.000,0.000,0.3250,-1,0,-1.21,-0.55,-1.79,-0.0212,-0.0830,0.3266,0.0451,-0.0626,0.3000,0.2600,-7.59,-2.43,-6.91,1.1640,0.1600,1.1240,0.0000,2.3690,527,0.0000,0.0000,0.0000,0.0000,0.0000,0
15147,0.0181,-0.1741,0.3255,-0.0109,0.0178,-0.0041,-0.10,-0.42,0.21,0,3.341,4.614,-1.393,-0.729,0.001,-0.019,1.002,0.000,0.000,0.000,0.3270,0,0,-1.10,-0.43,-1.77,-0.0164,-0.0826,0.3262,0.0451,-0.0626,0.3000,0.2604,-7.21,-2.39,-6.39,1.1720,0.1520,1.1240,0.0000,2.3820,527,0.0000,0.0000,0.0000,0.0000,0.0000,0
15198,0.0184,-0.1687,0.3260,-0.0059,0.0269,0.0001,0.04,-0.34,0.17,0,3.336,5.213,1.094,-1.076,0.003,-0.014,1.000,0.000,0.000,0.000,0.3260,0,0,-0.87,-0.36,-1.80,-0.0167,-0.0814,0.3265,0.0451,-0.0626,0.3000,0.2598,-6.41,-2.14,-5.12,1.1720,0.1520,1.1250,0.0000,2.3820,527,0.0000,0.0000,0.0000,0.0000,0.0000,0
15249,0.0181,-0.1664,0.3260,-0.0037,0.0290,0.0008,0.23,-0.33,0.11,0,3.336,4.876,-4.870,-0.041,0.005,-0.016,1.000,0.000,0.000,0.000,0.3300,0,0,-0.60,-0.41,-1.86,-0.0168,-0.0802,0.3264,0.0451,-0.0626,0.3000,0.2597,-6.16,-2.06,-3.42,1.1680,0.0000,1.1250,0.0000,2.3710,527,0.0000,0.0000,0.0000,0.0000,0.0000,0
15300,0.0197,-0.1639,0.3277,0.0024,0.0292,0.0096,0.34,-0.14,0.06,0,3.341,0.744,-2.302,-2.244,0.003,-0.017,0.997,0.000,0.000,0.000,0.3270,-1,0,-0.35,-0.16,-1.86,-0.0165,-0.0791,0.3275,0.0451,-0.0626,0.3000,0.2584,-6.01,-1.66,-1.89,1.1680,0.0000,1.1300,0.0000,2.3710,527,0.0000,0.0000,0.0000,0.0000,0.0000,0
15352,0.0210,-0.1602,0.3277,0.0060,0.0311,0.0073,0.47,-0.11,-0.02,0,3.341,-1.455,-5.728,-1.419,-0.000,-0.018,0.996,0.000,0.000,0.000,0.3260,0,-1,-0.32,-0.04,-1.97,-0.0175,-0.0782,0.3275,0.0451,-0.0626,0.3000,0.2587,-5.64,-1.39,0.55,1.1670,0.0000,1.1300,0.0000,2.3760,527,0.0000,0.0000,0.0000,0.0000,0.0000,0
15404,0.0208,-0.1565,0.3272,0.0061,0.0313,0.0017,0.47,0.03,-0.10,0,3.336,0.014,-2.739,-1.594,0.003,-0.017,0.995,0.000,0.000,0.000,0.3270,-1,0,-0.39,0.25,-2.05,-0.0164,-0.0779,0.3270,0.0451,-0.0626,0.3000,0.2594,-5.36,-1.40,2.99,1.1670,0.0000,1.1220,0.4730,2.3760,527,0.0000,0.0000,0.0000,0.0000,0.0000,0
15455,0.0223,-0.1552,0.3271,0.0082,0.0268,-0.0003,0.57,0.03,-0.19,0,3.341,-1.401,-1.633,-1.084,0.000,-0.017,0.998,0.000,0.000,0.000,0.3240,-1,0,-0.40,0.40,-2.12,-0.0162,-0.0766,0.3268,0.0451,-0.0626,0.3000,0.2596,-5.48,-1.19,5.72,1.1610,0.0000,1.1220,0.4730,2.3690,527,0.0000,0.0000,0.0000,0.0000,0.0000,0
15505,0.0227,-0.1534,0.3258,0.0079,0.0231,-0.0079,0.61,0.09,-0.25,0,3.336,-2.479,0.251,-0.640,0.002,-0.013,1.001,0.000,0.000,0.000,0.3300,0,1,-0.48,0.48,-2.17,-0.0161,-0.0750,0.3257,0.0451,-0.0626,0.3000,0.2607,-5.50,-1.18,7.45,1.1610,0.0000,1.1250,0.5280,2.3690,527,0.0000,0.0000,0.0000,0.0000,0.0000,0
15556,0.0255,-0.1549,0.3273,0.0121,0.0128,0.0013,0.56,0.15,-0.32,0,3.341,-0.615,-0.998,-1.323,0.004,-0.015,1.000,0.000,0.000,0.000,0.3250,1,0,-0.61,0.48,-2.19,-0.0177,-0.0747,0.3267,0.0451,-0.0626,0.3000,0.2594,-6.13,-0.78,9.57,1.1690,0.1620,1.1250,0.5280,2.3700,527,0.0000,0.0000,0.0000,0.0000,0.0000,0
15607,0.0226,-0.1565,0.3264,0.0042,0.0039,-0.0044,0.46,0.19,-0.35,0,3.336,-2.987,1.667,-1.020,0.003,-0.015,0.999,0.000,0.000,0.000,0.3280,2,0,-0.62,0.53,-2.28,-0.0180,-0.0765,0.3260,0.0451,-0.0626,0.3000,0.2602,-6.64,-1.36,10.47,1.1690,0.1620,1.1290,0.0000,2.3700,527,0.0000,0.0000,0.0000,0.0000,0.0000,0
15658,0.0227,-0.1590,0.3269,0.0023,-0.0049,-0.0010,0.35,0.19,-0.39,0,3.336,-6.246,2.426,0.355,0.003,-0.014,0.994,0.000,0.000,0.000,0.3270,2,0,-0.74,0.45,-2.38,-0.0184,-0.0808,0.3264,0.0451,-0.0626,0.3000,0.2597,-7.24,-1.44,11.60,1.1680,0.1650,1.1290,0.0000,2.3670,527,0.0000,0.0000,0.0000,0.0000,0.0000,0
15709,0.0215,-0.1625,0.3269,-0.0018,-0.0138,-0.0022,0.08,0.18,-0.40,0,3.336,-3.748,2.674,-0.134,0.001,-0.019,0.997,0.000,0.000,0.000,0.3240,0,0,-1.03,0.32,-2.40,-0.0188,-0.0858,0.3263,0.0451,-0.0626,0.3000,0.2599,-7.90,-1.72,11.90,1.1680,0.1650,1.1220,0.0000,2.3670,527,0.0000,0.0000,0.0000,0.0000,0.0000,0
15760,0.0199,-0.1669,0.3256,-0.0063,-0.0219,-0.0090,-0.06,0.13,-0.40,0,3.336,-3.969,3.238,-0.761,0.003,-0.014,0.997,0.000,0.000,0.000,0.3250,2,0,-1.22,0.18,-2.41,-0.0196,-0.0879,0.3252,0.0451,-0.0626,0.3000,0.2608,-8.56,-2.05,11.97,1.1640,0.1620,1.1220,0.0000,2.3800,527,0.0000,0.0000,0.0000,0.0000,0.0000,0
15811,0.0184,-0.1682,0.3251,-0.0098,-0.0215,-0.0100,-0.26,0.02,-0.42,0,3.331,-2.594,1.410,-0.629,0.007,-0.013,1.000,0.000,0.000,0.000,0.3220,1,0,-1.40,0.01,-2.49,-0.0189,-0.0930,0.3246,0.0451,-0.0626,0.3000,0.2610,-8.62,-2.32,12.63,1.1640,0.1620,1.1230,0.4440,2.3800,527,0.0000,0.0000,0.0000,0.0000,0.0000,0
15862,0.0207,-0.1719,0.3235,-0.0044,-0.0246,-0.0152,-0.46,-0.08,-0.43,0,3.336,-2.602,-1.634,0.265,0.003,-0.014,1.000,0.000,0.000,0.000,0.3210,1,1,-1.53,-0.07,-2.53,-0.0191,-0.0960,0.3233,0.0451,-0.0626,0.3000,0.2619,-9.00,-1.89,12.95,1.1640,0.1640,1.1230,0.4440,2.3820,527,0.0000,0.0000,0.0000,0.0000,0.0000,0
15913,0.0199,-0.1745,0.3220,-0.0049,-0.0235,-0.0187,-0.50,-0.03,-0.42,0,3.326,-1.198,1.132,-0.183,0.005,-0.017,1.004,0.000,0.000,0.000,0.3230,0,1,-1.66,0.03,-2.52,-0.0215,-0.0988,0.3219,0.0451,-0.0626,0.3000,0.2625,-9.10,-1.97,12.73,1.1640,0.1640,1.1280,0.4080,2.3820,527,0.0000,0.0000,0.0000,0.0000,0.0000,0
15964,0.0177,-0.1764,0.3219,-0.0085,-0.0208,-0.0129,-0.57,-0.04,-0.41,0,3.331,-0.293,0.608,-0.426,0.003,-0.015,1.003,0.000,0.000,0.000,0.3230,0,0,-1.73,-0.01,-2.53,-0.0241,-0.0992,0.3217,0.0451,-0.0626,0.3000,0.2619,-9.13,-2.30,12.38,1.1680,0.0000,1.1280,0.4080,2.3790,527,0.0000,0.0000,0.0000,0.0000,0.0000,0
16015,0.0163,-0.1767,0.3220,-0.0100,-0.0146,-0.0071,-0.61,-0.11,-0.41,0,3.326,2.528,1.793,0.700,0.004,-0.015,1.008,0.000,0.000,0.000,0.3220,0,0,-1.74,-0.04,-2.55,-0.0249,-0.1004,0.3216,0.0451,-0.0626,0.3000,0.2613,-8.89,-2.48,12.35,1.1680,0.0000,1.1260,0.0000,2.3790,527,0.0000,0.0000,0.0000,0.0000,0.0000,0
16066,0.0154,-0.1776,0.3218,-0.0099,-0.0101,-0.0033,-0.48,-0.19,-0.40,0,3.336,2.114,-1.431,0.620,0.005,-0.018,1.002,0.000,0.000,0.000,0.3180,0,0,-1.61,-0.13,-2.52,-0.0255,-0.1013,0.3215,0.0451,-0.0626,0.3000,0.2609,-8.76,-2.54,11.97,1.1720,0.0000,1.1260,0.0000,2.3830,527,0.0000,0.0000,0.0000,0.0000,0.0000,0
16117,0.0149,-0.1780,0.3202,-0.0083,-0.0059,-0.0097,-0.40,-0.15,-0.39,0,3.326,-1.306,3.143,0.687,0.003,-0.017,1.002,0.000,0.000,0.000,0.3170,0,0,-1.51,-0.06,-2.48,-0.0260,-0.1019,0.3202,0.0451,-0.0626,0.3000,0.2619,-8.57,-2.49,11.55,1.1720,0.0000,1.1290,0.0000,2.3830,527,0.0000,0.0000,0.0000,0.0000,0.0000,0
16168,0.0131,-0.1784,0.3186,-0.0099,-0.0028,-0.0143,-0.34,-0.15,-0.36,0,3.331,1.825,1.219,-0.999,0.003,-0.016,1.008,0.000,0.000,0.000,0.3170,0,0,-1.57,-0.22,-2.45,-0.0263,-0.1023,0.3189,0.0451,-0.0626,0.3000,0.2627,-8.42,-2.68,10.82,1.1750,0.1620,1.1290,0.0000,2.3830,527,0.0000,0.0000,0.0000,0.0000,0.0000,0
16219,0.0130,-0.1772,0.3175,-0.0078,0.0027,-0.0141,-0.28,-0.19,-0.39,0,3.326,-1.140,1.566,0.286,0.003,-0.016,1.006,0.000,0.000,0.000,0.3150,0,0,-1.48,-0.28,-2.51,-0.0265,-0.1025,0.3181,0.0451,-0.0626,0.3000,0.2629,-8.08,-2.59,11.69,1.1750,0.1620,1.1330,0.0000,2.3830,527,0.0000,0.0000,0.0000,0.0000,0.0000,0
16270,0.0131,-0.1771,0.3161,-0.0054,0.0048,-0.0155,-0.22,-0.21,-0.40,0,3.326,0.905,-0.071,-0.344,0.001,-0.015,1.005,0.000,0.000,0.000,0.3160,-2,1,-1.54,-0.36,-2.49,-0.0265,-0.1024,0.3170,0.0451,-0.0626,0.3000,0.2633,-7.97,-2.47,11.95,1.1680,0.1570,1.1330,0.0000,2.3900,527,0.0000,0.0000,0.0000,0.0000,0.0000,0
16321,0.0130,-0.1754,0.3157,-0.0032,0.0095,-0.0105,-0.18,-0.20,-0.41,0,3.326,7.143,-0.529,-0.029,0.004,-0.013,1.012,0.000,0.000,0.000,0.3160,-1,0,-1.51,-0.34,-2.53,-0.0305,-0.0986,0.3166,0.0451,-0.0626,0.3000,0.2629,-7.65,-2.37,12.25,1.1680,0.1570,1.1260,0.0000,2.3900,527,0.0000,0.0000,0.0000,0.0000,0.0000,0
16372,0.0114,-0.1717,0.3155,-0.0042,0.0171,-0.0050,-0.06,-0.20,-0.42,0,3.331,0.160,-0.011,0.305,0.003,-0.014,1.006,0.000,0.000,0.000,0.3130,0,0,-1.15,-0.31,-2.53,-0.0306,-0.0971,0.3165,0.0451,-0.0626,0.3000,0.2623,-7.05,-2.54,12.74,1.1690,0.0000,1.1260,0.0000,2.3840,527,0.0000,0.0000,0.0000,0.0000,0.0000,0
16423,0.0130,-0.1683,0.3144,0.0010,0.0224,-0.0062,0.09,-0.19,-0.43,0,3.326,4.963,-3.184,0.336,0.001,-0.018,1.008,0.000,0.000,0.000,0.3130,0,0,-1.14,-0.31,-2.51,-0.0305,-0.0956,0.3157,0.0451,-0.0626,0.3000,0.2626,-6.56,-2.18,12.86,1.1690,0.0000,1.1230,0.0000,2.3840,527,0.0000,0.0000,0.0000,0.0000,0.0000,0
16474,0.0131,-0.1661,0.3137,0.0025,0.0235,-0.0042,0.26,-0.11,-0.43,0,3.331,1.547,-0.448,0.395,0.005,-0.018,1.009,0.000,0.000,0.000,0.3140,0,0,-0.88,-0.15,-2.49,-0.0302,-0.0942,0.3151,0.0451,-0.0626,0.3000,0.2625,-6.37,-2.11,12.87,1.1750,0.1610,1.1230,0.0000,2.3910,527,0.0000,0.0000,0.0000,0.0000,0.0000,0
16526,0.0130,-0.1621,0.3138,0.0031,0.0269,0.0006,0.31,-0.06,-0.42,0,3.326,1.957,-0.392,0.495,0.007,-0.018,1.010,0.000,0.000,0.000,0.3130,0,0,-0.80,-0.13,-2.47,-0.0298,-0.0927,0.3152,0.0451,-0.0626,0.3000,0.2620,-5.94,-2.09,12.56,1.1750,0.1610,1.1330,0.4330,2.3910,527,0.0000,0.0000,0.0000,0.0000,0.0000,0
16576,0.0132,-0.1608,0.3135,0.0036,0.0241,0.0037,0.37,-0.05,-0.39,0,3.331,4.048,0.872,0.395,0.005,-0.016,1.005,0.000,0.000,0.000,0.3120,0,0,-0.70,-0.11,-2.44,-0.0291,-0.0914,0.3152,0.0451,-0.0626,0.3000,0.2617,-5.99,-2.05,11.68,1.1690,0.0000,1.1330,0.4330,2.3930,527,0.0000,0.0000,0.0000,0.0000,0.0000,0
16627,0.0133,-0.1590,0.3131,0.0039,0.0222,0.0027,0.51,-0.04,-0.37,0,3.326,0.362,-1.483,0.747,0.002,-0.015,1.005,0.000,0.000,0.000,0.3160,0,0,-0.50,-0.15,-2.42,-0.0282,-0.0902,0.3148,0.0451,-0.0626,0.3000,0.2619,-5.94,-2.03,11.00,1.1690,0.0000,1.1360,0.5800,2.3930,527,0.0000,0.0000,0.0000,0.0000,0.0000,0
16678,0.0135,-0.1580,0.3144,0.0043,0.0179,0.0111,0.50,-0.05,-0.35,0,3.331,0.006,-1.691,-0.387,0.004,-0.013,1.004,0.000,0.000,0.000,0.3160,0,0,-0.48,-0.07,-2.39,-0.0272,-0.0892,0.3159,0.0451,-0.0626,0.3000,0.2608,-6.11,-2.01,10.36,1.1720,0.1590,1.1360,0.5800,2.3920,527,0.0000,0.0000,0.0000,0.0000,0.0000,0
16729,0.0132,-0.1602,0.3154,0.0036,0.0080,0.0160,0.48,-0.01,-0.33,0,3.331,-2.097,0.491,0.189,0.001,-0.014,1.003,0.000,0.000,0.000,0.3150,0,0,-0.48,0.01,-2.40,-0.0261,-0.0883,0.3167,0.0451,-0.0626,0.3000,0.2600,-6.75,-2.07,10.04,1.1720,0.1590,1.1340,0.0000,2.3920,527,0.0000,0.0000,0.0000,0.0000,0.0000,0
16780,0.0131,-0.1644,0.3157,0.0033,-0.0040,0.0149,0.45,0.03,-0.33,0,3.331,-7.377,1.411,0.939,0.004,-0.015,0.997,0.000,0.000,0.000,0.3170,0,-1,-0.59,-0.01,-2.40,-0.0250,-0.0875,0.3171,0.0451,-0.0626,0.3000,0.2601,-7.60,-2.09,10.00,1.1690,0.1580,1.1340,0.0000,2.3860,527,0.0000,0.0000,0.0000,0.0000,0.0000,0
16831,0.0135,-0.1700,0.3168,0.0035,-0.0172,0.0157,0.28,-0.04,-0.33,0,3.331,-6.561,-1.972,-0.380,0.003,-0.017,0.996,0.000,0.000,0.000,0.3180,0,0,-0.94,-0.06,-2.34,-0.0287,-0.0906,0.3179,0.0451,-0.0626,0.3000,0.2598,-8.62,-2.05,9.89,1.1690,0.1580,1.1380,0.0000,2.3860,527,0.0000,0.0000,0.0000,0.0000,0.0000,0
16882,0.0162,-0.1751,0.3177,0.0078,-0.0269,0.0158,0.04,-0.02,-0.33,0,3.331,-7.060,-3.676,-1.159,0.004,-0.018,0.991,0.000,0.000,0.000,0.3180,2,0,-1.28,0.04,-2.36,-0.0282,-0.0906,0.3186,0.0451,-0.0626,0.3000,0.2596,-9.43,-1.66,9.99,1.1700,0.1610,1.1380,0.0000,2.3880,527,0.0000,0.0000,0.0000,0.0000,0.0000,0
16933,0.0150,-0.1786,0.3183,0.0053,-0.0310,0.0123,-0.29,0.04,-0.37,0,3.331,-42.867,13.491,-1.676,0.000,-0.017,0.988,0.000,0.000,0.000,0.3140,4,1,-1.61,0.23,-2.43,-0.0280,-0.0923,0.3189,0.0451,-0.0626,0.3000,0.2599,-9.86,-1.86,11.05,1.1700,0.1610,1.1360,0.4310,2.3880,527,0.0000,0.0000,0.0000,0.0000,0.0000,0
16984,0.0159,-0.1833,0.3168,0.0063,-0.0331,-0.0029,-2.27,-0.34,-0.42,0,3.326,-41.495,6.974,-0.462,0.003,-0.009,0.999,0.000,0.000,0.000,0.3170,4,0,-3.76,-0.44,-2.58,-0.0286,-0.0953,0.3178,0.0451,-0.0626,0.3000,0.2618,-10.21,-1.73,12.70,1.1700,0.1580,1.1360,0.4310,2.3880,527,0.0000,0.0000,0.0000,0.0000,0.0000,0
17035,0.0153,-0.1856,0.3167,0.0077,-0.0144,-0.0040,-4.46,-0.79,-0.46,0,3.320,-6.943,-1.603,-0.408,0.002,-0.011,1.006,0.000,0.000,0.000,0.3170,0,0,-5.83,-0.79,-2.65,-0.0285,-0.0990,0.3181,0.0451,-0.0626,0.3000,0.2619,-9.50,-1.71,13.86,1.1700,0.1580,1.1210,0.4050,2.3880,527,0.0000,0.0000,0.0000,0.0000,0.0000,0
17086,0.0121,-0.1903,0.3168,0.0079,0.0149,-0.0020,-4.96,-0.81,-0.48,0,3.326,-4.513,1.128,-1.398,0.002,-0.021,0.999,0.000,0.000,0.000,0.3140,-2,0,-6.18,-0.70,-2.66,-0.0279,-0.0982,0.3179,0.0451,-0.0626,0.3000,0.2617,-8.48,-1.93,14.35,1.1690,0.0000,1.1210,0.4050,2.3960,527,0.0000,0.0000,0.0000,0.0000,0.0000,0
17137,0.0127,-0.1885,0.3155,0.0152,0.0572,-0.0089,-5.21,-0.90,-0.54,0,3.326,-1.260,4.727,-0.319,0.001,-0.021,1.006,0.000,0.000,0.000,0.3140,-2,0,-6.42,-0.73,-2.82,-0.0281,-0.0952,0.3166,0.0451,-0.0626,0.3000,0.2627,-6.38,-1.54,16.34,1.1690,0.0000,1.1100,0.4490,2.3960,527,0.0000,0.0000,0.0000,0.0000,0.0000,0
17188,0.0152,-0.1812,0.3146,0.0262,0.1078,-0.0124,-5.28,-1.08,-0.60,0,3.320,15.095,-3.051,-0.877,0.003,-0.019,1.010,0.000,0.000,0.000,0.3150,-2,0,-6.48,-0.96,-2.89,-0.0273,-0.0895,0.3156,0.0451,-0.0626,0.3000,0.2632,-3.49,-0.84,18.00,1.1750,0.1700,1.1100,0.4490,2.3950,527,0.0000,0.0000,0.0000,0.0000,0.0000,0
17239,0.0171,-0.1692,0.3144,0.0364,0.1627,-0.0081,-4.59,-0.93,-0.64,0,3.320,25.523,-7.368,-0.954,0.003,-0.022,1.006,0.000,0.000,0.000,0.3180,-6,-2,-5.71,-0.79,-2.96,-0.0263,-0.0824,0.3154,0.0451,-0.0626,0.3000,0.2628,-0.07,-0.23,19.20,1.1750,0.1700,1.0950,0.5340,2.3950,527,0.0000,0.0000,0.0000,0.0000,0.0000,0
17291,0.0181,-0.1595,0.3157,0.0433,0.2032,0.0027,-3.39,-0.76,-0.64,0,3.326,26.365,-1.444,-1.145,0.004,-0.025,1.008,0.000,0.000,0.000,0.3160,-10,-2,-4.45,-0.45,-2.81,-0.0213,-0.0671,0.3153,0.0451,-0.0626,0.3000,0.2614,2.53,0.17,19.19,1.1680,0.0000,1.0950,0.5340,2.3900,527,0.0000,0.0000,0.0000,0.0000,0.0000,0
17341,0.0225,-0.1530,0.3160,0.0535,0.2241,0.0055,-2.14,-0.59,-0.66,0,3.320,23.011,29.872,-0.966,-0.009,-0.026,0.998,0.000,0.000,0.000,0.3160,-2,1,-3.18,-0.39,-2.78,-0.0152,-0.0427,0.3135,0.0451,-0.0626,0.3000,0.2610,3.98,0.96,19.92,1.1680,0.0000,1.0820,0.5740,2.3900,527,0.0000,0.0000,0.0000,0.0000,0.0000,0
17392,0.0260,-0.1350,0.3161,0.0607,0.2540,0.0051,-0.97,-2.00,-0.73,0,3.326,24.076,53.269,-1.067,0.005,-0.028,0.995,0.000,0.000,0.000,0.3140,-6,4,-1.98,-1.85,-3.10,-0.0157,-0.0332,0.3155,0.0451,-0.0626,0.3000,0.2611,6.65,1.55,21.76,1.1670,0.1640,1.0820,0.5740,2.3930,527,0.0000,0.0000,0.0000,0.0000,0.0000,0
17444,0.0314,-0.1265,0.3154,0.0819,0.2537,-0.0005,0.34,-4.50,-0.81,0,3.320,19.587,6.479,-2.212,0.003,-0.028,1.001,0.000,0.000,0.000,0.3160,-3,-1,-0.81,-4.47,-3.79,-0.0229,-0.0153,0.3156,0.0451,-0.0626,0.3000,0.2618,7.22,2.92,24.42,1.1670,0.1640,1.0740,0.5840,2.3930,527,0.0000,0.0000,0.0000,0.0000,0.0000,0
17495,0.0334,-0.1129,0.3156,0.1141,0.2518,-0.0011,1.38,-4.99,-0.93,0,3.320,14.989,-5.248,-1.587,-0.003,-0.024,1.000,0.000,0.000,0.000,0.3120,-2,-1,0.24,-4.81,-3.80,-0.0193,-0.0050,0.3162,0.0451,-0.0626,0.3000,0.2618,8.07,4.58,27.91,1.1710,0.1720,1.0740,0.5840,2.4020,527,0.0000,0.0000,0.0000,0.0000,0.0000,0
17545,0.0381,-0.1030,0.3141,0.1524,0.2352,-0.0103,2.06,-4.77,-1.02,0,3.320,8.021,-3.682,-1.856,-0.001,-0.026,1.004,0.000,0.000,0.000,0.3160,-8,-4,1.05,-4.53,-3.75,-0.0159,0.0019,0.3154,0.0451,-0.0626,0.3000,0.2631,7.95,6.67,30.62,1.1710,0.1720,1.0590,0.5400,2.4020,527,0.0000,0.0000,0.0000,0.0000,0.0000,0
17596,0.0451,-0.0961,0.3146,0.1892,0.2074,-0.0045,2.55,-4.69,-1.10,0,3.320,4.170,-17.042,-0.735,-0.005,-0.021,1.001,0.000,0.000,0.000,0.3120,0,-2,1.34,-4.40,-4.16,-0.0020,0.0238,0.3144,0.0451,-0.0626,0.3000,0.2624,7.17,8.88,32.94,1.1530,0.1670,1.0590,0.5400,2.4060,527,0.0000,0.0000,0.0000,0.0000,0.0000,0
17647,0.0572,-0.0835,0.3133,0.2328,0.1910,-0.0108,2.83,-4.03,-1.16,0,3.315,2.986,-47.361,0.335,0.000,-0.021,1.013,0.000,0.000,0.000,0.3070,-2,-5,1.64,-3.50,-3.84,0.0039,0.0251,0.3144,0.0451,-0.0626,0.3000,0.2633,7.26,11.66,34.75,1.1530,0.1670,1.0430,0.5250,2.4060,527,0.0000,0.0000,0.0000,0.0000,0.0000,0
17698,0.0673,-0.0795,0.3103,0.2617,0.1547,-0.0219,3.02,-1.63,-1.26,0,3.315,-2.149,-85.872,1.345,-0.006,-0.018,1.016,0.000,0.000,0.000,0.3070,-2,-17,1.81,-1.11,-3.83,0.0190,0.0301,0.3118,0.0451,-0.0626,0.3000,0.2651,5.81,13.55,37.84,1.1330,0.0000,1.0430,0.5250,2.3990,527,0.0000,0.0000,0.0000,0.0000,0.0000,0
17749,0.0764,-0.0738,0.3084,0.2642,0.1249,-0.0197,3.02,2.42,-1.40,0,3.310,-2.574,-17.364,2.634,-0.017,-0.014,1.021,0.000,0.000,0.000,0.3060,0,-4,1.72,3.00,-4.29,0.0710,0.0314,0.3089,0.0451,-0.0626,0.3000,0.2652,4.82,14.25,42.04,1.1330,0.0000,1.0310,0.5780,2.3990,527,0.0000,0.0000,0.0000,0.0000,0.0000,0
17800,0.0982,-0.0706,0.3069,0.2652,0.0936,-0.0162,2.77,3.52,-1.34,0,3.310,-10.630,41.349,2.469,-0.006,-0.011,1.022,0.000,0.000,0.000,0.3030,0,0,1.61,3.93,-4.02,0.0830,0.0309,0.3088,0.0451,-0.0626,0.3000,0.2651,3.59,15.72,40.17,0.0000,0.0000,1.0310,0.5780,2.4020,527,0.0000,0.0000,0.0000,0.0000,0.0000,0
17851,0.1092,-0.0669,0.3048,0.2318,0.0693,-0.0157,2.25,1.81,-1.11,0,3.310,-10.508,-21.011,3.061,0.001,-0.013,1.024,0.000,0.000,0.000,0.3060,1,-4,1.06,1.82,-3.85,0.0973,0.0335,0.3077,0.0451,-0.0626,0.3000,0.2654,2.72,14.97,33.29,0.0000,0.0000,1.0340,0.0000,2.4020,527,0.0000,0.0000,0.0000,0.0000,0.0000,0
17902,0.1192,-0.0659,0.3050,0.2119,0.0447,-0.0022,1.79,2.89,-0.94,0,3.320,-5.915,-71.222,6.229,-0.006,-0.013,1.015,0.000,0.000,0.000,0.3080,0,0,0.57,3.04,-3.31,0.0879,0.0255,0.3098,0.0451,-0.0626,0.3000,0.2639,1.65,14.84,28.32,1.0830,0.1730,1.0340,0.0000,2.3940,527,0.0000,0.0000,0.0000,0.0000,0.0000,0
17953,0.1255,-0.0654,0.3064,0.1752,0.0260,0.0130,1.50,6.11,-0.78,0,3.315,-10.265,10.225,6.200,-0.011,-0.015,1.002,0.000,0.000,0.000,0.3080,1,0,0.24,6.67,-3.02,0.0960,0.0249,0.3107,0.0451,-0.0626,0.3000,0.2620,0.82,13.74,23.41,1.0830,0.1730,1.0310,0.0000,2.3940,527,0.0000,0.0000,0.0000,0.0000,0.0000,0
18004,0.1379,-0.0642,0.3075,0.1363,0.0147,0.0179,1.15,6.22,-0.50,0,3.320,-8.332,74.155,6.167,0.001,-0.016,1.004,0.000,0.000,0.000,0.3090,0,1,-0.33,6.23,-2.50,0.0882,0.0231,0.3103,0.0451,-0.0626,0.3000,0.2613,0.37,12.87,14.98,1.0520,0.1930,1.0310,0.0000,2.4000,527,0.0000,0.0000,0.0000,0.0000,0.0000,0
18055,0.1404,-0.0647,0.3088,0.0790,0.0032,0.0215,0.67,3.09,-0.11,0,3.320,-10.762,19.485,7.523,0.005,-0.013,1.007,0.000,0.000,0.000,0.3090,2,2,-0.78,2.46,-2.15,0.0859,0.0229,0.3109,0.0451,-0.0626,0.3000,0.2607,-0.21,10.46,3.16,1.0520,0.1930,1.0310,0.0000,2.4000,527,0.0000,0.0000,0.0000,0.0000,0.0000,0
18106,0.1411,-0.0653,0.3095,0.0489,-0.0038,0.0228,0.20,1.51,0.26,0,3.315,-6.697,12.991,8.316,0.002,-0.010,1.005,0.000,0.000,0.000,0.3150,0,4,-1.32,1.48,-1.88,0.0810,0.0181,0.3114,0.0451,-0.0626,0.3000,0.2604,-0.59,9.13,-7.72,1.0600,0.0000,1.0310,0.0000,2.3860,527,0.0000,0.0000,0.0000,0.0000,0.0000,0
18158,0.1413,-0.0668,0.3127,0.0312,-0.0082,0.0349,-0.19,1.02,0.69,0,3.320,-2.233,29.440,7.725,0.002,-0.015,0.999,0.000,0.000,0.000,0.3140,2,2,-1.68,0.85,-1.35,0.0706,0.0183,0.3136,0.0451,-0.0626,0.3000,0.2585,-0.91,8.38,-20.72,1.0600,0.0000,1.0250,0.0000,2.3860,527,0.0000,0.0000,0.0000,0.0000,0.0000,0
18209,0.1390,-0.0672,0.3142,0.0145,-0.0066,0.0339,-0.33,-0.25,1.08,0,3.326,-5.090,18.999,7.222,0.004,-0.010,0.995,0.000,0.000,0.000,0.3170,0,3,-1.76,-0.68,-1.13,0.0649,0.0129,0.3152,0.0451,-0.0626,0.3000,0.2583,-0.86,7.44,-32.27,1.0690,0.1500,1.0250,0.0000,2.3810,527,0.0000,0.0000,0.0000,0.0000,0.0000,0
18260,0.1382,-0.0673,0.3165,0.0145,-0.0029,0.0344,-0.54,-1.34,1.45,0,3.320,-2.882,-2.767,5.448,0.007,-0.011,0.996,0.000,0.000,0.000,0.3160,0,0,-2.02,-1.63,-0.75,0.0563,0.0130,0.3170,0.0451,-0.0626,0.3000,0.2578,-0.69,7.40,-43.61,1.0690,0.1500,1.0210,0.0000,2.3810,527,0.0000,0.0000,0.0000,0.0000,0.0000,0
18311,0.1380,-0.0690,0.3172,0.0231,-0.0027,0.0269,-0.67,-1.45,1.76,0,3.320,-0.144,-55.459,5.976,0.001,-0.010,0.991,0.000,0.000,0.000,0.3180,0,-5,-2.16,-1.50,-0.47,0.0519,0.0126,0.3180,0.0451,-0.0626,0.3000,0.2585,-0.81,7.78,-52.71,1.0770,0.0000,1.0210,0.0000,2.3800,527,0.0000,0.0000,0.0000,0.0000,0.0000,0
18362,0.1396,-0.0690,0.3184,0.0320,0.0033,0.0220,-0.64,1.44,2.12,0,3.320,2.753,-19.595,5.336,-0.010,-0.017,0.989,0.000,0.000,0.000,0.3190,0,-4,-2.17,1.13,-0.04,0.0779,0.0122,0.3202,0.0451,-0.0626,0.3000,0.2588,-0.52,8.29,-63.72,1.0770,0.0000,1.0160,0.0000,2.3800,527,0.0000,0.0000,0.0000,0.0000,0.0000,0
18413,0.1422,-0.0690,0.3192,0.0235,0.0074,0.0153,-0.63,2.49,2.35,0,3.320,1.069,56.843,1.745,-0.005,-0.011,0.989,0.000,0.000,0.000,0.3160,0,4,-2.03,2.06,0.29,0.0870,0.0126,0.3206,0.0451,-0.0626,0.3000,0.2594,-0.32,8.06,-70.64,1.0510,0.0000,1.0160,0.0000,2.3760,527,0.0000,0.0000,0.0000,0.0000,0.0000,0
18464,0.1448,-0.0685,0.3183,0.0103,0.0120,0.0020,-0.53,0.30,2.47,0,3.315,1.184,12.929,1.246,0.008,-0.012,1.000,0.000,0.000,0.000,0.3160,-1,2,-1.97,-0.77,0.20,0.0782,0.0127,0.3205,0.0451,-0.0626,0.3000,0.2610,-0.07,7.59,-74.08,1.0510,0.0000,1.0110,0.0000,2.3760,527,0.0000,0.0000,0.0000,0.0000,0.0000,0
18515,0.1426,-0.0679,0.3173,0.0032,0.0163,-0.0060,-0.51,-0.87,2.51,0,3.315,1.898,-65.947,1.256,0.002,-0.013,0.999,0.000,0.000,0.000,0.3190,0,-8,-1.92,-1.39,0.23,0.0734,0.0154,0.3198,0.0451,-0.0626,0.3000,0.2620,0.18,7.07,-75.34,1.0770,0.0000,1.0110,0.0000,2.3840,527,0.0000,0.0000,0.0000,0.0000,0.0000,0
18566,0.1387,-0.0677,0.3178,-0.0058,0.0185,-0.0013,-0.40,1.84,2.56,0,3.315,-2.456,-21.310,1.142,-0.006,-0.013,1.005,0.000,0.000,0.000,0.3140,-1,0,-1.81,1.83,0.54,0.0938,0.0165,0.3204,0.0451,-0.0626,0.3000,0.2614,0.30,6.39,-76.81,1.0770,0.0000,1.0080,0.0000,2.3840,527,0.0000,0.0000,0.0000,0.0000,0.0000,0
18618,0.1416,-0.0678,0.3161,-0.0149,0.0179,-0.0106,-0.38,3.35,2.59,0,3.315,0.292,10.744,-1.334,0.003,-0.017,1.003,0.000,0.000,0.000,0.3170,0,0,-1.94,2.93,0.62,0.0943,0.0195,0.3190,0.0451,-0.0626,0.3000,0.2627,0.26,6.15,-77.60,1.0520,0.1440,1.0080,0.0000,2.3750,527,0.0000,0.0000,0.0000,0.0000,0.0000,0
18670,0.1410,-0.0663,0.3161,-0.0407,0.0211,-0.0088,-0.29,3.04,2.52,0,3.310,0.146,-6.283,-1.917,0.004,-0.012,1.002,0.000,0.000,0.000,0.3170,-1,2,-1.92,2.37,0.53,0.0955,0.0226,0.3187,0.0451,-0.0626,0.3000,0.2625,0.52,4.91,-75.61,1.0520,0.1440,1.0080,0.0000,2.3750,527,0.0000,0.0000,0.0000,0.0000,0.0000,0
18721,0.1354,-0.0641,0.3162,-0.0750,0.0254,-0.0055,-0.30,3.12,2.43,0,3.315,5.523,54.263,-3.878,-0.000,-0.014,1.000,0.000,0.000,0.000,0.3170,0,2,-1.87,2.76,0.28,0.0870,0.0200,0.3185,0.0451,-0.0626,0.3000,0.2622,0.88,2.91,-72.91,1.0600,0.1430,1.0080,0.0000,2.3830,527,0.0000,0.0000,0.0000,0.0000,0.0000,0
18771,0.1299,-0.0625,0.3164,-0.1026,0.0275,-0.0034,-0.04,0.96,2.28,0,3.310,2.864,59.683,-4.871,0.013,-0.017,1.003,0.000,0.000,0.000,0.3160,0,7,-1.57,0.02,-0.07,0.0820,0.0207,0.3183,0.0451,-0.0626,0.3000,0.2619,1.09,1.22,-68.49,1.0600,0.1430,1.0080,0.0000,2.3830,527,0.0000,0.0000,0.0000,0.0000,0.0000,0
18822,0.1269,-0.0622,0.3161,-0.0985,0.0245,-0.0022,0.17,-2.17,2.07,0,3.315,1.123,-45.709,-4.807,0.013,-0.015,1.008,0.000,0.000,0.000,0.3130,0,-2,-1.42,-2.87,-0.53,0.0652,0.0211,0.3182,0.0451,-0.0626,0.3000,0.2618,0.98,1.20,-62.04,1.0980,0.0000,1.0080,0.0000,2.3810,527,0.0000,0.0000,0.0000,0.0000,0.0000,0
18873,0.1207,-0.0622,0.3148,-0.0846,0.0202,-0.0054,0.15,-0.97,1.81,0,3.310,2.141,-31.533,-3.754,-0.000,-0.017,0.998,0.000,0.000,0.000,0.3140,0,-2,-1.35,-0.58,-0.68,0.0694,0.0216,0.3174,0.0451,-0.0626,0.3000,0.2624,0.77,1.42,-54.24,1.0980,0.0000,0.9990,0.0000,2.3810,527,0.0000,0.0000,0.0000,0.0000,0.0000,0
18924,0.1184,-0.0613,0.3143,-0.0753,0.0184,-0.0061,0.31,0.74,1.61,0,3.315,-0.235,66.159,-3.944,-0.001,-0.015,1.006,0.000,0.000,0.000,0.3180,-1,9,-1.23,0.98,-0.81,0.0743,0.0220,0.3169,0.0451,-0.0626,0.3000,0.2626,0.75,1.69,-48.16,1.0850,0.1540,0.9990,0.0000,2.3840,527,0.0000,0.0000,0.0000,0.0000,0.0000,0
18975,0.1180,-0.0613,0.3157,-0.0692,0.0135,0.0031,0.37,-1.78,1.43,0,3.310,-0.963,42.183,-5.520,0.014,-0.013,1.005,0.000,0.000,0.000,0.3130,0,3,-1.25,-2.24,-1.17,0.0500,0.0253,0.3183,0.0451,-0.0626,0.3000,0.2613,0.52,1.96,-43.02,1.0850,0.1540,1.0060,0.0000,2.3840,527,0.0000,0.0000,0.0000,0.0000,0.0000,0
19026,0.1119,-0.0596,0.3146,-0.0566,0.0138,-0.0022,0.33,-4.15,1.18,0,3.315,-1.273,-60.631,-3.823,0.012,-0.017,1.005,0.000,0.000,0.000,0.3140,0,-8,-1.31,-4.36,-1.52,0.0412,0.0256,0.3173,0.0451,-0.0626,0.3000,0.2621,0.66,2.12,-35.34,1.1200,0.0000,1.0060,0.0000,2.3920,527,0.0000,0.0000,0.0000,0.0000,0.0000,0
19077,0.1081,-0.0599,0.3143,-0.0286,0.0094,-0.0024,0.21,-1.83,0.95,0,3.310,2.263,-36.802,-1.930,-0.009,-0.011,0.999,0.000,0.000,0.000,0.3130,-1,-1,-1.36,-1.42,-1.55,0.0639,0.0254,0.3174,0.0451,-0.0626,0.3000,0.2622,0.42,3.17,-28.63,1.1200,0.0000,1.0070,0.0000,2.3920,527,0.0000,0.0000,0.0000,0.0000,0.0000,0
19129,0.1125,-0.0599,0.3137,-0.0030,0.0063,-0.0037,0.31,0.32,0.84,0,3.315,1.885,53.598,-1.788,-0.006,-0.012,1.001,0.000,0.000,0.000,0.3130,0,1,-1.25,0.45,-1.61,0.0672,0.0284,0.3165,0.0451,-0.0626,0.3000,0.2624,0.28,4.68,-25.28,1.0940,0.0000,1.0070,0.0000,2.3850,527,0.0000,0.0000,0.0000,0.0000,0.0000,0
19181,0.1129,-0.0603,0.3133,-0.0019,0.0016,-0.0057,0.41,-1.67,0.77,0,3.310,-6.700,27.395,-1.910,0.006,-0.013,1.003,0.000,0.000,0.000,0.3080,0,3,-1.14,-2.30,-1.75,0.0641,0.0285,0.3160,0.0451,-0.0626,0.3000,0.2627,0.02,4.76,-23.03,1.0940,0.0000,1.0030,0.0000,2.3850,527,0.0000,0.0000,0.0000,0.0000,0.0000,0
19231,0.1144,-0.0597,0.3109,0.0194,0.0001,-0.0156,0.21,-3.46,0.66,0,3.310,-0.516,-16.809,-2.351,0.002,-0.013,1.006,0.000,0.000,0.000,0.3100,0,0,-1.48,-3.65,-1.88,0.0548,0.0287,0.3145,0.0451,-0.0626,0.3000,0.2643,-0.00,5.82,-19.93,1.1120,0.1630,1.0030,0.0000,2.3960,527,0.0000,0.0000,0.0000,0.0000,0.0000,0
19282,0.1151,-0.0617,0.3100,0.0463,-0.0066,-0.0146,0.21,-3.01,0.55,0,3.304,-2.204,-0.018,-1.331,-0.003,-0.011,1.008,0.000,0.000,0.000,0.3120,0,0,-1.51,-2.81,-1.97,0.0566,0.0308,0.3133,0.0451,-0.0626,0.3000,0.2643,-0.46,7.12,-16.59,1.1120,0.1630,1.0140,0.0000,2.3960,527,0.0000,0.0000,0.0000,0.0000,0.0000,0
19333,0.1201,-0.0623,0.3105,0.0765,-0.0087,-0.0053,0.20,-2.76,0.49,0,3.310,-2.317,-0.737,-1.744,-0.000,-0.009,1.010,0.000,0.000,0.000,0.3160,0,-5,-1.63,-2.81,-2.04,0.0597,0.0332,0.3131,0.0451,-0.0626,0.3000,0.2632,-0.60,8.88,-14.74,1.1010,0.0000,1.0140,0.0000,2.3990,527,0.0000,0.0000,0.0000,0.0000,0.0000,0
19384,0.1242,-0.0645,0.3127,0.1000,-0.0142,0.0105,0.04,-2.86,0.41,0,3.315,-2.913,-13.805,-0.303,-0.001,-0.008,1.009,0.000,0.000,0.000,0.3100,3,-2,-1.66,-2.79,-1.87,0.0675,0.0238,0.3146,0.0451,-0.0626,0.3000,0.2611,-1.03,10.32,-12.34,1.1010,0.0000,1.0160,0.0000,2.3990,527,0.0000,0.0000,0.0000,0.0000,0.0000,0
19436,0.1332,-0.0640,0.3118,0.1324,-0.0110,0.0050,-0.06,-2.28,0.38,0,3.315,-4.402,-17.658,0.560,-0.004,-0.014,0.999,0.000,0.000,0.000,0.3110,1,-4,-1.77,-2.09,-1.72,0.0732,0.0195,0.3139,0.0451,-0.0626,0.3000,0.2618,-0.83,12.38,-11.35,1.0880,0.0000,1.0160,0.0000,2.3880,527,0.0000,0.0000,0.0000,0.0000,0.0000,0
19486,0.1407,-0.0681,0.3117,0.1517,-0.0196,0.0038,-0.16,-1.36,0.39,0,3.310,-5.835,-17.441,1.505,-0.002,-0.011,1.003,0.000,0.000,0.000,0.3100,0,-2,-1.98,-1.20,-1.58,0.0829,0.0178,0.3133,0.0451,-0.0626,0.3000,0.2620,-1.53,13.74,-11.80,1.0880,0.0000,1.0300,0.0000,2.3880,527,0.0000,0.0000,0.0000,0.0000,0.0000,0
19537,0.1470,-0.0698,0.3111,0.1580,-0.0198,0.0005,-0.42,-0.51,0.45,0,3.310,-4.134,-14.782,1.144,-0.005,-0.013,1.004,0.000,0.000,0.000,0.3130,1,-1,-2.26,-0.32,-1.47,0.0898,0.0179,0.3128,0.0451,-0.0626,0.3000,0.2625,-1.66,14.42,-13.52,1.0710,0.1520,1.0300,0.0000,2.3930,527,0.0000,0.0000,0.0000,0.0000,0.0000,0
19588,0.1539,-0.0691,0.3119,0.1584,-0.0116,0.0054,-0.60,0.19,0.56,0,3.310,0.303,-9.805,2.018,-0.004,-0.010,1.006,0.000,0.000,0.000,0.3110,0,-5,-2.45,0.46,-1.35,0.0943,0.0161,0.3135,0.0451,-0.0626,0.3000,0.2618,-1.23,14.93,-16.69,1.0710,0.1520,1.0360,0.0000,2.3930,527,0.0000,0.0000,0.0000,0.0000,0.0000,0
19640,0.1630,-0.0719,0.3117,0.1586,-0.0122,0.0044,-0.64,0.77,0.65,0,3.315,-2.765,-56.261,1.223,0.001,-0.011,1.007,0.000,0.000,0.000,0.3080,0,-1,-2.43,0.90,-1.15,0.1076,0.0164,0.3131,0.0451,-0.0626,0.3000,0.2619,-1.45,15.53,-19.36,1.0400,0.0000,1.0360,0.0000,2.3850,527,0.0000,0.0000,0.0000,0.0000,0.0000,0
19691,0.1741,-0.0727,0.3103,0.1571,-0.0074,-0.0015,-0.71,3.14,0.73,0,3.304,-1.457,-62.105,1.507,-0.004,-0.014,1.000,0.000,0.000,0.000,0.3060,0,-8,-2.57,3.85,-0.98,0.1113,0.0165,0.3122,0.0451,-0.0626,0.3000,0.2628,-1.27,16.14,-21.76,1.0400,0.0000,1.0490,1.3100,2.3850,527,0.0000,0.0000,0.0000,0.0000,0.0000,0
19743,0.1724,-0.0721,0.3086,0.1137,-0.0007,-0.0105,-0.80,6.46,0.81,0,3.304,0.285,18.631,0.032,-0.015,-0.012,1.003,0.000,0.000,0.000,0.3120,1,2,-2.67,6.90,-0.59,0.1325,0.0172,0.3115,0.0451,-0.0626,0.3000,0.2641,-0.92,14.06,-24.34,1.0060,0.1720,1.0490,1.3100,2.4010,527,0.0000,0.0000,0.0000,0.0000,0.0000,0
19795,0.1839,-0.0729,0.3097,0.0766,0.0032,-0.0039,-0.67,6.11,0.81,0,3.304,1.068,61.106,-2.184,0.002,-0.015,1.006,0.000,0.000,0.000,0.3080,1,2,-2.59,6.00,-0.86,0.1283,0.0140,0.3117,0.0451,-0.0626,0.3000,0.2632,-0.79,13.23,-24.34,1.0060,0.1720,1.0600,1.3090,2.4010,527,0.0000,0.0000,0.0000,0.0000,0.0000,0
19845,0.1851,-0.0732,0.3088,0.0218,0.0070,-0.0085,-0.61,3.19,0.67,0,3.304,4.402,13.638,-1.794,0.007,-0.016,1.006,0.000,0.000,0.000,0.3040,0,0,-2.46,2.88,-1.36,0.1233,0.0105,0.3108,0.0451,-0.0626,0.3000,0.2639,-0.64,10.83,-20.24,1.0200,0.0000,1.0600,1.3090,2.3930,527,0.0000,0.0000,0.0000,0.0000,0.0000,0
19897,0.1840,-0.0745,0.3066,-0.0101,0.0079,-0.0164,-0.50,2.16,0.57,0,3.299,1.115,14.364,-0.874,0.001,-0.017,1.006,0.000,0.000,0.000,0.3040,0,3,-2.23,2.20,-1.47,0.1214,0.0127,0.3089,0.0451,-0.0626,0.3000,0.2651,-0.67,9.26,-17.17,1.0200,0.0000,1.0620,0.0000,2.3930,527,0.0000,0.0000,0.0000,0.0000,0.0000,0
19948,0.1794,-0.0740,0.3049,-0.0404,0.0123,-0.0168,-0.40,1.52,0.52,0,3.304,0.762,27.694,-1.754,0.008,-0.016,1.013,0.000,0.000,0.000,0.3030,0,1,-2.11,1.49,-1.84,0.1146,0.0068,0.3076,0.0451,-0.0626,0.3000,0.2655,-0.44,7.55,-15.60,1.0330,0.0000,1.0620,0.0000,2.3930,527,0.0000,0.0000,0.0000,0.0000,0.0000,0
19999,0.1730,-0.0739,0.3037,-0.0618,0.0140,-0.0157,-0.38,0.16,0.44,0,3.299,3.261,21.848,-2.649,0.006,-0.015,1.017,0.000,0.000,0.000,0.3050,0,5,-2.06,0.07,-2.01,0.1114,0.0072,0.3065,0.0451,-0.0626,0.3000,0.2656,-0.35,6.13,-13.21,1.0330,0.0000,1.0600,1.3030,2.3930,527,0.0000,0.0000,0.0000,0.0000,0.0000,0
20050,0.1681,-0.0728,0.3039,-0.0680,0.0181,-0.0045,-0.26,-0.88,0.29,0,3.310,3.862,16.063,-2.920,0.004,-0.013,1.014,0.000,0.000,0.000,0.3060,0,1,-1.89,-0.98,-2.31,0.0992,0.0076,0.3065,0.0451,-0.0626,0.3000,0.2644,-0.08,5.53,-8.77,1.0450,0.0000,1.0600,1.3030,2.3940,527,0.0000,0.0000,0.0000,0.0000,0.0000,0
20101,0.1589,-0.0718,0.3048,-0.0758,0.0207,0.0075,-0.16,-1.53,0.15,0,3.304,2.367,16.120,-2.730,-0.002,-0.015,1.010,0.000,0.000,0.000,0.3060,1,4,-1.68,-1.80,-2.50,0.0958,0.0082,0.3073,0.0451,-0.0626,0.3000,0.2629,0.11,4.55,-4.42,1.0450,0.0000,1.0640,0.0000,2.3940,527,0.0000,0.0000,0.0000,0.0000,0.0000,0
20153,0.1590,-0.0712,0.3056,-0.0534,0.0209,0.0155,0.00,-2.34,0.02,0,3.310,1.007,7.896,-2.468,0.004,-0.015,1.001,0.000,0.000,0.000,0.3080,-1,0,-1.54,-2.57,-2.76,0.0851,0.0061,0.3081,0.0451,-0.0626,0.3000,0.2619,0.16,5.63,-0.61,1.0540,0.1440,1.0640,0.0000,2.3950,527,0.0000,0.0000,0.0000,0.0000,0.0000,0
20204,0.1519,-0.0714,0.3071,-0.0452,0.0181,0.0219,0.11,-2.84,-0.12,0,3.304,-0.756,-1.488,-1.808,0.006,-0.016,1.003,0.000,0.000,0.000,0.3120,-1,0,-1.51,-3.01,-2.87,0.0847,0.0091,0.3091,0.0451,-0.0626,0.3000,0.2609,0.02,5.53,3.62,1.0540,0.1440,1.0550,0.0000,2.3950,527,0.0000,0.0000,0.0000,0.0000,0.0000,0
20256,0.1514,-0.0698,0.3101,-0.0123,0.0185,0.0303,0.06,-2.91,-0.24,0,3.315,3.870,1.569,-1.843,0.001,-0.016,0.993,0.000,0.000,0.000,0.3060,-2,-2,-1.55,-2.94,-2.96,0.0846,0.0123,0.3111,0.0451,-0.0626,0.3000,0.2594,0.15,7.09,7.20,1.0530,0.1510,1.0550,0.0000,2.3930,527,0.0000,0.0000,0.0000,0.0000,0.0000,0
20308,0.1513,-0.0690,0.3091,0.0074,0.0179,0.0158,0.13,-3.00,-0.33,0,3.310,0.625,-5.883,-0.267,0.001,-0.014,0.995,0.000,0.000,0.000,0.3120,-1,0,-1.38,-3.06,-3.07,0.0907,0.0178,0.3101,0.0451,-0.0626,0.3000,0.2612,0.17,7.95,9.89,1.0530,0.1510,1.0690,1.2870,2.3930,527,0.0000,0.0000,0.0000,0.0000,0.0000,0
20358,0.1565,-0.0674,0.3107,0.0426,0.0183,0.0169,0.18,-2.78,-0.33,0,3.315,0.644,-13.358,0.466,0.003,-0.015,0.993,0.000,0.000,0.000,0.3090,0,-2,-1.34,-2.74,-3.07,0.0910,0.0208,0.3114,0.0451,-0.0626,0.3000,0.2608,0.31,9.95,9.91,1.0530,0.1490,1.0690,1.2870,2.3910,527,0.0000,0.0000,0.0000,0.0000,0.0000,0
20410,0.1596,-0.0670,0.3104,0.0671,0.0155,0.0078,0.19,-2.16,-0.33,0,3.304,0.996,-14.431,-0.419,-0.002,-0.014,0.991,0.000,0.000,0.000,0.3060,0,-2,-1.29,-2.09,-2.97,0.0969,0.0211,0.3111,0.0451,-0.0626,0.3000,0.2618,0.21,11.25,9.75,1.0530,0.1490,1.0760,1.2800,2.3910,527,0.0000,0.0000,0.0000,0.0000,0.0000,0
20461,0.1649,-0.0664,0.3087,0.0887,0.0135,-0.0072,0.24,-1.47,-0.33,0,3.304,4.287,-14.763,-1.515,0.000,-0.017,0.995,0.000,0.000,0.000,0.3070,0,-4,-1.21,-1.34,-2.91,0.1027,0.0210,0.3096,0.0451,-0.0626,0.3000,0.2637,0.15,12.50,10.00,1.0370,0.0000,1.0760,1.2800,2.3960,527,0.0000,0.0000,0.0000,0.0000,0.0000,0
20513,0.1701,-0.0653,0.3077,0.1021,0.0126,-0.0130,0.27,-0.78,-0.38,0,3.294,-3.936,-15.624,-2.168,0.001,-0.013,1.003,0.000,0.000,0.000,0.3030,0,-2,-0.98,-0.63,-2.92,0.1147,0.0206,0.3083,0.0451,-0.0626,0.3000,0.2645,0.19,13.40,11.52,1.0370,0.0000,1.0940,1.2610,2.3960,527,0.0000,0.0000,0.0000,0.0000,0.0000,0
20563,0.1752,-0.0655,0.3054,0.1081,0.0087,-0.0226,0.21,0.01,-0.47,0,3.299,4.491,-12.453,-2.642,0.002,-0.013,1.003,0.000,0.000,0.000,0.3050,0,-8,-1.17,0.19,-2.98,0.1202,0.0203,0.3064,0.0451,-0.0626,0.3000,0.2660,-0.01,13.93,14.14,1.0210,0.0000,1.0940,1.2610,2.3940,527,0.0000,0.0000,0.0000,0.0000,0.0000,0
20614,0.1833,-0.0662,0.3046,0.1138,0.0044,-0.0201,0.42,0.57,-0.56,0,3.299,-3.272,-13.203,-1.945,-0.002,-0.016,1.012,0.000,0.000,0.000,0.3080,0,-3,-0.93,0.71,-3.08,0.1441,0.0191,0.3049,0.0451,-0.0626,0.3000,0.2659,-0.26,14.72,16.94,1.0210,0.0000,1.1250,1.2330,2.3940,527,0.0000,0.0000,0.0000,0.0000,0.0000,0
20665,0.1950,-0.0669,0.3054,0.1219,-0.0010,-0.0074,0.44,1.20,-0.66,0,3.304,-5.416,-29.272,-1.616,0.003,-0.013,1.016,0.000,0.000,0.000,0.3060,1,-9,-1.08,1.39,-3.16,0.1534,0.0187,0.3057,0.0451,-0.0626,0.3000,0.2644,-0.56,15.92,19.67,1.0110,0.1560,1.1250,1.2330,2.3950,527,0.0000,0.0000,0.0000,0.0000,0.0000,0
20716,0.2020,-0.0692,0.3055,0.1132,-0.0096,0.0001,0.34,2.58,-0.75,0,3.294,1.734,-74.809,-0.644,-0.002,-0.014,1.007,0.000,0.000,0.000,0.3060,0,-7,-1.33,2.77,-3.23,0.1807,0.0140,0.3054,0.0451,-0.0626,0.3000,0.2636,-1.13,16.05,22.41,1.0110,0.1560,1.1700,1.2370,2.3950,527,0.0000,0.0000,0.0000,0.0000,0.0000,0
20768,0.2038,-0.0702,0.3058,0.0815,-0.0133,0.0055,0.39,6.11,-0.82,0,3.310,-3.597,-31.358,0.124,-0.002,-0.019,1.001,0.000,0.000,0.000,0.3180,1,-2,-1.24,6.53,-3.20,0.2024,0.0126,0.3057,0.0451,-0.0626,0.3000,0.2629,-1.38,14.82,24.69,0.0000,0.0000,1.1700,1.2370,2.4000,527,0.0000,0.0000,0.0000,0.0000,0.0000,0
20820,0.2084,-0.0722,0.3111,0.0339,-0.0186,0.0302,0.17,7.87,-0.83,0,3.310,-4.103,5.170,-1.340,0.003,-0.018,0.997,0.000,0.000,0.000,0.3190,1,0,-1.40,8.18,-3.22,0.2092,0.0090,0.3098,0.0451,-0.0626,0.3000,0.2592,-1.80,13.19,24.99,0.0000,0.0000,1.1950,1.2290,2.4000,527,0.0000,0.0000,0.0000,0.0000,0.0000,0
20870,0.2084,-0.0743,0.3152,-0.0327,-0.0217,0.0397,0.01,7.68,-0.88,0,3.320,-5.048,1.617,0.022,0.003,-0.011,0.985,0.000,0.000,0.000,0.3160,0,3,-1.57,7.94,-3.39,0.2094,0.0056,0.3129,0.0451,-0.0626,0.3000,0.2574,-2.11,10.22,26.33,0.9590,0.1670,1.1950,1.2290,2.4070,527,0.0000,0.0000,0.0000,0.0000,0.0000,0
