time_ms,pos_x,pos_y,pos_z,vel_x,vel_y,vel_z,roll,pitch,yaw,thrust,vbat,gyro_x,gyro_y,gyro_z,acc_x,acc_y,acc_z,rate_roll,rate_pitch,rate_yaw,range_z,flow_dx,flow_dy
0,-1.0669,-1.4165,0.0093,0.0018,-0.0048,0.0105,-2.43,0.46,-11.01,0,4.086,-0.134,0.032,0.108,0.007,-0.042,0.000,0.000,0.000,0.000,0.0060,4,3
50,-1.0672,-1.4158,0.0082,0.0007,-0.0018,0.0035,-2.39,0.46,-10.96,0,4.080,-0.216,-0.119,0.123,0.008,-0.046,0.000,0.000,0.000,0.000,0.0070,1,-2
102,-1.0674,-1.4158,0.0078,-0.0002,-0.0020,0.0012,-2.42,0.42,-10.91,0,4.086,0.188,0.170,-0.144,0.010,-0.044,0.000,0.000,0.000,0.000,0.0060,-2,-3
153,-1.0680,-1.4164,0.0071,-0.0039,-0.0058,-0.0009,-2.42,0.43,-10.86,0,4.080,-0.031,0.021,0.114,0.010,-0.045,0.000,0.000,0.000,0.000,0.0080,-2,4
204,-1.0671,-1.4163,0.0075,0.0011,-0.0051,0.0029,-2.43,0.46,-10.80,0,4.086,-0.092,-0.021,-0.122,0.010,-0.046,0.000,0.000,0.000,0.000,0.0090,3,0
255,-1.0672,-1.4158,0.0084,0.0010,-0.0030,0.0074,-2.39,0.42,-10.76,0,4.086,0.201,-0.009,-0.164,0.007,-0.045,0.000,0.000,0.000,0.000,0.0060,1,0
306,-1.0679,-1.4161,0.0076,-0.0027,-0.0047,0.0027,-2.40,0.45,-10.70,0,4.086,-0.196,-0.090,0.328,0.009,-0.044,0.000,0.000,0.000,0.000,0.0070,-1,4
357,-1.0672,-1.4159,0.0074,0.0012,-0.0030,0.0025,-2.39,0.42,-10.64,0,4.080,0.240,-0.079,-0.252,0.009,-0.043,0.000,0.000,0.000,0.000,0.0090,2,-2
408,-1.0676,-1.4157,0.0084,-0.0014,-0.0015,0.0076,-2.41,0.42,-10.59,0,4.086,-0.027,-0.158,-0.160,0.008,-0.044,0.000,0.000,0.000,0.000,0.0090,2,-5
459,-1.0678,-1.4159,0.0090,-0.0028,-0.0018,0.0104,-2.40,0.41,-10.53,0,4.080,-0.107,-0.005,0.258,0.008,-0.047,0.000,0.000,0.000,0.000,0.0090,0,-1
510,-1.0672,-1.4158,0.0094,0.0013,-0.0022,0.0111,-2.43,0.41,-10.48,0,4.086,0.049,-0.271,-0.012,0.007,-0.045,0.000,0.000,0.000,0.000,0.0090,0,0
561,-1.0673,-1.4164,0.0097,0.0008,-0.0052,0.0113,-2.39,0.42,-10.43,0,4.080,0.138,0.014,-0.112,0.005,-0.045,0.000,0.000,0.000,0.000,0.0070,3,-1
612,-1.0674,-1.4158,0.0089,-0.0001,-0.0021,0.0055,-2.39,0.43,-10.38,0,4.086,0.163,-0.013,-0.147,0.009,-0.046,0.000,0.000,0.000,0.000,0.0090,4,-3
663,-1.0678,-1.4157,0.0092,-0.0020,-0.0019,0.0065,-2.38,0.43,-10.32,0,4.080,0.218,0.104,-0.032,0.009,-0.045,0.000,0.000,0.000,0.000,0.0030,-3,6
714,-1.0673,-1.4167,0.0065,0.0013,-0.0076,-0.0065,-2.41,0.44,-10.27,0,4.086,0.328,0.035,-0.380,0.008,-0.046,0.000,0.000,0.000,0.000,0.0080,1,2
764,-1.0671,-1.4166,0.0070,0.0018,-0.0064,-0.0013,-2.39,0.45,-10.22,0,4.080,-0.177,-0.062,0.134,0.008,-0.043,0.000,0.000,0.000,0.000,0.0050,-3,5
816,-1.0669,-1.4167,0.0060,0.0023,-0.0065,-0.0044,-2.43,0.47,-10.17,0,4.086,-0.117,0.144,0.083,0.010,-0.045,0.000,0.000,0.000,0.000,0.0090,0,0
867,-1.0679,-1.4163,0.0073,-0.0033,-0.0048,0.0038,-2.40,0.47,-10.12,0,4.086,-0.007,0.268,-0.140,0.006,-0.046,0.000,0.000,0.000,0.000,0.0060,-5,3
917,-1.0665,-1.4173,0.0068,0.0045,-0.0103,0.0014,-2.43,0.43,-10.08,0,4.086,-0.047,-0.062,0.248,0.008,-0.045,0.000,0.000,0.000,0.000,0.0070,2,-3
969,-1.0679,-1.4163,0.0070,-0.0040,-0.0047,0.0034,-2.39,0.44,-10.03,0,4.080,0.017,0.035,0.070,0.009,-0.046,0.000,0.000,0.000,0.000,0.0070,0,0
1020,-1.0670,-1.4160,0.0072,0.0016,-0.0026,0.0046,-2.43,0.43,-9.99,0,4.086,-0.133,-0.181,0.069,0.008,-0.045,0.000,0.000,0.000,0.000,0.0060,3,1
1071,-1.0667,-1.4161,0.0069,0.0026,-0.0030,0.0030,-2.40,0.43,-9.94,0,4.080,-0.113,0.017,0.254,0.008,-0.045,0.000,0.000,0.000,0.000,0.0070,0,0
1122,-1.0672,-1.4160,0.0071,0.0003,-0.0024,0.0048,-2.43,0.44,-9.89,0,4.086,-0.313,0.029,0.090,0.009,-0.043,0.000,0.000,0.000,0.000,0.0060,4,-5
1172,-1.0674,-1.4159,0.0068,-0.0015,-0.0015,0.0033,-2.39,0.40,-9.84,0,4.080,-0.219,-0.067,0.054,0.009,-0.043,0.000,0.000,0.000,0.000,0.0070,1,-7
1224,-1.0679,-1.4163,0.0071,-0.0037,-0.0035,0.0052,-2.40,0.41,-9.80,0,4.086,-0.189,-0.003,0.011,0.007,-0.045,0.000,0.000,0.000,0.000,0.0050,3,0
1275,-1.0672,-1.4160,0.0064,0.0001,-0.0018,0.0019,-2.41,0.44,-9.74,0,4.080,-0.147,-0.152,-0.086,0.008,-0.046,0.000,0.000,0.000,0.000,0.0060,-2,-1
1325,-1.0679,-1.4163,0.0063,-0.0042,-0.0033,0.0022,-2.44,0.47,-9.69,0,4.086,-0.168,0.087,0.331,0.009,-0.044,0.000,0.000,0.000,0.000,0.0050,0,0
1377,-1.0672,-1.4160,0.0058,-0.0001,-0.0021,0.0004,-2.43,0.44,-9.65,0,4.080,0.300,-0.248,-0.006,0.008,-0.044,0.000,0.000,0.000,0.000,0.0060,-3,0
1427,-1.0675,-1.4167,0.0060,-0.0014,-0.0054,0.0014,-2.43,0.45,-9.60,0,4.086,-0.317,-0.252,-0.211,0.006,-0.044,0.000,0.000,0.000,0.000,0.0070,-1,7
1479,-1.0665,-1.4170,0.0065,0.0040,-0.0075,0.0047,-2.40,0.47,-9.55,0,4.080,-0.237,-0.148,0.112,0.008,-0.046,0.000,0.000,0.000,0.000,0.0050,-3,0
1530,-1.0679,-1.4165,0.0060,-0.0040,-0.0047,0.0015,-2.43,0.46,-9.50,0,4.086,0.062,-0.040,-0.109,0.008,-0.042,0.000,0.000,0.000,0.000,0.0060,0,0
1581,-1.0680,-1.4166,0.0061,-0.0040,-0.0048,0.0027,-2.39,0.46,-9.46,0,4.080,-0.209,-0.074,0.024,0.009,-0.044,0.000,0.000,0.000,0.000,0.0070,5,0
1632,-1.0662,-1.4172,0.0067,0.0065,-0.0079,0.0061,-2.34,0.38,-9.42,0,4.086,-0.149,-0.087,0.076,0.008,-0.043,0.000,0.000,0.000,0.000,0.0050,-4,-1
1683,-1.0674,-1.4160,0.0062,-0.0007,-0.0012,0.0036,-2.43,0.42,-9.38,0,4.080,0.179,0.140,-0.367,0.010,-0.046,0.000,0.000,0.000,0.000,0.0090,2,4
1734,-1.0670,-1.4162,0.0077,0.0020,-0.0029,0.0108,-2.39,0.45,-9.33,0,4.086,-0.016,-0.085,-0.579,0.008,-0.045,0.000,0.000,0.000,0.000,0.0070,-1,0
1785,-1.0671,-1.4166,0.0079,0.0017,-0.0055,0.0103,-2.41,0.42,-9.29,0,4.086,-0.048,0.049,-0.153,0.008,-0.044,0.000,0.000,0.000,0.000,0.0080,-1,3
1836,-1.0665,-1.4169,0.0084,0.0052,-0.0067,0.0116,-2.40,0.42,-9.25,0,4.086,-0.055,0.059,-0.118,0.009,-0.044,0.000,0.000,0.000,0.000,0.0110,0,0
1886,-1.0662,-1.4166,0.0101,0.0064,-0.0049,0.0182,-2.40,0.39,-9.21,0,4.080,-0.331,0.055,-0.052,0.009,-0.043,0.000,0.000,0.000,0.000,0.0090,-2,1
1938,-1.0670,-1.4163,0.0103,0.0020,-0.0036,0.0161,-2.43,0.44,-9.16,0,4.086,-0.090,-0.128,-0.021,0.007,-0.046,0.000,0.000,0.000,0.000,0.0080,-1,3
1989,-1.0665,-1.4171,0.0099,0.0046,-0.0082,0.0121,-2.39,0.44,-9.11,0,4.080,-0.021,-0.132,-0.013,0.006,-0.044,0.000,0.000,0.000,0.000,0.0070,-3,2
2040,-1.0664,-1.4172,0.0090,0.0038,-0.0084,0.0062,-2.41,0.43,-9.07,0,4.086,-0.037,-0.231,-0.112,0.008,-0.043,0.000,0.000,0.000,0.000,0.0080,0,0
2090,-1.0671,-1.4168,0.0088,0.0000,-0.0065,0.0048,-2.39,0.44,-9.02,0,4.075,0.002,0.091,0.119,0.010,-0.045,0.000,0.000,0.000,0.000,0.0100,-3,4
2142,-1.0671,-1.4165,0.0096,0.0007,-0.0053,0.0088,-2.43,0.48,-8.97,0,4.086,0.302,0.028,-0.320,0.008,-0.044,0.000,0.000,0.000,0.000,0.0090,0,0
2193,-1.0671,-1.4165,0.0097,0.0006,-0.0051,0.0083,-2.40,0.44,-8.93,0,4.080,0.010,-0.042,-0.005,0.008,-0.043,0.000,0.000,0.000,0.000,0.0080,0,0
2244,-1.0673,-1.4163,0.0092,-0.0004,-0.0039,0.0046,-2.41,0.45,-8.88,0,4.086,-0.033,0.183,0.309,0.011,-0.045,0.000,0.000,0.000,0.000,0.0040,1,0
2295,-1.0673,-1.4168,0.0070,-0.0006,-0.0070,-0.0055,-2.38,0.45,-8.84,0,4.080,0.203,-0.088,-0.148,0.008,-0.045,0.000,0.000,0.000,0.000,0.0090,0,0
2346,-1.0674,-1.4158,0.0078,-0.0008,-0.0016,0.0006,-2.42,0.45,-8.79,0,4.086,-0.047,-0.057,0.108,0.007,-0.046,0.000,0.000,0.000,0.000,0.0090,-3,-3
2397,-1.0681,-1.4165,0.0084,-0.0042,-0.0056,0.0043,-2.42,0.43,-8.75,0,4.080,0.004,0.392,-0.002,0.007,-0.041,0.000,0.000,0.000,0.000,0.0080,3,-3
2448,-1.0679,-1.4157,0.0084,-0.0031,-0.0017,0.0052,-2.39,0.43,-8.71,0,4.086,0.098,0.086,-0.117,0.010,-0.044,0.000,0.000,0.000,0.000,0.0070,-4,3
2499,-1.0665,-1.4169,0.0081,0.0049,-0.0070,0.0036,-2.42,0.43,-8.67,0,4.080,0.305,-0.157,0.248,0.009,-0.043,0.000,0.000,0.000,0.000,0.0060,-3,0
2550,-1.0673,-1.4166,0.0073,0.0004,-0.0054,0.0007,-2.41,0.43,-8.63,0,4.086,0.142,-0.109,0.093,0.008,-0.045,0.000,0.000,0.000,0.000,0.0100,-2,0
2601,-1.0681,-1.4165,0.0087,-0.0037,-0.0052,0.0072,-2.40,0.44,-8.59,0,4.080,0.111,-0.084,-0.149,0.007,-0.045,0.000,0.000,0.000,0.000,0.0080,1,0
2652,-1.0679,-1.4157,0.0087,-0.0030,-0.0013,0.0067,-2.40,0.47,-8.54,0,4.086,0.106,0.303,-0.017,0.008,-0.043,0.000,0.000,0.000,0.000,0.0080,5,-4
2703,-1.0672,-1.4158,0.0087,0.0008,-0.0019,0.0068,-2.36,0.40,-8.51,0,4.080,-0.022,0.130,-0.121,0.008,-0.045,0.000,0.000,0.000,0.000,0.0070,0,0
2754,-1.0673,-1.4165,0.0082,0.0004,-0.0057,0.0044,-2.38,0.43,-8.46,0,4.086,0.150,0.257,-0.009,0.011,-0.047,0.000,0.000,0.000,0.000,0.0090,-2,8
2805,-1.0663,-1.4169,0.0088,0.0063,-0.0079,0.0073,-2.40,0.47,-8.41,0,4.080,-0.099,-0.143,-0.086,0.008,-0.045,0.000,0.000,0.000,0.000,0.0070,0,-5
2856,-1.0680,-1.4164,0.0083,-0.0031,-0.0057,0.0048,-2.38,0.42,-8.38,0,4.086,-0.185,0.048,0.196,0.009,-0.044,0.000,0.000,0.000,0.000,0.0080,0,4
2907,-1.0671,-1.4164,0.0084,0.0024,-0.0052,0.0055,-2.39,0.47,-8.33,0,4.080,-0.019,-0.186,-0.162,0.008,-0.046,0.000,0.000,0.000,0.000,0.0070,0,1
2958,-1.0669,-1.4167,0.0080,0.0035,-0.0070,0.0039,-2.38,0.43,-8.29,0,4.086,-0.106,-0.236,0.320,0.008,-0.044,0.000,0.000,0.000,0.000,0.0080,1,3
3008,-1.0673,-1.4163,0.0082,0.0011,-0.0047,0.0050,-2.39,0.47,-8.24,0,4.086,-0.022,0.038,-0.264,0.006,-0.045,0.000,0.000,0.000,0.000,0.0060,0,4
3060,-1.0671,-1.4163,0.0074,0.0026,-0.0051,0.0006,-2.39,0.45,-8.21,0,4.086,0.151,0.030,-0.424,0.008,-0.045,0.000,0.000,0.000,0.000,0.0070,-1,7
3111,-1.0671,-1.4166,0.0073,0.0020,-0.0056,0.0010,-2.40,0.48,-8.17,0,4.080,0.079,-0.215,-0.085,0.008,-0.042,0.000,0.000,0.000,0.000,0.0080,-5,4
3162,-1.0663,-1.4171,0.0077,0.0062,-0.0079,0.0040,-2.42,0.45,-8.13,0,4.086,0.057,-0.023,-0.147,0.008,-0.047,0.000,0.000,0.000,0.000,0.0090,3,-2
3212,-1.0677,-1.4158,0.0086,-0.0015,-0.0008,0.0082,-2.39,0.46,-8.09,0,4.080,0.012,-0.050,-0.237,0.010,-0.045,0.000,0.000,0.000,0.000,0.0100,-3,3
3264,-1.0671,-1.4164,0.0096,0.0017,-0.0051,0.0127,-2.42,0.48,-8.05,0,4.086,-0.399,-0.033,-0.176,0.009,-0.044,0.000,0.000,0.000,0.000,0.0070,-1,3
3315,-1.0666,-1.4167,0.0089,0.0049,-0.0069,0.0079,-2.39,0.46,-8.03,0,3.711,0.525,-0.206,-0.276,0.006,-0.051,0.000,0.000,0.000,0.000,0.0080,-2,0
3366,-1.0680,-1.4161,0.0089,-0.0040,0.0158,0.0063,-2.41,0.51,-8.01,0,3.795,2.957,1.504,-0.095,-0.006,-0.047,0.000,0.000,0.000,0.000,0.0100,0,0
3417,-1.0676,-1.4158,0.0098,-0.0025,0.0318,0.0089,-2.37,0.53,-8.10,0,3.827,1.624,-0.333,-2.891,0.008,-0.058,0.000,0.000,0.000,0.000,0.0080,1,-2
3468,-1.0685,-1.4158,0.0094,-0.0084,0.0408,0.0053,-2.23,0.54,-8.19,0,3.838,2.187,1.446,-14.022,-0.032,-0.026,0.000,0.000,0.000,0.000,0.0080,0,9
3518,-1.0745,-1.4112,0.0087,-0.0419,0.0713,-0.0019,-2.32,0.91,-8.74,0,3.838,0.851,-4.470,-15.199,-0.001,-0.049,0.000,0.000,0.000,0.000,0.0090,-8,24
3569,-1.0910,-1.4038,0.0072,-0.1191,0.1064,-0.0097,-2.37,1.63,-9.44,0,3.848,0.336,-2.171,7.090,0.009,-0.055,0.000,0.000,0.000,0.000,0.0080,-5,6
3621,-1.1049,-1.3869,0.0043,-0.1665,0.1824,-0.0241,-2.65,1.80,-9.22,0,3.832,3.811,4.017,6.124,0.007,-0.041,0.000,0.000,0.000,0.000,0.0060,-10,10
3672,-1.1148,-1.3740,0.0033,-0.1851,0.2232,-0.0219,-2.80,1.91,-8.78,0,3.843,5.749,3.326,2.590,0.011,-0.045,0.000,0.000,0.000,0.000,0.0060,-14,6
3723,-1.1208,-1.3561,0.0032,-0.1781,0.2771,-0.0166,-2.84,1.67,-8.48,0,3.838,3.089,3.748,-11.030,-0.001,-0.045,0.000,0.000,0.000,0.000,0.0090,-16,4
3774,-1.1239,-1.3367,0.0046,-0.1551,0.3254,-0.0111,-2.91,1.41,-8.69,0,3.843,15.778,0.679,-16.186,0.011,-0.028,0.000,0.000,0.000,0.000,0.0070,-32,1
3825,-1.1245,-1.3140,0.0046,-0.1229,0.3775,-0.0067,-2.67,1.15,-9.22,0,3.838,21.656,3.099,-12.703,0.000,-0.051,0.000,0.000,0.000,0.000,0.0060,-15,5
3876,-1.1260,-1.2889,0.0040,-0.1031,0.4260,0.0017,-1.41,0.94,-9.85,0,3.838,34.031,7.558,-2.223,0.023,-0.039,0.000,0.000,0.000,0.000,0.0120,-16,2
3927,-1.1257,-1.2744,0.0112,-0.0795,0.4028,0.0479,0.43,0.64,-10.16,0,3.843,46.094,4.862,2.551,-0.001,0.001,0.000,0.000,0.000,0.000,0.0120,5,1
3978,-1.1224,-1.2755,0.0190,-0.0538,0.2986,0.0980,3.33,0.34,-10.43,0,3.848,26.853,-1.903,12.783,-0.003,0.026,0.000,0.000,0.000,0.000,0.0000,7,-3
4029,-1.1257,-1.2883,0.0156,-0.0727,0.1427,0.0596,5.86,0.20,-10.08,0,3.832,1.539,-5.350,20.387,-0.006,0.020,0.000,0.000,0.000,0.000,0.0000,53,3
4080,-1.1273,-1.3169,0.0064,-0.0837,-0.0652,-0.0111,7.69,-0.18,-9.47,0,3.811,-39.780,-2.395,27.253,-0.007,0.042,0.000,0.000,0.000,0.000,0.0000,42,6
4131,-1.1374,-1.3672,-0.0156,-0.1228,-0.3490,-0.1467,7.63,-0.27,-7.78,0,3.779,-80.787,14.894,26.487,-0.003,0.044,0.000,0.000,0.000,0.000,0.0000,126,9
4182,-1.1442,-1.4099,-0.0251,-0.1364,-0.5149,-0.1766,4.58,-0.91,-6.61,0,3.774,8.485,-84.881,44.180,0.056,0.110,0.000,0.000,0.000,0.000,0.0120,59,-37
4233,-1.1445,-1.4512,-0.0177,-0.1201,-0.5971,-0.0750,2.79,-0.38,-6.78,0,3.779,1.167,-23.863,24.904,0.046,0.020,0.000,0.000,0.000,0.000,0.0080,16,-5
4284,-1.1420,-1.5025,-0.0159,-0.0955,-0.6992,-0.0015,1.26,-1.04,-5.60,0,3.806,-99.720,5.616,4.288,0.061,0.002,0.000,0.000,0.000,0.000,0.0150,11,-13
4335,-1.1419,-1.5427,0.0048,-0.0716,-0.6861,0.1312,-3.65,-1.40,-6.13,0,3.816,-102.769,-3.898,4.544,-0.019,-0.032,0.000,0.000,0.000,0.000,0.0000,-27,-10
4386,-1.1352,-1.5579,0.0198,-0.0167,-0.5163,0.2047,-10.58,-1.51,-8.03,0,3.838,3.246,19.140,4.848,-0.005,-0.033,0.000,0.000,0.000,0.000,0.0000,-100,-13
4437,-1.1152,-1.5163,0.0211,0.1040,-0.0694,0.1441,-13.42,-2.04,-9.84,0,3.801,122.533,9.657,8.890,-0.004,-0.055,0.000,0.000,0.000,0.000,0.0000,-95,-26
4488,-1.1014,-1.4670,0.0009,0.1833,0.2580,-0.0420,-9.35,-2.27,-10.55,0,3.764,155.480,-17.124,1.851,-0.006,-0.030,0.000,0.000,0.000,0.000,0.0000,-53,0
4539,-1.0853,-1.4266,-0.0142,0.2472,0.4429,-0.1229,-1.73,-1.20,-11.46,0,3.753,-106.152,-80.862,-14.990,-0.007,-0.018,0.000,0.000,0.000,0.000,0.0050,-111,0
4590,-1.0641,-1.3857,-0.0226,0.3194,0.5537,-0.1039,-4.03,-0.11,-10.50,0,3.774,65.773,-14.869,18.050,0.019,-0.054,0.000,0.000,0.000,0.000,0.0100,-15,-5
4640,-1.0521,-1.3581,-0.0025,0.2881,0.5886,0.1054,1.21,-0.51,-10.36,0,3.795,108.660,12.194,18.435,0.011,-0.017,0.000,0.000,0.000,0.000,0.0080,9,-1
4692,-1.0435,-1.3416,0.0197,0.2477,0.4769,0.2376,8.46,-0.43,-9.18,0,3.811,86.768,-18.200,12.819,-0.008,-0.015,0.000,0.000,0.000,0.000,0.0000,0,-5
4743,-1.0464,-1.3484,0.0285,0.1617,0.2394,0.2134,14.11,1.00,-8.49,0,3.795,-47.515,26.815,15.379,-0.007,-0.007,0.000,0.000,0.000,0.000,0.0000,9,-11
4794,-1.0264,-1.3575,0.0201,0.2040,0.0983,0.0514,12.80,-0.79,-9.11,0,3.769,-84.166,16.941,28.984,-0.009,0.019,0.000,0.000,0.000,0.000,0.0000,64,-40
4845,-1.0057,-1.3995,0.0025,0.2261,-0.1586,-0.0959,10.17,-2.46,-10.84,0,3.721,-62.302,-36.990,28.739,-0.023,0.056,0.000,0.000,0.000,0.000,0.0000,64,-29
4896,-0.9787,-1.4699,-0.0229,0.2521,-0.4551,-0.1985,7.72,-1.44,-11.36,0,3.716,-80.680,-92.501,13.671,0.013,0.026,0.000,0.000,0.000,0.000,0.0000,148,-71
4947,-0.9774,-1.4966,-0.0221,0.2198,-0.5736,-0.0931,3.32,2.69,-10.14,0,3.721,-80.039,-92.126,5.579,0.033,-0.008,0.000,0.000,0.000,0.000,0.0000,115,-28
4998,-0.9775,-1.5279,-0.0155,0.1534,-0.6357,0.0320,-0.36,7.86,-8.59,0,3.737,-110.430,-2.748,-6.454,0.011,-0.023,0.000,0.000,0.000,0.000,0.0000,28,21
5049,-0.9873,-1.5571,-0.0107,0.0069,-0.6446,0.1035,-5.50,9.35,-7.16,0,3.737,-71.675,82.892,-8.689,0.001,-0.012,0.000,0.000,0.000,0.000,0.0000,19,45
5100,-1.0111,-1.5659,-0.0036,-0.1720,-0.5325,0.1680,-9.83,6.63,-6.01,0,3.748,-10.560,83.752,-11.974,0.011,-0.011,0.000,0.000,0.000,0.000,0.0150,-4,22
5150,-1.0354,-1.5605,0.0121,-0.2821,-0.3475,0.2422,-11.47,2.82,-4.83,0,3.753,65.470,59.708,-12.273,0.027,-0.012,0.000,0.000,0.000,0.000,0.0260,-27,33
5202,-1.0575,-1.5348,0.0263,-0.3317,-0.1121,0.2626,-9.95,-0.06,-3.92,0,3.758,69.340,63.468,-11.726,0.009,-0.027,0.000,0.000,0.000,0.000,0.0420,-18,21
5253,-1.0762,-1.5079,0.0410,-0.3381,0.0752,0.2638,-7.17,-3.15,-3.41,0,3.748,55.867,99.547,-12.460,0.006,-0.023,0.000,0.000,0.000,0.000,0.0510,-18,15
5304,-1.0916,-1.4708,0.0498,-0.3113,0.2485,0.2356,-4.86,-7.88,-3.62,0,3.748,95.054,30.850,-11.796,0.018,-0.027,0.000,0.000,0.000,0.000,0.0620,-39,10
5355,-1.1012,-1.4458,0.0630,-0.2232,0.3228,0.2295,-0.79,-9.90,-3.97,0,3.743,77.022,-28.799,-13.159,0.009,-0.035,0.000,0.000,0.000,0.000,0.0660,-16,-2
5406,-1.1021,-1.4202,0.0704,-0.1045,0.3574,0.1953,3.00,-8.91,-3.95,0,3.743,45.604,-43.489,-15.570,0.002,-0.024,0.000,0.000,0.000,0.000,0.0770,-17,-9
5457,-1.1000,-1.4019,0.0812,-0.0058,0.3156,0.1824,5.44,-7.14,-4.23,0,3.732,29.810,-24.304,-18.707,-0.004,-0.027,0.000,0.000,0.000,0.000,0.0820,-13,-10
5507,-1.1006,-1.3892,0.0883,0.0415,0.2528,0.1561,6.96,-5.66,-5.19,0,3.727,4.235,-47.235,-22.019,0.000,-0.025,0.000,0.000,0.000,0.000,0.0870,1,-14
5559,-1.0945,-1.3807,0.0938,0.0962,0.1716,0.1369,7.38,-3.67,-5.99,0,3.721,-20.877,-30.691,-14.656,-0.003,-0.021,0.000,0.000,0.000,0.000,0.0910,0,-7
5610,-1.0916,-1.3768,0.0975,0.1110,0.0824,0.1151,6.58,-1.98,-6.55,0,3.716,-32.617,-23.092,-11.372,0.002,-0.015,0.000,0.000,0.000,0.000,0.0910,0,-6
5661,-1.1012,-1.3706,0.1000,0.0529,0.0187,0.1000,5.03,-0.38,-6.39,0,3.706,-30.275,-19.762,-9.464,-0.001,-0.007,0.000,0.000,0.000,0.000,0.0970,9,0
5712,-1.1065,-1.3685,0.1023,0.0160,-0.0274,0.1004,3.48,0.83,-6.19,0,3.711,-20.328,1.320,-6.986,-0.005,-0.005,0.000,0.000,0.000,0.000,0.0970,14,-14
5763,-1.1105,-1.3704,0.1043,-0.0128,-0.0633,0.1077,2.41,0.92,-6.47,0,3.706,-21.503,5.217,-8.272,-0.004,-0.007,0.000,0.000,0.000,0.000,0.0960,4,-1
5814,-1.1029,-1.3807,0.1046,0.0143,-0.1069,0.1085,1.42,0.45,-7.11,0,3.706,-32.026,4.289,-4.496,-0.000,-0.006,0.000,0.000,0.000,0.000,0.1030,15,-4
5865,-1.0990,-1.3905,0.1086,0.0236,-0.1366,0.1280,0.11,0.03,-7.46,0,3.700,-26.882,-13.858,-3.110,0.006,-0.003,0.000,0.000,0.000,0.000,0.1070,8,-4
5916,-1.0947,-1.4012,0.1127,0.0367,-0.1545,0.1478,-1.18,0.48,-7.69,0,3.711,-15.141,-12.266,0.351,-0.000,-0.005,0.000,0.000,0.000,0.000,0.1190,11,-3
5967,-1.0916,-1.4095,0.1223,0.0397,-0.1457,0.1872,-1.92,0.95,-7.73,0,3.711,-0.469,-8.391,1.445,-0.003,-0.009,0.000,0.000,0.000,0.000,0.1290,9,-3
6018,-1.0882,-1.4181,0.1327,0.0406,-0.1354,0.2185,-1.99,1.31,-7.66,0,3.721,-10.575,2.430,-0.544,-0.002,-0.006,0.000,0.000,0.000,0.000,0.1350,3,-3
6068,-1.0848,-1.4271,0.1431,0.0386,-0.1288,0.2354,-2.44,1.15,-7.67,0,3.716,-11.870,2.914,-0.643,-0.006,-0.004,0.000,0.000,0.000,0.000,0.1460,5,-3
6120,-1.0818,-1.4340,0.1532,0.0366,-0.1107,0.2388,-2.92,0.94,-7.70,0,3.727,2.984,-6.236,2.082,-0.004,-0.007,0.000,0.000,0.000,0.000,0.1610,2,-3
6171,-1.0797,-1.4402,0.1668,0.0334,-0.0905,0.2556,-2.75,1.03,-7.64,0,3.721,8.123,-4.709,1.372,-0.003,-0.011,0.000,0.000,0.000,0.000,0.1730,2,-2
6221,-1.0762,-1.4445,0.1790,0.0352,-0.0687,0.2573,-2.40,1.21,-7.49,0,3.727,7.238,5.804,0.291,-0.002,-0.013,0.000,0.000,0.000,0.000,0.1890,3,-1
6272,-1.0731,-1.4496,0.1941,0.0338,-0.0570,0.2671,-2.00,1.01,-7.47,0,3.727,6.692,5.121,0.014,-0.003,-0.013,0.000,0.000,0.000,0.000,0.1990,0,-9
6324,-1.0709,-1.4526,0.2058,0.0302,-0.0421,0.2545,-1.68,0.66,-7.37,0,3.732,6.166,0.730,-0.199,0.001,-0.009,0.000,0.000,0.000,0.000,0.2170,1,0
6375,-1.0658,-1.4547,0.2211,0.0400,-0.0314,0.2576,-1.35,0.52,-7.35,0,3.732,4.770,-4.129,0.410,-0.001,-0.009,0.000,0.000,0.000,0.000,0.2180,0,-2
6426,-1.0624,-1.4553,0.2286,0.0427,-0.0181,0.2207,-1.11,0.59,-7.26,0,3.732,6.533,-0.503,1.069,0.001,-0.015,0.000,0.000,0.000,0.000,0.2440,0,0
6477,-1.0593,-1.4563,0.2443,0.0426,-0.0106,0.2285,-0.82,0.60,-7.21,0,3.732,6.918,0.024,1.778,0.004,-0.011,0.000,0.000,0.000,0.000,0.2440,1,-1
6527,-1.0582,-1.4576,0.2520,0.0354,-0.0063,0.1970,-0.49,0.60,-7.18,0,3.732,3.246,-0.495,1.362,0.006,-0.013,0.000,0.000,0.000,0.000,0.2550,17,-4
6579,-1.0550,-1.4588,0.2611,0.0355,-0.0050,0.1782,-0.11,0.58,-7.16,0,3.721,-1.388,-1.097,2.098,0.001,-0.015,0.000,0.000,0.000,0.000,0.2610,1,-1
6630,-1.0530,-1.4692,0.2671,0.0313,-0.0318,0.1506,-0.07,0.62,-7.07,0,3.721,-4.486,-1.541,1.659,0.007,-0.010,0.000,0.000,0.000,0.000,0.2740,1,0
6681,-1.0509,-1.4709,0.2761,0.0281,-0.0310,0.1459,-0.26,0.73,-7.00,0,3.721,-1.155,-0.551,0.825,0.003,-0.015,0.000,0.000,0.000,0.000,0.2810,0,0
6732,-1.0521,-1.4774,0.2834,0.0151,-0.0411,0.1362,-0.28,0.81,-7.02,0,3.727,-1.587,2.141,0.298,0.002,-0.014,0.000,0.000,0.000,0.000,0.2900,0,0
6782,-1.0525,-1.4802,0.2918,0.0059,-0.0397,0.1343,-0.37,0.77,-7.00,0,3.721,-5.704,3.621,-0.265,0.004,-0.012,0.000,0.000,0.000,0.000,0.2900,0,0
6833,-1.0526,-1.4814,0.2955,-0.0003,-0.0339,0.1107,-0.60,0.58,-7.00,0,3.721,-1.829,5.230,0.155,0.003,-0.012,0.000,0.000,0.000,0.000,0.2990,0,0
6884,-1.0546,-1.4847,0.3014,-0.0087,-0.0318,0.1031,-0.78,0.34,-7.02,0,3.716,-0.394,5.286,-0.043,0.006,-0.012,0.000,0.000,0.000,0.000,0.3010,0,1
6935,-1.0575,-1.4869,0.3047,-0.0159,-0.0263,0.0867,-0.83,0.07,-7.05,0,3.721,2.797,3.732,-0.378,0.006,-0.011,0.000,0.000,0.000,0.000,0.3100,0,1
6987,-1.0586,-1.4887,0.3105,-0.0162,-0.0210,0.0880,-0.77,-0.12,-7.08,0,3.716,1.229,2.452,0.032,0.004,-0.012,0.000,0.000,0.000,0.000,0.3140,1,2
7038,-1.0615,-1.4894,0.3156,-0.0190,-0.0140,0.0854,-0.74,-0.20,-7.11,0,3.721,4.561,2.836,-0.701,0.006,-0.013,0.000,0.000,0.000,0.000,0.3170,-2,1
7089,-1.0641,-1.4905,0.3196,-0.0200,-0.0092,0.0783,-0.64,-0.33,-7.12,0,3.716,1.433,2.135,-0.333,0.003,-0.014,0.000,0.000,0.000,0.000,0.3190,-1,0
7139,-1.0652,-1.4890,0.3223,-0.0164,-0.0006,0.0671,-0.57,-0.48,-7.14,0,3.716,3.979,1.278,0.184,0.005,-0.012,0.000,0.000,0.000,0.000,0.3260,0,0
7191,-1.0665,-1.4882,0.3267,-0.0129,0.0049,0.0667,-0.46,-0.50,-7.14,0,3.711,0.619,-1.617,1.040,0.006,-0.013,0.000,0.000,0.000,0.000,0.3280,0,0
7242,-1.0678,-1.4863,0.3299,-0.0099,0.0115,0.0617,-0.37,-0.41,-7.12,0,3.716,4.059,0.114,0.030,0.004,-0.011,0.000,0.000,0.000,0.000,0.3280,0,0
7293,-1.0680,-1.4847,0.3313,-0.0060,0.0158,0.0488,-0.23,-0.34,-7.08,0,3.711,3.911,-1.039,0.248,0.002,-0.012,0.000,0.000,0.000,0.000,0.3270,0,0
7344,-1.0682,-1.4833,0.3311,-0.0029,0.0182,0.0328,-0.06,-0.31,-7.02,0,3.711,2.308,-1.986,1.303,0.003,-0.012,0.000,0.000,0.000,0.000,0.3310,0,0
7395,-1.0684,-1.4825,0.3323,-0.0005,0.0181,0.0280,0.03,-0.25,-6.95,0,3.706,2.882,-3.017,1.556,0.003,-0.010,0.000,0.000,0.000,0.000,0.3310,-2,1
7446,-1.0688,-1.4807,0.3328,0.0006,0.0191,0.0244,0.12,-0.12,-6.86,0,3.711,2.940,-2.148,1.382,0.005,-0.012,0.000,0.000,0.000,0.000,0.3330,0,0
7496,-1.0691,-1.4801,0.3339,0.0009,0.0169,0.0248,0.29,-0.05,-6.76,0,3.706,-3.982,1.531,2.200,0.002,-0.011,0.000,0.000,0.000,0.000,0.3340,0,0
7547,-1.0690,-1.4793,0.3350,0.0010,0.0145,0.0269,0.18,-0.06,-6.68,0,3.711,-1.315,1.117,1.082,0.005,-0.009,0.000,0.000,0.000,0.000,0.3360,0,0
7599,-1.0691,-1.4802,0.3366,0.0010,0.0102,0.0306,0.13,-0.07,-6.62,0,3.700,1.813,1.670,1.809,0.005,-0.010,0.000,0.000,0.000,0.000,0.3340,1,1
7650,-1.0694,-1.4834,0.3367,0.0008,0.0022,0.0266,0.23,-0.09,-6.55,0,3.706,1.099,-1.151,0.790,-0.001,-0.011,0.000,0.000,0.000,0.000,0.3390,0,-1
7701,-1.0692,-1.4799,0.3386,0.0018,0.0069,0.0330,0.31,-0.08,-6.50,0,3.700,-5.444,1.068,0.890,0.004,-0.012,0.000,0.000,0.000,0.000,0.3400,0,0
7752,-1.0717,-1.4859,0.3409,-0.0023,-0.0065,0.0363,0.13,-0.06,-6.47,0,3.711,-3.628,1.862,0.547,0.006,-0.013,0.000,0.000,0.000,0.000,0.3420,0,0
7803,-1.0732,-1.4855,0.3429,-0.0042,-0.0061,0.0386,-0.06,-0.11,-6.45,0,3.706,-0.355,2.371,0.438,0.006,-0.011,0.000,0.000,0.000,0.000,0.3430,0,0
7854,-1.0734,-1.4877,0.3445,-0.0032,-0.0090,0.0387,0.00,-0.16,-6.45,0,3.706,0.683,-1.493,-1.603,0.003,-0.012,0.000,0.000,0.000,0.000,0.3450,1,0
7905,-1.0735,-1.4882,0.3464,-0.0018,-0.0093,0.0387,0.02,-0.12,-6.49,0,3.706,-5.703,-0.009,-1.866,0.004,-0.014,0.000,0.000,0.000,0.000,0.3470,1,0
7956,-1.0704,-1.4904,0.3482,0.0047,-0.0122,0.0385,-0.19,-0.16,-6.58,0,3.711,-2.576,-1.588,-1.711,0.005,-0.011,0.000,0.000,0.000,0.000,0.3460,0,0
8008,-1.0731,-1.4957,0.3484,0.0010,-0.0189,0.0309,-0.35,-0.09,-6.67,0,3.700,1.853,-0.897,-1.536,0.006,-0.013,0.000,0.000,0.000,0.000,0.3490,0,0
8059,-1.0723,-1.4954,0.3498,0.0032,-0.0142,0.0305,-0.31,-0.03,-6.77,0,3.706,0.401,0.416,-1.684,0.004,-0.011,0.000,0.000,0.000,0.000,0.3510,0,0
8110,-1.0698,-1.4970,0.3514,0.0075,-0.0131,0.0307,-0.28,-0.02,-6.86,0,3.700,0.597,-1.651,-2.392,0.003,-0.013,0.000,0.000,0.000,0.000,0.3530,0,0
8161,-1.0681,-1.4978,0.3533,0.0101,-0.0111,0.0330,-0.25,0.02,-6.98,0,3.706,-3.544,-0.976,-2.430,0.003,-0.011,0.000,0.000,0.000,0.000,0.3530,0,1
8212,-1.0666,-1.4997,0.3544,0.0120,-0.0111,0.0305,-0.34,0.08,-7.11,0,3.695,-0.656,-0.514,-3.640,0.007,-0.011,0.000,0.000,0.000,0.000,0.3530,0,0
8263,-1.0669,-1.4991,0.3548,0.0103,-0.0066,0.0252,-0.40,0.12,-7.27,0,3.706,0.207,0.853,-3.277,0.001,-0.011,0.000,0.000,0.000,0.000,0.3540,-1,1
8314,-1.0637,-1.5018,0.3554,0.0142,-0.0069,0.0217,-0.37,0.10,-7.42,0,3.695,0.037,0.002,-2.910,0.007,-0.016,0.000,0.000,0.000,0.000,0.3540,0,0
8364,-1.0632,-1.5005,0.3556,0.0136,-0.0013,0.0179,-0.28,0.10,-7.58,0,3.700,2.867,-1.865,-2.798,0.001,-0.015,0.000,0.000,0.000,0.000,0.3530,-2,0
8416,-1.0620,-1.4921,0.3550,0.0139,0.0148,0.0118,-0.34,0.15,-7.72,0,3.695,5.608,1.571,-2.552,0.007,-0.009,0.000,0.000,0.000,0.000,0.3560,-1,0
8467,-1.0620,-1.4888,0.3559,0.0120,0.0214,0.0153,-0.16,0.13,-7.83,0,3.700,3.428,-2.608,-0.846,0.006,-0.013,0.000,0.000,0.000,0.000,0.3560,0,1
8518,-1.0582,-1.4906,0.3566,0.0159,0.0184,0.0176,0.13,0.21,-7.92,0,3.695,2.812,-0.367,-0.891,0.007,-0.015,0.000,0.000,0.000,0.000,0.3550,0,2
8569,-1.0610,-1.4911,0.3566,0.0087,0.0155,0.0160,0.27,0.26,-7.97,0,3.700,1.986,0.869,-1.350,0.005,-0.013,0.000,0.000,0.000,0.000,0.3530,1,0
8620,-1.0604,-1.4915,0.3555,0.0067,0.0119,0.0087,0.24,0.14,-8.03,0,3.690,0.757,-0.753,-0.234,0.005,-0.013,0.000,0.000,0.000,0.000,0.3580,0,1
8671,-1.0599,-1.4921,0.3570,0.0056,0.0082,0.0165,0.27,0.11,-8.07,0,3.700,-4.467,0.051,0.144,0.008,-0.013,0.000,0.000,0.000,0.000,0.3610,2,0
8722,-1.0608,-1.4979,0.3595,0.0025,-0.0039,0.0261,0.25,0.09,-8.12,0,3.695,-5.671,0.766,-1.250,0.004,-0.009,0.000,0.000,0.000,0.000,0.3610,0,3
8773,-1.0541,-1.4927,0.3612,0.0125,0.0035,0.0286,-0.05,0.02,-8.18,0,3.700,2.470,1.605,-1.267,0.006,-0.012,0.000,0.000,0.000,0.000,0.3630,3,-2
8824,-1.0594,-1.4963,0.3630,0.0030,-0.0024,0.0303,-0.01,-0.06,-8.23,0,3.695,1.477,-2.539,-1.491,0.005,-0.014,0.000,0.000,0.000,0.000,0.3640,-2,1
8875,-1.0576,-1.4957,0.3646,0.0060,-0.0008,0.0292,-0.05,0.03,-8.30,0,3.700,0.858,-1.181,-1.472,0.004,-0.009,0.000,0.000,0.000,0.000,0.3640,9,-2
8926,-1.0597,-1.5004,0.3653,0.0019,-0.0088,0.0242,-0.00,0.06,-8.36,0,3.695,-2.120,0.932,-1.234,0.007,-0.014,0.000,0.000,0.000,0.000,0.3640,5,0
8977,-1.0556,-1.4960,0.3655,0.0081,-0.0006,0.0157,0.01,-0.00,-8.43,0,3.700,-2.694,-0.306,-1.102,0.004,-0.009,0.000,0.000,0.000,0.000,0.3620,7,-3
9027,-1.0600,-1.4912,0.3644,-0.0004,0.0082,0.0028,-0.13,-0.02,-8.47,0,3.690,-0.324,-1.222,-0.806,0.004,-0.011,0.000,0.000,0.000,0.000,0.3650,3,-4
9079,-1.0590,-1.4893,0.3647,0.0013,0.0128,0.0023,-0.11,0.00,-8.53,0,3.695,1.426,-0.089,-0.196,0.007,-0.014,0.000,0.000,0.000,0.000,0.3640,0,-2
9130,-1.0524,-1.4920,0.3645,0.0130,0.0089,0.0002,0.01,-0.00,-8.58,0,3.690,-0.355,0.357,-0.481,0.008,-0.012,0.000,0.000,0.000,0.000,0.3660,0,0
9181,-1.0500,-1.4921,0.3652,0.0160,0.0080,0.0038,0.00,0.04,-8.59,0,3.695,1.338,-0.796,-0.728,0.002,-0.009,0.000,0.000,0.000,0.000,0.3630,-1,0
9232,-1.0486,-1.4924,0.3643,0.0167,0.0066,-0.0016,0.03,0.09,-8.62,0,3.684,11.249,-1.467,-1.651,0.002,-0.008,0.000,0.000,0.000,0.000,0.3620,0,0
9283,-1.0470,-1.4905,0.3632,0.0174,0.0095,-0.0062,0.18,0.27,-8.60,0,3.690,5.036,-0.671,0.190,0.007,-0.013,0.000,0.000,0.000,0.000,0.3650,0,0
9334,-1.0461,-1.4881,0.3638,0.0151,0.0121,0.0005,0.28,0.32,-8.59,0,3.690,-0.172,1.528,-0.661,0.005,-0.010,0.000,0.000,0.000,0.000,0.3640,0,0
9385,-1.0456,-1.4869,0.3640,0.0117,0.0114,0.0027,0.23,0.24,-8.58,0,3.695,-0.208,2.016,-0.101,0.007,-0.016,0.000,0.000,0.000,0.000,0.3640,0,1
9436,-1.0458,-1.4907,0.3641,0.0081,0.0013,0.0035,0.19,0.19,-8.57,0,3.690,-1.718,-0.482,0.728,0.009,-0.013,0.000,0.000,0.000,0.000,0.3620,2,0
9487,-1.0462,-1.4890,0.3632,0.0048,0.0029,-0.0012,0.20,0.32,-8.55,0,3.690,0.815,0.932,1.136,0.007,-0.011,0.000,0.000,0.000,0.000,0.3600,1,0
9538,-1.0469,-1.4896,0.3617,0.0004,0.0004,-0.0077,0.17,0.29,-8.50,0,3.684,-3.920,4.027,2.026,0.007,-0.014,0.000,0.000,0.000,0.000,0.3650,0,0
9589,-1.0494,-1.4915,0.3630,-0.0069,-0.0039,0.0016,-0.01,0.11,-8.40,0,3.690,1.131,1.441,0.803,0.006,-0.012,0.000,0.000,0.000,0.000,0.3590,0,0
9640,-1.0508,-1.4927,0.3613,-0.0098,-0.0056,-0.0063,-0.15,0.07,-8.32,0,3.684,-0.949,1.773,2.476,0.003,-0.013,0.000,0.000,0.000,0.000,0.3620,-1,1
9691,-1.0513,-1.4929,0.3614,-0.0102,-0.0042,-0.0030,-0.18,0.01,-8.22,0,3.690,-0.777,1.463,2.513,0.009,-0.013,0.000,0.000,0.000,0.000,0.3570,-1,0
9742,-1.0551,-1.4932,0.3593,-0.0160,-0.0027,-0.0119,-0.19,-0.07,-8.09,0,3.679,1.818,1.355,2.618,0.007,-0.010,0.000,0.000,0.000,0.000,0.3590,1,0
9793,-1.0549,-1.4916,0.3588,-0.0135,0.0015,-0.0089,-0.14,-0.15,-7.95,0,3.690,2.906,1.927,1.073,0.004,-0.009,0.000,0.000,0.000,0.000,0.3610,-3,0
9844,-1.0575,-1.4893,0.3595,-0.0152,0.0064,-0.0012,-0.20,-0.18,-7.85,0,3.684,2.279,0.139,2.230,0.007,-0.016,0.000,0.000,0.000,0.000,0.3590,0,1
9895,-1.0573,-1.4913,0.3593,-0.0117,0.0033,0.0012,-0.06,-0.24,-7.75,0,3.690,1.178,-0.012,1.993,0.004,-0.010,0.000,0.000,0.000,0.000,0.3600,0,0
9946,-1.0588,-1.4901,0.3597,-0.0111,0.0054,0.0047,0.02,-0.28,-7.65,0,3.684,-1.390,-0.411,1.958,0.005,-0.012,0.000,0.000,0.000,0.000,0.3570,0,0
9997,-1.0593,-1.4899,0.3586,-0.0088,0.0050,-0.0010,-0.03,-0.27,-7.56,0,3.690,1.142,-1.464,1.979,0.006,-0.013,0.000,0.000,0.000,0.000,0.3600,0,0
10048,-1.0597,-1.4901,0.3592,-0.0066,0.0041,0.0025,-0.01,-0.22,-7.47,0,3.684,-0.373,-0.932,1.259,0.006,-0.011,0.000,0.000,0.000,0.000,0.3600,0,0
10099,-1.0580,-1.4902,0.3597,-0.0013,0.0033,0.0051,-0.02,-0.19,-7.41,0,3.684,-0.194,-1.836,0.802,0.008,-0.013,0.000,0.000,0.000,0.000,0.3560,0,-1
10150,-1.0569,-1.4904,0.3582,0.0023,0.0026,-0.0027,-0.02,-0.12,-7.37,0,3.679,0.585,-2.464,0.461,0.007,-0.009,0.000,0.000,0.000,0.000,0.3570,0,0
10201,-1.0546,-1.4893,0.3576,0.0069,0.0042,-0.0043,-0.01,0.02,-7.33,0,3.684,-0.360,-1.195,0.205,0.007,-0.013,0.000,0.000,0.000,0.000,0.3570,0,0
10252,-1.0519,-1.4913,0.3572,0.0106,0.0006,-0.0041,-0.03,0.11,-7.31,0,3.679,-0.710,-1.417,0.192,0.006,-0.015,0.000,0.000,0.000,0.000,0.3530,0,0
10303,-1.0511,-1.4914,0.3550,0.0102,0.0006,-0.0114,-0.03,0.18,-7.30,0,3.679,0.155,-1.465,-0.371,0.004,-0.007,0.000,0.000,0.000,0.000,0.3540,0,0
10354,-1.0499,-1.4898,0.3541,0.0100,0.0037,-0.0105,-0.06,0.25,-7.32,0,3.679,-0.956,-0.192,-1.078,0.007,-0.009,0.000,0.000,0.000,0.000,0.3540,0,0
10404,-1.0477,-1.4899,0.3538,0.0110,0.0038,-0.0064,-0.05,0.23,-7.37,0,3.684,0.210,-0.024,-1.362,0.007,-0.012,0.000,0.000,0.000,0.000,0.3550,0,0
10456,-1.0472,-1.4897,0.3542,0.0090,0.0045,0.0006,-0.04,0.18,-7.41,0,3.679,0.183,0.205,-0.811,0.008,-0.014,0.000,0.000,0.000,0.000,0.3520,0,0
10506,-1.0468,-1.4895,0.3532,0.0076,0.0051,-0.0006,-0.05,0.18,-7.44,0,3.684,-0.396,1.019,-1.357,0.003,-0.010,0.000,0.000,0.000,0.000,0.3530,0,0
10558,-1.0442,-1.4896,0.3532,0.0098,0.0050,0.0029,-0.01,0.13,-7.52,0,3.674,1.699,0.552,-1.877,0.003,-0.010,0.000,0.000,0.000,0.000,0.3530,0,0
10609,-1.0436,-1.4879,0.3533,0.0088,0.0076,0.0045,0.09,0.12,-7.60,0,3.679,-0.058,-0.906,-1.571,0.007,-0.010,0.000,0.000,0.000,0.000,0.3550,0,0
10660,-1.0431,-1.4853,0.3543,0.0078,0.0106,0.0096,0.09,0.13,-7.70,0,3.679,0.897,0.654,-1.601,0.004,-0.013,0.000,0.000,0.000,0.000,0.3540,0,0
10711,-1.0434,-1.4877,0.3545,0.0056,0.0055,0.0096,0.10,0.11,-7.77,0,3.679,0.817,1.290,-1.979,0.008,-0.011,0.000,0.000,0.000,0.000,0.3540,0,0
10762,-1.0434,-1.4884,0.3547,0.0041,0.0028,0.0091,0.20,0.08,-7.86,0,3.679,-2.544,0.688,-1.442,0.004,-0.011,0.000,0.000,0.000,0.000,0.3530,0,0
10812,-1.0428,-1.4859,0.3542,0.0038,0.0049,0.0047,0.19,0.09,-7.91,0,3.679,-2.117,-0.958,-0.557,0.003,-0.009,0.000,0.000,0.000,0.000,0.3570,0,0
10864,-1.0433,-1.4886,0.3557,0.0018,-0.0010,0.0109,0.15,0.12,-7.96,0,3.679,-0.328,-0.049,-0.093,0.004,-0.011,0.000,0.000,0.000,0.000,0.3550,0,0
10915,-1.0405,-1.4911,0.3557,0.0050,-0.0059,0.0078,0.11,0.06,-7.99,0,3.679,-4.213,1.489,0.106,0.007,-0.012,0.000,0.000,0.000,0.000,0.3530,0,0
10966,-1.0402,-1.4915,0.3548,0.0044,-0.0066,0.0009,-0.01,0.05,-7.97,0,3.674,-2.790,-0.253,0.390,0.002,-0.008,0.000,0.000,0.000,0.000,0.3530,0,0
11017,-1.0408,-1.4935,0.3540,0.0028,-0.0088,-0.0028,-0.11,0.10,-7.93,0,3.679,-1.223,-0.457,0.129,0.005,-0.011,0.000,0.000,0.000,0.000,0.3540,1,0
11068,-1.0385,-1.4953,0.3539,0.0053,-0.0095,-0.0023,-0.21,0.12,-7.91,0,3.674,-2.794,1.513,-0.148,0.004,-0.012,0.000,0.000,0.000,0.000,0.3540,1,0
11119,-1.0388,-1.4981,0.3539,0.0038,-0.0109,-0.0005,-0.28,0.08,-7.93,0,3.679,-2.495,-0.384,-0.078,0.006,-0.011,0.000,0.000,0.000,0.000,0.3520,2,-1
11170,-1.0403,-1.5046,0.3530,0.0010,-0.0173,-0.0036,-0.29,0.10,-7.95,0,3.674,-0.393,-1.215,-0.090,0.003,-0.012,0.000,0.000,0.000,0.000,0.3530,0,0
11221,-1.0407,-1.5036,0.3529,-0.0001,-0.0120,-0.0016,-0.35,0.11,-7.97,0,3.674,0.678,0.621,-1.153,0.002,-0.007,0.000,0.000,0.000,0.000,0.3540,0,0
11272,-1.0418,-1.4980,0.3534,-0.0021,0.0003,0.0026,-0.41,0.08,-8.01,0,3.674,-0.543,3.295,-0.020,0.005,-0.012,0.000,0.000,0.000,0.000,0.3530,-2,0
11323,-1.0419,-1.4979,0.3533,-0.0021,0.0036,0.0029,-0.36,-0.00,-8.03,0,3.679,0.241,0.083,0.545,0.006,-0.010,0.000,0.000,0.000,0.000,0.3510,0,0
11374,-1.0461,-1.4939,0.3524,-0.0078,0.0117,-0.0021,-0.22,0.02,-8.04,0,3.674,2.743,0.783,-0.654,0.004,-0.009,0.000,0.000,0.000,0.000,0.3520,1,0
11425,-1.0466,-1.4874,0.3521,-0.0077,0.0218,-0.0021,-0.07,-0.06,-8.07,0,3.674,1.540,3.687,-0.908,0.003,-0.011,0.000,0.000,0.000,0.000,0.3500,0,0
11476,-1.0476,-1.4894,0.3511,-0.0081,0.0178,-0.0064,0.05,-0.14,-8.10,0,3.674,2.189,-0.083,-0.313,-0.001,-0.009,0.000,0.000,0.000,0.000,0.3500,0,0
11527,-1.0468,-1.4861,0.3504,-0.0051,0.0207,-0.0074,0.15,-0.18,-8.12,0,3.674,1.131,1.672,-0.324,0.003,-0.012,0.000,0.000,0.000,0.000,0.3510,1,0
11578,-1.0495,-1.4780,0.3504,-0.0072,0.0299,-0.0048,0.21,-0.23,-8.16,0,3.669,1.382,-1.430,-0.455,-0.000,-0.010,0.000,0.000,0.000,0.000,0.3500,0,0
11629,-1.0485,-1.4733,0.3500,-0.0035,0.0330,-0.0039,0.29,-0.21,-8.20,0,3.674,0.725,-0.052,-0.253,0.003,-0.008,0.000,0.000,0.000,0.000,0.3480,0,0
11680,-1.0481,-1.4689,0.3489,-0.0012,0.0347,-0.0071,0.32,-0.21,-8.22,0,3.669,5.596,-0.124,0.412,0.003,-0.010,0.000,0.000,0.000,0.000,0.3480,0,-1
11731,-1.0478,-1.4651,0.3482,0.0008,0.0348,-0.0073,0.52,-0.23,-8.22,0,3.674,0.122,-0.446,0.739,0.005,-0.011,0.000,0.000,0.000,0.000,0.3500,0,0
11782,-1.0460,-1.4661,0.3488,0.0047,0.0261,-0.0019,0.59,-0.24,-8.20,0,3.669,1.810,-2.074,-0.268,0.006,-0.011,0.000,0.000,0.000,0.000,0.3450,1,1
11833,-1.0466,-1.4681,0.3469,0.0045,0.0158,-0.0100,0.64,-0.14,-8.18,0,3.669,0.739,0.170,0.786,0.002,-0.010,0.000,0.000,0.000,0.000,0.3460,0,0
11884,-1.0474,-1.4721,0.3461,0.0035,0.0028,-0.0112,0.66,-0.17,-8.14,0,3.669,-5.108,-0.770,1.322,0.004,-0.009,0.000,0.000,0.000,0.000,0.3450,1,0
11935,-1.0480,-1.4743,0.3452,0.0030,-0.0062,-0.0108,0.47,-0.15,-8.07,0,3.669,-5.099,0.617,1.206,0.008,-0.008,0.000,0.000,0.000,0.000,0.3440,1,-2
11986,-1.0491,-1.4790,0.3442,0.0017,-0.0170,-0.0109,0.27,-0.14,-7.99,0,3.663,-3.406,-1.682,1.418,0.002,-0.008,0.000,0.000,0.000,0.000,0.3400,-1,0
