time_ms,pos_x,pos_y,pos_z,vel_x,vel_y,vel_z,roll,pitch,yaw,thrust,vbat,gyro_x,gyro_y,gyro_z,acc_x,acc_y,acc_z,rate_roll,rate_pitch,rate_yaw,range_z,flow_dx,flow_dy,mekf_roll,mekf_pitch,mekf_yaw,mekf_x,mekf_y,mekf_z,our_ref_x,our_ref_y,our_ref_z,our_thrust,our_roll_cmd,our_pitch_cmd,our_yaw_rate_cmd,multi_front,multi_back,multi_left,multi_right,multi_up,ai_feat_count,vo_x,vo_y,vo_sigma,pg_x,pg_y,lc_count
0,1.3292,1.9302,0.0091,0.0031,-0.0043,-0.0084,-0.54,0.63,-134.94,0,3.922,0.039,0.266,-0.032,0.010,-0.009,0.998,0.000,0.000,0.000,0.0070,6,0,0.00,0.00,0.00,0.0000,0.0000,0.0000,0.0000,0.0000,0.0000,0.0000,0.00,0.00,0.00,1.0290,0.0000,1.3010,1.1180,2.7060,2,0.0000,0.0000,0.0000,0.0000,0.0000,0
101,1.3288,1.9303,0.0086,0.0010,-0.0037,-0.0102,-0.53,0.59,-134.52,0,3.922,-0.188,0.078,0.121,0.008,-0.007,0.998,0.000,0.000,0.000,0.0110,6,1,0.00,0.00,0.00,0.0000,0.0000,0.0000,0.0000,0.0000,0.0000,0.0000,0.00,0.00,0.00,1.0290,0.0000,1.2960,1.1140,2.6950,3,0.0000,0.0000,0.0000,0.0000,0.0000,0
202,1.3285,1.9303,0.0081,-0.0002,-0.0034,-0.0108,-0.57,0.59,-133.99,0,3.927,0.025,0.282,0.253,0.012,-0.007,1.000,0.000,0.000,0.000,0.0080,-1,0,0.00,0.00,0.00,0.0000,0.0000,0.0000,0.0000,0.0000,0.0000,0.0000,0.00,0.00,0.00,1.0290,0.3670,1.2960,1.1140,2.6950,3,0.0000,0.0000,0.0000,0.0000,0.0000,0
303,1.3288,1.9309,0.0086,0.0016,-0.0008,-0.0067,-0.55,0.59,-133.46,0,3.922,0.174,-0.086,0.034,0.015,-0.008,1.000,0.000,0.000,0.000,0.0090,-3,1,0.00,0.00,0.00,0.0000,0.0000,0.0000,0.0000,0.0000,0.0000,0.0000,0.00,0.00,0.00,1.0290,0.3670,1.3000,1.1220,2.7000,4,0.0000,0.0000,0.0000,0.0000,0.0000,0
405,1.3256,1.9326,0.0083,-0.0158,0.0079,-0.0069,-0.38,0.56,-132.93,0,3.922,0.026,0.110,-0.168,0.010,-0.010,0.999,0.000,0.000,0.000,0.0100,5,0,0.00,0.00,0.00,0.0000,0.0000,0.0000,0.0000,0.0000,0.0000,0.0000,0.00,0.00,0.00,1.0350,0.3570,1.3000,1.1220,2.7000,4,0.0000,0.0000,0.0000,0.0000,0.0000,0
506,1.3260,1.9332,0.0091,-0.0114,0.0093,-0.0019,-0.39,0.60,-132.41,0,3.922,0.223,-0.068,0.104,0.012,-0.008,1.000,0.000,0.000,0.000,0.0120,-13,5,0.00,0.00,0.00,0.0000,0.0000,0.0000,0.0000,0.0000,0.0000,0.0000,0.00,0.00,0.00,1.0350,0.3570,1.2960,1.1150,2.6990,2,0.0000,0.0000,0.0000,0.0000,0.0000,0
608,1.3248,1.9329,0.0090,-0.0154,0.0044,-0.0024,-0.51,0.59,-131.88,0,3.922,-0.235,0.079,0.120,0.012,-0.010,1.000,0.000,0.000,0.000,0.0110,5,-2,0.00,0.00,0.00,0.0000,0.0000,0.0000,0.0000,0.0000,0.0000,0.0000,0.00,0.00,0.00,1.0310,0.3630,1.2960,1.1150,2.6990,2,0.0000,0.0000,0.0000,0.0000,0.0000,0
709,1.3275,1.9316,0.0108,0.0007,-0.0035,0.0057,-0.48,0.59,-131.35,0,3.922,-0.006,-0.204,0.112,0.010,-0.008,1.000,0.000,0.000,0.000,0.0090,0,-1,0.00,0.00,0.00,0.0000,0.0000,0.0000,0.0000,0.0000,0.0000,0.0000,0.00,0.00,0.00,1.0310,0.3630,1.2960,1.1200,2.6940,1,0.0000,0.0000,0.0000,0.0000,0.0000,0
810,1.3263,1.9322,0.0111,-0.0046,-0.0014,0.0056,-0.56,0.55,-130.82,0,3.922,-0.140,-0.420,-0.052,0.013,-0.006,1.000,0.000,0.000,0.000,0.0130,5,-7,0.00,0.00,0.00,0.0000,0.0000,0.0000,0.0000,0.0000,0.0000,0.0000,0.00,0.00,0.00,1.0360,0.3740,1.2960,1.1200,2.6940,1,0.0000,0.0000,0.0000,0.0000,0.0000,0
912,1.3264,1.9329,0.0114,-0.0028,0.0015,0.0063,-0.59,0.60,-130.30,0,3.922,0.109,0.033,0.074,0.010,-0.008,0.999,0.000,0.000,0.000,0.0130,-3,-1,0.00,0.00,0.00,0.0000,0.0000,0.0000,0.0000,0.0000,0.0000,0.0000,0.00,0.00,0.00,1.0360,0.3740,1.2950,1.1200,2.7000,2,0.0000,0.0000,0.0000,0.0000,0.0000,0
1012,1.3253,1.9330,0.0118,-0.0069,0.0007,0.0065,-0.55,0.57,-129.78,0,3.922,-0.373,-0.025,-0.252,0.012,-0.006,1.001,0.000,0.000,0.000,0.0120,0,-1,0.00,0.00,0.00,0.0000,0.0000,0.0000,0.0000,0.0000,0.0000,0.0000,0.00,0.00,0.00,1.0360,0.3770,1.2950,1.1200,2.7000,2,0.0000,0.0000,0.0000,0.0000,0.0000,0
1114,1.3268,1.9325,0.0125,0.0031,-0.0026,0.0074,-0.52,0.59,-129.26,0,3.922,0.046,-0.199,0.096,0.013,-0.009,1.001,0.000,0.000,0.000,0.0100,0,6,0.00,0.00,0.00,0.0000,0.0000,0.0000,0.0000,0.0000,0.0000,0.0000,0.00,0.00,0.00,1.0360,0.3770,1.2990,1.1150,2.6990,1,0.0000,0.0000,0.0000,0.0000,0.0000,0
1215,1.3261,1.9316,0.0129,-0.0008,-0.0085,0.0077,-0.57,0.60,-128.74,0,3.917,-0.065,0.034,-0.339,0.012,-0.010,1.000,0.000,0.000,0.000,0.0090,-4,0,0.00,0.00,0.00,0.0000,0.0000,0.0000,0.0000,0.0000,0.0000,0.0000,0.00,0.00,0.00,1.0300,0.3610,1.2990,1.1150,2.6990,1,0.0000,0.0000,0.0000,0.0000,0.0000,0
1316,1.3258,1.9325,0.0106,-0.0020,-0.0030,-0.0046,-0.56,0.60,-128.23,0,3.922,0.106,-0.072,0.114,0.013,-0.009,1.001,0.000,0.000,0.000,0.0120,-4,1,0.00,0.00,0.00,0.0000,0.0000,0.0000,0.0000,0.0000,0.0000,0.0000,0.00,0.00,0.00,1.0300,0.3610,1.2990,1.1160,2.6960,1,0.0000,0.0000,0.0000,0.0000,0.0000,0
1417,1.3250,1.9332,0.0105,-0.0062,-0.0003,-0.0042,-0.56,0.60,-127.71,0,3.922,0.015,-0.040,-0.079,0.013,-0.010,1.000,0.000,0.000,0.000,0.0110,1,-4,0.00,0.00,0.00,0.0000,0.0000,0.0000,0.0000,0.0000,0.0000,0.0000,0.00,0.00,0.00,1.0290,0.3590,1.2990,1.1160,2.6960,1,0.0000,0.0000,0.0000,0.0000,0.0000,0
1519,1.3263,1.9332,0.0111,0.0013,-0.0009,-0.0004,-0.58,0.57,-127.20,0,3.922,0.105,-0.073,-0.484,0.011,-0.007,1.000,0.000,0.000,0.000,0.0090,-10,6,0.00,0.00,0.00,0.0000,0.0000,0.0000,0.0000,0.0000,0.0000,0.0000,0.00,0.00,0.00,1.0290,0.3590,1.2950,1.1210,2.6920,1,0.0000,0.0000,0.0000,0.0000,0.0000,0
1570,1.3242,1.9324,0.0110,-0.0099,-0.0056,-0.0007,-0.54,0.59,-126.69,0,3.917,-0.016,0.043,-0.158,0.012,-0.008,0.999,0.000,0.000,0.000,0.0110,-6,0,0.00,0.00,0.00,0.0000,0.0000,0.0000,0.0000,0.0000,0.0000,0.0000,0.00,0.00,0.00,1.0330,0.3700,1.2950,1.1210,2.6920,1,0.0000,0.0000,0.0000,0.0000,0.0000,0
1621,1.3260,1.9334,0.0104,0.0002,-0.0004,-0.0028,-0.63,0.61,-126.17,0,3.922,-0.039,-0.340,-0.115,0.009,-0.008,1.000,0.000,0.000,0.000,0.0120,0,-4,0.00,0.00,0.00,0.0000,0.0000,0.0000,0.0000,0.0000,0.0000,0.0000,0.00,0.00,0.00,1.0330,0.3700,1.2940,1.1170,2.7010,5,0.0000,0.0000,0.0000,0.0000,0.0000,0
1671,1.3288,1.9314,0.0103,0.0164,-0.0117,-0.0025,-0.69,0.64,-125.66,0,3.917,0.156,-0.030,-0.016,0.011,-0.008,1.000,0.000,0.000,0.000,0.0120,7,-3,0.00,0.00,0.00,0.0000,0.0000,0.0000,0.0000,0.0000,0.0000,0.0000,0.00,0.00,0.00,1.0320,0.3580,1.2940,1.1170,2.7010,5,0.0000,0.0000,0.0000,0.0000,0.0000,0
1723,1.3295,1.9304,0.0115,0.0173,-0.0145,0.0035,-0.67,0.60,-125.15,0,3.917,-0.094,0.042,0.145,0.011,-0.008,0.997,0.000,0.000,0.000,0.0110,9,2,0.00,0.00,0.00,0.0000,0.0000,0.0000,0.0000,0.0000,0.0000,0.0000,0.00,0.00,0.00,1.0320,0.3580,1.2940,1.1160,2.6990,1,0.0000,0.0000,0.0000,0.0000,0.0000,0
1774,1.3295,1.9304,0.0117,0.0154,-0.0126,0.0027,-0.64,0.60,-124.65,0,3.922,0.024,0.203,-0.079,0.011,-0.008,1.000,0.000,0.000,0.000,0.0110,-3,-1,0.00,0.00,0.00,0.0000,0.0000,0.0000,0.0000,0.0000,0.0000,0.0000,0.00,0.00,0.00,1.0320,0.0000,1.2940,1.1160,2.6990,1,0.0000,0.0000,0.0000,0.0000,0.0000,0
1825,1.3289,1.9305,0.0113,0.0100,-0.0107,0.0001,-0.67,0.56,-124.14,0,3.922,-0.117,-0.037,-0.323,0.010,-0.009,0.999,0.000,0.000,0.000,0.0130,0,4,0.00,0.00,0.00,0.0000,0.0000,0.0000,0.0000,0.0000,0.0000,0.0000,0.00,0.00,0.00,1.0320,0.0000,1.2970,1.1180,2.7000,0,0.0000,0.0000,0.0000,0.0000,0.0000,0
1876,1.3293,1.9297,0.0113,0.0102,-0.0130,-0.0007,-0.61,0.59,-123.63,0,3.917,-0.301,-0.097,0.511,0.013,-0.010,1.000,0.000,0.000,0.000,0.0080,-5,-2,0.00,0.00,0.00,0.0000,0.0000,0.0000,0.0000,0.0000,0.0000,0.0000,0.00,0.00,0.00,1.0360,0.3510,1.2970,1.1180,2.7000,0,0.0000,0.0000,0.0000,0.0000,0.0000,0
1928,1.3289,1.9310,0.0105,0.0055,-0.0046,-0.0059,-0.59,0.58,-123.12,0,3.922,-0.050,0.057,0.401,0.009,-0.008,0.998,0.000,0.000,0.000,0.0090,5,3,0.00,0.00,0.00,0.0000,0.0000,0.0000,0.0000,0.0000,0.0000,0.0000,0.00,0.00,0.00,1.0360,0.3510,1.3000,1.1170,2.6920,0,0.0000,0.0000,0.0000,0.0000,0.0000,0
1979,1.3303,1.9287,0.0102,0.0123,-0.0159,-0.0067,-0.56,0.59,-122.61,0,3.917,0.168,-0.027,-0.010,0.012,-0.009,0.996,0.000,0.000,0.000,0.0120,6,4,0.00,0.00,0.00,0.0000,0.0000,0.0000,0.0000,0.0000,0.0000,0.0000,0.00,0.00,0.00,1.0310,0.0000,1.3000,1.1170,2.6920,0,0.0000,0.0000,0.0000,0.0000,0.0000,0
2031,1.3288,1.9302,0.0104,0.0025,-0.0062,-0.0034,-0.56,0.60,-122.11,0,3.922,-0.185,-0.279,0.262,0.011,-0.007,0.999,0.000,0.000,0.000,0.0130,-4,4,0.00,0.00,0.00,0.0000,0.0000,0.0000,0.0000,0.0000,0.0000,0.0000,0.00,0.00,0.00,1.0310,0.0000,1.2990,1.1170,2.6990,0,0.0000,0.0000,0.0000,0.0000,0.0000,0
2082,1.3292,1.9308,0.0103,0.0035,-0.0031,-0.0038,-0.60,0.62,-121.61,0,3.922,0.007,-0.023,0.184,0.009,-0.006,1.001,0.000,0.000,0.000,0.0110,5,-3,0.00,0.00,0.00,0.0000,0.0000,0.0000,0.0000,0.0000,0.0000,0.0000,0.00,0.00,0.00,1.0330,0.0000,1.2990,1.1170,2.6990,0,0.0000,0.0000,0.0000,0.0000,0.0000,0
2133,1.3287,1.9309,0.0113,0.0006,-0.0025,0.0013,-0.55,0.63,-121.11,0,3.922,-0.071,0.091,0.236,0.009,-0.010,0.997,0.000,0.000,0.000,0.0100,1,4,0.00,0.00,0.00,0.0000,0.0000,0.0000,0.0000,0.0000,0.0000,0.0000,0.00,0.00,0.00,1.0330,0.0000,1.2970,1.1180,2.6970,0,0.0000,0.0000,0.0000,0.0000,0.0000,0
2183,1.3294,1.9307,0.0114,0.0045,-0.0030,0.0007,-0.54,0.56,-120.62,0,3.917,0.126,0.209,0.015,0.009,-0.008,1.002,0.000,0.000,0.000,0.0130,-3,-6,0.00,0.00,0.00,0.0000,0.0000,0.0000,0.0000,0.0000,0.0000,0.0000,0.00,0.00,0.00,1.0320,0.3610,1.2970,1.1180,2.6970,0,0.0000,0.0000,0.0000,0.0000,0.0000,0
2235,1.3292,1.9308,0.0117,0.0028,-0.0022,0.0029,-0.58,0.55,-120.12,0,3.922,0.009,0.213,0.080,0.011,-0.008,0.997,0.000,0.000,0.000,0.0110,0,4,0.00,0.00,0.00,0.0000,0.0000,0.0000,0.0000,0.0000,0.0000,0.0000,0.00,0.00,0.00,1.0320,0.3610,1.2950,1.1170,2.7010,0,0.0000,0.0000,0.0000,0.0000,0.0000,0
2287,1.3294,1.9307,0.0118,0.0036,-0.0022,0.0025,-0.57,0.57,-119.63,0,3.917,0.066,0.207,-0.045,0.012,-0.009,1.003,0.000,0.000,0.000,0.0100,-3,-2,0.00,0.00,0.00,0.0000,0.0000,0.0000,0.0000,0.0000,0.0000,0.0000,0.00,0.00,0.00,1.0290,0.3590,1.2950,1.1170,2.7010,0,0.0000,0.0000,0.0000,0.0000,0.0000,0
2339,1.3283,1.9310,0.0109,-0.0031,-0.0002,-0.0021,-0.53,0.56,-119.13,0,3.922,0.107,-0.013,0.285,0.012,-0.009,0.999,0.000,0.000,0.000,0.0080,0,-7,0.00,0.00,0.00,0.0000,0.0000,0.0000,0.0000,0.0000,0.0000,0.0000,0.00,0.00,0.00,1.0290,0.3590,1.2960,1.1190,2.7000,0,0.0000,0.0000,0.0000,0.0000,0.0000,0
2390,1.3298,1.9304,0.0108,0.0050,-0.0038,-0.0024,-0.56,0.56,-118.64,0,3.922,0.082,0.024,0.341,0.010,-0.010,0.999,0.000,0.000,0.000,0.0110,3,0,0.00,0.00,0.00,0.0000,0.0000,0.0000,0.0000,0.0000,0.0000,0.0000,0.00,0.00,0.00,1.0340,0.3730,1.2960,1.1190,2.7000,0,0.0000,0.0000,0.0000,0.0000,0.0000,0
2442,1.3297,1.9302,0.0099,0.0037,-0.0038,-0.0049,-0.53,0.58,-118.15,0,3.922,0.145,-0.131,0.108,0.011,-0.007,0.999,0.000,0.000,0.000,0.0110,7,-2,0.00,0.00,0.00,0.0000,0.0000,0.0000,0.0000,0.0000,0.0000,0.0000,0.00,0.00,0.00,1.0340,0.3730,1.2960,1.1180,2.6930,0,0.0000,0.0000,0.0000,0.0000,0.0000,0
2492,1.3291,1.9300,0.0097,-0.0002,-0.0052,-0.0046,-0.51,0.57,-117.66,0,3.917,0.038,0.053,-0.205,0.013,-0.007,0.999,0.000,0.000,0.000,0.0120,-8,-3,0.00,0.00,0.00,0.0000,0.0000,0.0000,0.0000,0.0000,0.0000,0.0000,0.00,0.00,0.00,1.0340,0.3750,1.2960,1.1180,2.6930,1,0.0000,0.0000,0.0000,0.0000,0.0000,0
2543,1.3281,1.9313,0.0110,-0.0047,0.0011,0.0022,-0.56,0.56,-117.17,0,3.917,-0.196,-0.167,-0.112,0.012,-0.008,1.000,0.000,0.000,0.000,0.0100,-2,0,0.00,0.00,0.00,0.0000,0.0000,0.0000,0.0000,0.0000,0.0000,0.0000,0.00,0.00,0.00,1.0340,0.3750,1.2970,1.1170,2.6970,1,0.0000,0.0000,0.0000,0.0000,0.0000,0
2595,1.3278,1.9312,0.0111,-0.0063,0.0008,0.0020,-0.56,0.58,-116.68,0,3.917,-0.144,0.091,0.252,0.012,-0.009,1.003,0.000,0.000,0.000,0.0110,6,0,0.00,0.00,0.00,0.0000,0.0000,0.0000,0.0000,0.0000,0.0000,0.0000,0.00,0.00,0.00,1.0380,0.3600,1.2970,1.1170,2.6970,1,0.0000,0.0000,0.0000,0.0000,0.0000,0
2645,1.3290,1.9309,0.0108,-0.0003,-0.0007,0.0006,-0.53,0.58,-116.19,0,3.917,-0.024,0.120,-0.145,0.011,-0.009,1.000,0.000,0.000,0.000,0.0080,9,1,0.00,0.00,0.00,0.0000,0.0000,0.0000,0.0000,0.0000,0.0000,0.0000,0.00,0.00,0.00,1.0380,0.3600,1.2980,1.1130,2.6930,1,0.0000,0.0000,0.0000,0.0000,0.0000,0
2697,1.3304,1.9294,0.0108,0.0070,-0.0086,0.0004,-0.51,0.58,-115.70,0,3.922,-0.133,0.190,0.350,0.014,-0.009,1.001,0.000,0.000,0.000,0.0130,-6,-8,0.00,0.00,0.00,0.0000,0.0000,0.0000,0.0000,0.0000,0.0000,0.0000,0.00,0.00,0.00,1.0330,0.3580,1.2980,1.1130,2.6930,4,0.0000,0.0000,0.0000,0.0000,0.0000,0
2749,1.3300,1.9314,0.0109,0.0046,0.0012,0.0020,-0.53,0.56,-115.21,0,3.917,0.176,0.008,-0.379,0.011,-0.007,1.000,0.000,0.000,0.000,0.0080,16,-7,0.00,0.00,0.00,0.0000,0.0000,0.0000,0.0000,0.0000,0.0000,0.0000,0.00,0.00,0.00,1.0330,0.3580,1.2980,1.1130,2.6960,2,0.0000,0.0000,0.0000,0.0000,0.0000,0
2801,1.3304,1.9312,0.0110,0.0063,0.0009,0.0025,-0.55,0.58,-114.73,0,3.917,0.016,-0.011,-0.119,0.011,-0.010,1.000,0.000,0.000,0.000,0.0080,0,2,0.00,0.00,0.00,0.0000,0.0000,0.0000,0.0000,0.0000,0.0000,0.0000,0.00,0.00,0.00,1.0290,0.3720,1.2980,1.1130,2.6960,2,0.0000,0.0000,0.0000,0.0000,0.0000,0
2852,1.3295,1.9311,0.0089,0.0020,0.0005,-0.0075,-0.55,0.58,-114.25,0,3.917,0.057,-0.186,-0.056,0.011,-0.009,0.999,0.000,0.000,0.000,0.0120,-9,-2,0.00,0.00,0.00,0.0000,0.0000,0.0000,0.0000,0.0000,0.0000,0.0000,0.00,0.00,0.00,1.0290,0.3720,1.2980,1.1180,2.7100,2,0.0000,0.0000,0.0000,0.0000,0.0000,0
2903,1.3278,1.9309,0.0086,-0.0078,-0.0002,-0.0074,-0.51,0.57,-113.77,0,3.917,-0.020,0.002,0.128,0.010,-0.008,0.999,0.000,0.000,0.000,0.0100,3,-3,0.00,0.00,0.00,0.0000,0.0000,0.0000,0.0000,0.0000,0.0000,0.0000,0.00,0.00,0.00,1.0300,0.3590,1.2980,1.1180,2.7100,2,0.0000,0.0000,0.0000,0.0000,0.0000,0
2955,1.3299,1.9309,0.0101,0.0043,0.0005,0.0004,-0.52,0.58,-113.29,0,3.917,-0.244,-0.240,-0.032,0.011,-0.008,0.998,0.000,0.000,0.000,0.0120,-3,-2,0.00,0.00,0.00,0.0000,0.0000,0.0000,0.0000,0.0000,0.0000,0.0000,0.00,0.00,0.00,1.0300,0.3590,1.2970,1.1190,2.6970,2,0.0000,0.0000,0.0000,0.0000,0.0000,0
3006,1.3291,1.9306,0.0101,-0.0000,-0.0018,0.0002,-0.50,0.58,-112.81,0,3.917,0.016,-0.165,-0.144,0.012,-0.008,1.000,0.000,0.000,0.000,0.0090,-5,-3,0.00,0.00,0.00,0.0000,0.0000,0.0000,0.0000,0.0000,0.0000,0.0000,0.00,0.00,0.00,1.0310,0.3690,1.2970,1.1190,2.6970,4,0.0000,0.0000,0.0000,0.0000,0.0000,0
3057,1.3293,1.9317,0.0103,0.0015,0.0041,-0.0002,-0.51,0.59,-112.34,0,3.917,0.043,0.012,-0.018,0.010,-0.010,1.004,0.000,0.000,0.000,0.0120,1,3,0.00,0.00,0.00,0.0000,0.0000,0.0000,0.0000,0.0000,0.0000,0.0000,0.00,0.00,0.00,1.0310,0.3690,1.3010,1.1180,2.7020,4,0.0000,0.0000,0.0000,0.0000,0.0000,0
3108,1.3293,1.9299,0.0103,0.0005,-0.0062,0.0001,-0.53,0.58,-111.86,0,3.917,-0.191,0.014,-0.248,0.009,-0.010,0.997,0.000,0.000,0.000,0.0130,-1,-4,0.00,0.00,0.00,0.0000,0.0000,0.0000,0.0000,0.0000,0.0000,0.0000,0.00,0.00,0.00,1.0340,0.0000,1.3010,1.1180,2.7020,4,0.0000,0.0000,0.0000,0.0000,0.0000,0
3159,1.3292,1.9308,0.0119,0.0000,-0.0007,0.0075,-0.53,0.54,-111.39,0,3.922,-0.145,-0.151,-0.103,0.010,-0.009,1.000,0.000,0.000,0.000,0.0110,0,-6,0.00,0.00,0.00,0.0000,0.0000,0.0000,0.0000,0.0000,0.0000,0.0000,0.00,0.00,0.00,1.0340,0.0000,1.2960,1.1140,2.7010,4,0.0000,0.0000,0.0000,0.0000,0.0000,0
3210,1.3306,1.9312,0.0123,0.0074,0.0022,0.0074,-0.51,0.57,-110.92,0,3.917,-0.051,-0.073,0.205,0.011,-0.009,1.001,0.000,0.000,0.000,0.0110,2,2,0.00,0.00,0.00,0.0000,0.0000,0.0000,0.0000,0.0000,0.0000,0.0000,0.00,0.00,0.00,1.0340,0.3590,1.2960,1.1140,2.7010,6,0.0000,0.0000,0.0000,0.0000,0.0000,0
3261,1.3294,1.9300,0.0116,0.0006,-0.0043,0.0021,-0.52,0.58,-110.45,0,3.911,0.026,0.163,0.160,0.012,-0.010,0.998,0.000,0.000,0.000,0.0110,13,3,0.00,0.00,0.00,0.0000,0.0000,0.0000,0.0000,0.0000,0.0000,0.0000,0.00,0.00,0.00,1.0340,0.3590,1.2950,1.1150,2.6980,6,0.0000,0.0000,0.0000,0.0000,0.0000,0
3312,1.3290,1.9296,0.0117,-0.0017,-0.0061,0.0012,-0.52,0.58,-109.98,0,3.917,-0.091,-0.088,0.073,0.011,-0.009,1.000,0.000,0.000,0.000,0.0120,-1,1,0.00,0.00,0.00,0.0000,0.0000,0.0000,0.0000,0.0000,0.0000,0.0000,0.00,0.00,0.00,1.0320,0.3810,1.2950,1.1150,2.6980,8,0.0000,0.0000,0.0000,0.0000,0.0000,0
3364,1.3290,1.9301,0.0117,-0.0015,-0.0038,0.0013,-0.53,0.56,-109.51,0,3.917,-0.060,0.133,0.091,0.012,-0.010,0.999,0.000,0.000,0.000,0.0110,-3,1,0.00,0.00,0.00,0.0000,0.0000,0.0000,0.0000,0.0000,0.0000,0.0000,0.00,0.00,0.00,1.0320,0.3810,1.2980,1.1160,2.6930,8,0.0000,0.0000,0.0000,0.0000,0.0000,0
3415,1.3290,1.9303,0.0117,-0.0012,-0.0027,0.0011,-0.55,0.56,-109.04,0,3.917,-0.186,-0.065,-0.087,0.011,-0.007,0.999,0.000,0.000,0.000,0.0120,1,-3,0.00,0.00,0.00,0.0000,0.0000,0.0000,0.0000,0.0000,0.0000,0.0000,0.00,0.00,0.00,1.0360,0.0000,1.2980,1.1160,2.6930,8,0.0000,0.0000,0.0000,0.0000,0.0000,0
3467,1.3289,1.9306,0.0116,-0.0019,-0.0011,0.0003,-0.54,0.57,-108.57,0,3.922,0.047,-0.049,0.026,0.010,-0.010,0.999,0.000,0.000,0.000,0.0110,-5,3,0.00,0.00,0.00,0.0000,0.0000,0.0000,0.0000,0.0000,0.0000,0.0000,0.00,0.00,0.00,1.0360,0.0000,1.2970,1.1180,2.7040,8,0.0000,0.0000,0.0000,0.0000,0.0000,0
3518,1.3289,1.9298,0.0117,-0.0015,-0.0052,0.0001,-0.53,0.55,-108.11,0,3.917,0.061,0.028,-0.271,0.010,-0.009,0.997,0.000,0.000,0.000,0.0080,5,1,0.00,0.00,0.00,0.0000,0.0000,0.0000,0.0000,0.0000,0.0000,0.0000,0.00,0.00,0.00,1.0330,0.3490,1.2970,1.1180,2.7040,0,0.0000,0.0000,0.0000,0.0000,0.0000,0
3569,1.3289,1.9308,0.0100,-0.0014,0.0005,-0.0086,-0.52,0.55,-107.64,0,3.911,-0.037,-0.123,0.146,0.010,-0.011,0.997,0.000,0.000,0.000,0.0120,-3,0,0.00,0.00,0.00,0.0000,0.0000,0.0000,0.0000,0.0000,0.0000,0.0000,0.00,0.00,0.00,1.0330,0.3490,1.3020,1.1160,2.7030,0,0.0000,0.0000,0.0000,0.0000,0.0000,0
3620,1.3296,1.9299,0.0096,0.0020,-0.0045,-0.0092,-0.52,0.58,-107.18,0,3.917,-0.074,-0.199,-0.055,0.012,-0.009,0.999,0.000,0.000,0.000,0.0110,-5,-1,0.00,0.00,0.00,0.0000,0.0000,0.0000,0.0000,0.0000,0.0000,0.0000,0.00,0.00,0.00,1.0340,0.0000,1.3020,1.1160,2.7030,0,0.0000,0.0000,0.0000,0.0000,0.0000,0
3671,1.3290,1.9301,0.0107,-0.0010,-0.0028,-0.0026,-0.53,0.56,-106.73,0,3.922,0.137,-0.053,0.192,0.011,-0.008,0.999,0.000,0.000,0.000,0.0110,0,-8,0.00,0.00,0.00,0.0000,0.0000,0.0000,0.0000,0.0000,0.0000,0.0000,0.00,0.00,0.00,1.0340,0.0000,1.3000,1.1180,2.6930,0,0.0000,0.0000,0.0000,0.0000,0.0000,0
3722,1.3300,1.9312,0.0105,0.0039,0.0034,-0.0024,-0.52,0.59,-106.27,0,3.917,-0.169,-0.081,0.125,0.010,-0.011,1.000,0.000,0.000,0.000,0.0140,2,-2,0.00,0.00,0.00,0.0000,0.0000,0.0000,0.0000,0.0000,0.0000,0.0000,0.00,0.00,0.00,1.0300,0.3570,1.3000,1.1180,2.6930,7,0.0000,0.0000,0.0000,0.0000,0.0000,0
3772,1.3291,1.9305,0.0120,-0.0010,-0.0004,0.0056,-0.51,0.59,-105.81,0,3.917,-0.009,-0.139,0.124,0.012,-0.009,0.998,0.000,0.000,0.000,0.0100,-4,-5,0.00,0.00,0.00,0.0000,0.0000,0.0000,0.0000,0.0000,0.0000,0.0000,0.00,0.00,0.00,1.0300,0.3570,1.2970,1.1160,2.7050,7,0.0000,0.0000,0.0000,0.0000,0.0000,0
3824,1.3294,1.9316,0.0123,0.0003,0.0050,0.0051,-0.55,0.58,-105.35,0,3.917,0.169,-0.129,-0.139,0.012,-0.011,1.000,0.000,0.000,0.000,0.0110,0,-2,0.00,0.00,0.00,0.0000,0.0000,0.0000,0.0000,0.0000,0.0000,0.0000,0.00,0.00,0.00,1.0330,0.0000,1.2970,1.1160,2.7050,1,0.0000,0.0000,0.0000,0.0000,0.0000,0
3875,-0.0000,-0.0000,0.0110,-0.0006,-0.0028,-0.0000,-0.03,0.01,0.00,0,3.917,0.074,0.034,-0.014,0.009,-0.010,0.998,0.000,0.000,0.000,0.0080,-3,0,0.00,0.00,0.00,0.0000,0.0000,0.0000,0.0000,0.0000,0.0000,0.0000,0.00,0.00,0.00,1.0330,0.0000,1.2960,1.1170,2.6980,1,0.0000,0.0000,0.0000,0.0000,0.0000,0
3926,0.0003,-0.0001,0.0110,0.0086,-0.0045,-0.0001,-0.13,-0.00,0.00,0,3.917,-0.252,0.018,0.300,0.013,-0.010,1.000,0.000,0.000,0.000,0.0100,3,-3,0.00,0.00,0.00,0.0000,0.0000,0.0000,0.0000,0.0000,0.0000,0.0000,0.00,0.00,0.00,1.0350,0.3530,1.2960,1.1170,2.6980,0,0.0000,0.0000,0.0000,0.0000,0.0000,0
3977,0.0004,-0.0005,0.0096,0.0080,-0.0089,-0.0010,0.07,0.20,0.01,0,3.922,-0.486,-0.027,0.111,0.012,-0.009,1.000,0.000,0.000,0.000,0.0080,1,-4,0.00,0.00,0.00,0.0000,0.0000,0.0000,0.0000,0.0000,0.0000,0.0000,0.00,0.00,0.00,1.0350,0.3530,1.2960,1.1160,2.6960,0,0.0000,0.0000,0.0000,0.0000,0.0000,0
4029,0.0005,-0.0000,0.0096,0.0083,-0.0012,-0.0007,-0.31,0.31,0.01,0,3.917,0.007,-0.195,-0.338,0.011,-0.011,0.998,0.000,0.000,0.000,0.0120,-4,2,0.00,0.00,0.00,0.0000,0.0000,0.0000,0.0000,0.0000,0.0000,0.0000,0.00,0.00,0.00,1.0310,0.0000,1.2960,1.1160,2.6960,0,0.0000,0.0000,0.0000,0.0000,0.0000,0
4080,0.0009,-0.0004,0.0100,0.0113,-0.0051,0.0032,-0.40,0.40,0.01,0,3.922,-0.038,-0.287,-0.315,0.012,-0.008,1.000,0.000,0.000,0.000,0.0120,3,1,0.00,0.00,0.00,0.0000,0.0000,0.0000,0.0000,0.0000,0.0000,0.0000,0.00,0.00,0.00,1.0310,0.0000,1.2970,1.1140,2.7070,5,0.0000,0.0000,0.0000,0.0000,0.0000,0
4130,0.0006,0.0006,0.0103,0.0070,0.0049,0.0032,-0.23,0.44,0.00,0,3.917,0.054,0.009,0.009,0.011,-0.009,0.999,0.000,0.000,0.000,0.0090,-7,5,0.00,0.00,0.00,0.0000,0.0000,0.0000,0.0000,0.0000,0.0000,0.0000,0.00,0.00,0.00,1.0320,0.0000,1.2970,1.1140,2.7070,5,0.0000,0.0000,0.0000,0.0000,0.0000,0
4181,0.0006,-0.0015,0.0104,0.0060,-0.0134,0.0024,-0.38,0.47,0.01,0,3.911,0.036,-0.130,-0.062,0.011,-0.010,1.001,0.000,0.000,0.000,0.0110,9,0,0.00,0.00,0.00,0.0000,0.0000,0.0000,0.0000,0.0000,0.0000,0.0000,0.00,0.00,0.00,1.0320,0.0000,1.2940,1.1180,2.7030,5,0.0000,0.0000,0.0000,0.0000,0.0000,0
4233,-0.0006,0.0010,0.0106,-0.0026,0.0081,0.0031,-0.44,0.56,0.00,0,3.917,0.110,-0.173,0.007,0.014,-0.009,1.002,0.000,0.000,0.000,0.0110,5,-1,0.00,0.00,0.00,0.0000,0.0000,0.0000,0.0000,0.0000,0.0000,0.0000,0.00,0.00,0.00,1.0350,0.3690,1.2940,1.1180,2.7030,1,0.0000,0.0000,0.0000,0.0000,0.0000,0
4285,0.0003,-0.0003,0.0110,0.0048,-0.0024,0.0039,-0.32,0.49,0.00,0,3.917,-0.085,-0.354,0.155,0.009,-0.010,0.999,0.000,0.000,0.000,0.0120,0,0,0.00,0.00,0.00,0.0000,0.0000,0.0000,0.0000,0.0000,0.0000,0.0000,0.00,0.00,0.00,1.0350,0.3690,1.3030,1.1170,2.6990,1,0.0000,0.0000,0.0000,0.0000,0.0000,0
4337,0.0003,-0.0015,0.0112,0.0038,-0.0097,0.0040,-0.44,0.54,0.01,0,3.917,-0.074,0.082,-0.091,0.012,-0.009,0.999,0.000,0.000,0.000,0.0100,-1,0,0.00,0.00,0.00,0.0000,0.0000,0.0000,0.0000,0.0000,0.0000,0.0000,0.00,0.00,0.00,1.0330,0.0000,1.3030,1.1170,2.6990,0,0.0000,0.0000,0.0000,0.0000,0.0000,0
4389,0.0003,-0.0005,0.0111,0.0032,-0.0023,0.0015,-0.48,0.60,0.01,0,3.922,0.010,-0.035,-0.037,0.010,-0.010,0.999,0.000,0.000,0.000,0.0110,5,-4,0.00,0.00,0.00,0.0000,0.0000,0.0000,0.0000,0.0000,0.0000,0.0000,0.00,0.00,0.00,1.0330,0.0000,1.3000,1.1150,2.7020,0,0.0000,0.0000,0.0000,0.0000,0.0000,0
4440,0.0003,0.0008,0.0112,0.0028,0.0061,0.0013,-0.50,0.50,0.01,0,3.917,-0.326,0.005,0.204,0.014,-0.007,0.999,0.000,0.000,0.000,0.0120,-1,-3,0.00,0.00,0.00,0.0000,0.0000,0.0000,0.0000,0.0000,0.0000,0.0000,0.00,0.00,0.00,1.0260,0.0000,1.3000,1.1150,2.7020,4,0.0000,0.0000,0.0000,0.0000,0.0000,0
4491,0.0005,0.0001,0.0115,0.0036,0.0011,0.0022,-0.45,0.52,0.01,0,3.917,0.147,-0.288,-0.354,0.010,-0.008,0.999,0.000,0.000,0.000,0.0090,-2,2,0.00,0.00,0.00,0.0000,0.0000,0.0000,0.0000,0.0000,0.0000,0.0000,0.00,0.00,0.00,1.0260,0.0000,1.2980,1.1150,2.6990,4,0.0000,0.0000,0.0000,0.0000,0.0000,0
4542,0.0012,0.0005,0.0116,0.0067,0.0041,0.0018,-0.47,0.63,0.01,0,3.917,-0.117,0.369,-0.133,0.011,-0.008,1.000,0.000,0.000,0.000,0.0120,3,3,0.00,0.00,0.00,0.0000,0.0000,0.0000,0.0000,0.0000,0.0000,0.0000,0.00,0.00,0.00,1.0330,0.3480,1.2980,1.1150,2.6990,4,0.0000,0.0000,0.0000,0.0000,0.0000,0
4594,0.0005,0.0008,0.0110,0.0024,0.0056,-0.0004,-0.54,0.62,0.01,0,3.917,-0.179,-0.004,0.222,0.009,-0.011,0.997,0.000,0.000,0.000,0.0110,1,-8,0.00,0.00,0.00,0.0000,0.0000,0.0000,0.0000,0.0000,0.0000,0.0000,0.00,0.00,0.00,1.0330,0.3480,1.2970,1.1140,2.6980,3,0.0000,0.0000,0.0000,0.0000,0.0000,0
4645,-0.0007,0.0015,0.0111,-0.0047,0.0089,-0.0007,-0.50,0.59,0.02,0,3.917,0.089,-0.049,0.053,0.013,-0.008,0.999,0.000,0.000,0.000,0.0130,-8,1,0.00,0.00,0.00,0.0000,0.0000,0.0000,0.0000,0.0000,0.0000,0.0000,0.00,0.00,0.00,1.0320,0.0000,1.2970,1.1140,2.6980,3,0.0000,0.0000,0.0000,0.0000,0.0000,0
4696,0.0004,-0.0012,0.0118,0.0022,-0.0063,0.0037,-0.54,0.61,0.02,0,3.917,-0.149,-0.106,0.093,0.009,-0.009,0.995,0.000,0.000,0.000,0.0110,0,-4,0.00,0.00,0.00,0.0000,0.0000,0.0000,0.0000,0.0000,0.0000,0.0000,0.00,0.00,0.00,1.0320,0.0000,1.2930,1.1150,2.7010,3,0.0000,0.0000,0.0000,0.0000,0.0000,0
4747,0.0005,0.0008,0.0121,0.0019,0.0049,0.0033,-0.53,0.55,0.01,0,3.906,-0.189,-0.081,-0.050,0.009,-0.009,1.001,0.000,0.000,0.000,0.0120,-3,-2,0.00,0.00,0.00,0.0000,0.0000,0.0000,0.0000,0.0000,0.0000,0.0000,0.00,0.00,0.00,1.0330,0.3530,1.2930,1.1150,2.7010,4,0.0000,0.0000,0.0000,0.0000,0.0000,0
4797,-0.0000,-0.0015,0.0118,-0.0011,-0.0077,0.0016,-0.54,0.60,0.01,0,3.917,-0.075,0.373,0.001,0.011,-0.008,0.998,0.000,0.000,0.000,0.0100,-4,0,0.00,0.00,0.00,0.0000,0.0000,0.0000,0.0000,0.0000,0.0000,0.0000,0.00,0.00,0.00,1.0330,0.3530,1.3010,1.1220,2.6920,4,0.0000,0.0000,0.0000,0.0000,0.0000,0
4848,0.0004,0.0001,0.0119,0.0014,0.0007,0.0009,-0.49,0.57,0.01,0,3.917,0.181,0.110,-0.397,0.012,-0.007,1.000,0.000,0.000,0.000,0.0110,-10,-4,0.00,0.00,0.00,0.0000,0.0000,0.0000,0.0000,0.0000,0.0000,0.0000,0.00,0.00,0.00,1.0280,0.3510,1.3010,1.1220,2.6920,1,0.0000,0.0000,0.0000,0.0000,0.0000,0
4900,0.0002,-0.0009,0.0110,0.0002,-0.0046,-0.0034,-0.48,0.60,0.01,0,3.922,-0.080,0.088,0.123,0.011,-0.010,1.002,0.000,0.000,0.000,0.0110,-9,-2,0.00,0.00,0.00,0.0000,0.0000,0.0000,0.0000,0.0000,0.0000,0.0000,0.00,0.00,0.00,1.0280,0.3510,1.2960,1.1160,2.6990,1,0.0000,0.0000,0.0000,0.0000,0.0000,0
4950,0.0004,-0.0013,0.0109,0.0016,-0.0072,-0.0035,-0.50,0.66,0.02,0,3.911,-0.177,0.281,0.130,0.011,-0.006,0.999,0.000,0.000,0.000,0.0130,-2,-5,0.00,0.00,0.00,0.0000,0.0000,0.0000,0.0000,0.0000,0.0000,0.0000,0.00,0.00,0.00,1.0350,0.3490,1.2960,1.1160,2.6990,1,0.0000,0.0000,0.0000,0.0000,0.0000,0
5002,-0.0003,0.0003,0.0117,-0.0015,0.0016,0.0017,-0.47,0.60,0.02,0,3.911,-0.002,-0.089,-0.153,0.010,-0.008,1.000,0.000,0.000,0.000,0.0100,5,8,0.00,0.00,0.00,0.0000,0.0000,0.0000,0.0000,0.0000,0.0000,0.0000,0.00,0.00,0.00,1.0350,0.3490,1.2950,1.1160,2.7010,0,0.0000,0.0000,0.0000,0.0000,0.0000,0
5053,0.0011,0.0008,0.0118,0.0051,0.0039,0.0019,-0.47,0.62,0.02,0,3.906,0.058,0.008,0.212,0.013,-0.011,1.001,0.000,0.000,0.000,0.0140,-5,-3,0.00,0.00,0.00,0.0000,0.0000,0.0000,0.0000,0.0000,0.0000,0.0000,0.00,0.00,0.00,1.0300,0.3650,1.2950,1.1160,2.7010,0,0.0000,0.0000,0.0000,0.0000,0.0000,0
5105,0.0002,-0.0003,0.0123,0.0016,-0.0017,0.0051,-0.52,0.58,0.02,0,3.510,0.379,1.007,1.284,0.008,-0.001,0.992,0.000,0.000,0.000,0.0120,5,0,0.00,0.00,0.00,0.0000,0.0000,0.0000,0.0000,0.0000,0.0000,0.0000,0.00,0.00,0.00,1.0300,0.3650,1.2990,1.1170,2.7030,0,0.0000,0.0000,0.0000,0.0000,0.0000,0
5156,0.0008,0.0013,0.0125,0.0041,0.0073,0.0050,-0.50,0.62,0.03,0,3.584,1.020,-0.465,0.326,0.012,-0.016,0.999,0.000,0.000,0.000,0.0100,-4,4,0.00,0.00,0.00,0.0000,0.0000,0.0000,0.0000,0.0000,0.0000,0.0000,0.00,0.00,0.00,1.0340,0.3660,1.2990,1.1170,2.7030,5,0.0000,0.0000,0.0000,0.0000,0.0000,0
5207,0.0002,-0.0011,0.0115,-0.0047,-0.0022,-0.0014,-0.47,0.64,0.03,0,3.621,0.551,-0.436,-1.169,0.008,-0.011,1.000,0.000,0.000,0.000,0.0110,3,0,0.00,0.00,0.00,0.0000,0.0000,0.0000,0.0000,0.0000,0.0000,0.0000,0.00,0.00,0.00,1.0340,0.3660,1.2960,1.1130,2.7030,5,0.0000,0.0000,0.0000,0.0000,0.0000,0
5258,0.0002,0.0010,0.0114,-0.0079,0.0119,-0.0024,-0.45,0.70,-0.03,0,3.642,-1.271,-1.086,1.987,-0.019,-0.041,1.004,0.000,0.000,0.000,0.0110,0,-9,0.00,0.00,0.00,0.0000,0.0000,0.0000,0.0000,0.0000,0.0000,0.0000,0.00,0.00,0.00,1.0270,0.0000,1.2960,1.1130,2.7030,3,0.0000,0.0000,0.0000,0.0000,0.0000,0
5309,-0.0009,-0.0012,0.0110,-0.0161,0.0024,-0.0053,-0.39,0.67,-0.04,0,3.653,-5.487,-1.259,2.285,0.016,0.012,0.972,0.000,0.000,0.000,0.0100,0,0,0.00,0.00,0.00,0.0000,0.0000,0.0000,0.0000,0.0000,0.0000,0.0000,0.00,0.00,0.00,1.0270,0.0000,1.2930,1.1150,2.7030,3,0.0000,0.0000,0.0000,0.0000,0.0000,0
5359,-0.0008,-0.0041,0.0108,-0.0171,-0.0100,-0.0087,-0.23,0.66,0.11,0,3.658,2.857,-0.265,-7.712,-0.009,-0.017,1.025,0.000,0.000,0.000,0.0110,-6,-5,0.00,0.00,0.00,0.0000,0.0000,0.0000,0.0000,0.0000,0.0000,0.0000,0.00,0.00,0.00,1.0340,0.3630,1.2930,1.1150,2.7030,3,0.0000,0.0000,0.0000,0.0000,0.0000,0
5410,-0.0018,-0.0047,0.0104,-0.0230,-0.0083,-0.0049,-0.30,0.59,-0.07,0,3.653,0.725,3.257,-8.902,0.009,-0.040,1.037,0.000,0.000,0.000,0.0130,0,0,0.00,0.00,0.00,0.0000,0.0000,0.0000,0.0000,0.0000,0.0000,0.0000,0.00,0.00,0.00,1.0340,0.3630,1.3000,1.1160,2.6960,1,0.0000,0.0000,0.0000,0.0000,0.0000,0
5461,-0.0002,-0.0006,0.0102,-0.0157,0.0148,-0.0040,-0.40,0.58,-0.58,0,3.653,4.298,-0.019,-2.229,0.012,-0.006,1.049,0.000,0.000,0.000,0.0110,0,0,0.00,0.00,0.00,0.0000,0.0000,0.0000,0.0000,0.0000,0.0000,0.0000,0.00,0.00,0.00,1.0340,0.3480,1.3000,1.1160,2.6960,1,0.0000,0.0000,0.0000,0.0000,0.0000,0
5513,-0.0012,0.0002,0.0112,-0.0209,0.0185,0.0043,-0.43,0.60,-0.67,0,3.648,1.592,-0.622,1.107,0.013,-0.009,1.009,0.000,0.000,0.000,0.0120,0,0,0.00,0.00,0.00,0.0000,0.0000,0.0000,0.0000,0.0000,0.0000,0.0000,0.00,0.00,0.00,1.0340,0.3480,1.2970,1.1130,2.6990,0,0.0000,0.0000,0.0000,0.0000,0.0000,0
5564,-0.0023,0.0012,0.0112,-0.0260,0.0221,0.0028,-0.47,0.55,-0.61,0,3.642,6.046,-3.276,1.680,0.010,-0.005,0.994,0.000,0.000,0.000,0.0130,0,0,0.00,0.00,0.00,0.0000,0.0000,0.0000,0.0000,0.0000,0.0000,0.0000,0.00,0.00,0.00,1.0350,0.3360,1.2970,1.1130,2.6990,0,0.0000,0.0000,0.0000,0.0000,0.0000,0
5616,-0.0038,0.0024,0.0122,-0.0307,0.0263,0.0022,-0.47,0.64,-0.42,0,3.642,-13.612,10.133,1.975,-0.001,-0.021,0.958,0.000,0.000,0.000,0.0120,0,0,0.00,0.00,0.00,0.0000,0.0000,0.0000,0.0000,0.0000,0.0000,0.0000,0.00,0.00,0.00,1.0350,0.3360,1.2930,1.1200,2.6980,0,0.0000,0.0000,0.0000,0.0000,0.0000,0
5667,-0.0054,0.0038,0.0124,-0.0364,0.0299,0.0020,-0.63,0.51,-0.32,0,3.642,3.316,2.703,-2.714,0.006,0.005,0.995,0.000,0.000,0.000,0.0100,0,0,0.00,0.00,0.00,0.0000,0.0000,0.0000,0.0000,0.0000,0.0000,0.0000,0.00,0.00,0.00,1.0390,0.3450,1.2930,1.1200,2.6980,5,0.0000,0.0000,0.0000,0.0000,0.0000,0
5718,-0.0074,0.0054,0.0114,-0.0410,0.0352,-0.0077,-0.55,0.65,-0.33,0,3.632,-0.561,3.292,12.553,0.022,0.004,1.021,0.000,0.000,0.000,0.0140,0,0,0.00,0.00,0.00,0.0000,0.0000,0.0000,0.0000,0.0000,0.0000,0.0000,0.00,0.00,0.00,1.0390,0.3450,1.2980,1.1190,2.7010,5,0.0000,0.0000,0.0000,0.0000,0.0000,0
5770,-0.0096,0.0073,0.0113,-0.0462,0.0402,-0.0004,-0.63,0.57,0.10,0,3.632,-5.355,-0.177,-4.004,0.008,-0.014,0.990,0.000,0.000,0.000,0.0140,0,0,0.00,0.00,0.00,0.0000,0.0000,0.0000,0.0000,0.0000,0.0000,0.0000,0.00,0.00,0.00,1.0410,0.3600,1.2980,1.1190,2.7010,5,0.0000,0.0000,0.0000,0.0000,0.0000,0
5821,-0.0120,0.0095,0.0132,-0.0511,0.0454,0.0050,-0.63,0.51,0.12,0,3.621,6.031,-4.790,-11.703,0.014,-0.014,1.009,0.000,0.000,0.000,0.0080,0,0,0.00,0.00,0.00,0.0000,0.0000,0.0000,0.0000,0.0000,0.0000,0.0000,0.00,0.00,0.00,1.0410,0.3600,1.2970,1.1200,2.7000,5,0.0000,0.0000,0.0000,0.0000,0.0000,0
5873,-0.0147,0.0119,0.0133,-0.0558,0.0503,0.0025,-0.37,0.65,-0.43,0,3.621,10.309,9.078,-9.142,-0.003,-0.014,1.030,0.000,0.000,0.000,0.0070,0,0,0.00,0.00,0.00,0.0000,0.0000,0.0000,0.0000,0.0000,0.0000,0.0000,0.00,0.00,0.00,1.0410,0.0000,1.2970,1.1200,2.7000,4,0.0000,0.0000,0.0000,0.0000,0.0000,0
5924,-0.0177,0.0145,0.0092,-0.0612,0.0523,-0.0108,0.10,0.47,-0.87,0,3.605,-27.354,23.301,-2.713,0.001,-0.001,1.004,0.000,0.000,0.000,0.0130,0,0,0.00,0.00,0.00,0.0000,0.0000,0.0000,0.0000,0.0000,0.0000,0.0000,0.00,0.00,0.00,1.0410,0.0000,1.2950,1.0600,2.6970,0,0.0000,0.0000,0.0000,0.0000,0.0000,0
5976,-0.0209,0.0172,0.0084,-0.0644,0.0531,-0.0199,-0.87,-0.43,-1.11,0,3.605,48.732,24.639,-1.192,-0.015,-0.020,1.009,0.000,0.000,0.000,0.0160,-41,-2,0.00,0.00,0.00,0.0000,0.0000,0.0000,0.0000,0.0000,0.0000,0.0000,0.00,0.00,0.00,1.0300,0.0000,1.2950,1.0600,2.6970,0,0.0000,0.0000,0.0000,0.0000,0.0000,0
6027,-0.0147,-0.0230,0.0128,-0.0347,-0.0559,0.0226,0.68,-1.65,-1.31,0,3.600,-10.614,1.972,-4.778,-0.012,-0.000,1.030,0.000,0.000,0.000,0.0090,-6,-3,0.00,0.00,0.00,0.0000,0.0000,0.0000,0.0000,0.0000,0.0000,0.0000,0.00,0.00,0.00,1.0300,0.0000,1.2830,0.0000,2.6940,0,0.0000,0.0000,0.0000,0.0000,0.0000,0
6079,0.0084,0.0908,0.0125,0.0415,0.2269,0.0227,-0.66,-1.99,-1.54,0,3.600,-0.283,-32.786,1.196,-0.005,0.006,1.042,0.000,0.000,0.000,0.0000,-27,-22,0.00,0.00,0.00,0.0000,0.0000,0.0000,0.0000,0.0000,0.0000,0.0000,0.00,0.00,0.00,1.0210,0.2040,1.2830,0.0000,2.6940,2,0.0000,0.0000,0.0000,0.0000,0.0000,0
6130,0.0254,0.0963,0.0069,0.0945,0.2180,-0.0014,-0.69,-1.18,-1.52,0,3.584,72.953,-30.493,3.186,-0.007,-0.010,1.041,0.000,0.000,0.000,0.0000,-15,-3,0.00,0.00,0.00,0.0000,0.0000,0.0000,0.0000,0.0000,0.0000,0.0000,0.00,0.00,0.00,1.0210,0.2040,1.2850,1.1280,2.7010,2,0.0000,0.0000,0.0000,0.0000,0.0000,0
6182,0.0420,0.1206,0.0055,0.1308,0.2513,0.0052,2.80,0.48,-1.38,0,3.579,9.430,-35.266,3.574,0.005,-0.004,1.017,0.000,0.000,0.000,0.0000,3,-1,0.00,0.00,0.00,0.0000,0.0000,0.0000,0.0000,0.0000,0.0000,0.0000,0.00,0.00,0.00,1.0490,0.2500,1.2850,1.1280,2.7010,6,0.0000,0.0000,0.0000,0.0000,0.0000,0
6233,0.0432,0.1173,0.0027,0.1075,0.1791,0.0006,4.17,2.35,-1.33,0,3.574,-3.888,2.786,-2.196,0.000,-0.004,1.039,0.000,0.000,0.000,0.0000,10,4,0.00,0.00,0.00,0.0000,0.0000,0.0000,0.0000,0.0000,0.0000,0.0000,0.00,0.00,0.00,1.0490,0.2500,1.3470,0.2300,2.6990,6,0.0000,0.0000,0.0000,0.0000,0.0000,0
6284,0.0342,0.0952,0.0036,0.0405,0.0459,0.0238,4.68,2.82,-1.35,0,3.563,-29.140,21.561,-3.494,-0.000,0.002,1.050,0.000,0.000,0.000,0.0030,27,19,0.00,0.00,0.00,0.0000,0.0000,0.0000,0.0000,0.0000,0.0000,0.0000,0.00,0.00,0.00,1.0670,0.2550,1.3470,0.2300,2.6990,6,0.0000,0.0000,0.0000,0.0000,0.0000,0
6336,0.0194,0.0737,0.0016,-0.0387,-0.0672,0.0249,3.68,2.57,-1.41,0,3.552,-39.256,14.720,-1.786,-0.001,0.003,1.064,0.000,0.000,0.000,0.0120,15,10,0.00,0.00,0.00,0.0000,0.0000,0.0000,0.0000,0.0000,0.0000,0.0000,0.00,0.00,0.00,1.0670,0.2550,1.3440,1.1030,2.6900,11,0.0000,0.0000,0.0000,0.0000,0.0000,0
6388,0.0015,0.0461,-0.0020,-0.1165,-0.1812,0.0245,2.28,2.17,-1.39,0,3.563,-57.046,41.246,-4.561,0.009,-0.003,1.041,0.000,0.000,0.000,0.0220,17,25,0.00,0.00,0.00,0.0000,0.0000,0.0000,0.0000,0.0000,0.0000,0.0000,0.00,0.00,0.00,1.0630,0.0000,1.3440,1.1030,2.6900,11,0.0000,0.0000,0.0000,0.0000,0.0000,0
6440,-0.0140,0.0372,0.0131,-0.1702,-0.1907,0.1163,-0.56,0.23,-1.42,0,3.563,-39.334,42.022,-2.897,-0.002,0.002,1.050,0.000,0.000,0.000,0.0340,6,10,0.00,0.00,0.00,0.0000,0.0000,0.0000,0.0000,0.0000,0.0000,0.0000,0.00,0.00,0.00,1.0630,0.0000,1.3110,1.1230,2.6770,7,0.0000,0.0000,0.0000,0.0000,0.0000,0
6492,-0.0278,0.0319,0.0193,-0.1912,-0.1631,0.1412,-2.80,-1.76,-1.55,0,3.574,14.976,38.392,3.144,0.005,-0.000,1.026,0.000,0.000,0.000,0.0430,2,8,0.00,0.00,0.00,0.0000,0.0000,0.0000,0.0000,0.0000,0.0000,0.0000,0.00,0.00,0.00,1.0510,0.0000,1.3110,1.1230,2.6770,7,0.0000,0.0000,0.0000,0.0000,0.0000,0
6542,-0.0376,0.0250,0.0384,-0.1715,-0.1305,0.2139,-2.54,-3.68,-1.50,0,3.574,2.231,12.844,6.563,0.010,-0.009,1.002,0.000,0.000,0.000,0.0550,5,2,0.00,0.00,0.00,0.0000,0.0000,0.0000,0.0000,0.0000,0.0000,0.0000,0.00,0.00,0.00,1.0510,0.0000,1.2990,1.1170,2.6690,7,0.0000,0.0000,0.0000,0.0000,0.0000,0
6593,-0.0418,0.0227,0.0499,-0.1186,-0.0913,0.2206,-2.40,-4.65,-1.25,0,3.574,-9.450,-8.351,3.313,0.002,-0.007,0.989,0.000,0.000,0.000,0.0710,0,-1,0.00,0.00,0.00,0.0000,0.0000,0.0000,0.0000,0.0000,0.0000,0.0000,0.00,0.00,0.00,1.0460,0.0000,1.2990,1.1170,2.6690,8,0.0000,0.0000,0.0000,0.0000,0.0000,0
6645,-0.0473,0.0228,0.0668,-0.0833,-0.0454,0.2419,-2.98,-4.22,-1.12,0,3.568,21.295,-8.062,1.700,0.009,-0.012,0.962,0.000,0.000,0.000,0.0810,0,-3,0.00,0.00,0.00,0.0000,0.0000,0.0000,0.0000,0.0000,0.0000,0.0000,0.00,0.00,0.00,1.0460,0.0000,1.3200,1.1160,2.6500,8,0.0000,0.0000,0.0000,0.0000,0.0000,0
6696,-0.0433,0.0214,0.0786,-0.0081,-0.0220,0.2271,-2.08,-4.13,-0.96,0,3.568,15.355,-20.187,-3.189,0.003,-0.011,0.964,0.000,0.000,0.000,0.0900,-6,4,0.00,0.00,0.00,0.0000,0.0000,0.0000,0.0000,0.0000,0.0000,0.0000,0.00,0.00,0.00,1.0480,0.0000,1.3200,1.1160,2.6500,8,0.0000,0.0000,0.0000,0.0000,0.0000,0
6747,-0.0372,0.0224,0.0911,0.0562,0.0025,0.2185,-1.29,-3.21,-1.07,0,3.568,12.245,-23.816,-3.816,-0.001,-0.013,0.980,0.000,0.000,0.000,0.0970,-2,-9,0.00,0.00,0.00,0.0000,0.0000,0.0000,0.0000,0.0000,0.0000,0.0000,0.00,0.00,0.00,1.0480,0.0000,1.3280,1.1180,2.6330,8,0.0000,0.0000,0.0000,0.0000,0.0000,0
6797,-0.0394,0.0251,0.1022,0.0492,0.0261,0.2054,-0.72,-1.82,-1.30,0,3.558,13.707,-25.548,-3.878,0.001,-0.018,0.975,0.000,0.000,0.000,0.0980,-6,-16,0.00,0.00,0.00,0.0000,0.0000,0.0000,0.0000,0.0000,0.0000,0.0000,0.00,0.00,0.00,1.0470,0.0000,1.3280,1.1180,2.6330,3,0.0000,0.0000,0.0000,0.0000,0.0000,0
6849,-0.0327,0.0266,0.1053,0.0830,0.0305,0.1584,-0.02,-0.63,-1.44,0,3.552,16.843,-14.094,-3.953,0.003,-0.013,0.994,0.000,0.000,0.000,0.1090,-2,-6,0.00,0.00,0.00,0.0000,0.0000,0.0000,0.0000,0.0000,0.3000,0.2846,3.06,1.48,43.23,1.0470,0.0000,1.3390,1.1220,2.6080,8,0.0000,0.0000,0.0000,0.0000,0.0000,0
6900,-0.0233,0.0282,0.1125,0.1158,0.0291,0.1500,0.81,0.01,-1.63,0,3.547,5.936,-17.710,-2.234,-0.006,-0.021,1.007,0.000,0.000,0.000,0.1190,-2,-6,-0.02,0.63,-1.44,-0.0327,0.0266,0.1090,0.0000,0.0000,0.3000,0.2841,3.10,3.52,48.99,1.0560,0.0000,1.3390,1.1220,2.6080,8,0.0000,0.0000,0.0000,0.0000,0.0000,0
6951,-0.0160,0.0293,0.1189,0.1232,0.0209,0.1452,1.21,0.83,-1.77,0,3.552,-0.637,-25.860,-0.546,0.002,-0.012,0.995,0.000,0.000,0.000,0.1230,-2,-12,0.13,1.14,-1.55,-0.0188,0.0312,0.1162,0.0000,0.0000,0.3000,0.2834,2.83,4.33,53.07,1.0560,0.0000,1.3600,1.1310,2.5930,8,0.0000,0.0000,0.0000,0.0000,0.0000,0
7002,-0.0097,0.0307,0.1261,0.1146,0.0142,0.1421,1.17,2.01,-1.83,0,3.547,1.984,-2.353,1.050,-0.002,-0.017,1.000,0.000,0.000,0.000,0.1310,0,-5,-0.15,-1.22,-1.59,-0.0033,0.0333,0.1141,0.0000,0.0000,0.3000,0.2824,2.64,4.37,54.90,1.0640,0.1180,1.3600,1.1310,2.5930,5,0.0000,0.0000,0.0000,0.0000,0.0000,0
7053,-0.0021,0.0312,0.1317,0.1092,0.0049,0.1353,1.24,2.23,-1.77,0,3.547,-0.566,-1.109,3.187,-0.000,-0.014,1.010,0.000,0.000,0.000,0.1320,1,-4,0.89,1.44,-1.54,0.0049,0.0335,0.1338,0.0000,0.0000,0.3000,0.2821,2.27,4.64,53.16,1.0640,0.1180,1.3630,1.1380,2.5790,5,0.0000,0.0000,0.0000,0.0000,0.0000,0
7105,0.0041,0.0308,0.1385,0.0954,-0.0070,0.1393,1.22,2.24,-1.62,0,3.542,-8.007,-1.899,3.458,0.003,-0.012,1.006,0.000,0.000,0.000,0.1360,0,-5,1.42,2.86,-1.39,0.0104,0.0321,0.1394,0.0000,0.0000,0.3000,0.2804,1.73,4.47,48.45,1.0510,0.0000,1.3630,1.1380,2.5790,6,0.0000,0.0000,0.0000,0.0000,0.0000,0
7156,0.0099,0.0303,0.1399,0.0842,-0.0155,0.1159,0.94,2.30,-1.43,0,3.537,-5.051,-2.440,3.657,-0.002,-0.007,1.015,0.000,0.000,0.000,0.1430,0,-2,0.41,2.53,-1.18,0.0167,0.0317,0.1445,0.0000,0.0000,0.3000,0.2827,1.32,4.33,42.89,1.0510,0.0000,1.3600,1.1380,2.5760,6,0.0000,0.0000,0.0000,0.0000,0.0000,0
7207,0.0149,0.0295,0.1458,0.0706,-0.0217,0.1218,0.66,2.33,-1.25,0,3.537,-3.186,7.073,4.218,0.002,-0.005,1.018,0.000,0.000,0.000,0.1490,0,-2,-0.16,3.17,-0.95,0.0194,0.0315,0.1499,0.0000,0.0000,0.3000,0.2809,1.00,4.09,37.51,1.0420,0.1100,1.3600,1.1380,2.5760,6,0.0000,0.0000,0.0000,0.0000,0.0000,0
7257,0.0184,0.0286,0.1504,0.0528,-0.0251,0.1219,0.46,2.01,-1.04,0,3.537,-1.284,6.391,4.878,0.003,-0.010,1.018,0.000,0.000,0.000,0.1560,2,-3,-0.46,2.71,-0.72,0.0219,0.0315,0.1561,0.0000,0.0000,0.3000,0.2801,0.79,3.55,31.08,1.0420,0.1100,1.3620,1.1420,2.5580,7,0.0000,0.0000,0.0000,0.0000,0.0000,0
7309,0.0209,0.0274,0.1568,0.0373,-0.0276,0.1306,0.31,1.59,-0.83,0,3.542,-1.682,3.327,4.624,0.001,-0.007,1.024,0.000,0.000,0.000,0.1630,2,-1,-0.12,1.91,-0.52,0.0262,0.0286,0.1637,0.0000,0.0000,0.3000,0.2779,0.61,3.06,24.96,1.0290,0.0000,1.3620,1.1420,2.5580,7,0.0000,0.0000,0.0000,0.0000,0.0000,0
7359,0.0239,0.0258,0.1637,0.0299,-0.0307,0.1413,0.19,1.36,-0.62,0,3.537,-3.247,5.624,2.991,0.002,-0.009,1.018,0.000,0.000,0.000,0.1730,9,3,-0.03,1.79,-0.31,0.0275,0.0255,0.1708,0.0000,0.0000,0.3000,0.2755,0.36,2.95,18.74,1.0290,0.0000,1.3750,1.1480,2.5470,6,0.0000,0.0000,0.0000,0.0000,0.0000,0
7411,0.0263,0.0252,0.1694,0.0267,-0.0291,0.1485,0.08,1.07,-0.43,0,3.547,-2.954,6.690,4.970,0.002,-0.013,1.014,0.000,0.000,0.000,0.1770,0,0,1.14,2.14,-0.33,0.0226,0.0107,0.1781,0.0000,0.0000,0.3000,0.2736,0.39,2.99,13.00,1.0230,0.0000,1.3750,1.1480,2.5470,6,0.0000,0.0000,0.0000,0.0000,0.0000,0
7462,0.0268,0.0205,0.1777,0.0152,-0.0421,0.1586,-0.12,0.71,-0.22,0,3.547,-5.056,5.305,4.138,0.003,-0.011,1.014,0.000,0.000,0.000,0.1900,4,0,0.98,1.80,-0.07,0.0201,0.0024,0.1858,0.0000,0.0000,0.3000,0.2710,-0.51,2.53,6.68,1.0230,0.0000,1.3870,1.1440,2.5210,6,0.0000,0.0000,0.0000,0.0000,0.0000,0
7513,0.0271,0.0160,0.1857,0.0082,-0.0508,0.1635,-0.34,0.43,-0.06,0,3.547,-5.322,3.362,3.491,0.001,-0.008,1.009,0.000,0.000,0.000,0.1970,3,4,-0.15,1.03,0.19,0.0234,0.0048,0.1994,0.0000,0.0000,0.3000,0.2689,-1.23,2.25,1.79,1.0210,0.0000,1.3870,1.1440,2.5210,8,0.0000,0.0000,0.0000,0.0000,0.0000,0
7565,0.0275,0.0135,0.1961,0.0047,-0.0474,0.1779,-0.57,0.26,0.11,0,3.547,-1.601,2.373,2.776,0.006,-0.015,1.001,0.000,0.000,0.000,0.2080,0,1,-0.40,1.18,0.36,0.0178,-0.0009,0.2083,0.0000,0.0000,0.3000,0.2655,-1.26,2.14,-3.21,1.0210,0.0000,1.4020,1.1390,2.4960,8,0.0000,0.0000,0.0000,0.0000,0.0000,0
7617,0.0268,0.0090,0.2050,-0.0003,-0.0505,0.1799,-0.68,0.10,0.24,0,3.552,1.739,5.508,2.006,0.008,-0.014,0.984,0.000,0.000,0.000,0.2220,0,-1,-0.76,1.00,0.47,0.0152,-0.0025,0.2178,0.0000,0.0000,0.3000,0.2636,-1.73,1.88,-7.29,1.0150,0.0000,1.4020,1.1390,2.4960,8,0.0000,0.0000,0.0000,0.0000,0.0000,0
7668,0.0257,0.0074,0.2175,-0.0045,-0.0419,0.1938,-0.69,-0.12,0.32,0,3.558,0.657,3.764,0.841,0.008,-0.012,0.980,0.000,0.000,0.000,0.2150,0,0,-0.86,0.47,0.58,0.0158,-0.0034,0.2283,0.0000,0.0000,0.3000,0.2597,-1.46,1.63,-9.70,1.0150,0.0000,1.4170,1.1340,2.4950,8,0.0000,0.0000,0.0000,0.0000,0.0000,0
7718,0.0268,0.0029,0.2288,0.0012,-0.0423,0.1840,-0.60,-0.33,0.35,0,3.547,-0.095,-0.377,-0.271,0.002,-0.011,0.981,0.000,0.000,0.000,0.2360,0,-2,-0.84,0.27,0.62,0.0144,-0.0059,0.2325,0.0000,0.0000,0.3000,0.2586,-1.81,1.98,-10.65,1.0150,0.0000,1.4170,1.1340,2.4950,4,0.0000,0.0000,0.0000,0.0000,0.0000,0
7770,0.0270,0.0016,0.2318,0.0037,-0.0372,0.1586,-0.67,-0.37,0.33,0,3.552,-2.016,-2.765,-1.142,0.001,-0.014,0.982,0.000,0.000,0.000,0.2300,0,-1,-1.12,-0.12,0.63,0.0217,-0.0022,0.2414,0.0000,0.0000,0.3000,0.2608,-1.65,2.10,-9.88,1.0150,0.0000,1.4320,1.1280,2.4750,6,0.0000,0.0000,0.0000,0.0000,0.0000,0
7821,0.0280,0.0003,0.2395,0.0088,-0.0304,0.1496,-0.80,-0.25,0.29,0,3.537,1.346,-2.229,-2.116,0.007,-0.009,0.986,0.000,0.000,0.000,0.2430,0,0,-1.26,-0.01,0.58,0.0238,-0.0020,0.2450,0.0000,0.0000,0.3000,0.2603,-1.42,2.41,-8.70,1.0190,0.0000,1.4320,1.1280,2.4750,6,0.0000,0.0000,0.0000,0.0000,0.0000,0
7873,0.0346,0.0001,0.2417,0.0296,-0.0203,0.1189,-0.79,-0.29,0.20,0,3.537,1.469,-4.775,-1.823,0.002,-0.015,0.991,0.000,0.000,0.000,0.2500,1,0,-1.19,0.10,0.47,0.0253,-0.0023,0.2509,0.0000,0.0000,0.3000,0.2632,-0.94,3.84,-6.09,1.0190,0.0000,1.4410,1.1220,2.4550,6,0.0000,0.0000,0.0000,0.0000,0.0000,0
7925,0.0369,-0.0007,0.2475,0.0340,-0.0134,0.1131,-0.62,-0.11,0.09,0,3.542,3.484,-6.355,-1.604,0.007,-0.012,0.993,0.000,0.000,0.000,0.2560,0,-2,-1.04,0.46,0.38,0.0236,-0.0046,0.2571,0.0000,0.0000,0.3000,0.2628,-0.67,4.21,-2.83,1.0160,0.0000,1.4410,1.1220,2.4550,9,0.0000,0.0000,0.0000,0.0000,0.0000,0
7976,0.0380,-0.0013,0.2547,0.0333,-0.0083,0.1181,-0.47,0.26,0.02,0,3.542,1.302,-1.383,0.196,0.003,-0.011,0.993,0.000,0.000,0.000,0.2610,0,0,-0.87,0.69,0.34,0.0270,-0.0047,0.2628,0.0000,0.0000,0.3000,0.2609,-0.48,4.28,-0.49,1.0160,0.0000,1.4460,1.1190,2.4450,9,0.0000,0.0000,0.0000,0.0000,0.0000,0
8027,0.0421,0.0000,0.2605,0.0381,0.0001,0.1148,-0.38,0.41,0.00,0,3.542,6.809,-0.305,0.084,0.006,-0.013,0.990,0.000,0.000,0.000,0.2650,-1,-2,-0.81,0.76,0.35,0.0281,-0.0050,0.2680,0.0000,0.0000,0.3000,0.2601,0.01,4.81,-0.15,1.0210,0.0000,1.4460,1.1190,2.4450,5,0.0000,0.0000,0.0000,0.0000,0.0000,0
8079,0.0439,0.0004,0.2655,0.0346,0.0040,0.1082,-0.08,0.44,0.00,0,3.542,1.183,-2.657,1.949,0.008,-0.016,0.991,0.000,0.000,0.000,0.2730,0,0,-0.56,0.68,0.36,0.0325,-0.0017,0.2726,0.0000,0.0000,0.3000,0.2599,0.23,4.78,-0.13,1.0210,0.0000,1.4700,1.1210,2.4280,5,0.0000,0.0000,0.0000,0.0000,0.0000,0
8131,0.0453,0.0014,0.2708,0.0305,0.0069,0.1032,0.09,0.49,0.07,0,3.537,0.500,0.421,1.492,0.005,-0.009,0.992,0.000,0.000,0.000,0.2790,-1,0,-0.50,0.81,0.46,0.0343,-0.0012,0.2779,0.0000,0.0000,0.3000,0.2594,0.44,4.69,-2.17,1.0210,0.0000,1.4700,1.1210,2.4280,6,0.0000,0.0000,0.0000,0.0000,0.0000,0
8182,0.0465,0.0024,0.2775,0.0254,0.0077,0.1063,0.08,0.56,0.16,0,3.542,2.024,2.343,0.317,0.004,-0.014,0.991,0.000,0.000,0.000,0.2880,0,0,-0.52,0.87,0.48,0.0326,0.0011,0.2831,0.0000,0.0000,0.3000,0.2578,0.55,4.56,-4.73,1.0210,0.0000,1.4880,1.1250,2.4210,6,0.0000,0.0000,0.0000,0.0000,0.0000,0
8233,0.0469,0.0030,0.2827,0.0188,0.0074,0.1017,0.17,0.48,0.17,0,3.547,1.479,3.017,-0.044,0.003,-0.011,0.991,0.000,0.000,0.000,0.2920,0,-1,-0.42,0.75,0.50,0.0331,0.0019,0.2894,0.0000,0.0000,0.3000,0.2574,0.58,4.29,-5.14,1.0250,0.0000,1.4880,1.1250,2.4210,6,0.0000,0.0000,0.0000,0.0000,0.0000,0
8285,0.0461,0.0021,0.2908,0.0108,0.0030,0.1115,0.26,0.38,0.17,0,3.547,-1.057,2.291,0.564,0.008,-0.012,0.985,0.000,0.000,0.000,0.2960,0,1,-0.32,0.55,0.52,0.0355,0.0015,0.2950,0.0000,0.0000,0.3000,0.2548,0.31,3.89,-5.11,1.0250,0.0000,1.5000,1.1200,2.4100,6,0.0000,0.0000,0.0000,0.0000,0.0000,0
8337,0.0459,0.0021,0.2962,0.0063,0.0004,0.1052,0.25,0.26,0.18,0,3.542,-1.109,1.998,0.375,0.007,-0.010,0.979,0.000,0.000,0.000,0.3000,0,-3,-0.37,0.47,0.54,0.0342,0.0016,0.2999,0.0000,0.0000,0.3000,0.2544,0.18,3.66,-5.38,1.0270,0.0000,1.5000,1.1200,2.4100,7,0.0000,0.0000,0.0000,0.0000,0.0000,0
8389,0.0441,0.0015,0.3004,-0.0005,-0.0031,0.0923,0.21,0.13,0.19,0,3.542,-2.044,1.012,0.048,0.007,-0.011,0.981,0.000,0.000,0.000,0.3050,0,0,-0.42,0.25,0.58,0.0399,0.0017,0.3039,0.0000,0.0000,0.3000,0.2550,-0.04,3.19,-5.83,1.0270,0.0000,1.5100,1.1190,2.3990,7,0.0000,0.0000,0.0000,0.0000,0.0000,0
8440,0.0464,0.0020,0.3047,0.0036,-0.0033,0.0823,0.06,-0.01,0.20,0,3.537,-2.657,0.855,0.335,0.007,-0.013,0.984,0.000,0.000,0.000,0.3110,-4,2,-0.53,0.20,0.59,0.0415,0.0017,0.3077,0.0000,0.0000,0.3000,0.2553,-0.01,3.55,-6.10,1.0250,0.0000,1.5100,1.1190,2.3990,9,0.0000,0.0000,0.0000,0.0000,0.0000,0
8492,0.0456,0.0034,0.3094,0.0013,-0.0009,0.0773,-0.00,0.05,0.22,0,3.542,0.973,-1.785,1.041,0.007,-0.007,0.982,0.000,0.000,0.000,0.3120,0,0,-0.92,0.35,0.41,0.0325,0.0152,0.3121,0.0000,0.0000,0.3000,0.2549,0.21,3.39,-6.47,1.0250,0.0000,1.5210,1.1180,2.3910,9,0.0000,0.0000,0.0000,0.0000,0.0000,0
8543,0.0448,0.0036,0.3131,-0.0007,-0.0006,0.0692,0.02,0.03,0.23,0,3.537,1.213,0.405,0.309,0.005,-0.011,0.980,0.000,0.000,0.000,0.3140,0,0,-0.87,0.44,0.47,0.0319,0.0184,0.3148,0.0000,0.0000,0.3000,0.2551,0.24,3.23,-6.93,1.0290,0.0000,1.5210,1.1180,2.3910,9,0.0000,0.0000,0.0000,0.0000,0.0000,0
8595,0.0468,-0.0164,0.3148,0.0034,-0.0429,0.0530,0.29,-0.03,0.24,0,3.537,-8.600,-0.542,1.453,0.007,-0.012,0.986,0.000,0.000,0.000,0.3180,2,0,-0.81,0.42,0.48,0.0311,0.0218,0.3169,0.0000,0.0000,0.3000,0.2565,-3.25,3.56,-7.31,1.0290,0.0000,1.5310,1.1140,2.3840,9,0.0000,0.0000,0.0000,0.0000,0.0000,0
8646,0.0459,-0.0169,0.3173,0.0014,-0.0416,0.0455,-0.11,-0.02,0.30,0,3.531,-6.904,-1.257,1.685,0.005,-0.013,0.990,0.000,0.000,0.000,0.3210,2,1,-0.98,0.41,0.75,0.0330,0.0072,0.3199,0.0000,0.0000,0.3000,0.2569,-3.22,3.39,-9.08,1.0310,0.0000,1.5310,1.1140,2.3840,6,0.0000,0.0000,0.0000,0.0000,0.0000,0
8697,0.0447,-0.0189,0.3202,-0.0010,-0.0403,0.0434,-0.50,0.03,0.39,0,3.537,-1.710,5.399,1.745,0.008,-0.008,0.995,0.000,0.000,0.000,0.3220,1,1,-1.28,0.49,0.86,0.0315,0.0043,0.3219,0.0000,0.0000,0.3000,0.2566,-3.30,3.20,-11.70,1.0310,0.0000,1.5280,1.1260,2.3780,6,0.0320,0.0052,0.0000,0.0320,0.0052,0
8749,0.0432,-0.0209,0.3222,-0.0041,-0.0364,0.0402,-0.60,-0.08,0.47,0,3.531,-0.044,1.445,1.717,0.005,-0.013,0.992,0.000,0.000,0.000,0.3230,0,1,-1.35,0.24,0.94,0.0296,0.0024,0.3237,0.0000,0.0000,0.3000,0.2565,-3.26,2.94,-14.15,1.0310,0.0000,1.5280,1.1260,2.3780,5,0.0320,0.0052,0.0000,0.0320,0.0052,0
8801,0.0424,-0.0236,0.3235,-0.0047,-0.0330,0.0339,-0.66,-0.10,0.57,0,3.531,-0.560,-0.394,1.930,0.010,-0.014,0.997,0.000,0.000,0.000,0.3290,1,0,-1.36,0.18,1.01,0.0272,0.0021,0.3250,0.0000,0.0000,0.3000,0.2570,-3.28,2.85,-17.17,1.0310,0.0000,1.5300,1.1200,2.3760,5,0.0320,0.0052,0.0000,0.0320,0.0052,0
8852,0.0418,-0.0202,0.3251,-0.0045,-0.0179,0.0316,-0.69,-0.14,0.66,0,3.531,2.233,0.002,1.265,0.006,-0.013,0.995,0.000,0.000,0.000,0.3260,-2,1,-1.36,0.19,1.14,0.0269,-0.0001,0.3277,0.0000,0.0000,0.3000,0.2569,-2.32,2.82,-19.79,1.0320,0.0000,1.5300,1.1200,2.3760,7,0.0320,0.0052,0.0000,0.0320,0.0052,0
8904,0.0417,-0.0217,0.3275,-0.0032,-0.0134,0.0330,-0.60,-0.12,0.72,0,3.531,4.911,-0.333,0.729,0.007,-0.015,0.998,0.000,0.000,0.000,0.3280,-1,1,-1.32,0.21,1.13,0.0242,0.0044,0.3286,0.0000,0.0000,0.3000,0.2563,-2.22,2.88,-21.51,1.0320,0.0000,1.5530,1.1200,2.3660,7,0.0320,0.0052,0.0000,0.0320,0.0052,0
8954,0.0405,-0.0191,0.3291,-0.0040,-0.0025,0.0315,-0.44,-0.17,0.76,0,3.526,3.658,-0.114,-0.637,0.002,-0.016,0.994,0.000,0.000,0.000,0.3260,-1,0,-1.09,0.25,1.12,0.0213,0.0071,0.3297,0.0000,0.0000,0.3000,0.2562,-1.50,2.76,-22.90,1.0270,0.0000,1.5530,1.1200,2.3660,4,0.0320,0.0052,0.0000,0.0320,0.0052,0
9006,0.0414,-0.0144,0.3284,-0.0009,0.0099,0.0182,-0.33,-0.14,0.73,0,3.526,3.771,-1.104,-1.311,0.004,-0.013,0.997,0.000,0.000,0.000,0.3270,-1,0,-0.93,0.24,1.09,0.0209,0.0101,0.3297,0.0000,0.0000,0.3000,0.2577,-0.56,2.95,-21.98,1.0270,0.0000,1.5630,1.1230,2.3680,4,0.0320,0.0052,0.0000,0.0320,0.0052,0
9056,0.0397,-0.0114,0.3293,-0.0028,0.0171,0.0169,-0.15,-0.05,0.67,0,3.526,5.962,-1.295,-1.105,0.005,-0.012,1.004,0.000,0.000,0.000,0.3310,-1,0,-0.75,0.29,1.02,0.0208,0.0131,0.3297,0.0000,0.0000,0.3000,0.2577,0.00,2.74,-20.22,1.0340,0.0000,1.5630,1.1230,2.3680,4,0.0320,0.0052,0.0000,0.0320,0.0052,0
9108,0.0410,-0.0106,0.3298,0.0003,0.0182,0.0174,0.11,-0.06,0.62,0,3.526,3.750,-1.374,-1.588,0.008,-0.011,1.006,0.000,0.000,0.000,0.3320,-3,0,-0.46,0.34,0.97,0.0206,0.0164,0.3310,0.0000,0.0000,0.3000,0.2575,0.11,2.98,-18.65,1.0340,0.0000,1.5750,1.1230,2.3680,4,0.0320,0.0052,0.0000,0.0320,0.0052,0
9159,0.0410,-0.0047,0.3307,0.0007,0.0264,0.0195,0.19,-0.06,0.55,0,3.526,1.185,-0.355,-1.771,0.004,-0.013,1.000,0.000,0.000,0.000,0.3310,-1,0,-0.35,0.41,0.83,0.0204,0.0259,0.3323,0.0000,0.0000,0.3000,0.2571,0.93,3.01,-16.46,1.0360,0.0000,1.5750,1.1230,2.3680,7,0.0320,0.0052,0.0000,0.0320,0.0052,0
9210,0.0394,-0.0005,0.3318,-0.0017,0.0297,0.0206,0.32,-0.02,0.42,0,3.526,6.887,0.248,-2.334,0.002,-0.014,1.004,0.000,0.000,0.000,0.3340,-1,0,-0.28,0.42,0.74,0.0203,0.0292,0.3330,0.0000,0.0000,0.3000,0.2568,1.40,2.79,-12.74,1.0360,0.0000,1.5710,1.1220,2.3600,11,0.0320,0.0052,0.0000,0.0320,0.0052,0
9261,0.0395,0.0032,0.3329,-0.0011,0.0309,0.0218,0.60,-0.04,0.28,0,3.526,-0.442,-5.100,-3.545,0.002,-0.013,0.997,0.000,0.000,0.000,0.3370,-1,-1,0.07,0.40,0.62,0.0203,0.0326,0.3345,0.0000,0.0000,0.3000,0.2565,1.73,2.83,-8.34,1.0360,0.0000,1.5710,1.1220,2.3600,11,0.0320,0.0052,0.0000,0.0320,0.0052,0
9311,0.0403,0.0058,0.3356,0.0006,0.0280,0.0306,0.65,0.05,0.13,0,3.531,2.645,4.140,-4.750,0.000,-0.011,1.002,0.000,0.000,0.000,0.3350,0,1,0.04,0.62,0.44,0.0235,0.0359,0.3364,0.0000,0.0000,0.3000,0.2550,1.78,2.99,-4.05,1.0360,0.0000,1.5760,1.1260,2.3620,11,0.0320,0.0052,0.0000,0.0320,0.0052,0
9363,0.0416,0.0095,0.3372,0.0024,0.0267,0.0314,0.71,0.02,-0.09,0,3.521,-0.034,-2.184,-3.332,0.002,-0.011,0.997,0.000,0.000,0.000,0.3380,0,0,0.20,0.44,0.22,0.0201,0.0360,0.3373,0.0000,0.0000,0.3000,0.2546,1.99,3.17,2.56,1.0340,0.0000,1.5760,1.1260,2.3620,9,0.0320,0.0052,0.0000,0.0320,0.0052,0
9414,0.0403,0.0128,0.3378,-0.0003,0.0242,0.0269,0.74,0.02,-0.33,0,3.526,1.151,1.184,-2.693,0.003,-0.012,0.997,0.000,0.000,0.000,0.3400,0,0,0.20,0.55,0.05,0.0191,0.0378,0.3387,0.0000,0.0000,0.3000,0.2550,2.11,2.94,9.81,1.0340,0.0000,1.5570,1.1280,2.3590,9,0.0320,0.0052,0.0000,0.0320,0.0052,0
9466,0.0402,0.0146,0.3391,-0.0006,0.0193,0.0262,0.77,-0.02,-0.45,0,3.521,0.033,-3.260,-3.106,0.003,-0.012,0.996,0.000,0.000,0.000,0.3430,0,0,0.26,0.49,-0.09,0.0179,0.0393,0.3402,0.0000,0.0000,0.3000,0.2548,2.01,2.92,13.38,1.0400,0.0000,1.5570,1.1280,2.3590,7,0.0320,0.0052,0.0000,0.0320,0.0052,0
9517,0.0405,0.0147,0.3417,0.0002,0.0114,0.0317,0.80,-0.03,-0.64,0,3.526,-2.110,1.447,-3.089,0.001,-0.007,0.994,0.000,0.000,0.000,0.3410,0,0,0.26,0.66,-0.25,0.0166,0.0403,0.3422,0.0000,0.0000,0.3000,0.2537,1.64,2.99,19.33,1.0400,0.0000,1.5430,1.1310,2.3530,7,0.0320,0.0052,0.0000,0.0320,0.0052,0
9567,0.0403,0.0135,0.3433,0.0001,0.0019,0.0301,0.75,-0.08,-0.77,0,3.521,-4.062,-0.368,-3.003,0.007,-0.013,0.992,0.000,0.000,0.000,0.3420,-1,0,0.16,0.59,-0.41,0.0150,0.0409,0.3428,0.0000,0.0000,0.3000,0.2536,1.09,2.98,23.17,1.0410,0.0000,1.5430,1.1310,2.3530,7,0.0320,0.0052,0.0000,0.0320,0.0052,0
9619,0.0403,0.0083,0.3429,0.0007,-0.0133,0.0176,0.61,-0.07,-0.94,0,3.521,-2.366,2.096,-4.173,0.005,-0.009,0.992,0.000,0.000,0.000,0.3480,1,0,-0.06,0.53,-0.61,0.0239,0.0436,0.3434,0.0000,0.0000,0.3000,0.2550,-0.04,2.99,28.20,1.0410,0.0000,1.5120,1.1260,2.3550,7,0.0320,0.0052,0.0000,0.0320,0.0052,0
9671,0.0377,0.0080,0.3437,-0.0033,-0.0176,0.0155,0.47,-0.10,-1.14,0,3.521,-3.655,0.583,-2.045,0.001,-0.009,0.992,0.000,0.000,0.000,0.3460,1,3,-0.17,0.42,-0.82,0.0236,0.0429,0.3455,0.0000,0.0000,0.3000,0.2551,-0.27,2.60,34.11,1.0410,0.0000,1.5120,1.1260,2.3550,7,0.0320,0.0052,0.0000,0.0320,0.0052,0
9723,0.0396,0.0026,0.3464,0.0011,-0.0289,0.0207,0.29,-0.14,-1.30,0,3.521,-5.643,-1.361,-3.511,0.003,-0.013,0.993,0.000,0.000,0.000,0.3500,1,0,-0.35,0.43,-0.90,0.0196,0.0417,0.3462,0.0000,0.0000,0.3000,0.2540,-1.21,2.97,39.03,1.0410,0.0000,1.4910,1.1200,2.3460,8,0.0320,0.0052,0.0000,0.0320,0.0052,0
9774,0.0352,-0.0009,0.3474,-0.0052,-0.0346,0.0174,0.09,-0.16,-1.41,0,3.521,-5.691,1.033,-0.197,0.004,-0.012,0.994,0.000,0.000,0.000,0.3510,1,0,-0.62,0.50,-1.07,0.0187,0.0400,0.3478,0.0000,0.0000,0.3000,0.2542,-1.74,2.34,42.40,1.0420,0.0000,1.4910,1.1200,2.3460,8,0.0320,0.0052,0.0000,0.0320,0.0052,0
9824,0.0367,-0.0058,0.3501,-0.0010,-0.0401,0.0233,-0.13,-0.16,-1.49,0,3.521,-2.706,0.374,0.158,0.003,-0.013,0.992,0.000,0.000,0.000,0.3520,0,1,-0.90,0.44,-1.08,0.0180,0.0379,0.3492,0.0000,0.0000,0.3000,0.2530,-2.38,2.67,44.55,1.0420,0.0000,1.4800,1.1120,2.3490,8,0.0320,0.0052,0.0000,0.0320,0.0052,0
9876,0.0381,-0.0089,0.3512,0.0028,-0.0408,0.0197,-0.28,-0.19,-1.51,0,3.516,-2.909,-1.139,1.431,-0.001,-0.009,0.992,0.000,0.000,0.000,0.3490,4,0,-1.04,0.43,-1.07,0.0154,0.0374,0.3504,0.0000,0.0000,0.3000,0.2532,-2.64,2.96,45.18,1.0500,0.0000,1.4800,1.1120,2.3490,4,0.0320,0.0052,0.0000,0.0320,0.0052,0
9928,0.0366,-0.0115,0.3511,0.0017,-0.0392,0.0099,-0.44,-0.17,-1.50,0,3.521,-4.666,-0.491,-0.465,0.005,-0.012,0.994,0.000,0.000,0.000,0.3500,0,0,-1.10,0.48,-0.96,0.0146,0.0281,0.3503,0.0000,0.0000,0.3000,0.2543,-2.74,2.78,44.86,1.0500,0.0000,1.4740,1.1100,2.3440,4,0.0320,0.0052,0.0000,0.0320,0.0052,0
9979,0.0368,-0.0187,0.3514,0.0033,-0.0438,0.0047,-0.57,-0.12,-1.48,0,3.516,-0.328,-1.085,-0.491,0.002,-0.012,0.999,0.000,0.000,0.000,0.3510,0,0,-1.34,0.50,-0.98,0.0129,0.0257,0.3503,0.0000,0.0000,0.3000,0.2548,-3.48,2.87,44.35,1.0480,0.0000,1.4740,1.1100,2.3440,4,0.0320,0.0052,0.0000,0.0320,0.0052,0
10030,0.0364,-0.0216,0.3509,0.0033,-0.0404,-0.0001,-0.62,-0.04,-1.49,0,3.516,-0.785,-0.300,0.681,0.001,-0.010,0.999,0.000,0.000,0.000,0.3500,0,0,-1.36,0.56,-1.00,0.0111,0.0236,0.3505,0.0000,0.0000,0.3000,0.2554,-3.52,2.84,44.77,1.0480,0.0000,1.4770,1.1070,2.3450,3,0.0320,0.0052,0.0000,0.0320,0.0052,0
10082,0.0364,-0.0224,0.3509,0.0032,-0.0330,-0.0002,-0.68,-0.01,-1.47,0,3.521,2.868,-1.394,1.683,0.005,-0.012,0.998,0.000,0.000,0.000,0.3490,0,0,-1.40,0.57,-0.97,0.0090,0.0219,0.3504,0.0000,0.0000,0.3000,0.2554,-3.22,2.83,43.98,1.0490,0.0000,1.4770,1.1070,2.3450,3,0.0320,0.0052,0.0000,0.0320,0.0052,0
10133,0.0378,-0.0238,0.3498,0.0056,-0.0271,-0.0059,-0.56,0.04,-1.40,0,3.516,0.359,-1.524,2.315,0.002,-0.014,1.001,0.000,0.000,0.000,0.3490,0,1,-1.25,0.64,-0.88,0.0068,0.0205,0.3499,0.0000,0.0000,0.3000,0.2562,-3.02,3.03,42.03,1.0490,0.0000,1.4770,1.1050,2.3420,2,0.0320,0.0052,0.0000,0.0320,0.0052,0
10184,0.0386,-0.0243,0.3495,0.0061,-0.0212,-0.0064,-0.52,0.13,-1.30,0,3.516,1.534,-0.844,1.996,0.004,-0.008,1.001,0.000,0.000,0.000,0.3470,0,0,-1.28,0.65,-0.72,0.0139,0.0260,0.3497,0.0000,0.0000,0.3000,0.2563,-2.78,3.12,39.00,1.0480,0.0000,1.4770,1.1050,2.3420,2,0.0320,0.0052,0.0000,0.0320,0.0052,0
10235,0.0395,-0.0258,0.3481,0.0060,-0.0177,-0.0105,-0.46,0.18,-1.20,0,3.516,2.889,-0.843,2.280,0.005,-0.013,1.003,0.000,0.000,0.000,0.3480,-1,0,-1.21,0.69,-0.62,0.0129,0.0262,0.3487,0.0000,0.0000,0.3000,0.2570,-2.71,3.17,36.08,1.0480,0.0000,1.4940,1.1100,2.3470,2,0.0320,0.0052,0.0000,0.0320,0.0052,0
10287,0.0398,-0.0265,0.3476,0.0045,-0.0140,-0.0092,-0.33,0.23,-1.08,0,3.510,1.779,0.233,3.826,0.006,-0.014,1.004,0.000,0.000,0.000,0.3500,0,1,-1.08,0.72,-0.49,0.0130,0.0281,0.3483,0.0000,0.0000,0.3000,0.2570,-2.59,3.12,32.40,1.0480,0.0000,1.4940,1.1100,2.3470,1,0.0320,0.0052,0.0000,0.0320,0.0052,0
10339,0.0390,-0.0253,0.3485,0.0010,-0.0081,-0.0003,-0.26,0.27,-0.92,0,3.510,2.275,0.794,3.390,0.006,-0.011,1.006,0.000,0.000,0.000,0.3490,0,0,-0.98,0.71,-0.30,0.0111,0.0287,0.3488,0.0000,0.0000,0.3000,0.2558,-2.23,2.91,27.68,1.0480,0.0000,1.5080,1.1060,2.3450,1,0.0320,0.0052,0.0000,0.0320,0.0052,0
10391,0.0365,-0.0257,0.3485,-0.0054,-0.0059,0.0020,-0.18,0.18,-0.75,0,3.516,3.829,-2.238,3.171,0.005,-0.014,0.999,0.000,0.000,0.000,0.3500,0,0,-0.87,0.67,-0.12,0.0096,0.0297,0.3491,0.0000,0.0000,0.3000,0.2556,-2.15,2.43,22.56,1.0490,0.0000,1.5080,1.1060,2.3450,1,0.0320,0.0052,0.0000,0.0320,0.0052,0
10443,0.0362,-0.0259,0.3494,-0.0068,-0.0046,0.0073,-0.03,0.13,-0.56,0,3.510,-0.081,-0.274,3.477,0.003,-0.015,1.000,0.000,0.000,0.000,0.3500,0,0,-0.67,0.78,0.04,0.0079,0.0308,0.3495,0.0000,0.0000,0.3000,0.2549,-2.11,2.34,16.69,1.0490,0.0000,1.5350,1.1050,2.3430,1,0.0320,0.0052,0.0000,0.0320,0.0052,0
10493,0.0354,-0.0244,0.3497,-0.0085,-0.0016,0.0074,-0.03,0.01,-0.34,0,3.516,1.182,-0.365,3.957,0.003,-0.009,1.001,0.000,0.000,0.000,0.3500,0,-1,-0.68,0.79,0.23,0.0060,0.0317,0.3499,0.0000,0.0000,0.3000,0.2548,-1.85,2.20,10.27,1.0480,0.0000,1.5350,1.1050,2.3430,1,0.0320,0.0052,0.0000,0.0320,0.0052,0
10544,0.0330,-0.0247,0.3501,-0.0117,-0.0015,0.0070,-0.02,-0.06,-0.14,0,3.516,-2.134,1.672,3.965,0.001,-0.012,1.001,0.000,0.000,0.000,0.3500,0,0,-0.59,0.71,0.50,0.0153,0.0290,0.3505,0.0000,0.0000,0.3000,0.2547,-1.87,1.87,4.27,1.0480,0.0000,1.5650,1.1120,2.3450,1,0.0320,0.0052,0.0000,0.0320,0.0052,0
10596,0.0332,-0.0249,0.3505,-0.0100,-0.0017,0.0074,-0.04,-0.11,0.05,0,3.510,-1.463,-2.549,3.555,0.004,-0.013,0.999,0.000,0.000,0.000,0.3520,0,0,-0.70,0.62,0.70,0.0152,0.0292,0.3507,0.0000,0.0000,0.3000,0.2546,-1.90,1.97,-1.57,1.0460,0.0000,1.5650,1.1120,2.3450,1,0.0320,0.0052,0.0000,0.0320,0.0052,0
10647,0.0328,-0.0250,0.3512,-0.0090,-0.0013,0.0094,-0.07,-0.12,0.22,0,3.510,0.787,2.820,2.302,0.009,-0.015,1.003,0.000,0.000,0.000,0.3510,0,0,-0.78,0.75,0.89,0.0149,0.0294,0.3514,0.0000,0.0000,0.3000,0.2543,-1.89,1.99,-6.46,1.0460,0.0000,1.5920,1.1050,2.3470,0,0.0320,0.0052,0.0000,0.0320,0.0052,0
10699,0.0288,-0.0250,0.3517,-0.0136,-0.0006,0.0096,-0.08,-0.17,0.36,0,3.516,1.441,1.805,1.801,0.008,-0.016,0.997,0.000,0.000,0.000,0.3530,0,0,-0.74,0.61,1.00,0.0145,0.0295,0.3517,0.0000,0.0000,0.3000,0.2542,-1.85,1.48,-10.77,1.0430,0.0000,1.5920,1.1050,2.3470,0,0.0320,0.0052,0.0000,0.0320,0.0052,0
10751,0.0275,-0.0298,0.3523,-0.0130,-0.0077,0.0102,-0.03,-0.27,0.47,0,3.510,-1.500,-2.120,1.506,0.005,-0.009,0.997,0.000,0.000,0.000,0.3500,0,0,-0.66,0.51,1.09,0.0141,0.0295,0.3525,0.0000,0.0000,0.3000,0.2540,-2.55,1.41,-14.02,1.0430,0.0000,1.6050,1.1040,2.3420,0,0.0320,0.0052,0.0000,0.0320,0.0052,0
10802,0.0248,-0.0298,0.3528,-0.0143,-0.0068,0.0091,-0.03,-0.25,0.55,0,3.510,-5.013,-0.166,1.500,0.000,-0.016,0.995,0.000,0.000,0.000,0.3510,-1,0,-0.74,0.62,1.17,0.0135,0.0296,0.3520,0.0000,0.0000,0.3000,0.2540,-2.51,1.15,-16.39,1.0440,0.0000,1.6050,1.1040,2.3420,2,0.0320,0.0052,0.0000,0.0320,0.0052,0
10853,0.0246,-0.0330,0.3514,-0.0109,-0.0110,-0.0005,-0.16,-0.35,0.61,0,3.510,0.117,4.096,0.080,0.006,-0.011,1.000,0.000,0.000,0.000,0.3530,0,0,-1.02,0.60,1.26,0.0164,0.0322,0.3518,0.0000,0.0000,0.3000,0.2553,-2.94,1.30,-18.16,1.0440,0.0000,1.6180,1.1070,2.3410,2,0.0320,0.0052,0.0000,0.0320,0.0052,0
10905,0.0250,-0.0333,0.3514,-0.0063,-0.0093,-0.0010,-0.19,-0.47,0.62,0,3.510,-2.597,-7.532,0.974,0.000,-0.017,0.999,0.000,0.000,0.000,0.3530,0,0,-1.01,0.39,1.26,0.0162,0.0329,0.3522,0.0000,0.0000,0.3000,0.2553,-2.87,1.55,-18.70,1.0470,0.0000,1.6180,1.1070,2.3410,2,0.0320,0.0052,0.0000,0.0320,0.0052,0
10957,0.0241,-0.0371,0.3525,-0.0038,-0.0129,0.0044,-0.22,-0.24,0.66,0,3.505,2.079,1.739,-0.442,0.006,-0.013,0.998,0.000,0.000,0.000,0.3530,-2,0,-1.15,0.78,1.32,0.0158,0.0336,0.3526,0.0000,0.0000,0.3000,0.2545,-3.34,1.61,-19.94,1.0470,0.0000,1.6090,1.1060,2.3420,3,0.0320,0.0052,0.0000,0.0320,0.0052,0
11007,0.0237,-0.0392,0.3527,-0.0022,-0.0133,0.0034,-0.23,-0.22,0.68,0,3.510,-1.511,3.062,1.045,0.006,-0.014,0.998,0.000,0.000,0.000,0.3510,0,0,-1.07,0.68,1.30,0.0161,0.0369,0.3527,0.0000,0.0000,0.3000,0.2546,-3.50,1.66,-20.49,1.0420,0.0000,1.6090,1.1060,2.3420,3,0.0320,0.0052,0.0000,0.0320,0.0052,0
11058,0.0237,-0.0365,0.3522,-0.0001,-0.0064,-0.0011,-0.27,-0.34,0.72,0,3.505,1.346,-2.571,0.394,0.007,-0.015,1.002,0.000,0.000,0.000,0.3520,0,-1,-1.15,0.52,1.35,0.0157,0.0386,0.3522,0.0000,0.0000,0.3000,0.2552,-2.97,1.76,-21.57,1.0420,0.0000,1.6220,1.1070,2.3480,3,0.0320,0.0052,0.0000,0.0320,0.0052,0
11110,0.0222,-0.0365,0.3521,0.0002,-0.0039,-0.0020,-0.25,-0.18,0.76,0,3.505,-1.985,-2.080,1.774,0.005,-0.012,1.000,0.000,0.000,0.000,0.3530,-1,-2,-1.06,0.63,1.40,0.0175,0.0386,0.3522,0.0000,0.0000,0.3000,0.2553,-2.85,1.67,-22.71,1.0420,0.0000,1.6220,1.1070,2.3480,3,0.0320,0.0052,0.0000,0.0320,0.0052,0
11161,0.0245,-0.0355,0.3524,0.0048,0.0001,0.0004,-0.28,-0.13,0.81,0,3.505,1.966,-3.106,1.064,0.002,-0.014,1.002,0.000,0.000,0.000,0.3520,0,0,-1.17,0.71,1.52,0.0199,0.0409,0.3525,0.0000,0.0000,0.3000,0.2550,-2.58,2.05,-24.16,1.0420,0.0000,1.6080,1.1090,2.3510,0,0.0320,0.0052,0.0000,0.0320,0.0052,0
11212,0.0281,-0.0319,0.3524,0.0106,0.0079,0.0002,-0.22,-0.04,0.85,0,3.505,3.561,0.446,0.747,0.008,-0.013,1.002,0.000,0.000,0.000,0.3520,-1,0,-1.07,0.86,1.58,0.0204,0.0427,0.3524,0.0000,0.0000,0.3000,0.2550,-1.94,2.60,-25.42,1.0430,0.0000,1.6080,1.1090,2.3510,0,0.0320,0.0052,0.0000,0.0320,0.0052,0
11263,0.0284,-0.0281,0.3521,0.0104,0.0142,-0.0010,-0.04,0.04,0.89,0,3.505,0.366,-4.300,1.453,0.001,-0.018,1.002,0.000,0.000,0.000,0.3520,0,0,-0.88,0.84,1.61,0.0202,0.0443,0.3524,0.0000,0.0000,0.3000,0.2552,-1.36,2.61,-26.80,1.0430,0.0000,1.6210,1.1090,2.3460,0,0.0320,0.0052,0.0000,0.0320,0.0052,0
11314,0.0301,-0.0267,0.3521,0.0118,0.0155,-0.0005,0.06,0.07,0.94,0,3.505,3.105,0.525,1.263,0.004,-0.013,1.002,0.000,0.000,0.000,0.3530,0,1,-0.87,1.06,1.69,0.0199,0.0461,0.3524,0.0000,0.0000,0.3000,0.2551,-1.20,2.80,-28.15,1.0360,0.0000,1.6210,1.1090,2.3460,6,0.0320,0.0052,0.0000,0.0320,0.0052,0
11365,0.0316,-0.0233,0.3524,0.0125,0.0189,0.0016,0.14,0.12,1.01,0,3.505,4.751,1.961,0.431,0.003,-0.011,1.003,0.000,0.000,0.000,0.3520,1,0,-0.68,1.05,1.73,0.0174,0.0448,0.3528,0.0000,0.0000,0.3000,0.2548,-0.79,2.94,-30.43,1.0360,0.0000,1.6300,1.1140,2.3440,6,0.0320,0.0052,0.0000,0.0320,0.0052,0
11416,0.0304,-0.0246,0.3525,0.0086,0.0141,0.0020,0.27,0.15,1.05,0,3.505,2.570,1.796,0.076,0.005,-0.014,0.999,0.000,0.000,0.000,0.3530,0,2,-0.42,0.95,1.75,0.0167,0.0437,0.3529,0.0000,0.0000,0.3000,0.2548,-1.12,2.68,-31.50,1.0410,0.0000,1.6300,1.1140,2.3440,6,0.0320,0.0052,0.0000,0.0320,0.0052,0
11467,0.0328,-0.0230,0.3526,0.0101,0.0134,0.0020,0.33,0.12,1.07,0,3.505,-3.364,-1.420,0.769,0.002,-0.014,0.996,0.000,0.000,0.000,0.3490,0,0,-0.29,0.88,1.74,0.0121,0.0437,0.3531,0.0000,0.0000,0.3000,0.2547,-1.03,2.92,-32.19,1.0410,0.0000,1.6350,1.1110,2.3400,6,0.0320,0.0052,0.0000,0.0320,0.0052,0
11518,0.0334,-0.0235,0.3527,0.0093,0.0087,0.0014,0.24,0.23,1.08,0,3.500,1.998,5.566,0.194,0.007,-0.013,0.999,0.000,0.000,0.000,0.3480,0,0,-0.46,0.95,1.78,0.0096,0.0438,0.3519,0.0000,0.0000,0.3000,0.2548,-1.30,2.93,-32.29,1.0400,0.0000,1.6350,1.1110,2.3400,6,0.0320,0.0052,0.0000,0.0320,0.0052,0
11570,0.0357,-0.0232,0.3496,0.0104,0.0067,-0.0133,0.29,0.12,1.08,0,3.500,-1.537,-0.097,-0.815,0.003,-0.014,1.002,0.000,0.000,0.000,0.3500,1,0,-0.36,0.67,1.79,0.0067,0.0438,0.3506,0.0328,-0.0218,0.3000,0.2570,0.22,0.75,-32.27,1.0400,0.0000,1.6280,1.1130,2.3410,5,0.0320,0.0052,0.0000,0.0320,0.0052,0
11621,0.0331,-0.0233,0.3489,0.0047,0.0039,-0.0132,0.21,0.18,1.05,0,3.500,-1.249,0.225,-0.670,0.005,-0.013,1.005,0.000,0.000,0.000,0.3480,0,0,-0.41,0.60,1.73,0.0144,0.0403,0.3505,0.0328,-0.0218,0.3000,0.2571,0.07,0.29,-31.64,1.0350,0.0000,1.6280,1.1130,2.3410,5,0.0320,0.0052,0.0000,0.0320,0.0052,0
11672,0.0330,-0.0248,0.3485,0.0026,-0.0001,-0.0108,0.12,0.23,1.01,0,3.494,0.172,1.604,-1.329,0.005,-0.016,1.005,0.000,0.000,0.000,0.3500,2,1,-0.47,0.59,1.70,0.0133,0.0393,0.3496,0.0328,-0.0218,0.3000,0.2569,-0.23,0.19,-30.44,1.0350,0.0000,1.6170,1.1150,2.3470,5,0.0320,0.0052,0.0000,0.0320,0.0052,0
11724,0.0344,-0.0250,0.3480,0.0032,-0.0013,-0.0087,0.11,0.13,0.96,0,3.505,-1.022,-0.546,-1.595,0.001,-0.016,1.001,0.000,0.000,0.000,0.3460,0,1,-0.43,0.51,1.62,0.0114,0.0342,0.3497,0.0328,-0.0218,0.3000,0.2568,-0.30,0.31,-28.88,1.0390,0.0000,1.6170,1.1150,2.3470,5,0.0320,0.0052,0.0000,0.0320,0.0052,0
11776,0.0316,-0.0285,0.3476,-0.0023,-0.0075,-0.0079,0.03,0.09,0.89,0,3.494,-0.963,-0.344,-2.314,0.004,-0.012,1.004,0.000,0.000,0.000,0.3470,0,1,-0.50,0.55,1.54,0.0089,0.0330,0.3485,0.0328,-0.0218,0.3000,0.2567,-0.85,-0.15,-26.58,1.0390,0.0000,1.6130,1.1140,2.3490,9,0.0320,0.0052,0.0000,0.0320,0.0052,0
11826,0.0320,-0.0292,0.3473,-0.0020,-0.0084,-0.0067,-0.05,0.06,0.78,0,3.500,-1.372,1.645,-1.796,0.005,-0.018,1.003,0.000,0.000,0.000,0.3500,0,2,-0.55,0.57,1.43,0.0062,0.0321,0.3480,0.0328,-0.0218,0.3000,0.2567,-0.95,-0.11,-23.29,1.0450,0.0000,1.6130,1.1140,2.3490,0,0.0320,0.0052,0.0000,0.0320,0.0052,0
11878,0.0320,-0.0288,0.3481,-0.0022,-0.0067,0.0013,-0.08,0.05,0.67,0,3.500,-0.487,-0.305,-2.146,0.003,-0.013,1.001,0.000,0.000,0.000,0.3500,0,0,-0.63,0.51,1.34,0.0010,0.0311,0.3485,0.0328,-0.0218,0.3000,0.2556,-0.84,-0.12,-19.96,1.0450,0.0000,1.6110,1.1120,2.3440,0,0.0320,0.0052,0.0000,0.0320,0.0052,0
11929,0.0262,-0.0290,0.3482,-0.0117,-0.0057,0.0023,-0.07,-0.01,0.55,0,3.505,0.352,2.058,-2.854,0.001,-0.011,0.999,0.000,0.000,0.000,0.3470,0,0,-0.66,0.53,1.23,-0.0020,0.0292,0.3491,0.0328,-0.0218,0.3000,0.2555,-0.81,-1.00,-16.62,1.0480,0.0000,1.6110,1.1120,2.3440,0,0.0320,0.0052,0.0000,0.0320,0.0052,0
11980,0.0240,-0.0290,0.3484,-0.0144,-0.0048,0.0021,-0.07,-0.08,0.42,0,3.494,-1.594,0.804,-3.038,0.003,-0.018,0.998,0.000,0.000,0.000,0.3480,0,0,-0.64,0.43,1.08,-0.0052,0.0273,0.3485,0.0328,-0.0218,0.3000,0.2555,-0.77,-1.29,-12.71,1.0480,0.0000,1.6080,1.1110,2.3520,4,0.0320,0.0052,0.0000,0.0320,0.0052,0
12031,0.0225,-0.0297,0.3485,-0.0149,-0.0048,0.0015,-0.14,-0.16,0.28,0,3.500,2.538,3.329,-2.328,0.006,-0.010,1.000,0.000,0.000,0.000,0.3470,1,0,-0.72,0.39,0.93,-0.0085,0.0253,0.3483,0.0328,-0.0218,0.3000,0.2555,-0.82,-1.43,-8.35,1.0480,0.0000,1.6080,1.1110,2.3520,4,0.0320,0.0052,0.0000,0.0320,0.0052,0
12083,0.0204,-0.0297,0.3477,-0.0152,-0.0029,-0.0031,-0.15,-0.25,0.19,0,3.500,0.087,1.097,-2.509,0.000,-0.014,1.000,0.000,0.000,0.000,0.3530,0,1,-0.62,0.12,0.78,0.0036,0.0285,0.3482,0.0328,-0.0218,0.3000,0.2562,-0.72,-1.59,-5.63,1.0480,0.0000,1.5890,1.1060,2.3460,3,0.0320,0.0052,0.0000,0.0320,0.0052,0
12134,0.0215,-0.0316,0.3476,-0.0106,-0.0049,-0.0027,-0.09,-0.29,0.07,0,3.500,-0.767,-1.043,-1.484,0.005,-0.013,0.998,0.000,0.000,0.000,0.3500,0,0,-0.62,0.07,0.65,0.0019,0.0277,0.3497,0.0328,-0.0218,0.3000,0.2562,-0.96,-1.29,-2.18,1.0510,0.0000,1.5890,1.1060,2.3460,3,0.0320,0.0052,0.0000,0.0320,0.0052,0
12185,0.0198,-0.0335,0.3502,-0.0100,-0.0068,0.0089,-0.13,-0.27,-0.00,0,3.500,0.166,0.414,-0.966,0.004,-0.017,0.993,0.000,0.000,0.000,0.3510,0,0,-0.66,0.13,0.57,0.0011,0.0266,0.3499,0.0328,-0.0218,0.3000,0.2544,-1.19,-1.39,0.12,1.0510,0.0000,1.5850,1.1080,2.3420,3,0.0320,0.0052,0.0000,0.0320,0.0052,0
12236,0.0159,-0.0337,0.3506,-0.0138,-0.0056,0.0077,-0.14,-0.23,-0.06,0,3.500,0.304,1.548,-0.441,0.004,-0.016,0.994,0.000,0.000,0.000,0.3500,-1,1,-0.65,0.11,0.52,0.0004,0.0253,0.3502,0.0328,-0.0218,0.3000,0.2545,-1.15,-1.86,1.74,1.0470,0.0000,1.5850,1.1080,2.3420,2,0.0320,0.0052,0.0000,0.0320,0.0052,0
12286,0.0182,-0.0337,0.3507,-0.0067,-0.0039,0.0032,-0.16,-0.26,-0.09,0,3.500,0.063,-0.242,0.174,0.000,-0.012,0.994,0.000,0.000,0.000,0.3460,-1,0,-0.69,0.04,0.45,-0.0016,0.0308,0.3500,0.0328,-0.0218,0.3000,0.2549,-1.07,-1.35,2.75,1.0470,0.0000,1.5710,1.1080,2.3510,2,0.0320,0.0052,0.0000,0.0320,0.0052,0
12337,0.0147,-0.0317,0.3507,-0.0097,0.0010,0.0001,-0.17,-0.25,-0.10,0,3.494,1.465,0.810,-0.428,0.004,-0.016,0.995,0.000,0.000,0.000,0.3510,0,0,-0.69,0.05,0.44,-0.0023,0.0321,0.3484,0.0328,-0.0218,0.3000,0.2553,-0.68,-1.74,3.03,1.0540,0.0000,1.5710,1.1080,2.3510,2,0.0320,0.0052,0.0000,0.0320,0.0052,0
12389,0.0146,-0.0286,0.3493,-0.0070,0.0074,-0.0084,-0.10,-0.26,-0.10,0,3.494,1.323,-0.340,1.104,0.006,-0.016,1.000,0.000,0.000,0.000,0.3460,-1,1,-0.62,0.01,0.42,-0.0031,0.0325,0.3486,0.0328,-0.0218,0.3000,0.2564,-0.15,-1.62,2.96,1.0540,0.0000,1.5740,1.1100,2.3510,0,0.0320,0.0052,0.0000,0.0320,0.0052,0
12440,0.0143,-0.0282,0.3488,-0.0048,0.0082,-0.0093,0.01,-0.24,-0.08,0,3.489,2.935,-0.177,0.967,0.004,-0.012,1.002,0.000,0.000,0.000,0.3450,0,1,-0.57,0.04,0.45,-0.0055,0.0351,0.3473,0.0328,-0.0218,0.3000,0.2566,-0.08,-1.53,2.27,1.0480,0.0000,1.5740,1.1100,2.3510,0,0.0320,0.0052,0.0000,0.0320,0.0052,0
12491,0.0145,-0.0270,0.3461,-0.0017,0.0094,-0.0206,0.13,-0.22,-0.02,0,3.489,2.794,-1.695,0.752,0.002,-0.015,1.001,0.000,0.000,0.000,0.3400,-2,0,-0.42,0.06,0.50,-0.0076,0.0355,0.3460,0.0328,-0.0218,0.3000,0.2583,0.06,-1.36,0.73,1.0480,0.0000,1.5830,1.1120,2.3550,0,0.0320,0.0052,0.0000,0.0320,0.0052,0
12542,0.0122,-0.0268,0.3451,-0.0038,0.0081,-0.0200,0.22,-0.13,0.04,0,3.489,-0.747,-0.117,2.158,0.003,-0.014,1.005,0.000,0.000,0.000,0.3440,1,1,-0.31,0.14,0.50,-0.0082,0.0394,0.3434,0.0328,-0.0218,0.3000,0.2585,0.02,-1.62,-1.21,1.0440,0.0000,1.5830,1.1120,2.3550,0,0.0320,0.0052,0.0000,0.0320,0.0052,0
12593,0.0171,-0.0237,0.3425,0.0064,0.0111,-0.0246,0.18,-0.17,0.13,0,3.489,-0.475,-2.718,2.327,0.006,-0.017,1.011,0.000,0.000,0.000,0.3450,0,2,-0.32,0.15,0.64,-0.0107,0.0377,0.3429,0.0328,-0.0218,0.3000,0.2594,0.38,-0.78,-3.95,1.0440,0.0000,1.5970,1.1160,2.3490,0,0.0320,0.0052,0.0000,0.0320,0.0052,0
12644,0.0179,-0.0241,0.3414,0.0090,0.0082,-0.0194,0.16,-0.10,0.24,0,3.494,1.471,-4.076,1.884,0.003,-0.013,1.008,0.000,0.000,0.000,0.3420,1,0,-0.35,0.32,0.78,-0.0157,0.0377,0.3430,0.0328,-0.0218,0.3000,0.2591,0.22,-0.60,-7.08,1.0480,0.0000,1.5970,1.1160,2.3490,0,0.0320,0.0052,0.0000,0.0320,0.0052,0
12696,0.0169,-0.0242,0.3423,0.0075,0.0059,-0.0071,0.23,0.06,0.32,0,3.489,0.149,1.653,1.917,0.002,-0.014,1.007,0.000,0.000,0.000,0.3420,0,0,-0.25,0.52,0.89,-0.0163,0.0351,0.3426,0.0328,-0.0218,0.3000,0.2576,0.10,-0.74,-9.75,1.0480,0.0000,1.5980,1.1100,2.3600,0,0.0320,0.0052,0.0000,0.0320,0.0052,0
12747,0.0180,-0.0244,0.3421,0.0083,0.0031,-0.0039,0.22,0.02,0.43,0,3.494,0.284,-0.101,1.924,0.004,-0.019,1.001,0.000,0.000,0.000,0.3460,1,0,-0.25,0.43,0.99,-0.0183,0.0343,0.3424,0.0328,-0.0218,0.3000,0.2573,-0.05,-0.63,-12.91,1.0480,0.0000,1.5980,1.1100,2.3600,0,0.0320,0.0052,0.0000,0.0320,0.0052,0
12798,0.0177,-0.0241,0.3436,0.0068,0.0016,0.0068,0.15,0.07,0.55,0,3.494,-2.825,0.877,2.365,0.007,-0.016,1.005,0.000,0.000,0.000,0.3420,0,0,-0.23,0.40,1.07,-0.0152,0.0319,0.3436,0.0328,-0.0218,0.3000,0.2559,-0.10,-0.72,-16.55,1.0480,0.0000,1.6140,1.1140,2.3510,0,0.0320,0.0052,0.0000,0.0320,0.0052,0
12849,0.0178,-0.0253,0.3440,0.0059,-0.0018,0.0089,0.04,0.06,0.66,0,3.494,-3.540,-2.544,3.123,0.002,-0.014,0.998,0.000,0.000,0.000,0.3400,0,0,-0.37,0.35,1.19,-0.0163,0.0301,0.3433,0.0328,-0.0218,0.3000,0.2556,-0.35,-0.76,-19.73,1.0440,0.0000,1.6140,1.1140,2.3510,0,0.0320,0.0052,0.0000,0.0320,0.0052,0
12900,0.0172,-0.0249,0.3420,0.0036,-0.0012,-0.0031,-0.06,0.16,0.79,0,3.489,1.972,6.073,1.711,0.003,-0.014,0.998,0.000,0.000,0.000,0.3410,1,0,-0.55,0.48,1.35,-0.0175,0.0282,0.3424,0.0328,-0.0218,0.3000,0.2572,-0.29,-0.91,-23.72,1.0440,0.0000,1.6050,1.1140,2.3510,0,0.0320,0.0052,0.0000,0.0320,0.0052,0
12952,0.0191,-0.0270,0.3418,0.0057,-0.0046,-0.0031,0.03,-0.08,0.87,0,3.489,-4.091,-4.603,1.494,0.007,-0.014,1.001,0.000,0.000,0.000,0.3410,0,0,-0.47,0.14,1.41,-0.0139,0.0295,0.3420,0.0328,-0.0218,0.3000,0.2572,-0.61,-0.68,-26.02,1.0460,0.0000,1.6050,1.1140,2.3510,4,0.0320,0.0052,0.0000,0.0320,0.0052,0
13003,0.0193,-0.0269,0.3412,0.0057,-0.0038,-0.0057,-0.14,0.09,0.96,0,3.489,-0.809,-0.071,1.845,0.004,-0.010,1.008,0.000,0.000,0.000,0.3390,0,-1,-0.69,0.38,1.49,-0.0142,0.0279,0.3416,0.0328,-0.0218,0.3000,0.2577,-0.56,-0.66,-28.66,1.0460,0.0000,1.6080,1.1090,2.3530,5,0.0320,0.0052,0.0000,0.0320,0.0052,0
13054,0.0178,-0.0275,0.3409,0.0012,-0.0034,-0.0045,-0.21,0.14,1.06,0,3.484,0.037,0.871,1.164,0.006,-0.017,1.005,0.000,0.000,0.000,0.3420,-1,2,-0.75,0.35,1.56,-0.0110,0.0291,0.3409,0.0328,-0.0218,0.3000,0.2576,-0.59,-0.98,-31.82,1.0480,0.0000,1.6080,1.1090,2.3530,5,0.0320,0.0052,0.0000,0.0320,0.0052,0
13106,0.0204,-0.0297,0.3406,0.0048,-0.0057,-0.0017,-0.22,0.20,1.15,0,3.489,-1.164,-3.013,1.061,0.003,-0.015,1.004,0.000,0.000,0.000,0.3450,0,1,-0.76,0.34,1.61,-0.0141,0.0300,0.3414,0.0328,-0.0218,0.3000,0.2573,-0.85,-0.63,-34.51,1.0480,0.0000,1.6180,1.1180,2.3550,5,0.0320,0.0052,0.0000,0.0320,0.0052,0
13158,0.0189,-0.0304,0.3406,0.0002,-0.0049,-0.0004,-0.28,0.18,1.23,0,3.494,1.963,5.386,0.888,0.002,-0.011,0.997,0.000,0.000,0.000,0.3440,0,0,-0.83,0.50,1.67,-0.0163,0.0297,0.3428,0.0328,-0.0218,0.3000,0.2572,-0.86,-0.96,-36.94,1.0420,0.0000,1.6180,1.1180,2.3550,5,0.0320,0.0052,0.0000,0.0320,0.0052,0
13210,0.0180,-0.0289,0.3434,-0.0028,0.0007,0.0129,-0.26,-0.00,1.30,0,3.489,1.076,2.248,1.345,0.007,-0.013,0.997,0.000,0.000,0.000,0.3430,1,-1,-0.72,0.22,1.71,-0.0173,0.0292,0.3435,0.0328,-0.0218,0.3000,0.2552,-0.50,-1.17,-39.13,1.0420,0.0000,1.6210,1.1130,2.3490,5,0.0320,0.0052,0.0000,0.0320,0.0052,0
13260,0.0165,-0.0271,0.3440,-0.0057,0.0067,0.0116,-0.21,-0.08,1.35,0,3.489,0.011,1.526,0.533,0.003,-0.015,0.990,0.000,0.000,0.000,0.3430,1,0,-0.65,0.07,1.79,-0.0127,0.0263,0.3437,0.0328,-0.0218,0.3000,0.2552,-0.07,-1.42,-40.50,1.0440,0.0000,1.6210,1.1130,2.3490,8,0.0320,0.0052,0.0000,0.0320,0.0052,0
13312,0.0177,-0.0270,0.3436,-0.0023,0.0082,0.0041,-0.23,-0.08,1.39,0,3.489,3.750,-0.041,0.384,0.001,-0.019,0.994,0.000,0.000,0.000,0.3390,-1,2,-0.64,-0.01,1.82,-0.0125,0.0239,0.3435,0.0328,-0.0218,0.3000,0.2561,0.01,-1.17,-41.59,1.0440,0.0000,1.6330,1.1090,2.3590,8,0.0320,0.0052,0.0000,0.0320,0.0052,0
13363,0.0176,-0.0277,0.3437,-0.0016,0.0077,0.0010,-0.12,-0.15,1.42,0,3.484,0.167,0.029,1.406,0.003,-0.016,0.996,0.000,0.000,0.000,0.3430,0,0,-0.47,0.03,1.82,-0.0168,0.0254,0.3420,0.0328,-0.0218,0.3000,0.2564,-0.06,-1.14,-42.71,1.0410,0.0000,1.6330,1.1090,2.3590,8,0.0320,0.0052,0.0000,0.0320,0.0052,0
13414,0.0178,-0.0256,0.3419,-0.0001,0.0123,-0.0082,-0.08,-0.13,1.46,0,3.484,2.944,-1.022,-0.039,0.004,-0.017,1.002,0.000,0.000,0.000,0.3410,0,0,-0.46,0.02,1.89,-0.0175,0.0244,0.3419,0.0328,-0.0218,0.3000,0.2577,0.30,-1.05,-43.84,1.0410,0.0000,1.6360,1.1170,2.3560,2,0.0320,0.0052,0.0000,0.0320,0.0052,0
13465,0.0187,-0.0249,0.3415,0.0029,0.0134,-0.0074,0.06,-0.07,1.46,0,3.489,0.202,-3.866,0.448,0.007,-0.013,1.004,0.000,0.000,0.000,0.3410,0,0,-0.31,0.08,1.89,-0.0180,0.0230,0.3413,0.0328,-0.0218,0.3000,0.2577,0.41,-0.83,-43.78,1.0450,0.0000,1.6360,1.1170,2.3560,2,0.0320,0.0052,0.0000,0.0320,0.0052,0
13516,0.0197,-0.0263,0.3410,0.0054,0.0086,-0.0074,0.09,-0.02,1.47,0,3.484,-2.030,0.711,-0.354,0.001,-0.010,1.001,0.000,0.000,0.000,0.3390,0,0,-0.30,0.27,1.91,-0.0184,0.0216,0.3410,0.0328,-0.0218,0.3000,0.2578,0.08,-0.64,-43.96,1.0450,0.0000,1.6360,1.1170,2.3560,2,0.0320,0.0052,0.0000,0.0320,0.0052,0
13567,0.0200,-0.0259,0.3406,0.0056,0.0079,-0.0069,0.04,0.01,1.46,0,3.484,0.549,-4.169,1.104,0.008,-0.009,1.002,0.000,0.000,0.000,0.3400,0,1,-0.40,0.24,1.90,-0.0189,0.0199,0.3401,0.0328,-0.0218,0.3000,0.2579,0.07,-0.61,-43.82,1.0400,0.0000,1.6360,1.1170,2.3560,0,0.0320,0.0052,0.0000,0.0320,0.0052,0
13619,0.0222,-0.0252,0.3397,0.0094,0.0081,-0.0073,0.09,0.10,1.48,0,3.484,-1.961,-1.227,-0.097,0.007,-0.015,1.005,0.000,0.000,0.000,0.3430,-2,0,-0.42,0.46,1.91,-0.0209,0.0271,0.3399,0.0328,-0.0218,0.3000,0.2581,0.14,-0.28,-44.37,1.0400,0.0000,1.6390,1.1180,2.3530,0,0.0320,0.0052,0.0000,0.0320,0.0052,0
13671,0.0194,-0.0256,0.3394,0.0020,0.0057,-0.0052,0.09,0.12,1.45,0,3.479,-1.267,-0.724,0.400,0.004,-0.013,0.998,0.000,0.000,0.000,0.3370,0,0,-0.54,0.52,1.90,-0.0215,0.0286,0.3407,0.0328,-0.0218,0.3000,0.2579,-0.01,-0.84,-43.64,1.0390,0.0000,1.6390,1.1180,2.3530,0,0.0320,0.0052,0.0000,0.0320,0.0052,0
13723,0.0217,-0.0254,0.3394,0.0055,0.0046,-0.0060,0.06,0.11,1.46,0,3.479,2.550,-1.325,-1.181,0.003,-0.011,1.001,0.000,0.000,0.000,0.3390,0,0,-0.61,0.56,1.92,-0.0222,0.0285,0.3394,0.0328,-0.0218,0.3000,0.2580,-0.05,-0.50,-43.69,1.0390,0.0000,1.6350,1.1160,2.3610,0,0.0320,0.0052,0.0000,0.0320,0.0052,0
13775,0.0218,-0.0268,0.3391,0.0046,0.0006,-0.0056,0.14,0.10,1.41,0,3.479,-0.794,0.741,-0.090,0.002,-0.013,1.003,0.000,0.000,0.000,0.3380,0,0,-0.47,0.63,1.86,-0.0232,0.0285,0.3391,0.0328,-0.0218,0.3000,0.2580,-0.34,-0.53,-42.42,1.0450,0.0000,1.6350,1.1160,2.3610,0,0.0320,0.0052,0.0000,0.0320,0.0052,0
13825,0.0220,-0.0267,0.3384,0.0037,-0.0001,-0.0071,0.08,0.09,1.40,0,3.484,-3.057,1.983,0.321,0.006,-0.011,1.007,0.000,0.000,0.000,0.3400,0,0,-0.52,0.59,1.85,-0.0243,0.0283,0.3387,0.0328,-0.0218,0.3000,0.2583,-0.37,-0.57,-42.05,1.0450,0.0000,1.6230,1.1130,2.3550,2,0.0320,0.0052,0.0000,0.0320,0.0052,0
13876,0.0224,-0.0270,0.3381,0.0035,-0.0010,-0.0053,-0.08,0.01,1.42,0,3.479,0.152,0.100,1.307,0.002,-0.019,0.999,0.000,0.000,0.000,0.3380,0,0,-0.67,0.49,1.87,-0.0256,0.0280,0.3391,0.0328,-0.0218,0.3000,0.2581,-0.43,-0.55,-42.59,1.0380,0.0000,1.6230,1.1130,2.3550,2,0.0320,0.0052,0.0000,0.0320,0.0052,0
13928,0.0238,-0.0273,0.3385,0.0058,-0.0012,-0.0010,-0.04,0.02,1.44,0,3.484,-0.278,-0.582,0.008,0.006,-0.013,1.001,0.000,0.000,0.000,0.3380,0,-1,-0.66,0.48,1.94,-0.0270,0.0276,0.3388,0.0328,-0.0218,0.3000,0.2576,-0.47,-0.33,-43.29,1.0380,0.0000,1.6310,1.1140,2.3580,3,0.0320,0.0052,0.0000,0.0320,0.0052,0
13979,0.0233,-0.0276,0.3385,0.0037,-0.0012,0.0001,-0.04,0.05,1.42,0,3.473,-1.795,-0.721,0.305,0.000,-0.015,0.999,0.000,0.000,0.000,0.3420,5,0,-0.69,0.45,1.93,-0.0190,0.0294,0.3387,0.0328,-0.0218,0.3000,0.2575,-0.49,-0.47,-42.75,1.0330,0.0000,1.6310,1.1140,2.3580,3,0.0320,0.0052,0.0000,0.0320,0.0052,0
14031,0.0259,-0.0272,0.3398,0.0082,0.0000,0.0078,-0.08,0.01,1.44,0,3.484,-3.377,-0.472,1.701,0.007,-0.015,0.997,0.000,0.000,0.000,0.3370,0,0,-0.75,0.49,1.95,-0.0188,0.0265,0.3398,0.0328,-0.0218,0.3000,0.2564,-0.40,-0.07,-43.16,1.0330,0.0000,1.6200,1.1150,2.3610,3,0.0320,0.0052,0.0000,0.0320,0.0052,0
14082,0.0288,-0.0338,0.3402,0.0128,-0.0120,0.0074,-0.14,0.08,1.49,0,3.479,-1.660,-0.759,0.821,0.005,-0.015,0.997,0.000,0.000,0.000,0.3360,-1,0,-0.93,0.51,2.04,-0.0186,0.0255,0.3390,0.0328,-0.0218,0.3000,0.2564,-1.46,0.36,-44.72,1.0370,0.0000,1.6200,1.1150,2.3610,3,0.0320,0.0052,0.0000,0.0320,0.0052,0
14134,0.0291,-0.0351,0.3376,0.0114,-0.0123,-0.0079,-0.22,0.13,1.53,0,3.479,-3.475,-0.213,1.270,0.001,-0.017,0.998,0.000,0.000,0.000,0.3370,-1,0,-1.04,0.55,2.08,-0.0187,0.0272,0.3379,0.0328,-0.0218,0.3000,0.2585,-1.56,0.32,-45.95,1.0370,0.0000,1.6320,1.1140,2.3580,3,0.0320,0.0052,0.0000,0.0320,0.0052,0
14185,0.0303,-0.0347,0.3372,0.0115,-0.0084,-0.0096,-0.34,0.17,1.57,0,3.479,1.270,-1.701,0.969,0.002,-0.015,1.001,0.000,0.000,0.000,0.3380,0,0,-1.24,0.56,2.14,-0.0188,0.0282,0.3373,0.0328,-0.0218,0.3000,0.2588,-1.33,0.41,-47.11,1.0340,0.0000,1.6320,1.1140,2.3580,3,0.0320,0.0052,0.0000,0.0320,0.0052,0
14236,0.0301,-0.0349,0.3372,0.0084,-0.0054,-0.0074,-0.27,0.21,1.60,0,3.484,-0.426,0.043,1.401,0.003,-0.018,0.998,0.000,0.000,0.000,0.3330,2,0,-1.17,0.64,2.20,-0.0193,0.0286,0.3372,0.0328,-0.0218,0.3000,0.2585,-1.21,0.24,-48.00,1.0340,0.0000,1.6220,1.1100,2.3560,3,0.0320,0.0052,0.0000,0.0320,0.0052,0
14287,0.0302,-0.0306,0.3368,0.0061,0.0061,-0.0076,-0.32,0.16,1.68,0,3.479,2.511,-0.251,-0.504,0.007,-0.015,1.002,0.000,0.000,0.000,0.3370,-1,0,-1.14,0.63,2.27,-0.0187,0.0233,0.3356,0.0328,-0.0218,0.3000,0.2586,-0.35,0.14,-50.27,1.0360,0.0000,1.6220,1.1100,2.3560,3,0.0320,0.0052,0.0000,0.0320,0.0052,0
14338,0.0305,-0.0342,0.3355,0.0047,0.0009,-0.0089,-0.28,0.16,1.70,0,3.479,1.741,2.089,0.621,0.005,-0.012,1.003,0.000,0.000,0.000,0.3340,0,0,-1.03,0.64,2.25,-0.0190,0.0243,0.3357,0.0328,-0.0218,0.3000,0.2590,-0.86,0.09,-50.97,1.0360,0.0000,1.6230,1.1140,2.3620,0,0.0320,0.0052,0.0000,0.0320,0.0052,0
14389,0.0306,-0.0320,0.3351,0.0030,0.0070,-0.0075,-0.21,0.10,1.75,0,3.479,3.558,1.727,0.080,-0.001,-0.011,1.000,0.000,0.000,0.000,0.3370,1,0,-0.94,0.53,2.28,-0.0196,0.0239,0.3349,0.0328,-0.0218,0.3000,0.2589,-0.41,0.02,-52.39,1.0270,0.0000,1.6230,1.1140,2.3620,0,0.0320,0.0052,0.0000,0.0320,0.0052,0
14440,0.0303,-0.0293,0.3354,0.0013,0.0136,-0.0022,-0.10,0.13,1.78,0,3.479,5.151,0.492,0.161,0.005,-0.012,1.004,0.000,0.000,0.000,0.3380,-1,0,-0.74,0.43,2.29,-0.0188,0.0211,0.3352,0.0328,-0.0218,0.3000,0.2583,0.10,-0.08,-53.32,1.0270,0.0000,1.6300,1.1140,2.3620,0,0.0320,0.0052,0.0000,0.0320,0.0052,0
14492,0.0303,-0.0301,0.3353,0.0003,0.0115,-0.0011,-0.06,0.04,1.80,0,3.479,0.627,-0.863,0.827,0.002,-0.014,0.996,0.000,0.000,0.000,0.3380,0,1,-0.49,0.41,2.30,-0.0192,0.0224,0.3360,0.0328,-0.0218,0.3000,0.2582,-0.05,-0.13,-54.06,1.0290,0.0000,1.6300,1.1140,2.3620,2,0.0320,0.0052,0.0000,0.0320,0.0052,0
14543,0.0314,-0.0276,0.3372,0.0019,0.0159,0.0081,-0.04,0.09,1.85,0,3.484,3.274,1.322,0.693,0.004,-0.011,0.997,0.000,0.000,0.000,0.3370,1,0,-0.46,0.46,2.34,-0.0214,0.0222,0.3365,0.0328,-0.0218,0.3000,0.2568,0.33,0.03,-55.36,1.0290,0.0000,1.6350,1.1160,2.3590,2,0.0320,0.0052,0.0000,0.0320,0.0052,0
14594,0.0300,-0.0255,0.3376,-0.0015,0.0187,0.0072,0.07,0.05,1.90,0,3.479,-0.375,-0.790,0.590,0.004,-0.014,0.996,0.000,0.000,0.000,0.3340,0,0,-0.28,0.39,2.37,-0.0217,0.0198,0.3365,0.0328,-0.0218,0.3000,0.2568,0.62,-0.24,-57.06,1.0280,0.0000,1.6350,1.1160,2.3590,0,0.0320,0.0052,0.0000,0.0320,0.0052,0
14645,0.0301,-0.0257,0.3361,-0.0017,0.0159,-0.0050,0.11,0.04,1.93,0,3.479,0.581,-0.388,-0.293,0.000,-0.016,0.995,0.000,0.000,0.000,0.3360,0,0,-0.30,0.43,2.40,-0.0226,0.0187,0.3355,0.0328,-0.0218,0.3000,0.2584,0.47,-0.24,-57.85,1.0280,0.0000,1.6220,1.1210,2.3610,0,0.0320,0.0052,0.0000,0.0320,0.0052,0
14697,0.0303,-0.0241,0.3358,-0.0015,0.0165,-0.0082,0.17,0.04,1.92,0,3.479,1.633,-0.062,-1.450,0.000,-0.008,0.996,0.000,0.000,0.000,0.3350,0,0,-0.27,0.45,2.39,-0.0238,0.0173,0.3352,0.0328,-0.0218,0.3000,0.2588,0.61,-0.22,-57.59,1.0260,0.0000,1.6220,1.1210,2.3610,0,0.0320,0.0052,0.0000,0.0320,0.0052,0
14749,0.0319,-0.0227,0.3352,0.0019,0.0164,-0.0108,0.17,-0.04,1.87,0,3.473,3.155,0.797,-1.023,0.001,-0.015,0.997,0.000,0.000,0.000,0.3340,-2,0,-0.19,0.45,2.31,-0.0251,0.0157,0.3346,0.0328,-0.0218,0.3000,0.2592,0.70,0.06,-56.02,1.0260,0.0000,1.6380,1.1220,2.3640,1,0.0320,0.0052,0.0000,0.0320,0.0052,0
14800,0.0307,-0.0200,0.3346,-0.0006,0.0184,-0.0128,0.23,-0.03,1.80,0,3.468,3.353,-0.887,-1.506,0.004,-0.014,0.998,0.000,0.000,0.000,0.3330,0,0,-0.11,0.37,2.24,-0.0200,0.0302,0.3341,0.0328,-0.0218,0.3000,0.2596,0.99,-0.14,-54.06,1.0270,0.0000,1.6380,1.1220,2.3640,1,0.0320,0.0052,0.0000,0.0320,0.0052,0
14850,0.0318,-0.0196,0.3333,0.0019,0.0152,-0.0174,0.34,0.00,1.72,0,3.473,-1.755,0.183,-1.292,0.004,-0.011,0.999,0.000,0.000,0.000,0.3300,0,-1,0.06,0.41,2.17,-0.0203,0.0309,0.3331,0.0328,-0.0218,0.3000,0.2603,0.86,0.05,-51.65,1.0270,0.0000,1.6310,1.1240,2.3560,0,0.0320,0.0052,0.0000,0.0320,0.0052,0
14902,0.0317,-0.0135,0.3324,0.0013,0.0237,-0.0181,0.25,0.02,1.67,0,3.473,1.509,-1.862,-1.971,-0.002,-0.014,1.002,0.000,0.000,0.000,0.3320,0,0,-0.03,0.38,2.08,-0.0180,0.0309,0.3314,0.0328,-0.0218,0.3000,0.2605,1.70,0.01,-49.95,1.0250,0.0000,1.6310,1.1240,2.3560,0,0.0320,0.0052,0.0000,0.0320,0.0052,0
14953,0.0317,-0.0148,0.3310,0.0009,0.0166,-0.0185,0.34,0.01,1.58,0,3.473,0.955,-0.634,-1.415,0.004,-0.012,1.005,0.000,0.000,0.000,0.3290,0,0,0.05,0.48,1.98,-0.0180,0.0308,0.3308,0.0328,-0.0218,0.3000,0.2609,1.28,-0.00,-47.39,1.0250,0.0000,1.6120,1.1310,2.3660,0,0.0320,0.0052,0.0000,0.0320,0.0052,0
15004,0.0344,-0.0132,0.3301,0.0061,0.0151,-0.0165,0.38,0.05,1.46,0,3.473,-0.317,-1.946,-2.226,-0.002,-0.010,1.001,0.000,0.000,0.000,0.3310,0,1,0.10,0.51,1.91,-0.0180,0.0304,0.3296,0.0328,-0.0218,0.3000,0.2608,1.31,0.44,-43.80,1.0250,0.0000,1.6120,1.1310,2.3660,0,0.0320,0.0052,0.0000,0.0320,0.0052,0
15055,0.0347,-0.0117,0.3297,0.0056,0.0134,-0.0130,0.36,0.17,1.34,0,3.473,-1.890,0.755,-2.859,0.004,-0.013,1.004,0.000,0.000,0.000,0.3330,0,-2,0.07,0.63,1.81,-0.0204,0.0315,0.3293,0.0328,-0.0218,0.3000,0.2605,1.35,0.44,-40.14,1.0250,0.0000,1.6070,1.1220,2.3550,1,0.0320,0.0052,0.0000,0.0320,0.0052,0
15106,0.0329,-0.0119,0.3291,0.0001,0.0089,-0.0107,0.32,0.15,1.21,0,3.473,-0.889,-0.297,-3.421,0.002,-0.015,0.999,0.000,0.000,0.000,0.3290,0,0,-0.02,0.56,1.63,-0.0187,0.0311,0.3300,0.0328,-0.0218,0.3000,0.2604,1.12,0.05,-36.24,1.0300,0.0000,1.6070,1.1220,2.3550,0,0.0320,0.0052,0.0000,0.0320,0.0052,0
15158,0.0344,-0.0116,0.3300,0.0015,0.0061,-0.0052,0.23,0.16,1.05,0,3.473,-0.413,0.001,-3.547,-0.001,-0.013,1.000,0.000,0.000,0.000,0.3290,0,0,-0.07,0.58,1.46,-0.0192,0.0302,0.3293,0.0328,-0.0218,0.3000,0.2596,1.00,0.22,-31.53,1.0300,0.0000,1.6040,1.1270,2.3630,0,0.0320,0.0052,0.0000,0.0320,0.0052,0
15210,0.0330,-0.0112,0.3297,-0.0026,0.0044,-0.0045,0.20,0.14,0.88,0,3.473,-0.173,1.680,-3.529,0.000,-0.010,0.996,0.000,0.000,0.000,0.3280,0,0,-0.09,0.58,1.27,-0.0200,0.0289,0.3287,0.0328,-0.0218,0.3000,0.2596,0.95,-0.07,-26.45,1.0260,0.0000,1.6040,1.1270,2.3630,0,0.0320,0.0052,0.0000,0.0320,0.0052,0
15262,0.0328,-0.0111,0.3287,-0.0036,0.0026,-0.0092,0.22,0.04,0.72,0,3.473,-1.598,0.166,-2.863,0.005,-0.014,0.999,0.000,0.000,0.000,0.3250,0,0,-0.09,0.49,1.09,-0.0210,0.0273,0.3279,0.0328,-0.0218,0.3000,0.2603,0.88,-0.13,-21.52,1.0260,0.0000,1.5680,1.1210,2.3640,0,0.0320,0.0052,0.0000,0.0320,0.0052,0
15313,0.0327,-0.0110,0.3282,-0.0037,0.0008,-0.0097,0.15,-0.03,0.57,0,3.468,-1.787,1.497,-3.750,0.002,-0.009,1.001,0.000,0.000,0.000,0.3280,0,1,-0.18,0.48,0.94,-0.0221,0.0255,0.3264,0.0328,-0.0218,0.3000,0.2604,0.80,-0.15,-17.09,1.0260,0.0000,1.5680,1.1210,2.3640,0,0.0320,0.0052,0.0000,0.0320,0.0052,0
15364,0.0329,-0.0103,0.3268,-0.0025,0.0010,-0.0121,0.05,-0.05,0.40,0,3.468,-0.015,1.227,-3.786,-0.001,-0.017,1.003,0.000,0.000,0.000,0.3260,0,-1,-0.32,0.39,0.73,-0.0206,0.0323,0.3263,0.0328,-0.0218,0.3000,0.2609,0.85,-0.08,-12.13,1.0260,0.0000,1.5520,1.1190,2.3660,0,0.0320,0.0052,0.0000,0.0320,0.0052,0
15415,0.0304,-0.0100,0.3263,-0.0066,0.0011,-0.0098,0.05,-0.08,0.21,0,3.468,0.726,0.616,-4.252,0.004,-0.011,1.007,0.000,0.000,0.000,0.3260,0,0,-0.32,0.32,0.53,-0.0206,0.0319,0.3257,0.0328,-0.0218,0.3000,0.2608,0.88,-0.46,-6.45,1.0260,0.0000,1.5520,1.1190,2.3660,2,0.0320,0.0052,0.0000,0.0320,0.0052,0
15466,0.0307,-0.0087,0.3258,-0.0048,0.0031,-0.0072,0.07,-0.11,0.02,0,3.468,-0.758,-0.373,-3.450,0.001,-0.008,1.007,0.000,0.000,0.000,0.3250,-1,0,-0.29,0.29,0.31,-0.0213,0.0313,0.3254,0.0328,-0.0218,0.3000,0.2606,1.07,-0.34,-0.49,1.0260,0.0000,1.5220,1.1220,2.3700,2,0.0320,0.0052,0.0000,0.0320,0.0052,0
15517,0.0305,-0.0085,0.3255,-0.0038,0.0025,-0.0051,0.07,-0.15,-0.17,0,3.473,4.224,-5.163,-4.586,0.002,-0.013,1.004,0.000,0.000,0.000,0.3250,1,0,-0.35,0.30,0.12,-0.0212,0.0333,0.3251,0.0328,-0.0218,0.3000,0.2604,1.05,-0.31,5.09,1.0280,0.0000,1.5220,1.1220,2.3700,1,0.0320,0.0052,0.0000,0.0320,0.0052,0
15568,0.0291,-0.0031,0.3250,-0.0049,0.0117,-0.0053,0.15,-0.01,-0.35,0,3.468,0.188,0.347,-3.182,0.001,-0.013,0.999,0.000,0.000,0.000,0.3290,-2,0,-0.12,0.56,-0.11,-0.0215,0.0321,0.3249,0.0328,-0.0218,0.3000,0.2605,1.88,-0.46,10.54,1.0280,0.0000,1.5150,1.1240,2.3670,1,0.0320,0.0052,0.0000,0.0320,0.0052,0
15620,0.0300,-0.0060,0.3247,-0.0029,0.0039,-0.0059,0.23,-0.01,-0.53,0,3.473,-0.744,2.065,-3.899,-0.001,-0.010,0.998,0.000,0.000,0.000,0.3240,-1,0,-0.14,0.54,-0.28,-0.0220,0.0345,0.3261,0.0328,-0.0218,0.3000,0.2606,1.30,-0.30,15.97,1.0300,0.0000,1.5150,1.1240,2.3670,1,0.0320,0.0052,0.0000,0.0320,0.0052,0
15671,0.0296,-0.0044,0.3256,-0.0031,0.0043,-0.0024,0.22,-0.03,-0.72,0,3.468,1.026,3.897,-3.618,-0.000,-0.011,1.002,0.000,0.000,0.000,0.3250,0,0,-0.19,0.43,-0.49,-0.0224,0.0363,0.3254,0.0328,-0.0218,0.3000,0.2601,1.44,-0.34,21.55,1.0300,0.0000,1.4910,1.1230,2.3690,0,0.0320,0.0052,0.0000,0.0320,0.0052,0
15722,0.0290,0.0016,0.3254,-0.0038,0.0130,-0.0028,0.22,-0.01,-0.91,0,3.468,1.580,-2.848,-3.269,0.001,-0.010,0.998,0.000,0.000,0.000,0.3230,0,0,-0.14,0.23,-0.68,-0.0234,0.0365,0.3253,0.0328,-0.0218,0.3000,0.2602,2.27,-0.42,27.33,1.0310,0.0000,1.4910,1.1230,2.3690,0,0.0320,0.0052,0.0000,0.0320,0.0052,0
15774,0.0294,0.0026,0.3242,-0.0029,0.0119,-0.0087,0.30,-0.03,-1.09,0,3.473,0.779,-1.656,-3.166,0.001,-0.015,1.002,0.000,0.000,0.000,0.3240,0,0,-0.06,0.38,-0.84,-0.0245,0.0366,0.3244,0.0328,-0.0218,0.3000,0.2611,2.29,-0.35,32.72,1.0310,0.0000,1.4730,1.1180,2.3640,2,0.0320,0.0052,0.0000,0.0320,0.0052,0
15826,0.0292,0.0031,0.3237,-0.0027,0.0092,-0.0091,0.28,0.01,-1.23,0,3.468,-1.166,1.842,-1.868,-0.002,-0.009,0.997,0.000,0.000,0.000,0.3240,0,1,-0.02,0.46,-1.01,-0.0257,0.0363,0.3241,0.0328,-0.0218,0.3000,0.2612,2.20,-0.35,37.00,1.0360,0.0000,1.4730,1.1180,2.3640,2,0.0320,0.0052,0.0000,0.0320,0.0052,0
15877,0.0280,0.0041,0.3236,-0.0051,0.0079,-0.0076,0.26,0.04,-1.34,0,3.463,3.015,3.625,-1.232,0.005,-0.011,1.005,0.000,0.000,0.000,0.3240,-2,0,-0.09,0.35,-1.13,-0.0243,0.0380,0.3239,0.0328,-0.0218,0.3000,0.2610,2.21,-0.55,40.06,1.0360,0.0000,1.4620,1.1210,2.3640,2,0.0320,0.0052,0.0000,0.0320,0.0052,0
15929,0.0293,0.0039,0.3233,-0.0022,0.0044,-0.0068,0.39,-0.15,-1.41,0,3.468,-3.174,-5.518,0.821,-0.000,-0.012,1.003,0.000,0.000,0.000,0.3250,1,0,0.05,0.16,-1.20,-0.0250,0.0399,0.3238,0.0328,-0.0218,0.3000,0.2610,2.03,-0.32,42.32,1.0380,0.0000,1.4620,1.1210,2.3640,2,0.0320,0.0052,0.0000,0.0320,0.0052,0
15979,0.0291,0.0057,0.3240,-0.0018,0.0040,-0.0017,0.36,0.09,-1.39,0,3.468,-2.657,2.405,1.544,0.004,-0.009,0.999,0.000,0.000,0.000,0.3200,0,0,-0.11,0.44,-1.15,-0.0255,0.0386,0.3241,0.0328,-0.0218,0.3000,0.2603,2.14,-0.32,41.85,1.0380,0.0000,1.4640,1.1180,2.3690,0,0.0320,0.0052,0.0000,0.0320,0.0052,0
16031,0.0284,0.0041,0.3239,-0.0036,-0.0023,-0.0027,0.36,0.08,-1.32,0,3.463,-2.030,5.695,1.207,0.005,-0.014,0.994,0.000,0.000,0.000,0.3240,0,0,-0.24,0.32,-1.07,-0.0265,0.0380,0.3228,0.0328,-0.0218,0.3000,0.2605,1.73,-0.45,39.66,1.0390,0.0000,1.4640,1.1180,2.3690,0,0.0320,0.0052,0.0000,0.0320,0.0052,0
16082,0.0246,0.0031,0.3226,-0.0107,-0.0065,-0.0085,0.23,-0.08,-1.24,0,3.468,-1.352,0.078,1.580,0.003,-0.010,1.004,0.000,0.000,0.000,0.3220,1,1,-0.35,0.03,-1.01,-0.0275,0.0371,0.3228,0.0328,-0.0218,0.3000,0.2613,1.46,-1.05,37.24,1.0390,0.0000,1.4630,1.1260,2.3700,0,0.0320,0.0052,0.0000,0.0320,0.0052,0
16133,0.0241,0.0005,0.3221,-0.0101,-0.0124,-0.0078,0.17,-0.04,-1.15,0,3.468,-1.668,0.534,1.040,0.003,-0.006,1.001,0.000,0.000,0.000,0.3230,1,0,-0.41,0.03,-0.93,-0.0289,0.0359,0.3223,0.0328,-0.0218,0.3000,0.2613,0.99,-1.06,34.40,1.0360,0.0000,1.4630,1.1260,2.3700,0,0.0320,0.0052,0.0000,0.0320,0.0052,0
16184,0.0223,-0.0010,0.3222,-0.0121,-0.0152,-0.0057,-0.01,0.01,-1.06,0,3.468,1.169,1.503,0.063,0.001,-0.013,1.003,0.000,0.000,0.000,0.3210,0,1,-0.49,-0.01,-0.87,-0.0295,0.0340,0.3223,0.0328,-0.0218,0.3000,0.2611,0.75,-1.29,31.87,1.0360,0.0000,1.4660,1.1210,2.3730,7,0.0320,0.0052,0.0000,0.0320,0.0052,0
16235,0.0232,-0.0041,0.3219,-0.0090,-0.0194,-0.0039,-0.13,-0.10,-1.02,0,3.463,-0.466,3.986,-0.336,-0.005,-0.017,1.001,0.000,0.000,0.000,0.3200,2,0,-0.44,-0.07,-0.87,-0.0314,0.0333,0.3218,0.0328,-0.0218,0.3000,0.2609,0.33,-1.08,30.56,1.0340,0.0000,1.4660,1.1210,2.3730,7,0.0320,0.0052,0.0000,0.0320,0.0052,0
16287,0.0174,-0.0030,0.3208,-0.0186,-0.0148,-0.0087,-0.29,-0.21,-1.03,0,3.463,1.886,3.473,-1.822,0.004,-0.014,1.004,0.000,0.000,0.000,0.3240,0,0,-0.44,-0.28,-0.87,-0.0320,0.0292,0.3210,0.0328,-0.0218,0.3000,0.2617,0.63,-1.94,30.80,1.0340,0.0000,1.4690,1.1250,2.3780,0,0.0320,0.0052,0.0000,0.0320,0.0052,0
16338,0.0192,-0.0050,0.3204,-0.0118,-0.0146,-0.0076,-0.34,-0.21,-1.07,0,3.468,3.353,6.769,-2.248,0.003,-0.014,1.003,0.000,0.000,0.000,0.3240,-2,2,-0.34,-0.46,-0.97,-0.0329,0.0270,0.3218,0.0328,-0.0218,0.3000,0.2616,0.49,-1.49,32.13,1.0350,0.0000,1.4690,1.1250,2.3780,0,0.0320,0.0052,0.0000,0.0320,0.0052,0
16389,0.0172,-0.0060,0.3228,-0.0129,-0.0124,0.0078,-0.31,-0.21,-1.15,0,3.473,4.511,-0.116,0.007,0.005,-0.011,0.998,0.000,0.000,0.000,0.3230,0,0,-0.26,-0.77,-1.19,-0.0387,0.0361,0.3229,0.0328,-0.0218,0.3000,0.2595,0.53,-1.70,34.39,1.0350,0.0000,1.4590,1.1180,2.3830,0,0.0320,0.0052,0.0000,0.0320,0.0052,0
16441,0.0164,-0.0018,0.3232,-0.0115,-0.0008,0.0079,-0.15,-0.20,-1.16,0,3.468,4.668,1.747,-0.067,0.004,-0.008,0.991,0.000,0.000,0.000,0.3210,0,-1,-0.03,-0.76,-1.19,-0.0400,0.0360,0.3231,0.0328,-0.0218,0.3000,0.2594,1.39,-1.69,34.94,1.0370,0.0000,1.4590,1.1180,2.3830,0,0.0320,0.0052,0.0000,0.0320,0.0052,0
16491,0.0156,0.0005,0.3224,-0.0101,0.0049,-0.0010,0.03,-0.24,-1.16,0,3.468,2.646,4.572,-0.141,0.004,-0.012,0.993,0.000,0.000,0.000,0.3240,1,0,0.21,-0.89,-1.21,-0.0362,0.0362,0.3224,0.0328,-0.0218,0.3000,0.2605,1.82,-1.67,34.67,1.0370,0.0000,1.4600,1.1210,2.3670,0,0.0320,0.0052,0.0000,0.0320,0.0052,0
16543,0.0179,0.0024,0.3223,-0.0027,0.0079,-0.0041,0.09,-0.26,-1.13,0,3.463,3.555,-1.472,0.192,-0.001,-0.015,0.994,0.000,0.000,0.000,0.3230,0,0,0.35,-1.11,-1.19,-0.0358,0.0342,0.3225,0.0328,-0.0218,0.3000,0.2609,2.09,-1.16,34.04,1.0330,0.0000,1.4600,1.1210,2.3670,0,0.0320,0.0052,0.0000,0.0320,0.0052,0
16594,0.0223,0.0022,0.3230,0.0074,0.0066,-0.0020,0.21,-0.21,-1.12,0,3.468,-0.831,-4.552,1.258,0.004,-0.012,0.991,0.000,0.000,0.000,0.3170,0,0,0.54,-1.03,-1.18,-0.0348,0.0328,0.3222,0.0328,-0.0218,0.3000,0.2605,2.02,-0.37,33.70,1.0330,0.0000,1.4650,1.1190,2.3790,3,0.0320,0.0052,0.0000,0.0320,0.0052,0
16645,0.0228,0.0023,0.3228,0.0093,0.0042,-0.0052,0.22,-0.05,-1.08,0,3.457,0.144,-1.742,0.421,-0.001,-0.008,0.995,0.000,0.000,0.000,0.3170,-1,1,0.50,-0.80,-1.12,-0.0332,0.0308,0.3199,0.0328,-0.0218,0.3000,0.2609,1.91,-0.24,32.30,1.0330,0.0000,1.4650,1.1190,2.3790,3,0.0320,0.0052,0.0000,0.0320,0.0052,0
16696,0.0243,0.0023,0.3185,0.0118,0.0019,-0.0269,0.20,0.12,-1.04,0,3.457,0.124,4.240,-0.404,-0.002,-0.016,1.006,0.000,0.000,0.000,0.3150,-1,0,0.42,-0.65,-1.22,-0.0414,0.0403,0.3186,0.0328,-0.0218,0.3000,0.2641,1.78,-0.01,31.22,1.0330,0.0000,1.4670,1.1190,2.3810,0,0.0320,0.0052,0.0000,0.0320,0.0052,0
16748,0.0228,0.0024,0.3171,0.0069,0.0004,-0.0269,0.14,0.07,-1.04,0,3.457,-4.789,-1.039,0.437,-0.002,-0.009,1.008,0.000,0.000,0.000,0.3180,-1,0,0.42,-0.86,-1.27,-0.0413,0.0414,0.3165,0.0328,-0.0218,0.3000,0.2643,1.72,-0.35,31.11,1.0240,0.0000,1.4670,1.1190,2.3810,0,0.0320,0.0052,0.0000,0.0320,0.0052,0
16799,0.0295,0.0032,0.3161,0.0197,0.0008,-0.0213,-0.04,0.14,-1.04,0,3.463,0.755,0.538,0.176,-0.002,-0.011,1.008,0.000,0.000,0.000,0.3160,0,0,0.15,-0.81,-1.29,-0.0411,0.0427,0.3161,0.0328,-0.0218,0.3000,0.2639,1.79,0.72,31.24,1.0240,0.0000,1.4540,1.1220,2.3860,0,0.0320,0.0052,0.0000,0.0320,0.0052,0
16850,0.0312,0.0036,0.3152,0.0202,0.0015,-0.0155,-0.06,0.15,-1.03,0,3.463,-0.582,-2.006,-0.135,-0.004,-0.014,1.010,0.000,0.000,0.000,0.3150,0,0,0.19,-0.83,-1.28,-0.0404,0.0421,0.3155,0.0328,-0.0218,0.3000,0.2635,1.86,0.87,30.96,1.0270,0.0000,1.4540,1.1220,2.3860,0,0.0320,0.0052,0.0000,0.0320,0.0052,0
16901,0.0315,0.0054,0.3150,0.0172,0.0057,-0.0085,0.03,0.21,-1.06,0,3.463,-0.008,-5.820,-0.843,0.000,-0.013,1.008,0.000,0.000,0.000,0.3110,0,0,0.16,-0.73,-1.29,-0.0394,0.0411,0.3150,0.0328,-0.0218,0.3000,0.2627,2.18,0.75,31.83,1.0270,0.0000,1.4480,1.1270,2.3900,0,0.0320,0.0052,0.0000,0.0320,0.0052,0
16952,0.0323,0.0057,0.3147,0.0152,0.0056,-0.0042,0.04,0.32,-1.09,0,3.457,-0.003,-2.609,0.107,0.003,-0.014,1.006,0.000,0.000,0.000,0.3100,0,0,0.16,-0.43,-1.33,-0.0382,0.0397,0.3136,0.0328,-0.0218,0.3000,0.2623,2.20,0.71,32.69,1.0210,0.0000,1.4480,1.1270,2.3900,0,0.0320,0.0052,0.0000,0.0320,0.0052,0
17003,0.0332,0.0069,0.3116,0.0129,0.0074,-0.0153,0.09,0.31,-1.12,0,3.457,12.310,1.907,-0.937,0.002,-0.008,1.009,0.000,0.000,0.000,0.3090,-2,0,0.16,-0.30,-1.33,-0.0366,0.0379,0.3123,0.0328,-0.0218,0.3000,0.2641,2.36,0.67,33.65,1.0210,0.0000,1.4470,1.1250,2.3860,0,0.0320,0.0052,0.0000,0.0320,0.0052,0
17054,0.0348,0.0053,0.3109,0.0121,0.0019,-0.0117,0.66,0.27,-1.17,0,3.457,8.360,-3.485,-0.418,-0.002,-0.019,1.004,0.000,0.000,0.000,0.3100,-2,-5,0.69,-0.35,-1.54,-0.0433,0.0522,0.3116,0.0328,-0.0218,0.3000,0.2638,1.99,0.74,34.98,1.0210,0.0000,1.4470,1.1250,2.3860,0,0.0320,0.0052,0.0000,0.0320,0.0052,0
17105,0.0373,0.0068,0.3097,0.0139,-0.0005,-0.0106,1.09,0.37,-1.18,0,3.457,2.749,1.413,0.399,0.001,-0.017,1.008,0.000,0.000,0.000,0.3110,0,-1,1.10,-0.21,-1.66,-0.0395,0.0538,0.3111,0.0328,-0.0218,0.3000,0.2640,1.99,0.99,35.50,1.0210,0.0000,1.4470,1.1320,2.3840,0,0.0320,0.0052,0.0000,0.0320,0.0052,0
17156,0.0427,0.0101,0.3093,0.0203,-0.0023,-0.0064,1.23,0.39,-1.18,0,3.457,2.994,-3.251,0.358,0.002,-0.010,1.007,0.000,0.000,0.000,0.3100,-1,-1,1.24,-0.28,-1.66,-0.0376,0.0535,0.3112,0.0328,-0.0218,0.3000,0.2636,2.14,1.68,35.39,1.0240,0.0000,1.4470,1.1320,2.3840,0,0.0320,0.0052,0.0000,0.0320,0.0052,0
17206,0.0442,0.0093,0.3100,0.0180,-0.0136,0.0016,1.37,0.59,-1.17,0,3.463,0.905,-5.721,-0.379,-0.001,-0.014,1.004,0.000,0.000,0.000,0.3130,1,0,1.37,-0.13,-1.68,-0.0354,0.0539,0.3111,0.0328,-0.0218,0.3000,0.2626,1.56,1.69,35.04,1.0240,0.0000,1.4560,1.1250,2.3830,0,0.0320,0.0052,0.0000,0.0320,0.0052,0
17258,0.0469,0.0095,0.3101,0.0166,-0.0228,0.0039,1.43,0.84,-1.16,0,3.457,-0.910,-2.678,1.078,0.002,-0.011,1.000,0.000,0.000,0.000,0.3120,0,0,1.43,0.17,-1.67,-0.0343,0.0515,0.3120,0.0328,-0.0218,0.3000,0.2623,1.14,1.81,34.72,1.0310,0.0000,1.4560,1.1250,2.3830,0,0.0320,0.0052,0.0000,0.0320,0.0052,0
17309,0.0469,0.0073,0.3119,0.0078,-0.0363,0.0111,1.35,0.92,-1.10,0,3.463,-7.814,-0.822,2.993,0.006,-0.009,0.997,0.000,0.000,0.000,0.3130,1,0,1.38,0.31,-1.62,-0.0327,0.0487,0.3123,0.0328,-0.0218,0.3000,0.2612,0.35,1.40,33.13,1.0310,0.0000,1.4580,1.1260,2.3830,0,0.0320,0.0052,0.0000,0.0320,0.0052,0
17360,0.0454,0.0057,0.3125,-0.0040,-0.0464,0.0106,1.09,0.82,-0.99,0,3.457,-5.073,0.603,3.469,0.004,-0.009,0.997,0.000,0.000,0.000,0.3130,3,1,0.95,0.38,-1.40,-0.0340,0.0488,0.3131,0.0328,-0.0218,0.3000,0.2611,-0.24,0.74,29.59,1.0280,0.0000,1.4580,1.1260,2.3830,0,0.0320,0.0052,0.0000,0.0320,0.0052,0
17411,0.0454,0.0026,0.3131,-0.0105,-0.0567,0.0095,0.80,0.79,-0.80,0,3.463,-6.366,5.943,3.571,0.006,-0.007,0.999,0.000,0.000,0.000,0.3100,2,1,0.71,0.37,-1.15,-0.0353,0.0422,0.3132,0.0328,-0.0218,0.3000,0.2611,-0.95,0.43,23.94,1.0280,0.0000,1.4740,1.1240,2.3770,4,0.0320,0.0052,0.0000,0.0320,0.0052,0
17461,0.0430,-0.0003,0.3135,-0.0208,-0.0629,0.0078,0.48,0.61,-0.59,0,3.457,-7.707,4.795,4.317,0.005,-0.008,0.992,0.000,0.000,0.000,0.3180,2,0,0.40,0.09,-0.91,-0.0371,0.0368,0.3123,0.0328,-0.0218,0.3000,0.2612,-1.45,-0.23,17.78,1.0340,0.0000,1.4740,1.1240,2.3770,4,0.0320,0.0052,0.0000,0.0320,0.0052,0
17512,0.0411,-0.0034,0.3144,-0.0279,-0.0662,0.0104,0.07,0.36,-0.35,0,3.457,-7.182,3.969,5.006,0.006,-0.005,1.001,0.000,0.000,0.000,0.3140,3,1,0.02,-0.15,-0.69,-0.0372,0.0307,0.3140,0.0328,-0.0218,0.3000,0.2608,-1.83,-0.70,10.52,1.0340,0.0000,1.4890,1.1140,2.3750,2,0.0320,0.0052,0.0000,0.0320,0.0052,0
17564,0.0383,-0.0065,0.3149,-0.0342,-0.0660,0.0091,-0.29,0.20,-0.10,0,3.452,-3.992,5.789,3.566,0.001,-0.013,1.000,0.000,0.000,0.000,0.3150,0,0,-0.33,-0.34,-0.39,-0.0394,0.0222,0.3140,0.0328,-0.0218,0.3000,0.2608,-2.04,-1.20,2.98,1.0320,0.0000,1.4890,1.1140,2.3750,2,0.0320,0.0052,0.0000,0.0320,0.0052,0
17615,0.0365,-0.0120,0.3149,-0.0360,-0.0688,0.0056,-0.47,-0.07,0.09,0,3.457,-5.114,7.211,3.387,0.004,-0.008,0.998,0.000,0.000,0.000,0.3190,1,1,-0.53,-0.64,-0.20,-0.0397,0.0159,0.3144,0.0328,-0.0218,0.3000,0.2612,-2.56,-1.41,-2.76,1.0320,0.0000,1.5260,1.1110,2.3730,1,0.0320,0.0052,0.0000,0.0320,0.0052,0
17666,0.0328,-0.0148,0.3151,-0.0396,-0.0634,0.0041,-0.73,-0.42,0.25,0,3.463,-3.092,4.630,2.713,0.004,-0.014,0.995,0.000,0.000,0.000,0.3190,2,0,-0.87,-0.98,-0.05,-0.0436,0.0208,0.3165,0.0328,-0.0218,0.3000,0.2613,-2.50,-1.84,-7.43,1.0400,0.0000,1.5260,1.1110,2.3730,1,0.0320,0.0052,0.0000,0.0320,0.0052,0
17717,0.0315,-0.0172,0.3180,-0.0346,-0.0556,0.0139,-0.89,-0.65,0.37,0,3.463,-4.127,0.202,2.507,0.003,-0.009,0.994,0.000,0.000,0.000,0.3200,0,0,-1.01,-1.22,0.09,-0.0436,0.0152,0.3176,0.0328,-0.0218,0.3000,0.2597,-2.32,-1.71,-11.10,1.0400,0.0000,1.5330,1.1060,2.3820,1,0.0320,0.0052,0.0000,0.0320,0.0052,0
17768,0.0290,-0.0215,0.3186,-0.0316,-0.0519,0.0111,-1.00,-0.67,0.48,0,3.457,-1.076,0.470,1.633,0.004,-0.009,0.993,0.000,0.000,0.000,0.3140,2,1,-1.22,-1.23,0.22,-0.0431,0.0110,0.3185,0.0328,-0.0218,0.3000,0.2599,-2.44,-1.74,-14.50,1.0460,0.0000,1.5330,1.1060,2.3820,1,0.0320,0.0052,0.0000,0.0320,0.0052,0
17818,0.0263,-0.0241,0.3174,-0.0290,-0.0443,-0.0022,-1.06,-0.75,0.55,0,3.457,-2.767,4.897,1.132,0.005,-0.013,0.993,0.000,0.000,0.000,0.3180,1,0,-1.28,-1.22,0.27,-0.0482,0.0089,0.3174,0.0328,-0.0218,0.3000,0.2616,-2.26,-1.80,-16.44,1.0460,0.0000,1.5420,1.1060,2.3820,2,0.0320,0.0052,0.0000,0.0320,0.0052,0
17870,0.0236,-0.0269,0.3172,-0.0262,-0.0371,-0.0074,-1.08,-0.88,0.56,0,3.447,-2.337,-1.510,0.526,0.003,-0.016,0.989,0.000,0.000,0.000,0.3160,0,1,-1.42,-1.46,0.32,-0.0479,0.0056,0.3174,0.0328,-0.0218,0.3000,0.2622,-2.11,-1.86,-16.91,1.0430,0.0000,1.5420,1.1060,2.3820,2,0.0320,0.0052,0.0000,0.0320,0.0052,0
17921,0.0230,-0.0268,0.3167,-0.0175,-0.0232,-0.0122,-1.12,-0.89,0.56,0,3.457,1.803,1.610,-0.126,0.005,-0.010,0.995,0.000,0.000,0.000,0.3150,0,0,-1.56,-1.36,0.28,-0.0499,0.0047,0.3165,0.0328,-0.0218,0.3000,0.2628,-1.44,-1.48,-16.82,1.0430,0.0000,1.5480,1.1040,2.3850,2,0.0320,0.0052,0.0000,0.0320,0.0052,0
17972,0.0208,-0.0273,0.3160,-0.0137,-0.0124,-0.0155,-1.02,-0.94,0.55,0,3.452,5.298,-2.226,-0.503,0.005,-0.009,1.003,0.000,0.000,0.000,0.3160,0,0,-1.47,-1.44,0.27,-0.0486,0.0026,0.3154,0.0328,-0.0218,0.3000,0.2633,-0.97,-1.46,-16.37,1.0410,0.0000,1.5480,1.1040,2.3850,2,0.0320,0.0052,0.0000,0.0320,0.0052,0
18023,0.0196,-0.0254,0.3152,-0.0076,0.0024,-0.0157,-0.87,-0.85,0.53,0,3.452,3.488,-2.084,-0.492,0.003,-0.014,1.002,0.000,0.000,0.000,0.3150,-2,0,-1.20,-1.33,0.25,-0.0466,0.0009,0.3149,0.0328,-0.0218,0.3000,0.2634,-0.14,-1.25,-16.02,1.0410,0.0000,1.5510,1.1030,2.3840,2,0.0320,0.0052,0.0000,0.0320,0.0052,0
18075,0.0207,-0.0247,0.3144,0.0026,0.0104,-0.0168,-0.61,-0.74,0.52,0,3.452,7.754,-2.427,-0.000,0.003,-0.018,0.998,0.000,0.000,0.000,0.3120,0,2,-1.11,-1.15,-0.17,-0.0547,0.0131,0.3146,0.0328,-0.0218,0.3000,0.2637,0.29,-0.69,-15.65,1.0420,0.0000,1.5510,1.1030,2.3840,3,0.0320,0.0052,0.0000,0.0320,0.0052,0
18125,0.0228,-0.0237,0.3131,0.0136,0.0161,-0.0187,-0.25,-0.60,0.55,0,3.452,7.724,-3.950,0.801,-0.001,-0.018,1.000,0.000,0.000,0.000,0.3110,-1,0,-0.71,-1.00,-0.21,-0.0572,0.0136,0.3132,0.0328,-0.0218,0.3000,0.2642,0.62,-0.04,-16.43,1.0420,0.0000,1.5600,1.1020,2.3900,3,0.0320,0.0052,0.0000,0.0320,0.0052,0
18177,0.0224,-0.0193,0.3122,0.0159,0.0273,-0.0193,0.03,-0.37,0.58,0,3.447,5.119,-4.985,0.461,0.004,-0.013,1.002,0.000,0.000,0.000,0.3060,0,-2,-0.33,-0.80,-0.20,-0.0568,0.0157,0.3118,0.0328,-0.0218,0.3000,0.2644,1.45,0.04,-17.34,1.0420,0.0000,1.5600,1.1020,2.3900,0,0.0320,0.0052,0.0000,0.0320,0.0052,0
18228,0.0224,-0.0170,0.3087,0.0171,0.0293,-0.0310,0.28,-0.18,0.61,0,3.447,5.028,0.002,0.083,-0.004,-0.019,1.005,0.000,0.000,0.000,0.3060,0,0,-0.06,-0.56,-0.13,-0.0524,0.0159,0.3092,0.0328,-0.0218,0.3000,0.2663,1.70,0.10,-18.18,1.0420,0.0000,1.5720,1.1090,2.3890,0,0.0320,0.0052,0.0000,0.0320,0.0052,0
18280,0.0249,-0.0158,0.3072,0.0221,0.0262,-0.0291,0.64,-0.04,0.63,0,3.447,1.526,-4.171,-0.606,0.001,-0.014,1.008,0.000,0.000,0.000,0.3050,0,-2,0.20,-0.56,-0.13,-0.0502,0.0162,0.3073,0.0328,-0.0218,0.3000,0.2664,1.64,0.51,-18.96,1.0390,0.0000,1.5720,1.1090,2.3890,3,0.0320,0.0052,0.0000,0.0320,0.0052,0
18331,0.0253,-0.0132,0.3051,0.0209,0.0243,-0.0295,0.70,0.11,0.66,0,3.447,3.764,-1.019,0.726,0.004,-0.011,1.016,0.000,0.000,0.000,0.3010,-1,0,0.28,-0.35,-0.16,-0.0466,0.0164,0.3058,0.0328,-0.0218,0.3000,0.2668,1.72,0.48,-19.73,1.0390,0.0000,1.5900,1.1140,2.3890,3,0.0320,0.0052,0.0000,0.0320,0.0052,0
18382,0.0269,-0.0117,0.3037,0.0211,0.0192,-0.0249,0.79,0.26,0.67,0,3.442,4.205,-2.451,-0.682,0.003,-0.010,1.011,0.000,0.000,0.000,0.3030,-2,0,0.45,-0.29,-0.16,-0.0456,0.0181,0.3038,0.0328,-0.0218,0.3000,0.2666,1.60,0.60,-20.06,1.0420,0.0000,1.5900,1.1140,2.3890,3,0.0320,0.0052,0.0000,0.0320,0.0052,0
18433,0.0286,-0.0100,0.3020,0.0209,0.0145,-0.0213,0.96,0.32,0.66,0,3.447,0.435,1.148,0.013,0.001,-0.014,1.012,0.000,0.000,0.000,0.3030,0,-2,0.63,-0.15,-0.24,-0.0447,0.0220,0.3033,0.0328,-0.0218,0.3000,0.2665,1.50,0.71,-19.83,1.0420,0.0000,1.5770,1.1180,2.3980,9,0.0320,0.0052,0.0000,0.0320,0.0052,0
18485,0.0292,-0.0082,0.3010,0.0174,0.0094,-0.0164,0.96,0.40,0.69,0,3.447,-0.910,-3.593,-0.141,0.006,-0.008,1.008,0.000,0.000,0.000,0.3010,0,-1,0.65,-0.23,-0.26,-0.0397,0.0220,0.3030,0.0328,-0.0218,0.3000,0.2662,1.39,0.59,-20.59,1.0390,0.0000,1.5770,1.1180,2.3980,9,0.0320,0.0052,0.0000,0.0320,0.0052,0
18537,0.0306,-0.0097,0.3012,0.0152,-0.0034,-0.0079,0.90,0.50,0.73,0,3.447,-4.334,5.908,-0.455,0.001,-0.017,1.007,0.000,0.000,0.000,0.3020,2,0,0.60,-0.04,-0.27,-0.0366,0.0219,0.3025,0.0328,-0.0218,0.3000,0.2652,0.69,0.59,-21.94,1.0390,0.0000,1.5880,1.1140,2.3990,2,0.0320,0.0052,0.0000,0.0320,0.0052,0
18588,0.0310,-0.0109,0.3010,0.0102,-0.0132,-0.0029,0.73,0.39,0.77,0,3.452,-8.302,-1.492,1.135,0.000,-0.008,1.011,0.000,0.000,0.000,0.3020,1,0,0.41,-0.33,-0.24,-0.0360,0.0166,0.3025,0.0328,-0.0218,0.3000,0.2648,0.15,0.38,-23.14,1.0350,0.0000,1.5880,1.1140,2.3990,2,0.0320,0.0052,0.0000,0.0320,0.0052,0
18640,0.0311,-0.0122,0.3017,0.0060,-0.0200,0.0049,0.35,0.47,0.80,0,3.452,-2.018,2.843,-0.408,0.001,-0.011,1.007,0.000,0.000,0.000,0.2990,0,1,-0.01,-0.23,-0.16,-0.0355,0.0136,0.3028,0.0328,-0.0218,0.3000,0.2638,-0.26,0.19,-23.97,1.0350,0.0000,1.5720,1.1140,2.3990,2,0.0320,0.0052,0.0000,0.0320,0.0052,0
18692,0.0315,-0.0162,0.3020,0.0027,-0.0299,0.0088,0.14,0.36,0.79,0,3.447,-6.754,3.337,-0.007,0.002,-0.013,1.003,0.000,0.000,0.000,0.3000,2,0,-0.14,-0.35,-0.15,-0.0380,0.0134,0.3024,0.0328,-0.0218,0.3000,0.2633,-1.01,0.07,-23.60,1.0370,0.0000,1.5720,1.1140,2.3990,2,0.0320,0.0052,0.0000,0.0320,0.0052,0
18743,0.0319,-0.0173,0.3006,0.0007,-0.0298,0.0026,-0.19,0.16,0.74,0,3.452,-5.963,3.071,-1.442,0.001,-0.011,1.005,0.000,0.000,0.000,0.3020,1,2,-0.47,-0.51,-0.13,-0.0378,0.0077,0.3022,0.0328,-0.0218,0.3000,0.2642,-1.07,0.00,-22.16,1.0370,0.0000,1.5730,1.1080,2.3960,1,0.0320,0.0052,0.0000,0.0320,0.0052,0
18795,0.0319,-0.0203,0.3008,-0.0009,-0.0318,0.0056,-0.44,0.09,0.68,0,3.447,-4.005,3.121,-1.374,0.004,-0.008,1.006,0.000,0.000,0.000,0.3010,1,0,-0.77,-0.62,-0.17,-0.0432,0.0046,0.3028,0.0328,-0.0218,0.3000,0.2639,-1.38,-0.08,-20.51,1.0390,0.0000,1.5730,1.1080,2.3960,2,0.0320,0.0052,0.0000,0.0320,0.0052,0
18846,0.0302,-0.0224,0.3015,-0.0052,-0.0291,0.0100,-0.66,-0.05,0.61,0,3.447,0.219,1.990,-1.051,0.004,-0.007,1.004,0.000,0.000,0.000,0.3030,1,0,-0.98,-0.78,-0.25,-0.0432,0.0017,0.3030,0.0328,-0.0218,0.3000,0.2633,-1.41,-0.40,-18.28,1.0390,0.0000,1.5340,1.1080,2.3970,2,0.0320,0.0052,0.0000,0.0320,0.0052,0
18897,0.0301,-0.0246,0.3021,-0.0043,-0.0255,0.0134,-0.75,-0.17,0.54,0,3.452,-2.888,1.198,-1.328,0.002,-0.008,1.003,0.000,0.000,0.000,0.3060,0,0,-0.97,-0.87,-0.30,-0.0431,-0.0013,0.3038,0.0328,-0.0218,0.3000,0.2628,-1.40,-0.36,-16.35,1.0390,0.0000,1.5340,1.1080,2.3970,2,0.0320,0.0052,0.0000,0.0320,0.0052,0
18948,0.0289,-0.0260,0.3044,-0.0053,-0.0196,0.0240,-0.82,-0.26,0.47,0,3.452,-0.492,1.922,-1.953,0.003,-0.011,1.001,0.000,0.000,0.000,0.3090,0,0,-1.12,-0.93,-0.37,-0.0419,-0.0039,0.3053,0.0328,-0.0218,0.3000,0.2612,-1.23,-0.50,-14.13,1.0390,0.0000,1.5280,1.1040,2.4010,4,0.0320,0.0052,0.0000,0.0320,0.0052,0
18999,0.0298,-0.0271,0.3056,-0.0004,-0.0132,0.0241,-0.84,-0.34,0.37,0,3.452,1.411,0.955,-1.454,0.001,-0.009,0.998,0.000,0.000,0.000,0.3090,-1,0,-1.15,-1.03,-0.47,-0.0402,-0.0063,0.3075,0.0328,-0.0218,0.3000,0.2610,-1.00,-0.21,-11.02,1.0430,0.0000,1.5280,1.1040,2.4010,4,0.0320,0.0052,0.0000,0.0320,0.0052,0
19049,0.0301,-0.0267,0.3088,0.0033,-0.0040,0.0312,-0.78,-0.38,0.28,0,3.457,2.897,-1.319,-2.412,0.004,-0.004,0.996,0.000,0.000,0.000,0.3110,0,0,-1.15,-1.02,-0.70,-0.0473,0.0047,0.3092,0.0328,-0.0218,0.3000,0.2596,-0.54,-0.00,-8.49,1.0430,0.0000,1.5190,1.1050,2.3940,3,0.0320,0.0052,0.0000,0.0320,0.0052,0
19101,0.0299,-0.0240,0.3103,0.0052,0.0093,0.0288,-0.65,-0.29,0.15,0,3.447,6.685,-2.764,-3.552,0.002,-0.008,0.987,0.000,0.000,0.000,0.3130,-1,0,-1.01,-0.95,-0.82,-0.0461,0.0053,0.3109,0.0328,-0.0218,0.3000,0.2596,0.29,0.07,-4.58,1.0400,0.0000,1.5190,1.1050,2.3940,3,0.0320,0.0052,0.0000,0.0320,0.0052,0
19152,0.0294,-0.0230,0.3124,0.0055,0.0155,0.0277,-0.38,-0.18,-0.01,0,3.452,4.500,1.014,-3.657,0.002,-0.011,0.990,0.000,0.000,0.000,0.3080,-2,0,-0.67,-0.79,-1.05,-0.0474,0.0075,0.3123,0.0328,-0.0218,0.3000,0.2593,0.66,0.05,0.33,1.0400,0.0000,1.5250,1.1050,2.3820,3,0.0320,0.0052,0.0000,0.0320,0.0052,0
19203,0.0309,-0.0204,0.3136,0.0100,0.0225,0.0220,-0.20,-0.15,-0.19,0,3.447,5.174,1.701,-3.003,0.002,-0.011,0.992,0.000,0.000,0.000,0.3090,-1,0,-0.47,-0.83,-1.27,-0.0468,0.0113,0.3115,0.0328,-0.0218,0.3000,0.2597,1.17,0.37,5.56,1.0410,0.0000,1.5250,1.1050,2.3820,3,0.0320,0.0052,0.0000,0.0320,0.0052,0
19255,0.0322,-0.0170,0.3106,0.0130,0.0292,-0.0014,0.08,-0.17,-0.35,0,3.447,6.399,-1.730,-2.593,0.004,-0.009,0.994,0.000,0.000,0.000,0.3060,-1,0,-0.21,-0.91,-1.45,-0.0461,0.0138,0.3109,0.0328,-0.0218,0.3000,0.2628,1.72,0.60,10.37,1.0410,0.0000,1.5180,1.1060,2.3910,0,0.0320,0.0052,0.0000,0.0320,0.0052,0
19307,0.0334,-0.0154,0.3104,0.0155,0.0284,-0.0053,0.35,-0.00,-0.46,0,3.442,4.568,-6.668,-1.395,-0.001,-0.011,0.994,0.000,0.000,0.000,0.3090,-2,0,0.11,-0.81,-1.60,-0.0455,0.0164,0.3093,0.0328,-0.0218,0.3000,0.2632,1.79,0.80,13.70,1.0460,0.0000,1.5180,1.1060,2.3910,0,0.0320,0.0052,0.0000,0.0320,0.0052,0
19358,0.0348,-0.0145,0.3083,0.0171,0.0238,-0.0148,0.63,0.16,-0.56,0,3.447,1.988,-2.239,-1.858,-0.002,-0.014,1.000,0.000,0.000,0.000,0.3080,-2,0,0.32,-0.45,-1.72,-0.0449,0.0213,0.3088,0.0328,-0.0218,0.3000,0.2647,1.63,0.97,16.89,1.0460,0.0000,1.5180,1.1070,2.3900,4,0.0320,0.0052,0.0000,0.0320,0.0052,0
19409,0.0355,-0.0118,0.3075,0.0151,0.0219,-0.0152,0.77,0.19,-0.67,0,3.442,1.065,-1.837,-1.982,-0.005,-0.015,1.001,0.000,0.000,0.000,0.3080,-1,0,0.40,-0.33,-1.85,-0.0444,0.0264,0.3081,0.0328,-0.0218,0.3000,0.2648,1.73,0.92,20.01,1.0420,0.0000,1.5180,1.1070,2.3900,4,0.0320,0.0052,0.0000,0.0320,0.0052,0
19460,0.0391,-0.0090,0.3075,0.0202,0.0194,-0.0103,0.86,0.22,-0.78,0,3.447,1.721,0.115,-2.586,0.003,-0.009,1.005,0.000,0.000,0.000,0.3070,-1,-1,0.45,-0.23,-1.96,-0.0440,0.0292,0.3076,0.0328,-0.0218,0.3000,0.2643,1.81,1.42,23.44,1.0420,0.0000,1.5070,1.1100,2.3880,4,0.0320,0.0052,0.0000,0.0320,0.0052,0
19512,0.0395,-0.0062,0.3070,0.0170,0.0164,-0.0080,1.01,0.28,-0.91,0,3.447,1.350,-1.224,-1.263,0.003,-0.010,1.008,0.000,0.000,0.000,0.3080,0,0,0.53,-0.24,-2.10,-0.0411,0.0320,0.3071,0.0328,-0.0218,0.3000,0.2642,1.87,1.29,27.41,1.0430,0.0000,1.5070,1.1100,2.3880,4,0.0320,0.0052,0.0000,0.0320,0.0052,0
19564,0.0414,-0.0055,0.3072,0.0165,0.0079,-0.0018,1.08,0.50,-1.03,0,3.447,0.649,0.808,-3.121,0.002,-0.014,1.002,0.000,0.000,0.000,0.3060,0,0,0.60,-0.18,-2.17,-0.0391,0.0334,0.3072,0.0328,-0.0218,0.3000,0.2634,1.52,1.41,30.85,1.0430,0.0000,1.4890,1.1140,2.3930,4,0.0320,0.0052,0.0000,0.0320,0.0052,0
19615,0.0436,-0.0055,0.3072,0.0152,-0.0018,0.0008,1.16,0.52,-1.16,0,3.447,-3.285,-1.959,-3.011,0.005,-0.011,1.004,0.000,0.000,0.000,0.3050,0,0,0.63,-0.22,-2.33,-0.0371,0.0342,0.3068,0.0328,-0.0218,0.3000,0.2632,1.07,1.51,34.68,1.0450,0.0000,1.4890,1.1140,2.3930,4,0.0320,0.0052,0.0000,0.0320,0.0052,0
19666,0.0431,-0.0088,0.3060,0.0076,-0.0184,-0.0036,1.01,0.60,-1.30,0,3.442,-6.000,0.656,-2.748,0.006,-0.012,1.008,0.000,0.000,0.000,0.3040,3,1,0.46,-0.13,-2.49,-0.0348,0.0344,0.3062,0.0328,-0.0218,0.3000,0.2639,0.05,1.11,38.86,1.0450,0.0000,1.4830,1.1070,2.3930,4,0.0320,0.0052,0.0000,0.0320,0.0052,0
19717,0.0431,-0.0103,0.3058,0.0019,-0.0274,-0.0010,0.74,0.51,-1.44,0,3.442,-7.913,3.881,-2.675,0.000,-0.011,1.006,0.000,0.000,0.000,0.3030,3,2,0.21,-0.07,-2.49,-0.0483,0.0246,0.3058,0.0328,-0.0218,0.3000,0.2636,-0.47,0.84,43.25,1.0500,0.0000,1.4830,1.1070,2.3930,2,0.0320,0.0052,0.0000,0.0320,0.0052,0
19769,0.0429,-0.0147,0.3041,-0.0028,-0.0392,-0.0063,0.41,0.38,-1.59,0,3.442,-10.339,4.473,-2.394,0.004,-0.009,1.013,0.000,0.000,0.000,0.3040,3,1,-0.17,-0.25,-2.60,-0.0509,0.0200,0.3048,0.0328,-0.0218,0.3000,0.2645,-1.33,0.60,47.69,1.0500,0.0000,1.4650,1.1070,2.3920,2,0.0320,0.0052,0.0000,0.0320,0.0052,0
19820,0.0393,-0.0181,0.3039,-0.0132,-0.0447,-0.0025,-0.04,0.18,-1.72,0,3.447,-6.667,3.905,-2.488,0.002,-0.007,1.015,0.000,0.000,0.000,0.3080,2,0,-0.69,-0.47,-2.72,-0.0527,0.0144,0.3047,0.0328,-0.0218,0.3000,0.2642,-1.83,-0.13,51.67,1.0560,0.0000,1.4650,1.1070,2.3920,2,0.0320,0.0052,0.0000,0.0320,0.0052,0
19870,0.0367,-0.0214,0.3057,-0.0184,-0.0455,0.0131,-0.46,-0.06,-1.85,0,3.442,-6.518,-0.330,-2.277,0.003,-0.006,1.007,0.000,0.000,0.000,0.3050,3,2,-1.02,-0.67,-2.85,-0.0532,0.0097,0.3064,0.0328,-0.0218,0.3000,0.2621,-2.11,-0.56,55.39,1.0560,0.0000,1.4540,1.1030,2.3910,3,0.0320,0.0052,0.0000,0.0320,0.0052,0
19922,0.0365,-0.0249,0.3064,-0.0159,-0.0441,0.0174,-0.70,-0.26,-1.97,0,3.447,-2.596,-0.152,-4.083,0.006,-0.012,0.998,0.000,0.000,0.000,0.3120,2,0,-1.32,-0.63,-2.95,-0.0569,0.0031,0.3069,0.0328,-0.0218,0.3000,0.2615,-2.30,-0.46,59.22,1.0590,0.0000,1.4540,1.1030,2.3910,3,0.0320,0.0052,0.0000,0.0320,0.0052,0
19972,0.0360,-0.0283,0.3088,-0.0127,-0.0405,0.0274,-0.89,-0.34,-2.16,0,3.447,-4.508,0.234,-4.420,0.004,-0.008,1.000,0.000,0.000,0.000,0.3100,0,0,-1.45,-0.61,-3.16,-0.0573,-0.0022,0.3093,0.0328,-0.0218,0.3000,0.2600,-2.38,-0.34,64.88,1.0590,0.0000,1.4400,1.0950,2.3920,0,0.0320,0.0052,0.0000,0.0320,0.0052,0
20024,0.0356,-0.0312,0.3102,-0.0091,-0.0347,0.0271,-1.13,-0.39,-2.33,0,3.442,-0.416,1.892,-4.648,0.003,-0.007,0.995,0.000,0.000,0.000,0.3140,0,-1,-1.68,-0.62,-3.38,-0.0576,-0.0062,0.3106,0.0328,-0.0218,0.3000,0.2598,-2.32,-0.20,69.82,1.0650,0.0000,1.4400,1.0950,2.3920,0,0.0320,0.0052,0.0000,0.0320,0.0052,0
20075,0.0344,-0.0331,0.3125,-0.0070,-0.0262,0.0307,-1.19,-0.47,-2.52,0,3.452,-0.359,-3.741,-3.332,0.005,-0.009,0.992,0.000,0.000,0.000,0.3130,0,-1,-1.75,-0.73,-3.63,-0.0544,-0.0025,0.3128,0.0328,-0.0218,0.3000,0.2589,-2.06,-0.19,75.56,1.0650,0.0000,1.4340,1.0980,2.3880,0,0.0320,0.0052,0.0000,0.0320,0.0052,0
20126,0.0352,-0.0335,0.3139,-0.0005,-0.0146,0.0261,-1.21,-0.31,-2.68,0,3.452,3.755,-5.328,-3.745,0.004,-0.014,0.992,0.000,0.000,0.000,0.3140,-1,0,-1.78,-0.54,-3.78,-0.0520,-0.0032,0.3137,0.0328,-0.0218,0.3000,0.2592,-1.53,0.18,80.49,1.0740,0.0000,1.4340,1.0980,2.3880,0,0.0320,0.0052,0.0000,0.0320,0.0052,0
20176,0.0359,-0.0323,0.3144,0.0038,-0.0011,0.0176,-1.07,-0.15,-2.87,0,3.442,5.240,-3.079,-4.498,0.004,-0.013,0.986,0.000,0.000,0.000,0.3140,0,0,-1.61,-0.26,-4.00,-0.0513,-0.0013,0.3145,0.0328,-0.0218,0.3000,0.2600,-0.79,0.43,86.23,1.0740,0.0000,1.4270,1.0940,2.3780,0,0.0320,0.0052,0.0000,0.0320,0.0052,0
20227,0.0373,-0.0285,0.3151,0.0075,0.0152,0.0111,-0.87,0.02,-3.07,0,3.447,4.844,0.478,-2.869,0.005,-0.009,0.989,0.000,0.000,0.000,0.3160,0,0,-1.35,-0.10,-4.22,-0.0494,-0.0012,0.3147,0.0328,-0.0218,0.3000,0.2606,0.24,0.71,92.16,1.0780,0.0000,1.4270,1.0940,2.3780,0,0.0320,0.0052,0.0000,0.0320,0.0052,0
20279,0.0380,-0.0248,0.3154,0.0082,0.0278,0.0050,-0.57,0.08,-3.26,0,3.442,11.304,-1.652,-3.308,0.002,-0.014,0.990,0.000,0.000,0.000,0.3140,-3,0,-1.10,-0.12,-4.37,-0.0472,-0.0007,0.3152,0.0328,-0.0218,0.3000,0.2612,1.11,0.79,97.69,1.0780,0.0000,1.4250,1.0980,2.3830,3,0.0320,0.0052,0.0000,0.0320,0.0052,0
20330,0.0379,-0.0211,0.3155,0.0068,0.0364,0.0002,-0.12,0.14,-3.41,0,3.442,10.295,-0.873,-2.474,0.005,-0.005,0.989,0.000,0.000,0.000,0.3110,-3,-1,-0.57,0.02,-4.69,-0.0525,0.0089,0.3147,0.0328,-0.0218,0.3000,0.2617,1.77,0.72,102.37,1.0840,0.0000,1.4250,1.0980,2.3830,3,0.0320,0.0052,0.0000,0.0320,0.0052,0
20382,0.0366,-0.0157,0.3130,0.0022,0.0435,-0.0156,0.38,0.21,-3.52,0,3.442,8.260,0.567,-1.323,-0.001,-0.019,0.993,0.000,0.000,0.000,0.3110,-1,0,-0.07,0.06,-4.80,-0.0501,0.0145,0.3129,0.0328,-0.0218,0.3000,0.2638,2.47,0.40,105.75,1.0840,0.0000,1.4170,1.1030,2.3860,1,0.0320,0.0052,0.0000,0.0320,0.0052,0
20433,0.0375,-0.0104,0.3122,0.0016,0.0462,-0.0191,0.80,0.26,-3.59,0,3.442,7.376,0.959,-1.435,0.004,-0.012,1.001,0.000,0.000,0.000,0.3120,-1,0,0.36,0.03,-4.87,-0.0495,0.0174,0.3115,0.0328,-0.0218,0.3000,0.2644,2.96,0.43,107.64,1.0820,0.0000,1.4170,1.1030,2.3860,1,0.0320,0.0052,0.0000,0.0320,0.0052,0
20484,0.0376,-0.0084,0.3111,-0.0009,0.0387,-0.0196,1.15,0.27,-3.65,0,3.442,3.774,-2.246,0.099,0.002,-0.011,1.003,0.000,0.000,0.000,0.3090,0,0,0.74,-0.01,-4.94,-0.0488,0.0202,0.3107,0.0328,-0.0218,0.3000,0.2646,2.75,0.32,109.47,1.0820,0.0000,1.4260,1.1050,2.3870,1,0.0320,0.0052,0.0000,0.0320,0.0052,0
20536,0.0372,-0.0047,0.3101,-0.0046,0.0326,-0.0178,1.40,0.35,-3.69,0,3.442,2.488,4.723,0.290,0.003,-0.013,0.998,0.000,0.000,0.000,0.3080,0,0,0.93,0.10,-4.94,-0.0478,0.0220,0.3094,0.0328,-0.0218,0.3000,0.2646,2.73,0.13,110.76,1.0800,0.0000,1.4260,1.1050,2.3870,1,0.0320,0.0052,0.0000,0.0320,0.0052,0
20588,0.0373,-0.0026,0.3083,-0.0073,0.0221,-0.0224,1.49,0.22,-3.68,0,3.442,-0.315,2.420,1.496,0.008,-0.010,1.010,0.000,0.000,0.000,0.3100,1,2,1.06,-0.14,-4.92,-0.0469,0.0230,0.3080,0.0328,-0.0218,0.3000,0.2655,2.38,0.01,110.27,1.0800,0.0000,1.4230,1.1120,2.3890,0,0.0320,0.0052,0.0000,0.0320,0.0052,0
20639,0.0361,-0.0021,0.3072,-0.0112,0.0087,-0.0199,1.52,0.07,-3.61,0,3.442,-2.005,3.637,2.482,0.010,-0.008,1.008,0.000,0.000,0.000,0.3090,1,1,1.07,-0.19,-4.77,-0.0569,0.0195,0.3079,0.0328,-0.0218,0.3000,0.2654,1.79,-0.26,108.43,1.0750,0.0000,1.4230,1.1120,2.3890,0,0.0320,0.0052,0.0000,0.0320,0.0052,0
20690,0.0330,-0.0041,0.3083,-0.0177,-0.0087,-0.0074,1.48,-0.03,-3.50,0,3.442,-6.951,4.700,4.007,0.007,-0.003,1.006,0.000,0.000,0.000,0.3050,1,2,0.98,-0.37,-4.63,-0.0588,0.0176,0.3077,0.0328,-0.0218,0.3000,0.2638,0.85,-0.78,104.85,1.0750,0.0000,1.4300,1.1130,2.3960,0,0.0320,0.0052,0.0000,0.0320,0.0052,0
20741,0.0325,-0.0061,0.3080,-0.0174,-0.0217,-0.0046,1.22,-0.16,-3.28,0,3.436,-5.471,3.355,6.365,0.005,-0.008,1.002,0.000,0.000,0.000,0.3050,0,0,0.63,-0.58,-4.37,-0.0624,0.0153,0.3065,0.0328,-0.0218,0.3000,0.2636,0.09,-0.81,98.54,1.0780,0.0000,1.4300,1.1130,2.3960,0,0.0320,0.0052,0.0000,0.0320,0.0052,0
20793,0.0314,-0.0097,0.3057,-0.0168,-0.0368,-0.0136,0.86,-0.38,-2.96,0,3.436,-5.467,-0.610,5.568,0.003,-0.009,1.004,0.000,0.000,0.000,0.3050,3,0,0.36,-0.75,-4.05,-0.0635,0.0128,0.3057,0.0328,-0.0218,0.3000,0.2650,-0.86,-0.85,88.78,1.0780,0.0000,1.4360,1.1050,2.3920,2,0.0320,0.0052,0.0000,0.0320,0.0052,0
20844,0.0313,-0.0131,0.3051,-0.0127,-0.0471,-0.0109,0.55,-0.33,-2.69,0,3.436,-7.186,-1.781,4.648,0.006,-0.007,1.007,0.000,0.000,0.000,0.3070,3,0,0.10,-0.72,-3.77,-0.0634,0.0067,0.3050,0.0328,-0.0218,0.3000,0.2648,-1.59,-0.66,80.81,1.0680,0.0000,1.4360,1.1050,2.3920,2,0.0320,0.0052,0.0000,0.0320,0.0052,0
20895,0.0297,-0.0170,0.3056,-0.0124,-0.0546,-0.0032,0.13,-0.22,-2.48,0,3.442,-9.804,-2.146,3.205,0.006,-0.006,1.003,0.000,0.000,0.000,0.3040,2,-1,-0.24,-0.63,-3.52,-0.0637,-0.0001,0.3053,0.0328,-0.0218,0.3000,0.2639,-2.22,-0.77,74.43,1.0680,0.0000,1.4460,1.0920,2.3950,5,0.0320,0.0052,0.0000,0.0320,0.0052,0
20947,0.0297,-0.0209,0.3055,-0.0094,-0.0582,-0.0002,-0.33,-0.13,-2.31,0,3.436,-9.189,1.218,2.793,0.002,-0.011,1.001,0.000,0.000,0.000,0.3040,2,0,-0.73,-0.54,-3.37,-0.0620,-0.0058,0.3048,0.0328,-0.0218,0.3000,0.2636,-2.66,-0.63,69.19,1.0710,0.0000,1.4460,1.0920,2.3950,5,0.0320,0.0052,0.0000,0.0320,0.0052,0
20999,0.0303,-0.0248,0.3044,-0.0058,-0.0551,-0.0034,-0.81,-0.16,-2.20,0,3.442,-5.102,-1.485,3.279,0.004,-0.013,1.007,0.000,0.000,0.000,0.3050,2,-1,-1.20,-0.59,-3.21,-0.0619,-0.0115,0.3044,0.0328,-0.0218,0.3000,0.2641,-2.79,-0.42,66.11,1.0710,0.0000,1.4460,1.0900,2.3930,5,0.0320,0.0052,0.0000,0.0320,0.0052,0
21050,0.0295,-0.0290,0.3043,-0.0057,-0.0537,-0.0017,-1.08,-0.13,-2.11,0,3.442,-3.864,-1.658,1.207,0.004,-0.007,1.000,0.000,0.000,0.000,0.3040,0,0,-1.46,-0.53,-3.04,-0.0596,-0.0174,0.3046,0.0328,-0.0218,0.3000,0.2640,-3.01,-0.47,63.44,1.0770,0.0000,1.4460,1.0900,2.3930,5,0.0320,0.0052,0.0000,0.0320,0.0052,0
21101,0.0288,-0.0330,0.3044,-0.0054,-0.0474,0.0005,-1.29,-0.06,-2.03,0,3.436,-3.708,0.797,1.080,0.003,-0.013,1.002,0.000,0.000,0.000,0.3050,1,0,-1.66,-0.45,-2.98,-0.0579,-0.0220,0.3045,0.0328,-0.0218,0.3000,0.2637,-3.00,-0.50,60.83,1.0770,0.0000,1.4500,1.0880,2.3910,0,0.0320,0.0052,0.0000,0.0320,0.0052,0
21153,0.0285,-0.0358,0.3044,-0.0044,-0.0380,0.0015,-1.47,-0.07,-1.97,0,3.442,2.177,-2.822,-0.619,0.004,-0.012,0.997,0.000,0.000,0.000,0.3060,0,0,-1.89,-0.45,-2.98,-0.0611,-0.0198,0.3050,0.0328,-0.0218,0.3000,0.2636,-2.76,-0.48,59.00,1.0840,0.0000,1.4500,1.0880,2.3910,0,0.0320,0.0052,0.0000,0.0320,0.0052,0
