time_ms,pos_x,pos_y,pos_z,vel_x,vel_y,vel_z,roll,pitch,yaw,thrust,vbat,gyro_x,gyro_y,gyro_z,acc_x,acc_y,acc_z,rate_roll,rate_pitch,rate_yaw,range_z,flow_dx,flow_dy,mekf_roll,mekf_pitch,mekf_yaw,mekf_x,mekf_y,mekf_z,our_ref_x,our_ref_y,our_ref_z,our_thrust,our_roll_cmd,our_pitch_cmd,our_yaw_rate_cmd,multi_front,multi_back,multi_left,multi_right,multi_up,ai_feat_count,vo_x,vo_y,vo_sigma,pg_x,pg_y,lc_count
0,0.1706,1.0706,0.0121,-0.0135,-0.0191,-0.0014,0.14,-0.57,-36.10,0,3.832,-0.165,0.367,0.140,-0.008,0.001,1.001,0.000,0.000,0.000,0.0130,4,0,0.00,0.00,0.00,0.0000,0.0000,0.0000,0.0000,0.0000,0.0000,0.0000,0.00,0.00,0.00,0.9380,0.2770,1.1330,1.2440,2.7000,0,0.0000,0.0000,0.0000,0.0000,0.0000,0
102,0.1759,1.0688,0.0125,0.0158,-0.0229,0.0017,0.10,-0.52,-35.92,0,3.838,-0.292,0.012,0.272,-0.008,-0.001,0.998,0.000,0.000,0.000,0.0130,-1,-5,0.00,0.00,0.00,0.0000,0.0000,0.0000,0.0000,0.0000,0.0000,0.0000,0.00,0.00,0.00,0.9370,0.2750,1.1300,1.2440,2.7010,0,0.0000,0.0000,0.0000,0.0000,0.0000,0
203,0.1723,1.0689,0.0129,-0.0073,-0.0160,0.0031,0.09,-0.48,-35.74,0,3.832,-0.088,0.387,-0.130,-0.007,0.002,1.000,0.000,0.000,0.000,0.0110,-1,-1,0.00,0.00,0.00,0.0000,0.0000,0.0000,0.0000,0.0000,0.0000,0.0000,0.00,0.00,0.00,0.9370,0.2750,1.1300,1.2470,2.7010,0,0.0000,0.0000,0.0000,0.0000,0.0000,0
305,0.1741,1.0663,0.0122,0.0031,-0.0253,-0.0015,0.11,-0.44,-35.56,0,3.843,0.091,-0.148,0.084,-0.008,-0.002,0.999,0.000,0.000,0.000,0.0140,1,-15,0.00,0.00,0.00,0.0000,0.0000,0.0000,0.0000,0.0000,0.0000,0.0000,0.00,0.00,0.00,0.9410,0.2850,1.1330,1.2470,2.7100,0,0.0000,0.0000,0.0000,0.0000,0.0000,0
407,0.1754,1.0698,0.0131,0.0098,-0.0001,0.0037,-0.12,-0.50,-35.38,0,3.832,0.106,-0.134,0.074,-0.007,0.001,1.000,0.000,0.000,0.000,0.0100,-13,-5,0.00,0.00,0.00,0.0000,0.0000,0.0000,0.0000,0.0000,0.0000,0.0000,0.00,0.00,0.00,0.9410,0.2850,1.1330,1.2480,2.7100,0,0.0000,0.0000,0.0000,0.0000,0.0000,0
510,0.1766,1.0663,0.0120,0.0118,-0.0176,-0.0029,-0.00,-0.48,-35.21,0,3.843,-0.429,-0.064,0.351,-0.009,-0.002,0.999,0.000,0.000,0.000,0.0110,5,5,0.00,0.00,0.00,0.0000,0.0000,0.0000,0.0000,0.0000,0.0000,0.0000,0.00,0.00,0.00,0.9400,0.2780,1.1320,1.2480,2.7060,0,0.0000,0.0000,0.0000,0.0000,0.0000,0
611,0.1824,1.0706,0.0115,0.0384,0.0099,-0.0043,-0.22,-0.44,-35.04,0,3.832,-0.285,-0.194,0.113,-0.009,0.000,0.999,0.000,0.000,0.000,0.0140,10,9,0.00,0.00,0.00,0.0000,0.0000,0.0000,0.0000,0.0000,0.0000,0.0000,0.00,0.00,0.00,0.9400,0.2780,1.1320,1.2440,2.7060,0,0.0000,0.0000,0.0000,0.0000,0.0000,0
713,0.1844,1.0720,0.0125,0.0417,0.0168,0.0021,-0.20,-0.47,-34.87,0,3.838,-0.020,-0.119,-0.056,-0.008,0.000,1.002,0.000,0.000,0.000,0.0120,6,-2,0.00,0.00,0.00,0.0000,0.0000,0.0000,0.0000,0.0000,0.0000,0.0000,0.00,0.00,0.00,0.9350,0.2850,1.1350,1.2440,2.7070,0,0.0000,0.0000,0.0000,0.0000,0.0000,0
814,0.1826,1.0722,0.0125,0.0236,0.0164,0.0021,-0.14,-0.39,-34.70,0,3.832,0.025,-0.022,-0.007,-0.009,0.002,1.000,0.000,0.000,0.000,0.0120,0,-1,0.00,0.00,0.00,0.0000,0.0000,0.0000,0.0000,0.0000,0.0000,0.0000,0.00,0.00,0.00,0.9350,0.2850,1.1350,1.2450,2.7070,0,0.0000,0.0000,0.0000,0.0000,0.0000,0
915,0.1824,1.0720,0.0124,0.0166,0.0145,0.0012,-0.10,-0.33,-34.53,0,3.843,-0.251,0.373,0.284,-0.008,0.000,1.001,0.000,0.000,0.000,0.0120,4,0,0.00,0.00,0.00,0.0000,0.0000,0.0000,0.0000,0.0000,0.0000,0.0000,0.00,0.00,0.00,0.9370,0.2770,1.1310,1.2450,2.7010,0,0.0000,0.0000,0.0000,0.0000,0.0000,0
1016,0.1826,1.0722,0.0123,0.0134,0.0142,0.0003,-0.07,-0.34,-34.36,0,3.832,-0.158,0.452,0.177,-0.009,-0.001,1.002,0.000,0.000,0.000,0.0120,7,0,0.00,0.00,0.00,0.0000,0.0000,0.0000,0.0000,0.0000,0.0000,0.0000,0.00,0.00,0.00,0.9370,0.2770,1.1310,1.2430,2.7010,0,0.0000,0.0000,0.0000,0.0000,0.0000,0
1117,0.1821,1.0718,0.0122,0.0070,0.0107,-0.0000,-0.03,-0.29,-34.19,0,3.843,-0.016,-0.084,-0.033,-0.008,-0.001,1.002,0.000,0.000,0.000,0.0110,7,3,0.00,0.00,0.00,0.0000,0.0000,0.0000,0.0000,0.0000,0.0000,0.0000,0.00,0.00,0.00,0.9380,0.2840,1.1310,1.2430,2.6970,0,0.0000,0.0000,0.0000,0.0000,0.0000,0
1218,0.1832,1.0720,0.0117,0.0116,0.0106,-0.0019,-0.01,-0.38,-34.03,0,3.832,-0.188,0.046,0.067,-0.007,0.001,1.001,0.000,0.000,0.000,0.0130,6,-3,0.00,0.00,0.00,0.0000,0.0000,0.0000,0.0000,0.0000,0.0000,0.0000,0.00,0.00,0.00,0.9380,0.2840,1.1310,1.2460,2.6970,0,0.0000,0.0000,0.0000,0.0000,0.0000,0
1320,0.1827,1.0720,0.0123,0.0068,0.0105,0.0026,-0.00,-0.33,-33.86,0,3.832,0.127,0.064,-0.374,-0.006,-0.001,1.002,0.000,0.000,0.000,0.0120,1,-8,0.00,0.00,0.00,0.0000,0.0000,0.0000,0.0000,0.0000,0.0000,0.0000,0.00,0.00,0.00,0.9400,0.2790,1.1340,1.2460,2.7040,0,0.0000,0.0000,0.0000,0.0000,0.0000,0
1421,0.1762,1.0705,0.0123,-0.0304,0.0012,0.0023,0.06,-0.18,-33.70,0,3.832,0.277,-0.198,-0.118,-0.006,0.000,1.000,0.000,0.000,0.000,0.0100,15,-14,0.00,0.00,0.00,0.0000,0.0000,0.0000,0.0000,0.0000,0.0000,0.0000,0.00,0.00,0.00,0.9400,0.2790,1.1340,1.2430,2.7040,0,0.0000,0.0000,0.0000,0.0000,0.0000,0
1522,0.1788,1.0774,0.0115,-0.0129,0.0383,-0.0023,0.04,-0.16,-33.53,0,3.838,-0.045,0.306,0.108,-0.010,0.002,1.000,0.000,0.000,0.000,0.0080,4,3,0.00,0.00,0.00,0.0000,0.0000,0.0000,0.0000,0.0000,0.0000,0.0000,0.00,0.00,0.00,0.9390,0.2850,1.1350,1.2430,2.7090,0,0.0000,0.0000,0.0000,0.0000,0.0000,0
1573,0.1784,1.0724,0.0102,-0.0131,0.0079,-0.0076,0.01,-0.20,-33.37,0,3.832,-0.216,-0.025,0.209,-0.006,0.001,1.004,0.000,0.000,0.000,0.0100,5,-8,0.00,0.00,0.00,0.0000,0.0000,0.0000,0.0000,0.0000,0.0000,0.0000,0.00,0.00,0.00,0.9390,0.2850,1.1350,1.2510,2.7090,0,0.0000,0.0000,0.0000,0.0000,0.0000,0
1624,0.1772,1.0756,0.0099,-0.0173,0.0242,-0.0066,0.02,-0.27,-33.20,0,3.838,0.051,-0.111,0.076,-0.009,0.001,0.999,0.000,0.000,0.000,0.0120,-5,5,0.00,0.00,0.00,0.0000,0.0000,0.0000,0.0000,0.0000,0.0000,0.0000,0.00,0.00,0.00,0.9290,0.2710,1.1340,1.2510,2.7030,0,0.0000,0.0000,0.0000,0.0000,0.0000,0
1675,0.1772,1.0719,0.0107,-0.0152,0.0019,-0.0007,0.03,-0.20,-33.04,0,3.838,-0.095,-0.148,0.017,-0.007,-0.000,0.999,0.000,0.000,0.000,0.0110,-4,9,0.00,0.00,0.00,0.0000,0.0000,0.0000,0.0000,0.0000,0.0000,0.0000,0.00,0.00,0.00,0.9290,0.2710,1.1340,1.2430,2.7030,0,0.0000,0.0000,0.0000,0.0000,0.0000,0
1726,0.1783,1.0723,0.0109,-0.0073,0.0032,0.0008,-0.01,-0.25,-32.87,0,3.827,-0.321,-0.041,0.177,-0.007,-0.000,0.999,0.000,0.000,0.000,0.0120,-8,-4,0.00,0.00,0.00,0.0000,0.0000,0.0000,0.0000,0.0000,0.0000,0.0000,0.00,0.00,0.00,0.9360,0.2830,1.1350,1.2430,2.7090,0,0.0000,0.0000,0.0000,0.0000,0.0000,0
1777,0.1761,1.0728,0.0114,-0.0178,0.0039,0.0037,-0.01,-0.33,-32.71,0,3.832,-0.350,-0.015,0.012,-0.007,-0.001,1.000,0.000,0.000,0.000,0.0100,-5,-8,0.00,0.00,0.00,0.0000,0.0000,0.0000,0.0000,0.0000,0.0000,0.0000,0.00,0.00,0.00,0.9360,0.2830,1.1350,1.2460,2.7090,0,0.0000,0.0000,0.0000,0.0000,0.0000,0
1830,0.1764,1.0733,0.0110,-0.0142,0.0057,0.0006,0.06,-0.34,-32.56,0,3.838,-0.273,-0.141,-0.016,-0.009,0.001,1.003,0.000,0.000,0.000,0.0120,1,0,0.00,0.00,0.00,0.0000,0.0000,0.0000,0.0000,0.0000,0.0000,0.0000,0.00,0.00,0.00,0.9310,0.2780,1.1290,1.2460,2.7080,0,0.0000,0.0000,0.0000,0.0000,0.0000,0
1882,0.1772,1.0737,0.0115,-0.0090,0.0083,0.0043,0.01,-0.31,-32.40,0,3.838,-0.085,0.104,-0.075,-0.006,0.001,1.000,0.000,0.000,0.000,0.0120,-6,-4,0.00,0.00,0.00,0.0000,0.0000,0.0000,0.0000,0.0000,0.0000,0.0000,0.00,0.00,0.00,0.9310,0.2780,1.1290,1.2440,2.7080,0,0.0000,0.0000,0.0000,0.0000,0.0000,0
1934,0.1765,1.0726,0.0119,-0.0114,0.0009,0.0055,0.02,-0.36,-32.24,0,3.832,-0.071,0.225,-0.123,-0.007,-0.000,1.001,0.000,0.000,0.000,0.0120,0,-22,0.00,0.00,0.00,0.0000,0.0000,0.0000,0.0000,0.0000,0.0000,0.0000,0.00,0.00,0.00,0.9360,0.2730,1.1300,1.2440,2.7080,0,0.0000,0.0000,0.0000,0.0000,0.0000,0
1985,0.1754,1.0721,0.0122,-0.0164,-0.0024,0.0053,0.12,-0.50,-32.08,0,3.838,-0.095,-0.096,-0.121,-0.009,0.000,1.001,0.000,0.000,0.000,0.0120,-10,0,0.00,0.00,0.00,0.0000,0.0000,0.0000,0.0000,0.0000,0.0000,0.0000,0.00,0.00,0.00,0.9360,0.2730,1.1300,1.2460,2.7080,0,0.0000,0.0000,0.0000,0.0000,0.0000,0
2036,0.1774,1.0684,0.0124,-0.0063,-0.0192,0.0051,0.05,-0.43,-31.96,0,3.838,-0.143,-0.116,0.053,-0.009,-0.001,1.000,0.000,0.000,0.000,0.0100,3,0,0.00,0.00,0.00,0.0000,0.0000,0.0000,0.0000,0.0000,0.0000,0.0000,0.00,0.00,0.00,0.9330,0.2720,1.1300,1.2460,2.7010,0,0.0000,0.0000,0.0000,0.0000,0.0000,0
2087,0.1792,1.0694,0.0116,0.0032,-0.0107,-0.0001,0.08,-0.46,-31.81,0,3.832,-0.170,-0.013,0.122,-0.008,0.000,1.002,0.000,0.000,0.000,0.0140,-12,-3,0.00,0.00,0.00,0.0000,0.0000,0.0000,0.0000,0.0000,0.0000,0.0000,0.00,0.00,0.00,0.9330,0.2720,1.1300,1.2460,2.7010,0,0.0000,0.0000,0.0000,0.0000,0.0000,0
2138,0.1769,1.0668,0.0127,-0.0098,-0.0220,0.0062,0.08,-0.44,-31.65,0,3.838,0.058,-0.125,-0.226,-0.007,0.001,0.999,0.000,0.000,0.000,0.0130,0,-1,0.00,0.00,0.00,0.0000,0.0000,0.0000,0.0000,0.0000,0.0000,0.0000,0.00,0.00,0.00,0.9370,0.2720,1.1320,1.2460,2.7040,0,0.0000,0.0000,0.0000,0.0000,0.0000,0
2189,0.1773,1.0681,0.0131,-0.0072,-0.0105,0.0065,0.08,-0.40,-31.50,0,3.838,-0.083,0.189,-0.087,-0.009,0.002,1.000,0.000,0.000,0.000,0.0160,2,1,0.00,0.00,0.00,0.0000,0.0000,0.0000,0.0000,0.0000,0.0000,0.0000,0.00,0.00,0.00,0.9370,0.2720,1.1320,1.2410,2.7040,0,0.0000,0.0000,0.0000,0.0000,0.0000,0
2240,0.1779,1.0683,0.0146,-0.0030,-0.0065,0.0124,0.03,-0.39,-31.35,0,3.838,-0.175,-0.212,0.027,-0.007,0.002,1.002,0.000,0.000,0.000,0.0120,-13,1,0.00,0.00,0.00,0.0000,0.0000,0.0000,0.0000,0.0000,0.0000,0.0000,0.00,0.00,0.00,0.9320,0.2760,1.1310,1.2410,2.7100,0,0.0000,0.0000,0.0000,0.0000,0.0000,0
2293,0.1786,1.0662,0.0139,0.0014,-0.0158,0.0058,-0.04,-0.46,-31.20,0,3.838,-0.052,-0.027,0.084,-0.007,0.001,0.999,0.000,0.000,0.000,0.0080,3,-8,0.00,0.00,0.00,0.0000,0.0000,0.0000,0.0000,0.0000,0.0000,0.0000,0.00,0.00,0.00,0.9320,0.2760,1.1310,1.2430,2.7100,0,0.0000,0.0000,0.0000,0.0000,0.0000,0
2344,0.1780,1.0686,0.0116,-0.0020,-0.0002,-0.0067,-0.05,-0.37,-31.04,0,3.838,-0.084,0.148,-0.125,-0.007,0.000,1.000,0.000,0.000,0.000,0.0110,-1,-4,0.00,0.00,0.00,0.0000,0.0000,0.0000,0.0000,0.0000,0.0000,0.0000,0.00,0.00,0.00,0.9360,0.2730,1.1280,1.2430,2.7060,0,0.0000,0.0000,0.0000,0.0000,0.0000,0
2395,0.1774,1.0680,0.0112,-0.0058,-0.0024,-0.0070,0.01,-0.37,-30.89,0,3.832,-0.051,-0.026,0.347,-0.008,0.001,1.000,0.000,0.000,0.000,0.0120,31,-34,0.00,0.00,0.00,0.0000,0.0000,0.0000,0.0000,0.0000,0.0000,0.0000,0.00,0.00,0.00,0.9360,0.2730,1.1280,1.2440,2.7060,0,0.0000,0.0000,0.0000,0.0000,0.0000,0
2446,0.1780,1.0689,0.0114,-0.0022,0.0041,-0.0039,0.25,-0.67,-30.73,0,3.838,-0.298,-0.194,0.110,-0.005,0.002,1.001,0.000,0.000,0.000,0.0150,0,3,0.00,0.00,0.00,0.0000,0.0000,0.0000,0.0000,0.0000,0.0000,0.0000,0.00,0.00,0.00,0.9370,0.2730,1.1340,1.2440,2.7010,0,0.0000,0.0000,0.0000,0.0000,0.0000,0
2497,0.1809,1.0599,0.0130,0.0129,-0.0386,0.0060,0.17,-0.57,-30.58,0,3.838,-0.048,-0.269,-0.074,-0.006,-0.001,1.000,0.000,0.000,0.000,0.0120,-1,0,0.00,0.00,0.00,0.0000,0.0000,0.0000,0.0000,0.0000,0.0000,0.0000,0.00,0.00,0.00,0.9370,0.2730,1.1340,1.2470,2.7010,0,0.0000,0.0000,0.0000,0.0000,0.0000,0
2548,0.1795,1.0596,0.0128,0.0043,-0.0335,0.0039,0.13,-0.53,-30.43,0,3.838,-0.298,-0.104,0.484,-0.008,0.003,1.001,0.000,0.000,0.000,0.0110,-6,2,0.00,0.00,0.00,0.0000,0.0000,0.0000,0.0000,0.0000,0.0000,0.0000,0.00,0.00,0.00,0.9370,0.2720,1.1350,1.2470,2.7120,0,0.0000,0.0000,0.0000,0.0000,0.0000,0
2599,0.1801,1.0590,0.0122,0.0061,-0.0294,0.0003,0.09,-0.47,-30.28,0,3.838,0.046,0.190,0.058,-0.010,0.001,1.000,0.000,0.000,0.000,0.0120,0,0,0.00,0.00,0.00,0.0000,0.0000,0.0000,0.0000,0.0000,0.0000,0.0000,0.00,0.00,0.00,0.9370,0.2720,1.1350,1.2420,2.7120,0,0.0000,0.0000,0.0000,0.0000,0.0000,0
2651,0.1795,1.0593,0.0122,0.0015,-0.0215,0.0004,0.09,-0.46,-30.13,0,3.838,-0.273,-0.357,-0.506,-0.010,0.001,1.001,0.000,0.000,0.000,0.0130,2,2,0.00,0.00,0.00,0.0000,0.0000,0.0000,0.0000,0.0000,0.0000,0.0000,0.00,0.00,0.00,0.9370,0.2810,1.1320,1.2420,2.7020,0,0.0000,0.0000,0.0000,0.0000,0.0000,0
2702,0.1804,1.0596,0.0126,0.0045,-0.0144,0.0030,0.03,-0.44,-29.99,0,3.832,-0.142,-0.176,-0.245,-0.007,0.001,1.003,0.000,0.000,0.000,0.0110,-5,0,0.00,0.00,0.00,0.0000,0.0000,0.0000,0.0000,0.0000,0.0000,0.0000,0.00,0.00,0.00,0.9370,0.2810,1.1320,1.2440,2.7020,0,0.0000,0.0000,0.0000,0.0000,0.0000,0
2753,0.1796,1.0591,0.0120,-0.0012,-0.0134,0.0004,-0.00,-0.40,-29.85,0,3.838,0.048,0.123,-0.128,-0.008,0.000,0.998,0.000,0.000,0.000,0.0130,0,-7,0.00,0.00,0.00,0.0000,0.0000,0.0000,0.0000,0.0000,0.0000,0.0000,0.00,0.00,0.00,0.9280,0.2760,1.1350,1.2440,2.7020,0,0.0000,0.0000,0.0000,0.0000,0.0000,0
2804,0.1801,1.0596,0.0125,0.0008,-0.0079,0.0027,-0.00,-0.44,-29.70,0,3.832,0.270,-0.042,0.021,-0.007,-0.001,1.003,0.000,0.000,0.000,0.0160,-6,1,0.00,0.00,0.00,0.0000,0.0000,0.0000,0.0000,0.0000,0.0000,0.0000,0.00,0.00,0.00,0.9280,0.2760,1.1350,1.2430,2.7020,0,0.0000,0.0000,0.0000,0.0000,0.0000,0
2856,0.1797,1.0588,0.0141,-0.0028,-0.0095,0.0109,-0.05,-0.34,-29.56,0,3.838,0.316,-0.005,-0.245,-0.010,0.001,1.000,0.000,0.000,0.000,0.0140,1,1,0.00,0.00,0.00,0.0000,0.0000,0.0000,0.0000,0.0000,0.0000,0.0000,0.00,0.00,0.00,0.9330,0.2910,1.1320,1.2430,2.7070,0,0.0000,0.0000,0.0000,0.0000,0.0000,0
2907,0.1805,1.0603,0.0145,0.0011,0.0003,0.0106,-0.04,-0.33,-29.41,0,3.832,0.220,-0.279,-0.046,-0.007,0.003,1.002,0.000,0.000,0.000,0.0120,-5,0,0.00,0.00,0.00,0.0000,0.0000,0.0000,0.0000,0.0000,0.0000,0.0000,0.00,0.00,0.00,0.9330,0.2910,1.1320,1.2440,2.7070,0,0.0000,0.0000,0.0000,0.0000,0.0000,0
2958,0.1796,1.0591,0.0137,-0.0051,-0.0050,0.0042,-0.03,-0.32,-29.27,0,3.832,-0.094,-0.121,-0.027,-0.008,0.002,1.001,0.000,0.000,0.000,0.0130,12,1,0.00,0.00,0.00,0.0000,0.0000,0.0000,0.0000,0.0000,0.0000,0.0000,0.00,0.00,0.00,0.9360,0.2700,1.1290,1.2440,2.7030,0,0.0000,0.0000,0.0000,0.0000,0.0000,0
3009,0.1788,1.0604,0.0136,-0.0090,0.0044,0.0026,0.10,-0.29,-29.13,0,3.832,-0.230,-0.022,0.126,-0.006,-0.001,1.000,0.000,0.000,0.000,0.0100,9,-11,0.00,0.00,0.00,0.0000,0.0000,0.0000,0.0000,0.0000,0.0000,0.0000,0.00,0.00,0.00,0.9360,0.2700,1.1290,1.2430,2.7030,0,0.0000,0.0000,0.0000,0.0000,0.0000,0
3060,0.1758,1.0602,0.0121,-0.0231,0.0050,-0.0054,0.09,-0.28,-28.98,0,3.838,0.059,0.213,-0.073,-0.010,0.003,0.999,0.000,0.000,0.000,0.0130,-4,-4,0.00,0.00,0.00,0.0000,0.0000,0.0000,0.0000,0.0000,0.0000,0.0000,0.00,0.00,0.00,0.9320,0.2770,1.1330,1.2430,2.7010,0,0.0000,0.0000,0.0000,0.0000,0.0000,0
3111,0.1768,1.0576,0.0124,-0.0144,-0.0071,-0.0025,0.02,-0.33,-28.84,0,3.832,-0.025,0.178,0.118,-0.008,0.002,1.000,0.000,0.000,0.000,0.0100,-5,0,0.00,0.00,0.00,0.0000,0.0000,0.0000,0.0000,0.0000,0.0000,0.0000,0.00,0.00,0.00,0.9320,0.2770,1.1330,1.2460,2.7010,0,0.0000,0.0000,0.0000,0.0000,0.0000,0
3162,0.1799,1.0567,0.0113,0.0040,-0.0099,-0.0075,-0.05,-0.43,-28.70,0,3.838,-0.015,-0.294,-0.183,-0.007,0.002,1.002,0.000,0.000,0.000,0.0130,3,-8,0.00,0.00,0.00,0.0000,0.0000,0.0000,0.0000,0.0000,0.0000,0.0000,0.00,0.00,0.00,0.9290,0.2830,1.1320,1.2460,2.7030,0,0.0000,0.0000,0.0000,0.0000,0.0000,0
3214,0.1852,1.0589,0.0118,0.0306,0.0046,-0.0023,-0.15,-0.62,-28.55,0,3.832,0.050,-0.061,0.334,-0.009,-0.001,0.999,0.000,0.000,0.000,0.0110,-1,-3,0.00,0.00,0.00,0.0000,0.0000,0.0000,0.0000,0.0000,0.0000,0.0000,0.00,0.00,0.00,0.9290,0.2830,1.1320,1.2430,2.7030,0,0.0000,0.0000,0.0000,0.0000,0.0000,0
3265,0.1812,1.0594,0.0116,0.0006,0.0087,-0.0024,-0.29,-0.38,-28.42,0,3.832,0.191,-0.139,-0.199,-0.008,-0.000,1.000,0.000,0.000,0.000,0.0120,0,-5,0.00,0.00,0.00,0.0000,0.0000,0.0000,0.0000,0.0000,0.0000,0.0000,0.00,0.00,0.00,0.9430,0.2780,1.1320,1.2430,2.6970,0,0.0000,0.0000,0.0000,0.0000,0.0000,0
3316,0.1841,1.0642,0.0117,0.0139,0.0331,-0.0018,-0.28,-0.38,-28.28,0,3.832,-0.013,0.063,-0.199,-0.006,-0.001,1.003,0.000,0.000,0.000,0.0100,-15,24,0.00,0.00,0.00,0.0000,0.0000,0.0000,0.0000,0.0000,0.0000,0.0000,0.00,0.00,0.00,0.9430,0.2780,1.1320,1.2470,2.6970,0,0.0000,0.0000,0.0000,0.0000,0.0000,0
3367,0.1839,1.0622,0.0110,0.0089,0.0166,-0.0042,-0.06,-0.15,-28.15,0,3.838,0.293,-0.007,-0.086,-0.008,0.001,0.998,0.000,0.000,0.000,0.0090,0,-1,0.00,0.00,0.00,0.0000,0.0000,0.0000,0.0000,0.0000,0.0000,0.0000,0.00,0.00,0.00,0.9340,0.2750,1.1290,1.2470,2.7040,0,0.0000,0.0000,0.0000,0.0000,0.0000,0
3418,0.1792,1.0643,0.0102,-0.0161,0.0244,-0.0074,-0.00,-0.21,-28.02,0,3.832,-0.153,-0.040,-0.077,-0.006,0.002,1.000,0.000,0.000,0.000,0.0150,0,-3,0.00,0.00,0.00,0.0000,0.0000,0.0000,0.0000,0.0000,0.0000,0.0000,0.00,0.00,0.00,0.9340,0.2750,1.1290,1.2410,2.7040,0,0.0000,0.0000,0.0000,0.0000,0.0000,0
3469,0.1788,1.0645,0.0121,-0.0150,0.0222,0.0052,-0.02,-0.27,-27.87,0,3.838,0.018,0.021,-0.317,-0.008,0.002,1.001,0.000,0.000,0.000,0.0110,0,-3,0.00,0.00,0.00,0.0000,0.0000,0.0000,0.0000,0.0000,0.0000,0.0000,0.00,0.00,0.00,0.9340,0.2780,1.1330,1.2410,2.7070,0,0.0000,0.0000,0.0000,0.0000,0.0000,0
3520,0.1785,1.0647,0.0119,-0.0149,0.0198,0.0026,-0.01,-0.28,-27.74,0,3.832,0.029,-0.139,-0.040,-0.007,0.001,1.002,0.000,0.000,0.000,0.0150,8,-5,0.00,0.00,0.00,0.0000,0.0000,0.0000,0.0000,0.0000,0.0000,0.0000,0.00,0.00,0.00,0.9340,0.2780,1.1330,1.2460,2.7070,0,0.0000,0.0000,0.0000,0.0000,0.0000,0
3571,0.1788,1.0646,0.0133,-0.0100,0.0167,0.0098,0.04,-0.30,-27.60,0,3.832,-0.248,0.096,-0.044,-0.006,0.001,1.001,0.000,0.000,0.000,0.0130,-1,6,0.00,0.00,0.00,0.0000,0.0000,0.0000,0.0000,0.0000,0.0000,0.0000,0.00,0.00,0.00,0.9340,0.2750,1.1320,1.2460,2.7090,0,0.0000,0.0000,0.0000,0.0000,0.0000,0
3622,0.1804,1.0635,0.0136,0.0007,0.0089,0.0093,-0.02,-0.33,-27.47,0,3.832,-0.123,-0.006,-0.441,-0.007,0.001,1.000,0.000,0.000,0.000,0.0130,-3,3,0.00,0.00,0.00,0.0000,0.0000,0.0000,0.0000,0.0000,0.0000,0.0000,0.00,0.00,0.00,0.9340,0.2750,1.1320,1.2470,2.7090,0,0.0000,0.0000,0.0000,0.0000,0.0000,0
3674,0.1783,1.0631,0.0136,-0.0107,0.0046,0.0073,0.02,-0.37,-27.34,0,3.838,-0.229,-0.247,-0.071,-0.006,0.000,1.001,0.000,0.000,0.000,0.0100,1,-3,0.00,0.00,0.00,0.0000,0.0000,0.0000,0.0000,0.0000,0.0000,0.0000,0.00,0.00,0.00,0.9370,0.2790,1.1320,1.2470,2.7050,0,0.0000,0.0000,0.0000,0.0000,0.0000,0
3725,0.1790,1.0634,0.0124,-0.0053,0.0053,-0.0006,0.00,-0.39,-27.21,0,3.832,-0.071,0.109,0.095,-0.008,0.003,1.001,0.000,0.000,0.000,0.0120,-1,-3,0.00,0.00,0.00,0.0000,0.0000,0.0000,0.0000,0.0000,0.0000,0.0000,0.00,0.00,0.00,0.9370,0.2790,1.1320,1.2470,2.7050,0,0.0000,0.0000,0.0000,0.0000,0.0000,0
3776,0.1783,1.0647,0.0122,-0.0081,0.0119,-0.0003,-0.02,-0.35,-27.07,0,3.838,0.121,0.361,-0.006,-0.008,0.001,1.000,0.000,0.000,0.000,0.0110,-10,-3,0.00,0.00,0.00,0.0000,0.0000,0.0000,0.0000,0.0000,0.0000,0.0000,0.00,0.00,0.00,0.9320,0.2920,1.1330,1.2470,2.7020,0,0.0000,0.0000,0.0000,0.0000,0.0000,0
3828,0.1776,1.0633,0.0117,-0.0113,0.0028,-0.0023,-0.03,-0.41,-26.94,0,3.832,-0.108,0.129,-0.183,-0.006,0.001,1.002,0.000,0.000,0.000,0.0140,-4,9,0.00,0.00,0.00,0.0000,0.0000,0.0000,0.0000,0.0000,0.0000,0.0000,0.00,0.00,0.00,0.9320,0.2920,1.1330,1.2460,2.7020,0,0.0000,0.0000,0.0000,0.0000,0.0000,0
3879,0.0000,-0.0000,0.0140,0.0068,-0.0011,0.0001,-0.08,0.00,-0.00,0,3.832,0.006,0.018,-0.246,-0.007,-0.001,0.999,0.000,0.000,0.000,0.0130,-7,-23,0.00,0.00,0.00,0.0000,0.0000,0.0000,0.0000,0.0000,0.0000,0.0000,0.00,0.00,0.00,0.9370,0.2820,1.1310,1.2460,2.7060,0,0.0000,0.0000,0.0000,0.0000,0.0000,0
3930,-0.0013,-0.0002,0.0135,-0.0313,-0.0053,-0.0007,0.02,0.01,-0.01,0,3.827,0.105,-0.192,0.129,-0.008,-0.002,1.000,0.000,0.000,0.000,0.0140,4,0,0.00,0.00,0.00,0.0000,0.0000,0.0000,0.0000,0.0000,0.0000,0.0000,0.00,0.00,0.00,0.9370,0.2820,1.1310,1.2450,2.7060,0,0.0000,0.0000,0.0000,0.0000,0.0000,0
3981,-0.0005,0.0008,0.0139,-0.0076,0.0117,0.0008,0.01,-0.08,-0.00,0,3.838,-0.354,-0.363,-0.040,-0.008,0.001,1.001,0.000,0.000,0.000,0.0140,0,3,0.00,0.00,0.00,0.0000,0.0000,0.0000,0.0000,0.0000,0.0000,0.0000,0.00,0.00,0.00,0.9330,0.2840,1.1360,1.2450,2.7040,0,0.0000,0.0000,0.0000,0.0000,0.0000,0
4032,-0.0002,0.0002,0.0140,-0.0022,0.0013,0.0013,0.17,-0.30,-0.01,0,3.827,-0.151,-0.215,-0.114,-0.010,0.000,1.000,0.000,0.000,0.000,0.0140,0,4,0.00,0.00,0.00,0.0000,0.0000,0.0000,0.0000,0.0000,0.0000,0.0000,0.00,0.00,0.00,0.9330,0.2840,1.1360,1.2460,2.7040,0,0.0000,0.0000,0.0000,0.0000,0.0000,0
4083,0.0010,-0.0004,0.0141,0.0095,-0.0056,0.0012,0.06,-0.16,-0.01,0,3.838,-0.093,0.082,-0.114,-0.008,-0.000,1.001,0.000,0.000,0.000,0.0130,-1,0,0.00,0.00,0.00,0.0000,0.0000,0.0000,0.0000,0.0000,0.0000,0.0000,0.00,0.00,0.00,0.9360,0.2830,1.1330,1.2460,2.7010,0,0.0000,0.0000,0.0000,0.0000,0.0000,0
4134,-0.0008,-0.0004,0.0137,-0.0087,-0.0046,-0.0007,0.13,-0.22,-0.01,0,3.832,-0.058,-0.098,0.115,-0.007,-0.000,1.001,0.000,0.000,0.000,0.0130,6,-2,0.00,0.00,0.00,0.0000,0.0000,0.0000,0.0000,0.0000,0.0000,0.0000,0.00,0.00,0.00,0.9360,0.2830,1.1330,1.2410,2.7010,0,0.0000,0.0000,0.0000,0.0000,0.0000,0
4185,-0.0009,0.0013,0.0134,-0.0085,0.0098,-0.0015,0.01,-0.38,-0.01,0,3.832,-0.099,0.018,0.081,-0.009,0.001,1.001,0.000,0.000,0.000,0.0130,0,1,0.00,0.00,0.00,0.0000,0.0000,0.0000,0.0000,0.0000,0.0000,0.0000,0.00,0.00,0.00,0.9380,0.2770,1.1360,1.2410,2.7030,0,0.0000,0.0000,0.0000,0.0000,0.0000,0
4236,-0.0001,-0.0002,0.0132,-0.0017,-0.0025,-0.0019,0.12,-0.40,-0.01,0,3.827,0.130,-0.219,-0.077,-0.006,0.003,0.998,0.000,0.000,0.000,0.0130,2,-3,0.00,0.00,0.00,0.0000,0.0000,0.0000,0.0000,0.0000,0.0000,0.0000,0.00,0.00,0.00,0.9380,0.2770,1.1360,1.2420,2.7030,0,0.0000,0.0000,0.0000,0.0000,0.0000,0
4287,-0.0008,0.0011,0.0131,-0.0063,0.0067,-0.0020,0.09,-0.43,-0.02,0,3.838,-0.230,0.083,0.081,-0.008,-0.000,1.001,0.000,0.000,0.000,0.0120,6,2,0.00,0.00,0.00,0.0000,0.0000,0.0000,0.0000,0.0000,0.0000,0.0000,0.00,0.00,0.00,0.9400,0.2780,1.1300,1.2420,2.7040,0,0.0000,0.0000,0.0000,0.0000,0.0000,0
4338,0.0004,0.0013,0.0126,0.0023,0.0076,-0.0040,-0.07,-0.45,-0.02,0,3.832,0.194,-0.298,-0.246,-0.009,0.001,1.001,0.000,0.000,0.000,0.0140,1,-3,0.00,0.00,0.00,0.0000,0.0000,0.0000,0.0000,0.0000,0.0000,0.0000,0.00,0.00,0.00,0.9400,0.2780,1.1300,1.2430,2.7040,0,0.0000,0.0000,0.0000,0.0000,0.0000,0
4389,-0.0008,-0.0002,0.0131,-0.0057,-0.0022,0.0001,0.09,-0.41,-0.02,0,3.838,-0.184,-0.019,-0.018,-0.008,-0.000,1.004,0.000,0.000,0.000,0.0140,0,-5,0.00,0.00,0.00,0.0000,0.0000,0.0000,0.0000,0.0000,0.0000,0.0000,0.00,0.00,0.00,0.9410,0.2670,1.1320,1.2430,2.7050,0,0.0000,0.0000,0.0000,0.0000,0.0000,0
4440,-0.0008,-0.0002,0.0135,-0.0057,-0.0023,0.0021,0.03,-0.44,-0.02,0,3.832,0.182,-0.072,-0.008,-0.009,0.001,0.998,0.000,0.000,0.000,0.0100,-1,-3,0.00,0.00,0.00,0.0000,0.0000,0.0000,0.0000,0.0000,0.0000,0.0000,0.00,0.00,0.00,0.9410,0.2670,1.1320,1.2420,2.7050,0,0.0000,0.0000,0.0000,0.0000,0.0000,0
4491,-0.0008,-0.0006,0.0121,-0.0053,-0.0042,-0.0056,0.07,-0.47,-0.02,0,3.832,-0.202,0.069,0.123,-0.008,0.001,1.004,0.000,0.000,0.000,0.0140,0,1,0.00,0.00,0.00,0.0000,0.0000,0.0000,0.0000,0.0000,0.0000,0.0000,0.00,0.00,0.00,0.9270,0.2940,1.1360,1.2420,2.7040,0,0.0000,0.0000,0.0000,0.0000,0.0000,0
4542,-0.0005,0.0001,0.0127,-0.0044,0.0006,-0.0006,0.03,-0.37,-0.03,0,3.832,-0.118,0.150,0.150,-0.009,0.001,1.003,0.000,0.000,0.000,0.0100,0,-6,0.00,0.00,0.00,0.0000,0.0000,0.0000,0.0000,0.0000,0.0000,0.0000,0.00,0.00,0.00,0.9270,0.2940,1.1360,1.2430,2.7040,0,0.0000,0.0000,0.0000,0.0000,0.0000,0
4593,-0.0006,-0.0004,0.0115,-0.0037,-0.0021,-0.0060,0.06,-0.49,-0.03,0,3.838,-0.024,0.168,-0.086,-0.007,-0.000,1.001,0.000,0.000,0.000,0.0130,0,-1,0.00,0.00,0.00,0.0000,0.0000,0.0000,0.0000,0.0000,0.0000,0.0000,0.00,0.00,0.00,0.9340,0.2910,1.1330,1.2430,2.7030,0,0.0000,0.0000,0.0000,0.0000,0.0000,0
4644,-0.0008,-0.0004,0.0120,-0.0047,-0.0016,-0.0011,-0.00,-0.39,-0.03,0,3.832,-0.101,-0.153,-0.151,-0.007,0.000,1.002,0.000,0.000,0.000,0.0110,-1,-7,0.00,0.00,0.00,0.0000,0.0000,0.0000,0.0000,0.0000,0.0000,0.0000,0.00,0.00,0.00,0.9340,0.2910,1.1330,1.2430,2.7030,0,0.0000,0.0000,0.0000,0.0000,0.0000,0
4695,-0.0023,-0.0006,0.0115,-0.0116,-0.0029,-0.0029,0.05,-0.41,-0.03,0,3.838,-0.068,-0.340,0.230,-0.005,0.003,1.002,0.000,0.000,0.000,0.0130,2,-2,0.00,0.00,0.00,0.0000,0.0000,0.0000,0.0000,0.0000,0.0000,0.0000,0.00,0.00,0.00,0.9330,0.2730,1.1290,1.2430,2.7030,0,0.0000,0.0000,0.0000,0.0000,0.0000,0
4746,-0.0008,0.0002,0.0121,-0.0033,0.0018,0.0009,0.01,-0.39,-0.03,0,3.832,-0.108,-0.040,0.078,-0.009,0.000,1.000,0.000,0.000,0.000,0.0110,6,5,0.00,0.00,0.00,0.0000,0.0000,0.0000,0.0000,0.0000,0.0000,0.0000,0.00,0.00,0.00,0.9330,0.2730,1.1290,1.2430,2.7030,0,0.0000,0.0000,0.0000,0.0000,0.0000,0
4797,-0.0047,-0.0030,0.0117,-0.0238,-0.0149,-0.0016,0.04,-0.33,-0.02,0,3.832,-0.078,-0.189,-0.042,-0.009,0.002,1.000,0.000,0.000,0.000,0.0140,11,0,0.00,0.00,0.00,0.0000,0.0000,0.0000,0.0000,0.0000,0.0000,0.0000,0.00,0.00,0.00,0.9350,0.0000,1.1340,1.2430,2.7070,0,0.0000,0.0000,0.0000,0.0000,0.0000,0
4848,-0.0042,-0.0038,0.0128,-0.0179,-0.0164,0.0038,0.27,-0.23,-0.02,0,3.832,-0.269,0.322,0.260,-0.009,0.000,1.003,0.000,0.000,0.000,0.0120,5,-4,0.00,0.00,0.00,0.0000,0.0000,0.0000,0.0000,0.0000,0.0000,0.0000,0.00,0.00,0.00,0.9350,0.0000,1.1340,1.2480,2.7070,0,0.0000,0.0000,0.0000,0.0000,0.0000,0
4899,-0.0057,-0.0056,0.0126,-0.0225,-0.0208,0.0025,0.22,-0.32,-0.02,0,3.838,0.098,-0.162,-0.213,-0.007,0.001,1.001,0.000,0.000,0.000,0.0130,0,1,0.00,0.00,0.00,0.0000,0.0000,0.0000,0.0000,0.0000,0.0000,0.0000,0.00,0.00,0.00,0.9330,0.2790,1.1320,1.2480,2.7050,0,0.0000,0.0000,0.0000,0.0000,0.0000,0
4950,-0.0052,-0.0063,0.0129,-0.0162,-0.0203,0.0035,0.20,-0.39,-0.02,0,3.832,-0.325,-0.206,-0.030,-0.007,0.001,1.000,0.000,0.000,0.000,0.0150,-9,5,0.00,0.00,0.00,0.0000,0.0000,0.0000,0.0000,0.0000,0.0000,0.0000,0.00,0.00,0.00,0.9330,0.2790,1.1320,1.2480,2.7050,0,0.0000,0.0000,0.0000,0.0000,0.0000,0
5001,-0.0048,-0.0109,0.0140,-0.0123,-0.0394,0.0086,0.21,-0.29,-0.01,0,3.838,-0.062,-0.101,0.153,-0.010,0.002,0.998,0.000,0.000,0.000,0.0120,0,-4,0.00,0.00,0.00,0.0000,0.0000,0.0000,0.0000,0.0000,0.0000,0.0000,0.00,0.00,0.00,0.9370,0.2760,1.1310,1.2480,2.7040,0,0.0000,0.0000,0.0000,0.0000,0.0000,0
5053,-0.0054,-0.0084,0.0135,-0.0128,-0.0208,0.0041,0.14,-0.30,-0.02,0,3.832,-0.090,0.047,0.000,-0.006,0.000,1.000,0.000,0.000,0.000,0.0110,2,4,0.00,0.00,0.00,0.0000,0.0000,0.0000,0.0000,0.0000,0.0000,0.0000,0.00,0.00,0.00,0.9370,0.2760,1.1310,1.2470,2.7040,0,0.0000,0.0000,0.0000,0.0000,0.0000,0
5104,-0.0045,-0.0138,0.0127,-0.0072,-0.0443,-0.0015,0.30,-0.34,-0.02,0,3.415,-0.577,-0.318,-0.530,-0.014,-0.007,0.997,0.000,0.000,0.000,0.0140,-1,7,0.00,0.00,0.00,0.0000,0.0000,0.0000,0.0000,0.0000,0.0000,0.0000,0.00,0.00,0.00,0.9340,0.3000,1.1320,1.2470,2.6960,0,0.0000,0.0000,0.0000,0.0000,0.0000,0
5155,-0.0034,-0.0135,0.0134,0.0031,-0.0338,0.0028,0.20,-0.43,-0.02,0,3.521,-1.179,-0.399,0.187,-0.018,-0.005,1.005,0.000,0.000,0.000,0.0130,13,-9,0.00,0.00,0.00,0.0000,0.0000,0.0000,0.0000,0.0000,0.0000,0.0000,0.00,0.00,0.00,0.9340,0.3000,1.1320,1.2440,2.6960,0,0.0000,0.0000,0.0000,0.0000,0.0000,0
5206,-0.0053,-0.0119,0.0135,-0.0040,-0.0190,0.0036,0.21,-0.43,-0.04,0,3.558,0.486,1.045,-0.126,-0.006,0.004,0.998,0.000,0.000,0.000,0.0130,2,-4,0.00,0.00,0.00,0.0000,0.0000,0.0000,0.0000,0.0000,0.0000,0.0000,0.00,0.00,0.00,0.9300,0.2860,1.1320,1.2440,2.7020,0,0.0000,0.0000,0.0000,0.0000,0.0000,0
5257,-0.0042,-0.0132,0.0135,0.0043,-0.0194,0.0059,0.26,-0.46,-0.15,0,3.579,1.676,0.504,-3.913,-0.020,0.005,1.003,0.000,0.000,0.000,0.0100,12,-9,0.00,0.00,0.00,0.0000,0.0000,0.0000,0.0000,0.0000,0.0000,0.0000,0.00,0.00,0.00,0.9300,0.2860,1.1320,1.2410,2.7020,0,0.0000,0.0000,0.0000,0.0000,0.0000,0
5308,-0.0034,-0.0183,0.0122,0.0096,-0.0392,-0.0038,0.20,-0.47,-0.32,0,3.584,-3.729,-4.267,-7.206,-0.017,-0.024,1.025,0.000,0.000,0.000,0.0110,3,0,0.00,0.00,0.00,0.0000,0.0000,0.0000,0.0000,0.0000,0.0000,0.0000,0.00,0.00,0.00,0.9360,0.2630,1.1320,1.2410,2.7020,0,0.0000,0.0000,0.0000,0.0000,0.0000,0
5359,-0.0022,-0.0174,0.0118,0.0158,-0.0236,-0.0006,-0.06,-0.39,-0.60,0,3.584,1.382,2.544,-2.850,-0.010,-0.010,1.010,0.000,0.000,0.000,0.0110,4,0,0.00,0.00,0.00,0.0000,0.0000,0.0000,0.0000,0.0000,0.0000,0.0000,0.00,0.00,0.00,0.9360,0.2630,1.1320,1.2480,2.7020,0,0.0000,0.0000,0.0000,0.0000,0.0000,0
5410,-0.0037,-0.0215,0.0115,0.0075,-0.0392,-0.0038,0.17,-0.36,-0.80,0,3.579,-0.683,-4.911,-4.828,-0.031,0.007,1.006,0.000,0.000,0.000,0.0130,1,-14,0.00,0.00,0.00,0.0000,0.0000,0.0000,0.0000,0.0000,0.0000,0.0000,0.00,0.00,0.00,0.9260,0.2480,1.1380,1.2480,2.7020,0,0.0000,0.0000,0.0000,0.0000,0.0000,0
5461,0.0017,-0.0239,0.0120,0.0365,-0.0411,-0.0008,0.15,-0.61,-0.97,0,3.584,-4.125,8.601,-0.866,-0.002,-0.017,0.975,0.000,0.000,0.000,0.0090,0,-1,0.00,0.00,0.00,0.0000,0.0000,0.0000,0.0000,0.0000,0.0000,0.0000,0.00,0.00,0.00,0.9260,0.2480,1.1380,1.2440,2.7020,0,0.0000,0.0000,0.0000,0.0000,0.0000,0
5513,0.0102,-0.0269,0.0103,0.0734,-0.0475,-0.0078,0.04,-1.05,-1.12,0,3.584,-5.700,-1.754,0.509,-0.013,-0.017,0.993,0.000,0.000,0.000,0.0110,-5,-36,0.00,0.00,0.00,0.0000,0.0000,0.0000,0.0000,0.0000,0.0000,0.0000,0.00,0.00,0.00,0.9160,0.2380,1.1310,1.2440,2.6990,0,0.0000,0.0000,0.0000,0.0000,0.0000,0
5564,0.0241,-0.0327,0.0091,0.1323,-0.0665,-0.0140,0.08,-1.51,-1.03,0,3.574,5.456,-7.449,7.833,-0.006,-0.013,1.014,0.000,0.000,0.000,0.0120,6,-6,0.00,0.00,0.00,0.0000,0.0000,0.0000,0.0000,0.0000,0.0000,0.0000,0.00,0.00,0.00,0.9160,0.2380,1.1310,1.2500,2.6990,0,0.0000,0.0000,0.0000,0.0000,0.0000,0
5615,0.0421,-0.0379,0.0081,0.1988,-0.0794,-0.0151,0.67,-1.17,-0.59,0,3.568,-10.399,4.390,8.398,-0.006,0.016,1.034,0.000,0.000,0.000,0.0070,4,-6,0.00,0.00,0.00,0.0000,0.0000,0.0000,0.0000,0.0000,0.0000,0.0000,0.00,0.00,0.00,0.9220,0.2630,1.1340,1.2500,2.7050,0,0.0000,0.0000,0.0000,0.0000,0.0000,0
5666,0.0427,-0.0364,0.0093,0.1604,-0.0545,0.0018,-0.22,-0.99,-0.14,0,3.574,-13.512,-17.551,16.880,-0.007,0.010,1.008,0.000,0.000,0.000,0.0070,-6,-16,0.00,0.00,0.00,0.0000,0.0000,0.0000,0.0000,0.0000,0.0000,0.0000,0.00,0.00,0.00,0.9220,0.2630,1.1340,1.2440,2.7050,0,0.0000,0.0000,0.0000,0.0000,0.0000,0
5717,0.0572,-0.0313,0.0078,0.1998,-0.0111,0.0015,-1.09,-0.50,0.67,0,3.558,24.910,-38.720,19.831,0.006,0.000,0.981,0.000,0.000,0.000,0.0100,-11,-12,0.00,0.00,0.00,0.0000,0.0000,0.0000,0.0000,0.0000,0.0000,0.0000,0.00,0.00,0.00,0.9380,0.2950,1.1330,1.2440,2.6970,0,0.0000,0.0000,0.0000,0.0000,0.0000,0
5768,0.0761,-0.0198,0.0065,0.2480,0.0586,-0.0121,-0.54,1.08,1.66,0,3.558,-1.420,-22.675,8.829,0.021,-0.006,1.040,0.000,0.000,0.000,0.0160,-14,-4,0.00,0.00,0.00,0.0000,0.0000,0.0000,0.0000,0.0000,0.0000,0.0000,0.00,0.00,0.00,0.9380,0.2950,1.1330,1.2500,2.6970,0,0.0000,0.0000,0.0000,0.0000,0.0000,0
5819,0.0818,-0.0083,0.0111,0.2011,0.1065,0.0297,-0.93,2.83,2.16,0,3.558,11.337,-41.630,7.784,0.026,-0.007,0.996,0.000,0.000,0.000,0.0080,-5,3,0.00,0.00,0.00,0.0000,0.0000,0.0000,0.0000,0.0000,0.0000,0.0000,0.00,0.00,0.00,0.9670,0.2740,1.1340,1.2500,2.7050,0,0.0000,0.0000,0.0000,0.0000,0.0000,0
5870,0.0796,-0.0004,0.0113,0.1170,0.1243,0.0275,-0.65,5.01,2.48,0,3.552,-0.418,-17.541,-6.109,0.035,-0.019,1.012,0.000,0.000,0.000,0.0000,0,27,0.00,0.00,0.00,0.0000,0.0000,0.0000,0.0000,0.0000,0.0000,0.0000,0.00,0.00,0.00,0.9670,0.2740,1.1340,1.2530,2.7050,0,0.0000,0.0000,0.0000,0.0000,0.0000,0
5921,0.0648,0.0021,0.0063,-0.0271,0.1081,-0.0088,-0.33,7.54,2.17,0,3.526,-10.276,4.843,-10.237,0.022,-0.016,1.004,0.000,0.000,0.000,0.0000,3,37,0.00,0.00,0.00,0.0000,0.0000,0.0000,0.0000,0.0000,0.0000,0.0000,0.00,0.00,0.00,1.0320,0.1820,1.1350,1.2530,2.7050,0,0.0000,0.0000,0.0000,0.0000,0.0000,0
5973,0.0300,-0.0013,-0.0042,-0.2497,0.0679,-0.0661,-0.31,9.36,1.42,0,3.505,-10.331,73.899,-7.493,0.025,-0.016,1.035,0.000,0.000,0.000,0.0000,-1,115,0.00,0.00,0.00,0.0000,0.0000,0.0000,0.0000,0.0000,0.0000,0.0000,0.00,0.00,0.00,1.0320,0.1820,1.1350,1.2480,2.7050,0,0.0000,0.0000,0.0000,0.0000,0.0000,0
6025,-0.0271,-0.0088,-0.0248,-0.5327,0.0224,-0.1546,-0.54,7.33,0.73,0,3.484,-17.766,119.781,-6.955,0.020,-0.013,1.073,0.000,0.000,0.000,0.0000,8,100,0.00,0.00,0.00,0.0000,0.0000,0.0000,0.0000,0.0000,0.0000,0.0000,0.00,0.00,0.00,0.0000,0.2580,1.1370,1.2480,2.6870,0,0.0000,0.0000,0.0000,0.0000,0.0000,0
6076,-0.0689,-0.0125,-0.0260,-0.6611,0.0036,-0.0964,-1.05,1.91,0.17,0,3.500,-10.244,118.889,-2.708,0.006,-0.026,1.077,0.000,0.000,0.000,0.0000,0,38,0.00,0.00,0.00,0.0000,0.0000,0.0000,0.0000,0.0000,0.0000,0.0000,0.00,0.00,0.00,0.0000,0.2580,1.1370,1.2560,2.6870,0,0.0000,0.0000,0.0000,0.0000,0.0000,0
6127,-0.1121,-0.0132,-0.0214,-0.7235,0.0092,-0.0138,-1.66,-4.42,-0.24,0,3.500,17.681,122.922,-2.767,-0.001,-0.023,1.065,0.000,0.000,0.000,0.0000,-8,37,0.00,0.00,0.00,0.0000,0.0000,0.0000,0.0000,0.0000,0.0000,0.0000,0.00,0.00,0.00,0.0000,0.2600,1.1320,1.2560,2.7240,0,0.0000,0.0000,0.0000,0.0000,0.0000,0
6178,-0.1509,-0.0113,-0.0115,-0.6888,0.0285,0.0677,-1.12,-9.80,-0.40,0,3.526,-7.362,54.219,-9.059,0.011,-0.029,1.059,0.000,0.000,0.000,0.0020,-5,5,0.00,0.00,0.00,0.0000,0.0000,0.0000,0.0000,0.0000,0.0000,0.0000,0.00,0.00,0.00,0.0000,0.2600,1.1320,1.2600,2.7240,0,0.0000,0.0000,0.0000,0.0000,0.0000,0
6229,-0.1664,-0.0100,0.0036,-0.4861,0.0350,0.1551,-1.58,-14.45,-0.90,0,3.526,-3.017,-49.952,-12.118,0.013,-0.021,0.988,0.000,0.000,0.000,0.0170,0,-43,0.00,0.00,0.00,0.0000,0.0000,0.0000,0.0000,0.0000,0.0000,0.0000,0.00,0.00,0.00,0.0980,0.2550,1.1280,1.2600,2.8140,0,0.0000,0.0000,0.0000,0.0000,0.0000,0
6280,-0.1667,0.0004,0.0164,-0.2506,0.0931,0.1847,-1.99,-13.64,-1.30,0,3.531,25.536,-86.084,-12.951,-0.005,-0.018,0.973,0.000,0.000,0.000,0.0220,-5,-37,0.00,0.00,0.00,0.0000,0.0000,0.0000,0.0000,0.0000,0.0000,0.0000,0.00,0.00,0.00,0.0980,0.2550,1.1280,1.2640,2.8140,0,0.0000,0.0000,0.0000,0.0000,0.0000,0
6331,-0.1287,0.0002,0.0222,0.0851,0.0860,0.1690,-1.04,-10.70,-1.54,0,3.516,26.938,-95.576,-14.901,-0.006,-0.027,0.961,0.000,0.000,0.000,0.0270,-9,-53,0.00,0.00,0.00,0.0000,0.0000,0.0000,0.0000,0.0000,0.0000,0.0000,0.00,0.00,0.00,0.0000,0.0000,1.1260,1.2640,2.7340,0,0.0000,0.0000,0.0000,0.0000,0.0000,0
6382,-0.0907,0.0033,0.0235,0.3060,0.0874,0.1262,0.32,-6.73,-2.13,0,3.505,16.708,-114.276,-5.477,-0.004,-0.026,0.982,0.000,0.000,0.000,0.0300,-1,0,0.00,0.00,0.00,0.0000,0.0000,0.0000,0.0000,0.0000,0.0000,0.0000,0.00,0.00,0.00,0.0000,0.0000,1.1260,1.2650,2.7340,0,0.0000,0.0000,0.0000,0.0000,0.0000,0
6433,-0.0808,0.0042,0.0325,0.3203,0.0638,0.1251,1.33,-0.73,-2.43,0,3.505,4.631,-76.817,-1.741,-0.013,-0.023,0.974,0.000,0.000,0.000,0.0350,5,14,0.00,0.00,0.00,0.0000,0.0000,0.0000,0.0000,0.0000,0.0000,0.0000,0.00,0.00,0.00,0.8890,0.1740,1.1200,1.2650,2.6680,0,0.0000,0.0000,0.0000,0.0000,0.0000,0
6484,-0.0786,0.0014,0.0397,0.2588,0.0241,0.1183,1.89,4.22,-2.41,0,3.500,-20.579,-16.950,7.899,-0.013,-0.022,0.995,0.000,0.000,0.000,0.0360,0,-67,0.00,0.00,0.00,0.0000,0.0000,0.0000,0.0000,0.0000,0.0000,0.0000,0.00,0.00,0.00,0.8890,0.1740,1.1200,1.2660,2.6680,0,0.0000,0.0000,0.0000,0.0000,0.0000,0
6535,-0.0673,-0.0021,0.0422,0.2260,-0.0084,0.0958,0.95,4.91,-2.15,0,3.479,-7.173,12.654,4.317,0.001,-0.016,1.016,0.000,0.000,0.000,0.0600,5,-6,0.00,0.00,0.00,0.0000,0.0000,0.0000,0.0000,0.0000,0.0000,0.0000,0.00,0.00,0.00,0.0000,0.1420,1.1230,1.2660,2.6680,0,0.0000,0.0000,0.0000,0.0000,0.0000,0
6586,-0.0376,-0.0070,0.0517,0.2621,-0.0363,0.1190,0.67,4.20,-1.83,0,3.489,-9.573,-46.727,2.976,-0.001,-0.016,1.028,0.000,0.000,0.000,0.0490,-9,-29,0.00,0.00,0.00,0.0000,0.0000,0.0000,0.0000,0.0000,0.0000,0.0000,0.00,0.00,0.00,0.0000,0.1420,1.1230,1.2790,2.6680,0,0.0000,0.0000,0.0000,0.0000,0.0000,0
6637,-0.0328,-0.0072,0.0556,0.1906,-0.0309,0.1188,-0.04,6.08,-1.67,0,3.484,-8.234,-16.398,5.428,-0.008,-0.017,0.997,0.000,0.000,0.000,0.0710,-6,-21,0.00,0.00,0.00,0.0000,0.0000,0.0000,0.0000,0.0000,0.0000,0.0000,0.00,0.00,0.00,0.0000,0.1410,1.1270,1.2790,2.6580,0,0.0000,0.0000,0.0000,0.0000,0.0000,0
6688,-0.0153,0.0023,0.0657,0.1762,0.0313,0.1406,-0.99,7.13,-1.25,0,3.479,10.908,25.939,10.347,0.010,-0.017,1.001,0.000,0.000,0.000,0.0690,2,-8,0.00,0.00,0.00,0.0000,0.0000,0.0000,0.0000,0.0000,0.0000,0.0000,0.00,0.00,0.00,0.0000,0.1410,1.1270,1.2890,2.6580,0,0.0000,0.0000,0.0000,0.0000,0.0000,0
6739,-0.0097,0.0044,0.0720,0.1070,0.0416,0.1371,-0.59,6.37,-0.92,0,3.484,16.808,15.617,8.742,0.010,-0.017,0.996,0.000,0.000,0.000,0.0670,-5,-14,0.00,0.00,0.00,0.0000,0.0000,0.0000,0.0000,0.0000,0.0000,0.0000,0.00,0.00,0.00,0.0000,0.1390,1.1270,1.2890,2.6610,0,0.0000,0.0000,0.0000,0.0000,0.0000,0
6790,0.0025,0.0037,0.0740,0.0940,0.0305,0.1098,0.47,5.22,-0.50,0,3.473,-0.030,6.031,4.115,0.009,-0.022,0.989,0.000,0.000,0.000,0.0630,1,-5,0.00,0.00,0.00,0.0000,0.0000,0.0000,0.0000,0.0000,0.0000,0.0000,0.00,0.00,0.00,0.0000,0.1390,1.1270,1.2930,2.6610,0,0.0000,0.0000,0.0000,0.0000,0.0000,0
6841,0.0014,0.0043,0.0731,0.0264,0.0209,0.0796,0.85,5.34,-0.34,0,3.468,-13.697,40.829,-0.874,0.023,-0.009,1.046,0.000,0.000,0.000,0.0740,0,2,0.00,0.00,0.00,0.0000,0.0000,0.0000,0.0000,0.0000,0.0000,0.0000,0.00,0.00,0.00,0.0000,0.1430,1.1290,1.2930,2.6540,0,0.0000,0.0000,0.0000,0.0000,0.0000,0
6892,0.0093,0.0034,0.0761,0.0184,0.0060,0.0797,0.27,3.41,-0.35,0,3.468,-10.694,11.951,-9.187,0.016,-0.013,1.054,0.000,0.000,0.000,0.0650,4,-4,0.00,0.00,0.00,0.0000,0.0000,0.0000,0.0000,0.0000,0.0000,0.0000,0.00,0.00,0.00,0.0000,0.1430,1.1290,1.2600,2.6540,0,0.0000,0.0000,0.0000,0.0000,0.0000,0
6943,0.0155,0.0013,0.0742,0.0190,-0.0068,0.0709,-0.14,2.13,-0.88,0,3.452,11.047,-10.967,-2.756,0.002,-0.013,1.042,0.000,0.000,0.000,0.0620,-4,-1,0.00,0.00,0.00,0.0000,0.0000,0.0000,0.0000,0.0000,0.0000,0.0000,0.00,0.00,0.00,0.0000,0.1490,1.1310,1.2600,2.6350,0,0.0000,0.0000,0.0000,0.0000,0.0000,0
6994,0.0212,0.0006,0.0716,0.0218,-0.0073,0.0585,0.27,2.49,-1.08,0,3.447,12.661,21.528,-2.776,0.000,-0.014,1.053,0.000,0.000,0.000,0.0700,2,2,0.00,0.00,0.00,0.0000,0.0000,0.0000,0.0000,0.0000,0.0000,0.0000,0.00,0.00,0.00,0.0000,0.1490,1.1310,1.2790,2.6350,0,0.0000,0.0000,0.0000,0.0000,0.0000,0
7045,0.0238,0.0020,0.0731,0.0096,-0.0009,0.0686,0.84,1.61,-1.16,0,3.452,-33.621,10.063,0.287,0.015,-0.023,1.117,0.000,0.000,0.000,0.0720,3,-1,0.00,0.00,0.00,0.0000,0.0000,0.0000,0.0000,0.0000,0.0000,0.0000,0.00,0.00,0.00,0.0000,0.1490,1.1370,1.2790,2.6380,0,0.0000,0.0000,0.0000,0.0000,0.0000,0
7096,0.0249,0.0021,0.0756,0.0026,-0.0053,0.1060,-0.17,0.48,-1.22,0,3.452,-10.390,5.061,7.335,0.005,-0.013,1.102,0.000,0.000,0.000,0.0830,0,0,0.00,0.00,0.00,0.0000,0.0000,0.0000,0.0000,0.0000,0.0000,0.0000,0.00,0.00,0.00,0.0000,0.1490,1.1370,1.2770,2.6380,0,0.0000,0.0000,0.0000,0.0000,0.0000,0
7147,0.0233,0.0024,0.0833,-0.0108,0.0015,0.1612,-0.99,0.44,-0.90,0,3.463,23.423,25.597,5.834,0.012,-0.013,1.078,0.000,0.000,0.000,0.0950,9,0,0.00,0.00,0.00,0.0000,0.0000,0.0000,0.0000,0.0000,0.0000,0.0000,0.00,0.00,0.00,0.8040,0.1540,1.1390,1.2770,2.6130,0,0.0000,0.0000,0.0000,0.0000,0.0000,0
7198,0.0254,0.0032,0.0945,0.0031,0.0124,0.2155,0.02,-0.93,-0.52,0,3.468,2.157,1.330,4.950,0.014,-0.012,1.060,0.000,0.000,0.000,0.1040,0,0,0.00,0.00,0.00,0.0000,0.0000,0.0000,0.0000,0.0000,0.3000,0.2804,0.76,1.82,15.59,0.8040,0.1540,1.1390,1.3040,2.6130,0,0.0000,0.0000,0.0000,0.0000,0.0000,0
7249,0.0256,-0.0024,0.1063,0.0111,-0.0184,0.2474,0.41,-1.17,-0.23,0,3.473,-5.250,-6.599,5.586,0.007,-0.019,1.043,0.000,0.000,0.000,0.1200,-2,0,0.02,0.93,-0.52,0.0254,0.0032,0.1040,0.0000,0.0000,0.3000,0.2748,-0.99,2.23,6.91,0.8140,0.1650,1.1370,1.3040,2.5810,0,0.0000,0.0000,0.0000,0.0000,0.0000,0
7301,0.0262,-0.0020,0.1208,0.0199,-0.0151,0.2796,0.13,-0.75,0.01,0,3.479,1.522,-3.401,5.189,0.011,-0.014,1.018,0.000,0.000,0.000,0.1350,0,-2,-0.25,1.26,-0.23,0.0251,0.0027,0.1159,0.0000,0.0000,0.3000,0.2686,-0.83,2.73,-0.31,0.8140,0.1650,1.1370,1.3390,2.5810,0,0.0000,0.0000,0.0000,0.0000,0.0000,0
7352,0.0287,-0.0009,0.1364,0.0338,-0.0074,0.3002,0.11,-0.72,0.27,0,3.489,-2.905,-3.942,5.834,0.012,-0.015,1.001,0.000,0.000,0.000,0.1520,2,-1,-0.25,1.15,0.04,0.0329,0.0041,0.1324,0.0000,0.0000,0.3000,0.2634,-0.41,3.61,-8.08,0.0000,0.1750,1.1350,1.3390,2.5690,0,0.0000,0.0000,0.0000,0.0000,0.0000,0
7403,0.0300,0.0020,0.1502,0.0378,0.0085,0.3109,-0.01,-0.50,0.55,0,3.489,6.220,-1.489,7.782,0.009,-0.022,0.989,0.000,0.000,0.000,0.1580,-3,-1,0.54,1.65,0.31,0.0338,0.0005,0.1528,0.0000,0.0000,0.3000,0.2597,0.55,3.94,-16.61,0.0000,0.1750,1.1350,1.3890,2.5690,0,0.0000,0.0000,0.0000,0.0000,0.0000,0
7454,0.0313,0.0022,0.1654,0.0380,0.0078,0.2916,-0.04,-0.41,0.89,0,3.489,4.339,-3.971,8.928,0.006,-0.017,0.974,0.000,0.000,0.000,0.1770,-4,-1,-2.12,1.64,0.79,0.0348,0.0038,0.1678,0.0000,0.0000,0.3000,0.2589,0.54,4.06,-26.63,0.0000,0.1750,1.1320,1.3890,2.5290,0,0.0000,0.0000,0.0000,0.0000,0.0000,0
7505,0.0326,0.0075,0.1798,0.0382,0.0272,0.2825,0.13,-0.23,1.31,0,3.489,1.130,-3.023,7.837,0.007,-0.014,0.974,0.000,0.000,0.000,0.1880,2,0,-3.58,1.57,1.30,0.0358,0.0098,0.1822,0.0000,0.0000,0.3000,0.2571,1.85,4.19,-39.16,0.0000,0.1750,1.1320,1.4420,2.5290,0,0.0000,0.0000,0.0000,0.0000,0.0000,0
7556,0.0328,0.0161,0.1897,0.0336,0.0593,0.2658,-0.02,0.01,1.65,0,3.489,12.365,-5.780,6.741,0.008,-0.014,0.972,0.000,0.000,0.000,0.2070,-2,-1,-1.10,1.93,1.62,0.0357,0.0093,0.1987,0.0000,0.0000,0.3000,0.2571,4.01,3.98,-49.36,0.0000,0.1900,1.1290,1.4420,2.4980,0,0.0000,0.0000,0.0000,0.0000,0.0000,0
7607,0.0335,0.0177,0.2045,0.0296,0.0539,0.2615,0.56,0.27,2.02,0,3.489,13.834,1.296,4.413,0.007,-0.019,0.956,0.000,0.000,0.000,0.2210,5,0,-0.99,1.81,2.01,0.0366,0.0131,0.2139,0.0000,0.0000,0.3000,0.2548,3.90,3.88,-60.46,0.0000,0.1900,1.1290,1.4540,2.4980,0,0.0000,0.0000,0.0000,0.0000,0.0000,0
7658,0.0339,0.0257,0.2187,0.0236,0.0716,0.2530,1.02,0.32,2.21,0,3.494,0.285,-1.954,1.577,0.005,-0.014,0.964,0.000,0.000,0.000,0.2360,1,1,1.83,1.75,2.15,0.0366,0.0049,0.2274,0.0000,0.0000,0.3000,0.2530,5.37,3.64,-66.33,0.0000,0.2000,1.1310,1.4540,2.4710,0,0.0000,0.0000,0.0000,0.0000,0.0000,0
7709,0.0345,0.0257,0.2330,0.0191,0.0513,0.2441,1.06,0.37,2.29,0,3.494,7.806,4.526,-1.983,0.009,-0.016,0.952,0.000,0.000,0.000,0.2430,1,3,1.68,2.08,2.24,0.0342,0.0020,0.2410,0.0000,0.0000,0.3000,0.2513,4.42,3.49,-68.84,0.0000,0.2000,1.1310,1.4470,2.4710,0,0.0000,0.0000,0.0000,0.0000,0.0000,0
7760,0.0350,0.0254,0.2441,0.0153,0.0330,0.2212,1.45,0.34,2.25,0,3.489,0.643,5.344,-3.759,0.009,-0.023,0.947,0.000,0.000,0.000,0.2570,6,-2,1.90,2.41,2.21,0.0273,-0.0012,0.2510,0.0000,0.0000,0.3000,0.2517,3.49,3.33,-67.44,0.0000,0.2080,1.1400,1.4470,2.4480,0,0.0000,0.0000,0.0000,0.0000,0.0000,0
7811,0.0347,0.0269,0.2565,0.0100,0.0216,0.2039,1.50,0.08,2.07,0,3.489,-7.144,1.344,-5.165,0.011,-0.014,0.955,0.000,0.000,0.000,0.2630,0,1,2.81,1.30,1.82,0.0316,-0.0157,0.2608,0.0000,0.0000,0.3000,0.2512,3.05,3.06,-62.05,0.0000,0.2080,1.1400,1.4320,2.4480,0,0.0000,0.0000,0.0000,0.0000,0.0000,0
7862,0.0354,0.0258,0.2648,0.0100,0.0038,0.1735,1.12,0.01,1.83,0,3.484,-2.632,0.867,-6.278,0.010,-0.021,0.952,0.000,0.000,0.000,0.2730,1,0,1.73,1.28,1.61,0.0288,-0.0167,0.2700,0.0000,0.0000,0.3000,0.2529,2.08,3.09,-54.76,0.0000,0.2220,1.1440,1.4320,2.4260,0,0.0000,0.0000,0.0000,0.0000,0.0000,0
7913,0.0363,0.0213,0.2736,0.0114,-0.0194,0.1536,1.04,0.04,1.53,0,3.479,-9.143,2.075,-7.695,0.004,-0.017,0.957,0.000,0.000,0.000,0.2790,1,0,1.25,1.08,1.25,0.0285,-0.0200,0.2776,0.0000,0.0000,0.3000,0.2534,0.62,3.22,-45.82,0.0000,0.2220,1.1440,1.4140,2.4260,0,0.0000,0.0000,0.0000,0.0000,0.0000,0
7964,0.0358,0.0163,0.2799,0.0081,-0.0397,0.1285,0.75,-0.09,1.18,0,3.484,-12.023,1.212,-7.450,0.009,-0.013,0.966,0.000,0.000,0.000,0.2890,5,0,0.51,0.85,0.82,0.0283,-0.0230,0.2836,0.0000,0.0000,0.3000,0.2549,-0.74,3.01,-35.42,0.0000,0.0000,1.1630,1.4140,2.4190,0,0.0000,0.0000,0.0000,0.0000,0.0000,0
8015,0.0348,0.0132,0.2877,0.0049,-0.0487,0.1187,0.23,-0.18,0.83,0,3.479,-11.027,-0.473,-7.483,0.003,-0.015,0.970,0.000,0.000,0.000,0.2910,0,0,0.26,0.71,0.44,0.0283,-0.0374,0.2896,0.0000,0.0000,0.3000,0.2545,-1.40,2.78,-24.98,0.0000,0.0000,1.1630,1.4810,2.4190,0,0.0000,0.0000,0.0000,0.0000,0.0000,0
8066,0.0339,0.0079,0.2922,0.0032,-0.0581,0.0980,-0.27,-0.08,0.45,0,3.479,-6.460,1.997,-6.791,0.008,-0.011,0.976,0.000,0.000,0.000,0.2960,4,2,-0.29,0.74,0.06,0.0268,-0.0469,0.2940,0.0000,0.0000,0.3000,0.2559,-2.23,2.62,-13.64,0.0000,0.2360,1.1690,1.4810,2.4100,0,0.0000,0.0000,0.0000,0.0000,0.0000,0
8117,0.0328,0.0019,0.2968,0.0004,-0.0645,0.0842,-0.63,-0.17,0.14,0,3.473,-8.421,1.910,-6.148,0.007,-0.014,0.983,0.000,0.000,0.000,0.2960,4,0,-1.01,0.79,-0.31,0.0212,-0.0464,0.2985,0.0000,0.0000,0.3000,0.2565,-2.97,2.40,-4.16,0.0000,0.2360,1.1690,1.5010,2.4100,0,0.0000,0.0000,0.0000,0.0000,0.0000,0
8168,0.0318,-0.0059,0.2987,-0.0006,-0.0711,0.0629,-0.99,-0.22,-0.15,0,3.473,-6.510,0.913,-4.855,0.008,-0.011,0.989,0.000,0.000,0.000,0.3010,0,0,-1.31,0.63,-0.61,0.0204,-0.0570,0.3008,0.0000,0.0000,0.3000,0.2584,-3.82,2.26,4.37,0.0000,0.2540,1.1830,1.5010,2.4030,0,0.0000,0.0000,0.0000,0.0000,0.0000,0
8219,0.0299,-0.0126,0.3016,-0.0035,-0.0711,0.0542,-1.22,-0.21,-0.40,0,3.468,-5.420,3.135,-3.368,0.007,-0.014,0.993,0.000,0.000,0.000,0.3040,3,1,-1.64,0.59,-0.86,0.0182,-0.0647,0.3036,0.0000,0.0000,0.3000,0.2588,-4.30,1.99,11.97,0.0000,0.2540,1.1830,1.5300,2.4030,0,0.0000,0.0000,0.0000,0.0000,0.0000,0
8270,0.0292,-0.0204,0.3041,-0.0031,-0.0714,0.0494,-1.43,-0.23,-0.59,0,3.473,-3.282,-0.262,-3.284,0.005,-0.016,0.997,0.000,0.000,0.000,0.3080,-3,0,-2.13,0.39,-1.07,0.0175,-0.0651,0.3064,0.0000,0.0000,0.3000,0.2589,-4.86,1.96,17.55,0.7220,0.0000,1.1970,1.5300,2.4020,0,0.0000,0.0000,0.0000,0.0000,0.0000,0
8321,0.0265,-0.0224,0.3073,-0.0070,-0.0563,0.0505,-1.63,-0.22,-0.75,0,3.468,-0.051,-1.118,-3.818,0.006,-0.012,0.997,0.000,0.000,0.000,0.3120,3,1,-2.59,0.37,-1.32,0.0168,-0.0606,0.3093,0.0000,0.0000,0.3000,0.2581,-4.30,1.58,22.52,0.7220,0.0000,1.1970,1.4810,2.4020,0,0.0000,0.0000,0.0000,0.0000,0.0000,0
8372,0.0248,-0.0240,0.3108,-0.0084,-0.0407,0.0539,-1.60,-0.25,-0.94,0,3.473,4.921,2.735,-2.904,0.009,-0.012,0.994,0.000,0.000,0.000,0.3120,-1,0,-2.44,0.47,-1.48,0.0139,-0.0679,0.3129,0.0000,0.0000,0.3000,0.2571,-3.69,1.39,28.10,0.7290,0.0000,1.2000,1.4810,2.4000,0,0.0000,0.0000,0.0000,0.0000,0.0000,0
8423,0.0229,-0.0296,0.3130,-0.0095,-0.0360,0.0498,-1.35,-0.30,-1.06,0,3.468,3.101,4.904,-1.060,0.008,-0.013,0.997,0.000,0.000,0.000,0.3140,3,0,-2.32,0.29,-1.65,0.0136,-0.0659,0.3150,0.0000,0.0000,0.3000,0.2571,-3.86,1.21,31.67,0.7290,0.0000,1.2000,1.4460,2.4000,0,0.0000,0.0000,0.0000,0.0000,0.0000,0
8474,0.0194,-0.0247,0.3148,-0.0136,-0.0099,0.0432,-1.22,-0.44,-1.12,0,3.468,2.561,2.016,1.041,0.009,-0.013,0.997,0.000,0.000,0.000,0.3140,0,0,-1.97,0.01,-1.60,0.0133,-0.0739,0.3172,0.0000,0.0000,0.3000,0.2575,-2.25,0.76,33.58,0.0000,0.0000,1.2040,1.4460,2.3860,0,0.0000,0.0000,0.0000,0.0000,0.0000,0
8525,0.0173,-0.0285,0.3159,-0.0131,-0.0071,0.0360,-1.06,-0.52,-1.05,0,3.457,6.188,-0.241,4.548,0.010,-0.011,1.002,0.000,0.000,0.000,0.3130,-2,0,-1.84,-0.09,-1.55,0.0124,-0.0758,0.3185,0.0000,0.0000,0.3000,0.2581,-2.39,0.63,31.47,0.0000,0.0000,1.2040,1.4540,2.3860,0,0.0000,0.0000,0.0000,0.0000,0.0000,0
8576,0.0159,-0.0300,0.3156,-0.0105,-0.0012,0.0253,-0.66,-0.53,-0.85,0,3.468,6.052,0.486,7.020,0.006,-0.014,1.003,0.000,0.000,0.000,0.3230,0,1,-1.78,-0.12,-1.43,0.0135,-0.0651,0.3188,0.0000,0.0000,0.3000,0.2593,-2.20,0.65,25.38,0.7610,0.0000,1.1950,1.4540,2.3820,0,0.0000,0.0000,0.0000,0.0000,0.0000,0
8627,0.0150,-0.0331,0.3196,-0.0069,-0.0021,0.0400,-0.40,-0.53,-0.52,0,3.463,3.210,0.051,6.739,0.007,-0.015,1.003,0.000,0.000,0.000,0.3200,1,2,-1.45,-0.11,-1.10,0.0112,-0.0645,0.3222,0.0000,0.0000,0.3000,0.2570,-2.49,0.76,15.66,0.7610,0.0000,1.1950,1.4860,2.3820,0,0.0000,0.0000,0.0000,0.0000,0.0000,0
8678,0.0124,-0.0297,0.3210,-0.0072,0.0083,0.0383,-0.26,-0.51,-0.19,0,3.468,4.361,-0.898,6.563,0.005,-0.016,1.000,0.000,0.000,0.000,0.3220,1,0,-1.21,-0.02,-0.80,0.0061,-0.0665,0.3239,0.0000,0.0000,0.3000,0.2569,-1.75,0.56,5.75,0.8020,0.0000,1.1990,1.4860,2.3800,0,0.0000,0.0000,0.0000,0.0000,0.0000,0
8729,0.0108,-0.0282,0.3227,-0.0054,0.0127,0.0381,-0.04,-0.51,0.15,0,3.468,2.063,-3.967,6.676,0.006,-0.010,1.002,0.000,0.000,0.000,0.3240,0,0,-0.93,-0.00,-0.40,0.0060,-0.0690,0.3255,0.0000,0.0000,0.3000,0.2566,-1.43,0.53,-4.53,0.8020,0.0000,1.1990,1.5310,2.3800,0,0.0000,0.0000,0.0000,0.0000,0.0000,0
8780,0.0098,-0.0273,0.3243,-0.0027,0.0136,0.0369,0.08,-0.33,0.47,0,3.468,5.177,0.695,5.341,0.017,-0.019,0.998,0.000,0.000,0.000,0.3250,0,0,-0.82,0.19,-0.06,0.0052,-0.0685,0.3272,0.0000,0.0000,0.3000,0.2564,-1.32,0.59,-14.19,0.0000,0.0000,1.1950,1.5310,2.3820,0,0.0000,0.0000,0.0000,0.0000,0.0000,0
8831,0.0095,-0.0249,0.3258,-0.0003,0.0164,0.0357,0.17,-0.25,0.74,0,3.463,1.908,-2.668,4.777,0.004,-0.016,1.001,0.000,0.000,0.000,0.3280,-5,0,-0.56,0.15,0.22,0.0047,-0.0682,0.3286,0.0000,0.0000,0.3000,0.2562,-1.01,0.69,-22.23,0.0000,0.0000,1.1950,1.5360,2.3820,0,0.0000,0.0000,0.0000,0.0000,0.0000,0
8882,0.0081,-0.0236,0.3278,-0.0010,0.0159,0.0363,0.21,-0.16,0.97,0,3.468,3.165,-2.384,4.370,0.007,-0.015,1.001,0.000,0.000,0.000,0.3280,1,0,-0.78,0.27,0.24,0.0054,-0.0470,0.3304,0.0000,0.0000,0.3000,0.2558,-0.94,0.55,-28.98,0.0000,0.0000,1.1940,1.5360,2.3780,0,0.0000,0.0000,0.0000,0.0000,0.0000,0
8933,0.0077,-0.0151,0.3291,-0.0004,0.0287,0.0337,0.32,-0.11,1.18,0,3.463,5.711,-1.281,3.215,0.008,-0.018,1.004,0.000,0.000,0.000,0.3280,0,0,-0.56,0.39,0.50,0.0054,-0.0467,0.3318,0.0000,0.0000,0.3000,0.2558,0.29,0.55,-35.43,0.0000,0.0000,1.1940,1.5460,2.3780,0,0.0000,0.0000,0.0000,0.0000,0.0000,0
8985,0.0064,-0.0167,0.3296,-0.0019,0.0207,0.0285,0.51,-0.05,1.35,0,3.463,-0.285,-2.302,2.427,0.005,-0.013,0.999,0.000,0.000,0.000,0.3310,0,0,-0.27,0.45,0.67,0.0054,-0.0436,0.3326,0.0000,0.0000,0.3000,0.2563,-0.21,0.39,-40.62,0.0000,0.0000,1.1910,1.5460,2.3680,0,0.0000,0.0000,0.0000,0.0000,0.0000,0
9036,0.0058,-0.0184,0.3311,-0.0024,0.0113,0.0296,0.60,0.04,1.48,0,3.457,-2.167,-1.202,2.834,0.007,-0.015,1.002,0.000,0.000,0.000,0.3320,2,0,-0.29,0.57,0.80,0.0053,-0.0408,0.3339,0.0000,0.0000,0.3000,0.2559,-0.80,0.32,-44.41,0.0000,0.0000,1.1910,1.5490,2.3680,0,0.0000,0.0000,0.0000,0.0000,0.0000,0
9087,0.0040,-0.0160,0.3324,-0.0058,0.0099,0.0290,0.49,0.01,1.60,0,3.463,-0.304,0.089,2.604,0.009,-0.015,1.004,0.000,0.000,0.000,0.3310,0,0,-0.16,0.62,1.07,0.0059,-0.0537,0.3354,0.0000,0.0000,0.3000,0.2557,-0.69,0.03,-48.05,0.0000,0.0000,1.1870,1.5490,2.3720,0,0.0000,0.0000,0.0000,0.0000,0.0000,0
9139,0.0014,-0.0153,0.3328,-0.0103,0.0064,0.0266,0.44,0.01,1.73,0,3.457,2.216,4.450,1.827,0.005,-0.016,1.004,0.000,0.000,0.000,0.3360,0,0,-0.18,0.62,1.20,0.0058,-0.0547,0.3359,0.0000,0.0000,0.3000,0.2559,-0.80,-0.38,-51.97,0.0000,0.0000,1.1870,1.5600,2.3720,0,0.0000,0.0000,0.0000,0.0000,0.0000,0
9190,-0.0010,-0.0156,0.3350,-0.0136,0.0017,0.0327,0.52,-0.14,1.86,0,3.463,-2.561,1.086,1.739,0.008,-0.014,0.995,0.000,0.000,0.000,0.3390,0,0,-0.07,0.39,1.30,0.0056,-0.0560,0.3377,0.0000,0.0000,0.3000,0.2548,-1.06,-0.72,-55.78,0.0000,0.0000,1.1890,1.5600,2.3640,0,0.0000,0.0000,0.0000,0.0000,0.0000,0
9241,-0.0028,-0.0167,0.3378,-0.0145,-0.0046,0.0391,0.50,-0.27,1.95,0,3.457,0.290,0.341,1.529,0.008,-0.012,0.998,0.000,0.000,0.000,0.3400,0,0,-0.20,0.33,1.38,0.0054,-0.0576,0.3398,0.0000,0.0000,0.3000,0.2536,-1.45,-0.90,-58.47,0.0000,0.0000,1.1890,1.5600,2.3640,0,0.0000,0.0000,0.0000,0.0000,0.0000,0
9292,-0.0052,-0.0220,0.3398,-0.0153,-0.0180,0.0394,0.42,-0.29,2.00,0,3.463,-3.642,2.391,0.160,0.006,-0.015,0.994,0.000,0.000,0.000,0.3390,-2,1,-0.18,0.31,1.46,0.0053,-0.0594,0.3415,0.0000,0.0000,0.3000,0.2532,-2.50,-1.11,-59.93,0.0000,0.2990,1.1860,1.5600,2.3600,0,0.0000,0.0000,0.0000,0.0000,0.0000,0
9344,-0.0085,-0.0221,0.3408,-0.0175,-0.0200,0.0338,0.27,-0.33,2.01,0,3.457,-3.002,2.496,-0.132,0.010,-0.015,0.997,0.000,0.000,0.000,0.3420,0,0,-0.56,0.22,1.40,0.0025,-0.0465,0.3426,0.0000,0.0000,0.3000,0.2536,-2.60,-1.46,-60.43,0.0000,0.2990,1.1860,1.5630,2.3600,0,0.0000,0.0000,0.0000,0.0000,0.0000,0
9395,-0.0111,-0.0206,0.3423,-0.0178,-0.0175,0.0323,0.09,-0.43,1.97,0,3.463,-0.960,1.763,-1.353,0.006,-0.012,0.995,0.000,0.000,0.000,0.3440,1,1,-0.72,0.09,1.39,0.0020,-0.0457,0.3437,0.0000,0.0000,0.3000,0.2535,-2.37,-1.67,-59.22,0.0000,0.0000,1.1880,1.5630,2.3580,0,0.0000,0.0000,0.0000,0.0000,0.0000,0
9446,-0.0127,-0.0245,0.3440,-0.0156,-0.0240,0.0322,-0.00,-0.47,1.92,0,3.457,-1.669,0.435,-1.479,0.005,-0.015,1.000,0.000,0.000,0.000,0.3430,0,0,-0.72,0.02,1.35,0.0004,-0.0474,0.3452,0.0000,0.0000,0.3000,0.2531,-2.97,-1.68,-57.49,0.0000,0.0000,1.1880,1.5620,2.3580,0,0.0000,0.0000,0.0000,0.0000,0.0000,0
9497,-0.0147,-0.0253,0.3445,-0.0136,-0.0234,0.0255,-0.06,-0.50,1.85,0,3.463,-3.050,0.474,-0.847,0.007,-0.011,0.998,0.000,0.000,0.000,0.3460,4,0,-0.81,0.00,1.28,-0.0002,-0.0473,0.3458,0.0000,0.0000,0.3000,0.2538,-3.00,-1.72,-55.61,0.0000,0.3210,1.1970,1.5620,2.3570,0,0.0000,0.0000,0.0000,0.0000,0.0000,0
9549,-0.0167,-0.0302,0.3460,-0.0119,-0.0299,0.0261,-0.13,-0.48,1.81,0,3.452,-4.695,-0.683,-1.687,0.004,-0.013,1.000,0.000,0.000,0.000,0.3480,2,0,-0.82,-0.03,1.34,0.0003,-0.0558,0.3472,0.0000,0.0000,0.3000,0.2534,-3.67,-1.79,-54.25,0.0000,0.3210,1.1970,1.5720,2.3570,0,0.0000,0.0000,0.0000,0.0000,0.0000,0
9600,-0.0190,-0.0324,0.3476,-0.0112,-0.0299,0.0270,-0.24,-0.44,1.72,0,3.457,-4.430,0.230,-1.654,0.004,-0.014,0.999,0.000,0.000,0.000,0.3480,0,0,-1.03,0.01,1.28,0.0003,-0.0599,0.3485,0.0000,0.0000,0.3000,0.2530,-3.84,-1.93,-51.49,0.0000,0.0000,1.1910,1.5720,2.3550,0,0.0000,0.0000,0.0000,0.0000,0.0000,0
9651,-0.0202,-0.0347,0.3486,-0.0090,-0.0290,0.0247,-0.40,-0.44,1.62,0,3.457,2.283,-0.452,-2.419,0.008,-0.011,0.998,0.000,0.000,0.000,0.3470,0,1,-1.26,-0.00,1.20,0.0003,-0.0626,0.3495,0.0000,0.0000,0.3000,0.2531,-3.96,-1.91,-48.47,0.0000,0.0000,1.1910,1.5710,2.3550,0,0.0000,0.0000,0.0000,0.0000,0.0000,0
9702,-0.0219,-0.0357,0.3486,-0.0078,-0.0249,0.0174,-0.40,-0.39,1.49,0,3.457,-1.101,0.133,-2.178,0.008,-0.012,1.002,0.000,0.000,0.000,0.3490,0,1,-1.20,0.07,1.01,-0.0028,-0.0610,0.3499,0.0000,0.0000,0.3000,0.2539,-3.82,-1.97,-44.76,0.0000,0.0000,1.1980,1.5710,2.3620,0,0.0000,0.0000,0.0000,0.0000,0.0000,0
9753,-0.0225,-0.0359,0.3493,-0.0050,-0.0197,0.0158,-0.40,-0.29,1.38,0,3.452,1.278,2.774,-2.572,0.009,-0.017,0.999,0.000,0.000,0.000,0.3520,0,1,-1.26,0.08,0.88,-0.0047,-0.0617,0.3506,0.0000,0.0000,0.3000,0.2539,-3.59,-1.87,-41.45,0.0000,0.0000,1.1980,1.5680,2.3620,0,0.0000,0.0000,0.0000,0.0000,0.0000,0
9804,-0.0227,-0.0363,0.3509,-0.0024,-0.0154,0.0203,-0.33,-0.30,1.28,0,3.457,-1.750,-2.962,-1.446,0.007,-0.014,0.997,0.000,0.000,0.000,0.3520,0,0,-1.21,-0.03,0.73,-0.0069,-0.0621,0.3520,0.0000,0.0000,0.3000,0.2531,-3.42,-1.76,-38.31,0.0000,0.0000,1.1950,1.5680,2.3570,0,0.0000,0.0000,0.0000,0.0000,0.0000,0
9855,-0.0242,-0.0367,0.3521,-0.0025,-0.0119,0.0205,-0.27,-0.26,1.19,0,3.452,1.419,0.280,-1.438,0.010,-0.015,0.996,0.000,0.000,0.000,0.3530,-1,0,-1.29,0.12,0.66,-0.0077,-0.0627,0.3530,0.0000,0.0000,0.3000,0.2529,-3.28,-1.89,-35.68,0.0000,0.0000,1.1950,1.5720,2.3570,0,0.0000,0.0000,0.0000,0.0000,0.0000,0
9906,-0.0243,-0.0372,0.3530,-0.0001,-0.0097,0.0202,-0.16,-0.23,1.09,0,3.457,2.932,-0.159,-1.952,0.006,-0.014,0.993,0.000,0.000,0.000,0.3520,0,0,-1.27,0.09,0.55,-0.0072,-0.0585,0.3538,0.0000,0.0000,0.3000,0.2527,-3.21,-1.78,-32.79,1.9120,0.3160,1.1990,1.5720,2.3510,0,0.0000,0.0000,0.0000,0.0000,0.0000,0
9957,-0.0248,-0.0375,0.3533,0.0009,-0.0081,0.0138,-0.12,-0.17,1.01,0,3.452,-0.249,-0.676,-1.887,0.005,-0.016,0.996,0.000,0.000,0.000,0.3530,0,0,-1.12,0.10,0.45,-0.0074,-0.0578,0.3539,0.0000,0.0000,0.3000,0.2534,-3.15,-1.76,-30.25,1.9120,0.3160,1.1990,1.5580,2.3510,0,0.0000,0.0000,0.0000,0.0000,0.0000,0
10008,-0.0236,-0.0379,0.3535,0.0043,-0.0070,0.0097,-0.08,-0.13,0.91,0,3.452,0.717,-0.737,-1.561,0.008,-0.016,0.996,0.000,0.000,0.000,0.3530,0,0,-1.14,0.14,0.36,-0.0075,-0.0570,0.3541,0.0000,0.0000,0.3000,0.2538,-3.12,-1.50,-27.25,1.9400,0.3190,1.2020,1.5580,2.3480,0,0.0000,0.0000,0.0000,0.0000,0.0000,0
10059,-0.0257,-0.0379,0.3536,0.0013,-0.0058,0.0063,-0.06,-0.12,0.84,0,3.447,-1.450,-2.222,-0.640,0.003,-0.011,0.999,0.000,0.000,0.000,0.3530,0,0,-1.10,0.18,0.28,-0.0075,-0.0560,0.3541,0.0000,0.0000,0.3000,0.2541,-3.06,-1.81,-25.11,1.9400,0.3190,1.2020,1.5560,2.3480,0,0.0000,0.0000,0.0000,0.0000,0.0000,0
10110,-0.0249,-0.0372,0.3535,0.0035,-0.0037,0.0036,-0.11,-0.03,0.81,0,3.452,3.349,5.890,-0.203,0.007,-0.016,0.998,0.000,0.000,0.000,0.3540,0,0,-1.17,0.29,0.25,-0.0075,-0.0549,0.3541,0.0000,0.0000,0.3000,0.2544,-2.90,-1.64,-24.23,1.6580,0.0000,1.2050,1.5560,2.3500,0,0.0000,0.0000,0.0000,0.0000,0.0000,0
10161,-0.0261,-0.0376,0.3538,0.0015,-0.0031,0.0038,-0.05,-0.09,0.80,0,3.447,-1.507,-4.658,0.069,0.006,-0.014,0.998,0.000,0.000,0.000,0.3520,1,0,-1.00,-0.01,0.23,-0.0075,-0.0537,0.3543,0.0000,0.0000,0.3000,0.2543,-2.91,-1.83,-23.93,1.6580,0.0000,1.2050,1.5570,2.3500,0,0.0000,0.0000,0.0000,0.0000,0.0000,0
10212,-0.0268,-0.0359,0.3532,0.0010,0.0004,-0.0009,-0.05,-0.01,0.78,0,3.452,1.017,0.558,-0.130,0.008,-0.014,1.003,0.000,0.000,0.000,0.3530,0,0,-1.00,0.24,0.29,-0.0083,-0.0632,0.3538,0.0000,0.0000,0.3000,0.2549,-2.60,-1.90,-23.50,0.0000,0.0000,1.2000,1.5570,2.3500,0,0.0000,0.0000,0.0000,0.0000,0.0000,0
10263,-0.0272,-0.0377,0.3531,0.0004,-0.0022,0.0001,-0.00,0.00,0.78,0,3.447,-1.220,-4.950,-0.257,0.009,-0.014,1.005,0.000,0.000,0.000,0.3520,-2,0,-0.94,0.21,0.29,-0.0082,-0.0636,0.3537,0.0000,0.0000,0.3000,0.2548,-2.86,-1.96,-23.52,0.0000,0.0000,1.2000,1.5490,2.3500,0,0.0000,0.0000,0.0000,0.0000,0.0000,0
10314,-0.0265,-0.0384,0.3527,0.0015,-0.0029,0.0005,-0.11,0.13,0.80,0,3.447,3.621,2.889,0.579,0.010,-0.012,1.003,0.000,0.000,0.000,0.3510,1,1,-1.05,0.47,0.25,-0.0082,-0.0605,0.3535,0.0000,0.0000,0.3000,0.2549,-2.95,-1.84,-23.87,0.0000,0.0000,1.2000,1.5490,2.3440,0,0.0000,0.0000,0.0000,0.0000,0.0000,0
10365,-0.0255,-0.0353,0.3520,0.0021,0.0033,-0.0013,0.02,-0.07,0.82,0,3.442,4.228,-0.315,-0.080,0.009,-0.014,1.009,0.000,0.000,0.000,0.3550,0,0,-0.85,0.33,0.28,-0.0091,-0.0610,0.3529,0.0000,0.0000,0.3000,0.2552,-2.42,-1.74,-24.50,0.0000,0.0000,1.2000,1.5570,2.3440,0,0.0000,0.0000,0.0000,0.0000,0.0000,0
10416,-0.0260,-0.0373,0.3533,0.0017,-0.0002,0.0081,0.15,-0.09,0.84,0,3.452,-3.369,-7.309,0.508,0.007,-0.013,1.004,0.000,0.000,0.000,0.3540,1,0,-0.63,0.35,0.27,-0.0091,-0.0605,0.3539,0.0000,0.0000,0.3000,0.2539,-2.75,-1.81,-25.16,0.0000,0.3240,1.2050,1.5570,2.3490,0,0.0000,0.0000,0.0000,0.0000,0.0000,0
10467,-0.0268,-0.0383,0.3539,0.0006,-0.0028,0.0113,0.03,0.14,0.85,0,3.447,-0.976,3.613,0.761,0.004,-0.013,1.002,0.000,0.000,0.000,0.3540,-2,0,-0.77,0.72,0.32,-0.0091,-0.0631,0.3545,0.0000,0.0000,0.3000,0.2535,-2.96,-1.93,-25.53,0.0000,0.3240,1.2050,1.5510,2.3490,0,0.0000,0.0000,0.0000,0.0000,0.0000,0
10518,-0.0262,-0.0425,0.3544,0.0003,-0.0095,0.0121,0.01,0.09,0.89,0,3.447,-2.932,0.260,0.736,0.010,-0.012,0.999,0.000,0.000,0.000,0.3530,1,0,-0.86,0.54,0.35,-0.0092,-0.0603,0.3550,0.0000,0.0000,0.3000,0.2533,-3.59,-1.90,-26.67,0.0000,0.3110,1.2030,1.5510,2.3460,0,0.0000,0.0000,0.0000,0.0000,0.0000,0
10569,-0.0270,-0.0391,0.3542,-0.0015,-0.0034,0.0080,-0.00,0.01,0.92,0,3.447,0.254,0.920,1.343,0.006,-0.010,0.999,0.000,0.000,0.000,0.3530,2,0,-0.98,0.52,0.39,-0.0093,-0.0618,0.3550,0.0000,0.0000,0.3000,0.2538,-3.04,-2.05,-27.50,0.0000,0.3110,1.2030,1.5610,2.3460,0,0.0000,0.0000,0.0000,0.0000,0.0000,0
10620,-0.0268,-0.0417,0.3539,-0.0011,-0.0072,0.0045,-0.00,-0.01,0.95,0,3.447,1.455,0.711,0.293,0.005,-0.012,1.002,0.000,0.000,0.000,0.3530,-2,0,-0.93,0.47,0.46,-0.0094,-0.0657,0.3549,0.0000,0.0000,0.3000,0.2542,-3.41,-2.00,-28.45,2.1480,0.0000,1.2070,1.5610,2.3430,0,0.0000,0.0000,0.0000,0.0000,0.0000,0
10671,-0.0267,-0.0453,0.3536,-0.0008,-0.0124,0.0017,-0.03,-0.04,0.95,0,3.442,-2.083,-0.320,-0.532,0.008,-0.014,1.002,0.000,0.000,0.000,0.3560,-3,0,-0.90,0.43,0.47,-0.0095,-0.0615,0.3547,0.0000,0.0000,0.3000,0.2545,-3.92,-1.98,-28.47,2.1480,0.0000,1.2070,1.5540,2.3430,0,0.0000,0.0000,0.0000,0.0000,0.0000,0
10722,-0.0265,-0.0484,0.3547,0.0000,-0.0169,0.0070,-0.02,-0.07,0.93,0,3.442,0.102,0.239,-0.394,0.010,-0.016,1.002,0.000,0.000,0.000,0.3520,-1,0,-1.07,0.45,0.44,-0.0096,-0.0541,0.3555,0.0000,0.0000,0.3000,0.2538,-4.38,-1.93,-27.78,0.0000,0.0000,1.2110,1.5540,2.3540,0,0.0000,0.0000,0.0000,0.0000,0.0000,0
10773,-0.0266,-0.0478,0.3538,0.0005,-0.0148,0.0015,-0.09,-0.03,0.89,0,3.442,2.507,4.056,-0.868,0.008,-0.015,1.006,0.000,0.000,0.000,0.3550,2,0,-1.08,0.44,0.42,-0.0097,-0.0509,0.3548,0.0000,0.0000,0.3000,0.2545,-4.22,-1.91,-26.79,0.0000,0.0000,1.2110,1.5490,2.3540,0,0.0000,0.0000,0.0000,0.0000,0.0000,0
10824,-0.0259,-0.0538,0.3544,0.0019,-0.0229,0.0058,-0.07,-0.02,0.81,0,3.447,-4.040,-2.253,-1.166,0.010,-0.016,1.002,0.000,0.000,0.000,0.3570,3,0,-0.89,0.23,0.38,-0.0097,-0.0560,0.3555,0.0000,0.0000,0.3000,0.2539,-5.06,-1.80,-24.32,2.5400,0.3150,1.2110,1.5490,2.3410,0,0.0000,0.0000,0.0000,0.0000,0.0000,0
10875,-0.0251,-0.0528,0.3558,0.0035,-0.0182,0.0121,-0.20,-0.02,0.77,0,3.447,0.200,1.950,-1.560,0.006,-0.015,0.999,0.000,0.000,0.000,0.3550,0,0,-1.02,0.35,0.33,-0.0096,-0.0646,0.3567,0.0000,0.0000,0.3000,0.2530,-4.77,-1.66,-22.95,2.5400,0.3150,1.2110,1.5500,2.3410,0,0.0000,0.0000,0.0000,0.0000,0.0000,0
10926,-0.0260,-0.0563,0.3558,0.0019,-0.0204,0.0095,-0.31,-0.05,0.71,0,3.447,-0.056,1.299,-0.311,0.006,-0.012,0.999,0.000,0.000,0.000,0.3550,0,0,-1.00,0.25,0.24,-0.0096,-0.0655,0.3568,0.0000,0.0000,0.3000,0.2533,-5.13,-1.81,-21.26,2.6130,0.0000,1.2160,1.5500,2.3470,0,0.0000,0.0000,0.0000,0.0000,0.0000,0
10977,-0.0259,-0.0573,0.3558,0.0022,-0.0177,0.0062,-0.35,-0.06,0.67,0,3.442,0.565,2.247,-0.208,0.010,-0.014,0.999,0.000,0.000,0.000,0.3530,0,0,-1.01,0.18,0.23,-0.0095,-0.0662,0.3567,0.0000,0.0000,0.3000,0.2536,-5.07,-1.78,-20.13,2.6130,0.0000,1.2160,1.5540,2.3470,0,0.0000,0.0000,0.0000,0.0000,0.0000,0
11028,-0.0259,-0.0591,0.3547,0.0025,-0.0166,-0.0009,-0.35,-0.08,0.66,0,3.447,0.144,-0.845,0.771,0.009,-0.014,0.999,0.000,0.000,0.000,0.3530,0,-1,-0.98,0.07,0.21,-0.0092,-0.0669,0.3560,0.0000,0.0000,0.3000,0.2546,-5.13,-1.76,-19.87,2.6280,0.3250,1.2180,1.5540,2.3490,0,0.0000,0.0000,0.0000,0.0000,0.0000,0
11079,-0.0257,-0.0599,0.3539,0.0032,-0.0138,-0.0055,-0.32,-0.10,0.69,0,3.436,0.841,-0.899,0.809,0.007,-0.013,1.003,0.000,0.000,0.000,0.3550,0,0,-0.99,0.09,0.26,-0.0065,-0.0646,0.3553,0.0000,0.0000,0.3000,0.2552,-5.04,-1.71,-20.75,2.6280,0.3250,1.2180,1.5550,2.3490,0,0.0000,0.0000,0.0000,0.0000,0.0000,0
11130,-0.0238,-0.0602,0.3542,0.0068,-0.0105,-0.0015,-0.35,-0.01,0.75,0,3.447,0.011,-2.233,1.717,0.007,-0.007,1.003,0.000,0.000,0.000,0.3600,0,0,-0.95,0.14,0.30,-0.0056,-0.0645,0.3554,0.0000,0.0000,0.3000,0.2547,-4.91,-1.40,-22.41,2.6110,0.0000,1.2150,1.5550,2.3460,0,0.0000,0.0000,0.0000,0.0000,0.0000,0
11181,-0.0219,-0.0606,0.3567,0.0094,-0.0073,0.0122,-0.28,0.06,0.83,0,3.442,-0.409,-1.136,1.498,0.008,-0.017,0.997,0.000,0.000,0.000,0.3540,0,-1,-0.95,0.25,0.39,-0.0045,-0.0642,0.3571,0.0000,0.0000,0.3000,0.2528,-4.82,-1.14,-25.01,2.6110,0.0000,1.2150,1.5490,2.3460,0,0.0000,0.0000,0.0000,0.0000,0.0000,0
11232,-0.0221,-0.0588,0.3560,0.0076,-0.0016,0.0063,-0.22,0.11,0.90,0,3.447,-0.374,-0.814,0.636,0.007,-0.018,0.996,0.000,0.000,0.000,0.3570,1,0,-0.96,0.31,0.47,-0.0033,-0.0646,0.3565,0.0000,0.0000,0.3000,0.2536,-4.40,-1.25,-27.04,0.0000,0.3290,1.2140,1.5490,2.3420,0,0.0000,0.0000,0.0000,0.0000,0.0000,0
11283,-0.0170,-0.0574,0.3566,0.0143,0.0025,0.0066,-0.13,0.13,0.95,0,3.442,-2.058,-1.118,2.349,0.010,-0.015,0.997,0.000,0.000,0.000,0.3530,0,0,-0.97,0.35,0.50,-0.0025,-0.0658,0.3568,0.0000,0.0000,0.3000,0.2534,-4.11,-0.55,-28.38,0.0000,0.3290,1.2140,1.5490,2.3420,0,0.0000,0.0000,0.0000,0.0000,0.0000,0
11334,-0.0173,-0.0576,0.3552,0.0114,0.0031,-0.0031,-0.11,0.16,1.03,0,3.442,1.550,-2.323,1.309,0.009,-0.013,0.998,0.000,0.000,0.000,0.3550,0,0,-1.07,0.41,0.62,-0.0013,-0.0660,0.3557,0.0000,0.0000,0.3000,0.2547,-4.07,-0.71,-30.76,2.6140,0.0000,1.2110,1.5490,2.3450,0,0.0000,0.0000,0.0000,0.0000,0.0000,0
11385,-0.0170,-0.0555,0.3550,0.0095,0.0072,-0.0041,-0.01,0.24,1.12,0,3.436,-0.170,0.904,2.150,0.010,-0.015,0.998,0.000,0.000,0.000,0.3560,-4,1,-1.00,0.53,0.69,-0.0001,-0.0660,0.3553,0.0000,0.0000,0.3000,0.2549,-3.72,-0.78,-33.64,2.6140,0.0000,1.2110,1.5540,2.3450,0,0.0000,0.0000,0.0000,0.0000,0.0000,0
11436,-0.0140,-0.0613,0.3553,0.0119,-0.0030,-0.0015,0.04,0.24,1.20,0,3.442,1.856,0.868,0.701,0.008,-0.013,1.000,0.000,0.000,0.000,0.3530,0,0,-1.12,0.54,0.76,-0.0058,-0.0531,0.3553,0.0000,0.0000,0.3000,0.2545,-4.64,-0.44,-35.93,2.6490,0.0000,1.2140,1.5540,2.3420,0,0.0000,0.0000,0.0000,0.0000,0.0000,0
11487,-0.0153,-0.0537,0.3542,0.0069,0.0090,-0.0068,0.10,0.21,1.25,0,3.436,-2.389,2.494,0.197,0.008,-0.011,0.998,0.000,0.000,0.000,0.3550,1,0,-1.03,0.49,0.79,-0.0061,-0.0500,0.3544,0.0000,0.0000,0.3000,0.2553,-3.49,-0.78,-37.46,2.6490,0.0000,1.2140,1.5470,2.3420,0,0.0000,0.0000,0.0000,0.0000,0.0000,0
11538,-0.0167,-0.0540,0.3544,0.0025,0.0070,-0.0042,0.14,0.16,1.26,0,3.442,3.329,2.977,-0.158,0.011,-0.016,0.999,0.000,0.000,0.000,0.3550,0,0,-1.08,0.36,0.80,-0.0059,-0.0539,0.3547,0.0000,0.0000,0.3000,0.2550,-3.62,-1.09,-37.78,2.6580,0.3130,1.2100,1.5470,2.3480,0,0.0000,0.0000,0.0000,0.0000,0.0000,0
11589,-0.0190,-0.0497,0.3545,-0.0027,0.0128,-0.0019,0.18,0.07,1.23,0,3.436,-0.772,0.779,0.606,0.008,-0.015,1.001,0.000,0.000,0.000,0.3530,0,0,-0.91,0.21,0.79,-0.0060,-0.0522,0.3545,-0.0234,-0.0453,0.3000,0.2547,0.27,0.18,-36.96,2.6580,0.3130,1.2100,1.5470,2.3480,0,0.0000,0.0000,0.0000,0.0000,0.0000,0
11640,-0.0189,-0.0488,0.3539,-0.0029,0.0126,-0.0041,0.18,0.05,1.21,0,3.442,6.747,-0.785,-1.942,0.006,-0.014,0.998,0.000,0.000,0.000,0.3510,0,1,-0.95,0.17,0.82,-0.0060,-0.0506,0.3538,-0.0234,-0.0453,0.3000,0.2551,0.33,0.19,-36.18,2.6230,0.0000,1.2100,1.5470,2.3490,0,0.0000,0.0000,0.0000,0.0000,0.0000,0
11691,-0.0201,-0.0494,0.3525,-0.0050,0.0086,-0.0098,0.30,0.04,1.16,0,3.431,3.971,2.581,-0.819,0.005,-0.016,1.001,0.000,0.000,0.000,0.3560,0,0,-0.56,0.24,0.72,-0.0094,-0.0538,0.3527,-0.0234,-0.0453,0.3000,0.2559,0.09,-0.01,-34.94,2.6230,0.0000,1.2100,1.5440,2.3490,0,0.0000,0.0000,0.0000,0.0000,0.0000,0
11742,-0.0217,-0.0496,0.3538,-0.0074,0.0050,0.0004,0.41,-0.01,1.14,0,3.442,-4.018,3.266,-0.092,0.009,-0.018,1.004,0.000,0.000,0.000,0.3530,0,0,-0.36,0.11,0.68,-0.0101,-0.0532,0.3533,-0.0234,-0.0453,0.3000,0.2546,-0.10,-0.23,-34.08,0.9930,0.3130,1.2230,1.5440,2.3480,0,0.0000,0.0000,0.0000,0.0000,0.0000,0
11793,-0.0248,-0.0493,0.3535,-0.0123,0.0025,-0.0010,0.25,-0.13,1.10,0,3.436,0.749,0.429,0.225,0.008,-0.011,0.999,0.000,0.000,0.000,0.3530,9,0,-0.57,-0.06,0.67,-0.0106,-0.0530,0.3531,-0.0234,-0.0453,0.3000,0.2548,-0.20,-0.70,-33.13,0.9930,0.3130,1.2230,1.5460,2.3480,0,0.0000,0.0000,0.0000,0.0000,0.0000,0
11844,-0.0242,-0.0492,0.3533,-0.0091,0.0007,-0.0008,0.29,-0.21,1.12,0,3.442,-2.502,-0.797,-0.308,0.009,-0.011,1.001,0.000,0.000,0.000,0.3500,3,0,-0.29,-0.08,0.80,-0.0097,-0.0807,0.3527,-0.0234,-0.0453,0.3000,0.2548,-0.28,-0.50,-33.58,2.6640,0.3310,1.2100,1.5460,2.3500,0,0.0000,0.0000,0.0000,0.0000,0.0000,0
11895,-0.0235,-0.0570,0.3519,-0.0054,-0.0142,-0.0083,0.17,-0.22,1.09,0,3.431,-6.373,-2.100,0.358,0.007,-0.015,1.004,0.000,0.000,0.000,0.3530,1,0,-0.40,-0.04,0.79,-0.0095,-0.0885,0.3515,-0.0234,-0.0453,0.3000,0.2559,-1.57,-0.27,-32.82,2.6640,0.3310,1.2100,1.5430,2.3500,0,0.0000,0.0000,0.0000,0.0000,0.0000,0
11946,-0.0235,-0.0616,0.3521,-0.0031,-0.0218,-0.0050,-0.18,-0.19,1.08,0,3.436,-1.120,0.643,0.160,0.010,-0.011,1.003,0.000,0.000,0.000,0.3500,0,-1,-0.74,0.07,0.80,-0.0092,-0.0940,0.3519,-0.0234,-0.0453,0.3000,0.2555,-2.27,-0.16,-32.41,2.6400,0.0000,1.2140,1.5430,2.3470,0,0.0000,0.0000,0.0000,0.0000,0.0000,0
11997,-0.0236,-0.0621,0.3511,-0.0015,-0.0192,-0.0079,-0.28,-0.19,1.10,0,3.431,0.282,-1.345,1.079,0.007,-0.010,1.002,0.000,0.000,0.000,0.3500,0,0,-0.82,0.02,0.78,-0.0072,-0.0972,0.3515,-0.0234,-0.0453,0.3000,0.2560,-2.18,-0.09,-32.99,2.6400,0.0000,1.2140,1.5520,2.3470,0,0.0000,0.0000,0.0000,0.0000,0.0000,0
12048,-0.0219,-0.0626,0.3504,0.0029,-0.0161,-0.0087,-0.34,-0.13,1.12,0,3.436,0.053,-2.814,-0.184,0.006,-0.013,1.003,0.000,0.000,0.000,0.3530,0,-1,-0.81,0.09,0.84,-0.0061,-0.1028,0.3510,-0.0234,-0.0453,0.3000,0.2562,-2.06,0.24,-33.56,2.6700,0.0000,1.2090,1.5520,2.3440,0,0.0000,0.0000,0.0000,0.0000,0.0000,0
12099,-0.0225,-0.0627,0.3512,0.0027,-0.0120,-0.0009,-0.41,-0.05,1.14,0,3.431,1.655,0.842,0.633,0.007,-0.013,1.000,0.000,0.000,0.000,0.3480,0,0,-0.89,0.22,0.76,-0.0040,-0.0977,0.3521,-0.0234,-0.0453,0.3000,0.2552,-1.88,0.20,-34.17,2.6700,0.0000,1.2090,1.5600,2.3440,0,0.0000,0.0000,0.0000,0.0000,0.0000,0
12150,-0.0193,-0.0630,0.3498,0.0085,-0.0083,-0.0069,-0.34,-0.07,1.15,0,3.436,-0.513,-3.654,-0.196,0.008,-0.014,1.004,0.000,0.000,0.000,0.3480,1,0,-0.81,0.18,0.79,-0.0024,-0.1009,0.3509,-0.0234,-0.0453,0.3000,0.2561,-1.71,0.70,-34.36,2.6620,0.0000,1.2140,1.5600,2.3600,0,0.0000,0.0000,0.0000,0.0000,0.0000,0
12201,-0.0164,-0.0625,0.3488,0.0132,-0.0039,-0.0106,-0.40,0.02,1.16,0,3.431,-0.940,-2.932,0.794,0.008,-0.011,1.002,0.000,0.000,0.000,0.3510,0,0,-0.86,0.39,0.78,-0.0039,-0.1013,0.3501,-0.0234,-0.0453,0.3000,0.2567,-1.46,1.14,-34.66,2.6620,0.0000,1.2140,1.5530,2.3600,0,0.0000,0.0000,0.0000,0.0000,0.0000,0
12252,-0.0145,-0.0623,0.3495,0.0152,0.0002,-0.0028,-0.36,0.15,1.19,0,3.436,3.204,-1.859,0.771,0.009,-0.011,1.002,0.000,0.000,0.000,0.3510,0,0,-0.91,0.54,0.82,-0.0029,-0.1038,0.3504,-0.0234,-0.0453,0.3000,0.2557,-1.25,1.37,-35.62,2.6620,0.3300,1.2100,1.5530,2.3530,0,0.0000,0.0000,0.0000,0.0000,0.0000,0
12303,-0.0118,-0.0633,0.3501,0.0175,0.0012,0.0026,-0.20,0.23,1.23,0,3.431,3.594,0.854,1.676,0.008,-0.013,1.001,0.000,0.000,0.000,0.3480,0,0,-0.74,0.63,0.86,-0.0019,-0.1061,0.3507,-0.0234,-0.0453,0.3000,0.2550,-1.29,1.69,-36.93,2.6620,0.3300,1.2100,1.5530,2.3530,0,0.0000,0.0000,0.0000,0.0000,0.0000,0
12354,-0.0110,-0.0632,0.3493,0.0154,0.0029,-0.0014,-0.14,0.22,1.28,0,3.436,1.256,-1.546,1.231,0.005,-0.012,0.999,0.000,0.000,0.000,0.3460,4,-1,-0.56,0.59,0.94,-0.0009,-0.1085,0.3499,-0.0234,-0.0453,0.3000,0.2556,-1.19,1.65,-38.38,0.0000,0.0000,1.2080,1.5530,2.3470,0,0.0000,0.0000,0.0000,0.0000,0.0000,0
12405,-0.0111,-0.0548,0.3478,0.0119,0.0189,-0.0094,-0.16,0.30,1.31,0,3.431,2.025,0.721,-0.775,0.009,-0.013,1.002,0.000,0.000,0.000,0.3470,0,0,-0.47,0.66,1.01,0.0003,-0.1152,0.3486,-0.0234,-0.0453,0.3000,0.2567,0.19,1.46,-39.35,0.0000,0.0000,1.2080,1.5560,2.3470,0,0.0000,0.0000,0.0000,0.0000,0.0000,0
12457,-0.0119,-0.0489,0.3472,0.0071,0.0285,-0.0100,0.02,0.27,1.33,0,3.431,5.758,1.970,-0.856,0.006,-0.014,1.000,0.000,0.000,0.000,0.3470,0,0,-0.36,0.63,0.97,0.0012,-0.1186,0.3479,-0.0234,-0.0453,0.3000,0.2569,1.07,1.17,-39.83,0.0000,0.3020,1.2060,1.5560,2.3520,0,0.0000,0.0000,0.0000,0.0000,0.0000,0
12509,-0.0097,-0.0512,0.3468,0.0081,0.0221,-0.0088,0.25,0.22,1.33,0,3.426,2.193,0.160,0.268,0.008,-0.013,1.004,0.000,0.000,0.000,0.3470,4,0,-0.06,0.53,0.92,0.0019,-0.1222,0.3474,-0.0234,-0.0453,0.3000,0.2568,0.60,1.38,-39.89,0.0000,0.3020,1.2060,1.5490,2.3520,0,0.0000,0.0000,0.0000,0.0000,0.0000,0
12560,-0.0100,-0.0402,0.3466,0.0052,0.0377,-0.0068,0.37,0.24,1.32,0,3.431,2.011,-0.144,-0.535,0.010,-0.012,1.006,0.000,0.000,0.000,0.3470,-2,-1,0.06,0.53,0.94,0.0012,-0.1278,0.3470,-0.0234,-0.0453,0.3000,0.2567,2.15,1.22,-39.51,2.6720,0.0000,1.2060,1.5490,2.3520,0,0.0000,0.0000,0.0000,0.0000,0.0000,0
12611,-0.0112,-0.0483,0.3466,0.0007,0.0176,-0.0035,0.41,0.21,1.30,0,3.426,0.918,2.111,0.775,0.010,-0.013,1.002,0.000,0.000,0.000,0.3460,0,0,0.13,0.53,0.92,0.0025,-0.1287,0.3473,-0.0234,-0.0453,0.3000,0.2563,0.60,0.92,-39.12,2.6720,0.0000,1.2060,1.5490,2.3520,0,0.0000,0.0000,0.0000,0.0000,0.0000,0
12663,-0.0095,-0.0422,0.3463,0.0018,0.0232,-0.0026,0.37,0.16,1.33,0,3.431,1.029,-0.589,0.372,0.009,-0.015,1.002,0.000,0.000,0.000,0.3440,3,1,0.18,0.42,0.96,0.0031,-0.1327,0.3469,-0.0234,-0.0453,0.3000,0.2563,1.31,1.09,-39.95,2.6900,0.0000,1.1990,1.5490,2.3590,0,0.0000,0.0000,0.0000,0.0000,0.0000,0
12714,-0.0089,-0.0381,0.3452,0.0015,0.0254,-0.0068,0.41,0.11,1.32,0,3.421,2.096,-1.178,0.520,0.008,-0.011,1.001,0.000,0.000,0.000,0.3450,-1,0,0.24,0.48,1.02,0.0005,-0.1382,0.3460,-0.0234,-0.0453,0.3000,0.2569,1.71,1.12,-39.60,2.6900,0.0000,1.1990,1.5540,2.3590,0,0.0000,0.0000,0.0000,0.0000,0.0000,0
12765,-0.0085,-0.0328,0.3449,0.0014,0.0296,-0.0054,0.44,0.09,1.31,0,3.431,2.334,2.282,-0.192,0.009,-0.011,1.003,0.000,0.000,0.000,0.3440,0,1,0.31,0.54,1.06,0.0004,-0.1396,0.3458,-0.0234,-0.0453,0.3000,0.2568,2.30,1.14,-39.25,2.6600,0.0000,1.1970,1.5540,2.3600,0,0.0000,0.0000,0.0000,0.0000,0.0000,0
12816,-0.0089,-0.0320,0.3444,0.0000,0.0246,-0.0048,0.49,0.10,1.29,0,3.421,0.629,-0.802,-1.470,0.011,-0.009,1.003,0.000,0.000,0.000,0.3440,0,0,0.41,0.44,1.08,-0.0014,-0.1419,0.3454,-0.0234,-0.0453,0.3000,0.2568,2.11,1.05,-38.68,2.6600,0.0000,1.1970,1.5520,2.3600,0,0.0000,0.0000,0.0000,0.0000,0.0000,0
12867,-0.0076,-0.0320,0.3441,0.0020,0.0184,-0.0034,0.50,0.06,1.28,0,3.431,-0.127,1.281,0.429,0.011,-0.012,1.000,0.000,0.000,0.000,0.3430,0,0,0.44,0.48,1.01,-0.0018,-0.1463,0.3450,-0.0234,-0.0453,0.3000,0.2567,1.81,1.24,-38.25,2.6670,0.2970,1.2000,1.5520,2.3550,0,0.0000,0.0000,0.0000,0.0000,0.0000,0
12918,-0.0106,-0.0305,0.3436,-0.0041,0.0153,-0.0042,0.47,0.06,1.26,0,3.426,-0.921,4.517,-0.429,0.011,-0.012,1.005,0.000,0.000,0.000,0.3440,0,0,0.44,0.42,1.03,-0.0022,-0.1513,0.3443,-0.0234,-0.0453,0.3000,0.2569,1.77,0.72,-37.76,2.6670,0.2970,1.2000,1.5560,2.3550,0,0.0000,0.0000,0.0000,0.0000,0.0000,0
12969,-0.0108,-0.0299,0.3437,-0.0045,0.0114,-0.0009,0.36,-0.01,1.25,0,3.431,0.968,0.853,-1.575,0.011,-0.012,1.005,0.000,0.000,0.000,0.3400,0,0,0.39,0.19,1.01,-0.0025,-0.1567,0.3442,-0.0234,-0.0453,0.3000,0.2566,1.63,0.69,-37.50,2.6580,0.0000,1.1910,1.5560,2.3550,0,0.0000,0.0000,0.0000,0.0000,0.0000,0
13021,-0.0111,-0.0294,0.3421,-0.0043,0.0082,-0.0067,0.37,-0.00,1.17,0,3.426,-0.600,0.399,-1.547,0.005,-0.014,1.001,0.000,0.000,0.000,0.3440,-4,0,0.44,0.14,0.93,-0.0025,-0.1627,0.3430,-0.0234,-0.0453,0.3000,0.2575,1.51,0.68,-35.00,2.6580,0.0000,1.1910,1.5550,2.3550,0,0.0000,0.0000,0.0000,0.0000,0.0000,0
13072,-0.0094,-0.0292,0.3428,-0.0007,0.0046,0.0002,0.26,-0.02,1.08,0,3.431,-1.148,-1.306,-1.825,0.011,-0.010,0.999,0.000,0.000,0.000,0.3430,0,0,0.12,0.12,0.86,-0.0027,-0.1230,0.3450,-0.0234,-0.0453,0.3000,0.2566,1.35,0.98,-32.48,0.0000,0.0000,1.1980,1.5550,2.3640,0,0.0000,0.0000,0.0000,0.0000,0.0000,0
13124,-0.0106,-0.0285,0.3429,-0.0025,0.0022,0.0014,0.31,-0.04,1.00,0,3.426,3.978,0.961,-1.840,0.010,-0.011,1.001,0.000,0.000,0.000,0.3420,-1,0,0.07,0.18,0.77,-0.0025,-0.1216,0.3446,-0.0234,-0.0453,0.3000,0.2564,1.29,0.80,-30.12,0.0000,0.0000,1.1980,1.5560,2.3640,0,0.0000,0.0000,0.0000,0.0000,0.0000,0
13175,-0.0105,-0.0212,0.3426,-0.0017,0.0129,0.0003,0.36,-0.09,0.93,0,3.431,-2.487,-0.572,-2.667,0.012,-0.010,1.002,0.000,0.000,0.000,0.3420,0,1,0.27,0.14,0.68,-0.0025,-0.1198,0.3439,-0.0234,-0.0453,0.3000,0.2566,2.33,0.85,-27.92,2.6760,0.3010,1.1950,1.5560,2.3570,0,0.0000,0.0000,0.0000,0.0000,0.0000,0
13226,-0.0084,-0.0197,0.3423,0.0032,0.0115,-0.0015,0.27,-0.11,0.81,0,3.426,1.689,-3.203,-2.059,0.002,-0.011,1.002,0.000,0.000,0.000,0.3440,0,0,0.14,0.18,0.57,-0.0032,-0.1193,0.3435,-0.0234,-0.0453,0.3000,0.2569,2.37,1.24,-24.39,2.6760,0.3010,1.1950,1.5550,2.3570,0,0.0000,0.0000,0.0000,0.0000,0.0000,0
13277,-0.0078,-0.0103,0.3430,0.0051,0.0250,0.0030,0.32,-0.05,0.72,0,3.431,5.884,-0.110,-1.758,0.007,-0.014,0.998,0.000,0.000,0.000,0.3400,0,-1,0.23,0.34,0.46,-0.0031,-0.1189,0.3437,-0.0234,-0.0453,0.3000,0.2562,3.71,1.38,-21.73,2.6530,0.2880,1.1880,1.5550,2.3550,0,0.0000,0.0000,0.0000,0.0000,0.0000,0
13328,-0.0075,-0.0091,0.3418,0.0057,0.0224,-0.0044,0.48,-0.04,0.63,0,3.426,-0.552,-1.120,-0.270,0.010,-0.014,1.001,0.000,0.000,0.000,0.3390,0,0,0.53,0.32,0.33,-0.0008,-0.1188,0.3426,-0.0234,-0.0453,0.3000,0.2573,3.65,1.42,-18.90,2.6530,0.2880,1.1880,1.5510,2.3550,0,0.0000,0.0000,0.0000,0.0000,0.0000,0
13379,-0.0063,-0.0081,0.3405,0.0076,0.0182,-0.0105,0.56,0.00,0.58,0,3.426,-1.320,-1.408,-1.302,0.009,-0.009,1.000,0.000,0.000,0.000,0.3380,1,0,0.50,0.38,0.32,0.0001,-0.1194,0.3413,-0.0234,-0.0453,0.3000,0.2582,3.52,1.59,-17.53,2.6610,0.2910,1.1930,1.5510,2.3590,0,0.0000,0.0000,0.0000,0.0000,0.0000,0
13430,-0.0026,-0.0073,0.3391,0.0134,0.0135,-0.0163,0.48,0.06,0.54,0,3.421,-0.755,-1.045,-0.147,0.014,-0.008,1.007,0.000,0.000,0.000,0.3440,0,-1,0.44,0.47,0.28,-0.0004,-0.1214,0.3400,-0.0234,-0.0453,0.3000,0.2591,3.34,2.13,-16.19,2.6610,0.2910,1.1930,1.5450,2.3590,0,0.0000,0.0000,0.0000,0.0000,0.0000,0
13481,-0.0022,-0.0063,0.3408,0.0125,0.0100,-0.0009,0.42,0.11,0.52,0,3.431,4.580,-0.905,0.884,0.007,-0.013,1.003,0.000,0.000,0.000,0.3410,0,-1,0.40,0.51,0.25,0.0016,-0.1224,0.3410,-0.0234,-0.0453,0.3000,0.2571,3.26,2.13,-15.51,2.6620,0.0000,1.1890,1.5450,2.3630,0,0.0000,0.0000,0.0000,0.0000,0.0000,0
13532,0.0004,-0.0055,0.3409,0.0154,0.0070,0.0014,0.48,0.17,0.54,0,3.426,-1.972,-3.154,-0.749,0.008,-0.010,1.005,0.000,0.000,0.000,0.3370,0,-1,0.62,0.54,0.27,0.0038,-0.1233,0.3410,-0.0234,-0.0453,0.3000,0.2568,3.18,2.46,-16.27,2.6620,0.0000,1.1890,1.5520,2.3630,0,0.0000,0.0000,0.0000,0.0000,0.0000,0
13583,0.0020,-0.0054,0.3392,0.0155,0.0029,-0.0063,0.40,0.23,0.56,0,3.426,-2.529,-1.117,0.747,0.009,-0.012,1.000,0.000,0.000,0.000,0.3390,0,0,0.51,0.69,0.20,0.0063,-0.1241,0.3399,-0.0234,-0.0453,0.3000,0.2579,2.98,2.57,-16.66,0.0000,0.0000,1.1860,1.5520,2.3660,0,0.0000,0.0000,0.0000,0.0000,0.0000,0
13634,0.0042,-0.0064,0.3389,0.0160,-0.0028,-0.0059,0.37,0.33,0.58,0,3.421,-2.395,0.530,-0.670,0.006,-0.011,0.998,0.000,0.000,0.000,0.3360,0,-1,0.38,0.75,0.24,0.0078,-0.1266,0.3396,-0.0234,-0.0453,0.3000,0.2580,2.63,2.76,-17.52,0.0000,0.0000,1.1860,1.5460,2.3660,0,0.0000,0.0000,0.0000,0.0000,0.0000,0
13685,0.0029,-0.0063,0.3375,0.0095,-0.0053,-0.0120,0.22,0.28,0.58,0,3.421,-1.220,3.802,0.299,0.006,-0.009,1.006,0.000,0.000,0.000,0.3350,0,0,0.21,0.72,0.21,0.0099,-0.1231,0.3384,-0.0234,-0.0453,0.3000,0.2589,2.52,2.34,-17.42,2.6490,0.2850,1.1860,1.5460,2.3640,0,0.0000,0.0000,0.0000,0.0000,0.0000,0
13736,0.0043,-0.0088,0.3361,0.0088,-0.0116,-0.0149,0.13,0.16,0.57,0,3.421,0.598,0.923,-0.578,0.009,-0.009,1.005,0.000,0.000,0.000,0.3370,-3,0,0.15,0.52,0.22,0.0112,-0.1250,0.3372,-0.0234,-0.0453,0.3000,0.2595,2.03,2.40,-17.08,2.6490,0.2850,1.1860,1.5510,2.3640,0,0.0000,0.0000,0.0000,0.0000,0.0000,0
13787,0.0016,-0.0105,0.3361,0.0017,-0.0149,-0.0087,0.10,0.14,0.55,0,3.421,-0.570,2.185,-0.046,0.007,-0.009,1.003,0.000,0.000,0.000,0.3330,4,1,0.07,0.50,0.27,0.0100,-0.1123,0.3372,-0.0234,-0.0453,0.3000,0.2588,1.76,1.88,-16.43,2.6550,0.0000,1.1910,1.5510,2.3660,0,0.0000,0.0000,0.0000,0.0000,0.0000,0
13838,0.0007,-0.0051,0.3345,-0.0011,-0.0048,-0.0130,0.04,0.05,0.54,0,3.421,-2.360,1.456,0.355,0.011,-0.009,1.008,0.000,0.000,0.000,0.3370,-2,0,0.10,0.40,0.28,0.0084,-0.1198,0.3361,-0.0234,-0.0453,0.3000,0.2595,2.62,1.68,-16.28,2.6550,0.0000,1.1910,1.5530,2.3660,0,0.0000,0.0000,0.0000,0.0000,0.0000,0
13890,0.0005,-0.0097,0.3353,-0.0016,-0.0127,-0.0034,-0.05,-0.08,0.56,0,3.421,-0.928,2.477,0.369,0.011,-0.008,1.004,0.000,0.000,0.000,0.3360,1,0,-0.05,0.33,0.31,0.0086,-0.1161,0.3364,-0.0234,-0.0453,0.3000,0.2584,1.93,1.64,-16.70,0.0000,0.0000,1.1890,1.5530,2.3580,0,0.0000,0.0000,0.0000,0.0000,0.0000,0
13941,-0.0016,-0.0038,0.3355,-0.0047,-0.0003,0.0005,-0.10,-0.17,0.57,0,3.421,0.631,-0.852,0.531,0.009,-0.012,1.003,0.000,0.000,0.000,0.3360,0,0,-0.09,0.20,0.33,0.0087,-0.1186,0.3365,-0.0234,-0.0453,0.3000,0.2579,2.95,1.35,-17.12,0.0000,0.0000,1.1890,1.5630,2.3580,0,0.0000,0.0000,0.0000,0.0000,0.0000,0
13992,-0.0026,-0.0039,0.3357,-0.0049,0.0005,0.0024,-0.02,-0.22,0.58,0,3.426,2.346,2.880,0.642,0.010,-0.008,1.001,0.000,0.000,0.000,0.3380,-1,0,-0.06,0.25,0.36,0.0092,-0.1198,0.3365,-0.0234,-0.0453,0.3000,0.2576,2.98,1.27,-17.41,2.6390,0.0000,1.1800,1.5630,2.3580,0,0.0000,0.0000,0.0000,0.0000,0.0000,0
14043,-0.0043,-0.0041,0.3368,-0.0057,0.0002,0.0081,0.07,-0.32,0.62,0,3.426,-0.172,-4.618,1.874,0.010,-0.010,1.001,0.000,0.000,0.000,0.3370,0,0,0.02,0.11,0.41,0.0084,-0.1140,0.3373,-0.0234,-0.0453,0.3000,0.2568,2.96,1.11,-18.73,2.6390,0.0000,1.1800,1.5610,2.3580,0,0.0000,0.0000,0.0000,0.0000,0.0000,0
14095,-0.0038,-0.0033,0.3371,-0.0017,0.0012,0.0073,0.10,-0.27,0.69,0,3.426,0.973,-1.860,2.051,0.007,-0.010,0.993,0.000,0.000,0.000,0.3360,0,0,0.01,0.34,0.50,0.0089,-0.1143,0.3375,-0.0234,-0.0453,0.3000,0.2569,3.07,1.34,-20.69,0.0000,0.2900,1.1900,1.5610,2.3660,0,0.0000,0.0000,0.0000,0.0000,0.0000,0
14146,-0.0018,-0.0033,0.3369,0.0046,0.0002,0.0022,0.16,-0.17,0.76,0,3.421,1.627,-1.011,0.286,0.004,-0.010,0.996,0.000,0.000,0.000,0.3340,0,0,0.06,0.44,0.61,0.0095,-0.1148,0.3372,-0.0234,-0.0453,0.3000,0.2574,3.02,1.79,-22.76,0.0000,0.2900,1.1900,1.5570,2.3660,0,0.0000,0.0000,0.0000,0.0000,0.0000,0
14197,-0.0010,-0.0021,0.3356,0.0068,0.0012,-0.0069,0.23,-0.08,0.79,0,3.415,-0.666,0.794,0.598,0.007,-0.010,0.995,0.000,0.000,0.000,0.3350,0,0,0.14,0.49,0.62,0.0101,-0.1156,0.3361,-0.0234,-0.0453,0.3000,0.2587,3.13,1.94,-23.76,2.6360,0.0000,1.1880,1.5570,2.3650,0,0.0000,0.0000,0.0000,0.0000,0.0000,0
14249,0.0018,-0.0022,0.3351,0.0122,-0.0009,-0.0115,0.24,-0.02,0.83,0,3.415,-1.422,-2.499,1.613,0.007,-0.015,0.997,0.000,0.000,0.000,0.3300,0,-2,0.10,0.45,0.66,0.0106,-0.1167,0.3354,-0.0234,-0.0453,0.3000,0.2593,3.02,2.39,-24.76,2.6360,0.0000,1.1880,1.5510,2.3650,0,0.0000,0.0000,0.0000,0.0000,0.0000,0
14300,0.0050,-0.0020,0.3325,0.0175,-0.0024,-0.0246,0.18,0.11,0.89,0,3.415,-1.724,-1.515,1.343,0.011,-0.016,1.002,0.000,0.000,0.000,0.3350,0,0,-0.02,0.56,0.71,0.0154,-0.1099,0.3333,-0.0234,-0.0453,0.3000,0.2612,2.94,2.85,-26.57,2.6820,0.0000,1.1860,1.5510,2.3670,0,0.0000,0.0000,0.0000,0.0000,0.0000,0
14351,0.0064,-0.0020,0.3328,0.0177,-0.0037,-0.0162,0.15,0.23,0.94,0,3.415,0.014,-2.394,1.018,0.007,-0.012,1.009,0.000,0.000,0.000,0.3310,2,-2,-0.11,0.63,0.78,0.0166,-0.1105,0.3332,-0.0234,-0.0453,0.3000,0.2602,2.89,2.98,-28.14,2.6820,0.0000,1.1860,1.5560,2.3670,0,0.0000,0.0000,0.0000,0.0000,0.0000,0
14402,0.0067,0.0026,0.3315,0.0147,0.0042,-0.0161,0.13,0.42,0.99,0,3.415,1.467,-1.314,1.255,0.007,-0.008,1.005,0.000,0.000,0.000,0.3300,0,1,-0.08,0.73,0.80,0.0200,-0.1139,0.3322,-0.0234,-0.0453,0.3000,0.2604,3.59,2.85,-29.80,2.6720,0.2700,1.1810,1.5560,2.3670,0,0.0000,0.0000,0.0000,0.0000,0.0000,0
14453,0.0074,-0.0020,0.3304,0.0111,-0.0058,-0.0158,0.20,0.45,1.04,0,3.415,-1.711,1.203,-0.026,0.009,-0.013,1.005,0.000,0.000,0.000,0.3270,0,0,-0.01,0.82,0.88,0.0201,-0.1150,0.3313,-0.0234,-0.0453,0.3000,0.2606,2.79,2.73,-31.27,2.6720,0.2700,1.1810,1.5570,2.3670,0,0.0000,0.0000,0.0000,0.0000,0.0000,0
14505,0.0064,-0.0022,0.3284,0.0046,-0.0073,-0.0197,0.16,0.37,1.05,0,3.410,-3.358,2.570,-1.083,0.010,-0.012,1.004,0.000,0.000,0.000,0.3320,0,0,-0.10,0.76,0.88,0.0211,-0.1169,0.3297,-0.0234,-0.0453,0.3000,0.2614,2.70,2.34,-31.35,2.6660,0.0000,1.1840,1.5570,2.3720,0,0.0000,0.0000,0.0000,0.0000,0.0000,0
14556,0.0065,-0.0026,0.3294,0.0014,-0.0088,-0.0080,0.06,0.31,1.02,0,3.415,-3.590,1.690,0.222,0.006,-0.013,1.007,0.000,0.000,0.000,0.3310,0,0,-0.27,0.62,0.82,0.0221,-0.1190,0.3301,-0.0234,-0.0453,0.3000,0.2599,2.61,2.21,-30.49,2.6660,0.0000,1.1840,1.5530,2.3720,0,0.0000,0.0000,0.0000,0.0000,0.0000,0
14607,0.0046,-0.0025,0.3299,-0.0051,-0.0080,-0.0011,-0.08,0.27,0.99,0,3.415,-0.808,3.381,-0.521,0.008,-0.014,1.004,0.000,0.000,0.000,0.3280,1,0,-0.46,0.54,0.83,0.0229,-0.1213,0.3304,-0.0234,-0.0453,0.3000,0.2591,2.67,1.77,-29.64,2.6690,0.0000,1.1750,1.5530,2.3700,0,0.0000,0.0000,0.0000,0.0000,0.0000,0
14658,0.0029,-0.0008,0.3291,-0.0101,-0.0034,-0.0031,-0.08,0.17,0.94,0,3.415,2.112,1.348,-0.951,0.008,-0.015,1.002,0.000,0.000,0.000,0.3340,-1,1,-0.54,0.38,0.84,0.0210,-0.1179,0.3299,-0.0234,-0.0453,0.3000,0.2595,3.01,1.41,-28.27,2.6690,0.0000,1.1750,1.5610,2.3700,0,0.0000,0.0000,0.0000,0.0000,0.0000,0
14709,0.0005,-0.0015,0.3311,-0.0149,-0.0037,0.0088,-0.04,0.05,0.89,0,3.421,0.254,3.895,-1.791,0.008,-0.010,0.998,0.000,0.000,0.000,0.3330,3,0,-0.45,0.32,0.80,0.0203,-0.1179,0.3312,-0.0234,-0.0453,0.3000,0.2578,2.96,1.02,-26.71,0.0000,0.0000,1.1760,1.5610,2.3790,0,0.0000,0.0000,0.0000,0.0000,0.0000,0
14760,-0.0017,0.0014,0.3322,-0.0180,0.0023,0.0119,-0.02,-0.15,0.78,0,3.421,0.053,5.087,-2.147,0.011,-0.013,1.000,0.000,0.000,0.000,0.3290,2,1,-0.40,0.13,0.70,0.0203,-0.1220,0.3320,-0.0234,-0.0453,0.3000,0.2572,3.46,0.71,-23.50,0.0000,0.0000,1.1760,1.5620,2.3790,0,0.0000,0.0000,0.0000,0.0000,0.0000,0
14811,-0.0005,-0.0001,0.3312,-0.0130,-0.0001,0.0028,-0.00,-0.29,0.69,0,3.415,0.651,0.594,-1.977,0.006,-0.014,0.999,0.000,0.000,0.000,0.3280,-2,1,-0.38,-0.12,0.59,0.0191,-0.1259,0.3313,-0.0234,-0.0453,0.3000,0.2584,3.23,1.04,-20.78,2.6450,0.2810,1.1750,1.5620,2.3700,0,0.0000,0.0000,0.0000,0.0000,0.0000,0
14863,-0.0004,0.0013,0.3298,-0.0088,0.0028,-0.0066,0.05,-0.37,0.57,0,3.415,-4.693,0.145,-3.024,0.011,-0.010,1.000,0.000,0.000,0.000,0.3270,-1,2,-0.39,-0.13,0.47,0.0175,-0.1241,0.3306,-0.0234,-0.0453,0.3000,0.2597,3.45,1.24,-17.13,2.6450,0.2810,1.1750,1.5540,2.3700,0,0.0000,0.0000,0.0000,0.0000,0.0000,0
14914,-0.0014,0.0029,0.3283,-0.0068,0.0051,-0.0134,-0.04,-0.37,0.45,0,3.415,1.789,-0.114,-2.832,0.008,-0.007,1.001,0.000,0.000,0.000,0.3250,0,-1,-0.66,-0.11,0.30,0.0136,-0.1228,0.3295,-0.0234,-0.0453,0.3000,0.2607,3.66,1.25,-13.59,2.6690,0.0000,1.1780,1.5540,2.3830,0,0.0000,0.0000,0.0000,0.0000,0.0000,0
14965,-0.0029,0.0068,0.3264,-0.0057,0.0127,-0.0193,0.02,-0.35,0.30,0,3.410,1.392,-1.932,-2.078,0.012,-0.009,1.006,0.000,0.000,0.000,0.3270,0,-1,-0.57,-0.12,0.16,0.0154,-0.1231,0.3280,-0.0234,-0.0453,0.3000,0.2617,4.28,1.20,-9.11,2.6690,0.0000,1.1780,1.5540,2.3830,0,0.0000,0.0000,0.0000,0.0000,0.0000,0
15016,-0.0021,0.0087,0.3261,-0.0009,0.0152,-0.0142,0.12,-0.29,0.22,0,3.410,1.762,-2.446,-2.253,0.011,-0.012,1.008,0.000,0.000,0.000,0.3210,0,0,-0.51,-0.04,0.06,0.0178,-0.1233,0.3276,-0.0234,-0.0453,0.3000,0.2612,4.54,1.48,-6.58,2.6490,0.2870,1.1740,1.5540,2.3760,0,0.0000,0.0000,0.0000,0.0000,0.0000,0
15067,-0.0019,0.0111,0.3235,0.0016,0.0177,-0.0193,0.17,-0.18,0.11,0,3.405,1.620,-3.201,-1.505,0.008,-0.012,1.014,0.000,0.000,0.000,0.3230,-3,0,-0.42,0.09,-0.06,0.0188,-0.1239,0.3255,-0.0234,-0.0453,0.3000,0.2623,4.81,1.61,-3.33,2.6490,0.2870,1.1740,1.5490,2.3760,0,0.0000,0.0000,0.0000,0.0000,0.0000,0
15119,-0.0006,0.0140,0.3227,0.0054,0.0202,-0.0139,0.20,-0.05,0.03,0,3.410,2.681,-1.636,-2.248,0.011,-0.014,1.013,0.000,0.000,0.000,0.3230,-3,0,-0.43,0.27,-0.21,0.0169,-0.1113,0.3249,-0.0234,-0.0453,0.3000,0.2618,5.14,1.89,-0.76,2.6320,0.0000,1.1750,1.5490,2.3770,0,0.0000,0.0000,0.0000,0.0000,0.0000,0
15171,-0.0009,0.0120,0.3225,0.0044,0.0115,-0.0062,0.32,0.07,-0.08,0,3.405,-2.041,-1.926,-2.614,0.011,-0.010,1.014,0.000,0.000,0.000,0.3230,-1,1,-0.32,0.36,-0.36,0.0171,-0.1042,0.3245,-0.0234,-0.0453,0.3000,0.2610,4.60,1.83,2.32,2.6320,0.0000,1.1750,1.5310,2.3770,0,0.0000,0.0000,0.0000,0.0000,0.0000,0
15222,0.0006,0.0121,0.3226,0.0065,0.0076,0.0020,0.30,0.11,-0.20,0,3.415,-2.128,0.681,-1.725,0.007,-0.015,1.005,0.000,0.000,0.000,0.3220,0,-1,-0.43,0.48,-0.50,0.0150,-0.1012,0.3246,-0.0234,-0.0453,0.3000,0.2601,4.44,2.04,6.04,2.6270,0.0000,1.1790,1.5310,2.3730,0,0.0000,0.0000,0.0000,0.0000,0.0000,0
15273,-0.0005,0.0124,0.3225,0.0027,0.0054,0.0047,0.17,0.11,-0.30,0,3.410,-1.348,-0.317,-1.417,0.014,-0.016,1.008,0.000,0.000,0.000,0.3230,-1,0,-0.52,0.43,-0.58,0.0175,-0.1005,0.3245,-0.0234,-0.0453,0.3000,0.2598,4.36,1.78,9.03,2.6270,0.0000,1.1790,1.5290,2.3730,0,0.0000,0.0000,0.0000,0.0000,0.0000,0
15324,0.0020,0.0125,0.3230,0.0067,0.0038,0.0090,0.13,0.12,-0.38,0,3.410,2.110,0.602,-1.411,0.008,-0.012,1.002,0.000,0.000,0.000,0.3210,0,-1,-0.60,0.45,-0.65,0.0177,-0.0975,0.3248,-0.0234,-0.0453,0.3000,0.2593,4.31,2.15,11.51,2.6410,0.2650,1.1790,1.5290,2.3770,0,0.0000,0.0000,0.0000,0.0000,0.0000,0
15375,0.0029,0.0116,0.3224,0.0069,0.0003,0.0062,0.14,0.09,-0.45,0,3.410,-1.057,0.300,-0.888,0.006,-0.010,1.003,0.000,0.000,0.000,0.3250,-1,-1,-0.48,0.41,-0.72,0.0205,-0.0972,0.3244,-0.0234,-0.0453,0.3000,0.2597,4.07,2.22,13.63,2.6410,0.2650,1.1790,1.5260,2.3770,0,0.0000,0.0000,0.0000,0.0000,0.0000,0
15426,0.0029,0.0121,0.3238,0.0052,0.0005,0.0128,-0.00,0.09,-0.51,0,3.415,-0.125,-2.863,-0.708,0.007,-0.014,0.999,0.000,0.000,0.000,0.3210,-1,0,-0.54,0.38,-0.76,0.0235,-0.0942,0.3252,-0.0234,-0.0453,0.3000,0.2587,4.14,2.15,15.35,2.6000,0.0000,1.1800,1.5260,2.3760,0,0.0000,0.0000,0.0000,0.0000,0.0000,0
15477,0.0046,0.0123,0.3230,0.0076,0.0006,0.0067,0.01,0.12,-0.54,0,3.410,-1.896,-1.347,-0.294,0.009,-0.012,1.001,0.000,0.000,0.000,0.3230,0,-1,-0.55,0.54,-0.80,0.0236,-0.0912,0.3245,-0.0234,-0.0453,0.3000,0.2595,4.14,2.38,16.08,2.6000,0.0000,1.1800,1.5310,2.3760,0,0.0000,0.0000,0.0000,0.0000,0.0000,0
15529,0.0045,0.0133,0.3233,0.0054,0.0028,0.0077,-0.03,0.16,-0.54,0,3.410,0.260,-0.265,0.253,0.008,-0.008,1.003,0.000,0.000,0.000,0.3200,-3,0,-0.64,0.59,-0.81,0.0267,-0.0910,0.3246,-0.0234,-0.0453,0.3000,0.2594,4.32,2.27,16.21,2.6320,0.0000,1.1820,1.5310,2.3780,0,0.0000,0.0000,0.0000,0.0000,0.0000,0
15580,0.0065,0.0140,0.3221,0.0084,0.0043,0.0010,-0.04,0.20,-0.54,0,3.405,0.479,0.562,1.259,0.010,-0.013,1.002,0.000,0.000,0.000,0.3230,0,0,-0.67,0.62,-0.79,0.0269,-0.0818,0.3235,-0.0234,-0.0453,0.3000,0.2603,4.43,2.55,16.26,2.6320,0.0000,1.1820,1.5320,2.3780,0,0.0000,0.0000,0.0000,0.0000,0.0000,0
15631,0.0065,0.0157,0.3226,0.0055,0.0079,0.0039,0.03,0.22,-0.52,0,3.410,1.317,-0.323,1.238,0.012,-0.015,1.003,0.000,0.000,0.000,0.3250,1,0,-0.65,0.59,-0.73,0.0280,-0.0786,0.3237,-0.0234,-0.0453,0.3000,0.2599,4.72,2.41,15.46,0.0000,0.2630,1.1810,1.5320,2.3820,0,0.0000,0.0000,0.0000,0.0000,0.0000,0
15682,0.0065,0.0179,0.3238,0.0030,0.0120,0.0109,0.09,0.23,-0.46,0,3.410,1.215,3.052,1.303,0.011,-0.013,1.002,0.000,0.000,0.000,0.3240,-1,-1,-0.50,0.62,-0.69,0.0257,-0.0887,0.3249,-0.0234,-0.0453,0.3000,0.2589,5.10,2.31,13.77,0.0000,0.2630,1.1810,1.5290,2.3820,0,0.0000,0.0000,0.0000,0.0000,0.0000,0
15733,0.0073,0.0153,0.3242,0.0029,0.0034,0.0109,0.05,0.19,-0.41,0,3.410,1.309,1.242,1.209,0.012,-0.009,0.999,0.000,0.000,0.000,0.3240,0,0,-0.45,0.45,-0.62,0.0283,-0.0861,0.3252,-0.0234,-0.0453,0.3000,0.2588,4.51,2.36,12.27,2.6040,0.2540,1.1760,1.5290,2.3690,0,0.0000,0.0000,0.0000,0.0000,0.0000,0
15784,0.0075,0.0179,0.3245,0.0014,0.0089,0.0097,0.12,0.16,-0.38,0,3.410,-0.584,1.279,-0.670,0.008,-0.012,1.002,0.000,0.000,0.000,0.3250,0,0,-0.39,0.39,-0.56,0.0294,-0.0852,0.3253,-0.0234,-0.0453,0.3000,0.2589,4.95,2.30,11.27,2.6040,0.2540,1.1760,1.5400,2.3690,0,0.0000,0.0000,0.0000,0.0000,0.0000,0
15835,0.0084,0.0162,0.3250,0.0023,0.0027,0.0104,0.10,0.14,-0.39,0,3.410,2.412,0.673,0.406,0.009,-0.014,0.998,0.000,0.000,0.000,0.3270,-2,0,-0.42,0.32,-0.59,0.0305,-0.0843,0.3258,-0.0234,-0.0453,0.3000,0.2587,4.53,2.41,11.63,0.0000,0.2590,1.1810,1.5400,2.3790,0,0.0000,0.0000,0.0000,0.0000,0.0000,0
15887,0.0094,0.0136,0.3261,0.0041,-0.0050,0.0133,0.17,0.05,-0.35,0,3.410,-0.023,0.166,1.486,0.011,-0.016,1.000,0.000,0.000,0.000,0.3250,2,0,-0.33,0.32,-0.57,0.0272,-0.0777,0.3267,-0.0234,-0.0453,0.3000,0.2582,4.00,2.57,10.42,0.0000,0.2590,1.1810,1.5350,2.3790,0,0.0000,0.0000,0.0000,0.0000,0.0000,0
15938,0.0095,0.0133,0.3261,0.0030,-0.0068,0.0095,0.19,0.04,-0.29,0,3.410,-0.961,-0.311,0.487,0.011,-0.014,1.001,0.000,0.000,0.000,0.3250,-1,-1,-0.30,0.31,-0.50,0.0274,-0.0803,0.3267,-0.0234,-0.0453,0.3000,0.2586,3.88,2.52,8.78,2.6340,0.2580,1.1720,1.5350,2.3710,0,0.0000,0.0000,0.0000,0.0000,0.0000,0
15989,0.0104,0.0117,0.3259,0.0043,-0.0113,0.0063,0.18,0.04,-0.25,0,3.410,-3.381,-0.070,1.025,0.010,-0.014,0.996,0.000,0.000,0.000,0.3260,2,0,-0.36,0.31,-0.47,0.0295,-0.0784,0.3267,-0.0234,-0.0453,0.3000,0.2590,3.55,2.65,7.61,2.6340,0.2580,1.1720,1.5410,2.3710,0,0.0000,0.0000,0.0000,0.0000,0.0000,0
16040,0.0110,0.0125,0.3262,0.0051,-0.0092,0.0055,0.04,0.04,-0.24,0,3.410,0.856,-1.664,0.170,0.011,-0.010,0.998,0.000,0.000,0.000,0.3280,2,-1,-0.50,0.32,-0.42,0.0298,-0.0821,0.3268,-0.0234,-0.0453,0.3000,0.2590,3.71,2.73,7.09,2.6320,0.0000,1.1750,1.5410,2.3710,0,0.0000,0.0000,0.0000,0.0000,0.0000,0
16092,0.0108,0.0130,0.3271,0.0035,-0.0071,0.0097,-0.00,0.10,-0.25,0,3.410,-3.037,0.037,-1.337,0.010,-0.013,1.001,0.000,0.000,0.000,0.3270,-4,-2,-0.43,0.40,-0.41,0.0324,-0.0866,0.3274,-0.0234,-0.0453,0.3000,0.2584,3.85,2.64,7.61,2.6320,0.0000,1.1750,1.5500,2.3710,0,0.0000,0.0000,0.0000,0.0000,0.0000,0
16143,0.0114,0.0109,0.3273,0.0038,-0.0119,0.0093,-0.01,0.08,-0.30,0,3.410,2.218,-1.479,-1.031,0.011,-0.013,1.000,0.000,0.000,0.000,0.3280,0,0,-0.66,0.37,-0.48,0.0375,-0.0775,0.3277,-0.0234,-0.0453,0.3000,0.2584,3.48,2.70,8.89,2.6360,0.2610,1.1790,1.5500,2.3700,0,0.0000,0.0000,0.0000,0.0000,0.0000,0
16194,0.0132,0.0129,0.3279,0.0070,-0.0052,0.0099,0.01,0.09,-0.37,0,3.405,0.325,-0.986,-3.431,0.004,-0.012,0.998,0.000,0.000,0.000,0.3250,0,0,-0.55,0.45,-0.53,0.0399,-0.0768,0.3281,-0.0234,-0.0453,0.3000,0.2582,3.94,2.98,11.21,2.6360,0.2610,1.1790,1.5340,2.3700,0,0.0000,0.0000,0.0000,0.0000,0.0000,0
16245,0.0138,0.0121,0.3270,0.0071,-0.0067,0.0023,0.01,0.12,-0.49,0,3.410,-0.622,-1.054,-3.392,0.011,-0.015,0.996,0.000,0.000,0.000,0.3260,1,0,-0.53,0.50,-0.70,0.0421,-0.0761,0.3274,-0.0234,-0.0453,0.3000,0.2592,3.80,3.03,14.78,2.6260,0.0000,1.1790,1.5340,2.3730,0,0.0000,0.0000,0.0000,0.0000,0.0000,0
16296,0.0138,0.0138,0.3266,0.0052,-0.0011,-0.0005,-0.08,0.15,-0.63,0,3.405,-0.395,-0.267,-3.356,0.013,-0.010,1.001,0.000,0.000,0.000,0.3250,-2,0,-0.52,0.61,-0.89,0.0356,-0.0817,0.3272,-0.0234,-0.0453,0.3000,0.2596,4.18,2.93,19.04,2.6260,0.0000,1.1790,1.5380,2.3730,0,0.0000,0.0000,0.0000,0.0000,0.0000,0
16347,0.0137,0.0116,0.3259,0.0030,-0.0060,-0.0043,-0.12,0.17,-0.82,0,3.405,-0.905,0.488,-4.037,0.010,-0.016,1.001,0.000,0.000,0.000,0.3240,-3,0,-0.57,0.62,-1.06,0.0360,-0.0789,0.3266,-0.0234,-0.0453,0.3000,0.2601,3.78,2.81,24.69,2.6100,0.2460,1.1790,1.5380,2.3730,0,0.0000,0.0000,0.0000,0.0000,0.0000,0
16398,0.0145,0.0154,0.3250,0.0036,0.0051,-0.0080,-0.13,0.14,-1.02,0,3.405,3.055,3.435,-2.752,0.007,-0.013,1.003,0.000,0.000,0.000,0.3250,0,0,-0.65,0.60,-1.25,0.0365,-0.0737,0.3257,-0.0234,-0.0453,0.3000,0.2607,4.57,2.89,30.62,2.6100,0.2460,1.1790,1.5330,2.3730,0,0.0000,0.0000,0.0000,0.0000,0.0000,0
16449,0.0158,0.0160,0.3248,0.0052,0.0069,-0.0065,0.01,0.02,-1.17,0,3.405,2.525,0.550,-2.430,0.008,-0.013,1.005,0.000,0.000,0.000,0.3230,0,0,-0.49,0.43,-1.40,0.0370,-0.0726,0.3254,-0.0234,-0.0453,0.3000,0.2606,4.70,3.06,35.12,2.5720,0.0000,1.1780,1.5330,2.3780,0,0.0000,0.0000,0.0000,0.0000,0.0000,0
16501,0.0161,0.0157,0.3238,0.0052,0.0052,-0.0078,0.15,0.01,-1.29,0,3.399,0.858,-3.101,-0.746,0.009,-0.013,1.007,0.000,0.000,0.000,0.3230,0,0,-0.36,0.40,-1.52,0.0375,-0.0717,0.3247,-0.0234,-0.0453,0.3000,0.2609,4.59,3.08,38.79,2.5720,0.0000,1.1780,1.5220,2.3780,0,0.0000,0.0000,0.0000,0.0000,0.0000,0
16552,0.0159,0.0191,0.3233,0.0039,0.0119,-0.0060,0.18,0.08,-1.36,0,3.405,3.058,1.745,-0.142,0.008,-0.012,1.007,0.000,0.000,0.000,0.3250,-1,0,-0.32,0.56,-1.56,0.0381,-0.0709,0.3243,-0.0234,-0.0453,0.3000,0.2608,5.15,3.00,40.94,2.5770,0.0000,1.1820,1.5220,2.3780,0,0.0000,0.0000,0.0000,0.0000,0.0000,0
16604,0.0168,0.0181,0.3239,0.0050,0.0064,0.0019,0.31,0.05,-1.39,0,3.399,2.854,0.243,-0.671,0.007,-0.013,1.004,0.000,0.000,0.000,0.3260,0,0,-0.17,0.49,-1.57,0.0365,-0.0694,0.3247,-0.0234,-0.0453,0.3000,0.2598,4.84,3.13,41.70,2.5770,0.0000,1.1820,1.4990,2.3780,0,0.0000,0.0000,0.0000,0.0000,0.0000,0
16655,0.0204,0.0203,0.3249,0.0128,0.0088,0.0096,0.39,0.05,-1.42,0,3.410,-2.574,-2.534,-0.305,0.009,-0.013,0.998,0.000,0.000,0.000,0.3260,0,-1,-0.02,0.48,-1.60,0.0366,-0.0689,0.3255,-0.0234,-0.0453,0.3000,0.2588,5.13,3.78,42.69,2.5650,0.2450,1.1760,1.4990,2.3760,0,0.0000,0.0000,0.0000,0.0000,0.0000,0
16706,0.0214,0.0192,0.3257,0.0131,0.0019,0.0121,0.26,0.16,-1.43,0,3.405,1.212,-0.538,0.542,0.010,-0.014,0.999,0.000,0.000,0.000,0.3250,-1,0,-0.15,0.59,-1.62,0.0386,-0.0690,0.3260,-0.0234,-0.0453,0.3000,0.2584,4.73,3.87,42.93,2.5650,0.2450,1.1760,1.4950,2.3760,0,0.0000,0.0000,0.0000,0.0000,0.0000,0
16757,0.0224,0.0211,0.3257,0.0126,0.0040,0.0090,0.25,0.21,-1.39,0,3.410,-0.388,-1.574,1.291,0.007,-0.011,0.996,0.000,0.000,0.000,0.3270,1,0,-0.10,0.62,-1.59,0.0390,-0.0679,0.3261,-0.0234,-0.0453,0.3000,0.2587,4.96,3.91,41.75,2.5750,0.0000,1.1810,1.4950,2.3750,0,0.0000,0.0000,0.0000,0.0000,0.0000,0
16808,0.0222,0.0219,0.3265,0.0090,0.0031,0.0092,0.28,0.27,-1.31,0,3.405,1.173,-1.832,1.643,0.011,-0.013,0.999,0.000,0.000,0.000,0.3240,1,0,-0.10,0.70,-1.53,0.0392,-0.0694,0.3266,-0.0234,-0.0453,0.3000,0.2585,4.98,3.73,39.40,2.5750,0.0000,1.1810,1.4790,2.3750,0,0.0000,0.0000,0.0000,0.0000,0.0000,0
16859,0.0219,0.0209,0.3257,0.0050,-0.0017,0.0007,0.28,0.35,-1.22,0,3.405,-1.758,0.306,3.336,0.010,-0.016,0.997,0.000,0.000,0.000,0.3230,-3,-1,-0.03,0.79,-1.45,0.0393,-0.0714,0.3260,-0.0234,-0.0453,0.3000,0.2596,4.67,3.51,36.73,2.5890,0.0000,1.1810,1.4790,2.3760,0,0.0000,0.0000,0.0000,0.0000,0.0000,0
16910,0.0217,0.0178,0.3245,0.0012,-0.0112,-0.0075,0.14,0.32,-1.07,0,3.405,2.780,4.003,3.039,0.009,-0.010,1.000,0.000,0.000,0.000,0.3290,0,0,-0.18,0.76,-1.26,0.0415,-0.0662,0.3253,-0.0234,-0.0453,0.3000,0.2607,3.98,3.29,32.10,2.5890,0.0000,1.1810,1.4860,2.3760,0,0.0000,0.0000,0.0000,0.0000,0.0000,0
16961,0.0232,0.0218,0.3262,0.0018,-0.0020,0.0028,0.05,0.22,-0.90,0,3.410,11.498,-3.917,3.650,0.012,-0.007,1.003,0.000,0.000,0.000,0.3250,-7,0,-0.04,0.56,-1.10,0.0420,-0.0663,0.3264,-0.0234,-0.0453,0.3000,0.2593,4.73,3.45,26.89,0.0000,0.0000,1.1720,1.4860,2.3780,0,0.0000,0.0000,0.0000,0.0000,0.0000,0
17012,0.0226,0.0122,0.3258,-0.0015,-0.0250,-0.0005,0.63,0.39,-0.72,0,3.405,24.520,-12.363,2.948,0.013,-0.015,1.000,0.000,0.000,0.000,0.3260,-10,-1,0.36,0.77,-0.81,0.0420,-0.0418,0.3263,-0.0234,-0.0453,0.3000,0.2597,2.94,3.25,21.69,0.0000,0.0000,1.1720,1.4960,2.3780,0,0.0000,0.0000,0.0000,0.0000,0.0000,0
17063,0.0222,0.0135,0.3259,-0.0054,-0.0258,-0.0001,1.73,0.97,-0.58,0,3.405,2.478,-11.603,3.538,0.008,-0.018,0.996,0.000,0.000,0.000,0.3220,0,0,1.49,1.39,-0.59,0.0445,-0.0207,0.3255,-0.0234,-0.0453,0.3000,0.2597,2.99,3.03,17.31,2.6440,0.0000,1.1760,1.4960,2.3780,0,0.0000,0.0000,0.0000,0.0000,0.0000,0
17114,0.0227,0.0232,0.3242,-0.0120,-0.0159,-0.0113,1.99,1.59,-0.40,0,3.399,3.031,0.383,4.883,0.007,-0.015,0.999,0.000,0.000,0.000,0.3260,2,1,1.61,1.99,-0.43,0.0449,-0.0135,0.3243,-0.0234,-0.0453,0.3000,0.2612,4.13,2.74,12.14,2.6440,0.0000,1.1760,1.4550,2.3780,0,0.0000,0.0000,0.0000,0.0000,0.0000,0
17165,0.0241,0.0228,0.3246,-0.0204,-0.0308,-0.0085,2.06,1.56,-0.17,0,3.405,2.314,9.037,3.549,0.009,-0.016,1.000,0.000,0.000,0.000,0.3220,-1,1,1.90,1.99,-0.35,0.0413,-0.0273,0.3254,-0.0234,-0.0453,0.3000,0.2608,3.41,2.45,5.13,2.6460,0.2380,1.1770,1.4550,2.3870,0,0.0000,0.0000,0.0000,0.0000,0.0000,0
17216,0.0227,0.0177,0.3232,-0.0338,-0.0553,-0.0143,2.16,1.12,0.06,0,3.399,-3.383,5.646,5.372,0.010,-0.016,0.999,0.000,0.000,0.000,0.3190,0,2,2.00,1.54,-0.11,0.0389,-0.0251,0.3242,-0.0234,-0.0453,0.3000,0.2617,1.88,1.71,-1.83,2.6460,0.2380,1.1770,1.4610,2.3870,0,0.0000,0.0000,0.0000,0.0000,0.0000,0
17267,0.0216,0.0184,0.3210,-0.0414,-0.0658,-0.0234,2.07,0.85,0.31,0,3.399,-3.610,4.650,5.803,0.007,-0.010,1.001,0.000,0.000,0.000,0.3220,8,1,1.82,1.29,0.25,0.0341,-0.0252,0.3221,-0.0234,-0.0453,0.3000,0.2631,1.42,1.27,-9.15,2.6510,0.2690,1.1950,1.4610,2.3810,0,0.0000,0.0000,0.0000,0.0000,0.0000,0
17318,0.0177,0.0150,0.3207,-0.0524,-0.0825,-0.0174,1.90,0.67,0.59,0,3.399,-8.509,5.162,6.448,0.010,-0.009,1.005,0.000,0.000,0.000,0.3180,0,0,1.75,1.05,0.28,0.0304,-0.0441,0.3207,-0.0234,-0.0453,0.3000,0.2625,0.41,0.47,-17.56,2.6510,0.2690,1.1950,1.4950,2.3810,0,0.0000,0.0000,0.0000,0.0000,0.0000,0
17369,0.0151,0.0070,0.3191,-0.0578,-0.1061,-0.0182,1.47,0.50,0.91,0,3.405,-14.387,-5.417,5.475,0.010,-0.012,1.010,0.000,0.000,0.000,0.3170,1,1,1.31,0.79,0.61,0.0271,-0.0501,0.3192,-0.0234,-0.0453,0.3000,0.2629,-1.27,0.04,-27.34,2.6480,0.0000,1.1990,1.4950,2.3850,0,0.0000,0.0000,0.0000,0.0000,0.0000,0
17420,0.0123,0.0017,0.3176,-0.0616,-0.1181,-0.0186,0.80,0.61,1.18,0,3.399,-8.194,0.016,4.575,0.012,-0.006,1.009,0.000,0.000,0.000,0.3160,4,1,0.49,1.05,0.92,0.0283,-0.0442,0.3191,-0.0234,-0.0453,0.3000,0.2632,-2.20,-0.34,-35.46,2.6480,0.0000,1.1990,1.5080,2.3850,0,0.0000,0.0000,0.0000,0.0000,0.0000,0
17471,0.0095,-0.0030,0.3164,-0.0658,-0.1226,-0.0169,0.33,0.59,1.42,0,3.399,-6.375,5.582,4.025,0.011,-0.015,1.007,0.000,0.000,0.000,0.3140,0,3,0.11,1.05,1.09,0.0253,-0.0542,0.3178,-0.0234,-0.0453,0.3000,0.2633,-2.75,-0.73,-42.49,0.0000,0.0000,1.2050,1.5080,2.3850,0,0.0000,0.0000,0.0000,0.0000,0.0000,0
17522,0.0080,-0.0081,0.3149,-0.0662,-0.1232,-0.0177,0.03,0.31,1.62,0,3.394,-10.760,0.838,1.882,0.016,-0.007,1.011,0.000,0.000,0.000,0.3110,0,1,-0.25,0.79,1.44,0.0182,-0.0560,0.3165,-0.0234,-0.0453,0.3000,0.2636,-3.13,-0.86,-48.69,0.0000,0.0000,1.2050,1.5290,2.3850,0,0.0000,0.0000,0.0000,0.0000,0.0000,0
17574,0.0041,-0.0149,0.3128,-0.0701,-0.1245,-0.0192,-0.48,0.14,1.74,0,3.399,-7.431,2.918,0.736,0.019,-0.006,1.014,0.000,0.000,0.000,0.3150,0,1,-0.83,0.75,1.57,0.0150,-0.0572,0.3148,-0.0234,-0.0453,0.3000,0.2642,-3.66,-1.31,-52.06,0.0000,0.3040,1.2230,1.5290,2.3950,0,0.0000,0.0000,0.0000,0.0000,0.0000,0
17626,0.0005,-0.0227,0.3132,-0.0717,-0.1241,-0.0078,-0.83,-0.00,1.77,0,3.394,-8.131,6.216,-0.945,0.013,-0.009,1.012,0.000,0.000,0.000,0.3140,2,2,-1.24,0.59,1.63,0.0119,-0.0581,0.3151,-0.0234,-0.0453,0.3000,0.2629,-4.20,-1.65,-52.96,0.0000,0.3040,1.2230,1.5290,2.3950,0,0.0000,0.0000,0.0000,0.0000,0.0000,0
17677,-0.0026,-0.0278,0.3134,-0.0705,-0.1145,-0.0006,-1.22,-0.35,1.71,0,3.399,-3.445,12.687,-2.751,0.021,-0.012,1.003,0.000,0.000,0.000,0.3120,0,1,-1.65,0.28,1.57,0.0062,-0.0640,0.3151,-0.0234,-0.0453,0.3000,0.2621,-4.12,-1.81,-51.33,2.6420,0.0000,1.2250,1.5290,2.3940,0,0.0000,0.0000,0.0000,0.0000,0.0000,0
17728,-0.0065,-0.0377,0.3128,-0.0689,-0.1153,-0.0005,-1.43,-0.92,1.57,0,3.394,-4.124,6.261,-3.925,0.015,-0.015,1.007,0.000,0.000,0.000,0.3130,3,1,-1.84,-0.36,1.42,0.0031,-0.0644,0.3146,-0.0234,-0.0453,0.3000,0.2622,-4.86,-2.02,-46.99,2.6420,0.0000,1.2250,1.5340,2.3940,0,0.0000,0.0000,0.0000,0.0000,0.0000,0
17779,-0.0083,-0.0376,0.3130,-0.0579,-0.0895,0.0037,-1.67,-1.26,1.35,0,3.399,-2.524,-5.932,-3.822,0.015,-0.012,1.005,0.000,0.000,0.000,0.3130,-1,0,-2.01,-0.67,1.20,0.0002,-0.0731,0.3146,-0.0234,-0.0453,0.3000,0.2617,-3.65,-1.63,-40.60,2.6020,0.0000,1.2360,1.5340,2.3970,0,0.0000,0.0000,0.0000,0.0000,0.0000,0
17830,-0.0113,-0.0441,0.3131,-0.0485,-0.0808,0.0055,-1.79,-0.97,1.16,0,3.399,0.725,-1.963,-3.787,0.009,-0.013,1.000,0.000,0.000,0.000,0.3120,0,0,-2.18,-0.38,1.02,0.0000,-0.0704,0.3147,-0.0234,-0.0453,0.3000,0.2615,-3.70,-1.40,-34.82,2.6020,0.0000,1.2360,1.5140,2.3970,0,0.0000,0.0000,0.0000,0.0000,0.0000,0
17882,-0.0124,-0.0475,0.3128,-0.0375,-0.0648,0.0040,-1.79,-0.82,0.97,0,3.399,1.643,11.015,-4.209,0.012,-0.012,0.999,0.000,0.000,0.000,0.3100,-1,1,-2.14,-0.27,0.83,-0.0014,-0.0717,0.3143,-0.0234,-0.0453,0.3000,0.2617,-3.18,-0.95,-29.16,2.5950,0.0000,1.2440,1.5140,2.3890,0,0.0000,0.0000,0.0000,0.0000,0.0000,0
17934,-0.0142,-0.0517,0.3118,-0.0308,-0.0528,-0.0010,-1.78,-1.28,0.77,0,3.394,5.688,2.875,-3.330,0.008,-0.016,1.005,0.000,0.000,0.000,0.3110,-1,0,-2.10,-0.82,0.54,-0.0042,-0.0663,0.3132,-0.0234,-0.0453,0.3000,0.2624,-2.91,-0.76,-23.01,2.5950,0.0000,1.2440,1.5150,2.3890,0,0.0000,0.0000,0.0000,0.0000,0.0000,0
17985,-0.0141,-0.0532,0.3114,-0.0168,-0.0359,-0.0025,-1.65,-1.43,0.59,0,3.399,6.521,-16.560,-3.030,0.010,-0.011,1.007,0.000,0.000,0.000,0.3120,-1,-2,-1.81,-0.97,0.36,-0.0043,-0.0637,0.3127,-0.0234,-0.0453,0.3000,0.2626,-2.21,-0.09,-17.71,2.5450,0.3720,1.2550,1.5150,2.3950,0,0.0000,0.0000,0.0000,0.0000,0.0000,0
18037,-0.0149,-0.0545,0.3116,-0.0055,-0.0213,0.0008,-1.49,-0.76,0.46,0,3.394,3.384,-8.757,-2.917,0.008,-0.014,1.008,0.000,0.000,0.000,0.3140,0,-2,-1.49,-0.15,0.31,0.0008,-0.0608,0.3127,-0.0234,-0.0453,0.3000,0.2622,-1.62,0.38,-13.73,2.5450,0.3720,1.2550,1.4890,2.3950,0,0.0000,0.0000,0.0000,0.0000,0.0000,0
18088,-0.0142,-0.0546,0.3127,0.0027,-0.0073,0.0091,-1.29,-0.26,0.32,0,3.399,4.800,-4.661,-3.486,0.014,-0.012,0.999,0.000,0.000,0.000,0.3130,-2,-1,-1.30,0.28,0.28,0.0064,-0.0604,0.3136,-0.0234,-0.0453,0.3000,0.2611,-0.97,0.82,-9.57,0.0000,0.3370,1.2550,1.4890,2.3880,0,0.0000,0.0000,0.0000,0.0000,0.0000,0
18139,-0.0120,-0.0565,0.3132,0.0101,-0.0010,0.0102,-1.04,-0.04,0.17,0,3.399,1.635,-8.573,-3.677,0.012,-0.013,1.002,0.000,0.000,0.000,0.3130,-2,-1,-1.07,0.51,0.08,0.0094,-0.0547,0.3138,-0.0234,-0.0453,0.3000,0.2609,-0.81,1.34,-5.16,0.0000,0.3370,1.2550,1.4790,2.3880,0,0.0000,0.0000,0.0000,0.0000,0.0000,0
18190,-0.0090,-0.0545,0.3134,0.0166,0.0123,0.0087,-0.89,0.27,-0.01,0,3.399,7.275,-7.889,-3.614,0.010,-0.014,1.003,0.000,0.000,0.000,0.3140,0,0,-1.01,0.95,-0.11,0.0124,-0.0489,0.3140,-0.0234,-0.0453,0.3000,0.2611,-0.04,1.85,0.21,2.4940,0.0000,1.2550,1.4790,2.3840,0,0.0000,0.0000,0.0000,0.0000,0.0000,0
18241,-0.0070,-0.0554,0.3139,0.0172,0.0155,0.0092,-0.62,0.64,-0.19,0,3.399,4.838,-2.465,-3.046,0.007,-0.016,0.996,0.000,0.000,0.000,0.3090,-1,0,-0.63,1.36,-0.29,0.0148,-0.0452,0.3146,-0.0234,-0.0453,0.3000,0.2609,0.06,2.02,5.73,2.4940,0.0000,1.2550,1.4630,2.3840,0,0.0000,0.0000,0.0000,0.0000,0.0000,0
18292,-0.0048,-0.0551,0.3120,0.0158,0.0191,-0.0043,-0.37,0.74,-0.33,0,3.399,-0.909,7.397,-2.662,0.010,-0.016,1.000,0.000,0.000,0.000,0.3100,2,1,-0.35,1.52,-0.51,0.0112,-0.0472,0.3134,-0.0234,-0.0453,0.3000,0.2627,0.24,2.10,9.86,2.4150,0.3010,1.2580,1.4630,2.3870,0,0.0000,0.0000,0.0000,0.0000,0.0000,0
18343,-0.0031,-0.0531,0.3110,0.0124,0.0250,-0.0099,-0.30,0.41,-0.47,0,3.394,4.346,5.924,-2.346,0.016,-0.015,1.005,0.000,0.000,0.000,0.3100,-2,1,-0.35,1.16,-0.69,0.0089,-0.0511,0.3126,-0.0234,-0.0453,0.3000,0.2635,0.66,2.05,14.15,2.4150,0.3010,1.2580,1.4530,2.3870,0,0.0000,0.0000,0.0000,0.0000,0.0000,0
18394,-0.0039,-0.0547,0.3103,0.0057,0.0202,-0.0105,-0.17,0.10,-0.60,0,3.394,2.560,-9.617,-1.347,0.010,-0.016,1.004,0.000,0.000,0.000,0.3100,1,-2,-0.15,0.87,-0.81,0.0066,-0.0462,0.3120,-0.0234,-0.0453,0.3000,0.2637,0.32,1.68,18.00,2.3340,0.0000,1.2550,1.4530,2.3900,0,0.0000,0.0000,0.0000,0.0000,0.0000,0
18445,-0.0039,-0.0528,0.3098,0.0038,0.0237,-0.0089,0.05,0.49,-0.68,0,3.394,0.796,-7.035,-1.196,0.013,-0.013,1.004,0.000,0.000,0.000,0.3120,0,-1,0.00,1.33,-0.86,0.0114,-0.0485,0.3117,-0.0234,-0.0453,0.3000,0.2636,0.62,1.59,20.31,2.3340,0.0000,1.2550,1.4400,2.3900,0,0.0000,0.0000,0.0000,0.0000,0.0000,0
18497,-0.0020,-0.0524,0.3105,0.0041,0.0213,-0.0011,0.06,0.90,-0.71,0,3.394,-0.076,1.516,0.403,0.011,-0.013,1.005,0.000,0.000,0.000,0.3130,-1,0,0.05,1.67,-0.92,0.0141,-0.0485,0.3121,-0.0234,-0.0453,0.3000,0.2626,0.53,1.75,21.32,0.0000,0.0000,1.2590,1.4400,2.3900,0,0.0000,0.0000,0.0000,0.0000,0.0000,0
18548,-0.0011,-0.0523,0.3116,-0.0014,0.0181,0.0068,0.08,0.91,-0.71,0,3.394,1.390,-0.218,-0.772,0.014,-0.017,1.003,0.000,0.000,0.000,0.3140,0,0,0.02,1.59,-0.87,0.0142,-0.0457,0.3128,-0.0234,-0.0453,0.3000,0.2616,0.40,1.56,21.24,0.0000,0.0000,1.2590,1.4200,2.3900,0,0.0000,0.0000,0.0000,0.0000,0.0000,0
18599,-0.0011,-0.0495,0.3129,-0.0086,0.0221,0.0134,0.15,0.91,-0.74,0,3.399,-0.066,10.412,0.536,0.011,-0.015,0.996,0.000,0.000,0.000,0.3120,-1,1,0.10,1.60,-0.91,0.0140,-0.0458,0.3137,-0.0234,-0.0453,0.3000,0.2606,0.79,1.23,22.34,2.3730,0.0000,1.2550,1.4200,2.3950,0,0.0000,0.0000,0.0000,0.0000,0.0000,0
18651,-0.0029,-0.0517,0.3129,-0.0193,0.0123,0.0094,0.25,0.49,-0.76,0,3.394,-3.258,14.802,-0.066,0.015,-0.014,0.998,0.000,0.000,0.000,0.3130,0,1,0.06,1.09,-0.82,0.0111,-0.0408,0.3137,-0.0234,-0.0453,0.3000,0.2610,0.16,0.58,22.65,2.3730,0.0000,1.2550,1.4330,2.3950,0,0.0000,0.0000,0.0000,0.0000,0.0000,0
18702,-0.0047,-0.0508,0.3132,-0.0251,0.0108,0.0080,0.22,-0.21,-0.76,0,3.394,-0.606,5.418,-0.647,0.012,-0.017,0.996,0.000,0.000,0.000,0.3100,0,2,-0.11,0.32,-0.82,0.0085,-0.0407,0.3138,-0.0234,-0.0453,0.3000,0.2611,0.16,0.19,22.72,0.0000,0.2870,1.2520,1.4330,2.3940,0,0.0000,0.0000,0.0000,0.0000,0.0000,0
18753,-0.0073,-0.0544,0.3120,-0.0269,-0.0010,-0.0011,0.16,-0.53,-0.78,0,3.394,-8.780,5.671,0.520,0.014,-0.014,1.000,0.000,0.000,0.000,0.3100,-1,0,-0.14,0.07,-0.85,0.0036,-0.0407,0.3128,-0.0234,-0.0453,0.3000,0.2624,-0.66,-0.08,23.44,0.0000,0.2870,1.2520,1.4280,2.3940,0,0.0000,0.0000,0.0000,0.0000,0.0000,0
18804,-0.0098,-0.0527,0.3111,-0.0254,0.0019,-0.0062,-0.26,-0.83,-0.75,0,3.389,-3.435,7.975,0.661,0.013,-0.010,0.999,0.000,0.000,0.000,0.3100,0,1,-0.61,-0.23,-0.81,0.0033,-0.0383,0.3120,-0.0234,-0.0453,0.3000,0.2631,-0.40,-0.19,22.57,2.4540,0.3170,1.2520,1.4280,2.3960,0,0.0000,0.0000,0.0000,0.0000,0.0000,0
18856,-0.0098,-0.0517,0.3104,-0.0156,0.0054,-0.0086,-0.29,-1.10,-0.70,0,3.389,3.847,1.908,0.980,0.010,-0.013,1.003,0.000,0.000,0.000,0.3090,-1,0,-0.78,-0.62,-0.78,0.0005,-0.0383,0.3113,-0.0234,-0.0453,0.3000,0.2635,-0.16,0.27,21.08,2.4540,0.3170,1.2520,1.4490,2.3960,0,0.0000,0.0000,0.0000,0.0000,0.0000,0
18907,-0.0108,-0.0516,0.3095,-0.0071,0.0073,-0.0096,-0.20,-1.13,-0.62,0,3.389,-2.366,-4.792,1.232,0.012,-0.014,1.007,0.000,0.000,0.000,0.3070,2,0,-0.60,-0.73,-0.74,0.0005,-0.0355,0.3104,-0.0234,-0.0453,0.3000,0.2637,-0.07,0.60,18.57,2.4730,0.0000,1.2510,1.4490,2.3940,0,0.0000,0.0000,0.0000,0.0000,0.0000,0
18958,-0.0099,-0.0511,0.3081,0.0047,0.0093,-0.0125,-0.28,-0.78,-0.54,0,3.389,-1.014,-15.154,-0.688,0.011,-0.013,1.006,0.000,0.000,0.000,0.3060,-2,-2,-0.68,-0.48,-0.64,0.0005,-0.0410,0.3094,-0.0234,-0.0453,0.3000,0.2643,0.06,1.21,16.23,2.4730,0.0000,1.2510,1.4400,2.3940,0,0.0000,0.0000,0.0000,0.0000,0.0000,0
19017,-0.0082,-0.0523,0.3068,0.0144,0.0076,-0.0140,-0.28,-0.05,-0.53,0,3.384,1.895,-8.645,-1.249,0.007,-0.010,1.004,0.000,0.000,0.000,0.3070,0,0,-0.77,0.26,-0.70,0.0064,-0.0354,0.3083,-0.0234,-0.0453,0.3000,0.2647,-0.11,1.78,15.75,2.4100,0.0000,1.2490,1.4400,2.3930,0,0.0000,0.0000,0.0000,0.0000,0.0000,0
19068,-0.0047,-0.0514,0.3065,0.0215,0.0107,-0.0106,-0.21,0.27,-0.55,0,3.389,-5.459,-7.341,0.132,0.013,-0.011,1.011,0.000,0.000,0.000,0.3060,-3,-1,-0.66,0.77,-0.77,0.0080,-0.0348,0.3078,-0.0234,-0.0453,0.3000,0.2644,0.11,2.36,16.53,2.4100,0.0000,1.2490,1.4380,2.3930,0,0.0000,0.0000,0.0000,0.0000,0.0000,0
19119,-0.0026,-0.0509,0.3060,0.0211,0.0125,-0.0069,-0.33,0.69,-0.53,0,3.389,0.935,-2.520,0.877,0.010,-0.009,1.011,0.000,0.000,0.000,0.3040,0,-1,-1.01,1.14,-0.81,0.0092,-0.0232,0.3073,-0.0234,-0.0453,0.3000,0.2641,0.23,2.49,15.99,2.4380,0.0000,1.2560,1.4380,2.3880,0,0.0000,0.0000,0.0000,0.0000,0.0000,0
19171,-0.0017,-0.0504,0.3050,0.0154,0.0142,-0.0052,-0.25,0.83,-0.49,0,3.389,7.383,9.308,0.109,0.009,-0.016,1.006,0.000,0.000,0.000,0.3060,0,1,-0.95,1.26,-0.75,0.0118,-0.0224,0.3067,-0.0234,-0.0453,0.3000,0.2641,0.34,2.29,14.82,2.4380,0.0000,1.2560,1.4400,2.3880,0,0.0000,0.0000,0.0000,0.0000,0.0000,0
19222,0.0003,-0.0487,0.3054,0.0120,0.0181,0.0017,0.02,0.32,-0.50,0,3.389,-2.415,-3.892,-1.203,0.017,-0.014,1.008,0.000,0.000,0.000,0.3080,0,-1,-0.55,0.80,-0.78,0.0096,-0.0218,0.3069,-0.0234,-0.0453,0.3000,0.2633,0.64,2.28,14.94,0.0000,0.2870,1.2590,1.4400,2.3910,0,0.0000,0.0000,0.0000,0.0000,0.0000,0
19273,0.0007,-0.0482,0.3066,0.0086,0.0171,0.0111,-0.06,0.40,-0.53,0,3.389,3.633,-13.635,-1.542,0.012,-0.012,1.008,0.000,0.000,0.000,0.3070,-2,0,-0.66,0.99,-0.83,0.0122,-0.0214,0.3079,-0.0234,-0.0453,0.3000,0.2620,0.63,2.16,15.93,0.0000,0.2870,1.2590,1.4170,2.3910,0,0.0000,0.0000,0.0000,0.0000,0.0000,0
19324,0.0019,-0.0492,0.3073,0.0059,0.0131,0.0155,0.03,1.05,-0.58,0,3.394,6.669,0.164,-2.648,0.011,-0.009,0.998,0.000,0.000,0.000,0.3100,0,0,-0.50,1.69,-0.89,0.0124,-0.0160,0.3084,-0.0234,-0.0453,0.3000,0.2615,0.37,2.12,17.50,2.4390,0.2820,1.2580,1.4170,2.3900,0,0.0000,0.0000,0.0000,0.0000,0.0000,0
19375,0.0048,-0.0484,0.3090,0.0032,0.0130,0.0201,0.23,1.10,-0.72,0,3.394,-0.354,1.982,-2.017,0.010,-0.012,0.997,0.000,0.000,0.000,0.3100,0,1,-0.15,1.68,-1.03,0.0126,-0.0136,0.3096,-0.0234,-0.0453,0.3000,0.2606,0.43,2.21,21.61,2.4390,0.2820,1.2580,1.4240,2.3900,0,0.0000,0.0000,0.0000,0.0000,0.0000,0
19426,0.0055,-0.0476,0.3101,-0.0045,0.0118,0.0201,0.29,0.98,-0.80,0,3.394,-1.880,-5.045,-2.018,0.013,-0.010,0.993,0.000,0.000,0.000,0.3100,-2,0,-0.13,1.60,-1.18,0.0089,-0.0169,0.3105,-0.0234,-0.0453,0.3000,0.2604,0.43,1.89,24.02,2.4230,0.2770,1.2480,1.4240,2.3930,0,0.0000,0.0000,0.0000,0.0000,0.0000,0
19477,0.0037,-0.0505,0.3106,-0.0160,0.0018,0.0156,0.18,1.04,-0.88,0,3.389,-1.882,1.020,-1.678,0.012,-0.012,0.996,0.000,0.000,0.000,0.3100,0,0,-0.25,1.85,-1.25,0.0087,-0.0123,0.3110,-0.0234,-0.0453,0.3000,0.2608,-0.25,1.21,26.28,2.4230,0.2770,1.2480,1.4290,2.3930,0,0.0000,0.0000,0.0000,0.0000,0.0000,0
19528,0.0021,-0.0467,0.3108,-0.0261,0.0091,0.0102,0.06,1.00,-0.98,0,3.394,-0.111,10.197,-3.107,0.012,-0.011,0.995,0.000,0.000,0.000,0.3110,0,0,-0.34,1.80,-1.33,0.0071,-0.0109,0.3111,-0.0234,-0.0453,0.3000,0.2614,0.36,0.63,29.36,2.4060,0.2670,1.2570,1.4290,2.3920,0,0.0000,0.0000,0.0000,0.0000,0.0000,0
19579,-0.0000,-0.0457,0.3112,-0.0358,0.0102,0.0080,0.08,0.63,-1.14,0,3.389,0.944,17.640,-6.450,0.014,-0.012,0.998,0.000,0.000,0.000,0.3100,-4,1,-0.35,1.28,-1.49,0.0050,-0.0095,0.3113,-0.0234,-0.0453,0.3000,0.2615,0.49,0.01,34.33,2.4060,0.2670,1.2570,1.4330,2.3920,0,0.0000,0.0000,0.0000,0.0000,0.0000,0
19630,-0.0042,-0.0513,0.3109,-0.0446,-0.0046,0.0038,0.13,-0.25,-1.42,0,3.389,-7.808,9.768,-9.038,0.015,-0.013,0.999,0.000,0.000,0.000,0.3050,0,2,-0.36,0.35,-1.68,0.0082,0.0025,0.3111,-0.0234,-0.0453,0.3000,0.2620,-0.61,-0.69,42.73,0.0000,0.2930,1.2520,1.4330,2.3910,0,0.0000,0.0000,0.0000,0.0000,0.0000,0
19681,-0.0072,-0.0501,0.3084,-0.0432,-0.0029,-0.0101,-0.09,-0.84,-1.88,0,3.384,-5.937,-3.324,-10.380,0.012,-0.009,1.008,0.000,0.000,0.000,0.3060,0,0,-0.75,-0.12,-2.16,0.0047,0.0042,0.3095,-0.0234,-0.0453,0.3000,0.2640,-0.45,-0.84,56.30,0.0000,0.2930,1.2520,1.4230,2.3910,0,0.0000,0.0000,0.0000,0.0000,0.0000,0
19732,-0.0105,-0.0510,0.3071,-0.0390,-0.0032,-0.0132,-0.50,-0.65,-2.38,0,3.389,-2.834,-0.512,-12.807,0.007,-0.007,1.008,0.000,0.000,0.000,0.3080,-1,0,-1.05,0.05,-2.69,0.0035,0.0070,0.3085,-0.0234,-0.0453,0.3000,0.2646,-0.52,-0.87,71.33,0.0000,0.0000,1.2570,1.4230,2.3970,0,0.0000,0.0000,0.0000,0.0000,0.0000,0
19783,-0.0105,-0.0503,0.3071,-0.0293,0.0029,-0.0054,-0.68,-0.48,-3.01,0,3.384,-1.428,-0.226,-15.237,0.007,-0.011,1.016,0.000,0.000,0.000,0.3060,-2,0,-1.17,0.08,-3.33,0.0046,0.0072,0.3086,-0.0234,-0.0453,0.3000,0.2637,-0.18,-0.42,90.36,0.0000,0.0000,1.2570,1.4200,2.3970,0,0.0000,0.0000,0.0000,0.0000,0.0000,0
19834,-0.0113,-0.0487,0.3066,-0.0238,0.0111,-0.0004,-0.78,-0.41,-3.76,0,3.389,2.312,-1.408,-16.054,0.010,-0.007,1.019,0.000,0.000,0.000,0.3070,0,0,-1.26,0.10,-4.11,0.0046,0.0117,0.3083,-0.0234,-0.0453,0.3000,0.2633,0.32,-0.22,112.66,1.2040,0.2780,1.2630,1.4200,2.3960,0,0.0000,0.0000,0.0000,0.0000,0.0000,0
19885,-0.0130,-0.0452,0.3069,-0.0215,0.0241,0.0082,-0.78,-0.28,-4.55,0,3.389,5.660,12.741,-11.892,0.011,-0.009,1.014,0.000,0.000,0.000,0.3090,-1,0,-1.14,0.19,-4.93,0.0046,0.0152,0.3088,-0.0234,-0.0453,0.3000,0.2623,1.18,-0.23,136.38,1.2040,0.2780,1.2630,1.4180,2.3960,0,0.0000,0.0000,0.0000,0.0000,0.0000,0
19936,-0.0129,-0.0434,0.3082,-0.0153,0.0311,0.0196,-0.52,-0.81,-5.18,0,3.394,6.066,6.742,-5.552,0.011,-0.011,1.012,0.000,0.000,0.000,0.3110,1,1,-0.82,-0.45,-5.52,0.0048,0.0147,0.3103,-0.0234,-0.0453,0.3000,0.2608,1.65,0.07,155.38,0.0000,0.0000,1.2800,1.4180,2.3890,0,0.0000,0.0000,0.0000,0.0000,0.0000,0
19987,-0.0103,-0.0512,0.3102,0.0002,0.0127,0.0301,-0.17,-1.25,-5.51,0,3.389,-1.309,-20.534,0.380,0.015,-0.011,1.003,0.000,0.000,0.000,0.3130,-2,-3,-0.49,-0.78,-5.80,0.0032,0.0145,0.3122,-0.0234,-0.0453,0.3000,0.2593,0.22,1.00,165.43,0.0000,0.0000,1.2800,1.3570,2.3890,0,0.0000,0.0000,0.0000,0.0000,0.0000,0
20038,-0.0130,-0.0423,0.3125,0.0033,0.0319,0.0353,-0.18,-0.45,-5.56,0,3.399,8.663,-13.779,4.209,0.010,-0.007,0.995,0.000,0.000,0.000,0.3120,-5,0,-0.57,0.23,-5.76,0.0096,0.0185,0.3141,-0.0234,-0.0453,0.3000,0.2583,1.78,0.95,166.83,0.0000,0.2550,1.2750,1.3570,2.3940,0,0.0000,0.0000,0.0000,0.0000,0.0000,0
20089,-0.0107,-0.0396,0.3134,0.0099,0.0360,0.0306,0.04,0.32,-5.40,0,3.394,13.155,-0.035,6.356,0.013,-0.006,0.989,0.000,0.000,0.000,0.3110,-3,0,-0.20,0.94,-5.65,0.0111,0.0296,0.3149,-0.0234,-0.0453,0.3000,0.2587,2.16,1.44,162.09,0.0000,0.2550,1.2750,1.3600,2.3940,0,0.0000,0.0000,0.0000,0.0000,0.0000,0
20140,-0.0078,-0.0395,0.3133,0.0127,0.0302,0.0179,0.83,0.40,-5.09,0,3.394,2.819,-1.485,6.371,0.008,-0.012,0.987,0.000,0.000,0.000,0.3120,-4,0,0.44,0.95,-5.35,0.0123,0.0375,0.3148,-0.0234,-0.0453,0.3000,0.2601,1.88,1.77,152.60,0.0000,0.2440,1.2770,1.3600,2.3920,0,0.0000,0.0000,0.0000,0.0000,0.0000,0
20191,-0.0070,-0.0376,0.3132,0.0090,0.0244,0.0072,1.00,0.47,-4.77,0,3.389,-1.397,-0.676,3.877,0.013,-0.012,0.992,0.000,0.000,0.000,0.3120,7,0,0.54,1.04,-5.06,0.0134,0.0481,0.3144,-0.0234,-0.0453,0.3000,0.2612,1.74,1.64,143.10,0.0000,0.2440,1.2770,1.3500,2.3920,0,0.0000,0.0000,0.0000,0.0000,0.0000,0
20242,-0.0067,-0.0308,0.3128,0.0054,0.0318,0.0009,0.91,0.49,-4.55,0,3.389,6.607,7.745,0.644,0.011,-0.010,0.993,0.000,0.000,0.000,0.3140,0,0,0.62,1.08,-4.81,0.0123,0.0316,0.3150,-0.0234,-0.0453,0.3000,0.2620,2.56,1.49,136.55,0.0000,0.2560,1.2620,1.3500,2.3910,0,0.0000,0.0000,0.0000,0.0000,0.0000,0
20293,-0.0068,-0.0313,0.3133,-0.0004,0.0185,-0.0002,1.19,0.22,-4.50,0,3.389,2.233,10.606,-2.917,0.010,-0.011,0.992,0.000,0.000,0.000,0.3130,0,2,0.95,0.68,-4.77,0.0129,0.0320,0.3149,-0.0234,-0.0453,0.3000,0.2620,1.89,1.21,135.10,0.0000,0.2560,1.2620,1.3500,2.3910,0,0.0000,0.0000,0.0000,0.0000,0.0000,0
20344,-0.0077,-0.0310,0.3131,-0.0043,0.0068,-0.0038,1.46,-0.15,-4.63,0,3.389,-8.250,11.201,-6.102,0.015,-0.010,0.997,0.000,0.000,0.000,0.3100,1,0,1.06,0.20,-4.84,0.0043,0.0332,0.3143,-0.0234,-0.0453,0.3000,0.2624,1.36,0.96,138.83,0.0000,0.2630,1.2650,1.3500,2.3900,0,0.0000,0.0000,0.0000,0.0000,0.0000,0
20395,-0.0102,-0.0281,0.3117,-0.0092,0.0039,-0.0125,1.09,-0.69,-4.90,0,3.384,-1.634,-3.364,-7.929,0.012,-0.010,1.005,0.000,0.000,0.000,0.3100,-3,0,0.65,-0.38,-5.15,0.0038,0.0308,0.3127,-0.0234,-0.0453,0.3000,0.2636,1.43,0.55,147.10,0.0000,0.2630,1.2650,1.3380,2.3900,0,0.0000,0.0000,0.0000,0.0000,0.0000,0
20446,-0.0106,-0.0346,0.3106,-0.0047,-0.0208,-0.0142,0.93,-0.56,-5.31,0,3.389,-3.904,-12.483,-8.714,0.011,-0.014,1.006,0.000,0.000,0.000,0.3100,3,-1,0.51,-0.21,-5.59,0.0042,0.0372,0.3118,-0.0234,-0.0453,0.3000,0.2640,-0.19,0.73,159.22,1.4150,0.0000,1.2730,1.3380,2.3980,0,0.0000,0.0000,0.0000,0.0000,0.0000,0
20497,-0.0106,-0.0317,0.3100,-0.0005,-0.0202,-0.0115,0.82,-0.03,-5.76,0,3.384,-7.941,12.737,-7.134,0.012,-0.007,1.005,0.000,0.000,0.000,0.3100,4,0,0.36,0.40,-6.03,0.0059,0.0296,0.3110,-0.0234,-0.0453,0.3000,0.2638,0.04,0.93,172.89,1.4150,0.0000,1.2730,1.3330,2.3980,0,0.0000,0.0000,0.0000,0.0000,0.0000,0
20548,-0.0095,-0.0325,0.3097,0.0020,-0.0260,-0.0063,0.40,-0.50,-6.12,0,3.384,-2.935,7.431,-4.872,0.012,-0.014,1.007,0.000,0.000,0.000,0.3080,0,0,0.01,-0.24,-6.34,0.0049,0.0190,0.3103,-0.0234,-0.0453,0.3000,0.2633,-0.29,1.13,183.49,0.0000,0.0000,1.2910,1.3330,2.3940,0,0.0000,0.0000,0.0000,0.0000,0.0000,0
20599,-0.0097,-0.0406,0.3088,0.0048,-0.0453,-0.0074,0.30,-0.95,-6.39,0,3.378,-10.424,-17.044,-3.719,0.012,-0.004,1.004,0.000,0.000,0.000,0.3100,0,-1,-0.14,-0.62,-6.59,0.0054,0.0146,0.3095,-0.0234,-0.0453,0.3000,0.2636,-1.76,1.25,191.64,0.0000,0.0000,1.2910,1.3190,2.3940,0,0.0000,0.0000,0.0000,0.0000,0.0000,0
20650,-0.0095,-0.0401,0.3091,0.0118,-0.0419,-0.0024,-0.19,-0.22,-6.58,0,3.384,-7.029,-12.253,-0.834,0.009,-0.011,1.005,0.000,0.000,0.000,0.3050,0,0,-0.75,0.25,-6.87,0.0075,0.0213,0.3099,-0.0234,-0.0453,0.3000,0.2630,-1.57,1.59,197.28,0.0000,0.2280,1.3080,1.3190,2.3950,0,0.0000,0.0000,0.0000,0.0000,0.0000,0
20701,-0.0067,-0.0436,0.3074,0.0189,-0.0441,-0.0090,-0.60,0.40,-6.65,0,3.378,1.607,-1.103,0.485,0.014,-0.002,1.008,0.000,0.000,0.000,0.3050,5,0,-1.10,0.87,-6.90,0.0090,0.0190,0.3085,-0.0234,-0.0453,0.3000,0.2641,-1.91,2.11,199.36,0.0000,0.2280,1.3080,1.3130,2.3950,0,0.0000,0.0000,0.0000,0.0000,0.0000,0
20752,-0.0037,-0.0382,0.3061,0.0212,-0.0218,-0.0103,-0.63,0.48,-6.63,0,3.384,2.330,-9.568,1.311,0.013,-0.010,1.004,0.000,0.000,0.000,0.3060,0,0,-0.93,0.96,-6.80,0.0052,0.0042,0.3076,-0.0234,-0.0453,0.3000,0.2644,-0.49,2.43,198.89,0.0000,0.0000,1.3090,1.3130,2.3970,0,0.0000,0.0000,0.0000,0.0000,0.0000,0
20803,-0.0032,-0.0442,0.3058,0.0164,-0.0279,-0.0076,-0.40,0.94,-6.57,0,3.378,-0.803,3.982,2.257,0.009,-0.007,1.008,0.000,0.000,0.000,0.3080,9,0,-0.82,1.44,-6.72,0.0055,-0.0001,0.3072,-0.0234,-0.0453,0.3000,0.2642,-1.19,2.24,197.21,0.0000,0.0000,1.3090,1.3110,2.3970,0,0.0000,0.0000,0.0000,0.0000,0.0000,0
20854,-0.0012,-0.0478,0.3066,0.0122,-0.0290,0.0012,-0.30,0.92,-6.47,0,3.384,-5.932,13.819,4.516,0.012,-0.003,0.999,0.000,0.000,0.000,0.3060,5,1,-0.72,1.24,-6.64,0.0022,-0.0239,0.3068,-0.0234,-0.0453,0.3000,0.2631,-1.51,2.20,194.20,0.0000,0.2310,1.3110,1.3110,2.3960,0,0.0000,0.0000,0.0000,0.0000,0.0000,0
20905,-0.0028,-0.0463,0.3064,0.0001,-0.0178,0.0016,-0.60,0.23,-6.26,0,3.378,1.237,-7.951,6.533,0.018,-0.003,1.006,0.000,0.000,0.000,0.3070,0,-1,-1.00,0.55,-6.45,-0.0010,-0.0359,0.3062,-0.0234,-0.0453,0.3000,0.2631,-0.88,1.51,187.71,0.0000,0.2310,1.3110,1.3290,2.3960,0,0.0000,0.0000,0.0000,0.0000,0.0000,0
20956,-0.0044,-0.0528,0.3068,-0.0052,-0.0247,0.0053,-0.61,0.41,-5.94,0,3.384,2.006,-11.047,7.786,0.013,-0.010,0.999,0.000,0.000,0.000,0.3030,0,-2,-0.98,0.93,-6.08,0.0006,-0.0392,0.3072,-0.0234,-0.0453,0.3000,0.2626,-1.66,1.15,178.24,1.0550,0.0000,1.3040,1.3290,2.3970,0,0.0000,0.0000,0.0000,0.0000,0.0000,0
21007,-0.0041,-0.0560,0.3054,-0.0071,-0.0242,-0.0024,-0.45,0.98,-5.56,0,3.378,-1.741,3.214,8.138,0.009,-0.010,0.996,0.000,0.000,0.000,0.3070,-5,2,-0.92,1.46,-5.62,0.0048,-0.0417,0.3066,-0.0234,-0.0453,0.3000,0.2637,-1.86,1.08,166.84,1.0550,0.0000,1.3040,1.3330,2.3970,0,0.0000,0.0000,0.0000,0.0000,0.0000,0
