time_ms,pos_x,pos_y,pos_z,vel_x,vel_y,vel_z,roll,pitch,yaw,thrust,vbat,gyro_x,gyro_y,gyro_z,acc_x,acc_y,acc_z,rate_roll,rate_pitch,rate_yaw,range_z,flow_dx,flow_dy,mekf_roll,mekf_pitch,mekf_yaw,mekf_x,mekf_y,mekf_z,our_ref_x,our_ref_y,our_ref_z,our_thrust,our_roll_cmd,our_pitch_cmd,our_yaw_rate_cmd,multi_front,multi_back,multi_left,multi_right,multi_up,ai_feat_count,vo_x,vo_y,vo_sigma,pg_x,pg_y,lc_count
0,5.2604,3.5202,0.0104,0.0064,-0.0005,0.0103,0.19,-0.81,-3.24,0,3.959,-0.023,-0.082,-0.027,-0.019,0.001,1.000,0.000,0.000,0.000,0.0070,0,0,0.00,0.00,0.00,0.0000,0.0000,0.0000,0.0000,0.0000,0.0000,0.0000,0.00,0.00,0.00,0.9310,0.5290,1.1580,1.2490,2.7030,0,0.0000,0.0000,0.0000,0.0000,0.0000,0
101,5.2606,3.5201,0.0092,0.0036,-0.0015,0.0026,0.20,-0.78,-3.23,0,3.964,0.024,0.128,-0.064,-0.018,0.003,1.000,0.000,0.000,0.000,0.0090,-5,0,0.00,0.00,0.00,0.0000,0.0000,0.0000,0.0000,0.0000,0.0000,0.0000,0.00,0.00,0.00,0.9260,0.5090,1.1620,1.2500,2.7100,0,0.0000,0.0000,0.0000,0.0000,0.0000,0
202,5.2611,3.5207,0.0092,0.0041,0.0020,0.0023,0.18,-0.79,-3.22,0,3.959,-0.101,-0.186,0.082,-0.018,0.002,1.001,0.000,0.000,0.000,0.0090,3,1,0.00,0.00,0.00,0.0000,0.0000,0.0000,0.0000,0.0000,0.0000,0.0000,0.00,0.00,0.00,0.9260,0.5090,1.1620,1.2500,2.7100,0,0.0000,0.0000,0.0000,0.0000,0.0000,0
303,5.2604,3.5162,0.0093,-0.0016,-0.0209,0.0023,0.40,-0.79,-3.21,0,3.964,0.048,-0.103,-0.064,-0.016,0.003,1.001,0.000,0.000,0.000,0.0080,3,0,0.00,0.00,0.00,0.0000,0.0000,0.0000,0.0000,0.0000,0.0000,0.0000,0.00,0.00,0.00,0.9280,0.5200,1.1620,1.2510,2.7020,0,0.0000,0.0000,0.0000,0.0000,0.0000,0
404,5.2604,3.5152,0.0088,-0.0033,-0.0223,-0.0003,0.33,-0.79,-3.20,0,3.959,-0.004,0.269,0.012,-0.018,0.004,1.003,0.000,0.000,0.000,0.0080,0,0,0.00,0.00,0.00,0.0000,0.0000,0.0000,0.0000,0.0000,0.0000,0.0000,0.00,0.00,0.00,0.9280,0.5200,1.1620,1.2510,2.7020,0,0.0000,0.0000,0.0000,0.0000,0.0000,0
505,5.2600,3.5163,0.0085,-0.0063,-0.0119,-0.0009,0.29,-0.77,-3.19,0,3.964,0.111,-0.140,-0.063,-0.015,0.002,1.000,0.000,0.000,0.000,0.0070,4,2,0.00,0.00,0.00,0.0000,0.0000,0.0000,0.0000,0.0000,0.0000,0.0000,0.00,0.00,0.00,0.9240,0.5460,1.1580,1.2580,2.7180,0,0.0000,0.0000,0.0000,0.0000,0.0000,0
606,5.2605,3.5160,0.0078,-0.0032,-0.0105,-0.0037,0.25,-0.78,-3.18,0,3.954,-0.220,-0.238,0.191,-0.018,0.002,1.001,0.000,0.000,0.000,0.0060,-1,-2,0.00,0.00,0.00,0.0000,0.0000,0.0000,0.0000,0.0000,0.0000,0.0000,0.00,0.00,0.00,0.9240,0.5460,1.1580,1.2580,2.7180,0,0.0000,0.0000,0.0000,0.0000,0.0000,0
707,5.2595,3.5089,0.0067,-0.0091,-0.0433,-0.0076,0.38,-0.79,-3.16,0,3.964,-0.070,-0.289,0.084,-0.017,0.002,1.002,0.000,0.000,0.000,0.0070,-2,0,0.00,0.00,0.00,0.0000,0.0000,0.0000,0.0000,0.0000,0.0000,0.0000,0.00,0.00,0.00,0.9240,0.5230,1.1650,1.2450,2.7010,0,0.0000,0.0000,0.0000,0.0000,0.0000,0
808,5.2599,3.5089,0.0067,-0.0057,-0.0351,-0.0050,0.32,-0.79,-3.16,0,3.954,-0.272,-0.049,0.276,-0.016,0.005,1.003,0.000,0.000,0.000,0.0040,-3,2,0.00,0.00,0.00,0.0000,0.0000,0.0000,0.0000,0.0000,0.0000,0.0000,0.00,0.00,0.00,0.9240,0.5230,1.1650,1.2450,2.7010,0,0.0000,0.0000,0.0000,0.0000,0.0000,0
909,5.2597,3.5093,0.0052,-0.0069,-0.0263,-0.0100,0.24,-0.81,-3.15,0,3.970,-0.209,0.091,-0.035,-0.017,0.004,1.000,0.000,0.000,0.000,0.0080,-3,-2,0.00,0.00,0.00,0.0000,0.0000,0.0000,0.0000,0.0000,0.0000,0.0000,0.00,0.00,0.00,0.9210,0.5320,1.1650,1.2520,2.7060,0,0.0000,0.0000,0.0000,0.0000,0.0000,0
1010,5.2594,3.5087,0.0062,-0.0078,-0.0243,-0.0034,0.20,-0.81,-3.14,0,3.959,0.209,-0.228,0.005,-0.017,0.003,1.001,0.000,0.000,0.000,0.0080,-1,-2,0.00,0.00,0.00,0.0000,0.0000,0.0000,0.0000,0.0000,0.0000,0.0000,0.00,0.00,0.00,0.9210,0.5320,1.1650,1.2520,2.7060,0,0.0000,0.0000,0.0000,0.0000,0.0000,0
1111,5.2597,3.4998,0.0067,-0.0068,-0.0637,-0.0008,0.47,-0.85,-3.14,0,3.964,0.155,0.019,-0.040,-0.017,0.001,1.003,0.000,0.000,0.000,0.0070,1,1,0.00,0.00,0.00,0.0000,0.0000,0.0000,0.0000,0.0000,0.0000,0.0000,0.00,0.00,0.00,0.9200,0.5500,1.1640,1.2520,2.7130,0,0.0000,0.0000,0.0000,0.0000,0.0000,0
1212,5.2598,3.5011,0.0071,-0.0065,-0.0456,0.0021,0.40,-0.95,-3.13,0,3.954,-0.046,-0.018,-0.033,-0.018,0.003,1.001,0.000,0.000,0.000,0.0050,3,0,0.00,0.00,0.00,0.0000,0.0000,0.0000,0.0000,0.0000,0.0000,0.0000,0.00,0.00,0.00,0.9200,0.5500,1.1640,1.2520,2.7130,0,0.0000,0.0000,0.0000,0.0000,0.0000,0
1313,5.2622,3.5068,0.0070,0.0056,-0.0053,0.0028,0.04,-0.85,-3.12,0,3.964,0.024,0.052,-0.120,-0.016,0.001,1.003,0.000,0.000,0.000,0.0090,-1,-2,0.00,0.00,0.00,0.0000,0.0000,0.0000,0.0000,0.0000,0.0000,0.0000,0.00,0.00,0.00,0.9250,0.0000,1.1630,1.2470,2.7010,0,0.0000,0.0000,0.0000,0.0000,0.0000,0
1414,5.2620,3.5070,0.0081,0.0024,-0.0020,0.0085,0.07,-0.87,-3.11,0,3.954,0.181,-0.248,-0.522,-0.018,0.002,1.001,0.000,0.000,0.000,0.0060,-2,0,0.00,0.00,0.00,0.0000,0.0000,0.0000,0.0000,0.0000,0.0000,0.0000,0.00,0.00,0.00,0.9250,0.0000,1.1630,1.2470,2.7010,0,0.0000,0.0000,0.0000,0.0000,0.0000,0
1515,5.2622,3.5068,0.0074,0.0020,-0.0014,0.0038,0.01,-0.86,-3.11,0,3.964,0.142,0.049,-0.011,-0.016,-0.000,1.000,0.000,0.000,0.000,0.0070,-4,0,0.00,0.00,0.00,0.0000,0.0000,0.0000,0.0000,0.0000,0.0000,0.0000,0.00,0.00,0.00,0.9240,0.5420,1.1590,1.2500,2.7110,0,0.0000,0.0000,0.0000,0.0000,0.0000,0
1566,5.2618,3.5071,0.0074,-0.0015,0.0009,0.0031,-0.16,-0.87,-3.10,0,3.959,-0.172,-0.114,-0.239,-0.017,0.002,1.000,0.000,0.000,0.000,0.0080,4,3,0.00,0.00,0.00,0.0000,0.0000,0.0000,0.0000,0.0000,0.0000,0.0000,0.00,0.00,0.00,0.9240,0.5420,1.1590,1.2500,2.7110,0,0.0000,0.0000,0.0000,0.0000,0.0000,0
1617,5.2639,3.5163,0.0076,0.0094,0.0464,0.0034,-0.28,-0.89,-3.09,0,3.964,0.162,-0.056,-0.246,-0.016,0.004,1.001,0.000,0.000,0.000,0.0050,-3,0,0.00,0.00,0.00,0.0000,0.0000,0.0000,0.0000,0.0000,0.0000,0.0000,0.00,0.00,0.00,0.9210,0.0000,1.1640,1.2510,2.7110,0,0.0000,0.0000,0.0000,0.0000,0.0000,0
1668,5.2625,3.5132,0.0069,-0.0002,0.0216,0.0003,-0.10,-0.81,-3.08,0,3.954,-0.184,0.078,-0.428,-0.018,0.002,1.003,0.000,0.000,0.000,0.0070,-1,0,0.00,0.00,0.00,0.0000,0.0000,0.0000,0.0000,0.0000,0.0000,0.0000,0.00,0.00,0.00,0.9210,0.0000,1.1640,1.2510,2.7110,0,0.0000,0.0000,0.0000,0.0000,0.0000,0
1718,5.2627,3.5131,0.0070,0.0005,0.0176,0.0018,-0.02,-0.84,-3.07,0,3.964,-0.238,-0.132,0.392,-0.018,0.003,1.002,0.000,0.000,0.000,0.0100,0,0,0.00,0.00,0.00,0.0000,0.0000,0.0000,0.0000,0.0000,0.0000,0.0000,0.00,0.00,0.00,0.9260,0.0000,1.1630,1.2490,2.7050,0,0.0000,0.0000,0.0000,0.0000,0.0000,0
1770,5.2621,3.5132,0.0086,-0.0039,0.0140,0.0085,-0.22,-0.90,-3.06,0,3.954,-0.058,-0.150,-0.024,-0.016,0.003,1.003,0.000,0.000,0.000,0.0110,0,2,0.00,0.00,0.00,0.0000,0.0000,0.0000,0.0000,0.0000,0.0000,0.0000,0.00,0.00,0.00,0.9260,0.0000,1.1630,1.2490,2.7050,0,0.0000,0.0000,0.0000,0.0000,0.0000,0
1821,5.2627,3.5260,0.0100,-0.0012,0.0735,0.0135,-0.40,-0.85,-3.06,0,3.964,-0.074,-0.069,0.123,-0.019,0.002,0.998,0.000,0.000,0.000,0.0090,0,-1,0.00,0.00,0.00,0.0000,0.0000,0.0000,0.0000,0.0000,0.0000,0.0000,0.00,0.00,0.00,0.9180,0.0000,1.1630,1.2510,2.7120,0,0.0000,0.0000,0.0000,0.0000,0.0000,0
1872,5.2640,3.5396,0.0092,0.0048,0.1274,0.0061,-0.66,-0.90,-3.05,0,3.959,-0.027,0.007,-0.161,-0.018,0.003,1.000,0.000,0.000,0.000,0.0050,0,1,0.00,0.00,0.00,0.0000,0.0000,0.0000,0.0000,0.0000,0.0000,0.0000,0.00,0.00,0.00,0.9180,0.0000,1.1630,1.2510,2.7120,0,0.0000,0.0000,0.0000,0.0000,0.0000,0
1923,5.2626,3.5406,0.0082,-0.0050,0.1096,0.0008,-0.56,-0.83,-3.04,0,3.964,-0.090,-0.005,-0.096,-0.018,0.003,1.000,0.000,0.000,0.000,0.0060,1,0,0.00,0.00,0.00,0.0000,0.0000,0.0000,0.0000,0.0000,0.0000,0.0000,0.00,0.00,0.00,0.9370,0.4760,1.1630,1.2490,2.7070,0,0.0000,0.0000,0.0000,0.0000,0.0000,0
1974,5.2628,3.5405,0.0082,-0.0041,0.0852,0.0031,-0.32,-0.86,-3.03,0,3.954,0.243,-0.216,-0.333,-0.016,0.001,1.002,0.000,0.000,0.000,0.0050,-24,-1,0.00,0.00,0.00,0.0000,0.0000,0.0000,0.0000,0.0000,0.0000,0.0000,0.00,0.00,0.00,0.9370,0.4760,1.1630,1.2490,2.7070,0,0.0000,0.0000,0.0000,0.0000,0.0000,0
2025,5.2639,3.5454,0.0067,0.0013,0.0926,-0.0037,-0.56,-0.89,-3.02,0,3.964,0.296,-0.150,-0.347,-0.017,0.003,1.001,0.000,0.000,0.000,0.0090,5,3,0.00,0.00,0.00,0.0000,0.0000,0.0000,0.0000,0.0000,0.0000,0.0000,0.00,0.00,0.00,0.9340,0.0000,1.1640,1.2530,2.7150,0,0.0000,0.0000,0.0000,0.0000,0.0000,0
2076,5.2666,3.5509,0.0081,0.0136,0.0986,0.0043,-0.11,-1.00,-3.00,0,3.954,0.044,0.023,-0.221,-0.018,0.003,1.002,0.000,0.000,0.000,0.0070,0,-2,0.00,0.00,0.00,0.0000,0.0000,0.0000,0.0000,0.0000,0.0000,0.0000,0.00,0.00,0.00,0.9340,0.0000,1.1640,1.2530,2.7150,0,0.0000,0.0000,0.0000,0.0000,0.0000,0
2128,5.2654,3.5337,0.0084,0.0040,-0.0072,0.0083,0.49,-0.93,-2.98,0,3.964,-0.027,-0.298,-0.412,-0.017,0.003,1.002,0.000,0.000,0.000,0.0080,2,0,0.00,0.00,0.00,0.0000,0.0000,0.0000,0.0000,0.0000,0.0000,0.0000,0.00,0.00,0.00,0.9460,0.0000,1.1630,1.2500,2.7100,0,0.0000,0.0000,0.0000,0.0000,0.0000,0
2179,5.2654,3.5337,0.0087,0.0028,-0.0081,0.0085,0.43,-0.91,-2.98,0,3.959,-0.068,-0.355,0.355,-0.014,0.004,1.001,0.000,0.000,0.000,0.0090,0,-1,0.00,0.00,0.00,0.0000,0.0000,0.0000,0.0000,0.0000,0.0000,0.0000,0.00,0.00,0.00,0.9460,0.0000,1.1630,1.2500,2.7100,0,0.0000,0.0000,0.0000,0.0000,0.0000,0
2231,5.2652,3.5338,0.0092,0.0009,-0.0073,0.0091,0.43,-0.92,-2.97,0,3.964,0.130,-0.303,-0.277,-0.016,0.004,1.003,0.000,0.000,0.000,0.0060,0,4,0.00,0.00,0.00,0.0000,0.0000,0.0000,0.0000,0.0000,0.0000,0.0000,0.00,0.00,0.00,0.9440,0.0000,1.1620,1.2480,2.7060,0,0.0000,0.0000,0.0000,0.0000,0.0000,0
2282,5.2658,3.5335,0.0081,0.0030,-0.0085,0.0029,0.46,-0.88,-2.96,0,3.954,0.041,-0.372,-0.200,-0.016,0.003,1.002,0.000,0.000,0.000,0.0080,4,0,0.00,0.00,0.00,0.0000,0.0000,0.0000,0.0000,0.0000,0.0000,0.0000,0.00,0.00,0.00,0.9440,0.0000,1.1620,1.2480,2.7060,0,0.0000,0.0000,0.0000,0.0000,0.0000,0
2333,5.2527,3.5312,0.0079,-0.0641,-0.0205,0.0015,0.53,-0.43,-2.94,0,3.964,0.140,0.075,-0.111,-0.016,0.003,1.001,0.000,0.000,0.000,0.0090,-7,2,0.00,0.00,0.00,0.0000,0.0000,0.0000,0.0000,0.0000,0.0000,0.0000,0.00,0.00,0.00,0.9440,0.0000,1.1670,1.2540,2.7120,0,0.0000,0.0000,0.0000,0.0000,0.0000,0
2384,5.2536,3.5305,0.0088,-0.0509,-0.0224,0.0059,0.49,-0.57,-2.93,0,3.954,0.173,0.057,-0.165,-0.016,0.003,1.000,0.000,0.000,0.000,0.0090,0,0,0.00,0.00,0.00,0.0000,0.0000,0.0000,0.0000,0.0000,0.0000,0.0000,0.00,0.00,0.00,0.9440,0.0000,1.1670,1.2540,2.7120,0,0.0000,0.0000,0.0000,0.0000,0.0000,0
2435,5.2523,3.5217,0.0090,-0.0484,-0.0633,0.0059,0.77,-0.62,-2.93,0,3.964,-0.056,0.042,-0.081,-0.017,0.003,1.001,0.000,0.000,0.000,0.0090,0,0,0.00,0.00,0.00,0.0000,0.0000,0.0000,0.0000,0.0000,0.0000,0.0000,0.00,0.00,0.00,0.9400,0.0000,1.1610,1.2560,2.7110,0,0.0000,0.0000,0.0000,0.0000,0.0000,0
2486,5.2508,3.5172,0.0092,-0.0468,-0.0742,0.0060,0.89,-0.66,-2.93,0,3.954,-0.025,-0.340,-0.264,-0.017,0.004,1.002,0.000,0.000,0.000,0.0100,0,-3,0.00,0.00,0.00,0.0000,0.0000,0.0000,0.0000,0.0000,0.0000,0.0000,0.00,0.00,0.00,0.9400,0.0000,1.1610,1.2560,2.7110,0,0.0000,0.0000,0.0000,0.0000,0.0000,0
2537,5.2500,3.4995,0.0086,-0.0435,-0.1484,0.0004,1.25,-0.75,-2.93,0,3.964,-0.018,-0.270,0.239,-0.019,0.004,1.003,0.000,0.000,0.000,0.0090,2,1,0.00,0.00,0.00,0.0000,0.0000,0.0000,0.0000,0.0000,0.0000,0.0000,0.00,0.00,0.00,0.9340,0.0000,1.1620,1.2460,2.7110,0,0.0000,0.0000,0.0000,0.0000,0.0000,0
2588,5.2502,3.4982,0.0098,-0.0345,-0.1279,0.0076,0.99,-0.77,-2.92,0,3.954,-0.098,-0.008,-0.276,-0.015,0.002,1.003,0.000,0.000,0.000,0.0090,-4,0,0.00,0.00,0.00,0.0000,0.0000,0.0000,0.0000,0.0000,0.0000,0.0000,0.00,0.00,0.00,0.9340,0.0000,1.1620,1.2460,2.7110,0,0.0000,0.0000,0.0000,0.0000,0.0000,0
2640,5.2517,3.5057,0.0111,-0.0195,-0.0653,0.0153,0.49,-0.88,-2.92,0,3.964,-0.009,-0.259,-0.049,-0.016,0.003,1.001,0.000,0.000,0.000,0.0110,0,0,0.00,0.00,0.00,0.0000,0.0000,0.0000,0.0000,0.0000,0.0000,0.0000,0.00,0.00,0.00,0.9140,0.5120,1.1600,1.2480,2.7060,0,0.0000,0.0000,0.0000,0.0000,0.0000,0
2691,5.2517,3.5063,0.0120,-0.0149,-0.0469,0.0167,0.43,-0.89,-2.91,0,3.954,0.032,-0.012,-0.189,-0.019,0.000,0.999,0.000,0.000,0.000,0.0090,3,0,0.00,0.00,0.00,0.0000,0.0000,0.0000,0.0000,0.0000,0.0000,0.0000,0.00,0.00,0.00,0.9140,0.5120,1.1600,1.2480,2.7060,0,0.0000,0.0000,0.0000,0.0000,0.0000,0
2743,5.2521,3.5144,0.0114,-0.0101,0.0032,0.0117,0.04,-0.91,-2.90,0,3.964,-0.014,-0.110,-0.069,-0.019,0.003,1.001,0.000,0.000,0.000,0.0060,-3,1,0.00,0.00,0.00,0.0000,0.0000,0.0000,0.0000,0.0000,0.0000,0.0000,0.00,0.00,0.00,0.9280,0.5100,1.1630,1.2540,2.7050,0,0.0000,0.0000,0.0000,0.0000,0.0000,0
2794,5.2520,3.5139,0.0094,-0.0093,0.0011,0.0002,-0.01,-0.91,-2.89,0,3.954,-0.370,-0.277,-0.162,-0.015,0.004,1.003,0.000,0.000,0.000,0.0070,-1,1,0.00,0.00,0.00,0.0000,0.0000,0.0000,0.0000,0.0000,0.0000,0.0000,0.00,0.00,0.00,0.9280,0.5100,1.1630,1.2540,2.7050,0,0.0000,0.0000,0.0000,0.0000,0.0000,0
2845,5.2545,3.5127,0.0086,0.0064,-0.0047,-0.0037,0.11,-1.02,-2.89,0,3.964,-0.248,-0.135,-0.326,-0.017,0.003,1.000,0.000,0.000,0.000,0.0100,3,0,0.00,0.00,0.00,0.0000,0.0000,0.0000,0.0000,0.0000,0.0000,0.0000,0.00,0.00,0.00,0.9230,0.5500,1.1620,1.2530,2.7090,0,0.0000,0.0000,0.0000,0.0000,0.0000,0
2896,5.2556,3.5135,0.0092,0.0108,0.0022,0.0009,-0.03,-1.06,-2.89,0,3.954,-0.263,-0.060,-0.109,-0.016,0.003,1.001,0.000,0.000,0.000,0.0080,-3,0,0.00,0.00,0.00,0.0000,0.0000,0.0000,0.0000,0.0000,0.0000,0.0000,0.00,0.00,0.00,0.9230,0.5500,1.1620,1.2530,2.7090,0,0.0000,0.0000,0.0000,0.0000,0.0000,0
2948,5.2552,3.5133,0.0088,0.0064,0.0017,-0.0009,0.04,-0.97,-2.87,0,3.964,0.039,-0.386,-0.227,-0.017,0.002,1.001,0.000,0.000,0.000,0.0050,0,-1,0.00,0.00,0.00,0.0000,0.0000,0.0000,0.0000,0.0000,0.0000,0.0000,0.00,0.00,0.00,0.9290,0.5070,1.1640,1.2520,2.7020,0,0.0000,0.0000,0.0000,0.0000,0.0000,0
2999,5.2525,3.5034,0.0068,-0.0087,-0.0508,-0.0099,0.48,-0.90,-2.86,0,3.954,-0.330,-0.094,-0.152,-0.017,0.001,0.998,0.000,0.000,0.000,0.0120,-3,-2,0.00,0.00,0.00,0.0000,0.0000,0.0000,0.0000,0.0000,0.0000,0.0000,0.00,0.00,0.00,0.9290,0.5070,1.1640,1.2520,2.7020,0,0.0000,0.0000,0.0000,0.0000,0.0000,0
3050,5.2528,3.5031,0.0091,-0.0059,-0.0409,0.0042,0.32,-0.89,-2.85,0,3.964,0.194,0.017,0.062,-0.018,0.000,1.001,0.000,0.000,0.000,0.0100,3,0,0.00,0.00,0.00,0.0000,0.0000,0.0000,0.0000,0.0000,0.0000,0.0000,0.00,0.00,0.00,0.9280,0.5050,1.1600,1.2550,2.7080,0,0.0000,0.0000,0.0000,0.0000,0.0000,0
3101,5.2541,3.5120,0.0100,0.0017,0.0165,0.0078,-0.11,-0.98,-2.86,0,3.954,-0.145,0.004,-0.289,-0.018,0.002,1.001,0.000,0.000,0.000,0.0100,0,0,0.00,0.00,0.00,0.0000,0.0000,0.0000,0.0000,0.0000,0.0000,0.0000,0.00,0.00,0.00,0.9280,0.5050,1.1600,1.2550,2.7080,0,0.0000,0.0000,0.0000,0.0000,0.0000,0
3152,5.2542,3.5178,0.0101,0.0010,0.0464,0.0073,-0.32,-0.90,-2.86,0,3.964,-0.326,0.001,0.114,-0.017,0.003,1.003,0.000,0.000,0.000,0.0070,2,2,0.00,0.00,0.00,0.0000,0.0000,0.0000,0.0000,0.0000,0.0000,0.0000,0.00,0.00,0.00,0.9310,0.4800,1.1650,1.2520,2.7070,0,0.0000,0.0000,0.0000,0.0000,0.0000,0
3203,5.2546,3.5185,0.0091,0.0026,0.0415,0.0015,-0.23,-0.91,-2.84,0,3.954,-0.010,0.054,-0.022,-0.016,0.003,0.999,0.000,0.000,0.000,0.0110,2,0,0.00,0.00,0.00,0.0000,0.0000,0.0000,0.0000,0.0000,0.0000,0.0000,0.00,0.00,0.00,0.9310,0.4800,1.1650,1.2520,2.7070,0,0.0000,0.0000,0.0000,0.0000,0.0000,0
3255,5.2542,3.5185,0.0102,-0.0003,0.0338,0.0076,-0.11,-0.91,-2.83,0,3.964,0.075,-0.584,-0.161,-0.017,0.001,1.002,0.000,0.000,0.000,0.0070,-2,-2,0.00,0.00,0.00,0.0000,0.0000,0.0000,0.0000,0.0000,0.0000,0.0000,0.00,0.00,0.00,0.9290,0.0000,1.1620,1.2510,2.7070,0,0.0000,0.0000,0.0000,0.0000,0.0000,0
3306,5.2540,3.5187,0.0093,-0.0020,0.0289,0.0025,-0.36,-0.94,-2.83,0,3.948,-0.036,-0.200,-0.098,-0.016,0.002,1.002,0.000,0.000,0.000,0.0090,14,0,0.00,0.00,0.00,0.0000,0.0000,0.0000,0.0000,0.0000,0.0000,0.0000,0.00,0.00,0.00,0.9290,0.0000,1.1620,1.2510,2.7070,0,0.0000,0.0000,0.0000,0.0000,0.0000,0
3357,5.2557,3.5256,0.0091,0.0069,0.0574,0.0013,0.02,-0.91,-2.82,0,3.964,0.113,-0.248,0.016,-0.017,0.003,1.002,0.000,0.000,0.000,0.0090,0,0,0.00,0.00,0.00,0.0000,0.0000,0.0000,0.0000,0.0000,0.0000,0.0000,0.00,0.00,0.00,0.9290,0.5000,1.1620,1.2500,2.7080,0,0.0000,0.0000,0.0000,0.0000,0.0000,0
3408,5.2568,3.5179,0.0097,0.0118,0.0096,0.0047,0.11,-1.04,-2.80,0,3.954,-0.087,-0.323,-0.146,-0.019,0.003,1.003,0.000,0.000,0.000,0.0080,4,0,0.00,0.00,0.00,0.0000,0.0000,0.0000,0.0000,0.0000,0.0000,0.0000,0.00,0.00,0.00,0.9290,0.5000,1.1620,1.2500,2.7080,0,0.0000,0.0000,0.0000,0.0000,0.0000,0
3459,5.2573,3.5056,0.0087,0.0117,-0.0555,-0.0004,0.52,-0.99,-2.79,0,3.964,-0.030,0.068,-0.073,-0.017,0.001,1.001,0.000,0.000,0.000,0.0080,-1,0,0.00,0.00,0.00,0.0000,0.0000,0.0000,0.0000,0.0000,0.0000,0.0000,0.00,0.00,0.00,0.9320,0.0000,1.1640,1.2520,2.7050,0,0.0000,0.0000,0.0000,0.0000,0.0000,0
3510,5.2562,3.5082,0.0089,0.0029,-0.0306,0.0016,0.37,-0.97,-2.79,0,3.948,0.047,-0.065,-0.241,-0.015,0.003,1.001,0.000,0.000,0.000,0.0090,5,0,0.00,0.00,0.00,0.0000,0.0000,0.0000,0.0000,0.0000,0.0000,0.0000,0.00,0.00,0.00,0.9320,0.0000,1.1640,1.2520,2.7050,0,0.0000,0.0000,0.0000,0.0000,0.0000,0
3562,5.2568,3.5032,0.0090,0.0044,-0.0514,0.0020,0.47,-0.93,-2.78,0,3.964,-0.174,-0.050,0.134,-0.017,0.002,1.002,0.000,0.000,0.000,0.0080,-2,0,0.00,0.00,0.00,0.0000,0.0000,0.0000,0.0000,0.0000,0.0000,0.0000,0.00,0.00,0.00,0.9290,0.5220,1.1630,1.2510,2.7040,0,0.0000,0.0000,0.0000,0.0000,0.0000,0
3613,5.2569,3.5027,0.0088,0.0040,-0.0436,0.0006,0.37,-0.92,-2.77,0,3.954,0.034,-0.187,-0.105,-0.016,0.005,1.001,0.000,0.000,0.000,0.0090,-4,0,0.00,0.00,0.00,0.0000,0.0000,0.0000,0.0000,0.0000,0.0000,0.0000,0.00,0.00,0.00,0.9290,0.5220,1.1630,1.2510,2.7040,0,0.0000,0.0000,0.0000,0.0000,0.0000,0
3664,5.2570,3.5031,0.0090,0.0026,-0.0321,0.0027,0.26,-0.91,-2.76,0,3.964,-0.164,-0.072,-0.109,-0.018,0.002,1.001,0.000,0.000,0.000,0.0050,0,2,0.00,0.00,0.00,0.0000,0.0000,0.0000,0.0000,0.0000,0.0000,0.0000,0.00,0.00,0.00,0.9310,0.5390,1.1630,1.2530,2.7050,0,0.0000,0.0000,0.0000,0.0000,0.0000,0
3716,5.2554,3.5117,0.0072,-0.0074,0.0175,-0.0058,-0.07,-0.82,-2.76,0,3.948,-0.060,0.022,0.116,-0.016,0.005,1.001,0.000,0.000,0.000,0.0090,-5,0,0.00,0.00,0.00,0.0000,0.0000,0.0000,0.0000,0.0000,0.0000,0.0000,0.00,0.00,0.00,0.9310,0.5390,1.1630,1.2530,2.7050,0,0.0000,0.0000,0.0000,0.0000,0.0000,0
3768,5.2560,3.5113,0.0080,-0.0025,0.0144,-0.0007,-0.09,-0.87,-2.75,0,3.964,0.175,0.002,-0.139,-0.016,0.002,1.002,0.000,0.000,0.000,0.0070,0,-1,0.00,0.00,0.00,0.0000,0.0000,0.0000,0.0000,0.0000,0.0000,0.0000,0.00,0.00,0.00,0.9310,0.5290,1.1640,1.2500,2.7060,0,0.0000,0.0000,0.0000,0.0000,0.0000,0
3819,5.2618,3.5125,0.0076,0.0266,0.0187,-0.0019,-0.07,-1.02,-2.74,0,3.954,-0.118,-0.235,-0.195,-0.017,0.001,1.001,0.000,0.000,0.000,0.0060,3,2,0.00,0.00,0.00,0.0000,0.0000,0.0000,0.0000,0.0000,0.0000,0.0000,0.00,0.00,0.00,0.9310,0.5290,1.1640,1.2500,2.7060,0,0.0000,0.0000,0.0000,0.0000,0.0000,0
3870,-0.0000,-0.0000,0.0071,-0.0003,-0.0023,0.0000,-0.02,0.00,-0.00,0,3.964,-0.321,-0.262,-0.068,-0.017,0.003,1.001,0.000,0.000,0.000,0.0030,0,-1,0.00,0.00,0.00,0.0000,0.0000,0.0000,0.0000,0.0000,0.0000,0.0000,0.00,0.00,0.00,0.9280,0.5180,1.1640,1.2510,2.7070,0,0.0000,0.0000,0.0000,0.0000,0.0000,0
3921,-0.0003,-0.0002,0.0031,-0.0108,-0.0029,0.0007,-0.38,0.06,-0.01,0,3.954,-0.099,-0.171,-0.220,-0.019,0.004,0.998,0.000,0.000,0.000,0.0090,-5,-5,0.00,0.00,0.00,0.0000,0.0000,0.0000,0.0000,0.0000,0.0000,0.0000,0.00,0.00,0.00,0.9280,0.5180,1.1640,1.2510,2.7070,0,0.0000,0.0000,0.0000,0.0000,0.0000,0
3972,-0.0008,-0.0003,0.0064,-0.0150,-0.0014,0.0059,-0.00,-0.23,-0.01,0,3.964,0.007,0.118,0.156,-0.019,0.003,1.001,0.000,0.000,0.000,0.0090,2,0,0.00,0.00,0.00,0.0000,0.0000,0.0000,0.0000,0.0000,0.0000,0.0000,0.00,0.00,0.00,0.9310,0.5470,1.1620,1.2500,2.7020,0,0.0000,0.0000,0.0000,0.0000,0.0000,0
4023,-0.0008,0.0009,0.0079,-0.0126,0.0134,0.0102,-0.21,-0.37,-0.02,0,3.954,-0.134,0.013,-0.350,-0.017,0.001,1.001,0.000,0.000,0.000,0.0070,4,0,0.00,0.00,0.00,0.0000,0.0000,0.0000,0.0000,0.0000,0.0000,0.0000,0.00,0.00,0.00,0.9310,0.5470,1.1620,1.2500,2.7020,0,0.0000,0.0000,0.0000,0.0000,0.0000,0
4075,-0.0009,0.0066,0.0080,-0.0130,0.0692,0.0069,-1.19,-0.51,-0.03,0,3.964,0.046,0.088,-0.058,-0.017,0.004,1.002,0.000,0.000,0.000,0.0110,-1,0,0.00,0.00,0.00,0.0000,0.0000,0.0000,0.0000,0.0000,0.0000,0.0000,0.00,0.00,0.00,0.9280,0.5080,1.1610,1.2500,2.6990,0,0.0000,0.0000,0.0000,0.0000,0.0000,0
4126,-0.0009,0.0060,0.0101,-0.0102,0.0467,0.0174,0.18,-0.64,-0.02,0,3.954,0.098,-0.348,0.020,-0.017,0.002,1.002,0.000,0.000,0.000,0.0090,3,-1,0.00,0.00,0.00,0.0000,0.0000,0.0000,0.0000,0.0000,0.0000,0.0000,0.00,0.00,0.00,0.9280,0.5080,1.1610,1.2500,2.6990,0,0.0000,0.0000,0.0000,0.0000,0.0000,0
4178,-0.0016,0.0080,0.0107,-0.0136,0.0536,0.0167,-0.63,-0.65,-0.04,0,3.964,-0.204,-0.015,-0.073,-0.015,0.004,1.001,0.000,0.000,0.000,0.0090,0,-5,0.00,0.00,0.00,0.0000,0.0000,0.0000,0.0000,0.0000,0.0000,0.0000,0.00,0.00,0.00,0.9270,0.5430,1.1690,1.2500,2.6980,0,0.0000,0.0000,0.0000,0.0000,0.0000,0
4229,-0.0020,0.0060,0.0107,-0.0149,0.0260,0.0136,0.01,-0.66,-0.03,0,3.954,0.145,-0.197,-0.153,-0.017,0.004,1.001,0.000,0.000,0.000,0.0110,0,0,0.00,0.00,0.00,0.0000,0.0000,0.0000,0.0000,0.0000,0.0000,0.0000,0.00,0.00,0.00,0.9270,0.5430,1.1690,1.2500,2.6980,0,0.0000,0.0000,0.0000,0.0000,0.0000,0
4280,-0.0028,0.0152,0.0112,-0.0192,0.0860,0.0118,-1.10,-0.59,-0.05,0,3.964,0.072,0.191,-0.109,-0.017,0.003,1.002,0.000,0.000,0.000,0.0090,0,-1,0.00,0.00,0.00,0.0000,0.0000,0.0000,0.0000,0.0000,0.0000,0.0000,0.00,0.00,0.00,0.9320,0.0000,1.1580,1.2480,2.7090,0,0.0000,0.0000,0.0000,0.0000,0.0000,0
4331,-0.0034,0.0152,0.0110,-0.0195,0.0663,0.0099,-0.89,-0.77,-0.05,0,3.954,-0.396,-0.082,-0.308,-0.015,0.003,0.998,0.000,0.000,0.000,0.0090,8,-1,0.00,0.00,0.00,0.0000,0.0000,0.0000,0.0000,0.0000,0.0000,0.0000,0.00,0.00,0.00,0.9320,0.0000,1.1580,1.2480,2.7090,0,0.0000,0.0000,0.0000,0.0000,0.0000,0
4382,-0.0025,0.0237,0.0102,-0.0110,0.1043,0.0031,-0.80,-0.75,-0.06,0,3.964,-0.075,0.131,0.079,-0.016,0.003,1.001,0.000,0.000,0.000,0.0100,7,-1,0.00,0.00,0.00,0.0000,0.0000,0.0000,0.0000,0.0000,0.0000,0.0000,0.00,0.00,0.00,0.9320,0.0000,1.1620,1.2470,2.7060,0,0.0000,0.0000,0.0000,0.0000,0.0000,0
4433,-0.0029,0.0250,0.0105,-0.0114,0.0911,0.0050,-0.56,-0.78,-0.06,0,3.954,-0.227,-0.138,-0.302,-0.017,0.003,1.002,0.000,0.000,0.000,0.0090,14,2,0.00,0.00,0.00,0.0000,0.0000,0.0000,0.0000,0.0000,0.0000,0.0000,0.00,0.00,0.00,0.9320,0.0000,1.1620,1.2470,2.7060,0,0.0000,0.0000,0.0000,0.0000,0.0000,0
4484,-0.0012,0.0156,0.0107,-0.0013,0.0242,0.0065,0.39,-0.85,-0.04,0,3.964,-0.016,-0.240,0.009,-0.016,0.003,1.002,0.000,0.000,0.000,0.0100,4,0,0.00,0.00,0.00,0.0000,0.0000,0.0000,0.0000,0.0000,0.0000,0.0000,0.00,0.00,0.00,0.9310,0.4980,1.1610,1.2510,2.7000,0,0.0000,0.0000,0.0000,0.0000,0.0000,0
4535,-0.0017,0.0156,0.0108,-0.0036,0.0198,0.0057,0.34,-0.89,-0.05,0,3.954,0.146,0.080,-0.116,-0.017,0.002,1.002,0.000,0.000,0.000,0.0110,5,6,0.00,0.00,0.00,0.0000,0.0000,0.0000,0.0000,0.0000,0.0000,0.0000,0.00,0.00,0.00,0.9310,0.4980,1.1610,1.2510,2.7000,0,0.0000,0.0000,0.0000,0.0000,0.0000,0
4586,0.0003,0.0082,0.0111,0.0066,-0.0226,0.0068,0.58,-0.85,-0.05,0,3.964,-0.016,-0.204,-0.245,-0.015,0.002,1.002,0.000,0.000,0.000,0.0060,3,8,0.00,0.00,0.00,0.0000,0.0000,0.0000,0.0000,0.0000,0.0000,0.0000,0.00,0.00,0.00,0.9270,0.4910,1.1640,1.2540,2.7130,0,0.0000,0.0000,0.0000,0.0000,0.0000,0
4637,0.0003,0.0079,0.0090,0.0062,-0.0203,-0.0034,0.40,-0.86,-0.06,0,3.954,0.015,-0.278,-0.227,-0.019,0.002,1.001,0.000,0.000,0.000,0.0060,8,-1,0.00,0.00,0.00,0.0000,0.0000,0.0000,0.0000,0.0000,0.0000,0.0000,0.00,0.00,0.00,0.9270,0.4910,1.1640,1.2540,2.7130,0,0.0000,0.0000,0.0000,0.0000,0.0000,0
4689,0.0002,0.0244,0.0073,0.0052,0.0646,-0.0105,-0.24,-0.95,-0.09,0,3.964,-0.227,-0.063,-0.231,-0.017,0.002,1.000,0.000,0.000,0.000,0.0080,0,0,0.00,0.00,0.00,0.0000,0.0000,0.0000,0.0000,0.0000,0.0000,0.0000,0.00,0.00,0.00,0.9340,0.5160,1.1640,1.2570,2.7070,0,0.0000,0.0000,0.0000,0.0000,0.0000,0
4740,-0.0000,0.0221,0.0076,0.0020,0.0417,-0.0060,-0.40,-0.92,-0.10,0,3.954,0.021,-0.113,-0.038,-0.021,0.004,1.002,0.000,0.000,0.000,0.0110,2,0,0.00,0.00,0.00,0.0000,0.0000,0.0000,0.0000,0.0000,0.0000,0.0000,0.00,0.00,0.00,0.9340,0.5160,1.1640,1.2570,2.7070,0,0.0000,0.0000,0.0000,0.0000,0.0000,0
4791,-0.0015,0.0208,0.0094,-0.0062,0.0245,0.0041,0.04,-0.86,-0.08,0,3.964,0.090,-0.041,0.023,-0.016,0.004,1.001,0.000,0.000,0.000,0.0070,-3,2,0.00,0.00,0.00,0.0000,0.0000,0.0000,0.0000,0.0000,0.0000,0.0000,0.00,0.00,0.00,0.9270,0.5170,1.1630,1.2490,2.7050,0,0.0000,0.0000,0.0000,0.0000,0.0000,0
4842,-0.0008,0.0117,0.0084,-0.0020,-0.0258,-0.0011,0.44,-0.85,-0.07,0,3.954,0.035,-0.038,-0.462,-0.016,0.006,1.001,0.000,0.000,0.000,0.0060,-3,0,0.00,0.00,0.00,0.0000,0.0000,0.0000,0.0000,0.0000,0.0000,0.0000,0.00,0.00,0.00,0.9270,0.5170,1.1630,1.2490,2.7050,0,0.0000,0.0000,0.0000,0.0000,0.0000,0
4893,-0.0012,0.0128,0.0073,-0.0045,-0.0175,-0.0054,0.39,-0.88,-0.08,0,3.964,-0.040,0.359,-0.180,-0.017,0.004,0.999,0.000,0.000,0.000,0.0080,-8,-1,0.00,0.00,0.00,0.0000,0.0000,0.0000,0.0000,0.0000,0.0000,0.0000,0.00,0.00,0.00,0.9330,0.5160,1.1630,1.2510,2.7160,0,0.0000,0.0000,0.0000,0.0000,0.0000,0
4944,-0.0012,0.0117,0.0075,-0.0044,-0.0206,-0.0032,0.13,-0.89,-0.09,0,3.954,-0.091,-0.195,0.180,-0.016,0.004,1.001,0.000,0.000,0.000,0.0080,4,1,0.00,0.00,0.00,0.0000,0.0000,0.0000,0.0000,0.0000,0.0000,0.0000,0.00,0.00,0.00,0.9330,0.5160,1.1630,1.2510,2.7160,0,0.0000,0.0000,0.0000,0.0000,0.0000,0
4995,-0.0014,0.0220,0.0076,-0.0052,0.0313,-0.0013,0.01,-0.83,-0.10,0,3.959,0.153,-0.094,0.102,-0.016,0.004,1.003,0.000,0.000,0.000,0.0100,8,-2,0.00,0.00,0.00,0.0000,0.0000,0.0000,0.0000,0.0000,0.0000,0.0000,0.00,0.00,0.00,0.9250,0.0000,1.1600,1.2500,2.7070,0,0.0000,0.0000,0.0000,0.0000,0.0000,0
5046,-0.0022,0.0222,0.0088,-0.0080,0.0275,0.0056,0.27,-0.89,-0.10,0,3.954,-0.331,-0.291,0.003,-0.019,0.002,1.003,0.000,0.000,0.000,0.0070,-2,-1,0.00,0.00,0.00,0.0000,0.0000,0.0000,0.0000,0.0000,0.0000,0.0000,0.00,0.00,0.00,0.9250,0.0000,1.1600,1.2500,2.7070,0,0.0000,0.0000,0.0000,0.0000,0.0000,0
5097,0.0007,0.0118,0.0082,0.0061,-0.0269,0.0021,0.42,-0.93,-0.10,0,3.542,-3.225,0.247,-1.743,-0.011,-0.007,1.004,0.000,0.000,0.000,0.0060,3,-3,0.00,0.00,0.00,0.0000,0.0000,0.0000,0.0000,0.0000,0.0000,0.0000,0.00,0.00,0.00,0.9240,0.5500,1.1630,1.2480,2.7140,0,0.0000,0.0000,0.0000,0.0000,0.0000,0
5149,0.0002,0.0108,0.0074,0.0033,-0.0266,-0.0012,0.47,-0.96,-0.11,0,3.616,0.192,-0.009,-0.976,-0.021,-0.016,1.008,0.000,0.000,0.000,0.0080,0,0,0.00,0.00,0.00,0.0000,0.0000,0.0000,0.0000,0.0000,0.0000,0.0000,0.00,0.00,0.00,0.9240,0.5500,1.1630,1.2480,2.7140,0,0.0000,0.0000,0.0000,0.0000,0.0000,0
5201,0.0012,-0.0015,0.0071,0.0137,-0.0832,-0.0025,0.78,-0.92,-0.11,0,3.663,-3.800,-1.186,-1.604,-0.018,-0.004,1.023,0.000,0.000,0.000,0.0090,0,0,0.00,0.00,0.00,0.0000,0.0000,0.0000,0.0000,0.0000,0.0000,0.0000,0.00,0.00,0.00,0.9330,0.5450,1.1600,1.2510,2.7060,0,0.0000,0.0000,0.0000,0.0000,0.0000,0
5252,0.0021,-0.0058,0.0080,0.0218,-0.0900,0.0070,0.73,-0.93,-0.11,0,3.690,0.577,-0.126,2.214,-0.005,-0.009,1.007,0.000,0.000,0.000,0.0070,0,0,0.00,0.00,0.00,0.0000,0.0000,0.0000,0.0000,0.0000,0.0000,0.0000,0.00,0.00,0.00,0.9330,0.5450,1.1600,1.2510,2.7060,0,0.0000,0.0000,0.0000,0.0000,0.0000,0
5303,0.0034,-0.0105,0.0078,0.0297,-0.0961,0.0051,0.68,-0.93,-0.10,0,3.700,-1.267,-1.274,-0.810,-0.023,0.000,0.971,0.000,0.000,0.000,0.0080,0,0,0.00,0.00,0.00,0.0000,0.0000,0.0000,0.0000,0.0000,0.0000,0.0000,0.00,0.00,0.00,0.9390,0.5460,1.1620,1.2540,2.7040,0,0.0000,0.0000,0.0000,0.0000,0.0000,0
5354,0.0051,-0.0154,0.0081,0.0376,-0.1019,0.0025,0.63,-0.91,-0.08,0,3.700,-2.673,-5.415,-4.538,-0.018,-0.015,1.004,0.000,0.000,0.000,0.0070,-7,-9,0.00,0.00,0.00,0.0000,0.0000,0.0000,0.0000,0.0000,0.0000,0.0000,0.00,0.00,0.00,0.9390,0.5460,1.1620,1.2540,2.7040,0,0.0000,0.0000,0.0000,0.0000,0.0000,0
5405,0.0071,-0.0207,0.0077,0.0455,-0.1072,0.0014,0.28,-1.11,-0.26,0,3.700,3.303,-4.331,-11.334,-0.029,0.001,1.015,0.000,0.000,0.000,0.0100,3,-6,0.00,0.00,0.00,0.0000,0.0000,0.0000,0.0000,0.0000,0.0000,0.0000,0.00,0.00,0.00,0.9390,0.0000,1.1650,1.2480,2.7160,0,0.0000,0.0000,0.0000,0.0000,0.0000,0
5456,0.0228,-0.0067,0.0091,0.1042,-0.0374,0.0092,-0.01,-1.60,-0.77,0,3.690,-4.124,0.585,2.986,-0.035,-0.014,0.997,0.000,0.000,0.000,0.0080,4,-15,0.00,0.00,0.00,0.0000,0.0000,0.0000,0.0000,0.0000,0.0000,0.0000,0.00,0.00,0.00,0.9390,0.0000,1.1650,1.2480,2.7160,0,0.0000,0.0000,0.0000,0.0000,0.0000,0
5507,0.0561,-0.0058,0.0071,0.2182,-0.0269,-0.0030,-0.15,-2.22,-0.78,0,3.695,1.705,5.928,5.809,-0.029,-0.001,1.023,0.000,0.000,0.000,0.0090,-2,0,0.00,0.00,0.00,0.0000,0.0000,0.0000,0.0000,0.0000,0.0000,0.0000,0.00,0.00,0.00,0.9370,0.5520,1.1590,1.2480,2.7060,0,0.0000,0.0000,0.0000,0.0000,0.0000,0
5558,0.0723,-0.0057,0.0076,0.2510,-0.0196,0.0025,-0.03,-1.61,-0.41,0,3.695,5.201,-3.682,2.686,-0.020,-0.005,0.997,0.000,0.000,0.000,0.0100,0,0,0.00,0.00,0.00,0.0000,0.0000,0.0000,0.0000,0.0000,0.0000,0.0000,0.00,0.00,0.00,0.9370,0.5520,1.1590,1.2480,2.7060,0,0.0000,0.0000,0.0000,0.0000,0.0000,0
5609,0.0663,-0.0069,0.0113,0.1953,-0.0205,0.0225,0.07,-1.27,-0.22,0,3.690,1.537,-5.268,-2.489,-0.016,-0.011,0.996,0.000,0.000,0.000,0.0090,5,-3,0.00,0.00,0.00,0.0000,0.0000,0.0000,0.0000,0.0000,0.0000,0.0000,0.00,0.00,0.00,0.9420,0.5050,1.1660,1.2560,2.7010,0,0.0000,0.0000,0.0000,0.0000,0.0000,0
5661,0.0678,-0.0066,0.0122,0.1709,-0.0151,0.0256,-0.05,-0.79,-0.23,0,3.690,-3.475,-12.071,8.441,-0.019,-0.003,1.011,0.000,0.000,0.000,0.0100,-3,0,0.00,0.00,0.00,0.0000,0.0000,0.0000,0.0000,0.0000,0.0000,0.0000,0.00,0.00,0.00,0.9420,0.5050,1.1660,1.2560,2.7010,0,0.0000,0.0000,0.0000,0.0000,0.0000,0
5712,0.0643,-0.0106,0.0133,0.1289,-0.0279,0.0355,0.01,0.44,0.07,0,3.684,-3.602,-14.820,2.512,0.006,-0.016,1.011,0.000,0.000,0.000,0.0070,6,-3,0.00,0.00,0.00,0.0000,0.0000,0.0000,0.0000,0.0000,0.0000,0.0000,0.00,0.00,0.00,0.9470,0.0000,1.1650,1.2550,2.7040,0,0.0000,0.0000,0.0000,0.0000,0.0000,0
5763,0.0564,-0.0158,0.0121,0.0680,-0.0458,0.0272,0.18,1.69,0.31,0,3.679,-16.580,-16.590,2.170,0.013,-0.023,0.998,0.000,0.000,0.000,0.0130,5,0,0.00,0.00,0.00,0.0000,0.0000,0.0000,0.0000,0.0000,0.0000,0.0000,0.00,0.00,0.00,0.9470,0.0000,1.1650,1.2550,2.7040,0,0.0000,0.0000,0.0000,0.0000,0.0000,0
5814,0.0618,-0.0250,0.0137,0.0616,-0.0742,0.0378,-0.40,2.68,0.37,0,3.674,-7.236,-27.445,2.602,0.035,-0.032,0.977,0.000,0.000,0.000,0.0110,-2,-2,0.00,0.00,0.00,0.0000,0.0000,0.0000,0.0000,0.0000,0.0000,0.0000,0.00,0.00,0.00,0.9640,0.0000,1.1660,1.2610,2.6970,0,0.0000,0.0000,0.0000,0.0000,0.0000,0
5865,0.0585,-0.0288,0.0136,0.0138,-0.0694,0.0199,-1.13,3.88,0.51,0,3.658,-5.426,-18.607,4.935,0.035,-0.011,1.031,0.000,0.000,0.000,0.0020,-1,14,0.00,0.00,0.00,0.0000,0.0000,0.0000,0.0000,0.0000,0.0000,0.0000,0.00,0.00,0.00,0.9640,0.0000,1.1660,1.2610,2.6970,0,0.0000,0.0000,0.0000,0.0000,0.0000,0
5916,0.0526,-0.0280,0.0087,-0.0462,-0.0420,-0.0031,-1.66,5.40,0.82,0,3.642,-36.801,-5.893,-6.711,0.031,-0.022,0.959,0.000,0.000,0.000,0.0000,0,7,0.00,0.00,0.00,0.0000,0.0000,0.0000,0.0000,0.0000,0.0000,0.0000,0.00,0.00,0.00,0.9960,0.2850,1.1630,1.2720,2.6950,0,0.0000,0.0000,0.0000,0.0000,0.0000,0
5968,0.0355,-0.0232,0.0024,-0.1511,0.0034,-0.0347,-3.54,5.83,0.72,0,3.632,-30.666,10.563,-6.193,0.022,-0.018,0.992,0.000,0.000,0.000,0.0000,-18,-10,0.00,0.00,0.00,0.0000,0.0000,0.0000,0.0000,0.0000,0.0000,0.0000,0.00,0.00,0.00,0.9960,0.2850,1.1630,1.2720,2.6950,0,0.0000,0.0000,0.0000,0.0000,0.0000,0
6019,0.0226,-0.0141,-0.0024,-0.2243,0.0731,-0.0570,-5.25,5.40,0.63,0,3.621,69.788,44.334,-6.161,0.010,-0.024,1.012,0.000,0.000,0.000,0.0000,0,0,0.00,0.00,0.00,0.0000,0.0000,0.0000,0.0000,0.0000,0.0000,0.0000,0.00,0.00,0.00,1.0140,0.2760,1.1150,1.2870,2.7020,0,0.0000,0.0000,0.0000,0.0000,0.0000,0
6070,0.0040,0.0181,-0.0142,-0.3110,0.2439,-0.1169,-3.59,4.36,0.54,0,3.605,49.926,55.470,-1.093,0.004,-0.027,1.069,0.000,0.000,0.000,0.0000,-60,69,0.00,0.00,0.00,0.0000,0.0000,0.0000,0.0000,0.0000,0.0000,0.0000,0.00,0.00,0.00,1.0140,0.2760,1.1150,1.2870,2.7020,0,0.0000,0.0000,0.0000,0.0000,0.0000,0
6121,-0.0328,0.0526,-0.0293,-0.4497,0.3744,-0.1572,-2.16,2.93,0.68,0,3.579,47.904,73.491,-0.526,-0.007,-0.015,1.085,0.000,0.000,0.000,0.0000,-22,31,0.00,0.00,0.00,0.0000,0.0000,0.0000,0.0000,0.0000,0.0000,0.0000,0.00,0.00,0.00,0.9860,0.0000,1.1610,1.2570,2.7030,0,0.0000,0.0000,0.0000,0.0000,0.0000,0
6172,-0.0812,0.0934,-0.0456,-0.5931,0.4917,-0.1791,-0.87,0.31,0.61,0,3.595,109.699,93.677,-0.377,-0.004,-0.029,1.139,0.000,0.000,0.000,0.0000,-32,33,0.00,0.00,0.00,0.0000,0.0000,0.0000,0.0000,0.0000,0.0000,0.0000,0.00,0.00,0.00,0.9860,0.0000,1.1610,1.2570,2.7030,0,0.0000,0.0000,0.0000,0.0000,0.0000,0
6222,-0.1225,0.1235,-0.0302,-0.6272,0.5080,-0.0087,4.26,-4.54,0.65,0,3.632,37.576,73.998,-12.416,0.004,-0.030,1.072,0.000,0.000,0.000,0.0000,4,5,0.00,0.00,0.00,0.0000,0.0000,0.0000,0.0000,0.0000,0.0000,0.0000,0.00,0.00,0.00,0.0000,0.0000,1.1540,0.0000,2.7320,0,0.0000,0.0000,0.0000,0.0000,0.0000,0
6274,-0.1460,0.1414,-0.0038,-0.5232,0.4092,0.1711,8.52,-9.12,0.62,0,3.648,-43.017,31.965,-10.561,0.010,-0.011,1.031,0.000,0.000,0.000,0.0070,5,-15,0.00,0.00,0.00,0.0000,0.0000,0.0000,0.0000,0.0000,0.0000,0.0000,0.00,0.00,0.00,0.0000,0.0000,1.1540,0.0000,2.7320,0,0.0000,0.0000,0.0000,0.0000,0.0000,0
6325,-0.1411,0.1312,0.0196,-0.2871,0.1886,0.2667,7.44,-12.51,0.44,0,3.648,-3.077,-47.278,-9.415,-0.002,-0.014,0.958,0.000,0.000,0.000,0.0190,8,-9,0.00,0.00,0.00,0.0000,0.0000,0.0000,0.0000,0.0000,0.0000,0.0000,0.00,0.00,0.00,0.1980,0.0000,1.1530,0.0000,2.7990,0,0.0000,0.0000,0.0000,0.0000,0.0000,0
6376,-0.1252,0.1193,0.0316,-0.0613,0.0363,0.2507,7.37,-11.54,-0.13,0,3.626,-65.923,-92.080,-4.383,-0.009,-0.014,0.931,0.000,0.000,0.000,0.0290,9,-11,0.00,0.00,0.00,0.0000,0.0000,0.0000,0.0000,0.0000,0.0000,0.0000,0.00,0.00,0.00,0.1980,0.0000,1.1530,0.0000,2.7990,0,0.0000,0.0000,0.0000,0.0000,0.0000,0
6427,-0.1054,0.1160,0.0372,0.1145,-0.0316,0.1832,4.49,-7.57,-1.12,0,3.621,-60.567,-89.563,0.916,-0.024,-0.012,0.966,0.000,0.000,0.000,0.0370,10,-9,0.00,0.00,0.00,0.0000,0.0000,0.0000,0.0000,0.0000,0.0000,0.0000,0.00,0.00,0.00,0.0000,0.3050,1.1660,1.2100,2.7240,0,0.0000,0.0000,0.0000,0.0000,0.0000,0
6478,-0.0974,0.1061,0.0424,0.1686,-0.0970,0.1538,1.47,-2.91,-1.09,0,3.600,-39.024,-62.043,-3.556,-0.014,-0.005,0.974,0.000,0.000,0.000,0.0390,5,-20,0.00,0.00,0.00,0.0000,0.0000,0.0000,0.0000,0.0000,0.0000,0.0000,0.00,0.00,0.00,0.0000,0.3050,1.1660,1.2100,2.7240,0,0.0000,0.0000,0.0000,0.0000,0.0000,0
6529,-0.0958,0.0854,0.0457,0.1589,-0.1838,0.1214,-0.12,0.46,-0.85,0,3.595,-57.484,-61.530,-15.793,-0.020,0.006,0.994,0.000,0.000,0.000,0.0430,-4,-6,0.00,0.00,0.00,0.0000,0.0000,0.0000,0.0000,0.0000,0.0000,0.0000,0.00,0.00,0.00,0.8780,0.3600,1.1870,1.2350,2.6660,0,0.0000,0.0000,0.0000,0.0000,0.0000,0
6580,-0.0787,0.0785,0.0488,0.1972,-0.1726,0.1070,-2.91,3.45,-1.61,0,3.579,12.668,-17.549,-15.464,-0.003,0.006,1.036,0.000,0.000,0.000,0.0450,12,-26,0.00,0.00,0.00,0.0000,0.0000,0.0000,0.0000,0.0000,0.0000,0.0000,0.00,0.00,0.00,0.8780,0.3600,1.1870,1.2350,2.6660,0,0.0000,0.0000,0.0000,0.0000,0.0000,0
6631,-0.0457,0.0580,0.0456,0.2879,-0.2114,0.0689,-2.14,3.36,-2.40,0,3.574,0.451,-59.444,-5.313,-0.005,-0.006,1.037,0.000,0.000,0.000,0.0470,11,-17,0.00,0.00,0.00,0.0000,0.0000,0.0000,0.0000,0.0000,0.0000,0.0000,0.00,0.00,0.00,0.0000,0.3070,1.2080,1.2290,2.6600,0,0.0000,0.0000,0.0000,0.0000,0.0000,0
6682,-0.0158,0.0375,0.0431,0.3353,-0.2412,0.0501,-1.73,5.64,-2.70,0,3.579,-60.966,-43.033,6.025,-0.011,-0.002,1.041,0.000,0.000,0.000,0.0790,-3,-21,0.00,0.00,0.00,0.0000,0.0000,0.0000,0.0000,0.0000,0.0000,0.0000,0.00,0.00,0.00,0.0000,0.3070,1.2080,1.2290,2.6600,0,0.0000,0.0000,0.0000,0.0000,0.0000,0
6733,0.0082,0.0254,0.0616,0.3179,-0.2153,0.1366,-4.74,7.93,-2.26,0,3.600,-8.946,5.363,8.563,-0.014,0.004,1.036,0.000,0.000,0.000,0.0780,0,-1,0.00,0.00,0.00,0.0000,0.0000,0.0000,0.0000,0.0000,0.0000,0.0000,0.00,0.00,0.00,0.7730,0.0000,1.2210,1.2460,2.6740,0,0.0000,0.0000,0.0000,0.0000,0.0000,0
6784,0.0215,0.0252,0.0764,0.2421,-0.1199,0.1842,-6.19,8.04,-1.66,0,3.595,33.183,18.252,11.095,-0.005,-0.005,1.018,0.000,0.000,0.000,0.0820,5,0,0.00,0.00,0.00,0.0000,0.0000,0.0000,0.0000,0.0000,0.0000,0.0000,0.00,0.00,0.00,0.7730,0.0000,1.2210,1.2460,2.6740,0,0.0000,0.0000,0.0000,0.0000,0.0000,0
6835,0.0333,0.0228,0.0878,0.1595,-0.0423,0.1934,-4.71,7.22,-1.30,0,3.595,19.095,17.968,10.363,-0.000,-0.012,1.007,0.000,0.000,0.000,0.0830,6,0,0.00,0.00,0.00,0.0000,0.0000,0.0000,0.0000,0.0000,0.0000,0.0000,0.00,0.00,0.00,0.0000,0.1640,1.2390,1.3020,2.6750,0,0.0000,0.0000,0.0000,0.0000,0.0000,0
6886,0.0362,0.0211,0.0927,0.0980,-0.0123,0.1784,-3.60,6.47,-0.88,0,3.584,21.420,25.099,10.259,0.000,-0.018,1.018,0.000,0.000,0.000,0.0860,0,3,0.00,0.00,0.00,0.0000,0.0000,0.0000,0.0000,0.0000,0.0000,0.0000,0.00,0.00,0.00,0.0000,0.1640,1.2390,1.3020,2.6750,0,0.0000,0.0000,0.0000,0.0000,0.0000,0
6937,0.0391,0.0187,0.0960,0.0400,0.0062,0.1534,-2.49,5.30,-0.55,0,3.584,24.080,35.437,11.667,0.003,-0.015,1.019,0.000,0.000,0.000,0.0870,0,10,0.00,0.00,0.00,0.0000,0.0000,0.0000,0.0000,0.0000,0.0000,0.0000,0.00,0.00,0.00,0.7360,0.1900,1.2470,1.2520,2.6570,0,0.0000,0.0000,0.0000,0.0000,0.0000,0
6988,0.0379,0.0163,0.0982,-0.0149,0.0113,0.1312,-1.22,3.64,-0.20,0,3.568,10.031,15.142,14.700,0.009,-0.016,1.039,0.000,0.000,0.000,0.0880,-4,2,0.00,0.00,0.00,0.0000,0.0000,0.0000,0.0000,0.0000,0.0000,0.0000,0.00,0.00,0.00,0.7360,0.1900,1.2470,1.2520,2.6570,0,0.0000,0.0000,0.0000,0.0000,0.0000,0
7039,0.0341,0.0150,0.0982,-0.0580,0.0129,0.1135,-0.64,2.63,0.52,0,3.563,13.756,25.073,14.670,0.003,-0.018,1.046,0.000,0.000,0.000,0.0810,-2,1,0.00,0.00,0.00,0.0000,0.0000,0.0000,0.0000,0.0000,0.0000,0.0000,0.00,0.00,0.00,0.7420,0.2420,1.2500,1.2340,2.6340,0,0.0000,0.0000,0.0000,0.0000,0.0000,0
7090,0.0302,0.0139,0.0952,-0.0852,0.0102,0.0909,-0.02,1.53,1.19,0,3.552,4.900,26.736,10.794,0.012,-0.015,1.060,0.000,0.000,0.000,0.0860,0,10,0.00,0.00,0.00,0.0000,0.0000,0.0000,0.0000,0.0000,0.0000,0.0000,0.00,0.00,0.00,0.7420,0.2420,1.2500,1.2340,2.6340,0,0.0000,0.0000,0.0000,0.0000,0.0000,0
7141,0.0253,0.0144,0.0945,-0.1017,0.0109,0.0896,0.39,0.12,1.77,0,3.563,2.234,21.070,8.976,0.009,-0.017,1.079,0.000,0.000,0.000,0.0900,0,5,0.00,0.00,0.00,0.0000,0.0000,0.0000,0.0000,0.0000,0.0000,0.0000,0.00,0.00,0.00,0.7850,0.2470,1.2550,1.2260,2.6200,0,0.0000,0.0000,0.0000,0.0000,0.0000,0
7192,0.0198,0.0138,0.0967,-0.1061,0.0032,0.1077,0.49,-1.00,2.27,0,3.552,1.993,9.405,5.633,0.010,-0.019,1.075,0.000,0.000,0.000,0.0930,0,4,0.00,0.00,0.00,0.0000,0.0000,0.0000,0.0000,0.0000,0.0000,0.0000,0.00,0.00,0.00,0.7850,0.2470,1.2550,1.2260,2.6200,0,0.0000,0.0000,0.0000,0.0000,0.0000,0
7243,0.0165,0.0143,0.0997,-0.0898,0.0019,0.1308,0.57,-1.57,2.59,0,3.568,1.849,15.454,0.114,0.009,-0.023,1.076,0.000,0.000,0.000,0.1040,1,5,0.00,0.00,0.00,0.0000,0.0000,0.0000,0.0000,0.0000,0.3000,0.2886,1.00,-2.79,-77.71,0.8030,0.2430,1.2570,1.2550,2.6040,0,0.0000,0.0000,0.0000,0.0000,0.0000,0
7294,0.0123,0.0147,0.1080,-0.0743,-0.0003,0.1702,0.64,-2.22,2.64,0,3.568,0.168,8.602,-4.316,0.010,-0.021,1.060,0.000,0.000,0.000,0.1180,-1,2,0.57,1.57,2.59,0.0165,0.0143,0.1040,0.0000,0.0000,0.3000,0.2828,0.95,-2.44,-79.19,0.8030,0.2430,1.2570,1.2550,2.6040,0,0.0000,0.0000,0.0000,0.0000,0.0000,0
7345,0.0083,0.0154,0.1196,-0.0572,-0.0011,0.2140,0.61,-2.65,2.43,0,3.584,-1.566,-4.109,-4.449,0.007,-0.016,1.046,0.000,0.000,0.000,0.1260,2,0,0.48,1.23,2.38,0.0122,0.0170,0.1149,0.0000,0.0000,0.3000,0.2759,0.99,-2.00,-72.94,0.8180,0.2480,1.2600,1.2860,2.5780,0,0.0000,0.0000,0.0000,0.0000,0.0000,0
7396,0.0065,0.0159,0.1319,-0.0307,-0.0026,0.2439,0.42,-2.45,2.16,0,3.579,3.602,-9.541,-6.125,0.013,-0.017,1.025,0.000,0.000,0.000,0.1380,-2,1,1.75,0.24,2.13,0.0124,0.0138,0.1283,0.0000,0.0000,0.3000,0.2703,0.97,-0.96,-64.93,0.8180,0.2480,1.2600,1.2860,2.5780,0,0.0000,0.0000,0.0000,0.0000,0.0000,0
7447,0.0038,0.0176,0.1439,-0.0172,0.0037,0.2578,0.57,-1.98,1.84,0,3.595,-0.020,-4.232,-9.340,0.003,-0.016,1.009,0.000,0.000,0.000,0.1600,0,-3,-0.60,1.04,1.83,0.0107,0.0158,0.1443,0.0000,0.0000,0.3000,0.2666,1.40,-0.54,-55.35,0.8200,0.2950,1.2540,1.3450,2.5550,0,0.0000,0.0000,0.0000,0.0000,0.0000,0
7498,0.0039,0.0155,0.1621,0.0035,-0.0110,0.2892,0.62,-1.86,1.42,0,3.595,-4.148,-4.363,-9.911,0.000,-0.013,0.990,0.000,0.000,0.000,0.1770,-2,-1,-0.45,-0.98,1.35,0.0142,0.0158,0.1645,0.0000,0.0000,0.3000,0.2598,0.59,0.45,-42.72,0.8200,0.2950,1.2540,1.3450,2.5550,0,0.0000,0.0000,0.0000,0.0000,0.0000,0
7549,0.0074,0.0150,0.1795,0.0327,-0.0159,0.3020,0.46,-1.77,0.94,0,3.605,-6.586,-16.319,-7.980,0.002,-0.014,0.979,0.000,0.000,0.000,0.1880,-1,0,-1.63,-0.62,0.83,0.0159,0.0191,0.1835,0.0000,0.0000,0.3000,0.2551,0.32,2.13,-28.29,0.0000,0.0000,1.2500,1.3960,2.5250,0,0.0000,0.0000,0.0000,0.0000,0.0000,0
7600,0.0083,0.0154,0.1956,0.0422,-0.0136,0.2993,0.13,-0.99,0.50,0,3.595,-0.354,-15.678,-6.435,0.003,-0.019,0.968,0.000,0.000,0.000,0.1990,2,-2,-1.96,0.74,0.43,0.0159,0.0215,0.1989,0.0000,0.0000,0.3000,0.2524,0.47,2.68,-15.12,0.0000,0.0000,1.2500,1.3960,2.5250,0,0.0000,0.0000,0.0000,0.0000,0.0000,0
7651,0.0113,0.0129,0.2076,0.0540,-0.0228,0.2734,0.16,-0.26,0.18,0,3.605,-2.121,-3.990,-5.091,0.002,-0.015,0.956,0.000,0.000,0.000,0.2150,-1,0,-0.94,1.13,0.17,0.0196,0.0178,0.2121,0.0000,0.0000,0.3000,0.2529,-0.17,3.47,-5.55,0.7580,0.6390,1.2400,1.4630,2.4890,0,0.0000,0.0000,0.0000,0.0000,0.0000,0
7701,0.0130,0.0111,0.2219,0.0517,-0.0261,0.2583,0.05,-0.02,-0.09,0,3.600,-4.386,2.014,-4.243,0.006,-0.013,0.948,0.000,0.000,0.000,0.2290,0,1,-1.35,1.59,-0.10,0.0193,0.0202,0.2248,0.0000,0.0000,0.3000,0.2518,-0.46,3.49,2.79,0.7580,0.6390,1.2400,1.4630,2.4890,0,0.0000,0.0000,0.0000,0.0000,0.0000,0
7753,0.0136,0.0125,0.2353,0.0441,-0.0167,0.2402,-0.20,0.06,-0.28,0,3.605,2.398,-1.896,-1.796,0.001,-0.016,0.949,0.000,0.000,0.000,0.2450,-3,0,-1.48,1.80,-0.35,0.0168,0.0206,0.2371,0.0000,0.0000,0.3000,0.2513,0.10,3.18,8.46,0.7340,0.0000,1.2390,1.4960,2.4600,0,0.0000,0.0000,0.0000,0.0000,0.0000,0
7804,0.0112,0.0125,0.2491,0.0270,-0.0122,0.2260,-0.18,0.21,-0.40,0,3.595,5.167,-3.786,-2.403,0.005,-0.015,0.948,0.000,0.000,0.000,0.2550,-4,-1,-1.90,1.81,-0.36,0.0165,0.0283,0.2494,0.0000,0.0000,0.3000,0.2502,0.32,2.16,11.98,0.7340,0.0000,1.2390,1.4960,2.4600,0,0.0000,0.0000,0.0000,0.0000,0.0000,0
7855,0.0119,0.0145,0.2605,0.0234,-0.0019,0.2040,-0.02,0.28,-0.54,0,3.600,3.517,-0.505,-3.495,0.005,-0.020,0.950,0.000,0.000,0.000,0.2620,0,0,-2.12,1.72,-0.37,0.0189,0.0389,0.2596,0.0000,0.0000,0.3000,0.2504,0.98,2.04,16.25,0.7210,0.0000,1.2290,1.5070,2.4470,0,0.0000,0.0000,0.0000,0.0000,0.0000,0
7906,0.0136,0.0159,0.2689,0.0228,0.0028,0.1740,0.22,0.31,-0.71,0,3.595,5.216,-1.768,-4.920,0.001,-0.020,0.954,0.000,0.000,0.000,0.2720,-2,0,-1.94,1.76,-0.54,0.0178,0.0450,0.2677,0.0000,0.0000,0.3000,0.2521,1.31,2.12,21.19,0.7210,0.0000,1.2290,1.5070,2.4470,0,0.0000,0.0000,0.0000,0.0000,0.0000,0
7957,0.0144,0.0173,0.2769,0.0197,0.0049,0.1509,0.37,0.35,-0.96,0,3.595,0.339,-5.244,-6.629,-0.000,-0.016,0.959,0.000,0.000,0.000,0.2780,0,-2,-1.19,1.65,-0.85,0.0202,0.0422,0.2761,0.0000,0.0000,0.3000,0.2531,1.51,2.02,28.69,0.7120,0.0000,1.2330,1.5120,2.4210,0,0.0000,0.0000,0.0000,0.0000,0.0000,0
8008,0.0154,0.0214,0.2830,0.0168,0.0139,0.1263,0.27,0.56,-1.27,0,3.584,4.097,2.102,-6.031,0.000,-0.016,0.969,0.000,0.000,0.000,0.2860,0,0,-1.02,1.68,-1.18,0.0239,0.0433,0.2823,0.0000,0.0000,0.3000,0.2546,2.24,1.94,38.24,0.7120,0.0000,1.2330,1.5120,2.4210,0,0.0000,0.0000,0.0000,0.0000,0.0000,0
8059,0.0165,0.0217,0.2891,0.0131,0.0107,0.1092,0.45,0.47,-1.56,0,3.589,4.590,3.862,-3.540,-0.001,-0.016,0.976,0.000,0.000,0.000,0.2920,-3,0,-0.80,1.58,-1.48,0.0230,0.0468,0.2884,0.0000,0.0000,0.3000,0.2552,2.10,1.83,46.67,0.7040,0.0000,1.2260,1.5140,2.4130,0,0.0000,0.0000,0.0000,0.0000,0.0000,0
8110,0.0166,0.0229,0.2946,0.0079,0.0093,0.0965,0.61,0.26,-1.75,0,3.584,-1.314,0.655,-1.314,0.004,-0.021,0.978,0.000,0.000,0.000,0.2960,0,0,-0.66,1.24,-1.63,0.0251,0.0527,0.2940,0.0000,0.0000,0.3000,0.2556,2.12,1.59,52.46,0.7040,0.0000,1.2260,1.5140,2.4130,0,0.0000,0.0000,0.0000,0.0000,0.0000,0
8161,0.0151,0.0246,0.2988,0.0008,0.0079,0.0827,0.55,0.23,-1.87,0,3.584,2.763,-0.330,-0.783,0.006,-0.021,0.987,0.000,0.000,0.000,0.2970,1,0,-0.73,1.21,-1.70,0.0240,0.0565,0.2987,0.0000,0.0000,0.3000,0.2563,2.16,1.14,56.15,0.6970,0.0000,1.2190,1.5190,2.4110,0,0.0000,0.0000,0.0000,0.0000,0.0000,0
8212,0.0140,0.0266,0.3010,-0.0039,0.0080,0.0652,0.62,0.20,-1.94,0,3.579,0.941,0.462,0.265,0.004,-0.015,0.984,0.000,0.000,0.000,0.3010,3,0,-0.22,1.12,-1.81,0.0256,0.0492,0.3021,0.0000,0.0000,0.3000,0.2577,2.31,0.82,58.31,0.6970,0.0000,1.2190,1.5190,2.4110,0,0.0000,0.0000,0.0000,0.0000,0.0000,0
8263,0.0142,0.0276,0.3035,-0.0045,0.0051,0.0547,0.66,0.18,-1.94,0,3.584,1.097,-3.066,1.582,0.003,-0.018,0.994,0.000,0.000,0.000,0.3020,0,0,0.03,1.07,-1.83,0.0250,0.0437,0.3048,0.0000,0.0000,0.3000,0.2584,2.23,0.81,58.35,0.6950,0.3950,1.2240,1.5130,2.3940,0,0.0000,0.0000,0.0000,0.0000,0.0000,0
8314,0.0140,0.0311,0.3048,-0.0062,0.0077,0.0444,0.67,0.27,-1.89,0,3.579,1.763,3.124,2.538,0.005,-0.017,0.999,0.000,0.000,0.000,0.3060,2,0,0.08,1.23,-1.75,0.0236,0.0424,0.3070,0.0000,0.0000,0.3000,0.2593,2.60,0.71,56.55,0.6950,0.3950,1.2240,1.5130,2.3940,0,0.0000,0.0000,0.0000,0.0000,0.0000,0
8365,0.0135,0.0308,0.3072,-0.0089,0.0008,0.0436,0.75,0.17,-1.75,0,3.584,-3.794,0.711,3.515,0.003,-0.021,1.000,0.000,0.000,0.000,0.3100,0,0,0.25,0.96,-1.67,0.0256,0.0377,0.3095,0.0000,0.0000,0.3000,0.2589,2.25,0.55,52.45,0.6990,0.3960,1.2140,1.5260,2.4000,0,0.0000,0.0000,0.0000,0.0000,0.0000,0
8416,0.0126,0.0313,0.3103,-0.0116,-0.0041,0.0476,0.62,0.06,-1.53,0,3.574,-3.355,2.547,6.311,0.005,-0.014,1.000,0.000,0.000,0.000,0.3110,0,0,0.05,0.92,-1.49,0.0243,0.0347,0.3126,0.0000,0.0000,0.3000,0.2579,2.06,0.35,46.01,0.6990,0.3960,1.2140,1.5260,2.4000,0,0.0000,0.0000,0.0000,0.0000,0.0000,0
8467,0.0103,0.0273,0.3126,-0.0159,-0.0171,0.0478,0.43,-0.02,-1.26,0,3.579,-3.521,1.371,5.909,0.004,-0.016,0.997,0.000,0.000,0.000,0.3130,0,0,-0.12,0.79,-1.16,0.0227,0.0312,0.3150,0.0000,0.0000,0.3000,0.2574,1.15,-0.02,37.80,0.7070,0.0000,1.2210,1.5340,2.3950,0,0.0000,0.0000,0.0000,0.0000,0.0000,0
8518,0.0083,0.0245,0.3148,-0.0183,-0.0249,0.0465,0.32,-0.18,-0.97,0,3.574,-8.027,3.729,4.745,0.005,-0.016,1.002,0.000,0.000,0.000,0.3130,0,0,-0.30,0.72,-0.86,0.0208,0.0275,0.3171,0.0000,0.0000,0.3000,0.2572,0.58,-0.28,29.06,0.7070,0.0000,1.2210,1.5340,2.3950,0,0.0000,0.0000,0.0000,0.0000,0.0000,0
8569,0.0053,0.0249,0.3158,-0.0214,-0.0237,0.0418,0.03,-0.30,-0.77,0,3.579,-2.085,1.697,4.043,0.008,-0.018,1.007,0.000,0.000,0.000,0.3160,0,0,-0.72,0.53,-0.62,0.0188,0.0234,0.3185,0.0000,0.0000,0.3000,0.2575,0.67,-0.64,23.12,0.7220,0.0000,1.2310,1.5510,2.3900,0,0.0000,0.0000,0.0000,0.0000,0.0000,0
8620,0.0016,0.0209,0.3176,-0.0243,-0.0295,0.0428,-0.14,-0.35,-0.56,0,3.568,0.331,1.335,2.492,0.003,-0.021,1.002,0.000,0.000,0.000,0.3150,0,0,-0.82,0.44,-0.42,0.0168,0.0192,0.3204,0.0000,0.0000,0.3000,0.2570,0.10,-1.05,16.80,0.7220,0.0000,1.2310,1.5510,2.3900,0,0.0000,0.0000,0.0000,0.0000,0.0000,0
8670,-0.0005,0.0242,0.3181,-0.0232,-0.0186,0.0362,-0.13,-0.44,-0.42,0,3.579,-2.476,1.238,1.775,0.010,-0.015,1.006,0.000,0.000,0.000,0.3230,1,1,-0.81,0.37,-0.29,0.0146,0.0149,0.3213,0.0000,0.0000,0.3000,0.2576,0.86,-1.15,12.59,0.7340,0.0000,1.2300,1.5520,2.3850,0,0.0000,0.0000,0.0000,0.0000,0.0000,0
8722,-0.0016,0.0209,0.3220,-0.0192,-0.0221,0.0474,-0.18,-0.53,-0.33,0,3.574,-3.601,3.720,1.423,0.007,-0.021,1.003,0.000,0.000,0.000,0.3250,1,0,-1.27,0.17,-0.31,0.0223,0.0341,0.3249,0.0000,0.0000,0.3000,0.2557,0.46,-1.04,9.76,0.7340,0.0000,1.2300,1.5520,2.3850,0,0.0000,0.0000,0.0000,0.0000,0.0000,0
8773,-0.0019,0.0185,0.3254,-0.0134,-0.0229,0.0537,-0.32,-0.68,-0.27,0,3.579,-1.344,-0.614,0.065,0.004,-0.019,1.001,0.000,0.000,0.000,0.3280,1,0,-1.45,-0.02,-0.23,0.0219,0.0331,0.3278,0.0000,0.0000,0.3000,0.2544,0.25,-0.79,8.01,0.7470,0.3890,1.2390,1.5610,2.3800,0,0.0000,0.0000,0.0000,0.0000,0.0000,0
8823,-0.0020,0.0168,0.3288,-0.0067,-0.0212,0.0569,-0.38,-0.69,-0.25,0,3.574,0.941,-0.013,-0.328,0.003,-0.017,0.996,0.000,0.000,0.000,0.3290,0,0,-1.50,0.00,-0.21,0.0216,0.0320,0.3307,0.0000,0.0000,0.3000,0.2534,0.21,-0.47,7.60,0.7470,0.3890,1.2390,1.5610,2.3800,0,0.0000,0.0000,0.0000,0.0000,0.0000,0
8875,-0.0020,0.0150,0.3312,-0.0006,-0.0196,0.0534,-0.33,-0.66,-0.27,0,3.574,-0.602,-3.542,-0.865,0.004,-0.021,0.996,0.000,0.000,0.000,0.3280,0,0,-1.45,0.01,-0.23,0.0214,0.0316,0.3329,0.0000,0.0000,0.3000,0.2533,0.16,-0.17,8.25,0.7780,0.0000,1.2290,1.5570,2.3730,0,0.0000,0.0000,0.0000,0.0000,0.0000,0
8926,0.0000,0.0148,0.3318,0.0085,-0.0154,0.0410,-0.36,-0.56,-0.31,0,3.568,1.169,-0.721,-0.883,0.005,-0.017,0.994,0.000,0.000,0.000,0.3330,0,-2,-1.48,0.19,-0.27,0.0214,0.0312,0.3339,0.0000,0.0000,0.3000,0.2545,0.34,0.42,9.30,0.7780,0.0000,1.2290,1.5570,2.3730,0,0.0000,0.0000,0.0000,0.0000,0.0000,0
8977,0.0025,0.0143,0.3340,0.0165,-0.0123,0.0404,-0.27,-0.49,-0.37,0,3.574,-0.063,-4.197,-0.715,0.005,-0.017,0.995,0.000,0.000,0.000,0.3350,0,-1,-1.43,0.12,-0.26,0.0267,0.0315,0.3358,0.0000,0.0000,0.3000,0.2542,0.45,0.99,11.10,0.7960,0.0000,1.2260,1.5670,2.3750,0,0.0000,0.0000,0.0000,0.0000,0.0000,0
9027,0.0057,0.0137,0.3361,0.0246,-0.0101,0.0396,-0.24,-0.34,-0.42,0,3.563,3.085,-3.442,-0.336,0.003,-0.019,0.997,0.000,0.000,0.000,0.3340,0,0,-1.43,0.32,-0.28,0.0287,0.0317,0.3375,0.0000,0.0000,0.3000,0.2539,0.52,1.62,12.54,0.7960,0.0000,1.2260,1.5670,2.3750,0,0.0000,0.0000,0.0000,0.0000,0.0000,0
9079,0.0077,0.0162,0.3366,0.0281,-0.0029,0.0317,-0.21,-0.10,-0.44,0,3.574,2.550,-5.757,-0.003,0.005,-0.021,0.995,0.000,0.000,0.000,0.3370,-4,1,-1.28,0.49,-0.30,0.0303,0.0320,0.3383,0.0000,0.0000,0.3000,0.2546,1.06,1.93,13.15,0.8280,0.0000,1.2310,1.5570,2.3690,0,0.0000,0.0000,0.0000,0.0000,0.0000,0
9130,0.0156,0.0143,0.3381,0.0401,-0.0045,0.0296,-0.08,0.08,-0.44,0,3.563,1.608,-1.643,1.293,0.006,-0.014,0.999,0.000,0.000,0.000,0.3390,7,-2,-1.33,0.88,-0.48,0.0269,0.0424,0.3395,0.0000,0.0000,0.3000,0.2546,0.84,3.09,13.09,0.8280,0.0000,1.2310,1.5570,2.3690,0,0.0000,0.0000,0.0000,0.0000,0.0000,0
9181,0.0187,0.0209,0.3397,0.0414,0.0082,0.0293,-0.02,0.17,-0.38,0,3.568,0.456,-3.284,1.833,0.008,-0.015,0.998,0.000,0.000,0.000,0.3400,0,0,-1.03,0.91,-0.26,0.0300,0.0330,0.3417,0.0000,0.0000,0.3000,0.2543,1.94,3.38,11.49,0.8430,0.3940,1.2300,1.5530,2.3600,0,0.0000,0.0000,0.0000,0.0000,0.0000,0
9232,0.0228,0.0165,0.3410,0.0428,0.0011,0.0276,-0.03,0.37,-0.32,0,3.568,1.603,-1.512,0.896,0.008,-0.011,0.998,0.000,0.000,0.000,0.3430,-2,0,-1.01,1.07,-0.16,0.0306,0.0330,0.3428,0.0000,0.0000,0.3000,0.2542,1.27,3.74,9.47,0.8430,0.3940,1.2300,1.5530,2.3600,0,0.0000,0.0000,0.0000,0.0000,0.0000,0
9283,0.0244,0.0190,0.3430,0.0387,0.0055,0.0295,-0.06,0.47,-0.25,0,3.568,1.543,-3.307,1.206,0.008,-0.019,0.999,0.000,0.000,0.000,0.3430,0,0,-1.02,1.16,-0.14,0.0303,0.0393,0.3443,0.0000,0.0000,0.3000,0.2536,1.67,3.67,7.50,0.0000,0.0000,1.2280,1.5620,2.3550,0,0.0000,0.0000,0.0000,0.0000,0.0000,0
9334,0.0268,0.0214,0.3442,0.0355,0.0093,0.0272,0.03,0.50,-0.17,0,3.563,2.127,-2.454,0.586,0.007,-0.017,1.000,0.000,0.000,0.000,0.3430,3,0,-0.94,1.33,-0.08,0.0301,0.0409,0.3453,0.0000,0.0000,0.3000,0.2537,2.03,3.70,5.10,0.0000,0.0000,1.2280,1.5620,2.3550,0,0.0000,0.0000,0.0000,0.0000,0.0000,0
9385,0.0285,0.0219,0.3447,0.0313,0.0089,0.0234,0.16,0.55,-0.12,0,3.568,-1.182,2.007,-0.014,0.008,-0.019,1.001,0.000,0.000,0.000,0.3460,-2,0,-0.66,1.44,-0.05,0.0306,0.0297,0.3462,0.0000,0.0000,0.3000,0.2540,2.04,3.61,3.73,0.0000,0.3670,1.2230,1.5690,2.3540,0,0.0000,0.0000,0.0000,0.0000,0.0000,0
9436,0.0288,0.0170,0.3463,0.0247,-0.0012,0.0246,0.17,0.58,-0.11,0,3.563,-1.395,2.430,-0.231,0.009,-0.016,0.999,0.000,0.000,0.000,0.3490,0,0,-0.78,1.33,-0.04,0.0302,0.0328,0.3476,0.0000,0.0000,0.3000,0.2535,1.20,3.32,3.34,0.0000,0.3670,1.2230,1.5690,2.3540,0,0.0000,0.0000,0.0000,0.0000,0.0000,0
9487,0.0286,0.0206,0.3486,0.0179,0.0032,0.0304,0.09,0.52,-0.12,0,3.568,-2.394,4.301,-0.632,0.007,-0.016,0.999,0.000,0.000,0.000,0.3470,-2,0,-0.85,1.21,-0.05,0.0292,0.0323,0.3494,0.0000,0.0000,0.3000,0.2525,1.68,2.98,3.65,0.0000,0.0000,1.2260,1.5620,2.3520,0,0.0000,0.0000,0.0000,0.0000,0.0000,0
9538,0.0268,0.0197,0.3490,0.0094,0.0006,0.0247,0.08,0.33,-0.16,0,3.563,-0.506,-0.020,-0.739,0.005,-0.019,0.995,0.000,0.000,0.000,0.3490,0,0,-1.08,0.95,-0.05,0.0306,0.0401,0.3501,0.0000,0.0000,0.3000,0.2530,1.49,2.44,4.68,0.0000,0.0000,1.2260,1.5620,2.3520,0,0.0000,0.0000,0.0000,0.0000,0.0000,0
9590,0.0281,0.0227,0.3500,0.0083,0.0046,0.0220,0.08,0.18,-0.21,0,3.563,1.514,1.158,-1.536,0.009,-0.014,1.000,0.000,0.000,0.000,0.3510,0,0,-1.10,0.95,-0.09,0.0295,0.0413,0.3509,0.0000,0.0000,0.3000,0.2531,1.90,2.47,6.20,0.0000,0.3950,1.2220,1.5640,2.3560,0,0.0000,0.0000,0.0000,0.0000,0.0000,0
9641,0.0247,0.0212,0.3514,0.0008,0.0011,0.0226,0.11,0.17,-0.24,0,3.558,-0.393,3.040,-0.701,0.010,-0.012,1.000,0.000,0.000,0.000,0.3470,0,0,-1.02,0.89,-0.17,0.0282,0.0427,0.3521,0.0000,0.0000,0.3000,0.2528,1.62,1.86,7.23,0.0000,0.3950,1.2220,1.5640,2.3560,0,0.0000,0.0000,0.0000,0.0000,0.0000,0
9693,0.0241,0.0200,0.3501,-0.0014,-0.0012,0.0101,0.08,-0.00,-0.27,0,3.563,-2.475,0.184,-0.252,0.002,-0.016,1.000,0.000,0.000,0.000,0.3510,0,0,-1.04,0.74,-0.21,0.0268,0.0442,0.3516,0.0000,0.0000,0.3000,0.2544,1.42,1.70,8.25,0.0000,0.0000,1.2270,1.5600,2.3510,0,0.0000,0.0000,0.0000,0.0000,0.0000,0
9744,0.0226,0.0236,0.3510,-0.0036,0.0042,0.0109,0.02,-0.06,-0.30,0,3.558,0.059,0.421,-0.934,0.005,-0.014,1.001,0.000,0.000,0.000,0.3520,0,0,-1.17,0.73,-0.22,0.0251,0.0457,0.3523,0.0000,0.0000,0.3000,0.2541,1.94,1.48,9.09,0.0000,0.0000,1.2270,1.5600,2.3510,0,0.0000,0.0000,0.0000,0.0000,0.0000,0
9795,0.0196,0.0237,0.3519,-0.0072,0.0042,0.0125,-0.01,-0.18,-0.32,0,3.558,1.691,2.966,-0.296,0.001,-0.014,1.005,0.000,0.000,0.000,0.3480,0,0,-1.17,0.71,-0.27,0.0232,0.0474,0.3531,0.0000,0.0000,0.3000,0.2538,1.95,1.10,9.49,0.0000,0.0000,1.2270,1.5640,2.3540,0,0.0000,0.0000,0.0000,0.0000,0.0000,0
9846,0.0167,0.0181,0.3505,-0.0098,-0.0053,0.0040,0.08,-0.22,-0.33,0,3.558,-0.306,-0.530,-0.305,0.002,-0.017,1.003,0.000,0.000,0.000,0.3480,-2,0,-1.08,0.56,-0.28,0.0211,0.0492,0.3524,0.0000,0.0000,0.3000,0.2549,1.07,0.75,10.00,0.0000,0.0000,1.2270,1.5640,2.3540,0,0.0000,0.0000,0.0000,0.0000,0.0000,0
9898,0.0200,0.0171,0.3495,-0.0022,-0.0076,-0.0006,0.16,-0.21,-0.35,0,3.563,-2.053,-1.136,0.450,0.003,-0.018,1.007,0.000,0.000,0.000,0.3530,0,0,-1.05,0.47,-0.28,0.0336,0.0455,0.3521,0.0000,0.0000,0.3000,0.2556,0.89,1.35,10.42,0.0000,0.0000,1.2260,1.5640,2.3550,0,0.0000,0.0000,0.0000,0.0000,0.0000,0
9949,0.0213,0.0197,0.3512,0.0018,-0.0044,0.0106,0.05,-0.21,-0.33,0,3.552,-0.322,0.535,0.382,0.003,-0.015,1.005,0.000,0.000,0.000,0.3480,2,0,-1.16,0.53,-0.26,0.0334,0.0465,0.3533,0.0000,0.0000,0.3000,0.2541,1.24,1.66,9.76,0.0000,0.0000,1.2260,1.5640,2.3550,0,0.0000,0.0000,0.0000,0.0000,0.0000,0
9999,0.0242,0.0233,0.3502,0.0079,0.0014,0.0059,0.02,-0.18,-0.32,0,3.558,1.417,-1.805,0.164,0.006,-0.013,1.005,0.000,0.000,0.000,0.3500,0,-2,-1.12,0.50,-0.21,0.0333,0.0440,0.3527,0.0000,0.0000,0.3000,0.2548,1.78,2.16,9.66,0.0000,0.0000,1.2300,1.5640,2.3490,0,0.0000,0.0000,0.0000,0.0000,0.0000,0
10051,0.0239,0.0233,0.3504,0.0081,0.0012,0.0081,0.04,-0.09,-0.33,0,3.552,0.861,-1.139,-0.598,-0.001,-0.015,1.005,0.000,0.000,0.000,0.3480,0,0,-1.04,0.56,-0.19,0.0349,0.0441,0.3528,0.0000,0.0000,0.3000,0.2545,1.77,2.14,9.83,0.0000,0.0000,1.2300,1.5640,2.3490,0,0.0000,0.0000,0.0000,0.0000,0.0000,0
10102,0.0271,0.0232,0.3496,0.0130,0.0005,0.0049,0.08,-0.04,-0.33,0,3.563,0.113,-1.282,-0.914,0.007,-0.018,1.004,0.000,0.000,0.000,0.3530,0,0,-1.00,0.61,-0.22,0.0349,0.0444,0.3523,0.0000,0.0000,0.3000,0.2550,1.73,2.62,10.04,0.0000,0.3450,1.2290,1.5610,2.3550,0,0.0000,0.0000,0.0000,0.0000,0.0000,0
10153,0.0309,0.0232,0.3515,0.0179,-0.0002,0.0143,0.10,0.03,-0.39,0,3.558,0.257,-0.378,-1.221,0.002,-0.019,1.003,0.000,0.000,0.000,0.3540,0,-1,-0.99,0.68,-0.27,0.0347,0.0447,0.3534,0.0000,0.0000,0.3000,0.2536,1.70,3.15,11.63,0.0000,0.3450,1.2290,1.5610,2.3550,0,0.0000,0.0000,0.0000,0.0000,0.0000,0
10204,0.0322,0.0213,0.3534,0.0182,-0.0041,0.0216,0.11,0.06,-0.44,0,3.563,-1.423,-2.609,-0.410,0.007,-0.014,0.998,0.000,0.000,0.000,0.3550,3,0,-0.97,0.65,-0.32,0.0381,0.0443,0.3546,0.0000,0.0000,0.3000,0.2525,1.38,3.27,13.27,0.0000,0.0000,1.2220,1.5670,2.3550,0,0.0000,0.0000,0.0000,0.0000,0.0000,0
10255,0.0395,0.0236,0.3552,0.0274,-0.0012,0.0238,0.09,0.11,-0.48,0,3.552,-1.542,-3.908,-0.846,0.005,-0.011,0.997,0.000,0.000,0.000,0.3530,-3,-3,-1.00,0.79,-0.32,0.0384,0.0409,0.3558,0.0000,0.0000,0.3000,0.2519,1.70,4.26,14.27,0.0000,0.0000,1.2220,1.5670,2.3550,0,0.0000,0.0000,0.0000,0.0000,0.0000,0
10307,0.0404,0.0190,0.3550,0.0257,-0.0089,0.0162,-0.00,0.22,-0.50,0,3.558,-1.915,-1.871,-0.235,0.008,-0.016,0.995,0.000,0.000,0.000,0.3530,0,-1,-1.13,0.94,-0.37,0.0430,0.0449,0.3559,0.0000,0.0000,0.3000,0.2527,0.98,4.23,14.87,0.0000,0.0000,1.2230,1.5660,2.3550,0,0.0000,0.0000,0.0000,0.0000,0.0000,0
10358,0.0420,0.0216,0.3547,0.0242,-0.0038,0.0093,-0.19,0.27,-0.51,0,3.547,1.367,-1.800,0.737,0.005,-0.017,1.000,0.000,0.000,0.000,0.3520,0,0,-1.23,1.02,-0.38,0.0453,0.0452,0.3557,0.0000,0.0000,0.3000,0.2535,1.41,4.27,15.20,0.0000,0.0000,1.2230,1.5660,2.3550,0,0.0000,0.0000,0.0000,0.0000,0.0000,0
10409,0.0445,0.0218,0.3537,0.0240,-0.0014,0.0014,-0.19,0.30,-0.50,0,3.558,1.517,-4.052,-0.169,0.004,-0.012,1.005,0.000,0.000,0.000,0.3540,0,-1,-1.16,1.11,-0.34,0.0463,0.0459,0.3551,0.0000,0.0000,0.3000,0.2546,1.54,4.42,14.96,0.0000,0.0000,1.2270,1.5660,2.3490,0,0.0000,0.0000,0.0000,0.0000,0.0000,0
10460,0.0448,0.0196,0.3539,0.0198,-0.0034,0.0031,-0.12,0.44,-0.49,0,3.552,-1.797,-1.994,0.055,0.004,-0.015,1.006,0.000,0.000,0.000,0.3530,0,-1,-1.06,1.30,-0.34,0.0491,0.0450,0.3554,0.0000,0.0000,0.3000,0.2543,1.28,4.25,14.66,0.0000,0.0000,1.2270,1.5660,2.3490,0,0.0000,0.0000,0.0000,0.0000,0.0000,0
10511,0.0473,0.0197,0.3536,0.0183,-0.0020,0.0031,-0.16,0.51,-0.50,0,3.552,-0.130,1.510,-0.746,0.003,-0.016,1.003,0.000,0.000,0.000,0.3530,0,0,-1.15,1.38,-0.33,0.0514,0.0453,0.3553,0.0000,0.0000,0.3000,0.2544,1.36,4.35,14.92,0.0000,0.3430,1.2250,1.5680,2.3490,0,0.0000,0.0000,0.0000,0.0000,0.0000,0
10562,0.0505,0.0199,0.3535,0.0179,-0.0001,0.0038,-0.17,0.47,-0.52,0,3.547,1.155,1.527,0.223,0.002,-0.012,1.006,0.000,0.000,0.000,0.3530,0,0,-1.16,1.31,-0.37,0.0518,0.0459,0.3552,0.0000,0.0000,0.3000,0.2543,1.47,4.57,15.72,0.0000,0.3430,1.2250,1.5680,2.3490,0,0.0000,0.0000,0.0000,0.0000,0.0000,0
10613,0.0511,0.0213,0.3535,0.0133,0.0036,0.0056,-0.11,0.43,-0.53,0,3.552,0.995,0.011,0.128,0.005,-0.017,1.005,0.000,0.000,0.000,0.3570,0,-1,-1.10,1.23,-0.36,0.0518,0.0468,0.3552,0.0000,0.0000,0.3000,0.2541,1.75,4.39,15.96,0.0000,0.0000,1.2230,1.5710,2.3480,0,0.0000,0.0000,0.0000,0.0000,0.0000,0
10664,0.0493,0.0189,0.3553,0.0066,0.0001,0.0140,-0.04,0.39,-0.52,0,3.552,-0.621,-0.214,0.795,0.007,-0.015,0.998,0.000,0.000,0.000,0.3540,0,0,-1.02,1.18,-0.36,0.0570,0.0445,0.3566,0.0000,0.0000,0.3000,0.2529,1.41,3.96,15.73,0.0000,0.0000,1.2230,1.5710,2.3480,0,0.0000,0.0000,0.0000,0.0000,0.0000,0
10715,0.0493,0.0246,0.3552,0.0028,0.0098,0.0097,-0.03,0.35,-0.49,0,3.558,3.182,2.925,0.925,0.005,-0.015,1.000,0.000,0.000,0.000,0.3540,0,0,-1.05,1.19,-0.32,0.0573,0.0449,0.3565,0.0000,0.0000,0.3000,0.2534,2.30,3.76,14.61,0.8880,0.0000,1.2220,1.5630,2.3460,0,0.0000,0.0000,0.0000,0.0000,0.0000,0
10766,0.0498,0.0301,0.3550,0.0006,0.0188,0.0060,0.03,0.25,-0.44,0,3.547,3.702,0.552,0.501,0.002,-0.015,0.996,0.000,0.000,0.000,0.3550,0,0,-0.89,1.04,-0.27,0.0572,0.0453,0.3564,0.0000,0.0000,0.3000,0.2538,3.13,3.69,13.28,0.8880,0.0000,1.2220,1.5630,2.3460,0,0.0000,0.0000,0.0000,0.0000,0.0000,0
10817,0.0471,0.0317,0.3552,-0.0062,0.0197,0.0060,0.17,0.19,-0.40,0,3.552,1.866,1.458,1.305,0.007,-0.016,0.999,0.000,0.000,0.000,0.3520,0,0,-0.70,1.01,-0.25,0.0567,0.0458,0.3564,0.0000,0.0000,0.3000,0.2538,3.30,3.16,12.08,0.0000,0.0000,1.2250,1.5730,2.3480,0,0.0000,0.0000,0.0000,0.0000,0.0000,0
10869,0.0467,0.0327,0.3540,-0.0078,0.0184,-0.0010,0.26,0.10,-0.34,0,3.542,1.277,1.775,1.109,0.008,-0.016,1.004,0.000,0.000,0.000,0.3520,0,0,-0.61,0.93,-0.18,0.0559,0.0462,0.3554,0.0000,0.0000,0.3000,0.2548,3.29,3.05,10.07,0.0000,0.0000,1.2250,1.5730,2.3480,0,0.0000,0.0000,0.0000,0.0000,0.0000,0
10920,0.0444,0.0334,0.3530,-0.0121,0.0160,-0.0040,0.32,0.02,-0.29,0,3.552,-0.206,0.809,0.836,0.006,-0.016,1.001,0.000,0.000,0.000,0.3540,1,0,-0.54,0.84,-0.12,0.0549,0.0464,0.3546,0.0000,0.0000,0.3000,0.2553,3.22,2.66,8.80,0.8690,0.3210,1.2190,1.5670,2.3530,0,0.0000,0.0000,0.0000,0.0000,0.0000,0
10971,0.0436,0.0343,0.3533,-0.0123,0.0126,-0.0002,0.36,-0.04,-0.25,0,3.542,-0.653,1.595,2.006,0.001,-0.014,1.003,0.000,0.000,0.000,0.3550,0,0,-0.53,0.75,-0.10,0.0603,0.0429,0.3546,0.0000,0.0000,0.3000,0.2548,3.13,2.61,7.49,0.8690,0.3210,1.2190,1.5670,2.3530,0,0.0000,0.0000,0.0000,0.0000,0.0000,0
11022,0.0436,0.0325,0.3542,-0.0112,0.0065,0.0062,0.32,-0.09,-0.16,0,3.552,-1.263,0.322,1.536,0.004,-0.016,1.005,0.000,0.000,0.000,0.3510,0,0,-0.56,0.67,0.00,0.0599,0.0422,0.3550,0.0000,0.0000,0.3000,0.2539,2.71,2.66,4.78,0.8930,0.2980,1.2220,1.5580,2.3500,0,0.0000,0.0000,0.0000,0.0000,0.0000,0
11073,0.0426,0.0331,0.3530,-0.0111,0.0043,0.0005,0.22,-0.12,-0.08,0,3.542,0.403,0.517,1.003,0.008,-0.010,1.006,0.000,0.000,0.000,0.3530,1,0,-0.63,0.65,0.08,0.0593,0.0414,0.3541,0.0000,0.0000,0.3000,0.2548,2.64,2.58,2.27,0.8930,0.2980,1.2220,1.5580,2.3500,0,0.0000,0.0000,0.0000,0.0000,0.0000,0
11124,0.0443,0.0335,0.3531,-0.0063,0.0027,0.0033,0.17,-0.17,-0.01,0,3.547,0.271,0.340,1.235,0.003,-0.016,1.002,0.000,0.000,0.000,0.3530,1,0,-0.60,0.61,0.12,0.0599,0.0399,0.3541,0.0000,0.0000,0.3000,0.2544,2.60,2.95,0.41,0.9130,0.0000,1.2240,1.5650,2.3470,0,0.0000,0.0000,0.0000,0.0000,0.0000,0
11175,0.0442,0.0317,0.3532,-0.0046,-0.0017,0.0047,0.15,-0.15,0.03,0,3.542,-1.565,-0.662,1.325,0.006,-0.013,1.005,0.000,0.000,0.000,0.3530,0,0,-0.58,0.59,0.19,0.0595,0.0382,0.3541,0.0000,0.0000,0.3000,0.2543,2.25,3.03,-1.02,0.9130,0.0000,1.2240,1.5650,2.3470,0,0.0000,0.0000,0.0000,0.0000,0.0000,0
11226,0.0474,0.0324,0.3533,0.0022,-0.0016,0.0055,0.05,-0.12,0.09,0,3.547,-0.475,-0.424,1.444,0.006,-0.013,1.003,0.000,0.000,0.000,0.3570,3,0,-0.66,0.62,0.25,0.0589,0.0368,0.3542,0.0000,0.0000,0.3000,0.2541,2.31,3.59,-2.79,0.9320,0.0000,0.0000,1.5620,2.3480,0,0.0000,0.0000,0.0000,0.0000,0.0000,0
11277,0.0503,0.0261,0.3553,0.0077,-0.0125,0.0155,0.08,-0.07,0.16,0,3.542,-3.321,-4.275,1.548,0.008,-0.014,0.999,0.000,0.000,0.000,0.3550,0,0,-0.63,0.63,0.35,0.0591,0.0303,0.3555,0.0000,0.0000,0.3000,0.2527,1.33,4.09,-4.74,0.9320,0.0000,0.0000,1.5620,2.3480,0,0.0000,0.0000,0.0000,0.0000,0.0000,0
11329,0.0518,0.0213,0.3557,0.0101,-0.0198,0.0148,-0.05,-0.02,0.23,0,3.547,-1.216,1.941,1.167,0.006,-0.016,0.996,0.000,0.000,0.000,0.3570,1,0,-0.80,0.85,0.43,0.0585,0.0274,0.3559,0.0000,0.0000,0.3000,0.2527,0.62,4.32,-6.93,0.0000,0.0000,1.2300,1.5660,2.3460,0,0.0000,0.0000,0.0000,0.0000,0.0000,0
11379,0.0551,0.0243,0.3569,0.0149,-0.0130,0.0160,-0.19,0.03,0.30,0,3.542,-1.323,-4.698,1.574,0.009,-0.013,0.997,0.000,0.000,0.000,0.3540,0,0,-0.88,0.74,0.47,0.0590,0.0263,0.3568,0.0000,0.0000,0.3000,0.2523,1.17,4.81,-9.15,0.0000,0.0000,1.2300,1.5660,2.3460,0,0.0000,0.0000,0.0000,0.0000,0.0000,0
11431,0.0574,0.0234,0.3561,0.0172,-0.0119,0.0074,-0.20,0.13,0.39,0,3.547,2.840,1.006,2.289,0.008,-0.017,0.997,0.000,0.000,0.000,0.3550,0,-1,-0.95,0.97,0.55,0.0584,0.0238,0.3563,0.0000,0.0000,0.3000,0.2534,1.16,5.06,-11.68,0.0000,0.3030,1.2320,1.5610,2.3510,0,0.0000,0.0000,0.0000,0.0000,0.0000,0
11483,0.0601,0.0266,0.3559,0.0193,-0.0036,0.0035,-0.22,0.14,0.51,0,3.537,1.462,-4.572,1.092,0.012,-0.012,1.004,0.000,0.000,0.000,0.3550,2,-1,-0.84,0.88,0.65,0.0619,0.0254,0.3563,0.0000,0.0000,0.3000,0.2539,1.80,5.35,-15.19,0.0000,0.3030,1.2320,1.5610,2.3510,0,0.0000,0.0000,0.0000,0.0000,0.0000,0
11535,0.0633,0.0254,0.3556,0.0217,-0.0034,0.0012,-0.10,0.22,0.59,0,3.547,-4.952,-6.560,1.907,0.004,-0.015,1.001,0.000,0.000,0.000,0.3580,0,0,-0.74,1.10,0.71,0.0637,0.0212,0.3562,0.0000,0.0000,0.3000,0.2542,1.72,5.69,-17.73,0.0000,0.2860,1.2180,1.5600,2.3490,0,0.0000,0.0000,0.0000,0.0000,0.0000,0
11586,0.0671,0.0227,0.3567,0.0245,-0.0067,0.0062,-0.15,0.43,0.66,0,3.542,3.206,-0.410,1.570,0.003,-0.017,0.998,0.000,0.000,0.000,0.3550,0,0,-1.00,1.44,0.81,0.0638,0.0191,0.3571,0.0398,0.0246,0.3000,0.2534,-0.44,3.22,-19.76,0.0000,0.2860,1.2180,1.5600,2.3490,0,0.0000,0.0000,0.0000,0.0000,0.0000,0
11637,0.0695,0.0223,0.3561,0.0232,-0.0059,0.0023,-0.08,0.51,0.71,0,3.547,-1.219,-1.012,0.855,0.008,-0.017,0.998,0.000,0.000,0.000,0.3560,0,0,-0.84,1.46,0.89,0.0633,0.0170,0.3567,0.0398,0.0246,0.3000,0.2539,-0.43,3.33,-21.32,0.0000,0.2860,1.2270,1.5560,2.3490,0,0.0000,0.0000,0.0000,0.0000,0.0000,0
11688,0.0718,0.0221,0.3562,0.0210,-0.0049,0.0023,-0.06,0.55,0.74,0,3.537,0.542,-1.309,0.477,0.005,-0.017,0.997,0.000,0.000,0.000,0.3550,-2,0,-0.90,1.51,0.94,0.0624,0.0148,0.3567,0.0398,0.0246,0.3000,0.2539,-0.39,3.39,-22.10,0.0000,0.2860,1.2270,1.5560,2.3490,0,0.0000,0.0000,0.0000,0.0000,0.0000,0
11739,0.0756,0.0219,0.3557,0.0214,-0.0046,-0.0006,0.05,0.58,0.74,0,3.547,2.080,0.006,-0.496,0.006,-0.016,1.005,0.000,0.000,0.000,0.3530,2,0,-1.00,1.53,1.01,0.0670,0.0296,0.3565,0.0398,0.0246,0.3000,0.2543,-0.39,3.68,-22.33,0.0000,0.2820,1.2360,1.5530,2.3450,0,0.0000,0.0000,0.0000,0.0000,0.0000,0
11791,0.0739,0.0237,0.3545,0.0119,-0.0008,-0.0054,0.11,0.53,0.73,0,3.531,-0.094,2.444,-0.564,0.004,-0.015,0.999,0.000,0.000,0.000,0.3570,-3,1,-0.87,1.53,0.97,0.0665,0.0280,0.3557,0.0398,0.0246,0.3000,0.2551,-0.07,3.09,-21.87,0.0000,0.2820,1.2360,1.5530,2.3450,0,0.0000,0.0000,0.0000,0.0000,0.0000,0
11842,0.0756,0.0136,0.3555,0.0095,-0.0191,0.0019,0.10,0.47,0.69,0,3.542,-5.361,-2.196,-0.705,0.007,-0.018,1.000,0.000,0.000,0.000,0.3540,0,0,-0.91,1.41,0.97,0.0642,0.0323,0.3560,0.0398,0.0246,0.3000,0.2541,-1.70,3.11,-20.63,0.0000,0.0000,1.2320,1.5540,2.3490,0,0.0000,0.0000,0.0000,0.0000,0.0000,0
11893,0.0757,0.0166,0.3549,0.0050,-0.0132,-0.0005,-0.09,0.43,0.66,0,3.537,-0.873,3.106,-0.229,0.005,-0.016,1.003,0.000,0.000,0.000,0.3530,1,0,-1.18,1.52,0.94,0.0622,0.0336,0.3554,0.0398,0.0246,0.3000,0.2544,-1.19,2.89,-19.88,0.0000,0.0000,1.2320,1.5540,2.3490,0,0.0000,0.0000,0.0000,0.0000,0.0000,0
11944,0.0742,0.0164,0.3540,-0.0015,-0.0117,-0.0031,-0.07,0.30,0.63,0,3.542,-0.887,3.110,-1.599,0.006,-0.016,1.001,0.000,0.000,0.000,0.3530,0,0,-1.18,1.33,0.87,0.0640,0.0298,0.3550,0.0398,0.0246,0.3000,0.2549,-1.13,2.47,-18.82,0.0000,0.0000,1.2340,1.5490,2.3520,0,0.0000,0.0000,0.0000,0.0000,0.0000,0
11996,0.0739,0.0149,0.3534,-0.0045,-0.0128,-0.0049,-0.10,0.14,0.56,0,3.531,0.122,3.558,-1.518,0.005,-0.015,1.005,0.000,0.000,0.000,0.3560,2,0,-1.22,1.17,0.79,0.0619,0.0301,0.3544,0.0398,0.0246,0.3000,0.2552,-1.30,2.30,-16.84,0.0000,0.0000,1.2340,1.5490,2.3520,0,0.0000,0.0000,0.0000,0.0000,0.0000,0
12047,0.0742,0.0191,0.3545,-0.0047,-0.0030,0.0035,-0.17,0.04,0.50,0,3.547,-0.233,1.147,-1.771,0.003,-0.020,0.999,0.000,0.000,0.000,0.3550,0,0,-1.15,0.95,0.66,0.0638,0.0236,0.3552,0.0398,0.0246,0.3000,0.2541,-0.52,2.32,-14.87,0.0000,0.0000,1.2290,1.5490,2.3500,0,0.0000,0.0000,0.0000,0.0000,0.0000,0
12098,0.0748,0.0144,0.3549,-0.0036,-0.0095,0.0059,-0.14,-0.03,0.42,0,3.537,1.367,3.345,-1.224,0.004,-0.015,0.996,0.000,0.000,0.000,0.3530,0,0,-1.17,0.89,0.56,0.0620,0.0226,0.3553,0.0398,0.0246,0.3000,0.2537,-1.18,2.42,-12.46,0.0000,0.0000,1.2290,1.5490,2.3500,0,0.0000,0.0000,0.0000,0.0000,0.0000,0
12149,0.0746,0.0139,0.3542,-0.0033,-0.0083,0.0014,-0.12,-0.12,0.33,0,3.542,2.124,1.642,-1.048,0.004,-0.018,0.997,0.000,0.000,0.000,0.3530,0,0,-1.09,0.73,0.50,0.0598,0.0216,0.3547,0.0398,0.0246,0.3000,0.2543,-1.15,2.42,-9.98,0.0000,0.2760,1.2330,1.5500,2.3450,0,0.0000,0.0000,0.0000,0.0000,0.0000,0
12200,0.0731,0.0136,0.3537,-0.0048,-0.0072,-0.0011,-0.10,-0.17,0.28,0,3.537,-1.686,-1.723,-0.165,0.008,-0.017,1.001,0.000,0.000,0.000,0.3530,0,0,-0.99,0.64,0.44,0.0575,0.0207,0.3540,0.0398,0.0246,0.3000,0.2547,-1.12,2.23,-8.51,0.0000,0.2760,1.2330,1.5500,2.3450,0,0.0000,0.0000,0.0000,0.0000,0.0000,0
12252,0.0749,0.0135,0.3533,-0.0000,-0.0059,-0.0021,-0.10,-0.17,0.28,0,3.542,1.485,-0.962,0.085,0.006,-0.017,0.999,0.000,0.000,0.000,0.3530,1,-1,-1.07,0.73,0.44,0.0550,0.0198,0.3536,0.0398,0.0246,0.3000,0.2549,-1.07,2.59,-8.40,0.0000,0.2740,1.2320,1.5460,2.3480,0,0.0000,0.0000,0.0000,0.0000,0.0000,0
12304,0.0774,0.0121,0.3531,0.0059,-0.0067,-0.0029,-0.12,-0.16,0.29,0,3.537,-2.943,-1.936,0.864,0.005,-0.017,1.001,0.000,0.000,0.000,0.3520,0,0,-1.00,0.68,0.48,0.0685,0.0196,0.3535,0.0398,0.0246,0.3000,0.2550,-1.20,3.06,-8.78,0.0000,0.2740,1.2320,1.5460,2.3480,0,0.0000,0.0000,0.0000,0.0000,0.0000,0
12355,0.0804,0.0112,0.3525,0.0117,-0.0066,-0.0049,-0.16,-0.14,0.31,0,3.542,0.041,-0.407,0.883,0.001,-0.016,1.001,0.000,0.000,0.000,0.3540,-1,0,-1.15,0.78,0.52,0.0686,0.0189,0.3529,0.0398,0.0246,0.3000,0.2553,-1.27,3.55,-9.37,0.0000,0.0000,1.2330,1.5450,2.3540,0,0.0000,0.0000,0.0000,0.0000,0.0000,0
12406,0.0842,0.0096,0.3530,0.0184,-0.0075,-0.0016,-0.17,-0.09,0.36,0,3.531,-0.111,-3.822,-0.140,0.002,-0.013,1.000,0.000,0.000,0.000,0.3520,0,-1,-1.17,0.79,0.57,0.0686,0.0207,0.3530,0.0398,0.0246,0.3000,0.2549,-1.43,4.16,-10.75,0.0000,0.0000,1.2330,1.5450,2.3540,0,0.0000,0.0000,0.0000,0.0000,0.0000,0
12458,0.0849,0.0070,0.3525,0.0187,-0.0107,-0.0039,-0.16,0.11,0.38,0,3.537,1.117,-0.474,1.146,0.005,-0.015,0.999,0.000,0.000,0.000,0.3490,0,0,-1.18,0.97,0.57,0.0694,0.0208,0.3526,0.0398,0.0246,0.3000,0.2552,-1.77,4.22,-11.32,0.0000,0.2620,1.2330,1.5410,2.3540,0,0.0000,0.0000,0.0000,0.0000,0.0000,0
12509,0.0916,0.0102,0.3506,0.0283,-0.0029,-0.0126,-0.17,0.17,0.42,0,3.531,3.693,0.794,1.215,0.004,-0.012,1.004,0.000,0.000,0.000,0.3480,4,-1,-1.12,1.00,0.63,0.0690,0.0212,0.3512,0.0398,0.0246,0.3000,0.2565,-1.16,5.14,-12.69,0.0000,0.2620,1.2330,1.5410,2.3540,0,0.0000,0.0000,0.0000,0.0000,0.0000,0
12560,0.0925,0.0136,0.3489,0.0259,0.0051,-0.0162,-0.06,0.21,0.47,0,3.537,1.229,-2.147,1.301,0.005,-0.017,1.005,0.000,0.000,0.000,0.3480,-2,-3,-0.83,0.92,0.71,0.0722,0.0104,0.3502,0.0398,0.0246,0.3000,0.2572,-0.52,5.08,-14.04,0.0000,0.2650,1.2370,1.5410,2.3520,0,0.0000,0.0000,0.0000,0.0000,0.0000,0
12611,0.0936,0.0067,0.3478,0.0234,-0.0068,-0.0155,-0.05,0.40,0.52,0,3.526,-2.205,-1.850,0.555,0.005,-0.016,1.008,0.000,0.000,0.000,0.3470,3,1,-0.81,0.99,0.79,0.0768,0.0122,0.3495,0.0398,0.0246,0.3000,0.2573,-1.59,5.03,-15.58,0.0000,0.2650,1.2370,1.5410,2.3520,0,0.0000,0.0000,0.0000,0.0000,0.0000,0
12662,0.0993,0.0149,0.3469,0.0285,0.0096,-0.0143,-0.10,0.48,0.57,0,3.537,-0.114,4.823,0.574,0.006,-0.013,1.010,0.000,0.000,0.000,0.3460,0,0,-0.88,1.10,0.82,0.0755,0.0061,0.3486,0.0398,0.0246,0.3000,0.2574,-0.21,5.69,-17.22,0.0000,0.0000,1.2390,1.5400,2.3600,0,0.0000,0.0000,0.0000,0.0000,0.0000,0
12713,0.1007,0.0099,0.3459,0.0244,0.0009,-0.0123,-0.10,0.41,0.63,0,3.526,1.561,0.298,1.317,0.007,-0.018,1.009,0.000,0.000,0.000,0.3440,0,0,-0.88,0.85,0.84,0.0754,0.0037,0.3479,0.0398,0.0246,0.3000,0.2574,-0.99,5.59,-18.87,0.0000,0.0000,1.2390,1.5400,2.3600,0,0.0000,0.0000,0.0000,0.0000,0.0000,0
12765,0.1015,0.0114,0.3446,0.0203,0.0042,-0.0116,0.03,0.43,0.67,0,3.537,-2.205,-0.510,-0.338,0.003,-0.014,1.011,0.000,0.000,0.000,0.3420,3,0,-0.80,0.84,0.91,0.0751,0.0011,0.3469,0.0398,0.0246,0.3000,0.2575,-0.72,5.45,-20.14,0.0000,0.2640,1.2280,1.5410,2.3570,0,0.0000,0.0000,0.0000,0.0000,0.0000,0
12817,0.1053,0.0140,0.3430,0.0221,0.0086,-0.0127,0.07,0.45,0.72,0,3.526,-5.264,1.142,1.898,0.003,-0.017,1.011,0.000,0.000,0.000,0.3450,-5,1,-0.90,0.85,0.89,0.0768,-0.0045,0.3456,0.0398,0.0246,0.3000,0.2580,-0.32,5.80,-21.47,0.0000,0.2640,1.2280,1.5410,2.3570,0,0.0000,0.0000,0.0000,0.0000,0.0000,0
12868,0.1052,0.0040,0.3436,0.0161,-0.0118,-0.0023,-0.03,0.50,0.77,0,3.537,0.508,-0.802,1.294,0.011,-0.009,1.008,0.000,0.000,0.000,0.3440,0,0,-1.24,0.80,0.99,0.0749,0.0012,0.3460,0.0398,0.0246,0.3000,0.2567,-2.03,5.54,-23.04,0.0000,0.2590,1.2330,1.5380,2.3570,0,0.0000,0.0000,0.0000,0.0000,0.0000,0
12919,0.1046,0.0107,0.3438,0.0097,0.0017,0.0036,0.08,0.42,0.83,0,3.531,-2.903,2.768,1.122,0.005,-0.015,1.005,0.000,0.000,0.000,0.3460,0,0,-1.22,0.84,1.05,0.0740,0.0003,0.3460,0.0398,0.0246,0.3000,0.2560,-0.90,5.20,-24.80,0.0000,0.2590,1.2330,1.5380,2.3570,0,0.0000,0.0000,0.0000,0.0000,0.0000,0
12970,0.1038,0.0117,0.3451,0.0038,0.0031,0.0114,0.03,0.36,0.87,0,3.537,-1.162,3.545,0.652,0.008,-0.014,1.006,0.000,0.000,0.000,0.3420,2,1,-1.37,0.69,1.11,0.0729,-0.0004,0.3466,0.0398,0.0246,0.3000,0.2549,-0.76,4.88,-26.14,0.9030,0.2650,1.2410,1.5410,2.3590,0,0.0000,0.0000,0.0000,0.0000,0.0000,0
13021,0.1039,0.0142,0.3441,0.0010,0.0076,0.0058,-0.04,0.18,0.93,0,3.526,4.200,0.791,0.924,0.008,-0.016,1.001,0.000,0.000,0.000,0.3430,0,1,-1.38,0.51,1.15,0.0721,-0.0064,0.3460,0.0398,0.0246,0.3000,0.2557,-0.36,4.74,-27.96,0.9030,0.2650,1.2410,1.5410,2.3590,0,0.0000,0.0000,0.0000,0.0000,0.0000,0
13072,0.1019,0.0134,0.3438,-0.0043,0.0059,0.0038,0.03,0.06,1.01,0,3.537,-1.763,2.224,1.021,0.008,-0.013,1.000,0.000,0.000,0.000,0.3460,0,0,-1.17,0.48,1.19,0.0700,-0.0073,0.3457,0.0398,0.0246,0.3000,0.2560,-0.50,4.34,-30.40,0.0000,0.2450,1.2300,1.5450,2.3600,0,0.0000,0.0000,0.0000,0.0000,0.0000,0
13123,0.1009,0.0134,0.3450,-0.0064,0.0049,0.0081,0.06,-0.02,1.09,0,3.526,0.388,2.726,1.493,0.008,-0.012,1.001,0.000,0.000,0.000,0.3450,0,1,-1.26,0.36,1.24,0.0686,-0.0084,0.3463,0.0398,0.0246,0.3000,0.2553,-0.55,4.17,-32.76,0.0000,0.2450,1.2300,1.5450,2.3600,0,0.0000,0.0000,0.0000,0.0000,0.0000,0
13174,0.1013,0.0145,0.3453,-0.0046,0.0062,0.0074,0.05,-0.12,1.17,0,3.531,-1.174,1.143,1.293,0.008,-0.014,0.997,0.000,0.000,0.000,0.3430,0,0,-1.26,0.23,1.30,0.0667,-0.0079,0.3465,0.0398,0.0246,0.3000,0.2553,-0.41,4.29,-35.06,0.0000,0.0000,1.2270,1.5490,2.3570,0,0.0000,0.0000,0.0000,0.0000,0.0000,0
13225,0.0993,0.0147,0.3445,-0.0074,0.0055,-0.0000,0.03,-0.20,1.25,0,3.526,1.574,-0.414,1.965,0.008,-0.018,0.996,0.000,0.000,0.000,0.3460,-1,-1,-1.32,0.17,1.36,0.0653,-0.0082,0.3458,0.0398,0.0246,0.3000,0.2563,-0.43,4.00,-37.50,0.0000,0.0000,1.2270,1.5490,2.3570,0,0.0000,0.0000,0.0000,0.0000,0.0000,0
13276,0.0992,0.0149,0.3452,-0.0052,0.0051,0.0031,0.06,-0.20,1.30,0,3.531,-1.033,1.233,1.255,0.011,-0.017,0.997,0.000,0.000,0.000,0.3450,1,0,-1.26,0.14,1.46,0.0691,-0.0050,0.3460,0.0398,0.0246,0.3000,0.2558,-0.43,4.11,-39.12,0.0000,0.2500,1.2280,1.5470,2.3600,0,0.0000,0.0000,0.0000,0.0000,0.0000,0
13327,0.0997,0.0156,0.3452,-0.0023,0.0055,0.0011,0.07,-0.23,1.39,0,3.526,2.499,-3.738,1.102,0.011,-0.014,0.998,0.000,0.000,0.000,0.3430,0,0,-1.30,0.08,1.54,0.0692,-0.0064,0.3459,0.0398,0.0246,0.3000,0.2560,-0.36,4.28,-41.79,0.0000,0.2500,1.2280,1.5470,2.3600,0,0.0000,0.0000,0.0000,0.0000,0.0000,0
13378,0.1002,0.0178,0.3442,0.0011,0.0089,-0.0045,0.06,-0.18,1.46,0,3.531,2.260,-0.295,0.072,0.005,-0.019,0.998,0.000,0.000,0.000,0.3410,0,0,-1.17,0.27,1.61,0.0696,-0.0060,0.3450,0.0398,0.0246,0.3000,0.2568,-0.04,4.47,-43.67,0.0000,0.2470,1.2250,1.5460,2.3640,0,0.0000,0.0000,0.0000,0.0000,0.0000,0
13429,0.0999,0.0187,0.3424,0.0016,0.0091,-0.0126,0.09,-0.12,1.50,0,3.521,4.111,-1.912,0.773,0.007,-0.010,1.006,0.000,0.000,0.000,0.3430,1,0,-1.06,0.28,1.61,0.0699,-0.0055,0.3436,0.0398,0.0246,0.3000,0.2580,0.03,4.45,-45.02,0.0000,0.2470,1.2250,1.5460,2.3640,0,0.0000,0.0000,0.0000,0.0000,0.0000,0
13480,0.1015,0.0247,0.3422,0.0058,0.0198,-0.0101,0.19,-0.03,1.51,0,3.526,3.078,-3.013,0.273,0.008,-0.011,1.006,0.000,0.000,0.000,0.3410,3,0,-0.80,0.39,1.71,0.0692,-0.0109,0.3433,0.0398,0.0246,0.3000,0.2578,0.98,4.77,-45.32,0.0000,0.2410,1.2220,1.5500,2.3610,0,0.0000,0.0000,0.0000,0.0000,0.0000,0
13531,0.1028,0.0256,0.3413,0.0082,0.0181,-0.0098,0.27,0.03,1.51,0,3.521,-0.233,-0.976,-0.164,0.010,-0.012,1.009,0.000,0.000,0.000,0.3430,0,0,-0.61,0.54,1.77,0.0694,-0.0156,0.3424,0.0398,0.0246,0.3000,0.2579,0.97,4.97,-45.44,0.0000,0.2410,1.2220,1.5500,2.3610,0,0.0000,0.0000,0.0000,0.0000,0.0000,0
13583,0.1048,0.0270,0.3418,0.0114,0.0168,-0.0019,0.28,0.09,1.50,0,3.526,0.412,-2.055,-0.056,0.006,-0.014,1.008,0.000,0.000,0.000,0.3380,0,0,-0.63,0.59,1.76,0.0696,-0.0171,0.3427,0.0398,0.0246,0.3000,0.2570,1.00,5.29,-45.03,0.0000,0.2520,1.2190,1.5490,2.3650,0,0.0000,0.0000,0.0000,0.0000,0.0000,0
13634,0.1077,0.0304,0.3399,0.0156,0.0202,-0.0081,0.24,0.17,1.48,0,3.521,2.057,-1.654,-1.809,0.003,-0.016,1.009,0.000,0.000,0.000,0.3380,0,0,-0.60,0.70,1.76,0.0697,-0.0186,0.3415,0.0398,0.0246,0.3000,0.2580,1.41,5.68,-44.32,0.0000,0.2520,1.2190,1.5490,2.3650,0,0.0000,0.0000,0.0000,0.0000,0.0000,0
13685,0.1084,0.0313,0.3387,0.0141,0.0180,-0.0090,0.29,0.27,1.41,0,3.526,2.562,-2.403,-1.104,0.008,-0.015,1.006,0.000,0.000,0.000,0.3380,0,-1,-0.50,0.79,1.67,0.0696,-0.0202,0.3408,0.0398,0.0246,0.3000,0.2583,1.37,5.65,-42.38,0.9510,0.0000,1.2250,1.5420,2.3620,0,0.0000,0.0000,0.0000,0.0000,0.0000,0
13736,0.1096,0.0316,0.3381,0.0128,0.0139,-0.0070,0.34,0.32,1.37,0,3.521,-2.334,0.003,-0.993,0.005,-0.014,1.004,0.000,0.000,0.000,0.3370,0,0,-0.42,0.88,1.55,0.0738,-0.0147,0.3404,0.0398,0.0246,0.3000,0.2582,1.19,5.67,-41.01,0.9510,0.0000,1.2250,1.5420,2.3620,0,0.0000,0.0000,0.0000,0.0000,0.0000,0
13787,0.1118,0.0308,0.3374,0.0135,0.0078,-0.0061,0.32,0.35,1.31,0,3.526,0.021,-0.313,-0.382,0.008,-0.010,1.012,0.000,0.000,0.000,0.3370,0,0,-0.53,0.88,1.50,0.0742,-0.0152,0.3397,0.0398,0.0246,0.3000,0.2583,0.84,5.87,-39.22,0.0000,0.2470,1.2160,1.5450,2.3610,0,0.0000,0.0000,0.0000,0.0000,0.0000,0
13838,0.1121,0.0336,0.3370,0.0100,0.0106,-0.0035,0.24,0.31,1.28,0,3.521,-2.905,0.467,0.527,0.008,-0.017,1.005,0.000,0.000,0.000,0.3370,0,0,-0.53,0.89,1.48,0.0743,-0.0157,0.3393,0.0398,0.0246,0.3000,0.2580,1.18,5.73,-38.30,0.0000,0.2470,1.2160,1.5450,2.3610,0,0.0000,0.0000,0.0000,0.0000,0.0000,0
13889,0.1152,0.0319,0.3369,0.0133,0.0044,0.0006,0.11,0.24,1.25,0,3.521,3.942,-3.611,-0.464,0.008,-0.011,1.004,0.000,0.000,0.000,0.3370,1,0,-0.68,0.87,1.51,0.0743,-0.0165,0.3391,0.0398,0.0246,0.3000,0.2576,0.76,6.12,-37.59,0.0000,0.2490,1.2240,1.5540,2.3630,0,0.0000,0.0000,0.0000,0.0000,0.0000,0
13940,0.1147,0.0328,0.3371,0.0086,0.0050,0.0031,0.12,0.28,1.27,0,3.521,1.456,0.824,1.092,0.007,-0.017,1.001,0.000,0.000,0.000,0.3370,-2,0,-0.48,1.05,1.48,0.0749,-0.0175,0.3390,0.0398,0.0246,0.3000,0.2573,0.85,5.87,-38.09,0.0000,0.2490,1.2240,1.5540,2.3630,0,0.0000,0.0000,0.0000,0.0000,0.0000,0
13991,0.1181,0.0335,0.3372,0.0123,0.0046,0.0044,0.13,0.30,1.30,0,3.526,-0.672,-0.214,0.274,0.004,-0.016,1.001,0.000,0.000,0.000,0.3360,-1,0,-0.42,1.00,1.54,0.0746,-0.0166,0.3389,0.0398,0.0246,0.3000,0.2571,0.89,6.29,-38.93,0.0000,0.0000,1.2130,1.5530,2.3640,0,0.0000,0.0000,0.0000,0.0000,0.0000,0
14041,0.1184,0.0359,0.3369,0.0092,0.0077,0.0025,0.11,0.27,1.36,0,3.516,1.790,-0.534,2.235,0.010,-0.013,0.998,0.000,0.000,0.000,0.3330,-3,0,-0.47,1.01,1.56,0.0741,-0.0159,0.3384,0.0398,0.0246,0.3000,0.2574,1.21,6.15,-40.90,0.0000,0.0000,1.2130,1.5530,2.3640,0,0.0000,0.0000,0.0000,0.0000,0.0000,0
14093,0.1185,0.0342,0.3351,0.0063,0.0018,-0.0058,0.16,0.28,1.46,0,3.521,-0.063,0.313,2.037,0.008,-0.014,1.000,0.000,0.000,0.000,0.3340,-1,0,-0.42,1.03,1.68,0.0736,-0.0122,0.3370,0.0398,0.0246,0.3000,0.2586,0.80,6.00,-43.71,0.0000,0.0000,1.2120,1.5500,2.3660,0,0.0000,0.0000,0.0000,0.0000,0.0000,0
14143,0.1194,0.0383,0.3343,0.0055,0.0081,-0.0069,0.21,0.24,1.55,0,3.516,0.648,-0.076,2.541,0.010,-0.013,1.002,0.000,0.000,0.000,0.3360,0,0,-0.44,1.01,1.78,0.0731,-0.0103,0.3360,0.0398,0.0246,0.3000,0.2589,1.39,6.02,-46.57,0.0000,0.0000,1.2120,1.5500,2.3660,0,0.0000,0.0000,0.0000,0.0000,0.0000,0
14195,0.1183,0.0392,0.3349,0.0008,0.0072,-0.0014,0.24,0.21,1.67,0,3.521,0.053,-0.344,2.563,0.009,-0.015,1.003,0.000,0.000,0.000,0.3340,-1,0,-0.41,1.02,1.91,0.0720,-0.0095,0.3360,0.0398,0.0246,0.3000,0.2582,1.42,5.74,-49.98,0.0000,0.2600,1.2130,1.5550,2.3700,0,0.0000,0.0000,0.0000,0.0000,0.0000,0
14245,0.1163,0.0401,0.3344,-0.0051,0.0062,-0.0019,0.27,0.15,1.77,0,3.521,-0.187,1.857,1.468,0.004,-0.012,1.005,0.000,0.000,0.000,0.3380,0,-1,-0.43,1.01,2.03,0.0730,-0.0069,0.3354,0.0398,0.0246,0.3000,0.2583,1.44,5.31,-53.23,0.0000,0.2600,1.2130,1.5550,2.3700,0,0.0000,0.0000,0.0000,0.0000,0.0000,0
14297,0.1169,0.0433,0.3362,-0.0048,0.0102,0.0074,0.22,0.10,1.86,0,3.526,1.059,1.488,1.099,0.005,-0.013,1.001,0.000,0.000,0.000,0.3380,0,0,-0.43,0.90,2.08,0.0742,-0.0063,0.3364,0.0398,0.0246,0.3000,0.2570,1.87,5.40,-55.94,0.0000,0.2440,1.2060,1.5500,2.3680,0,0.0000,0.0000,0.0000,0.0000,0.0000,0
14347,0.1162,0.0431,0.3374,-0.0066,0.0069,0.0106,0.27,0.03,1.90,0,3.516,-0.938,1.300,0.644,0.007,-0.017,0.995,0.000,0.000,0.000,0.3350,1,0,-0.38,0.82,2.13,0.0734,-0.0057,0.3371,0.0398,0.0246,0.3000,0.2564,1.70,5.27,-57.06,0.0000,0.2440,1.2060,1.5500,2.3680,0,0.0000,0.0000,0.0000,0.0000,0.0000,0
14399,0.1157,0.0489,0.3366,-0.0070,0.0160,0.0031,0.33,-0.05,1.93,0,3.526,-0.094,0.611,0.026,0.009,-0.013,0.996,0.000,0.000,0.000,0.3360,-1,-1,-0.40,0.74,2.14,0.0745,-0.0095,0.3367,0.0398,0.0246,0.3000,0.2574,2.55,5.20,-57.83,0.0000,0.2420,0.0000,1.5460,2.3650,0,0.0000,0.0000,0.0000,0.0000,0.0000,0
14450,0.1156,0.0480,0.3364,-0.0058,0.0101,0.0003,0.30,-0.12,1.94,0,3.521,1.537,-1.170,0.999,0.008,-0.008,0.999,0.000,0.000,0.000,0.3380,1,0,-0.42,0.69,2.12,0.0762,-0.0077,0.3365,0.0398,0.0246,0.3000,0.2577,2.20,5.25,-58.10,0.0000,0.2420,0.0000,1.5460,2.3650,0,0.0000,0.0000,0.0000,0.0000,0.0000,0
14501,0.1164,0.0502,0.3372,-0.0026,0.0110,0.0038,0.31,-0.07,1.96,0,3.526,1.186,0.084,-0.658,0.010,-0.009,1.000,0.000,0.000,0.000,0.3340,1,1,-0.33,0.75,2.17,0.0761,-0.0099,0.3370,0.0398,0.0246,0.3000,0.2572,2.41,5.47,-58.92,0.9860,0.2370,1.2030,1.5620,2.3650,0,0.0000,0.0000,0.0000,0.0000,0.0000,0
14552,0.1160,0.0517,0.3358,-0.0025,0.0105,-0.0048,0.35,-0.05,1.95,0,3.516,0.081,0.664,0.638,0.010,-0.015,1.002,0.000,0.000,0.000,0.3340,0,0,-0.25,0.76,2.15,0.0738,-0.0125,0.3360,0.0398,0.0246,0.3000,0.2584,2.47,5.42,-58.42,0.9860,0.2370,1.2030,1.5620,2.3650,0,0.0000,0.0000,0.0000,0.0000,0.0000,0
14603,0.1172,0.0502,0.3347,0.0007,0.0035,-0.0097,0.39,-0.06,1.97,0,3.521,-4.198,-1.050,0.365,0.012,-0.014,0.999,0.000,0.000,0.000,0.3350,1,0,-0.25,0.73,2.19,0.0731,-0.0139,0.3353,0.0398,0.0246,0.3000,0.2591,2.03,5.64,-59.08,0.0000,0.2360,1.2050,1.5550,2.3700,0,0.0000,0.0000,0.0000,0.0000,0.0000,0
14654,0.1169,0.0528,0.3344,0.0006,0.0057,-0.0088,0.25,-0.04,1.99,0,3.510,-0.299,-1.330,-0.146,0.006,-0.009,1.002,0.000,0.000,0.000,0.3320,-1,0,-0.46,0.77,2.19,0.0743,-0.0156,0.3351,0.0398,0.0246,0.3000,0.2591,2.32,5.62,-59.56,0.0000,0.2360,1.2050,1.5550,2.3700,0,0.0000,0.0000,0.0000,0.0000,0.0000,0
14705,0.1196,0.0533,0.3329,0.0067,0.0043,-0.0120,0.19,-0.01,1.98,0,3.516,2.973,-1.405,-0.021,0.009,-0.011,1.005,0.000,0.000,0.000,0.3290,0,0,-0.50,0.83,2.17,0.0740,-0.0140,0.3340,0.0398,0.0246,0.3000,0.2597,2.29,6.08,-59.32,0.0000,0.2480,1.2060,1.5520,2.3680,0,0.0000,0.0000,0.0000,0.0000,0.0000,0
14756,0.1196,0.0531,0.3305,0.0060,0.0015,-0.0181,0.26,0.07,1.99,0,3.510,-2.486,-3.327,0.949,0.006,-0.014,1.007,0.000,0.000,0.000,0.3330,1,-1,-0.35,0.91,2.17,0.0734,-0.0151,0.3323,0.0398,0.0246,0.3000,0.2608,2.13,6.03,-59.70,0.0000,0.2480,1.2060,1.5520,2.3680,0,0.0000,0.0000,0.0000,0.0000,0.0000,0
14808,0.1199,0.0565,0.3311,0.0052,0.0064,-0.0082,0.20,0.18,2.02,0,3.521,-1.770,0.439,0.844,0.008,-0.015,1.012,0.000,0.000,0.000,0.3300,1,1,-0.47,1.04,2.18,0.0785,-0.0171,0.3325,0.0398,0.0246,0.3000,0.2596,2.61,6.04,-60.47,0.0000,0.2440,1.2010,1.5510,2.3690,0,0.0000,0.0000,0.0000,0.0000,0.0000,0
14859,0.1226,0.0571,0.3303,0.0096,0.0061,-0.0079,0.11,0.17,2.04,0,3.510,1.027,-0.352,0.121,0.004,-0.011,1.005,0.000,0.000,0.000,0.3290,1,0,-0.55,1.03,2.23,0.0765,-0.0198,0.3319,0.0398,0.0246,0.3000,0.2597,2.64,6.43,-61.20,0.0000,0.2440,1.2010,1.5510,2.3690,0,0.0000,0.0000,0.0000,0.0000,0.0000,0
14910,0.1206,0.0561,0.3295,0.0031,0.0025,-0.0059,0.14,0.14,2.05,0,3.521,0.183,-0.958,-0.659,0.003,-0.012,1.003,0.000,0.000,0.000,0.3300,0,-1,-0.49,1.04,2.24,0.0763,-0.0227,0.3312,0.0398,0.0246,0.3000,0.2597,2.40,5.99,-61.40,0.9880,0.2420,1.2050,1.5560,2.3670,0,0.0000,0.0000,0.0000,0.0000,0.0000,0
14961,0.1222,0.0552,0.3296,0.0048,-0.0009,-0.0014,0.12,0.22,2.03,0,3.516,0.123,1.995,-1.023,0.004,-0.012,1.005,0.000,0.000,0.000,0.3340,0,0,-0.49,1.07,2.18,0.0785,-0.0232,0.3311,0.0398,0.0246,0.3000,0.2592,2.18,6.20,-60.78,0.9880,0.2420,1.2050,1.5560,2.3670,0,0.0000,0.0000,0.0000,0.0000,0.0000,0
15011,0.1231,0.0554,0.3317,0.0045,-0.0013,0.0114,0.10,0.19,1.99,0,3.521,-1.088,0.289,-0.484,0.006,-0.008,1.002,0.000,0.000,0.000,0.3320,0,1,-0.49,0.97,2.13,0.0778,-0.0251,0.3323,0.0398,0.0246,0.3000,0.2574,2.19,6.29,-59.66,0.0000,0.2370,1.2060,1.5530,2.3700,0,0.0000,0.0000,0.0000,0.0000,0.0000,0
15063,0.1233,0.0574,0.3323,0.0030,0.0026,0.0115,0.06,0.16,1.95,0,3.516,0.125,-1.163,0.116,0.007,-0.011,1.000,0.000,0.000,0.000,0.3310,0,0,-0.57,0.96,2.12,0.0751,-0.0225,0.3327,0.0398,0.0246,0.3000,0.2572,2.53,6.24,-58.57,0.0000,0.2370,1.2060,1.5530,2.3700,0,0.0000,0.0000,0.0000,0.0000,0.0000,0
15114,0.1224,0.0576,0.3322,-0.0007,0.0020,0.0070,0.05,0.19,1.94,0,3.521,-0.223,-1.119,-0.335,0.007,-0.016,0.994,0.000,0.000,0.000,0.3270,0,0,-0.56,1.02,2.13,0.0736,-0.0236,0.3326,0.0398,0.0246,0.3000,0.2578,2.50,5.99,-58.12,0.0000,0.2450,1.2060,1.5550,2.3740,0,0.0000,0.0000,0.0000,0.0000,0.0000,0
15165,0.1245,0.0576,0.3300,0.0029,0.0016,-0.0056,0.09,0.24,1.91,0,3.510,1.411,-0.159,-0.848,0.008,-0.011,1.002,0.000,0.000,0.000,0.3310,-1,-2,-0.58,1.08,2.11,0.0718,-0.0249,0.3311,0.0398,0.0246,0.3000,0.2595,2.47,6.27,-57.18,0.0000,0.2450,1.2060,1.5550,2.3740,0,0.0000,0.0000,0.0000,0.0000,0.0000,0
15216,0.1222,0.0562,0.3303,-0.0041,-0.0025,-0.0030,0.09,0.19,1.86,0,3.516,-2.848,-0.287,-1.230,0.006,-0.011,1.005,0.000,0.000,0.000,0.3250,2,0,-0.55,0.99,2.02,0.0850,-0.0171,0.3315,0.0398,0.0246,0.3000,0.2592,2.18,5.78,-55.74,0.0000,0.2390,1.2040,1.5500,2.3740,0,0.0000,0.0000,0.0000,0.0000,0.0000,0
15267,0.1238,0.0589,0.3277,-0.0019,0.0026,-0.0144,0.03,0.17,1.79,0,3.505,1.351,1.027,-2.052,0.007,-0.010,1.003,0.000,0.000,0.000,0.3270,-1,0,-0.68,1.01,1.94,0.0854,-0.0200,0.3298,0.0398,0.0246,0.3000,0.2609,2.60,5.96,-53.85,0.0000,0.2390,1.2040,1.5500,2.3740,0,0.0000,0.0000,0.0000,0.0000,0.0000,0
15318,0.1254,0.0564,0.3269,0.0005,-0.0032,-0.0130,0.07,0.11,1.71,0,3.516,-0.870,-1.779,-2.728,0.008,-0.016,1.007,0.000,0.000,0.000,0.3270,0,0,-0.62,0.96,1.85,0.0855,-0.0184,0.3289,0.0398,0.0246,0.3000,0.2609,2.15,6.18,-51.38,0.0000,0.0000,1.2000,1.5510,2.3790,0,0.0000,0.0000,0.0000,0.0000,0.0000,0
15369,0.1250,0.0577,0.3265,-0.0016,-0.0005,-0.0095,0.02,0.23,1.60,0,3.510,-0.984,0.085,-2.178,0.009,-0.011,1.010,0.000,0.000,0.000,0.3260,0,0,-0.66,1.05,1.71,0.0854,-0.0185,0.3284,0.0398,0.0246,0.3000,0.2606,2.37,6.07,-47.91,0.0000,0.0000,1.2000,1.5510,2.3790,0,0.0000,0.0000,0.0000,0.0000,0.0000,0
15420,0.1250,0.0579,0.3260,-0.0032,-0.0000,-0.0060,0.01,0.21,1.48,0,3.516,-0.156,1.578,-2.756,0.003,-0.006,1.007,0.000,0.000,0.000,0.3240,0,-1,-0.71,1.04,1.60,0.0852,-0.0186,0.3279,0.0398,0.0246,0.3000,0.2603,2.41,6.00,-44.33,0.0000,0.2570,1.2000,1.5500,2.3770,0,0.0000,0.0000,0.0000,0.0000,0.0000,0
15470,0.1247,0.0599,0.3249,-0.0050,0.0043,-0.0065,0.02,0.13,1.33,0,3.505,0.370,1.190,-3.232,0.006,-0.010,1.008,0.000,0.000,0.000,0.3270,0,0,-0.71,0.93,1.44,0.0903,-0.0186,0.3271,0.0398,0.0246,0.3000,0.2606,2.75,5.89,-39.94,0.0000,0.2570,1.2000,1.5500,2.3770,0,0.0000,0.0000,0.0000,0.0000,0.0000,0
15522,0.1255,0.0586,0.3257,-0.0037,0.0012,0.0018,-0.03,0.07,1.19,0,3.516,0.794,1.362,-2.933,0.008,-0.012,1.006,0.000,0.000,0.000,0.3280,-2,0,-0.69,0.87,1.27,0.0905,-0.0185,0.3275,0.0398,0.0246,0.3000,0.2595,2.53,6.04,-35.82,0.0000,0.2570,1.2000,1.5600,2.3770,0,0.0000,0.0000,0.0000,0.0000,0.0000,0
15573,0.1246,0.0577,0.3269,-0.0058,-0.0010,0.0092,0.00,0.05,1.04,0,3.510,0.376,-0.019,-3.354,0.008,-0.015,1.002,0.000,0.000,0.000,0.3270,-1,0,-0.69,0.80,1.13,0.0904,-0.0135,0.3282,0.0398,0.0246,0.3000,0.2585,2.37,5.90,-31.34,0.0000,0.2570,1.2000,1.5600,2.3770,0,0.0000,0.0000,0.0000,0.0000,0.0000,0
15624,0.1248,0.0594,0.3273,-0.0051,0.0026,0.0104,0.04,0.02,0.89,0,3.516,0.783,-0.454,-3.196,0.010,-0.016,0.999,0.000,0.000,0.000,0.3220,-2,2,-0.67,0.80,0.96,0.0903,-0.0114,0.3284,0.0398,0.0246,0.3000,0.2583,2.66,5.95,-26.65,0.0000,0.2500,1.1950,1.5590,2.3710,0,0.0000,0.0000,0.0000,0.0000,0.0000,0
15675,0.1251,0.0594,0.3253,-0.0040,0.0021,-0.0016,0.00,-0.01,0.71,0,3.510,0.713,2.238,-3.010,0.007,-0.013,0.998,0.000,0.000,0.000,0.3280,1,0,-0.65,0.85,0.81,0.0867,-0.0074,0.3268,0.0398,0.0246,0.3000,0.2600,2.62,5.99,-21.37,0.0000,0.2500,1.1950,1.5590,2.3710,0,0.0000,0.0000,0.0000,0.0000,0.0000,0
15725,0.1231,0.0572,0.3266,-0.0075,-0.0031,0.0053,0.10,-0.03,0.56,0,3.510,-0.491,-0.303,-3.098,0.004,-0.015,0.997,0.000,0.000,0.000,0.3220,1,-1,-0.59,0.74,0.65,0.0862,-0.0085,0.3275,0.0398,0.0246,0.3000,0.2590,2.23,5.70,-16.90,0.0000,0.2650,1.1970,1.5600,2.3820,0,0.0000,0.0000,0.0000,0.0000,0.0000,0
15777,0.1220,0.0596,0.3246,-0.0088,0.0015,-0.0048,0.07,-0.00,0.42,0,3.505,-2.711,2.734,-1.781,0.004,-0.011,1.008,0.000,0.000,0.000,0.3210,1,0,-0.59,0.73,0.49,0.0879,-0.0103,0.3260,0.0398,0.0246,0.3000,0.2604,2.60,5.54,-12.63,0.0000,0.2650,1.1970,1.5600,2.3820,0,0.0000,0.0000,0.0000,0.0000,0.0000,0
15828,0.1225,0.0596,0.3227,-0.0068,0.0013,-0.0121,0.01,-0.07,0.31,0,3.510,0.970,-1.243,-1.577,0.009,-0.008,1.010,0.000,0.000,0.000,0.3210,-3,0,-0.71,0.59,0.39,0.0877,-0.0126,0.3246,0.0398,0.0246,0.3000,0.2616,2.59,5.64,-9.21,0.0000,0.2640,1.1960,1.5570,2.3870,0,0.0000,0.0000,0.0000,0.0000,0.0000,0
15879,0.1226,0.0563,0.3215,-0.0053,-0.0060,-0.0123,0.03,-0.07,0.25,0,3.505,-1.948,0.857,0.099,0.006,-0.007,1.007,0.000,0.000,0.000,0.3240,2,0,-0.71,0.64,0.30,0.0876,-0.0051,0.3237,0.0398,0.0246,0.3000,0.2618,2.00,5.71,-7.38,0.0000,0.2640,1.1960,1.5570,2.3870,0,0.0000,0.0000,0.0000,0.0000,0.0000,0
15930,0.1224,0.0608,0.3223,-0.0045,0.0041,-0.0028,0.04,-0.08,0.22,0,3.510,-0.322,-0.566,0.071,0.009,-0.011,1.008,0.000,0.000,0.000,0.3200,2,0,-0.77,0.60,0.32,0.0874,-0.0100,0.3242,0.0398,0.0246,0.3000,0.2607,2.81,5.77,-6.68,0.0000,0.2650,1.1930,1.5610,2.3880,0,0.0000,0.0000,0.0000,0.0000,0.0000,0
15980,0.1232,0.0581,0.3212,-0.0016,-0.0021,-0.0052,0.01,-0.08,0.25,0,3.505,0.281,-1.502,0.518,0.008,-0.014,1.007,0.000,0.000,0.000,0.3220,0,0,-0.75,0.62,0.33,0.0874,-0.0155,0.3234,0.0398,0.0246,0.3000,0.2611,2.32,5.95,-7.61,0.0000,0.2650,1.1930,1.5610,2.3880,0,0.0000,0.0000,0.0000,0.0000,0.0000,0
16032,0.1222,0.0561,0.3214,-0.0029,-0.0066,-0.0006,0.02,-0.05,0.30,0,3.516,-0.627,0.640,0.618,0.007,-0.014,1.003,0.000,0.000,0.000,0.3230,3,0,-0.73,0.70,0.36,0.0868,-0.0163,0.3235,0.0398,0.0246,0.3000,0.2606,1.98,5.83,-9.01,0.9510,0.0000,1.1970,1.5550,2.3870,0,0.0000,0.0000,0.0000,0.0000,0.0000,0
16084,0.1250,0.0593,0.3222,0.0042,0.0011,0.0045,-0.01,-0.10,0.35,0,3.500,0.699,0.175,0.571,0.007,-0.010,1.004,0.000,0.000,0.000,0.3200,0,0,-0.70,0.65,0.41,0.0881,-0.0279,0.3238,0.0398,0.0246,0.3000,0.2599,2.57,6.38,-10.36,0.9510,0.0000,1.1970,1.5550,2.3870,0,0.0000,0.0000,0.0000,0.0000,0.0000,0
16136,0.1253,0.0566,0.3213,0.0053,-0.0047,0.0005,-0.01,-0.12,0.39,0,3.516,-1.434,-3.058,1.041,0.009,-0.013,1.005,0.000,0.000,0.000,0.3220,-3,-1,-0.66,0.64,0.44,0.0877,-0.0307,0.3232,0.0398,0.0246,0.3000,0.2605,2.10,6.43,-11.79,0.0000,0.2710,1.1940,1.5380,2.3850,0,0.0000,0.0000,0.0000,0.0000,0.0000,0
16188,0.1257,0.0568,0.3217,0.0066,-0.0036,0.0019,-0.06,-0.01,0.44,0,3.505,-0.437,-2.893,0.740,0.008,-0.015,1.004,0.000,0.000,0.000,0.3190,0,0,-0.85,0.77,0.44,0.0920,-0.0155,0.3240,0.0398,0.0246,0.3000,0.2603,2.17,6.53,-13.34,0.0000,0.2710,1.1940,1.5380,2.3850,0,0.0000,0.0000,0.0000,0.0000,0.0000,0
16239,0.1278,0.0570,0.3205,0.0106,-0.0023,-0.0033,-0.08,0.07,0.50,0,3.505,0.412,-0.853,1.147,0.010,-0.012,1.002,0.000,0.000,0.000,0.3170,0,-2,-0.88,0.92,0.49,0.0923,-0.0149,0.3231,0.0398,0.0246,0.3000,0.2610,2.24,6.85,-15.04,0.0000,0.2570,1.2000,1.5120,2.3850,0,0.0000,0.0000,0.0000,0.0000,0.0000,0
16290,0.1295,0.0587,0.3187,0.0127,0.0026,-0.0098,-0.09,0.11,0.55,0,3.494,0.751,-2.547,1.091,0.009,-0.011,1.004,0.000,0.000,0.000,0.3170,-1,-1,-0.85,0.92,0.55,0.0990,-0.0156,0.3217,0.0398,0.0246,0.3000,0.2621,2.58,7.04,-16.58,0.0000,0.2570,1.2000,1.5120,2.3850,0,0.0000,0.0000,0.0000,0.0000,0.0000,0
16341,0.1330,0.0569,0.3176,0.0182,-0.0014,-0.0108,-0.12,0.20,0.61,0,3.510,1.000,-3.897,0.598,0.007,-0.014,1.004,0.000,0.000,0.000,0.3200,1,0,-0.82,1.04,0.60,0.1013,-0.0135,0.3206,0.0398,0.0246,0.3000,0.2624,2.26,7.53,-18.34,0.0000,0.2540,1.1960,1.5020,2.3840,0,0.0000,0.0000,0.0000,0.0000,0.0000,0
16392,0.1351,0.0592,0.3183,0.0191,0.0044,-0.0030,-0.03,0.36,0.65,0,3.505,2.222,-1.763,0.991,0.006,-0.013,1.007,0.000,0.000,0.000,0.3220,-1,0,-0.75,1.24,0.64,0.1018,-0.0153,0.3207,0.0398,0.0246,0.3000,0.2614,2.71,7.75,-19.65,0.0000,0.2540,1.1960,1.5020,2.3840,0,0.0000,0.0000,0.0000,0.0000,0.0000,0
16443,0.1344,0.0592,0.3200,0.0122,0.0041,0.0082,0.09,0.45,0.70,0,3.510,0.788,2.317,0.648,0.008,-0.012,1.003,0.000,0.000,0.000,0.3170,1,-2,-0.65,1.33,0.69,0.1020,-0.0130,0.3216,0.0398,0.0246,0.3000,0.2599,2.71,7.42,-20.98,0.0000,0.2500,1.2000,1.4240,2.3800,0,0.0000,0.0000,0.0000,0.0000,0.0000,0
16494,0.1347,0.0600,0.3189,0.0081,0.0047,0.0027,0.12,0.41,0.73,0,3.500,0.947,2.728,0.313,0.010,-0.014,1.004,0.000,0.000,0.000,0.3180,0,0,-0.59,1.18,0.71,0.1068,-0.0151,0.3207,0.0398,0.0246,0.3000,0.2607,2.79,7.23,-22.04,0.0000,0.2500,1.2000,1.4240,2.3800,0,0.0000,0.0000,0.0000,0.0000,0.0000,0
16545,0.1368,0.0600,0.3186,0.0086,0.0032,0.0007,0.15,0.31,0.74,0,3.505,0.211,0.221,-0.220,0.009,-0.011,1.004,0.000,0.000,0.000,0.3180,0,0,-0.54,1.04,0.73,0.1076,-0.0151,0.3204,0.0398,0.0246,0.3000,0.2610,2.71,7.39,-22.33,0.0000,0.0000,1.1930,1.4400,2.3830,0,0.0000,0.0000,0.0000,0.0000,0.0000,0
16596,0.1378,0.0592,0.3184,0.0076,-0.0001,-0.0002,0.13,0.33,0.76,0,3.500,2.226,3.101,0.653,0.009,-0.015,0.999,0.000,0.000,0.000,0.3190,0,0,-0.53,1.03,0.72,0.1082,-0.0152,0.3201,0.0398,0.0246,0.3000,0.2611,2.51,7.42,-22.95,0.0000,0.0000,1.1930,1.4400,2.3830,0,0.0000,0.0000,0.0000,0.0000,0.0000,0
16647,0.1372,0.0571,0.3187,0.0027,-0.0063,0.0017,0.21,0.24,0.77,0,3.510,-2.703,-0.350,0.820,0.008,-0.013,0.996,0.000,0.000,0.000,0.3170,0,2,-0.42,0.87,0.75,0.1086,-0.0154,0.3201,0.0398,0.0246,0.3000,0.2608,2.07,7.15,-23.22,0.0000,0.2470,1.1960,1.3450,2.3840,0,0.0000,0.0000,0.0000,0.0000,0.0000,0
16698,0.1383,0.0602,0.3180,0.0029,-0.0002,-0.0017,0.07,0.21,0.80,0,3.500,-0.272,2.131,0.168,0.010,-0.011,1.003,0.000,0.000,0.000,0.3150,1,0,-0.57,0.94,0.81,0.1004,-0.0142,0.3193,0.0398,0.0246,0.3000,0.2613,2.56,7.22,-23.95,0.0000,0.2470,1.1960,1.3450,2.3840,0,0.0000,0.0000,0.0000,0.0000,0.0000,0
16749,0.1366,0.0605,0.3165,-0.0025,-0.0001,-0.0073,0.05,0.11,0.81,0,3.505,-1.505,-1.640,-0.272,0.013,-0.011,1.008,0.000,0.000,0.000,0.3160,1,-2,-0.57,0.83,0.81,0.0995,-0.0154,0.3181,0.0398,0.0246,0.3000,0.2622,2.59,6.84,-24.19,0.0000,0.2490,1.2000,1.3200,2.3860,0,0.0000,0.0000,0.0000,0.0000,0.0000,0
16800,0.1376,0.0586,0.3160,-0.0009,-0.0048,-0.0056,0.05,0.12,0.78,0,3.500,1.138,0.775,-1.263,0.010,-0.010,1.006,0.000,0.000,0.000,0.3160,2,0,-0.64,0.88,0.79,0.1013,-0.0169,0.3178,0.0398,0.0246,0.3000,0.2621,2.23,6.99,-23.38,0.0000,0.2490,1.2000,1.3200,2.3860,0,0.0000,0.0000,0.0000,0.0000,0.0000,0
16851,0.1405,0.0577,0.3158,0.0045,-0.0066,-0.0032,0.06,0.13,0.73,0,3.505,-1.145,0.310,-1.446,0.009,-0.010,1.007,0.000,0.000,0.000,0.3160,1,0,-0.56,0.84,0.72,0.1010,-0.0203,0.3175,0.0398,0.0246,0.3000,0.2619,2.08,7.45,-21.86,0.0000,0.0000,1.2030,1.3450,2.3860,0,0.0000,0.0000,0.0000,0.0000,0.0000,0
16902,0.1405,0.0588,0.3158,0.0030,-0.0035,-0.0014,-0.01,0.11,0.67,0,3.500,0.094,-0.391,-0.820,0.009,-0.013,1.005,0.000,0.000,0.000,0.3170,0,0,-0.61,0.82,0.64,0.1007,-0.0227,0.3173,0.0398,0.0246,0.3000,0.2617,2.31,7.38,-20.24,0.0000,0.0000,1.2030,1.3450,2.3860,0,0.0000,0.0000,0.0000,0.0000,0.0000,0
16953,0.1406,0.0579,0.3164,0.0019,-0.0051,0.0036,-0.02,0.11,0.64,0,3.505,5.397,-10.349,-0.149,0.012,-0.013,1.007,0.000,0.000,0.000,0.3170,3,-1,-0.60,0.84,0.60,0.0999,-0.0243,0.3176,0.0398,0.0246,0.3000,0.2611,2.18,7.36,-19.08,0.9420,0.2590,1.1950,1.3480,2.3920,0,0.0000,0.0000,0.0000,0.0000,0.0000,0
17004,0.1411,0.0602,0.3169,0.0017,0.0007,0.0076,0.13,0.41,0.62,0,3.500,12.568,-26.912,0.292,0.007,-0.012,1.001,0.000,0.000,0.000,0.3170,2,-1,-0.28,1.33,0.58,0.1041,-0.0322,0.3180,0.0398,0.0246,0.3000,0.2605,2.62,7.40,-18.58,0.9420,0.2590,1.1950,1.3480,2.3920,0,0.0000,0.0000,0.0000,0.0000,0.0000,0
17055,0.1422,0.0583,0.3173,-0.0011,-0.0048,0.0096,0.69,1.63,0.61,0,3.510,3.553,-11.257,0.545,0.005,-0.011,0.998,0.000,0.000,0.000,0.3180,2,-1,0.37,2.69,0.58,0.1059,-0.0372,0.3182,0.0398,0.0246,0.3000,0.2602,2.23,7.36,-18.22,0.9440,0.2500,1.1990,1.3320,2.3830,0,0.0000,0.0000,0.0000,0.0000,0.0000,0
17106,0.1415,0.0569,0.3180,-0.0170,-0.0138,0.0098,1.06,2.43,0.60,0,3.500,-0.427,3.486,1.168,0.011,-0.011,1.001,0.000,0.000,0.000,0.3190,4,2,0.57,3.24,0.57,0.1076,-0.0427,0.3186,0.0398,0.0246,0.3000,0.2601,1.70,6.57,-17.99,0.9440,0.2500,1.1990,1.3320,2.3830,0,0.0000,0.0000,0.0000,0.0000,0.0000,0
17157,0.1425,0.0589,0.3189,-0.0328,-0.0167,0.0107,1.08,2.42,0.63,0,3.510,1.040,-1.194,1.191,0.011,-0.008,1.000,0.000,0.000,0.000,0.3220,0,0,0.58,3.09,0.58,0.1029,-0.0530,0.3186,0.0398,0.0246,0.3000,0.2598,1.70,5.90,-18.83,0.0000,0.2390,1.1990,1.4030,2.3890,0,0.0000,0.0000,0.0000,0.0000,0.0000,0
17209,0.1383,0.0594,0.3208,-0.0577,-0.0218,0.0158,1.06,2.44,0.68,0,3.500,-0.463,-1.141,0.071,0.013,-0.016,0.991,0.000,0.000,0.000,0.3190,0,1,0.63,3.15,0.64,0.0996,-0.0598,0.3200,0.0398,0.0246,0.3000,0.2589,1.51,4.44,-20.43,0.0000,0.2390,1.1990,1.4030,2.3890,0,0.0000,0.0000,0.0000,0.0000,0.0000,0
17260,0.1340,0.0558,0.3205,-0.0803,-0.0359,0.0084,1.13,2.49,0.70,0,3.505,-5.834,-3.301,0.643,0.010,-0.012,0.993,0.000,0.000,0.000,0.3190,0,0,0.48,3.17,0.95,0.1019,-0.0504,0.3217,0.0398,0.0246,0.3000,0.2597,0.58,3.05,-20.98,0.0000,0.0000,1.1990,1.5140,2.3870,0,0.0000,0.0000,0.0000,0.0000,0.0000,0
17311,0.1297,0.0543,0.3201,-0.1014,-0.0448,0.0012,1.03,2.62,0.72,0,3.500,-3.415,5.991,0.720,0.013,-0.012,0.999,0.000,0.000,0.000,0.3200,4,1,0.18,3.34,0.98,0.0978,-0.0547,0.3211,0.0398,0.0246,0.3000,0.2606,0.04,1.74,-21.65,0.0000,0.0000,1.1990,1.5140,2.3870,0,0.0000,0.0000,0.0000,0.0000,0.0000,0
17362,0.1221,0.0568,0.3200,-0.1282,-0.0421,-0.0011,0.76,2.50,0.77,0,3.505,1.600,11.295,0.227,0.013,-0.012,0.998,0.000,0.000,0.000,0.3200,1,4,0.04,2.98,0.79,0.1001,-0.0626,0.3213,0.0398,0.0246,0.3000,0.2609,0.35,-0.07,-23.06,0.9560,0.2560,1.2140,1.5530,2.3870,0,0.0000,0.0000,0.0000,0.0000,0.0000,0
17413,0.1146,0.0504,0.3199,-0.1500,-0.0576,-0.0038,0.73,1.99,0.81,0,3.494,-2.627,14.500,0.424,0.013,-0.018,0.993,0.000,0.000,0.000,0.3150,-1,2,0.10,2.44,0.92,0.0909,-0.0671,0.3208,0.0398,0.0246,0.3000,0.2612,-0.84,-1.64,-24.17,0.9560,0.2560,1.2140,1.5530,2.3870,0,0.0000,0.0000,0.0000,0.0000,0.0000,0
17464,0.1057,0.0473,0.3173,-0.1682,-0.0641,-0.0168,0.65,1.32,0.83,0,3.500,-7.616,12.444,-0.822,0.013,-0.013,1.004,0.000,0.000,0.000,0.3160,3,4,-0.08,1.70,1.13,0.0850,-0.0674,0.3191,0.0398,0.0246,0.3000,0.2631,-1.36,-3.10,-24.85,0.0000,0.2670,1.2150,1.5490,2.3920,0,0.0000,0.0000,0.0000,0.0000,0.0000,0
17515,0.0989,0.0448,0.3160,-0.1740,-0.0672,-0.0186,0.26,0.58,0.81,0,3.494,-4.490,14.695,-1.441,0.008,-0.012,1.012,0.000,0.000,0.000,0.3160,-2,2,-0.44,1.10,1.05,0.0743,-0.0757,0.3175,0.0398,0.0246,0.3000,0.2635,-1.68,-3.85,-24.34,0.0000,0.2670,1.2150,1.5490,2.3920,0,0.0000,0.0000,0.0000,0.0000,0.0000,0
17566,0.0891,0.0411,0.3153,-0.1800,-0.0697,-0.0134,-0.03,-0.24,0.75,0,3.500,-2.771,29.180,-2.527,0.010,-0.013,1.013,0.000,0.000,0.000,0.3130,-2,0,-0.73,0.34,1.15,0.0678,-0.0727,0.3173,0.0398,0.0246,0.3000,0.2631,-2.06,-4.82,-22.64,0.0000,0.2660,1.2270,1.5490,2.3860,0,0.0000,0.0000,0.0000,0.0000,0.0000,0
17617,0.0829,0.0392,0.3138,-0.1702,-0.0665,-0.0139,-0.07,-1.52,0.63,0,3.489,-1.057,13.715,-3.873,0.012,-0.018,1.010,0.000,0.000,0.000,0.3140,5,4,-0.93,-1.19,1.07,0.0666,-0.0685,0.3165,0.0398,0.0246,0.3000,0.2634,-2.03,-4.80,-18.88,0.0000,0.2660,1.2270,1.5490,2.3860,0,0.0000,0.0000,0.0000,0.0000,0.0000,0
17668,0.0751,0.0373,0.3135,-0.1542,-0.0623,-0.0070,-0.20,-2.49,0.44,0,3.494,-7.038,6.309,-3.610,0.013,-0.014,1.008,0.000,0.000,0.000,0.3060,0,2,-0.92,-1.85,0.84,0.0553,-0.0822,0.3160,0.0398,0.0246,0.3000,0.2627,-1.98,-4.60,-13.21,0.0000,0.2590,1.2430,1.5420,2.3920,0,0.0000,0.0000,0.0000,0.0000,0.0000,0
17719,0.0692,0.0343,0.3097,-0.1293,-0.0597,-0.0188,-0.52,-2.84,0.25,0,3.494,-0.727,1.036,-4.549,0.013,-0.011,1.016,0.000,0.000,0.000,0.3120,1,0,-1.31,-2.16,0.64,0.0494,-0.0825,0.3133,0.0398,0.0246,0.3000,0.2647,-2.06,-3.82,-7.54,0.0000,0.2590,1.2430,1.5420,2.3920,0,0.0000,0.0000,0.0000,0.0000,0.0000,0
17770,0.0641,0.0328,0.3102,-0.1017,-0.0512,-0.0065,-0.71,-3.06,0.01,0,3.500,-2.258,-15.730,-5.243,0.012,-0.015,1.013,0.000,0.000,0.000,0.3100,0,0,-1.36,-2.23,0.40,0.0490,-0.0856,0.3132,0.0398,0.0246,0.3000,0.2633,-1.77,-2.91,-0.41,0.9930,0.2660,1.2450,1.5470,2.4030,0,0.0000,0.0000,0.0000,0.0000,0.0000,0
17821,0.0606,0.0319,0.3100,-0.0738,-0.0416,-0.0009,-0.67,-2.43,-0.24,0,3.494,0.444,-13.758,-5.636,0.008,-0.011,1.011,0.000,0.000,0.000,0.3090,0,0,-1.48,-1.43,0.15,0.0469,-0.0887,0.3128,0.0398,0.0246,0.3000,0.2627,-1.39,-1.85,7.20,0.9930,0.2660,1.2450,1.5470,2.4030,0,0.0000,0.0000,0.0000,0.0000,0.0000,0
17872,0.0579,0.0224,0.3096,-0.0530,-0.0543,0.0018,-0.58,-1.73,-0.48,0,3.500,-7.331,6.833,-3.863,0.006,-0.015,1.008,0.000,0.000,0.000,0.3070,0,2,-1.46,-0.72,-0.12,0.0456,-0.0914,0.3123,0.0398,0.0246,0.3000,0.2625,-2.65,-1.06,14.49,0.0000,0.2850,1.2500,1.5360,2.3980,0,0.0000,0.0000,0.0000,0.0000,0.0000,0
17923,0.0572,0.0202,0.3085,-0.0342,-0.0484,-0.0000,-0.77,-1.86,-0.73,0,3.494,-6.131,3.429,-3.677,0.008,-0.014,1.010,0.000,0.000,0.000,0.3090,0,0,-1.91,-1.03,-0.56,0.0393,-0.0829,0.3114,0.0398,0.0246,0.3000,0.2629,-2.53,-0.22,21.89,0.0000,0.2850,1.2500,1.5360,2.3980,0,0.0000,0.0000,0.0000,0.0000,0.0000,0
17974,0.0542,0.0161,0.3088,-0.0216,-0.0464,0.0052,-1.05,-2.13,-0.92,0,3.500,-0.932,-7.435,-4.315,0.008,-0.008,1.009,0.000,0.000,0.000,0.3130,0,-1,-2.22,-1.20,-0.76,0.0383,-0.0831,0.3114,0.0398,0.0246,0.3000,0.2623,-2.73,0.16,27.47,0.0000,0.3130,1.2560,1.5370,2.4030,0,0.0000,0.0000,0.0000,0.0000,0.0000,0
18025,0.0540,0.0117,0.3111,-0.0023,-0.0429,0.0183,-1.13,-1.90,-1.12,0,3.494,-2.027,-2.067,-2.786,0.006,-0.015,1.001,0.000,0.000,0.000,0.3150,1,-2,-2.26,-0.83,-0.88,0.0415,-0.0837,0.3128,0.0398,0.0246,0.3000,0.2604,-2.90,1.06,33.62,0.0000,0.3130,1.2560,1.5370,2.4030,0,0.0000,0.0000,0.0000,0.0000,0.0000,0
18076,0.0560,0.0125,0.3138,0.0176,-0.0270,0.0268,-1.29,-1.61,-1.27,0,3.500,1.704,-21.758,-3.093,0.007,-0.013,1.000,0.000,0.000,0.000,0.3130,0,-2,-2.35,-0.75,-0.89,0.0454,-0.0851,0.3145,0.0398,0.0246,0.3000,0.2590,-2.10,2.16,37.98,0.0000,0.0000,1.2520,1.5320,2.3950,0,0.0000,0.0000,0.0000,0.0000,0.0000,0
18127,0.0580,0.0116,0.3146,0.0323,-0.0151,0.0249,-1.34,-0.71,-1.39,0,3.494,6.183,-19.963,-2.355,0.004,-0.012,0.990,0.000,0.000,0.000,0.3090,0,-4,-2.25,0.35,-0.92,0.0500,-0.0848,0.3151,0.0398,0.0246,0.3000,0.2591,-1.59,3.01,41.75,0.0000,0.0000,1.2520,1.5320,2.3950,0,0.0000,0.0000,0.0000,0.0000,0.0000,0
18178,0.0606,0.0116,0.3128,0.0388,-0.0029,0.0090,-1.06,0.36,-1.51,0,3.494,2.066,5.639,-2.128,0.000,-0.012,0.995,0.000,0.000,0.000,0.3120,2,1,-1.93,1.32,-0.81,0.0593,-0.0848,0.3139,0.0398,0.0246,0.3000,0.2611,-1.01,3.48,45.17,0.0000,0.0000,1.2570,1.5310,2.3870,0,0.0000,0.0000,0.0000,0.0000,0.0000,0
18229,0.0655,0.0141,0.3127,0.0430,0.0125,0.0044,-0.94,0.33,-1.62,0,3.489,3.218,9.386,-0.746,0.005,-0.017,1.003,0.000,0.000,0.000,0.3140,0,-1,-1.78,1.07,-0.93,0.0581,-0.0885,0.3140,0.0398,0.0246,0.3000,0.2616,-0.10,4.01,48.56,0.0000,0.0000,1.2570,1.5310,2.3870,0,0.0000,0.0000,0.0000,0.0000,0.0000,0
18280,0.0668,0.0141,0.3136,0.0393,0.0187,0.0074,-0.79,0.00,-1.71,0,3.494,4.701,-7.304,-0.025,0.006,-0.016,1.001,0.000,0.000,0.000,0.3120,0,-2,-1.61,0.58,-0.95,0.0610,-0.0883,0.3144,0.0398,0.0246,0.3000,0.2611,0.20,3.93,51.28,0.9590,0.3140,1.2520,1.5330,2.3920,0,0.0000,0.0000,0.0000,0.0000,0.0000,0
18331,0.0688,0.0152,0.3132,0.0392,0.0251,0.0054,-0.54,0.26,-1.73,0,3.489,3.934,-3.977,0.683,0.004,-0.019,0.998,0.000,0.000,0.000,0.3120,-3,0,-1.36,0.93,-0.86,0.0665,-0.0883,0.3141,0.0398,0.0246,0.3000,0.2614,0.58,4.07,51.94,0.9590,0.3140,1.2520,1.5330,2.3920,0,0.0000,0.0000,0.0000,0.0000,0.0000,0
18382,0.0712,0.0142,0.3128,0.0379,0.0240,0.0027,-0.34,0.45,-1.70,0,3.494,2.236,3.719,0.643,0.007,-0.014,1.002,0.000,0.000,0.000,0.3110,1,0,-1.21,1.15,-0.92,0.0669,-0.0802,0.3137,0.0398,0.0246,0.3000,0.2618,0.46,4.17,51.14,0.9560,0.0000,1.2510,1.5190,2.3890,0,0.0000,0.0000,0.0000,0.0000,0.0000,0
18434,0.0722,0.0155,0.3121,0.0322,0.0265,-0.0000,-0.13,0.41,-1.67,0,3.489,0.764,0.439,0.724,0.001,-0.021,1.000,0.000,0.000,0.000,0.3120,-4,-1,-1.06,0.97,-0.89,0.0671,-0.0825,0.3132,0.0398,0.0246,0.3000,0.2622,0.66,3.96,50.03,0.9560,0.0000,1.2510,1.5190,2.3890,0,0.0000,0.0000,0.0000,0.0000,0.0000,0
18485,0.0735,0.0159,0.3121,0.0282,0.0256,0.0016,-0.10,0.39,-1.63,0,3.500,1.291,2.799,1.072,0.006,-0.018,1.001,0.000,0.000,0.000,0.3140,0,0,-1.08,0.93,-0.87,0.0701,-0.0711,0.3129,0.0398,0.0246,0.3000,0.2621,0.65,3.87,48.98,0.0000,0.3190,1.2510,1.5220,2.3970,0,0.0000,0.0000,0.0000,0.0000,0.0000,0
18536,0.0743,0.0176,0.3131,0.0238,0.0271,0.0071,-0.07,0.27,-1.55,0,3.489,3.168,5.487,3.078,0.007,-0.015,1.000,0.000,0.000,0.000,0.3100,-1,1,-1.02,0.79,-0.82,0.0713,-0.0675,0.3133,0.0398,0.0246,0.3000,0.2613,0.84,3.73,46.65,0.0000,0.3190,1.2510,1.5220,2.3970,0,0.0000,0.0000,0.0000,0.0000,0.0000,0
18587,0.0755,0.0205,0.3119,0.0215,0.0312,0.0014,0.03,0.23,-1.45,0,3.500,3.453,-12.424,1.982,0.009,-0.017,1.002,0.000,0.000,0.000,0.3140,-2,-1,-0.82,0.55,-0.72,0.0653,-0.0695,0.3127,0.0398,0.0246,0.3000,0.2621,1.24,3.70,43.47,0.9570,0.0000,1.2480,1.5250,2.3910,0,0.0000,0.0000,0.0000,0.0000,0.0000,0
18638,0.0753,0.0236,0.3130,0.0162,0.0339,0.0063,0.25,0.65,-1.35,0,3.489,3.706,-15.398,2.718,0.010,-0.017,0.998,0.000,0.000,0.000,0.3120,-2,0,-0.67,1.17,-0.60,0.0675,-0.0643,0.3132,0.0398,0.0246,0.3000,0.2614,1.59,3.45,40.64,0.9570,0.0000,1.2480,1.5250,2.3910,0,0.0000,0.0000,0.0000,0.0000,0.0000,0
18689,0.0753,0.0258,0.3128,0.0075,0.0325,0.0043,0.44,1.41,-1.23,0,3.494,5.369,10.184,2.028,0.008,-0.017,0.995,0.000,0.000,0.000,0.3130,0,1,-0.50,1.95,-0.45,0.0675,-0.0589,0.3129,0.0398,0.0246,0.3000,0.2616,1.68,3.03,37.02,0.0000,0.0000,1.2500,1.5200,2.3960,0,0.0000,0.0000,0.0000,0.0000,0.0000,0
18740,0.0764,0.0271,0.3131,-0.0021,0.0278,0.0040,0.67,1.06,-1.11,0,3.489,-2.304,15.362,2.299,0.010,-0.013,1.003,0.000,0.000,0.000,0.3120,0,0,-0.21,1.44,-0.37,0.0648,-0.0582,0.3129,0.0398,0.0246,0.3000,0.2616,1.54,2.66,33.27,0.0000,0.0000,1.2500,1.5200,2.3960,0,0.0000,0.0000,0.0000,0.0000,0.0000,0
18792,0.0747,0.0266,0.3127,-0.0128,0.0184,0.0030,0.61,0.24,-0.99,0,3.494,-1.362,4.200,2.304,0.007,-0.014,1.000,0.000,0.000,0.000,0.3100,0,1,-0.33,0.66,-0.26,0.0633,-0.0557,0.3126,0.0398,0.0246,0.3000,0.2618,1.07,2.04,29.59,0.9600,0.0000,1.2430,1.5230,2.3910,0,0.0000,0.0000,0.0000,0.0000,0.0000,0
18843,0.0712,0.0274,0.3116,-0.0207,0.0133,-0.0019,0.47,-0.07,-0.87,0,3.489,-1.447,8.298,2.850,0.009,-0.009,0.998,0.000,0.000,0.000,0.3110,0,2,-0.36,0.44,-0.16,0.0619,-0.0593,0.3119,0.0398,0.0246,0.3000,0.2625,0.88,1.41,26.16,0.9600,0.0000,1.2430,1.5230,2.3910,0,0.0000,0.0000,0.0000,0.0000,0.0000,0
18894,0.0697,0.0279,0.3112,-0.0209,0.0093,-0.0016,0.37,-0.39,-0.74,0,3.494,-2.054,11.018,1.267,0.011,-0.014,1.003,0.000,0.000,0.000,0.3100,0,1,-0.43,0.03,-0.01,0.0571,-0.0590,0.3114,0.0398,0.0246,0.3000,0.2626,0.73,1.29,22.33,0.9660,0.2890,1.2410,1.5220,2.3930,0,0.0000,0.0000,0.0000,0.0000,0.0000,0
18945,0.0673,0.0271,0.3106,-0.0201,0.0030,-0.0020,0.43,-0.80,-0.66,0,3.489,-6.159,5.465,0.307,0.009,-0.013,1.000,0.000,0.000,0.000,0.3110,2,0,-0.53,-0.52,0.06,0.0544,-0.0588,0.3109,0.0398,0.0246,0.3000,0.2627,0.38,1.16,19.78,0.9660,0.2890,1.2410,1.5220,2.3930,0,0.0000,0.0000,0.0000,0.0000,0.0000,0
18996,0.0649,0.0262,0.3108,-0.0160,-0.0024,0.0009,0.25,-1.09,-0.62,0,3.489,-4.636,1.170,0.407,0.004,-0.013,1.004,0.000,0.000,0.000,0.3070,0,0,-0.81,-0.81,0.10,0.0540,-0.0636,0.3108,0.0398,0.0246,0.3000,0.2624,0.05,1.19,18.51,0.0000,0.2810,1.2380,1.5340,2.3950,0,0.0000,0.0000,0.0000,0.0000,0.0000,0
19047,0.0641,0.0251,0.3090,-0.0072,-0.0063,-0.0058,0.04,-1.16,-0.59,0,3.484,-7.459,0.395,-0.039,0.010,-0.013,1.006,0.000,0.000,0.000,0.3080,1,0,-1.05,-0.87,0.12,0.0532,-0.0641,0.3095,0.0398,0.0246,0.3000,0.2634,-0.21,1.54,17.74,0.0000,0.2810,1.2380,1.5340,2.3950,0,0.0000,0.0000,0.0000,0.0000,0.0000,0
19098,0.0648,0.0247,0.3084,0.0027,-0.0066,-0.0063,-0.16,-1.11,-0.57,0,3.489,-2.544,-11.497,-0.230,0.008,-0.017,1.003,0.000,0.000,0.000,0.3090,-2,-1,-1.41,-0.89,0.15,0.0536,-0.0676,0.3090,0.0398,0.0246,0.3000,0.2636,-0.24,2.05,17.12,0.9800,0.0000,1.2490,1.5320,2.3940,0,0.0000,0.0000,0.0000,0.0000,0.0000,0
19149,0.0632,0.0145,0.3085,0.0076,-0.0282,-0.0012,-0.18,-0.66,-0.56,0,3.484,-9.537,-20.448,0.625,0.008,-0.017,0.999,0.000,0.000,0.000,0.3090,2,-5,-1.57,-0.32,0.08,0.0558,-0.0634,0.3089,0.0398,0.0246,0.3000,0.2630,-1.99,2.18,16.83,0.9800,0.0000,1.2490,1.5320,2.3940,0,0.0000,0.0000,0.0000,0.0000,0.0000,0
19200,0.0639,0.0163,0.3088,0.0133,-0.0197,0.0022,-0.45,0.27,-0.56,0,3.489,-4.993,-2.457,-0.119,0.001,-0.018,1.003,0.000,0.000,0.000,0.3070,1,0,-2.02,0.65,0.26,0.0675,-0.0680,0.3090,0.0398,0.0246,0.3000,0.2626,-1.46,2.50,16.78,0.9600,0.0000,1.2530,1.5390,2.3900,0,0.0000,0.0000,0.0000,0.0000,0.0000,0
19251,0.0674,0.0179,0.3081,0.0172,-0.0100,-0.0003,-0.78,0.53,-0.56,0,3.484,2.975,12.221,-0.245,0.008,-0.017,1.002,0.000,0.000,0.000,0.3120,1,1,-2.26,0.79,0.28,0.0682,-0.0705,0.3085,0.0398,0.0246,0.3000,0.2630,-0.88,2.92,16.77,0.9600,0.0000,1.2530,1.5390,2.3900,0,0.0000,0.0000,0.0000,0.0000,0.0000,0
19302,0.0692,0.0194,0.3100,0.0154,0.0012,0.0108,-0.74,-0.10,-0.56,0,3.494,0.235,0.046,-0.121,0.007,-0.014,1.001,0.000,0.000,0.000,0.3110,8,0,-2.09,0.20,0.22,0.0662,-0.0729,0.3098,0.0398,0.0246,0.3000,0.2614,-0.26,2.98,16.91,0.0000,0.2960,1.2480,1.5440,2.3970,0,0.0000,0.0000,0.0000,0.0000,0.0000,0
19354,0.0679,0.0231,0.3110,0.0118,0.0174,0.0135,-0.71,-0.26,-0.58,0,3.489,1.570,-3.708,0.412,0.000,-0.020,0.997,0.000,0.000,0.000,0.3110,0,0,-1.94,0.20,0.41,0.0669,-0.0942,0.3107,0.0398,0.0246,0.3000,0.2609,0.77,2.72,17.48,0.0000,0.2960,1.2480,1.5440,2.3970,0,0.0000,0.0000,0.0000,0.0000,0.0000,0
19405,0.0691,0.0205,0.3114,0.0154,0.0152,0.0122,-0.62,-0.17,-0.57,0,3.489,3.237,-1.273,0.294,0.010,-0.011,0.998,0.000,0.000,0.000,0.3060,0,-2,-1.86,0.39,0.44,0.0682,-0.0980,0.3111,0.0398,0.0246,0.3000,0.2610,0.49,2.98,16.96,0.9700,0.2770,1.2460,1.5460,2.3940,0,0.0000,0.0000,0.0000,0.0000,0.0000,0
19456,0.0700,0.0223,0.3094,0.0173,0.0228,-0.0021,-0.45,-0.12,-0.57,0,3.484,4.419,-18.950,-0.775,0.011,-0.012,1.001,0.000,0.000,0.000,0.3070,0,-4,-1.75,0.43,0.44,0.0740,-0.0925,0.3100,0.0398,0.0246,0.3000,0.2629,0.97,3.12,16.98,0.9700,0.2770,1.2460,1.5460,2.3940,0,0.0000,0.0000,0.0000,0.0000,0.0000,0
19508,0.0723,0.0215,0.3082,0.0212,0.0219,-0.0071,-0.19,0.68,-0.58,0,3.489,1.730,-13.509,-0.705,0.006,-0.016,0.999,0.000,0.000,0.000,0.3080,-1,-1,-1.53,1.35,0.52,0.0836,-0.0929,0.3090,0.0398,0.0246,0.3000,0.2637,0.86,3.45,17.48,0.9700,0.0000,1.2430,1.5460,2.3960,0,0.0000,0.0000,0.0000,0.0000,0.0000,0
19559,0.0745,0.0240,0.3078,0.0181,0.0271,-0.0073,-0.07,1.42,-0.59,0,3.489,6.070,-0.544,0.129,0.006,-0.014,1.000,0.000,0.000,0.000,0.3120,0,-1,-1.46,2.05,0.49,0.0866,-0.0907,0.3086,0.0398,0.0246,0.3000,0.2638,1.28,3.46,17.60,0.9700,0.0000,1.2430,1.5460,2.3960,0,0.0000,0.0000,0.0000,0.0000,0.0000,0
19610,0.0755,0.0253,0.3096,0.0070,0.0276,0.0030,0.18,1.58,-0.58,0,3.494,-1.585,4.206,-0.658,0.003,-0.014,1.000,0.000,0.000,0.000,0.3120,3,0,-1.15,2.08,0.51,0.0896,-0.0906,0.3095,0.0398,0.0246,0.3000,0.2624,1.41,3.03,17.37,0.0000,0.2900,1.2350,1.5430,2.3920,0,0.0000,0.0000,0.0000,0.0000,0.0000,0
19661,0.0767,0.0293,0.3108,-0.0040,0.0327,0.0072,0.20,1.44,-0.60,0,3.484,2.534,18.281,-1.243,0.004,-0.015,0.998,0.000,0.000,0.000,0.3090,-1,1,-1.17,1.87,0.41,0.0899,-0.0980,0.3104,0.0398,0.0246,0.3000,0.2617,1.93,2.60,18.03,0.0000,0.2900,1.2350,1.5430,2.3920,0,0.0000,0.0000,0.0000,0.0000,0.0000,0
19712,0.0759,0.0315,0.3102,-0.0165,0.0324,0.0024,0.41,0.61,-0.65,0,3.484,5.558,11.844,-1.176,0.007,-0.018,0.999,0.000,0.000,0.000,0.3060,-3,1,-1.06,0.96,0.32,0.0873,-0.0955,0.3101,0.0398,0.0246,0.3000,0.2623,2.07,1.94,19.38,0.0000,0.0000,1.2270,1.5460,2.3920,0,0.0000,0.0000,0.0000,0.0000,0.0000,0
19763,0.0740,0.0316,0.3083,-0.0239,0.0256,-0.0077,0.68,-0.02,-0.69,0,3.479,0.617,6.066,-0.735,0.003,-0.013,1.003,0.000,0.000,0.000,0.3060,0,0,-0.84,0.38,0.30,0.0846,-0.0874,0.3088,0.0398,0.0246,0.3000,0.2637,1.75,1.46,20.67,0.0000,0.0000,1.2270,1.5460,2.3920,0,0.0000,0.0000,0.0000,0.0000,0.0000,0
19814,0.0716,0.0341,0.3070,-0.0270,0.0229,-0.0121,0.75,-0.38,-0.75,0,3.484,3.039,10.874,-0.838,0.005,-0.011,1.005,0.000,0.000,0.000,0.3040,0,1,-0.80,0.07,0.26,0.0838,-0.0861,0.3078,0.0398,0.0246,0.3000,0.2645,1.79,1.14,22.43,0.9750,0.0000,1.2320,1.5360,2.4000,0,0.0000,0.0000,0.0000,0.0000,0.0000,0
19865,0.0698,0.0348,0.3051,-0.0248,0.0158,-0.0165,0.80,-0.77,-0.79,0,3.473,2.127,6.216,-0.232,0.003,-0.015,1.008,0.000,0.000,0.000,0.3040,0,0,-0.63,-0.47,0.19,0.0808,-0.0886,0.3065,0.0398,0.0246,0.3000,0.2653,1.51,1.11,23.67,0.9750,0.0000,1.2320,1.5360,2.4000,0,0.0000,0.0000,0.0000,0.0000,0.0000,0
19916,0.0675,0.0381,0.3041,-0.0212,0.0155,-0.0135,0.77,-0.99,-0.81,0,3.479,1.807,2.740,-0.918,0.005,-0.017,1.014,0.000,0.000,0.000,0.2990,0,0,-0.52,-0.79,0.17,0.0800,-0.0880,0.3057,0.0398,0.0246,0.3000,0.2652,1.72,1.12,24.39,0.0000,0.0000,1.2260,1.5340,2.4030,0,0.0000,0.0000,0.0000,0.0000,0.0000,0
19967,0.0663,0.0375,0.3013,-0.0137,0.0058,-0.0198,0.76,-1.13,-0.84,0,3.473,-3.291,0.644,-0.558,0.007,-0.014,1.019,0.000,0.000,0.000,0.2990,-4,0,-0.43,-0.93,0.12,0.0797,-0.0877,0.3037,0.0398,0.0246,0.3000,0.2664,1.22,1.38,25.29,0.0000,0.0000,1.2260,1.5340,2.4030,0,0.0000,0.0000,0.0000,0.0000,0.0000,0
20018,0.0657,0.0353,0.2996,-0.0045,-0.0066,-0.0163,0.67,-1.22,-0.87,0,3.484,-2.999,-1.468,-1.069,0.004,-0.017,1.019,0.000,0.000,0.000,0.3000,0,-1,-0.68,-0.96,-0.04,0.0787,-0.0733,0.3026,0.0398,0.0246,0.3000,0.2663,0.50,1.76,25.97,0.9810,0.0000,1.2260,1.5320,2.4040,0,0.0000,0.0000,0.0000,0.0000,0.0000,0
20069,0.0664,0.0379,0.2993,0.0074,-0.0059,-0.0067,0.57,-1.20,-0.92,0,3.479,0.321,-4.774,-1.575,0.006,-0.011,1.018,0.000,0.000,0.000,0.2990,0,0,-0.83,-0.89,-0.07,0.0805,-0.0719,0.3025,0.0398,0.0246,0.3000,0.2653,0.71,2.38,27.60,0.9810,0.0000,1.2260,1.5320,2.4040,0,0.0000,0.0000,0.0000,0.0000,0.0000,0
20120,0.0682,0.0338,0.2991,0.0204,-0.0207,0.0020,0.58,-1.02,-0.99,0,3.489,-5.170,-5.220,-0.968,0.006,-0.010,1.016,0.000,0.000,0.000,0.3040,0,-2,-0.81,-0.64,-0.15,0.0819,-0.0694,0.3024,0.0398,0.0246,0.3000,0.2644,-0.27,3.12,29.63,0.0000,0.0000,1.2250,1.5420,2.4060,0,0.0000,0.0000,0.0000,0.0000,0.0000,0
20171,0.0701,0.0344,0.3016,0.0307,-0.0218,0.0195,0.40,-0.76,-1.05,0,3.484,-4.173,-7.261,-1.150,0.007,-0.015,1.005,0.000,0.000,0.000,0.3000,0,-2,-1.04,-0.39,-0.09,0.0860,-0.0716,0.3043,0.0398,0.0246,0.3000,0.2621,-0.28,3.77,31.56,0.0000,0.0000,1.2250,1.5420,2.4060,0,0.0000,0.0000,0.0000,0.0000,0.0000,0
20222,0.0733,0.0350,0.3017,0.0407,-0.0211,0.0206,0.15,-0.50,-1.09,0,3.489,-2.067,-5.716,-0.106,0.002,-0.015,1.005,0.000,0.000,0.000,0.3050,1,-3,-1.24,-0.04,-0.12,0.0905,-0.0709,0.3044,0.0398,0.0246,0.3000,0.2619,-0.21,4.46,32.63,0.0000,0.0000,1.2290,1.5480,2.4030,0,0.0000,0.0000,0.0000,0.0000,0.0000,0
20273,0.0766,0.0337,0.3041,0.0473,-0.0225,0.0290,-0.04,-0.10,-1.11,0,3.484,-2.972,-4.972,-0.749,0.005,-0.013,0.999,0.000,0.000,0.000,0.3040,1,-1,-1.33,0.23,-0.06,0.0972,-0.0721,0.3060,0.0398,0.0246,0.3000,0.2606,-0.36,5.04,33.43,0.0000,0.0000,1.2290,1.5480,2.4030,0,0.0000,0.0000,0.0000,0.0000,0.0000,0
20324,0.0818,0.0330,0.3053,0.0549,-0.0213,0.0282,-0.15,0.19,-1.13,0,3.489,-0.555,-4.946,-0.346,0.005,-0.012,0.996,0.000,0.000,0.000,0.3090,-5,-3,-1.46,0.49,-0.05,0.1006,-0.0737,0.3069,0.0398,0.0246,0.3000,0.2605,-0.36,5.76,33.93,0.0000,0.0000,1.2250,1.5410,2.3940,0,0.0000,0.0000,0.0000,0.0000,0.0000,0
20375,0.0842,0.0315,0.3082,0.0527,-0.0207,0.0342,-0.17,0.46,-1.14,0,3.479,0.035,-5.072,-0.004,0.006,-0.011,0.990,0.000,0.000,0.000,0.3060,0,-2,-1.56,0.71,-0.18,0.1080,-0.0626,0.3085,0.0398,0.0246,0.3000,0.2592,-0.44,5.86,34.23,0.0000,0.0000,1.2250,1.5410,2.3940,0,0.0000,0.0000,0.0000,0.0000,0.0000,0
20426,0.0863,0.0303,0.3084,0.0478,-0.0199,0.0245,-0.16,0.71,-1.16,0,3.489,-1.758,-3.738,0.147,0.005,-0.011,0.992,0.000,0.000,0.000,0.3090,0,0,-1.54,0.96,-0.14,0.1137,-0.0618,0.3089,0.0398,0.0246,0.3000,0.2603,-0.49,5.76,34.65,0.9480,0.0000,1.2280,1.5500,2.3950,0,0.0000,0.0000,0.0000,0.0000,0.0000,0
20477,0.0906,0.0286,0.3096,0.0467,-0.0206,0.0208,-0.17,0.85,-1.16,0,3.479,-0.716,-1.387,0.559,0.006,-0.015,0.995,0.000,0.000,0.000,0.3050,0,-1,-1.63,1.15,-0.13,0.1182,-0.0584,0.3096,0.0398,0.0246,0.3000,0.2604,-0.64,6.01,34.81,0.9480,0.0000,1.2280,1.5500,2.3950,0,0.0000,0.0000,0.0000,0.0000,0.0000,0
20529,0.0940,0.0312,0.3081,0.0422,-0.0105,0.0060,-0.24,0.98,-1.15,0,3.484,1.972,-1.581,0.955,0.003,-0.010,0.998,0.000,0.000,0.000,0.3070,-7,-1,-1.60,1.26,-0.11,0.1161,-0.0637,0.3094,0.0398,0.0246,0.3000,0.2623,0.03,5.99,34.42,0.9440,0.2850,1.2290,1.5480,2.3950,0,0.0000,0.0000,0.0000,0.0000,0.0000,0
20580,0.0958,0.0283,0.3078,0.0336,-0.0150,0.0009,-0.18,1.10,-1.10,0,3.473,1.528,-1.821,-0.429,0.007,-0.013,0.997,0.000,0.000,0.000,0.3070,3,0,-1.59,1.34,-0.05,0.1188,-0.0487,0.3088,0.0398,0.0246,0.3000,0.2629,-0.39,5.69,33.08,0.9440,0.2850,1.2290,1.5480,2.3950,0,0.0000,0.0000,0.0000,0.0000,0.0000,0
20631,0.0982,0.0296,0.3074,0.0270,-0.0091,-0.0030,-0.01,1.11,-1.09,0,3.479,-0.461,-2.009,-0.303,0.002,-0.019,1.000,0.000,0.000,0.000,0.3020,4,0,-1.44,1.45,-0.11,0.1194,-0.0535,0.3092,0.0398,0.0246,0.3000,0.2634,-0.02,5.55,32.70,0.9510,0.2790,1.2290,1.5450,2.3940,0,0.0000,0.0000,0.0000,0.0000,0.0000,0
20682,0.1000,0.0318,0.3047,0.0192,-0.0020,-0.0142,-0.10,1.13,-1.10,0,3.473,1.144,5.253,-0.231,0.006,-0.016,1.005,0.000,0.000,0.000,0.3040,-4,0,-1.38,1.56,-0.20,0.1195,-0.0621,0.3075,0.0398,0.0246,0.3000,0.2651,0.47,5.28,32.94,0.9510,0.2790,1.2290,1.5450,2.3940,0,0.0000,0.0000,0.0000,0.0000,0.0000,0
20733,0.1012,0.0310,0.3038,0.0107,-0.0024,-0.0124,-0.08,0.95,-1.10,0,3.479,6.691,-0.291,0.255,0.005,-0.012,1.015,0.000,0.000,0.000,0.3040,2,0,-1.38,1.29,-0.15,0.1197,-0.0523,0.3065,0.0398,0.0246,0.3000,0.2651,0.39,4.96,32.98,0.0000,0.2780,1.2200,1.5410,2.3980,0,0.0000,0.0000,0.0000,0.0000,0.0000,0
20784,0.1011,0.0311,0.3035,0.0013,-0.0017,-0.0076,0.12,0.94,-1.12,0,3.473,4.307,-15.336,-0.921,0.008,-0.014,1.006,0.000,0.000,0.000,0.3040,0,-2,-0.99,1.30,-0.20,0.1195,-0.0568,0.3063,0.0398,0.0246,0.3000,0.2646,0.43,4.53,33.66,0.0000,0.2780,1.2200,1.5410,2.3980,0,0.0000,0.0000,0.0000,0.0000,0.0000,0
20835,0.0988,0.0313,0.3035,-0.0127,-0.0019,-0.0016,0.30,1.68,-1.16,0,3.484,0.836,-9.659,0.145,0.004,-0.014,1.008,0.000,0.000,0.000,0.3060,1,0,-0.76,2.05,-0.21,0.1248,-0.0567,0.3061,0.0398,0.0246,0.3000,0.2640,0.44,3.74,34.71,0.9420,0.0000,1.2230,1.5490,2.3950,0,0.0000,0.0000,0.0000,0.0000,0.0000,0
20887,0.0990,0.0325,0.3048,-0.0245,-0.0009,0.0068,0.35,2.12,-1.18,0,3.473,0.285,17.083,-0.440,0.009,-0.012,1.003,0.000,0.000,0.000,0.3020,0,3,-0.69,2.54,-0.24,0.1247,-0.0592,0.3067,0.0398,0.0246,0.3000,0.2629,0.57,3.21,35.42,0.9420,0.0000,1.2230,1.5490,2.3950,0,0.0000,0.0000,0.0000,0.0000,0.0000,0
20938,0.0995,0.0317,0.3038,-0.0368,-0.0050,0.0032,0.36,1.36,-1.21,0,3.479,-1.764,17.720,-0.241,0.010,-0.011,1.002,0.000,0.000,0.000,0.3020,-1,3,-0.67,1.70,-0.30,0.1161,-0.0591,0.3056,0.0398,0.0246,0.3000,0.2634,0.32,2.66,36.41,0.9470,0.0000,1.2240,1.5420,2.4000,0,0.0000,0.0000,0.0000,0.0000,0.0000,0
20989,0.0965,0.0322,0.3031,-0.0508,-0.0058,0.0005,0.26,0.60,-1.21,0,3.479,1.706,4.827,-0.512,0.012,-0.011,1.009,0.000,0.000,0.000,0.3040,0,0,-0.77,0.83,-0.30,0.1074,-0.0563,0.3047,0.0398,0.0246,0.3000,0.2638,0.32,1.79,36.31,0.9470,0.0000,1.2240,1.5420,2.4000,0,0.0000,0.0000,0.0000,0.0000,0.0000,0
21039,0.0926,0.0318,0.3036,-0.0586,-0.0084,0.0059,0.29,0.21,-1.22,0,3.484,-2.641,8.814,-0.179,0.010,-0.014,1.009,0.000,0.000,0.000,0.3070,0,2,-0.68,0.59,-0.33,0.1033,-0.0553,0.3050,0.0398,0.0246,0.3000,0.2632,0.17,1.16,36.51,0.9520,0.0000,1.2220,1.5410,2.3950,0,0.0000,0.0000,0.0000,0.0000,0.0000,0
21091,0.0884,0.0334,0.3055,-0.0633,-0.0054,0.0162,0.16,-0.11,-1.21,0,3.473,-0.386,15.427,1.933,0.011,-0.014,1.002,0.000,0.000,0.000,0.3040,5,1,-0.80,0.13,-0.37,0.1020,-0.0568,0.3064,0.0398,0.0246,0.3000,0.2617,0.43,0.64,36.35,0.9520,0.0000,1.2220,1.5410,2.3950,0,0.0000,0.0000,0.0000,0.0000,0.0000,0
21143,0.0848,0.0334,0.3056,-0.0627,-0.0063,0.0149,0.23,-0.68,-1.15,0,3.479,-2.303,5.979,1.538,0.008,-0.018,1.003,0.000,0.000,0.000,0.3020,1,2,-0.74,-0.68,-0.35,0.0988,-0.0682,0.3066,0.0398,0.0246,0.3000,0.2618,0.38,0.42,34.63,0.9600,0.0000,1.2240,1.5470,2.3960,0,0.0000,0.0000,0.0000,0.0000,0.0000,0
21194,0.0825,0.0324,0.3045,-0.0551,-0.0097,0.0085,0.15,-0.97,-1.04,0,3.479,-1.515,3.784,3.611,0.008,-0.011,1.002,0.000,0.000,0.000,0.3070,4,1,-0.86,-0.97,-0.27,0.0935,-0.0710,0.3059,0.0398,0.0246,0.3000,0.2627,0.15,0.62,31.18,0.9600,0.0000,1.2240,1.5470,2.3960,0,0.0000,0.0000,0.0000,0.0000,0.0000,0
