time_ms,pos_x,pos_y,pos_z,vel_x,vel_y,vel_z,roll,pitch,yaw,thrust,vbat,gyro_x,gyro_y,gyro_z,acc_x,acc_y,acc_z,rate_roll,rate_pitch,rate_yaw,range_z,flow_dx,flow_dy,mekf_roll,mekf_pitch,mekf_yaw,mekf_x,mekf_y,mekf_z,our_ref_x,our_ref_y,our_ref_z,our_thrust,our_roll_cmd,our_pitch_cmd,our_yaw_rate_cmd,multi_front,multi_back,multi_left,multi_right,multi_up,ai_feat_count,vo_x,vo_y,vo_sigma,pg_x,pg_y,lc_count
0,2.0258,-1.3348,0.0102,-0.0250,-0.0363,0.0066,-0.20,0.86,-16.66,0,4.128,-0.095,-0.004,-0.077,0.014,-0.005,1.003,0.000,0.000,0.000,0.0080,7,-9,0.00,0.00,0.00,0.0000,0.0000,0.0000,0.0000,0.0000,0.0000,0.0000,0.00,0.00,0.00,1.6140,0.3350,1.4130,0.2490,2.6980,0,0.0000,0.0000,0.0000,0.0000,0.0000,0
101,2.0269,-1.3353,0.0096,-0.0126,-0.0308,0.0035,-0.32,0.83,-16.57,0,4.128,-0.037,-0.150,-0.071,0.015,-0.002,1.005,0.000,0.000,0.000,0.0090,-1,0,0.00,0.00,0.00,0.0000,0.0000,0.0000,0.0000,0.0000,0.0000,0.0000,0.00,0.00,0.00,1.6140,0.3350,1.4210,0.2460,2.6980,0,0.0000,0.0000,0.0000,0.0000,0.0000,0
201,2.0265,-1.3333,0.0095,-0.0105,-0.0125,0.0038,-0.41,0.82,-16.49,0,4.123,-0.123,-0.444,-0.200,0.016,-0.002,1.004,0.000,0.000,0.000,0.0090,22,-4,0.00,0.00,0.00,0.0000,0.0000,0.0000,0.0000,0.0000,0.0000,0.0000,0.00,0.00,0.00,1.6200,0.3390,1.4210,0.2460,2.7010,0,0.0000,0.0000,0.0000,0.0000,0.0000,0
302,2.0258,-1.3384,0.0095,-0.0104,-0.0353,0.0039,-0.14,0.74,-16.41,0,4.123,-0.048,-0.017,-0.213,0.015,-0.002,0.999,0.000,0.000,0.000,0.0080,6,-1,0.00,0.00,0.00,0.0000,0.0000,0.0000,0.0000,0.0000,0.0000,0.0000,0.00,0.00,0.00,1.6200,0.3390,1.4140,0.2500,2.7010,0,0.0000,0.0000,0.0000,0.0000,0.0000,0
403,2.0254,-1.3417,0.0090,-0.0074,-0.0425,0.0008,-0.17,0.71,-16.32,0,4.128,-0.099,0.312,-0.017,0.014,-0.005,1.004,0.000,0.000,0.000,0.0080,-8,-1,0.00,0.00,0.00,0.0000,0.0000,0.0000,0.0000,0.0000,0.0000,0.0000,0.00,0.00,0.00,1.6190,0.3360,1.4140,0.2500,2.7120,0,0.0000,0.0000,0.0000,0.0000,0.0000,0
504,2.0253,-1.3401,0.0088,-0.0053,-0.0226,0.0010,-0.28,0.78,-16.26,0,4.123,-0.051,-0.225,0.016,0.014,-0.006,1.003,0.000,0.000,0.000,0.0100,5,1,0.00,0.00,0.00,0.0000,0.0000,0.0000,0.0000,0.0000,0.0000,0.0000,0.00,0.00,0.00,1.6190,0.3360,1.4170,0.2450,2.7120,0,0.0000,0.0000,0.0000,0.0000,0.0000,0
605,2.0273,-1.3435,0.0093,0.0080,-0.0338,0.0051,-0.36,0.75,-16.18,0,4.128,0.180,-0.068,-0.155,0.014,-0.001,1.001,0.000,0.000,0.000,0.0090,7,0,0.00,0.00,0.00,0.0000,0.0000,0.0000,0.0000,0.0000,0.0000,0.0000,0.00,0.00,0.00,1.6130,0.3300,1.4170,0.2450,2.7120,0,0.0000,0.0000,0.0000,0.0000,0.0000,0
706,2.0244,-1.3429,0.0095,-0.0061,-0.0230,0.0050,-0.41,0.76,-16.10,0,4.128,0.014,0.292,-0.075,0.014,-0.003,1.000,0.000,0.000,0.000,0.0100,-4,-3,0.00,0.00,0.00,0.0000,0.0000,0.0000,0.0000,0.0000,0.0000,0.0000,0.00,0.00,0.00,1.6130,0.3300,1.4140,0.2460,2.7120,0,0.0000,0.0000,0.0000,0.0000,0.0000,0
807,2.0252,-1.3446,0.0099,-0.0006,-0.0264,0.0068,-0.30,0.76,-16.02,0,4.123,-0.464,-0.052,0.056,0.011,-0.003,1.002,0.000,0.000,0.000,0.0070,-7,-2,0.00,0.00,0.00,0.0000,0.0000,0.0000,0.0000,0.0000,0.0000,0.0000,0.00,0.00,0.00,1.6160,0.3210,1.4140,0.2460,2.7050,0,0.0000,0.0000,0.0000,0.0000,0.0000,0
908,2.0243,-1.3441,0.0090,-0.0042,-0.0165,0.0016,-0.36,0.75,-15.94,0,4.123,-0.170,0.166,0.118,0.015,-0.002,1.004,0.000,0.000,0.000,0.0090,7,-1,0.00,0.00,0.00,0.0000,0.0000,0.0000,0.0000,0.0000,0.0000,0.0000,0.00,0.00,0.00,1.6160,0.3210,1.4160,0.2480,2.7050,0,0.0000,0.0000,0.0000,0.0000,0.0000,0
1010,2.0249,-1.3446,0.0091,0.0005,-0.0134,0.0027,-0.34,0.69,-15.85,0,4.128,-0.173,-0.080,0.196,0.014,-0.003,1.003,0.000,0.000,0.000,0.0080,20,-1,0.00,0.00,0.00,0.0000,0.0000,0.0000,0.0000,0.0000,0.0000,0.0000,0.00,0.00,0.00,1.6100,0.3140,1.4160,0.2480,2.7020,0,0.0000,0.0000,0.0000,0.0000,0.0000,0
1110,2.0236,-1.3491,0.0088,-0.0054,-0.0327,0.0013,-0.08,0.73,-15.77,0,4.123,0.007,-0.051,-0.065,0.012,-0.003,1.006,0.000,0.000,0.000,0.0100,-17,0,0.00,0.00,0.00,0.0000,0.0000,0.0000,0.0000,0.0000,0.0000,0.0000,0.00,0.00,0.00,1.6100,0.3140,1.4150,0.2490,2.7020,0,0.0000,0.0000,0.0000,0.0000,0.0000,0
1211,2.0236,-1.3497,0.0095,-0.0030,-0.0238,0.0067,-0.16,0.71,-15.69,0,4.128,-0.187,0.377,0.279,0.013,-0.002,1.003,0.000,0.000,0.000,0.0110,10,-8,0.00,0.00,0.00,0.0000,0.0000,0.0000,0.0000,0.0000,0.0000,0.0000,0.00,0.00,0.00,1.6160,0.3110,1.4150,0.2490,2.7030,0,0.0000,0.0000,0.0000,0.0000,0.0000,0
1312,2.0228,-1.3550,0.0104,-0.0048,-0.0438,0.0104,-0.31,0.69,-15.62,0,4.128,-0.239,0.172,-0.043,0.015,-0.003,1.002,0.000,0.000,0.000,0.0110,-11,4,0.00,0.00,0.00,0.0000,0.0000,0.0000,0.0000,0.0000,0.0000,0.0000,0.00,0.00,0.00,1.6160,0.3110,1.4170,0.2490,2.7030,0,0.0000,0.0000,0.0000,0.0000,0.0000,0
1413,2.0232,-1.3554,0.0111,-0.0011,-0.0377,0.0124,-0.30,0.67,-15.54,0,4.123,-0.106,0.008,-0.172,0.014,-0.002,1.002,0.000,0.000,0.000,0.0080,3,3,0.00,0.00,0.00,0.0000,0.0000,0.0000,0.0000,0.0000,0.0000,0.0000,0.00,0.00,0.00,1.6190,0.3200,1.4170,0.2490,2.7120,0,0.0000,0.0000,0.0000,0.0000,0.0000,0
1514,2.0210,-1.3522,0.0103,-0.0112,-0.0136,0.0064,-0.34,0.80,-15.48,0,4.123,0.009,-0.172,-0.047,0.013,-0.004,1.004,0.000,0.000,0.000,0.0050,21,0,0.00,0.00,0.00,0.0000,0.0000,0.0000,0.0000,0.0000,0.0000,0.0000,0.00,0.00,0.00,1.6190,0.3200,1.4180,0.2440,2.7120,0,0.0000,0.0000,0.0000,0.0000,0.0000,0
1565,2.0205,-1.3586,0.0082,-0.0109,-0.0436,-0.0057,-0.12,0.73,-15.39,0,4.128,-0.335,-0.084,0.277,0.015,-0.003,1.000,0.000,0.000,0.000,0.0090,3,1,0.00,0.00,0.00,0.0000,0.0000,0.0000,0.0000,0.0000,0.0000,0.0000,0.00,0.00,0.00,1.6130,0.3160,1.4180,0.2440,2.7070,0,0.0000,0.0000,0.0000,0.0000,0.0000,0
1617,2.0178,-1.3628,0.0083,-0.0212,-0.0536,-0.0029,-0.05,0.78,-15.32,0,4.123,-0.109,-0.017,0.239,0.013,-0.002,1.003,0.000,0.000,0.000,0.0090,9,5,0.00,0.00,0.00,0.0000,0.0000,0.0000,0.0000,0.0000,0.0000,0.0000,0.00,0.00,0.00,1.6130,0.3160,1.4230,0.2470,2.7070,0,0.0000,0.0000,0.0000,0.0000,0.0000,0
1667,2.0191,-1.3583,0.0090,-0.0105,-0.0173,0.0028,-0.41,0.80,-15.24,0,4.128,-0.045,0.170,-0.204,0.011,-0.003,1.002,0.000,0.000,0.000,0.0110,3,-7,0.00,0.00,0.00,0.0000,0.0000,0.0000,0.0000,0.0000,0.0000,0.0000,0.00,0.00,0.00,1.6230,0.2760,1.4230,0.2470,2.7080,0,0.0000,0.0000,0.0000,0.0000,0.0000,0
1718,2.0185,-1.3549,0.0100,-0.0105,0.0053,0.0083,-0.50,0.87,-15.17,0,4.123,-0.238,-0.242,-0.167,0.013,-0.002,1.004,0.000,0.000,0.000,0.0140,19,7,0.00,0.00,0.00,0.0000,0.0000,0.0000,0.0000,0.0000,0.0000,0.0000,0.00,0.00,0.00,1.6230,0.2760,1.4170,0.2450,2.7080,0,0.0000,0.0000,0.0000,0.0000,0.0000,0
1769,2.0161,-1.3581,0.0120,-0.0208,-0.0127,0.0181,-0.34,0.84,-15.10,0,4.123,0.013,0.176,-0.173,0.013,-0.002,1.001,0.000,0.000,0.000,0.0110,6,-2,0.00,0.00,0.00,0.0000,0.0000,0.0000,0.0000,0.0000,0.0000,0.0000,0.00,0.00,0.00,1.6160,0.1560,1.4170,0.2450,2.7030,0,0.0000,0.0000,0.0000,0.0000,0.0000,0
1820,2.0129,-1.3583,0.0122,-0.0337,-0.0095,0.0152,-0.37,0.99,-15.04,0,4.123,-0.299,-0.246,0.110,0.012,-0.003,1.002,0.000,0.000,0.000,0.0100,5,-1,0.00,0.00,0.00,0.0000,0.0000,0.0000,0.0000,0.0000,0.0000,0.0000,0.00,0.00,0.00,1.6160,0.1560,1.4200,0.2470,2.7030,0,0.0000,0.0000,0.0000,0.0000,0.0000,0
1871,2.0126,-1.3570,0.0117,-0.0289,0.0005,0.0100,-0.42,0.90,-14.96,0,4.128,-0.199,0.108,-0.246,0.013,-0.001,1.005,0.000,0.000,0.000,0.0100,3,-8,0.00,0.00,0.00,0.0000,0.0000,0.0000,0.0000,0.0000,0.0000,0.0000,0.00,0.00,0.00,1.6150,0.0000,1.4200,0.2470,2.7110,0,0.0000,0.0000,0.0000,0.0000,0.0000,0
1922,2.0119,-1.3575,0.0114,-0.0267,0.0005,0.0065,-0.39,0.84,-14.89,0,4.123,-0.294,0.045,0.011,0.013,-0.002,1.005,0.000,0.000,0.000,0.0090,32,4,0.00,0.00,0.00,0.0000,0.0000,0.0000,0.0000,0.0000,0.0000,0.0000,0.00,0.00,0.00,1.6150,0.0000,1.4220,0.2520,2.7110,0,0.0000,0.0000,0.0000,0.0000,0.0000,0
1973,2.0110,-1.3639,0.0107,-0.0255,-0.0332,0.0028,-0.12,0.82,-14.82,0,4.128,-0.186,-0.186,-0.063,0.013,-0.001,1.004,0.000,0.000,0.000,0.0080,19,-18,0.00,0.00,0.00,0.0000,0.0000,0.0000,0.0000,0.0000,0.0000,0.0000,0.00,0.00,0.00,1.6180,0.0000,1.4220,0.2520,2.7130,0,0.0000,0.0000,0.0000,0.0000,0.0000,0
2024,2.0125,-1.3676,0.0097,-0.0109,-0.0460,-0.0011,-0.09,0.68,-14.74,0,4.123,-0.078,-0.282,-0.144,0.011,-0.005,1.000,0.000,0.000,0.000,0.0090,2,-5,0.00,0.00,0.00,0.0000,0.0000,0.0000,0.0000,0.0000,0.0000,0.0000,0.00,0.00,0.00,1.6180,0.0000,1.4160,0.2470,2.7130,0,0.0000,0.0000,0.0000,0.0000,0.0000,0
2075,2.0134,-1.3665,0.0095,-0.0028,-0.0306,-0.0003,-0.24,0.69,-14.67,0,4.123,-0.174,-0.027,0.176,0.014,-0.002,1.005,0.000,0.000,0.000,0.0090,-10,-10,0.00,0.00,0.00,0.0000,0.0000,0.0000,0.0000,0.0000,0.0000,0.0000,0.00,0.00,0.00,1.6230,0.0000,1.4160,0.2470,2.7070,0,0.0000,0.0000,0.0000,0.0000,0.0000,0
2127,2.0146,-1.3636,0.0094,0.0067,-0.0068,0.0005,-0.33,0.61,-14.60,0,4.123,-0.180,-0.211,-0.057,0.013,-0.003,1.003,0.000,0.000,0.000,0.0100,0,-3,0.00,0.00,0.00,0.0000,0.0000,0.0000,0.0000,0.0000,0.0000,0.0000,0.00,0.00,0.00,1.6230,0.0000,1.4160,0.2500,2.7070,0,0.0000,0.0000,0.0000,0.0000,0.0000,0
2178,2.0143,-1.3687,0.0098,0.0055,-0.0275,0.0040,0.05,0.59,-14.52,0,4.128,-0.288,0.005,0.167,0.014,-0.003,1.004,0.000,0.000,0.000,0.0090,21,-3,0.00,0.00,0.00,0.0000,0.0000,0.0000,0.0000,0.0000,0.0000,0.0000,0.00,0.00,0.00,1.6140,0.0000,1.4160,0.2500,2.7050,0,0.0000,0.0000,0.0000,0.0000,0.0000,0
2229,2.0126,-1.3804,0.0093,-0.0028,-0.0813,0.0007,0.13,0.57,-14.45,0,4.123,-0.239,-0.090,0.136,0.012,-0.002,1.003,0.000,0.000,0.000,0.0060,10,-2,0.00,0.00,0.00,0.0000,0.0000,0.0000,0.0000,0.0000,0.0000,0.0000,0.00,0.00,0.00,1.6140,0.0000,1.4180,0.2500,2.7050,0,0.0000,0.0000,0.0000,0.0000,0.0000,0
2281,2.0130,-1.3823,0.0081,-0.0001,-0.0739,-0.0042,-0.00,0.61,-14.38,0,4.128,0.044,-0.205,-0.212,0.011,-0.003,1.004,0.000,0.000,0.000,0.0090,15,-4,0.00,0.00,0.00,0.0000,0.0000,0.0000,0.0000,0.0000,0.0000,0.0000,0.00,0.00,0.00,1.6190,0.0000,1.4180,0.2500,2.7130,0,0.0000,0.0000,0.0000,0.0000,0.0000,0
2333,2.0133,-1.3788,0.0088,0.0019,-0.0434,0.0012,-0.24,0.68,-14.33,0,4.117,-0.416,-0.119,0.278,0.011,-0.005,1.004,0.000,0.000,0.000,0.0090,-2,3,0.00,0.00,0.00,0.0000,0.0000,0.0000,0.0000,0.0000,0.0000,0.0000,0.00,0.00,0.00,1.6190,0.0000,1.4140,0.2490,2.7130,0,0.0000,0.0000,0.0000,0.0000,0.0000,0
2384,2.0141,-1.3761,0.0090,0.0059,-0.0187,0.0029,-0.35,0.70,-14.26,0,4.123,0.147,0.262,-0.208,0.013,-0.001,1.003,0.000,0.000,0.000,0.0080,-5,-4,0.00,0.00,0.00,0.0000,0.0000,0.0000,0.0000,0.0000,0.0000,0.0000,0.00,0.00,0.00,1.6190,0.0000,1.4140,0.2490,2.7040,0,0.0000,0.0000,0.0000,0.0000,0.0000,0
2436,2.0141,-1.3761,0.0087,0.0060,-0.0123,0.0019,-0.38,0.69,-14.19,0,4.123,0.083,-0.198,0.025,0.013,0.000,1.003,0.000,0.000,0.000,0.0070,-4,0,0.00,0.00,0.00,0.0000,0.0000,0.0000,0.0000,0.0000,0.0000,0.0000,0.00,0.00,0.00,1.6190,0.0000,1.4170,0.2480,2.7040,0,0.0000,0.0000,0.0000,0.0000,0.0000,0
2487,2.0152,-1.3761,0.0081,0.0114,-0.0061,0.0001,-0.37,0.71,-14.12,0,4.128,-0.251,0.175,-0.073,0.014,-0.003,1.002,0.000,0.000,0.000,0.0070,28,-2,0.00,0.00,0.00,0.0000,0.0000,0.0000,0.0000,0.0000,0.0000,0.0000,0.00,0.00,0.00,1.6210,0.0000,1.4170,0.2480,2.7070,0,0.0000,0.0000,0.0000,0.0000,0.0000,0
2539,2.0134,-1.3828,0.0077,0.0010,-0.0406,-0.0017,-0.22,0.72,-14.04,0,4.123,-0.160,-0.060,-0.109,0.014,-0.001,1.005,0.000,0.000,0.000,0.0090,-1,1,0.00,0.00,0.00,0.0000,0.0000,0.0000,0.0000,0.0000,0.0000,0.0000,0.00,0.00,0.00,1.6210,0.0000,1.4160,0.2490,2.7070,0,0.0000,0.0000,0.0000,0.0000,0.0000,0
2590,2.0140,-1.3773,0.0084,0.0051,-0.0003,0.0045,-0.32,0.70,-13.98,0,4.128,-0.204,0.393,0.056,0.012,-0.001,1.001,0.000,0.000,0.000,0.0080,0,-1,0.00,0.00,0.00,0.0000,0.0000,0.0000,0.0000,0.0000,0.0000,0.0000,0.00,0.00,0.00,1.6250,0.0000,1.4160,0.2490,2.7060,0,0.0000,0.0000,0.0000,0.0000,0.0000,0
2641,2.0126,-1.3843,0.0084,-0.0023,-0.0329,0.0035,-0.23,0.71,-13.91,0,4.128,-0.148,-0.040,-0.013,0.012,-0.003,1.003,0.000,0.000,0.000,0.0080,-12,-4,0.00,0.00,0.00,0.0000,0.0000,0.0000,0.0000,0.0000,0.0000,0.0000,0.00,0.00,0.00,1.6250,0.0000,1.4190,0.2490,2.7060,0,0.0000,0.0000,0.0000,0.0000,0.0000,0
2692,2.0135,-1.3831,0.0084,0.0047,-0.0173,0.0039,-0.28,0.72,-13.84,0,4.123,-0.347,-0.009,-0.150,0.013,-0.005,1.002,0.000,0.000,0.000,0.0090,-2,-1,0.00,0.00,0.00,0.0000,0.0000,0.0000,0.0000,0.0000,0.0000,0.0000,0.00,0.00,0.00,1.6140,0.0000,1.4190,0.2490,2.7050,0,0.0000,0.0000,0.0000,0.0000,0.0000,0
2744,2.0125,-1.3837,0.0088,-0.0013,-0.0143,0.0061,-0.29,0.74,-13.78,0,4.123,-0.075,-0.194,-0.207,0.013,-0.004,1.002,0.000,0.000,0.000,0.0060,-7,-5,0.00,0.00,0.00,0.0000,0.0000,0.0000,0.0000,0.0000,0.0000,0.0000,0.00,0.00,0.00,1.6140,0.0000,1.4170,0.2470,2.7050,0,0.0000,0.0000,0.0000,0.0000,0.0000,0
2795,2.0136,-1.3828,0.0079,0.0058,-0.0041,0.0007,-0.41,0.77,-13.72,0,4.128,-0.017,-0.259,-0.124,0.014,-0.003,1.003,0.000,0.000,0.000,0.0080,-1,-6,0.00,0.00,0.00,0.0000,0.0000,0.0000,0.0000,0.0000,0.0000,0.0000,0.00,0.00,0.00,1.6180,0.0000,1.4170,0.2470,2.7080,0,0.0000,0.0000,0.0000,0.0000,0.0000,0
2847,2.0134,-1.3844,0.0080,0.0050,-0.0097,0.0022,-0.38,0.76,-13.65,0,4.123,0.032,-0.117,-0.151,0.012,-0.005,1.001,0.000,0.000,0.000,0.0090,-31,3,0.00,0.00,0.00,0.0000,0.0000,0.0000,0.0000,0.0000,0.0000,0.0000,0.00,0.00,0.00,1.6180,0.0000,1.4160,0.2470,2.7080,0,0.0000,0.0000,0.0000,0.0000,0.0000,0
2899,2.0135,-1.3787,0.0085,0.0060,0.0267,0.0055,-0.68,0.76,-13.59,0,4.128,0.092,0.170,-0.029,0.013,-0.002,1.004,0.000,0.000,0.000,0.0090,-5,-3,0.00,0.00,0.00,0.0000,0.0000,0.0000,0.0000,0.0000,0.0000,0.0000,0.00,0.00,0.00,1.6160,0.0000,1.4160,0.2470,2.7100,0,0.0000,0.0000,0.0000,0.0000,0.0000,0
2949,2.0125,-1.3837,0.0092,0.0003,-0.0040,0.0085,-0.30,0.74,-13.52,0,4.128,-0.013,0.093,-0.038,0.013,-0.002,1.002,0.000,0.000,0.000,0.0090,-4,0,0.00,0.00,0.00,0.0000,0.0000,0.0000,0.0000,0.0000,0.0000,0.0000,0.00,0.00,0.00,1.6160,0.0000,1.4180,0.2470,2.7100,0,0.0000,0.0000,0.0000,0.0000,0.0000,0
3000,2.0131,-1.3812,0.0094,0.0047,0.0132,0.0089,-0.64,0.77,-13.45,0,4.123,0.011,-0.139,-0.019,0.012,-0.002,1.002,0.000,0.000,0.000,0.0090,-1,-5,0.00,0.00,0.00,0.0000,0.0000,0.0000,0.0000,0.0000,0.0000,0.0000,0.00,0.00,0.00,1.6160,0.0000,1.4180,0.2470,2.7090,0,0.0000,0.0000,0.0000,0.0000,0.0000,0
3051,2.0140,-1.3776,0.0095,0.0092,0.0294,0.0079,-0.59,0.75,-13.38,0,4.123,0.026,0.019,-0.159,0.014,-0.003,1.004,0.000,0.000,0.000,0.0080,16,3,0.00,0.00,0.00,0.0000,0.0000,0.0000,0.0000,0.0000,0.0000,0.0000,0.00,0.00,0.00,1.6160,0.0000,1.4190,0.2450,2.7090,0,0.0000,0.0000,0.0000,0.0000,0.0000,0
3102,2.0122,-1.3806,0.0093,-0.0018,0.0074,0.0056,-0.43,0.78,-13.32,0,4.128,-0.320,-0.053,-0.222,0.013,-0.002,1.003,0.000,0.000,0.000,0.0110,-17,-2,0.00,0.00,0.00,0.0000,0.0000,0.0000,0.0000,0.0000,0.0000,0.0000,0.00,0.00,0.00,1.6160,0.0000,1.4190,0.2450,2.7020,0,0.0000,0.0000,0.0000,0.0000,0.0000,0
3153,2.0134,-1.3764,0.0102,0.0058,0.0304,0.0102,-0.56,0.78,-13.25,0,4.123,-0.092,0.092,-0.005,0.014,-0.003,1.004,0.000,0.000,0.000,0.0110,1,3,0.00,0.00,0.00,0.0000,0.0000,0.0000,0.0000,0.0000,0.0000,0.0000,0.00,0.00,0.00,1.6160,0.0000,1.4160,0.2500,2.7020,0,0.0000,0.0000,0.0000,0.0000,0.0000,0
3205,2.0127,-1.3773,0.0109,0.0017,0.0209,0.0127,-0.55,0.79,-13.19,0,4.128,-0.266,-0.046,-0.284,0.014,-0.003,1.002,0.000,0.000,0.000,0.0080,1,0,0.00,0.00,0.00,0.0000,0.0000,0.0000,0.0000,0.0000,0.0000,0.0000,0.00,0.00,0.00,1.6200,0.0000,1.4160,0.2500,2.7040,0,0.0000,0.0000,0.0000,0.0000,0.0000,0
3256,2.0131,-1.3766,0.0101,0.0041,0.0207,0.0062,-0.49,0.75,-13.12,0,4.128,-0.393,-0.372,-0.045,0.013,-0.004,1.001,0.000,0.000,0.000,0.0070,5,-5,0.00,0.00,0.00,0.0000,0.0000,0.0000,0.0000,0.0000,0.0000,0.0000,0.00,0.00,0.00,1.6200,0.0000,1.4170,0.2470,2.7040,0,0.0000,0.0000,0.0000,0.0000,0.0000,0
3307,2.0136,-1.3772,0.0091,0.0064,0.0132,0.0005,-0.43,0.77,-13.06,0,4.123,-0.209,-0.035,0.244,0.015,-0.002,1.003,0.000,0.000,0.000,0.0080,15,-5,0.00,0.00,0.00,0.0000,0.0000,0.0000,0.0000,0.0000,0.0000,0.0000,0.00,0.00,0.00,1.6160,0.0000,1.4170,0.2470,2.7140,0,0.0000,0.0000,0.0000,0.0000,0.0000,0
3359,2.0135,-1.3804,0.0087,0.0058,-0.0071,-0.0003,-0.41,0.66,-12.99,0,4.123,-0.055,-0.307,-0.033,0.012,-0.003,1.003,0.000,0.000,0.000,0.0050,16,-6,0.00,0.00,0.00,0.0000,0.0000,0.0000,0.0000,0.0000,0.0000,0.0000,0.00,0.00,0.00,1.6160,0.0000,1.4160,0.2500,2.7140,0,0.0000,0.0000,0.0000,0.0000,0.0000,0
3409,2.0149,-1.3807,0.0073,0.0118,-0.0100,-0.0063,-0.01,0.64,-12.92,0,4.128,-0.252,-0.125,-0.088,0.014,-0.003,1.004,0.000,0.000,0.000,0.0060,2,-2,0.00,0.00,0.00,0.0000,0.0000,0.0000,0.0000,0.0000,0.0000,0.0000,0.00,0.00,0.00,1.6210,0.0000,1.4160,0.2500,2.7040,0,0.0000,0.0000,0.0000,0.0000,0.0000,0
3461,2.0144,-1.3857,0.0065,0.0077,-0.0311,-0.0078,-0.08,0.66,-12.86,0,4.123,-0.290,-0.105,0.245,0.012,-0.004,1.001,0.000,0.000,0.000,0.0100,40,-3,0.00,0.00,0.00,0.0000,0.0000,0.0000,0.0000,0.0000,0.0000,0.0000,0.00,0.00,0.00,1.6210,0.0000,1.4200,0.2500,2.7040,0,0.0000,0.0000,0.0000,0.0000,0.0000,0
3511,2.0132,-1.3900,0.0077,0.0004,-0.0476,0.0017,0.44,0.62,-12.78,0,4.128,-0.224,0.037,-0.270,0.009,-0.004,1.001,0.000,0.000,0.000,0.0120,3,0,0.00,0.00,0.00,0.0000,0.0000,0.0000,0.0000,0.0000,0.0000,0.0000,0.00,0.00,0.00,1.6120,0.0000,1.4200,0.2500,2.7090,0,0.0000,0.0000,0.0000,0.0000,0.0000,0
3563,2.0125,-1.3993,0.0095,-0.0026,-0.0797,0.0123,0.24,0.68,-12.72,0,4.123,0.067,0.044,0.021,0.016,-0.001,1.001,0.000,0.000,0.000,0.0100,-17,0,0.00,0.00,0.00,0.0000,0.0000,0.0000,0.0000,0.0000,0.0000,0.0000,0.00,0.00,0.00,1.6120,0.0000,1.4180,0.2500,2.7090,0,0.0000,0.0000,0.0000,0.0000,0.0000,0
3614,2.0138,-1.3952,0.0106,0.0056,-0.0403,0.0161,-0.16,0.68,-12.67,0,4.128,-0.031,-0.038,-0.095,0.015,-0.003,1.001,0.000,0.000,0.000,0.0070,13,-1,0.00,0.00,0.00,0.0000,0.0000,0.0000,0.0000,0.0000,0.0000,0.0000,0.00,0.00,0.00,1.6220,0.0000,1.4180,0.2500,2.7120,0,0.0000,0.0000,0.0000,0.0000,0.0000,0
3666,2.0137,-1.3958,0.0097,0.0043,-0.0345,0.0077,-0.25,0.69,-12.61,0,4.123,-0.092,0.213,-0.026,0.012,-0.003,1.001,0.000,0.000,0.000,0.0070,-21,-3,0.00,0.00,0.00,0.0000,0.0000,0.0000,0.0000,0.0000,0.0000,0.0000,0.00,0.00,0.00,1.6220,0.0000,1.4220,0.2490,2.7120,0,0.0000,0.0000,0.0000,0.0000,0.0000,0
3717,2.0156,-1.3912,0.0090,0.0143,-0.0005,0.0036,-0.17,0.61,-12.56,0,4.128,-0.039,-0.116,0.279,0.015,-0.004,1.002,0.000,0.000,0.000,0.0100,-20,-3,0.00,0.00,0.00,0.0000,0.0000,0.0000,0.0000,0.0000,0.0000,0.0000,0.00,0.00,0.00,1.6220,0.0000,1.4220,0.2490,2.7120,0,0.0000,0.0000,0.0000,0.0000,0.0000,0
3767,2.0175,-1.3927,0.0098,0.0223,-0.0026,0.0073,-0.25,0.59,-12.50,0,4.123,-0.318,-0.137,-0.009,0.014,-0.001,1.003,0.000,0.000,0.000,0.0090,8,-2,0.00,0.00,0.00,0.0000,0.0000,0.0000,0.0000,0.0000,0.0000,0.0000,0.00,0.00,0.00,1.6220,0.0000,1.4150,0.2520,2.7120,0,0.0000,0.0000,0.0000,0.0000,0.0000,0
3818,2.0176,-1.3979,0.0097,0.0190,-0.0251,0.0059,-0.23,0.64,-12.43,0,4.128,-0.143,-0.406,-0.338,0.013,-0.001,1.001,0.000,0.000,0.000,0.0080,3,-1,0.00,0.00,0.00,0.0000,0.0000,0.0000,0.0000,0.0000,0.0000,0.0000,0.00,0.00,0.00,1.6170,0.0000,1.4150,0.2520,2.7110,0,0.0000,0.0000,0.0000,0.0000,0.0000,0
3870,-0.0000,-0.0000,0.0080,-0.0002,-0.0034,0.0001,0.01,0.01,-0.00,0,4.123,0.020,0.060,-0.248,0.014,-0.003,1.002,0.000,0.000,0.000,0.0090,-14,-6,0.00,0.00,0.00,0.0000,0.0000,0.0000,0.0000,0.0000,0.0000,0.0000,0.00,0.00,0.00,1.6170,0.0000,1.4200,0.2500,2.7110,0,0.0000,0.0000,0.0000,0.0000,0.0000,0
3921,0.0004,0.0010,0.0085,0.0114,0.0215,0.0012,-0.61,-0.02,-0.01,0,4.123,-0.220,-0.019,0.171,0.015,-0.003,1.004,0.000,0.000,0.000,0.0090,28,-3,0.00,0.00,0.00,0.0000,0.0000,0.0000,0.0000,0.0000,0.0000,0.0000,0.00,0.00,0.00,1.6160,0.0000,1.4200,0.2500,2.7110,0,0.0000,0.0000,0.0000,0.0000,0.0000,0
3972,0.0001,0.0001,0.0090,0.0066,-0.0038,0.0040,1.69,0.11,-0.02,0,4.123,-0.147,-0.064,-0.061,0.016,-0.001,1.003,0.000,0.000,0.000,0.0110,0,3,0.00,0.00,0.00,0.0000,0.0000,0.0000,0.0000,0.0000,0.0000,0.0000,0.00,0.00,0.00,1.6160,0.0000,1.4150,0.2500,2.7110,0,0.0000,0.0000,0.0000,0.0000,0.0000,0
4023,0.0006,-0.0058,0.0099,0.0109,-0.0627,0.0072,1.59,0.18,-0.02,0,4.128,-0.183,-0.028,0.063,0.014,-0.000,1.004,0.000,0.000,0.000,0.0090,-6,0,0.00,0.00,0.00,0.0000,0.0000,0.0000,0.0000,0.0000,0.0000,0.0000,0.00,0.00,0.00,1.6150,0.0000,1.4150,0.2500,2.7100,0,0.0000,0.0000,0.0000,0.0000,0.0000,0
4073,0.0017,-0.0062,0.0100,0.0200,-0.0445,0.0078,0.88,0.29,-0.02,0,4.123,-0.163,0.102,0.396,0.014,-0.004,1.004,0.000,0.000,0.000,0.0080,2,5,0.00,0.00,0.00,0.0000,0.0000,0.0000,0.0000,0.0000,0.0000,0.0000,0.00,0.00,0.00,1.6150,0.0000,1.4190,0.2540,2.7100,0,0.0000,0.0000,0.0000,0.0000,0.0000,0
4124,0.0010,-0.0086,0.0094,0.0093,-0.0522,0.0035,0.76,0.10,-0.02,0,4.123,0.040,-0.229,-0.172,0.013,-0.003,1.003,0.000,0.000,0.000,0.0080,25,1,0.00,0.00,0.00,0.0000,0.0000,0.0000,0.0000,0.0000,0.0000,0.0000,0.00,0.00,0.00,1.6210,0.0000,1.4190,0.2540,2.7100,0,0.0000,0.0000,0.0000,0.0000,0.0000,0
4175,0.0017,-0.0160,0.0089,0.0130,-0.0982,-0.0006,0.97,0.73,-0.02,0,4.123,0.091,0.388,-0.136,0.014,-0.004,1.002,0.000,0.000,0.000,0.0060,3,0,0.00,0.00,0.00,0.0000,0.0000,0.0000,0.0000,0.0000,0.0000,0.0000,0.00,0.00,0.00,1.6210,0.0000,1.4130,0.2490,2.7100,0,0.0000,0.0000,0.0000,0.0000,0.0000,0
4226,0.0008,-0.0173,0.0080,0.0054,-0.0835,-0.0041,0.96,0.61,-0.02,0,4.123,-0.059,0.200,-0.086,0.012,-0.002,1.003,0.000,0.000,0.000,0.0090,0,-4,0.00,0.00,0.00,0.0000,0.0000,0.0000,0.0000,0.0000,0.0000,0.0000,0.00,0.00,0.00,1.6200,0.0000,1.4130,0.2490,2.7050,0,0.0000,0.0000,0.0000,0.0000,0.0000,0
4278,0.0007,-0.0175,0.0085,0.0041,-0.0647,0.0008,0.53,0.70,-0.01,0,4.123,-0.071,0.053,-0.052,0.015,-0.001,1.003,0.000,0.000,0.000,0.0070,-22,1,0.00,0.00,0.00,0.0000,0.0000,0.0000,0.0000,0.0000,0.0000,0.0000,0.00,0.00,0.00,1.6200,0.0000,1.4160,0.2520,2.7050,0,0.0000,0.0000,0.0000,0.0000,0.0000,0
4328,-0.0014,-0.0110,0.0080,-0.0092,-0.0036,-0.0005,-0.78,0.93,0.02,0,4.128,-0.051,-0.113,0.140,0.013,-0.000,1.005,0.000,0.000,0.000,0.0090,-13,3,0.00,0.00,0.00,0.0000,0.0000,0.0000,0.0000,0.0000,0.0000,0.0000,0.00,0.00,0.00,1.6210,0.0000,1.4160,0.2520,2.7160,0,0.0000,0.0000,0.0000,0.0000,0.0000,0
4380,-0.0033,-0.0051,0.0082,-0.0184,0.0352,0.0017,-0.69,0.88,0.01,0,4.123,-0.251,0.005,-0.035,0.014,-0.004,1.001,0.000,0.000,0.000,0.0100,-7,2,0.00,0.00,0.00,0.0000,0.0000,0.0000,0.0000,0.0000,0.0000,0.0000,0.00,0.00,0.00,1.6210,0.0000,1.4220,0.2480,2.7160,0,0.0000,0.0000,0.0000,0.0000,0.0000,0
4431,-0.0030,-0.0063,0.0092,-0.0134,0.0243,0.0076,-0.64,0.83,0.01,0,4.123,-0.118,-0.012,0.129,0.013,-0.006,1.003,0.000,0.000,0.000,0.0120,2,0,0.00,0.00,0.00,0.0000,0.0000,0.0000,0.0000,0.0000,0.0000,0.0000,0.00,0.00,0.00,1.6160,0.0000,1.4220,0.2480,2.7120,0,0.0000,0.0000,0.0000,0.0000,0.0000,0
4481,-0.0024,-0.0084,0.0108,-0.0075,0.0099,0.0148,-0.48,0.82,0.01,0,4.123,-0.288,-0.205,-0.124,0.013,-0.004,1.005,0.000,0.000,0.000,0.0060,-7,1,0.00,0.00,0.00,0.0000,0.0000,0.0000,0.0000,0.0000,0.0000,0.0000,0.00,0.00,0.00,1.6160,0.0000,1.4180,0.2470,2.7120,0,0.0000,0.0000,0.0000,0.0000,0.0000,0
4532,-0.0025,-0.0069,0.0092,-0.0061,0.0185,0.0036,-0.51,0.80,0.01,0,4.123,-0.164,0.001,-0.292,0.014,-0.002,1.003,0.000,0.000,0.000,0.0090,-15,3,0.00,0.00,0.00,0.0000,0.0000,0.0000,0.0000,0.0000,0.0000,0.0000,0.00,0.00,0.00,1.6170,0.0000,1.4180,0.2470,2.7040,0,0.0000,0.0000,0.0000,0.0000,0.0000,0
4583,-0.0034,-0.0047,0.0092,-0.0089,0.0298,0.0041,-0.48,0.79,0.01,0,4.123,-0.128,-0.221,-0.007,0.014,-0.002,1.004,0.000,0.000,0.000,0.0080,-4,-3,0.00,0.00,0.00,0.0000,0.0000,0.0000,0.0000,0.0000,0.0000,0.0000,0.00,0.00,0.00,1.6170,0.0000,1.4130,0.2500,2.7040,0,0.0000,0.0000,0.0000,0.0000,0.0000,0
4634,-0.0018,-0.0063,0.0089,0.0015,0.0197,0.0026,-0.44,0.76,0.00,0,4.123,-0.072,-0.013,-0.049,0.016,-0.004,1.004,0.000,0.000,0.000,0.0130,0,-1,0.00,0.00,0.00,0.0000,0.0000,0.0000,0.0000,0.0000,0.0000,0.0000,0.00,0.00,0.00,1.6130,0.0000,1.4130,0.2500,2.7090,0,0.0000,0.0000,0.0000,0.0000,0.0000,0
4686,-0.0023,-0.0089,0.0108,0.0001,0.0048,0.0125,-0.33,0.71,0.00,0,4.123,-0.264,-0.199,-0.277,0.012,-0.002,0.999,0.000,0.000,0.000,0.0080,7,-6,0.00,0.00,0.00,0.0000,0.0000,0.0000,0.0000,0.0000,0.0000,0.0000,0.00,0.00,0.00,1.6130,0.0000,1.4150,0.2500,2.7090,0,0.0000,0.0000,0.0000,0.0000,0.0000,0
4737,-0.0009,-0.0106,0.0100,0.0086,-0.0043,0.0054,-0.36,0.76,-0.00,0,4.128,-0.331,0.084,-0.257,0.011,-0.003,1.003,0.000,0.000,0.000,0.0100,3,-8,0.00,0.00,0.00,0.0000,0.0000,0.0000,0.0000,0.0000,0.0000,0.0000,0.00,0.00,0.00,1.6170,0.0000,1.4150,0.2500,2.7100,0,0.0000,0.0000,0.0000,0.0000,0.0000,0
4787,-0.0014,-0.0088,0.0103,0.0054,0.0062,0.0072,-0.36,0.75,-0.00,0,4.123,0.003,-0.314,-0.456,0.013,-0.003,1.002,0.000,0.000,0.000,0.0120,17,-4,0.00,0.00,0.00,0.0000,0.0000,0.0000,0.0000,0.0000,0.0000,0.0000,0.00,0.00,0.00,1.6170,0.0000,1.4130,0.2490,2.7100,0,0.0000,0.0000,0.0000,0.0000,0.0000,0
4839,-0.0015,-0.0126,0.0113,0.0055,-0.0150,0.0118,-0.29,0.70,-0.00,0,4.123,-0.210,-0.226,-0.114,0.013,-0.000,1.003,0.000,0.000,0.000,0.0080,18,-21,0.00,0.00,0.00,0.0000,0.0000,0.0000,0.0000,0.0000,0.0000,0.0000,0.00,0.00,0.00,1.6170,0.0000,1.4130,0.2490,2.7030,0,0.0000,0.0000,0.0000,0.0000,0.0000,0
4889,0.0021,-0.0104,0.0105,0.0241,-0.0034,0.0061,-0.44,0.60,0.01,0,4.123,-0.265,0.038,-0.085,0.013,-0.004,1.003,0.000,0.000,0.000,0.0100,7,0,0.00,0.00,0.00,0.0000,0.0000,0.0000,0.0000,0.0000,0.0000,0.0000,0.00,0.00,0.00,1.6170,0.0000,1.4160,0.2480,2.7030,0,0.0000,0.0000,0.0000,0.0000,0.0000,0
4940,0.0002,-0.0065,0.0106,0.0113,0.0145,0.0058,-0.40,0.55,0.01,0,4.128,-0.127,-0.078,-0.055,0.013,-0.001,1.003,0.000,0.000,0.000,0.0100,-16,-2,0.00,0.00,0.00,0.0000,0.0000,0.0000,0.0000,0.0000,0.0000,0.0000,0.00,0.00,0.00,1.6180,0.4120,1.4160,0.2480,2.7010,0,0.0000,0.0000,0.0000,0.0000,0.0000,0
4992,0.0007,-0.0011,0.0105,0.0117,0.0400,0.0053,-0.62,0.64,0.00,0,4.123,-0.141,-0.283,-0.207,0.013,-0.002,1.002,0.000,0.000,0.000,0.0120,11,0,0.00,0.00,0.00,0.0000,0.0000,0.0000,0.0000,0.0000,0.0000,0.0000,0.00,0.00,0.00,1.6180,0.4120,1.4180,0.2490,2.7010,0,0.0000,0.0000,0.0000,0.0000,0.0000,0
5043,0.0005,-0.0015,0.0115,0.0084,0.0307,0.0097,-0.63,0.74,0.00,0,4.128,-0.169,0.007,0.356,0.013,-0.001,1.005,0.000,0.000,0.000,0.0070,-16,1,0.00,0.00,0.00,0.0000,0.0000,0.0000,0.0000,0.0000,0.0000,0.0000,0.00,0.00,0.00,1.6150,0.4140,1.4180,0.2490,2.7090,0,0.0000,0.0000,0.0000,0.0000,0.0000,0
5094,-0.0007,0.0051,0.0099,0.0020,0.0574,0.0004,-0.60,0.76,-0.00,0,3.764,1.738,1.040,-0.528,0.017,-0.014,1.004,0.000,0.000,0.000,0.0110,-4,4,0.00,0.00,0.00,0.0000,0.0000,0.0000,0.0000,0.0000,0.0000,0.0000,0.00,0.00,0.00,1.6150,0.4140,1.4140,0.2460,2.7090,0,0.0000,0.0000,0.0000,0.0000,0.0000,0
5146,-0.0017,0.0064,0.0105,-0.0068,0.0553,0.0056,-0.75,0.74,0.00,0,3.838,-0.399,-0.316,0.118,-0.001,-0.012,1.011,0.000,0.000,0.000,0.0130,3,-1,0.00,0.00,0.00,0.0000,0.0000,0.0000,0.0000,0.0000,0.0000,0.0000,0.00,0.00,0.00,1.6200,0.4040,1.4140,0.2460,2.7000,0,0.0000,0.0000,0.0000,0.0000,0.0000,0
5197,-0.0006,0.0154,0.0116,-0.0050,0.0894,0.0114,-0.81,0.76,0.00,0,3.869,-0.833,-0.149,9.167,0.013,-0.043,0.999,0.000,0.000,0.000,0.0090,6,2,0.00,0.00,0.00,0.0000,0.0000,0.0000,0.0000,0.0000,0.0000,0.0000,0.00,0.00,0.00,1.6200,0.4040,1.4120,0.2450,2.7000,0,0.0000,0.0000,0.0000,0.0000,0.0000,0
5247,-0.0016,0.0137,0.0113,-0.0135,0.0645,0.0086,-0.53,0.73,0.13,0,3.890,3.823,4.002,-3.741,-0.028,-0.035,1.016,0.000,0.000,0.000,0.0090,25,0,0.00,0.00,0.00,0.0000,0.0000,0.0000,0.0000,0.0000,0.0000,0.0000,0.00,0.00,0.00,1.6150,0.3990,1.4120,0.2450,2.7120,0,0.0000,0.0000,0.0000,0.0000,0.0000,0
5298,-0.0029,0.0001,0.0108,-0.0221,-0.0153,0.0069,0.18,0.69,-0.21,0,3.885,-5.987,-5.240,-2.135,0.021,-0.009,0.993,0.000,0.000,0.000,0.0080,48,2,0.00,0.00,0.00,0.0000,0.0000,0.0000,0.0000,0.0000,0.0000,0.0000,0.00,0.00,0.00,1.6150,0.3990,1.4170,0.2400,2.7120,0,0.0000,0.0000,0.0000,0.0000,0.0000,0
5349,-0.0097,-0.0179,0.0084,-0.0543,-0.1030,-0.0098,1.03,0.97,-0.70,0,3.885,-3.677,0.248,-21.731,-0.006,-0.011,0.993,0.000,0.000,0.000,0.0080,26,20,0.00,0.00,0.00,0.0000,0.0000,0.0000,0.0000,0.0000,0.0000,0.0000,0.00,0.00,0.00,1.6220,0.3930,1.4170,0.2400,2.7070,0,0.0000,0.0000,0.0000,0.0000,0.0000,0
5401,-0.0170,-0.0334,0.0063,-0.0856,-0.1594,-0.0183,1.20,1.10,-1.50,0,3.885,-0.823,-6.052,-15.001,0.009,-0.006,1.005,0.000,0.000,0.000,0.0070,0,-2,0.00,0.00,0.00,0.0000,0.0000,0.0000,0.0000,0.0000,0.0000,0.0000,0.00,0.00,0.00,1.6220,0.3930,1.4300,0.2440,2.7070,0,0.0000,0.0000,0.0000,0.0000,0.0000,0
5453,-0.0174,-0.0408,0.0068,-0.0754,-0.1656,-0.0063,0.99,1.16,-2.34,0,3.885,-2.676,-7.544,-24.771,0.004,0.009,1.047,0.000,0.000,0.000,0.0110,16,-6,0.00,0.00,0.00,0.0000,0.0000,0.0000,0.0000,0.0000,0.0000,0.0000,0.00,0.00,0.00,1.6410,0.3890,1.4300,0.2440,2.7050,0,0.0000,0.0000,0.0000,0.0000,0.0000,0
5503,-0.0175,-0.0447,0.0092,-0.0655,-0.1520,0.0116,0.85,1.04,-3.53,0,3.880,-2.168,1.117,-14.894,0.009,-0.008,1.055,0.000,0.000,0.000,0.0090,3,-1,0.00,0.00,0.00,0.0000,0.0000,0.0000,0.0000,0.0000,0.0000,0.0000,0.00,0.00,0.00,1.6410,0.3890,1.4630,0.2420,2.7050,0,0.0000,0.0000,0.0000,0.0000,0.0000,0
5554,-0.0216,-0.0537,0.0095,-0.0769,-0.1643,0.0131,0.76,1.10,-4.45,0,3.885,-0.128,-4.115,-10.194,0.022,-0.018,0.949,0.000,0.000,0.000,0.0070,16,13,0.00,0.00,0.00,0.0000,0.0000,0.0000,0.0000,0.0000,0.0000,0.0000,0.00,0.00,0.00,1.6620,0.3870,1.4630,0.2420,2.7050,0,0.0000,0.0000,0.0000,0.0000,0.0000,0
5606,-0.0248,-0.0577,0.0094,-0.0838,-0.1484,0.0065,0.41,1.11,-5.00,0,3.869,-1.761,0.924,-14.519,0.010,0.004,1.067,0.000,0.000,0.000,0.0100,6,0,0.00,0.00,0.00,0.0000,0.0000,0.0000,0.0000,0.0000,0.0000,0.0000,0.00,0.00,0.00,1.6620,0.3870,1.4900,0.3450,2.7050,0,0.0000,0.0000,0.0000,0.0000,0.0000,0
5657,-0.0353,-0.0600,0.0099,-0.1254,-0.1265,0.0178,0.03,1.31,-5.67,0,3.874,-36.558,-5.688,-9.421,0.013,0.001,1.001,0.000,0.000,0.000,0.0100,11,16,0.00,0.00,0.00,0.0000,0.0000,0.0000,0.0000,0.0000,0.0000,0.0000,0.00,0.00,0.00,1.6870,0.3920,1.4900,0.3450,2.7030,0,0.0000,0.0000,0.0000,0.0000,0.0000,0
5707,-0.0423,-0.0615,0.0109,-0.1403,-0.1017,0.0252,-1.14,1.37,-6.26,0,3.869,-22.310,15.562,-3.198,0.018,-0.020,0.945,0.000,0.000,0.000,0.0120,-9,5,0.00,0.00,0.00,0.0000,0.0000,0.0000,0.0000,0.0000,0.0000,0.0000,0.00,0.00,0.00,1.6870,0.3920,1.5030,0.0000,2.7030,0,0.0000,0.0000,0.0000,0.0000,0.0000,0
5758,-0.0442,-0.0556,0.0127,-0.1250,-0.0360,0.0244,-2.54,1.09,-6.50,0,3.864,-5.513,-1.042,-6.455,0.012,-0.031,0.978,0.000,0.000,0.000,0.0130,15,-27,0.00,0.00,0.00,0.0000,0.0000,0.0000,0.0000,0.0000,0.0000,0.0000,0.00,0.00,0.00,1.6980,0.4010,1.5030,0.0000,2.7040,0,0.0000,0.0000,0.0000,0.0000,0.0000,0
5809,-0.0355,-0.0444,0.0142,-0.0562,0.0433,0.0247,-3.45,0.35,-6.75,0,3.859,8.563,4.931,1.872,0.018,-0.023,0.997,0.000,0.000,0.000,0.0110,-57,-1,0.00,0.00,0.00,0.0000,0.0000,0.0000,0.0000,0.0000,0.0000,0.0000,0.00,0.00,0.00,1.6980,0.4010,1.3940,1.0700,2.7040,0,0.0000,0.0000,0.0000,0.0000,0.0000,0
5860,-0.0273,-0.0140,0.0090,-0.0047,0.2069,-0.0112,-4.18,-0.12,-6.69,0,3.848,36.885,16.592,9.640,-0.003,-0.022,1.007,0.000,0.000,0.000,0.0090,-43,-2,0.00,0.00,0.00,0.0000,0.0000,0.0000,0.0000,0.0000,0.0000,0.0000,0.00,0.00,0.00,1.6890,0.4200,1.3940,1.0700,2.7040,0,0.0000,0.0000,0.0000,0.0000,0.0000,0
5911,-0.0218,0.0290,-0.0017,0.0273,0.3940,-0.0649,-4.22,-1.38,-6.31,0,3.816,75.584,3.206,18.577,0.013,-0.019,1.052,0.000,0.000,0.000,0.0110,-76,-10,0.00,0.00,0.00,0.0000,0.0000,0.0000,0.0000,0.0000,0.0000,0.0000,0.00,0.00,0.00,1.6890,0.4200,1.4900,0.0000,2.7040,0,0.0000,0.0000,0.0000,0.0000,0.0000,0
5962,-0.0110,0.0870,-0.0167,0.0887,0.6085,-0.1216,-2.78,-1.79,-5.59,0,3.832,93.843,-10.810,19.786,-0.007,0.007,1.088,0.000,0.000,0.000,0.0110,-1,9,0.00,0.00,0.00,0.0000,0.0000,0.0000,0.0000,0.0000,0.0000,0.0000,0.00,0.00,0.00,1.6610,0.4290,1.4900,0.0000,2.7090,0,0.0000,0.0000,0.0000,0.0000,0.0000,0
6013,-0.0069,0.1051,0.0012,0.0944,0.5460,0.0432,1.77,-0.44,-4.60,0,3.848,85.140,13.211,18.122,0.003,-0.003,1.040,0.000,0.000,0.000,0.0000,-5,-2,0.00,0.00,0.00,0.0000,0.0000,0.0000,0.0000,0.0000,0.0000,0.0000,0.00,0.00,0.00,1.6610,0.4290,1.5120,0.1660,2.7090,0,0.0000,0.0000,0.0000,0.0000,0.0000,0
6064,-0.0061,0.0992,0.0128,0.0732,0.3488,0.1326,7.37,-0.12,-3.47,0,3.853,67.531,8.908,18.265,0.011,-0.003,0.949,0.000,0.000,0.000,0.0000,19,-5,0.00,0.00,0.00,0.0000,0.0000,0.0000,0.0000,0.0000,0.0000,0.0000,0.00,0.00,0.00,1.6590,0.4340,1.5120,0.1660,2.7420,0,0.0000,0.0000,0.0000,0.0000,0.0000,0
6116,-0.0106,0.0806,0.0121,0.0378,0.1418,0.0892,12.21,-0.69,-2.27,0,3.816,-104.262,-22.032,13.770,0.005,0.010,0.925,0.000,0.000,0.000,0.0000,55,-5,0.00,0.00,0.00,0.0000,0.0000,0.0000,0.0000,0.0000,0.0000,0.0000,0.00,0.00,0.00,1.6590,0.4340,1.5110,0.0960,2.7420,0,0.0000,0.0000,0.0000,0.0000,0.0000,0
6167,-0.0083,0.0354,-0.0004,0.0415,-0.1909,-0.0507,9.31,0.37,-1.54,0,3.801,-172.997,4.130,12.767,0.003,0.009,1.046,0.000,0.000,0.000,0.0000,140,-5,0.00,0.00,0.00,0.0000,0.0000,0.0000,0.0000,0.0000,0.0000,0.0000,0.00,0.00,0.00,1.6480,0.4360,1.5110,0.0960,2.7190,0,0.0000,0.0000,0.0000,0.0000,0.0000,0
6219,0.0030,0.0167,-0.0040,0.0838,-0.2887,-0.0556,1.48,0.08,-1.10,0,3.795,-43.596,27.627,8.372,-0.005,-0.001,1.129,0.000,0.000,0.000,0.0000,53,0,0.00,0.00,0.00,0.0000,0.0000,0.0000,0.0000,0.0000,0.0000,0.0000,0.00,0.00,0.00,1.6480,0.4360,1.4860,0.0000,2.7190,0,0.0000,0.0000,0.0000,0.0000,0.0000,0
6269,0.0032,-0.0133,-0.0066,0.0672,-0.3673,-0.0001,-0.96,-1.07,-0.46,0,3.801,-44.912,-0.409,11.710,-0.014,-0.009,1.093,0.000,0.000,0.000,0.0000,76,0,0.00,0.00,0.00,0.0000,0.0000,0.0000,0.0000,0.0000,0.0000,0.0000,0.00,0.00,0.00,1.6260,0.4490,1.4860,0.0000,2.6940,0,0.0000,0.0000,0.0000,0.0000,0.0000,0
6320,0.0036,-0.0601,-0.0152,0.0635,-0.5099,-0.0072,-2.19,-1.08,0.22,0,3.790,-88.611,-15.187,13.237,-0.001,-0.005,1.099,0.000,0.000,0.000,0.0020,26,2,0.00,0.00,0.00,0.0000,0.0000,0.0000,0.0000,0.0000,0.0000,0.0000,0.00,0.00,0.00,1.6260,0.4490,1.4560,1.0950,2.6940,0,0.0000,0.0000,0.0000,0.0000,0.0000,0
6371,-0.0004,-0.0865,-0.0058,0.0279,-0.4766,0.0853,-6.47,-0.02,1.02,0,3.806,-27.912,-7.702,7.171,0.001,-0.013,1.052,0.000,0.000,0.000,0.0170,19,10,0.00,0.00,0.00,0.0000,0.0000,0.0000,0.0000,0.0000,0.0000,0.0000,0.00,0.00,0.00,1.6240,0.4610,1.4560,1.0950,2.7240,0,0.0000,0.0000,0.0000,0.0000,0.0000,0
6423,-0.0050,-0.1047,0.0098,-0.0102,-0.3743,0.1759,-8.81,0.37,1.37,0,3.816,7.672,4.829,10.037,-0.005,-0.014,1.021,0.000,0.000,0.000,0.0290,1,4,0.00,0.00,0.00,0.0000,0.0000,0.0000,0.0000,0.0000,0.0000,0.0000,0.00,0.00,0.00,1.6240,0.4610,0.2580,1.6210,2.7240,0,0.0000,0.0000,0.0000,0.0000,0.0000,0
6473,-0.0079,-0.1115,0.0261,-0.0283,-0.2325,0.2311,-9.08,0.23,1.75,0,3.822,20.208,18.319,8.719,-0.009,-0.019,1.002,0.000,0.000,0.000,0.0420,-16,10,0.00,0.00,0.00,0.0000,0.0000,0.0000,0.0000,0.0000,0.0000,0.0000,0.00,0.00,0.00,1.6250,0.4620,0.2580,1.6210,2.7010,0,0.0000,0.0000,0.0000,0.0000,0.0000,0
6524,-0.0153,-0.1083,0.0384,-0.0670,-0.1029,0.2547,-8.64,-0.50,1.96,0,3.816,40.995,36.343,9.385,-0.005,-0.017,0.983,0.000,0.000,0.000,0.0480,-20,6,0.00,0.00,0.00,0.0000,0.0000,0.0000,0.0000,0.0000,0.0000,0.0000,0.00,0.00,0.00,1.6250,0.4620,0.0000,1.6360,2.7010,0,0.0000,0.0000,0.0000,0.0000,0.0000,0
6575,-0.0184,-0.0956,0.0488,-0.0618,0.0547,0.2389,-7.18,-2.32,2.15,0,3.811,65.818,-6.296,6.427,0.005,-0.025,0.977,0.000,0.000,0.000,0.0570,-16,-1,0.00,0.00,0.00,0.0000,0.0000,0.0000,0.0000,0.0000,0.0000,0.0000,0.00,0.00,0.00,1.6090,0.4670,0.0000,1.6360,2.6630,0,0.0000,0.0000,0.0000,0.0000,0.0000,0
6627,-0.0198,-0.0812,0.0576,-0.0375,0.1664,0.2113,-4.46,-2.47,2.48,0,3.795,47.288,-17.802,2.485,-0.009,-0.023,0.997,0.000,0.000,0.000,0.0670,-31,-4,0.00,0.00,0.00,0.0000,0.0000,0.0000,0.0000,0.0000,0.0000,0.0000,0.00,0.00,0.00,1.6090,0.4670,1.4130,0.0000,2.6630,0,0.0000,0.0000,0.0000,0.0000,0.0000,0
6677,-0.0188,-0.0588,0.0651,-0.0047,0.2701,0.1899,-2.30,-1.78,2.69,0,3.801,56.295,13.124,-6.478,-0.008,-0.024,0.993,0.000,0.000,0.000,0.0740,-15,-1,0.00,0.00,0.00,0.0000,0.0000,0.0000,0.0000,0.0000,0.0000,0.0000,0.00,0.00,0.00,1.6010,0.4710,1.4130,0.0000,2.6380,0,0.0000,0.0000,0.0000,0.0000,0.0000,0
6728,-0.0168,-0.0417,0.0736,0.0196,0.3056,0.1820,0.21,-2.26,2.42,0,3.795,55.158,-9.101,-5.332,-0.005,-0.025,1.010,0.000,0.000,0.000,0.0790,-29,-8,0.00,0.00,0.00,0.0000,0.0000,0.0000,0.0000,0.0000,0.0000,0.0000,0.00,0.00,0.00,1.6010,0.4710,1.3990,0.0000,2.6380,0,0.0000,0.0000,0.0000,0.0000,0.0000,0
6780,-0.0134,-0.0193,0.0819,0.0508,0.3218,0.1696,2.92,-2.00,2.14,0,3.795,34.601,-37.836,-5.783,-0.003,-0.023,1.011,0.000,0.000,0.000,0.0830,-23,-12,0.00,0.00,0.00,0.0000,0.0000,0.0000,0.0000,0.0000,0.0000,0.0000,0.00,0.00,0.00,1.5930,0.4750,1.3990,0.0000,2.6330,0,0.0000,0.0000,0.0000,0.0000,0.0000,0
6830,-0.0094,-0.0103,0.0869,0.0730,0.2843,0.1588,4.86,-0.49,1.73,0,3.790,12.571,-11.586,-8.843,-0.003,-0.024,1.002,0.000,0.000,0.000,0.0960,-6,-4,0.00,0.00,0.00,0.0000,0.0000,0.0000,0.0000,0.0000,0.0000,0.0000,0.00,0.00,0.00,1.5930,0.4750,1.4020,1.1530,2.6330,0,0.0000,0.0000,0.0000,0.0000,0.0000,0
6881,-0.0053,-0.0008,0.0959,0.0796,0.2232,0.1669,5.66,0.11,1.23,0,3.795,0.065,-1.849,-7.824,-0.011,-0.024,1.009,0.000,0.000,0.000,0.1010,-16,-5,0.00,0.00,0.00,0.0000,0.0000,0.0000,0.0000,0.0000,0.3000,0.2854,9.53,3.10,-37.02,1.5920,0.4790,1.4020,1.1530,2.6350,0,0.0000,0.0000,0.0000,0.0000,0.0000,0
6933,-0.0008,0.0080,0.1029,0.0823,0.1696,0.1619,5.72,0.38,0.81,0,3.790,-11.034,-12.288,-5.676,-0.003,-0.023,1.001,0.000,0.000,0.000,0.0980,-1,-2,5.66,-0.11,1.23,-0.0053,-0.0008,0.1010,0.0000,0.0000,0.3000,0.2846,7.85,3.52,-24.35,1.5920,0.4790,1.3990,1.0710,2.6350,0,0.0000,0.0000,0.0000,0.0000,0.0000,0
6983,0.0025,0.0116,0.1057,0.0760,0.1060,0.1328,5.16,0.88,0.51,0,3.785,-11.769,-6.399,-2.493,-0.005,-0.013,1.004,0.000,0.000,0.000,0.1110,-3,-5,4.87,0.40,0.88,-0.0017,0.0040,0.0997,0.0000,0.0000,0.3000,0.2873,5.30,3.43,-15.44,1.5910,0.4850,1.3990,1.0710,2.6240,0,0.0000,0.0000,0.0000,0.0000,0.0000,0
7035,0.0050,0.0138,0.1119,0.0636,0.0526,0.1331,4.63,1.21,0.36,0,3.779,-21.222,-7.516,-2.225,-0.002,-0.010,1.023,0.000,0.000,0.000,0.1190,2,-4,1.52,-1.49,0.69,0.0037,0.0066,0.1050,0.0000,0.0000,0.3000,0.2861,3.17,3.07,-10.66,1.5910,0.4850,1.4020,1.2040,2.6240,0,0.0000,0.0000,0.0000,0.0000,0.0000,0
7085,0.0085,0.0138,0.1188,0.0558,0.0047,0.1435,3.64,1.54,0.22,0,3.790,-22.845,8.591,-0.529,-0.007,-0.010,1.021,0.000,0.000,0.000,0.1230,11,-4,1.89,-1.09,0.60,0.0085,0.0040,0.1180,0.0000,0.0000,0.3000,0.2837,1.11,2.99,-6.59,1.5860,0.4930,1.4020,1.2040,2.5930,0,0.0000,0.0000,0.0000,0.0000,0.0000,0
7136,0.0098,0.0124,0.1249,0.0379,-0.0313,0.1499,2.56,1.22,0.19,0,3.785,-21.986,13.539,0.395,0.004,-0.009,1.023,0.000,0.000,0.000,0.1270,2,0,5.44,-1.48,0.72,0.0137,-0.0077,0.1230,0.0000,0.0000,0.3000,0.2818,-0.56,2.31,-5.78,1.5860,0.4930,1.4010,1.2750,2.5930,0,0.0000,0.0000,0.0000,0.0000,0.0000,0
7187,0.0113,0.0092,0.1303,0.0266,-0.0585,0.1483,1.46,0.60,0.26,0,3.785,-24.842,-0.314,1.803,-0.004,-0.011,1.022,0.000,0.000,0.000,0.1340,3,-2,1.50,-0.58,0.75,0.0160,-0.0139,0.1465,0.0000,0.0000,0.3000,0.2810,-1.97,1.92,-7.70,1.5840,0.4990,1.4010,1.2750,2.5720,0,0.0000,0.0000,0.0000,0.0000,0.0000,0
7239,0.0116,0.0067,0.1364,0.0180,-0.0689,0.1504,0.24,0.60,0.36,0,3.785,-16.202,-3.048,4.709,0.000,-0.005,1.018,0.000,0.000,0.000,0.1440,4,-1,-0.86,-0.43,0.83,0.0184,-0.0175,0.1509,0.0000,0.0000,0.3000,0.2796,-2.60,1.57,-10.94,1.5840,0.4990,1.4050,1.4170,2.5720,0,0.0000,0.0000,0.0000,0.0000,0.0000,0
7289,0.0124,0.0022,0.1442,0.0131,-0.0758,0.1608,-0.46,0.66,0.55,0,3.785,-6.223,7.459,4.632,-0.004,-0.007,1.020,0.000,0.000,0.000,0.1520,4,0,-1.76,0.04,1.04,0.0197,-0.0223,0.1570,0.0000,0.0000,0.3000,0.2771,-3.23,1.42,-16.37,1.5810,0.5040,1.4050,1.4170,2.5620,0,0.0000,0.0000,0.0000,0.0000,0.0000,0
7340,0.0134,-0.0024,0.1523,0.0091,-0.0764,0.1708,-0.78,0.32,0.78,0,3.785,-9.108,4.696,4.940,-0.001,-0.006,1.020,0.000,0.000,0.000,0.1560,2,1,-1.92,-0.04,1.18,0.0198,-0.0278,0.1644,0.0000,0.0000,0.3000,0.2744,-3.60,1.32,-23.33,1.5810,0.5040,1.4050,1.5610,2.5620,0,0.0000,0.0000,0.0000,0.0000,0.0000,0
7391,0.0132,-0.0057,0.1590,0.0038,-0.0688,0.1692,-1.17,0.04,1.02,0,3.785,-4.821,1.217,5.501,-0.002,-0.005,1.014,0.000,0.000,0.000,0.1700,11,0,-2.62,0.07,1.31,0.0180,-0.0301,0.1703,0.0000,0.0000,0.3000,0.2734,-3.50,1.07,-30.59,1.5750,0.5050,1.4050,1.5610,2.5410,0,0.0000,0.0000,0.0000,0.0000,0.0000,0
7442,0.0136,-0.0102,0.1686,0.0041,-0.0647,0.1823,-1.39,-0.01,1.28,0,3.785,1.104,3.000,5.737,0.001,-0.009,1.008,0.000,0.000,0.000,0.1810,0,-1,-1.31,-0.02,1.44,0.0186,-0.0482,0.1817,0.0000,0.0000,0.3000,0.2701,-3.66,1.12,-38.42,1.5750,0.5050,1.4080,1.6340,2.5410,0,0.0000,0.0000,0.0000,0.0000,0.0000,0
7493,0.0147,-0.0120,0.1792,0.0073,-0.0484,0.1947,-1.36,-0.15,1.53,0,3.790,0.251,3.500,3.782,0.001,-0.010,0.997,0.000,0.000,0.000,0.1900,0,0,-1.95,-0.35,1.89,0.0205,-0.0484,0.1934,0.0000,0.0000,0.3000,0.2668,-3.08,1.36,-45.85,1.5740,0.5080,1.4080,1.6340,2.5260,0,0.0000,0.0000,0.0000,0.0000,0.0000,0
7545,0.0159,-0.0174,0.1894,0.0114,-0.0492,0.1976,-1.28,-0.33,1.71,0,3.790,1.131,0.434,2.173,0.002,-0.013,0.993,0.000,0.000,0.000,0.1970,0,0,-1.94,-0.53,2.08,0.0215,-0.0530,0.2024,0.0000,0.0000,0.3000,0.2646,-3.51,1.65,-51.24,1.5740,0.5080,1.4090,1.6580,2.5260,0,0.0000,0.0000,0.0000,0.0000,0.0000,0
7595,0.0177,-0.0191,0.1983,0.0183,-0.0366,0.1903,-1.22,-0.36,1.82,0,3.790,2.461,-2.500,2.328,0.000,-0.008,0.990,0.000,0.000,0.000,0.2070,-1,-1,-1.89,-0.56,2.19,0.0226,-0.0568,0.2101,0.0000,0.0000,0.3000,0.2637,-3.06,2.11,-54.53,1.5750,0.5100,1.4090,1.6580,2.5050,0,0.0000,0.0000,0.0000,0.0000,0.0000,0
7647,0.0182,-0.0185,0.2074,0.0193,-0.0184,0.1841,-1.11,-0.23,1.92,0,3.790,7.065,-5.319,2.922,-0.004,-0.012,0.988,0.000,0.000,0.000,0.2180,-4,1,-2.48,-0.34,2.30,0.0217,-0.0457,0.2184,0.0000,0.0000,0.3000,0.2626,-2.17,2.20,-57.64,1.5750,0.5100,1.4070,1.6630,2.5050,0,0.0000,0.0000,0.0000,0.0000,0.0000,0
7697,0.0175,-0.0170,0.2172,0.0151,-0.0013,0.1817,-0.83,0.03,2.05,0,3.790,6.455,-2.482,1.566,0.000,-0.012,0.985,0.000,0.000,0.000,0.2250,-2,1,-2.31,0.01,2.40,0.0209,-0.0409,0.2256,0.0000,0.0000,0.3000,0.2611,-1.27,1.96,-61.49,1.5740,0.5200,1.4070,1.6630,2.4850,0,0.0000,0.0000,0.0000,0.0000,0.0000,0
7748,0.0162,-0.0187,0.2257,0.0081,-0.0000,0.1720,-0.41,0.18,2.12,0,3.790,4.349,1.539,0.841,0.001,-0.009,0.982,0.000,0.000,0.000,0.2220,0,0,-2.04,0.22,2.42,0.0196,-0.0369,0.2333,0.0000,0.0000,0.3000,0.2605,-1.33,1.54,-63.63,1.5740,0.5200,1.4110,1.6540,2.4850,0,0.0000,0.0000,0.0000,0.0000,0.0000,0
7799,0.0177,-0.0149,0.2290,0.0105,0.0165,0.1363,-0.37,0.07,2.15,0,3.785,3.730,-0.523,-1.166,-0.002,-0.012,0.984,0.000,0.000,0.000,0.2460,0,-3,-1.82,0.14,2.46,0.0191,-0.0327,0.2373,0.0000,0.0000,0.3000,0.2637,-0.28,1.74,-64.43,1.5760,0.5270,1.4110,1.6540,2.4730,0,0.0000,0.0000,0.0000,0.0000,0.0000,0
7850,0.0198,-0.0132,0.2399,0.0146,0.0221,0.1509,-0.19,-0.00,2.09,0,3.785,8.116,-0.025,-3.551,0.004,-0.010,0.988,0.000,0.000,0.000,0.2380,-3,0,-1.27,-0.16,2.61,0.0268,-0.0361,0.2482,0.0000,0.0000,0.3000,0.2601,0.11,2.11,-62.57,1.5760,0.5270,1.4080,1.6570,2.4730,0,0.0000,0.0000,0.0000,0.0000,0.0000,0
7901,0.0214,-0.0121,0.2435,0.0172,0.0235,0.1250,0.21,-0.04,1.92,0,3.779,4.780,-0.954,-5.076,0.003,-0.015,0.987,0.000,0.000,0.000,0.2480,-8,-3,-0.98,-0.10,2.41,0.0274,-0.0308,0.2520,0.0000,0.0000,0.3000,0.2622,0.25,2.33,-57.68,1.5680,0.5290,1.4080,1.6570,2.4640,0,0.0000,0.0000,0.0000,0.0000,0.0000,0
7952,0.0254,-0.0096,0.2494,0.0265,0.0261,0.1170,0.39,-0.05,1.67,0,3.779,0.549,-3.364,-6.847,0.002,-0.010,0.999,0.000,0.000,0.000,0.2520,-1,0,-1.15,-0.19,2.30,0.0328,-0.0158,0.2563,0.0000,0.0000,0.3000,0.2620,0.55,3.05,-50.07,1.5680,0.5290,1.4160,1.6620,2.4640,0,0.0000,0.0000,0.0000,0.0000,0.0000,0
8003,0.0274,-0.0089,0.2542,0.0286,0.0216,0.1091,0.45,0.09,1.32,0,3.779,1.402,-2.951,-7.814,-0.001,-0.011,0.996,0.000,0.000,0.000,0.2570,0,-1,-1.02,0.07,1.90,0.0333,-0.0122,0.2614,0.0000,0.0000,0.3000,0.2619,0.39,3.29,-39.68,1.5770,0.5270,1.4160,1.6620,2.4480,0,0.0000,0.0000,0.0000,0.0000,0.0000,0
8054,0.0307,-0.0081,0.2590,0.0329,0.0171,0.1042,0.55,0.29,0.95,0,3.774,3.261,-3.002,-6.229,0.002,-0.013,1.004,0.000,0.000,0.000,0.2620,-4,0,-0.79,0.22,1.48,0.0357,-0.0111,0.2661,0.0000,0.0000,0.3000,0.2616,0.23,3.73,-28.51,1.5770,0.5270,1.4270,1.6630,2.4480,0,0.0000,0.0000,0.0000,0.0000,0.0000,0
8106,0.0331,-0.0051,0.2633,0.0325,0.0183,0.0990,0.63,0.45,0.65,0,3.779,-0.548,-3.344,-4.574,0.004,-0.008,1.006,0.000,0.000,0.000,0.2690,0,-2,-0.76,0.43,1.17,0.0358,-0.0013,0.2704,0.0000,0.0000,0.3000,0.2613,0.50,3.89,-19.55,1.5740,0.5330,1.4270,1.6630,2.4280,0,0.0000,0.0000,0.0000,0.0000,0.0000,0
8158,0.0369,-0.0077,0.2690,0.0345,0.0046,0.1032,0.60,0.60,0.45,0,3.779,1.335,-2.835,-3.937,-0.005,-0.010,0.996,0.000,0.000,0.000,0.2760,6,-3,-0.64,0.53,0.92,0.0408,-0.0006,0.2761,0.0000,0.0000,0.3000,0.2598,-0.33,4.27,-13.38,1.5740,0.5330,1.4360,1.6710,2.4280,0,0.0000,0.0000,0.0000,0.0000,0.0000,0
8208,0.0382,-0.0052,0.2750,0.0288,0.0053,0.1084,0.60,0.70,0.27,0,3.779,-2.616,-7.668,-1.460,0.003,-0.010,0.995,0.000,0.000,0.000,0.2840,2,-1,-0.10,0.55,0.58,0.0486,-0.0157,0.2821,0.0000,0.0000,0.3000,0.2581,-0.12,4.13,-8.18,1.5750,0.5400,1.4360,1.6710,2.4190,0,0.0000,0.0000,0.0000,0.0000,0.0000,0
8259,0.0415,-0.0099,0.2824,0.0272,-0.0113,0.1180,0.48,0.94,0.15,0,3.779,-7.206,2.729,-2.316,0.004,-0.009,0.998,0.000,0.000,0.000,0.2880,0,0,-0.12,0.94,0.46,0.0515,-0.0209,0.2880,0.0000,0.0000,0.3000,0.2557,-1.26,4.33,-4.61,1.5750,0.5400,1.4460,1.6790,2.4190,0,0.0000,0.0000,0.0000,0.0000,0.0000,0
8310,0.0443,-0.0107,0.2881,0.0236,-0.0157,0.1160,0.12,0.86,0.03,0,3.785,-1.151,2.864,-3.049,0.001,-0.007,0.989,0.000,0.000,0.000,0.2900,3,-2,-0.48,0.80,0.34,0.0543,-0.0221,0.2935,0.0000,0.0000,0.3000,0.2548,-1.55,4.38,-1.00,1.5870,0.5440,1.4460,1.6790,2.4130,0,0.0000,0.0000,0.0000,0.0000,0.0000,0
8362,0.0479,-0.0156,0.2927,0.0224,-0.0270,0.1067,0.07,0.67,-0.08,0,3.779,0.141,-2.169,-1.118,0.005,-0.013,0.988,0.000,0.000,0.000,0.2950,1,-1,-0.38,0.64,0.10,0.0578,-0.0320,0.2975,0.0000,0.0000,0.3000,0.2549,-2.45,4.57,2.35,1.5870,0.5440,1.4540,1.6780,2.4130,0,0.0000,0.0000,0.0000,0.0000,0.0000,0
8413,0.0500,-0.0179,0.2967,0.0193,-0.0297,0.0945,0.11,0.64,-0.13,0,3.779,-2.088,2.254,-1.555,-0.001,-0.013,0.993,0.000,0.000,0.000,0.3040,0,0,-0.38,0.75,0.04,0.0606,-0.0349,0.3015,0.0000,0.0000,0.3000,0.2555,-2.74,4.57,3.78,1.5810,0.5470,1.4540,1.6780,2.4000,0,0.0000,0.0000,0.0000,0.0000,0.0000,0
8463,0.0512,-0.0207,0.3028,0.0145,-0.0333,0.0967,-0.09,0.59,-0.21,0,3.779,-2.825,1.356,-2.764,-0.000,-0.013,0.991,0.000,0.000,0.000,0.3050,5,-1,-0.49,0.64,-0.04,0.0628,-0.0381,0.3067,0.0000,0.0000,0.3000,0.2541,-3.13,4.44,6.33,1.5810,0.5470,1.4670,1.6830,2.4000,0,0.0000,0.0000,0.0000,0.0000,0.0000,0
8515,0.0536,-0.0261,0.3064,0.0136,-0.0413,0.0873,-0.21,0.45,-0.31,0,3.779,1.120,3.763,-1.997,0.005,-0.014,0.993,0.000,0.000,0.000,0.3100,1,0,-0.45,0.59,-0.28,0.0636,-0.0520,0.3102,0.0000,0.0000,0.3000,0.2544,-3.91,4.57,9.45,1.5790,0.5480,1.4670,1.6830,2.3970,0,0.0000,0.0000,0.0000,0.0000,0.0000,0
8565,0.0543,-0.0289,0.3108,0.0101,-0.0413,0.0840,-0.17,0.31,-0.42,0,3.774,-2.786,2.707,-0.655,0.005,-0.016,0.989,0.000,0.000,0.000,0.3140,3,0,-0.43,0.41,-0.37,0.0640,-0.0557,0.3143,0.0000,0.0000,0.3000,0.2540,-4.12,4.46,12.75,1.5790,0.5480,1.4700,1.6870,2.3970,0,0.0000,0.0000,0.0000,0.0000,0.0000,0
8617,0.0548,-0.0311,0.3145,0.0077,-0.0402,0.0780,-0.19,0.20,-0.47,0,3.779,-4.020,1.264,1.876,0.003,-0.014,0.985,0.000,0.000,0.000,0.3200,2,-1,-0.52,0.29,-0.42,0.0643,-0.0641,0.3179,0.0000,0.0000,0.3000,0.2539,-4.23,4.39,14.08,1.5820,0.5520,1.4700,1.6870,2.3880,0,0.0000,0.0000,0.0000,0.0000,0.0000,0
8667,0.0567,-0.0357,0.3193,0.0091,-0.0439,0.0786,-0.28,0.20,-0.43,0,3.779,-3.366,2.933,3.388,0.002,-0.017,0.988,0.000,0.000,0.000,0.3210,1,0,-0.73,0.20,-0.33,0.0670,-0.0703,0.3219,0.0000,0.0000,0.3000,0.2529,-4.76,4.61,13.00,1.5820,0.5520,1.4760,1.6830,2.3880,0,0.0000,0.0000,0.0000,0.0000,0.0000,0
8718,0.0572,-0.0381,0.3222,0.0079,-0.0419,0.0684,-0.44,0.07,-0.31,0,3.779,0.219,2.379,3.836,-0.000,-0.013,0.982,0.000,0.000,0.000,0.3220,0,0,-0.93,0.07,-0.15,0.0673,-0.0741,0.3249,0.0000,0.0000,0.3000,0.2535,-4.83,4.58,9.24,1.5820,0.5530,1.4760,1.6830,2.3770,0,0.0000,0.0000,0.0000,0.0000,0.0000,0
8770,0.0576,-0.0402,0.3243,0.0073,-0.0386,0.0555,-0.33,0.00,-0.11,0,3.774,-3.529,0.327,3.817,0.001,-0.011,0.991,0.000,0.000,0.000,0.3260,1,0,-0.92,-0.06,0.05,0.0683,-0.0799,0.3267,0.0000,0.0000,0.3000,0.2545,-4.80,4.56,3.41,1.5820,0.5530,1.4750,1.6800,2.3770,0,0.0000,0.0000,0.0000,0.0000,0.0000,0
8821,0.0601,-0.0452,0.3265,0.0114,-0.0418,0.0480,-0.43,-0.06,0.07,0,3.769,-2.698,0.206,3.109,0.003,-0.014,0.992,0.000,0.000,0.000,0.3260,0,-1,-1.24,-0.04,0.30,0.0665,-0.0748,0.3291,0.0000,0.0000,0.3000,0.2549,-5.31,4.93,-2.17,1.5820,0.5580,1.4750,1.6800,2.3770,0,0.0000,0.0000,0.0000,0.0000,0.0000,0
8872,0.0633,-0.0503,0.3278,0.0169,-0.0438,0.0382,-0.56,0.02,0.24,0,3.769,-2.067,0.213,2.347,0.000,-0.011,0.995,0.000,0.000,0.000,0.3270,0,0,-1.41,-0.08,0.47,0.0691,-0.0756,0.3303,0.0000,0.0000,0.3000,0.2557,-5.76,5.41,-7.07,1.5820,0.5580,1.4760,1.6700,2.3770,0,0.0000,0.0000,0.0000,0.0000,0.0000,0
8923,0.0641,-0.0524,0.3285,0.0165,-0.0390,0.0295,-0.64,0.07,0.35,0,3.769,1.153,1.795,0.850,0.000,-0.012,1.000,0.000,0.000,0.000,0.3330,0,0,-1.52,-0.09,0.59,0.0701,-0.0781,0.3311,0.0000,0.0000,0.3000,0.2565,-5.66,5.44,-10.64,1.5820,0.5570,1.4760,1.6700,2.3730,0,0.0000,0.0000,0.0000,0.0000,0.0000,0
8974,0.0650,-0.0548,0.3314,0.0162,-0.0343,0.0359,-0.67,-0.04,0.43,0,3.769,-0.643,-1.830,0.966,0.003,-0.015,0.996,0.000,0.000,0.000,0.3340,0,0,-1.46,-0.18,0.63,0.0712,-0.0803,0.3334,0.0000,0.0000,0.3000,0.2553,-5.64,5.51,-12.80,1.5820,0.5570,1.4780,1.6690,2.3730,0,0.0000,0.0000,0.0000,0.0000,0.0000,0
9025,0.0675,-0.0564,0.3335,0.0196,-0.0288,0.0369,-0.65,0.06,0.48,0,3.769,1.366,-6.548,2.878,0.003,-0.014,0.998,0.000,0.000,0.000,0.3360,2,-1,-1.49,-0.09,0.68,0.0724,-0.0822,0.3353,0.0000,0.0000,0.3000,0.2547,-5.50,5.87,-14.48,1.5770,0.5530,1.4780,1.6690,2.3620,0,0.0000,0.0000,0.0000,0.0000,0.0000,0
9077,0.0702,-0.0618,0.3358,0.0218,-0.0311,0.0378,-0.56,0.27,0.61,0,3.769,2.345,0.131,3.938,0.006,-0.017,0.999,0.000,0.000,0.000,0.3350,-1,0,-1.42,0.26,0.82,0.0713,-0.0840,0.3373,0.0000,0.0000,0.3000,0.2542,-6.02,6.18,-18.37,1.5770,0.5530,1.4790,1.6620,2.3620,0,0.0000,0.0000,0.0000,0.0000,0.0000,0
9128,0.0722,-0.0588,0.3365,0.0212,-0.0190,0.0307,-0.39,0.34,0.77,0,3.769,0.242,0.751,4.255,0.001,-0.012,0.999,0.000,0.000,0.000,0.3360,0,-1,-1.32,0.26,1.03,0.0719,-0.0836,0.3382,0.0000,0.0000,0.3000,0.2548,-5.21,6.29,-23.20,1.5920,0.5570,1.4790,1.6620,2.3710,0,0.0000,0.0000,0.0000,0.0000,0.0000,0
9179,0.0736,-0.0578,0.3373,0.0190,-0.0124,0.0256,-0.38,0.34,0.98,0,3.764,0.104,-3.841,4.881,-0.002,-0.012,0.998,0.000,0.000,0.000,0.3390,0,0,-1.32,0.20,1.25,0.0738,-0.0840,0.3391,0.0000,0.0000,0.3000,0.2553,-4.81,6.27,-29.29,1.5920,0.5570,1.4720,1.6590,2.3710,0,0.0000,0.0000,0.0000,0.0000,0.0000,0
9230,0.0759,-0.0661,0.3387,0.0184,-0.0230,0.0266,-0.33,0.47,1.21,0,3.769,0.623,-1.838,3.253,-0.001,-0.014,1.000,0.000,0.000,0.000,0.3400,0,0,-1.31,0.39,1.51,0.0747,-0.0843,0.3405,0.0000,0.0000,0.3000,0.2549,-5.92,6.42,-36.37,1.5940,0.5580,1.4720,1.6590,2.3700,0,0.0000,0.0000,0.0000,0.0000,0.0000,0
9281,0.0789,-0.0667,0.3402,0.0178,-0.0195,0.0271,-0.31,0.55,1.39,0,3.764,0.383,1.208,2.044,0.002,-0.015,1.002,0.000,0.000,0.000,0.3420,0,0,-1.28,0.48,1.67,0.0754,-0.0845,0.3418,0.0000,0.0000,0.3000,0.2545,-5.81,6.61,-41.64,1.5940,0.5580,1.4680,1.6570,2.3700,0,0.0000,0.0000,0.0000,0.0000,0.0000,0
9333,0.0808,-0.0699,0.3417,0.0150,-0.0211,0.0283,-0.29,0.51,1.50,0,3.769,0.573,-4.161,2.675,0.003,-0.016,0.998,0.000,0.000,0.000,0.3400,0,0,-1.26,0.41,1.78,0.0759,-0.0845,0.3433,0.0000,0.0000,0.3000,0.2541,-6.12,6.62,-44.92,1.5960,0.5610,1.4680,1.6570,2.3650,0,0.0000,0.0000,0.0000,0.0000,0.0000,0
9384,0.0812,-0.0728,0.3419,0.0100,-0.0222,0.0214,-0.24,0.65,1.61,0,3.764,-0.385,0.336,1.225,-0.001,-0.013,0.994,0.000,0.000,0.000,0.3420,0,0,-1.24,0.63,1.92,0.0763,-0.0843,0.3437,0.0000,0.0000,0.3000,0.2548,-6.37,6.40,-48.34,1.5960,0.5610,1.4680,1.6470,2.3650,0,0.0000,0.0000,0.0000,0.0000,0.0000,0
9434,0.0816,-0.0739,0.3425,0.0040,-0.0204,0.0169,-0.29,0.71,1.70,0,3.764,-2.455,3.402,0.520,0.001,-0.012,0.994,0.000,0.000,0.000,0.3460,0,0,-1.26,0.61,1.98,0.0763,-0.0840,0.3443,0.0000,0.0000,0.3000,0.2552,-6.35,6.13,-50.93,1.6080,0.5570,1.4680,1.6470,2.3540,0,0.0000,0.0000,0.0000,0.0000,0.0000,0
9486,0.0807,-0.0756,0.3445,-0.0035,-0.0191,0.0212,-0.41,0.61,1.75,0,3.764,0.766,3.089,-0.317,0.002,-0.014,1.001,0.000,0.000,0.000,0.3390,1,2,-1.38,0.44,2.01,0.0761,-0.0833,0.3457,0.0000,0.0000,0.3000,0.2543,-6.44,5.73,-52.64,1.6080,0.5570,1.4700,1.6490,2.3540,0,0.0000,0.0000,0.0000,0.0000,0.0000,0
9536,0.0768,-0.0813,0.3427,-0.0145,-0.0239,0.0065,-0.37,0.43,1.74,0,3.764,0.914,5.164,-2.021,0.005,-0.017,1.003,0.000,0.000,0.000,0.3400,0,0,-1.27,0.31,1.93,0.0721,-0.0906,0.3446,0.0000,0.0000,0.3000,0.2563,-7.03,4.88,-52.34,1.5940,0.5590,1.4700,1.6490,2.3610,0,0.0000,0.0000,0.0000,0.0000,0.0000,0
9587,0.0754,-0.0815,0.3418,-0.0190,-0.0195,0.0008,-0.31,0.24,1.65,0,3.758,0.569,5.216,-1.710,-0.003,-0.016,1.008,0.000,0.000,0.000,0.3430,1,2,-1.23,0.05,1.83,0.0712,-0.0910,0.3439,0.0000,0.0000,0.3000,0.2570,-6.81,4.55,-49.44,1.5940,0.5590,1.4690,1.6430,2.3610,0,0.0000,0.0000,0.0000,0.0000,0.0000,0
9638,0.0705,-0.0839,0.3424,-0.0271,-0.0193,0.0060,-0.32,0.03,1.54,0,3.764,-1.768,1.408,-1.632,-0.001,-0.019,1.008,0.000,0.000,0.000,0.3390,0,0,-1.18,-0.18,1.71,0.0683,-0.0925,0.3444,0.0000,0.0000,0.3000,0.2564,-7.00,3.83,-46.10,1.5960,0.5560,1.4690,1.6430,2.3600,0,0.0000,0.0000,0.0000,0.0000,0.0000,0
9690,0.0708,-0.0892,0.3412,-0.0243,-0.0237,0.0018,-0.37,-0.15,1.44,0,3.758,-1.055,0.795,-1.893,0.005,-0.014,1.012,0.000,0.000,0.000,0.3440,1,1,-1.27,-0.25,1.63,0.0668,-0.0930,0.3436,0.0000,0.0000,0.3000,0.2570,-7.56,3.97,-43.29,1.5960,0.5560,1.4710,1.6400,2.3600,0,0.0000,0.0000,0.0000,0.0000,0.0000,0
9740,0.0693,-0.0936,0.3425,-0.0236,-0.0256,0.0119,-0.41,-0.19,1.34,0,3.758,0.370,0.029,-0.996,0.005,-0.013,1.009,0.000,0.000,0.000,0.3420,0,1,-1.30,-0.28,1.53,0.0651,-0.0949,0.3447,0.0000,0.0000,0.3000,0.2557,-8.01,3.92,-40.25,1.5930,0.5500,1.4710,1.6400,2.3480,0,0.0000,0.0000,0.0000,0.0000,0.0000,0
9791,0.0670,-0.0946,0.3428,-0.0240,-0.0217,0.0143,-0.36,-0.17,1.28,0,3.758,1.216,1.008,0.077,-0.002,-0.015,1.001,0.000,0.000,0.000,0.3420,0,1,-1.28,-0.27,1.47,0.0632,-0.0953,0.3451,0.0000,0.0000,0.3000,0.2554,-7.90,3.74,-38.41,1.5930,0.5500,1.4780,1.6450,2.3480,0,0.0000,0.0000,0.0000,0.0000,0.0000,0
9843,0.0638,-0.0948,0.3429,-0.0258,-0.0174,0.0138,-0.33,-0.18,1.28,0,3.764,-2.335,1.512,-1.085,0.005,-0.014,1.003,0.000,0.000,0.000,0.3460,0,0,-1.22,-0.31,1.47,0.0609,-0.0955,0.3454,0.0000,0.0000,0.3000,0.2554,-7.72,3.42,-38.53,1.5900,0.5500,1.4780,1.6450,2.3570,0,0.0000,0.0000,0.0000,0.0000,0.0000,0
9893,0.0616,-0.0953,0.3447,-0.0258,-0.0139,0.0210,-0.37,-0.22,1.25,0,3.758,0.544,1.138,-1.384,0.004,-0.015,1.007,0.000,0.000,0.000,0.3450,1,1,-1.35,-0.39,1.41,0.0596,-0.0956,0.3467,0.0000,0.0000,0.3000,0.2543,-7.62,3.28,-37.48,1.5900,0.5500,1.4860,1.6410,2.3570,0,0.0000,0.0000,0.0000,0.0000,0.0000,0
9945,0.0607,-0.1011,0.3455,-0.0234,-0.0191,0.0219,-0.34,-0.31,1.17,0,3.764,0.336,-1.068,-1.152,-0.000,-0.013,1.001,0.000,0.000,0.000,0.3440,0,1,-1.28,-0.43,1.35,0.0574,-0.0989,0.3475,0.0000,0.0000,0.3000,0.2541,-8.29,3.33,-34.95,1.5910,0.5500,1.4860,1.6410,2.3530,0,0.0000,0.0000,0.0000,0.0000,0.0000,0
9995,0.0588,-0.1028,0.3456,-0.0220,-0.0176,0.0180,-0.32,-0.32,1.09,0,3.758,-1.134,-1.609,-0.450,-0.001,-0.013,1.003,0.000,0.000,0.000,0.3450,2,0,-1.27,-0.36,1.28,0.0551,-0.0991,0.3477,0.0000,0.0000,0.3000,0.2545,-8.33,3.26,-32.78,1.5910,0.5500,1.4860,1.6430,2.3530,0,0.0000,0.0000,0.0000,0.0000,0.0000,0
10047,0.0592,-0.1087,0.3459,-0.0169,-0.0232,0.0152,-0.33,-0.32,1.06,0,3.758,0.587,-0.469,-0.646,-0.001,-0.016,1.006,0.000,0.000,0.000,0.3460,0,0,-1.28,-0.29,1.29,0.0546,-0.1032,0.3481,0.0000,0.0000,0.3000,0.2547,-9.01,3.53,-31.80,1.5940,0.5490,1.4860,1.6430,2.3560,0,0.0000,0.0000,0.0000,0.0000,0.0000,0
10099,0.0581,-0.1098,0.3464,-0.0146,-0.0204,0.0158,-0.33,-0.36,1.04,0,3.753,-0.816,0.249,-0.005,-0.005,-0.015,1.002,0.000,0.000,0.000,0.3470,0,0,-1.25,-0.26,1.26,0.0536,-0.1041,0.3488,0.0000,0.0000,0.3000,0.2545,-8.96,3.57,-31.09,1.5940,0.5490,1.4830,1.6460,2.3560,0,0.0000,0.0000,0.0000,0.0000,0.0000,0
10150,0.0577,-0.1121,0.3472,-0.0112,-0.0197,0.0167,-0.33,-0.34,1.05,0,3.758,-2.336,-0.872,0.081,-0.000,-0.015,0.999,0.000,0.000,0.000,0.3510,0,0,-1.29,-0.28,1.26,0.0525,-0.1048,0.3495,0.0000,0.0000,0.3000,0.2543,-9.10,3.70,-31.38,1.5950,0.5500,1.4830,1.6460,2.3570,0,0.0000,0.0000,0.0000,0.0000,0.0000,0
10201,0.0574,-0.1173,0.3493,-0.0081,-0.0234,0.0243,-0.43,-0.32,1.05,0,3.753,-1.124,1.645,-0.727,0.002,-0.014,0.999,0.000,0.000,0.000,0.3470,0,0,-1.41,-0.23,1.26,0.0516,-0.1052,0.3511,0.0000,0.0000,0.3000,0.2531,-9.70,3.85,-31.58,1.5950,0.5500,1.4850,1.6450,2.3570,0,0.0000,0.0000,0.0000,0.0000,0.0000,0
10252,0.0574,-0.1196,0.3490,-0.0049,-0.0215,0.0166,-0.46,-0.32,1.04,0,3.758,-2.440,0.315,-0.412,0.001,-0.014,0.999,0.000,0.000,0.000,0.3510,0,0,-1.47,-0.31,1.22,0.0508,-0.1054,0.3510,0.0000,0.0000,0.3000,0.2539,-9.74,4.00,-31.08,1.5970,0.5480,1.4850,1.6450,2.3490,0,0.0000,0.0000,0.0000,0.0000,0.0000,0
10303,0.0572,-0.1206,0.3504,-0.0023,-0.0174,0.0184,-0.54,-0.31,1.02,0,3.753,0.313,-1.262,-0.006,-0.001,-0.013,1.005,0.000,0.000,0.000,0.3510,0,0,-1.59,-0.33,1.20,0.0501,-0.1053,0.3520,0.0000,0.0000,0.3000,0.2535,-9.63,4.12,-30.56,1.5970,0.5480,1.4850,1.6430,2.3490,0,0.0000,0.0000,0.0000,0.0000,0.0000,0
10355,0.0572,-0.1213,0.3513,0.0004,-0.0127,0.0198,-0.55,-0.28,1.03,0,3.758,2.605,-0.623,-0.075,-0.001,-0.013,1.002,0.000,0.000,0.000,0.3520,0,-1,-1.58,-0.26,1.20,0.0496,-0.1048,0.3528,0.0000,0.0000,0.3000,0.2532,-9.47,4.25,-30.81,1.5900,0.5520,1.4850,1.6430,2.3510,0,0.0000,0.0000,0.0000,0.0000,0.0000,0
10406,0.0605,-0.1243,0.3523,0.0078,-0.0121,0.0211,-0.42,-0.21,1.03,0,3.753,0.469,-2.753,-0.145,0.001,-0.013,1.003,0.000,0.000,0.000,0.3500,0,0,-1.41,-0.27,1.25,0.0554,-0.1094,0.3537,0.0000,0.0000,0.3000,0.2528,-9.67,4.86,-30.76,1.5900,0.5520,1.4880,1.6350,2.3510,0,0.0000,0.0000,0.0000,0.0000,0.0000,0
10456,0.0624,-0.1248,0.3520,0.0117,-0.0085,0.0160,-0.37,-0.13,1.02,0,3.758,-0.577,-3.282,1.255,0.001,-0.016,1.005,0.000,0.000,0.000,0.3520,-1,0,-1.38,-0.13,1.25,0.0560,-0.1091,0.3537,0.0000,0.0000,0.3000,0.2534,-9.51,5.18,-30.64,1.6030,0.5480,1.4880,1.6350,2.3580,0,0.0000,0.0000,0.0000,0.0000,0.0000,0
10507,0.0656,-0.1245,0.3525,0.0165,-0.0043,0.0161,-0.40,-0.00,1.08,0,3.753,-1.149,-6.691,2.290,0.001,-0.015,1.006,0.000,0.000,0.000,0.3500,-1,0,-1.42,0.04,1.30,0.0561,-0.1076,0.3544,0.0000,0.0000,0.3000,0.2533,-9.30,5.64,-32.47,1.6030,0.5480,1.4900,1.6380,2.3580,0,0.0000,0.0000,0.0000,0.0000,0.0000,0
10558,0.0691,-0.1243,0.3520,0.0203,-0.0003,0.0105,-0.41,0.27,1.20,0,3.753,1.294,-7.884,1.890,0.001,-0.012,1.000,0.000,0.000,0.000,0.3530,1,-2,-1.49,0.38,1.42,0.0564,-0.1059,0.3542,0.0000,0.0000,0.3000,0.2540,-9.07,6.06,-35.96,1.6050,0.5520,1.4900,1.6380,2.3540,0,0.0000,0.0000,0.0000,0.0000,0.0000,0
10609,0.0768,-0.1267,0.3528,0.0279,-0.0008,0.0124,-0.35,0.56,1.27,0,3.748,1.944,-0.647,-0.376,0.001,-0.019,1.000,0.000,0.000,0.000,0.3520,0,0,-1.41,0.75,1.55,0.0591,-0.1059,0.3550,0.0000,0.0000,0.3000,0.2537,-9.28,7.00,-38.23,1.6050,0.5520,1.4930,1.6330,2.3540,0,0.0000,0.0000,0.0000,0.0000,0.0000,0
10660,0.0793,-0.1269,0.3529,0.0246,0.0016,0.0105,-0.30,0.68,1.30,0,3.753,0.425,-0.023,-2.016,0.003,-0.017,1.001,0.000,0.000,0.000,0.3550,0,-1,-1.31,0.79,1.53,0.0598,-0.1046,0.3550,0.0000,0.0000,0.3000,0.2538,-9.18,7.01,-38.92,1.6110,0.5550,1.4930,1.6330,2.3460,0,0.0000,0.0000,0.0000,0.0000,0.0000,0
10712,0.0817,-0.1267,0.3541,0.0205,0.0042,0.0141,-0.31,0.74,1.22,0,3.748,1.613,0.530,-2.018,0.002,-0.015,0.999,0.000,0.000,0.000,0.3520,0,0,-1.26,0.77,1.43,0.0623,-0.1053,0.3560,0.0000,0.0000,0.3000,0.2532,-9.06,7.01,-36.55,1.6110,0.5550,1.4860,1.6390,2.3460,0,0.0000,0.0000,0.0000,0.0000,0.0000,0
10763,0.0833,-0.1268,0.3536,0.0168,0.0057,0.0077,-0.25,0.83,1.11,0,3.748,2.825,-1.440,-1.753,-0.000,-0.014,0.998,0.000,0.000,0.000,0.3550,0,0,-1.17,0.74,1.33,0.0629,-0.1042,0.3556,0.0000,0.0000,0.3000,0.2540,-8.97,6.93,-33.29,1.6270,0.5540,1.4860,1.6390,2.3450,0,0.0000,0.0000,0.0000,0.0000,0.0000,0
10814,0.0840,-0.1264,0.3544,0.0097,0.0077,0.0098,-0.14,0.85,1.01,0,3.748,0.536,5.508,-1.724,0.000,-0.017,0.998,0.000,0.000,0.000,0.3530,0,0,-1.03,0.82,1.24,0.0632,-0.1030,0.3561,0.0000,0.0000,0.3000,0.2536,-8.87,6.65,-30.33,1.6270,0.5540,1.4870,1.6310,2.3450,0,0.0000,0.0000,0.0000,0.0000,0.0000,0
10866,0.0796,-0.1274,0.3541,-0.0047,0.0064,0.0049,-0.03,0.68,0.92,0,3.748,3.420,6.682,-1.516,0.002,-0.016,1.002,0.000,0.000,0.000,0.3530,-1,2,-1.00,0.54,1.15,0.0631,-0.1017,0.3557,0.0000,0.0000,0.3000,0.2542,-8.98,5.63,-27.59,1.6160,0.5510,1.4870,1.6310,2.3440,0,0.0000,0.0000,0.0000,0.0000,0.0000,0
10917,0.0749,-0.1272,0.3538,-0.0173,0.0064,0.0016,0.12,0.38,0.84,0,3.748,1.360,8.460,-1.962,0.000,-0.016,1.007,0.000,0.000,0.000,0.3510,1,0,-0.81,0.24,1.03,0.0569,-0.1023,0.3554,0.0000,0.0000,0.3000,0.2546,-8.96,4.66,-25.12,1.6160,0.5510,1.4960,1.6390,2.3440,0,0.0000,0.0000,0.0000,0.0000,0.0000,0
10967,0.0718,-0.1260,0.3527,-0.0237,0.0065,-0.0018,0.17,-0.03,0.75,0,3.748,-0.634,6.490,-1.792,0.003,-0.013,1.006,0.000,0.000,0.000,0.3490,0,2,-0.73,-0.20,0.91,0.0558,-0.1028,0.3546,0.0000,0.0000,0.3000,0.2552,-8.84,4.12,-22.50,1.6100,0.5490,1.4960,1.6390,2.3460,0,0.0000,0.0000,0.0000,0.0000,0.0000,0
11018,0.0686,-0.1293,0.3511,-0.0268,-0.0002,-0.0073,0.15,-0.36,0.67,0,3.743,-1.027,2.920,-0.903,0.002,-0.016,1.013,0.000,0.000,0.000,0.3510,0,1,-0.76,-0.50,0.82,0.0525,-0.1025,0.3533,0.0000,0.0000,0.3000,0.2561,-9.37,3.73,-20.05,1.6100,0.5490,1.4970,1.6370,2.3460,0,0.0000,0.0000,0.0000,0.0000,0.0000,0
11070,0.0641,-0.1305,0.3509,-0.0285,-0.0032,-0.0024,0.11,-0.56,0.62,0,3.743,-1.558,0.433,-0.633,0.001,-0.019,1.012,0.000,0.000,0.000,0.3530,0,0,-0.81,-0.64,0.78,0.0501,-0.1023,0.3532,0.0000,0.0000,0.3000,0.2556,-9.61,3.34,-18.61,1.5960,0.5480,1.4970,1.6370,2.3450,0,0.0000,0.0000,0.0000,0.0000,0.0000,0
11120,0.0631,-0.1345,0.3518,-0.0233,-0.0100,0.0078,0.02,-0.63,0.61,0,3.748,-4.691,2.921,1.067,-0.000,-0.019,1.006,0.000,0.000,0.000,0.3520,1,0,-0.89,-0.66,0.75,0.0487,-0.1020,0.3540,0.0000,0.0000,0.3000,0.2543,-10.26,3.53,-18.31,1.5960,0.5480,1.5010,1.6380,2.3450,0,0.0000,0.0000,0.0000,0.0000,0.0000,0
11172,0.0635,-0.1384,0.3522,-0.0154,-0.0155,0.0119,-0.12,-0.72,0.64,0,3.748,-3.368,-0.837,0.980,-0.000,-0.020,1.010,0.000,0.000,0.000,0.3530,1,0,-1.09,-0.82,0.81,0.0497,-0.1053,0.3544,0.0000,0.0000,0.3000,0.2538,-10.82,3.95,-19.20,1.5940,0.5450,1.5010,1.6380,2.3430,0,0.0000,0.0000,0.0000,0.0000,0.0000,0
11223,0.0630,-0.1419,0.3529,-0.0089,-0.0191,0.0164,-0.23,-0.73,0.67,0,3.748,-3.367,-4.190,0.025,-0.001,-0.017,1.007,0.000,0.000,0.000,0.3530,0,0,-1.25,-0.78,0.87,0.0496,-0.1075,0.3551,0.0000,0.0000,0.3000,0.2532,-11.27,4.24,-20.16,1.5940,0.5450,1.5070,1.6380,2.3430,0,0.0000,0.0000,0.0000,0.0000,0.0000,0
11275,0.0624,-0.1451,0.3535,-0.0033,-0.0207,0.0185,-0.35,-0.54,0.67,0,3.748,-5.279,-6.383,-0.352,0.003,-0.013,0.999,0.000,0.000,0.000,0.3540,2,-1,-1.42,-0.57,0.87,0.0497,-0.1083,0.3557,0.0000,0.0000,0.3000,0.2528,-11.58,4.48,-19.97,1.5970,0.5450,1.5070,1.6380,2.3470,0,0.0000,0.0000,0.0000,0.0000,0.0000,0
11325,0.0621,-0.1495,0.3543,0.0011,-0.0234,0.0199,-0.51,-0.33,0.64,0,3.743,-2.189,-0.717,-1.281,-0.000,-0.009,1.002,0.000,0.000,0.000,0.3520,0,0,-1.65,-0.26,0.92,0.0530,-0.1147,0.3564,0.0000,0.0000,0.3000,0.2525,-12.04,4.68,-19.20,1.5970,0.5450,1.5050,1.6290,2.3470,0,0.0000,0.0000,0.0000,0.0000,0.0000,0
11376,0.0631,-0.1519,0.3539,0.0053,-0.0212,0.0144,-0.65,-0.23,0.58,0,3.743,-2.047,-6.586,-1.405,-0.001,-0.015,1.003,0.000,0.000,0.000,0.3550,1,0,-1.76,-0.22,0.85,0.0541,-0.1160,0.3562,0.0000,0.0000,0.3000,0.2532,-12.07,4.94,-17.41,1.6030,0.5450,1.5050,1.6290,2.3460,0,0.0000,0.0000,0.0000,0.0000,0.0000,0
11427,0.0651,-0.1542,0.3548,0.0101,-0.0181,0.0161,-0.77,-0.02,0.51,0,3.743,1.400,-4.486,-2.473,0.003,-0.011,1.007,0.000,0.000,0.000,0.3570,1,-1,-1.85,0.13,0.80,0.0530,-0.1186,0.3569,0.0000,0.0000,0.3000,0.2528,-12.12,5.33,-15.19,1.6030,0.5450,1.5120,1.6400,2.3460,0,0.0000,0.0000,0.0000,0.0000,0.0000,0
11479,0.0669,-0.1578,0.3562,0.0124,-0.0166,0.0206,-0.72,0.19,0.40,0,3.743,0.027,-2.394,-3.124,0.001,-0.012,0.998,0.000,0.000,0.000,0.3580,2,-2,-1.77,0.35,0.70,0.0554,-0.1208,0.3582,0.0000,0.0000,0.3000,0.2521,-12.33,5.59,-11.93,1.6140,0.5490,1.5120,1.6400,2.3430,0,0.0000,0.0000,0.0000,0.0000,0.0000,0
11529,0.0694,-0.1620,0.3576,0.0143,-0.0166,0.0228,-0.69,0.21,0.25,0,3.748,1.516,-1.970,-4.563,0.001,-0.011,0.998,0.000,0.000,0.000,0.3530,2,0,-1.73,0.45,0.57,0.0602,-0.1253,0.3593,0.0000,0.0000,0.3000,0.2516,-12.65,5.88,-7.42,1.6140,0.5490,1.5170,1.6320,2.3430,0,0.0000,0.0000,0.0000,0.0000,0.0000,0
11581,0.0715,-0.1639,0.3563,0.0150,-0.0130,0.0088,-0.72,0.28,0.03,0,3.748,-1.863,-1.212,-3.857,-0.001,-0.013,0.999,0.000,0.000,0.000,0.3580,-1,-1,-1.62,0.57,0.35,0.0608,-0.1303,0.3584,0.0670,-0.1209,0.3000,0.2533,-3.88,1.14,-0.92,1.6180,0.5470,1.5170,1.6320,2.3400,0,0.0000,0.0000,0.0000,0.0000,0.0000,0
11631,0.0732,-0.1627,0.3573,0.0144,-0.0037,0.0109,-0.76,0.39,-0.18,0,3.743,3.114,-3.257,-4.828,-0.001,-0.012,0.995,0.000,0.000,0.000,0.3600,0,-1,-1.74,0.62,0.16,0.0637,-0.1280,0.3591,0.0670,-0.1209,0.3000,0.2529,-3.34,1.23,5.33,1.6180,0.5470,1.5230,1.6390,2.3400,0,0.0000,0.0000,0.0000,0.0000,0.0000,0
11683,0.0759,-0.1644,0.3587,0.0149,-0.0005,0.0152,-0.67,0.47,-0.37,0,3.748,2.096,-0.262,-4.237,0.004,-0.011,0.994,0.000,0.000,0.000,0.3570,1,0,-1.58,0.78,-0.06,0.0667,-0.1280,0.3601,0.0670,-0.1209,0.3000,0.2522,-3.33,1.46,11.03,1.6230,0.5380,1.5230,1.6390,2.3430,0,0.0000,0.0000,0.0000,0.0000,0.0000,0
11734,0.0761,-0.1648,0.3584,0.0102,0.0043,0.0074,-0.60,0.47,-0.58,0,3.743,3.565,3.651,-3.290,0.002,-0.015,0.995,0.000,0.000,0.000,0.3580,-4,0,-1.45,0.81,-0.30,0.0668,-0.1309,0.3597,0.0670,-0.1209,0.3000,0.2530,-3.10,1.24,17.26,1.6230,0.5380,1.5300,1.6410,2.3430,0,0.0000,0.0000,0.0000,0.0000,0.0000,0
11785,0.0772,-0.1583,0.3584,0.0075,0.0208,0.0028,-0.46,0.28,-0.76,0,3.743,2.792,2.607,-3.127,0.003,-0.015,0.992,0.000,0.000,0.000,0.3570,-1,0,-1.35,0.63,-0.41,0.0671,-0.1187,0.3594,0.0670,-0.1209,0.3000,0.2535,-1.82,1.19,22.95,1.6170,0.5530,1.5300,1.6410,2.3370,0,0.0000,0.0000,0.0000,0.0000,0.0000,0
11837,0.0753,-0.1587,0.3579,0.0012,0.0221,-0.0030,-0.26,0.19,-0.95,0,3.743,5.078,0.479,-4.074,0.000,-0.015,1.002,0.000,0.000,0.000,0.3560,0,0,-1.21,0.50,-0.57,0.0672,-0.1152,0.3587,0.0670,-0.1209,0.3000,0.2543,-1.79,0.74,28.54,1.6170,0.5530,1.5310,1.6350,2.3370,0,0.0000,0.0000,0.0000,0.0000,0.0000,0
11889,0.0754,-0.1572,0.3570,-0.0002,0.0251,-0.0081,0.01,0.14,-1.17,0,3.743,0.752,6.858,-6.142,0.002,-0.015,0.999,0.000,0.000,0.000,0.3580,-1,0,-0.94,0.48,-0.78,0.0673,-0.1125,0.3578,0.0670,-0.1209,0.3000,0.2550,-1.52,0.68,35.05,1.6170,0.5500,1.5310,1.6350,2.3470,0,0.0000,0.0000,0.0000,0.0000,0.0000,0
11940,0.0746,-0.1524,0.3571,-0.0028,0.0315,-0.0060,0.14,-0.07,-1.46,0,3.743,1.067,2.549,-5.975,0.004,-0.012,1.006,0.000,0.000,0.000,0.3550,-2,0,-0.89,0.12,-1.12,0.0675,-0.1127,0.3577,0.0670,-0.1209,0.3000,0.2547,-0.87,0.49,43.73,1.6170,0.5500,1.5390,1.6510,2.3470,0,0.0000,0.0000,0.0000,0.0000,0.0000,0
11991,0.0723,-0.1521,0.3561,-0.0061,0.0281,-0.0088,0.22,-0.23,-1.79,0,3.743,1.325,1.151,-6.928,0.000,-0.015,1.009,0.000,0.000,0.000,0.3550,0,0,-0.85,-0.00,-1.41,0.0676,-0.1068,0.3568,0.0670,-0.1209,0.3000,0.2552,-1.01,0.17,53.62,1.6170,0.5540,1.5390,1.6510,2.3490,0,0.0000,0.0000,0.0000,0.0000,0.0000,0
12042,0.0730,-0.1492,0.3554,-0.0027,0.0290,-0.0073,0.17,-0.17,-2.13,0,3.737,3.308,0.855,-6.719,0.005,-0.009,1.005,0.000,0.000,0.000,0.3550,0,0,-0.78,-0.05,-1.77,0.0677,-0.1038,0.3563,0.0670,-0.1209,0.3000,0.2552,-0.76,0.38,63.93,1.6170,0.5540,1.5500,1.6500,2.3490,0,0.0000,0.0000,0.0000,0.0000,0.0000,0
12093,0.0726,-0.1492,0.3551,-0.0017,0.0251,-0.0044,0.26,-0.19,-2.45,0,3.737,3.563,1.537,-5.188,-0.003,-0.011,1.008,0.000,0.000,0.000,0.3570,0,0,-0.62,-0.09,-2.11,0.0679,-0.1007,0.3561,0.0670,-0.1209,0.3000,0.2549,-0.94,0.40,73.56,1.6220,0.5570,1.5500,1.6500,2.3430,0,0.0000,0.0000,0.0000,0.0000,0.0000,0
12145,0.0729,-0.1455,0.3558,0.0003,0.0273,0.0032,0.39,-0.22,-2.70,0,3.737,2.602,-0.892,-3.391,0.003,-0.011,1.004,0.000,0.000,0.000,0.3520,0,0,-0.44,-0.17,-2.38,0.0682,-0.0975,0.3567,0.0670,-0.1209,0.3000,0.2540,-0.57,0.52,81.03,1.6220,0.5570,1.5580,1.6550,2.3430,0,0.0000,0.0000,0.0000,0.0000,0.0000,0
12195,0.0743,-0.1439,0.3543,0.0045,0.0245,-0.0033,0.55,-0.18,-2.88,0,3.737,-0.725,-1.799,-2.338,0.003,-0.011,0.999,0.000,0.000,0.000,0.3530,0,0,-0.30,-0.12,-2.55,0.0686,-0.0946,0.3557,0.0670,-0.1209,0.3000,0.2549,-0.59,0.82,86.55,1.6200,0.5540,1.5580,1.6550,2.3490,0,0.0000,0.0000,0.0000,0.0000,0.0000,0
12247,0.0743,-0.1417,0.3537,0.0055,0.0218,-0.0052,0.52,-0.13,-3.02,0,3.737,-1.789,0.064,-2.169,-0.004,-0.011,1.005,0.000,0.000,0.000,0.3530,0,0,-0.34,-0.03,-2.67,0.0691,-0.0917,0.3550,0.0670,-0.1209,0.3000,0.2553,-0.56,0.87,90.74,1.6200,0.5540,1.5650,1.6570,2.3490,0,0.0000,0.0000,0.0000,0.0000,0.0000,0
12299,0.0771,-0.1442,0.3533,0.0109,0.0111,-0.0047,0.45,-0.13,-3.12,0,3.737,-0.691,-3.446,0.002,-0.002,-0.014,1.003,0.000,0.000,0.000,0.3530,1,0,-0.43,-0.03,-2.78,0.0695,-0.0890,0.3546,0.0670,-0.1209,0.3000,0.2553,-1.26,1.34,93.59,1.6200,0.5520,1.5650,1.6570,2.3460,0,0.0000,0.0000,0.0000,0.0000,0.0000,0
12349,0.0766,-0.1485,0.3530,0.0098,-0.0017,-0.0034,0.43,0.04,-3.13,0,3.732,-3.500,-1.482,1.045,0.001,-0.013,1.001,0.000,0.000,0.000,0.3540,1,0,-0.37,0.15,-2.79,0.0671,-0.1080,0.3545,0.0670,-0.1209,0.3000,0.2552,-2.19,1.24,93.97,1.6200,0.5520,1.5710,1.6550,2.3460,0,0.0000,0.0000,0.0000,0.0000,0.0000,0
12400,0.0794,-0.1494,0.3534,0.0137,-0.0068,0.0001,0.30,0.17,-3.08,0,3.732,-5.105,-0.920,2.372,0.002,-0.014,0.998,0.000,0.000,0.000,0.3510,0,0,-0.54,0.23,-2.73,0.0671,-0.1090,0.3545,0.0670,-0.1209,0.3000,0.2547,-2.51,1.65,92.25,1.6260,0.5580,1.5710,1.6550,2.3550,0,0.0000,0.0000,0.0000,0.0000,0.0000,0
12452,0.0805,-0.1545,0.3524,0.0130,-0.0179,-0.0046,0.09,0.22,-2.95,0,3.737,-5.192,-2.167,2.875,-0.002,-0.012,1.005,0.000,0.000,0.000,0.3500,2,-2,-0.80,0.27,-2.61,0.0670,-0.1098,0.3535,0.0670,-0.1209,0.3000,0.2554,-3.41,1.69,88.54,1.6260,0.5580,1.5710,1.6520,2.3550,0,0.0000,0.0000,0.0000,0.0000,0.0000,0
12502,0.0824,-0.1614,0.3512,0.0137,-0.0301,-0.0084,-0.10,0.26,-2.82,0,3.737,-3.912,-0.288,2.685,-0.001,-0.015,1.004,0.000,0.000,0.000,0.3520,2,0,-1.04,0.34,-2.52,0.0703,-0.1136,0.3525,0.0670,-0.1209,0.3000,0.2561,-4.49,1.85,84.56,1.6320,0.5560,1.5710,1.6520,2.3450,0,0.0000,0.0000,0.0000,0.0000,0.0000,0
12554,0.0828,-0.1657,0.3513,0.0111,-0.0344,-0.0043,-0.30,0.24,-2.69,0,3.732,-1.627,1.382,1.493,0.001,-0.012,1.006,0.000,0.000,0.000,0.3530,1,1,-1.22,0.36,-2.39,0.0707,-0.1168,0.3524,0.0670,-0.1209,0.3000,0.2556,-5.01,1.76,80.68,1.6320,0.5560,1.5730,1.6500,2.3450,0,0.0000,0.0000,0.0000,0.0000,0.0000,0
12605,0.0820,-0.1679,0.3520,0.0065,-0.0327,0.0032,-0.49,0.22,-2.59,0,3.737,-0.915,1.687,1.311,0.002,-0.009,1.002,0.000,0.000,0.000,0.3520,1,0,-1.29,0.30,-2.31,0.0695,-0.1192,0.3528,0.0670,-0.1209,0.3000,0.2547,-5.10,1.48,77.60,1.6260,0.5570,1.5730,1.6500,2.3450,0,0.0000,0.0000,0.0000,0.0000,0.0000,0
12655,0.0833,-0.1710,0.3521,0.0067,-0.0314,0.0044,-0.61,0.18,-2.50,0,3.737,-1.328,0.641,1.605,-0.004,-0.016,1.006,0.000,0.000,0.000,0.3500,0,0,-1.33,0.21,-2.25,0.0693,-0.1217,0.3529,0.0670,-0.1209,0.3000,0.2545,-5.27,1.59,75.09,1.6260,0.5570,1.5710,1.6470,2.3450,0,0.0000,0.0000,0.0000,0.0000,0.0000,0
12706,0.0835,-0.1731,0.3513,0.0051,-0.0275,0.0003,-0.70,0.19,-2.43,0,3.732,0.032,0.120,-0.087,-0.002,-0.014,1.004,0.000,0.000,0.000,0.3500,-1,1,-1.40,0.18,-2.17,0.0691,-0.1233,0.3524,0.0670,-0.1209,0.3000,0.2551,-5.23,1.52,72.93,1.6230,0.5560,1.5710,1.6470,2.3450,0,0.0000,0.0000,0.0000,0.0000,0.0000,0
12757,0.0821,-0.1762,0.3508,0.0008,-0.0246,-0.0022,-0.72,0.14,-2.42,0,3.737,-1.768,7.299,0.298,0.003,-0.012,1.008,0.000,0.000,0.000,0.3510,1,0,-1.44,0.19,-2.15,0.0663,-0.1187,0.3521,0.0670,-0.1209,0.3000,0.2555,-5.30,1.21,72.71,1.6230,0.5560,1.5700,1.6450,2.3450,0,0.0000,0.0000,0.0000,0.0000,0.0000,0
12808,0.0838,-0.1785,0.3509,0.0031,-0.0207,0.0017,-0.80,-0.19,-2.43,0,3.737,0.276,3.937,0.239,-0.001,-0.010,1.007,0.000,0.000,0.000,0.3480,0,0,-1.52,-0.18,-2.15,0.0657,-0.1204,0.3523,0.0670,-0.1209,0.3000,0.2550,-5.29,1.45,73.03,1.6190,0.5610,1.5700,1.6450,2.3490,0,0.0000,0.0000,0.0000,0.0000,0.0000,0
12859,0.0807,-0.1768,0.3498,-0.0013,-0.0093,-0.0006,-0.81,-0.37,-2.43,0,3.732,2.032,-1.702,-0.232,0.001,-0.016,1.011,0.000,0.000,0.000,0.3500,0,0,-1.50,-0.38,-2.14,0.0650,-0.1201,0.3516,0.0670,-0.1209,0.3000,0.2555,-4.61,1.00,73.00,1.6190,0.5610,1.5700,1.6500,2.3490,0,0.0000,0.0000,0.0000,0.0000,0.0000,0
12910,0.0806,-0.1747,0.3499,0.0019,0.0020,0.0041,-0.72,-0.31,-2.43,0,3.732,3.513,-0.158,0.240,-0.000,-0.012,1.004,0.000,0.000,0.000,0.3460,0,0,-1.40,-0.30,-2.15,0.0644,-0.1196,0.3518,0.0670,-0.1209,0.3000,0.2549,-3.92,1.16,72.98,1.6100,0.5570,1.5700,1.6500,2.3550,0,0.0000,0.0000,0.0000,0.0000,0.0000,0
12961,0.0806,-0.1727,0.3484,0.0044,0.0112,-0.0020,-0.59,-0.28,-2.42,0,3.732,4.373,1.075,-0.570,0.000,-0.008,1.010,0.000,0.000,0.000,0.3480,-1,0,-1.22,-0.29,-2.14,0.0640,-0.1187,0.3507,0.0670,-0.1209,0.3000,0.2559,-3.32,1.28,72.70,1.6100,0.5570,1.5670,1.6500,2.3550,0,0.0000,0.0000,0.0000,0.0000,0.0000,0
13012,0.0811,-0.1689,0.3482,0.0076,0.0220,0.0004,-0.40,-0.35,-2.45,0,3.732,4.959,-2.059,-0.808,-0.001,-0.014,1.004,0.000,0.000,0.000,0.3500,-1,0,-0.99,-0.35,-2.17,0.0651,-0.1190,0.3507,0.0670,-0.1209,0.3000,0.2556,-2.53,1.47,73.50,1.6020,0.5580,1.5670,1.6500,2.3610,0,0.0000,0.0000,0.0000,0.0000,0.0000,0
13063,0.0808,-0.1636,0.3490,0.0091,0.0329,0.0063,-0.22,-0.29,-2.49,0,3.732,7.652,-4.878,-2.281,0.000,-0.011,1.006,0.000,0.000,0.000,0.3480,-1,-1,-0.74,-0.25,-2.21,0.0652,-0.1172,0.3512,0.0670,-0.1209,0.3000,0.2548,-1.63,1.52,74.82,1.6020,0.5580,1.5670,1.6530,2.3610,0,0.0000,0.0000,0.0000,0.0000,0.0000,0
13115,0.0806,-0.1609,0.3488,0.0100,0.0361,0.0059,0.10,-0.05,-2.57,0,3.732,7.160,-1.019,-2.961,0.002,-0.010,1.001,0.000,0.000,0.000,0.3490,-2,0,-0.36,-0.01,-2.33,0.0668,-0.1151,0.3511,0.0670,-0.1209,0.3000,0.2549,-1.27,1.55,77.10,1.6100,0.5580,1.5670,1.6530,2.3510,0,0.0000,0.0000,0.0000,0.0000,0.0000,0
13165,0.0804,-0.1536,0.3491,0.0088,0.0457,0.0075,0.39,0.07,-2.70,0,3.732,4.042,0.946,-2.905,0.001,-0.010,1.001,0.000,0.000,0.000,0.3490,0,0,-0.01,0.05,-2.49,0.0672,-0.1112,0.3512,0.0670,-0.1209,0.3000,0.2547,-0.28,1.48,81.06,1.6100,0.5580,1.5630,1.6500,2.3510,0,0.0000,0.0000,0.0000,0.0000,0.0000,0
13216,0.0818,-0.1492,0.3493,0.0098,0.0461,0.0072,0.60,0.05,-2.83,0,3.732,4.343,0.769,-1.284,0.002,-0.012,1.000,0.000,0.000,0.000,0.3470,-1,-1,0.19,0.00,-2.64,0.0677,-0.1095,0.3512,0.0670,-0.1209,0.3000,0.2547,0.06,1.63,84.98,1.6120,0.5590,1.5630,1.6500,2.3480,0,0.0000,0.0000,0.0000,0.0000,0.0000,0
13267,0.0810,-0.1469,0.3486,0.0067,0.0408,0.0027,0.77,0.02,-2.92,0,3.732,1.299,0.570,-0.313,-0.001,-0.010,1.004,0.000,0.000,0.000,0.3480,-1,-1,0.41,-0.06,-2.73,0.0706,-0.1076,0.3505,0.0670,-0.1209,0.3000,0.2553,-0.03,1.42,87.56,1.6120,0.5590,1.5580,1.6510,2.3480,0,0.0000,0.0000,0.0000,0.0000,0.0000,0
13318,0.0825,-0.1425,0.3484,0.0088,0.0392,0.0025,0.86,-0.02,-2.96,0,3.732,-0.874,2.566,1.187,0.000,-0.010,1.003,0.000,0.000,0.000,0.3460,0,0,0.47,-0.10,-2.76,0.0730,-0.1054,0.3503,0.0670,-0.1209,0.3000,0.2554,0.22,1.63,88.65,1.6170,0.5570,1.5580,1.6510,2.3600,0,0.0000,0.0000,0.0000,0.0000,0.0000,0
13370,0.0820,-0.1417,0.3475,0.0067,0.0297,-0.0005,0.86,-0.13,-2.91,0,3.732,-3.061,2.621,2.034,0.000,-0.013,1.005,0.000,0.000,0.000,0.3490,0,0,0.42,-0.23,-2.70,0.0744,-0.1046,0.3495,0.0670,-0.1209,0.3000,0.2558,-0.19,1.49,87.39,1.6170,0.5570,1.5630,1.6540,2.3600,0,0.0000,0.0000,0.0000,0.0000,0.0000,0
13420,0.0815,-0.1421,0.3482,0.0060,0.0190,0.0055,0.77,-0.25,-2.83,0,3.732,-2.933,-1.835,1.955,0.003,-0.007,1.005,0.000,0.000,0.000,0.3430,0,0,0.26,-0.36,-2.60,0.0758,-0.1043,0.3498,0.0670,-0.1209,0.3000,0.2551,-0.73,1.42,85.03,1.6030,0.5550,1.5630,1.6540,2.3520,0,0.0000,0.0000,0.0000,0.0000,0.0000,0
13471,0.0815,-0.1425,0.3462,0.0071,0.0101,-0.0029,0.63,-0.16,-2.72,0,3.727,-2.871,-0.787,2.717,0.002,-0.010,1.005,0.000,0.000,0.000,0.3440,2,-1,0.12,-0.27,-2.50,0.0775,-0.1044,0.3482,0.0670,-0.1209,0.3000,0.2563,-1.19,1.48,81.56,1.6030,0.5550,1.5570,1.6540,2.3520,0,0.0000,0.0000,0.0000,0.0000,0.0000,0
13523,0.0825,-0.1457,0.3452,0.0091,-0.0026,-0.0056,0.52,-0.07,-2.58,0,3.727,-1.364,0.326,3.042,-0.001,-0.006,1.005,0.000,0.000,0.000,0.3480,0,0,0.01,-0.20,-2.27,0.0748,-0.1109,0.3473,0.0670,-0.1209,0.3000,0.2568,-2.04,1.64,77.46,1.6070,0.5560,1.5570,1.6540,2.3520,0,0.0000,0.0000,0.0000,0.0000,0.0000,0
13573,0.0840,-0.1457,0.3462,0.0115,-0.0063,0.0027,0.43,-0.03,-2.46,0,3.732,-3.285,0.735,2.016,-0.002,-0.008,1.008,0.000,0.000,0.000,0.3480,0,0,-0.06,-0.22,-2.11,0.0758,-0.1125,0.3479,0.0670,-0.1209,0.3000,0.2557,-2.22,1.87,73.90,1.6070,0.5560,1.5590,1.6540,2.3520,0,0.0000,0.0000,0.0000,0.0000,0.0000,0
13625,0.0841,-0.1469,0.3471,0.0106,-0.0114,0.0109,0.27,-0.03,-2.35,0,3.732,-2.197,-2.441,2.782,0.000,-0.012,1.007,0.000,0.000,0.000,0.3450,0,-1,-0.22,-0.26,-2.01,0.0769,-0.1143,0.3486,0.0670,-0.1209,0.3000,0.2547,-2.56,1.84,70.64,1.6000,0.5640,1.5590,1.6540,2.3510,0,0.0000,0.0000,0.0000,0.0000,0.0000,0
13676,0.0869,-0.1494,0.3467,0.0153,-0.0172,0.0084,0.14,0.02,-2.22,0,3.732,-3.538,-6.324,3.808,0.007,-0.005,1.005,0.000,0.000,0.000,0.3470,1,0,-0.37,-0.13,-1.88,0.0779,-0.1116,0.3484,0.0670,-0.1209,0.3000,0.2550,-3.02,2.27,66.73,1.6000,0.5640,1.5540,1.6500,2.3510,0,0.0000,0.0000,0.0000,0.0000,0.0000,0
13727,0.0868,-0.1533,0.3471,0.0131,-0.0240,0.0107,0.00,0.29,-2.03,0,3.732,-5.414,-4.301,4.412,-0.001,-0.016,0.999,0.000,0.000,0.000,0.3480,1,0,-0.55,0.20,-1.67,0.0789,-0.1133,0.3487,0.0670,-0.1209,0.3000,0.2547,-3.65,2.16,60.92,1.6070,0.5620,1.5540,1.6500,2.3510,0,0.0000,0.0000,0.0000,0.0000,0.0000,0
13779,0.0893,-0.1560,0.3478,0.0138,-0.0264,0.0119,-0.22,0.55,-1.83,0,3.727,-2.089,-0.934,5.025,0.003,-0.010,0.993,0.000,0.000,0.000,0.3500,0,0,-0.82,0.42,-1.44,0.0796,-0.1154,0.3493,0.0670,-0.1209,0.3000,0.2544,-3.96,2.38,54.75,1.6070,0.5620,1.5530,1.6520,2.3510,0,0.0000,0.0000,0.0000,0.0000,0.0000,0
13831,0.0921,-0.1559,0.3491,0.0133,-0.0213,0.0137,-0.37,0.62,-1.59,0,3.732,0.773,3.166,3.525,0.002,-0.006,0.998,0.000,0.000,0.000,0.3450,0,1,-0.93,0.46,-1.17,0.0805,-0.1167,0.3500,0.0670,-0.1209,0.3000,0.2540,-3.71,2.56,47.65,1.6150,0.5590,1.5530,1.6520,2.3500,0,0.0000,0.0000,0.0000,0.0000,0.0000,0
13881,0.0916,-0.1589,0.3478,0.0062,-0.0219,0.0018,-0.37,0.49,-1.40,0,3.727,0.960,2.585,3.211,0.002,-0.015,0.994,0.000,0.000,0.000,0.3440,0,1,-0.90,0.33,-0.95,0.0770,-0.1158,0.3489,0.0670,-0.1209,0.3000,0.2555,-3.93,2.17,41.99,1.6150,0.5590,1.5490,1.6460,2.3500,0,0.0000,0.0000,0.0000,0.0000,0.0000,0
13933,0.0908,-0.1579,0.3462,0.0004,-0.0150,-0.0097,-0.33,0.38,-1.25,0,3.727,1.591,3.991,2.912,-0.002,-0.011,0.995,0.000,0.000,0.000,0.3480,0,0,-0.86,0.21,-0.78,0.0752,-0.1161,0.3475,0.0670,-0.1209,0.3000,0.2571,-3.51,1.82,37.39,1.5990,0.5580,1.5490,1.6460,2.3520,0,0.0000,0.0000,0.0000,0.0000,0.0000,0
13984,0.0901,-0.1585,0.3466,-0.0038,-0.0121,-0.0072,-0.23,0.24,-1.12,0,3.727,0.410,6.321,2.840,-0.007,-0.010,1.001,0.000,0.000,0.000,0.3450,0,1,-0.78,0.00,-0.63,0.0744,-0.1166,0.3474,0.0670,-0.1209,0.3000,0.2567,-3.42,1.57,33.55,1.5990,0.5580,1.5460,1.6340,2.3520,0,0.0000,0.0000,0.0000,0.0000,0.0000,0
14035,0.0877,-0.1601,0.3457,-0.0096,-0.0120,-0.0095,-0.19,-0.01,-0.97,0,3.727,0.169,1.689,3.212,-0.001,-0.007,1.001,0.000,0.000,0.000,0.3470,0,0,-0.76,-0.31,-0.49,0.0720,-0.1162,0.3465,0.0670,-0.1209,0.3000,0.2571,-3.52,1.11,29.22,1.5940,0.5570,1.5460,1.6340,2.3540,0,0.0000,0.0000,0.0000,0.0000,0.0000,0
14086,0.0862,-0.1589,0.3459,-0.0112,-0.0071,-0.0061,-0.18,-0.10,-0.83,0,3.727,0.680,2.522,3.306,0.001,-0.012,0.998,0.000,0.000,0.000,0.3470,0,0,-0.75,-0.40,-0.32,0.0708,-0.1162,0.3464,0.0670,-0.1209,0.3000,0.2567,-3.21,0.93,24.88,1.5940,0.5570,1.5410,1.6290,2.3540,0,0.0000,0.0000,0.0000,0.0000,0.0000,0
14137,0.0844,-0.1591,0.3462,-0.0125,-0.0054,-0.0033,-0.14,-0.18,-0.68,0,3.727,2.657,1.216,3.435,-0.000,-0.009,0.997,0.000,0.000,0.000,0.3450,0,0,-0.71,-0.53,-0.16,0.0699,-0.1163,0.3464,0.0670,-0.1209,0.3000,0.2563,-3.15,0.74,20.38,1.5840,0.5600,1.5410,1.6290,2.3610,0,0.0000,0.0000,0.0000,0.0000,0.0000,0
14189,0.0817,-0.1598,0.3456,-0.0147,-0.0053,-0.0068,0.01,-0.25,-0.52,0,3.727,-0.217,-0.695,3.775,-0.000,-0.008,0.999,0.000,0.000,0.000,0.3420,0,0,-0.58,-0.59,0.02,0.0691,-0.1162,0.3456,0.0670,-0.1209,0.3000,0.2568,-3.19,0.43,15.63,1.5840,0.5600,1.5370,1.6260,2.3610,0,0.0000,0.0000,0.0000,0.0000,0.0000,0
14239,0.0812,-0.1582,0.3438,-0.0123,-0.0020,-0.0150,0.03,-0.23,-0.34,0,3.721,-0.406,-0.712,3.901,0.002,-0.013,0.997,0.000,0.000,0.000,0.3400,0,-1,-0.59,-0.56,0.22,0.0687,-0.1161,0.3441,0.0670,-0.1209,0.3000,0.2581,-2.90,0.51,10.08,1.5810,0.5580,1.5370,1.6260,2.3630,0,0.0000,0.0000,0.0000,0.0000,0.0000,0
14291,0.0825,-0.1584,0.3417,-0.0068,-0.0023,-0.0220,0.03,-0.19,-0.16,0,3.721,4.900,-1.659,2.810,-0.001,-0.012,1.003,0.000,0.000,0.000,0.3410,0,0,-0.60,-0.55,0.40,0.0727,-0.1163,0.3421,0.0670,-0.1209,0.3000,0.2592,-2.91,0.87,4.77,1.5810,0.5580,1.5290,1.6270,2.3630,0,0.0000,0.0000,0.0000,0.0000,0.0000,0
14341,0.0839,-0.1590,0.3408,-0.0022,-0.0036,-0.0190,0.17,-0.14,0.02,0,3.721,0.088,-2.827,5.405,0.002,-0.013,1.007,0.000,0.000,0.000,0.3370,0,-1,-0.35,-0.47,0.55,0.0735,-0.1164,0.3410,0.0670,-0.1209,0.3000,0.2591,-3.02,1.18,-0.53,1.5780,0.5470,1.5290,1.6270,2.3630,0,0.0000,0.0000,0.0000,0.0000,0.0000,0
14392,0.0853,-0.1590,0.3386,0.0017,-0.0047,-0.0226,0.19,-0.02,0.29,0,3.716,2.802,-4.990,5.241,-0.000,-0.008,1.010,0.000,0.000,0.000,0.3360,0,-1,-0.34,-0.33,0.81,0.0752,-0.1164,0.3391,0.0670,-0.1209,0.3000,0.2599,-3.07,1.47,-8.59,1.5780,0.5470,1.5260,1.6230,2.3630,0,0.0000,0.0000,0.0000,0.0000,0.0000,0
14443,0.0887,-0.1592,0.3369,0.0074,-0.0064,-0.0225,0.22,0.19,0.57,0,3.721,-2.248,-0.726,6.272,-0.000,-0.008,1.011,0.000,0.000,0.000,0.3320,0,-1,-0.20,-0.09,1.07,0.0772,-0.1165,0.3376,0.0670,-0.1209,0.3000,0.2602,-3.16,1.98,-17.14,1.5780,0.5610,1.5260,1.6230,2.3680,0,0.0000,0.0000,0.0000,0.0000,0.0000,0
14495,0.0907,-0.1590,0.3341,0.0087,-0.0072,-0.0272,0.14,0.30,0.88,0,3.721,-2.785,-3.105,6.108,-0.003,-0.008,1.014,0.000,0.000,0.000,0.3340,3,0,-0.32,-0.06,1.38,0.0795,-0.1167,0.3354,0.0670,-0.1209,0.3000,0.2612,-3.17,2.18,-26.43,1.5780,0.5610,1.5160,1.6140,2.3680,0,0.0000,0.0000,0.0000,0.0000,0.0000,0
14545,0.0914,-0.1595,0.3335,0.0076,-0.0085,-0.0208,0.08,0.39,1.18,0,3.721,-2.807,-1.541,6.126,-0.006,-0.015,1.012,0.000,0.000,0.000,0.3330,1,0,-0.42,0.11,1.74,0.0805,-0.1217,0.3347,0.0670,-0.1209,0.3000,0.2606,-3.28,2.18,-35.43,1.5780,0.5530,1.5160,1.6140,2.3680,0,0.0000,0.0000,0.0000,0.0000,0.0000,0
14597,0.0967,-0.1739,0.3326,0.0122,-0.0331,-0.0124,0.01,0.44,1.47,0,3.721,-6.590,-4.523,4.805,-0.000,-0.015,1.010,0.000,0.000,0.000,0.3300,0,-1,-0.55,0.19,2.05,0.0812,-0.1244,0.3341,0.0670,-0.1209,0.3000,0.2599,-5.47,2.78,-44.22,1.5780,0.5530,1.5110,1.6050,2.3680,0,0.0000,0.0000,0.0000,0.0000,0.0000,0
14649,0.0982,-0.1743,0.3312,0.0100,-0.0306,-0.0119,-0.31,0.58,1.73,0,3.721,-2.955,-1.840,4.533,-0.003,-0.012,1.011,0.000,0.000,0.000,0.3290,0,0,-0.91,0.41,2.29,0.0837,-0.1251,0.3330,0.0670,-0.1209,0.3000,0.2601,-5.38,2.78,-51.97,1.5840,0.5550,1.5110,1.6050,2.3640,0,0.0000,0.0000,0.0000,0.0000,0.0000,0
14700,0.0980,-0.1763,0.3299,0.0036,-0.0288,-0.0102,-0.45,0.72,1.94,0,3.716,1.261,-0.397,1.839,-0.000,-0.011,1.009,0.000,0.000,0.000,0.3330,0,0,-1.06,0.50,2.53,0.0849,-0.1268,0.3320,0.0670,-0.1209,0.3000,0.2601,-5.44,2.47,-58.29,1.5840,0.5550,1.5060,1.5940,2.3640,0,0.0000,0.0000,0.0000,0.0000,0.0000,0
14751,0.0980,-0.1777,0.3310,-0.0029,-0.0250,0.0022,-0.45,0.77,2.05,0,3.721,0.544,-2.140,2.636,-0.002,-0.016,1.009,0.000,0.000,0.000,0.3280,0,0,-1.00,0.52,2.62,0.0858,-0.1283,0.3326,0.0670,-0.1209,0.3000,0.2586,-5.38,2.17,-61.48,1.5880,0.5550,1.5060,1.5940,2.3710,0,0.0000,0.0000,0.0000,0.0000,0.0000,0
14802,0.1001,-0.1801,0.3299,-0.0054,-0.0236,-0.0003,-0.42,0.76,2.15,0,3.721,-3.266,2.866,1.707,-0.001,-0.012,1.007,0.000,0.000,0.000,0.3320,2,0,-0.97,0.63,2.76,0.0864,-0.1298,0.3318,0.0670,-0.1209,0.3000,0.2591,-5.48,2.20,-64.45,1.5880,0.5550,1.5040,1.5980,2.3710,0,0.0000,0.0000,0.0000,0.0000,0.0000,0
14853,0.0985,-0.1830,0.3309,-0.0141,-0.0232,0.0078,-0.49,0.61,2.22,0,3.721,1.519,5.068,-0.660,0.001,-0.013,1.002,0.000,0.000,0.000,0.3310,-2,1,-1.13,0.48,2.84,0.0857,-0.1324,0.3324,0.0670,-0.1209,0.3000,0.2580,-5.69,1.68,-66.70,1.5910,0.5550,1.5040,1.5980,2.3690,0,0.0000,0.0000,0.0000,0.0000,0.0000,0
14904,0.0961,-0.1783,0.3312,-0.0218,-0.0091,0.0101,-0.50,0.42,2.21,0,3.716,1.356,4.505,-0.427,0.000,-0.013,1.003,0.000,0.000,0.000,0.3340,-1,2,-1.08,0.24,2.82,0.0844,-0.1312,0.3326,0.0670,-0.1209,0.3000,0.2577,-4.70,1.14,-66.42,1.5910,0.5550,1.4980,1.5910,2.3690,0,0.0000,0.0000,0.0000,0.0000,0.0000,0
14956,0.0919,-0.1794,0.3328,-0.0307,-0.0063,0.0176,-0.39,0.23,2.18,0,3.727,2.996,2.490,-0.876,-0.001,-0.009,0.998,0.000,0.000,0.000,0.3290,0,0,-1.02,0.03,2.80,0.0814,-0.1304,0.3337,0.0670,-0.1209,0.3000,0.2566,-4.66,0.41,-65.36,1.5870,0.5480,1.4980,1.5910,2.3750,0,0.0000,0.0000,0.0000,0.0000,0.0000,0
15006,0.0910,-0.1794,0.3316,-0.0316,-0.0035,0.0081,-0.24,0.00,2.14,0,3.721,2.443,3.969,-0.362,-0.001,-0.010,1.002,0.000,0.000,0.000,0.3300,0,2,-0.86,-0.10,2.75,0.0803,-0.1305,0.3329,0.0670,-0.1209,0.3000,0.2578,-4.50,0.30,-64.30,1.5870,0.5480,1.4950,1.5960,2.3750,0,0.0000,0.0000,0.0000,0.0000,0.0000,0
15058,0.0841,-0.1783,0.3312,-0.0412,0.0008,0.0035,-0.11,-0.25,2.11,0,3.721,1.438,6.079,-1.123,0.002,-0.012,0.999,0.000,0.000,0.000,0.3350,0,0,-0.74,-0.27,2.72,0.0755,-0.1308,0.3325,0.0670,-0.1209,0.3000,0.2584,-4.21,-0.65,-63.26,1.5760,0.5480,1.4950,1.5960,2.3670,0,0.0000,0.0000,0.0000,0.0000,0.0000,0
15110,0.0794,-0.1773,0.3329,-0.0439,0.0034,0.0114,-0.03,-0.54,2.06,0,3.721,2.343,3.866,-2.366,-0.001,-0.016,0.997,0.000,0.000,0.000,0.3290,0,1,-0.67,-0.59,2.66,0.0736,-0.1308,0.3337,0.0670,-0.1209,0.3000,0.2572,-4.03,-1.12,-61.85,1.5760,0.5480,1.4990,1.5970,2.3670,0,0.0000,0.0000,0.0000,0.0000,0.0000,0
15161,0.0758,-0.1745,0.3316,-0.0421,0.0088,0.0008,0.04,-0.77,1.96,0,3.716,3.047,1.669,-3.548,-0.001,-0.015,0.999,0.000,0.000,0.000,0.3310,0,0,-0.55,-0.78,2.53,0.0720,-0.1309,0.3326,0.0670,-0.1209,0.3000,0.2586,-3.56,-1.29,-58.82,1.5670,0.5440,1.4990,1.5970,2.3630,0,0.0000,0.0000,0.0000,0.0000,0.0000,0
15213,0.0730,-0.1745,0.3314,-0.0371,0.0080,-0.0011,0.15,-0.86,1.81,0,3.721,2.773,5.014,-2.937,-0.001,-0.017,0.999,0.000,0.000,0.000,0.3320,0,0,-0.39,-0.87,2.35,0.0707,-0.1311,0.3323,0.0670,-0.1209,0.3000,0.2589,-3.59,-1.25,-54.31,1.5670,0.5440,1.4990,1.6000,2.3630,0,0.0000,0.0000,0.0000,0.0000,0.0000,0
15263,0.0695,-0.1732,0.3316,-0.0333,0.0087,-0.0002,0.18,-1.00,1.65,0,3.721,0.990,-2.869,-4.943,-0.002,-0.016,0.998,0.000,0.000,0.000,0.3300,0,0,-0.25,-1.13,2.20,0.0699,-0.1316,0.3323,0.0670,-0.1209,0.3000,0.2587,-3.47,-1.32,-49.48,1.5660,0.5420,1.4990,1.6000,2.3740,0,0.0000,0.0000,0.0000,0.0000,0.0000,0
15315,0.0677,-0.1719,0.3309,-0.0250,0.0090,-0.0038,0.23,-1.00,1.42,0,3.716,1.152,-1.312,-2.744,-0.002,-0.019,1.000,0.000,0.000,0.000,0.3280,0,-1,-0.21,-0.98,1.95,0.0695,-0.1323,0.3316,0.0670,-0.1209,0.3000,0.2592,-3.35,-1.05,-42.71,1.5660,0.5420,1.5010,1.6030,2.3740,0,0.0000,0.0000,0.0000,0.0000,0.0000,0
15366,0.0696,-0.1718,0.3296,-0.0106,0.0068,-0.0112,0.22,-0.90,1.22,0,3.716,-1.292,-2.261,-3.881,0.000,-0.015,1.000,0.000,0.000,0.000,0.3320,2,0,-0.18,-0.94,1.75,0.0726,-0.1290,0.3304,0.0670,-0.1209,0.3000,0.2603,-3.44,-0.23,-36.50,1.5610,0.5390,1.5010,1.6030,2.3710,0,0.0000,0.0000,0.0000,0.0000,0.0000,0
15417,0.0705,-0.1737,0.3302,-0.0005,0.0004,-0.0055,0.21,-0.81,1.01,0,3.716,-0.212,-3.799,-5.391,-0.001,-0.013,1.001,0.000,0.000,0.000,0.3260,0,0,-0.23,-0.82,1.58,0.0735,-0.1312,0.3307,0.0670,-0.1209,0.3000,0.2595,-3.89,0.32,-30.30,1.5610,0.5390,1.5110,1.6090,2.3710,0,0.0000,0.0000,0.0000,0.0000,0.0000,0
15469,0.0727,-0.1760,0.3283,0.0104,-0.0059,-0.0143,0.20,-0.63,0.81,0,3.716,-1.154,-6.823,-2.133,-0.002,-0.015,0.999,0.000,0.000,0.000,0.3240,0,-1,-0.25,-0.63,1.31,0.0749,-0.1324,0.3290,0.0670,-0.1209,0.3000,0.2609,-4.33,0.99,-24.37,1.5600,0.5410,1.5110,1.6090,2.3760,0,0.0000,0.0000,0.0000,0.0000,0.0000,0
15519,0.0772,-0.1776,0.3261,0.0235,-0.0098,-0.0228,0.07,-0.38,0.68,0,3.711,-3.176,-6.170,-3.030,-0.002,-0.013,1.006,0.000,0.000,0.000,0.3260,0,0,-0.33,-0.27,1.17,0.0764,-0.1317,0.3271,0.0670,-0.1209,0.3000,0.2622,-4.61,1.92,-20.50,1.5600,0.5410,1.5180,1.6110,2.3760,0,0.0000,0.0000,0.0000,0.0000,0.0000,0
15570,0.0804,-0.1775,0.3254,0.0304,-0.0091,-0.0176,-0.08,-0.15,0.56,0,3.716,0.922,-6.476,-1.166,-0.004,-0.017,1.009,0.000,0.000,0.000,0.3270,1,0,-0.49,0.04,1.02,0.0780,-0.1328,0.3263,0.0670,-0.1209,0.3000,0.2618,-4.57,2.48,-16.79,1.5660,0.5480,1.5180,1.6110,2.3700,0,0.0000,0.0000,0.0000,0.0000,0.0000,0
15622,0.0846,-0.1829,0.3256,0.0365,-0.0179,-0.0090,-0.07,0.20,0.45,0,3.716,-4.780,-5.777,-1.128,-0.004,-0.014,1.007,0.000,0.000,0.000,0.3220,0,-1,-0.44,0.39,0.99,0.0773,-0.1347,0.3263,0.0670,-0.1209,0.3000,0.2608,-5.39,3.07,-13.54,1.5660,0.5480,1.5300,1.6040,2.3700,0,0.0000,0.0000,0.0000,0.0000,0.0000,0
15674,0.0870,-0.1845,0.3239,0.0358,-0.0186,-0.0120,-0.18,0.49,0.40,0,3.716,-2.965,-1.345,-1.372,-0.001,-0.014,1.008,0.000,0.000,0.000,0.3220,2,-1,-0.69,0.68,0.92,0.0792,-0.1355,0.3249,0.0670,-0.1209,0.3000,0.2614,-5.52,3.20,-11.87,1.5770,0.5530,1.5300,1.6040,2.3750,0,0.0000,0.0000,0.0000,0.0000,0.0000,0
15726,0.0901,-0.1863,0.3228,0.0344,-0.0193,-0.0104,-0.25,0.64,0.37,0,3.711,2.185,-2.354,0.734,-0.004,-0.012,1.009,0.000,0.000,0.000,0.3190,0,-1,-0.82,0.74,0.83,0.0813,-0.1397,0.3240,0.0670,-0.1209,0.3000,0.2615,-5.68,3.36,-11.10,1.5770,0.5530,1.5330,1.6060,2.3750,0,0.0000,0.0000,0.0000,0.0000,0.0000,0
15776,0.0947,-0.1904,0.3210,0.0348,-0.0238,-0.0137,-0.17,0.74,0.38,0,3.711,-5.306,-2.747,2.711,-0.005,-0.014,1.011,0.000,0.000,0.000,0.3200,0,0,-0.72,0.85,0.87,0.0835,-0.1404,0.3225,0.0670,-0.1209,0.3000,0.2622,-6.16,3.69,-11.40,1.5820,0.5550,1.5330,1.6060,2.3760,0,0.0000,0.0000,0.0000,0.0000,0.0000,0
15828,0.0962,-0.1917,0.3202,0.0280,-0.0227,-0.0096,-0.30,0.87,0.50,0,3.716,-2.184,4.380,4.602,-0.002,-0.019,1.010,0.000,0.000,0.000,0.3190,0,0,-0.99,0.98,1.01,0.0839,-0.1422,0.3218,0.0670,-0.1209,0.3000,0.2619,-6.22,3.48,-14.92,1.5820,0.5550,1.5370,1.5980,2.3760,0,0.0000,0.0000,0.0000,0.0000,0.0000,0
15879,0.0972,-0.1949,0.3195,0.0200,-0.0246,-0.0061,-0.44,0.79,0.70,0,3.716,0.878,3.022,5.380,0.000,-0.018,1.008,0.000,0.000,0.000,0.3210,2,0,-1.10,0.75,1.24,0.0839,-0.1440,0.3212,0.0670,-0.1209,0.3000,0.2616,-6.53,3.17,-20.97,1.5750,0.5620,1.5370,1.5980,2.3760,0,0.0000,0.0000,0.0000,0.0000,0.0000,0
15929,0.0976,-0.2007,0.3200,0.0124,-0.0310,0.0023,-0.40,0.70,0.96,0,3.711,0.711,0.705,6.148,-0.003,-0.017,1.009,0.000,0.000,0.000,0.3170,1,0,-1.05,0.58,1.50,0.0850,-0.1470,0.3215,0.0670,-0.1209,0.3000,0.2606,-7.26,2.86,-28.94,1.5750,0.5620,1.5400,1.5870,2.3760,0,0.0000,0.0000,0.0000,0.0000,0.0000,0
15981,0.0978,-0.2034,0.3189,0.0058,-0.0307,-0.0005,-0.37,0.66,1.26,0,3.716,-1.654,1.997,5.476,-0.005,-0.019,1.004,0.000,0.000,0.000,0.3200,0,0,-1.02,0.54,1.80,0.0848,-0.1496,0.3207,0.0670,-0.1209,0.3000,0.2611,-7.43,2.56,-37.77,1.5640,0.5610,1.5400,1.5870,2.3740,0,0.0000,0.0000,0.0000,0.0000,0.0000,0
16031,0.0990,-0.2069,0.3194,0.0023,-0.0320,0.0048,-0.40,0.59,1.53,0,3.716,-2.627,2.270,5.184,0.001,-0.018,1.005,0.000,0.000,0.000,0.3170,0,0,-1.10,0.43,2.09,0.0841,-0.1517,0.3210,0.0670,-0.1209,0.3000,0.2605,-7.76,2.49,-45.92,1.5640,0.5610,1.5340,1.5830,2.3740,0,0.0000,0.0000,0.0000,0.0000,0.0000,0
16082,0.0987,-0.2105,0.3186,-0.0033,-0.0336,0.0005,-0.44,0.48,1.75,0,3.711,0.979,2.131,3.738,-0.003,-0.017,1.005,0.000,0.000,0.000,0.3170,1,0,-1.24,0.31,2.34,0.0832,-0.1538,0.3203,0.0670,-0.1209,0.3000,0.2611,-8.06,2.19,-52.55,1.5670,0.5700,1.5340,1.5830,2.3800,0,0.0000,0.0000,0.0000,0.0000,0.0000,0
16133,0.0989,-0.2169,0.3180,-0.0063,-0.0409,-0.0004,-0.40,0.34,1.95,0,3.711,-2.982,2.972,3.957,-0.002,-0.017,1.006,0.000,0.000,0.000,0.3180,0,1,-1.21,0.17,2.57,0.0857,-0.1528,0.3199,0.0670,-0.1209,0.3000,0.2613,-8.84,2.06,-58.40,1.5670,0.5700,1.5330,1.5760,2.3800,0,0.0000,0.0000,0.0000,0.0000,0.0000,0
16185,0.0988,-0.2196,0.3180,-0.0090,-0.0390,0.0026,-0.52,0.20,2.15,0,3.711,-4.014,2.829,4.037,0.001,-0.018,1.002,0.000,0.000,0.000,0.3150,2,0,-1.37,0.02,2.76,0.0842,-0.1537,0.3199,0.0670,-0.1209,0.3000,0.2610,-8.95,1.93,-64.46,1.5580,0.5690,1.5330,1.5760,2.3750,0,0.0000,0.0000,0.0000,0.0000,0.0000,0
16236,0.0983,-0.2209,0.3169,-0.0109,-0.0332,-0.0028,-0.72,0.13,2.33,0,3.711,0.025,3.416,1.881,-0.004,-0.012,1.008,0.000,0.000,0.000,0.3170,0,0,-1.55,-0.13,2.96,0.0840,-0.1572,0.3189,0.0670,-0.1209,0.3000,0.2618,-8.75,1.80,-70.05,1.5580,0.5690,1.5330,1.5660,2.3750,0,0.0000,0.0000,0.0000,0.0000,0.0000,0
16287,0.0985,-0.2247,0.3169,-0.0103,-0.0323,0.0010,-0.75,-0.00,2.45,0,3.716,-0.073,2.293,2.170,-0.003,-0.015,1.009,0.000,0.000,0.000,0.3200,1,1,-1.55,-0.31,3.05,0.0833,-0.1585,0.3189,0.0670,-0.1209,0.3000,0.2613,-8.98,1.84,-73.65,1.5580,0.5670,1.5330,1.5660,2.3860,0,0.0000,0.0000,0.0000,0.0000,0.0000,0
16338,0.0970,-0.2282,0.3183,-0.0128,-0.0309,0.0113,-0.71,-0.16,2.56,0,3.711,-1.257,0.822,1.558,-0.005,-0.017,1.007,0.000,0.000,0.000,0.3200,1,0,-1.54,-0.41,3.14,0.0810,-0.1608,0.3200,0.0670,-0.1209,0.3000,0.2600,-9.21,1.63,-76.80,1.5580,0.5670,1.5330,1.5580,2.3860,0,0.0000,0.0000,0.0000,0.0000,0.0000,0
16390,0.0970,-0.2325,0.3194,-0.0102,-0.0316,0.0162,-0.72,-0.22,2.66,0,3.711,1.294,-1.748,1.771,-0.004,-0.020,1.001,0.000,0.000,0.000,0.3230,0,0,-1.60,-0.46,3.22,0.0807,-0.1630,0.3209,0.0670,-0.1209,0.3000,0.2592,-9.57,1.76,-79.87,1.5560,0.5730,1.5330,1.5580,2.3810,0,0.0000,0.0000,0.0000,0.0000,0.0000,0
16442,0.0966,-0.2339,0.3214,-0.0086,-0.0254,0.0235,-0.62,-0.17,2.75,0,3.716,4.524,-1.042,1.484,-0.003,-0.019,0.990,0.000,0.000,0.000,0.3190,0,-1,-1.53,-0.37,3.32,0.0799,-0.1640,0.3226,0.0670,-0.1209,0.3000,0.2581,-9.42,1.81,-82.61,1.5560,0.5730,1.5260,1.5400,2.3810,0,0.0000,0.0000,0.0000,0.0000,0.0000,0
16492,0.0977,-0.2349,0.3211,-0.0038,-0.0197,0.0142,-0.47,-0.18,2.83,0,3.716,0.343,1.277,1.749,-0.002,-0.015,0.997,0.000,0.000,0.000,0.3210,0,0,-1.31,-0.36,3.44,0.0839,-0.1628,0.3222,0.0670,-0.1209,0.3000,0.2591,-9.19,2.11,-85.03,1.5510,0.5730,1.5260,1.5400,2.3830,0,0.0000,0.0000,0.0000,0.0000,0.0000,0
16543,0.0966,-0.2355,0.3214,-0.0046,-0.0150,0.0096,-0.44,-0.21,2.92,0,3.711,1.385,-3.106,3.009,-0.002,-0.021,0.993,0.000,0.000,0.000,0.3230,0,0,-1.29,-0.42,3.53,0.0844,-0.1631,0.3224,0.0670,-0.1209,0.3000,0.2595,-9.01,1.99,-87.72,1.5510,0.5730,1.5350,1.5440,2.3830,0,0.0000,0.0000,0.0000,0.0000,0.0000,0
16595,0.0975,-0.2370,0.3223,-0.0005,-0.0128,0.0080,-0.38,-0.09,3.07,0,3.716,2.755,-1.274,3.400,0.002,-0.015,0.994,0.000,0.000,0.000,0.3200,0,-1,-1.22,-0.27,3.69,0.0850,-0.1632,0.3229,0.0670,-0.1209,0.3000,0.2596,-9.01,2.25,-92.17,1.5560,0.5730,1.5350,1.5440,2.3780,0,0.0000,0.0000,0.0000,0.0000,0.0000,0
16646,0.0997,-0.2375,0.3216,0.0050,-0.0094,0.0000,-0.27,-0.01,3.25,0,3.711,0.846,0.979,4.965,0.001,-0.015,0.996,0.000,0.000,0.000,0.3210,0,0,-1.08,-0.21,3.87,0.0867,-0.1630,0.3221,0.0670,-0.1209,0.3000,0.2606,-8.85,2.67,-97.49,1.5560,0.5730,1.5370,1.5360,2.3780,0,0.0000,0.0000,0.0000,0.0000,0.0000,0
16698,0.1001,-0.2392,0.3213,0.0053,-0.0101,-0.0047,-0.20,-0.03,3.49,0,3.711,-0.596,-0.929,5.037,-0.007,-0.015,0.996,0.000,0.000,0.000,0.3210,0,0,-1.03,-0.27,4.13,0.0878,-0.1629,0.3217,0.0670,-0.1209,0.3000,0.2611,-8.99,2.70,-104.57,1.5590,0.5720,1.5370,1.5360,2.3820,0,0.0000,0.0000,0.0000,0.0000,0.0000,0
16749,0.1028,-0.2420,0.3210,0.0107,-0.0135,-0.0057,-0.15,0.04,3.77,0,3.711,-0.358,-2.064,5.884,-0.004,-0.014,1.002,0.000,0.000,0.000,0.3150,0,-1,-1.06,-0.22,4.39,0.0888,-0.1627,0.3213,0.0670,-0.1209,0.3000,0.2613,-9.33,3.14,-113.00,1.5590,0.5720,1.5340,1.5190,2.3820,0,0.0000,0.0000,0.0000,0.0000,0.0000,0
16800,0.1034,-0.2469,0.3182,0.0107,-0.0214,-0.0210,-0.17,0.17,4.08,0,3.706,-1.307,-0.695,7.290,-0.001,-0.011,1.004,0.000,0.000,0.000,0.3160,1,0,-1.07,-0.12,4.69,0.0899,-0.1630,0.3191,0.0670,-0.1209,0.3000,0.2635,-9.95,3.16,-122.38,1.5580,0.5870,1.5340,1.5190,2.3820,0,0.0000,0.0000,0.0000,0.0000,0.0000,0
16852,0.1048,-0.2513,0.3166,0.0111,-0.0273,-0.0222,-0.28,0.19,4.44,0,3.706,-3.851,0.319,8.425,-0.007,-0.014,1.006,0.000,0.000,0.000,0.3140,0,0,-1.13,-0.09,5.07,0.0907,-0.1640,0.3178,0.0670,-0.1209,0.3000,0.2639,-10.51,3.28,-133.29,1.5580,0.5870,1.5300,1.5010,2.3820,0,0.0000,0.0000,0.0000,0.0000,0.0000,0
16902,0.1060,-0.2540,0.3149,0.0107,-0.0280,-0.0238,-0.45,0.17,4.84,0,3.706,-1.287,-1.089,7.385,-0.006,-0.017,1.010,0.000,0.000,0.000,0.3130,1,0,-1.33,-0.12,5.51,0.0914,-0.1638,0.3163,0.0670,-0.1209,0.3000,0.2644,-10.70,3.33,-145.16,1.5660,0.5840,1.5300,1.5010,2.3840,0,0.0000,0.0000,0.0000,0.0000,0.0000,0
16953,0.1063,-0.2563,0.3134,0.0086,-0.0264,-0.0209,-0.57,0.17,5.22,0,3.700,-31.262,-5.379,7.381,-0.008,-0.014,1.015,0.000,0.000,0.000,0.3130,5,0,-1.37,-0.06,5.88,0.0913,-0.1665,0.3151,0.0670,-0.1209,0.3000,0.2644,-10.79,3.26,-156.67,1.5660,0.5840,1.5270,1.4610,2.3840,0,0.0000,0.0000,0.0000,0.0000,0.0000,0
17004,0.1053,-0.2632,0.3127,0.0035,-0.0330,-0.0136,-2.11,0.44,5.59,0,3.700,-58.964,-10.622,7.676,-0.004,-0.010,1.012,0.000,0.000,0.000,0.3160,5,-1,-2.90,0.20,6.28,0.0923,-0.1739,0.3148,0.0670,-0.1209,0.3000,0.2637,-11.59,2.96,-167.78,1.5780,0.5670,1.5270,1.4610,2.3810,0,0.0000,0.0000,0.0000,0.0000,0.0000,0
17055,0.1054,-0.2663,0.3137,-0.0024,-0.0185,-0.0008,-4.85,0.92,5.98,0,3.706,-18.558,1.120,5.203,-0.002,-0.016,1.016,0.000,0.000,0.000,0.3210,4,0,-5.84,0.69,6.75,0.0950,-0.1825,0.3162,0.0670,-0.1209,0.3000,0.2621,-11.21,2.71,-179.49,1.5780,0.5670,1.5220,1.4370,2.3810,0,0.0000,0.0000,0.0000,0.0000,0.0000,0
17106,0.1074,-0.2730,0.3170,-0.0091,0.0078,0.0217,-5.80,0.91,6.22,0,3.711,-3.421,3.765,3.463,-0.001,-0.023,1.009,0.000,0.000,0.000,0.3240,2,0,-6.73,0.60,6.99,0.0960,-0.1902,0.3191,0.0670,-0.1209,0.3000,0.2591,-10.59,2.56,-186.47,1.5910,0.5590,1.5220,1.4370,2.3960,0,0.0000,0.0000,0.0000,0.0000,0.0000,0
17157,0.1060,-0.2716,0.3208,-0.0232,0.0569,0.0398,-6.09,0.71,6.39,0,3.711,-3.669,-0.276,2.008,-0.006,-0.020,1.002,0.000,0.000,0.000,0.3180,0,0,-6.88,0.39,7.13,0.0963,-0.1941,0.3223,0.0670,-0.1209,0.3000,0.2564,-8.30,1.81,-191.72,1.5910,0.5590,1.5090,1.4190,2.3960,0,0.0000,0.0000,0.0000,0.0000,0.0000,0
17209,0.1030,-0.2609,0.3206,-0.0382,0.1217,0.0270,-6.27,0.72,6.49,0,3.711,14.380,0.492,-0.395,-0.008,-0.018,1.001,0.000,0.000,0.000,0.3170,-4,0,-7.07,0.39,7.23,0.0956,-0.1927,0.3226,0.0670,-0.1209,0.3000,0.2578,-4.42,0.87,-194.71,1.6010,0.5590,1.5090,1.4190,2.3930,0,0.0000,0.0000,0.0000,0.0000,0.0000,0
17259,0.1017,-0.2534,0.3199,-0.0485,0.1740,0.0143,-5.73,0.72,6.48,0,3.706,25.957,4.003,-1.253,-0.008,-0.029,0.996,0.000,0.000,0.000,0.3120,-5,1,-6.35,0.34,7.36,0.0960,-0.1833,0.3216,0.0670,-0.1209,0.3000,0.2593,-1.38,0.28,-194.34,1.6010,0.5590,1.4990,1.4190,2.3930,0,0.0000,0.0000,0.0000,0.0000,0.0000,0
17310,0.0994,-0.2386,0.3168,-0.0590,0.2309,-0.0094,-4.62,0.59,6.40,0,3.706,25.751,3.513,-1.264,-0.002,-0.027,1.001,0.000,0.000,0.000,0.3080,-7,1,-5.09,0.16,7.21,0.0920,-0.1714,0.3188,0.0670,-0.1209,0.3000,0.2625,2.37,-0.39,-192.12,1.6050,0.5730,1.4990,1.4190,2.3910,0,0.0000,0.0000,0.0000,0.0000,0.0000,0
17361,0.0955,-0.2249,0.3128,-0.0694,0.2699,-0.0291,-3.30,0.42,6.32,0,3.700,30.024,1.483,-1.848,-0.006,-0.030,1.011,0.000,0.000,0.000,0.3080,-11,2,-3.84,0.00,7.09,0.0872,-0.1541,0.3146,0.0670,-0.1209,0.3000,0.2654,5.11,-1.14,-189.51,1.6050,0.5730,1.4740,1.4510,2.3910,0,0.0000,0.0000,0.0000,0.0000,0.0000,0
17413,0.0932,-0.2125,0.3099,-0.0727,0.2919,-0.0342,-1.83,0.30,6.20,0,3.695,26.574,1.492,-0.649,-0.003,-0.023,1.016,0.000,0.000,0.000,0.3070,-4,1,-2.42,-0.04,6.84,0.0784,-0.1263,0.3102,0.0670,-0.1209,0.3000,0.2664,6.95,-1.45,-186.14,1.6040,0.5740,1.4740,1.4510,2.3960,0,0.0000,0.0000,0.0000,0.0000,0.0000,0
17464,0.0898,-0.1995,0.3077,-0.0757,0.3001,-0.0294,-0.40,0.18,6.16,0,3.695,23.755,2.996,-0.145,-0.001,-0.026,1.017,0.000,0.000,0.000,0.3060,-6,1,-1.01,-0.11,6.78,0.0739,-0.1141,0.3095,0.0670,-0.1209,0.3000,0.2663,8.21,-1.82,-184.88,1.6040,0.5740,1.4520,1.4790,2.3960,0,0.0000,0.0000,0.0000,0.0000,0.0000,0
17516,0.0862,-0.1881,0.3063,-0.0767,0.2926,-0.0221,0.90,0.03,6.14,0,3.700,15.638,4.100,0.046,-0.003,-0.028,1.010,0.000,0.000,0.000,0.3080,0,0,0.19,-0.26,6.76,0.0688,-0.0965,0.3082,0.0670,-0.1209,0.3000,0.2658,8.67,-2.13,-184.12,1.6070,0.5510,1.4520,1.4790,2.3980,0,0.0000,0.0000,0.0000,0.0000,0.0000,0
17567,0.0826,-0.1739,0.3064,-0.0751,0.2827,-0.0111,1.80,-0.16,6.10,0,3.700,13.807,3.881,-0.760,-0.001,-0.032,1.018,0.000,0.000,0.000,0.3050,-6,1,1.00,-0.48,6.76,0.0644,-0.0817,0.3083,0.0670,-0.1209,0.3000,0.2646,9.22,-2.31,-183.03,1.6070,0.5510,1.4330,1.5040,2.3980,0,0.0000,0.0000,0.0000,0.0000,0.0000,0
17618,0.0783,-0.1622,0.3056,-0.0728,0.2609,-0.0063,2.52,-0.34,6.07,0,3.700,12.095,2.835,-0.447,-0.005,-0.025,1.016,0.000,0.000,0.000,0.3030,-3,1,1.79,-0.69,6.78,0.0644,-0.0808,0.3088,0.0670,-0.1209,0.3000,0.2643,9.04,-2.51,-181.96,1.6110,0.5350,1.4330,1.5040,2.4090,0,0.0000,0.0000,0.0000,0.0000,0.0000,0
17670,0.0751,-0.1524,0.3045,-0.0662,0.2315,-0.0028,3.17,-0.54,6.06,0,3.700,6.678,0.542,1.104,0.002,-0.022,1.013,0.000,0.000,0.000,0.3060,-1,0,2.41,-0.83,6.76,0.0607,-0.0720,0.3079,0.0670,-0.1209,0.3000,0.2641,8.37,-2.43,-181.75,1.6110,0.5350,1.4180,1.5260,2.4090,0,0.0000,0.0000,0.0000,0.0000,0.0000,0
17721,0.0729,-0.1449,0.3052,-0.0560,0.1955,0.0084,3.52,-0.63,6.11,0,3.706,-2.181,-0.135,1.659,-0.004,-0.024,1.005,0.000,0.000,0.000,0.3020,-2,2,2.78,-0.86,6.83,0.0599,-0.0680,0.3083,0.0670,-0.1209,0.3000,0.2627,7.27,-2.12,-183.44,1.6150,0.5380,1.4180,1.5260,2.4130,0,0.0000,0.0000,0.0000,0.0000,0.0000,0
17771,0.0698,-0.1365,0.3042,-0.0488,0.1638,0.0046,3.52,-0.66,6.18,0,3.700,-5.896,-0.425,0.908,0.004,-0.022,1.009,0.000,0.000,0.000,0.3030,0,0,2.67,-0.82,7.00,0.0543,-0.0630,0.3072,0.0670,-0.1209,0.3000,0.2633,6.37,-1.99,-185.49,1.6150,0.5380,1.4040,1.5480,2.4130,0,0.0000,0.0000,0.0000,0.0000,0.0000,0
17822,0.0683,-0.1305,0.3039,-0.0379,0.1309,0.0052,3.28,-0.66,6.23,0,3.700,-7.139,0.323,0.644,-0.002,-0.016,1.016,0.000,0.000,0.000,0.3070,-4,1,2.38,-0.79,7.05,0.0525,-0.0595,0.3068,0.0670,-0.1209,0.3000,0.2633,5.26,-1.58,-186.82,1.6260,0.5310,1.4040,1.5480,2.4040,0,0.0000,0.0000,0.0000,0.0000,0.0000,0
17873,0.0656,-0.1239,0.3054,-0.0322,0.1064,0.0163,2.98,-0.64,6.26,0,3.700,-6.618,0.131,-0.511,-0.002,-0.013,1.013,0.000,0.000,0.000,0.3070,0,0,1.95,-0.80,7.04,0.0488,-0.0479,0.3081,0.0670,-0.1209,0.3000,0.2618,4.61,-1.51,-187.76,1.6260,0.5310,1.3940,1.5490,2.4040,0,0.0000,0.0000,0.0000,0.0000,0.0000,0
17924,0.0647,-0.1221,0.3067,-0.0226,0.0740,0.0229,2.59,-0.60,6.23,0,3.706,-8.177,1.146,-0.624,-0.005,-0.011,1.004,0.000,0.000,0.000,0.3040,0,0,1.62,-0.81,7.02,0.0474,-0.0451,0.3091,0.0670,-0.1209,0.3000,0.2609,3.22,-1.13,-187.01,1.6270,0.5360,1.3940,1.5490,2.3990,0,0.0000,0.0000,0.0000,0.0000,0.0000,0
17976,0.0636,-0.1206,0.3063,-0.0151,0.0483,0.0176,2.23,-0.66,6.19,0,3.700,-10.582,0.086,-1.333,0.003,-0.010,1.003,0.000,0.000,0.000,0.3060,0,0,1.20,-0.87,6.99,0.0464,-0.0432,0.3089,0.0670,-0.1209,0.3000,0.2615,2.11,-0.84,-185.83,1.6270,0.5360,1.3900,1.5600,2.3990,0,0.0000,0.0000,0.0000,0.0000,0.0000,0
18026,0.0635,-0.1207,0.3067,-0.0063,0.0252,0.0146,1.79,-0.67,6.14,0,3.706,-11.813,-1.354,-1.765,0.001,-0.015,0.989,0.000,0.000,0.000,0.3060,0,0,0.65,-0.88,6.92,0.0460,-0.0421,0.3092,0.0670,-0.1209,0.3000,0.2618,1.00,-0.44,-184.11,1.6220,0.5320,1.3900,1.5600,2.4000,0,0.0000,0.0000,0.0000,0.0000,0.0000,0
18077,0.0637,-0.1239,0.3068,0.0016,0.0009,0.0084,1.21,-0.61,6.06,0,3.695,-13.154,-0.876,-1.649,-0.001,-0.015,1.001,0.000,0.000,0.000,0.3070,1,0,0.06,-0.81,6.83,0.0461,-0.0415,0.3091,0.0670,-0.1209,0.3000,0.2624,-0.37,-0.05,-181.77,1.6220,0.5320,1.3850,1.5730,2.4000,0,0.0000,0.0000,0.0000,0.0000,0.0000,0
18129,0.0662,-0.1280,0.3071,0.0135,-0.0180,0.0058,0.68,-0.49,5.95,0,3.700,-10.333,-2.364,-2.858,-0.002,-0.017,1.002,0.000,0.000,0.000,0.3050,7,-2,-0.59,-0.75,6.85,0.0447,-0.0452,0.3092,0.0670,-0.1209,0.3000,0.2627,-1.55,0.69,-178.36,1.6230,0.5360,1.3850,1.5730,2.3880,0,0.0000,0.0000,0.0000,0.0000,0.0000,0
18180,0.0683,-0.1332,0.3064,0.0215,-0.0335,0.0012,0.15,-0.35,5.81,0,3.695,-10.948,-5.807,-2.620,-0.001,-0.006,1.003,0.000,0.000,0.000,0.3040,1,-1,-1.08,-0.64,6.73,0.0472,-0.0510,0.3085,0.0670,-0.1209,0.3000,0.2633,-2.64,1.21,-174.16,1.6230,0.5360,1.3880,1.5810,2.3880,0,0.0000,0.0000,0.0000,0.0000,0.0000,0
18232,0.0688,-0.1338,0.3054,0.0226,-0.0306,-0.0030,-0.41,-0.11,5.67,0,3.695,-12.593,-4.484,-2.476,0.002,-0.011,1.001,0.000,0.000,0.000,0.3040,1,0,-1.64,-0.34,6.60,0.0491,-0.0530,0.3077,0.0670,-0.1209,0.3000,0.2639,-2.54,1.29,-169.99,1.6220,0.5380,1.3880,1.5810,2.3890,0,0.0000,0.0000,0.0000,0.0000,0.0000,0
18283,0.0706,-0.1385,0.3047,0.0244,-0.0343,-0.0053,-0.97,0.10,5.56,0,3.695,-10.157,-3.335,-1.862,-0.001,-0.016,1.012,0.000,0.000,0.000,0.3040,2,0,-2.29,-0.10,6.49,0.0501,-0.0550,0.3070,0.0670,-0.1209,0.3000,0.2643,-3.04,1.50,-166.73,1.6220,0.5380,1.3870,1.5930,2.3890,0,0.0000,0.0000,0.0000,0.0000,0.0000,0
18335,0.0733,-0.1413,0.3043,0.0259,-0.0286,-0.0038,-1.42,0.29,5.46,0,3.695,-4.972,-5.149,-1.156,-0.004,-0.017,1.014,0.000,0.000,0.000,0.3050,4,-2,-2.78,0.08,6.43,0.0511,-0.0584,0.3067,0.0670,-0.1209,0.3000,0.2642,-2.97,1.76,-163.72,1.6320,0.5450,1.3870,1.5930,2.3930,0,0.0000,0.0000,0.0000,0.0000,0.0000,0
18386,0.0770,-0.1454,0.3045,0.0280,-0.0237,0.0027,-1.70,0.51,5.40,0,3.695,-1.935,-4.072,-0.440,-0.000,-0.012,1.013,0.000,0.000,0.000,0.3020,0,-1,-2.98,0.32,6.44,0.0557,-0.0651,0.3072,0.0670,-0.1209,0.3000,0.2635,-3.04,2.12,-162.11,1.6320,0.5450,1.3920,1.5970,2.3930,0,0.0000,0.0000,0.0000,0.0000,0.0000,0
18438,0.0788,-0.1457,0.3036,0.0234,-0.0075,0.0017,-1.88,0.70,5.36,0,3.695,0.767,-2.984,-1.096,-0.003,-0.010,1.005,0.000,0.000,0.000,0.3030,0,0,-3.09,0.52,6.44,0.0583,-0.0653,0.3067,0.0670,-0.1209,0.3000,0.2637,-2.30,2.04,-160.85,1.6240,0.5430,1.3920,1.5970,2.3980,0,0.0000,0.0000,0.0000,0.0000,0.0000,0
18488,0.0814,-0.1451,0.3034,0.0199,0.0093,0.0029,-1.89,0.83,5.30,0,3.695,3.674,-3.046,-0.046,0.002,-0.019,1.004,0.000,0.000,0.000,0.3030,-3,0,-3.05,0.68,6.39,0.0597,-0.0653,0.3065,0.0670,-0.1209,0.3000,0.2636,-1.47,2.06,-158.97,1.6240,0.5430,1.3920,1.5920,2.3980,0,0.0000,0.0000,0.0000,0.0000,0.0000,0
18540,0.0830,-0.1435,0.3034,0.0131,0.0269,0.0039,-1.81,0.95,5.28,0,3.695,5.307,-1.105,-1.179,0.002,-0.018,1.013,0.000,0.000,0.000,0.3040,-1,0,-2.93,0.85,6.37,0.0572,-0.0563,0.3060,0.0670,-0.1209,0.3000,0.2636,-0.53,1.85,-158.29,1.6310,0.5430,1.3920,1.5920,2.3940,0,0.0000,0.0000,0.0000,0.0000,0.0000,0
18592,0.0840,-0.1416,0.3038,0.0052,0.0410,0.0099,-1.48,0.97,5.22,0,3.695,9.919,0.702,-1.129,0.002,-0.010,1.014,0.000,0.000,0.000,0.3050,-4,0,-2.65,0.91,6.30,0.0569,-0.0531,0.3065,0.0670,-0.1209,0.3000,0.2628,0.26,1.55,-156.52,1.6310,0.5430,1.3920,1.5890,2.3940,0,0.0000,0.0000,0.0000,0.0000,0.0000,0
18644,0.0838,-0.1368,0.3047,-0.0050,0.0589,0.0170,-1.07,0.96,5.15,0,3.700,9.885,0.918,-1.894,-0.002,-0.014,1.007,0.000,0.000,0.000,0.3070,-2,1,-2.17,0.88,6.29,0.0558,-0.0433,0.3069,0.0670,-0.1209,0.3000,0.2619,1.45,1.06,-154.53,1.6280,0.5430,1.3920,1.5890,2.3920,0,0.0000,0.0000,0.0000,0.0000,0.0000,0
18694,0.0835,-0.1330,0.3063,-0.0134,0.0681,0.0225,-0.60,0.95,5.07,0,3.695,8.702,1.442,-1.331,0.001,-0.016,1.004,0.000,0.000,0.000,0.3090,-2,0,-1.66,0.85,6.15,0.0528,-0.0377,0.3082,0.0670,-0.1209,0.3000,0.2610,2.16,0.65,-151.98,1.6280,0.5430,1.3870,1.6020,2.3920,0,0.0000,0.0000,0.0000,0.0000,0.0000,0
18746,0.0830,-0.1292,0.3081,-0.0210,0.0726,0.0278,-0.15,0.88,4.97,0,3.700,10.515,3.880,-1.012,0.004,-0.022,0.998,0.000,0.000,0.000,0.3070,-1,0,-1.22,0.77,6.10,0.0517,-0.0312,0.3100,0.0670,-0.1209,0.3000,0.2601,2.66,0.25,-149.25,1.6280,0.5430,1.3870,1.6020,2.3990,0,0.0000,0.0000,0.0000,0.0000,0.0000,0
18798,0.0820,-0.1259,0.3086,-0.0276,0.0711,0.0214,0.37,0.68,4.92,0,3.695,5.596,4.958,-1.414,0.003,-0.020,0.995,0.000,0.000,0.000,0.3090,-2,2,-0.65,0.56,6.03,0.0511,-0.0276,0.3107,0.0670,-0.1209,0.3000,0.2607,2.82,-0.13,-147.64,1.6280,0.5430,1.3820,1.6150,2.3990,0,0.0000,0.0000,0.0000,0.0000,0.0000,0
18850,0.0802,-0.1211,0.3092,-0.0334,0.0733,0.0187,0.68,0.43,4.86,0,3.700,5.935,5.111,-2.070,0.003,-0.026,0.997,0.000,0.000,0.000,0.3100,-2,0,-0.36,0.33,5.91,0.0450,-0.0222,0.3113,0.0670,-0.1209,0.3000,0.2609,3.25,-0.54,-145.85,1.6260,0.5430,1.3820,1.6150,2.4010,0,0.0000,0.0000,0.0000,0.0000,0.0000,0
18901,0.0773,-0.1169,0.3101,-0.0394,0.0690,0.0166,0.95,0.21,4.77,0,3.695,6.342,5.703,-2.745,0.001,-0.022,0.996,0.000,0.000,0.000,0.3110,0,2,-0.06,0.05,5.82,0.0442,-0.0163,0.3119,0.0670,-0.1209,0.3000,0.2609,3.34,-1.02,-142.97,1.6260,0.5430,1.3800,1.6160,2.4010,0,0.0000,0.0000,0.0000,0.0000,0.0000,0
18952,0.0747,-0.1116,0.3111,-0.0409,0.0621,0.0157,1.33,-0.06,4.62,0,3.700,7.329,2.320,-4.699,0.001,-0.018,1.005,0.000,0.000,0.000,0.3080,-4,1,0.29,-0.21,5.64,0.0385,-0.0163,0.3126,0.0670,-0.1209,0.3000,0.2608,3.40,-1.28,-138.56,1.6170,0.5410,1.3800,1.6160,2.3930,0,0.0000,0.0000,0.0000,0.0000,0.0000,0
19002,0.0729,-0.1082,0.3102,-0.0387,0.0518,0.0084,1.62,-0.20,4.42,0,3.690,1.769,2.100,-5.041,0.002,-0.012,0.999,0.000,0.000,0.000,0.3080,-1,0,0.61,-0.33,5.45,0.0344,-0.0052,0.3120,0.0670,-0.1209,0.3000,0.2618,3.14,-1.30,-132.49,1.6170,0.5410,1.3790,1.6360,2.3930,0,0.0000,0.0000,0.0000,0.0000,0.0000,0
19054,0.0702,-0.1048,0.3095,-0.0378,0.0403,0.0027,1.82,-0.27,4.16,0,3.695,0.527,3.800,-6.228,0.001,-0.013,0.999,0.000,0.000,0.000,0.3060,-1,0,0.71,-0.45,5.18,0.0339,-0.0020,0.3115,0.0670,-0.1209,0.3000,0.2625,2.83,-1.44,-124.73,1.6160,0.5390,1.3790,1.6360,2.3960,0,0.0000,0.0000,0.0000,0.0000,0.0000,0
19105,0.0694,-0.1028,0.3081,-0.0315,0.0257,-0.0049,1.87,-0.48,3.86,0,3.690,-2.273,2.458,-7.114,0.000,-0.013,1.005,0.000,0.000,0.000,0.3080,0,0,0.73,-0.66,4.84,0.0337,0.0009,0.3103,0.0670,-0.1209,0.3000,0.2636,2.28,-1.20,-115.83,1.6160,0.5390,1.3820,1.6490,2.3960,0,0.0000,0.0000,0.0000,0.0000,0.0000,0
19155,0.0673,-0.1029,0.3079,-0.0276,0.0074,-0.0029,1.78,-0.62,3.51,0,3.690,-6.383,-0.280,-7.076,0.002,-0.017,1.004,0.000,0.000,0.000,0.3070,1,0,0.61,-0.79,4.48,0.0324,0.0035,0.3100,0.0670,-0.1209,0.3000,0.2634,1.41,-1.16,-105.41,1.6030,0.5400,1.3820,1.6490,2.3950,0,0.0000,0.0000,0.0000,0.0000,0.0000,0
19206,0.0676,-0.1061,0.3075,-0.0175,-0.0151,-0.0023,1.51,-0.65,3.16,0,3.690,-10.506,-1.778,-6.764,0.000,-0.018,1.009,0.000,0.000,0.000,0.3090,1,0,0.35,-0.80,4.11,0.0345,-0.0044,0.3095,0.0670,-0.1209,0.3000,0.2634,0.13,-0.67,-94.71,1.6030,0.5400,1.3850,1.6580,2.3950,0,0.0000,0.0000,0.0000,0.0000,0.0000,0
19257,0.0674,-0.1089,0.3082,-0.0099,-0.0314,0.0070,1.06,-0.63,2.83,0,3.695,-7.230,-1.670,-5.945,0.003,-0.018,1.013,0.000,0.000,0.000,0.3090,1,-1,-0.18,-0.71,3.77,0.0346,-0.0069,0.3098,0.0670,-0.1209,0.3000,0.2623,-0.84,-0.33,-84.80,1.5990,0.5410,1.3850,1.6580,2.3940,0,0.0000,0.0000,0.0000,0.0000,0.0000,0
19308,0.0678,-0.1133,0.3088,-0.0021,-0.0458,0.0132,0.65,-0.54,2.53,0,3.690,-10.948,-1.882,-4.739,-0.001,-0.010,1.010,0.000,0.000,0.000,0.3100,4,-2,-0.54,-0.63,3.45,0.0373,-0.0094,0.3103,0.0670,-0.1209,0.3000,0.2615,-1.83,0.07,-75.87,1.5990,0.5410,1.3970,1.6720,2.3940,0,0.0000,0.0000,0.0000,0.0000,0.0000,0
19359,0.0695,-0.1173,0.3097,0.0061,-0.0553,0.0189,0.13,-0.45,2.30,0,3.695,-10.229,-1.741,-3.971,0.006,-0.017,1.005,0.000,0.000,0.000,0.3070,4,-1,-1.04,-0.56,3.20,0.0432,-0.0196,0.3111,0.0670,-0.1209,0.3000,0.2607,-2.58,0.58,-68.87,1.5890,0.5400,1.3970,1.6720,2.3970,0,0.0000,0.0000,0.0000,0.0000,0.0000,0
19410,0.0704,-0.1207,0.3091,0.0112,-0.0579,0.0123,-0.40,-0.35,2.11,0,3.684,-8.017,-4.296,-2.707,-0.001,-0.011,1.002,0.000,0.000,0.000,0.3070,0,0,-1.52,-0.47,3.04,0.0468,-0.0304,0.3107,0.0670,-0.1209,0.3000,0.2615,-2.93,0.88,-63.24,1.5890,0.5400,1.4080,1.6810,2.3970,0,0.0000,0.0000,0.0000,0.0000,0.0000,0
19461,0.0726,-0.1251,0.3086,0.0180,-0.0581,0.0090,-0.81,-0.17,1.97,0,3.695,-7.046,-6.197,-1.936,0.001,-0.017,1.001,0.000,0.000,0.000,0.3070,1,-1,-1.93,-0.25,2.91,0.0496,-0.0346,0.3106,0.0670,-0.1209,0.3000,0.2620,-3.24,1.35,-59.09,1.5910,0.5460,1.4080,1.6810,2.3890,0,0.0000,0.0000,0.0000,0.0000,0.0000,0
19512,0.0744,-0.1302,0.3082,0.0215,-0.0574,0.0036,-1.15,0.11,1.90,0,3.690,-8.815,-5.961,0.060,0.002,-0.009,1.008,0.000,0.000,0.000,0.3090,0,-1,-2.32,0.09,2.80,0.0489,-0.0322,0.3105,0.0670,-0.1209,0.3000,0.2627,-3.56,1.65,-57.04,1.5910,0.5460,1.4190,1.6780,2.3890,0,0.0000,0.0000,0.0000,0.0000,0.0000,0
19564,0.0764,-0.1315,0.3088,0.0212,-0.0408,0.0080,-1.55,0.38,1.90,0,3.695,-2.200,-4.739,0.536,0.000,-0.016,1.000,0.000,0.000,0.000,0.3110,2,-2,-2.78,0.39,2.81,0.0518,-0.0326,0.3109,0.0670,-0.1209,0.3000,0.2621,-2.88,1.78,-57.02,1.5930,0.5460,1.4190,1.6780,2.3920,0,0.0000,0.0000,0.0000,0.0000,0.0000,0
19615,0.0791,-0.1376,0.3099,0.0229,-0.0413,0.0135,-1.74,0.57,1.95,0,3.684,-1.453,-3.279,0.622,-0.001,-0.016,1.005,0.000,0.000,0.000,0.3080,1,-1,-2.87,0.62,2.88,0.0572,-0.0372,0.3119,0.0670,-0.1209,0.3000,0.2613,-3.34,2.05,-58.62,1.5930,0.5460,1.4260,1.6700,2.3920,0,0.0000,0.0000,0.0000,0.0000,0.0000,0
19666,0.0807,-0.1388,0.3095,0.0190,-0.0249,0.0104,-1.84,0.72,1.99,0,3.695,0.085,-2.270,0.279,0.000,-0.017,0.998,0.000,0.000,0.000,0.3110,0,-1,-2.93,0.78,2.92,0.0602,-0.0396,0.3117,0.0670,-0.1209,0.3000,0.2617,-2.65,1.98,-59.62,1.6010,0.5510,1.4260,1.6700,2.3860,0,0.0000,0.0000,0.0000,0.0000,0.0000,0
19717,0.0823,-0.1389,0.3105,0.0141,-0.0076,0.0122,-1.86,0.84,2.00,0,3.695,6.030,0.169,-0.013,-0.001,-0.014,1.001,0.000,0.000,0.000,0.3110,0,0,-2.93,0.89,2.96,0.0632,-0.0394,0.3122,0.0670,-0.1209,0.3000,0.2613,-1.84,1.86,-60.14,1.6010,0.5510,1.4280,1.6670,2.3860,0,0.0000,0.0000,0.0000,0.0000,0.0000,0
19768,0.0850,-0.1398,0.3110,0.0120,0.0055,0.0122,-1.57,0.85,1.99,0,3.695,6.448,-1.354,-0.644,-0.001,-0.017,0.992,0.000,0.000,0.000,0.3090,-2,0,-2.62,0.88,2.95,0.0650,-0.0386,0.3125,0.0670,-0.1209,0.3000,0.2612,-1.29,1.96,-59.77,1.6000,0.5520,1.4280,1.6670,2.3930,0,0.0000,0.0000,0.0000,0.0000,0.0000,0
19820,0.0861,-0.1376,0.3105,0.0060,0.0228,0.0059,-1.28,0.92,1.95,0,3.690,4.254,-2.172,-1.915,0.005,-0.021,1.001,0.000,0.000,0.000,0.3070,-1,0,-2.32,0.97,2.89,0.0623,-0.0330,0.3117,0.0670,-0.1209,0.3000,0.2620,-0.31,1.75,-58.48,1.6000,0.5520,1.4270,1.6730,2.3930,0,0.0000,0.0000,0.0000,0.0000,0.0000,0
19871,0.0870,-0.1366,0.3092,-0.0003,0.0325,-0.0051,-0.99,0.99,1.86,0,3.690,7.881,1.445,-0.973,-0.002,-0.014,0.999,0.000,0.000,0.000,0.3100,-2,1,-2.10,1.09,2.79,0.0623,-0.0301,0.3105,0.0670,-0.1209,0.3000,0.2634,0.22,1.51,-55.93,1.6070,0.5570,1.4270,1.6730,2.3930,0,0.0000,0.0000,0.0000,0.0000,0.0000,0
19922,0.0871,-0.1306,0.3094,-0.0083,0.0512,-0.0019,-0.67,0.93,1.81,0,3.690,12.151,-0.679,-0.910,0.002,-0.024,1.002,0.000,0.000,0.000,0.3100,-3,1,-1.71,1.04,2.72,0.0597,-0.0248,0.3103,0.0670,-0.1209,0.3000,0.2630,1.52,1.14,-54.39,1.6070,0.5570,1.4260,1.6630,2.3930,0,0.0000,0.0000,0.0000,0.0000,0.0000,0
19974,0.0863,-0.1285,0.3096,-0.0170,0.0552,0.0004,-0.15,0.93,1.78,0,3.690,8.748,0.689,0.142,-0.003,-0.016,1.006,0.000,0.000,0.000,0.3100,-1,0,-1.12,1.08,2.70,0.0566,-0.0166,0.3101,0.0670,-0.1209,0.3000,0.2627,1.85,0.67,-53.31,1.6030,0.5520,1.4260,1.6630,2.3850,0,0.0000,0.0000,0.0000,0.0000,0.0000,0
20025,0.0856,-0.1239,0.3098,-0.0241,0.0605,0.0039,0.28,0.91,1.79,0,3.690,8.155,3.143,0.271,0.002,-0.023,0.997,0.000,0.000,0.000,0.3110,0,0,-0.65,1.04,2.71,0.0561,-0.0133,0.3103,0.0670,-0.1209,0.3000,0.2623,2.43,0.29,-53.68,1.6030,0.5520,1.4210,1.6730,2.3850,0,0.0000,0.0000,0.0000,0.0000,0.0000,0
20076,0.0844,-0.1188,0.3105,-0.0315,0.0632,0.0071,0.66,0.77,1.81,0,3.690,7.867,5.653,0.261,-0.000,-0.021,1.001,0.000,0.000,0.000,0.3080,0,0,-0.23,0.88,2.72,0.0539,-0.0091,0.3107,0.0670,-0.1209,0.3000,0.2619,2.93,-0.14,-54.35,1.6020,0.5510,1.4210,1.6730,2.3950,0,0.0000,0.0000,0.0000,0.0000,0.0000,0
20127,0.0822,-0.1149,0.3096,-0.0390,0.0592,0.0004,1.11,0.57,1.82,0,3.690,8.221,5.168,1.057,0.000,-0.021,1.003,0.000,0.000,0.000,0.3100,-5,3,0.17,0.59,2.73,0.0514,-0.0054,0.3100,0.0670,-0.1209,0.3000,0.2627,3.00,-0.65,-54.52,1.6020,0.5510,1.4210,1.6720,2.3950,0,0.0000,0.0000,0.0000,0.0000,0.0000,0
20178,0.0784,-0.1094,0.3098,-0.0477,0.0569,0.0023,1.44,0.37,1.86,0,3.690,1.911,2.034,0.644,0.000,-0.016,0.997,0.000,0.000,0.000,0.3080,1,0,0.54,0.34,2.87,0.0463,0.0052,0.3100,0.0670,-0.1209,0.3000,0.2625,3.29,-1.32,-55.66,1.5970,0.5520,1.4210,1.6720,2.3830,0,0.0000,0.0000,0.0000,0.0000,0.0000,0
20229,0.0766,-0.1078,0.3091,-0.0490,0.0420,-0.0017,1.61,0.24,1.89,0,3.684,3.470,4.575,1.537,0.007,-0.021,1.000,0.000,0.000,0.000,0.3080,0,1,0.66,0.22,2.85,0.0448,0.0055,0.3096,0.0670,-0.1209,0.3000,0.2631,2.70,-1.51,-56.76,1.5970,0.5520,1.4130,1.6670,2.3830,0,0.0000,0.0000,0.0000,0.0000,0.0000,0
20280,0.0729,-0.1055,0.3086,-0.0535,0.0293,-0.0037,1.75,0.03,1.96,0,3.690,0.073,7.352,1.840,0.003,-0.014,1.002,0.000,0.000,0.000,0.3110,1,1,0.85,-0.01,2.93,0.0419,0.0064,0.3090,0.0670,-0.1209,0.3000,0.2634,2.26,-1.98,-58.73,1.5960,0.5480,1.4130,1.6670,2.3940,0,0.0000,0.0000,0.0000,0.0000,0.0000,0
20332,0.0707,-0.1062,0.3095,-0.0521,0.0101,0.0022,1.78,-0.30,2.05,0,3.690,-7.271,4.485,2.285,0.001,-0.009,1.003,0.000,0.000,0.000,0.3070,3,1,0.87,-0.38,3.01,0.0390,0.0049,0.3095,0.0670,-0.1209,0.3000,0.2626,1.31,-2.08,-61.50,1.5960,0.5480,1.4130,1.6680,2.3940,0,0.0000,0.0000,0.0000,0.0000,0.0000,0
20383,0.0690,-0.1111,0.3085,-0.0474,-0.0168,-0.0030,1.58,-0.50,2.17,0,3.690,-9.919,0.940,3.236,0.005,-0.010,0.998,0.000,0.000,0.000,0.3060,5,0,0.55,-0.61,3.12,0.0365,-0.0017,0.3087,0.0670,-0.1209,0.3000,0.2633,-0.30,-1.98,-65.09,1.5850,0.5440,1.4130,1.6680,2.3900,0,0.0000,0.0000,0.0000,0.0000,0.0000,0
20435,0.0685,-0.1172,0.3074,-0.0384,-0.0418,-0.0086,1.15,-0.56,2.36,0,3.684,-12.813,2.044,6.211,0.002,-0.014,0.999,0.000,0.000,0.000,0.3090,5,0,0.11,-0.67,3.24,0.0367,-0.0137,0.3074,0.0670,-0.1209,0.3000,0.2641,-1.90,-1.58,-70.94,1.5850,0.5440,1.4150,1.6610,2.3900,0,0.0000,0.0000,0.0000,0.0000,0.0000,0
20487,0.0672,-0.1204,0.3069,-0.0322,-0.0534,-0.0109,0.58,-0.66,2.61,0,3.684,-14.431,0.305,5.525,0.005,-0.023,1.002,0.000,0.000,0.000,0.3070,2,0,-0.49,-0.79,3.55,0.0372,-0.0269,0.3072,0.0670,-0.1209,0.3000,0.2645,-2.67,-1.38,-78.29,1.5860,0.5490,1.4150,1.6610,2.4020,0,0.0000,0.0000,0.0000,0.0000,0.0000,0
