time_ms,pos_x,pos_y,pos_z,vel_x,vel_y,vel_z,roll,pitch,yaw,thrust,vbat,gyro_x,gyro_y,gyro_z,acc_x,acc_y,acc_z,rate_roll,rate_pitch,rate_yaw,range_z,flow_dx,flow_dy,mekf_roll,mekf_pitch,mekf_yaw,mekf_x,mekf_y,mekf_z,our_ref_x,our_ref_y,our_ref_z,our_thrust,our_roll_cmd,our_pitch_cmd,our_yaw_rate_cmd,multi_front,multi_back,multi_left,multi_right,multi_up,ai_feat_count,vo_x,vo_y,vo_sigma,pg_x,pg_y,lc_count
0,1.0417,-2.7910,0.0101,-0.0110,-0.0083,0.0063,1.41,0.19,-3.15,0,3.695,0.533,-0.551,-0.031,-0.003,0.021,1.002,0.000,0.000,0.000,0.0130,0,0,0.00,0.00,0.00,0.0000,0.0000,0.0000,0.0000,0.0000,0.0000,0.0000,0.00,0.00,0.00,2.1030,0.2110,1.1070,0.1990,2.7090,242,0.0000,0.0000,0.0000,0.0000,0.0000,0
101,1.0410,-2.7912,0.0116,-0.0139,-0.0091,0.0126,1.42,0.18,-3.14,0,3.690,0.340,-0.443,-0.095,-0.004,0.019,1.001,0.000,0.000,0.000,0.0130,0,1,0.00,0.00,0.00,0.0000,0.0000,0.0000,0.0000,0.0000,0.0000,0.0000,0.00,0.00,0.00,2.1030,0.2110,1.1090,0.1900,2.7090,236,0.0000,0.0000,0.0000,0.0000,0.0000,0
202,1.0410,-2.7912,0.0126,-0.0134,-0.0089,0.0160,1.41,0.17,-3.12,0,3.695,0.185,-0.614,-0.086,-0.003,0.019,1.002,0.000,0.000,0.000,0.0120,0,0,0.00,0.00,0.00,0.0000,0.0000,0.0000,0.0000,0.0000,0.0000,0.0000,0.00,0.00,0.00,2.0640,0.2100,1.1090,0.1900,2.6960,249,0.0000,0.0000,0.0000,0.0000,0.0000,0
303,1.0410,-2.7915,0.0129,-0.0142,-0.0104,0.0146,1.42,0.19,-3.11,0,3.690,0.579,-0.629,0.290,-0.001,0.022,1.003,0.000,0.000,0.000,0.0080,0,-1,0.00,0.00,0.00,0.0000,0.0000,0.0000,0.0000,0.0000,0.0000,0.0000,0.00,0.00,0.00,2.0640,0.2100,1.1120,0.1990,2.6960,243,0.0000,0.0000,0.0000,0.0000,0.0000,0
405,1.0406,-2.7912,0.0112,-0.0156,-0.0084,0.0029,1.41,0.20,-3.10,0,3.695,0.262,-0.147,-0.277,-0.003,0.020,1.001,0.000,0.000,0.000,0.0130,0,-1,0.00,0.00,0.00,0.0000,0.0000,0.0000,0.0000,0.0000,0.0000,0.0000,0.00,0.00,0.00,2.0590,0.2090,1.1120,0.1990,2.7020,229,0.0000,0.0000,0.0000,0.0000,0.0000,0
506,1.0411,-2.7912,0.0121,-0.0128,-0.0080,0.0077,1.39,0.17,-3.08,0,3.690,0.409,-0.656,0.150,-0.003,0.022,1.003,0.000,0.000,0.000,0.0110,0,0,0.00,0.00,0.00,0.0000,0.0000,0.0000,0.0000,0.0000,0.0000,0.0000,0.00,0.00,0.00,2.0590,0.2090,1.1120,0.1910,2.7020,229,0.0000,0.0000,0.0000,0.0000,0.0000,0
608,1.0416,-2.7914,0.0119,-0.0112,-0.0091,0.0051,1.39,0.21,-3.07,0,3.695,0.524,-0.453,-0.122,-0.007,0.021,0.999,0.000,0.000,0.000,0.0070,0,0,0.00,0.00,0.00,0.0000,0.0000,0.0000,0.0000,0.0000,0.0000,0.0000,0.00,0.00,0.00,0.0000,0.0000,1.1120,0.1910,2.6940,248,0.0000,0.0000,0.0000,0.0000,0.0000,0
709,1.0406,-2.7914,0.0100,-0.0166,-0.0086,-0.0051,1.40,0.21,-3.05,0,3.690,0.413,-0.431,-0.042,-0.004,0.021,1.001,0.000,0.000,0.000,0.0110,0,0,0.00,0.00,0.00,0.0000,0.0000,0.0000,0.0000,0.0000,0.0000,0.0000,0.00,0.00,0.00,0.0000,0.0000,1.1110,0.1980,2.6940,277,0.0000,0.0000,0.0000,0.0000,0.0000,0
810,1.0404,-2.7916,0.0103,-0.0170,-0.0083,-0.0016,1.40,0.21,-3.03,0,3.690,0.456,-0.232,-0.171,-0.005,0.021,1.000,0.000,0.000,0.000,0.0090,0,-1,0.00,0.00,0.00,0.0000,0.0000,0.0000,0.0000,0.0000,0.0000,0.0000,0.00,0.00,0.00,0.0000,0.2130,1.1110,0.1980,2.7150,298,0.0000,0.0000,0.0000,0.0000,0.0000,0
911,1.0402,-2.7917,0.0097,-0.0173,-0.0084,-0.0034,1.40,0.22,-3.02,0,3.690,0.740,-0.462,-0.329,-0.003,0.020,1.000,0.000,0.000,0.000,0.0100,0,0,0.00,0.00,0.00,0.0000,0.0000,0.0000,0.0000,0.0000,0.0000,0.0000,0.00,0.00,0.00,0.0000,0.2130,1.1140,0.1970,2.7150,420,0.0000,0.0000,0.0000,0.0000,0.0000,0
1013,1.0395,-2.7917,0.0098,-0.0192,-0.0090,-0.0013,1.40,0.22,-3.01,0,3.695,0.490,-0.557,0.026,-0.002,0.022,1.001,0.000,0.000,0.000,0.0090,-1,1,0.00,0.00,0.00,0.0000,0.0000,0.0000,0.0000,0.0000,0.0000,0.0000,0.00,0.00,0.00,0.0000,0.1910,1.1140,0.1970,2.7030,420,0.0000,0.0000,0.0000,0.0000,0.0000,0
1114,1.0397,-2.7917,0.0094,-0.0178,-0.0080,-0.0022,1.39,0.21,-3.00,0,3.690,0.387,-0.381,-0.143,-0.001,0.017,1.003,0.000,0.000,0.000,0.0090,0,2,0.00,0.00,0.00,0.0000,0.0000,0.0000,0.0000,0.0000,0.0000,0.0000,0.00,0.00,0.00,0.0000,0.1910,1.1080,0.1900,2.7030,443,0.0000,0.0000,0.0000,0.0000,0.0000,0
1215,1.0399,-2.7916,0.0092,-0.0163,-0.0081,-0.0018,1.39,0.20,-2.99,0,3.695,0.357,-0.781,0.074,-0.005,0.022,1.000,0.000,0.000,0.000,0.0130,0,1,0.00,0.00,0.00,0.0000,0.0000,0.0000,0.0000,0.0000,0.0000,0.0000,0.00,0.00,0.00,0.0000,0.1990,1.1080,0.1900,2.6880,216,0.0000,0.0000,0.0000,0.0000,0.0000,0
1317,1.0389,-2.7919,0.0108,-0.0205,-0.0087,0.0069,1.39,0.21,-2.98,0,3.690,0.269,-0.654,0.047,-0.002,0.023,1.002,0.000,0.000,0.000,0.0100,0,2,0.00,0.00,0.00,0.0000,0.0000,0.0000,0.0000,0.0000,0.0000,0.0000,0.00,0.00,0.00,0.0000,0.1990,1.1140,0.1990,2.6880,56,0.0000,0.0000,0.0000,0.0000,0.0000,0
1418,1.0398,-2.7917,0.0107,-0.0161,-0.0073,0.0054,1.39,0.21,-2.97,0,3.690,0.285,-0.563,-0.148,-0.003,0.021,0.999,0.000,0.000,0.000,0.0100,0,0,0.00,0.00,0.00,0.0000,0.0000,0.0000,0.0000,0.0000,0.0000,0.0000,0.00,0.00,0.00,2.0870,0.2190,1.1140,0.1990,2.6890,0,0.0000,0.0000,0.0000,0.0000,0.0000,0
1519,1.0389,-2.7921,0.0106,-0.0192,-0.0087,0.0038,1.40,0.23,-2.96,0,3.695,0.433,-0.629,0.044,-0.005,0.019,1.001,0.000,0.000,0.000,0.0130,0,1,0.00,0.00,0.00,0.0000,0.0000,0.0000,0.0000,0.0000,0.0000,0.0000,0.00,0.00,0.00,2.0870,0.2190,1.1110,0.1890,2.6890,0,0.0000,0.0000,0.0000,0.0000,0.0000,0
1570,1.0397,-2.7920,0.0118,-0.0157,-0.0087,0.0100,1.38,0.17,-2.95,0,3.695,0.370,-0.670,0.036,-0.003,0.020,1.003,0.000,0.000,0.000,0.0110,0,0,0.00,0.00,0.00,0.0000,0.0000,0.0000,0.0000,0.0000,0.0000,0.0000,0.00,0.00,0.00,1.9830,0.2070,1.1110,0.1890,2.7030,152,0.0000,0.0000,0.0000,0.0000,0.0000,0
1621,1.0394,-2.7919,0.0118,-0.0172,-0.0079,0.0083,1.39,0.22,-2.93,0,3.690,0.243,-0.679,-0.087,-0.003,0.020,1.002,0.000,0.000,0.000,0.0080,0,0,0.00,0.00,0.00,0.0000,0.0000,0.0000,0.0000,0.0000,0.0000,0.0000,0.00,0.00,0.00,1.9830,0.2070,1.1100,0.2010,2.7030,152,0.0000,0.0000,0.0000,0.0000,0.0000,0
1672,1.0400,-2.7919,0.0104,-0.0150,-0.0074,-0.0002,1.39,0.20,-2.92,0,3.690,0.440,-0.363,-0.048,-0.004,0.021,1.001,0.000,0.000,0.000,0.0110,0,-3,0.00,0.00,0.00,0.0000,0.0000,0.0000,0.0000,0.0000,0.0000,0.0000,0.00,0.00,0.00,2.0200,0.2120,1.1100,0.2010,2.6890,152,0.0000,0.0000,0.0000,0.0000,0.0000,0
1723,1.0399,-2.7917,0.0107,-0.0151,-0.0069,0.0025,1.38,0.18,-2.91,0,3.690,0.320,-0.306,-0.004,-0.004,0.021,1.002,0.000,0.000,0.000,0.0080,0,0,0.00,0.00,0.00,0.0000,0.0000,0.0000,0.0000,0.0000,0.0000,0.0000,0.00,0.00,0.00,2.0200,0.2120,1.1110,0.1880,2.6890,350,0.0000,0.0000,0.0000,0.0000,0.0000,0
1774,1.0403,-2.7921,0.0096,-0.0138,-0.0081,-0.0027,1.38,0.19,-2.90,0,3.690,0.514,-0.416,-0.130,-0.003,0.022,1.001,0.000,0.000,0.000,0.0120,0,0,0.00,0.00,0.00,0.0000,0.0000,0.0000,0.0000,0.0000,0.0000,0.0000,0.00,0.00,0.00,0.0000,0.2070,1.1110,0.1880,2.7020,350,0.0000,0.0000,0.0000,0.0000,0.0000,0
1825,1.0404,-2.7919,0.0106,-0.0132,-0.0070,0.0037,1.38,0.19,-2.89,0,3.690,0.672,-0.422,-0.040,-0.005,0.019,1.002,0.000,0.000,0.000,0.0100,0,0,0.00,0.00,0.00,0.0000,0.0000,0.0000,0.0000,0.0000,0.0000,0.0000,0.00,0.00,0.00,0.0000,0.2070,1.1140,0.1990,2.7020,441,0.0000,0.0000,0.0000,0.0000,0.0000,0
1877,1.0395,-2.7921,0.0105,-0.0175,-0.0083,0.0030,1.39,0.26,-2.88,0,3.695,0.643,-0.531,-0.141,-0.002,0.022,1.002,0.000,0.000,0.000,0.0110,0,-1,0.00,0.00,0.00,0.0000,0.0000,0.0000,0.0000,0.0000,0.0000,0.0000,0.00,0.00,0.00,2.0730,0.2020,1.1140,0.1990,2.6990,441,0.0000,0.0000,0.0000,0.0000,0.0000,0
1928,1.0398,-2.7919,0.0109,-0.0158,-0.0069,0.0053,1.38,0.21,-2.86,0,3.690,0.402,-0.461,-0.282,-0.004,0.022,1.005,0.000,0.000,0.000,0.0140,0,0,0.00,0.00,0.00,0.0000,0.0000,0.0000,0.0000,0.0000,0.0000,0.0000,0.00,0.00,0.00,2.0730,0.2020,1.1130,0.1870,2.6990,441,0.0000,0.0000,0.0000,0.0000,0.0000,0
1979,1.0397,-2.7919,0.0125,-0.0164,-0.0072,0.0135,1.39,0.21,-2.85,0,3.690,0.287,-0.459,-0.104,-0.004,0.021,1.003,0.000,0.000,0.000,0.0090,0,0,0.00,0.00,0.00,0.0000,0.0000,0.0000,0.0000,0.0000,0.0000,0.0000,0.00,0.00,0.00,0.0000,0.2110,1.1130,0.1870,2.7030,441,0.0000,0.0000,0.0000,0.0000,0.0000,0
2029,1.0394,-2.7920,0.0114,-0.0173,-0.0077,0.0053,1.40,0.21,-2.84,0,3.690,0.674,-0.762,0.088,-0.002,0.019,1.002,0.000,0.000,0.000,0.0110,0,1,0.00,0.00,0.00,0.0000,0.0000,0.0000,0.0000,0.0000,0.0000,0.0000,0.00,0.00,0.00,0.0000,0.2110,1.1140,0.2000,2.7030,233,0.0000,0.0000,0.0000,0.0000,0.0000,0
2081,1.0395,-2.7922,0.0114,-0.0157,-0.0082,0.0048,1.40,0.21,-2.82,0,3.690,0.502,-0.470,-0.164,-0.003,0.020,0.999,0.000,0.000,0.000,0.0110,0,0,0.00,0.00,0.00,0.0000,0.0000,0.0000,0.0000,0.0000,0.0000,0.0000,0.00,0.00,0.00,0.0000,0.2010,1.1140,0.2000,2.7080,233,0.0000,0.0000,0.0000,0.0000,0.0000,0
2132,1.0393,-2.7923,0.0114,-0.0163,-0.0087,0.0038,1.41,0.21,-2.81,0,3.690,0.251,-0.550,-0.324,-0.004,0.021,1.000,0.000,0.000,0.000,0.0100,0,-1,0.00,0.00,0.00,0.0000,0.0000,0.0000,0.0000,0.0000,0.0000,0.0000,0.00,0.00,0.00,0.0000,0.2010,1.1150,0.1870,2.7080,233,0.0000,0.0000,0.0000,0.0000,0.0000,0
2182,1.0397,-2.7923,0.0109,-0.0140,-0.0087,0.0011,1.41,0.20,-2.79,0,3.690,0.162,-0.656,-0.242,-0.002,0.019,1.003,0.000,0.000,0.000,0.0100,0,0,0.00,0.00,0.00,0.0000,0.0000,0.0000,0.0000,0.0000,0.0000,0.0000,0.00,0.00,0.00,0.0000,0.0000,1.1150,0.1870,2.7090,207,0.0000,0.0000,0.0000,0.0000,0.0000,0
2234,1.0388,-2.7926,0.0106,-0.0179,-0.0100,-0.0005,1.41,0.27,-2.78,0,3.690,0.099,-0.621,-0.074,-0.002,0.021,1.004,0.000,0.000,0.000,0.0110,0,0,0.00,0.00,0.00,0.0000,0.0000,0.0000,0.0000,0.0000,0.0000,0.0000,0.00,0.00,0.00,0.0000,0.0000,1.1140,0.2000,2.7090,207,0.0000,0.0000,0.0000,0.0000,0.0000,0
2293,1.0386,-2.7927,0.0108,-0.0178,-0.0100,0.0016,1.41,0.23,-2.77,0,3.695,0.446,-0.650,-0.033,-0.003,0.021,1.004,0.000,0.000,0.000,0.0070,0,-1,0.00,0.00,0.00,0.0000,0.0000,0.0000,0.0000,0.0000,0.0000,0.0000,0.00,0.00,0.00,1.9580,0.0000,1.1140,0.2000,2.7110,207,0.0000,0.0000,0.0000,0.0000,0.0000,0
2344,1.0384,-2.7928,0.0092,-0.0173,-0.0093,-0.0057,1.41,0.23,-2.76,0,3.690,0.396,-0.830,0.019,-0.003,0.019,0.999,0.000,0.000,0.000,0.0080,0,0,0.00,0.00,0.00,0.0000,0.0000,0.0000,0.0000,0.0000,0.0000,0.0000,0.00,0.00,0.00,1.9580,0.0000,1.1110,0.1880,2.7110,239,0.0000,0.0000,0.0000,0.0000,0.0000,0
2395,1.0380,-2.7927,0.0086,-0.0188,-0.0092,-0.0075,1.41,0.25,-2.75,0,3.695,0.463,-0.628,-0.053,-0.004,0.019,1.002,0.000,0.000,0.000,0.0110,0,0,0.00,0.00,0.00,0.0000,0.0000,0.0000,0.0000,0.0000,0.0000,0.0000,0.00,0.00,0.00,2.0990,0.2060,1.1110,0.1880,2.7020,295,0.0000,0.0000,0.0000,0.0000,0.0000,0
2446,1.0370,-2.7933,0.0094,-0.0226,-0.0109,-0.0003,1.42,0.27,-2.74,0,3.695,0.269,-0.248,0.479,-0.002,0.020,1.003,0.000,0.000,0.000,0.0110,0,0,0.00,0.00,0.00,0.0000,0.0000,0.0000,0.0000,0.0000,0.0000,0.0000,0.00,0.00,0.00,2.0990,0.2060,1.1110,0.1990,2.7020,295,0.0000,0.0000,0.0000,0.0000,0.0000,0
2498,1.0376,-2.7933,0.0101,-0.0188,-0.0111,0.0042,1.41,0.25,-2.73,0,3.695,0.051,-0.728,-0.406,-0.003,0.020,1.003,0.000,0.000,0.000,0.0090,0,0,0.00,0.00,0.00,0.0000,0.0000,0.0000,0.0000,0.0000,0.0000,0.0000,0.00,0.00,0.00,0.0000,0.2040,1.1110,0.1990,2.7000,295,0.0000,0.0000,0.0000,0.0000,0.0000,0
2549,1.0371,-2.7932,0.0098,-0.0209,-0.0101,0.0027,1.40,0.26,-2.72,0,3.690,0.475,-0.702,-0.248,-0.002,0.020,1.002,0.000,0.000,0.000,0.0060,0,1,0.00,0.00,0.00,0.0000,0.0000,0.0000,0.0000,0.0000,0.0000,0.0000,0.00,0.00,0.00,0.0000,0.2040,1.1140,0.1870,2.7000,296,0.0000,0.0000,0.0000,0.0000,0.0000,0
2601,1.0372,-2.7931,0.0083,-0.0194,-0.0093,-0.0052,1.39,0.26,-2.71,0,3.695,0.355,-0.553,-0.043,-0.003,0.021,1.003,0.000,0.000,0.000,0.0110,-1,0,0.00,0.00,0.00,0.0000,0.0000,0.0000,0.0000,0.0000,0.0000,0.0000,0.00,0.00,0.00,0.0000,0.2060,1.1140,0.1870,2.7030,296,0.0000,0.0000,0.0000,0.0000,0.0000,0
2652,1.0385,-2.7928,0.0093,-0.0148,-0.0079,0.0024,1.38,0.23,-2.69,0,3.690,0.247,-0.478,-0.003,-0.003,0.022,1.004,0.000,0.000,0.000,0.0120,0,-2,0.00,0.00,0.00,0.0000,0.0000,0.0000,0.0000,0.0000,0.0000,0.0000,0.00,0.00,0.00,0.0000,0.2060,1.1110,0.1960,2.7030,296,0.0000,0.0000,0.0000,0.0000,0.0000,0
2704,1.0398,-2.7930,0.0105,-0.0098,-0.0079,0.0093,1.37,0.21,-2.68,0,3.690,0.354,-0.484,-0.416,-0.004,0.018,1.002,0.000,0.000,0.000,0.0110,0,0,0.00,0.00,0.00,0.0000,0.0000,0.0000,0.0000,0.0000,0.0000,0.0000,0.00,0.00,0.00,0.0000,0.0000,1.1110,0.1960,2.7030,308,0.0000,0.0000,0.0000,0.0000,0.0000,0
2755,1.0397,-2.7931,0.0110,-0.0114,-0.0083,0.0103,1.37,0.24,-2.67,0,3.690,0.074,-0.607,-0.040,-0.004,0.021,1.003,0.000,0.000,0.000,0.0110,0,0,0.00,0.00,0.00,0.0000,0.0000,0.0000,0.0000,0.0000,0.0000,0.0000,0.00,0.00,0.00,0.0000,0.0000,1.1110,0.1840,2.7030,308,0.0000,0.0000,0.0000,0.0000,0.0000,0
2806,1.0389,-2.7929,0.0113,-0.0147,-0.0076,0.0101,1.37,0.21,-2.65,0,3.695,0.304,-0.358,-0.221,-0.003,0.020,1.005,0.000,0.000,0.000,0.0140,0,1,0.00,0.00,0.00,0.0000,0.0000,0.0000,0.0000,0.0000,0.0000,0.0000,0.00,0.00,0.00,0.0000,0.2120,1.1110,0.1840,2.6990,325,0.0000,0.0000,0.0000,0.0000,0.0000,0
2858,1.0389,-2.7928,0.0128,-0.0152,-0.0069,0.0161,1.37,0.23,-2.64,0,3.690,0.094,-0.960,-0.124,-0.003,0.023,1.002,0.000,0.000,0.000,0.0090,0,0,0.00,0.00,0.00,0.0000,0.0000,0.0000,0.0000,0.0000,0.0000,0.0000,0.00,0.00,0.00,0.0000,0.2120,1.1080,0.1930,2.6990,325,0.0000,0.0000,0.0000,0.0000,0.0000,0
2910,1.0397,-2.7928,0.0117,-0.0128,-0.0067,0.0066,1.37,0.21,-2.64,0,3.695,0.521,-0.603,-0.152,-0.005,0.019,1.003,0.000,0.000,0.000,0.0100,0,2,0.00,0.00,0.00,0.0000,0.0000,0.0000,0.0000,0.0000,0.0000,0.0000,0.00,0.00,0.00,0.0000,0.2100,1.1080,0.1930,2.7030,325,0.0000,0.0000,0.0000,0.0000,0.0000,0
2961,1.0390,-2.7927,0.0112,-0.0169,-0.0069,0.0027,1.38,0.25,-2.62,0,3.690,0.571,-0.794,-0.338,-0.001,0.021,1.002,0.000,0.000,0.000,0.0120,0,0,0.00,0.00,0.00,0.0000,0.0000,0.0000,0.0000,0.0000,0.0000,0.0000,0.00,0.00,0.00,0.0000,0.2100,1.1090,0.1900,2.7030,338,0.0000,0.0000,0.0000,0.0000,0.0000,0
3012,1.0388,-2.7930,0.0116,-0.0171,-0.0082,0.0058,1.38,0.26,-2.61,0,3.695,0.411,-0.247,-0.417,-0.000,0.022,1.003,0.000,0.000,0.000,0.0090,0,0,0.00,0.00,0.00,0.0000,0.0000,0.0000,0.0000,0.0000,0.0000,0.0000,0.00,0.00,0.00,0.0000,0.2090,1.1090,0.1900,0.0000,338,0.0000,0.0000,0.0000,0.0000,0.0000,0
3063,1.0379,-2.7934,0.0107,-0.0204,-0.0097,0.0002,1.39,0.25,-2.60,0,3.690,0.577,-0.528,0.139,-0.003,0.018,1.002,0.000,0.000,0.000,0.0100,0,0,0.00,0.00,0.00,0.0000,0.0000,0.0000,0.0000,0.0000,0.0000,0.0000,0.00,0.00,0.00,0.0000,0.2090,1.1110,0.2030,0.0000,338,0.0000,0.0000,0.0000,0.0000,0.0000,0
3115,1.0388,-2.7935,0.0105,-0.0162,-0.0098,-0.0005,1.39,0.25,-2.59,0,3.695,0.214,-0.437,-0.140,-0.001,0.019,1.003,0.000,0.000,0.000,0.0080,0,-1,0.00,0.00,0.00,0.0000,0.0000,0.0000,0.0000,0.0000,0.0000,0.0000,0.00,0.00,0.00,0.0000,0.2040,1.1110,0.2030,2.6970,370,0.0000,0.0000,0.0000,0.0000,0.0000,0
3166,1.0383,-2.7935,0.0095,-0.0182,-0.0090,-0.0044,1.39,0.26,-2.57,0,3.690,0.542,-0.707,-0.202,-0.002,0.021,1.001,0.000,0.000,0.000,0.0110,0,0,0.00,0.00,0.00,0.0000,0.0000,0.0000,0.0000,0.0000,0.0000,0.0000,0.00,0.00,0.00,0.0000,0.2040,1.1150,0.1900,2.6970,370,0.0000,0.0000,0.0000,0.0000,0.0000,0
3217,1.0383,-2.7936,0.0100,-0.0186,-0.0093,0.0007,1.38,0.26,-2.57,0,3.695,0.541,-0.730,-0.229,-0.005,0.020,1.001,0.000,0.000,0.000,0.0100,0,0,0.00,0.00,0.00,0.0000,0.0000,0.0000,0.0000,0.0000,0.0000,0.0000,0.00,0.00,0.00,0.0000,0.2030,1.1150,0.1900,2.7030,370,0.0000,0.0000,0.0000,0.0000,0.0000,0
3268,1.0386,-2.7934,0.0100,-0.0173,-0.0085,0.0015,1.38,0.25,-2.56,0,3.690,0.405,-0.214,0.124,-0.002,0.021,1.004,0.000,0.000,0.000,0.0090,0,1,0.00,0.00,0.00,0.0000,0.0000,0.0000,0.0000,0.0000,0.0000,0.0000,0.00,0.00,0.00,0.0000,0.2030,1.1130,0.1990,2.7030,407,0.0000,0.0000,0.0000,0.0000,0.0000,0
3319,1.0380,-2.7932,0.0097,-0.0196,-0.0077,-0.0001,1.37,0.24,-2.54,0,3.695,0.453,-0.589,0.243,-0.003,0.020,1.003,0.000,0.000,0.000,0.0090,0,-1,0.00,0.00,0.00,0.0000,0.0000,0.0000,0.0000,0.0000,0.0000,0.0000,0.00,0.00,0.00,1.0440,0.2050,1.1130,0.1990,2.7110,407,0.0000,0.0000,0.0000,0.0000,0.0000,0
3370,1.0396,-2.7931,0.0094,-0.0133,-0.0071,0.0001,1.38,0.21,-2.53,0,3.690,0.512,-0.709,-0.021,-0.003,0.020,1.001,0.000,0.000,0.000,0.0080,-1,0,0.00,0.00,0.00,0.0000,0.0000,0.0000,0.0000,0.0000,0.0000,0.0000,0.00,0.00,0.00,1.0440,0.2050,1.1090,0.1900,2.7110,407,0.0000,0.0000,0.0000,0.0000,0.0000,0
3422,1.0393,-2.7931,0.0089,-0.0148,-0.0069,-0.0024,1.36,0.24,-2.51,0,3.695,0.421,-0.299,0.016,-0.001,0.022,1.002,0.000,0.000,0.000,0.0110,0,0,0.00,0.00,0.00,0.0000,0.0000,0.0000,0.0000,0.0000,0.0000,0.0000,0.00,0.00,0.00,0.0000,0.1980,1.1090,0.1900,2.7180,341,0.0000,0.0000,0.0000,0.0000,0.0000,0
3473,1.0386,-2.7932,0.0097,-0.0175,-0.0073,0.0031,1.37,0.25,-2.50,0,3.690,0.520,-0.423,0.289,-0.003,0.020,1.004,0.000,0.000,0.000,0.0110,0,0,0.00,0.00,0.00,0.0000,0.0000,0.0000,0.0000,0.0000,0.0000,0.0000,0.00,0.00,0.00,0.0000,0.1980,1.1080,0.1970,2.7180,341,0.0000,0.0000,0.0000,0.0000,0.0000,0
3524,1.0389,-2.7935,0.0103,-0.0162,-0.0084,0.0068,1.38,0.23,-2.49,0,3.695,0.603,-0.507,0.274,-0.003,0.022,1.003,0.000,0.000,0.000,0.0130,0,0,0.00,0.00,0.00,0.0000,0.0000,0.0000,0.0000,0.0000,0.0000,0.0000,0.00,0.00,0.00,0.0000,0.2060,1.1080,0.1970,2.7070,336,0.0000,0.0000,0.0000,0.0000,0.0000,0
3575,1.0379,-2.7938,0.0117,-0.0208,-0.0094,0.0136,1.38,0.31,-2.48,0,3.690,0.334,-0.549,0.362,-0.003,0.020,1.003,0.000,0.000,0.000,0.0150,0,1,0.00,0.00,0.00,0.0000,0.0000,0.0000,0.0000,0.0000,0.0000,0.0000,0.00,0.00,0.00,0.0000,0.2060,1.1120,0.1870,2.7070,336,0.0000,0.0000,0.0000,0.0000,0.0000,0
3626,1.0380,-2.7936,0.0136,-0.0193,-0.0083,0.0208,1.38,0.25,-2.47,0,3.690,0.482,-0.511,-0.114,-0.001,0.019,1.002,0.000,0.000,0.000,0.0100,0,-2,0.00,0.00,0.00,0.0000,0.0000,0.0000,0.0000,0.0000,0.0000,0.0000,0.00,0.00,0.00,0.0000,0.2020,1.1120,0.1870,2.6960,341,0.0000,0.0000,0.0000,0.0000,0.0000,0
3678,1.0392,-2.7935,0.0128,-0.0132,-0.0076,0.0125,1.37,0.22,-2.45,0,3.684,0.563,-0.375,0.190,-0.005,0.021,1.001,0.000,0.000,0.000,0.0080,0,-1,0.00,0.00,0.00,0.0000,0.0000,0.0000,0.0000,0.0000,0.0000,0.0000,0.00,0.00,0.00,0.0000,0.2020,1.1110,0.1990,2.6960,341,0.0000,0.0000,0.0000,0.0000,0.0000,0
3729,1.0396,-2.7932,0.0111,-0.0117,-0.0062,0.0009,1.36,0.22,-2.44,0,3.695,0.454,-0.508,-0.080,-0.001,0.019,1.003,0.000,0.000,0.000,0.0110,0,0,0.00,0.00,0.00,0.0000,0.0000,0.0000,0.0000,0.0000,0.0000,0.0000,0.00,0.00,0.00,0.0000,0.0000,1.1110,0.1990,2.7050,359,0.0000,0.0000,0.0000,0.0000,0.0000,0
3780,1.0393,-2.7932,0.0111,-0.0132,-0.0061,0.0021,1.36,0.21,-2.43,0,3.690,0.534,-0.570,-0.122,-0.002,0.022,1.002,0.000,0.000,0.000,0.0070,0,0,0.00,0.00,0.00,0.0000,0.0000,0.0000,0.0000,0.0000,0.0000,0.0000,0.00,0.00,0.00,0.0000,0.0000,1.1130,0.1820,2.7050,359,0.0000,0.0000,0.0000,0.0000,0.0000,0
3830,1.0385,-2.7934,0.0094,-0.0167,-0.0068,-0.0064,1.38,0.23,-2.42,0,3.695,0.306,-0.781,-0.074,-0.004,0.020,1.000,0.000,0.000,0.000,0.0060,0,0,0.00,0.00,0.00,0.0000,0.0000,0.0000,0.0000,0.0000,0.0000,0.0000,0.00,0.00,0.00,1.5530,0.0000,1.1130,0.1820,2.6980,380,0.0000,0.0000,0.0000,0.0000,0.0000,0
3882,0.0000,0.0000,0.0000,0.0000,0.0000,0.0000,0.01,0.01,-0.00,0,3.684,0.627,-0.451,0.159,-0.002,0.020,1.002,0.000,0.000,0.000,0.0110,0,0,0.00,0.00,0.00,0.0000,0.0000,0.0000,0.0000,0.0000,0.0000,0.0000,0.00,0.00,0.00,1.5530,0.0000,1.1080,0.1950,2.6980,380,0.0000,0.0000,0.0000,0.0000,0.0000,0
3933,0.0000,0.0002,0.0110,0.0006,0.0089,0.0012,0.07,0.04,-0.00,0,3.695,0.327,-0.292,0.167,-0.007,0.020,1.003,0.000,0.000,0.000,0.0110,0,0,0.00,0.00,0.00,0.0000,0.0000,0.0000,0.0000,0.0000,0.0000,0.0000,0.00,0.00,0.00,0.0000,0.0000,1.1080,0.1950,2.7090,380,0.0000,0.0000,0.0000,0.0000,0.0000,0
3984,-0.0002,0.0006,0.0111,-0.0044,0.0145,0.0023,0.17,0.09,-0.00,0,3.684,0.589,-0.518,-0.040,-0.003,0.023,1.003,0.000,0.000,0.000,0.0080,0,0,0.00,0.00,0.00,0.0000,0.0000,0.0000,0.0000,0.0000,0.0000,0.0000,0.00,0.00,0.00,0.0000,0.0000,1.1130,0.1890,2.7090,380,0.0000,0.0000,0.0000,0.0000,0.0000,0
4035,-0.0004,0.0011,0.0099,-0.0052,0.0184,-0.0018,0.30,0.08,-0.00,0,3.695,0.479,-0.543,-0.074,-0.003,0.020,1.002,0.000,0.000,0.000,0.0130,3,-2,0.00,0.00,0.00,0.0000,0.0000,0.0000,0.0000,0.0000,0.0000,0.0000,0.00,0.00,0.00,0.0000,0.2020,1.1130,0.1890,2.7050,368,0.0000,0.0000,0.0000,0.0000,0.0000,0
4086,0.0001,0.0004,0.0111,-0.0001,0.0090,0.0058,1.03,-0.30,0.00,0,3.684,0.183,-0.611,0.025,-0.002,0.020,1.002,0.000,0.000,0.000,0.0120,0,1,0.00,0.00,0.00,0.0000,0.0000,0.0000,0.0000,0.0000,0.0000,0.0000,0.00,0.00,0.00,0.0000,0.2020,1.1130,0.1870,2.7050,368,0.0000,0.0000,0.0000,0.0000,0.0000,0
4137,-0.0002,0.0010,0.0117,-0.0036,0.0137,0.0089,0.71,0.01,-0.00,0,3.690,0.496,-0.204,0.040,-0.007,0.021,1.002,0.000,0.000,0.000,0.0070,0,0,0.00,0.00,0.00,0.0000,0.0000,0.0000,0.0000,0.0000,0.0000,0.0000,0.00,0.00,0.00,0.0000,0.2050,1.1130,0.1870,2.7100,368,0.0000,0.0000,0.0000,0.0000,0.0000,0
4188,-0.0003,0.0013,0.0100,-0.0048,0.0137,-0.0025,0.82,0.05,-0.00,0,3.684,0.594,-0.437,0.094,-0.002,0.018,1.000,0.000,0.000,0.000,0.0090,0,-2,0.00,0.00,0.00,0.0000,0.0000,0.0000,0.0000,0.0000,0.0000,0.0000,0.00,0.00,0.00,0.0000,0.2050,1.1080,0.1990,2.7100,350,0.0000,0.0000,0.0000,0.0000,0.0000,0
4239,0.0000,0.0014,0.0095,-0.0016,0.0126,-0.0036,0.87,-0.04,-0.00,0,3.695,-0.040,-0.523,0.100,-0.001,0.019,1.002,0.000,0.000,0.000,0.0080,0,-1,0.00,0.00,0.00,0.0000,0.0000,0.0000,0.0000,0.0000,0.0000,0.0000,0.00,0.00,0.00,1.3240,0.0000,1.1080,0.1990,2.7010,350,0.0000,0.0000,0.0000,0.0000,0.0000,0
4290,0.0005,0.0017,0.0087,0.0012,0.0121,-0.0061,0.95,0.12,-0.01,0,3.690,0.179,-0.801,0.015,-0.004,0.020,1.003,0.000,0.000,0.000,0.0080,0,0,0.00,0.00,0.00,0.0000,0.0000,0.0000,0.0000,0.0000,0.0000,0.0000,0.00,0.00,0.00,1.3240,0.0000,1.1110,0.1860,2.7010,350,0.0000,0.0000,0.0000,0.0000,0.0000,0
4342,-0.0008,0.0013,0.0083,-0.0069,0.0078,-0.0058,1.02,0.06,-0.01,0,3.695,0.446,-0.508,-0.188,-0.005,0.021,1.003,0.000,0.000,0.000,0.0130,0,0,0.00,0.00,0.00,0.0000,0.0000,0.0000,0.0000,0.0000,0.0000,0.0000,0.00,0.00,0.00,0.0000,0.1970,1.1110,0.1860,2.7010,350,0.0000,0.0000,0.0000,0.0000,0.0000,0
4393,-0.0012,0.0017,0.0101,-0.0092,0.0095,0.0055,1.05,0.11,-0.01,0,3.684,0.138,-0.638,0.338,-0.004,0.021,1.003,0.000,0.000,0.000,0.0090,0,0,0.00,0.00,0.00,0.0000,0.0000,0.0000,0.0000,0.0000,0.0000,0.0000,0.00,0.00,0.00,0.0000,0.1970,1.1110,0.1900,2.7010,368,0.0000,0.0000,0.0000,0.0000,0.0000,0
4445,-0.0009,0.0012,0.0098,-0.0072,0.0058,0.0030,1.10,0.06,-0.01,0,3.690,0.464,-0.660,-0.079,-0.005,0.020,1.003,0.000,0.000,0.000,0.0090,0,0,0.00,0.00,0.00,0.0000,0.0000,0.0000,0.0000,0.0000,0.0000,0.0000,0.00,0.00,0.00,0.0000,0.2070,1.1110,0.1900,2.6990,423,0.0000,0.0000,0.0000,0.0000,0.0000,0
4496,-0.0005,0.0013,0.0096,-0.0058,0.0055,0.0020,1.12,0.04,-0.01,0,3.690,0.343,-0.564,-0.138,-0.006,0.021,0.999,0.000,0.000,0.000,0.0100,0,0,0.00,0.00,0.00,0.0000,0.0000,0.0000,0.0000,0.0000,0.0000,0.0000,0.00,0.00,0.00,0.0000,0.2070,1.1090,0.1960,2.6990,423,0.0000,0.0000,0.0000,0.0000,0.0000,0
4547,-0.0003,0.0011,0.0098,-0.0068,0.0039,0.0037,1.15,0.05,-0.01,0,3.695,0.565,-0.622,0.034,-0.001,0.021,1.001,0.000,0.000,0.000,0.0090,0,0,0.00,0.00,0.00,0.0000,0.0000,0.0000,0.0000,0.0000,0.0000,0.0000,0.00,0.00,0.00,0.0000,0.2060,1.1090,0.1960,2.7090,454,0.0000,0.0000,0.0000,0.0000,0.0000,0
4598,-0.0004,0.0011,0.0096,-0.0071,0.0030,0.0023,1.18,0.06,-0.02,0,3.690,0.183,-0.551,-0.120,0.001,0.021,1.001,0.000,0.000,0.000,0.0100,0,-1,0.00,0.00,0.00,0.0000,0.0000,0.0000,0.0000,0.0000,0.0000,0.0000,0.00,0.00,0.00,0.0000,0.2060,1.0990,0.1940,2.7090,454,0.0000,0.0000,0.0000,0.0000,0.0000,0
4650,-0.0007,0.0010,0.0099,-0.0086,0.0019,0.0042,1.20,0.08,-0.02,0,3.690,0.407,-0.639,0.040,-0.003,0.019,1.002,0.000,0.000,0.000,0.0070,0,0,0.00,0.00,0.00,0.0000,0.0000,0.0000,0.0000,0.0000,0.0000,0.0000,0.00,0.00,0.00,0.0000,0.2020,1.0990,0.1940,2.6940,454,0.0000,0.0000,0.0000,0.0000,0.0000,0
4701,-0.0011,0.0011,0.0088,-0.0106,0.0014,-0.0010,1.21,0.11,-0.02,0,3.690,0.324,-0.283,0.100,-0.006,0.018,0.999,0.000,0.000,0.000,0.0050,0,0,0.00,0.00,0.00,0.0000,0.0000,0.0000,0.0000,0.0000,0.0000,0.0000,0.00,0.00,0.00,0.0000,0.2020,1.1060,0.1930,2.6940,460,0.0000,0.0000,0.0000,0.0000,0.0000,0
4752,0.0001,0.0011,0.0072,-0.0065,0.0003,-0.0089,1.23,0.12,-0.02,0,3.690,0.350,-0.539,0.077,-0.001,0.020,1.003,0.000,0.000,0.000,0.0080,0,-1,0.00,0.00,0.00,0.0000,0.0000,0.0000,0.0000,0.0000,0.0000,0.0000,0.00,0.00,0.00,0.0000,0.2030,1.1060,0.1930,2.7010,460,0.0000,0.0000,0.0000,0.0000,0.0000,0
4803,-0.0004,0.0010,0.0073,-0.0088,-0.0004,-0.0051,1.24,0.11,-0.02,0,3.690,0.161,-0.579,0.223,-0.002,0.020,1.003,0.000,0.000,0.000,0.0100,0,0,0.00,0.00,0.00,0.0000,0.0000,0.0000,0.0000,0.0000,0.0000,0.0000,0.00,0.00,0.00,0.0000,0.2030,1.1130,0.1980,2.7010,460,0.0000,0.0000,0.0000,0.0000,0.0000,0
4854,0.0001,0.0010,0.0083,-0.0068,-0.0007,0.0031,1.25,0.10,-0.02,0,3.690,0.386,-0.350,-0.208,-0.002,0.019,1.001,0.000,0.000,0.000,0.0080,0,2,0.00,0.00,0.00,0.0000,0.0000,0.0000,0.0000,0.0000,0.0000,0.0000,0.00,0.00,0.00,0.0000,0.2120,1.1130,0.1980,2.7010,460,0.0000,0.0000,0.0000,0.0000,0.0000,0
4905,0.0003,0.0010,0.0083,-0.0069,-0.0015,0.0033,1.26,0.11,-0.03,0,3.690,0.226,-0.606,0.010,-0.003,0.019,1.004,0.000,0.000,0.000,0.0110,0,-1,0.00,0.00,0.00,0.0000,0.0000,0.0000,0.0000,0.0000,0.0000,0.0000,0.00,0.00,0.00,0.0000,0.2120,1.1100,0.1940,2.7010,460,0.0000,0.0000,0.0000,0.0000,0.0000,0
4956,0.0002,0.0010,0.0096,-0.0078,-0.0020,0.0102,1.27,0.12,-0.03,0,3.690,0.285,-0.483,-0.159,-0.004,0.019,1.002,0.000,0.000,0.000,0.0100,0,0,0.00,0.00,0.00,0.0000,0.0000,0.0000,0.0000,0.0000,0.0000,0.0000,0.00,0.00,0.00,0.0000,0.2090,1.1100,0.1940,2.6860,433,0.0000,0.0000,0.0000,0.0000,0.0000,0
5007,-0.0003,0.0008,0.0101,-0.0106,-0.0030,0.0115,1.28,0.11,-0.04,0,3.690,0.419,-0.464,0.154,-0.003,0.020,1.002,0.000,0.000,0.000,0.0090,0,1,0.00,0.00,0.00,0.0000,0.0000,0.0000,0.0000,0.0000,0.0000,0.0000,0.00,0.00,0.00,0.0000,0.2090,1.1120,0.1860,2.6860,433,0.0000,0.0000,0.0000,0.0000,0.0000,0
5059,-0.0006,0.0009,0.0100,-0.0126,-0.0029,0.0079,1.29,0.13,-0.03,0,3.690,0.545,-0.471,-0.293,-0.003,0.022,1.001,0.000,0.000,0.000,0.0100,0,0,0.00,0.00,0.00,0.0000,0.0000,0.0000,0.0000,0.0000,0.0000,0.0000,0.00,0.00,0.00,0.0000,0.2080,1.1120,0.1860,2.7170,433,0.0000,0.0000,0.0000,0.0000,0.0000,0
5110,-0.0001,0.0008,0.0103,-0.0111,-0.0031,0.0077,1.29,0.13,-0.04,0,3.283,0.271,-2.313,-0.409,-0.006,0.024,0.997,0.000,0.000,0.000,0.0110,0,2,0.00,0.00,0.00,0.0000,0.0000,0.0000,0.0000,0.0000,0.0000,0.0000,0.00,0.00,0.00,0.0000,0.2080,1.1110,0.1940,2.7170,461,0.0000,0.0000,0.0000,0.0000,0.0000,0
5161,-0.0003,0.0008,0.0108,-0.0122,-0.0076,0.0098,1.28,0.18,-0.04,0,3.368,-1.650,-3.642,1.140,-0.002,0.014,1.006,0.000,0.000,0.000,0.0090,1,0,0.00,0.00,0.00,0.0000,0.0000,0.0000,0.0000,0.0000,0.0000,0.0000,0.00,0.00,0.00,0.0000,0.2060,1.1110,0.1940,2.7020,461,0.0000,0.0000,0.0000,0.0000,0.0000,0
5211,0.0005,-0.0006,0.0104,-0.0089,-0.0216,0.0074,1.28,0.33,-0.04,0,3.415,0.425,-1.257,-1.015,-0.006,0.012,1.001,0.000,0.000,0.000,0.0070,0,2,0.00,0.00,0.00,0.0000,0.0000,0.0000,0.0000,0.0000,0.0000,0.0000,0.00,0.00,0.00,0.0000,0.2060,1.1110,0.1970,2.7020,493,0.0000,0.0000,0.0000,0.0000,0.0000,0
5263,-0.0001,-0.0007,0.0092,-0.0123,-0.0277,-0.0004,1.25,0.41,-0.02,0,3.442,-1.035,1.117,-1.587,-0.007,0.008,1.009,0.000,0.000,0.000,0.0070,4,-3,0.00,0.00,0.00,0.0000,0.0000,0.0000,0.0000,0.0000,0.0000,0.0000,0.00,0.00,0.00,0.0000,0.0000,1.1110,0.1970,2.7010,493,0.0000,0.0000,0.0000,0.0000,0.0000,0
5314,0.0005,-0.0011,0.0083,-0.0103,-0.0339,-0.0033,1.26,0.39,-0.02,0,3.447,0.037,-4.543,-3.082,0.011,0.013,0.989,0.000,0.000,0.000,0.0060,9,-7,0.00,0.00,0.00,0.0000,0.0000,0.0000,0.0000,0.0000,0.0000,0.0000,0.00,0.00,0.00,0.0000,0.0000,1.1110,0.2000,2.7010,428,0.0000,0.0000,0.0000,0.0000,0.0000,0
5366,0.0020,-0.0040,0.0072,-0.0043,-0.0491,-0.0085,1.30,0.34,-0.06,0,3.452,-1.912,-1.578,-5.333,-0.002,0.005,1.039,0.000,0.000,0.000,0.0070,1,3,0.00,0.00,0.00,0.0000,0.0000,0.0000,0.0000,0.0000,0.0000,0.0000,0.00,0.00,0.00,0.0000,0.2060,1.1110,0.2000,2.7150,428,0.0000,0.0000,0.0000,0.0000,0.0000,0
5418,0.0038,-0.0095,0.0068,0.0013,-0.0715,-0.0059,1.41,0.28,-0.29,0,3.447,-3.559,-5.239,-3.485,-0.006,0.015,1.035,0.000,0.000,0.000,0.0070,10,0,0.00,0.00,0.00,0.0000,0.0000,0.0000,0.0000,0.0000,0.0000,0.0000,0.00,0.00,0.00,0.0000,0.2060,1.1090,0.2320,2.7150,428,0.0000,0.0000,0.0000,0.0000,0.0000,0
5469,0.0062,-0.0194,0.0063,0.0083,-0.1084,-0.0053,1.58,0.31,-0.50,0,3.447,2.447,3.841,-6.673,0.009,0.002,1.033,0.000,0.000,0.000,0.0100,18,1,0.00,0.00,0.00,0.0000,0.0000,0.0000,0.0000,0.0000,0.0000,0.0000,0.00,0.00,0.00,0.0000,0.1980,1.1090,0.2320,2.6940,428,0.0000,0.0000,0.0000,0.0000,0.0000,0
5520,0.0058,-0.0355,0.0066,0.0022,-0.1662,-0.0058,1.80,0.25,-0.87,0,3.442,-0.234,2.148,-5.343,-0.003,0.007,0.993,0.000,0.000,0.000,0.0090,16,-5,0.00,0.00,0.00,0.0000,0.0000,0.0000,0.0000,0.0000,0.0000,0.0000,0.00,0.00,0.00,0.0000,0.1980,1.1120,0.0000,2.6940,417,0.0000,0.0000,0.0000,0.0000,0.0000,0
5571,0.0112,-0.0570,0.0055,0.0241,-0.2386,-0.0136,2.22,0.03,-1.18,0,3.436,-10.797,1.432,-3.697,-0.003,-0.011,1.021,0.000,0.000,0.000,0.0120,34,-6,0.00,0.00,0.00,0.0000,0.0000,0.0000,0.0000,0.0000,0.0000,0.0000,0.00,0.00,0.00,0.0000,0.1880,1.1120,0.0000,2.6890,475,0.0000,0.0000,0.0000,0.0000,0.0000,0
5623,0.0168,-0.0843,0.0044,0.0435,-0.3269,-0.0125,2.21,-0.20,-1.41,0,3.431,-36.084,1.622,-9.259,-0.008,0.022,1.057,0.000,0.000,0.000,0.0100,15,-5,0.00,0.00,0.00,0.0000,0.0000,0.0000,0.0000,0.0000,0.0000,0.0000,0.00,0.00,0.00,0.0000,0.1880,1.1160,0.0000,2.6890,475,0.0000,0.0000,0.0000,0.0000,0.0000,0
5675,0.0250,-0.1055,0.0053,0.0743,-0.3653,0.0101,0.87,-0.50,-1.84,0,3.436,-55.045,3.999,-1.565,-0.005,-0.008,1.029,0.000,0.000,0.000,0.0170,12,-11,0.00,0.00,0.00,0.0000,0.0000,0.0000,0.0000,0.0000,0.0000,0.0000,0.00,0.00,0.00,0.0000,0.1790,1.1160,0.0000,2.6970,415,0.0000,0.0000,0.0000,0.0000,0.0000,0
5726,0.0331,-0.1208,0.0118,0.0996,-0.3444,0.0550,-2.15,-0.46,-1.96,0,3.442,-64.331,-1.588,14.213,-0.005,-0.031,1.016,0.000,0.000,0.000,0.0030,-2,-10,0.00,0.00,0.00,0.0000,0.0000,0.0000,0.0000,0.0000,0.0000,0.0000,0.00,0.00,0.00,0.0000,0.1790,1.1060,1.2560,2.6970,415,0.0000,0.0000,0.0000,0.0000,0.0000,0
5777,0.0420,-0.1175,0.0126,0.1262,-0.2149,0.0540,-6.04,-0.64,-1.38,0,3.436,-53.363,-16.527,38.230,-0.012,-0.079,0.999,0.000,0.000,0.000,0.0000,-30,-14,0.00,0.00,0.00,0.0000,0.0000,0.0000,0.0000,0.0000,0.0000,0.0000,0.00,0.00,0.00,0.0000,0.1870,1.1060,1.2560,2.7190,415,0.0000,0.0000,0.0000,0.0000,0.0000,0
5828,0.0516,-0.0967,0.0066,0.1494,-0.0018,0.0101,-9.83,-0.29,0.31,0,3.410,14.090,-23.037,48.391,0.005,-0.076,0.935,0.000,0.000,0.000,0.0000,-36,-8,0.00,0.00,0.00,0.0000,0.0000,0.0000,0.0000,0.0000,0.0000,0.0000,0.00,0.00,0.00,0.0000,0.1870,0.0000,1.3380,2.7190,385,0.0000,0.0000,0.0000,0.0000,0.0000,0
5879,0.0584,-0.0594,-0.0074,0.1479,0.2572,-0.0965,-11.17,0.47,2.69,0,3.373,87.901,-47.524,42.102,-0.004,-0.071,1.003,0.000,0.000,0.000,0.0000,-58,-13,0.00,0.00,0.00,0.0000,0.0000,0.0000,0.0000,0.0000,0.0000,0.0000,0.00,0.00,0.00,0.0000,0.2290,0.0000,1.3380,2.7140,385,0.0000,0.0000,0.0000,0.0000,0.0000,0
5930,0.0631,-0.0191,-0.0183,0.1235,0.4593,-0.1495,-7.49,2.44,5.00,0,3.368,109.637,-57.602,33.623,0.017,-0.064,1.043,0.000,0.000,0.000,0.0000,-154,-14,0.00,0.00,0.00,0.0000,0.0000,0.0000,0.0000,0.0000,0.0000,0.0000,0.00,0.00,0.00,0.0000,0.2290,1.0060,0.0000,2.7140,385,0.0000,0.0000,0.0000,0.0000,0.0000,0
5982,0.0646,0.0124,-0.0180,0.0708,0.5477,-0.1026,-2.47,5.31,6.74,0,3.352,-50.864,45.546,52.280,0.004,-0.054,1.083,0.000,0.000,0.000,0.0000,-42,21,0.00,0.00,0.00,0.0000,0.0000,0.0000,0.0000,0.0000,0.0000,0.0000,0.00,0.00,0.00,0.0000,0.1850,1.0060,0.0000,2.7030,385,0.0000,0.0000,0.0000,0.0000,0.0000,0
6034,0.0552,0.0483,-0.0166,-0.0465,0.5966,-0.0331,-3.11,5.54,8.77,0,3.378,84.957,-17.025,25.699,0.014,-0.003,1.094,0.000,0.000,0.000,0.0000,-116,37,0.00,0.00,0.00,0.0000,0.0000,0.0000,0.0000,0.0000,0.0000,0.0000,0.00,0.00,0.00,0.0000,0.1850,1.1110,0.0000,2.7030,413,0.0000,0.0000,0.0000,0.0000,0.0000,0
6084,0.0395,0.0860,-0.0149,-0.1709,0.6471,0.0230,0.22,6.60,9.65,0,3.384,157.384,11.140,14.947,-0.005,-0.033,1.042,0.000,0.000,0.000,0.0000,-39,27,0.00,0.00,0.00,0.0000,0.0000,0.0000,0.0000,0.0000,0.0000,0.0000,0.00,0.00,0.00,0.8670,0.1730,1.1110,0.0000,2.7140,432,0.0000,0.0000,0.0000,0.0000,0.0000,0
6136,0.0169,0.1076,-0.0047,-0.3112,0.5467,0.1024,8.27,6.99,10.05,0,3.384,13.291,85.612,-1.510,0.002,-0.023,1.003,0.000,0.000,0.000,0.0000,0,37,0.00,0.00,0.00,0.0000,0.0000,0.0000,0.0000,0.0000,0.0000,0.0000,0.00,0.00,0.00,0.8670,0.1730,1.1280,0.0000,2.7140,432,0.0000,0.0000,0.0000,0.0000,0.0000,0
6187,-0.0133,0.1182,-0.0054,-0.4516,0.3796,0.0773,10.37,4.64,10.33,0,3.378,-63.775,79.783,-14.569,0.003,0.000,0.998,0.000,0.000,0.000,0.0000,46,70,0.00,0.00,0.00,0.0000,0.0000,0.0000,0.0000,0.0000,0.0000,0.0000,0.00,0.00,0.00,0.8510,0.2360,1.1280,0.0000,2.7470,432,0.0000,0.0000,0.0000,0.0000,0.0000,0
6238,-0.0482,0.0917,-0.0110,-0.5557,0.0560,0.0411,9.27,0.80,9.87,0,3.357,-39.067,100.299,-24.447,-0.001,-0.001,1.033,0.000,0.000,0.000,0.0030,28,27,0.00,0.00,0.00,0.0000,0.0000,0.0000,0.0000,0.0000,0.0000,0.0000,0.00,0.00,0.00,0.8510,0.2360,1.1460,0.1490,2.7470,473,0.0000,0.0000,0.0000,0.0000,0.0000,0
6290,-0.0740,0.0537,-0.0125,-0.5398,-0.2212,0.0500,8.66,-3.94,9.23,0,3.352,-98.185,70.213,-23.931,0.001,-0.007,1.036,0.000,0.000,0.000,0.0090,73,28,0.00,0.00,0.00,0.0000,0.0000,0.0000,0.0000,0.0000,0.0000,0.0000,0.00,0.00,0.00,0.0000,0.0000,1.1460,0.1490,2.7450,473,0.0000,0.0000,0.0000,0.0000,0.0000,0
6342,-0.0902,0.0032,-0.0127,-0.4380,-0.4709,0.0618,4.90,-8.24,8.11,0,3.352,-110.794,16.709,-21.803,0.005,-0.009,1.095,0.000,0.000,0.000,0.0130,34,-3,0.00,0.00,0.00,0.0000,0.0000,0.0000,0.0000,0.0000,0.0000,0.0000,0.00,0.00,0.00,0.0000,0.0000,1.1340,0.0000,2.7450,427,0.0000,0.0000,0.0000,0.0000,0.0000,0
6393,-0.0916,-0.0406,-0.0034,-0.2491,-0.5853,0.1323,0.06,-10.22,6.67,0,3.368,-90.590,-32.082,-16.059,0.008,-0.009,1.087,0.000,0.000,0.000,0.0200,52,-26,0.00,0.00,0.00,0.0000,0.0000,0.0000,0.0000,0.0000,0.0000,0.0000,0.00,0.00,0.00,0.1910,0.0000,1.1340,0.0000,0.0000,427,0.0000,0.0000,0.0000,0.0000,0.0000,0
6444,-0.0763,-0.0788,0.0083,-0.0171,-0.6016,0.1960,-4.79,-9.97,5.16,0,3.373,-64.918,-49.099,-10.927,-0.011,-0.005,1.013,0.000,0.000,0.000,0.0270,15,-22,0.00,0.00,0.00,0.0000,0.0000,0.0000,0.0000,0.0000,0.0000,0.0000,0.00,0.00,0.00,0.1910,0.0000,1.1420,0.0000,0.0000,427,0.0000,0.0000,0.0000,0.0000,0.0000,0
6495,-0.0516,-0.0978,0.0227,0.1883,-0.4891,0.2316,-8.74,-8.46,4.05,0,3.378,-30.077,-79.739,-6.077,-0.017,-0.004,0.984,0.000,0.000,0.000,0.0410,6,-25,0.00,0.00,0.00,0.0000,0.0000,0.0000,0.0000,0.0000,0.0000,0.0000,0.00,0.00,0.00,0.7930,0.2880,1.1420,0.0000,0.0000,427,0.0000,0.0000,0.0000,0.0000,0.0000,0
6546,-0.0243,-0.1041,0.0371,0.3302,-0.3189,0.2383,-11.05,-5.27,3.70,0,3.368,16.858,-115.000,-2.846,-0.016,-0.009,0.977,0.000,0.000,0.000,0.0440,-10,-60,0.00,0.00,0.00,0.0000,0.0000,0.0000,0.0000,0.0000,0.0000,0.0000,0.00,0.00,0.00,0.7930,0.2880,0.0000,1.6540,0.0000,433,0.0000,0.0000,0.0000,0.0000,0.0000,0
6597,0.0136,-0.0925,0.0419,0.4653,-0.1072,0.1950,-10.99,-0.47,4.04,0,3.357,57.972,-88.147,-3.975,-0.019,-0.011,0.968,0.000,0.000,0.000,0.0520,-14,-26,0.00,0.00,0.00,0.0000,0.0000,0.0000,0.0000,0.0000,0.0000,0.0000,0.00,0.00,0.00,0.0000,0.0000,0.0000,1.6540,0.0000,417,0.0000,0.0000,0.0000,0.0000,0.0000,0
6648,0.0383,-0.0746,0.0467,0.4924,0.0623,0.1718,-8.87,3.60,4.30,0,3.352,63.185,-68.661,-5.081,-0.014,-0.029,0.986,0.000,0.000,0.000,0.0550,-38,-42,0.00,0.00,0.00,0.0000,0.0000,0.0000,0.0000,0.0000,0.0000,0.0000,0.00,0.00,0.00,0.0000,0.0000,0.0000,1.6550,0.0000,417,0.0000,0.0000,0.0000,0.0000,0.0000,0
6699,0.0658,-0.0471,0.0498,0.4768,0.2380,0.1348,-6.13,7.10,4.24,0,3.336,54.377,-64.525,0.155,-0.004,-0.029,1.039,0.000,0.000,0.000,0.0520,-19,-17,0.00,0.00,0.00,0.0000,0.0000,0.0000,0.0000,0.0000,0.0000,0.0000,0.00,0.00,0.00,0.8790,0.1470,0.0000,1.6550,2.6770,417,0.0000,0.0000,0.0000,0.0000,0.0000,0
6751,0.0822,-0.0209,0.0526,0.3861,0.3455,0.1183,-4.02,10.22,4.35,0,3.331,64.682,-24.644,2.957,-0.004,-0.022,1.064,0.000,0.000,0.000,0.0540,-21,-8,0.00,0.00,0.00,0.0000,0.0000,0.0000,0.0000,0.0000,0.0000,0.0000,0.00,0.00,0.00,0.8790,0.1470,1.1170,0.0000,2.6770,428,0.0000,0.0000,0.0000,0.0000,0.0000,0
6802,0.0908,0.0039,0.0559,0.2543,0.4018,0.1166,-1.09,11.86,4.36,0,3.326,71.547,28.554,1.290,0.001,-0.033,1.063,0.000,0.000,0.000,0.0540,-44,3,0.00,0.00,0.00,0.0000,0.0000,0.0000,0.0000,0.0000,0.0000,0.0000,0.00,0.00,0.00,0.0000,0.1280,1.1170,0.0000,2.6820,428,0.0000,0.0000,0.0000,0.0000,0.0000,0
6853,0.0910,0.0333,0.0562,0.1026,0.4473,0.1058,2.39,11.05,4.29,0,3.320,55.124,60.160,-0.948,0.010,-0.033,1.071,0.000,0.000,0.000,0.0580,-18,9,0.00,0.00,0.00,0.0000,0.0000,0.0000,0.0000,0.0000,0.0000,0.0000,0.00,0.00,0.00,0.0000,0.1280,1.0960,1.4030,2.6820,448,0.0000,0.0000,0.0000,0.0000,0.0000,0
6905,0.0833,0.0540,0.0598,-0.0421,0.4123,0.1201,5.24,8.75,4.28,0,3.320,34.306,63.802,-4.135,0.010,-0.022,1.060,0.000,0.000,0.000,0.0820,-24,21,0.00,0.00,0.00,0.0000,0.0000,0.0000,0.0000,0.0000,0.0000,0.0000,0.00,0.00,0.00,0.0000,0.1470,1.0960,1.4030,2.6840,448,0.0000,0.0000,0.0000,0.0000,0.0000,0
6957,0.0692,0.0753,0.0717,-0.1643,0.3603,0.1755,7.26,5.68,4.19,0,3.336,1.651,56.900,-8.196,0.013,-0.019,1.057,0.000,0.000,0.000,0.0820,-4,12,0.00,0.00,0.00,0.0000,0.0000,0.0000,0.0000,0.0000,0.0000,0.0000,0.00,0.00,0.00,0.0000,0.1470,1.0770,0.0000,2.6840,448,0.0000,0.0000,0.0000,0.0000,0.0000,0
7008,0.0565,0.0809,0.0826,-0.2229,0.2351,0.2082,7.93,2.68,3.85,0,3.336,-15.001,57.114,-8.509,0.018,-0.019,1.052,0.000,0.000,0.000,0.0950,3,13,0.00,0.00,0.00,0.0000,0.0000,0.0000,0.0000,0.0000,0.0000,0.0000,0.00,0.00,0.00,0.7690,0.2060,1.0770,0.0000,2.6590,448,0.0000,0.0000,0.0000,0.0000,0.0000,0
7059,0.0433,0.0838,0.0943,-0.2470,0.1284,0.2340,7.51,-0.07,3.62,0,3.347,-21.071,48.778,-11.725,0.012,-0.014,1.033,0.000,0.000,0.000,0.0850,9,23,0.00,0.00,0.00,0.0000,0.0000,0.0000,0.0000,0.0000,0.0000,0.0000,0.00,0.00,0.00,0.7690,0.2060,1.0740,1.1590,2.6590,450,0.0000,0.0000,0.0000,0.0000,0.0000,0
7110,0.0315,0.0784,0.0973,-0.2422,0.0174,0.2042,6.80,-2.43,3.11,0,3.336,-38.438,25.425,-14.871,0.018,-0.010,1.038,0.000,0.000,0.000,0.0930,6,7,0.00,0.00,0.00,0.0000,0.0000,0.0000,0.0000,0.0000,0.0000,0.0000,0.00,0.00,0.00,0.7800,0.2380,1.0740,1.1590,2.6370,463,0.0000,0.0000,0.0000,0.0000,0.0000,0
7161,0.0243,0.0726,0.1017,-0.2008,-0.0632,0.1876,5.05,-3.95,2.42,0,3.331,-49.058,23.379,-12.420,0.013,-0.010,1.049,0.000,0.000,0.000,0.0950,15,8,0.00,0.00,0.00,0.0000,0.0000,0.0000,0.0000,0.0000,0.0000,0.0000,0.00,0.00,0.00,0.7800,0.2380,1.0640,1.3750,2.6370,463,0.0000,0.0000,0.0000,0.0000,0.0000,0
7212,0.0194,0.0649,0.1044,-0.1474,-0.1212,0.1663,2.73,-5.19,1.72,0,3.326,-31.867,-10.025,-10.116,0.009,-0.007,1.056,0.000,0.000,0.000,0.1050,5,2,0.00,0.00,0.00,0.0000,0.0000,0.0000,0.0000,0.0000,0.3000,0.2839,-1.04,-5.14,-51.50,0.7950,0.0000,1.0640,1.3750,2.6330,463,0.0000,0.0000,0.0000,0.0000,0.0000,0
7263,0.0164,0.0589,0.1100,-0.0880,-0.1412,0.1737,1.07,-4.95,1.11,0,3.320,-32.682,-9.791,-8.559,0.003,-0.009,1.059,0.000,0.000,0.000,0.1130,6,-2,2.73,5.19,1.72,0.0194,0.0649,0.1050,0.0000,0.0000,0.3000,0.2820,-2.31,-2.78,-33.38,0.7950,0.0000,1.0720,1.4080,2.6330,435,0.0000,0.0000,0.0000,0.0000,0.0000,0
7314,0.0155,0.0528,0.1167,-0.0337,-0.1448,0.1854,-0.51,-4.38,0.66,0,3.326,-23.957,-18.444,-7.545,0.003,-0.007,1.060,0.000,0.000,0.000,0.1280,9,-4,1.39,5.44,1.23,0.0256,0.0534,0.1122,0.0000,0.0000,0.3000,0.2795,-2.90,-0.46,-19.67,0.8240,0.2900,1.0720,1.4080,2.6040,435,0.0000,0.0000,0.0000,0.0000,0.0000,0
7366,0.0151,0.0455,0.1272,0.0078,-0.1402,0.2149,-1.67,-3.56,0.26,0,3.331,-6.729,-26.030,-7.400,0.002,-0.011,1.053,0.000,0.000,0.000,0.1360,4,-3,1.97,3.97,0.66,0.0301,0.0413,0.1233,0.0000,0.0000,0.3000,0.2744,-3.24,1.37,-7.78,0.8240,0.2900,1.0830,1.5250,2.6040,454,0.0000,0.0000,0.0000,0.0000,0.0000,0
7417,0.0163,0.0400,0.1377,0.0396,-0.1195,0.2369,-2.13,-2.31,-0.07,0,3.341,-1.344,-22.934,-4.980,0.000,-0.009,1.034,0.000,0.000,0.000,0.1480,8,-12,-1.08,4.10,0.43,0.0321,0.0345,0.1451,0.0000,0.0000,0.3000,0.2700,-2.72,2.93,2.19,0.8630,0.0000,1.0830,1.5250,2.5610,454,0.0000,0.0000,0.0000,0.0000,0.0000,0
7468,0.0194,0.0340,0.1492,0.0641,-0.1038,0.2506,-2.25,-1.27,-0.32,0,3.336,3.585,-13.334,-5.402,0.002,-0.010,1.023,0.000,0.000,0.000,0.1630,2,-1,0.47,-0.90,0.16,0.0477,0.0229,0.1585,0.0000,0.0000,0.3000,0.2664,-2.45,4.33,9.58,0.8630,0.0000,1.0940,1.6410,2.5610,464,0.0000,0.0000,0.0000,0.0000,0.0000,0
7519,0.0230,0.0305,0.1625,0.0750,-0.0788,0.2664,-2.12,-0.56,-0.55,0,3.341,5.284,-10.821,-4.262,0.002,-0.013,1.006,0.000,0.000,0.000,0.1830,2,-3,-1.29,2.36,-0.25,0.0493,0.0182,0.1841,0.0000,0.0000,0.3000,0.2622,-1.55,5.16,16.48,0.9220,0.0000,1.0940,1.6410,2.5320,464,0.0000,0.0000,0.0000,0.0000,0.0000,0
7570,0.0279,0.0275,0.1789,0.0839,-0.0578,0.2893,-1.90,-0.05,-0.76,0,3.352,8.498,-12.147,-3.740,0.003,-0.014,1.002,0.000,0.000,0.000,0.1970,0,-5,-1.66,2.99,-0.48,0.0539,0.0148,0.1991,0.0000,0.0000,0.3000,0.2566,-0.80,6.05,22.74,0.9220,0.0000,1.0930,1.6560,2.5320,464,0.0000,0.0000,0.0000,0.0000,0.0000,0
7621,0.0334,0.0251,0.1949,0.0893,-0.0409,0.2985,-1.47,0.46,-0.92,0,3.357,10.101,-8.665,-2.664,0.000,-0.017,0.980,0.000,0.000,0.000,0.2150,-3,-2,-2.00,2.77,-0.60,0.0628,0.0152,0.2135,0.0000,0.0000,0.3000,0.2526,-0.15,6.80,27.72,1.0350,0.0000,1.0930,1.6560,2.5040,464,0.0000,0.0000,0.0000,0.0000,0.0000,0
7672,0.0372,0.0248,0.2131,0.0828,-0.0226,0.3093,-1.04,0.86,-1.08,0,3.362,9.235,-5.355,-3.162,-0.001,-0.012,0.966,0.000,0.000,0.000,0.2260,-2,-2,-2.56,3.37,-0.73,0.0663,0.0220,0.2278,0.0000,0.0000,0.3000,0.2480,0.73,6.89,32.48,1.0350,0.0000,1.0860,1.6530,2.5040,442,0.0000,0.0000,0.0000,0.0000,0.0000,0
7724,0.0422,0.0241,0.2273,0.0797,-0.0129,0.2896,-0.61,0.97,-1.18,0,3.362,10.351,-6.753,-1.829,0.004,-0.017,0.954,0.000,0.000,0.000,0.2310,-1,-1,-2.37,3.55,-0.86,0.0701,0.0272,0.2407,0.0000,0.0000,0.3000,0.2474,1.17,7.12,35.39,0.0000,0.0000,1.0860,1.6530,2.4750,455,0.0000,0.0000,0.0000,0.0000,0.0000,0
7776,0.0461,0.0244,0.2369,0.0728,-0.0047,0.2455,-0.19,1.07,-1.22,0,3.352,8.015,-2.668,-0.449,0.003,-0.017,0.956,0.000,0.000,0.000,0.2430,-1,0,-1.74,3.92,-0.95,0.0717,0.0299,0.2498,0.0000,0.0000,0.3000,0.2504,1.58,6.99,36.74,0.0000,0.0000,1.0910,1.6620,2.4750,455,0.0000,0.0000,0.0000,0.0000,0.0000,0
7828,0.0499,0.0241,0.2464,0.0651,-0.0028,0.2090,0.11,1.13,-1.26,0,3.347,3.787,-4.825,0.763,0.004,-0.019,0.961,0.000,0.000,0.000,0.2550,-1,-3,-1.24,4.11,-0.99,0.0709,0.0325,0.2583,0.0000,0.0000,0.3000,0.2525,1.64,6.83,37.92,0.0000,0.2660,1.0910,1.6620,2.4520,455,0.0000,0.0000,0.0000,0.0000,0.0000,0
7880,0.0548,0.0245,0.2565,0.0621,-0.0018,0.1876,0.29,1.17,-1.27,0,3.341,-0.591,1.838,1.701,-0.002,-0.017,0.965,0.000,0.000,0.000,0.2600,0,-1,-1.01,3.80,-0.84,0.0786,0.0350,0.2673,0.0000,0.0000,0.3000,0.2529,1.72,7.03,37.97,0.0000,0.2660,1.0760,1.6510,2.4520,443,0.0000,0.0000,0.0000,0.0000,0.0000,0
7931,0.0571,0.0256,0.2631,0.0508,0.0003,0.1566,0.33,1.13,-1.25,0,3.341,2.508,3.108,0.704,0.002,-0.019,0.974,0.000,0.000,0.000,0.2730,0,-2,-0.88,3.52,-0.76,0.0810,0.0347,0.2733,0.0000,0.0000,0.3000,0.2551,1.88,6.59,37.46,0.0000,0.2550,1.0760,1.6510,2.4310,443,0.0000,0.0000,0.0000,0.0000,0.0000,0
7982,0.0615,0.0252,0.2722,0.0477,-0.0033,0.1497,0.52,1.07,-1.21,0,3.341,-0.358,2.759,1.500,0.003,-0.015,0.981,0.000,0.000,0.000,0.2810,1,-1,-0.65,3.05,-0.71,0.0863,0.0346,0.2807,0.0000,0.0000,0.3000,0.2541,1.69,6.80,36.24,0.0000,0.2550,1.0670,1.6750,2.4310,492,0.0000,0.0000,0.0000,0.0000,0.0000,0
8033,0.0643,0.0263,0.2800,0.0403,-0.0034,0.1413,0.49,0.93,-1.14,0,3.341,0.100,0.389,1.248,0.004,-0.015,0.985,0.000,0.000,0.000,0.2910,-1,0,-0.49,2.75,-0.65,0.0889,0.0316,0.2877,0.0000,0.0000,0.3000,0.2535,1.77,6.65,34.17,0.0000,0.0000,1.0670,1.6750,2.4030,492,0.0000,0.0000,0.0000,0.0000,0.0000,0
8085,0.0653,0.0277,0.2892,0.0300,-0.0028,0.1429,0.46,0.87,-1.07,0,3.341,0.334,0.985,2.401,0.002,-0.014,0.978,0.000,0.000,0.000,0.2960,0,-1,-0.59,2.69,-0.57,0.0886,0.0348,0.2954,0.0000,0.0000,0.3000,0.2516,1.91,6.27,32.13,0.0000,0.0000,1.0790,1.6840,2.4030,492,0.0000,0.0000,0.0000,0.0000,0.0000,0
8136,0.0682,0.0274,0.2960,0.0272,-0.0066,0.1324,0.51,0.70,-0.96,0,3.347,-0.657,0.170,2.955,0.006,-0.015,0.974,0.000,0.000,0.000,0.2980,0,-2,-0.55,2.47,-0.45,0.0916,0.0347,0.3017,0.0000,0.0000,0.3000,0.2514,1.71,6.36,28.82,0.0000,0.2650,1.0790,1.6840,2.4040,492,0.0000,0.0000,0.0000,0.0000,0.0000,0
8187,0.0728,0.0270,0.3010,0.0301,-0.0105,0.1127,0.49,0.49,-0.82,0,3.347,0.244,1.633,3.072,-0.002,-0.013,0.979,0.000,0.000,0.000,0.3070,0,0,-0.58,2.20,-0.31,0.0981,0.0346,0.3060,0.0000,0.0000,0.3000,0.2526,1.48,6.80,24.52,0.0000,0.2650,1.0640,1.6690,2.4040,449,0.0000,0.0000,0.0000,0.0000,0.0000,0
8238,0.0751,0.0271,0.3067,0.0279,-0.0126,0.1028,0.45,0.45,-0.69,0,3.341,-2.747,-2.523,2.982,0.007,-0.018,0.981,0.000,0.000,0.000,0.3130,0,-1,-0.57,2.12,-0.16,0.0969,0.0349,0.3110,0.0000,0.0000,0.3000,0.2526,1.38,6.86,20.60,0.0000,0.2450,1.0640,1.6690,2.4120,460,0.0000,0.0000,0.0000,0.0000,0.0000,0
8290,0.0770,0.0276,0.3126,0.0251,-0.0130,0.0966,0.26,0.66,-0.52,0,3.336,-2.431,4.878,2.525,0.004,-0.017,0.979,0.000,0.000,0.000,0.3150,0,0,-0.71,2.00,-0.03,0.2302,-0.0892,0.3160,0.0000,0.0000,0.3000,0.2522,1.40,6.88,15.57,0.0000,0.2450,1.0680,1.6530,2.4120,460,0.2301,-0.0893,0.0000,0.1048,0.0347,0
8342,0.0783,0.0287,0.3162,0.0202,-0.0108,0.0816,0.17,0.44,-0.38,0,3.341,-2.138,-2.323,2.864,0.004,-0.015,0.979,0.000,0.000,0.000,0.3170,0,-2,-0.84,1.74,0.10,0.2294,-0.0893,0.3196,0.0000,0.0000,0.3000,0.2531,1.59,6.71,11.42,0.0000,0.2560,1.0680,1.6530,2.3840,460,0.2301,-0.0893,0.0000,0.1048,0.0347,0
8393,0.0800,0.0309,0.3191,0.0185,-0.0054,0.0663,0.09,0.41,-0.24,0,3.336,-2.489,-3.508,3.331,0.004,-0.014,0.985,0.000,0.000,0.000,0.3200,0,-3,-0.97,1.60,0.21,0.2353,-0.0892,0.3221,0.0000,0.0000,0.3000,0.2542,2.00,6.72,7.12,0.0000,0.2560,1.0640,1.6000,2.3840,441,0.2301,-0.0893,0.0000,0.1048,0.0347,0
8444,0.0844,0.0312,0.3212,0.0231,-0.0048,0.0533,0.01,0.43,-0.09,0,3.336,-0.427,-1.061,2.391,0.006,-0.014,0.992,0.000,0.000,0.000,0.3230,-1,0,-1.10,1.64,0.38,0.2401,-0.0891,0.3240,0.0000,0.0000,0.3000,0.2552,2.04,7.24,2.64,2.5990,0.2440,1.0640,1.6000,2.3720,441,0.2301,-0.0893,0.0000,0.1048,0.0347,0
8495,0.0885,0.0365,0.3236,0.0262,0.0074,0.0477,0.03,0.31,0.04,0,3.336,1.459,-6.639,2.299,0.002,-0.015,0.995,0.000,0.000,0.000,0.3250,-1,0,-1.18,1.71,0.47,0.2405,-0.0872,0.3262,0.0000,0.0000,0.3000,0.2554,3.02,7.67,-1.28,2.5990,0.2440,1.0590,1.4840,2.3720,426,0.2301,-0.0893,0.0000,0.1048,0.0347,0
8545,0.0892,0.0387,0.3255,0.0222,0.0110,0.0421,0.10,0.54,0.15,0,3.331,1.919,-2.200,2.216,0.004,-0.013,0.996,0.000,0.000,0.000,0.3260,-3,-1,-1.15,2.04,0.57,0.2404,-0.0847,0.3280,0.0000,0.0000,0.3000,0.2556,3.35,7.53,-4.41,0.0000,0.2360,1.0590,1.4840,2.3630,426,0.2301,-0.0893,0.0000,0.1048,0.0347,0
8597,0.0944,0.0436,0.3271,0.0263,0.0194,0.0375,0.16,0.53,0.25,0,3.331,2.908,-0.900,1.032,0.002,-0.016,1.000,0.000,0.000,0.000,0.3290,-3,0,-1.20,2.09,0.59,0.2425,-0.0771,0.3294,0.0000,0.0000,0.3000,0.2558,4.11,8.09,-7.36,0.0000,0.2360,1.0550,1.4920,2.3630,426,0.2301,-0.0893,0.0000,0.1048,0.0347,0
8647,0.0982,0.0466,0.3290,0.0272,0.0222,0.0374,0.28,0.52,0.31,0,3.331,3.807,-3.268,1.384,0.004,-0.017,0.998,0.000,0.000,0.000,0.3300,0,-1,-1.17,2.12,0.58,0.2423,-0.0685,0.3310,0.0000,0.0000,0.3000,0.2555,4.46,8.41,-9.32,0.0000,0.2340,1.0550,1.4920,2.3610,426,0.2301,-0.0893,0.0000,0.1048,0.0347,0
8699,0.1025,0.0500,0.3307,0.0291,0.0242,0.0367,0.47,0.57,0.37,0,3.331,3.234,0.150,1.476,0.002,-0.016,0.999,0.000,0.000,0.000,0.3340,-1,-2,-0.92,2.21,0.70,0.2448,-0.0677,0.3328,0.0000,0.0000,0.3000,0.2552,4.81,8.82,-10.96,0.0000,0.2340,1.0490,1.5560,2.3610,466,0.2301,-0.0893,0.0000,0.1048,0.0347,0
8750,0.1066,0.0529,0.3332,0.0298,0.0239,0.0412,0.59,0.56,0.43,0,3.331,1.956,-0.916,0.632,0.006,-0.014,1.000,0.000,0.000,0.000,0.3350,-1,-2,-0.75,2.07,0.79,0.2507,-0.0643,0.3352,0.0000,0.0000,0.3000,0.2543,5.03,9.18,-12.83,0.0000,0.0000,1.0490,1.5560,2.3580,452,0.2301,-0.0893,0.0000,0.1048,0.0347,0
8801,0.1111,0.0571,0.3353,0.0312,0.0251,0.0416,0.62,0.59,0.48,0,3.331,2.356,-0.548,0.869,0.001,-0.011,1.002,0.000,0.000,0.000,0.3400,-1,-1,-0.65,2.00,0.82,0.2568,-0.0609,0.3371,0.0000,0.0000,0.3000,0.2538,5.40,9.59,-14.42,0.0000,0.0000,1.0350,1.6120,2.3580,452,0.2301,-0.0893,0.0000,0.1048,0.0347,0
8852,0.1137,0.0577,0.3385,0.0284,0.0187,0.0480,0.68,0.64,0.52,0,3.336,0.891,-1.541,0.052,0.007,-0.013,0.994,0.000,0.000,0.000,0.3370,0,-1,-0.53,1.97,0.87,0.2599,-0.0574,0.3401,0.0000,0.0000,0.3000,0.2525,5.16,9.69,-15.62,0.0000,0.2160,1.0350,1.6120,2.3720,452,0.2301,-0.0893,0.0000,0.1048,0.0347,0
8904,0.1210,0.0612,0.3395,0.0346,0.0178,0.0401,0.73,0.62,0.53,0,3.331,0.497,1.871,-1.107,0.005,-0.016,1.001,0.000,0.000,0.000,0.3390,0,-1,-0.44,2.00,0.90,0.2633,-0.0573,0.3412,0.0000,0.0000,0.3000,0.2532,5.36,10.48,-15.93,0.0000,0.2160,1.0370,1.7290,2.3720,505,0.2301,-0.0893,0.0000,0.1048,0.0347,0
8955,0.1238,0.0652,0.3404,0.0319,0.0179,0.0333,0.69,0.57,0.51,0,3.326,1.254,-1.680,-0.653,0.006,-0.013,0.997,0.000,0.000,0.000,0.3440,0,0,-0.37,1.85,0.85,0.2668,-0.0575,0.3424,0.0000,0.0000,0.3000,0.2537,5.64,10.53,-15.16,0.0000,0.2140,1.0370,1.7290,2.3640,505,0.2301,-0.0893,0.0000,0.1048,0.0347,0
9007,0.1289,0.0664,0.3430,0.0335,0.0132,0.0367,0.67,0.66,0.47,0,3.331,3.674,2.267,-1.869,0.010,-0.015,0.997,0.000,0.000,0.000,0.3440,1,-1,-0.31,1.93,0.82,0.2664,-0.0555,0.3447,0.0000,0.0000,0.3000,0.2529,5.53,11.00,-14.17,0.0000,0.2140,1.0270,1.7640,2.3640,495,0.2301,-0.0893,0.0000,0.1048,0.0347,0
9059,0.1334,0.0686,0.3445,0.0334,0.0105,0.0341,0.71,0.62,0.40,0,3.331,-1.764,-2.092,-2.089,0.004,-0.011,0.997,0.000,0.000,0.000,0.3450,-1,-2,0.01,1.72,0.77,0.2737,-0.0640,0.3463,0.0000,0.0000,0.3000,0.2529,5.55,11.31,-11.88,2.5590,0.2240,1.0270,1.7640,2.3460,495,0.2301,-0.0893,0.0000,0.1048,0.0347,0
9111,0.1370,0.0711,0.3458,0.0318,0.0081,0.0315,0.72,0.65,0.27,0,3.331,-3.092,-0.815,-2.835,0.004,-0.017,1.001,0.000,0.000,0.000,0.3490,0,0,-0.12,1.75,0.61,0.2792,-0.0612,0.3476,0.0000,0.0000,0.3000,0.2529,5.62,11.49,-8.16,2.5590,0.2240,1.0210,1.7790,2.3460,495,0.2301,-0.0893,0.0000,0.1048,0.0347,0
9162,0.1415,0.0716,0.3481,0.0318,0.0025,0.0354,0.62,0.67,0.12,0,3.326,-1.397,-2.552,-3.534,0.007,-0.011,0.999,0.000,0.000,0.000,0.3480,0,-1,-0.27,1.80,0.46,0.2792,-0.0615,0.3496,0.0000,0.0000,0.3000,0.2520,5.40,11.85,-3.47,0.0000,0.2040,1.0210,1.7790,2.3510,495,0.2301,-0.0893,0.0000,0.1048,0.0347,0
9213,0.1490,0.0709,0.3492,0.0373,-0.0039,0.0313,0.59,0.66,-0.06,0,3.326,-2.022,-0.384,-3.073,0.007,-0.019,0.998,0.000,0.000,0.000,0.3500,0,-3,-0.35,1.86,0.23,0.2848,-0.0608,0.3508,0.0000,0.0000,0.3000,0.2523,5.03,12.63,1.85,0.0000,0.2040,1.0130,1.7910,2.3510,521,0.2301,-0.0893,0.0000,0.1048,0.0347,0
9264,0.1555,0.0723,0.3504,0.0407,-0.0055,0.0294,0.56,0.69,-0.24,0,3.331,0.366,-2.027,-4.174,0.003,-0.012,0.995,0.000,0.000,0.000,0.3530,0,-1,-0.45,1.79,0.02,0.2922,-0.0610,0.3520,0.0000,0.0000,0.3000,0.2522,5.06,13.25,7.25,2.5660,0.2020,1.0130,1.7910,2.3550,534,0.2301,-0.0893,0.0000,0.1048,0.0347,0
9315,0.1589,0.0729,0.3525,0.0374,-0.0082,0.0306,0.46,0.80,-0.44,0,3.326,-0.954,0.802,-4.809,0.003,-0.012,0.996,0.000,0.000,0.000,0.3530,0,-1,-0.43,1.87,-0.21,0.2950,-0.0611,0.3537,0.0000,0.0000,0.3000,0.2517,4.99,13.36,13.29,2.5660,0.2020,1.0160,1.7910,2.3550,534,0.2301,-0.0893,0.0000,0.1048,0.0347,0
9366,0.1657,0.0734,0.3535,0.0399,-0.0097,0.0271,0.37,0.74,-0.68,0,3.326,0.334,-4.630,-4.467,-0.000,-0.013,0.995,0.000,0.000,0.000,0.3540,0,-2,-0.48,1.80,-0.47,0.2978,-0.0612,0.3548,0.0000,0.0000,0.3000,0.2519,4.95,13.94,20.51,0.0000,0.1960,1.0160,1.7910,2.3380,534,0.2301,-0.0893,0.0000,0.1048,0.0347,0
9418,0.1709,0.0721,0.3546,0.0397,-0.0136,0.0243,0.31,0.83,-0.92,0,3.326,-5.544,-1.510,-2.797,0.002,-0.012,0.996,0.000,0.000,0.000,0.3530,0,0,-0.46,1.97,-0.74,0.3039,-0.0614,0.3557,0.0000,0.0000,0.3000,0.2520,4.66,14.29,27.58,0.0000,0.1960,1.0010,1.7950,2.3380,465,0.2301,-0.0893,0.0000,0.1048,0.0347,0
9468,0.1755,0.0765,0.3546,0.0373,-0.0062,0.0161,0.16,0.96,-1.16,0,3.320,-2.564,1.273,-4.660,0.003,-0.008,0.997,0.000,0.000,0.000,0.3530,0,-3,-0.75,2.05,-0.88,0.3040,-0.0620,0.3559,0.0000,0.0000,0.3000,0.2529,5.32,14.45,34.66,2.5940,0.1860,1.0010,1.7950,2.3520,465,0.2301,-0.0893,0.0000,0.1048,0.0347,0
9520,0.1830,0.0738,0.3545,0.0400,-0.0113,0.0113,0.07,0.89,-1.37,0,3.320,-1.537,-1.991,-4.286,-0.002,-0.015,1.005,0.000,0.000,0.000,0.3530,1,0,-0.88,1.82,-1.20,0.3201,-0.0614,0.3560,0.0000,0.0000,0.3000,0.2534,4.87,15.06,41.22,2.5940,0.1860,1.0080,1.7980,2.3520,475,0.2301,-0.0893,0.0000,0.1048,0.0347,0
9571,0.1871,0.0729,0.3542,0.0365,-0.0124,0.0081,0.06,0.93,-1.59,0,3.326,-1.417,-1.524,-2.954,0.005,-0.012,1.003,0.000,0.000,0.000,0.3550,0,0,-0.93,1.94,-1.40,0.3203,-0.0642,0.3559,0.0000,0.0000,0.3000,0.2538,4.75,15.16,47.59,2.5950,0.0000,1.0080,1.7980,2.3310,475,0.2301,-0.0893,0.0000,0.1048,0.0347,0
9622,0.1910,0.0750,0.3548,0.0328,-0.0075,0.0110,-0.02,0.92,-1.78,0,3.320,0.408,0.012,-3.359,0.004,-0.015,1.007,0.000,0.000,0.000,0.3540,4,-2,-0.99,2.02,-1.55,0.3206,-0.0648,0.3564,0.0000,0.0000,0.3000,0.2534,5.14,15.29,53.31,2.5950,0.0000,1.0020,1.7980,2.3310,475,0.2301,-0.0893,0.0000,0.1048,0.0347,0
9673,0.1986,0.0735,0.3548,0.0362,-0.0094,0.0102,0.03,0.88,-1.98,0,3.320,3.436,0.133,-4.071,0.002,-0.013,1.005,0.000,0.000,0.000,0.3560,-1,-1,-0.80,1.92,-1.63,0.3298,-0.0822,0.3567,0.0000,0.0000,0.3000,0.2535,4.94,15.96,59.25,0.0000,0.0000,1.0020,1.7980,2.3430,475,0.2301,-0.0893,0.0000,0.1048,0.0347,0
9724,0.2043,0.0767,0.3557,0.0364,-0.0027,0.0143,0.11,0.81,-2.16,0,3.315,-1.015,1.845,-2.341,-0.000,-0.020,1.005,0.000,0.000,0.000,0.3540,0,-1,-0.67,1.90,-1.87,0.3324,-0.0809,0.3576,0.0000,0.0000,0.3000,0.2529,5.52,16.39,64.95,0.0000,0.0000,0.9990,1.8000,2.3430,457,0.2301,-0.0893,0.0000,0.1048,0.0347,0
9775,0.2087,0.0764,0.3554,0.0347,-0.0036,0.0105,0.14,0.75,-2.33,0,3.315,1.625,-0.517,-3.926,0.000,-0.015,1.006,0.000,0.000,0.000,0.3530,3,-1,-0.73,1.78,-2.01,0.3351,-0.0817,0.3576,0.0000,0.0000,0.3000,0.2533,5.44,16.58,69.85,0.0000,0.1870,0.9990,1.8000,2.3490,505,0.2301,-0.0893,0.0000,0.1048,0.0347,0
9826,0.2141,0.0736,0.3547,0.0355,-0.0097,0.0061,0.23,0.73,-2.49,0,3.315,0.391,-0.988,-2.833,-0.001,-0.017,1.004,0.000,0.000,0.000,0.3530,0,0,-0.58,1.78,-2.17,0.3376,-0.0908,0.3572,0.0000,0.0000,0.3000,0.2539,4.93,16.95,74.73,0.0000,0.1870,0.9940,1.8010,2.3490,505,0.2301,-0.0893,0.0000,0.1048,0.0347,0
9877,0.2182,0.0807,0.3542,0.0338,0.0026,0.0035,0.17,0.71,-2.63,0,3.315,1.851,0.697,-3.135,0.003,-0.015,1.005,0.000,0.000,0.000,0.3560,0,-3,-0.56,1.83,-2.31,0.3370,-0.0945,0.3568,0.0000,0.0000,0.3000,0.2543,6.04,17.13,78.85,2.6050,0.1910,0.9940,1.8010,2.3530,505,0.2301,-0.0893,0.0000,0.1048,0.0347,0
9928,0.2246,0.0820,0.3551,0.0368,0.0034,0.0100,0.24,0.66,-2.77,0,3.315,3.400,-0.755,-2.590,0.001,-0.013,1.007,0.000,0.000,0.000,0.3580,0,-1,-0.55,1.64,-2.56,0.3533,-0.0888,0.3580,0.0000,0.0000,0.3000,0.2534,6.19,17.74,82.95,2.6050,0.1910,0.9820,1.8040,2.3530,489,0.2301,-0.0893,0.0000,0.1048,0.0347,0
9979,0.2298,0.0817,0.3567,0.0374,0.0005,0.0190,0.42,0.61,-2.87,0,3.315,0.878,0.482,-0.635,0.001,-0.012,1.004,0.000,0.000,0.000,0.3550,0,-1,-0.39,1.67,-2.71,0.3561,-0.0896,0.3591,0.0000,0.0000,0.3000,0.2521,6.06,18.20,85.95,2.5890,0.1900,0.9820,1.8040,2.3410,489,0.2301,-0.0893,0.0000,0.1048,0.0347,0
10030,0.2336,0.0850,0.3567,0.0359,0.0040,0.0160,0.39,0.60,-2.94,0,3.320,-0.753,0.091,-0.776,-0.003,-0.008,1.000,0.000,0.000,0.000,0.3570,0,-1,-0.35,1.62,-2.76,0.3590,-0.0902,0.3591,0.0000,0.0000,0.3000,0.2525,6.46,18.37,88.13,2.5890,0.1900,0.9820,1.8070,2.3410,454,0.2301,-0.0893,0.0000,0.1048,0.0347,0
10082,0.2392,0.0861,0.3573,0.0381,0.0030,0.0159,0.32,0.57,-2.98,0,3.310,0.927,-1.437,-1.538,-0.001,-0.014,1.005,0.000,0.000,0.000,0.3600,-4,-1,-0.40,1.59,-2.81,0.3619,-0.0907,0.3595,0.0000,0.0000,0.3000,0.2523,6.50,18.85,89.34,2.5460,0.1800,0.9820,1.8070,2.3480,454,0.2301,-0.0893,0.0000,0.1048,0.0347,0
10134,0.2453,0.0898,0.3591,0.0410,0.0072,0.0227,0.34,0.60,-3.04,0,3.315,-0.263,-3.047,-0.210,0.003,-0.012,0.999,0.000,0.000,0.000,0.3590,0,-1,-0.47,1.64,-3.01,0.3655,-0.0788,0.3609,0.0000,0.0000,0.3000,0.2513,7.00,19.46,91.14,2.5460,0.1800,0.9760,1.8250,2.3480,454,0.2301,-0.0893,0.0000,0.1048,0.0347,0
10187,0.2477,0.0886,0.3598,0.0366,0.0020,0.0208,0.32,0.67,-3.05,0,3.315,1.497,0.981,1.474,0.002,-0.014,1.002,0.000,0.000,0.000,0.3580,0,-1,-0.48,1.77,-3.03,0.3687,-0.0788,0.3615,0.0000,0.0000,0.3000,0.2513,6.66,19.42,91.52,2.5450,0.1770,0.9760,1.8250,2.3400,454,0.2301,-0.0893,0.0000,0.1048,0.0347,0
10238,0.2520,0.0902,0.3597,0.0354,0.0023,0.0151,0.34,0.66,-2.99,0,3.315,2.030,0.521,2.535,0.005,-0.012,0.997,0.000,0.000,0.000,0.3610,-4,-1,-0.40,1.69,-2.96,0.3721,-0.0790,0.3615,0.0000,0.0000,0.3000,0.2520,6.77,19.60,89.57,2.5450,0.1770,0.9660,1.8290,2.3400,446,0.2301,-0.0893,0.0000,0.1048,0.0347,0
10289,0.2576,0.0950,0.3607,0.0370,0.0086,0.0164,0.38,0.65,-2.86,0,3.310,2.688,0.924,2.561,0.003,-0.012,0.997,0.000,0.000,0.000,0.3560,-1,-1,-0.41,1.63,-2.93,0.3760,-0.0658,0.3622,0.0000,0.0000,0.3000,0.2516,7.44,20.07,85.83,2.5440,0.1660,0.9660,1.8290,2.3400,446,0.2301,-0.0893,0.0000,0.1048,0.0347,0
10340,0.2634,0.0962,0.3592,0.0392,0.0071,0.0026,0.46,0.67,-2.70,0,3.315,-0.471,0.086,4.303,0.002,-0.018,0.994,0.000,0.000,0.000,0.3610,0,1,-0.28,1.55,-2.83,0.3796,-0.0625,0.3610,0.0000,0.0000,0.3000,0.2534,7.41,20.41,80.98,2.5440,0.1660,0.9670,1.8470,2.3400,469,0.2301,-0.0893,0.0000,0.1048,0.0347,0
10391,0.2669,0.0957,0.3600,0.0361,0.0019,0.0044,0.47,0.66,-2.51,0,3.315,-2.285,-6.087,5.718,0.004,-0.015,0.994,0.000,0.000,0.000,0.3630,-1,-4,-0.30,1.57,-2.58,0.3761,-0.0622,0.3614,0.0000,0.0000,0.3000,0.2531,7.13,20.53,75.39,0.0000,0.1770,0.9670,1.8470,2.3340,467,0.2301,-0.0893,0.0000,0.1048,0.0347,0
10442,0.2757,0.1000,0.3615,0.0439,0.0064,0.0095,0.42,0.76,-2.30,0,3.315,-0.803,-2.349,5.101,0.002,-0.019,0.997,0.000,0.000,0.000,0.3610,0,-2,-0.44,1.76,-2.36,0.3904,-0.0592,0.3624,0.0000,0.0000,0.3000,0.2522,7.68,21.50,69.01,0.0000,0.1770,0.9550,1.8550,2.3340,467,0.2301,-0.0893,0.0000,0.1048,0.0347,0
10493,0.2796,0.1024,0.3615,0.0409,0.0070,0.0067,0.45,0.85,-2.06,0,3.315,0.755,-0.705,5.815,0.003,-0.018,1.001,0.000,0.000,0.000,0.3630,-4,-1,-0.48,1.83,-2.12,0.3977,-0.0595,0.3622,0.0000,0.0000,0.3000,0.2525,7.88,21.60,61.93,0.0000,0.0000,0.9550,1.8550,2.3450,482,0.2301,-0.0893,0.0000,0.1048,0.0347,0
10544,0.2848,0.1055,0.3624,0.0397,0.0092,0.0084,0.46,0.86,-1.78,0,3.315,-1.335,-3.091,5.687,0.004,-0.017,1.000,0.000,0.000,0.000,0.3610,0,-2,-0.55,1.85,-1.91,0.4018,-0.0450,0.3626,0.0000,0.0000,0.3000,0.2522,8.22,21.91,53.52,0.0000,0.0000,0.9550,1.8690,2.3450,482,0.2301,-0.0893,0.0000,0.1048,0.0347,0
10595,0.2880,0.1065,0.3620,0.0351,0.0069,0.0038,0.41,0.93,-1.50,0,3.315,1.445,-0.473,4.957,0.006,-0.012,0.998,0.000,0.000,0.000,0.3590,0,0,-0.60,1.95,-1.63,0.4092,-0.0452,0.3624,0.0000,0.0000,0.3000,0.2527,8.17,21.88,44.97,2.5590,0.1680,0.9550,1.8690,2.3380,482,0.2301,-0.0893,0.0000,0.1048,0.0347,0
10646,0.2913,0.1063,0.3608,0.0303,0.0027,-0.0045,0.40,0.94,-1.24,0,3.310,3.238,0.157,4.501,0.002,-0.012,0.997,0.000,0.000,0.000,0.3600,0,0,-0.54,1.97,-1.38,0.4102,-0.0428,0.3614,0.0000,0.0000,0.3000,0.2538,7.92,21.80,37.21,2.5590,0.1680,0.9540,1.8790,2.3380,447,0.2301,-0.0893,0.0000,0.1048,0.0347,0
10697,0.2971,0.1052,0.3603,0.0306,-0.0029,-0.0074,0.39,0.96,-0.99,0,3.310,-0.284,0.890,5.076,0.005,-0.020,1.000,0.000,0.000,0.000,0.3590,-1,0,-0.38,1.96,-1.15,0.4104,-0.0404,0.3609,0.0000,0.0000,0.3000,0.2542,7.56,22.15,29.67,2.5330,0.1670,0.9540,1.8790,2.3400,447,0.2301,-0.0893,0.0000,0.1048,0.0347,0
10749,0.3031,0.1130,0.3595,0.0317,0.0095,-0.0102,0.30,0.87,-0.74,0,3.304,0.711,-0.635,4.552,0.002,-0.015,1.003,0.000,0.000,0.000,0.3590,0,0,-0.38,1.90,-0.88,0.4129,-0.0426,0.3601,0.0000,0.0000,0.3000,0.2547,8.69,22.54,22.21,2.5330,0.1670,0.9460,1.8950,2.3400,447,0.2301,-0.0893,0.0000,0.1048,0.0347,0
10801,0.3061,0.1132,0.3589,0.0270,0.0066,-0.0102,0.32,0.90,-0.51,0,3.310,1.528,0.504,3.580,0.005,-0.011,1.000,0.000,0.000,0.000,0.3560,0,-1,-0.35,1.93,-0.64,0.4119,-0.0413,0.3596,0.0000,0.0000,0.3000,0.2548,8.57,22.53,15.23,2.4980,0.0000,0.9460,1.8950,2.3430,447,0.2301,-0.0893,0.0000,0.1048,0.0347,0
10853,0.3103,0.1129,0.3573,0.0256,0.0025,-0.0150,0.40,0.84,-0.32,0,3.304,-2.042,0.429,3.748,0.000,-0.017,1.005,0.000,0.000,0.000,0.3580,0,0,-0.26,1.85,-0.48,0.4176,-0.0426,0.3583,0.0000,0.0000,0.3000,0.2556,8.33,22.67,9.59,2.4980,0.0000,0.9440,1.9100,2.3430,402,0.2301,-0.0893,0.0000,0.1048,0.0347,0
10904,0.3133,0.1151,0.3573,0.0237,0.0043,-0.0098,0.29,0.80,-0.15,0,3.304,0.827,0.231,3.176,0.006,-0.017,1.005,0.000,0.000,0.000,0.3530,0,-1,-0.37,1.82,-0.28,0.4163,-0.0422,0.3580,0.0000,0.0000,0.3000,0.2551,8.59,22.82,4.38,2.5470,0.0000,0.9440,1.9100,2.3440,402,0.2301,-0.0893,0.0000,0.1048,0.0347,0
10955,0.3187,0.1191,0.3553,0.0259,0.0095,-0.0150,0.25,0.76,0.02,0,3.310,2.955,0.916,3.102,0.004,-0.016,1.006,0.000,0.000,0.000,0.3530,0,-2,-0.33,1.75,-0.15,0.4220,-0.0424,0.3564,0.0000,0.0000,0.3000,0.2560,9.09,23.17,-0.60,2.5470,0.0000,0.9400,1.9110,2.3440,384,0.2301,-0.0893,0.0000,0.1048,0.0347,0
11006,0.3220,0.1186,0.3539,0.0239,0.0054,-0.0152,0.38,0.71,0.19,0,3.304,-0.599,-0.256,3.784,0.005,-0.019,1.008,0.000,0.000,0.000,0.3550,0,-1,-0.19,1.67,-0.02,0.4255,-0.0425,0.3552,0.0000,0.0000,0.3000,0.2563,8.85,23.28,-5.62,2.4730,0.1580,0.9400,1.9110,2.3300,384,0.2301,-0.0893,0.0000,0.1048,0.0347,0
11058,0.3262,0.1197,0.3540,0.0241,0.0040,-0.0074,0.39,0.71,0.35,0,3.304,-0.861,-0.478,3.345,0.003,-0.015,1.009,0.000,0.000,0.000,0.3530,0,-1,-0.23,1.66,0.16,0.4273,-0.0428,0.3550,0.0000,0.0000,0.3000,0.2554,8.89,23.61,-10.53,2.4730,0.1580,0.9410,1.9290,2.3300,358,0.2301,-0.0893,0.0000,0.1048,0.0347,0
11109,0.3288,0.1185,0.3534,0.0212,-0.0019,-0.0048,0.28,0.68,0.52,0,3.310,0.287,-0.205,2.971,0.004,-0.015,1.006,0.000,0.000,0.000,0.3540,0,-1,-0.28,1.65,0.31,0.4295,-0.0430,0.3546,0.0000,0.0000,0.3000,0.2552,8.54,23.67,-15.53,0.0000,0.0000,0.9410,1.9290,2.3330,358,0.2301,-0.0893,0.0000,0.1048,0.0347,0
11160,0.3345,0.1243,0.3536,0.0251,0.0076,0.0000,0.21,0.61,0.66,0,3.304,2.398,-0.866,2.437,0.008,-0.014,1.010,0.000,0.000,0.000,0.3560,0,0,-0.28,1.64,0.44,0.4318,-0.0433,0.3546,0.0000,0.0000,0.3000,0.2547,9.42,24.23,-19.90,0.0000,0.0000,0.9390,1.9270,2.3330,358,0.2301,-0.0893,0.0000,0.1048,0.0347,0
11211,0.3374,0.1241,0.3546,0.0236,0.0048,0.0089,0.30,0.61,0.79,0,3.310,-0.926,-3.432,2.315,0.002,-0.018,0.997,0.000,0.000,0.000,0.3520,4,-1,-0.16,1.68,0.56,0.4308,-0.0443,0.3555,0.0000,0.0000,0.3000,0.2535,9.32,24.45,-23.66,2.4900,0.1470,0.9390,1.9270,2.3390,358,0.2301,-0.0893,0.0000,0.1048,0.0347,0
11262,0.3406,0.1150,0.3538,0.0226,-0.0170,0.0035,0.34,0.64,0.92,0,3.304,-3.374,2.980,1.886,0.007,-0.015,0.997,0.000,0.000,0.000,0.3530,0,0,-0.11,1.79,0.71,0.4378,-0.0596,0.3549,0.0000,0.0000,0.3000,0.2542,7.60,24.54,-27.53,2.4900,0.1470,0.9340,1.9290,2.3390,402,0.2301,-0.0893,0.0000,0.1048,0.0347,0
11313,0.3448,0.1221,0.3536,0.0240,-0.0038,0.0010,0.14,0.50,1.01,0,3.304,1.913,-4.592,0.980,0.007,-0.016,0.999,0.000,0.000,0.000,0.3540,1,-1,-0.28,1.64,0.80,0.4372,-0.0639,0.3545,0.0000,0.0000,0.3000,0.2546,8.73,24.83,-30.33,0.0000,0.0000,0.9340,1.9290,2.3400,402,0.2301,-0.0893,0.0000,0.1048,0.0347,0
11364,0.3482,0.1234,0.3538,0.0242,-0.0025,0.0006,0.15,0.65,1.08,0,3.304,0.965,-1.614,0.630,0.005,-0.014,1.000,0.000,0.000,0.000,0.3530,3,-1,-0.23,1.82,0.78,0.4427,-0.0622,0.3548,0.0000,0.0000,0.3000,0.2546,8.89,25.00,-32.39,0.0000,0.0000,0.9330,1.9300,2.3400,402,0.2301,-0.0893,0.0000,0.1048,0.0347,0
11415,0.3524,0.1195,0.3535,0.0255,-0.0116,-0.0009,0.15,0.73,1.13,0,3.304,1.194,1.751,1.315,0.007,-0.016,1.000,0.000,0.000,0.000,0.3530,-1,-2,-0.15,1.89,0.82,0.4447,-0.0701,0.3543,0.0000,0.0000,0.3000,0.2548,8.17,25.00,-33.95,2.4520,0.1460,0.9330,1.9300,2.3420,457,0.2301,-0.0893,0.0000,0.1048,0.0347,0
11466,0.3573,0.1275,0.3533,0.0271,0.0045,-0.0017,0.03,0.78,1.19,0,3.299,1.584,3.782,0.043,0.007,-0.016,1.002,0.000,0.000,0.000,0.3510,0,0,-0.14,1.76,0.83,0.4492,-0.0693,0.3542,0.0000,0.0000,0.3000,0.2549,9.50,25.00,-35.71,2.4520,0.1460,0.9310,1.9300,2.3420,457,0.2301,-0.0893,0.0000,0.1048,0.0347,0
11517,0.3609,0.1279,0.3523,0.0255,0.0045,-0.0055,0.07,0.68,1.23,0,3.304,0.776,-7.178,0.088,0.003,-0.015,1.001,0.000,0.000,0.000,0.3520,-1,0,-0.06,1.56,0.83,0.4488,-0.0734,0.3533,0.0000,0.0000,0.3000,0.2555,9.51,25.00,-36.78,0.0000,0.0000,0.9310,1.9300,2.3370,485,0.2301,-0.0893,0.0000,0.1048,0.0347,0
11568,0.3622,0.1289,0.3520,0.0202,0.0058,-0.0053,0.13,0.77,1.24,0,3.299,-1.717,-3.300,0.303,0.000,-0.013,1.000,0.000,0.000,0.000,0.3540,-4,-2,-0.12,1.91,0.75,0.4501,-0.0632,0.3533,0.2772,0.1008,0.3000,0.2555,2.41,7.32,-37.25,0.0000,0.0000,0.9270,1.9400,2.3370,485,0.2301,-0.0893,0.0000,0.1048,0.0347,0
11620,0.3660,0.1295,0.3527,0.0195,0.0056,0.0005,0.09,0.80,1.25,0,3.299,1.694,9.594,-1.063,0.006,-0.014,1.000,0.000,0.000,0.000,0.3530,0,1,-0.29,2.04,0.69,0.4540,-0.0549,0.3536,0.2772,0.1008,0.3000,0.2548,2.44,7.58,-37.60,2.4730,0.0000,0.9270,1.9400,2.3540,485,0.2301,-0.0893,0.0000,0.1048,0.0347,0
11670,0.3698,0.1339,0.3529,0.0190,0.0134,0.0025,-0.02,0.58,1.22,0,3.299,4.358,-4.185,-0.122,0.003,-0.012,1.001,0.000,0.000,0.000,0.3530,0,-1,-0.20,1.55,0.65,0.4512,-0.0550,0.3535,0.2772,0.1008,0.3000,0.2545,3.15,7.84,-36.65,2.4730,0.0000,0.9160,1.9500,2.3540,471,0.2301,-0.0893,0.0000,0.1048,0.0347,0
11722,0.3717,0.1377,0.3530,0.0162,0.0189,0.0032,0.21,0.60,1.19,0,3.304,2.919,-4.270,-0.296,0.001,-0.016,1.000,0.000,0.000,0.000,0.3530,0,-1,0.02,1.73,0.61,0.4531,-0.0551,0.3535,0.2772,0.1008,0.3000,0.2544,3.69,7.85,-35.79,2.3840,0.0000,0.9160,1.9500,2.3490,471,0.2301,-0.0893,0.0000,0.4545,-0.0547,0
11773,0.3786,0.1446,0.3531,0.0240,0.0294,0.0032,0.42,0.59,1.15,0,3.299,1.610,-0.014,-0.413,0.002,-0.014,1.000,0.000,0.000,0.000,0.3460,0,-1,0.17,1.92,0.57,0.4556,-0.0552,0.3535,0.2772,0.1008,0.3000,0.2544,4.70,8.71,-34.56,2.3840,0.0000,0.9170,1.9560,2.3490,471,0.2301,-0.0893,0.0000,0.4545,-0.0547,0
11824,0.3803,0.1460,0.3502,0.0205,0.0258,-0.0128,0.54,0.56,1.11,0,3.299,1.728,-6.021,-0.407,0.006,-0.012,1.001,0.000,0.000,0.000,0.3480,0,-1,0.24,1.89,0.51,0.4583,-0.0553,0.3512,0.2772,0.1008,0.3000,0.2567,4.59,8.59,-33.42,2.3820,0.0000,0.9170,1.9560,2.3560,471,0.2301,-0.0893,0.0000,0.4545,-0.0547,0
11875,0.3885,0.1501,0.3489,0.0312,0.0272,-0.0163,0.60,0.64,1.07,0,3.299,2.590,-1.618,-1.272,0.004,-0.010,1.009,0.000,0.000,0.000,0.3460,0,-2,0.32,2.16,0.45,0.4612,-0.0555,0.3500,0.2772,0.1008,0.3000,0.2573,4.94,9.66,-32.09,2.3820,0.0000,0.9080,1.9650,2.3560,471,0.2301,-0.0893,0.0000,0.4545,-0.0547,0
11925,0.3935,0.1594,0.3472,0.0338,0.0390,-0.0192,0.64,0.68,0.99,0,3.294,3.085,-7.444,-1.087,0.001,-0.014,1.007,0.000,0.000,0.000,0.3490,0,2,0.45,2.19,0.31,0.4674,-0.0555,0.3488,0.2772,0.1008,0.3000,0.2579,6.15,10.10,-29.81,2.3940,0.0000,0.9080,1.9650,2.3500,558,0.2301,-0.0893,0.0000,0.4545,-0.0547,0
11977,0.3959,0.1581,0.3474,0.0292,0.0268,-0.0101,0.85,0.87,0.93,0,3.294,-2.464,-3.592,-2.089,-0.000,-0.014,1.012,0.000,0.000,0.000,0.3490,1,-1,0.59,2.60,0.30,0.4609,-0.0558,0.3486,0.2772,0.1008,0.3000,0.2569,5.50,10.09,-27.82,2.3940,0.0000,0.9020,1.9680,2.3500,657,0.2301,-0.0893,0.0000,0.4545,-0.0547,0
12028,0.4026,0.1593,0.3478,0.0333,0.0194,-0.0009,0.82,0.94,0.86,0,3.299,-0.594,1.781,-1.743,0.006,-0.016,1.009,0.000,0.000,0.000,0.3460,0,-1,0.48,2.74,0.12,0.4641,-0.0592,0.3491,0.2772,0.1008,0.3000,0.2558,5.25,10.80,-25.82,2.4040,0.0000,0.9020,1.9680,2.3530,657,0.2301,-0.0893,0.0000,0.4545,-0.0547,0
12079,0.4066,0.1668,0.3471,0.0307,0.0262,-0.0010,0.69,0.91,0.77,0,3.294,1.998,-1.068,-2.091,0.004,-0.011,1.006,0.000,0.000,0.000,0.3450,0,-1,0.44,2.61,-0.03,0.4674,-0.0593,0.3488,0.2772,0.1008,0.3000,0.2560,6.12,10.96,-23.20,2.4040,0.0000,0.8990,1.9700,2.3530,628,0.2301,-0.0893,0.0000,0.4545,-0.0547,0
12129,0.4119,0.1620,0.3462,0.0317,0.0073,-0.0028,0.83,0.96,0.68,0,3.294,-1.828,-2.711,-2.048,0.002,-0.013,1.005,0.000,0.000,0.000,0.3470,0,-1,0.52,2.62,-0.20,0.4708,-0.0593,0.3483,0.2772,0.1008,0.3000,0.2563,4.87,11.36,-20.50,0.0000,0.1390,0.8990,1.9700,2.3530,628,0.2301,-0.0893,0.0000,0.4545,-0.0547,0
12181,0.4163,0.1664,0.3465,0.0298,0.0094,0.0018,0.72,1.06,0.59,0,3.294,-6.705,1.077,-1.073,0.005,-0.013,1.006,0.000,0.000,0.000,0.3510,0,-1,0.42,2.71,-0.36,0.4740,-0.0595,0.3486,0.2772,0.1008,0.3000,0.2558,5.29,11.60,-17.71,0.0000,0.1390,0.8950,1.9740,2.3530,475,0.2301,-0.0893,0.0000,0.4545,-0.0547,0
12233,0.4204,0.1619,0.3486,0.0269,-0.0071,0.0142,0.44,0.99,0.52,0,3.299,-2.662,2.552,-0.286,0.000,-0.015,0.998,0.000,0.000,0.000,0.3470,0,0,0.06,2.61,-0.48,0.4774,-0.0595,0.3501,0.2772,0.1008,0.3000,0.2540,4.20,11.83,-15.61,2.4290,0.1420,0.8950,1.9740,2.3550,475,0.2301,-0.0893,0.0000,0.4545,-0.0547,0
12285,0.4237,0.1614,0.3484,0.0233,-0.0109,0.0105,0.28,0.77,0.49,0,3.294,-7.193,-0.464,-0.254,0.000,-0.016,1.000,0.000,0.000,0.000,0.3470,0,0,-0.08,2.48,-0.49,0.4740,-0.0625,0.3498,0.2772,0.1008,0.3000,0.2545,3.98,11.88,-14.75,2.4290,0.1420,0.8970,1.9790,2.3550,475,0.2301,-0.0893,0.0000,0.4545,-0.0547,0
12336,0.4314,0.1702,0.3481,0.0309,0.0073,0.0053,-0.08,0.73,0.46,0,3.299,1.601,-3.714,-1.592,0.004,-0.010,0.995,0.000,0.000,0.000,0.3480,-7,-1,-0.45,2.51,-0.51,0.4696,-0.0658,0.3494,0.2772,0.1008,0.3000,0.2551,5.48,12.74,-13.88,0.0000,0.0000,0.8970,1.9790,2.3600,475,0.2301,-0.0893,0.0000,0.4545,-0.0547,0
12388,0.4332,0.1689,0.3482,0.0255,0.0045,0.0032,0.07,0.74,0.37,0,3.294,2.353,-3.097,-2.863,0.002,-0.014,1.000,0.000,0.000,0.000,0.3440,0,0,-0.66,2.53,-0.55,0.4952,-0.0161,0.3509,0.2772,0.1008,0.3000,0.2553,5.25,12.60,-11.11,0.0000,0.0000,0.9030,1.9800,2.3600,145,0.2301,-0.0893,0.0000,0.4545,-0.0547,0
12440,0.4387,0.1659,0.3465,0.0286,-0.0025,-0.0079,0.13,0.73,0.24,0,3.294,-1.626,-4.027,-0.882,0.001,-0.014,1.002,0.000,0.000,0.000,0.3460,0,0,-0.53,2.69,-0.70,0.4935,-0.0112,0.3491,0.2772,0.1008,0.3000,0.2568,4.67,13.06,-7.13,2.3790,0.0000,0.9030,1.9800,2.3470,145,0.2301,-0.0893,0.0000,0.4545,-0.0547,0
12493,0.4437,0.1702,0.3460,0.0300,0.0056,-0.0082,0.08,0.89,0.17,0,3.294,1.619,-1.899,-0.878,0.005,-0.015,1.010,0.000,0.000,0.000,0.3440,-4,-3,-0.61,2.90,-0.74,0.4905,-0.0065,0.3483,0.2772,0.1008,0.3000,0.2569,5.37,13.46,-5.15,2.3790,0.0000,0.8950,1.9810,2.3470,145,0.2301,-0.0893,0.0000,0.4545,-0.0547,0
12544,0.4513,0.1748,0.3449,0.0356,0.0146,-0.0100,0.13,0.97,0.13,0,3.294,2.609,-1.354,-0.621,0.003,-0.010,1.011,0.000,0.000,0.000,0.3470,0,-1,-0.53,2.83,-0.85,0.5126,-0.0021,0.3481,0.2772,0.1008,0.3000,0.2573,6.12,14.21,-3.81,0.0000,0.0000,0.8950,1.9810,2.3570,203,0.2301,-0.0893,0.0000,0.4545,-0.0547,0
12595,0.4557,0.1765,0.3455,0.0334,0.0156,-0.0006,0.18,1.01,0.10,0,3.289,2.096,-3.030,-1.409,0.004,-0.020,1.009,0.000,0.000,0.000,0.3430,0,0,-0.38,2.88,-0.90,0.5137,0.0005,0.3484,0.2772,0.1008,0.3000,0.2562,6.31,14.48,-2.94,0.0000,0.0000,0.8940,1.9900,2.3570,203,0.2301,-0.0893,0.0000,0.4545,-0.0547,0
12646,0.4589,0.1804,0.3445,0.0279,0.0202,-0.0024,0.31,1.15,0.04,0,3.294,3.105,0.577,-0.995,0.001,-0.012,1.006,0.000,0.000,0.000,0.3460,-4,-3,-0.27,3.04,-0.97,0.5123,0.0042,0.3474,0.2772,0.1008,0.3000,0.2566,6.81,14.43,-1.28,2.3920,0.0000,0.8940,1.9900,2.3580,358,0.2301,-0.0893,0.0000,0.4545,-0.0547,0
12697,0.4663,0.1840,0.3451,0.0314,0.0231,0.0052,0.41,1.09,0.01,0,3.294,1.787,2.512,-0.918,0.007,-0.013,1.006,0.000,0.000,0.000,0.3440,0,0,-0.15,2.90,-0.96,0.5234,0.0133,0.3479,0.2772,0.1008,0.3000,0.2556,7.22,15.14,-0.29,2.3920,0.0000,0.8940,2.0000,2.3580,358,0.2301,-0.0893,0.0000,0.4545,-0.0547,0
12748,0.4682,0.1857,0.3448,0.0233,0.0208,0.0057,0.48,0.96,-0.02,0,3.294,2.913,4.125,-1.425,0.000,-0.014,1.001,0.000,0.000,0.000,0.3470,0,-2,-0.06,2.77,-1.01,0.5226,0.0178,0.3476,0.2772,0.1008,0.3000,0.2556,7.23,14.91,0.57,0.0000,0.0000,0.8940,2.0000,2.3450,358,0.2301,-0.0893,0.0000,0.4545,-0.0547,0
12799,0.4734,0.1885,0.3460,0.0241,0.0199,0.0113,0.63,0.82,-0.06,0,3.294,-3.117,0.491,-0.005,0.003,-0.010,1.005,0.000,0.000,0.000,0.3440,-1,0,0.15,2.48,-1.21,0.5302,0.0146,0.3486,0.2772,0.1008,0.3000,0.2548,7.41,15.34,1.70,0.0000,0.0000,0.8880,1.9980,2.3450,391,0.2301,-0.0893,0.0000,0.4545,-0.0547,0
12850,0.4744,0.1928,0.3455,0.0173,0.0220,0.0071,0.48,0.78,-0.06,0,3.294,1.137,-4.525,0.295,0.002,-0.016,1.003,0.000,0.000,0.000,0.3480,0,-2,-0.01,2.45,-1.20,0.5298,0.0174,0.3480,0.2772,0.1008,0.3000,0.2554,7.81,15.07,1.77,2.3590,0.1240,0.8880,1.9980,2.3540,391,0.2301,-0.0893,0.0000,0.4545,-0.0547,0
12901,0.4785,0.1970,0.3468,0.0178,0.0239,0.0125,0.53,0.82,-0.05,0,3.294,5.677,1.946,0.226,0.004,-0.012,1.002,0.000,0.000,0.000,0.3450,-2,-1,0.06,2.64,-1.23,0.5329,0.0182,0.3490,0.2772,0.1008,0.3000,0.2545,8.23,15.43,1.44,2.3590,0.1240,0.8870,2.0060,2.3540,391,0.2301,-0.0893,0.0000,0.4545,-0.0547,0
12952,0.4809,0.2010,0.3464,0.0145,0.0248,0.0074,0.78,0.77,-0.04,0,3.294,0.231,3.475,-0.558,0.002,-0.010,0.998,0.000,0.000,0.000,0.3460,-3,-1,0.32,2.52,-1.20,0.5345,0.0230,0.3487,0.2772,0.1008,0.3000,0.2551,8.54,15.41,1.11,2.3630,0.1310,0.8870,2.0060,2.3610,391,0.2301,-0.0893,0.0000,0.4545,-0.0547,0
13003,0.4845,0.2050,0.3464,0.0145,0.0242,0.0053,0.83,0.69,-0.04,0,3.294,-3.236,2.703,-0.268,-0.002,-0.013,1.001,0.000,0.000,0.000,0.3440,-3,0,0.29,2.31,-1.19,0.5363,0.0306,0.3486,0.2772,0.1008,0.3000,0.2553,8.79,15.64,1.11,2.3630,0.1310,0.8840,2.0060,2.3610,390,0.2301,-0.0893,0.0000,0.4545,-0.0547,0
13054,0.4879,0.2059,0.3455,0.0145,0.0176,-0.0015,0.74,0.60,-0.05,0,3.289,0.136,6.542,0.451,0.004,-0.009,0.999,0.000,0.000,0.000,0.3450,-3,0,0.08,2.16,-1.18,0.5359,0.0389,0.3476,0.2772,0.1008,0.3000,0.2563,8.51,15.82,1.54,2.3430,0.1360,0.8840,2.0060,2.3590,396,0.2301,-0.0893,0.0000,0.4545,-0.0547,0
13105,0.4903,0.2061,0.3452,0.0135,0.0110,-0.0042,0.62,0.44,-0.03,0,3.289,-4.445,-3.402,1.242,0.007,-0.019,1.001,0.000,0.000,0.000,0.3460,-1,-1,0.05,1.81,-1.13,0.5354,0.0477,0.3470,0.2772,0.1008,0.3000,0.2566,8.20,15.92,0.94,2.3430,0.1360,0.8840,2.0200,2.3590,396,0.2301,-0.0893,0.0000,0.4545,-0.0547,0
13157,0.4930,0.2056,0.3454,0.0144,0.0039,-0.0018,0.54,0.35,-0.01,0,3.294,-4.361,0.008,0.889,0.003,-0.011,0.998,0.000,0.000,0.000,0.3450,0,-1,-0.18,1.95,-1.11,0.5377,0.0513,0.3471,0.2772,0.1008,0.3000,0.2563,7.84,16.16,0.41,2.2920,0.1360,0.8840,2.0200,2.3510,396,0.2301,-0.0893,0.0000,0.4545,-0.0547,0
13209,0.4962,0.2086,0.3452,0.0168,0.0054,-0.0025,0.38,0.29,0.02,0,3.289,-1.542,-0.217,0.800,-0.000,-0.013,1.001,0.000,0.000,0.000,0.3440,0,0,-0.38,1.91,-1.10,0.5404,0.0517,0.3468,0.2772,0.1008,0.3000,0.2564,8.13,16.47,-0.61,2.2920,0.1360,0.8840,2.0160,2.3510,354,0.2301,-0.0893,0.0000,0.4545,-0.0547,0
13260,0.4995,0.2097,0.3446,0.0198,0.0043,-0.0050,0.22,0.31,0.06,0,3.289,0.256,-2.480,1.651,-0.001,-0.016,0.997,0.000,0.000,0.000,0.3450,-2,-3,-0.46,1.92,-1.06,0.5377,0.0547,0.3460,0.2772,0.1008,0.3000,0.2568,8.14,16.81,-1.66,2.3360,0.1290,0.8840,2.0160,2.3690,354,0.2301,-0.0893,0.0000,0.4545,-0.0547,0
13311,0.5057,0.2107,0.3446,0.0279,0.0044,-0.0041,0.22,0.30,0.13,0,3.289,-3.651,-5.148,1.942,0.007,-0.012,1.005,0.000,0.000,0.000,0.3400,0,-1,-0.47,1.90,-1.06,0.5582,0.0589,0.3463,0.2772,0.1008,0.3000,0.2567,8.22,17.58,-3.81,2.3360,0.1290,0.8880,2.0190,2.3690,342,0.2301,-0.0893,0.0000,0.4545,-0.0547,0
13363,0.5094,0.2117,0.3425,0.0301,0.0044,-0.0136,0.11,0.43,0.23,0,3.289,-5.433,-10.600,2.440,-0.000,-0.007,1.004,0.000,0.000,0.000,0.3460,0,0,-0.64,2.15,-0.97,0.5608,0.0596,0.3445,0.2772,0.1008,0.3000,0.2581,8.25,17.83,-6.90,2.2940,0.0000,0.8880,2.0190,2.3680,342,0.2301,-0.0893,0.0000,0.4545,-0.0547,0
13415,0.5128,0.2136,0.3435,0.0298,0.0074,-0.0035,-0.07,0.75,0.34,0,3.289,-0.502,-1.915,2.913,0.006,-0.005,1.003,0.000,0.000,0.000,0.3420,0,-1,-0.93,2.70,-0.83,0.5602,0.0624,0.3449,0.2772,0.1008,0.3000,0.2568,8.57,18.12,-10.17,2.2940,0.0000,0.8960,2.0160,2.3680,342,0.2301,-0.0893,0.0000,0.4545,-0.0547,0
13468,0.5186,0.2121,0.3428,0.0326,0.0041,-0.0046,-0.09,0.84,0.46,0,3.289,1.815,1.200,1.587,0.005,-0.014,0.998,0.000,0.000,0.000,0.3380,-2,0,-0.92,2.74,-0.68,0.5670,0.0578,0.3445,0.2772,0.1008,0.3000,0.2571,8.30,18.62,-13.94,2.3430,0.1230,0.8960,2.0160,2.3610,342,0.2301,-0.0893,0.0000,0.4545,-0.0547,0
13518,0.5206,0.2180,0.3406,0.0266,0.0168,-0.0151,-0.03,0.80,0.54,0,3.283,2.360,-2.396,-0.875,-0.000,-0.014,1.002,0.000,0.000,0.000,0.3420,0,-2,-0.85,2.67,-0.59,0.5668,0.0629,0.3424,0.2772,0.1008,0.3000,0.2586,9.26,18.39,-16.05,2.3430,0.1230,0.8970,2.0160,2.3610,311,0.2301,-0.0893,0.0000,0.4545,-0.0547,0
13570,0.5241,0.2168,0.3408,0.0247,0.0125,-0.0094,0.16,0.78,0.53,0,3.289,2.999,-2.691,-1.299,0.003,-0.011,1.000,0.000,0.000,0.000,0.3390,-6,-2,-0.72,2.75,-0.61,0.5708,0.0636,0.3422,0.2772,0.1008,0.3000,0.2580,9.00,18.58,-16.04,2.2810,0.0000,0.8970,2.0160,2.3650,368,0.2301,-0.0893,0.0000,0.4545,-0.0547,0
13621,0.5272,0.2214,0.3397,0.0221,0.0197,-0.0115,0.24,0.87,0.49,0,3.283,3.195,3.522,-2.577,0.004,-0.012,1.009,0.000,0.000,0.000,0.3360,0,0,-0.65,2.84,-0.58,0.5757,0.0796,0.3410,0.2772,0.1008,0.3000,0.2584,9.64,18.64,-14.71,2.2810,0.0000,0.8930,2.0070,2.3650,368,0.2301,-0.0893,0.0000,0.4545,-0.0547,0
13672,0.5293,0.2205,0.3378,0.0176,0.0134,-0.0165,0.35,0.76,0.39,0,3.283,1.228,-2.893,-2.122,0.003,-0.009,1.004,0.000,0.000,0.000,0.3360,0,-3,-0.48,2.66,-0.71,0.5737,0.0843,0.3392,0.2772,0.1008,0.3000,0.2593,9.26,18.52,-11.64,2.3080,0.1220,0.8930,2.0070,2.3710,402,0.2301,-0.0893,0.0000,0.4545,-0.0547,0
13724,0.5342,0.2274,0.3365,0.0203,0.0228,-0.0172,0.47,0.73,0.29,0,3.283,0.992,-0.482,-1.343,0.003,-0.012,1.006,0.000,0.000,0.000,0.3380,0,0,-0.34,2.68,-0.81,0.5914,0.0768,0.3391,0.2772,0.1008,0.3000,0.2596,10.16,18.94,-8.58,2.3080,0.1220,0.8950,2.0130,2.3710,402,0.2301,-0.0893,0.0000,0.4545,-0.0547,0
13776,0.5378,0.2328,0.3367,0.0198,0.0277,-0.0088,0.51,0.76,0.24,0,3.289,1.230,0.076,-0.922,0.002,-0.010,1.003,0.000,0.000,0.000,0.3350,0,-3,-0.28,2.71,-0.88,0.5909,0.0793,0.3387,0.2772,0.1008,0.3000,0.2587,10.80,19.21,-7.09,2.2830,0.0000,0.8950,2.0130,2.3750,402,0.2301,-0.0893,0.0000,0.4545,-0.0547,0
13827,0.5410,0.2404,0.3358,0.0184,0.0370,-0.0084,0.50,0.72,0.18,0,3.283,7.797,1.483,-1.766,0.010,-0.008,1.012,0.000,0.000,0.000,0.3360,-5,-3,-0.18,2.60,-0.93,0.6046,0.0760,0.3378,0.2772,0.1008,0.3000,0.2588,11.75,19.35,-5.52,2.2830,0.0000,0.0000,2.0060,2.3750,411,0.2301,-0.0893,0.0000,0.4545,-0.0547,0
13878,0.5429,0.2454,0.3357,0.0153,0.0398,-0.0037,0.71,0.65,0.08,0,3.283,6.166,-3.030,-2.857,0.002,-0.014,1.003,0.000,0.000,0.000,0.3350,3,1,0.15,2.49,-0.94,0.6110,0.0865,0.3375,0.2772,0.1008,0.3000,0.2583,12.25,19.38,-2.53,2.2480,0.0000,0.0000,2.0060,2.3640,411,0.2301,-0.0893,0.0000,0.4545,-0.0547,0
13929,0.5459,0.2439,0.3353,0.0145,0.0253,-0.0027,1.09,0.73,-0.05,0,3.283,0.453,-2.695,-2.588,0.002,-0.011,1.008,0.000,0.000,0.000,0.3330,-1,-2,0.53,2.66,-1.15,0.6088,0.0807,0.3370,0.2772,0.1008,0.3000,0.2583,11.48,19.54,1.50,2.2480,0.0000,0.9200,2.0070,2.3640,411,0.2301,-0.0893,0.0000,0.4545,-0.0547,0
13980,0.5494,0.2511,0.3342,0.0146,0.0290,-0.0065,1.15,0.79,-0.21,0,3.283,3.860,-5.420,-0.868,-0.001,-0.016,1.007,0.000,0.000,0.000,0.3340,2,-2,0.55,2.75,-1.28,0.6134,0.0831,0.3362,0.2772,0.1008,0.3000,0.2589,12.12,19.74,6.16,2.2580,0.0000,0.9200,2.0070,2.3680,411,0.2301,-0.0893,0.0000,0.4545,-0.0547,0
14032,0.5532,0.2515,0.3340,0.0143,0.0169,-0.0023,1.39,1.01,-0.29,0,3.283,-0.823,-3.251,-0.413,0.006,-0.012,1.010,0.000,0.000,0.000,0.3330,4,0,0.78,2.99,-1.40,0.6182,0.0779,0.3359,0.2772,0.1008,0.3000,0.2585,11.62,20.00,8.72,2.2580,0.0000,0.9070,2.0020,2.3680,358,0.2301,-0.0893,0.0000,0.4545,-0.0547,0
14083,0.5551,0.2515,0.3336,0.0082,0.0038,-0.0001,1.36,1.07,-0.32,0,3.283,-1.754,1.925,3.282,-0.002,-0.008,1.005,0.000,0.000,0.000,0.3320,-6,-3,0.81,3.15,-1.51,0.6178,0.0668,0.3352,0.2772,0.1008,0.3000,0.2583,11.02,19.87,9.69,2.2820,0.0000,0.9070,2.0020,2.3790,454,0.2301,-0.0893,0.0000,0.4545,-0.0547,0
14135,0.5584,0.2594,0.3330,0.0060,0.0099,0.0001,1.20,0.99,-0.19,0,3.278,2.074,-0.737,7.232,-0.008,-0.007,1.006,0.000,0.000,0.000,0.3320,0,0,0.58,2.98,-1.26,0.6260,0.0827,0.3359,0.2772,0.1008,0.3000,0.2584,11.85,19.98,5.65,2.2820,0.0000,0.9130,1.9970,2.3790,454,0.2301,-0.0893,0.0000,0.4545,-0.0547,0
14186,0.5596,0.2594,0.3326,-0.0001,-0.0008,0.0023,1.23,0.98,0.17,0,3.283,-3.352,3.092,8.039,-0.004,-0.011,1.007,0.000,0.000,0.000,0.3310,0,0,0.66,3.02,-0.89,0.6239,0.0822,0.3353,0.2772,0.1008,0.3000,0.2582,11.37,19.82,-5.11,2.2660,0.1210,0.9130,1.9970,2.3830,454,0.2301,-0.0893,0.0000,0.4545,-0.0547,0
14237,0.5623,0.2572,0.3321,-0.0020,-0.0153,0.0016,1.03,0.81,0.58,0,3.278,-13.449,9.356,3.084,0.003,-0.016,1.005,0.000,0.000,0.000,0.3300,1,1,0.47,2.87,-0.48,0.6204,0.0812,0.3345,0.2772,0.1008,0.3000,0.2584,10.54,19.90,-17.38,2.2660,0.1210,0.9120,1.9430,2.3830,460,0.2301,-0.0893,0.0000,0.4545,-0.0547,0
14289,0.5625,0.2569,0.3312,-0.0072,-0.0217,-0.0019,0.35,0.51,0.76,0,3.278,-7.725,-8.979,-1.015,0.004,-0.014,1.015,0.000,0.000,0.000,0.3360,-3,-2,-0.24,2.30,-0.45,0.6310,0.0821,0.3342,0.2772,0.1008,0.3000,0.2589,10.20,19.66,-22.67,2.2280,0.0000,0.9120,1.9430,2.3700,417,0.2301,-0.0893,0.0000,0.4545,-0.0547,0
14340,0.5627,0.2566,0.3334,-0.0104,-0.0217,0.0154,-0.05,0.74,0.71,0,3.283,-1.404,8.855,-5.161,-0.004,-0.009,1.001,0.000,0.000,0.000,0.3330,-1,0,-0.67,2.74,-0.49,0.6328,0.0864,0.3357,0.2772,0.1008,0.3000,0.2567,10.27,19.70,-21.38,2.2280,0.0000,0.8980,1.9020,2.3700,417,0.2301,-0.0893,0.0000,0.4545,-0.0547,0
14391,0.5648,0.2532,0.3338,-0.0109,-0.0256,0.0151,-0.14,0.47,0.49,0,3.278,-12.592,2.844,-5.202,-0.008,-0.010,1.000,0.000,0.000,0.000,0.3330,-4,0,-0.75,2.28,-0.76,0.6313,0.0881,0.3358,0.2772,0.1008,0.3000,0.2566,9.86,19.81,-14.79,2.2300,0.0000,0.8980,1.9020,2.3760,417,0.2301,-0.0893,0.0000,0.4545,-0.0547,0
14441,0.5641,0.2595,0.3339,-0.0141,-0.0070,0.0118,-0.56,0.11,0.22,0,3.278,2.596,-1.877,-4.892,-0.002,-0.008,0.996,0.000,0.000,0.000,0.3330,0,0,-1.44,2.12,-0.98,0.6300,0.0964,0.3355,0.2772,0.1008,0.3000,0.2569,11.15,19.62,-6.61,2.2300,0.0000,0.9080,1.9290,2.3760,417,0.2301,-0.0893,0.0000,0.4545,-0.0547,0
14493,0.5646,0.2557,0.3339,-0.0124,-0.0087,0.0077,-0.50,0.12,-0.03,0,3.278,3.185,11.300,-6.198,0.004,-0.008,0.989,0.000,0.000,0.000,0.3340,-1,0,-1.30,2.22,-1.22,0.6253,0.0988,0.3353,0.2772,0.1008,0.3000,0.2574,10.79,19.70,0.76,2.2020,0.0000,0.9080,1.9290,2.3690,417,0.2301,-0.0893,0.0000,0.4545,-0.0547,0
14544,0.5659,0.2554,0.3341,-0.0088,-0.0044,0.0030,-0.34,-0.32,-0.33,0,3.278,-2.682,3.158,-5.742,0.001,-0.011,0.996,0.000,0.000,0.000,0.3370,0,-1,-1.11,1.55,-1.51,0.6319,0.0991,0.3357,0.2772,0.1008,0.3000,0.2579,10.95,19.90,9.76,2.2020,0.0000,0.9210,1.9590,2.3690,404,0.2301,-0.0893,0.0000,0.4545,-0.0547,0
14596,0.5651,0.2556,0.3354,-0.0063,-0.0006,0.0062,-0.39,-0.55,-0.61,0,3.278,4.639,-8.479,-5.801,0.001,-0.012,0.994,0.000,0.000,0.000,0.3340,-7,-3,-1.23,1.37,-1.77,0.6322,0.1001,0.3364,0.2772,0.1008,0.3000,0.2573,11.16,20.00,18.39,0.0000,0.0000,0.9210,1.9590,2.3620,404,0.2301,-0.0893,0.0000,0.4545,-0.0547,0
14648,0.5692,0.2614,0.3349,0.0066,0.0146,0.0008,-0.14,-0.19,-0.91,0,3.283,5.966,-8.035,-3.782,-0.002,-0.011,0.997,0.000,0.000,0.000,0.3290,0,-1,-1.08,1.75,-2.03,0.6385,0.1164,0.3356,0.2772,0.1008,0.3000,0.2579,12.24,20.77,27.41,0.0000,0.0000,0.9230,1.9720,2.3620,404,0.2301,-0.0893,0.0000,0.4545,-0.0547,0
14700,0.5709,0.2611,0.3323,0.0107,0.0141,-0.0145,0.03,0.06,-1.12,0,3.278,-0.503,1.894,-1.525,-0.001,-0.011,0.996,0.000,0.000,0.000,0.3320,-1,0,-0.73,2.14,-2.16,0.6404,0.1176,0.3338,0.2772,0.1008,0.3000,0.2601,12.11,20.88,33.64,0.0000,0.1170,0.9230,1.9720,2.3640,404,0.2301,-0.0893,0.0000,0.4545,-0.0547,0
14751,0.5746,0.2665,0.3318,0.0172,0.0236,-0.0171,0.06,-0.07,-1.19,0,3.273,5.331,-12.617,1.200,-0.003,-0.013,1.004,0.000,0.000,0.000,0.3300,-8,0,-0.75,2.02,-2.22,0.6400,0.1211,0.3329,0.2772,0.1008,0.3000,0.2605,12.88,21.36,35.70,0.0000,0.1170,0.0000,1.9840,2.3640,415,0.2301,-0.0893,0.0000,0.4545,-0.0547,0
14803,0.5771,0.2728,0.3306,0.0206,0.0344,-0.0172,0.18,0.31,-1.14,0,3.273,8.242,3.053,1.380,0.003,-0.011,0.999,0.000,0.000,0.000,0.3330,0,0,-0.59,2.65,-2.20,0.6404,0.1434,0.3310,0.2772,0.1008,0.3000,0.2607,13.79,21.64,34.19,2.1740,0.1160,0.0000,1.9840,2.3590,437,0.2301,-0.0893,0.0000,0.4545,-0.0547,0
14855,0.5827,0.2772,0.3311,0.0276,0.0381,-0.0097,0.57,0.24,-1.08,0,3.278,8.781,-3.629,-0.971,0.002,-0.006,1.012,0.000,0.000,0.000,0.3310,-1,-1,-0.17,2.49,-2.13,0.6368,0.1516,0.3310,0.2772,0.1008,0.3000,0.2598,14.30,22.35,32.41,2.1740,0.1160,0.9430,1.9390,2.3590,437,0.2301,-0.0893,0.0000,0.4545,-0.0547,0
14907,0.5861,0.2840,0.3308,0.0298,0.0440,-0.0078,0.91,0.35,-1.08,0,3.278,9.707,-23.766,5.367,-0.007,-0.012,1.013,0.000,0.000,0.000,0.3280,0,-3,0.39,2.57,-2.06,0.6484,0.1426,0.3324,0.2772,0.1008,0.3000,0.2596,15.03,22.65,32.46,2.1030,0.0000,0.9430,1.9390,2.3690,437,0.2301,-0.0893,0.0000,0.4545,-0.0547,0
14958,0.5899,0.2841,0.3295,0.0312,0.0316,-0.0070,1.41,1.35,-0.85,0,3.273,-2.259,4.769,11.822,-0.012,-0.012,1.011,0.000,0.000,0.000,0.3270,0,-1,0.90,3.75,-1.77,0.6546,0.1435,0.3317,0.2772,0.1008,0.3000,0.2598,14.48,22.94,25.51,2.1030,0.0000,0.9380,0.0000,2.3690,370,0.2301,-0.0893,0.0000,0.4545,-0.0547,0
15009,0.5958,0.2872,0.3283,0.0300,0.0235,-0.0083,1.34,1.20,-0.33,0,3.278,-10.202,12.304,12.680,-0.002,-0.013,0.999,0.000,0.000,0.000,0.3230,1,0,0.76,3.49,-1.18,0.6563,0.1442,0.3308,0.2772,0.1008,0.3000,0.2602,14.30,23.22,9.92,2.2500,0.0000,0.9380,0.0000,2.3820,370,0.2301,-0.0893,0.0000,0.4545,-0.0547,0
15061,0.5968,0.2887,0.3259,0.0194,0.0135,-0.0183,0.83,0.64,0.31,0,3.273,-7.364,-9.710,10.068,-0.004,-0.021,0.999,0.000,0.000,0.000,0.3240,1,-2,0.24,2.84,-0.58,0.6557,0.1419,0.3287,0.2772,0.1008,0.3000,0.2617,13.88,22.74,-9.45,2.2500,0.0000,0.9350,0.0000,2.3820,370,0.2301,-0.0893,0.0000,0.4545,-0.0547,0
15112,0.5981,0.2889,0.3246,0.0143,0.0053,-0.0201,0.47,1.04,0.81,0,3.273,-5.044,0.906,5.936,0.001,-0.012,1.002,0.000,0.000,0.000,0.3250,3,-2,-0.16,3.29,-0.13,0.6608,0.1393,0.3275,0.2772,0.1008,0.3000,0.2621,13.51,22.58,-24.26,0.0000,0.0000,0.9350,0.0000,2.3720,370,0.2301,-0.0893,0.0000,0.4545,-0.0547,0
15163,0.6032,0.2865,0.3242,0.0155,-0.0051,-0.0157,0.21,1.18,1.09,0,3.273,-8.338,2.495,0.689,-0.001,-0.010,1.005,0.000,0.000,0.000,0.3240,0,-1,-0.38,3.18,0.05,0.6660,0.1310,0.3269,0.2772,0.1008,0.3000,0.2617,12.90,22.97,-32.75,0.0000,0.0000,0.9140,0.8240,2.3720,370,0.2301,-0.0893,0.0000,0.4545,-0.0547,0
15214,0.6054,0.2873,0.3237,0.0093,-0.0050,-0.0129,-0.01,0.93,1.13,0,3.273,-3.752,13.051,-3.595,-0.002,-0.006,0.998,0.000,0.000,0.000,0.3230,-2,0,-0.82,3.01,0.07,0.6685,0.1308,0.3262,0.2772,0.1008,0.3000,0.2615,12.97,22.88,-33.86,2.1630,0.0000,0.9140,0.8240,2.3840,447,0.2301,-0.0893,0.0000,0.4545,-0.0547,0
15265,0.6071,0.2900,0.3230,0.0044,0.0016,-0.0133,-0.28,0.36,0.98,0,3.273,-6.696,2.052,-1.499,0.002,-0.009,1.009,0.000,0.000,0.000,0.3190,0,0,-1.04,2.32,-0.06,0.6682,0.1365,0.3251,0.2772,0.1008,0.3000,0.2617,13.45,22.77,-29.36,2.1630,0.0000,0.9090,0.8110,2.3840,447,0.2301,-0.0893,0.0000,0.4545,-0.0547,0
15317,0.6083,0.2897,0.3209,0.0035,0.0029,-0.0199,-0.61,0.25,0.87,0,3.273,-1.017,5.277,-1.979,-0.001,-0.005,1.010,0.000,0.000,0.000,0.3220,0,0,-1.38,2.22,-0.14,0.6638,0.1366,0.3231,0.2772,0.1008,0.3000,0.2628,13.43,22.72,-26.14,1.9760,0.0000,0.9090,0.8110,2.3760,437,0.2301,-0.0893,0.0000,0.4545,-0.0547,0
15368,0.6091,0.2902,0.3208,0.0028,0.0085,-0.0125,-0.60,0.02,0.77,0,3.267,13.381,0.712,-4.438,0.009,-0.010,1.006,0.000,0.000,0.000,0.3190,-4,-2,-1.43,1.95,-0.24,0.6584,0.1373,0.3226,0.2772,0.1008,0.3000,0.2620,13.76,22.81,-23.23,1.9760,0.0000,0.0000,0.8110,2.3760,437,0.2301,-0.0893,0.0000,0.4545,-0.0547,0
15419,0.6132,0.2980,0.3198,0.0116,0.0297,-0.0097,-0.02,-0.16,0.58,0,3.273,2.377,-3.958,-5.510,0.005,-0.013,1.002,0.000,0.000,0.000,0.3170,-1,0,-0.82,1.72,-0.27,0.6872,0.1515,0.3227,0.2772,0.1008,0.3000,0.2619,15.22,23.42,-17.35,0.0000,0.0000,0.0000,0.8110,2.3830,437,0.2301,-0.0893,0.0000,0.4545,-0.0547,0
15470,0.6144,0.3030,0.3184,0.0142,0.0381,-0.0124,0.08,0.04,0.30,0,3.267,9.701,-10.214,-6.739,0.002,-0.010,1.016,0.000,0.000,0.000,0.3160,-1,-1,-0.69,1.92,-0.54,0.6871,0.1547,0.3210,0.2772,0.1008,0.3000,0.2625,15.89,23.56,-8.92,0.0000,0.0000,0.9100,0.8200,2.3830,449,0.2301,-0.0893,0.0000,0.4545,-0.0547,0
15522,0.6181,0.3050,0.3171,0.0202,0.0374,-0.0118,0.55,0.46,-0.03,0,3.267,16.169,-12.276,-3.774,-0.002,-0.008,1.019,0.000,0.000,0.000,0.3140,0,0,-0.18,2.42,-0.86,0.6885,0.1580,0.3197,0.2772,0.1008,0.3000,0.2626,15.99,24.00,0.95,1.9780,0.1090,0.9100,0.8200,2.3740,449,0.2301,-0.0893,0.0000,0.6894,0.1545,0
15573,0.6238,0.3052,0.3156,0.0266,0.0292,-0.0085,1.32,1.02,-0.21,0,3.267,4.352,-3.723,5.773,-0.011,-0.009,1.021,0.000,0.000,0.000,0.3180,0,0,0.67,3.06,-1.06,0.6866,0.1612,0.3184,0.2772,0.1008,0.3000,0.2626,15.65,24.60,6.31,1.9780,0.1090,0.0000,0.8130,2.3740,449,0.2301,-0.0893,0.0000,0.6894,0.1545,0
15624,0.6282,0.3095,0.3165,0.0250,0.0248,0.0073,1.41,1.17,0.05,0,3.273,-10.197,0.691,12.755,-0.005,-0.008,1.010,0.000,0.000,0.000,0.3170,0,-1,0.88,3.25,-0.77,0.6829,0.1639,0.3190,0.2772,0.1008,0.3000,0.2607,15.85,24.95,-1.37,2.1820,0.1070,0.0000,0.8130,2.3840,449,0.2301,-0.0893,0.0000,0.6894,0.1545,0
15675,0.6320,0.3129,0.3170,0.0213,0.0181,0.0142,0.90,1.15,0.63,0,3.267,-2.068,-10.719,13.014,-0.008,-0.007,1.002,0.000,0.000,0.000,0.3140,-2,-1,0.37,3.08,-0.21,0.6993,0.1588,0.3208,0.2772,0.1008,0.3000,0.2598,15.83,25.00,-18.99,2.1820,0.1070,0.0000,0.8020,2.3840,449,0.2301,-0.0893,0.0000,0.6894,0.1545,0
15726,0.6340,0.3173,0.3162,0.0140,0.0188,0.0090,0.80,1.45,1.28,0,3.273,-7.180,-1.249,11.280,-0.000,-0.010,0.997,0.000,0.000,0.000,0.3150,3,0,0.21,3.61,0.45,0.6994,0.1617,0.3200,0.2772,0.1008,0.3000,0.2605,16.11,24.88,-38.37,2.1310,0.1090,0.0000,0.8020,2.3910,449,0.2301,-0.0893,0.0000,0.6894,0.1545,0
15777,0.6380,0.3133,0.3160,0.0100,0.0010,0.0052,0.51,1.51,1.85,0,3.267,-12.628,-8.544,10.345,-0.002,-0.000,0.997,0.000,0.000,0.000,0.3180,0,-2,-0.15,3.66,0.95,0.6980,0.1574,0.3193,0.2772,0.1008,0.3000,0.2610,15.04,24.92,-55.35,2.1310,0.1090,0.0000,0.7740,2.3910,348,0.2301,-0.0893,0.0000,0.6894,0.1545,0
15828,0.6413,0.3165,0.3169,0.0044,0.0040,0.0075,-0.11,1.79,2.40,0,3.267,0.373,10.084,10.008,-0.005,-0.011,1.007,0.000,0.000,0.000,0.3180,-3,1,-0.83,4.04,1.44,0.6995,0.1572,0.3200,0.2772,0.1008,0.3000,0.2606,15.41,24.94,-71.92,0.0000,0.0000,0.0000,0.7740,2.3980,348,0.2301,-0.0893,0.0000,0.6894,0.1545,0
15879,0.6420,0.3186,0.3176,-0.0087,0.0086,0.0091,-0.16,1.49,2.93,0,3.267,6.123,15.713,5.754,0.000,-0.008,1.007,0.000,0.000,0.000,0.3220,-1,3,-0.90,3.51,2.06,0.6951,0.1627,0.3202,0.2772,0.1008,0.3000,0.2603,15.77,24.49,-87.77,0.0000,0.0000,0.8750,0.7670,2.3980,336,0.2301,-0.0893,0.0000,0.6894,0.1545,0
15929,0.6396,0.3218,0.3197,-0.0255,0.0158,0.0205,0.03,0.88,3.25,0,3.267,-5.190,11.361,4.070,0.001,-0.001,0.997,0.000,0.000,0.000,0.3170,-2,1,-0.61,2.72,2.37,0.6864,0.1648,0.3213,0.2772,0.1008,0.3000,0.2586,16.39,23.82,-97.46,2.0250,0.0000,0.8750,0.7670,2.3860,336,0.2301,-0.0893,0.0000,0.6894,0.1545,0
15981,0.6388,0.3248,0.3192,-0.0315,0.0207,0.0135,-0.27,0.35,3.47,0,3.267,3.286,5.943,4.295,0.002,-0.007,0.994,0.000,0.000,0.000,0.3190,-13,0,-0.91,2.12,2.62,0.6813,0.1697,0.3209,0.2772,0.1008,0.3000,0.2595,16.76,23.47,-103.96,2.0250,0.0000,0.0000,0.7680,2.3860,356,0.2301,-0.0893,0.0000,0.6894,0.1545,0
16033,0.6370,0.3340,0.3195,-0.0350,0.0427,0.0078,-0.20,-0.04,3.66,0,3.267,1.511,8.138,0.010,-0.006,-0.008,0.980,0.000,0.000,0.000,0.3180,2,2,-0.96,1.76,3.22,0.6772,0.2022,0.3201,0.2772,0.1008,0.3000,0.2601,18.28,23.18,-109.91,0.0000,0.0000,0.0000,0.7680,2.3770,356,0.2301,-0.0893,0.0000,0.6894,0.1545,0
16085,0.6363,0.3361,0.3190,-0.0320,0.0441,-0.0027,0.05,-0.60,3.66,0,3.262,11.354,4.719,-2.602,-0.002,-0.010,0.993,0.000,0.000,0.000,0.3170,-4,0,-0.79,1.33,3.12,0.6709,0.1983,0.3207,0.2772,0.1008,0.3000,0.2613,18.40,23.17,-109.94,0.0000,0.0000,0.8530,0.7740,2.3770,356,0.2301,-0.0893,0.0000,0.6894,0.1545,0
16136,0.6354,0.3355,0.3180,-0.0258,0.0374,-0.0136,0.50,-0.89,3.53,0,3.267,9.203,1.250,-5.626,-0.002,-0.015,0.992,0.000,0.000,0.000,0.3160,-1,-1,-0.23,1.04,3.03,0.6694,0.2099,0.3194,0.2772,0.1008,0.3000,0.2626,17.98,23.25,-105.82,0.0000,0.0000,0.8530,0.7740,2.3920,356,0.2301,-0.0893,0.0000,0.6894,0.1545,0
16187,0.6355,0.3411,0.3167,-0.0152,0.0421,-0.0217,0.95,-0.93,3.25,0,3.262,3.926,-6.496,-7.454,0.004,-0.010,1.011,0.000,0.000,0.000,0.3170,3,0,0.28,0.91,2.78,0.6711,0.2135,0.3183,0.2772,0.1008,0.3000,0.2638,18.47,23.60,-97.63,0.0000,0.0000,0.8510,0.7820,2.3920,455,0.2301,-0.0893,0.0000,0.6894,0.1545,0
16237,0.6374,0.3467,0.3162,-0.0010,0.0430,-0.0142,1.07,-0.68,2.87,0,3.262,4.916,-3.564,-8.438,0.004,-0.007,1.016,0.000,0.000,0.000,0.3120,0,-1,0.58,1.21,2.49,0.6707,0.2052,0.3182,0.2772,0.1008,0.3000,0.2630,18.92,24.32,-85.99,0.0000,0.1140,0.8510,0.7820,2.4060,455,0.2301,-0.0893,0.0000,0.6894,0.1545,0
16289,0.6412,0.3530,0.3142,0.0140,0.0443,-0.0136,1.19,-0.39,2.42,0,3.262,5.835,-0.339,-6.241,0.003,-0.008,1.020,0.000,0.000,0.000,0.3170,-1,-2,0.85,1.33,2.08,0.6732,0.2054,0.3166,0.2772,0.1008,0.3000,0.2634,19.35,25.00,-72.64,0.0000,0.1140,0.0000,0.7930,2.4060,455,0.2301,-0.0893,0.0000,0.6894,0.1545,0
16340,0.6448,0.3528,0.3151,0.0245,0.0288,0.0020,1.37,-0.37,2.10,0,3.267,-6.069,-6.769,-0.439,-0.002,-0.005,1.014,0.000,0.000,0.000,0.3130,-2,-4,1.15,1.28,1.70,0.6792,0.2088,0.3174,0.2772,0.1008,0.3000,0.2615,18.81,25.00,-62.92,1.3270,0.1140,0.0000,0.7930,2.3970,455,0.2301,-0.0893,0.0000,0.6894,0.1545,0
16391,0.6502,0.3628,0.3144,0.0376,0.0376,0.0047,1.05,0.11,2.05,0,3.262,0.324,-12.460,0.787,-0.005,-0.004,1.014,0.000,0.000,0.000,0.3150,0,-1,0.82,1.53,1.51,0.6916,0.2157,0.3171,0.2772,0.1008,0.3000,0.2613,19.83,25.00,-61.48,1.3270,0.1140,0.8500,0.7990,2.3970,450,0.2301,-0.0893,0.0000,0.6894,0.1545,0
16443,0.6515,0.3618,0.3149,0.0358,0.0215,0.0135,1.12,0.56,2.08,0,3.267,1.515,-3.001,1.190,-0.003,-0.009,0.999,0.000,0.000,0.000,0.3130,0,-1,0.84,2.14,1.52,0.6947,0.2159,0.3175,0.2772,0.1008,0.3000,0.2603,19.15,25.00,-62.28,1.7680,0.0000,0.8500,0.7990,2.3970,450,0.2301,-0.0893,0.0000,0.6894,0.1545,0
16494,0.6564,0.3646,0.3146,0.0384,0.0166,0.0108,1.04,0.92,2.13,0,3.262,-5.587,-15.563,3.840,-0.012,0.003,1.013,0.000,0.000,0.000,0.3120,0,-4,0.93,2.27,1.55,0.6980,0.2160,0.3170,0.2772,0.1008,0.3000,0.2606,19.10,25.00,-63.86,1.7680,0.0000,0.8480,0.8020,2.3970,440,0.2301,-0.0893,0.0000,0.6894,0.1545,0
16545,0.6614,0.3668,0.3138,0.0382,0.0115,0.0074,0.75,1.76,2.31,0,3.262,1.615,-5.666,3.809,-0.005,-0.006,1.006,0.000,0.000,0.000,0.3110,-1,-2,0.64,2.97,1.57,0.7110,0.2168,0.3169,0.2772,0.1008,0.3000,0.2612,18.99,25.00,-69.29,2.0430,0.0000,0.8480,0.8020,2.3980,440,0.2301,-0.0893,0.0000,0.6894,0.1545,0
16596,0.6654,0.3682,0.3130,0.0299,0.0071,0.0041,0.76,1.90,2.48,0,3.262,-9.124,11.408,2.181,-0.005,-0.007,1.005,0.000,0.000,0.000,0.3120,0,0,0.69,3.22,1.66,0.7175,0.2205,0.3162,0.2772,0.1008,0.3000,0.2617,18.86,25.00,-74.52,2.0430,0.0000,0.0000,0.8050,2.3980,380,0.2301,-0.0893,0.0000,0.6894,0.1545,0
16648,0.6672,0.3710,0.3127,0.0157,0.0063,0.0042,0.39,1.38,2.59,0,3.262,3.189,9.286,-5.357,0.006,-0.004,1.009,0.000,0.000,0.000,0.3160,0,0,0.22,2.64,1.78,0.7164,0.2204,0.3158,0.2772,0.1008,0.3000,0.2617,19.00,25.00,-77.62,0.0000,0.1030,0.0000,0.8050,2.4010,380,0.2301,-0.0893,0.0000,0.6894,0.1545,0
16700,0.6670,0.3707,0.3143,0.0023,0.0013,0.0158,0.47,0.92,2.36,0,3.262,-1.867,1.148,-6.719,-0.004,-0.008,0.996,0.000,0.000,0.000,0.3160,0,0,0.40,2.16,1.50,0.7142,0.2202,0.3169,0.2772,0.1008,0.3000,0.2602,18.87,25.00,-70.82,0.0000,0.1030,0.0000,0.8060,2.4010,380,0.2301,-0.0893,0.0000,0.6894,0.1545,0
16751,0.6677,0.3715,0.3155,-0.0037,-0.0009,0.0165,0.48,0.70,2.01,0,3.267,-5.494,11.607,-7.102,-0.000,-0.009,0.986,0.000,0.000,0.000,0.3170,-3,0,0.31,2.09,1.15,0.7111,0.2195,0.3175,0.2772,0.1008,0.3000,0.2599,18.85,25.00,-60.25,1.8520,0.1050,0.0000,0.8060,2.3940,380,0.2301,-0.0893,0.0000,0.6894,0.1545,0
16802,0.6694,0.3760,0.3166,-0.0043,0.0067,0.0137,0.06,0.12,1.64,0,3.262,3.422,8.360,-9.102,0.001,-0.006,0.996,0.000,0.000,0.000,0.3150,-1,0,-0.05,1.39,0.56,0.7294,0.2373,0.3184,0.2772,0.1008,0.3000,0.2600,19.45,25.00,-49.34,1.8520,0.1050,0.8420,0.8140,2.3940,410,0.2301,-0.0893,0.0000,0.6894,0.1545,0
16853,0.6710,0.3799,0.3162,-0.0010,0.0146,0.0040,0.14,-0.10,1.28,0,3.262,10.257,-10.644,-10.405,-0.002,-0.009,0.985,0.000,0.000,0.000,0.3180,-5,-3,0.13,0.95,0.08,0.7287,0.2396,0.3177,0.2772,0.1008,0.3000,0.2611,19.95,25.00,-38.27,0.0000,0.0000,0.8420,0.8140,2.3920,380,0.2301,-0.0893,0.0000,0.6894,0.1545,0
16904,0.6733,0.3838,0.3171,0.0049,0.0209,0.0046,0.58,0.20,0.75,0,3.257,1.190,17.904,-9.301,-0.004,-0.008,0.986,0.000,0.000,0.000,0.3160,0,0,0.61,1.45,-0.59,0.7324,0.2478,0.3175,0.2772,0.1008,0.3000,0.2608,20.48,25.00,-22.62,0.0000,0.0000,0.0000,0.8240,2.3920,380,0.2301,-0.0893,0.0000,0.6894,0.1545,0
16955,0.6779,0.3905,0.3166,0.0139,0.0291,-0.0044,0.66,-0.37,0.29,0,3.262,0.297,8.043,-6.612,0.004,0.000,0.991,0.000,0.000,0.000,0.3150,0,0,0.68,0.54,-1.05,0.7312,0.2504,0.3166,0.2772,0.1008,0.3000,0.2619,21.16,25.00,-8.59,0.0000,0.0000,0.0000,0.8240,2.4000,380,0.2301,-0.0893,0.0000,0.6894,0.1545,0
17006,0.6804,0.3913,0.3157,0.0227,0.0222,-0.0118,0.77,-0.89,-0.07,0,3.257,77.912,-133.310,-3.982,0.007,0.003,1.035,0.000,0.000,0.000,0.3160,-10,-22,0.70,0.12,-1.38,0.7299,0.2527,0.3153,0.2772,0.1008,0.3000,0.2629,20.85,25.00,2.01,0.0000,0.0000,0.9320,0.8330,2.4000,382,0.2301,-0.0893,0.0000,0.6894,0.1545,0
17057,0.6883,0.3934,0.3156,0.0405,0.0157,0.0000,3.60,4.04,-0.46,0,3.246,111.044,-163.686,0.295,-0.031,-0.021,1.014,0.000,0.000,0.000,0.3340,-10,-20,4.55,6.30,-3.29,0.8058,0.2818,0.3227,0.2772,0.1008,0.3000,0.2616,20.80,25.00,13.91,0.0000,0.0000,0.9320,0.8330,2.4020,382,0.2301,-0.0893,0.0000,0.6894,0.1545,0
17109,0.6938,0.3867,0.3231,0.0003,-0.0409,0.0407,9.33,12.27,-1.45,0,3.267,28.295,-22.079,-1.881,-0.016,-0.015,0.979,0.000,0.000,0.000,0.3450,0,-1,10.44,14.34,-5.06,0.8392,0.2970,0.3285,0.2772,0.1008,0.3000,0.2558,18.38,25.00,43.50,0.0000,0.0000,0.0000,0.8270,2.4020,377,0.2301,-0.0893,0.0000,0.6894,0.1545,0
17160,0.6979,0.3873,0.3309,-0.0935,-0.1113,0.0478,11.68,14.56,-1.94,0,3.273,1.706,-0.977,-5.974,0.003,-0.004,0.986,0.000,0.000,0.000,0.3430,4,4,11.98,15.50,-5.24,0.8454,0.2976,0.3347,0.2772,0.1008,0.3000,0.2536,15.43,25.00,58.29,0.0000,0.0570,0.0000,0.8270,2.4910,377,0.2301,-0.0893,0.0000,0.6894,0.1545,0
17211,0.6887,0.3790,0.3343,-0.2185,-0.2065,0.0240,11.93,14.42,-2.19,0,3.267,-14.165,-16.394,-7.904,0.003,-0.007,0.986,0.000,0.000,0.000,0.3400,6,2,12.13,15.61,-5.28,0.8387,0.2896,0.3347,0.2772,0.1008,0.3000,0.2555,10.37,19.12,65.69,0.0000,0.0570,0.0000,0.8220,2.4910,377,0.2301,-0.0893,0.0000,0.6894,0.1545,0
17262,0.6742,0.3671,0.3340,-0.3444,-0.3009,-0.0136,11.61,15.09,-2.78,0,3.257,-48.718,22.323,-13.976,0.009,-0.005,1.011,0.000,0.000,0.000,0.3310,16,13,11.81,16.17,-6.71,0.8340,0.2768,0.3322,0.2772,0.1008,0.3000,0.2596,4.95,12.33,83.41,0.0000,0.0520,0.0000,0.8220,2.4950,377,0.2301,-0.0893,0.0000,0.6894,0.1545,0
17313,0.6522,0.3529,0.3294,-0.4775,-0.3836,-0.0547,9.65,14.19,-3.27,0,3.252,-53.275,51.092,-13.210,0.020,0.014,1.035,0.000,0.000,0.000,0.3190,12,20,9.83,14.91,-8.07,0.8027,0.2437,0.3158,0.2772,0.1008,0.3000,0.2649,0.02,4.50,98.23,0.0000,0.0520,0.0000,0.8070,2.4950,405,0.2301,-0.0893,0.0000,0.6894,0.1545,0
17365,0.6241,0.3412,0.3224,-0.6028,-0.4355,-0.0811,6.88,11.69,-3.48,0,3.241,-31.006,64.217,-14.353,0.025,0.012,1.039,0.000,0.000,0.000,0.3080,5,10,6.76,12.78,-5.91,0.7407,0.2090,0.2971,0.2772,0.1008,0.3000,0.2691,-3.17,-3.25,104.45,0.0000,0.0620,0.0000,0.8070,2.4410,393,0.2301,-0.0893,0.0000,0.6894,0.1545,0
17417,0.5963,0.3300,0.3138,-0.6930,-0.4612,-0.0954,5.17,8.67,-3.73,0,3.236,-34.608,83.942,-10.070,0.029,0.015,1.049,0.000,0.000,0.000,0.2960,10,22,4.97,9.47,-5.13,0.7031,0.1892,0.2989,0.2772,0.1008,0.3000,0.2723,-5.05,-9.13,111.99,0.0000,0.0620,0.0000,0.0000,2.4410,393,0.2301,-0.0893,0.0000,0.6894,0.1545,0
17468,0.5618,0.3166,0.3038,-0.7605,-0.4769,-0.1069,3.40,4.54,-3.85,0,3.230,-35.955,77.162,-5.575,0.025,0.013,1.061,0.000,0.000,0.000,0.2830,6,11,3.02,5.37,-3.19,0.6369,0.1585,0.2847,0.2772,0.1008,0.3000,0.2754,-6.59,-14.16,115.42,0.0000,0.0920,0.0000,0.0000,2.4190,393,0.2301,-0.0893,0.0000,0.6894,0.1545,0
17519,0.5374,0.3081,0.2925,-0.7631,-0.4659,-0.1148,1.46,0.66,-3.87,0,3.225,-22.050,48.869,-0.073,0.028,0.015,1.078,0.000,0.000,0.000,0.2770,11,20,1.11,1.34,-3.24,0.6024,0.1409,0.2879,0.2772,0.1008,0.3000,0.2784,-6.59,-15.64,116.24,0.0000,0.0920,0.0000,2.0430,2.4190,360,0.2301,-0.0893,0.0000,0.6894,0.1545,0
17571,0.5043,0.2945,0.2832,-0.7526,-0.4546,-0.1031,0.08,-2.11,-3.85,0,3.225,-22.273,53.025,2.617,0.020,0.017,1.082,0.000,0.000,0.000,0.2810,10,21,0.03,-1.07,-2.65,0.5463,0.1117,0.2785,0.2772,0.1008,0.3000,0.2789,-6.97,-17.21,115.52,0.5510,0.0000,0.0000,2.0430,2.4400,360,0.2301,-0.0893,0.0000,0.6894,0.1545,0
17622,0.4793,0.2816,0.2799,-0.7009,-0.4316,-0.0596,-1.12,-4.80,-3.79,0,3.230,-11.793,50.009,6.358,0.022,0.016,1.099,0.000,0.000,0.000,0.2870,5,11,-1.06,-3.75,-1.89,0.4875,0.0833,0.2743,0.2772,0.1008,0.3000,0.2748,-6.91,-16.86,113.63,0.5510,0.0000,0.8720,2.0160,2.4400,383,0.2301,-0.0893,0.0000,0.6894,0.1545,0
17673,0.4522,0.2643,0.2821,-0.6306,-0.4113,0.0059,-1.81,-7.50,-3.54,0,3.241,-0.080,10.663,7.532,0.029,0.012,1.083,0.000,0.000,0.000,0.2950,6,11,-1.74,-6.38,-1.85,0.4520,0.0688,0.2842,0.2772,0.1008,0.3000,0.2673,-7.36,-16.04,106.08,0.5350,0.0000,0.8720,2.0160,2.4560,383,0.2301,-0.0893,0.0000,0.6894,0.1545,0
17724,0.4239,0.2474,0.2885,-0.5520,-0.3892,0.0725,-1.96,-8.67,-3.24,0,3.257,-6.066,9.342,7.220,0.021,0.009,1.058,0.000,0.000,0.000,0.3000,6,0,-1.76,-6.96,-1.65,0.4173,0.0519,0.2934,0.2772,0.1008,0.3000,0.2589,-7.75,-14.93,97.32,0.5350,0.0000,0.8810,1.9490,2.4560,383,0.2301,-0.0893,0.0000,0.6894,0.1545,0
17775,0.4076,0.2285,0.2960,-0.4477,-0.3749,0.1145,-2.13,-9.26,-2.91,0,3.267,-2.603,-9.970,4.931,0.021,0.003,1.025,0.000,0.000,0.000,0.3110,9,6,-2.14,-7.64,-1.84,0.4140,0.0378,0.3064,0.2772,0.1008,0.3000,0.2530,-8.60,-11.57,87.39,0.5680,0.1550,0.8810,1.9490,2.4760,383,0.2301,-0.0893,0.0000,0.6894,0.1545,0
17826,0.3887,0.2052,0.3062,-0.3606,-0.3718,0.1466,-2.21,-9.07,-2.66,0,3.278,-5.285,-49.972,4.498,0.016,0.007,0.995,0.000,0.000,0.000,0.3080,6,-3,-2.14,-7.19,-1.30,0.3946,0.0088,0.3150,0.2772,0.1008,0.3000,0.2476,-10.33,-8.97,79.68,0.5680,0.1550,0.9240,1.9050,2.4760,372,0.2301,-0.0893,0.0000,0.6894,0.1545,0
17877,0.3785,0.1847,0.3111,-0.2707,-0.3615,0.1304,-2.47,-6.90,-2.32,0,3.273,-13.324,-36.082,1.730,0.011,0.006,0.980,0.000,0.000,0.000,0.3110,5,-2,-2.39,-4.82,-1.02,0.4051,-0.0075,0.3220,0.2772,0.1008,0.3000,0.2484,-11.28,-5.29,69.50,0.6380,0.1470,0.9240,1.9050,2.4230,510,0.2301,-0.0893,0.0000,0.6894,0.1545,0
17928,0.3706,0.1668,0.3152,-0.2046,-0.3430,0.1071,-3.04,-5.01,-2.01,0,3.273,-10.582,-30.856,3.012,0.007,0.004,0.974,0.000,0.000,0.000,0.3120,10,-2,-3.08,-3.10,-0.86,0.4130,-0.0212,0.3260,0.2772,0.1008,0.3000,0.2501,-11.60,-2.58,60.20,0.6380,0.1470,0.9570,1.8650,2.4230,510,0.2301,-0.0893,0.0000,0.6894,0.1545,0
17979,0.3652,0.1464,0.3166,-0.1544,-0.3278,0.0734,-3.49,-3.63,-1.74,0,3.262,-9.317,-34.681,2.318,0.000,-0.003,0.971,0.000,0.000,0.000,0.3120,4,-2,-3.44,-1.68,0.27,0.4213,-0.0586,0.3267,0.2772,0.1008,0.3000,0.2535,-12.17,-0.48,52.19,0.8000,0.1570,0.9570,1.8650,2.4150,510,0.2301,-0.0893,0.0000,0.6894,0.1545,0
18030,0.3632,0.1314,0.3169,-0.1130,-0.2969,0.0431,-4.00,-2.02,-1.50,0,3.262,-8.193,-32.284,1.490,0.007,0.006,0.982,0.000,0.000,0.000,0.3130,11,-4,-3.95,0.03,0.42,0.4288,-0.0691,0.3271,0.2772,0.1008,0.3000,0.2567,-11.63,1.37,45.04,0.8000,0.1570,0.9950,1.8290,2.4150,465,0.2301,-0.0893,0.0000,0.6894,0.1545,0
18081,0.3644,0.1143,0.3163,-0.0810,-0.2694,0.0185,-4.46,-0.44,-1.28,0,3.257,-3.678,-24.411,1.079,0.004,-0.008,0.988,0.000,0.000,0.000,0.3150,5,-1,-4.22,1.49,1.71,0.4441,-0.1125,0.3254,0.2772,0.1008,0.3000,0.2595,-11.42,2.97,38.27,0.0000,0.1560,0.9950,1.8290,2.3890,465,0.2301,-0.0893,0.0000,0.6894,0.1545,0
18132,0.3657,0.1028,0.3162,-0.0650,-0.2294,0.0064,-4.70,0.74,-1.09,0,3.252,1.046,-16.757,0.118,0.008,-0.005,1.001,0.000,0.000,0.000,0.3200,0,-3,-4.41,2.70,1.89,0.4480,-0.1280,0.3249,0.2772,0.1008,0.3000,0.2608,-10.32,3.80,32.72,0.0000,0.1560,1.0230,1.8030,2.3890,400,0.2301,-0.0893,0.0000,0.6894,0.1545,0
18183,0.3674,0.0946,0.3180,-0.0598,-0.1837,0.0118,-4.72,1.72,-0.93,0,3.257,2.159,-15.001,0.101,0.011,-0.003,1.004,0.000,0.000,0.000,0.3220,0,-3,-4.44,3.49,2.06,0.4374,-0.1953,0.3266,0.2772,0.1008,0.3000,0.2599,-8.82,4.18,28.02,2.5240,0.0000,1.0230,1.8030,2.3820,400,0.4354,-0.1835,0.0000,0.4560,-0.1144,0
18234,0.3667,0.0831,0.3201,-0.0688,-0.1509,0.0189,-4.63,2.55,-0.79,0,3.257,3.390,-4.143,-0.386,0.000,-0.008,1.001,0.000,0.000,0.000,0.3250,0,-1,-4.40,4.20,2.17,0.4441,-0.1986,0.3278,0.2772,0.1008,0.3000,0.2587,-8.12,3.73,23.61,2.5240,0.0000,1.0420,1.7880,2.3820,400,0.4354,-0.1835,0.0000,0.4560,-0.1144,0
18286,0.3670,0.0799,0.3228,-0.0803,-0.1024,0.0265,-4.49,2.91,-0.75,0,3.257,12.463,2.046,-0.584,0.001,-0.016,0.996,0.000,0.000,0.000,0.3230,-5,1,-4.26,4.40,2.15,0.4465,-0.2004,0.3290,0.2772,0.1008,0.3000,0.2574,-6.10,3.22,22.52,0.0000,0.1650,1.0420,1.7880,2.3930,400,0.4354,-0.1835,0.0000,0.4560,-0.1144,0
18338,0.3637,0.0788,0.3237,-0.1018,-0.0560,0.0232,-4.00,2.84,-0.75,0,3.262,10.901,36.403,-1.156,0.006,-0.013,0.999,0.000,0.000,0.000,0.3180,-3,2,-3.72,4.32,1.87,0.4430,-0.1875,0.3285,0.2772,0.1008,0.3000,0.2576,-3.96,1.95,22.60,0.0000,0.1650,1.0610,1.7830,2.3930,367,0.4354,-0.1835,0.0000,0.4560,-0.1144,0
18389,0.3618,0.0696,0.3219,-0.1139,-0.0401,0.0064,-3.40,1.25,-0.89,0,3.252,8.713,24.827,-1.187,0.012,-0.017,1.001,0.000,0.000,0.000,0.3160,-4,3,-3.19,2.46,1.55,0.4367,-0.1787,0.3259,0.2772,0.1008,0.3000,0.2597,-3.83,1.22,26.74,0.0000,0.1620,1.0610,1.7830,2.3930,367,0.4354,-0.1835,0.0000,0.4560,-0.1144,0
18440,0.3574,0.0721,0.3196,-0.1171,-0.0023,-0.0088,-2.93,-0.17,-1.02,0,3.246,11.712,4.337,-1.084,0.007,-0.018,1.004,0.000,0.000,0.000,0.3170,-4,0,-2.80,1.24,1.24,0.4273,-0.1666,0.3229,0.2772,0.1008,0.3000,0.2618,-1.84,0.75,30.63,0.0000,0.1620,1.0600,1.7840,2.3930,367,0.4354,-0.1835,0.0000,0.4560,-0.1144,0
18491,0.3536,0.0698,0.3183,-0.1094,0.0152,-0.0127,-2.32,-0.59,-1.08,0,3.246,11.384,11.815,-0.853,0.011,-0.018,1.006,0.000,0.000,0.000,0.3140,0,1,-2.24,0.98,1.31,0.4267,-0.1553,0.3212,0.2772,0.1008,0.3000,0.2625,-1.17,0.84,32.37,2.4730,0.0000,1.0600,1.7840,2.3940,367,0.4354,-0.1835,0.0000,0.4560,-0.1144,0
18542,0.3540,0.0764,0.3161,-0.0886,0.0484,-0.0182,-1.82,-1.15,-1.13,0,3.246,15.873,4.980,-1.090,0.011,-0.014,1.016,0.000,0.000,0.000,0.3160,-8,0,-1.61,0.36,1.35,0.4236,-0.1556,0.3198,0.2772,0.1008,0.3000,0.2635,0.86,1.85,33.91,2.4730,0.0000,1.0610,1.7810,2.3940,467,0.4354,-0.1835,0.0000,0.4560,-0.1144,0
18593,0.3509,0.0788,0.3155,-0.0745,0.0623,-0.0109,-1.07,-1.53,-1.16,0,3.246,11.227,-4.184,-1.266,0.009,-0.014,1.015,0.000,0.000,0.000,0.3150,0,0,-0.91,0.08,1.26,0.4229,-0.1312,0.3184,0.2772,0.1008,0.3000,0.2628,1.68,2.30,34.89,0.0000,0.1670,1.0610,1.7810,2.3850,414,0.4354,-0.1835,0.0000,0.4560,-0.1144,0
18644,0.3501,0.0806,0.3151,-0.0552,0.0668,-0.0045,-0.43,-1.44,-1.20,0,3.252,8.244,-6.610,-0.457,-0.001,-0.022,1.013,0.000,0.000,0.000,0.3180,0,0,-0.33,0.29,1.19,0.4191,-0.1214,0.3179,0.2772,0.1008,0.3000,0.2622,2.02,3.15,36.13,0.0000,0.1670,1.0590,1.7750,2.3850,414,0.4354,-0.1835,0.0000,0.4560,-0.1144,0
18695,0.3481,0.0888,0.3163,-0.0418,0.0807,0.0089,-0.00,-1.15,-1.25,0,3.252,12.260,-2.673,-0.972,0.007,-0.006,1.012,0.000,0.000,0.000,0.3200,-7,-1,0.09,0.63,1.17,0.4151,-0.1119,0.3187,0.2772,0.1008,0.3000,0.2605,3.28,3.67,37.50,0.0000,0.0000,1.0590,1.7750,2.3790,414,0.4354,-0.1835,0.0000,0.4560,-0.1144,0
18746,0.3480,0.0962,0.3184,-0.0274,0.0880,0.0228,0.60,-1.12,-1.28,0,3.257,12.507,-3.665,-0.255,0.006,-0.019,1.013,0.000,0.000,0.000,0.3190,-1,-1,0.77,0.65,1.54,0.4326,-0.1126,0.3211,0.2772,0.1008,0.3000,0.2586,4.18,4.38,38.52,0.0000,0.0000,1.0520,1.7680,2.3790,414,0.4354,-0.1835,0.0000,0.4560,-0.1144,0
18797,0.3489,0.0978,0.3195,-0.0134,0.0756,0.0279,1.21,-1.00,-1.29,0,3.257,6.337,-3.628,-0.299,0.007,-0.013,1.008,0.000,0.000,0.000,0.3200,1,-1,1.43,0.83,1.58,0.4340,-0.1079,0.3220,0.2772,0.1008,0.3000,0.2579,3.71,5.12,38.78,2.4490,0.1660,1.0520,1.7680,2.3790,414,0.4354,-0.1835,0.0000,0.4560,-0.1144,0
18848,0.3534,0.0998,0.3207,0.0063,0.0611,0.0288,1.61,-0.77,-1.28,0,3.257,0.762,-41.372,0.190,0.012,-0.018,0.999,0.000,0.000,0.000,0.3210,-7,-4,1.79,1.00,1.64,0.4358,-0.1080,0.3230,0.2772,0.1008,0.3000,0.2575,3.16,6.39,38.47,2.4490,0.1660,1.0640,1.7820,2.3790,427,0.4354,-0.1835,0.0000,0.4560,-0.1144,0
18899,0.3540,0.1020,0.3218,0.0107,0.0456,0.0274,1.72,0.94,-1.35,0,3.257,-1.703,-30.350,0.265,-0.001,-0.013,0.996,0.000,0.000,0.000,0.3210,-5,-5,1.74,3.05,1.42,0.4435,-0.0912,0.3244,0.2772,0.1008,0.3000,0.2575,2.59,6.64,40.47,0.0000,0.1580,1.0640,1.7820,2.3770,427,0.4354,-0.1835,0.0000,0.4560,-0.1144,0
18950,0.3599,0.1018,0.3223,0.0121,0.0263,0.0215,1.71,2.51,-1.33,0,3.257,-6.914,9.479,0.300,-0.002,-0.021,0.993,0.000,0.000,0.000,0.3220,0,1,1.61,4.52,1.28,0.4544,-0.0779,0.3251,0.2772,0.1008,0.3000,0.2580,1.64,7.12,40.04,0.0000,0.1580,1.0570,1.7830,2.3770,427,0.4354,-0.1835,0.0000,0.4560,-0.1144,0
19001,0.3626,0.0990,0.3228,-0.0040,0.0041,0.0151,1.47,2.24,-1.29,0,3.257,-9.073,14.744,-0.777,0.003,-0.015,0.994,0.000,0.000,0.000,0.3240,3,1,1.28,4.05,1.34,0.4522,-0.0768,0.3253,0.2772,0.1008,0.3000,0.2586,0.37,6.53,38.73,0.0000,0.1520,1.0570,1.7830,2.3820,427,0.4354,-0.1835,0.0000,0.4560,-0.1144,0
19052,0.3606,0.0965,0.3238,-0.0244,-0.0134,0.0135,1.10,1.32,-1.29,0,3.257,-6.333,-19.451,-0.989,0.006,-0.012,0.997,0.000,0.000,0.000,0.3230,0,-1,0.89,3.31,1.32,0.4494,-0.0838,0.3258,0.2772,0.1008,0.3000,0.2586,-0.65,5.43,38.71,0.0000,0.1520,1.0540,1.7860,2.3820,453,0.4354,-0.1835,0.0000,0.4560,-0.1144,0
19103,0.3577,0.0920,0.3238,-0.0398,-0.0302,0.0093,0.76,1.95,-1.34,0,3.252,-11.857,-22.602,0.592,-0.000,-0.016,0.989,0.000,0.000,0.000,0.3220,0,-2,0.57,4.27,1.22,0.4515,-0.0835,0.3259,0.2772,0.1008,0.3000,0.2590,-1.77,4.48,40.33,2.5680,0.1590,1.0540,1.7860,2.3710,324,0.4354,-0.1835,0.0000,0.4560,-0.1144,0
19154,0.3597,0.0942,0.3233,-0.0489,-0.0269,0.0005,0.23,3.12,-1.33,0,3.252,-8.006,22.835,-0.124,0.000,-0.016,0.994,0.000,0.000,0.000,0.3300,5,4,-0.03,5.36,1.19,0.4565,-0.0832,0.3257,0.2772,0.1008,0.3000,0.2601,-1.45,4.18,39.94,2.5680,0.1590,1.0570,1.7770,2.3710,324,0.4354,-0.1835,0.0000,0.4560,-0.1144,0
19205,0.3585,0.0878,0.3262,-0.0702,-0.0388,0.0123,-0.24,2.13,-1.30,0,3.252,-11.338,28.694,1.348,0.007,-0.008,1.001,0.000,0.000,0.000,0.3240,7,7,-0.35,4.24,1.10,0.4447,-0.0973,0.3266,0.2772,0.1008,0.3000,0.2583,-2.49,3.10,38.98,0.0000,0.1570,1.0570,1.7770,2.3840,324,0.4354,-0.1835,0.0000,0.4560,-0.1144,0
19256,0.3537,0.0838,0.3256,-0.0872,-0.0411,0.0058,-0.58,0.48,-1.27,0,3.252,-2.922,-3.440,-0.360,0.012,-0.013,0.996,0.000,0.000,0.000,0.3260,0,0,-0.82,2.86,1.03,0.4239,-0.1181,0.3245,0.2772,0.1008,0.3000,0.2591,-2.88,1.94,38.20,0.0000,0.1570,1.0540,1.7780,2.3840,302,0.4354,-0.1835,0.0000,0.4560,-0.1144,0
19308,0.3506,0.0889,0.3259,-0.0872,-0.0199,0.0043,-0.75,0.42,-1.25,0,3.252,-4.713,-24.249,2.377,0.011,-0.008,0.995,0.000,0.000,0.000,0.3260,0,-2,-0.97,3.04,1.02,0.4124,-0.1248,0.3246,0.2772,0.1008,0.3000,0.2592,-1.50,1.72,37.59,2.4890,0.0000,1.0540,1.7780,2.3800,302,0.4354,-0.1835,0.0000,0.4560,-0.1144,0
19360,0.3489,0.0833,0.3261,-0.0863,-0.0232,0.0028,-0.96,1.53,-1.15,0,3.252,-2.258,-0.992,0.991,0.009,-0.011,0.996,0.000,0.000,0.000,0.3240,4,1,-1.33,4.04,1.29,0.4428,-0.1138,0.3303,0.2772,0.1008,0.3000,0.2593,-2.06,1.64,34.36,2.4890,0.0000,1.0590,1.7740,2.3800,302,0.4354,-0.1835,0.0000,0.4560,-0.1144,0
19412,0.3481,0.0802,0.3252,-0.0909,-0.0194,-0.0047,-1.11,1.54,-1.07,0,3.252,1.426,2.521,1.505,0.008,-0.014,0.997,0.000,0.000,0.000,0.3250,0,1,-1.40,4.08,1.28,0.4393,-0.1239,0.3289,0.2772,0.1008,0.3000,0.2603,-2.09,1.36,32.15,0.0000,0.0000,1.0590,1.7740,2.3700,302,0.4354,-0.1835,0.0000,0.4560,-0.1144,0
19463,0.3439,0.0832,0.3250,-0.1018,-0.0031,-0.0059,-1.19,1.43,-1.00,0,3.252,3.453,4.286,1.157,0.012,-0.007,1.002,0.000,0.000,0.000,0.3250,1,1,-1.35,3.92,1.41,0.4354,-0.1250,0.3281,0.2772,0.1008,0.3000,0.2604,-1.10,0.54,30.10,0.0000,0.0000,1.0600,1.7750,2.3700,317,0.4354,-0.1835,0.0000,0.4560,-0.1144,0
19515,0.3405,0.0843,0.3248,-0.1097,0.0095,-0.0066,-1.18,1.51,-0.92,0,3.246,8.431,9.042,0.719,0.003,-0.012,0.999,0.000,0.000,0.000,0.3220,0,1,-1.18,3.68,1.48,0.4313,-0.1285,0.3274,0.2772,0.1008,0.3000,0.2606,-0.43,-0.07,27.68,2.5440,0.1610,1.0600,1.7750,2.3760,384,0.4354,-0.1835,0.0000,0.4560,-0.1144,0
19566,0.3357,0.0833,0.3234,-0.1201,0.0157,-0.0129,-0.88,1.17,-0.86,0,3.252,5.316,13.372,0.506,0.005,-0.017,1.001,0.000,0.000,0.000,0.3230,1,4,-0.76,3.17,1.57,0.4278,-0.1292,0.3260,0.2772,0.1008,0.3000,0.2615,-0.20,-0.91,25.87,2.5440,0.1610,1.0520,1.7750,2.3760,384,0.4354,-0.1835,0.0000,0.4560,-0.1144,0
19617,0.3320,0.0838,0.3229,-0.1243,0.0220,-0.0119,-0.59,0.67,-0.84,0,3.252,1.724,-0.948,0.367,0.009,-0.011,1.003,0.000,0.000,0.000,0.3230,-1,1,-0.48,2.51,1.56,0.4155,-0.1324,0.3246,0.2772,0.1008,0.3000,0.2615,0.13,-1.37,25.21,0.0000,0.1680,1.0520,1.7750,2.3760,384,0.4354,-0.1835,0.0000,0.4560,-0.1144,0
19668,0.3289,0.0856,0.3226,-0.1227,0.0285,-0.0088,-0.48,0.57,-0.83,0,3.246,2.315,22.392,0.390,0.007,-0.014,1.005,0.000,0.000,0.000,0.3200,5,5,-0.43,2.51,1.66,0.4116,-0.1304,0.3245,0.2772,0.1008,0.3000,0.2612,0.56,-1.51,24.86,0.0000,0.1680,1.0570,1.7750,2.3760,495,0.4354,-0.1835,0.0000,0.4560,-0.1144,0
19719,0.3246,0.0872,0.3213,-0.1229,0.0327,-0.0119,-0.34,-0.38,-0.82,0,3.246,9.647,42.948,-0.151,0.008,-0.022,1.000,0.000,0.000,0.000,0.3200,-2,6,-0.23,1.40,1.56,0.3965,-0.1452,0.3225,0.2772,0.1008,0.3000,0.2618,0.88,-1.82,24.70,0.0000,0.1610,1.0570,1.7750,2.3860,495,0.4354,-0.1835,0.0000,0.4560,-0.1144,0
19770,0.3217,0.0888,0.3204,-0.1125,0.0353,-0.0121,-0.06,-2.27,-0.84,0,3.246,1.933,2.262,-0.500,0.016,-0.007,1.004,0.000,0.000,0.000,0.3160,0,0,0.20,-0.75,1.56,0.3775,-0.1398,0.3214,0.2772,0.1008,0.3000,0.2620,1.11,-1.53,25.16,0.0000,0.1610,1.0540,1.7730,2.3860,486,0.4354,-0.1835,0.0000,0.4560,-0.1144,0
19822,0.3189,0.0897,0.3183,-0.0882,0.0338,-0.0179,0.08,-2.50,-0.86,0,3.246,0.792,-32.841,0.541,0.011,-0.017,1.005,0.000,0.000,0.000,0.3150,-2,-5,0.30,-0.86,1.54,0.3652,-0.1431,0.3193,0.2772,0.1008,0.3000,0.2630,1.10,-0.58,25.85,0.0000,0.1740,1.0540,1.7730,2.3910,486,0.4354,-0.1835,0.0000,0.4560,-0.1144,0
19873,0.3193,0.0935,0.3164,-0.0569,0.0372,-0.0206,0.11,-1.02,-0.86,0,3.246,2.020,-14.825,0.399,0.005,-0.015,1.006,0.000,0.000,0.000,0.3140,-1,-2,0.23,0.52,1.61,0.4104,-0.1260,0.3223,0.2772,0.1008,0.3000,0.2636,1.53,0.92,25.66,0.0000,0.1740,1.0540,1.7730,2.3910,424,0.4354,-0.1835,0.0000,0.4560,-0.1144,0
19925,0.3221,0.1011,0.3148,-0.0355,0.0487,-0.0223,0.23,-0.30,-0.82,0,3.246,9.262,-12.178,-0.124,0.008,-0.014,1.010,0.000,0.000,0.000,0.3120,0,0,0.31,1.24,1.61,0.4152,-0.1234,0.3197,0.2772,0.1008,0.3000,0.2641,2.60,2.12,24.69,2.4400,0.0000,1.0540,1.7730,2.3720,424,0.4354,-0.1835,0.0000,0.4560,-0.1144,0
19976,0.3228,0.1008,0.3130,-0.0276,0.0406,-0.0229,0.70,0.21,-0.82,0,3.246,2.369,-16.116,0.434,-0.000,-0.016,1.008,0.000,0.000,0.000,0.3130,-5,-3,0.79,1.87,1.60,0.4145,-0.1239,0.3175,0.2772,0.1008,0.3000,0.2645,2.20,2.53,24.73,2.4400,0.0000,1.0500,1.7840,2.3720,424,0.4354,-0.1835,0.0000,0.4560,-0.1144,0
20027,0.3250,0.1084,0.3124,-0.0214,0.0477,-0.0150,0.79,0.96,-0.86,0,3.246,3.892,-10.008,0.024,0.002,-0.010,1.010,0.000,0.000,0.000,0.3120,-1,-1,0.77,2.59,1.43,0.4287,-0.1001,0.3166,0.2772,0.1008,0.3000,0.2638,3.06,2.98,25.82,2.4910,0.1610,1.0500,1.7840,2.3820,424,0.4354,-0.1835,0.0000,0.4560,-0.1144,0
20078,0.3265,0.1078,0.3119,-0.0234,0.0347,-0.0080,0.97,1.46,-0.87,0,3.246,4.193,-5.325,0.341,0.007,-0.008,1.009,0.000,0.000,0.000,0.3100,-4,0,0.97,3.08,1.42,0.4309,-0.0971,0.3154,0.2772,0.1008,0.3000,0.2631,2.42,3.01,26.05,2.4910,0.1610,1.0440,1.7810,2.3820,388,0.4354,-0.1835,0.0000,0.4560,-0.1144,0
20130,0.3285,0.1129,0.3110,-0.0283,0.0347,-0.0059,1.13,1.77,-0.86,0,3.246,1.478,-2.926,-0.072,0.008,-0.014,1.010,0.000,0.000,0.000,0.3160,0,0,1.13,3.35,1.41,0.4305,-0.0872,0.3139,0.2772,0.1008,0.3000,0.2631,2.78,2.92,25.79,0.0000,0.1540,1.0440,1.7810,2.3830,369,0.4354,-0.1835,0.0000,0.4560,-0.1144,0
20181,0.3276,0.1142,0.3129,-0.0417,0.0248,0.0097,1.23,1.96,-0.86,0,3.246,1.201,2.571,1.006,0.006,-0.013,1.006,0.000,0.000,0.000,0.3100,0,0,1.21,3.50,1.40,0.4285,-0.0847,0.3149,0.2772,0.1008,0.3000,0.2610,2.43,2.25,25.87,0.0000,0.1540,1.0360,1.7850,2.3830,369,0.4354,-0.1835,0.0000,0.4560,-0.1144,0
20232,0.3259,0.1158,0.3121,-0.0568,0.0158,0.0046,1.28,1.68,-0.83,0,3.246,-1.594,35.443,0.716,0.004,-0.016,1.003,0.000,0.000,0.000,0.3110,-4,3,1.26,3.37,1.45,0.4252,-0.0832,0.3139,0.2772,0.1008,0.3000,0.2617,2.11,1.41,24.87,0.0000,0.1630,1.0360,1.7850,2.3850,369,0.4354,-0.1835,0.0000,0.4560,-0.1144,0
20283,0.3267,0.1200,0.3118,-0.0620,0.0131,0.0022,1.22,-0.03,-0.76,0,3.246,3.655,24.303,-0.261,0.011,-0.016,1.005,0.000,0.000,0.000,0.3070,0,3,1.10,1.53,1.52,0.4263,-0.0692,0.3136,0.2772,0.1008,0.3000,0.2620,2.28,1.21,22.68,0.0000,0.1630,1.0250,1.7890,2.3850,342,0.4354,-0.1835,0.0000,0.4560,-0.1144,0
20335,0.3245,0.1230,0.3098,-0.0598,0.0088,-0.0085,1.26,-1.27,-0.70,0,3.241,0.216,3.285,0.480,0.006,-0.014,1.003,0.000,0.000,0.000,0.3110,0,0,1.29,0.31,1.55,0.4199,-0.0684,0.3120,0.2772,0.1008,0.3000,0.2636,2.27,1.16,20.98,0.0000,0.0000,1.0250,1.7890,2.3940,342,0.4354,-0.1835,0.0000,0.4560,-0.1144,0
20387,0.3232,0.1213,0.3101,-0.0462,-0.0066,-0.0026,1.34,-1.57,-0.65,0,3.241,-5.018,1.926,0.617,0.013,-0.010,1.007,0.000,0.000,0.000,0.3110,0,-1,1.30,0.14,1.58,0.4153,-0.0674,0.3119,0.2772,0.1008,0.3000,0.2629,1.43,1.71,19.62,0.0000,0.0000,1.0320,1.7950,2.3940,342,0.4354,-0.1835,0.0000,0.4560,-0.1144,0
20439,0.3211,0.1207,0.3104,-0.0329,-0.0184,0.0021,1.18,-1.66,-0.64,0,3.241,-4.224,-28.289,0.214,0.008,-0.007,1.006,0.000,0.000,0.000,0.3060,1,-2,1.04,-0.05,1.50,0.4219,-0.0665,0.3122,0.2772,0.1008,0.3000,0.2623,0.84,2.19,19.16,0.0000,0.0000,1.0320,1.7950,2.4050,342,0.4354,-0.1835,0.0000,0.4560,-0.1144,0
20490,0.3197,0.1190,0.3087,-0.0199,-0.0301,-0.0050,0.99,-0.47,-0.64,0,3.241,-8.330,-27.319,0.929,0.007,-0.012,1.006,0.000,0.000,0.000,0.3070,3,-3,0.83,1.39,1.46,0.4247,-0.0682,0.3108,0.2772,0.1008,0.3000,0.2634,0.16,2.70,19.27,0.0000,0.0000,1.0260,1.8030,2.4050,308,0.4354,-0.1835,0.0000,0.4560,-0.1144,0
20542,0.3245,0.1201,0.3078,-0.0034,-0.0331,-0.0068,0.63,0.81,-0.64,0,3.241,-1.024,-7.751,0.852,-0.001,-0.010,1.005,0.000,0.000,0.000,0.3070,1,-2,0.44,2.74,1.50,0.4300,-0.0742,0.3100,0.2772,0.1008,0.3000,0.2638,0.10,3.79,19.20,0.0000,0.0000,1.0260,1.8030,2.4020,308,0.4354,-0.1835,0.0000,0.4560,-0.1144,0
20594,0.3275,0.1209,0.3073,-0.0024,-0.0333,-0.0051,0.52,1.27,-0.62,0,3.241,-0.107,-8.832,0.699,0.005,-0.011,1.010,0.000,0.000,0.000,0.3070,0,-1,0.39,3.10,1.50,0.4340,-0.0769,0.3096,0.2772,0.1008,0.3000,0.2637,0.15,4.06,18.52,0.0000,0.0000,1.0280,1.8000,2.4020,308,0.4354,-0.1835,0.0000,0.4560,-0.1144,0
20645,0.3283,0.1182,0.3071,-0.0107,-0.0402,0.0001,0.52,1.74,-0.61,0,3.241,-4.208,-9.162,0.088,0.006,-0.012,1.005,0.000,0.000,0.000,0.3070,0,0,0.36,3.54,1.49,0.4359,-0.0774,0.3096,0.2772,0.1008,0.3000,0.2632,-0.37,3.74,18.18,0.0000,0.1610,1.0280,1.8000,2.4000,499,0.4354,-0.1835,0.0000,0.4560,-0.1144,0
20696,0.3309,0.1187,0.3071,-0.0176,-0.0389,0.0027,0.33,2.11,-0.62,0,3.236,-2.590,-2.611,0.430,0.007,-0.011,1.011,0.000,0.000,0.000,0.3090,0,0,0.14,4.01,1.49,0.4342,-0.0809,0.3093,0.2772,0.1008,0.3000,0.2629,-0.27,3.59,18.52,0.0000,0.1610,1.0250,1.8020,2.4000,499,0.4354,-0.1835,0.0000,0.4560,-0.1144,0
20747,0.3309,0.1182,0.3081,-0.0328,-0.0383,0.0104,0.20,2.31,-0.62,0,3.246,-0.795,-0.709,0.247,0.005,-0.010,1.006,0.000,0.000,0.000,0.3090,0,0,0.01,4.14,1.52,0.4309,-0.0848,0.3099,0.2772,0.1008,0.3000,0.2619,-0.27,2.90,18.60,0.0000,0.1480,1.0250,1.8020,2.4050,499,0.4354,-0.1835,0.0000,0.4560,-0.1144,0
20798,0.3296,0.1174,0.3089,-0.0506,-0.0371,0.0136,0.15,2.29,-0.62,0,3.246,-0.345,6.721,-0.128,0.008,-0.013,1.001,0.000,0.000,0.000,0.3090,1,2,-0.03,4.17,1.53,0.4258,-0.0889,0.3104,0.2772,0.1008,0.3000,0.2614,-0.27,1.97,18.60,0.0000,0.1480,1.0260,1.8050,2.4050,474,0.4354,-0.1835,0.0000,0.4560,-0.1144,0
20849,0.3255,0.1148,0.3093,-0.0728,-0.0398,0.0144,0.10,2.13,-0.60,0,3.246,-2.668,3.908,0.521,0.007,-0.019,0.996,0.000,0.000,0.000,0.3090,-1,1,-0.15,3.69,1.52,0.4424,-0.0763,0.3129,0.2772,0.1008,0.3000,0.2612,-0.58,0.63,18.01,0.0000,0.0000,1.0260,1.8050,2.3870,474,0.4354,-0.1835,0.0000,0.4560,-0.1144,0
20899,0.3242,0.1175,0.3097,-0.0844,-0.0295,0.0128,-0.00,1.65,-0.59,0,3.236,0.375,13.446,0.282,0.011,-0.009,1.003,0.000,0.000,0.000,0.3080,-1,0,-0.30,3.49,1.56,0.4390,-0.0765,0.3125,0.2772,0.1008,0.3000,0.2613,0.09,-0.01,17.79,0.0000,0.0000,1.0300,1.7980,2.3870,378,0.4354,-0.1835,0.0000,0.4560,-0.1144,0
20951,0.3196,0.1128,0.3093,-0.0983,-0.0367,0.0076,0.06,1.17,-0.58,0,3.241,-2.752,4.429,0.594,0.009,-0.011,0.996,0.000,0.000,0.000,0.3060,-1,1,-0.30,2.80,1.59,0.4360,-0.0764,0.3119,0.2772,0.1008,0.3000,0.2619,-0.58,-0.99,17.43,2.4950,0.1660,1.0300,1.7980,2.3850,378,0.4354,-0.1835,0.0000,0.4560,-0.1144,0
21002,0.3145,0.1107,0.3082,-0.1077,-0.0370,-0.0007,-0.12,0.74,-0.53,0,3.241,-3.225,10.500,0.526,0.011,-0.014,1.003,0.000,0.000,0.000,0.3090,2,3,-0.46,2.55,1.64,0.4319,-0.0756,0.3106,0.2772,0.1008,0.3000,0.2630,-0.74,-1.79,15.81,2.4950,0.1660,1.0270,1.8060,2.3850,378,0.4354,-0.1835,0.0000,0.4560,-0.1144,0
21053,0.3124,0.1127,0.3085,-0.1062,-0.0275,0.0018,-0.26,0.19,-0.49,0,3.241,-2.603,25.006,1.954,0.010,-0.006,1.004,0.000,0.000,0.000,0.3110,4,6,-0.60,2.03,1.63,0.4242,-0.0793,0.3104,0.2772,0.1008,0.3000,0.2627,-0.15,-1.87,14.81,2.4510,0.0000,1.0270,1.8060,2.3980,378,0.4354,-0.1835,0.0000,0.4560,-0.1144,0
