time_ms,pos_x,pos_y,pos_z,vel_x,vel_y,vel_z,roll,pitch,yaw,thrust,vbat,gyro_x,gyro_y,gyro_z,acc_x,acc_y,acc_z,rate_roll,rate_pitch,rate_yaw,range_z,flow_dx,flow_dy,mekf_roll,mekf_pitch,mekf_yaw,mekf_x,mekf_y,mekf_z
0,0.4069,-0.8303,0.0097,-0.0228,-0.0322,0.0019,-1.25,0.47,-49.34,0,4.154,-0.147,0.164,0.102,0.010,-0.027,0.000,0.000,0.000,0.000,0.0100,0,1,0.00,0.00,0.00,0.0000,0.0000,0.0000
101,0.4066,-0.8311,0.0100,-0.0197,-0.0296,0.0028,-1.34,0.50,-49.10,0,4.144,-0.186,0.116,-0.164,0.012,-0.026,0.000,0.000,0.000,0.000,0.0050,0,1,0.00,0.00,0.00,0.0000,0.0000,0.0000
202,0.4026,-0.8290,0.0092,-0.0337,-0.0136,-0.0014,-1.35,0.66,-48.85,0,4.154,-0.146,-0.057,0.248,0.012,-0.026,0.000,0.000,0.000,0.000,0.0050,0,11,0.00,0.00,0.00,0.0000,0.0000,0.0000
303,0.4023,-0.8305,0.0071,-0.0284,-0.0179,-0.0092,-1.37,0.69,-48.61,0,4.144,0.046,-0.091,0.130,0.011,-0.026,0.000,0.000,0.000,0.000,0.0100,4,-7,0.00,0.00,0.00,0.0000,0.0000,0.0000
404,0.4024,-0.8293,0.0064,-0.0221,-0.0084,-0.0100,-1.42,0.55,-48.38,0,4.154,-0.152,0.144,-0.056,0.013,-0.027,0.000,0.000,0.000,0.000,0.0100,8,-4,0.00,0.00,0.00,0.0000,0.0000,0.0000
505,0.4002,-0.8275,0.0078,-0.0280,0.0029,-0.0010,-1.40,0.66,-48.15,0,4.144,-0.046,0.059,0.058,0.008,-0.024,0.000,0.000,0.000,0.000,0.0100,4,-2,0.00,0.00,0.00,0.0000,0.0000,0.0000
606,0.4004,-0.8267,0.0094,-0.0199,0.0072,0.0071,-1.50,0.65,-47.91,0,4.154,-0.193,0.087,-0.097,0.008,-0.026,0.000,0.000,0.000,0.000,0.0100,2,0,0.00,0.00,0.00,0.0000,0.0000,0.0000
707,0.4006,-0.8270,0.0101,-0.0145,0.0043,0.0090,-1.53,0.62,-47.67,0,4.144,0.007,0.028,-0.032,0.010,-0.023,0.000,0.000,0.000,0.000,0.0080,0,2,0.00,0.00,0.00,0.0000,0.0000,0.0000
808,0.4001,-0.8274,0.0111,-0.0134,0.0017,0.0126,-1.53,0.61,-47.44,0,4.154,0.009,-0.150,0.029,0.010,-0.024,0.000,0.000,0.000,0.000,0.0080,1,-1,0.00,0.00,0.00,0.0000,0.0000,0.0000
909,0.3998,-0.8269,0.0102,-0.0108,0.0038,0.0057,-1.63,0.50,-47.20,0,4.144,0.094,-0.274,0.037,0.010,-0.026,0.000,0.000,0.000,0.000,0.0090,5,0,0.00,0.00,0.00,0.0000,0.0000,0.0000
1010,0.4042,-0.8240,0.0098,0.0139,0.0189,0.0032,-1.70,0.54,-46.98,0,4.154,-0.080,0.016,-0.043,0.012,-0.026,0.000,0.000,0.000,0.000,0.0090,1,-1,0.00,0.00,0.00,0.0000,0.0000,0.0000
1112,0.4012,-0.8285,0.0098,-0.0032,-0.0084,0.0024,-1.49,0.47,-46.75,0,4.144,-0.090,-0.009,0.145,0.010,-0.026,0.000,0.000,0.000,0.000,0.0090,1,0,0.00,0.00,0.00,0.0000,0.0000,0.0000
1213,0.4076,-0.8208,0.0094,0.0312,0.0344,0.0002,-1.89,0.54,-46.53,0,4.154,0.176,-0.143,-0.205,0.011,-0.027,0.000,0.000,0.000,0.000,0.0090,1,-3,0.00,0.00,0.00,0.0000,0.0000,0.0000
1314,0.4070,-0.8202,0.0094,0.0225,0.0314,0.0004,-1.79,0.54,-46.30,0,4.144,-0.154,-0.057,0.152,0.010,-0.026,0.000,0.000,0.000,0.000,0.0070,8,-6,0.00,0.00,0.00,0.0000,0.0000,0.0000
1415,0.4051,-0.8281,0.0111,0.0087,-0.0131,0.0083,-1.40,0.34,-46.06,0,4.154,0.073,-0.195,0.264,0.009,-0.025,0.000,0.000,0.000,0.000,0.0070,1,2,0.00,0.00,0.00,0.0000,0.0000,0.0000
1516,0.4035,-0.8310,0.0095,0.0006,-0.0249,0.0006,-1.36,0.40,-45.84,0,4.144,-0.488,0.029,0.204,0.010,-0.026,0.000,0.000,0.000,0.000,0.0080,-8,3,0.00,0.00,0.00,0.0000,0.0000,0.0000
1567,0.3987,-0.8358,0.0097,-0.0229,-0.0444,0.0021,-1.23,0.44,-45.61,0,4.154,-0.181,-0.192,-0.077,0.012,-0.026,0.000,0.000,0.000,0.000,0.0080,0,4,0.00,0.00,0.00,0.0000,0.0000,0.0000
1618,0.3988,-0.8357,0.0092,-0.0169,-0.0357,-0.0002,-1.25,0.47,-45.39,0,4.144,-0.197,-0.086,0.155,0.010,-0.024,0.000,0.000,0.000,0.000,0.0080,16,1,0.00,0.00,0.00,0.0000,0.0000,0.0000
1669,0.4000,-0.8339,0.0087,-0.0055,-0.0195,-0.0019,-1.26,0.48,-45.17,0,4.154,0.059,0.263,0.012,0.011,-0.025,0.000,0.000,0.000,0.000,0.0080,0,0,0.00,0.00,0.00,0.0000,0.0000,0.0000
1720,0.3971,-0.8386,0.0083,-0.0182,-0.0390,-0.0034,-1.22,0.43,-44.95,0,4.144,0.008,-0.014,-0.175,0.012,-0.026,0.000,0.000,0.000,0.000,0.0090,7,0,0.00,0.00,0.00,0.0000,0.0000,0.0000
1771,0.3978,-0.8379,0.0092,-0.0094,-0.0280,0.0027,-1.29,0.46,-44.73,0,4.154,-0.211,-0.067,0.133,0.008,-0.023,0.000,0.000,0.000,0.000,0.0090,6,2,0.00,0.00,0.00,0.0000,0.0000,0.0000
1822,0.3978,-0.8387,0.0093,-0.0063,-0.0264,0.0026,-1.33,0.47,-44.51,0,4.144,0.255,0.083,-0.048,0.010,-0.025,0.000,0.000,0.000,0.000,0.0080,0,0,0.00,0.00,0.00,0.0000,0.0000,0.0000
1873,0.3923,-0.8431,0.0087,-0.0321,-0.0430,-0.0004,-1.13,0.51,-44.29,0,4.154,-0.145,0.042,0.304,0.012,-0.024,0.000,0.000,0.000,0.000,0.0080,4,3,0.00,0.00,0.00,0.0000,0.0000,0.0000
1924,0.3918,-0.8434,0.0085,-0.0272,-0.0358,-0.0006,-1.20,0.56,-44.07,0,4.144,-0.285,-0.131,0.140,0.010,-0.025,0.000,0.000,0.000,0.000,0.0080,0,3,0.00,0.00,0.00,0.0000,0.0000,0.0000
1975,0.3923,-0.8435,0.0104,-0.0181,-0.0276,0.0085,-1.34,0.55,-43.86,0,4.154,-0.229,-0.002,-0.013,0.013,-0.025,0.000,0.000,0.000,0.000,0.0080,1,2,0.00,0.00,0.00,0.0000,0.0000,0.0000
2026,0.3917,-0.8432,0.0097,-0.0166,-0.0210,0.0039,-1.38,0.57,-43.64,0,4.144,-0.073,0.143,0.030,0.012,-0.027,0.000,0.000,0.000,0.000,0.0100,1,0,0.00,0.00,0.00,0.0000,0.0000,0.0000
2077,0.3919,-0.8436,0.0106,-0.0112,-0.0180,0.0079,-1.46,0.52,-43.43,0,4.154,-0.198,0.045,-0.133,0.009,-0.024,0.000,0.000,0.000,0.000,0.0100,7,2,0.00,0.00,0.00,0.0000,0.0000,0.0000
2128,0.3919,-0.8430,0.0107,-0.0084,-0.0109,0.0066,-1.42,0.57,-43.22,0,4.149,0.047,-0.019,-0.045,0.010,-0.025,0.000,0.000,0.000,0.000,0.0070,0,3,0.00,0.00,0.00,0.0000,0.0000,0.0000
2179,0.3922,-0.8436,0.0091,-0.0034,-0.0106,-0.0012,-1.51,0.56,-43.01,0,4.154,-0.088,0.075,-0.259,0.010,-0.025,0.000,0.000,0.000,0.000,0.0130,7,0,0.00,0.00,0.00,0.0000,0.0000,0.0000
2230,0.3920,-0.8434,0.0110,-0.0023,-0.0076,0.0077,-1.46,0.53,-42.80,0,4.144,-0.006,-0.097,0.066,0.010,-0.027,0.000,0.000,0.000,0.000,0.0070,-3,3,0.00,0.00,0.00,0.0000,0.0000,0.0000
2281,0.3917,-0.8441,0.0093,-0.0016,-0.0091,-0.0018,-1.54,0.55,-42.59,0,4.154,-0.329,0.014,0.248,0.011,-0.026,0.000,0.000,0.000,0.000,0.0070,8,4,0.00,0.00,0.00,0.0000,0.0000,0.0000
2332,0.3915,-0.8435,0.0081,-0.0018,-0.0038,-0.0063,-1.45,0.59,-42.39,0,4.144,0.160,-0.170,0.029,0.010,-0.027,0.000,0.000,0.000,0.000,0.0060,2,-3,0.00,0.00,0.00,0.0000,0.0000,0.0000
2383,0.3916,-0.8433,0.0089,-0.0002,-0.0014,-0.0015,-1.52,0.52,-42.18,0,4.154,-0.182,0.137,-0.016,0.014,-0.026,0.000,0.000,0.000,0.000,0.0060,-4,-3,0.00,0.00,0.00,0.0000,0.0000,0.0000
2434,0.3949,-0.8363,0.0073,0.0161,0.0344,-0.0076,-1.85,0.60,-41.98,0,4.144,-0.234,0.051,0.133,0.012,-0.027,0.000,0.000,0.000,0.000,0.0100,7,0,0.00,0.00,0.00,0.0000,0.0000,0.0000
2485,0.3961,-0.8364,0.0080,0.0203,0.0282,-0.0024,-1.71,0.57,-41.77,0,4.154,-0.112,0.061,0.013,0.011,-0.024,0.000,0.000,0.000,0.000,0.0100,1,0,0.00,0.00,0.00,0.0000,0.0000,0.0000
2536,0.3950,-0.8378,0.0091,0.0120,0.0157,0.0034,-1.63,0.55,-41.57,0,4.144,0.357,-0.050,0.011,0.012,-0.025,0.000,0.000,0.000,0.000,0.0100,-2,-1,0.00,0.00,0.00,0.0000,0.0000,0.0000
2587,0.3951,-0.8362,0.0097,0.0106,0.0213,0.0063,-1.66,0.57,-41.36,0,4.154,-0.180,-0.214,0.203,0.011,-0.029,0.000,0.000,0.000,0.000,0.0080,0,-11,0.00,0.00,0.00,0.0000,0.0000,0.0000
2638,0.3947,-0.8375,0.0093,0.0076,0.0097,0.0035,-1.56,0.45,-41.15,0,4.144,-0.308,-0.065,0.426,0.010,-0.025,0.000,0.000,0.000,0.000,0.0080,1,-4,0.00,0.00,0.00,0.0000,0.0000,0.0000
2689,0.3954,-0.8371,0.0099,0.0093,0.0094,0.0059,-1.55,0.50,-40.95,0,4.154,-0.143,0.031,-0.031,0.010,-0.027,0.000,0.000,0.000,0.000,0.0080,-8,8,0.00,0.00,0.00,0.0000,0.0000,0.0000
2740,0.3957,-0.8380,0.0093,0.0095,0.0022,0.0025,-1.58,0.58,-40.75,0,4.144,0.081,0.365,-0.198,0.010,-0.024,0.000,0.000,0.000,0.000,0.0080,-5,2,0.00,0.00,0.00,0.0000,0.0000,0.0000
2791,0.3956,-0.8374,0.0095,0.0078,0.0041,0.0030,-1.55,0.54,-40.59,0,4.154,-0.057,0.195,0.090,0.010,-0.026,0.000,0.000,0.000,0.000,0.0080,2,1,0.00,0.00,0.00,0.0000,0.0000,0.0000
2842,0.3956,-0.8374,0.0089,0.0070,0.0030,0.0005,-1.47,0.53,-40.39,0,4.144,0.033,-0.000,0.016,0.011,-0.026,0.000,0.000,0.000,0.000,0.0070,6,-4,0.00,0.00,0.00,0.0000,0.0000,0.0000
2893,0.3964,-0.8346,0.0090,0.0097,0.0169,0.0004,-1.51,0.53,-40.20,0,4.154,0.027,-0.065,-0.064,0.009,-0.026,0.000,0.000,0.000,0.000,0.0070,1,0,0.00,0.00,0.00,0.0000,0.0000,0.0000
2944,0.3914,-0.8428,0.0080,-0.0190,-0.0301,-0.0033,-1.15,0.51,-40.00,0,4.144,0.099,-0.150,0.017,0.009,-0.024,0.000,0.000,0.000,0.000,0.0080,-3,0,0.00,0.00,0.00,0.0000,0.0000,0.0000
2995,0.3912,-0.8427,0.0080,-0.0158,-0.0238,-0.0021,-1.26,0.52,-39.80,0,4.154,0.213,0.015,-0.274,0.011,-0.026,0.000,0.000,0.000,0.000,0.0110,-4,5,0.00,0.00,0.00,0.0000,0.0000,0.0000
3046,0.3910,-0.8436,0.0098,-0.0129,-0.0231,0.0068,-1.38,0.48,-39.57,0,4.144,0.079,0.126,-0.079,0.012,-0.025,0.000,0.000,0.000,0.000,0.0080,-8,0,0.00,0.00,0.00,0.0000,0.0000,0.0000
3097,0.3910,-0.8437,0.0098,-0.0104,-0.0207,0.0061,-1.33,0.49,-39.38,0,4.154,0.041,0.376,-0.050,0.011,-0.024,0.000,0.000,0.000,0.000,0.0080,4,-4,0.00,0.00,0.00,0.0000,0.0000,0.0000
3149,0.3916,-0.8428,0.0092,-0.0046,-0.0122,0.0030,-1.33,0.48,-39.23,0,4.144,-0.143,0.169,0.132,0.010,-0.026,0.000,0.000,0.000,0.000,0.0080,0,0,0.00,0.00,0.00,0.0000,0.0000,0.0000
3200,0.3878,-0.8504,0.0071,-0.0220,-0.0470,-0.0067,-1.08,0.46,-39.04,0,4.154,-0.165,-0.143,0.160,0.010,-0.026,0.000,0.000,0.000,0.000,0.0080,-2,7,0.00,0.00,0.00,0.0000,0.0000,0.0000
3251,0.3877,-0.8513,0.0074,-0.0170,-0.0424,-0.0039,-1.19,0.53,-38.84,0,4.144,-0.077,-0.253,0.088,0.011,-0.025,0.000,0.000,0.000,0.000,0.0070,0,0,0.00,0.00,0.00,0.0000,0.0000,0.0000
3302,0.3875,-0.8500,0.0082,-0.0139,-0.0278,0.0010,-1.27,0.51,-38.65,0,4.154,0.049,-0.022,0.056,0.012,-0.024,0.000,0.000,0.000,0.000,0.0070,1,-3,0.00,0.00,0.00,0.0000,0.0000,0.0000
3353,0.3874,-0.8508,0.0077,-0.0114,-0.0255,-0.0012,-1.31,0.48,-38.46,0,4.144,-0.134,0.134,-0.102,0.009,-0.026,0.000,0.000,0.000,0.000,0.0070,0,0,0.00,0.00,0.00,0.0000,0.0000,0.0000
3404,0.3874,-0.8506,0.0074,-0.0084,-0.0191,-0.0015,-1.24,0.47,-38.28,0,4.154,-0.239,0.004,0.017,0.008,-0.025,0.000,0.000,0.000,0.000,0.0070,1,0,0.00,0.00,0.00,0.0000,0.0000,0.0000
3455,0.3867,-0.8517,0.0072,-0.0101,-0.0197,-0.0016,-1.39,0.71,-38.08,0,4.144,-0.127,-0.190,0.094,0.009,-0.025,0.000,0.000,0.000,0.000,0.0110,-4,4,0.00,0.00,0.00,0.0000,0.0000,0.0000
3507,0.3815,-0.8406,0.0058,-0.0321,0.0368,-0.0069,-1.64,0.93,-37.88,0,4.154,0.145,-0.153,0.077,0.013,-0.027,0.000,0.000,0.000,0.000,0.0110,8,-3,0.00,0.00,0.00,0.0000,0.0000,0.0000
3558,0.3827,-0.8395,0.0084,-0.0198,0.0357,0.0063,-1.53,0.77,-37.70,0,4.144,-0.151,-0.041,-0.017,0.011,-0.025,0.000,0.000,0.000,0.000,0.0060,7,0,0.00,0.00,0.00,0.0000,0.0000,0.0000
3609,0.3827,-0.8397,0.0096,-0.0147,0.0297,0.0102,-1.54,0.71,-37.52,0,4.154,0.047,0.088,0.360,0.011,-0.028,0.000,0.000,0.000,0.000,0.0060,14,-3,0.00,0.00,0.00,0.0000,0.0000,0.0000
3660,0.3823,-0.8393,0.0083,-0.0139,0.0267,0.0029,-1.45,0.65,-37.34,0,4.144,-0.116,0.031,-0.177,0.009,-0.026,0.000,0.000,0.000,0.000,0.0090,4,-3,0.00,0.00,0.00,0.0000,0.0000,0.0000
3712,0.3790,-0.8323,0.0076,-0.0265,0.0573,-0.0009,-1.67,0.84,-37.15,0,4.154,0.083,-0.096,-0.035,0.011,-0.023,0.000,0.000,0.000,0.000,0.0090,-3,0,0.00,0.00,0.00,0.0000,0.0000,0.0000
3764,0.3790,-0.8333,0.0086,-0.0197,0.0420,0.0046,-1.64,0.73,-36.97,0,4.144,-0.183,0.092,0.031,0.009,-0.024,0.000,0.000,0.000,0.000,0.0100,0,0,0.00,0.00,0.00,0.0000,0.0000,0.0000
3815,0.3784,-0.8330,0.0106,-0.0181,0.0339,0.0135,-1.57,0.69,-36.80,0,4.154,-0.360,0.024,0.405,0.010,-0.026,0.000,0.000,0.000,0.000,0.0100,7,-2,0.00,0.00,0.00,0.0000,0.0000,0.0000
3866,0.3788,-0.8321,0.0110,-0.0111,0.0319,0.0132,-1.50,0.59,-36.62,0,4.144,0.154,-0.048,0.071,0.010,-0.026,0.000,0.000,0.000,0.000,0.0110,-1,2,0.00,0.00,0.00,0.0000,0.0000,0.0000
3917,0.3772,-0.8334,0.0113,-0.0151,0.0211,0.0116,-1.49,0.60,-36.44,0,4.154,0.205,0.115,-0.131,0.011,-0.025,0.000,0.000,0.000,0.000,0.0110,-6,6,0.00,0.00,0.00,0.0000,0.0000,0.0000
3968,0.3775,-0.8333,0.0118,-0.0099,0.0160,0.0122,-1.52,0.57,-36.26,0,4.144,0.062,0.100,-0.144,0.012,-0.025,0.000,0.000,0.000,0.000,0.0090,-2,-2,0.00,0.00,0.00,0.0000,0.0000,0.0000
4019,0.3769,-0.8340,0.0110,-0.0094,0.0078,0.0063,-1.44,0.46,-36.08,0,4.154,-0.060,0.410,-0.032,0.010,-0.024,0.000,0.000,0.000,0.000,0.0090,4,-5,0.00,0.00,0.00,0.0000,0.0000,0.0000
4070,0.0002,-0.0002,0.2929,0.0079,-0.0118,0.0002,0.02,-0.03,0.00,0,4.144,-0.382,-0.032,0.042,0.010,-0.024,0.000,0.000,0.000,0.000,0.0110,0,1,0.00,0.00,0.00,0.0000,0.0000,0.0000
4121,0.0002,-0.0005,0.0101,0.0046,-0.0143,0.0002,-0.21,0.21,0.00,0,4.154,-0.233,0.083,0.190,0.013,-0.024,0.000,0.000,0.000,0.000,0.0110,3,-5,0.00,0.00,0.00,0.0000,0.0000,0.0000
4172,0.0002,-0.0010,0.0106,0.0039,-0.0189,0.0009,-0.24,0.03,0.00,0,4.144,0.105,0.070,0.205,0.010,-0.028,0.000,0.000,0.000,0.000,0.0100,0,0,0.00,0.00,0.00,0.0000,0.0000,0.0000
4223,0.0005,-0.0015,0.0095,0.0073,-0.0219,-0.0027,-0.48,0.27,0.00,0,4.154,-0.024,-0.043,0.128,0.011,-0.026,0.000,0.000,0.000,0.000,0.0100,1,-7,0.00,0.00,0.00,0.0000,0.0000,0.0000
4275,-0.0006,-0.0008,0.0097,-0.0038,-0.0118,-0.0008,-0.87,0.25,0.01,0,4.144,0.105,-0.394,-0.100,0.011,-0.024,0.000,0.000,0.000,0.000,0.0070,3,-1,0.00,0.00,0.00,0.0000,0.0000,0.0000
4326,0.0001,-0.0009,0.0084,0.0023,-0.0107,-0.0067,-0.91,0.44,0.00,0,4.154,-0.003,0.173,0.129,0.010,-0.025,0.000,0.000,0.000,0.000,0.0090,4,-5,0.00,0.00,0.00,0.0000,0.0000,0.0000
4377,0.0003,-0.0008,0.0085,0.0030,-0.0083,-0.0044,-0.99,0.31,0.00,0,4.144,-0.171,0.219,-0.145,0.009,-0.025,0.000,0.000,0.000,0.000,0.0090,-3,3,0.00,0.00,0.00,0.0000,0.0000,0.0000
4429,-0.0022,0.0085,0.0092,-0.0136,0.0537,-0.0005,-2.16,0.81,0.02,0,4.154,0.166,-0.235,-0.195,0.009,-0.027,0.000,0.000,0.000,0.000,0.0090,-17,-5,0.00,0.00,0.00,0.0000,0.0000,0.0000
4480,-0.0041,0.0088,0.0093,-0.0226,0.0430,0.0006,-2.27,0.70,0.02,0,4.144,-0.002,-0.186,0.014,0.012,-0.024,0.000,0.000,0.000,0.000,0.0100,-11,3,0.00,0.00,0.00,0.0000,0.0000,0.0000
4531,-0.0027,0.0137,0.0088,-0.0094,0.0610,-0.0005,-2.25,0.69,0.02,0,4.154,-0.120,0.073,0.095,0.011,-0.027,0.000,0.000,0.000,0.000,0.0100,35,0,0.00,0.00,0.00,0.0000,0.0000,0.0000
4582,-0.0038,0.0141,0.0098,-0.0138,0.0508,0.0047,-1.16,0.66,-0.01,0,4.144,0.089,-0.281,0.013,0.011,-0.022,0.000,0.000,0.000,0.000,0.0090,1,-5,0.00,0.00,0.00,0.0000,0.0000,0.0000
4633,-0.0037,0.0069,0.0106,-0.0101,0.0026,0.0079,-1.25,0.52,0.00,0,4.154,-0.023,0.029,-0.226,0.009,-0.025,0.000,0.000,0.000,0.000,0.0090,-9,0,0.00,0.00,0.00,0.0000,0.0000,0.0000
4684,-0.0027,0.0045,0.0102,-0.0018,-0.0134,0.0047,-1.26,0.51,0.00,0,4.144,0.145,0.118,-0.015,0.008,-0.025,0.000,0.000,0.000,0.000,0.0080,3,-1,0.00,0.00,0.00,0.0000,0.0000,0.0000
4735,-0.0060,0.0103,0.0099,-0.0191,0.0186,0.0024,-1.42,0.67,0.01,0,4.154,-0.065,-0.219,-0.103,0.010,-0.027,0.000,0.000,0.000,0.000,0.0080,2,-2,0.00,0.00,0.00,0.0000,0.0000,0.0000
4787,-0.0054,0.0096,0.0092,-0.0118,0.0106,-0.0006,-1.35,0.58,0.00,0,4.144,-0.260,0.203,0.260,0.011,-0.026,0.000,0.000,0.000,0.000,0.0080,-2,-2,0.00,0.00,0.00,0.0000,0.0000,0.0000
4838,-0.0055,0.0093,0.0081,-0.0094,0.0057,-0.0041,-1.36,0.56,0.00,0,4.154,-0.012,0.034,0.108,0.008,-0.025,0.000,0.000,0.000,0.000,0.0080,0,5,0.00,0.00,0.00,0.0000,0.0000,0.0000
4890,-0.0036,0.0030,0.0079,0.0028,-0.0286,-0.0035,-1.03,0.53,-0.00,0,4.144,0.192,0.052,-0.187,0.010,-0.025,0.000,0.000,0.000,0.000,0.0090,3,-8,0.00,0.00,0.00,0.0000,0.0000,0.0000
4941,-0.0054,0.0041,0.0080,-0.0067,-0.0194,-0.0019,-1.11,0.47,-0.00,0,4.154,0.075,0.227,0.145,0.011,-0.025,0.000,0.000,0.000,0.000,0.0090,-8,3,0.00,0.00,0.00,0.0000,0.0000,0.0000
4992,-0.0035,0.0030,0.0084,0.0046,-0.0223,0.0008,-1.24,0.50,0.00,0,4.144,0.003,-0.195,-0.120,0.010,-0.027,0.000,0.000,0.000,0.000,0.0120,0,4,0.00,0.00,0.00,0.0000,0.0000,0.0000
5043,-0.0024,0.0015,0.0088,0.0112,-0.0274,0.0024,-1.12,0.47,-0.00,0,4.154,-0.049,-0.148,-0.120,0.008,-0.025,0.000,0.000,0.000,0.000,0.0120,0,0,0.00,0.00,0.00,0.0000,0.0000,0.0000
5094,-0.0034,0.0012,0.0106,0.0052,-0.0249,0.0104,-1.15,0.48,-0.00,0,4.144,-0.143,-0.051,0.025,0.009,-0.027,0.000,0.000,0.000,0.000,0.0120,3,-1,0.00,0.00,0.00,0.0000,0.0000,0.0000
5146,-0.0038,0.0026,0.0104,0.0025,-0.0144,0.0079,-1.24,0.49,-0.00,0,4.154,-0.176,0.200,0.082,0.010,-0.025,0.000,0.000,0.000,0.000,0.0120,0,8,0.00,0.00,0.00,0.0000,0.0000,0.0000
5197,-0.0039,0.0074,0.0116,0.0021,0.0123,0.0119,-1.48,0.60,-0.00,0,4.144,0.148,-0.026,-0.035,0.011,-0.024,0.000,0.000,0.000,0.000,0.0090,-2,0,0.00,0.00,0.00,0.0000,0.0000,0.0000
5248,-0.0046,0.0066,0.0104,-0.0009,0.0062,0.0038,-1.44,0.54,0.00,0,4.154,-0.037,-0.041,0.034,0.009,-0.025,0.000,0.000,0.000,0.000,0.0090,-12,-8,0.00,0.00,0.00,0.0000,0.0000,0.0000
5299,-0.0055,0.0071,0.0099,-0.0048,0.0068,0.0010,-1.54,0.49,0.00,0,4.144,-0.022,-0.123,0.123,0.011,-0.024,0.000,0.000,0.000,0.000,0.0080,-3,-2,0.00,0.00,0.00,0.0000,0.0000,0.0000
5350,-0.0055,0.0077,0.0096,-0.0037,0.0076,-0.0001,-1.45,0.55,-0.00,0,4.154,0.077,-0.193,-0.379,0.010,-0.024,0.000,0.000,0.000,0.000,0.0080,-2,6,0.00,0.00,0.00,0.0000,0.0000,0.0000
5401,-0.0037,0.0081,0.0088,0.0053,0.0081,-0.0025,-1.44,0.55,-0.01,0,4.144,-0.084,-0.203,-0.381,0.010,-0.026,0.000,0.000,0.000,0.000,0.0090,0,3,0.00,0.00,0.00,0.0000,0.0000,0.0000
5452,-0.0046,0.0074,0.0094,0.0007,0.0034,0.0000,-1.38,0.57,-0.01,0,4.154,0.089,0.103,0.014,0.011,-0.028,0.000,0.000,0.000,0.000,0.0090,-2,-6,0.00,0.00,0.00,0.0000,0.0000,0.0000
5503,-0.0050,0.0072,0.0092,-0.0011,0.0007,0.0000,-1.38,0.49,-0.00,0,4.144,-0.136,-0.179,0.355,0.010,-0.024,0.000,0.000,0.000,0.000,0.0100,1,2,0.00,0.00,0.00,0.0000,0.0000,0.0000
5555,-0.0053,0.0083,0.0081,-0.0021,0.0060,-0.0040,-1.39,0.58,0.00,0,4.154,-0.114,-0.264,-0.058,0.010,-0.025,0.000,0.000,0.000,0.000,0.0100,1,-7,0.00,0.00,0.00,0.0000,0.0000,0.0000
5606,-0.0055,0.0074,0.0089,-0.0026,0.0003,0.0007,-1.35,0.50,-0.00,0,4.144,-0.363,0.100,-0.046,0.012,-0.025,0.000,0.000,0.000,0.000,0.0070,0,-2,0.00,0.00,0.00,0.0000,0.0000,0.0000
5657,-0.0051,0.0077,0.0091,0.0001,0.0010,0.0021,-1.37,0.53,0.00,0,4.154,-0.165,-0.144,-0.130,0.012,-0.025,0.000,0.000,0.000,0.000,0.0070,5,-9,0.00,0.00,0.00,0.0000,0.0000,0.0000
5708,-0.0057,0.0074,0.0082,-0.0030,-0.0005,-0.0017,-1.32,0.49,0.00,0,4.144,-0.054,0.142,-0.159,0.009,-0.027,0.000,0.000,0.000,0.000,0.0060,6,-8,0.00,0.00,0.00,0.0000,0.0000,0.0000
5759,-0.0055,0.0079,0.0096,-0.0020,0.0011,0.0053,-1.32,0.50,0.00,0,4.154,-0.201,-0.164,-0.185,0.010,-0.026,0.000,0.000,0.000,0.000,0.0060,-23,-3,0.00,0.00,0.00,0.0000,0.0000,0.0000
5810,-0.0057,0.0070,0.0082,-0.0039,-0.0038,-0.0020,-1.57,0.56,0.01,0,4.144,0.095,-0.001,-0.087,0.009,-0.025,0.000,0.000,0.000,0.000,0.0090,-8,4,0.00,0.00,0.00,0.0000,0.0000,0.0000
5861,-0.0057,0.0142,0.0075,-0.0030,0.0299,-0.0044,-1.67,0.62,0.00,0,4.154,0.014,0.014,0.199,0.009,-0.025,0.000,0.000,0.000,0.000,0.0090,8,-6,0.00,0.00,0.00,0.0000,0.0000,0.0000
5912,-0.0072,0.0159,0.0080,-0.0092,0.0314,-0.0005,-1.51,0.56,0.01,0,4.144,0.142,0.141,-0.019,0.010,-0.026,0.000,0.000,0.000,0.000,0.0100,2,3,0.00,0.00,0.00,0.0000,0.0000,0.0000
5963,0.0061,0.0157,0.0084,0.0574,0.0242,0.0013,-1.50,0.16,0.01,0,4.154,0.149,-0.000,-0.160,0.011,-0.025,0.000,0.000,0.000,0.000,0.0100,0,-1,0.00,0.00,0.00,0.0000,0.0000,0.0000
6014,0.0055,0.0157,0.0095,0.0433,0.0187,0.0068,-1.47,0.25,0.00,0,4.144,-0.155,-0.058,0.185,0.010,-0.025,0.000,0.000,0.000,0.000,0.0090,5,5,0.00,0.00,0.00,0.0000,0.0000,0.0000
6065,0.0094,0.0080,0.0115,0.0544,-0.0234,0.0147,-1.11,0.25,0.01,0,4.154,0.168,0.054,-0.356,0.010,-0.024,0.000,0.000,0.000,0.000,0.0090,-1,0,0.00,0.00,0.00,0.0000,0.0000,0.0000
6116,0.0092,0.0018,0.0111,0.0431,-0.0481,0.0106,-1.02,0.31,0.01,0,4.144,-0.223,-0.276,-0.093,0.009,-0.025,0.000,0.000,0.000,0.000,0.0100,1,3,0.00,0.00,0.00,0.0000,0.0000,0.0000
6167,0.0091,0.0022,0.0112,0.0335,-0.0375,0.0091,-1.10,0.42,0.01,0,4.154,-0.287,0.043,0.400,0.011,-0.029,0.000,0.000,0.000,0.000,0.0100,-8,4,0.00,0.00,0.00,0.0000,0.0000,0.0000
6218,0.0084,0.0095,0.0113,0.0239,0.0042,0.0079,-1.51,0.52,0.01,0,4.144,-0.035,-0.082,-0.086,0.010,-0.025,0.000,0.000,0.000,0.000,0.0090,2,-6,0.00,0.00,0.00,0.0000,0.0000,0.0000
6269,0.0062,0.0128,0.0109,0.0088,0.0188,0.0048,-1.52,0.54,0.01,0,4.154,-0.244,-0.303,0.108,0.013,-0.024,0.000,0.000,0.000,0.000,0.0090,20,-4,0.00,0.00,0.00,0.0000,0.0000,0.0000
6320,0.0070,0.0149,0.0102,0.0110,0.0265,0.0010,-1.41,0.54,0.01,0,4.144,0.065,0.027,0.303,0.011,-0.026,0.000,0.000,0.000,0.000,0.0100,0,9,0.00,0.00,0.00,0.0000,0.0000,0.0000
6372,0.0089,0.0108,0.0104,0.0186,0.0016,0.0020,-1.40,0.60,0.02,0,4.154,-0.072,-0.090,0.248,0.010,-0.025,0.000,0.000,0.000,0.000,0.0100,10,-5,0.00,0.00,0.00,0.0000,0.0000,0.0000
6424,0.0042,0.0180,0.0104,-0.0088,0.0360,0.0019,-1.56,0.67,0.02,0,4.144,-0.150,0.182,0.217,0.010,-0.023,0.000,0.000,0.000,0.000,0.0080,0,0,0.00,0.00,0.00,0.0000,0.0000,0.0000
6475,0.0046,0.0167,0.0094,-0.0054,0.0228,-0.0024,-1.54,0.68,0.02,0,4.149,-0.043,0.172,0.227,0.010,-0.025,0.000,0.000,0.000,0.000,0.0080,-4,0,0.00,0.00,0.00,0.0000,0.0000,0.0000
6526,0.0043,0.0183,0.0087,-0.0059,0.0261,-0.0048,-1.58,0.68,0.02,0,4.144,-0.064,-0.088,0.109,0.007,-0.027,0.000,0.000,0.000,0.000,0.0110,-1,1,0.00,0.00,0.00,0.0000,0.0000,0.0000
6577,0.0054,0.0171,0.0098,-0.0003,0.0140,0.0023,-1.44,0.63,0.02,0,4.154,-0.055,-0.080,0.016,0.010,-0.023,0.000,0.000,0.000,0.000,0.0090,-4,5,0.00,0.00,0.00,0.0000,0.0000,0.0000
6628,0.0052,0.0172,0.0096,-0.0013,0.0101,0.0020,-1.44,0.67,0.02,0,4.144,0.148,0.011,-0.077,0.010,-0.026,0.000,0.000,0.000,0.000,0.0090,-5,5,0.00,0.00,0.00,0.0000,0.0000,0.0000
6679,0.0052,0.0172,0.0094,-0.0011,0.0065,0.0013,-1.41,0.66,0.02,0,4.154,0.019,-0.036,-0.035,0.011,-0.026,0.000,0.000,0.000,0.000,0.0090,4,-4,0.00,0.00,0.00,0.0000,0.0000,0.0000
6731,0.0042,0.0176,0.0093,-0.0060,0.0055,0.0013,-1.32,0.61,0.02,0,4.144,-0.032,-0.093,-0.171,0.012,-0.027,0.000,0.000,0.000,0.000,0.0070,9,-2,0.00,0.00,0.00,0.0000,0.0000,0.0000
6782,0.0044,0.0190,0.0088,-0.0042,0.0121,-0.0009,-1.33,0.61,0.01,0,4.149,-0.158,0.121,0.191,0.012,-0.024,0.000,0.000,0.000,0.000,0.0070,-6,1,0.00,0.00,0.00,0.0000,0.0000,0.0000
6834,0.0040,0.0192,0.0079,-0.0055,0.0106,-0.0038,-1.46,0.65,0.02,0,4.144,-0.263,0.010,0.112,0.009,-0.026,0.000,0.000,0.000,0.000,0.0090,3,-3,0.00,0.00,0.00,0.0000,0.0000,0.0000
6885,0.0046,0.0192,0.0070,-0.0010,0.0082,-0.0061,-1.26,0.57,0.01,0,4.154,-0.063,0.074,-0.027,0.010,-0.026,0.000,0.000,0.000,0.000,0.0090,-1,-2,0.00,0.00,0.00,0.0000,0.0000,0.0000
6936,0.0038,0.0184,0.0078,-0.0059,0.0022,-0.0009,-1.35,0.61,0.02,0,4.144,-0.197,-0.002,0.176,0.012,-0.025,0.000,0.000,0.000,0.000,0.0130,2,-3,0.00,0.00,0.00,0.0000,0.0000,0.0000
6987,0.0046,0.0193,0.0089,-0.0014,0.0050,0.0049,-1.35,0.56,0.02,0,4.149,0.009,0.124,0.110,0.014,-0.023,0.000,0.000,0.000,0.000,0.0130,14,1,0.00,0.00,0.00,0.0000,0.0000,0.0000
7039,0.0041,0.0194,0.0112,-0.0026,0.0041,0.0141,-1.24,0.60,0.02,0,4.144,-0.075,-0.147,-0.037,0.011,-0.024,0.000,0.000,0.000,0.000,0.0070,-4,6,0.00,0.00,0.00,0.0000,0.0000,0.0000
7090,0.0042,0.0218,0.0093,-0.0014,0.0158,0.0026,-1.49,0.64,0.03,0,4.154,0.013,-0.077,-0.191,0.009,-0.027,0.000,0.000,0.000,0.000,0.0070,-10,12,0.00,0.00,0.00,0.0000,0.0000,0.0000
7141,0.0058,0.0226,0.0086,0.0085,0.0139,-0.0003,-1.52,0.60,0.02,0,4.144,-0.104,-0.100,0.065,0.011,-0.027,0.000,0.000,0.000,0.000,0.0090,20,-4,0.00,0.00,0.00,0.0000,0.0000,0.0000
7192,0.0026,0.0225,0.0090,-0.0086,0.0080,0.0021,-1.20,0.59,0.02,0,4.154,-0.208,-0.224,-0.036,0.012,-0.027,0.000,0.000,0.000,0.000,0.0090,-14,0,0.00,0.00,0.00,0.0000,0.0000,0.0000
7243,0.0025,0.0215,0.0092,-0.0071,0.0030,0.0029,-1.49,0.61,0.03,0,4.144,0.200,-0.139,0.192,0.010,-0.025,0.000,0.000,0.000,0.000,0.0100,2,2,0.00,0.00,0.00,0.0000,0.0000,0.0000
7294,-0.0013,0.0257,0.0092,-0.0246,0.0222,0.0035,-1.48,0.75,0.03,0,4.149,0.021,0.023,-0.270,0.009,-0.026,0.000,0.000,0.000,0.000,0.0100,-1,0,0.00,0.00,0.00,0.0000,0.0000,0.0000
7345,-0.0022,0.0254,0.0099,-0.0236,0.0145,0.0063,-1.44,0.70,0.03,0,4.144,-0.253,0.163,0.175,0.010,-0.027,0.000,0.000,0.000,0.000,0.0100,-7,0,0.00,0.00,0.00,0.0000,0.0000,0.0000
7396,-0.0022,0.0254,0.0103,-0.0189,0.0107,0.0075,-1.46,0.66,0.04,0,4.154,-0.188,-0.013,-0.035,0.011,-0.027,0.000,0.000,0.000,0.000,0.0070,-1,-2,0.00,0.00,0.00,0.0000,0.0000,0.0000
7447,-0.0026,0.0254,0.0091,-0.0165,0.0068,0.0008,-1.38,0.62,0.03,0,4.144,0.216,0.002,0.025,0.009,-0.026,0.000,0.000,0.000,0.000,0.0100,-8,3,0.00,0.00,0.00,0.0000,0.0000,0.0000
7498,-0.0019,0.0250,0.0092,-0.0087,0.0025,0.0018,-1.41,0.60,0.03,0,4.154,0.025,0.055,-0.421,0.010,-0.025,0.000,0.000,0.000,0.000,0.0100,7,0,0.00,0.00,0.00,0.0000,0.0000,0.0000
7549,-0.0027,0.0260,0.0097,-0.0112,0.0058,0.0040,-1.30,0.59,0.03,0,4.144,-0.088,-0.119,-0.138,0.012,-0.026,0.000,0.000,0.000,0.000,0.0070,1,-3,0.00,0.00,0.00,0.0000,0.0000,0.0000
7600,-0.0028,0.0263,0.0106,-0.0092,0.0052,0.0074,-1.36,0.54,0.02,0,4.149,-0.058,-0.096,-0.226,0.009,-0.026,0.000,0.000,0.000,0.000,0.0070,-5,-6,0.00,0.00,0.00,0.0000,0.0000,0.0000
7651,-0.0028,0.0259,0.0092,-0.0075,0.0014,0.0004,-1.39,0.49,0.02,0,4.144,0.125,-0.122,-0.492,0.010,-0.027,0.000,0.000,0.000,0.000,0.0090,-8,2,0.00,0.00,0.00,0.0000,0.0000,0.0000
7703,-0.0017,0.0250,0.0068,0.0005,-0.0044,-0.0102,-1.38,0.51,0.02,0,4.154,-0.156,0.229,0.139,0.010,-0.026,0.000,0.000,0.000,0.000,0.0090,-12,1,0.00,0.00,0.00,0.0000,0.0000,0.0000
7754,-0.0034,0.0276,0.0075,-0.0074,0.0072,-0.0045,-1.50,0.56,0.02,0,4.144,0.040,0.066,0.230,0.011,-0.023,0.000,0.000,0.000,0.000,0.0080,-3,2,0.00,0.00,0.00,0.0000,0.0000,0.0000
7805,0.0002,0.0251,0.0093,0.0126,-0.0080,0.0056,-1.30,0.42,0.02,0,4.154,-0.210,-0.072,0.031,0.010,-0.026,0.000,0.000,0.000,0.000,0.0080,-2,0,0.00,0.00,0.00,0.0000,0.0000,0.0000
7856,0.0012,0.0240,0.0089,0.0161,-0.0135,0.0035,-1.25,0.39,0.03,0,4.144,0.064,0.319,-0.264,0.010,-0.026,0.000,0.000,0.000,0.000,0.0070,2,-3,0.00,0.00,0.00,0.0000,0.0000,0.0000
7907,-0.0000,0.0259,0.0087,0.0076,-0.0023,0.0021,-1.23,0.47,0.02,0,4.149,-0.103,-0.049,-0.194,0.011,-0.029,0.000,0.000,0.000,0.000,0.0070,1,-1,0.00,0.00,0.00,0.0000,0.0000,0.0000
7959,0.0010,0.0242,0.0080,0.0118,-0.0104,-0.0008,-1.26,0.43,0.02,0,4.144,0.078,-0.225,-0.229,0.012,-0.023,0.000,0.000,0.000,0.000,0.0080,0,2,0.00,0.00,0.00,0.0000,0.0000,0.0000
8010,0.0010,0.0260,0.0076,0.0104,0.0002,-0.0022,-1.37,0.47,0.02,0,4.154,-0.206,0.109,0.276,0.010,-0.025,0.000,0.000,0.000,0.000,0.0080,10,-2,0.00,0.00,0.00,0.0000,0.0000,0.0000
8061,-0.0002,0.0260,0.0077,0.0028,0.0003,-0.0003,-1.27,0.50,0.03,0,4.144,-0.154,0.016,0.369,0.012,-0.025,0.000,0.000,0.000,0.000,0.0080,0,-1,0.00,0.00,0.00,0.0000,0.0000,0.0000
8112,0.0006,0.0242,0.0099,0.0073,-0.0090,0.0096,-1.29,0.49,0.03,0,4.149,0.078,-0.198,0.042,0.013,-0.025,0.000,0.000,0.000,0.000,0.0080,4,1,0.00,0.00,0.00,0.0000,0.0000,0.0000
8163,0.0002,0.0246,0.0094,0.0036,-0.0061,0.0061,-1.28,0.54,0.03,0,4.144,-0.090,0.198,0.168,0.010,-0.026,0.000,0.000,0.000,0.000,0.0100,-2,1,0.00,0.00,0.00,0.0000,0.0000,0.0000
8215,-0.0002,0.0252,0.0100,0.0012,-0.0022,0.0076,-1.36,0.55,0.03,0,4.149,0.145,-0.174,-0.152,0.012,-0.026,0.000,0.000,0.000,0.000,0.0100,4,-3,0.00,0.00,0.00,0.0000,0.0000,0.0000
8267,0.0006,0.0250,0.0104,0.0056,-0.0041,0.0075,-1.30,0.49,0.03,0,4.144,-0.076,0.151,-0.035,0.013,-0.025,0.000,0.000,0.000,0.000,0.0080,0,0,0.00,0.00,0.00,0.0000,0.0000,0.0000
8318,0.0014,0.0249,0.0090,0.0088,-0.0040,0.0001,-1.34,0.49,0.03,0,4.154,-0.162,-0.038,0.147,0.011,-0.025,0.000,0.000,0.000,0.000,0.0080,-2,0,0.00,0.00,0.00,0.0000,0.0000,0.0000
8369,0.0016,0.0242,0.0085,0.0091,-0.0074,-0.0017,-1.34,0.49,0.02,0,4.144,-0.008,0.005,-0.191,0.012,-0.028,0.000,0.000,0.000,0.000,0.0050,5,0,0.00,0.00,0.00,0.0000,0.0000,0.0000
8420,0.0015,0.0251,0.0082,0.0070,-0.0022,-0.0020,-1.31,0.51,0.02,0,4.154,-0.271,-0.162,-0.126,0.011,-0.027,0.000,0.000,0.000,0.000,0.0050,9,-5,0.00,0.00,0.00,0.0000,0.0000,0.0000
8471,-0.0009,0.0220,0.0066,-0.0057,-0.0164,-0.0077,-1.18,0.56,0.02,0,4.144,-0.402,0.171,0.139,0.009,-0.025,0.000,0.000,0.000,0.000,0.0070,2,0,0.00,0.00,0.00,0.0000,0.0000,0.0000
8522,-0.0006,0.0200,0.0070,-0.0038,-0.0217,-0.0038,-1.22,0.59,0.02,0,4.149,-0.070,-0.126,-0.117,0.011,-0.026,0.000,0.000,0.000,0.000,0.0070,1,-3,0.00,0.00,0.00,0.0000,0.0000,0.0000
8573,0.0006,0.0239,0.0071,0.0028,0.0007,-0.0017,-1.40,0.51,0.01,0,4.144,-0.325,-0.164,-0.108,0.010,-0.027,0.000,0.000,0.000,0.000,0.0090,4,3,0.00,0.00,0.00,0.0000,0.0000,0.0000
8624,0.0016,0.0253,0.0090,0.0075,0.0080,0.0079,-1.42,0.53,0.01,0,4.154,-0.215,0.048,0.218,0.011,-0.024,0.000,0.000,0.000,0.000,0.0090,-2,2,0.00,0.00,0.00,0.0000,0.0000,0.0000
8676,0.0012,0.0240,0.0094,0.0040,0.0001,0.0080,-1.42,0.55,0.01,0,4.144,0.216,0.061,0.039,0.012,-0.023,0.000,0.000,0.000,0.000,0.0100,2,3,0.00,0.00,0.00,0.0000,0.0000,0.0000
8727,0.0009,0.0227,0.0098,0.0031,-0.0075,0.0082,-1.31,0.57,0.01,0,4.149,0.036,0.068,-0.128,0.011,-0.024,0.000,0.000,0.000,0.000,0.0100,1,0,0.00,0.00,0.00,0.0000,0.0000,0.0000
8778,0.0009,0.0234,0.0103,0.0032,-0.0034,0.0088,-1.36,0.54,0.02,0,4.144,0.037,0.045,0.008,0.009,-0.023,0.000,0.000,0.000,0.000,0.0070,-19,1,0.00,0.00,0.00,0.0000,0.0000,0.0000
8830,-0.0012,0.0272,0.0116,-0.0077,0.0149,0.0129,-1.67,0.63,0.02,0,4.149,-0.093,0.126,-0.106,0.011,-0.027,0.000,0.000,0.000,0.000,0.0070,0,0,0.00,0.00,0.00,0.0000,0.0000,0.0000
8881,-0.0015,0.0332,0.0097,-0.0080,0.0398,0.0020,-1.69,0.62,0.02,0,4.138,-0.107,-0.137,-0.032,0.012,-0.024,0.000,0.000,0.000,0.000,0.0110,0,3,0.00,0.00,0.00,0.0000,0.0000,0.0000
8933,-0.0018,0.0343,0.0101,-0.0071,0.0374,0.0040,-1.63,0.64,0.02,0,4.149,0.051,-0.000,-0.261,0.010,-0.026,0.000,0.000,0.000,0.000,0.0110,4,0,0.00,0.00,0.00,0.0000,0.0000,0.0000
8984,-0.0020,0.0307,0.0111,-0.0065,0.0098,0.0084,-1.36,0.60,0.01,0,4.144,-0.225,-0.202,0.225,0.009,-0.025,0.000,0.000,0.000,0.000,0.0090,0,5,0.00,0.00,0.00,0.0000,0.0000,0.0000
9035,-0.0009,0.0297,0.0110,0.0003,0.0025,0.0063,-1.35,0.59,0.01,0,4.149,-0.026,-0.101,0.310,0.009,-0.022,0.000,0.000,0.000,0.000,0.0090,4,2,0.00,0.00,0.00,0.0000,0.0000,0.0000
9086,-0.0011,0.0303,0.0103,0.0004,0.0046,0.0024,-1.32,0.56,0.01,0,4.144,-0.116,-0.271,0.173,0.012,-0.026,0.000,0.000,0.000,0.000,0.0100,0,-3,0.00,0.00,0.00,0.0000,0.0000,0.0000
9137,-0.0017,0.0305,0.0108,-0.0024,0.0037,0.0048,-1.27,0.54,0.01,0,4.154,0.244,0.136,-0.171,0.014,-0.024,0.000,0.000,0.000,0.000,0.0100,-7,2,0.00,0.00,0.00,0.0000,0.0000,0.0000
9189,-0.0013,0.0296,0.0107,0.0006,-0.0019,0.0043,-1.38,0.56,0.01,0,4.144,0.346,0.036,-0.118,0.012,-0.026,0.000,0.000,0.000,0.000,0.0080,-3,4,0.00,0.00,0.00,0.0000,0.0000,0.0000
9240,-0.0011,0.0296,0.0086,0.0028,-0.0029,-0.0055,-1.34,0.56,0.01,0,4.154,0.068,0.127,-0.007,0.009,-0.027,0.000,0.000,0.000,0.000,0.0080,-5,0,0.00,0.00,0.00,0.0000,0.0000,0.0000
9291,-0.0019,0.0304,0.0081,-0.0011,0.0010,-0.0060,-1.39,0.56,0.00,0,4.144,0.260,-0.007,-0.366,0.009,-0.024,0.000,0.000,0.000,0.000,0.0090,0,1,0.00,0.00,0.00,0.0000,0.0000,0.0000
9342,-0.0013,0.0298,0.0088,0.0027,-0.0027,-0.0016,-1.31,0.54,0.00,0,4.154,-0.116,-0.182,0.094,0.009,-0.025,0.000,0.000,0.000,0.000,0.0090,-10,3,0.00,0.00,0.00,0.0000,0.0000,0.0000
9393,-0.0013,0.0293,0.0089,0.0026,-0.0055,-0.0004,-1.39,0.55,0.00,0,4.144,-0.403,-0.052,0.417,0.011,-0.026,0.000,0.000,0.000,0.000,0.0090,-1,4,0.00,0.00,0.00,0.0000,0.0000,0.0000
9445,-0.0011,0.0300,0.0095,0.0042,-0.0036,0.0027,-1.33,0.55,0.00,0,4.149,0.102,0.057,-0.032,0.012,-0.024,0.000,0.000,0.000,0.000,0.0090,-1,-2,0.00,0.00,0.00,0.0000,0.0000,0.0000
9496,-0.0019,0.0296,0.0094,0.0000,-0.0068,0.0021,-1.31,0.52,0.00,0,4.144,-0.212,-0.113,0.182,0.011,-0.025,0.000,0.000,0.000,0.000,0.0120,1,-3,0.00,0.00,0.00,0.0000,0.0000,0.0000
9548,-0.0017,0.0302,0.0093,0.0019,-0.0035,0.0021,-1.32,0.50,0.00,0,3.758,-0.204,1.339,-0.534,0.001,-0.035,0.000,0.000,0.000,0.000,0.0120,3,-4,0.00,0.00,0.00,0.0000,0.0000,0.0000
9599,-0.0027,0.0307,0.0109,-0.0060,0.0037,0.0095,-1.33,0.54,0.00,0,3.832,0.838,1.036,-0.490,0.008,-0.035,0.000,0.000,0.000,0.000,0.0120,-4,-3,0.00,0.00,0.00,0.0000,0.0000,0.0000
9650,-0.0019,0.0303,0.0099,-0.0049,0.0111,0.0034,-1.37,0.47,-0.02,0,3.880,-1.042,1.269,-6.148,0.014,-0.027,0.000,0.000,0.000,0.000,0.0120,-17,3,0.00,0.00,0.00,0.0000,0.0000,0.0000
9701,-0.0010,0.0313,0.0111,-0.0029,0.0233,0.0076,-1.52,0.47,-0.21,0,3.896,-1.881,-1.822,-12.236,0.005,-0.032,0.000,0.000,0.000,0.000,0.0090,-29,-23,0.00,0.00,0.00,0.0000,0.0000,0.0000
9752,-0.0011,0.0363,0.0099,-0.0063,0.0509,0.0022,-1.73,0.21,-0.64,0,3.901,-1.631,0.599,-6.123,0.022,-0.025,0.000,0.000,0.000,0.000,0.0090,-21,-14,0.00,0.00,0.00,0.0000,0.0000,0.0000
9804,0.0044,0.0463,0.0092,0.0175,0.0966,-0.0025,-1.90,0.08,-0.88,0,3.901,-0.450,3.839,-28.425,-0.001,-0.019,0.000,0.000,0.000,0.000,0.0080,-4,-5,0.00,0.00,0.00,0.0000,0.0000,0.0000
9856,0.0105,0.0611,0.0069,0.0412,0.1577,-0.0112,-2.02,-0.03,-1.86,0,3.906,-2.113,-3.205,0.624,-0.009,-0.047,0.000,0.000,0.000,0.000,0.0080,-27,-2,0.00,0.00,0.00,0.0000,0.0000,0.0000
9907,0.0117,0.0744,0.0061,0.0378,0.1987,-0.0116,-2.37,0.03,-2.31,0,3.901,3.134,2.524,14.108,-0.013,-0.042,0.000,0.000,0.000,0.000,0.0080,5,0,0.00,0.00,0.00,0.0000,0.0000,0.0000
9958,0.0136,0.0874,0.0072,0.0374,0.2268,-0.0005,-2.08,-0.04,-1.79,0,3.906,-1.503,-7.299,14.544,-0.006,-0.023,0.000,0.000,0.000,0.000,0.0080,21,-23,0.00,0.00,0.00,0.0000,0.0000,0.0000
