time_ms,pos_x,pos_y,pos_z,vel_x,vel_y,vel_z,roll,pitch,yaw,thrust,vbat,gyro_x,gyro_y,gyro_z,acc_x,acc_y,acc_z,rate_roll,rate_pitch,rate_yaw,range_z,flow_dx,flow_dy,mekf_roll,mekf_pitch,mekf_yaw,mekf_x,mekf_y,mekf_z,our_ref_x,our_ref_y,our_ref_z,our_thrust,our_roll_cmd,our_pitch_cmd,our_yaw_rate_cmd,multi_front,multi_back,multi_left,multi_right,multi_up,ai_feat_count,vo_x,vo_y,vo_sigma,pg_x,pg_y,lc_count
0,-0.1199,0.1914,0.0084,-0.0010,-0.0121,0.0003,-0.01,-0.18,-9.46,0,3.874,-0.104,-0.042,-0.018,-0.005,-0.003,1.000,0.000,0.000,0.000,0.0090,-1,-5,0.00,0.00,0.00,0.0000,0.0000,0.0000,0.0000,0.0000,0.0000,0.0000,0.00,0.00,0.00,0.7770,0.1390,1.1320,1.2580,2.7120,0,0.0000,0.0000,0.0000,0.0000,0.0000,0
101,-0.1212,0.1922,0.0087,-0.0080,-0.0064,0.0013,-0.01,-0.20,-9.42,0,3.874,-0.233,0.183,0.106,-0.005,-0.003,1.002,0.000,0.000,0.000,0.0080,0,3,0.00,0.00,0.00,0.0000,0.0000,0.0000,0.0000,0.0000,0.0000,0.0000,0.00,0.00,0.00,0.7790,0.1360,1.1290,1.2580,2.7030,0,0.0000,0.0000,0.0000,0.0000,0.0000,0
202,-0.1198,0.1922,0.0085,0.0001,-0.0055,-0.0006,-0.02,-0.21,-9.37,0,3.874,-0.069,-0.043,0.163,-0.004,-0.003,1.001,0.000,0.000,0.000,0.0100,0,2,0.00,0.00,0.00,0.0000,0.0000,0.0000,0.0000,0.0000,0.0000,0.0000,0.00,0.00,0.00,0.7790,0.1360,1.1290,1.2560,2.7030,0,0.0000,0.0000,0.0000,0.0000,0.0000,0
302,-0.1198,0.1922,0.0091,0.0001,-0.0052,0.0030,-0.04,-0.18,-9.32,0,3.880,-0.209,-0.064,0.052,-0.006,-0.002,0.998,0.000,0.000,0.000,0.0090,12,-5,0.00,0.00,0.00,0.0000,0.0000,0.0000,0.0000,0.0000,0.0000,0.0000,0.00,0.00,0.00,0.7690,0.1350,1.1300,1.2560,2.6980,0,0.0000,0.0000,0.0000,0.0000,0.0000,0
404,-0.1196,0.1961,0.0092,0.0017,0.0178,0.0024,-0.11,-0.20,-9.27,0,3.874,-0.014,-0.335,0.197,-0.003,-0.004,1.000,0.000,0.000,0.000,0.0100,26,2,0.00,0.00,0.00,0.0000,0.0000,0.0000,0.0000,0.0000,0.0000,0.0000,0.00,0.00,0.00,0.7690,0.1350,1.1300,1.2580,2.6980,0,0.0000,0.0000,0.0000,0.0000,0.0000,0
505,-0.1184,0.1979,0.0097,0.0075,0.0263,0.0038,-0.05,-0.23,-9.22,0,3.880,-0.029,-0.189,-0.018,-0.003,-0.002,0.998,0.000,0.000,0.000,0.0100,-4,1,0.00,0.00,0.00,0.0000,0.0000,0.0000,0.0000,0.0000,0.0000,0.0000,0.00,0.00,0.00,0.7640,0.1360,1.1280,1.2580,2.7030,0,0.0000,0.0000,0.0000,0.0000,0.0000,0
606,-0.1197,0.1928,0.0101,-0.0002,-0.0037,0.0048,-0.06,-0.22,-9.18,0,3.869,0.175,-0.102,-0.253,-0.004,-0.003,0.997,0.000,0.000,0.000,0.0080,4,0,0.00,0.00,0.00,0.0000,0.0000,0.0000,0.0000,0.0000,0.0000,0.0000,0.00,0.00,0.00,0.7640,0.1360,1.1280,1.2530,2.7030,0,0.0000,0.0000,0.0000,0.0000,0.0000,0
707,-0.1190,0.1945,0.0094,0.0026,0.0061,-0.0010,-0.07,-0.20,-9.13,0,3.874,-0.107,-0.236,-0.162,-0.004,-0.002,1.000,0.000,0.000,0.000,0.0070,0,-2,0.00,0.00,0.00,0.0000,0.0000,0.0000,0.0000,0.0000,0.0000,0.0000,0.00,0.00,0.00,0.7640,0.1380,1.1300,1.2530,2.6980,0,0.0000,0.0000,0.0000,0.0000,0.0000,0
808,-0.1196,0.1934,0.0083,-0.0006,0.0000,-0.0060,-0.05,-0.17,-9.09,0,3.874,-0.085,-0.055,-0.004,-0.005,-0.003,1.001,0.000,0.000,0.000,0.0080,1,0,0.00,0.00,0.00,0.0000,0.0000,0.0000,0.0000,0.0000,0.0000,0.0000,0.00,0.00,0.00,0.7640,0.1380,1.1300,1.2580,2.6980,0,0.0000,0.0000,0.0000,0.0000,0.0000,0
909,-0.1196,0.1934,0.0080,-0.0004,0.0007,-0.0057,-0.08,-0.20,-9.04,0,3.880,0.148,0.294,0.090,-0.006,-0.000,0.999,0.000,0.000,0.000,0.0060,-1,-1,0.00,0.00,0.00,0.0000,0.0000,0.0000,0.0000,0.0000,0.0000,0.0000,0.00,0.00,0.00,0.7620,0.1370,1.1270,1.2580,2.6970,0,0.0000,0.0000,0.0000,0.0000,0.0000,0
1011,-0.1199,0.1928,0.0070,-0.0028,-0.0021,-0.0090,-0.07,-0.21,-9.00,0,3.869,-0.236,-0.028,0.118,-0.004,-0.003,1.000,0.000,0.000,0.000,0.0080,-9,1,0.00,0.00,0.00,0.0000,0.0000,0.0000,0.0000,0.0000,0.0000,0.0000,0.00,0.00,0.00,0.7620,0.1370,1.1270,1.2550,2.6970,0,0.0000,0.0000,0.0000,0.0000,0.0000,0
1112,-0.1194,0.1916,0.0071,-0.0001,-0.0082,-0.0060,-0.10,-0.22,-8.95,0,3.874,-0.347,-0.069,0.392,-0.005,-0.002,1.001,0.000,0.000,0.000,0.0090,0,0,0.00,0.00,0.00,0.0000,0.0000,0.0000,0.0000,0.0000,0.0000,0.0000,0.00,0.00,0.00,0.7610,0.1330,1.1280,1.2550,2.7060,0,0.0000,0.0000,0.0000,0.0000,0.0000,0
1214,-0.1196,0.1936,0.0078,-0.0005,0.0026,-0.0016,-0.12,-0.22,-8.91,0,3.874,-0.116,0.075,0.274,-0.002,-0.001,1.000,0.000,0.000,0.000,0.0050,3,5,0.00,0.00,0.00,0.0000,0.0000,0.0000,0.0000,0.0000,0.0000,0.0000,0.00,0.00,0.00,0.7610,0.1330,1.1280,1.2520,2.7060,0,0.0000,0.0000,0.0000,0.0000,0.0000,0
1315,-0.1182,0.1937,0.0066,0.0072,0.0030,-0.0074,-0.11,-0.24,-8.85,0,3.874,-0.055,0.306,0.197,-0.005,-0.001,0.998,0.000,0.000,0.000,0.0070,-2,1,0.00,0.00,0.00,0.0000,0.0000,0.0000,0.0000,0.0000,0.0000,0.0000,0.00,0.00,0.00,0.0000,0.1360,1.1270,1.2520,2.7010,0,0.0000,0.0000,0.0000,0.0000,0.0000,0
1416,-0.1190,0.1929,0.0066,0.0029,-0.0014,-0.0058,-0.12,-0.25,-8.82,0,3.874,-0.061,0.099,-0.109,-0.002,-0.003,1.000,0.000,0.000,0.000,0.0070,-39,0,0.00,0.00,0.00,0.0000,0.0000,0.0000,0.0000,0.0000,0.0000,0.0000,0.00,0.00,0.00,0.0000,0.1360,1.1270,1.2560,2.7010,0,0.0000,0.0000,0.0000,0.0000,0.0000,0
1518,-0.1182,0.1996,0.0065,0.0071,0.0344,-0.0056,-0.74,-0.24,-8.78,0,3.880,-0.251,0.176,-0.040,-0.004,-0.003,0.999,0.000,0.000,0.000,0.0080,-21,0,0.00,0.00,0.00,0.0000,0.0000,0.0000,0.0000,0.0000,0.0000,0.0000,0.00,0.00,0.00,0.7100,0.1370,1.1280,1.2560,2.6990,0,0.0000,0.0000,0.0000,0.0000,0.0000,0
1570,-0.1176,0.2105,0.0067,0.0086,0.0792,-0.0039,-0.87,-0.21,-8.72,0,3.874,-0.070,0.002,0.241,-0.004,-0.002,0.999,0.000,0.000,0.000,0.0090,-1,5,0.00,0.00,0.00,0.0000,0.0000,0.0000,0.0000,0.0000,0.0000,0.0000,0.00,0.00,0.00,0.7100,0.1370,1.1280,1.2570,2.6990,0,0.0000,0.0000,0.0000,0.0000,0.0000,0
1621,-0.1184,0.2069,0.0087,0.0017,0.0399,0.0083,-0.14,-0.17,-8.68,0,3.880,0.237,0.337,-0.039,-0.002,-0.003,0.998,0.000,0.000,0.000,0.0090,-2,2,0.00,0.00,0.00,0.0000,0.0000,0.0000,0.0000,0.0000,0.0000,0.0000,0.00,0.00,0.00,0.7180,0.1360,1.1280,1.2570,2.7030,0,0.0000,0.0000,0.0000,0.0000,0.0000,0
1672,-0.1193,0.2025,0.0092,-0.0016,0.0109,0.0083,-0.13,-0.19,-8.63,0,3.874,-0.157,-0.062,-0.056,-0.002,-0.000,1.000,0.000,0.000,0.000,0.0080,-14,4,0.00,0.00,0.00,0.0000,0.0000,0.0000,0.0000,0.0000,0.0000,0.0000,0.00,0.00,0.00,0.7180,0.1360,1.1280,1.2570,2.7030,0,0.0000,0.0000,0.0000,0.0000,0.0000,0
1723,-0.1170,0.2008,0.0089,0.0111,-0.0006,0.0051,-0.25,-0.30,-8.59,0,3.874,0.104,-0.039,0.254,-0.005,-0.001,1.000,0.000,0.000,0.000,0.0120,-5,1,0.00,0.00,0.00,0.0000,0.0000,0.0000,0.0000,0.0000,0.0000,0.0000,0.00,0.00,0.00,0.7280,0.1360,1.1290,1.2570,2.6980,0,0.0000,0.0000,0.0000,0.0000,0.0000,0
1775,-0.1164,0.2061,0.0105,0.0115,0.0228,0.0112,-0.23,-0.26,-8.55,0,3.874,-0.139,0.087,-0.116,-0.004,0.000,1.002,0.000,0.000,0.000,0.0100,-13,1,0.00,0.00,0.00,0.0000,0.0000,0.0000,0.0000,0.0000,0.0000,0.0000,0.00,0.00,0.00,0.7280,0.1360,1.1290,1.2580,2.6980,0,0.0000,0.0000,0.0000,0.0000,0.0000,0
1827,-0.1165,0.2049,0.0108,0.0077,0.0102,0.0097,-0.16,-0.29,-8.50,0,3.880,0.022,0.016,0.162,-0.004,-0.001,0.998,0.000,0.000,0.000,0.0070,21,-4,0.00,0.00,0.00,0.0000,0.0000,0.0000,0.0000,0.0000,0.0000,0.0000,0.00,0.00,0.00,0.7520,0.1390,1.1300,1.2580,2.7050,0,0.0000,0.0000,0.0000,0.0000,0.0000,0
1878,-0.1144,0.2066,0.0094,0.0174,0.0156,-0.0003,0.03,-0.36,-8.46,0,3.874,-0.199,0.183,-0.033,-0.003,-0.002,1.002,0.000,0.000,0.000,0.0090,-3,3,0.00,0.00,0.00,0.0000,0.0000,0.0000,0.0000,0.0000,0.0000,0.0000,0.00,0.00,0.00,0.7520,0.1390,1.1300,1.2550,2.7050,0,0.0000,0.0000,0.0000,0.0000,0.0000,0
1929,-0.1144,0.2013,0.0093,0.0136,-0.0143,-0.0010,0.06,-0.34,-8.43,0,3.874,-0.044,0.023,-0.278,-0.003,0.002,1.001,0.000,0.000,0.000,0.0070,-1,0,0.00,0.00,0.00,0.0000,0.0000,0.0000,0.0000,0.0000,0.0000,0.0000,0.00,0.00,0.00,0.7550,0.1330,1.1290,1.2550,2.7030,0,0.0000,0.0000,0.0000,0.0000,0.0000,0
1980,-0.1139,0.2018,0.0083,0.0137,-0.0092,-0.0056,0.02,-0.31,-8.38,0,3.874,0.001,-0.018,0.071,-0.005,-0.003,1.000,0.000,0.000,0.000,0.0080,0,3,0.00,0.00,0.00,0.0000,0.0000,0.0000,0.0000,0.0000,0.0000,0.0000,0.00,0.00,0.00,0.7550,0.1330,1.1290,1.2520,2.7030,0,0.0000,0.0000,0.0000,0.0000,0.0000,0
2031,-0.1134,0.2023,0.0080,0.0134,-0.0055,-0.0064,0.00,-0.29,-8.34,0,3.874,0.081,-0.017,-0.301,-0.005,0.001,0.998,0.000,0.000,0.000,0.0110,-4,2,0.00,0.00,0.00,0.0000,0.0000,0.0000,0.0000,0.0000,0.0000,0.0000,0.00,0.00,0.00,0.7520,0.1380,1.1270,1.2520,2.7020,0,0.0000,0.0000,0.0000,0.0000,0.0000,0
2082,-0.1134,0.2008,0.0091,0.0104,-0.0126,0.0005,0.00,-0.25,-8.29,0,3.874,0.044,0.065,0.171,-0.005,-0.004,1.002,0.000,0.000,0.000,0.0080,-9,6,0.00,0.00,0.00,0.0000,0.0000,0.0000,0.0000,0.0000,0.0000,0.0000,0.00,0.00,0.00,0.7520,0.1380,1.1270,1.2570,2.7020,0,0.0000,0.0000,0.0000,0.0000,0.0000,0
2133,-0.1149,0.1992,0.0086,0.0003,-0.0208,-0.0015,0.21,-0.17,-8.25,0,3.880,-0.116,-0.257,0.242,-0.006,-0.003,1.000,0.000,0.000,0.000,0.0090,-1,6,0.00,0.00,0.00,0.0000,0.0000,0.0000,0.0000,0.0000,0.0000,0.0000,0.00,0.00,0.00,0.7560,0.1380,1.1290,1.2570,2.7070,0,0.0000,0.0000,0.0000,0.0000,0.0000,0
2184,-0.1152,0.1956,0.0088,-0.0008,-0.0355,-0.0007,0.15,-0.18,-8.20,0,3.874,0.041,-0.128,0.046,-0.004,-0.001,0.998,0.000,0.000,0.000,0.0060,48,-10,0.00,0.00,0.00,0.0000,0.0000,0.0000,0.0000,0.0000,0.0000,0.0000,0.00,0.00,0.00,0.7560,0.1380,1.1290,1.2540,2.7070,0,0.0000,0.0000,0.0000,0.0000,0.0000,0
2235,-0.1167,0.1956,0.0076,-0.0083,-0.0289,-0.0074,0.55,-0.28,-8.16,0,3.880,-0.306,-0.033,-0.042,-0.004,-0.002,0.998,0.000,0.000,0.000,0.0060,0,-1,0.00,0.00,0.00,0.0000,0.0000,0.0000,0.0000,0.0000,0.0000,0.0000,0.00,0.00,0.00,0.7490,0.1390,1.1280,1.2540,2.7040,0,0.0000,0.0000,0.0000,0.0000,0.0000,0
2286,-0.1159,0.1854,0.0067,-0.0032,-0.0708,-0.0107,0.42,-0.26,-8.12,0,3.874,-0.226,-0.119,0.083,-0.004,-0.003,1.000,0.000,0.000,0.000,0.0100,0,-1,0.00,0.00,0.00,0.0000,0.0000,0.0000,0.0000,0.0000,0.0000,0.0000,0.00,0.00,0.00,0.7490,0.1390,1.1280,1.2560,2.7040,0,0.0000,0.0000,0.0000,0.0000,0.0000,0
2337,-0.1161,0.1853,0.0080,-0.0038,-0.0569,-0.0008,0.26,-0.24,-8.08,0,3.874,0.086,-0.011,0.041,-0.006,-0.001,1.000,0.000,0.000,0.000,0.0090,0,-3,0.00,0.00,0.00,0.0000,0.0000,0.0000,0.0000,0.0000,0.0000,0.0000,0.00,0.00,0.00,0.0000,0.1410,1.1290,1.2560,2.7050,0,0.0000,0.0000,0.0000,0.0000,0.0000,0
2389,-0.1157,0.1847,0.0085,-0.0016,-0.0473,0.0019,0.16,-0.27,-8.04,0,3.874,-0.212,-0.158,-0.080,-0.004,0.000,0.999,0.000,0.000,0.000,0.0090,-20,-2,0.00,0.00,0.00,0.0000,0.0000,0.0000,0.0000,0.0000,0.0000,0.0000,0.00,0.00,0.00,0.0000,0.1410,1.1290,1.2570,2.7050,0,0.0000,0.0000,0.0000,0.0000,0.0000,0
2441,-0.1165,0.1808,0.0088,-0.0059,-0.0583,0.0022,0.03,-0.23,-8.00,0,3.880,-0.189,0.123,0.130,-0.006,-0.001,0.999,0.000,0.000,0.000,0.0080,-5,-4,0.00,0.00,0.00,0.0000,0.0000,0.0000,0.0000,0.0000,0.0000,0.0000,0.00,0.00,0.00,0.7490,0.1430,1.1260,1.2570,2.7030,0,0.0000,0.0000,0.0000,0.0000,0.0000,0
2492,-0.1143,0.1888,0.0088,0.0067,-0.0048,0.0021,-0.44,-0.23,-7.95,0,3.874,-0.323,-0.310,0.137,-0.005,-0.001,0.999,0.000,0.000,0.000,0.0070,4,0,0.00,0.00,0.00,0.0000,0.0000,0.0000,0.0000,0.0000,0.0000,0.0000,0.00,0.00,0.00,0.7490,0.1430,1.1260,1.2590,2.7030,0,0.0000,0.0000,0.0000,0.0000,0.0000,0
2543,-0.1143,0.1951,0.0080,0.0052,0.0279,-0.0024,-0.39,-0.20,-7.91,0,3.880,-0.015,-0.080,-0.224,-0.005,0.000,1.001,0.000,0.000,0.000,0.0120,-14,5,0.00,0.00,0.00,0.0000,0.0000,0.0000,0.0000,0.0000,0.0000,0.0000,0.00,0.00,0.00,0.7390,0.1390,1.1290,1.2590,2.7030,0,0.0000,0.0000,0.0000,0.0000,0.0000,0
2595,-0.1139,0.1912,0.0098,0.0058,0.0036,0.0066,-0.34,-0.20,-7.88,0,3.874,-0.391,-0.157,0.255,-0.003,-0.003,1.001,0.000,0.000,0.000,0.0080,-2,1,0.00,0.00,0.00,0.0000,0.0000,0.0000,0.0000,0.0000,0.0000,0.0000,0.00,0.00,0.00,0.7390,0.1390,1.1290,1.2540,2.7030,0,0.0000,0.0000,0.0000,0.0000,0.0000,0
2647,-0.1144,0.1938,0.0093,0.0025,0.0154,0.0024,-0.31,-0.19,-7.84,0,3.874,0.002,0.068,-0.033,-0.003,-0.001,0.999,0.000,0.000,0.000,0.0090,3,2,0.00,0.00,0.00,0.0000,0.0000,0.0000,0.0000,0.0000,0.0000,0.0000,0.00,0.00,0.00,0.7470,0.1400,1.1240,1.2540,2.7050,0,0.0000,0.0000,0.0000,0.0000,0.0000,0
2698,-0.1135,0.2023,0.0091,0.0078,0.0595,0.0000,-0.59,-0.19,-7.79,0,3.869,0.106,-0.268,-0.310,-0.002,-0.002,1.000,0.000,0.000,0.000,0.0110,10,1,0.00,0.00,0.00,0.0000,0.0000,0.0000,0.0000,0.0000,0.0000,0.0000,0.00,0.00,0.00,0.7470,0.1400,1.1240,1.2560,2.7050,0,0.0000,0.0000,0.0000,0.0000,0.0000,0
2749,-0.1139,0.2054,0.0099,0.0044,0.0649,0.0039,-0.52,-0.17,-7.76,0,3.880,-0.092,0.026,-0.208,-0.005,0.000,0.999,0.000,0.000,0.000,0.0060,-1,0,0.00,0.00,0.00,0.0000,0.0000,0.0000,0.0000,0.0000,0.0000,0.0000,0.00,0.00,0.00,0.7420,0.1380,1.1300,1.2560,2.7030,0,0.0000,0.0000,0.0000,0.0000,0.0000,0
2800,-0.1144,0.2018,0.0086,0.0003,0.0348,-0.0038,-0.37,-0.18,-7.72,0,3.874,-0.137,0.257,0.006,-0.004,-0.001,0.997,0.000,0.000,0.000,0.0070,11,4,0.00,0.00,0.00,0.0000,0.0000,0.0000,0.0000,0.0000,0.0000,0.0000,0.00,0.00,0.00,0.7420,0.1380,1.1300,1.2550,2.7030,0,0.0000,0.0000,0.0000,0.0000,0.0000,0
2851,-0.1139,0.2042,0.0078,0.0029,0.0412,-0.0077,-0.28,-0.17,-7.69,0,3.874,-0.201,-0.066,-0.062,-0.006,-0.002,0.998,0.000,0.000,0.000,0.0090,-7,3,0.00,0.00,0.00,0.0000,0.0000,0.0000,0.0000,0.0000,0.0000,0.0000,0.00,0.00,0.00,0.7450,0.1360,1.1280,1.2550,2.7060,3,0.0000,0.0000,0.0000,0.0000,0.0000,0
2903,-0.1154,0.2006,0.0082,-0.0046,0.0163,-0.0044,-0.24,-0.17,-7.65,0,3.874,0.041,-0.156,-0.052,-0.004,-0.003,1.000,0.000,0.000,0.000,0.0110,12,1,0.00,0.00,0.00,0.0000,0.0000,0.0000,0.0000,0.0000,0.0000,0.0000,0.00,0.00,0.00,0.7450,0.1360,1.1280,1.2580,2.7060,3,0.0000,0.0000,0.0000,0.0000,0.0000,0
2955,-0.1141,0.2054,0.0092,0.0031,0.0368,0.0011,-0.21,-0.26,-7.60,0,3.874,-0.061,-0.166,0.127,-0.006,0.001,0.998,0.000,0.000,0.000,0.0070,-6,0,0.00,0.00,0.00,0.0000,0.0000,0.0000,0.0000,0.0000,0.0000,0.0000,0.00,0.00,0.00,0.7480,0.1350,1.1280,1.2580,2.7040,3,0.0000,0.0000,0.0000,0.0000,0.0000,0
3006,-0.1137,0.2009,0.0084,0.0046,0.0079,-0.0032,-0.15,-0.24,-7.57,0,3.874,-0.052,-0.068,0.235,-0.006,-0.002,1.000,0.000,0.000,0.000,0.0070,-5,-3,0.00,0.00,0.00,0.0000,0.0000,0.0000,0.0000,0.0000,0.0000,0.0000,0.00,0.00,0.00,0.7480,0.1350,1.1280,1.2600,2.7040,8,0.0000,0.0000,0.0000,0.0000,0.0000,0
3057,-0.1119,0.2161,0.0073,0.0132,0.0864,-0.0096,-0.73,-0.27,-7.52,0,3.874,-0.327,-0.060,0.115,-0.004,0.001,1.000,0.000,0.000,0.000,0.0110,-12,-2,0.00,0.00,0.00,0.0000,0.0000,0.0000,0.0000,0.0000,0.0000,0.0000,0.00,0.00,0.00,0.7420,0.1380,1.1290,1.2600,2.6980,8,0.0000,0.0000,0.0000,0.0000,0.0000,0
3108,-0.1090,0.2216,0.0086,0.0252,0.0971,-0.0008,-0.87,-0.35,-7.48,0,3.869,-0.115,0.198,0.282,-0.004,-0.003,0.998,0.000,0.000,0.000,0.0080,-15,-5,0.00,0.00,0.00,0.0000,0.0000,0.0000,0.0000,0.0000,0.0000,0.0000,0.00,0.00,0.00,0.7420,0.1380,1.1290,1.2550,2.6980,3,0.0000,0.0000,0.0000,0.0000,0.0000,0
3159,-0.1097,0.2309,0.0083,0.0160,0.1200,-0.0023,-0.76,-0.28,-7.44,0,3.874,-0.213,-0.197,-0.006,-0.004,-0.001,1.000,0.000,0.000,0.000,0.0070,0,1,0.00,0.00,0.00,0.0000,0.0000,0.0000,0.0000,0.0000,0.0000,0.0000,0.00,0.00,0.00,0.7450,0.1400,1.1260,1.2550,2.7060,3,0.0000,0.0000,0.0000,0.0000,0.0000,0
3210,-0.1071,0.2382,0.0076,0.0258,0.1358,-0.0056,-0.95,-0.28,-7.40,0,3.869,-0.158,-0.001,-0.076,-0.005,-0.001,0.998,0.000,0.000,0.000,0.0070,5,5,0.00,0.00,0.00,0.0000,0.0000,0.0000,0.0000,0.0000,0.0000,0.0000,0.00,0.00,0.00,0.7450,0.1400,1.1260,1.2580,2.7060,3,0.0000,0.0000,0.0000,0.0000,0.0000,0
3261,-0.1067,0.2327,0.0084,0.0226,0.0803,0.0010,-0.17,-0.29,-7.36,0,3.874,-0.092,-0.176,0.169,-0.004,-0.000,0.997,0.000,0.000,0.000,0.0090,0,0,0.00,0.00,0.00,0.0000,0.0000,0.0000,0.0000,0.0000,0.0000,0.0000,0.00,0.00,0.00,0.7380,0.1360,1.1260,1.2580,2.7050,3,0.0000,0.0000,0.0000,0.0000,0.0000,0
3312,-0.1067,0.2356,0.0091,0.0187,0.0833,0.0033,-0.50,-0.28,-7.32,0,3.874,-0.068,0.033,-0.235,-0.004,-0.002,0.998,0.000,0.000,0.000,0.0090,5,2,0.00,0.00,0.00,0.0000,0.0000,0.0000,0.0000,0.0000,0.0000,0.0000,0.00,0.00,0.00,0.7380,0.1360,1.1260,1.2590,2.7050,10,0.0000,0.0000,0.0000,0.0000,0.0000,0
3364,-0.1149,0.2407,0.0092,-0.0274,0.0913,0.0025,-0.50,-0.01,-7.31,0,3.874,-0.283,-0.100,0.042,-0.006,-0.001,0.998,0.000,0.000,0.000,0.0090,26,0,0.00,0.00,0.00,0.0000,0.0000,0.0000,0.0000,0.0000,0.0000,0.0000,0.00,0.00,0.00,0.7400,0.1360,1.1300,1.2590,2.6990,0,0.0000,0.0000,0.0000,0.0000,0.0000,0
3415,-0.1147,0.2427,0.0095,-0.0221,0.0851,0.0026,-0.16,-0.03,-7.28,0,3.874,0.169,0.253,-0.077,-0.004,-0.004,1.000,0.000,0.000,0.000,0.0130,0,7,0.00,0.00,0.00,0.0000,0.0000,0.0000,0.0000,0.0000,0.0000,0.0000,0.00,0.00,0.00,0.7400,0.1360,1.1300,1.2550,2.6990,0,0.0000,0.0000,0.0000,0.0000,0.0000,0
3466,-0.1141,0.2355,0.0118,-0.0152,0.0344,0.0131,-0.03,-0.07,-7.25,0,3.874,-0.213,-0.176,0.115,-0.003,-0.005,1.002,0.000,0.000,0.000,0.0110,-4,0,0.00,0.00,0.00,0.0000,0.0000,0.0000,0.0000,0.0000,0.0000,0.0000,0.00,0.00,0.00,0.7440,0.1400,1.1290,1.2550,2.6940,0,0.0000,0.0000,0.0000,0.0000,0.0000,0
3518,-0.1158,0.2355,0.0120,-0.0204,0.0255,0.0107,-0.02,-0.15,-7.21,0,3.874,-0.015,-0.070,-0.344,-0.001,-0.004,1.000,0.000,0.000,0.000,0.0060,64,-7,0.00,0.00,0.00,0.0000,0.0000,0.0000,0.0000,0.0000,0.0000,0.0000,0.00,0.00,0.00,0.7440,0.1400,1.1290,1.2580,2.6940,0,0.0000,0.0000,0.0000,0.0000,0.0000,0
3569,-0.1140,0.2277,0.0096,-0.0073,-0.0217,-0.0033,0.92,-0.30,-7.20,0,3.874,0.064,-0.040,-0.195,-0.004,-0.000,0.999,0.000,0.000,0.000,0.0070,21,2,0.00,0.00,0.00,0.0000,0.0000,0.0000,0.0000,0.0000,0.0000,0.0000,0.00,0.00,0.00,0.7380,0.1380,1.1270,1.2580,2.7030,0,0.0000,0.0000,0.0000,0.0000,0.0000,0
3621,-0.1148,0.2095,0.0077,-0.0099,-0.1032,-0.0116,1.08,-0.26,-7.17,0,3.869,-0.105,-0.041,0.250,-0.004,-0.004,1.001,0.000,0.000,0.000,0.0090,36,-6,0.00,0.00,0.00,0.0000,0.0000,0.0000,0.0000,0.0000,0.0000,0.0000,0.00,0.00,0.00,0.7380,0.1380,1.1270,1.2600,2.7030,0,0.0000,0.0000,0.0000,0.0000,0.0000,0
3673,-0.1172,0.1966,0.0071,-0.0195,-0.1489,-0.0118,1.36,-0.30,-7.14,0,3.874,-0.003,-0.071,-0.090,-0.003,-0.001,1.000,0.000,0.000,0.000,0.0100,-5,0,0.00,0.00,0.00,0.0000,0.0000,0.0000,0.0000,0.0000,0.0000,0.0000,0.00,0.00,0.00,0.7470,0.1360,1.1260,1.2600,2.7060,0,0.0000,0.0000,0.0000,0.0000,0.0000,0
3725,-0.1169,0.1885,0.0084,-0.0148,-0.1584,-0.0016,1.02,-0.29,-7.10,0,3.874,-0.159,0.001,0.094,0.001,-0.004,0.999,0.000,0.000,0.000,0.0090,-23,-5,0.00,0.00,0.00,0.0000,0.0000,0.0000,0.0000,0.0000,0.0000,0.0000,0.00,0.00,0.00,0.7470,0.1360,1.1260,1.2590,2.7060,0,0.0000,0.0000,0.0000,0.0000,0.0000,0
3776,-0.1163,0.1974,0.0103,-0.0088,-0.0867,0.0095,0.26,-0.28,-7.06,0,3.880,-0.116,0.035,0.161,-0.003,-0.001,1.000,0.000,0.000,0.000,0.0060,0,3,0.00,0.00,0.00,0.0000,0.0000,0.0000,0.0000,0.0000,0.0000,0.0000,0.00,0.00,0.00,0.0000,0.1330,1.1300,1.2590,2.7060,0,0.0000,0.0000,0.0000,0.0000,0.0000,0
3827,-0.1142,0.2020,0.0090,0.0025,-0.0514,0.0013,0.07,-0.28,-7.03,0,3.874,-0.133,0.109,0.049,-0.002,-0.004,1.000,0.000,0.000,0.000,0.0080,1,1,0.00,0.00,0.00,0.0000,0.0000,0.0000,0.0000,0.0000,0.0000,0.0000,0.00,0.00,0.00,0.0000,0.1330,1.1300,1.2610,2.7060,0,0.0000,0.0000,0.0000,0.0000,0.0000,0
3878,-0.0000,0.0004,0.0080,-0.0005,0.0309,0.0000,0.04,0.04,0.00,0,3.874,0.183,0.037,-0.037,-0.006,-0.003,0.997,0.000,0.000,0.000,0.0110,1,1,0.00,0.00,0.00,0.0000,0.0000,0.0000,0.0000,0.0000,0.0000,0.0000,0.00,0.00,0.00,0.7350,0.1360,1.1290,1.2610,2.7010,0,0.0000,0.0000,0.0000,0.0000,0.0000,0
3929,-0.0008,0.0030,0.0093,-0.0161,0.0514,-0.0003,-0.52,0.29,-0.00,0,3.869,-0.051,0.026,-0.317,-0.004,-0.002,0.998,0.000,0.000,0.000,0.0070,6,8,0.00,0.00,0.00,0.0000,0.0000,0.0000,0.0000,0.0000,0.0000,0.0000,0.00,0.00,0.00,0.7350,0.1360,1.1290,1.2570,2.7010,0,0.0000,0.0000,0.0000,0.0000,0.0000,0
3980,-0.0009,0.0047,0.0086,-0.0082,0.0442,-0.0026,-0.19,0.17,-0.00,0,3.880,-0.025,0.032,0.024,-0.005,-0.003,0.999,0.000,0.000,0.000,0.0110,0,3,0.00,0.00,0.00,0.0000,0.0000,0.0000,0.0000,0.0000,0.0000,0.0000,0.00,0.00,0.00,0.7380,0.1370,1.1270,1.2570,2.7020,0,0.0000,0.0000,0.0000,0.0000,0.0000,0
4031,-0.0015,0.0068,0.0095,-0.0097,0.0447,0.0012,-0.17,-0.03,0.00,0,3.874,-0.171,0.012,-0.081,-0.005,-0.004,1.000,0.000,0.000,0.000,0.0090,2,3,0.00,0.00,0.00,0.0000,0.0000,0.0000,0.0000,0.0000,0.0000,0.0000,0.00,0.00,0.00,0.7380,0.1370,1.1270,1.2590,2.7020,0,0.0000,0.0000,0.0000,0.0000,0.0000,0
4082,-0.0013,0.0083,0.0094,-0.0037,0.0390,0.0003,0.21,-0.22,0.00,0,3.880,-0.047,0.274,-0.033,-0.005,-0.000,0.999,0.000,0.000,0.000,0.0090,5,2,0.00,0.00,0.00,0.0000,0.0000,0.0000,0.0000,0.0000,0.0000,0.0000,0.00,0.00,0.00,0.7390,0.1380,1.1270,1.2590,2.7060,0,0.0000,0.0000,0.0000,0.0000,0.0000,0
4133,-0.0015,0.0080,0.0093,-0.0022,0.0215,-0.0001,0.46,-0.28,0.00,0,3.874,-0.122,0.195,0.455,-0.004,-0.000,1.000,0.000,0.000,0.000,0.0100,-4,2,0.00,0.00,0.00,0.0000,0.0000,0.0000,0.0000,0.0000,0.0000,0.0000,0.00,0.00,0.00,0.7390,0.1380,1.1270,1.2590,2.7060,0,0.0000,0.0000,0.0000,0.0000,0.0000,0
4185,-0.0017,0.0065,0.0096,-0.0015,0.0021,0.0019,0.44,-0.29,-0.00,0,3.874,0.098,0.020,0.027,-0.005,-0.002,1.001,0.000,0.000,0.000,0.0080,0,5,0.00,0.00,0.00,0.0000,0.0000,0.0000,0.0000,0.0000,0.0000,0.0000,0.00,0.00,0.00,0.7390,0.1360,1.1260,1.2590,2.7020,0,0.0000,0.0000,0.0000,0.0000,0.0000,0
4236,-0.0014,0.0067,0.0090,0.0022,-0.0018,-0.0020,0.47,-0.26,0.00,0,3.869,0.083,-0.259,0.180,-0.005,-0.001,1.001,0.000,0.000,0.000,0.0120,3,-2,0.00,0.00,0.00,0.0000,0.0000,0.0000,0.0000,0.0000,0.0000,0.0000,0.00,0.00,0.00,0.7390,0.1360,1.1260,1.2530,2.7020,0,0.0000,0.0000,0.0000,0.0000,0.0000,0
4288,-0.0023,0.0037,0.0102,-0.0032,-0.0267,0.0050,0.39,-0.36,0.00,0,3.874,0.050,0.223,-0.051,-0.002,-0.001,0.998,0.000,0.000,0.000,0.0060,-1,-1,0.00,0.00,0.00,0.0000,0.0000,0.0000,0.0000,0.0000,0.0000,0.0000,0.00,0.00,0.00,0.7360,0.1340,1.1280,1.2530,2.6990,0,0.0000,0.0000,0.0000,0.0000,0.0000,0
4339,-0.0021,0.0060,0.0088,-0.0005,-0.0108,-0.0041,0.27,-0.35,-0.00,0,3.869,0.194,0.015,-0.029,-0.004,-0.001,0.999,0.000,0.000,0.000,0.0080,8,0,0.00,0.00,0.00,0.0000,0.0000,0.0000,0.0000,0.0000,0.0000,0.0000,0.00,0.00,0.00,0.7360,0.1340,1.1280,1.2590,2.6990,0,0.0000,0.0000,0.0000,0.0000,0.0000,0
4390,-0.0023,-0.0017,0.0082,-0.0016,-0.0618,-0.0071,1.15,-0.26,0.01,0,3.874,-0.132,0.094,0.040,-0.004,-0.001,0.999,0.000,0.000,0.000,0.0090,0,3,0.00,0.00,0.00,0.0000,0.0000,0.0000,0.0000,0.0000,0.0000,0.0000,0.00,0.00,0.00,0.7420,0.1360,1.1280,1.2590,2.7040,0,0.0000,0.0000,0.0000,0.0000,0.0000,0
4441,-0.0021,-0.0041,0.0084,0.0012,-0.0660,-0.0043,0.89,-0.29,0.00,0,3.874,-0.084,0.070,-0.089,-0.004,-0.004,0.999,0.000,0.000,0.000,0.0060,-13,0,0.00,0.00,0.00,0.0000,0.0000,0.0000,0.0000,0.0000,0.0000,0.0000,0.00,0.00,0.00,0.7420,0.1360,1.1280,1.2570,2.7040,0,0.0000,0.0000,0.0000,0.0000,0.0000,0
4492,-0.0023,-0.0050,0.0074,0.0001,-0.0628,-0.0087,0.63,-0.31,-0.01,0,3.874,-0.236,0.125,-0.038,-0.003,-0.003,0.999,0.000,0.000,0.000,0.0100,-3,4,0.00,0.00,0.00,0.0000,0.0000,0.0000,0.0000,0.0000,0.0000,0.0000,0.00,0.00,0.00,0.7350,0.1360,1.1290,1.2570,2.7040,0,0.0000,0.0000,0.0000,0.0000,0.0000,0
4543,-0.0016,-0.0034,0.0084,0.0051,-0.0449,-0.0014,0.51,-0.29,-0.01,0,3.874,-0.091,-0.079,-0.030,-0.006,-0.002,0.998,0.000,0.000,0.000,0.0090,4,4,0.00,0.00,0.00,0.0000,0.0000,0.0000,0.0000,0.0000,0.0000,0.0000,0.00,0.00,0.00,0.7350,0.1360,1.1290,1.2550,2.7040,0,0.0000,0.0000,0.0000,0.0000,0.0000,0
4594,-0.0016,-0.0014,0.0087,0.0047,-0.0265,0.0003,0.35,-0.25,-0.01,0,3.874,-0.112,0.275,-0.126,-0.005,-0.002,0.996,0.000,0.000,0.000,0.0090,0,-1,0.00,0.00,0.00,0.0000,0.0000,0.0000,0.0000,0.0000,0.0000,0.0000,0.00,0.00,0.00,0.7380,0.1360,1.1250,1.2550,2.7120,0,0.0000,0.0000,0.0000,0.0000,0.0000,0
4646,-0.0028,-0.0024,0.0089,-0.0010,-0.0276,0.0004,0.31,-0.32,-0.01,0,3.869,-0.073,-0.252,0.035,-0.002,-0.000,0.999,0.000,0.000,0.000,0.0090,1,2,0.00,0.00,0.00,0.0000,0.0000,0.0000,0.0000,0.0000,0.0000,0.0000,0.00,0.00,0.00,0.7380,0.1360,1.1250,1.2560,2.7120,0,0.0000,0.0000,0.0000,0.0000,0.0000,0
4698,-0.0014,-0.0016,0.0090,0.0072,-0.0187,0.0006,0.17,-0.30,-0.01,0,3.874,-0.073,-0.036,-0.094,-0.007,-0.004,1.002,0.000,0.000,0.000,0.0080,-3,0,0.00,0.00,0.00,0.0000,0.0000,0.0000,0.0000,0.0000,0.0000,0.0000,0.00,0.00,0.00,0.7410,0.1360,1.1320,1.2560,2.7000,0,0.0000,0.0000,0.0000,0.0000,0.0000,0
4749,-0.0024,-0.0028,0.0086,0.0013,-0.0222,-0.0016,0.14,-0.29,-0.02,0,3.869,0.076,-0.114,-0.311,-0.005,-0.004,1.000,0.000,0.000,0.000,0.0110,-13,0,0.00,0.00,0.00,0.0000,0.0000,0.0000,0.0000,0.0000,0.0000,0.0000,0.00,0.00,0.00,0.7410,0.1360,1.1320,1.2560,2.7000,0,0.0000,0.0000,0.0000,0.0000,0.0000,0
4800,-0.0023,-0.0040,0.0096,0.0010,-0.0262,0.0040,0.04,-0.25,-0.02,0,3.874,-0.072,0.045,-0.106,-0.004,-0.002,0.998,0.000,0.000,0.000,0.0090,3,2,0.00,0.00,0.00,0.0000,0.0000,0.0000,0.0000,0.0000,0.0000,0.0000,0.00,0.00,0.00,0.7350,0.1390,1.1290,1.2560,2.7050,0,0.0000,0.0000,0.0000,0.0000,0.0000,0
4852,-0.0017,-0.0020,0.0095,0.0046,-0.0129,0.0027,0.05,-0.28,-0.02,0,3.869,0.105,-0.140,0.080,-0.004,-0.003,0.999,0.000,0.000,0.000,0.0070,-3,2,0.00,0.00,0.00,0.0000,0.0000,0.0000,0.0000,0.0000,0.0000,0.0000,0.00,0.00,0.00,0.7350,0.1390,1.1290,1.2560,2.7050,0,0.0000,0.0000,0.0000,0.0000,0.0000,0
4902,-0.0019,-0.0028,0.0085,0.0030,-0.0148,-0.0036,0.00,-0.28,-0.02,0,3.874,-0.206,-0.051,0.180,-0.005,-0.002,1.000,0.000,0.000,0.000,0.0080,-9,0,0.00,0.00,0.00,0.0000,0.0000,0.0000,0.0000,0.0000,0.0000,0.0000,0.00,0.00,0.00,0.7380,0.1390,1.1280,1.2560,2.7090,0,0.0000,0.0000,0.0000,0.0000,0.0000,0
4954,-0.0023,-0.0036,0.0082,0.0010,-0.0181,-0.0045,-0.03,-0.25,-0.02,0,3.869,0.032,0.153,-0.185,-0.002,0.000,1.000,0.000,0.000,0.000,0.0080,10,4,0.00,0.00,0.00,0.0000,0.0000,0.0000,0.0000,0.0000,0.0000,0.0000,0.00,0.00,0.00,0.7380,0.1390,1.1280,1.2570,2.7090,0,0.0000,0.0000,0.0000,0.0000,0.0000,0
5005,-0.0019,0.0007,0.0081,0.0036,0.0082,-0.0039,-0.05,-0.26,-0.02,0,3.874,-0.014,-0.105,0.134,-0.004,-0.003,1.000,0.000,0.000,0.000,0.0100,0,5,0.00,0.00,0.00,0.0000,0.0000,0.0000,0.0000,0.0000,0.0000,0.0000,0.00,0.00,0.00,0.7390,0.1360,1.1250,1.2570,2.7030,0,0.0000,0.0000,0.0000,0.0000,0.0000,0
5056,-0.0012,0.0008,0.0088,0.0081,0.0086,-0.0001,-0.17,-0.17,-0.03,0,3.869,-0.182,0.019,-0.149,-0.002,-0.001,0.998,0.000,0.000,0.000,0.0060,14,1,0.00,0.00,0.00,0.0000,0.0000,0.0000,0.0000,0.0000,0.0000,0.0000,0.00,0.00,0.00,0.7390,0.1360,1.1250,1.2580,2.7030,0,0.0000,0.0000,0.0000,0.0000,0.0000,0
5107,-0.0043,0.0047,0.0075,-0.0077,0.0276,-0.0066,-0.19,-0.18,-0.03,0,3.463,-0.522,0.495,-0.210,-0.012,-0.006,0.998,0.000,0.000,0.000,0.0100,-8,7,0.00,0.00,0.00,0.0000,0.0000,0.0000,0.0000,0.0000,0.0000,0.0000,0.00,0.00,0.00,0.7410,0.1360,1.1300,1.2580,2.7020,0,0.0000,0.0000,0.0000,0.0000,0.0000,0
5158,-0.0037,0.0007,0.0085,-0.0011,0.0039,-0.0006,-0.03,-0.20,-0.03,0,3.542,-0.541,-0.539,0.286,-0.012,-0.003,1.002,0.000,0.000,0.000,0.0100,9,4,0.00,0.00,0.00,0.0000,0.0000,0.0000,0.0000,0.0000,0.0000,0.0000,0.00,0.00,0.00,0.7410,0.1360,1.1300,1.2550,2.7020,0,0.0000,0.0000,0.0000,0.0000,0.0000,0
5210,-0.0041,0.0025,0.0092,-0.0001,0.0129,0.0037,-0.18,-0.27,-0.02,0,3.595,-0.264,-0.064,7.934,-0.014,0.022,0.995,0.000,0.000,0.000,0.0100,25,0,0.00,0.00,0.00,0.0000,0.0000,0.0000,0.0000,0.0000,0.0000,0.0000,0.00,0.00,0.00,0.7370,0.1390,1.1270,1.2550,2.6980,0,0.0000,0.0000,0.0000,0.0000,0.0000,0
5261,-0.0038,-0.0028,0.0097,0.0035,-0.0163,0.0045,0.15,-0.22,0.09,0,3.611,5.519,0.147,5.694,-0.014,-0.007,0.938,0.000,0.000,0.000,0.0070,-22,-5,0.00,0.00,0.00,0.0000,0.0000,0.0000,0.0000,0.0000,0.0000,0.0000,0.00,0.00,0.00,0.7370,0.1390,1.1270,1.2520,2.6980,0,0.0000,0.0000,0.0000,0.0000,0.0000,0
5312,-0.0036,-0.0018,0.0089,0.0060,-0.0030,-0.0059,-0.33,-0.24,0.16,0,3.621,-1.368,-0.977,0.326,-0.018,-0.012,1.032,0.000,0.000,0.000,0.0070,0,0,0.00,0.00,0.00,0.0000,0.0000,0.0000,0.0000,0.0000,0.0000,0.0000,0.00,0.00,0.00,0.7420,0.1380,1.1270,1.2520,2.7020,0,0.0000,0.0000,0.0000,0.0000,0.0000,0
5363,-0.0021,0.0014,0.0080,0.0128,0.0135,-0.0054,-0.34,-0.22,0.18,0,3.621,-5.356,-1.858,-2.681,-0.009,-0.031,1.008,0.000,0.000,0.000,0.0090,0,0,0.00,0.00,0.00,0.0000,0.0000,0.0000,0.0000,0.0000,0.0000,0.0000,0.00,0.00,0.00,0.7420,0.1380,1.1270,1.2550,2.7020,0,0.0000,0.0000,0.0000,0.0000,0.0000,0
5414,-0.0015,0.0022,0.0082,0.0146,0.0161,-0.0024,-0.30,-0.19,0.22,0,3.621,-6.688,-0.162,12.352,0.002,-0.017,1.018,0.000,0.000,0.000,0.0080,0,0,0.00,0.00,0.00,0.0000,0.0000,0.0000,0.0000,0.0000,0.0000,0.0000,0.00,0.00,0.00,0.7450,0.1400,1.1260,1.2550,2.7010,0,0.0000,0.0000,0.0000,0.0000,0.0000,0
5465,-0.0007,0.0030,0.0079,0.0162,0.0186,-0.0025,-0.26,-0.16,0.84,0,3.616,-1.234,1.610,8.176,-0.002,-0.007,1.029,0.000,0.000,0.000,0.0070,0,0,0.00,0.00,0.00,0.0000,0.0000,0.0000,0.0000,0.0000,0.0000,0.0000,0.00,0.00,0.00,0.7450,0.1400,1.1260,1.2560,2.7010,0,0.0000,0.0000,0.0000,0.0000,0.0000,0
5517,0.0002,0.0040,0.0073,0.0176,0.0207,-0.0058,-0.22,-0.19,1.40,0,3.616,-2.766,1.311,12.725,-0.009,0.006,1.031,0.000,0.000,0.000,0.0100,-6,-4,0.00,0.00,0.00,0.0000,0.0000,0.0000,0.0000,0.0000,0.0000,0.0000,0.00,0.00,0.00,0.7620,0.1490,1.1230,1.2560,2.7080,0,0.0000,0.0000,0.0000,0.0000,0.0000,0
5569,0.0044,0.0157,0.0081,0.0331,0.0665,0.0012,-0.52,-0.29,1.99,0,3.611,-6.518,-2.441,11.291,-0.015,-0.026,1.040,0.000,0.000,0.000,0.0060,-1,-4,0.00,0.00,0.00,0.0000,0.0000,0.0000,0.0000,0.0000,0.0000,0.0000,0.00,0.00,0.00,0.7620,0.1490,1.1230,1.2410,2.7080,0,0.0000,0.0000,0.0000,0.0000,0.0000,0
5621,0.0213,0.0291,0.0064,0.0953,0.1096,-0.0059,-0.70,-1.08,2.73,0,3.605,5.249,-6.156,8.431,-0.006,-0.000,0.991,0.000,0.000,0.000,0.0100,-6,-11,0.00,0.00,0.00,0.0000,0.0000,0.0000,0.0000,0.0000,0.0000,0.0000,0.00,0.00,0.00,0.7910,0.1660,1.1270,1.2410,2.7090,0,0.0000,0.0000,0.0000,0.0000,0.0000,0
5672,0.0476,0.0356,0.0064,0.1808,0.1196,-0.0072,-0.63,-1.37,3.22,0,3.600,3.217,-10.089,5.551,-0.011,-0.026,1.001,0.000,0.000,0.000,0.0120,-2,5,0.00,0.00,0.00,0.0000,0.0000,0.0000,0.0000,0.0000,0.0000,0.0000,0.00,0.00,0.00,0.7910,0.1660,1.1270,1.2320,2.7090,0,0.0000,0.0000,0.0000,0.0000,0.0000,0
5723,0.0582,0.0383,0.0091,0.1935,0.1114,0.0114,-0.39,-0.66,3.44,0,3.605,1.773,-25.110,-0.845,-0.008,-0.029,1.055,0.000,0.000,0.000,0.0110,9,0,0.00,0.00,0.00,0.0000,0.0000,0.0000,0.0000,0.0000,0.0000,0.0000,0.00,0.00,0.00,0.8230,0.1780,1.1260,1.2320,2.7040,0,0.0000,0.0000,0.0000,0.0000,0.0000,0
5774,0.0499,0.0363,0.0123,0.1282,0.0858,0.0396,-0.26,1.23,3.39,0,3.595,8.763,-43.014,-7.860,0.014,-0.013,0.996,0.000,0.000,0.000,0.0170,1,-11,0.00,0.00,0.00,0.0000,0.0000,0.0000,0.0000,0.0000,0.0000,0.0000,0.00,0.00,0.00,0.8230,0.1780,1.1260,1.2310,2.7040,0,0.0000,0.0000,0.0000,0.0000,0.0000,0
5825,0.0607,0.0339,0.0162,0.1419,0.0610,0.0605,-0.07,2.98,2.97,0,3.600,-4.478,-35.277,-12.889,0.025,0.002,0.968,0.000,0.000,0.000,0.0020,0,1,0.00,0.00,0.00,0.0000,0.0000,0.0000,0.0000,0.0000,0.0000,0.0000,0.00,0.00,0.00,0.8250,0.1540,1.1230,1.2310,2.7000,0,0.0000,0.0000,0.0000,0.0000,0.0000,0
5876,0.0677,0.0283,0.0117,0.1193,0.0235,0.0091,0.18,4.62,2.40,0,3.584,2.423,-16.409,-10.045,0.032,-0.013,0.974,0.000,0.000,0.000,0.0000,5,32,0.00,0.00,0.00,0.0000,0.0000,0.0000,0.0000,0.0000,0.0000,0.0000,0.00,0.00,0.00,0.8250,0.1540,1.1230,1.2500,2.7000,0,0.0000,0.0000,0.0000,0.0000,0.0000,0
5929,0.0556,0.0240,0.0061,0.0046,-0.0023,-0.0301,0.48,6.33,1.63,0,3.568,-7.930,17.559,-4.928,0.024,-0.010,0.973,0.000,0.000,0.000,0.0000,5,37,0.00,0.00,0.00,0.0000,0.0000,0.0000,0.0000,0.0000,0.0000,0.0000,0.00,0.00,0.00,0.0000,0.1210,1.1250,1.2500,2.7040,0,0.0000,0.0000,0.0000,0.0000,0.0000,0
5980,0.0317,0.0193,-0.0012,-0.1483,-0.0258,-0.0781,0.32,6.60,1.30,0,3.542,-12.473,61.694,-6.382,0.028,-0.012,1.035,0.000,0.000,0.000,0.0000,10,57,0.00,0.00,0.00,0.0000,0.0000,0.0000,0.0000,0.0000,0.0000,0.0000,0.00,0.00,0.00,0.0000,0.1210,1.1250,1.2540,2.7040,0,0.0000,0.0000,0.0000,0.0000,0.0000,0
6031,-0.0278,0.0092,-0.0212,-0.4359,-0.0683,-0.1598,0.13,5.79,0.84,0,3.510,-29.478,88.982,-6.323,0.020,-0.012,1.067,0.000,0.000,0.000,0.0000,12,87,0.00,0.00,0.00,0.0000,0.0000,0.0000,0.0000,0.0000,0.0000,0.0000,0.00,0.00,0.00,0.0000,0.1540,1.1240,1.2540,2.6990,0,0.0000,0.0000,0.0000,0.0000,0.0000,0
6082,-0.0725,-0.0010,-0.0252,-0.5766,-0.0979,-0.1051,-0.88,2.65,0.49,0,3.526,1.649,106.017,-7.131,0.000,-0.028,1.108,0.000,0.000,0.000,0.0000,-3,38,0.00,0.00,0.00,0.0000,0.0000,0.0000,0.0000,0.0000,0.0000,0.0000,0.00,0.00,0.00,0.0000,0.1540,1.1240,1.2630,2.6990,0,0.0000,0.0000,0.0000,0.0000,0.0000,0
6133,-0.1341,-0.0088,-0.0358,-0.7525,-0.1041,-0.1029,-0.91,-2.82,-0.04,0,3.526,-6.690,131.815,-7.434,-0.002,-0.027,1.082,0.000,0.000,0.000,0.0000,0,41,0.00,0.00,0.00,0.0000,0.0000,0.0000,0.0000,0.0000,0.0000,0.0000,0.00,0.00,0.00,0.0000,0.1310,1.1250,1.2630,2.7280,0,0.0000,0.0000,0.0000,0.0000,0.0000,0
6184,-0.1779,-0.0116,-0.0219,-0.7395,-0.0807,0.0333,-1.53,-9.93,-0.49,0,3.552,-20.883,105.778,-11.236,0.007,-0.026,1.084,0.000,0.000,0.000,0.0000,-5,2,0.00,0.00,0.00,0.0000,0.0000,0.0000,0.0000,0.0000,0.0000,0.0000,0.00,0.00,0.00,0.0000,0.1310,1.1250,1.2700,2.7280,0,0.0000,0.0000,0.0000,0.0000,0.0000,0
6235,-0.1986,-0.0123,-0.0026,-0.5421,-0.0463,0.1675,-3.10,-16.01,-1.42,0,3.568,-0.473,-42.061,-9.111,0.010,-0.015,1.008,0.000,0.000,0.000,0.0110,9,52,0.00,0.00,0.00,0.0000,0.0000,0.0000,0.0000,0.0000,0.0000,0.0000,0.00,0.00,0.00,0.1160,0.0000,1.1200,1.2700,2.8580,0,0.0000,0.0000,0.0000,0.0000,0.0000,0
6286,-0.2044,-0.0097,0.0117,-0.3029,-0.0031,0.2044,-2.94,-14.26,-1.60,0,3.558,21.152,-88.229,-9.346,-0.004,-0.031,0.969,0.000,0.000,0.000,0.0210,1,10,0.00,0.00,0.00,0.0000,0.0000,0.0000,0.0000,0.0000,0.0000,0.0000,0.00,0.00,0.00,0.1160,0.0000,1.1200,1.2770,2.8580,0,0.0000,0.0000,0.0000,0.0000,0.0000,0
6338,-0.2309,-0.0136,0.0216,-0.2539,-0.0039,0.1792,-1.79,-10.17,-1.76,0,3.558,1.890,-16.656,-12.172,-0.018,-0.023,0.931,0.000,0.000,0.000,0.0270,9,17,0.00,0.00,0.00,0.0000,0.0000,0.0000,0.0000,0.0000,0.0000,0.0000,0.00,0.00,0.00,0.3110,0.1280,1.1200,1.2770,2.7580,0,0.0000,0.0000,0.0000,0.0000,0.0000,0
6391,-0.2456,-0.0185,0.0291,-0.1922,-0.0175,0.1389,-1.36,-8.93,-2.06,0,3.547,-4.793,-42.528,-5.285,-0.021,-0.017,0.965,0.000,0.000,0.000,0.0290,2,0,0.00,0.00,0.00,0.0000,0.0000,0.0000,0.0000,0.0000,0.0000,0.0000,0.00,0.00,0.00,0.3110,0.1280,1.1200,1.2800,2.7580,0,0.0000,0.0000,0.0000,0.0000,0.0000,0
6442,-0.2508,-0.0229,0.0334,-0.1094,-0.0276,0.1090,-1.38,-7.38,-2.23,0,3.537,2.869,-60.139,-6.230,-0.011,-0.001,1.001,0.000,0.000,0.000,0.0460,19,3,0.00,0.00,0.00,0.0000,0.0000,0.0000,0.0000,0.0000,0.0000,0.0000,0.00,0.00,0.00,0.5140,0.1160,1.1360,1.2800,2.6920,0,0.0000,0.0000,0.0000,0.0000,0.0000,0
6494,-0.2378,-0.0229,0.0422,0.0270,-0.0117,0.1238,-1.28,-5.01,-2.26,0,3.537,-0.925,-25.989,-2.649,-0.026,-0.022,0.987,0.000,0.000,0.000,0.0550,-19,-1,0.00,0.00,0.00,0.0000,0.0000,0.0000,0.0000,0.0000,0.0000,0.0000,0.00,0.00,0.00,0.5140,0.1160,1.1360,1.2850,2.6920,0,0.0000,0.0000,0.0000,0.0000,0.0000,0
6545,-0.2444,-0.0311,0.0520,0.0256,-0.0386,0.1340,-1.29,-2.98,-2.53,0,3.531,7.716,-5.334,1.607,-0.011,-0.021,0.971,0.000,0.000,0.000,0.0480,1,-5,0.00,0.00,0.00,0.0000,0.0000,0.0000,0.0000,0.0000,0.0000,0.0000,0.00,0.00,0.00,0.5660,0.0960,1.1490,1.2850,2.6850,0,0.0000,0.0000,0.0000,0.0000,0.0000,0
6596,-0.2450,-0.0208,0.0548,0.0397,0.0275,0.1089,-1.25,-2.56,-2.65,0,3.521,12.813,-34.122,2.413,-0.023,-0.016,1.003,0.000,0.000,0.000,0.0560,-1,-17,0.00,0.00,0.00,0.0000,0.0000,0.0000,0.0000,0.0000,0.0000,0.0000,0.00,0.00,0.00,0.5660,0.0960,1.1490,1.3030,2.6850,0,0.0000,0.0000,0.0000,0.0000,0.0000,0
6647,-0.2469,-0.0196,0.0590,0.0393,0.0343,0.0988,-0.60,-1.13,-2.39,0,3.516,9.723,-21.474,1.465,-0.022,-0.016,1.011,0.000,0.000,0.000,0.0540,0,-5,0.00,0.00,0.00,0.0000,0.0000,0.0000,0.0000,0.0000,0.0000,0.0000,0.00,0.00,0.00,0.4970,0.0950,1.1590,1.3030,2.6740,0,0.0000,0.0000,0.0000,0.0000,0.0000,0
6699,-0.2479,-0.0197,0.0602,0.0303,0.0293,0.0819,0.04,0.31,-2.25,0,3.510,-1.301,-13.490,-1.244,-0.005,-0.013,1.022,0.000,0.000,0.000,0.0500,-8,4,0.00,0.00,0.00,0.0000,0.0000,0.0000,0.0000,0.0000,0.0000,0.0000,0.00,0.00,0.00,0.4970,0.0950,1.1590,1.3270,2.6740,0,0.0000,0.0000,0.0000,0.0000,0.0000,0
6750,-0.2487,-0.0219,0.0585,0.0182,0.0112,0.0572,0.07,0.93,-2.28,0,3.500,27.629,-10.964,2.472,-0.020,-0.025,1.014,0.000,0.000,0.000,0.0520,-2,-10,0.00,0.00,0.00,0.0000,0.0000,0.0000,0.0000,0.0000,0.0000,0.0000,0.00,0.00,0.00,0.4150,0.0000,1.1840,1.3270,2.6700,0,0.0000,0.0000,0.0000,0.0000,0.0000,0
6801,-0.2511,-0.0219,0.0578,-0.0030,0.0068,0.0514,0.94,1.25,-2.24,0,3.494,-6.203,25.552,7.167,-0.028,-0.019,1.052,0.000,0.000,0.000,0.0490,8,15,0.00,0.00,0.00,0.0000,0.0000,0.0000,0.0000,0.0000,0.0000,0.0000,0.00,0.00,0.00,0.4150,0.0000,1.1840,1.3610,2.6700,0,0.0000,0.0000,0.0000,0.0000,0.0000,0
6852,-0.2556,-0.0194,0.0559,-0.0351,0.0121,0.0479,0.92,0.78,-1.90,0,3.494,-17.950,21.240,5.623,-0.019,-0.017,1.066,0.000,0.000,0.000,0.0590,0,1,0.00,0.00,0.00,0.0000,0.0000,0.0000,0.0000,0.0000,0.0000,0.0000,0.00,0.00,0.00,0.3300,0.0850,1.3030,1.3610,2.6620,0,0.0000,0.0000,0.0000,0.0000,0.0000,0
6903,-0.2641,-0.0224,0.0591,-0.0720,-0.0115,0.0765,0.20,-0.47,-1.62,0,3.494,-2.496,0.036,6.230,-0.031,-0.021,1.073,0.000,0.000,0.000,0.0560,0,0,0.00,0.00,0.00,0.0000,0.0000,0.0000,0.0000,0.0000,0.0000,0.0000,0.00,0.00,0.00,0.3300,0.0850,1.3030,1.3610,2.6620,0,0.0000,0.0000,0.0000,0.0000,0.0000,0
6954,-0.2649,-0.0231,0.0610,-0.0559,-0.0130,0.0964,0.03,-0.50,-1.29,0,3.494,7.419,0.769,11.318,-0.027,-0.014,1.067,0.000,0.000,0.000,0.0640,15,-1,0.00,0.00,0.00,0.0000,0.0000,0.0000,0.0000,0.0000,0.0000,0.0000,0.00,0.00,0.00,0.0000,0.0910,1.3860,1.3610,2.6660,0,0.0000,0.0000,0.0000,0.0000,0.0000,0
7005,-0.2644,-0.0201,0.0663,-0.0365,0.0064,0.1311,0.41,-0.60,-0.75,0,3.494,-1.991,1.815,9.727,-0.019,-0.018,1.077,0.000,0.000,0.000,0.0730,-9,-17,0.00,0.00,0.00,0.0000,0.0000,0.0000,0.0000,0.0000,0.0000,0.0000,0.00,0.00,0.00,0.0000,0.0910,1.3860,0.0000,2.6660,0,0.0000,0.0000,0.0000,0.0000,0.0000,0
7057,-0.2683,-0.0186,0.0741,-0.0420,0.0129,0.1669,-0.03,-0.78,-0.17,0,3.505,-1.708,-17.078,2.000,-0.031,-0.009,1.055,0.000,0.000,0.000,0.0820,9,1,0.00,0.00,0.00,0.0000,0.0000,0.0000,0.0000,0.0000,0.0000,0.0000,0.00,0.00,0.00,1.5890,0.0870,1.4560,0.0000,2.6420,0,0.0000,0.0000,0.0000,0.0000,0.0000,0
7109,-0.2659,-0.0183,0.0838,-0.0150,0.0107,0.1998,-0.06,-0.25,-0.07,0,3.505,11.913,-1.112,-0.695,-0.026,-0.019,1.058,0.000,0.000,0.000,0.0870,-4,-21,0.00,0.00,0.00,0.0000,0.0000,0.0000,0.0000,0.0000,0.0000,0.0000,0.00,0.00,0.00,1.5890,0.0870,1.4560,0.0000,2.6420,0,0.0000,0.0000,0.0000,0.0000,0.0000,0
7161,-0.2721,-0.0201,0.0923,-0.0411,0.0003,0.2155,0.37,-0.13,-0.11,0,3.510,-5.649,-15.128,-6.668,-0.038,-0.009,1.045,0.000,0.000,0.000,0.1050,8,-9,0.00,0.00,0.00,0.0000,0.0000,0.0000,0.0000,0.0000,0.3000,0.2809,-1.31,-19.06,3.32,0.0000,0.0830,0.0000,0.0000,2.6150,0,0.0000,0.0000,0.0000,0.0000,0.0000,0
7212,-0.2690,-0.0176,0.1055,-0.0202,0.0105,0.2475,0.20,0.52,-0.44,0,3.510,16.233,-9.548,-1.722,-0.043,-0.021,1.042,0.000,0.000,0.000,0.1150,-4,-52,0.37,0.13,-0.11,-0.2721,-0.0201,0.1050,0.0000,0.0000,0.3000,0.2749,-0.72,-18.42,13.22,0.0000,0.0830,0.0000,0.3800,2.6150,0,0.0000,0.0000,0.0000,0.0000,0.0000,0
7263,-0.2648,-0.0228,0.1182,-0.0002,-0.0197,0.2689,0.94,0.28,-0.63,0,3.516,-12.532,6.562,-1.616,-0.043,-0.019,1.014,0.000,0.000,0.000,0.1300,3,1,0.92,-2.57,-0.19,-0.1579,-0.0112,0.1120,0.0000,0.0000,0.3000,0.2702,-2.47,-17.63,18.91,1.6610,0.0000,0.0000,0.3800,2.5900,0,0.0000,0.0000,0.0000,0.0000,0.0000,0
7314,-0.2496,-0.0228,0.1324,0.0606,-0.0231,0.2822,0.60,0.18,-0.71,0,3.521,-8.403,-19.031,-5.417,-0.047,-0.015,1.011,0.000,0.000,0.000,0.1440,5,1,3.50,6.03,-0.32,-0.1192,-0.0195,0.2605,0.0000,0.0000,0.3000,0.2661,-2.66,-14.30,21.42,1.6610,0.0000,0.0000,0.0000,2.5900,0,0.0000,0.0000,0.0000,0.0000,0.0000,0
7365,-0.2558,-0.0233,0.1470,0.0134,-0.0234,0.2916,0.16,1.33,-0.94,0,3.526,-5.439,-2.454,-3.984,-0.046,-0.027,0.988,0.000,0.000,0.000,0.1500,0,5,5.05,25.68,-1.20,-0.1429,-0.0297,0.3019,0.0000,0.0000,0.3000,0.2623,-2.75,-16.97,28.21,1.6180,0.0000,0.1680,0.0000,2.5390,0,0.0000,0.0000,0.0000,0.0000,0.0000,0
7416,-0.2582,-0.0244,0.1591,-0.0112,-0.0234,0.2770,-0.03,1.78,-1.11,0,3.521,6.676,16.284,-4.287,-0.042,-0.017,0.990,0.000,0.000,0.000,0.1720,-2,0,1.64,32.80,-0.25,-0.1737,-0.0213,0.2531,0.0000,0.0000,0.3000,0.2616,-2.84,-18.23,33.31,1.6180,0.0000,0.1680,1.7650,2.5390,0,0.0000,0.0000,0.0000,0.0000,0.0000,0
7467,-0.2615,-0.0247,0.1736,-0.0365,-0.0189,0.2748,0.21,1.26,-1.31,0,3.526,14.766,4.458,-1.703,-0.048,-0.019,0.982,0.000,0.000,0.000,0.1880,-3,-18,-0.60,27.97,1.22,-0.1804,-0.0135,0.2625,0.0000,0.0000,0.3000,0.2591,-2.67,-19.69,39.38,1.5710,0.0000,0.2520,1.7650,0.0000,0,0.0000,0.0000,0.0000,0.0000,0.0000,0
7519,-0.2491,-0.0247,0.1901,0.0171,-0.0180,0.2815,0.88,0.25,-1.45,0,3.526,-6.705,-2.901,0.318,-0.045,-0.022,0.970,0.000,0.000,0.000,0.1980,0,-8,-1.18,17.24,2.46,-0.1585,-0.0053,0.3012,0.0000,0.0000,0.3000,0.2553,-2.67,-16.81,43.58,1.5710,0.0000,0.2520,1.7600,0.0000,0,-0.1481,-0.0071,0.0000,-0.1481,-0.0071,0
7570,-0.2462,-0.0251,0.2025,0.0213,-0.0223,0.2578,0.62,0.38,-1.45,0,3.521,-4.847,-8.330,0.392,-0.042,-0.020,0.969,0.000,0.000,0.000,0.2080,-1,-3,-1.34,12.01,2.47,-0.1220,-0.0011,0.2753,0.0000,0.0000,0.3000,0.2555,-2.90,-16.42,43.41,0.0000,0.0000,0.2150,1.7600,2.4960,0,-0.1481,-0.0071,0.0000,-0.1481,-0.0071,0
7621,-0.2517,-0.0254,0.2141,-0.0097,-0.0230,0.2390,0.25,0.87,-1.40,0,3.526,-5.415,-1.264,1.243,-0.047,-0.025,0.982,0.000,0.000,0.000,0.2220,0,-29,-1.69,10.23,2.66,-0.1007,0.0035,0.2497,0.0000,0.0000,0.3000,0.2554,-2.96,-18.17,42.05,0.0000,0.0000,0.2150,0.0000,2.4960,0,-0.1481,-0.0071,0.0000,-0.1481,-0.0071,0
7672,-0.2293,-0.0214,0.2250,0.0689,-0.0048,0.2236,-0.09,0.40,-1.40,0,3.526,9.215,-9.580,-1.077,-0.037,-0.017,0.987,0.000,0.000,0.000,0.2380,-5,-10,-1.46,2.05,3.87,-0.0267,0.0093,0.2268,0.0000,0.0000,0.3000,0.2550,-1.79,-13.15,41.89,0.0000,0.0000,0.2400,0.0000,0.0000,0,-0.1481,-0.0071,0.0000,-0.1481,-0.0071,0
7723,-0.2030,-0.0165,0.2384,0.1466,0.0141,0.2272,0.08,0.26,-1.39,0,3.521,8.555,-21.194,-0.049,-0.040,-0.018,0.975,0.000,0.000,0.000,0.2500,-8,-24,-2.01,1.81,3.54,-0.0040,0.0223,0.2165,0.0000,0.0000,0.3000,0.2521,-0.53,-7.74,41.75,0.0000,0.0000,0.2400,0.0000,0.0000,0,-0.1481,-0.0071,0.0000,-0.1481,-0.0071,0
7773,-0.1798,-0.0109,0.2503,0.1965,0.0290,0.2197,0.46,0.97,-1.38,0,3.526,9.934,-27.141,0.185,-0.041,-0.022,0.973,0.000,0.000,0.000,0.2630,-8,-19,-2.76,-0.44,3.29,0.0503,0.0448,0.1978,0.0000,0.0000,0.3000,0.2506,0.63,-3.66,41.43,1.3330,0.0000,0.2880,0.0000,2.4580,0,-0.1481,-0.0071,0.0000,-0.1481,-0.0071,0
7825,-0.1539,-0.0028,0.2633,0.2388,0.0463,0.2167,0.85,1.98,-1.38,0,3.526,3.742,-28.949,-0.813,-0.043,-0.016,0.972,0.000,0.000,0.000,0.2740,-5,-9,-3.09,-0.42,2.84,0.0927,0.0667,0.1926,0.0000,0.0000,0.3000,0.2485,2.09,0.34,41.49,1.3330,0.0000,0.2880,1.7100,2.4580,0,-0.1481,-0.0071,0.0000,-0.1481,-0.0071,0
7876,-0.1287,0.0059,0.2744,0.2627,0.0595,0.2048,0.95,3.09,-1.42,0,3.531,7.078,-21.184,-0.870,-0.037,-0.026,0.962,0.000,0.000,0.000,0.2840,-9,-19,-2.86,1.69,2.83,0.1120,0.0816,0.2084,0.0000,0.0000,0.3000,0.2477,3.40,3.42,42.47,0.0000,0.0000,0.4800,1.7100,2.4390,0,-0.1481,-0.0071,0.0000,-0.1481,-0.0071,0
7927,-0.1011,0.0163,0.2854,0.2806,0.0748,0.1911,1.14,3.86,-1.46,0,3.531,8.989,-14.133,-0.368,-0.037,-0.022,0.960,0.000,0.000,0.000,0.2940,-5,-9,-3.13,1.57,2.37,0.1595,0.1084,0.2126,0.0000,0.0000,0.3000,0.2471,4.95,6.38,43.68,0.0000,0.0000,0.4800,1.7440,2.4390,0,-0.1481,-0.0071,0.0000,-0.1481,-0.0071,0
7979,-0.0708,0.0276,0.2947,0.2968,0.0883,0.1726,1.47,4.36,-1.48,0,3.526,10.622,-14.820,-0.613,-0.038,-0.019,0.947,0.000,0.000,0.000,0.3060,-8,-20,-2.48,2.66,2.56,0.1865,0.1279,0.2295,0.0000,0.0000,0.3000,0.2473,6.46,9.39,44.32,1.1260,0.0000,0.8700,1.7440,2.4280,0,-0.1481,-0.0071,0.0000,-0.1481,-0.0071,0
8031,-0.0444,0.0364,0.3054,0.2929,0.0885,0.1605,2.01,4.93,-1.50,0,3.526,6.750,-17.397,1.383,-0.032,-0.018,0.949,0.000,0.000,0.000,0.3150,-3,-17,-2.16,2.25,2.61,0.2435,0.1578,0.2380,0.0000,0.0000,0.3000,0.2466,7.14,11.16,45.14,1.1260,0.0000,0.8700,1.7530,2.4280,0,-0.1481,-0.0071,0.0000,-0.1481,-0.0071,0
8083,-0.0169,0.0435,0.3142,0.2887,0.0804,0.1403,2.41,5.59,-1.48,0,3.531,-2.962,-9.988,2.283,-0.028,-0.014,0.951,0.000,0.000,0.000,0.3240,-1,-10,-1.29,2.55,3.69,0.2946,0.1797,0.2513,0.0000,0.0000,0.3000,0.2472,7.25,12.91,44.40,1.0270,0.0000,0.9200,1.7530,0.0000,0,-0.1481,-0.0071,0.0000,-0.1481,-0.0071,0
8134,0.0144,0.0468,0.3229,0.2895,0.0612,0.1256,2.32,5.83,-1.39,0,3.526,-3.131,-2.858,2.628,-0.028,-0.011,0.949,0.000,0.000,0.000,0.3270,-4,-13,-0.89,3.31,4.66,0.3278,0.1951,0.2700,0.0000,0.0000,0.3000,0.2471,6.55,15.16,41.56,1.0270,0.0000,0.9200,1.7490,0.0000,0,-0.1481,-0.0071,0.0000,-0.1481,-0.0071,0
8186,0.0418,0.0530,0.3281,0.2782,0.0528,0.0963,2.09,5.76,-1.26,0,3.526,-1.606,-6.491,2.194,-0.030,-0.019,0.956,0.000,0.000,0.000,0.3160,0,-6,-1.00,3.26,4.95,0.3716,0.2162,0.2821,0.0000,0.0000,0.3000,0.2493,6.54,16.41,37.79,0.9490,0.0000,0.8550,1.7490,0.0000,0,-0.1481,-0.0071,0.0000,-0.1481,-0.0071,0
8238,0.0692,0.0632,0.3255,0.2676,0.0575,0.0377,1.86,5.89,-1.10,0,3.510,0.250,1.522,3.470,-0.028,-0.009,0.970,0.000,0.000,0.000,0.3000,-1,-5,-0.59,4.11,5.79,0.3902,0.2245,0.2935,0.0000,0.0000,0.3000,0.2561,7.32,17.34,33.00,0.9490,0.0000,0.8550,1.6520,0.0000,0,-0.1481,-0.0071,0.0000,-0.1481,-0.0071,0
8289,0.0925,0.0693,0.3146,0.2470,0.0518,-0.0426,1.90,5.65,-0.98,0,3.489,-1.678,0.511,2.952,-0.022,-0.016,0.994,0.000,0.000,0.000,0.2920,1,-10,-0.30,4.48,6.36,0.4017,0.2308,0.2960,0.0000,0.0000,0.3000,0.2668,7.19,17.30,29.37,0.9010,0.0000,0.7910,1.6520,2.4190,0,-0.1481,-0.0071,0.0000,-0.1481,-0.0071,0
8340,0.1170,0.0678,0.3027,0.2321,0.0282,-0.0996,1.88,5.33,-0.90,0,3.479,-9.778,0.652,1.221,-0.020,-0.012,1.024,0.000,0.000,0.000,0.2840,0,-4,-0.01,4.30,7.12,0.4298,0.2339,0.2929,0.0000,0.0000,0.3000,0.2752,5.82,17.69,26.90,0.9010,0.0000,0.7910,1.6670,2.4190,0,-0.1481,-0.0071,0.0000,0.4057,0.2249,0
8391,0.1435,0.0600,0.2910,0.2233,-0.0070,-0.1293,1.45,5.05,-0.92,0,3.473,-11.199,2.303,-0.369,-0.016,-0.009,1.049,0.000,0.000,0.000,0.2930,3,-6,-0.34,4.58,7.45,0.4374,0.2357,0.2898,0.0000,0.0000,0.3000,0.2806,3.66,18.61,27.49,0.8710,0.0000,0.7220,1.6670,2.4260,0,-0.1481,-0.0071,0.0000,0.4057,0.2249,0
8442,0.1615,0.0593,0.2874,0.1957,-0.0186,-0.0991,0.88,4.89,-0.95,0,3.468,-7.740,5.631,0.161,-0.011,-0.012,1.066,0.000,0.000,0.000,0.3040,3,-4,-0.57,4.45,7.92,0.4543,0.2319,0.2903,0.0000,0.0000,0.3000,0.2781,3.13,18.75,28.37,0.8710,0.0000,0.7220,1.6500,2.4260,0,-0.1481,-0.0071,0.0000,0.4057,0.2249,0
8493,0.1768,0.0542,0.2922,0.1640,-0.0343,-0.0238,0.44,4.45,-0.99,0,3.489,-8.739,12.911,-0.237,-0.012,-0.009,1.060,0.000,0.000,0.000,0.3190,1,-2,-0.74,4.21,8.26,0.4665,0.2273,0.2957,0.0000,0.0000,0.3000,0.2690,2.16,18.98,29.67,0.8930,0.0000,0.6370,1.6500,2.4000,0,-0.1481,-0.0071,0.0000,0.4057,0.2249,0
8544,0.1897,0.0506,0.3039,0.1356,-0.0410,0.0657,-0.04,3.90,-1.03,0,3.505,-5.338,14.075,0.735,-0.011,-0.008,1.036,0.000,0.000,0.000,0.3250,0,-3,-1.15,3.65,8.29,0.4736,0.2263,0.3065,0.0000,0.0000,0.3000,0.2572,1.68,19.40,30.91,0.8930,0.0000,0.6370,1.6350,2.4000,0,-0.1481,-0.0071,0.0000,0.4057,0.2249,0
8596,0.1992,0.0448,0.3148,0.1175,-0.0495,0.1253,-0.31,3.20,-1.05,0,3.526,-2.484,13.913,0.961,-0.006,-0.016,1.005,0.000,0.000,0.000,0.3280,2,0,-1.46,2.91,8.26,0.4840,0.2278,0.3178,0.0000,0.0000,0.3000,0.2487,0.89,19.85,31.48,0.8570,0.0000,0.6060,1.6350,2.3950,0,-0.1481,-0.0071,0.0000,0.4057,0.2249,0
8647,0.2091,0.0386,0.3247,0.0997,-0.0552,0.1520,-0.31,2.46,-1.04,0,3.521,-6.606,10.566,1.634,-0.008,-0.007,0.973,0.000,0.000,0.000,0.3350,1,0,-1.48,2.32,8.45,0.4839,0.2230,0.3273,0.0000,0.0000,0.3000,0.2439,0.15,20.07,31.33,0.8570,0.0000,0.6060,1.6250,2.3950,0,-0.1481,-0.0071,0.0000,0.4057,0.2249,0
8698,0.2145,0.0327,0.3334,0.0806,-0.0589,0.1518,-0.52,1.89,-1.00,0,3.526,-4.641,14.117,1.620,-0.006,-0.010,0.953,0.000,0.000,0.000,0.3390,1,0,-1.78,1.85,8.57,0.4841,0.2204,0.3357,0.0000,0.0000,0.3000,0.2423,-0.49,19.70,29.89,0.8300,0.0000,0.6020,1.6250,2.3870,0,-0.1481,-0.0071,0.0000,0.4057,0.2249,0
8749,0.2183,0.0262,0.3405,0.0654,-0.0622,0.1330,-0.84,1.28,-0.94,0,3.516,-4.677,11.117,2.229,-0.003,-0.013,0.949,0.000,0.000,0.000,0.3390,0,0,-1.99,1.18,8.68,0.4842,0.2178,0.3418,0.0000,0.0000,0.3000,0.2430,-1.16,19.22,28.07,0.8300,0.0000,0.6020,1.6030,2.3870,0,-0.1481,-0.0071,0.0000,0.4057,0.2249,0
8800,0.2217,0.0167,0.3433,0.0559,-0.0696,0.0908,-1.00,0.71,-0.86,0,3.516,-1.850,5.792,2.443,-0.005,-0.012,0.946,0.000,0.000,0.000,0.3430,4,0,-2.22,0.61,8.78,0.4863,0.2171,0.3449,0.0000,0.0000,0.3000,0.2470,-2.22,18.73,25.73,0.7910,0.0000,0.6000,1.6030,2.3780,0,-0.1481,-0.0071,0.0000,0.4057,0.2249,0
8851,0.2232,0.0144,0.3457,0.0478,-0.0596,0.0567,-1.03,0.46,-0.73,0,3.505,-0.059,2.023,3.195,0.001,-0.012,0.955,0.000,0.000,0.000,0.3390,0,0,-2.00,0.36,9.45,0.4842,0.2034,0.3468,0.0000,0.0000,0.3000,0.2502,-1.87,18.26,22.05,0.7910,0.0000,0.6000,1.5940,2.3780,0,-0.1481,-0.0071,0.0000,0.4057,0.2249,0
8902,0.2246,0.0029,0.3441,0.0424,-0.0687,0.0109,-1.03,0.32,-0.57,0,3.500,-6.666,3.359,3.876,0.000,-0.010,0.965,0.000,0.000,0.000,0.3400,4,0,-2.00,0.25,9.62,0.4853,0.2004,0.3456,0.0000,0.0000,0.3000,0.2555,-3.11,17.76,16.96,0.7510,0.0000,0.6060,1.5940,2.3780,0,-0.1481,-0.0071,0.0000,0.4057,0.2249,0
8953,0.2260,0.0002,0.3423,0.0383,-0.0589,-0.0174,-1.21,0.25,-0.41,0,3.489,-0.644,3.519,3.158,-0.003,-0.013,0.984,0.000,0.000,0.000,0.3310,3,0,-2.16,0.08,10.18,0.4856,0.1912,0.3437,0.0000,0.0000,0.3000,0.2588,-2.79,17.46,12.44,0.7510,0.0000,0.6060,1.5790,2.3780,0,-0.1481,-0.0071,0.0000,0.4057,0.2249,0
9004,0.2231,-0.0083,0.3367,0.0270,-0.0605,-0.0531,-1.18,0.10,-0.29,0,3.489,-1.779,2.465,3.351,-0.002,-0.012,1.001,0.000,0.000,0.000,0.3300,0,0,-2.11,-0.10,10.51,0.4866,0.1850,0.3390,0.0000,0.0000,0.3000,0.2638,-3.41,16.48,8.74,0.7210,0.0000,0.6020,1.5790,2.4010,0,-0.1481,-0.0071,0.0000,0.4057,0.2249,0
9055,0.2196,-0.0136,0.3320,0.0164,-0.0554,-0.0664,-1.24,0.07,-0.14,0,3.479,-4.009,1.892,3.184,0.000,-0.013,1.016,0.000,0.000,0.000,0.3280,3,1,-2.20,-0.23,10.68,0.4876,0.1809,0.3350,0.0000,0.0000,0.3000,0.2661,-3.52,15.67,4.33,0.7210,0.0000,0.6020,1.5700,2.4010,0,-0.1481,-0.0071,0.0000,0.4057,0.2249,0
9106,0.2193,-0.0158,0.3284,0.0136,-0.0442,-0.0645,-1.32,0.01,-0.01,0,3.484,3.642,3.934,3.748,0.000,-0.015,1.023,0.000,0.000,0.000,0.3260,4,0,-2.34,-0.27,10.97,0.4843,0.1745,0.3316,0.0000,0.0000,0.3000,0.2666,-3.14,15.51,0.30,0.6820,0.0000,0.6040,1.5700,2.3950,0,-0.1481,-0.0071,0.0000,0.4057,0.2249,0
9157,0.2137,-0.0224,0.3254,0.0012,-0.0421,-0.0545,-1.06,-0.07,0.11,0,3.479,4.925,3.523,1.196,0.001,-0.015,1.029,0.000,0.000,0.000,0.3210,-1,0,-2.04,-0.49,11.44,0.4852,0.1678,0.3288,0.0000,0.0000,0.3000,0.2660,-3.51,14.63,-3.29,0.6820,0.0000,0.6040,1.5670,2.3950,0,-0.1481,-0.0071,0.0000,0.4057,0.2249,0
9209,0.2088,-0.0238,0.3222,-0.0077,-0.0316,-0.0459,-0.89,-0.18,0.15,0,3.484,1.841,4.618,0.671,0.001,-0.017,1.035,0.000,0.000,0.000,0.3220,-1,2,-1.89,-0.67,11.24,0.4858,0.1662,0.3262,0.0000,0.0000,0.3000,0.2657,-3.12,13.94,-4.62,0.6640,0.0000,0.6180,1.5670,2.4060,0,-0.1481,-0.0071,0.0000,0.4057,0.2249,0
9259,0.2029,-0.0290,0.3208,-0.0168,-0.0313,-0.0274,-0.68,-0.35,0.19,0,3.479,3.391,5.836,1.410,0.002,-0.014,1.033,0.000,0.000,0.000,0.3180,0,1,-1.88,-0.84,11.02,0.4811,0.1646,0.3252,0.0000,0.0000,0.3000,0.2640,-3.49,13.24,-5.71,0.6640,0.0000,0.6180,1.5600,2.4060,0,-0.1481,-0.0071,0.0000,0.4057,0.2249,0
9311,0.1976,-0.0299,0.3191,-0.0225,-0.0240,-0.0155,-0.51,-0.54,0.25,0,3.484,2.106,2.663,2.365,0.009,-0.015,1.030,0.000,0.000,0.000,0.3160,5,1,-1.73,-1.10,11.02,0.4786,0.1633,0.3238,0.0000,0.0000,0.3000,0.2630,-3.23,12.68,-7.59,0.6520,0.0000,0.6310,1.5600,2.4020,0,-0.1481,-0.0071,0.0000,0.4057,0.2249,0
9364,0.1911,-0.0296,0.3175,-0.0279,-0.0162,-0.0061,-0.42,-0.67,0.34,0,3.479,3.541,2.956,1.810,0.003,-0.018,1.027,0.000,0.000,0.000,0.3240,0,2,-1.38,-1.21,11.76,0.4769,0.1549,0.3228,0.0000,0.0000,0.3000,0.2623,-2.85,12.04,-10.19,0.6520,0.0000,0.6310,1.5610,2.4020,0,-0.1481,-0.0071,0.0000,0.4057,0.2249,0
9415,0.1847,-0.0347,0.3204,-0.0319,-0.0210,0.0233,-0.29,-0.78,0.44,0,3.489,2.632,2.562,1.553,0.007,-0.019,1.028,0.000,0.000,0.000,0.3170,-3,2,-1.25,-1.30,11.69,0.4717,0.1519,0.3251,0.0000,0.0000,0.3000,0.2586,-3.49,11.58,-13.14,0.6590,0.0000,0.6560,1.5610,2.4010,0,-0.1481,-0.0071,0.0000,0.4057,0.2249,0
9466,0.1775,-0.0321,0.3200,-0.0362,-0.0115,0.0269,-0.23,-0.91,0.50,0,3.479,3.519,3.052,1.851,0.006,-0.017,1.022,0.000,0.000,0.000,0.3210,-4,3,-1.29,-1.37,11.25,0.4655,0.1538,0.3252,0.0000,0.0000,0.3000,0.2583,-2.85,10.91,-15.02,0.6590,0.0000,0.6560,1.5580,2.4010,0,-0.1481,-0.0071,0.0000,0.4057,0.2249,0
9516,0.1704,-0.0365,0.3213,-0.0392,-0.0177,0.0370,-0.04,-0.97,0.58,0,3.489,-1.439,2.497,1.872,0.010,-0.016,1.017,0.000,0.000,0.000,0.3230,4,3,-1.30,-1.43,10.80,0.4557,0.1582,0.3265,0.0000,0.0000,0.3000,0.2569,-3.48,10.33,-17.36,0.6820,0.0000,0.6910,1.5580,2.3960,0,-0.1481,-0.0071,0.0000,0.4057,0.2249,0
9568,0.1644,-0.0334,0.3234,-0.0387,-0.0099,0.0467,-0.01,-1.08,0.66,0,3.479,-2.617,0.867,2.273,0.004,-0.016,1.014,0.000,0.000,0.000,0.3240,0,1,-1.15,-1.48,11.48,0.4474,0.1509,0.3289,0.0000,0.0000,0.3000,0.2555,-2.90,9.99,-19.77,0.6820,0.0000,0.6910,1.5580,2.3960,0,-0.1481,-0.0071,0.0000,0.4057,0.2249,0
9619,0.1560,-0.0337,0.3251,-0.0424,-0.0090,0.0494,-0.12,-1.16,0.73,0,3.489,0.322,2.177,1.771,0.013,-0.018,1.007,0.000,0.000,0.000,0.3280,0,2,-1.29,-1.52,11.59,0.4444,0.1502,0.3306,0.0000,0.0000,0.3000,0.2549,-2.88,9.25,-21.89,0.6990,0.0000,0.7290,1.5580,2.3940,0,-0.1481,-0.0071,0.0000,0.4057,0.2249,0
9671,0.1488,-0.0351,0.3280,-0.0429,-0.0103,0.0555,-0.07,-1.20,0.85,0,3.484,2.119,1.590,2.303,0.005,-0.021,1.006,0.000,0.000,0.000,0.3320,1,2,-1.27,-1.58,11.67,0.4382,0.1488,0.3331,0.0000,0.0000,0.3000,0.2536,-3.07,8.75,-25.53,0.6990,0.0000,0.7290,1.5580,2.3940,0,-0.1481,-0.0071,0.0000,0.4057,0.2249,0
9723,0.1427,-0.0323,0.3314,-0.0411,-0.0026,0.0615,-0.02,-1.25,0.98,0,3.494,-1.622,-0.664,2.987,0.006,-0.017,1.003,0.000,0.000,0.000,0.3340,-1,2,-1.12,-1.61,11.91,0.4322,0.1457,0.3361,0.0000,0.0000,0.3000,0.2524,-2.50,8.44,-29.54,0.7430,0.0730,0.7790,1.5580,2.3880,0,-0.1481,-0.0071,0.0000,0.4057,0.2249,0
9774,0.1362,-0.0349,0.3346,-0.0397,-0.0068,0.0643,-0.05,-1.23,1.13,0,3.484,0.093,-0.939,1.050,0.006,-0.014,1.001,0.000,0.000,0.000,0.3380,-3,0,-1.24,-1.53,11.93,0.4255,0.1461,0.3387,0.0000,0.0000,0.3000,0.2515,-2.91,8.08,-33.76,0.7430,0.0730,0.7790,1.5530,2.3880,0,-0.1481,-0.0071,0.0000,0.4057,0.2249,0
9825,0.1305,-0.0341,0.3382,-0.0371,-0.0040,0.0663,-0.07,-1.18,1.21,0,3.489,1.419,0.142,0.360,0.007,-0.013,0.993,0.000,0.000,0.000,0.3410,0,1,-1.36,-1.50,11.64,0.4244,0.1522,0.3417,0.0000,0.0000,0.3000,0.2506,-2.72,7.82,-36.35,0.7780,0.0000,0.8150,1.5530,2.3780,0,-0.1481,-0.0071,0.0000,0.4057,0.2249,0
9877,0.1255,-0.0392,0.3415,-0.0339,-0.0136,0.0639,-0.03,-1.17,1.28,0,3.484,-1.008,-4.205,0.556,0.008,-0.017,0.988,0.000,0.000,0.000,0.3420,-4,3,-1.25,-1.48,11.74,0.4210,0.1525,0.3446,0.0000,0.0000,0.3000,0.2502,-3.57,7.63,-38.41,0.7780,0.0000,0.8150,1.5600,2.3780,0,-0.1481,-0.0071,0.0000,0.4057,0.2249,0
9929,0.1209,-0.0360,0.3437,-0.0304,-0.0055,0.0552,-0.10,-0.99,1.28,0,3.489,1.738,1.781,-0.111,0.008,-0.015,0.990,0.000,0.000,0.000,0.3470,-4,5,-1.44,-1.18,11.39,0.4093,0.1598,0.3463,0.0000,0.0000,0.3000,0.2507,-2.94,7.45,-38.27,0.8020,0.0000,0.8470,1.5600,2.3710,0,-0.1481,-0.0071,0.0000,0.4057,0.2249,0
9980,0.1166,-0.0378,0.3469,-0.0278,-0.0081,0.0521,0.01,-0.97,1.33,0,3.484,1.628,-1.010,-0.082,0.008,-0.017,0.989,0.000,0.000,0.000,0.3480,0,0,-1.45,-1.13,11.09,0.3908,0.1667,0.3484,0.0000,0.0000,0.3000,0.2504,-3.20,7.27,-39.96,0.8020,0.0000,0.8470,1.5500,2.3710,0,-0.1481,-0.0071,0.0000,0.4057,0.2249,0
10031,0.1102,-0.0382,0.3490,-0.0301,-0.0078,0.0454,-0.02,-0.95,1.33,0,3.489,-2.080,0.831,0.076,0.008,-0.015,0.985,0.000,0.000,0.000,0.3540,4,2,-1.37,-1.08,11.08,0.3866,0.1723,0.3502,0.0000,0.0000,0.3000,0.2508,-3.21,6.68,-40.01,0.8110,0.0820,0.8670,1.5500,2.3760,0,-0.1481,-0.0071,0.0000,0.4057,0.2249,0
10083,0.1066,-0.0377,0.3525,-0.0269,-0.0056,0.0467,-0.08,-0.89,1.35,0,3.484,0.188,0.034,-0.667,0.007,-0.017,0.982,0.000,0.000,0.000,0.3560,3,1,-1.08,-1.09,12.21,0.3841,0.1511,0.3546,0.0000,0.0000,0.3000,0.2499,-3.08,6.59,-40.44,0.8110,0.0820,0.8670,1.5490,2.3760,0,-0.1481,-0.0071,0.0000,0.4057,0.2249,0
10135,0.1012,-0.0395,0.3555,-0.0282,-0.0076,0.0448,-0.08,-0.86,1.35,0,3.489,0.693,0.688,-0.219,0.009,-0.015,0.985,0.000,0.000,0.000,0.3560,-3,0,-0.99,-1.08,12.42,0.3819,0.1448,0.3563,0.0000,0.0000,0.3000,0.2496,-3.31,6.15,-40.60,0.8260,0.0860,0.8900,1.5490,2.3660,0,-0.1481,-0.0071,0.0000,0.4057,0.2249,0
10187,0.0979,-0.0427,0.3570,-0.0252,-0.0126,0.0346,-0.11,-0.86,1.34,0,3.479,-0.745,-2.385,-1.271,0.005,-0.015,0.988,0.000,0.000,0.000,0.3600,1,2,-1.05,-1.13,12.12,0.3808,0.1501,0.3577,0.0000,0.0000,0.3000,0.2504,-3.79,6.03,-40.21,0.8260,0.0860,0.8900,1.5480,2.3660,0,-0.1481,-0.0071,0.0000,0.4057,0.2249,0
10239,0.0958,-0.0415,0.3594,-0.0198,-0.0082,0.0311,-0.16,-0.77,1.31,0,3.489,0.604,-2.949,-0.601,0.007,-0.013,0.986,0.000,0.000,0.000,0.3600,0,-1,-1.06,-0.96,12.16,0.3751,0.1470,0.3592,0.0000,0.0000,0.3000,0.2503,-3.49,6.15,-39.45,0.8270,0.0900,0.9020,1.5480,2.3600,0,-0.1481,-0.0071,0.0000,0.4057,0.2249,0
10291,0.0910,-0.0436,0.3605,-0.0215,-0.0102,0.0231,-0.15,-0.68,1.29,0,3.484,-0.191,-2.181,-1.697,0.007,-0.016,0.990,0.000,0.000,0.000,0.3590,-4,3,-1.03,-0.84,12.12,0.3780,0.1475,0.3601,0.0000,0.0000,0.3000,0.2510,-3.73,5.70,-38.74,0.8270,0.0900,0.9020,1.5490,2.3600,0,-0.1481,-0.0071,0.0000,0.4057,0.2249,0
10343,0.0893,-0.0445,0.3605,-0.0176,-0.0098,0.0114,-0.20,-0.56,1.23,0,3.484,-1.015,-0.184,-0.769,0.007,-0.014,0.991,0.000,0.000,0.000,0.3610,1,1,-1.16,-0.65,11.72,0.3669,0.1550,0.3601,0.0000,0.0000,0.3000,0.2522,-3.76,5.74,-36.97,0.7950,0.0870,0.9100,1.5490,2.3590,0,-0.1481,-0.0071,0.0000,0.4057,0.2249,0
10393,0.0841,-0.0472,0.3610,-0.0219,-0.0130,0.0062,-0.17,-0.49,1.18,0,3.484,0.368,0.150,-2.039,0.009,-0.014,0.993,0.000,0.000,0.000,0.3610,0,0,-1.17,-0.62,11.82,0.3638,0.1526,0.3605,0.0000,0.0000,0.3000,0.2527,-4.10,5.14,-35.48,0.7950,0.0870,0.9100,1.5460,2.3590,0,-0.1481,-0.0071,0.0000,0.4057,0.2249,0
10445,0.0803,-0.0444,0.3611,-0.0235,-0.0040,0.0019,-0.28,-0.44,1.10,0,3.484,0.086,1.423,-1.510,0.007,-0.011,0.990,0.000,0.000,0.000,0.3650,2,0,-1.15,-0.63,11.71,0.3625,0.1540,0.3606,0.0000,0.0000,0.3000,0.2531,-3.45,4.78,-33.00,0.7880,0.0910,0.9170,1.5460,2.3570,0,-0.1481,-0.0071,0.0000,0.4057,0.2249,0
10496,0.0761,-0.0431,0.3628,-0.0263,0.0014,0.0067,-0.32,-0.42,1.06,0,3.479,0.300,0.123,-1.120,0.011,-0.017,0.996,0.000,0.000,0.000,0.3590,0,2,-1.02,-0.71,11.96,0.3652,0.1443,0.3619,0.0000,0.0000,0.3000,0.2523,-3.10,4.35,-31.78,0.7880,0.0910,0.9170,1.5420,2.3570,0,-0.1481,-0.0071,0.0000,0.4057,0.2249,0
10547,0.0759,-0.0485,0.3613,-0.0207,-0.0069,-0.0047,-0.18,-0.46,0.98,0,3.484,-1.566,-1.248,-0.766,0.008,-0.016,0.995,0.000,0.000,0.000,0.3600,1,0,-1.01,-0.67,11.90,0.3599,0.1430,0.3608,0.0000,0.0000,0.3000,0.2538,-3.88,4.58,-29.54,0.7850,0.0920,0.9320,1.5420,2.3530,0,-0.1481,-0.0071,0.0000,0.4057,0.2249,0
10598,0.0693,-0.0492,0.3605,-0.0279,-0.0061,-0.0094,-0.16,-0.43,0.95,0,3.473,-1.693,-2.592,-0.606,0.007,-0.015,1.002,0.000,0.000,0.000,0.3590,4,1,-1.07,-0.61,11.91,0.3603,0.1405,0.3601,0.0000,0.0000,0.3000,0.2545,-3.89,3.75,-28.52,0.7850,0.0920,0.9320,1.5410,2.3530,0,-0.1481,-0.0071,0.0000,0.4057,0.2249,0
10649,0.0683,-0.0498,0.3595,-0.0239,-0.0048,-0.0126,-0.20,-0.39,0.94,0,3.479,0.669,2.047,0.771,0.009,-0.014,1.000,0.000,0.000,0.000,0.3610,0,1,-1.06,-0.45,12.11,0.3592,0.1303,0.3593,0.0000,0.0000,0.3000,0.2550,-3.86,3.86,-28.31,0.7730,0.0000,0.9300,1.5410,2.3530,0,-0.1481,-0.0071,0.0000,0.4057,0.2249,0
10700,0.0658,-0.0493,0.3598,-0.0230,-0.0009,-0.0080,-0.26,-0.45,0.93,0,3.479,-0.384,0.107,0.282,0.005,-0.018,1.004,0.000,0.000,0.000,0.3590,-3,0,-1.04,-0.53,12.11,0.3564,0.1289,0.3594,0.0000,0.0000,0.3000,0.2544,-3.64,3.73,-27.91,0.7730,0.0000,0.9300,1.5360,2.3530,0,-0.1481,-0.0071,0.0000,0.4057,0.2249,0
10751,0.0639,-0.0500,0.3592,-0.0209,-0.0001,-0.0078,-0.20,-0.45,0.94,0,3.479,-1.078,-0.800,0.598,0.008,-0.016,1.000,0.000,0.000,0.000,0.3620,-3,0,-1.16,-0.54,11.91,0.3551,0.1360,0.3592,0.0000,0.0000,0.3000,0.2545,-3.66,3.69,-28.33,0.7740,0.0970,0.9400,1.5360,2.3600,0,-0.1481,-0.0071,0.0000,0.4057,0.2249,0
10802,0.0617,-0.0522,0.3602,-0.0197,-0.0029,-0.0002,-0.20,-0.39,0.95,0,3.473,5.851,-1.087,0.556,0.009,-0.008,1.004,0.000,0.000,0.000,0.3640,0,0,-1.29,-0.49,11.77,0.3536,0.1439,0.3597,0.0000,0.0000,0.3000,0.2535,-3.97,3.61,-28.44,0.7740,0.0970,0.9400,1.5370,2.3600,0,-0.1481,-0.0071,0.0000,0.4057,0.2249,0
10854,0.0609,-0.0528,0.3619,-0.0163,-0.0026,0.0091,-0.02,-0.28,0.98,0,3.484,-1.432,0.829,1.365,0.006,-0.015,0.998,0.000,0.000,0.000,0.3600,0,0,-0.99,-0.44,11.80,0.3541,0.1460,0.3610,0.0000,0.0000,0.3000,0.2522,-4.02,3.74,-29.46,0.7690,0.0940,0.9530,1.5370,2.3480,0,-0.1481,-0.0071,0.0000,0.4057,0.2249,0
10905,0.0588,-0.0530,0.3613,-0.0165,-0.0025,0.0024,0.01,-0.31,1.02,0,3.473,1.168,-2.126,0.030,0.004,-0.013,0.994,0.000,0.000,0.000,0.3650,0,0,-1.07,-0.48,11.87,0.3549,0.1481,0.3607,0.0000,0.0000,0.3000,0.2530,-4.01,3.56,-30.73,0.7690,0.0940,0.9530,1.5380,2.3480,0,-0.1481,-0.0071,0.0000,0.4057,0.2249,0
10956,0.0567,-0.0553,0.3630,-0.0165,-0.0064,0.0088,-0.02,-0.29,1.06,0,3.484,-1.048,-2.808,1.131,0.006,-0.017,0.991,0.000,0.000,0.000,0.3590,0,0,-1.01,-0.37,11.87,0.3559,0.1505,0.3619,0.0000,0.0000,0.3000,0.2520,-4.39,3.42,-31.82,0.7790,0.0960,0.9550,1.5380,2.3520,0,-0.1481,-0.0071,0.0000,0.4057,0.2249,0
11007,0.0535,-0.0527,0.3615,-0.0189,-0.0006,-0.0037,-0.09,-0.14,1.10,0,3.473,1.601,1.973,0.768,0.007,-0.017,0.994,0.000,0.000,0.000,0.3610,0,0,-1.06,-0.23,11.93,0.3572,0.1529,0.3608,0.0000,0.0000,0.3000,0.2536,-3.89,3.05,-33.04,0.7790,0.0960,0.9550,1.5310,2.3520,0,-0.1481,-0.0071,0.0000,0.4057,0.2249,0
11058,0.0529,-0.0578,0.3611,-0.0172,-0.0097,-0.0079,0.02,-0.17,1.16,0,3.479,-1.091,1.499,0.656,0.008,-0.017,0.989,0.000,0.000,0.000,0.3550,0,0,-0.98,-0.33,11.97,0.3589,0.1554,0.3604,0.0000,0.0000,0.3000,0.2542,-4.70,3.09,-34.81,0.7740,0.1000,0.9530,1.5310,2.3610,0,-0.1481,-0.0071,0.0000,0.4057,0.2249,0
11109,0.0507,-0.0578,0.3581,-0.0183,-0.0090,-0.0241,-0.03,-0.18,1.23,0,3.468,-0.675,1.543,1.495,0.006,-0.013,1.004,0.000,0.000,0.000,0.3590,-3,1,-1.03,-0.41,12.00,0.3608,0.1580,0.3579,0.0000,0.0000,0.3000,0.2565,-4.62,2.84,-36.85,0.7740,0.1000,0.9530,1.5280,2.3610,0,-0.1481,-0.0071,0.0000,0.4057,0.2249,0
11160,0.0480,-0.0577,0.3577,-0.0202,-0.0072,-0.0214,-0.22,-0.22,1.32,0,3.473,-1.896,4.982,1.322,0.005,-0.016,1.005,0.000,0.000,0.000,0.3570,3,0,-1.04,-0.37,12.16,0.3399,0.1513,0.3577,0.0000,0.0000,0.3000,0.2563,-4.53,2.56,-39.64,0.7820,0.0980,0.9430,1.5280,2.3520,0,-0.1481,-0.0071,0.0000,0.4057,0.2249,0
11211,0.0451,-0.0535,0.3567,-0.0218,0.0030,-0.0199,-0.23,-0.41,1.40,0,3.468,4.162,-1.084,2.388,0.002,-0.015,1.003,0.000,0.000,0.000,0.3580,0,0,-1.11,-0.62,12.27,0.3399,0.1510,0.3568,0.0000,0.0000,0.3000,0.2563,-3.75,2.28,-42.03,0.7820,0.0980,0.9430,1.5280,2.3520,0,-0.1481,-0.0071,0.0000,0.4057,0.2249,0
11262,0.0445,-0.0563,0.3567,-0.0174,-0.0006,-0.0125,-0.09,-0.40,1.51,0,3.473,3.269,-3.317,2.052,0.006,-0.011,0.997,0.000,0.000,0.000,0.3560,1,0,-0.90,-0.57,12.39,0.3399,0.1523,0.3566,0.0000,0.0000,0.3000,0.2555,-4.13,2.45,-45.25,0.8010,0.0990,0.9610,1.5280,2.3610,0,-0.1481,-0.0071,0.0000,0.4057,0.2249,0
11314,0.0436,-0.0520,0.3560,-0.0145,0.0083,-0.0113,-0.02,-0.26,1.62,0,3.468,0.252,-4.355,2.777,0.008,-0.009,1.001,0.000,0.000,0.000,0.3550,0,0,-0.69,-0.39,12.57,0.3401,0.1513,0.3558,0.0000,0.0000,0.3000,0.2555,-3.39,2.53,-48.48,0.8010,0.0990,0.9610,1.5250,2.3610,0,-0.1481,-0.0071,0.0000,0.4057,0.2249,0
11366,0.0439,-0.0532,0.3552,-0.0106,0.0058,-0.0118,-0.02,-0.10,1.74,0,3.473,1.524,-3.095,1.664,0.005,-0.018,0.999,0.000,0.000,0.000,0.3540,-2,1,-0.68,-0.17,12.71,0.3408,0.1519,0.3549,0.0000,0.0000,0.3000,0.2557,-3.60,2.74,-52.22,0.8050,0.0990,0.9770,1.5250,2.3640,0,-0.1481,-0.0071,0.0000,0.4057,0.2249,0
11417,0.0446,-0.0535,0.3543,-0.0076,0.0047,-0.0133,0.05,0.00,1.81,0,3.463,2.619,-0.909,0.956,0.009,-0.014,1.002,0.000,0.000,0.000,0.3530,4,0,-0.64,0.03,12.74,0.3375,0.1550,0.3540,0.0000,0.0000,0.3000,0.2560,-3.67,2.93,-54.39,0.8050,0.0990,0.9770,1.5240,2.3640,0,-0.1481,-0.0071,0.0000,0.4057,0.2249,0
11468,0.0449,-0.0509,0.3533,-0.0064,0.0085,-0.0141,0.17,0.08,1.86,0,3.468,-2.490,0.722,1.570,0.005,-0.015,1.005,0.000,0.000,0.000,0.3520,-1,0,-0.44,0.08,12.89,0.3384,0.1517,0.3531,0.0000,0.0000,0.3000,0.2563,-3.30,3.01,-55.94,0.8010,0.1020,0.9800,1.5240,2.3620,0,-0.1481,-0.0071,0.0000,0.4057,0.2249,0
11519,0.0446,-0.0568,0.3523,-0.0071,-0.0042,-0.0152,0.07,0.14,1.91,0,3.468,-1.212,3.139,0.652,0.006,-0.016,1.005,0.000,0.000,0.000,0.3530,1,3,-0.59,0.04,12.95,0.3384,0.1528,0.3523,0.0000,0.0000,0.3000,0.2566,-4.33,2.95,-57.37,0.8010,0.1020,0.9800,1.5230,2.3620,0,-0.1481,-0.0071,0.0000,0.4057,0.2249,0
11570,0.0461,-0.0556,0.3522,-0.0047,-0.0020,-0.0096,-0.03,0.03,1.97,0,3.468,1.916,-0.425,-0.808,0.001,-0.012,1.004,0.000,0.000,0.000,0.3530,0,0,-0.63,-0.06,13.03,0.3334,0.1503,0.3521,0.0839,-0.0462,0.3000,0.2560,-0.80,-2.90,-58.95,0.8060,0.1020,0.9610,1.5230,2.3650,0,-0.1481,-0.0071,0.0000,0.4057,0.2249,0
11621,0.0417,-0.0566,0.3523,-0.0122,-0.0029,-0.0048,-0.05,0.02,1.95,0,3.468,-2.213,-1.467,-0.964,0.005,-0.010,1.004,0.000,0.000,0.000,0.3530,0,0,-0.54,-0.04,12.99,0.3326,0.1496,0.3521,0.0839,-0.0462,0.3000,0.2554,-0.92,-3.59,-58.47,0.8060,0.1020,0.9610,1.5260,2.3650,0,-0.1481,-0.0071,0.0000,0.4057,0.2249,0
11672,0.0414,-0.0574,0.3525,-0.0120,-0.0037,-0.0008,-0.11,0.05,1.87,0,3.468,-1.688,1.972,-3.257,0.006,-0.013,1.000,0.000,0.000,0.000,0.3500,0,0,-0.65,0.04,12.94,0.3320,0.1488,0.3522,0.0839,-0.0462,0.3000,0.2550,-1.02,-3.61,-56.19,0.8070,0.1000,0.9600,1.5260,2.3670,0,-0.1481,-0.0071,0.0000,0.4057,0.2249,0
11723,0.0409,-0.0580,0.3513,-0.0120,-0.0033,-0.0065,-0.19,-0.03,1.73,0,3.463,-0.944,-2.799,-4.045,0.010,-0.011,0.998,0.000,0.000,0.000,0.3520,1,1,-0.73,-0.06,12.78,0.3315,0.1481,0.3514,0.0839,-0.0462,0.3000,0.2558,-1.03,-3.63,-52.00,0.8070,0.1000,0.9600,1.5210,2.3670,0,-0.1481,-0.0071,0.0000,0.4057,0.2249,0
11774,0.0385,-0.0579,0.3514,-0.0152,-0.0010,-0.0057,-0.26,-0.00,1.55,0,3.468,-2.121,-0.624,-3.827,0.009,-0.013,0.997,0.000,0.000,0.000,0.3510,0,0,-0.77,0.10,12.59,0.3294,0.1459,0.3513,0.0839,-0.0462,0.3000,0.2557,-0.92,-3.96,-46.48,0.7920,0.0990,0.9350,1.5210,2.3620,0,-0.1481,-0.0071,0.0000,0.4057,0.2249,0
11825,0.0368,-0.0610,0.3510,-0.0169,-0.0043,-0.0073,-0.35,0.05,1.36,0,3.463,-5.166,9.431,-3.655,0.004,-0.017,1.004,0.000,0.000,0.000,0.3500,0,1,-0.88,0.13,12.40,0.3289,0.1450,0.3509,0.0839,-0.0462,0.3000,0.2559,-1.31,-4.16,-40.75,0.7920,0.0990,0.9350,1.5180,2.3620,0,-0.1481,-0.0071,0.0000,0.4057,0.2249,0
11876,0.0342,-0.0613,0.3504,-0.0200,-0.0013,-0.0074,-0.60,-0.30,1.21,0,3.463,-1.424,10.783,-0.744,0.002,-0.009,1.008,0.000,0.000,0.000,0.3500,0,2,-1.16,-0.33,12.20,0.3269,0.1448,0.3504,0.0839,-0.0462,0.3000,0.2561,-1.19,-4.50,-36.27,0.7860,0.0970,0.9090,1.5180,2.3640,0,-0.1481,-0.0071,0.0000,0.4057,0.2249,0
11927,0.0307,-0.0604,0.3500,-0.0212,0.0058,-0.0041,-0.66,-0.69,1.15,0,3.463,3.638,0.213,1.782,0.003,-0.011,1.012,0.000,0.000,0.000,0.3500,0,0,-1.23,-0.86,12.16,0.3239,0.1440,0.3503,0.0839,-0.0462,0.3000,0.2558,-0.78,-4.81,-34.61,0.7860,0.0970,0.9090,1.5230,2.3640,0,-0.1481,-0.0071,0.0000,0.4057,0.2249,0
11978,0.0285,-0.0621,0.3500,-0.0175,0.0072,0.0011,-0.44,-0.72,1.23,0,3.463,4.693,-5.736,8.198,0.004,-0.016,0.999,0.000,0.000,0.000,0.3500,-5,0,-1.04,-0.87,12.25,0.3231,0.1438,0.3504,0.0839,-0.0462,0.3000,0.2552,-0.83,-4.80,-36.95,0.7890,0.0960,0.9250,1.5230,2.3690,0,-0.1481,-0.0071,0.0000,0.4057,0.2249,0
12029,0.0284,-0.0591,0.3501,-0.0103,0.0158,0.0041,-0.28,-0.51,1.61,0,3.457,9.918,-6.941,10.759,0.008,-0.015,0.999,0.000,0.000,0.000,0.3510,0,-2,-0.93,-0.59,12.48,0.3208,0.1558,0.3504,0.0839,-0.0462,0.3000,0.2549,-0.20,-4.47,-48.40,0.7890,0.0960,0.9250,1.5200,2.3690,0,-0.1481,-0.0071,0.0000,0.4057,0.2249,0
12080,0.0307,-0.0563,0.3507,-0.0014,0.0206,0.0062,0.18,-0.19,2.14,0,3.463,4.052,-8.116,9.683,0.006,-0.013,0.999,0.000,0.000,0.000,0.3510,-3,-1,-0.40,-0.27,13.05,0.3236,0.1585,0.3508,0.0839,-0.0462,0.3000,0.2545,0.24,-3.88,-64.19,0.8230,0.1010,0.9920,1.5200,2.3680,0,-0.1481,-0.0071,0.0000,0.4057,0.2249,0
12131,0.0327,-0.0560,0.3510,0.0033,0.0172,0.0049,0.47,0.15,2.62,0,3.463,0.088,-1.196,3.377,0.007,-0.015,0.993,0.000,0.000,0.000,0.3540,0,-2,-0.23,0.13,13.49,0.3246,0.1653,0.3509,0.0839,-0.0462,0.3000,0.2546,0.09,-3.51,-78.67,0.8230,0.1010,0.9920,1.5190,2.3680,0,-0.1481,-0.0071,0.0000,0.4057,0.2249,0
12182,0.0338,-0.0529,0.3525,0.0036,0.0170,0.0094,0.52,0.28,2.83,0,3.468,2.078,-4.773,0.132,0.003,-0.010,0.991,0.000,0.000,0.000,0.3510,1,0,-0.21,0.17,13.67,0.3290,0.1680,0.3518,0.0839,-0.0462,0.3000,0.2538,0.32,-3.42,-84.80,0.8450,0.1110,0.0000,1.5190,2.3600,0,-0.1481,-0.0071,0.0000,0.4057,0.2249,0
12233,0.0361,-0.0515,0.3521,0.0051,0.0137,0.0015,0.70,0.41,2.80,0,3.463,4.995,3.343,-2.274,-0.001,-0.017,0.992,0.000,0.000,0.000,0.3490,-3,1,-0.07,0.42,13.73,0.3299,0.1674,0.3516,0.0839,-0.0462,0.3000,0.2547,0.25,-3.18,-83.99,0.8450,0.1110,0.0000,1.5290,2.3600,0,-0.1481,-0.0071,0.0000,0.4057,0.2249,0
12284,0.0371,-0.0541,0.3506,0.0038,0.0017,-0.0107,0.90,0.28,2.71,0,3.457,-6.430,2.787,0.295,0.008,-0.020,0.992,0.000,0.000,0.000,0.3480,2,0,0.13,0.28,13.58,0.3262,0.1744,0.3504,0.0839,-0.0462,0.3000,0.2563,-0.52,-3.14,-81.44,0.8400,0.1080,1.0590,1.5290,2.3580,0,-0.1481,-0.0071,0.0000,0.4057,0.2249,0
12335,0.0365,-0.0525,0.3490,0.0009,-0.0029,-0.0207,0.71,0.06,2.69,0,3.452,-10.494,4.667,0.745,0.008,-0.016,0.997,0.000,0.000,0.000,0.3480,0,1,-0.14,0.15,13.65,0.3274,0.1704,0.3491,0.0839,-0.0462,0.3000,0.2577,-0.62,-3.31,-80.84,0.8400,0.1080,1.0590,1.5260,2.3580,0,-0.1481,-0.0071,0.0000,0.4057,0.2249,0
12386,0.0342,-0.0533,0.3478,-0.0038,-0.0088,-0.0233,0.18,-0.11,2.72,0,3.463,-11.929,5.613,-0.126,0.007,-0.011,1.009,0.000,0.000,0.000,0.3500,0,0,-0.67,-0.07,13.72,0.3248,0.1701,0.3480,0.0839,-0.0462,0.3000,0.2582,-0.96,-3.69,-81.56,0.8500,0.1070,0.9930,1.5260,2.3660,0,-0.1481,-0.0071,0.0000,0.4057,0.2249,0
12437,0.0347,-0.0552,0.3480,-0.0010,-0.0125,-0.0141,-0.24,-0.35,2.73,0,3.457,0.352,-2.193,0.440,0.004,-0.008,1.009,0.000,0.000,0.000,0.3520,-1,0,-1.28,-0.35,13.70,0.3253,0.1708,0.3480,0.0839,-0.0462,0.3000,0.2572,-1.28,-3.54,-82.00,0.8500,0.1070,0.9930,1.5260,2.3660,0,-0.1481,-0.0071,0.0000,0.4057,0.2249,0
12488,0.0324,-0.0589,0.3495,-0.0024,-0.0156,0.0016,-0.33,-0.28,2.76,0,3.468,-0.595,2.622,0.062,0.000,-0.019,1.002,0.000,0.000,0.000,0.3460,0,0,-1.28,-0.23,13.72,0.3232,0.1734,0.3489,0.0839,-0.0462,0.3000,0.2552,-1.71,-3.80,-82.83,0.8520,0.1100,0.9620,1.5260,2.3620,0,-0.1481,-0.0071,0.0000,0.4057,0.2249,0
12539,0.0335,-0.0574,0.3480,0.0020,-0.0092,-0.0034,-0.26,-0.39,2.76,0,3.457,-9.760,0.898,-1.254,0.006,-0.009,1.008,0.000,0.000,0.000,0.3450,2,0,-1.31,-0.36,13.72,0.3234,0.1749,0.3479,0.0839,-0.0462,0.3000,0.2560,-1.28,-3.50,-82.69,0.8520,0.1100,0.9620,1.5230,2.3620,0,-0.1481,-0.0071,0.0000,0.4057,0.2249,0
12590,0.0309,-0.0565,0.3466,-0.0000,-0.0038,-0.0074,-0.61,-0.43,2.67,0,3.463,2.025,-4.648,-4.068,0.002,-0.011,1.005,0.000,0.000,0.000,0.3490,0,0,-1.72,-0.39,13.75,0.3244,0.1654,0.3473,0.0839,-0.0462,0.3000,0.2567,-0.96,-3.77,-80.19,0.8470,0.1070,0.9330,1.5230,2.3740,0,-0.1481,-0.0071,0.0000,0.4057,0.2249,0
12642,0.0330,-0.0564,0.3475,0.0069,0.0023,0.0013,-0.50,-0.26,2.45,0,3.457,5.296,-3.176,-6.429,0.001,-0.008,1.003,0.000,0.000,0.000,0.3470,-1,0,-1.62,-0.15,13.55,0.3252,0.1656,0.3479,0.0839,-0.0462,0.3000,0.2556,-0.66,-3.31,-73.57,0.8470,0.1070,0.9330,1.5190,2.3740,0,-0.1481,-0.0071,0.0000,0.4057,0.2249,0
12693,0.0349,-0.0577,0.3473,0.0119,0.0029,0.0028,-0.21,-0.15,2.13,0,3.463,1.460,-2.828,-5.680,0.002,-0.015,1.000,0.000,0.000,0.000,0.3490,1,-1,-1.36,0.04,13.20,0.3236,0.1682,0.3478,0.0839,-0.0462,0.3000,0.2555,-0.73,-2.93,-63.91,0.8210,0.1070,0.9470,1.5190,2.3700,0,-0.1481,-0.0071,0.0000,0.4057,0.2249,0
12744,0.0359,-0.0567,0.3482,0.0135,0.0062,0.0071,-0.13,0.02,1.86,0,3.457,7.127,-7.094,-2.846,0.003,-0.014,0.993,0.000,0.000,0.000,0.3510,0,-1,-1.27,0.18,12.93,0.3260,0.1675,0.3484,0.0839,-0.0462,0.3000,0.2549,-0.49,-2.79,-55.89,0.8210,0.1070,0.9470,1.5240,2.3700,0,-0.1481,-0.0071,0.0000,0.4057,0.2249,0
12795,0.0364,-0.0585,0.3497,0.0126,0.0026,0.0109,0.22,0.36,1.72,0,3.463,7.322,-6.437,-0.339,0.004,-0.020,0.985,0.000,0.000,0.000,0.3480,3,0,-0.90,0.53,12.80,0.3284,0.1684,0.3492,0.0839,-0.0462,0.3000,0.2542,-0.80,-2.80,-51.46,0.8010,0.0990,0.9820,1.5240,2.3720,0,-0.1481,-0.0071,0.0000,0.4057,0.2249,0
12846,0.0395,-0.0567,0.3493,0.0140,0.0035,0.0018,0.59,0.62,1.68,0,3.457,-3.906,6.330,0.750,0.005,-0.018,0.992,0.000,0.000,0.000,0.3460,1,1,-0.47,0.86,12.83,0.3301,0.1621,0.3486,0.0839,-0.0462,0.3000,0.2552,-0.62,-2.50,-50.28,0.8010,0.0990,0.9820,1.5170,2.3720,0,-0.1481,-0.0071,0.0000,0.4057,0.2249,0
12897,0.0393,-0.0584,0.3478,0.0075,-0.0044,-0.0100,0.42,0.44,1.73,0,3.457,-3.121,-1.802,1.790,0.009,-0.010,0.992,0.000,0.000,0.000,0.3460,0,0,-0.66,0.56,12.87,0.3284,0.1589,0.3473,0.0839,-0.0462,0.3000,0.2568,-1.12,-2.82,-51.76,0.7910,0.1010,0.9840,1.5170,2.3700,0,-0.1481,-0.0071,0.0000,0.4057,0.2249,0
12948,0.0355,-0.0557,0.3465,-0.0040,-0.0017,-0.0167,0.25,0.51,1.82,0,3.452,0.504,0.162,3.007,0.005,-0.014,0.995,0.000,0.000,0.000,0.3480,0,0,-0.82,0.65,12.96,0.3288,0.1575,0.3461,0.0839,-0.0462,0.3000,0.2577,-0.80,-3.62,-54.61,0.7910,0.1010,0.9840,1.5160,2.3700,0,-0.1481,-0.0071,0.0000,0.4057,0.2249,0
13000,0.0360,-0.0580,0.3467,-0.0070,-0.0080,-0.0133,0.24,0.63,1.96,0,3.463,-0.688,6.559,2.286,0.006,-0.014,0.996,0.000,0.000,0.000,0.3490,1,1,-0.80,0.64,13.12,0.3290,0.1561,0.3457,0.0839,-0.0462,0.3000,0.2573,-1.26,-3.74,-58.86,0.7940,0.1060,0.9970,1.5160,2.3700,0,-0.1481,-0.0071,0.0000,0.4057,0.2249,0
13058,0.0350,-0.0568,0.3473,-0.0124,-0.0066,-0.0085,0.21,0.34,2.06,0,3.457,-5.682,7.613,0.567,0.007,-0.009,1.002,0.000,0.000,0.000,0.3510,2,0,-0.84,0.32,13.23,0.3253,0.1546,0.3456,0.0839,-0.0462,0.3000,0.2567,-1.11,-4.08,-61.68,0.7940,0.1060,0.9970,1.5120,2.3700,0,-0.1481,-0.0071,0.0000,0.4057,0.2249,0
13110,0.0315,-0.0571,0.3487,-0.0211,-0.0081,0.0019,-0.00,0.04,2.09,0,3.463,0.818,-1.232,-0.540,0.003,-0.014,0.993,0.000,0.000,0.000,0.3470,-2,1,-1.15,-0.13,13.27,0.3259,0.1505,0.3466,0.0839,-0.0462,0.3000,0.2553,-1.22,-4.78,-62.67,0.7990,0.1090,0.9810,1.5120,2.3690,0,-0.1481,-0.0071,0.0000,0.4057,0.2249,0
13161,0.0295,-0.0590,0.3480,-0.0235,-0.0112,-0.0028,0.02,0.10,2.08,0,3.457,3.453,3.481,-0.088,0.003,-0.011,0.994,0.000,0.000,0.000,0.3470,0,0,-1.14,-0.05,13.22,0.3231,0.1529,0.3460,0.0839,-0.0462,0.3000,0.2559,-1.50,-5.02,-62.28,0.7990,0.1090,0.9810,1.4680,2.3690,0,-0.1481,-0.0071,0.0000,0.4057,0.2249,0
13212,0.0270,-0.0575,0.3474,-0.0268,-0.0075,-0.0079,0.11,-0.02,2.07,0,3.452,-5.046,7.175,-0.134,0.001,-0.012,0.997,0.000,0.000,0.000,0.3400,-1,1,-0.96,-0.23,13.21,0.3224,0.1523,0.3454,0.0839,-0.0462,0.3000,0.2566,-1.21,-5.35,-62.07,0.7880,0.1120,0.9790,1.4680,2.3790,0,-0.1481,-0.0071,0.0000,0.4057,0.2249,0
13263,0.0256,-0.0604,0.3440,-0.0268,-0.0133,-0.0262,-0.05,-0.32,2.05,0,3.447,-3.049,3.334,-0.871,0.004,-0.014,0.999,0.000,0.000,0.000,0.3430,-2,0,-1.25,-0.58,13.18,0.3189,0.1552,0.3428,0.0839,-0.0462,0.3000,0.2592,-1.68,-5.40,-61.60,0.7880,0.1120,0.9790,1.3710,2.3790,0,-0.1481,-0.0071,0.0000,0.4057,0.2249,0
13314,0.0204,-0.0645,0.3428,-0.0317,-0.0195,-0.0266,-0.19,-0.51,2.00,0,3.452,-2.627,0.745,-3.329,0.005,-0.010,1.009,0.000,0.000,0.000,0.3420,0,0,-1.43,-0.75,13.12,0.3177,0.1590,0.3416,0.0839,-0.0462,0.3000,0.2595,-2.27,-5.99,-59.95,0.7890,0.1140,0.9550,1.3710,2.3780,0,-0.1481,-0.0071,0.0000,0.4057,0.2249,0
13365,0.0182,-0.0646,0.3415,-0.0286,-0.0163,-0.0258,-0.38,-0.58,1.86,0,3.447,-2.387,-0.370,-3.150,0.003,-0.011,1.010,0.000,0.000,0.000,0.3380,0,3,-1.57,-0.78,12.94,0.3171,0.1608,0.3407,0.0839,-0.0462,0.3000,0.2596,-2.12,-6.00,-55.82,0.7890,0.1140,0.9550,1.3840,2.3780,0,-0.1481,-0.0071,0.0000,0.4057,0.2249,0
13417,0.0162,-0.0649,0.3393,-0.0253,-0.0121,-0.0282,-0.47,-0.48,1.69,0,3.452,2.818,-2.867,-3.194,0.003,-0.016,1.003,0.000,0.000,0.000,0.3400,-2,1,-1.66,-0.68,12.81,0.3068,0.1560,0.3394,0.0839,-0.0462,0.3000,0.2603,-1.93,-5.97,-50.59,0.7750,0.1120,0.9440,1.3840,2.3770,0,-0.1481,-0.0071,0.0000,0.4057,0.2249,0
13468,0.0136,-0.0664,0.3387,-0.0240,-0.0101,-0.0227,-0.35,-0.30,1.52,0,3.447,1.915,2.973,-3.276,0.001,-0.011,1.008,0.000,0.000,0.000,0.3380,0,0,-1.53,-0.52,12.62,0.3033,0.1597,0.3389,0.0839,-0.0462,0.3000,0.2598,-1.95,-6.10,-45.50,0.7750,0.1120,0.9440,1.3800,2.3770,0,-0.1481,-0.0071,0.0000,0.4057,0.2249,0
13518,0.0110,-0.0666,0.3378,-0.0244,-0.0070,-0.0188,-0.19,-0.43,1.36,0,3.452,-0.182,1.580,-1.506,-0.001,-0.016,1.004,0.000,0.000,0.000,0.3370,3,0,-1.44,-0.67,12.45,0.3012,0.1619,0.3381,0.0839,-0.0462,0.3000,0.2596,-1.82,-6.31,-40.88,0.7420,0.1120,0.9520,1.3800,2.3770,0,-0.1481,-0.0071,0.0000,0.4057,0.2249,0
13570,0.0065,-0.0660,0.3369,-0.0279,-0.0032,-0.0161,-0.15,-0.45,1.28,0,3.447,4.417,-4.108,-2.297,0.001,-0.015,1.004,0.000,0.000,0.000,0.3370,0,0,-1.33,-0.76,12.52,0.3051,0.1501,0.3379,0.0839,-0.0462,0.3000,0.2594,-1.60,-6.80,-38.41,0.7420,0.1120,0.9520,1.2530,2.3770,0,-0.1481,-0.0071,0.0000,0.4057,0.2249,0
13621,0.0057,-0.0665,0.3365,-0.0230,-0.0023,-0.0114,-0.04,-0.26,1.18,0,3.447,0.051,-2.544,-2.816,0.002,-0.013,1.006,0.000,0.000,0.000,0.3340,0,0,-1.10,-0.55,12.41,0.3047,0.1497,0.3374,0.0839,-0.0462,0.3000,0.2590,-1.59,-6.64,-35.49,0.7350,0.1120,0.9530,1.2530,2.3880,0,-0.1481,-0.0071,0.0000,0.4057,0.2249,0
13672,0.0051,-0.0645,0.3351,-0.0200,0.0026,-0.0134,-0.04,-0.09,1.05,0,3.447,-0.249,1.580,-4.380,0.004,-0.015,1.005,0.000,0.000,0.000,0.3340,2,1,-1.10,-0.41,12.27,0.3046,0.1495,0.3362,0.0839,-0.0462,0.3000,0.2595,-1.22,-6.53,-31.57,0.7350,0.1120,0.9530,1.3150,2.3880,0,-0.1481,-0.0071,0.0000,0.4057,0.2249,0
13723,0.0055,-0.0655,0.3343,-0.0164,0.0005,-0.0117,-0.05,-0.16,0.85,0,3.447,0.778,-0.362,-4.801,0.002,-0.016,1.007,0.000,0.000,0.000,0.3350,-2,0,-1.06,-0.46,12.09,0.3020,0.1419,0.3354,0.0839,-0.0462,0.3000,0.2594,-1.39,-6.33,-25.47,0.7170,0.1180,0.9510,1.3150,2.3880,0,-0.1481,-0.0071,0.0000,0.4057,0.2249,0
13774,0.0040,-0.0707,0.3342,-0.0163,-0.0097,-0.0069,-0.03,-0.15,0.60,0,3.447,-5.318,-1.137,-3.338,-0.005,-0.020,1.002,0.000,0.000,0.000,0.3340,1,0,-1.05,-0.44,11.82,0.3014,0.1436,0.3353,0.0839,-0.0462,0.3000,0.2589,-2.25,-6.45,-18.14,0.7170,0.1180,0.9510,1.2510,2.3880,0,-0.1481,-0.0071,0.0000,0.4057,0.2249,0
13826,0.0023,-0.0684,0.3340,-0.0169,-0.0039,-0.0050,-0.10,-0.11,0.40,0,3.447,-1.681,5.396,-2.731,0.006,-0.015,1.001,0.000,0.000,0.000,0.3390,-2,1,-1.31,-0.38,11.66,0.3016,0.1417,0.3349,0.0839,-0.0462,0.3000,0.2588,-1.81,-6.60,-11.87,0.7080,0.1430,0.9270,1.2510,2.3760,0,-0.1481,-0.0071,0.0000,0.4057,0.2249,0
13877,0.0014,-0.0704,0.3360,-0.0162,-0.0066,0.0077,-0.19,-0.33,0.25,0,3.447,-2.934,-1.322,-1.873,0.007,-0.014,1.002,0.000,0.000,0.000,0.3360,2,0,-1.43,-0.64,11.47,0.2993,0.1442,0.3362,0.0839,-0.0462,0.3000,0.2570,-2.10,-6.68,-7.53,0.7080,0.1430,0.9270,0.0000,2.3760,0,-0.1481,-0.0071,0.0000,0.4057,0.2249,0
13929,0.0003,-0.0671,0.3362,-0.0139,0.0023,0.0086,-0.33,-0.35,0.16,0,3.452,-0.591,-1.536,-0.083,0.002,-0.010,0.998,0.000,0.000,0.000,0.3350,0,0,-1.55,-0.57,11.42,0.3000,0.1408,0.3365,0.0839,-0.0462,0.3000,0.2569,-1.43,-6.65,-4.90,0.6980,0.1930,0.9230,0.0000,2.3760,0,-0.1481,-0.0071,0.0000,0.4057,0.2249,0
13980,-0.0002,-0.0688,0.3360,-0.0107,0.0014,0.0036,-0.36,-0.27,0.16,0,3.452,1.186,2.179,2.211,0.001,-0.012,0.996,0.000,0.000,0.000,0.3360,-3,1,-1.58,-0.49,11.42,0.3004,0.1408,0.3361,0.0839,-0.0462,0.3000,0.2575,-1.60,-6.52,-4.84,0.6980,0.1930,0.9230,1.4020,2.3760,0,-0.1481,-0.0071,0.0000,0.4057,0.2249,0
14031,-0.0004,-0.0699,0.3361,-0.0078,0.0020,0.0020,-0.29,-0.29,0.26,0,3.447,6.091,3.421,5.187,0.010,-0.011,1.000,0.000,0.000,0.000,0.3370,-2,0,-1.60,-0.57,11.43,0.2943,0.1493,0.3360,0.0839,-0.0462,0.3000,0.2576,-1.64,-6.40,-7.93,0.6920,0.2830,0.9410,1.4020,2.3850,0,-0.1481,-0.0071,0.0000,0.4057,0.2249,0
14082,-0.0003,-0.0708,0.3365,-0.0043,0.0018,0.0026,-0.06,-0.36,0.49,0,3.447,-0.860,2.859,4.250,0.005,-0.013,1.005,0.000,0.000,0.000,0.3320,-4,0,-1.30,-0.75,11.67,0.2933,0.1542,0.3362,0.0839,-0.0462,0.3000,0.2575,-1.72,-6.23,-14.78,0.6920,0.2830,0.9410,1.3320,2.3850,0,-0.1481,-0.0071,0.0000,0.4057,0.2249,0
14133,0.0011,-0.0712,0.3347,0.0020,0.0010,-0.0057,-0.13,-0.53,0.69,0,3.452,1.771,-5.013,3.017,0.003,-0.010,1.006,0.000,0.000,0.000,0.3340,-7,0,-1.39,-0.90,11.83,0.2916,0.1635,0.3346,0.0839,-0.0462,0.3000,0.2587,-1.78,-5.80,-20.79,0.6970,0.3850,0.9630,1.3320,2.3710,0,-0.1481,-0.0071,0.0000,0.4057,0.2249,0
14184,-0.0005,-0.0711,0.3342,0.0027,0.0012,-0.0040,-0.06,-0.35,0.81,0,3.447,6.084,-3.659,1.426,-0.004,-0.018,1.005,0.000,0.000,0.000,0.3350,-9,0,-1.39,-0.64,11.88,0.2886,0.1801,0.3336,0.0839,-0.0462,0.3000,0.2586,-1.76,-5.88,-24.41,0.6970,0.3850,0.9630,1.2940,2.3710,0,-0.1481,-0.0071,0.0000,0.4057,0.2249,0
14235,0.0001,-0.0732,0.3345,0.0066,-0.0045,0.0001,0.34,-0.15,0.88,0,3.447,-3.220,-4.439,1.749,0.001,-0.014,1.003,0.000,0.000,0.000,0.3320,2,-1,-1.19,-0.45,11.82,0.2842,0.2029,0.3326,0.0839,-0.0462,0.3000,0.2581,-2.20,-5.67,-26.42,0.6930,0.4330,0.9860,1.2940,2.3810,0,-0.1481,-0.0071,0.0000,0.4057,0.2249,0
14286,0.0024,-0.0668,0.3335,0.0119,0.0064,-0.0041,0.30,0.02,0.97,0,3.447,-1.884,-4.469,4.300,0.000,-0.016,1.006,0.000,0.000,0.000,0.3340,0,-2,-1.26,-0.24,12.03,0.2872,0.2018,0.3340,0.0839,-0.0462,0.3000,0.2588,-1.21,-5.24,-29.04,0.6930,0.4330,0.9860,1.2320,2.3810,0,-0.1481,-0.0071,0.0000,0.4057,0.2249,0
14338,0.0021,-0.0641,0.3336,0.0096,0.0095,-0.0020,0.13,0.25,1.19,0,3.447,0.125,-2.658,4.713,0.001,-0.016,1.001,0.000,0.000,0.000,0.3350,0,0,-1.30,-0.04,12.31,0.2924,0.2053,0.3347,0.0839,-0.0462,0.3000,0.2585,-0.87,-5.38,-35.68,0.6920,0.4170,0.9840,1.2320,2.3740,0,-0.1481,-0.0071,0.0000,0.4057,0.2249,0
14389,0.0033,-0.0628,0.3342,0.0089,0.0101,0.0022,0.14,0.43,1.44,0,3.442,6.637,-6.376,4.832,0.003,-0.016,0.992,0.000,0.000,0.000,0.3340,-5,0,-1.30,0.09,12.56,0.2932,0.2132,0.3352,0.0839,-0.0462,0.3000,0.2580,-0.75,-5.34,-43.10,0.6920,0.4170,0.9840,1.2200,2.3740,0,-0.1481,-0.0071,0.0000,0.4057,0.2249,0
14440,0.0028,-0.0637,0.3341,0.0036,0.0056,-0.0004,0.44,0.69,1.69,0,3.447,0.684,3.141,5.666,-0.000,-0.015,0.989,0.000,0.000,0.000,0.3370,-1,0,-0.97,0.45,12.80,0.2870,0.2209,0.3350,0.0839,-0.0462,0.3000,0.2582,-1.02,-5.62,-50.83,0.6960,0.4500,1.0320,1.2200,2.3820,0,-0.1481,-0.0071,0.0000,0.4057,0.2249,0
14491,0.0024,-0.0658,0.3353,-0.0028,-0.0036,0.0015,0.45,0.59,1.96,0,3.447,-2.961,5.197,4.810,0.006,-0.009,0.998,0.000,0.000,0.000,0.3320,4,0,-0.91,0.29,13.09,0.2862,0.2259,0.3357,0.0839,-0.0462,0.3000,0.2578,-1.62,-5.97,-58.89,0.6960,0.4500,1.0320,1.1990,2.3820,0,-0.1481,-0.0071,0.0000,0.4057,0.2249,0
14542,0.0035,-0.0596,0.3339,-0.0047,0.0059,-0.0083,0.35,0.33,2.21,0,3.447,-1.331,-0.356,3.104,0.002,-0.015,0.995,0.000,0.000,0.000,0.3350,0,0,-0.96,0.03,13.38,0.2881,0.2185,0.3353,0.0839,-0.0462,0.3000,0.2591,-0.71,-5.94,-66.35,0.6940,0.4290,1.0430,1.1990,2.3830,0,-0.1481,-0.0071,0.0000,0.4057,0.2249,0
14592,0.0043,-0.0643,0.3340,-0.0053,-0.0073,-0.0084,0.21,0.24,2.39,0,3.442,-1.475,0.186,2.629,0.007,-0.016,0.995,0.000,0.000,0.000,0.3340,-3,4,-1.03,0.04,13.54,0.2880,0.2231,0.3351,0.0839,-0.0462,0.3000,0.2591,-1.68,-5.92,-71.60,0.6940,0.4290,1.0430,1.2030,2.3830,0,-0.1481,-0.0071,0.0000,0.4057,0.2249,0
14644,0.0013,-0.0653,0.3337,-0.0130,-0.0108,-0.0087,0.13,0.21,2.51,0,3.442,-4.663,-0.801,0.401,0.002,-0.007,0.997,0.000,0.000,0.000,0.3300,4,0,-1.11,0.15,13.67,0.2691,0.2243,0.3345,0.0839,-0.0462,0.3000,0.2592,-1.92,-6.50,-75.44,0.6970,0.4560,1.0380,1.2030,2.3820,0,-0.1481,-0.0071,0.0000,0.4057,0.2249,0
14696,-0.0034,-0.0588,0.3318,-0.0240,0.0042,-0.0172,-0.06,0.21,2.54,0,3.436,0.004,3.059,-2.325,0.000,-0.009,1.003,0.000,0.000,0.000,0.3320,-10,3,-1.27,0.18,13.72,0.2700,0.2169,0.3333,0.0839,-0.0462,0.3000,0.2605,-0.74,-7.31,-76.29,0.6970,0.4560,1.0380,1.3270,2.3820,0,-0.1481,-0.0071,0.0000,0.4057,0.2249,0
14748,-0.0031,-0.0627,0.3313,-0.0229,-0.0039,-0.0166,-0.16,0.11,2.43,0,3.442,-0.110,3.797,-4.497,0.007,-0.010,0.997,0.000,0.000,0.000,0.3340,3,-1,-1.41,0.06,13.56,0.2566,0.2392,0.3320,0.0839,-0.0462,0.3000,0.2605,-1.40,-7.24,-72.91,0.6880,0.4450,1.0290,1.3270,2.3790,0,-0.1481,-0.0071,0.0000,0.4057,0.2249,0
14800,-0.0084,-0.0548,0.3319,-0.0329,0.0146,-0.0097,-0.08,-0.05,2.25,0,3.442,0.379,-5.780,-5.818,0.005,-0.008,0.989,0.000,0.000,0.000,0.3300,2,-1,-1.33,-0.16,13.35,0.2596,0.2342,0.3332,0.0839,-0.0462,0.3000,0.2596,0.05,-8.11,-67.63,0.6880,0.4450,1.0290,1.2620,2.3790,0,-0.1481,-0.0071,0.0000,0.4057,0.2249,0
14851,-0.0095,-0.0552,0.3307,-0.0318,0.0131,-0.0175,-0.08,0.22,1.91,0,3.442,0.906,1.149,-3.293,0.004,-0.010,0.990,0.000,0.000,0.000,0.3300,1,0,-1.24,0.12,13.07,0.2628,0.2304,0.3320,0.0839,-0.0462,0.3000,0.2607,-0.06,-8.10,-57.23,0.6760,0.4310,1.0300,1.2620,2.3860,0,-0.1481,-0.0071,0.0000,0.4057,0.2249,0
14902,-0.0105,-0.0548,0.3297,-0.0324,0.0136,-0.0229,-0.05,0.25,1.75,0,3.436,1.193,11.914,-0.465,0.006,-0.009,1.001,0.000,0.000,0.000,0.3290,0,1,-1.16,0.06,12.92,0.2630,0.2283,0.3306,0.0839,-0.0462,0.3000,0.2615,-0.00,-8.17,-52.49,0.6760,0.4310,1.0300,1.2970,2.3860,0,-0.1481,-0.0071,0.0000,0.4057,0.2249,0
14953,-0.0095,-0.0559,0.3287,-0.0279,0.0100,-0.0221,0.18,-0.44,1.71,0,3.436,0.863,5.737,2.836,0.005,-0.008,1.004,0.000,0.000,0.000,0.3290,-2,0,-1.08,-0.54,12.88,0.2601,0.2280,0.3292,0.0839,-0.0462,0.3000,0.2616,-0.26,-7.90,-51.17,0.6650,0.4140,1.0240,1.2970,2.3960,0,-0.1481,-0.0071,0.0000,0.4057,0.2249,0
15004,-0.0103,-0.0712,0.3281,-0.0232,-0.0259,-0.0174,0.21,-0.65,1.79,0,3.436,-3.675,3.954,7.249,0.010,-0.015,1.010,0.000,0.000,0.000,0.3270,-1,2,-1.06,-0.84,13.02,0.2586,0.2339,0.3282,0.0839,-0.0462,0.3000,0.2612,-3.04,-7.74,-53.64,0.6650,0.4140,1.0240,1.2860,2.3960,0,-0.1481,-0.0071,0.0000,0.4057,0.2249,0
15056,-0.0120,-0.0706,0.3272,-0.0190,-0.0232,-0.0140,0.03,-0.81,2.19,0,3.442,0.707,4.153,13.874,0.008,-0.015,1.007,0.000,0.000,0.000,0.3250,0,0,-1.24,-1.01,13.38,0.2519,0.2357,0.3272,0.0839,-0.0462,0.3000,0.2610,-2.87,-7.67,-65.58,0.6640,0.3940,1.0400,1.2860,2.3890,0,-0.1481,-0.0071,0.0000,0.4057,0.2249,0
15107,-0.0145,-0.0719,0.3259,-0.0157,-0.0242,-0.0124,0.15,-0.99,2.86,0,3.436,-0.634,-13.811,13.215,0.005,-0.009,1.009,0.000,0.000,0.000,0.3240,0,0,-1.19,-1.24,14.10,0.2506,0.2391,0.3259,0.0839,-0.0462,0.3000,0.2611,-3.01,-7.69,-85.82,0.6640,0.3940,1.0400,1.2610,2.3890,0,-0.1481,-0.0071,0.0000,0.4057,0.2249,0
15158,-0.0148,-0.0808,0.3247,-0.0067,-0.0436,-0.0125,0.23,-0.55,3.53,0,3.436,-13.957,-5.844,11.660,0.005,-0.012,1.000,0.000,0.000,0.000,0.3230,-1,0,-1.21,-0.55,14.79,0.2499,0.2429,0.3249,0.0839,-0.0462,0.3000,0.2613,-4.56,-7.29,-105.98,0.6650,0.3830,1.0620,1.2610,2.3900,0,-0.1481,-0.0071,0.0000,0.4057,0.2249,0
15209,-0.0133,-0.0817,0.3236,0.0019,-0.0417,-0.0135,-0.49,-0.29,4.09,0,3.436,-9.495,-2.873,7.293,0.002,-0.005,1.011,0.000,0.000,0.000,0.3270,1,-1,-1.84,-0.25,15.45,0.2497,0.2340,0.3243,0.0839,-0.0462,0.3000,0.2616,-4.52,-6.78,-122.57,0.6650,0.3830,1.0620,0.0000,2.3900,0,-0.1481,-0.0071,0.0000,0.4057,0.2249,0
15260,-0.0126,-0.0881,0.3247,0.0057,-0.0484,-0.0006,-0.94,-0.18,4.49,0,3.436,2.183,-3.378,2.605,-0.001,-0.005,0.997,0.000,0.000,0.000,0.3270,0,-2,-2.30,-0.13,15.84,0.2515,0.2343,0.3250,0.0839,-0.0462,0.3000,0.2600,-5.32,-6.59,-134.77,0.6710,0.3290,0.9980,0.0000,2.3970,0,-0.1481,-0.0071,0.0000,0.4057,0.2249,0
15311,-0.0128,-0.0894,0.3258,0.0054,-0.0384,0.0075,-0.88,-0.02,4.63,0,3.436,4.496,-2.160,-1.653,0.003,-0.008,1.004,0.000,0.000,0.000,0.3310,-1,0,-2.18,0.01,16.00,0.2549,0.2369,0.3255,0.0839,-0.0462,0.3000,0.2589,-4.96,-6.65,-138.94,0.6710,0.3290,0.9980,1.3180,2.3970,0,-0.1481,-0.0071,0.0000,0.4057,0.2249,0
15363,-0.0111,-0.0910,0.3283,0.0076,-0.0312,0.0189,-0.62,0.19,4.57,0,3.442,-7.216,6.568,-7.082,-0.001,-0.005,1.001,0.000,0.000,0.000,0.3240,-1,2,-1.95,0.13,15.92,0.2546,0.2404,0.3273,0.0839,-0.0462,0.3000,0.2572,-4.76,-6.48,-137.14,0.6700,0.3180,1.0250,1.3180,2.3890,0,-0.1481,-0.0071,0.0000,0.4057,0.2249,0
15415,-0.0113,-0.0892,0.3271,0.0048,-0.0179,0.0087,-0.99,-0.05,4.27,0,3.442,3.407,2.100,-10.004,0.002,-0.007,1.002,0.000,0.000,0.000,0.3250,0,0,-2.32,-0.16,15.51,0.2497,0.2424,0.3267,0.0839,-0.0462,0.3000,0.2585,-3.98,-6.58,-128.13,0.6700,0.3180,1.0250,1.2930,2.3890,0,-0.1481,-0.0071,0.0000,0.4057,0.2249,0
15466,-0.0129,-0.0892,0.3264,0.0011,-0.0076,0.0035,-0.99,-0.30,3.79,0,3.436,6.535,1.705,-11.093,0.002,-0.006,0.999,0.000,0.000,0.000,0.3250,2,0,-2.15,-0.25,14.99,0.2486,0.2471,0.3264,0.0839,-0.0462,0.3000,0.2592,-3.48,-6.85,-113.69,0.6560,0.3080,1.0150,1.2930,2.3920,0,-0.1481,-0.0071,0.0000,0.4057,0.2249,0
15516,-0.0131,-0.0885,0.3260,0.0025,0.0026,0.0008,-0.65,-0.38,3.22,0,3.436,2.936,-4.060,-11.258,-0.006,-0.010,1.001,0.000,0.000,0.000,0.3250,0,-1,-1.68,-0.31,14.47,0.2518,0.2327,0.3272,0.0839,-0.0462,0.3000,0.2596,-2.94,-6.80,-96.57,0.6560,0.3080,1.0150,1.3000,2.3920,0,-0.1481,-0.0071,0.0000,0.4057,0.2249,0
15568,-0.0131,-0.0875,0.3256,0.0051,0.0096,-0.0002,-0.43,-0.24,2.64,0,3.436,-1.048,-6.331,-12.362,-0.006,-0.008,0.998,0.000,0.000,0.000,0.3270,0,-2,-1.52,-0.11,13.93,0.2535,0.2341,0.3268,0.0839,-0.0462,0.3000,0.2598,-2.53,-6.67,-79.26,0.6440,0.3280,1.0260,1.3000,2.3940,0,-0.1481,-0.0071,0.0000,0.4057,0.2249,0
15619,-0.0138,-0.0866,0.3262,0.0039,0.0143,0.0036,-0.43,0.05,2.01,0,3.436,7.103,-0.534,-12.718,-0.001,-0.003,1.008,0.000,0.000,0.000,0.3260,0,0,-1.56,0.21,13.32,0.2577,0.2361,0.3271,0.0839,-0.0462,0.3000,0.2593,-2.25,-6.79,-60.22,0.6440,0.3280,1.0260,1.2460,2.3940,0,-0.1481,-0.0071,0.0000,0.4057,0.2249,0
15670,-0.0114,-0.0872,0.3263,0.0081,0.0142,0.0048,-0.18,0.07,1.40,0,3.436,6.234,2.055,-12.621,-0.002,-0.004,1.002,0.000,0.000,0.000,0.3260,-2,1,-1.20,0.25,12.67,0.2582,0.2388,0.3271,0.0839,-0.0462,0.3000,0.2591,-2.31,-6.43,-42.03,0.6430,0.3660,1.0250,1.2460,2.3950,0,-0.1481,-0.0071,0.0000,0.4057,0.2249,0
15721,-0.0115,-0.0848,0.3263,0.0067,0.0193,0.0045,0.05,-0.06,0.82,0,3.436,5.073,-1.157,-11.048,-0.004,-0.007,1.002,0.000,0.000,0.000,0.3250,0,0,-0.88,0.20,12.01,0.2527,0.2411,0.3272,0.0839,-0.0462,0.3000,0.2591,-1.89,-6.50,-24.69,0.6430,0.3660,1.0250,1.2820,2.3950,0,-0.1481,-0.0071,0.0000,0.4057,0.2249,0
15772,-0.0131,-0.0877,0.3259,0.0024,0.0090,0.0015,0.36,0.05,0.25,0,3.436,-7.539,-0.679,-9.974,-0.004,-0.009,0.990,0.000,0.000,0.000,0.3240,-1,0,-0.62,0.27,11.44,0.2516,0.2442,0.3269,0.0839,-0.0462,0.3000,0.2595,-2.58,-6.81,-7.36,0.6370,0.3900,1.0260,1.2820,2.3980,0,-0.1481,-0.0071,0.0000,0.4057,0.2249,0
15823,-0.0126,-0.0864,0.3251,0.0026,0.0081,-0.0058,0.14,0.16,-0.28,0,3.436,-3.707,-0.206,-8.828,0.002,-0.004,1.001,0.000,0.000,0.000,0.3240,1,2,-0.98,0.30,10.94,0.2524,0.2440,0.3261,0.0839,-0.0462,0.3000,0.2605,-2.52,-6.74,8.53,0.6370,0.3900,1.0260,1.3590,2.3980,0,-0.1481,-0.0071,0.0000,0.4057,0.2249,0
15874,-0.0124,-0.0828,0.3244,0.0017,0.0149,-0.0086,-0.14,0.23,-0.74,0,3.436,-1.695,-1.860,-5.518,-0.004,-0.007,0.991,0.000,0.000,0.000,0.3250,2,2,-1.14,0.34,10.49,0.2486,0.2426,0.3255,0.0839,-0.0462,0.3000,0.2609,-1.94,-6.76,22.21,0.6450,0.3680,0.9900,1.3590,2.3950,0,-0.1481,-0.0071,0.0000,0.4057,0.2249,0
15924,-0.0131,-0.0838,0.3243,-0.0020,0.0128,-0.0092,-0.25,0.34,-1.05,0,3.431,0.071,2.051,-5.250,0.001,-0.003,0.992,0.000,0.000,0.000,0.3260,1,4,-1.19,0.47,10.21,0.2447,0.2385,0.3251,0.0839,-0.0462,0.3000,0.2610,-2.11,-6.99,31.40,0.6450,0.3680,0.9900,1.3690,2.3950,0,-0.1481,-0.0071,0.0000,0.4057,0.2249,0
15976,-0.0132,-0.0828,0.3247,-0.0045,0.0162,-0.0078,-0.27,0.30,-1.31,0,3.436,-0.710,2.695,-3.989,-0.006,-0.006,0.996,0.000,0.000,0.000,0.3200,0,7,-1.16,0.42,9.94,0.2354,0.2352,0.3246,0.0839,-0.0462,0.3000,0.2608,-1.88,-7.12,39.36,0.6510,0.3310,0.9780,1.3690,2.3860,0,-0.1481,-0.0071,0.0000,0.4057,0.2249,0
16028,-0.0137,-0.0839,0.3223,-0.0070,0.0142,-0.0202,-0.27,0.23,-1.54,0,3.431,-0.651,0.259,-5.902,-0.011,-0.005,0.997,0.000,0.000,0.000,0.3230,-1,0,-1.19,0.38,9.73,0.2173,0.2323,0.3218,0.0839,-0.0462,0.3000,0.2625,-2.05,-7.22,46.33,0.6510,0.3310,0.9780,0.0000,2.3860,0,-0.1481,-0.0071,0.0000,0.4057,0.2249,0
16079,-0.0192,-0.0831,0.3220,-0.0193,0.0165,-0.0164,-0.35,0.04,-1.81,0,3.426,2.188,-4.577,-4.505,-0.006,0.004,1.005,0.000,0.000,0.000,0.3220,0,0,-1.23,0.33,9.42,0.2154,0.2349,0.3217,0.0839,-0.0462,0.3000,0.2622,-1.88,-8.18,54.42,0.6500,0.2920,0.9710,0.0000,2.3950,0,-0.1481,-0.0071,0.0000,0.4057,0.2249,0
16131,-0.0203,-0.0843,0.3215,-0.0202,0.0143,-0.0135,-0.17,0.26,-2.05,0,3.431,1.616,1.799,-3.159,-0.010,-0.009,1.005,0.000,0.000,0.000,0.3200,0,-3,-1.12,0.57,9.20,0.2083,0.2362,0.3210,0.0839,-0.0462,0.3000,0.2620,-2.07,-8.31,61.62,0.6500,0.2920,0.9710,1.4040,2.3950,0,-0.1481,-0.0071,0.0000,0.4057,0.2249,0
16183,-0.0210,-0.0841,0.3204,-0.0213,0.0140,-0.0134,-0.17,0.12,-2.21,0,3.431,2.117,5.573,-0.197,-0.003,-0.008,1.002,0.000,0.000,0.000,0.3200,0,0,-0.98,0.29,9.01,0.2323,0.2356,0.3221,0.0839,-0.0462,0.3000,0.2622,-2.08,-8.40,66.23,0.6600,0.2780,0.9710,1.4040,2.3990,0,-0.1481,-0.0071,0.0000,0.4057,0.2249,0
16234,-0.0203,-0.0805,0.3198,-0.0180,0.0214,-0.0115,-0.02,-0.13,-2.25,0,3.426,7.456,0.935,1.302,-0.003,-0.008,1.010,0.000,0.000,0.000,0.3220,-2,1,-0.87,-0.00,9.00,0.2306,0.2369,0.3211,0.0839,-0.0462,0.3000,0.2621,-1.47,-8.20,67.59,0.6600,0.2780,0.9710,1.4480,2.3990,0,-0.1481,-0.0071,0.0000,0.4057,0.2249,0
16285,-0.0220,-0.0759,0.3205,-0.0187,0.0296,-0.0017,0.26,-0.19,-2.22,0,3.431,6.059,4.516,0.840,-0.002,-0.007,1.006,0.000,0.000,0.000,0.3210,-1,2,-0.51,-0.05,9.07,0.2282,0.2416,0.3213,0.0839,-0.0462,0.3000,0.2609,-0.77,-8.40,66.55,0.6630,0.0000,1.0000,1.4480,2.3930,0,-0.1481,-0.0071,0.0000,0.4057,0.2249,0
16336,-0.0240,-0.0751,0.3207,-0.0194,0.0253,0.0030,0.59,-0.31,-2.19,0,3.431,4.744,-2.123,1.433,-0.008,-0.008,0.997,0.000,0.000,0.000,0.3210,0,0,-0.21,-0.26,9.11,0.2232,0.2438,0.3213,0.0839,-0.0462,0.3000,0.2603,-0.91,-8.59,65.71,0.6630,0.0000,1.0000,1.4490,2.3930,0,-0.1481,-0.0071,0.0000,0.4057,0.2249,0
16387,-0.0265,-0.0739,0.3210,-0.0205,0.0195,0.0040,0.90,-0.20,-2.15,0,3.436,-5.193,-3.715,2.680,-0.008,-0.011,0.991,0.000,0.000,0.000,0.3180,2,0,0.04,-0.15,9.19,0.2205,0.2458,0.3211,0.0839,-0.0462,0.3000,0.2602,-1.10,-8.82,64.36,0.6630,0.3570,1.0350,1.4490,2.4040,0,-0.1481,-0.0071,0.0000,0.4057,0.2249,0
16439,-0.0275,-0.0731,0.3198,-0.0196,0.0120,-0.0054,0.74,0.02,-2.01,0,3.431,-6.985,2.579,1.503,-0.006,-0.001,1.001,0.000,0.000,0.000,0.3180,0,1,-0.15,-0.00,9.31,0.2250,0.2368,0.3201,0.0839,-0.0462,0.3000,0.2614,-1.39,-8.80,60.41,0.6630,0.3570,1.0350,1.4670,2.4040,0,-0.1481,-0.0071,0.0000,0.4057,0.2249,0
16491,-0.0286,-0.0807,0.3188,-0.0202,-0.0117,-0.0102,0.47,-0.09,-1.88,0,3.426,-4.439,6.594,0.535,0.002,-0.002,1.002,0.000,0.000,0.000,0.3210,0,2,-0.51,-0.13,9.39,0.2225,0.2363,0.3191,0.0839,-0.0462,0.3000,0.2621,-3.05,-8.89,56.37,0.6680,0.3490,1.0160,1.4670,2.4120,0,-0.1481,-0.0071,0.0000,0.4057,0.2249,0
16542,-0.0321,-0.0821,0.3194,-0.0246,-0.0172,-0.0043,0.27,-0.34,-1.84,0,3.426,-4.698,1.966,-4.979,0.002,0.000,1.004,0.000,0.000,0.000,0.3200,1,0,-0.74,-0.45,9.43,0.2177,0.2358,0.3193,0.0839,-0.0462,0.3000,0.2614,-3.42,-9.36,55.28,0.6680,0.3490,1.0160,1.4550,2.4120,0,-0.1481,-0.0071,0.0000,0.4057,0.2249,0
16593,-0.0363,-0.0761,0.3195,-0.0282,-0.0034,-0.0017,0.03,-0.44,-2.03,0,3.431,-0.276,2.800,-7.366,-0.003,-0.005,1.000,0.000,0.000,0.000,0.3190,3,2,-0.97,-0.56,9.18,0.2174,0.2335,0.3193,0.0839,-0.0462,0.3000,0.2611,-2.34,-9.83,60.96,0.6720,0.3470,1.0030,1.4550,2.4020,0,-0.1481,-0.0071,0.0000,0.4057,0.2249,0
16644,-0.0368,-0.0806,0.3193,-0.0226,-0.0132,-0.0014,0.04,-0.61,-2.38,0,3.426,0.217,3.745,-6.738,-0.001,-0.005,1.007,0.000,0.000,0.000,0.3190,0,1,-0.94,-0.67,8.83,0.2132,0.2260,0.3191,0.0839,-0.0462,0.3000,0.2611,-3.12,-9.61,71.47,0.6720,0.3470,1.0030,1.4570,2.4020,0,-0.1481,-0.0071,0.0000,0.4057,0.2249,0
16695,-0.0409,-0.0851,0.3192,-0.0233,-0.0222,0.0010,0.02,-0.90,-2.73,0,3.431,-2.384,-4.394,-2.177,-0.003,-0.009,1.001,0.000,0.000,0.000,0.3200,0,-1,-0.94,-0.85,8.49,0.2103,0.2253,0.3190,0.0839,-0.0462,0.3000,0.2608,-3.87,-9.93,82.04,0.6830,0.3540,0.9940,1.4570,2.4060,0,-0.1481,-0.0071,0.0000,0.4057,0.2249,0
16746,-0.0435,-0.0840,0.3196,-0.0191,-0.0176,0.0041,-0.19,-0.82,-2.85,0,3.431,3.988,-4.103,0.575,-0.007,-0.009,0.997,0.000,0.000,0.000,0.3180,-1,0,-1.06,-0.65,8.36,0.2127,0.2254,0.3194,0.0839,-0.0462,0.3000,0.2604,-3.58,-9.94,85.53,0.6830,0.3540,0.9940,1.4570,2.4060,0,-0.1481,-0.0071,0.0000,0.4057,0.2249,0
16797,-0.0427,-0.0865,0.3190,-0.0092,-0.0202,-0.0009,-0.02,-0.54,-2.82,0,3.431,-4.437,-4.666,0.451,0.000,-0.006,0.993,0.000,0.000,0.000,0.3190,-2,0,-0.88,-0.44,8.38,0.2123,0.2279,0.3189,0.0839,-0.0462,0.3000,0.2611,-3.87,-9.40,84.67,0.6920,0.3620,0.9920,1.4570,2.3990,0,-0.1481,-0.0071,0.0000,0.4057,0.2249,0
16848,-0.0436,-0.0870,0.3189,-0.0062,-0.0191,-0.0050,-0.16,-0.39,-2.81,0,3.426,-6.971,3.565,-2.911,0.001,0.002,1.000,0.000,0.000,0.000,0.3190,1,0,-1.14,-0.21,8.38,0.2115,0.2333,0.3185,0.0839,-0.0462,0.3000,0.2615,-3.85,-9.31,84.24,0.6920,0.3620,0.9920,1.4510,2.3990,0,-0.1481,-0.0071,0.0000,0.4057,0.2249,0
16899,-0.0437,-0.0956,0.3187,-0.0023,-0.0351,-0.0059,-0.32,-0.48,-2.91,0,3.431,-4.042,1.145,-2.079,-0.003,-0.007,0.994,0.000,0.000,0.000,0.3160,0,0,-1.47,-0.39,8.25,0.2118,0.2307,0.3185,0.0839,-0.0462,0.3000,0.2617,-5.21,-9.14,87.39,0.6980,0.3750,0.9790,1.4510,2.3990,0,-0.1481,-0.0071,0.0000,0.4057,0.2249,0
16951,-0.0434,-0.0956,0.3173,0.0026,-0.0287,-0.0123,-0.46,-0.47,-3.05,0,3.421,-6.848,8.769,-0.511,0.000,-0.001,1.008,0.000,0.000,0.000,0.3170,0,0,-1.67,-0.45,8.14,0.2114,0.2323,0.3173,0.0839,-0.0462,0.3000,0.2626,-4.89,-8.86,91.38,0.6980,0.3750,0.9790,1.4460,2.3990,0,-0.1481,-0.0071,0.0000,0.4057,0.2249,0
17002,-0.0455,-0.0961,0.3168,0.0022,-0.0226,-0.0087,-0.84,-0.88,-3.08,0,3.426,-25.384,68.667,-4.015,-0.004,-0.001,1.003,0.000,0.000,0.000,0.3160,2,10,-2.03,-0.90,8.10,0.2110,0.2346,0.3169,0.0839,-0.0462,0.3000,0.2623,-4.64,-9.03,92.37,0.7040,0.3980,0.9440,1.4460,2.4000,0,-0.1481,-0.0071,0.0000,0.4057,0.2249,0
17053,-0.0429,-0.0992,0.3162,0.0187,-0.0192,-0.0090,-1.96,-3.80,-3.31,0,3.421,-11.425,69.621,-2.849,-0.003,-0.010,1.009,0.000,0.000,0.000,0.3170,1,2,-3.21,-4.13,7.81,0.1685,0.2101,0.3189,0.0839,-0.0462,0.3000,0.2625,-4.70,-8.09,99.24,0.7040,0.3980,0.9440,1.4420,2.4000,0,-0.1481,-0.0071,0.0000,0.4057,0.2249,0
17104,-0.0479,-0.1035,0.3164,0.0448,-0.0114,-0.0031,-2.61,-7.40,-3.59,0,3.410,-4.717,17.803,-1.316,-0.002,-0.002,1.008,0.000,0.000,0.000,0.3270,0,-1,-3.82,-7.67,7.47,0.1624,0.2081,0.3185,0.0839,-0.0462,0.3000,0.2618,-4.66,-7.25,107.66,0.7010,0.4470,0.8720,1.4420,2.4330,0,-0.1481,-0.0071,0.0000,0.4057,0.2249,0
17156,-0.0445,-0.1060,0.3210,0.1111,0.0023,0.0196,-2.86,-8.53,-3.71,0,3.426,-5.786,-2.471,-2.262,-0.006,-0.005,1.007,0.000,0.000,0.000,0.3300,0,-5,-4.06,-8.59,7.40,0.1627,0.2097,0.3211,0.0839,-0.0462,0.3000,0.2585,-4.24,-3.97,111.37,0.7010,0.4470,0.8720,1.4440,2.4330,0,-0.1481,-0.0071,0.0000,0.4057,0.2249,0
17208,-0.0362,-0.1035,0.3256,0.1877,0.0269,0.0346,-3.22,-8.56,-3.83,0,3.436,8.466,-11.490,-5.514,-0.013,-0.009,0.998,0.000,0.000,0.000,0.3270,1,-4,-4.34,-8.53,7.49,0.1719,0.2144,0.3232,0.0839,-0.0462,0.3000,0.2560,-2.92,0.30,114.79,0.7010,0.4330,0.8440,1.4440,2.4360,0,-0.1481,-0.0071,0.0000,0.4057,0.2249,0
17259,-0.0223,-0.1023,0.3273,0.2678,0.0476,0.0286,-2.89,-8.10,-4.03,0,3.431,14.292,-28.506,-8.585,-0.017,-0.013,0.995,0.000,0.000,0.000,0.3270,-5,-8,-3.85,-7.96,7.55,0.1811,0.2179,0.3242,0.0839,-0.0462,0.3000,0.2563,-1.83,5.15,120.87,0.7010,0.4330,0.8440,1.4430,2.4360,0,-0.1481,-0.0071,0.0000,0.4057,0.2249,0
17310,-0.0092,-0.1010,0.3280,0.3318,0.0629,0.0189,-2.15,-6.80,-4.27,0,3.436,11.752,-41.340,-8.673,-0.020,-0.015,0.991,0.000,0.000,0.000,0.3240,-2,-6,-3.25,-6.55,6.99,0.2024,0.2315,0.3226,0.0839,-0.0462,0.3000,0.2572,-0.99,9.09,128.23,0.6540,0.4350,0.8260,1.4430,2.4280,0,-0.1481,-0.0071,0.0000,0.4057,0.2249,0
17361,0.0109,-0.1046,0.3268,0.3923,0.0609,0.0028,-1.52,-4.84,-4.59,0,3.426,10.467,-39.908,-8.037,-0.023,-0.018,0.995,0.000,0.000,0.000,0.3150,-4,-4,-2.67,-4.44,6.74,0.2194,0.2413,0.3219,0.0839,-0.0462,0.3000,0.2592,-1.34,13.20,137.57,0.6540,0.4350,0.8260,1.4450,2.4280,0,-0.1481,-0.0071,0.0000,0.4057,0.2249,0
17412,0.0277,-0.1038,0.3215,0.4218,0.0651,-0.0280,-1.03,-2.60,-5.06,0,3.421,8.757,-39.544,-5.015,-0.022,-0.022,1.005,0.000,0.000,0.000,0.3130,-5,-11,-2.19,-2.35,6.19,0.2328,0.2524,0.3193,0.0839,-0.0462,0.3000,0.2635,-1.07,15.39,151.66,0.6060,0.0000,0.7950,1.4450,2.4150,0,-0.1481,-0.0071,0.0000,0.4057,0.2249,0
17463,0.0428,-0.0974,0.3167,0.4271,0.0776,-0.0450,-0.58,-0.59,-5.36,0,3.415,10.821,-25.581,-0.566,-0.020,-0.023,1.013,0.000,0.000,0.000,0.3110,-9,-3,-1.78,-0.43,6.02,0.2628,0.2703,0.3141,0.0839,-0.0462,0.3000,0.2662,-0.03,16.45,160.92,0.6060,0.0000,0.7950,1.4390,2.4150,0,-0.1481,-0.0071,0.0000,0.4057,0.2249,0
17514,0.0593,-0.0997,0.3133,0.4296,0.0674,-0.0504,-0.05,0.78,-5.41,0,3.415,6.968,-22.660,3.036,-0.011,-0.022,1.021,0.000,0.000,0.000,0.3100,-2,-10,-1.32,0.94,5.44,0.2744,0.2918,0.3118,0.0839,-0.0462,0.3000,0.2675,-0.66,17.53,162.28,0.5650,0.0000,0.7700,1.4390,2.4090,0,-0.1481,-0.0071,0.0000,0.4057,0.2249,0
17565,0.0770,-0.0998,0.3104,0.4146,0.0594,-0.0447,0.31,2.14,-5.23,0,3.415,-5.169,-28.115,6.383,-0.018,-0.016,1.033,0.000,0.000,0.000,0.3090,-3,-4,-0.93,2.01,5.90,0.3015,0.3043,0.3100,0.0839,-0.0462,0.3000,0.2674,-1.04,18.02,157.00,0.5650,0.0000,0.7700,1.3910,2.4090,0,-0.1481,-0.0071,0.0000,0.4057,0.2249,0
17616,0.0992,-0.1009,0.3087,0.4003,0.0482,-0.0301,0.20,3.60,-4.92,0,3.410,-6.018,-22.788,8.720,-0.016,-0.015,1.029,0.000,0.000,0.000,0.3090,6,-4,-1.19,3.48,6.26,0.3131,0.3151,0.3103,0.0839,-0.0462,0.3000,0.2661,-1.64,18.89,147.61,0.5230,0.0000,0.7440,1.3910,2.4180,0,-0.1481,-0.0071,0.0000,0.4057,0.2249,0
17667,0.1141,-0.0981,0.3081,0.3588,0.0498,-0.0125,-0.03,4.67,-4.47,0,3.415,-0.620,-10.481,11.437,-0.016,-0.022,1.028,0.000,0.000,0.000,0.3140,1,-6,-1.37,4.65,6.92,0.3262,0.3014,0.3132,0.0839,-0.0462,0.3000,0.2643,-1.38,18.21,134.21,0.5230,0.0000,0.7440,1.3670,2.4180,0,-0.1481,-0.0071,0.0000,0.4057,0.2249,0
17718,0.1295,-0.1007,0.3105,0.3143,0.0405,0.0125,-0.06,5.20,-3.93,0,3.426,-8.363,-3.996,9.704,-0.012,-0.017,1.019,0.000,0.000,0.000,0.3160,-2,-2,-1.40,5.13,7.54,0.3446,0.3015,0.3151,0.0839,-0.0462,0.3000,0.2612,-2.02,17.50,117.93,0.4830,0.1200,0.7240,1.3670,2.4180,0,-0.1481,-0.0071,0.0000,0.4057,0.2249,0
17770,0.1439,-0.0957,0.3134,0.2687,0.0515,0.0318,-0.55,5.48,-3.43,0,3.421,-0.867,2.904,6.871,-0.007,-0.017,1.009,0.000,0.000,0.000,0.3160,-3,-2,-1.88,5.35,8.04,0.3504,0.3087,0.3174,0.0839,-0.0462,0.3000,0.2586,-1.16,16.62,102.80,0.4830,0.1200,0.7240,1.3700,2.4180,0,-0.1481,-0.0071,0.0000,0.4057,0.2249,0
17821,0.1545,-0.0978,0.3155,0.2180,0.0463,0.0379,-0.64,5.34,-3.05,0,3.431,-1.412,6.712,8.511,-0.003,-0.014,1.001,0.000,0.000,0.000,0.3180,0,-1,-1.99,5.19,8.44,0.3546,0.3192,0.3189,0.0839,-0.0462,0.3000,0.2575,-1.57,15.13,91.61,0.4490,0.1080,0.7140,1.3700,2.4100,0,-0.1481,-0.0071,0.0000,0.4057,0.2249,0
17872,0.1627,-0.0963,0.3178,0.1673,0.0511,0.0401,-0.60,4.84,-2.68,0,3.426,-6.649,11.672,8.494,-0.002,-0.016,0.997,0.000,0.000,0.000,0.3180,0,0,-2.05,4.85,8.74,0.3585,0.3187,0.3209,0.0839,-0.0462,0.3000,0.2568,-1.23,13.43,80.27,0.4490,0.1080,0.7140,1.3730,2.4100,0,-0.1481,-0.0071,0.0000,0.4057,0.2249,0
17923,0.1685,-0.0923,0.3190,0.1226,0.0616,0.0317,-0.95,4.25,-2.24,0,3.431,-0.910,13.032,7.336,-0.000,-0.018,0.990,0.000,0.000,0.000,0.3200,-2,0,-2.42,4.24,9.16,0.3599,0.3248,0.3218,0.0839,-0.0462,0.3000,0.2575,-0.44,11.75,67.23,0.4220,0.1080,0.6990,1.3730,2.4050,0,-0.1481,-0.0071,0.0000,0.4057,0.2249,0
17974,0.1751,-0.0922,0.3204,0.0904,0.0630,0.0261,-1.02,3.64,-1.89,0,3.421,5.619,12.478,6.565,-0.003,-0.024,0.984,0.000,0.000,0.000,0.3210,-1,1,-2.42,3.57,9.30,0.3607,0.3197,0.3231,0.0839,-0.0462,0.3000,0.2579,-0.36,10.71,56.61,0.4220,0.1080,0.6990,1.3740,2.4050,0,-0.1481,-0.0071,0.0000,0.4057,0.2249,0
18025,0.1794,-0.0895,0.3213,0.0611,0.0706,0.0188,-0.81,3.04,-1.60,0,3.431,3.246,10.289,4.039,-0.001,-0.020,0.989,0.000,0.000,0.000,0.3220,0,-1,-2.14,2.93,9.57,0.3577,0.3224,0.3234,0.0839,-0.0462,0.3000,0.2585,0.20,9.62,47.97,0.4070,0.1070,0.6910,1.3740,2.4040,0,-0.1481,-0.0071,0.0000,0.4057,0.2249,0
18075,0.1793,-0.0873,0.3221,0.0294,0.0743,0.0123,-0.64,2.52,-1.42,0,3.421,3.856,11.905,3.008,0.003,-0.020,0.991,0.000,0.000,0.000,0.3220,1,1,-1.95,2.37,9.68,0.3601,0.3231,0.3239,0.0839,-0.0462,0.3000,0.2590,0.52,8.13,42.45,0.4070,0.1070,0.6910,1.3780,2.4040,0,-0.1481,-0.0071,0.0000,0.4057,0.2249,0
18127,0.1790,-0.0809,0.3223,0.0047,0.0875,0.0065,-0.52,1.89,-1.25,0,3.426,3.881,12.290,1.960,0.004,-0.019,0.992,0.000,0.000,0.000,0.3170,0,0,-1.72,1.77,9.67,0.3584,0.3194,0.3239,0.0839,-0.0462,0.3000,0.2596,1.61,6.93,37.36,0.4000,0.1090,0.6870,1.3780,2.4010,0,-0.1481,-0.0071,0.0000,0.4057,0.2249,0
18178,0.1787,-0.0786,0.3202,-0.0118,0.0871,-0.0093,-0.34,1.20,-1.14,0,3.415,7.134,13.849,1.233,0.001,-0.023,0.999,0.000,0.000,0.000,0.3210,0,5,-1.52,1.13,9.75,0.3543,0.3226,0.3219,0.0839,-0.0462,0.3000,0.2617,1.74,6.08,34.26,0.4000,0.1090,0.6870,1.3790,2.4010,0,-0.1481,-0.0071,0.0000,0.4057,0.2249,0
18228,0.1791,-0.0784,0.3203,-0.0186,0.0800,-0.0081,0.04,0.55,-1.08,0,3.421,1.842,10.068,0.788,0.002,-0.024,0.997,0.000,0.000,0.000,0.3190,0,1,-1.09,0.48,9.57,0.3437,0.3110,0.3215,0.0839,-0.0462,0.3000,0.2616,1.42,5.80,32.54,0.3960,0.1090,0.6800,1.3790,2.3970,0,-0.1481,-0.0071,0.0000,0.4057,0.2249,0
18280,0.1749,-0.0750,0.3195,-0.0307,0.0789,-0.0103,0.13,0.04,-1.02,0,3.415,0.199,10.408,1.366,0.005,-0.025,1.001,0.000,0.000,0.000,0.3190,-2,0,-0.99,-0.04,9.58,0.3396,0.3107,0.3206,0.0839,-0.0462,0.3000,0.2619,1.61,4.93,30.68,0.3960,0.1090,0.6800,1.3910,2.3970,0,-0.1481,-0.0071,0.0000,0.4057,0.2249,0
18331,0.1735,-0.0760,0.3190,-0.0305,0.0654,-0.0098,0.18,-0.45,-0.97,0,3.415,0.860,6.683,3.584,0.004,-0.022,1.002,0.000,0.000,0.000,0.3170,2,0,-1.00,-0.61,9.69,0.3370,0.3162,0.3200,0.0839,-0.0462,0.3000,0.2620,0.90,4.84,28.98,0.3920,0.1070,0.6730,1.3910,2.4050,0,-0.1481,-0.0071,0.0000,0.4057,0.2249,0
18382,0.1737,-0.0800,0.3179,-0.0231,0.0458,-0.0119,0.33,-0.79,-0.83,0,3.415,-6.403,1.457,4.141,0.006,-0.023,1.002,0.000,0.000,0.000,0.3170,-1,0,-0.91,-0.98,9.81,0.3376,0.3108,0.3189,0.0839,-0.0462,0.3000,0.2624,-0.31,5.19,24.94,0.3920,0.1070,0.6730,1.3960,2.4050,0,-0.1481,-0.0071,0.0000,0.4057,0.2249,0
18433,0.1709,-0.0735,0.3171,-0.0208,0.0538,-0.0126,-0.08,-0.83,-0.56,0,3.421,-5.064,-1.525,5.343,-0.001,-0.019,1.001,0.000,0.000,0.000,0.3200,-3,0,-1.25,-1.07,10.03,0.3365,0.3135,0.3180,0.0839,-0.0462,0.3000,0.2626,0.53,5.10,16.90,0.3930,0.1080,0.6650,1.3960,2.4070,0,-0.1481,-0.0071,0.0000,0.4057,0.2249,0
18485,0.1720,-0.0693,0.3179,-0.0091,0.0579,-0.0053,-0.40,-0.74,-0.30,0,3.421,6.369,-0.093,6.221,-0.006,-0.021,0.996,0.000,0.000,0.000,0.3190,0,0,-1.54,-1.01,10.33,0.3344,0.3219,0.3181,0.0839,-0.0462,0.3000,0.2617,1.02,5.75,9.01,0.3930,0.1080,0.6650,1.4000,2.4070,0,-0.1481,-0.0071,0.0000,0.4057,0.2249,0
18537,0.1738,-0.0686,0.3183,0.0023,0.0556,-0.0021,-0.12,-0.70,0.00,0,3.421,5.540,-7.648,6.607,-0.008,-0.022,0.999,0.000,0.000,0.000,0.3190,1,0,-1.21,-1.01,10.65,0.3324,0.3243,0.3179,0.0839,-0.0462,0.3000,0.2613,0.96,6.41,-0.04,0.3900,0.0980,0.6610,1.4000,2.4030,0,-0.1481,-0.0071,0.0000,0.4057,0.2249,0
18588,0.1779,-0.0690,0.3185,0.0175,0.0490,-0.0015,0.15,-0.52,0.29,0,3.415,-6.547,-10.537,4.812,-0.000,-0.022,1.000,0.000,0.000,0.000,0.3180,2,-2,-0.85,-0.64,11.00,0.3361,0.3160,0.3181,0.0839,-0.0462,0.3000,0.2612,0.62,7.42,-8.61,0.3900,0.0980,0.6610,1.3940,2.4030,0,-0.1481,-0.0071,0.0000,0.4057,0.2249,0
18639,0.1796,-0.0696,0.3182,0.0236,0.0412,-0.0023,-0.03,-0.04,0.54,0,3.421,-5.779,-9.395,4.628,-0.005,-0.022,0.994,0.000,0.000,0.000,0.3160,-1,0,-1.15,-0.14,11.25,0.3413,0.3126,0.3177,0.0839,-0.0462,0.3000,0.2613,0.21,7.82,-16.18,0.3900,0.1030,0.6550,1.3940,2.3960,0,-0.1481,-0.0071,0.0000,0.4057,0.2249,0
18690,0.1841,-0.0680,0.3172,0.0319,0.0407,-0.0086,-0.24,0.33,0.78,0,3.415,0.285,-6.136,3.014,-0.003,-0.019,0.997,0.000,0.000,0.000,0.3190,3,0,-1.46,0.34,11.50,0.3410,0.3147,0.3168,0.0839,-0.0462,0.3000,0.2622,0.30,8.48,-23.52,0.3900,0.1030,0.6550,1.3840,2.3960,0,-0.1481,-0.0071,0.0000,0.4057,0.2249,0
18741,0.1874,-0.0706,0.3177,0.0331,0.0326,-0.0042,-0.32,0.59,0.98,0,3.421,-1.874,-6.496,2.480,-0.003,-0.021,1.000,0.000,0.000,0.000,0.3180,-3,0,-1.40,0.65,11.66,0.3425,0.3075,0.3169,0.0839,-0.0462,0.3000,0.2616,-0.27,8.79,-29.35,0.3890,0.0960,0.6440,1.3840,2.4040,0,-0.1481,-0.0071,0.0000,0.4057,0.2249,0
18792,0.1915,-0.0725,0.3177,0.0342,0.0270,-0.0051,-0.42,0.85,1.10,0,3.415,-5.841,-8.307,1.425,-0.004,-0.023,0.997,0.000,0.000,0.000,0.3200,5,-1,-1.55,0.97,11.80,0.3409,0.3150,0.3169,0.0839,-0.0462,0.3000,0.2617,-0.67,9.13,-33.08,0.3890,0.0960,0.6440,1.3780,2.4040,0,-0.1481,-0.0071,0.0000,0.4057,0.2249,0
18843,0.1944,-0.0654,0.3185,0.0301,0.0437,0.0001,-0.55,1.17,1.14,0,3.421,1.029,-4.763,-1.857,-0.002,-0.022,0.994,0.000,0.000,0.000,0.3190,-2,0,-1.76,1.37,11.86,0.3464,0.3021,0.3177,0.0839,-0.0462,0.3000,0.2610,0.62,9.16,-34.24,0.3890,0.0880,0.6330,1.3780,2.4020,0,-0.1481,-0.0071,0.0000,0.4057,0.2249,0
18894,0.1961,-0.0681,0.3187,0.0211,0.0370,-0.0006,-0.47,1.42,1.06,0,3.415,0.994,-4.603,-3.251,0.001,-0.025,0.992,0.000,0.000,0.000,0.3160,1,-1,-1.76,1.61,11.80,0.3450,0.3076,0.3178,0.0839,-0.0462,0.3000,0.2610,0.12,8.86,-31.70,0.3890,0.0880,0.6330,1.3790,2.4020,0,-0.1481,-0.0071,0.0000,0.4057,0.2249,0
18946,0.1974,-0.0639,0.3175,0.0101,0.0461,-0.0088,-0.41,1.60,0.91,0,3.421,1.678,0.733,-2.950,-0.003,-0.025,0.994,0.000,0.000,0.000,0.3160,0,0,-1.68,1.83,11.63,0.3485,0.3051,0.3167,0.0839,-0.0462,0.3000,0.2622,0.84,8.41,-27.28,0.3940,0.0800,0.6250,1.3790,2.3970,0,-0.1481,-0.0071,0.0000,0.4057,0.2249,0
18997,0.1979,-0.0581,0.3165,-0.0028,0.0579,-0.0137,-0.36,1.62,0.76,0,3.410,4.500,-0.331,-3.629,-0.007,-0.021,0.997,0.000,0.000,0.000,0.3150,-1,0,-1.59,1.79,11.47,0.3473,0.3041,0.3157,0.0839,-0.0462,0.3000,0.2629,1.80,7.83,-22.85,0.3940,0.0800,0.6250,1.3880,2.3970,0,-0.1481,-0.0071,0.0000,0.4057,0.2249,0
19050,0.1977,-0.0538,0.3153,-0.0159,0.0638,-0.0176,-0.19,1.62,0.60,0,3.415,5.196,3.450,-2.979,0.002,-0.020,0.999,0.000,0.000,0.000,0.3170,0,0,-1.39,1.78,11.33,0.3500,0.3107,0.3147,0.0839,-0.0462,0.3000,0.2635,2.38,7.20,-18.05,0.4000,0.0760,0.6160,1.3880,2.4070,0,-0.1481,-0.0071,0.0000,0.4057,0.2249,0
19101,0.1970,-0.0518,0.3154,-0.0288,0.0624,-0.0148,0.12,1.51,0.45,0,3.415,-0.647,-0.035,-4.985,0.003,-0.021,0.994,0.000,0.000,0.000,0.3110,0,0,-1.11,1.60,11.17,0.3480,0.3109,0.3145,0.0839,-0.0462,0.3000,0.2632,2.45,6.56,-13.38,0.4000,0.0760,0.6160,1.3940,2.4070,0,-0.1481,-0.0071,0.0000,0.4057,0.2249,0
19152,0.1944,-0.0444,0.3130,-0.0437,0.0719,-0.0264,0.09,1.50,0.19,0,3.415,4.984,5.193,-9.938,0.003,-0.023,1.003,0.000,0.000,0.000,0.3140,-5,3,-1.14,1.60,10.91,0.3454,0.3109,0.3124,0.0839,-0.0462,0.3000,0.2649,3.40,5.65,-5.63,0.4020,0.0740,0.6090,1.3940,2.4060,0,-0.1481,-0.0071,0.0000,0.4057,0.2249,0
19204,0.1906,-0.0427,0.3125,-0.0594,0.0667,-0.0225,0.38,1.31,-0.32,0,3.410,12.341,17.731,-15.812,0.002,-0.024,1.002,0.000,0.000,0.000,0.3110,-1,3,-0.98,1.35,10.55,0.3379,0.3298,0.3116,0.0839,-0.0462,0.3000,0.2646,3.28,4.66,9.72,0.4020,0.0740,0.6090,1.4150,2.4060,0,-0.1481,-0.0071,0.0000,0.4057,0.2249,0
19255,0.1896,-0.0437,0.3112,-0.0651,0.0529,-0.0211,1.13,0.52,-1.13,0,3.415,-0.616,9.376,-20.025,0.010,-0.025,1.003,0.000,0.000,0.000,0.3100,3,2,-0.33,0.45,9.72,0.3311,0.3320,0.3104,0.0839,-0.0462,0.3000,0.2647,2.57,4.33,33.89,0.4010,0.0000,0.6010,1.4150,2.4100,0,-0.1481,-0.0071,0.0000,0.4057,0.2249,0
19306,0.1861,-0.0417,0.3100,-0.0697,0.0433,-0.0205,1.23,-0.06,-1.90,0,3.410,5.231,-5.455,-16.821,0.006,-0.019,1.013,0.000,0.000,0.000,0.3100,0,3,-0.31,-0.01,8.65,0.3269,0.3272,0.3096,0.0839,-0.0462,0.3000,0.2648,2.26,3.87,57.03,0.4010,0.0000,0.6010,1.4620,2.4100,0,-0.1481,-0.0071,0.0000,0.4057,0.2249,0
19357,0.1822,-0.0455,0.3095,-0.0703,0.0199,-0.0127,1.52,0.13,-2.98,0,3.415,-6.518,1.109,-15.163,0.005,-0.025,0.996,0.000,0.000,0.000,0.3080,3,2,-0.03,0.29,7.80,0.3195,0.3267,0.3090,0.0839,-0.0462,0.3000,0.2641,0.90,3.58,89.33,0.3990,0.0000,0.5970,1.4620,2.4160,0,-0.1481,-0.0071,0.0000,0.4057,0.2249,0
19408,0.1771,-0.0446,0.3084,-0.0753,0.0079,-0.0134,1.44,0.14,-3.59,0,3.415,-25.056,14.230,-12.088,0.008,-0.017,1.005,0.000,0.000,0.000,0.3090,2,4,-0.31,0.24,7.01,0.3147,0.3197,0.3079,0.0839,-0.0462,0.3000,0.2643,0.40,2.99,107.73,0.3990,0.0000,0.5970,1.4900,2.4160,0,-0.1481,-0.0071,0.0000,0.4057,0.2249,0
19460,0.1751,-0.0485,0.3082,-0.0716,-0.0115,-0.0109,0.12,-0.62,-4.32,0,3.415,-1.446,-1.686,-5.488,0.004,-0.013,1.006,0.000,0.000,0.000,0.3100,0,0,-1.57,-0.43,6.40,0.3047,0.3140,0.3073,0.0839,-0.0462,0.3000,0.2641,-0.79,3.03,129.62,0.3990,0.0000,0.5860,1.4900,2.4150,0,-0.1481,-0.0071,0.0000,0.4057,0.2249,0
19513,0.1688,-0.0476,0.3087,-0.0724,-0.0105,-0.0019,0.04,-0.61,-4.56,0,3.415,-1.212,-3.826,1.512,0.004,-0.017,1.006,0.000,0.000,0.000,0.3100,-1,0,-1.65,-0.34,6.12,0.2987,0.3112,0.3077,0.0839,-0.0462,0.3000,0.2631,-0.68,2.56,136.84,0.3990,0.0000,0.5860,1.5030,2.4150,0,-0.1481,-0.0071,0.0000,0.4057,0.2249,0
19564,0.1664,-0.0467,0.3093,-0.0646,-0.0077,0.0033,-0.07,-0.42,-4.50,0,3.415,-7.458,-4.827,4.196,0.006,-0.013,1.002,0.000,0.000,0.000,0.3050,0,-2,-1.76,-0.23,6.16,0.3065,0.3176,0.3090,0.0839,-0.0462,0.3000,0.2624,-0.48,2.77,134.94,0.4010,0.0000,0.5870,1.5030,2.4190,0,-0.1481,-0.0071,0.0000,0.4057,0.2249,0
19616,0.1660,-0.0461,0.3075,-0.0549,-0.0055,-0.0053,-0.35,-0.20,-4.29,0,3.410,1.293,-17.677,4.933,0.001,-0.017,1.000,0.000,0.000,0.000,0.3040,-4,0,-2.14,-0.03,6.36,0.3097,0.3180,0.3078,0.0839,-0.0462,0.3000,0.2636,-0.33,3.18,128.62,0.4010,0.0000,0.5870,1.5080,2.4190,0,-0.1481,-0.0071,0.0000,0.4057,0.2249,0
19667,0.1657,-0.0439,0.3058,-0.0478,0.0026,-0.0122,-0.37,0.61,-4.02,0,3.410,5.909,-18.888,5.446,0.008,-0.014,1.000,0.000,0.000,0.000,0.3090,-2,-1,-2.13,0.87,6.65,0.3084,0.3267,0.3062,0.0839,-0.0462,0.3000,0.2647,0.20,3.48,120.75,0.4030,0.0300,0.5860,1.5080,2.4150,0,-0.1481,-0.0071,0.0000,0.4057,0.2249,0
19718,0.1654,-0.0468,0.3068,-0.0479,-0.0015,-0.0047,-0.10,1.44,-3.73,0,3.410,1.042,-12.219,6.900,0.004,-0.020,1.006,0.000,0.000,0.000,0.3050,-1,0,-1.85,1.80,6.96,0.3096,0.3323,0.3067,0.0839,-0.0462,0.3000,0.2637,-0.19,3.47,111.91,0.4030,0.0300,0.5860,1.4990,2.4150,0,-0.1481,-0.0071,0.0000,0.4057,0.2249,0
19769,0.1673,-0.0455,0.3059,-0.0494,0.0031,-0.0083,-0.04,1.80,-3.46,0,3.410,1.073,-4.059,6.131,0.001,-0.023,1.000,0.000,0.000,0.000,0.3030,-1,0,-1.81,2.40,7.33,0.3089,0.3355,0.3062,0.0839,-0.0462,0.3000,0.2643,0.12,3.53,103.92,0.4130,0.0390,0.5930,1.4990,2.4100,0,-0.1481,-0.0071,0.0000,0.4057,0.2249,0
19820,0.1666,-0.0450,0.3043,-0.0604,0.0049,-0.0136,-0.01,2.05,-3.17,0,3.410,3.306,-3.752,4.639,0.005,-0.021,1.005,0.000,0.000,0.000,0.3070,0,0,-1.76,2.59,7.65,0.3082,0.3385,0.3052,0.0839,-0.0462,0.3000,0.2651,0.23,2.95,95.14,0.4130,0.0390,0.5930,1.5010,2.4100,0,-0.1481,-0.0071,0.0000,0.4057,0.2249,0
19872,0.1640,-0.0457,0.3051,-0.0768,0.0034,-0.0050,0.12,2.37,-2.95,0,3.410,1.346,0.142,3.378,0.006,-0.016,1.002,0.000,0.000,0.000,0.3080,5,0,-1.61,2.77,7.89,0.3048,0.3424,0.3056,0.0839,-0.0462,0.3000,0.2641,0.11,2.01,88.62,0.4220,0.0400,0.5980,1.5010,2.4200,0,-0.1481,-0.0071,0.0000,0.4057,0.2249,0
19923,0.1585,-0.0424,0.3062,-0.1003,0.0106,0.0030,0.16,2.50,-2.80,0,3.410,-1.132,5.435,2.429,0.004,-0.017,1.003,0.000,0.000,0.000,0.3080,2,6,-1.33,2.69,7.80,0.3168,0.3145,0.3083,0.0839,-0.0462,0.3000,0.2630,0.69,0.53,83.91,0.4220,0.0400,0.5980,1.4990,2.4200,0,-0.1481,-0.0071,0.0000,0.4057,0.2249,0
19974,0.1582,-0.0464,0.3071,-0.1099,0.0001,0.0067,0.20,2.20,-2.68,0,3.415,-3.219,10.617,3.002,0.001,-0.022,0.997,0.000,0.000,0.000,0.3050,4,2,-1.37,2.48,7.87,0.3046,0.3075,0.3082,0.0839,-0.0462,0.3000,0.2624,-0.09,0.06,80.30,0.4340,0.0000,0.6030,1.4990,2.4220,0,-0.1481,-0.0071,0.0000,0.4057,0.2249,0
20025,0.1516,-0.0476,0.3064,-0.1287,-0.0030,-0.0009,0.07,1.65,-2.55,0,3.410,-1.584,9.431,1.106,0.007,-0.019,1.000,0.000,0.000,0.000,0.3040,-1,2,-1.48,1.94,7.91,0.3008,0.2963,0.3072,0.0839,-0.0462,0.3000,0.2634,-0.32,-1.29,76.64,0.4340,0.0000,0.6030,1.4950,2.4220,0,-0.1481,-0.0071,0.0000,0.4057,0.2249,0
20076,0.1457,-0.0518,0.3053,-0.1399,-0.0117,-0.0059,-0.07,1.24,-2.48,0,3.410,-3.104,7.701,-0.396,0.002,-0.019,0.998,0.000,0.000,0.000,0.3050,1,3,-1.60,1.45,8.02,0.2938,0.2976,0.3066,0.0839,-0.0462,0.3000,0.2641,-1.02,-2.22,74.28,0.4450,0.0500,0.6090,1.4950,2.4150,0,-0.1481,-0.0071,0.0000,0.4057,0.2249,0
20127,0.1380,-0.0518,0.3050,-0.1502,-0.0092,-0.0077,-0.21,0.77,-2.50,0,3.410,-7.267,10.559,-1.740,0.012,-0.016,1.004,0.000,0.000,0.000,0.3060,1,1,-1.76,1.07,7.98,0.2856,0.2934,0.3060,0.0839,-0.0462,0.3000,0.2644,-0.91,-3.24,74.88,0.4450,0.0500,0.6090,1.5040,2.4150,0,-0.1481,-0.0071,0.0000,0.4057,0.2249,0
20178,0.1292,-0.0515,0.3051,-0.1586,-0.0046,-0.0051,-0.60,0.27,-2.58,0,3.410,-1.877,8.953,-1.185,0.008,-0.016,1.002,0.000,0.000,0.000,0.3030,4,1,-2.12,0.51,7.86,0.2823,0.2900,0.3062,0.0839,-0.0462,0.3000,0.2641,-0.67,-4.25,77.33,0.4530,0.0000,0.6040,1.5040,2.4140,0,-0.1481,-0.0071,0.0000,0.4057,0.2249,0
20229,0.1241,-0.0502,0.3040,-0.1530,0.0046,-0.0094,-0.78,-0.25,-2.64,0,3.405,8.728,9.850,-2.368,0.006,-0.021,1.005,0.000,0.000,0.000,0.3030,-5,4,-2.15,0.03,7.71,0.2810,0.2780,0.3055,0.0839,-0.0462,0.3000,0.2647,-0.14,-4.33,79.26,0.4530,0.0000,0.6040,1.5020,2.4140,0,-0.1481,-0.0071,0.0000,0.4057,0.2249,0
20279,0.1184,-0.0516,0.3034,-0.1457,0.0070,-0.0072,-0.53,-0.67,-2.70,0,3.410,2.029,7.022,-2.517,0.007,-0.023,1.005,0.000,0.000,0.000,0.3060,2,0,-1.82,-0.43,7.67,0.2671,0.2907,0.3051,0.0839,-0.0462,0.3000,0.2646,-0.13,-4.40,80.93,0.4640,0.0000,0.6170,1.5020,2.4130,0,-0.1481,-0.0071,0.0000,0.4057,0.2249,0
20331,0.1107,-0.0507,0.3044,-0.1400,0.0115,0.0026,-0.36,-1.14,-2.82,0,3.410,1.550,1.818,-4.082,0.006,-0.019,1.008,0.000,0.000,0.000,0.3070,-1,3,-1.68,-0.82,7.52,0.2669,0.2851,0.3059,0.0839,-0.0462,0.3000,0.2634,0.14,-4.68,84.62,0.4640,0.0000,0.6170,1.5020,2.4130,0,-0.1481,-0.0071,0.0000,0.4057,0.2249,0
20383,0.1068,-0.0576,0.3057,-0.1230,-0.0046,0.0117,-0.21,-1.33,-3.01,0,3.410,-3.690,-0.046,-3.291,0.005,-0.025,0.997,0.000,0.000,0.000,0.3050,3,2,-1.62,-0.89,7.30,0.2576,0.2868,0.3066,0.0839,-0.0462,0.3000,0.2622,-1.11,-4.19,90.21,0.4790,0.0000,0.6260,1.5020,2.4170,0,-0.1481,-0.0071,0.0000,0.4057,0.2249,0
20434,0.1020,-0.0526,0.3058,-0.1089,0.0092,0.0094,-0.31,-1.35,-3.19,0,3.410,-1.727,7.279,-3.070,0.004,-0.023,0.996,0.000,0.000,0.000,0.3060,-2,3,-1.76,-0.87,7.13,0.2528,0.2773,0.3066,0.0839,-0.0462,0.3000,0.2624,-0.10,-3.86,95.68,0.4790,0.0000,0.6260,1.5140,2.4170,0,-0.1481,-0.0071,0.0000,0.4057,0.2249,0
20485,0.0954,-0.0530,0.3062,-0.1007,0.0093,0.0081,-0.48,-1.56,-3.37,0,3.415,-0.422,4.168,-3.311,0.008,-0.017,0.996,0.000,0.000,0.000,0.3070,1,1,-1.90,-1.21,6.95,0.2434,0.2818,0.3066,0.0839,-0.0462,0.3000,0.2624,-0.13,-3.94,101.09,0.4890,0.0000,0.6270,1.5140,2.4120,0,-0.1481,-0.0071,0.0000,0.4057,0.2249,0
20536,0.0907,-0.0507,0.3067,-0.0865,0.0160,0.0063,-0.41,-1.81,-3.52,0,3.405,5.928,-4.716,-1.552,0.011,-0.018,0.995,0.000,0.000,0.000,0.3040,3,0,-1.90,-1.43,6.78,0.2405,0.2786,0.3069,0.0839,-0.0462,0.3000,0.2625,0.36,-3.60,105.64,0.4890,0.0000,0.6270,1.5140,2.4120,0,-0.1481,-0.0071,0.0000,0.4057,0.2249,0
20587,0.0863,-0.0501,0.3057,-0.0721,0.0177,-0.0030,-0.18,-1.62,-3.61,0,3.405,-4.770,0.803,-1.770,0.009,-0.013,0.997,0.000,0.000,0.000,0.3040,0,1,-1.54,-1.21,6.77,0.2410,0.2701,0.3061,0.0839,-0.0462,0.3000,0.2637,0.47,-3.22,108.28,0.4950,0.0000,0.6350,1.5140,2.4190,0,-0.1481,-0.0071,0.0000,0.4057,0.2249,0
20638,0.0835,-0.0490,0.3048,-0.0575,0.0189,-0.0095,-0.30,-1.57,-3.70,0,3.405,-1.820,5.096,-2.374,0.006,-0.021,0.997,0.000,0.000,0.000,0.3010,0,2,-1.79,-1.25,6.67,0.2381,0.2697,0.3052,0.0839,-0.0462,0.3000,0.2646,0.61,-2.72,111.12,0.4950,0.0000,0.6350,1.5180,2.4190,0,-0.1481,-0.0071,0.0000,0.4057,0.2249,0
20689,0.0808,-0.0475,0.3028,-0.0440,0.0220,-0.0195,-0.43,-1.77,-3.78,0,3.405,2.631,-3.058,-1.506,0.008,-0.021,1.007,0.000,0.000,0.000,0.3020,0,1,-1.90,-1.48,6.52,0.2322,0.2688,0.3035,0.0839,-0.0462,0.3000,0.2661,0.85,-2.27,113.41,0.4950,0.0000,0.6310,1.5180,2.4190,0,-0.1481,-0.0071,0.0000,0.4057,0.2249,0
20740,0.0775,-0.0443,0.3018,-0.0323,0.0305,-0.0184,-0.34,-1.66,-3.88,0,3.399,5.169,-3.419,-2.475,0.001,-0.017,1.009,0.000,0.000,0.000,0.3010,-2,1,-1.76,-1.31,6.45,0.2292,0.2684,0.3027,0.0839,-0.0462,0.3000,0.2661,1.47,-1.95,116.26,0.4950,0.0000,0.6310,1.5160,2.4190,0,-0.1481,-0.0071,0.0000,0.4057,0.2249,0
20793,0.0767,-0.0433,0.3009,-0.0168,0.0313,-0.0144,-0.16,-1.52,-3.98,0,3.405,5.891,6.285,-1.158,0.004,-0.024,1.007,0.000,0.000,0.000,0.3000,1,0,-1.54,-1.12,6.27,0.2259,0.2737,0.3018,0.0839,-0.0462,0.3000,0.2659,1.58,-1.29,119.48,0.5010,0.0000,0.6330,1.5160,2.4160,0,-0.1481,-0.0071,0.0000,0.4057,0.2249,0
20844,0.0767,-0.0442,0.3001,-0.0024,0.0249,-0.0110,0.12,-1.65,-4.03,0,3.399,0.627,2.936,-0.379,0.006,-0.021,1.010,0.000,0.000,0.000,0.2990,0,0,-1.20,-1.46,6.24,0.2260,0.2708,0.3012,0.0839,-0.0462,0.3000,0.2657,1.22,-0.62,121.03,0.5010,0.0000,0.6330,1.5220,2.4160,0,-0.1481,-0.0071,0.0000,0.4057,0.2249,0
20895,0.0767,-0.0444,0.2994,0.0116,0.0195,-0.0080,0.17,-1.77,-4.05,0,3.405,-2.236,-6.832,0.915,0.006,-0.020,1.012,0.000,0.000,0.000,0.3000,0,-2,-1.17,-1.61,6.22,0.2260,0.2713,0.3005,0.0839,-0.0462,0.3000,0.2655,0.95,0.03,121.59,0.4970,0.0000,0.6350,1.5220,2.4180,0,-0.1481,-0.0071,0.0000,0.4057,0.2249,0
