time_ms,pos_x,pos_y,pos_z,vel_x,vel_y,vel_z,roll,pitch,yaw,thrust,vbat,gyro_x,gyro_y,gyro_z,acc_x,acc_y,acc_z,rate_roll,rate_pitch,rate_yaw,range_z,flow_dx,flow_dy,mekf_roll,mekf_pitch,mekf_yaw,mekf_x,mekf_y,mekf_z,our_ref_x,our_ref_y,our_ref_z,our_thrust,our_roll_cmd,our_pitch_cmd,our_yaw_rate_cmd,multi_front,multi_back,multi_left,multi_right,multi_up,ai_feat_count,vo_x,vo_y,vo_sigma,pg_x,pg_y,lc_count
0,0.9472,0.9076,0.0110,-0.0038,-0.0061,-0.0064,-0.00,-0.05,-36.64,0,3.806,0.321,0.094,-0.020,0.002,0.003,1.000,0.000,0.000,0.000,0.0120,0,0,0.00,0.00,0.00,0.0000,0.0000,0.0000,0.0000,0.0000,0.0000,0.0000,0.00,0.00,0.00,0.9090,0.2760,1.1270,1.1550,2.7050,4,0.0000,0.0000,0.0000,0.0000,0.0000,0
101,0.9472,0.9072,0.0113,-0.0022,-0.0065,-0.0039,-0.00,-0.05,-36.46,0,3.816,0.012,-0.140,-0.132,-0.003,0.000,0.999,0.000,0.000,0.000,0.0140,-1,-3,0.00,0.00,0.00,0.0000,0.0000,0.0000,0.0000,0.0000,0.0000,0.0000,0.00,0.00,0.00,0.8990,0.2580,1.1240,1.1510,2.6990,4,0.0000,0.0000,0.0000,0.0000,0.0000,0
203,0.9473,0.9073,0.0125,-0.0014,-0.0048,0.0021,-0.02,-0.08,-36.28,0,3.806,0.123,-0.106,0.201,-0.001,-0.001,1.001,0.000,0.000,0.000,0.0140,-7,2,0.00,0.00,0.00,0.0000,0.0000,0.0000,0.0000,0.0000,0.0000,0.0000,0.00,0.00,0.00,0.8990,0.2580,1.1240,1.1510,2.6990,4,0.0000,0.0000,0.0000,0.0000,0.0000,0
304,0.9475,0.9072,0.0134,0.0001,-0.0047,0.0060,-0.08,-0.03,-36.10,0,3.811,0.089,0.095,0.122,0.000,0.000,0.998,0.000,0.000,0.000,0.0110,-11,0,0.00,0.00,0.00,0.0000,0.0000,0.0000,0.0000,0.0000,0.0000,0.0000,0.00,0.00,0.00,0.9080,0.2640,1.1250,1.1530,2.6920,4,0.0000,0.0000,0.0000,0.0000,0.0000,0
404,0.9469,0.9076,0.0126,-0.0022,-0.0017,0.0017,-0.13,-0.02,-35.93,0,3.801,0.201,-0.044,-0.074,-0.002,0.002,1.000,0.000,0.000,0.000,0.0090,-2,0,0.00,0.00,0.00,0.0000,0.0000,0.0000,0.0000,0.0000,0.0000,0.0000,0.00,0.00,0.00,0.9080,0.2640,1.1250,1.1530,2.6920,4,0.0000,0.0000,0.0000,0.0000,0.0000,0
506,0.9473,0.9073,0.0110,0.0003,-0.0028,-0.0059,-0.04,-0.04,-35.75,0,3.811,0.240,-0.015,-0.349,-0.001,-0.001,0.999,0.000,0.000,0.000,0.0130,-15,-6,0.00,0.00,0.00,0.0000,0.0000,0.0000,0.0000,0.0000,0.0000,0.0000,0.00,0.00,0.00,0.9040,0.2640,1.1260,1.1550,2.6920,4,0.0000,0.0000,0.0000,0.0000,0.0000,0
607,0.9477,0.9102,0.0118,0.0009,0.0107,-0.0008,-0.23,-0.04,-35.58,0,3.806,0.068,0.083,-0.086,0.000,0.000,1.001,0.000,0.000,0.000,0.0150,-6,1,0.00,0.00,0.00,0.0000,0.0000,0.0000,0.0000,0.0000,0.0000,0.0000,0.00,0.00,0.00,0.9040,0.2640,1.1260,1.1550,2.6920,4,0.0000,0.0000,0.0000,0.0000,0.0000,0
709,0.9448,0.9054,0.0136,-0.0140,-0.0142,0.0081,0.07,0.00,-35.41,0,3.816,0.017,0.076,0.031,-0.000,-0.000,1.001,0.000,0.000,0.000,0.0140,-6,-5,0.00,0.00,0.00,0.0000,0.0000,0.0000,0.0000,0.0000,0.0000,0.0000,0.00,0.00,0.00,0.9110,0.0000,1.1240,1.1570,2.6990,4,0.0000,0.0000,0.0000,0.0000,0.0000,0
811,0.9438,0.9052,0.0142,-0.0164,-0.0135,0.0089,0.06,-0.04,-35.23,0,3.806,-0.309,0.205,0.021,-0.003,0.002,0.997,0.000,0.000,0.000,0.0110,-4,0,0.00,0.00,0.00,0.0000,0.0000,0.0000,0.0000,0.0000,0.0000,0.0000,0.00,0.00,0.00,0.9110,0.0000,1.1240,1.1570,2.6990,4,0.0000,0.0000,0.0000,0.0000,0.0000,0
913,0.9434,0.9034,0.0129,-0.0166,-0.0200,0.0004,0.12,-0.02,-35.06,0,3.811,-0.068,0.243,0.010,-0.000,-0.002,0.999,0.000,0.000,0.000,0.0080,-3,-2,0.00,0.00,0.00,0.0000,0.0000,0.0000,0.0000,0.0000,0.0000,0.0000,0.00,0.00,0.00,0.9080,0.2600,1.1250,1.1590,2.6950,4,0.0000,0.0000,0.0000,0.0000,0.0000,0
1014,0.9433,0.9039,0.0106,-0.0147,-0.0139,-0.0099,0.07,-0.03,-34.88,0,3.806,0.098,0.044,0.080,-0.000,-0.001,1.002,0.000,0.000,0.000,0.0120,0,2,0.00,0.00,0.00,0.0000,0.0000,0.0000,0.0000,0.0000,0.0000,0.0000,0.00,0.00,0.00,0.9080,0.2600,1.1250,1.1590,2.6950,4,0.0000,0.0000,0.0000,0.0000,0.0000,0
1115,0.9437,0.9042,0.0110,-0.0098,-0.0093,-0.0054,0.04,-0.01,-34.71,0,3.811,-0.109,0.048,0.182,0.000,-0.001,1.000,0.000,0.000,0.000,0.0110,2,4,0.00,0.00,0.00,0.0000,0.0000,0.0000,0.0000,0.0000,0.0000,0.0000,0.00,0.00,0.00,0.9100,0.2700,1.1270,1.1570,2.7040,4,0.0000,0.0000,0.0000,0.0000,0.0000,0
1215,0.9436,0.9035,0.0108,-0.0086,-0.0105,-0.0046,0.06,-0.01,-34.54,0,3.806,-0.070,-0.075,0.008,-0.002,-0.001,1.000,0.000,0.000,0.000,0.0110,0,-1,0.00,0.00,0.00,0.0000,0.0000,0.0000,0.0000,0.0000,0.0000,0.0000,0.00,0.00,0.00,0.9100,0.2700,1.1270,1.1570,2.7040,4,0.0000,0.0000,0.0000,0.0000,0.0000,0
1316,0.9432,0.9033,0.0107,-0.0090,-0.0097,-0.0040,0.03,-0.05,-34.37,0,3.816,-0.167,0.010,0.060,-0.001,0.000,1.001,0.000,0.000,0.000,0.0130,-1,-3,0.00,0.00,0.00,0.0000,0.0000,0.0000,0.0000,0.0000,0.0000,0.0000,0.00,0.00,0.00,0.9110,0.2670,1.1260,1.1570,2.7000,4,0.0000,0.0000,0.0000,0.0000,0.0000,0
1418,0.9438,0.9039,0.0116,-0.0033,-0.0036,0.0009,-0.05,-0.08,-34.20,0,3.811,0.026,0.248,-0.161,0.002,0.001,1.001,0.000,0.000,0.000,0.0120,-1,0,0.00,0.00,0.00,0.0000,0.0000,0.0000,0.0000,0.0000,0.0000,0.0000,0.00,0.00,0.00,0.9110,0.2670,1.1260,1.1570,2.7000,4,0.0000,0.0000,0.0000,0.0000,0.0000,0
1519,0.9430,0.9027,0.0120,-0.0066,-0.0088,0.0025,0.00,-0.05,-34.04,0,3.811,-0.077,0.211,-0.155,0.002,0.000,1.001,0.000,0.000,0.000,0.0140,0,5,0.00,0.00,0.00,0.0000,0.0000,0.0000,0.0000,0.0000,0.0000,0.0000,0.00,0.00,0.00,0.9110,0.2590,1.1310,1.1620,2.6980,4,0.0000,0.0000,0.0000,0.0000,0.0000,0
1570,0.9434,0.9026,0.0131,-0.0023,-0.0065,0.0072,-0.02,-0.02,-33.86,0,3.806,0.100,0.021,-0.228,-0.004,0.001,1.001,0.000,0.000,0.000,0.0130,0,2,0.00,0.00,0.00,0.0000,0.0000,0.0000,0.0000,0.0000,0.0000,0.0000,0.00,0.00,0.00,0.9110,0.2590,1.1310,1.1620,2.6980,4,0.0000,0.0000,0.0000,0.0000,0.0000,0
1621,0.9424,0.9022,0.0134,-0.0061,-0.0066,0.0073,0.00,-0.08,-33.70,0,3.811,-0.096,0.252,0.013,-0.002,0.002,0.999,0.000,0.000,0.000,0.0110,19,-3,0.00,0.00,0.00,0.0000,0.0000,0.0000,0.0000,0.0000,0.0000,0.0000,0.00,0.00,0.00,0.9090,0.2740,1.1250,1.1550,2.6990,4,0.0000,0.0000,0.0000,0.0000,0.0000,0
1672,0.9472,0.9087,0.0125,0.0193,0.0282,0.0012,-0.15,-0.08,-33.53,0,3.806,-0.281,-0.094,0.386,-0.002,-0.000,1.000,0.000,0.000,0.000,0.0120,0,1,0.00,0.00,0.00,0.0000,0.0000,0.0000,0.0000,0.0000,0.0000,0.0000,0.00,0.00,0.00,0.9090,0.2740,1.1250,1.1550,2.6990,4,0.0000,0.0000,0.0000,0.0000,0.0000,0
1723,0.9464,0.9075,0.0126,0.0129,0.0194,0.0017,-0.22,-0.04,-33.37,0,3.811,-0.194,0.053,0.135,-0.001,-0.002,1.000,0.000,0.000,0.000,0.0120,0,0,0.00,0.00,0.00,0.0000,0.0000,0.0000,0.0000,0.0000,0.0000,0.0000,0.00,0.00,0.00,0.9100,0.2610,1.1250,1.1570,2.6950,4,0.0000,0.0000,0.0000,0.0000,0.0000,0
1775,0.9468,0.9074,0.0125,0.0119,0.0140,0.0008,-0.17,-0.06,-33.20,0,3.806,0.110,0.040,0.230,-0.001,-0.000,1.003,0.000,0.000,0.000,0.0130,-5,-1,0.00,0.00,0.00,0.0000,0.0000,0.0000,0.0000,0.0000,0.0000,0.0000,0.00,0.00,0.00,0.9100,0.2610,1.1250,1.1570,2.6950,4,0.0000,0.0000,0.0000,0.0000,0.0000,0
1826,0.9508,0.9165,0.0127,0.0299,0.0578,0.0023,-0.54,-0.00,-33.04,0,3.811,0.190,0.133,-0.410,-0.001,0.001,1.002,0.000,0.000,0.000,0.0130,-8,0,0.00,0.00,0.00,0.0000,0.0000,0.0000,0.0000,0.0000,0.0000,0.0000,0.00,0.00,0.00,0.9090,0.2760,1.1290,1.1550,2.7000,4,0.0000,0.0000,0.0000,0.0000,0.0000,0
1877,0.9509,0.9166,0.0133,0.0237,0.0462,0.0054,-0.42,-0.01,-32.88,0,3.806,-0.012,-0.089,-0.057,0.001,-0.002,0.999,0.000,0.000,0.000,0.0140,3,0,0.00,0.00,0.00,0.0000,0.0000,0.0000,0.0000,0.0000,0.0000,0.0000,0.00,0.00,0.00,0.9090,0.2760,1.1290,1.1550,2.7000,4,0.0000,0.0000,0.0000,0.0000,0.0000,0
1928,0.9514,0.9178,0.0140,0.0214,0.0427,0.0075,-0.27,-0.01,-32.72,0,3.811,-0.059,0.226,-0.134,-0.001,0.001,1.003,0.000,0.000,0.000,0.0110,5,-2,0.00,0.00,0.00,0.0000,0.0000,0.0000,0.0000,0.0000,0.0000,0.0000,0.00,0.00,0.00,0.9080,0.2630,1.1240,1.1510,2.7020,4,0.0000,0.0000,0.0000,0.0000,0.0000,0
1979,0.9514,0.9173,0.0130,0.0174,0.0316,0.0020,-0.15,-0.05,-32.56,0,3.806,0.086,0.220,0.056,-0.001,0.001,1.001,0.000,0.000,0.000,0.0090,2,1,0.00,0.00,0.00,0.0000,0.0000,0.0000,0.0000,0.0000,0.0000,0.0000,0.00,0.00,0.00,0.9080,0.2630,1.1240,1.1510,2.7020,4,0.0000,0.0000,0.0000,0.0000,0.0000,0
2031,0.9504,0.9157,0.0112,0.0090,0.0176,-0.0067,-0.05,-0.03,-32.40,0,3.811,0.121,-0.083,-0.209,0.000,-0.002,0.999,0.000,0.000,0.000,0.0130,8,-5,0.00,0.00,0.00,0.0000,0.0000,0.0000,0.0000,0.0000,0.0000,0.0000,0.00,0.00,0.00,0.9060,0.2630,1.1250,1.1530,2.7050,4,0.0000,0.0000,0.0000,0.0000,0.0000,0
2082,0.9496,0.9158,0.0118,0.0028,0.0133,-0.0025,0.07,-0.06,-32.24,0,3.806,0.212,-0.365,0.029,-0.003,0.000,1.001,0.000,0.000,0.000,0.0110,-9,1,0.00,0.00,0.00,0.0000,0.0000,0.0000,0.0000,0.0000,0.0000,0.0000,0.00,0.00,0.00,0.9060,0.2630,1.1250,1.1530,2.7050,4,0.0000,0.0000,0.0000,0.0000,0.0000,0
2132,0.9493,0.9137,0.0114,0.0001,0.0002,-0.0033,0.00,-0.04,-32.07,0,3.811,0.043,-0.099,-0.053,-0.003,0.002,1.002,0.000,0.000,0.000,0.0150,-6,0,0.00,0.00,0.00,0.0000,0.0000,0.0000,0.0000,0.0000,0.0000,0.0000,0.00,0.00,0.00,0.9060,0.2620,1.1230,1.1540,2.7060,4,0.0000,0.0000,0.0000,0.0000,0.0000,0
2184,0.9511,0.9170,0.0131,0.0093,0.0165,0.0046,-0.11,-0.04,-31.92,0,3.806,-0.147,-0.036,0.288,-0.000,-0.001,1.001,0.000,0.000,0.000,0.0100,-3,1,0.00,0.00,0.00,0.0000,0.0000,0.0000,0.0000,0.0000,0.0000,0.0000,0.00,0.00,0.00,0.9060,0.2620,1.1230,1.1540,2.7060,4,0.0000,0.0000,0.0000,0.0000,0.0000,0
2235,0.9525,0.9188,0.0119,0.0133,0.0209,-0.0018,-0.12,-0.04,-31.76,0,3.811,0.056,0.109,0.214,-0.002,-0.000,1.001,0.000,0.000,0.000,0.0130,-1,-4,0.00,0.00,0.00,0.0000,0.0000,0.0000,0.0000,0.0000,0.0000,0.0000,0.00,0.00,0.00,0.9090,0.2660,1.1240,1.1540,2.7010,4,0.0000,0.0000,0.0000,0.0000,0.0000,0
2286,0.9517,0.9191,0.0124,0.0064,0.0177,0.0019,-0.04,-0.07,-31.60,0,3.801,0.090,-0.171,-0.170,-0.004,0.002,1.000,0.000,0.000,0.000,0.0150,2,7,0.00,0.00,0.00,0.0000,0.0000,0.0000,0.0000,0.0000,0.0000,0.0000,0.00,0.00,0.00,0.9090,0.2660,1.1240,1.1540,2.7010,4,0.0000,0.0000,0.0000,0.0000,0.0000,0
2337,0.9527,0.9192,0.0138,0.0101,0.0147,0.0078,0.00,-0.00,-31.44,0,3.811,-0.036,0.362,-0.226,-0.001,-0.000,1.002,0.000,0.000,0.000,0.0130,-6,1,0.00,0.00,0.00,0.0000,0.0000,0.0000,0.0000,0.0000,0.0000,0.0000,0.00,0.00,0.00,0.9090,0.2660,1.1260,1.1540,2.6990,4,0.0000,0.0000,0.0000,0.0000,0.0000,0
2388,0.9516,0.9192,0.0138,0.0021,0.0113,0.0061,-0.01,-0.02,-31.29,0,3.806,-0.057,0.032,0.260,-0.001,0.000,1.000,0.000,0.000,0.000,0.0110,-3,-2,0.00,0.00,0.00,0.0000,0.0000,0.0000,0.0000,0.0000,0.0000,0.0000,0.00,0.00,0.00,0.9090,0.2660,1.1260,1.1540,2.6990,4,0.0000,0.0000,0.0000,0.0000,0.0000,0
2439,0.9515,0.9186,0.0127,-0.0001,0.0044,-0.0001,0.07,-0.07,-31.17,0,3.811,-0.008,0.369,-0.127,0.000,0.001,1.000,0.000,0.000,0.000,0.0120,-11,3,0.00,0.00,0.00,0.0000,0.0000,0.0000,0.0000,0.0000,0.0000,0.0000,0.00,0.00,0.00,0.9100,0.2640,1.1270,1.1560,2.6920,4,0.0000,0.0000,0.0000,0.0000,0.0000,0
2490,0.9531,0.9209,0.0124,0.0083,0.0153,-0.0015,-0.12,-0.03,-31.01,0,3.806,-0.244,-0.008,-0.026,-0.001,-0.001,1.001,0.000,0.000,0.000,0.0130,3,0,0.00,0.00,0.00,0.0000,0.0000,0.0000,0.0000,0.0000,0.0000,0.0000,0.00,0.00,0.00,0.9100,0.2640,1.1270,1.1560,2.6920,4,0.0000,0.0000,0.0000,0.0000,0.0000,0
2541,0.9541,0.9254,0.0126,0.0114,0.0352,-0.0001,-0.13,-0.00,-30.86,0,3.811,-0.233,0.349,0.066,-0.001,-0.001,0.999,0.000,0.000,0.000,0.0130,6,0,0.00,0.00,0.00,0.0000,0.0000,0.0000,0.0000,0.0000,0.0000,0.0000,0.00,0.00,0.00,0.9130,0.2600,1.1260,1.1550,2.7070,4,0.0000,0.0000,0.0000,0.0000,0.0000,0
2593,0.9544,0.9263,0.0129,0.0102,0.0316,0.0013,-0.07,-0.02,-30.70,0,3.806,-0.125,-0.002,0.193,-0.002,0.000,1.002,0.000,0.000,0.000,0.0130,-4,-3,0.00,0.00,0.00,0.0000,0.0000,0.0000,0.0000,0.0000,0.0000,0.0000,0.00,0.00,0.00,0.9130,0.2600,1.1260,1.1550,2.7070,4,0.0000,0.0000,0.0000,0.0000,0.0000,0
2644,0.9538,0.9250,0.0131,0.0044,0.0185,0.0022,-0.05,-0.07,-30.55,0,3.811,-0.170,0.228,0.039,-0.001,0.000,1.001,0.000,0.000,0.000,0.0130,5,5,0.00,0.00,0.00,0.0000,0.0000,0.0000,0.0000,0.0000,0.0000,0.0000,0.00,0.00,0.00,0.9090,0.2700,1.1230,1.1540,2.7050,4,0.0000,0.0000,0.0000,0.0000,0.0000,0
2694,0.9545,0.9266,0.0132,0.0069,0.0218,0.0021,0.01,0.00,-30.40,0,3.801,-0.012,-0.134,-0.196,-0.002,0.000,1.001,0.000,0.000,0.000,0.0120,-2,-3,0.00,0.00,0.00,0.0000,0.0000,0.0000,0.0000,0.0000,0.0000,0.0000,0.00,0.00,0.00,0.9090,0.2700,1.1230,1.1540,2.7050,4,0.0000,0.0000,0.0000,0.0000,0.0000,0
2746,0.9539,0.9252,0.0128,0.0029,0.0104,0.0002,0.04,-0.09,-30.23,0,3.811,-0.046,0.141,0.422,-0.002,-0.001,1.000,0.000,0.000,0.000,0.0110,-10,4,0.00,0.00,0.00,0.0000,0.0000,0.0000,0.0000,0.0000,0.0000,0.0000,0.00,0.00,0.00,0.9120,0.2630,1.1240,1.1550,2.7040,4,0.0000,0.0000,0.0000,0.0000,0.0000,0
2798,0.9541,0.9251,0.0119,0.0022,0.0063,-0.0035,-0.01,-0.04,-30.10,0,3.806,-0.017,0.102,-0.196,-0.000,0.001,1.001,0.000,0.000,0.000,0.0120,0,0,0.00,0.00,0.00,0.0000,0.0000,0.0000,0.0000,0.0000,0.0000,0.0000,0.00,0.00,0.00,0.9120,0.2630,1.1240,1.1550,2.7040,4,0.0000,0.0000,0.0000,0.0000,0.0000,0
2849,0.9548,0.9264,0.0119,0.0052,0.0103,-0.0029,0.04,-0.08,-29.95,0,3.811,0.118,-0.062,-0.129,0.003,-0.001,0.999,0.000,0.000,0.000,0.0120,1,3,0.00,0.00,0.00,0.0000,0.0000,0.0000,0.0000,0.0000,0.0000,0.0000,0.00,0.00,0.00,0.9160,0.2560,1.1200,1.1580,2.7030,4,0.0000,0.0000,0.0000,0.0000,0.0000,0
2899,0.9543,0.9251,0.0118,0.0011,-0.0003,-0.0024,0.13,-0.06,-29.80,0,3.806,0.011,0.196,0.500,-0.002,0.002,1.005,0.000,0.000,0.000,0.0100,-3,1,0.00,0.00,0.00,0.0000,0.0000,0.0000,0.0000,0.0000,0.0000,0.0000,0.00,0.00,0.00,0.9160,0.2560,1.1200,1.1580,2.7030,4,0.0000,0.0000,0.0000,0.0000,0.0000,0
2951,0.9549,0.9257,0.0109,0.0039,0.0025,-0.0054,0.06,-0.09,-29.65,0,3.806,0.115,0.041,-0.243,-0.001,0.000,0.999,0.000,0.000,0.000,0.0110,8,2,0.00,0.00,0.00,0.0000,0.0000,0.0000,0.0000,0.0000,0.0000,0.0000,0.00,0.00,0.00,0.9170,0.2580,1.1220,1.1550,2.7040,4,0.0000,0.0000,0.0000,0.0000,0.0000,0
3001,0.9546,0.9265,0.0108,0.0027,0.0062,-0.0043,0.13,-0.06,-29.50,0,3.806,0.041,0.002,-0.160,-0.003,-0.001,1.000,0.000,0.000,0.000,0.0150,5,1,0.00,0.00,0.00,0.0000,0.0000,0.0000,0.0000,0.0000,0.0000,0.0000,0.00,0.00,0.00,0.9170,0.2580,1.1220,1.1550,2.7040,4,0.0000,0.0000,0.0000,0.0000,0.0000,0
3053,0.9529,0.9226,0.0129,-0.0080,-0.0173,0.0067,0.31,-0.08,-29.36,0,3.806,-0.018,0.176,0.301,-0.002,0.002,1.000,0.000,0.000,0.000,0.0130,-18,4,0.00,0.00,0.00,0.0000,0.0000,0.0000,0.0000,0.0000,0.0000,0.0000,0.00,0.00,0.00,0.9130,0.2720,1.1260,1.1580,2.7050,4,0.0000,0.0000,0.0000,0.0000,0.0000,0
3104,0.9531,0.9229,0.0133,-0.0052,-0.0126,0.0070,0.04,-0.05,-29.21,0,3.806,-0.057,0.045,-0.153,-0.001,-0.001,0.999,0.000,0.000,0.000,0.0140,-1,2,0.00,0.00,0.00,0.0000,0.0000,0.0000,0.0000,0.0000,0.0000,0.0000,0.00,0.00,0.00,0.9130,0.2720,1.1260,1.1580,2.7050,4,0.0000,0.0000,0.0000,0.0000,0.0000,0
3154,0.9554,0.9316,0.0139,0.0071,0.0317,0.0081,-0.15,0.01,-29.07,0,3.801,0.070,-0.101,-0.076,-0.002,0.001,1.001,0.000,0.000,0.000,0.0130,11,-3,0.00,0.00,0.00,0.0000,0.0000,0.0000,0.0000,0.0000,0.0000,0.0000,0.00,0.00,0.00,0.9150,0.2570,1.1240,1.1590,2.7070,4,0.0000,0.0000,0.0000,0.0000,0.0000,0
3206,0.9549,0.9312,0.0140,0.0030,0.0234,0.0070,0.03,-0.04,-28.92,0,3.806,-0.041,0.146,-0.045,-0.002,-0.002,1.000,0.000,0.000,0.000,0.0150,14,-8,0.00,0.00,0.00,0.0000,0.0000,0.0000,0.0000,0.0000,0.0000,0.0000,0.00,0.00,0.00,0.9150,0.2570,1.1240,1.1590,2.7070,4,0.0000,0.0000,0.0000,0.0000,0.0000,0
3257,0.9557,0.9352,0.0148,0.0060,0.0390,0.0095,-0.05,-0.05,-28.79,0,3.811,-0.034,-0.322,-0.023,-0.000,0.001,1.000,0.000,0.000,0.000,0.0100,-50,7,0.00,0.00,0.00,0.0000,0.0000,0.0000,0.0000,0.0000,0.0000,0.0000,0.00,0.00,0.00,0.9110,0.2670,1.1260,1.1510,2.7010,4,0.0000,0.0000,0.0000,0.0000,0.0000,0
3308,0.9562,0.9344,0.0131,0.0073,0.0271,0.0003,-0.54,0.03,-28.65,0,3.806,-0.284,-0.203,0.268,-0.001,0.002,1.002,0.000,0.000,0.000,0.0140,6,-2,0.00,0.00,0.00,0.0000,0.0000,0.0000,0.0000,0.0000,0.0000,0.0000,0.00,0.00,0.00,0.9110,0.2670,1.1260,1.1510,2.7010,4,0.0000,0.0000,0.0000,0.0000,0.0000,0
3360,0.9608,0.9446,0.0137,0.0275,0.0699,0.0036,-0.36,-0.04,-28.51,0,3.806,-0.131,0.083,0.051,-0.001,0.002,1.001,0.000,0.000,0.000,0.0120,-5,0,0.00,0.00,0.00,0.0000,0.0000,0.0000,0.0000,0.0000,0.0000,0.0000,0.00,0.00,0.00,0.9150,0.2550,1.1220,1.1570,2.7070,4,0.0000,0.0000,0.0000,0.0000,0.0000,0
3411,0.9586,0.9397,0.0137,0.0101,0.0306,0.0035,-0.11,-0.05,-28.37,0,3.806,0.083,-0.021,-0.081,0.002,-0.001,1.000,0.000,0.000,0.000,0.0110,-9,0,0.00,0.00,0.00,0.0000,0.0000,0.0000,0.0000,0.0000,0.0000,0.0000,0.00,0.00,0.00,0.9150,0.2550,1.1220,1.1570,2.7070,4,0.0000,0.0000,0.0000,0.0000,0.0000,0
3462,0.9586,0.9394,0.0126,0.0088,0.0205,-0.0017,-0.07,-0.07,-28.23,0,3.811,-0.134,0.057,0.178,0.003,0.001,1.000,0.000,0.000,0.000,0.0110,-3,-4,0.00,0.00,0.00,0.0000,0.0000,0.0000,0.0000,0.0000,0.0000,0.0000,0.00,0.00,0.00,0.9150,0.2670,1.1220,1.1540,2.7040,4,0.0000,0.0000,0.0000,0.0000,0.0000,0
3513,0.9583,0.9397,0.0118,0.0054,0.0163,-0.0045,0.02,-0.10,-28.09,0,3.806,-0.020,0.090,0.067,-0.003,-0.001,1.000,0.000,0.000,0.000,0.0160,0,-4,0.00,0.00,0.00,0.0000,0.0000,0.0000,0.0000,0.0000,0.0000,0.0000,0.00,0.00,0.00,0.9150,0.2670,1.1220,1.1540,2.7040,4,0.0000,0.0000,0.0000,0.0000,0.0000,0
3563,0.9562,0.9281,0.0140,-0.0072,-0.0449,0.0067,0.49,-0.23,-27.95,0,3.811,0.072,0.238,-0.190,-0.001,-0.001,0.999,0.000,0.000,0.000,0.0120,9,-5,0.00,0.00,0.00,0.0000,0.0000,0.0000,0.0000,0.0000,0.0000,0.0000,0.00,0.00,0.00,0.9130,0.2670,1.1260,1.1620,2.6980,4,0.0000,0.0000,0.0000,0.0000,0.0000,0
3614,0.9556,0.9270,0.0134,-0.0096,-0.0439,0.0021,0.55,-0.21,-27.81,0,3.806,-0.263,0.088,0.099,-0.001,0.001,0.999,0.000,0.000,0.000,0.0130,4,0,0.00,0.00,0.00,0.0000,0.0000,0.0000,0.0000,0.0000,0.0000,0.0000,0.00,0.00,0.00,0.9130,0.2670,1.1260,1.1620,2.6980,4,0.0000,0.0000,0.0000,0.0000,0.0000,0
3666,0.9560,0.9268,0.0135,-0.0057,-0.0357,0.0020,0.39,-0.15,-27.67,0,3.811,-0.173,-0.194,-0.057,-0.000,0.001,0.998,0.000,0.000,0.000,0.0120,3,0,0.00,0.00,0.00,0.0000,0.0000,0.0000,0.0000,0.0000,0.0000,0.0000,0.00,0.00,0.00,0.9130,0.2710,1.1260,1.1580,2.7010,4,0.0000,0.0000,0.0000,0.0000,0.0000,0
3716,0.9554,0.9255,0.0129,-0.0071,-0.0352,-0.0011,0.36,-0.13,-27.53,0,3.806,-0.036,-0.212,-0.121,-0.000,-0.000,1.002,0.000,0.000,0.000,0.0120,-2,-2,0.00,0.00,0.00,0.0000,0.0000,0.0000,0.0000,0.0000,0.0000,0.0000,0.00,0.00,0.00,0.9130,0.2710,1.1260,1.1580,2.7010,4,0.0000,0.0000,0.0000,0.0000,0.0000,0
3768,0.9548,0.9252,0.0125,-0.0091,-0.0303,-0.0019,0.26,-0.11,-27.40,0,3.811,-0.303,-0.015,0.387,-0.001,0.002,1.001,0.000,0.000,0.000,0.0120,2,5,0.00,0.00,0.00,0.0000,0.0000,0.0000,0.0000,0.0000,0.0000,0.0000,0.00,0.00,0.00,0.9280,0.2660,1.1250,1.1560,2.6970,4,0.0000,0.0000,0.0000,0.0000,0.0000,0
3819,0.9555,0.9256,0.0122,-0.0043,-0.0225,-0.0017,0.22,-0.06,-27.25,0,3.806,0.027,-0.007,0.008,-0.001,0.001,1.003,0.000,0.000,0.000,0.0130,3,3,0.00,0.00,0.00,0.0000,0.0000,0.0000,0.0000,0.0000,0.0000,0.0000,0.00,0.00,0.00,0.9280,0.2660,1.1250,1.1560,2.6970,4,0.0000,0.0000,0.0000,0.0000,0.0000,0
3870,-0.0000,0.0000,0.8239,-0.0014,0.0001,0.0002,0.00,0.01,0.00,0,3.811,0.204,-0.145,0.109,0.002,0.001,0.999,0.000,0.000,0.000,0.0120,17,4,0.00,0.00,0.00,0.0000,0.0000,0.0000,0.0000,0.0000,0.0000,0.0000,0.00,0.00,0.00,0.9480,0.2560,1.1240,1.1560,2.7060,4,0.0000,0.0000,0.0000,0.0000,0.0000,0
3921,0.0001,0.0001,0.0121,0.0035,0.0020,0.0002,0.51,0.02,-0.00,0,3.801,-0.063,-0.256,0.237,-0.001,-0.002,1.002,0.000,0.000,0.000,0.0120,-5,-1,0.00,0.00,0.00,0.0000,0.0000,0.0000,0.0000,0.0000,0.0000,0.0000,0.00,0.00,0.00,0.9480,0.2560,1.1240,1.1560,2.7060,4,0.0000,0.0000,0.0000,0.0000,0.0000,0
3972,-0.0008,-0.0017,0.0122,-0.0095,-0.0185,0.0009,0.05,0.16,-0.00,0,3.811,-0.024,-0.268,0.011,-0.001,0.002,1.001,0.000,0.000,0.000,0.0130,0,-5,0.00,0.00,0.00,0.0000,0.0000,0.0000,0.0000,0.0000,0.0000,0.0000,0.00,0.00,0.00,0.9530,0.2690,1.1280,1.1540,2.7020,4,0.0000,0.0000,0.0000,0.0000,0.0000,0
4023,-0.0003,-0.0019,0.0127,-0.0020,-0.0129,0.0023,0.11,-0.28,-0.00,0,3.806,0.148,0.155,0.100,-0.000,0.001,1.001,0.000,0.000,0.000,0.0120,-9,1,0.00,0.00,0.00,0.0000,0.0000,0.0000,0.0000,0.0000,0.0000,0.0000,0.00,0.00,0.00,0.9530,0.2690,1.1280,1.1540,2.7020,4,0.0000,0.0000,0.0000,0.0000,0.0000,0
4075,-0.0004,-0.0029,0.0125,-0.0018,-0.0175,0.0010,-0.22,0.04,-0.00,0,3.806,0.140,0.091,-0.374,-0.000,-0.001,0.999,0.000,0.000,0.000,0.0110,2,-3,0.00,0.00,0.00,0.0000,0.0000,0.0000,0.0000,0.0000,0.0000,0.0000,0.00,0.00,0.00,0.9560,0.2710,1.1250,1.1550,2.7000,4,0.0000,0.0000,0.0000,0.0000,0.0000,0
4126,-0.0006,-0.0013,0.0120,-0.0039,0.0013,-0.0015,-0.10,-0.09,-0.00,0,3.806,-0.238,0.157,0.099,-0.003,0.001,1.001,0.000,0.000,0.000,0.0150,0,0,0.00,0.00,0.00,0.0000,0.0000,0.0000,0.0000,0.0000,0.0000,0.0000,0.00,0.00,0.00,0.9560,0.2710,1.1250,1.1550,2.7000,4,0.0000,0.0000,0.0000,0.0000,0.0000,0
4177,0.0008,-0.0049,0.0136,0.0077,-0.0239,0.0069,0.29,-0.20,-0.00,0,3.811,-0.209,0.000,0.236,-0.002,0.000,1.000,0.000,0.000,0.000,0.0100,10,-1,0.00,0.00,0.00,0.0000,0.0000,0.0000,0.0000,0.0000,0.0000,0.0000,0.00,0.00,0.00,0.9520,0.0000,1.1240,1.1580,2.7020,4,0.0000,0.0000,0.0000,0.0000,0.0000,0
4228,0.0008,-0.0049,0.0120,0.0067,-0.0187,-0.0019,0.48,-0.18,0.00,0,3.801,0.080,-0.087,0.079,-0.002,0.001,1.001,0.000,0.000,0.000,0.0160,0,-1,0.00,0.00,0.00,0.0000,0.0000,0.0000,0.0000,0.0000,0.0000,0.0000,0.00,0.00,0.00,0.9520,0.0000,1.1240,1.1580,2.7020,4,0.0000,0.0000,0.0000,0.0000,0.0000,0
4280,0.0008,-0.0046,0.0141,0.0043,-0.0106,0.0091,-0.01,-0.13,-0.00,0,3.806,0.018,-0.040,-0.276,-0.001,-0.000,0.999,0.000,0.000,0.000,0.0120,-1,2,0.00,0.00,0.00,0.0000,0.0000,0.0000,0.0000,0.0000,0.0000,0.0000,0.00,0.00,0.00,0.9500,0.2710,1.1240,1.1520,2.7040,4,0.0000,0.0000,0.0000,0.0000,0.0000,0
4330,0.0002,-0.0065,0.0135,-0.0006,-0.0191,0.0042,0.09,0.01,-0.00,0,3.806,0.158,-0.020,0.070,0.002,0.001,1.000,0.000,0.000,0.000,0.0100,-8,-1,0.00,0.00,0.00,0.0000,0.0000,0.0000,0.0000,0.0000,0.0000,0.0000,0.00,0.00,0.00,0.9500,0.2710,1.1240,1.1520,2.7040,4,0.0000,0.0000,0.0000,0.0000,0.0000,0
4382,0.0007,-0.0068,0.0120,0.0029,-0.0168,-0.0036,-0.08,-0.10,0.00,0,3.811,0.089,0.031,-0.049,0.001,-0.001,1.001,0.000,0.000,0.000,0.0110,1,-4,0.00,0.00,0.00,0.0000,0.0000,0.0000,0.0000,0.0000,0.0000,0.0000,0.00,0.00,0.00,0.9520,0.2620,1.1260,1.1570,2.7000,4,0.0000,0.0000,0.0000,0.0000,0.0000,0
4432,0.0007,-0.0043,0.0114,0.0023,0.0003,-0.0052,-0.09,-0.14,-0.00,0,3.801,0.151,0.215,-0.257,-0.000,0.003,1.003,0.000,0.000,0.000,0.0150,6,2,0.00,0.00,0.00,0.0000,0.0000,0.0000,0.0000,0.0000,0.0000,0.0000,0.00,0.00,0.00,0.9520,0.2620,1.1260,1.1570,2.7000,4,0.0000,0.0000,0.0000,0.0000,0.0000,0
4484,0.0004,-0.0052,0.0130,0.0006,-0.0029,0.0034,0.04,-0.01,0.00,0,3.811,0.002,0.044,0.034,-0.001,-0.001,1.000,0.000,0.000,0.000,0.0130,5,0,0.00,0.00,0.00,0.0000,0.0000,0.0000,0.0000,0.0000,0.0000,0.0000,0.00,0.00,0.00,0.9510,0.2550,1.1250,1.1520,2.6930,4,0.0000,0.0000,0.0000,0.0000,0.0000,0
4535,0.0007,-0.0043,0.0131,0.0020,0.0026,0.0039,-0.03,-0.06,0.01,0,3.801,-0.164,-0.149,0.094,-0.002,-0.001,1.002,0.000,0.000,0.000,0.0120,3,0,0.00,0.00,0.00,0.0000,0.0000,0.0000,0.0000,0.0000,0.0000,0.0000,0.00,0.00,0.00,0.9510,0.2550,1.1250,1.1520,2.6930,4,0.0000,0.0000,0.0000,0.0000,0.0000,0
4585,0.0004,-0.0046,0.0128,0.0004,0.0031,0.0024,-0.07,-0.04,0.01,0,3.806,-0.183,0.037,0.132,-0.002,0.003,1.003,0.000,0.000,0.000,0.0130,1,-4,0.00,0.00,0.00,0.0000,0.0000,0.0000,0.0000,0.0000,0.0000,0.0000,0.00,0.00,0.00,0.9540,0.2730,1.1230,1.1580,2.7010,4,0.0000,0.0000,0.0000,0.0000,0.0000,0
4637,-0.0016,0.0041,0.0130,-0.0106,0.0479,0.0026,-0.49,-0.00,0.01,0,3.806,-0.086,-0.373,-0.341,-0.002,0.000,0.999,0.000,0.000,0.000,0.0140,0,-2,0.00,0.00,0.00,0.0000,0.0000,0.0000,0.0000,0.0000,0.0000,0.0000,0.00,0.00,0.00,0.9540,0.2730,1.1230,1.1580,2.7010,4,0.0000,0.0000,0.0000,0.0000,0.0000,0
4689,-0.0021,-0.0111,0.0140,-0.0112,-0.0337,0.0070,0.25,0.03,0.00,0,3.806,-0.184,-0.032,0.199,0.000,-0.002,1.002,0.000,0.000,0.000,0.0100,2,2,0.00,0.00,0.00,0.0000,0.0000,0.0000,0.0000,0.0000,0.0000,0.0000,0.00,0.00,0.00,0.9510,0.2630,1.1240,1.1550,2.7000,4,0.0000,0.0000,0.0000,0.0000,0.0000,0
4739,0.0002,-0.0120,0.0124,0.0009,-0.0325,-0.0017,0.24,-0.03,0.01,0,3.801,0.066,0.096,-0.125,0.000,0.003,1.002,0.000,0.000,0.000,0.0140,0,0,0.00,0.00,0.00,0.0000,0.0000,0.0000,0.0000,0.0000,0.0000,0.0000,0.00,0.00,0.00,0.9510,0.2630,1.1240,1.1550,2.7000,4,0.0000,0.0000,0.0000,0.0000,0.0000,0
4791,-0.0000,-0.0118,0.0132,-0.0004,-0.0253,0.0028,0.15,-0.04,0.01,0,3.811,0.057,0.130,0.082,0.001,0.000,0.998,0.000,0.000,0.000,0.0130,-5,-5,0.00,0.00,0.00,0.0000,0.0000,0.0000,0.0000,0.0000,0.0000,0.0000,0.00,0.00,0.00,0.9520,0.2590,1.1240,1.1530,2.7030,4,0.0000,0.0000,0.0000,0.0000,0.0000,0
4842,0.0002,-0.0121,0.0133,0.0011,-0.0220,0.0026,0.04,-0.11,0.01,0,3.806,0.310,-0.094,-0.222,-0.002,0.000,1.001,0.000,0.000,0.000,0.0140,1,0,0.00,0.00,0.00,0.0000,0.0000,0.0000,0.0000,0.0000,0.0000,0.0000,0.00,0.00,0.00,0.9520,0.2590,1.1240,1.1530,2.7030,4,0.0000,0.0000,0.0000,0.0000,0.0000,0
4894,0.0002,-0.0122,0.0138,0.0010,-0.0177,0.0039,0.07,-0.05,0.01,0,3.806,-0.232,0.274,0.379,-0.004,0.001,1.002,0.000,0.000,0.000,0.0160,-11,-7,0.00,0.00,0.00,0.0000,0.0000,0.0000,0.0000,0.0000,0.0000,0.0000,0.00,0.00,0.00,0.9540,0.2640,1.1270,1.1540,2.7030,4,0.0000,0.0000,0.0000,0.0000,0.0000,0
4946,-0.0003,-0.0120,0.0151,-0.0022,-0.0126,0.0091,-0.11,-0.10,0.02,0,3.801,-0.190,0.062,0.200,-0.000,-0.001,1.000,0.000,0.000,0.000,0.0130,-5,-2,0.00,0.00,0.00,0.0000,0.0000,0.0000,0.0000,0.0000,0.0000,0.0000,0.00,0.00,0.00,0.9540,0.2640,1.1270,1.1540,2.7030,4,0.0000,0.0000,0.0000,0.0000,0.0000,0
4998,-0.0003,-0.0033,0.0145,-0.0034,0.0286,0.0045,-0.36,-0.05,0.02,0,3.806,-0.094,0.289,0.080,-0.000,0.000,0.998,0.000,0.000,0.000,0.0090,-11,-3,0.00,0.00,0.00,0.0000,0.0000,0.0000,0.0000,0.0000,0.0000,0.0000,0.00,0.00,0.00,0.9560,0.2610,1.1250,1.1570,2.6980,4,0.0000,0.0000,0.0000,0.0000,0.0000,0
5050,0.0033,-0.0083,0.0123,0.0148,-0.0011,-0.0062,-0.16,-0.20,0.01,0,3.801,-0.111,-0.111,-0.275,-0.001,-0.000,1.001,0.000,0.000,0.000,0.0100,0,10,0.00,0.00,0.00,0.0000,0.0000,0.0000,0.0000,0.0000,0.0000,0.0000,0.00,0.00,0.00,0.9560,0.2610,1.1250,1.1570,2.6980,4,0.0000,0.0000,0.0000,0.0000,0.0000,0
5101,0.0048,-0.0147,0.0110,0.0196,-0.0310,-0.0109,0.17,-0.10,0.02,0,3.394,0.427,-0.715,0.785,0.011,-0.004,0.994,0.000,0.000,0.000,0.0140,9,-2,0.00,0.00,0.00,0.0000,0.0000,0.0000,0.0000,0.0000,0.0000,0.0000,0.00,0.00,0.00,0.9520,0.2630,1.1250,1.1550,2.7010,4,0.0000,0.0000,0.0000,0.0000,0.0000,0
5152,0.0021,-0.0177,0.0121,0.0035,-0.0385,-0.0034,0.29,-0.08,0.02,0,3.468,0.363,0.702,-0.408,-0.003,-0.005,1.004,0.000,0.000,0.000,0.0110,-4,0,0.00,0.00,0.00,0.0000,0.0000,0.0000,0.0000,0.0000,0.0000,0.0000,0.00,0.00,0.00,0.9520,0.2630,1.1250,1.1550,2.7010,4,0.0000,0.0000,0.0000,0.0000,0.0000,0
5204,0.0025,-0.0182,0.0115,0.0049,-0.0334,-0.0047,0.10,-0.08,0.00,0,3.521,-0.049,-0.794,7.594,-0.015,0.008,1.003,0.000,0.000,0.000,0.0120,-2,0,0.00,0.00,0.00,0.0000,0.0000,0.0000,0.0000,0.0000,0.0000,0.0000,0.00,0.00,0.00,0.9460,0.2700,1.1240,1.1430,2.6970,4,0.0000,0.0000,0.0000,0.0000,0.0000,0
5255,0.0023,-0.0184,0.0117,0.0033,-0.0272,-0.0017,0.06,-0.07,0.06,0,3.531,0.531,-1.356,-6.214,0.005,0.015,0.994,0.000,0.000,0.000,0.0100,1,-4,0.00,0.00,0.00,0.0000,0.0000,0.0000,0.0000,0.0000,0.0000,0.0000,0.00,0.00,0.00,0.9460,0.2700,1.1240,1.1430,2.6970,4,0.0000,0.0000,0.0000,0.0000,0.0000,0
5306,0.0023,-0.0169,0.0109,0.0033,-0.0146,-0.0055,-0.02,-0.13,-0.19,0,3.542,-0.025,-0.276,9.842,-0.007,-0.031,0.980,0.000,0.000,0.000,0.0070,0,0,0.00,0.00,0.00,0.0000,0.0000,0.0000,0.0000,0.0000,0.0000,0.0000,0.00,0.00,0.00,0.9510,0.2670,1.1230,1.0310,2.7030,4,0.0000,0.0000,0.0000,0.0000,0.0000,0
5357,0.0023,-0.0093,0.0087,0.0029,0.0255,-0.0139,-0.40,-0.09,0.06,0,3.547,-1.720,-3.998,8.355,-0.006,-0.019,0.997,0.000,0.000,0.000,0.0140,0,0,0.00,0.00,0.00,0.0000,0.0000,0.0000,0.0000,0.0000,0.0000,0.0000,0.00,0.00,0.00,0.9510,0.2670,1.1230,1.0310,2.7030,4,0.0000,0.0000,0.0000,0.0000,0.0000,0
5407,0.0025,-0.0080,0.0108,0.0038,0.0287,-0.0025,-0.41,-0.11,0.34,0,3.547,1.869,-1.621,-3.651,0.002,-0.007,1.012,0.000,0.000,0.000,0.0110,0,0,0.00,0.00,0.00,0.0000,0.0000,0.0000,0.0000,0.0000,0.0000,0.0000,0.00,0.00,0.00,0.9540,0.2620,1.1240,1.1640,2.7070,4,0.0000,0.0000,0.0000,0.0000,0.0000,0
5458,0.0027,-0.0064,0.0108,0.0046,0.0323,-0.0028,-0.50,-0.10,0.17,0,3.547,-6.875,-0.217,-4.832,0.000,-0.009,1.032,0.000,0.000,0.000,0.0140,0,0,0.00,0.00,0.00,0.0000,0.0000,0.0000,0.0000,0.0000,0.0000,0.0000,0.00,0.00,0.00,0.9540,0.2620,1.1240,1.1640,2.7070,4,0.0000,0.0000,0.0000,0.0000,0.0000,0
5510,0.0030,-0.0047,0.0123,0.0055,0.0364,0.0086,-0.54,-0.11,-0.03,0,3.542,-0.529,0.173,-1.780,-0.012,-0.004,1.049,0.000,0.000,0.000,0.0130,0,0,0.00,0.00,0.00,0.0000,0.0000,0.0000,0.0000,0.0000,0.0000,0.0000,0.00,0.00,0.00,0.9520,0.2710,1.1250,1.2090,2.7100,4,0.0000,0.0000,0.0000,0.0000,0.0000,0
5562,0.0033,-0.0028,0.0128,0.0066,0.0409,0.0093,-0.61,-0.13,-0.14,0,3.537,-3.053,0.431,-5.113,0.005,-0.023,0.982,0.000,0.000,0.000,0.0110,4,-4,0.00,0.00,0.00,0.0000,0.0000,0.0000,0.0000,0.0000,0.0000,0.0000,0.00,0.00,0.00,0.9520,0.2710,1.1250,1.2090,2.7100,4,0.0000,0.0000,0.0000,0.0000,0.0000,0
5613,0.0036,-0.0006,0.0122,0.0078,0.0459,0.0001,-0.55,-0.21,-0.39,0,3.537,-4.108,0.916,-1.330,-0.004,-0.015,0.976,0.000,0.000,0.000,0.0140,5,-2,0.00,0.00,0.00,0.0000,0.0000,0.0000,0.0000,0.0000,0.0000,0.0000,0.00,0.00,0.00,0.9490,0.2620,1.1220,1.2340,2.7030,4,0.0000,0.0000,0.0000,0.0000,0.0000,0
5665,0.0100,-0.0243,0.0133,0.0296,-0.0435,0.0065,-0.16,-0.22,-0.49,0,3.526,2.135,-7.179,-2.559,0.003,-0.003,1.013,0.000,0.000,0.000,0.0090,0,5,0.00,0.00,0.00,0.0000,0.0000,0.0000,0.0000,0.0000,0.0000,0.0000,0.00,0.00,0.00,0.9490,0.2620,1.1220,1.2340,2.7030,4,0.0000,0.0000,0.0000,0.0000,0.0000,0
5716,0.0085,-0.0283,0.0115,0.0210,-0.0480,-0.0017,-0.41,-0.06,-0.58,0,3.526,4.436,6.309,7.381,-0.009,-0.018,1.013,0.000,0.000,0.000,0.0130,-1,6,0.00,0.00,0.00,0.0000,0.0000,0.0000,0.0000,0.0000,0.0000,0.0000,0.00,0.00,0.00,0.9510,0.2650,1.1250,1.2550,2.6970,4,0.0000,0.0000,0.0000,0.0000,0.0000,0
5768,0.0108,-0.0158,0.0120,0.0272,0.0090,-0.0066,-0.59,-0.10,-0.21,0,3.521,-2.640,-4.586,15.182,-0.003,-0.011,0.982,0.000,0.000,0.000,0.0100,-10,-5,0.00,0.00,0.00,0.0000,0.0000,0.0000,0.0000,0.0000,0.0000,0.0000,0.00,0.00,0.00,0.9510,0.2650,1.1250,1.2550,2.6970,4,0.0000,0.0000,0.0000,0.0000,0.0000,0
5820,0.0066,-0.0054,0.0110,0.0076,0.0501,0.0016,-1.04,0.19,0.44,0,3.516,-2.840,-3.377,4.652,-0.004,-0.019,1.023,0.000,0.000,0.000,0.0110,-6,5,0.00,0.00,0.00,0.0000,0.0000,0.0000,0.0000,0.0000,0.0000,0.0000,0.00,0.00,0.00,0.9440,0.2540,1.1230,1.2740,2.7090,4,0.0000,0.0000,0.0000,0.0000,0.0000,0
5871,0.0103,0.0075,0.0102,0.0187,0.0981,-0.0029,-1.17,0.46,0.73,0,3.510,2.525,-3.882,6.981,0.004,-0.016,1.036,0.000,0.000,0.000,0.0100,-1,8,0.00,0.00,0.00,0.0000,0.0000,0.0000,0.0000,0.0000,0.0000,0.0000,0.00,0.00,0.00,0.9440,0.2540,1.1230,1.2740,2.7090,4,0.0000,0.0000,0.0000,0.0000,0.0000,0
5923,0.0113,0.0200,0.0093,0.0167,0.1378,-0.0026,-1.07,1.12,1.10,0,3.505,6.788,-22.240,4.390,0.020,-0.007,1.020,0.000,0.000,0.000,0.0110,-32,4,0.00,0.00,0.00,0.0000,0.0000,0.0000,0.0000,0.0000,0.0000,0.0000,0.00,0.00,0.00,0.9440,0.2680,1.1220,1.2640,2.6990,4,0.0000,0.0000,0.0000,0.0000,0.0000,0
5975,0.0233,0.0352,0.0090,0.0571,0.1815,-0.0029,-1.28,1.68,1.41,0,3.494,29.537,-21.711,7.586,0.017,-0.024,1.026,0.000,0.000,0.000,0.0130,-7,-5,0.00,0.00,0.00,0.0000,0.0000,0.0000,0.0000,0.0000,0.0000,0.0000,0.00,0.00,0.00,0.9440,0.2680,1.1220,1.2640,2.6990,4,0.0000,0.0000,0.0000,0.0000,0.0000,0
6027,0.0365,0.0533,0.0096,0.0921,0.2283,0.0145,0.27,1.78,1.70,0,3.500,39.558,5.588,0.103,0.016,-0.008,1.012,0.000,0.000,0.000,0.0120,0,-27,0.00,0.00,0.00,0.0000,0.0000,0.0000,0.0000,0.0000,0.0000,0.0000,0.00,0.00,0.00,0.9510,0.2060,1.1260,0.0000,2.6980,4,0.0000,0.0000,0.0000,0.0000,0.0000,0
6079,0.0429,0.0602,0.0124,0.0868,0.2036,0.0278,2.50,1.45,1.68,0,3.484,15.080,-26.986,-4.641,0.017,0.006,1.023,0.000,0.000,0.000,0.0010,14,-3,0.00,0.00,0.00,0.0000,0.0000,0.0000,0.0000,0.0000,0.0000,0.0000,0.00,0.00,0.00,0.9510,0.2060,1.1260,0.0000,2.6980,4,0.0000,0.0000,0.0000,0.0000,0.0000,0
6130,0.0521,0.0541,0.0088,0.0953,0.1084,0.0085,4.15,2.97,1.27,0,3.468,6.665,-28.217,-8.432,0.018,0.007,1.018,0.000,0.000,0.000,0.0000,23,5,0.00,0.00,0.00,0.0000,0.0000,0.0000,0.0000,0.0000,0.0000,0.0000,0.00,0.00,0.00,0.9520,0.0000,1.1290,0.1580,2.7100,4,0.0000,0.0000,0.0000,0.0000,0.0000,0
6182,0.0511,0.0290,0.0023,0.0435,-0.0704,-0.0129,5.41,4.62,0.57,0,3.452,-89.595,2.019,-0.153,0.017,-0.010,0.983,0.000,0.000,0.000,0.0000,43,33,0.00,0.00,0.00,0.0000,0.0000,0.0000,0.0000,0.0000,0.0000,0.0000,0.00,0.00,0.00,0.9520,0.0000,1.1290,0.1580,2.7100,4,0.0000,0.0000,0.0000,0.0000,0.0000,0
6233,0.0395,-0.0079,-0.0111,-0.0591,-0.2705,-0.0858,2.71,5.00,0.30,0,3.431,-86.526,52.005,-3.584,0.012,-0.004,1.083,0.000,0.000,0.000,0.0000,27,23,0.00,0.00,0.00,0.0000,0.0000,0.0000,0.0000,0.0000,0.0000,0.0000,0.00,0.00,0.00,0.0000,0.1670,1.1380,0.0000,2.7130,4,0.0000,0.0000,0.0000,0.0000,0.0000,0
6284,0.0103,-0.0518,-0.0315,-0.2309,-0.4436,-0.1531,-0.88,3.83,0.02,0,3.421,-56.010,57.142,-4.797,0.012,-0.012,1.122,0.000,0.000,0.000,0.0000,31,25,0.00,0.00,0.00,0.0000,0.0000,0.0000,0.0000,0.0000,0.0000,0.0000,0.00,0.00,0.00,0.0000,0.1670,1.1380,0.0000,2.7130,4,0.0000,0.0000,0.0000,0.0000,0.0000,0
6335,-0.0190,-0.0823,-0.0310,-0.3546,-0.4751,-0.0760,-3.57,1.66,-0.27,0,3.436,-52.464,84.672,-3.773,0.004,-0.017,1.103,0.000,0.000,0.000,0.0000,8,9,0.00,0.00,0.00,0.0000,0.0000,0.0000,0.0000,0.0000,0.0000,0.0000,0.00,0.00,0.00,0.9920,0.3700,1.1160,1.3200,2.6930,4,0.0000,0.0000,0.0000,0.0000,0.0000,0
6387,-0.0372,-0.1041,-0.0129,-0.3565,-0.4191,0.0832,-6.67,-2.70,-0.61,0,3.463,-19.843,79.012,-1.556,-0.003,-0.023,1.048,0.000,0.000,0.000,0.0080,2,24,0.00,0.00,0.00,0.0000,0.0000,0.0000,0.0000,0.0000,0.0000,0.0000,0.00,0.00,0.00,0.9920,0.3700,1.1160,1.3200,2.6930,4,0.0000,0.0000,0.0000,0.0000,0.0000,0
6439,-0.0547,-0.1122,0.0061,-0.3256,-0.2837,0.1907,-8.34,-6.30,-1.09,0,3.479,22.550,9.650,-2.659,0.013,-0.027,1.010,0.000,0.000,0.000,0.0240,4,-4,0.00,0.00,0.00,0.0000,0.0000,0.0000,0.0000,0.0000,0.0000,0.0000,0.00,0.00,0.00,0.9500,0.2270,1.0160,1.4190,2.7300,4,0.0000,0.0000,0.0000,0.0000,0.0000,0
6490,-0.0650,-0.1143,0.0262,-0.2368,-0.1488,0.2537,-7.84,-7.50,-1.20,0,3.473,10.891,-24.029,-0.328,0.008,-0.020,0.981,0.000,0.000,0.000,0.0330,6,-13,0.00,0.00,0.00,0.0000,0.0000,0.0000,0.0000,0.0000,0.0000,0.0000,0.00,0.00,0.00,0.9500,0.2270,1.0160,1.4190,2.7300,4,0.0000,0.0000,0.0000,0.0000,0.0000,0
6542,-0.0592,-0.1112,0.0403,-0.0885,-0.0351,0.2553,-7.44,-7.07,-0.89,0,3.468,37.696,-39.081,-0.696,0.006,-0.021,0.967,0.000,0.000,0.000,0.0480,-3,-26,0.00,0.00,0.00,0.0000,0.0000,0.0000,0.0000,0.0000,0.0000,0.0000,0.00,0.00,0.00,0.9020,0.2410,1.0960,1.4140,2.7220,4,0.0000,0.0000,0.0000,0.0000,0.0000,0
6593,-0.0502,-0.1170,0.0544,0.0325,-0.0040,0.2413,-5.31,-5.60,-0.26,0,3.457,46.380,-52.057,5.005,0.005,-0.030,0.948,0.000,0.000,0.000,0.0540,-16,-10,0.00,0.00,0.00,0.0000,0.0000,0.0000,0.0000,0.0000,0.0000,0.0000,0.00,0.00,0.00,0.9020,0.2410,1.0960,1.4140,2.7220,4,0.0000,0.0000,0.0000,0.0000,0.0000,0
6644,-0.0366,-0.1031,0.0609,0.1271,0.1040,0.1997,-3.45,-3.30,-0.13,0,3.447,47.539,-27.287,2.126,-0.010,-0.027,0.975,0.000,0.000,0.000,0.0660,-45,-20,0.00,0.00,0.00,0.0000,0.0000,0.0000,0.0000,0.0000,0.0000,0.0000,0.00,0.00,0.00,0.9470,0.1930,1.0960,1.3720,2.6640,4,0.0000,0.0000,0.0000,0.0000,0.0000,0
6695,-0.0303,-0.0951,0.0727,0.1492,0.1367,0.1905,-1.47,-1.81,-0.11,0,3.436,21.553,-55.863,4.777,-0.001,-0.025,0.983,0.000,0.000,0.000,0.0700,10,-9,0.00,0.00,0.00,0.0000,0.0000,0.0000,0.0000,0.0000,0.0000,0.0000,0.00,0.00,0.00,0.9470,0.1930,1.0960,1.3720,2.6640,4,0.0000,0.0000,0.0000,0.0000,0.0000,0
6746,-0.0184,-0.0705,0.0755,0.1824,0.2324,0.1509,-0.20,0.73,0.09,0,3.436,41.022,-40.385,2.243,-0.003,-0.027,1.010,0.000,0.000,0.000,0.0740,-21,-8,0.00,0.00,0.00,0.0000,0.0000,0.0000,0.0000,0.0000,0.0000,0.0000,0.00,0.00,0.00,0.9280,0.1580,1.0580,1.3860,2.6260,4,0.0000,0.0000,0.0000,0.0000,0.0000,0
6798,-0.0075,-0.0799,0.0848,0.1873,0.1287,0.1589,2.17,2.78,0.44,0,3.431,14.443,-24.195,1.595,-0.008,-0.034,0.999,0.000,0.000,0.000,0.0790,2,-11,0.00,0.00,0.00,0.0000,0.0000,0.0000,0.0000,0.0000,0.0000,0.0000,0.00,0.00,0.00,0.9280,0.1580,1.0580,1.3860,2.6260,4,0.0000,0.0000,0.0000,0.0000,0.0000,0
6850,-0.0039,-0.0660,0.0884,0.1368,0.1506,0.1372,2.80,4.02,0.38,0,3.431,-2.144,-1.233,3.471,-0.002,-0.027,1.017,0.000,0.000,0.000,0.0850,-8,-1,0.00,0.00,0.00,0.0000,0.0000,0.0000,0.0000,0.0000,0.0000,0.0000,0.00,0.00,0.00,0.9390,0.1320,1.0160,1.4130,2.6300,4,0.0000,0.0000,0.0000,0.0000,0.0000,0
6902,0.0023,-0.0677,0.0936,0.1031,0.0855,0.1342,2.93,4.22,0.53,0,3.426,-5.759,15.325,3.657,0.002,-0.031,1.020,0.000,0.000,0.000,0.0940,2,0,0.00,0.00,0.00,0.0000,0.0000,0.0000,0.0000,0.0000,0.0000,0.0000,0.00,0.00,0.00,0.9390,0.1320,1.0160,1.4130,2.6300,4,0.0000,0.0000,0.0000,0.0000,0.0000,0
6953,0.0065,-0.0594,0.0993,0.0687,0.0824,0.1355,2.62,3.52,0.78,0,3.431,-4.424,7.543,3.265,0.004,-0.030,1.025,0.000,0.000,0.000,0.1020,9,-6,0.00,0.00,0.00,0.0000,0.0000,0.0000,0.0000,0.0000,0.3000,0.2882,-0.29,3.37,-23.26,0.9300,0.1150,0.9810,1.4480,2.6200,4,0.0000,0.0000,0.0000,0.0000,0.0000,0
7005,0.0104,-0.0560,0.1070,0.0453,0.0585,0.1482,2.49,2.91,0.92,0,3.421,-6.378,15.225,2.583,0.001,-0.028,1.018,0.000,0.000,0.000,0.1030,4,-2,2.62,-3.52,0.78,0.0065,-0.0594,0.1020,0.0000,0.0000,0.3000,0.2854,-1.11,2.64,-27.59,0.9300,0.1150,0.9810,1.4480,2.6200,4,0.0000,0.0000,0.0000,0.0000,0.0000,0
7056,0.0136,-0.0557,0.1112,0.0293,0.0286,0.1425,2.16,2.27,1.08,0,3.426,-9.600,15.658,0.742,0.008,-0.021,1.032,0.000,0.000,0.000,0.1060,-1,1,2.42,-4.33,0.95,0.0091,-0.0654,0.1028,0.0000,0.0000,0.3000,0.2852,-2.39,2.15,-32.31,0.9010,0.1070,0.9500,1.4920,2.6040,4,0.0000,0.0000,0.0000,0.0000,0.0000,0
7107,0.0146,-0.0567,0.1155,0.0118,0.0012,0.1419,1.59,1.46,1.17,0,3.421,-10.283,6.606,-0.998,0.007,-0.023,1.033,0.000,0.000,0.000,0.1090,-4,1,-1.73,-2.39,0.82,0.0092,-0.0648,0.1179,0.0000,0.0000,0.3000,0.2845,-3.64,1.46,-35.11,0.9010,0.1070,0.9500,1.4920,2.6040,4,0.0000,0.0000,0.0000,0.0000,0.0000,0
7158,0.0148,-0.0557,0.1183,-0.0011,-0.0057,0.1358,1.08,1.17,1.19,0,3.415,-9.360,10.607,-1.312,0.009,-0.020,1.042,0.000,0.000,0.000,0.1130,-5,2,-5.46,-0.83,0.68,0.0079,-0.0605,0.1149,0.0000,0.0000,0.3000,0.2846,-3.88,0.92,-35.59,0.8900,0.0940,0.9270,1.5400,2.5880,4,0.0000,0.0000,0.0000,0.0000,0.0000,0
7208,0.0150,-0.0557,0.1225,-0.0079,-0.0131,0.1412,0.55,0.65,1.13,0,3.421,-7.381,7.717,-0.945,0.004,-0.018,1.043,0.000,0.000,0.000,0.1250,0,3,-6.46,-0.10,0.52,0.0059,-0.0546,0.1164,0.0000,0.0000,0.3000,0.2832,-4.22,0.64,-34.04,0.8900,0.0940,0.9270,1.5400,2.5880,4,0.0000,0.0000,0.0000,0.0000,0.0000,0
7260,0.0139,-0.0465,0.1305,-0.0155,0.0306,0.1640,-0.09,0.17,1.18,0,3.421,7.386,5.916,-1.338,0.011,-0.017,1.033,0.000,0.000,0.000,0.1320,-17,7,-4.63,0.35,0.20,0.0032,-0.0514,0.1325,0.0000,0.0000,0.3000,0.2793,-1.74,0.24,-35.43,0.8900,0.0880,0.9010,1.5770,2.5760,4,0.0000,0.0000,0.0000,0.0000,0.0000,0
7311,0.0136,-0.0467,0.1392,-0.0135,0.0228,0.1822,0.09,-0.21,1.14,0,3.421,6.618,4.222,-1.430,0.008,-0.025,1.030,0.000,0.000,0.000,0.1370,3,3,-8.50,1.74,0.34,-0.0052,-0.0309,0.1368,0.0000,0.0000,0.3000,0.2757,-2.12,0.31,-34.07,0.8900,0.0880,0.9010,1.5770,2.5760,4,0.0000,0.0000,0.0000,0.0000,0.0000,0
7361,0.0111,-0.0395,0.1465,-0.0194,0.0469,0.1867,0.52,-0.38,1.08,0,3.426,1.845,0.926,-3.722,0.008,-0.022,1.022,0.000,0.000,0.000,0.1500,5,4,-4.60,1.22,-0.45,-0.0103,-0.0252,0.1742,0.0000,0.0000,0.3000,0.2738,-0.57,-0.12,-32.42,0.8940,0.0840,0.8780,1.6080,2.5530,4,0.0000,0.0000,0.0000,0.0000,0.0000,0
7413,0.0102,-0.0402,0.1570,-0.0158,0.0295,0.2027,0.78,-0.46,0.91,0,3.421,8.113,-0.731,-4.093,0.008,-0.023,1.012,0.000,0.000,0.000,0.1530,1,0,-1.67,1.08,-1.22,-0.0165,-0.0326,0.1774,0.0000,0.0000,0.3000,0.2701,-1.42,-0.02,-27.25,0.8940,0.0840,0.8780,1.6080,2.5530,4,0.0000,0.0000,0.0000,0.0000,0.0000,0
7464,0.0100,-0.0396,0.1643,-0.0097,0.0191,0.1969,1.15,-0.44,0.68,0,3.426,1.442,0.727,-2.249,0.004,-0.023,1.008,0.000,0.000,0.000,0.1680,1,-1,-0.60,0.25,-1.50,-0.0159,-0.0365,0.1800,0.0000,0.0000,0.3000,0.2694,-1.86,0.24,-20.34,0.9100,0.0940,0.8510,1.6240,2.5270,4,0.0000,0.0000,0.0000,0.0000,0.0000,0
7515,0.0102,-0.0409,0.1751,-0.0031,0.0005,0.2044,1.34,-0.50,0.52,0,3.426,-9.054,0.585,0.562,0.006,-0.024,0.999,0.000,0.000,0.000,0.1760,3,0,-0.31,-0.33,-1.74,-0.0141,-0.0392,0.1864,0.0000,0.0000,0.3000,0.2665,-2.83,0.57,-15.70,0.9100,0.0940,0.8510,1.6240,2.5270,4,0.0000,0.0000,0.0000,0.0000,0.0000,0
7566,0.0101,-0.0404,0.1848,0.0009,-0.0067,0.2026,0.95,-0.54,0.52,0,3.436,-4.529,-0.098,2.142,0.004,-0.021,0.998,0.000,0.000,0.000,0.1900,-20,-2,-0.40,-0.48,-1.78,-0.0138,-0.0451,0.1926,0.0000,0.0000,0.3000,0.2649,-3.15,0.76,-15.60,0.9400,0.1000,0.8290,1.6670,2.5040,4,0.0000,0.0000,0.0000,0.0000,0.0000,0
7616,0.0099,-0.0394,0.1967,0.0043,-0.0078,0.2086,0.39,-0.53,0.63,0,3.431,0.106,1.416,3.239,0.005,-0.020,0.990,0.000,0.000,0.000,0.2000,-2,0,-3.56,-0.75,-1.67,-0.0095,-0.0084,0.2095,0.0000,0.0000,0.3000,0.2620,-3.17,0.91,-18.85,0.9400,0.1000,0.8290,1.6670,2.5040,4,0.0000,0.0000,0.0000,0.0000,0.0000,0
7676,0.0096,-0.0290,0.2076,0.0065,0.0287,0.2064,0.21,-0.49,0.77,0,3.431,2.772,-3.765,1.854,0.006,-0.025,0.988,0.000,0.000,0.000,0.2130,-17,1,-3.14,-0.76,-1.48,-0.0089,-0.0014,0.2216,0.0000,0.0000,0.3000,0.2602,-0.71,0.99,-23.13,0.9700,0.1040,0.8120,1.7160,2.4890,4,0.0000,0.0000,0.0000,0.0000,0.0000,0
7726,0.0086,-0.0292,0.2195,0.0054,0.0201,0.2080,0.37,-0.32,0.87,0,3.442,3.191,-3.048,2.182,0.002,-0.025,0.976,0.000,0.000,0.000,0.2270,11,0,-4.38,-0.29,-1.37,-0.0102,0.0335,0.2225,0.0000,0.0000,0.3000,0.2578,-1.15,0.88,-26.13,0.9700,0.1040,0.8120,1.7160,2.4890,4,0.0000,0.0000,0.0000,0.0000,0.0000,0
7778,0.0074,-0.0243,0.2324,0.0029,0.0286,0.2101,0.84,-0.33,0.98,0,3.442,2.408,0.087,0.479,0.004,-0.026,0.966,0.000,0.000,0.000,0.2350,1,0,-2.40,-0.14,-1.12,-0.0110,0.0179,0.2480,0.0000,0.0000,0.3000,0.2551,-0.40,0.68,-29.30,1.0110,0.1140,0.7910,1.7250,2.4650,4,0.0000,0.0000,0.0000,0.0000,0.0000,0
7829,0.0067,-0.0278,0.2428,0.0024,0.0066,0.1967,1.01,-0.32,1.00,0,3.436,-4.337,0.049,-0.814,0.003,-0.022,0.963,0.000,0.000,0.000,0.2440,2,1,-1.80,-0.12,-1.07,-0.0110,0.0156,0.2542,0.0000,0.0000,0.3000,0.2546,-1.71,0.60,-30.12,1.0110,0.1140,0.7910,1.7250,2.4650,4,0.0000,0.0000,0.0000,0.0000,0.0000,0
7879,0.0061,-0.0273,0.2519,0.0027,-0.0002,0.1775,0.80,-0.32,0.98,0,3.442,-4.643,0.849,-1.847,0.005,-0.020,0.968,0.000,0.000,0.000,0.2540,-6,0,-1.61,-0.01,-1.06,-0.0135,0.0109,0.2592,0.0000,0.0000,0.3000,0.2550,-2.01,0.57,-29.55,1.0400,0.1230,0.7760,1.7800,2.4410,4,0.0000,0.0000,0.0000,0.0000,0.0000,0
7930,0.0045,-0.0215,0.2605,0.0002,0.0124,0.1613,0.36,-0.32,0.91,0,3.431,2.044,-0.047,-2.096,0.004,-0.022,0.968,0.000,0.000,0.000,0.2610,0,1,-2.23,-0.05,-1.16,-0.0131,0.0256,0.2653,0.0000,0.0000,0.3000,0.2551,-0.98,0.34,-27.20,1.0400,0.1230,0.7760,1.7800,2.4410,4,0.0000,0.0000,0.0000,0.0000,0.0000,0
7982,0.0040,-0.0153,0.2676,0.0012,0.0262,0.1422,0.38,-0.29,0.80,0,3.436,1.705,-2.850,-1.576,0.007,-0.021,0.969,0.000,0.000,0.000,0.2710,-2,1,-1.92,0.04,-1.24,-0.0157,0.0260,0.2706,0.0000,0.0000,0.3000,0.2558,0.15,0.35,-24.10,1.0650,0.1270,0.7610,1.7930,2.4330,4,0.0000,0.0000,0.0000,0.0000,0.0000,0
8033,0.0035,-0.0123,0.2753,0.0017,0.0279,0.1308,0.48,-0.20,0.71,0,3.431,3.505,-0.203,-1.756,0.006,-0.025,0.968,0.000,0.000,0.000,0.2770,-1,1,-1.83,0.25,-1.28,-0.0183,0.0316,0.2761,0.0000,0.0000,0.3000,0.2556,0.45,0.34,-21.41,1.0650,0.1270,0.7610,1.7930,2.4330,4,0.0000,0.0000,0.0000,0.0000,0.0000,0
8084,0.0030,-0.0046,0.2818,0.0019,0.0414,0.1164,0.55,-0.21,0.61,0,3.436,2.838,-2.084,-3.266,0.007,-0.021,0.972,0.000,0.000,0.000,0.2830,-1,0,-1.58,0.32,-1.35,-0.0211,0.0346,0.2810,0.0000,0.0000,0.3000,0.2559,1.65,0.31,-18.31,1.0850,0.1380,0.7450,1.7990,2.4190,4,0.0000,0.0000,0.0000,0.0000,0.0000,0
8135,0.0020,-0.0001,0.2873,0.0008,0.0439,0.1021,0.67,-0.20,0.48,0,3.426,6.789,2.334,-1.986,0.007,-0.018,0.977,0.000,0.000,0.000,0.2880,-1,1,-1.37,0.40,-1.54,-0.0210,0.0376,0.2856,0.0000,0.0000,0.3000,0.2564,2.10,0.19,-14.35,1.0850,0.1380,0.7450,1.7990,2.4190,4,0.0000,0.0000,0.0000,0.0000,0.0000,0
8187,0.0015,0.0016,0.2919,0.0009,0.0368,0.0892,0.91,-0.18,0.36,0,3.431,2.879,2.489,-2.669,0.004,-0.020,0.977,0.000,0.000,0.000,0.2900,-6,0,-0.98,0.32,-1.62,-0.0239,0.0407,0.2899,0.0000,0.0000,0.3000,0.2569,1.88,0.15,-10.67,1.1000,0.1410,0.7330,1.8030,2.4100,4,0.0000,0.0000,0.0000,0.0000,0.0000,0
8237,0.0009,0.0068,0.2946,0.0008,0.0380,0.0712,0.89,-0.17,0.23,0,3.421,-0.418,-0.046,-1.932,0.009,-0.018,0.982,0.000,0.000,0.000,0.2960,2,0,-1.12,0.16,-1.73,-0.0233,0.0587,0.2927,0.0000,0.0000,0.3000,0.2584,2.29,0.11,-7.05,1.1000,0.1410,0.7330,1.8030,2.4100,4,0.0000,0.0000,0.0000,0.0000,0.0000,0
8288,-0.0002,0.0091,0.2983,-0.0009,0.0316,0.0641,0.97,-0.18,0.14,0,3.426,-2.734,-1.688,-2.282,0.006,-0.021,0.987,0.000,0.000,0.000,0.3000,-1,0,-0.88,0.15,-1.90,-0.0233,0.0528,0.2969,0.0000,0.0000,0.3000,0.2584,2.16,-0.06,-4.25,1.0980,0.1430,0.7250,1.8040,2.4000,4,0.0000,0.0000,0.0000,0.0000,0.0000,0
8339,-0.0002,0.0214,0.3019,0.0009,0.0502,0.0592,0.77,-0.11,0.03,0,3.415,4.350,0.445,-1.538,0.003,-0.015,0.995,0.000,0.000,0.000,0.3020,1,0,-1.00,0.22,-2.03,-0.0232,0.0559,0.3003,0.0000,0.0000,0.3000,0.2583,3.93,0.04,-1.02,1.0980,0.1430,0.7250,1.8040,2.4000,4,0.0000,0.0000,0.0000,0.0000,0.0000,0
8391,-0.0019,0.0224,0.3045,-0.0026,0.0402,0.0551,0.95,-0.02,-0.04,0,3.421,-1.235,1.923,-2.004,0.005,-0.011,0.996,0.000,0.000,0.000,0.3030,-3,0,-0.64,0.19,-2.15,-0.0232,0.0525,0.3035,0.0000,0.0000,0.3000,0.2583,3.52,-0.25,1.27,1.1130,0.1500,0.7120,1.8120,2.3910,4,0.0000,0.0000,0.0000,0.0000,0.0000,0
8442,-0.0015,0.0258,0.3062,-0.0010,0.0355,0.0481,0.96,-0.10,-0.14,0,3.410,-0.243,-1.198,-2.337,0.009,-0.016,0.998,0.000,0.000,0.000,0.3050,-2,0,-0.82,0.08,-2.24,-0.0228,0.0622,0.3057,0.0000,0.0000,0.3000,0.2587,3.53,-0.15,4.31,1.1130,0.1500,0.7120,1.8120,2.3910,4,0.0000,0.0000,0.0000,0.0000,0.0000,0
8493,-0.0021,0.0275,0.3077,-0.0014,0.0276,0.0435,0.92,-0.13,-0.25,0,3.421,-0.567,0.217,-1.841,0.006,-0.013,1.004,0.000,0.000,0.000,0.3100,1,-1,-0.87,0.14,-2.35,-0.0225,0.0685,0.3078,0.0000,0.0000,0.3000,0.2589,3.28,-0.21,7.48,1.1270,0.1540,0.7030,1.8150,2.3920,4,0.0000,0.0000,0.0000,0.0000,0.0000,0
8544,-0.0029,0.0312,0.3109,-0.0021,0.0250,0.0482,0.88,-0.09,-0.34,0,3.415,-3.672,-0.539,-2.326,0.003,-0.016,1.001,0.000,0.000,0.000,0.3120,3,0,-0.78,0.08,-2.53,-0.0191,0.0648,0.3111,0.0000,0.0000,0.3000,0.2578,3.44,-0.30,10.15,1.1270,0.1540,0.7030,1.8150,2.3920,4,0.0000,0.0000,0.0000,0.0000,0.0000,0
8596,-0.0039,0.0335,0.3136,-0.0036,0.0206,0.0503,0.76,-0.08,-0.43,0,3.421,-2.082,0.083,-2.537,0.005,-0.016,0.998,0.000,0.000,0.000,0.3120,-5,0,-0.77,0.12,-2.67,-0.0196,0.0545,0.3142,0.0000,0.0000,0.3000,0.2570,3.39,-0.46,12.78,1.1340,0.0000,0.7010,1.8150,2.3880,4,0.0000,0.0000,0.0000,0.0000,0.0000,0
8647,-0.0046,0.0332,0.3146,-0.0043,0.0136,0.0456,0.54,-0.09,-0.51,0,3.415,0.429,-0.439,-0.654,0.003,-0.016,0.998,0.000,0.000,0.000,0.3180,0,0,-1.11,0.12,-2.75,-0.0190,0.0719,0.3163,0.0000,0.0000,0.3000,0.2574,3.03,-0.54,15.19,1.1340,0.0000,0.7010,1.8150,2.3880,4,0.0000,0.0000,0.0000,0.0000,0.0000,0
8698,-0.0052,0.0338,0.3181,-0.0045,0.0087,0.0515,0.51,-0.12,-0.55,0,3.421,-0.952,-1.532,-1.028,0.008,-0.016,1.001,0.000,0.000,0.000,0.3180,0,0,-1.09,0.15,-2.78,-0.0183,0.0754,0.3193,0.0000,0.0000,0.3000,0.2561,2.86,-0.59,16.43,1.1470,0.1650,0.6960,1.8210,2.3780,4,0.0000,0.0000,0.0000,0.0000,0.0000,0
8748,-0.0060,0.0338,0.3201,-0.0049,0.0036,0.0483,0.52,-0.11,-0.60,0,3.410,-4.074,0.821,0.169,0.004,-0.009,0.999,0.000,0.000,0.000,0.3190,0,1,-1.14,0.23,-2.83,-0.0176,0.0790,0.3214,0.0000,0.0000,0.3000,0.2560,2.61,-0.67,17.92,1.1470,0.1650,0.6960,1.8210,2.3780,4,0.0000,0.0000,0.0000,0.0000,0.0000,0
8800,-0.0053,0.0285,0.3216,-0.0021,-0.0122,0.0445,0.41,-0.09,-0.63,0,3.421,-6.172,0.376,-0.375,0.004,-0.007,1.003,0.000,0.000,0.000,0.3220,-1,0,-1.14,0.28,-2.75,-0.0255,0.0656,0.3236,0.0000,0.0000,0.3000,0.2562,1.47,-0.49,18.92,0.0000,0.1610,0.7030,1.8270,2.3770,4,0.0000,0.0000,0.0000,0.0000,0.0000,0
8852,-0.0061,0.0295,0.3236,-0.0025,-0.0123,0.0434,0.12,-0.11,-0.64,0,3.410,-2.741,-0.068,1.171,0.008,-0.011,1.001,0.000,0.000,0.000,0.3240,-1,0,-1.47,0.25,-2.77,-0.0256,0.0681,0.3257,0.0000,0.0000,0.3000,0.2559,1.53,-0.56,19.22,0.0000,0.1610,0.7030,1.8270,2.3770,4,0.0000,0.0000,0.0000,0.0000,0.0000,0
8903,-0.0062,0.0286,0.3255,-0.0017,-0.0144,0.0436,0.07,-0.09,-0.61,0,3.415,-0.879,-0.117,1.568,0.001,-0.007,0.998,0.000,0.000,0.000,0.3230,-1,0,-1.63,0.25,-2.71,-0.0257,0.0709,0.3277,0.0000,0.0000,0.3000,0.2555,1.37,-0.53,18.39,1.1630,0.1710,0.7030,1.8320,2.3730,4,0.0000,0.0000,0.0000,0.0000,0.0000,0
8955,-0.0064,0.0282,0.3265,-0.0011,-0.0142,0.0361,-0.02,-0.07,-0.55,0,3.405,-1.786,-2.083,2.519,0.000,-0.013,0.997,0.000,0.000,0.000,0.3290,8,0,-1.68,0.25,-2.64,-0.0257,0.0740,0.3286,0.0000,0.0000,0.3000,0.2561,1.35,-0.51,16.45,1.1630,0.1710,0.7030,1.8320,2.3730,4,0.0000,0.0000,0.0000,0.0000,0.0000,0
9006,-0.0076,0.0287,0.3290,-0.0030,-0.0119,0.0403,-0.05,-0.04,-0.44,0,3.415,1.101,0.790,2.266,0.006,-0.013,1.001,0.000,0.000,0.000,0.3250,0,0,-1.48,0.35,-2.59,-0.0264,0.0549,0.3315,0.0000,0.0000,0.3000,0.2552,1.50,-0.70,13.28,1.1800,0.0000,0.7000,1.8380,2.3680,4,0.0000,0.0000,0.0000,0.0000,0.0000,0
9057,-0.0077,0.0181,0.3287,-0.0026,-0.0309,0.0294,-0.02,-0.07,-0.34,0,3.399,-2.939,-0.071,1.845,0.011,-0.009,1.002,0.000,0.000,0.000,0.3310,0,-1,-1.42,0.30,-2.47,-0.0270,0.0538,0.3318,0.0000,0.0000,0.3000,0.2565,-0.18,-0.68,10.09,1.1800,0.0000,0.7000,1.8380,2.3680,4,0.0000,0.0000,0.0000,0.0000,0.0000,0
9108,-0.0087,0.0160,0.3310,-0.0038,-0.0319,0.0338,-0.17,-0.10,-0.24,0,3.415,-2.720,1.370,0.731,0.004,-0.010,0.999,0.000,0.000,0.000,0.3320,2,0,-1.59,0.25,-2.42,-0.0222,0.0547,0.3337,0.0000,0.0000,0.3000,0.2555,-0.39,-0.82,7.16,1.1860,0.0000,0.7070,1.8390,2.3700,4,0.0000,0.0000,0.0000,0.0000,0.0000,0
9159,-0.0082,0.0154,0.3330,-0.0017,-0.0287,0.0350,-0.28,-0.14,-0.16,0,3.405,0.153,-2.125,0.916,0.001,-0.012,1.000,0.000,0.000,0.000,0.3370,0,0,-1.68,0.18,-2.40,-0.0221,0.0502,0.3352,0.0000,0.0000,0.3000,0.2550,-0.28,-0.67,4.90,1.1860,0.0000,0.7070,1.8390,2.3700,4,0.0000,0.0000,0.0000,0.0000,0.0000,0
9211,-0.0086,0.0157,0.3364,-0.0013,-0.0228,0.0429,-0.30,-0.11,-0.12,0,3.415,0.256,-0.515,-0.692,0.002,-0.016,0.995,0.000,0.000,0.000,0.3370,5,0,-1.67,0.29,-2.35,-0.0217,0.0499,0.3378,0.0000,0.0000,0.3000,0.2535,0.03,-0.70,3.57,1.2030,0.1650,0.7150,1.8560,2.3640,4,0.0000,0.0000,0.0000,0.0000,0.0000,0
9261,-0.0088,0.0163,0.3386,-0.0007,-0.0169,0.0416,-0.25,-0.08,-0.14,0,3.405,-0.009,0.784,-1.129,0.006,-0.011,0.994,0.000,0.000,0.000,0.3400,0,0,-1.43,0.32,-2.44,-0.0229,0.0300,0.3395,0.0000,0.0000,0.3000,0.2532,0.37,-0.68,4.07,1.2030,0.1650,0.7150,1.8560,2.3640,4,0.0000,0.0000,0.0000,0.0000,0.0000,0
9313,-0.0088,0.0080,0.3409,0.0000,-0.0288,0.0404,-0.17,-0.12,-0.19,0,3.415,-2.109,-2.292,-0.790,0.004,-0.015,0.993,0.000,0.000,0.000,0.3390,4,0,-1.43,0.29,-2.50,-0.0228,0.0265,0.3415,0.0000,0.0000,0.3000,0.2529,-0.83,-0.64,5.79,1.2070,0.1590,0.7130,1.8440,2.3540,4,0.0000,0.0000,0.0000,0.0000,0.0000,0
9364,-0.0088,0.0075,0.3415,0.0010,-0.0254,0.0298,-0.19,-0.14,-0.25,0,3.399,-3.726,0.526,-1.884,0.005,-0.016,0.996,0.000,0.000,0.000,0.3380,0,0,-1.46,0.41,-2.56,-0.0235,0.0155,0.3421,0.0000,0.0000,0.3000,0.2540,-0.70,-0.59,7.39,1.2070,0.1590,0.7130,1.8440,2.3540,4,0.0000,0.0000,0.0000,0.0000,0.0000,0
9415,-0.0088,0.0061,0.3409,0.0021,-0.0235,0.0173,-0.37,-0.14,-0.33,0,3.405,-0.835,-1.472,-1.834,0.004,-0.011,1.002,0.000,0.000,0.000,0.3380,0,-1,-1.65,0.39,-2.66,-0.0236,0.0111,0.3422,0.0000,0.0000,0.3000,0.2554,-0.70,-0.54,9.83,1.2140,0.1560,0.7200,1.8590,2.3550,4,0.0000,0.0000,0.0000,0.0000,0.0000,0
9466,-0.0093,0.0052,0.3403,0.0021,-0.0201,0.0098,-0.34,-0.10,-0.43,0,3.394,-0.446,-0.616,-2.426,0.006,-0.014,1.004,0.000,0.000,0.000,0.3380,0,-1,-1.78,0.43,-2.74,-0.0199,0.0154,0.3424,0.0000,0.0000,0.3000,0.2563,-0.60,-0.57,12.92,1.2140,0.1560,0.7200,1.8590,2.3550,4,0.0000,0.0000,0.0000,0.0000,0.0000,0
9516,-0.0087,0.0034,0.3396,0.0037,-0.0189,0.0061,-0.36,-0.05,-0.55,0,3.405,2.139,-0.822,-2.281,0.007,-0.013,1.010,0.000,0.000,0.000,0.3460,1,0,-1.81,0.44,-2.86,-0.0177,0.0146,0.3422,0.0000,0.0000,0.3000,0.2569,-0.67,-0.45,16.61,0.0000,0.1650,0.7200,1.8490,2.3540,4,0.0000,0.0000,0.0000,0.0000,0.0000,0
9568,-0.0067,0.0032,0.3430,0.0074,-0.0146,0.0224,-0.31,-0.06,-0.66,0,3.399,0.974,-2.690,-1.538,0.002,-0.016,1.003,0.000,0.000,0.000,0.3420,5,0,-1.69,0.49,-2.98,-0.0174,0.0119,0.3447,0.0000,0.0000,0.3000,0.2545,-0.48,-0.13,19.78,0.0000,0.1650,0.7200,1.8490,2.3540,4,0.0000,0.0000,0.0000,0.0000,0.0000,0
9619,-0.0070,0.0040,0.3434,0.0068,-0.0091,0.0203,-0.21,-0.05,-0.73,0,3.410,2.073,-0.072,-1.391,-0.000,-0.011,1.001,0.000,0.000,0.000,0.3440,13,-1,-1.52,0.64,-3.11,-0.0178,-0.0007,0.3454,0.0000,0.0000,0.3000,0.2546,-0.16,-0.18,21.83,1.2490,0.1660,0.7220,1.8390,2.3550,4,0.0000,0.0000,0.0000,0.0000,0.0000,0
9669,-0.0059,0.0063,0.3447,0.0086,-0.0016,0.0220,-0.10,-0.05,-0.78,0,3.399,0.372,-1.973,-0.919,0.001,-0.012,1.001,0.000,0.000,0.000,0.3480,2,-1,-1.09,0.62,-3.37,-0.0166,-0.0354,0.3457,0.0000,0.0000,0.3000,0.2542,0.38,-0.01,23.43,1.2490,0.1660,0.7220,1.8390,2.3550,4,0.0000,0.0000,0.0000,0.0000,0.0000,0
9721,-0.0055,-0.0067,0.3472,0.0089,-0.0235,0.0295,-0.09,0.04,-0.83,0,3.410,-0.030,1.664,-1.480,0.001,-0.011,0.994,0.000,0.000,0.000,0.3480,-1,-1,-1.08,0.70,-3.41,-0.0142,-0.0432,0.3479,0.0000,0.0000,0.3000,0.2529,-1.65,0.03,25.02,0.0000,0.1610,0.7230,1.8380,2.3540,4,0.0000,0.0000,0.0000,0.0000,0.0000,0
9773,-0.0049,-0.0084,0.3489,0.0090,-0.0237,0.0292,-0.23,0.00,-0.88,0,3.399,-1.484,-0.637,-0.588,0.007,-0.014,0.994,0.000,0.000,0.000,0.3470,0,-1,-1.18,0.59,-3.44,-0.0111,-0.0416,0.3499,0.0000,0.0000,0.3000,0.2526,-1.78,0.08,26.50,0.0000,0.1610,0.7230,1.8380,2.3540,4,0.0000,0.0000,0.0000,0.0000,0.0000,0
9824,-0.0046,-0.0094,0.3491,0.0085,-0.0215,0.0212,-0.33,0.08,-0.92,0,3.405,1.554,-0.776,-0.729,0.000,-0.009,0.995,0.000,0.000,0.000,0.3510,0,0,-1.31,0.61,-3.45,-0.0080,-0.0423,0.3504,0.0000,0.0000,0.3000,0.2534,-1.74,0.08,27.63,0.0000,0.0000,0.7300,1.8260,2.3460,4,0.0000,0.0000,0.0000,0.0000,0.0000,0
9875,-0.0035,-0.0101,0.3509,0.0092,-0.0182,0.0222,-0.25,0.06,-0.96,0,3.399,1.243,0.187,-1.964,0.002,-0.007,0.992,0.000,0.000,0.000,0.3520,1,0,-1.23,0.65,-3.49,-0.0072,-0.0474,0.3516,0.0000,0.0000,0.3000,0.2530,-1.63,0.20,28.90,0.0000,0.0000,0.7300,1.8260,2.3460,4,0.0000,0.0000,0.0000,0.0000,0.0000,0
9925,-0.0020,-0.0120,0.3523,0.0105,-0.0180,0.0202,-0.23,0.07,-1.04,0,3.405,-2.775,-1.492,-0.488,0.003,-0.010,0.996,0.000,0.000,0.000,0.3510,4,0,-1.24,0.66,-3.53,-0.0087,-0.0438,0.3527,0.0000,0.0000,0.3000,0.2529,-1.76,0.36,31.09,0.0000,0.1560,0.7340,1.8200,2.3510,4,0.0000,0.0000,0.0000,0.0000,0.0000,0
9977,-0.0004,-0.0111,0.3525,0.0121,-0.0124,0.0147,-0.30,0.14,-1.10,0,3.399,-1.613,-3.281,-0.663,0.006,-0.009,0.994,0.000,0.000,0.000,0.3510,-3,-1,-1.31,0.74,-3.60,-0.0093,-0.0550,0.3529,0.0000,0.0000,0.3000,0.2535,-1.42,0.56,32.89,0.0000,0.1560,0.7340,1.8200,2.3510,4,0.0000,0.0000,0.0000,0.0000,0.0000,0
10028,-0.0016,-0.0238,0.3523,0.0075,-0.0325,0.0079,-0.23,0.22,-1.15,0,3.405,-1.535,0.125,-0.300,0.004,-0.009,0.997,0.000,0.000,0.000,0.3530,1,0,-1.49,0.89,-3.57,-0.0060,-0.0474,0.3530,0.0000,0.0000,0.3000,0.2543,-3.32,0.25,34.54,0.0000,0.0000,0.7400,1.8270,2.3460,4,0.0000,0.0000,0.0000,0.0000,0.0000,0
10079,0.0008,-0.0227,0.3529,0.0094,-0.0254,0.0064,-0.34,0.19,-1.20,0,3.399,-0.306,-3.003,-0.915,0.001,-0.013,1.000,0.000,0.000,0.000,0.3550,0,0,-1.55,0.88,-3.59,-0.0062,-0.0505,0.3534,0.0000,0.0000,0.3000,0.2543,-2.89,0.52,35.86,0.0000,0.0000,0.7400,1.8270,2.3460,4,0.0000,0.0000,0.0000,0.0000,0.0000,0
10130,0.0009,-0.0255,0.3542,0.0072,-0.0254,0.0098,-0.41,0.21,-1.23,0,3.399,1.337,1.082,0.214,0.004,-0.012,0.996,0.000,0.000,0.000,0.3510,0,0,-1.57,1.04,-3.64,-0.0064,-0.0520,0.3543,0.0000,0.0000,0.3000,0.2537,-3.11,0.42,36.89,0.0000,0.1560,0.7420,1.8270,2.3410,4,0.0000,0.0000,0.0000,0.0000,0.0000,0
10182,0.0023,-0.0267,0.3531,0.0076,-0.0220,0.0015,-0.34,0.25,-1.23,0,3.394,0.376,2.295,0.371,0.001,-0.009,1.001,0.000,0.000,0.000,0.3530,-1,0,-1.50,0.98,-3.63,-0.0070,-0.0531,0.3536,0.0000,0.0000,0.3000,0.2548,-3.02,0.54,36.84,0.0000,0.1560,0.7420,1.8270,2.3410,4,0.0000,0.0000,0.0000,0.0000,0.0000,0
10232,0.0022,-0.0280,0.3531,0.0048,-0.0196,0.0002,-0.32,0.20,-1.21,0,3.399,-1.503,-1.748,0.818,0.005,-0.012,1.000,0.000,0.000,0.000,0.3540,-1,0,-1.54,0.83,-3.57,-0.0036,-0.0462,0.3536,0.0000,0.0000,0.3000,0.2549,-3.00,0.40,36.35,0.0000,0.0000,0.7470,1.8250,2.3420,4,0.0000,0.0000,0.0000,0.0000,0.0000,0
10283,0.0030,-0.0370,0.3535,0.0044,-0.0320,0.0010,-0.31,0.17,-1.14,0,3.394,-0.668,4.490,1.355,0.002,-0.011,0.998,0.000,0.000,0.000,0.3520,0,0,-1.62,0.92,-3.52,-0.0038,-0.0439,0.3538,0.0000,0.0000,0.3000,0.2548,-4.25,0.43,34.33,0.0000,0.0000,0.7470,1.8250,2.3420,4,0.0000,0.0000,0.0000,0.0000,0.0000,0
10334,0.0031,-0.0405,0.3528,0.0027,-0.0332,-0.0033,-0.31,0.11,-1.07,0,3.399,-2.902,2.598,0.486,0.005,-0.013,1.001,0.000,0.000,0.000,0.3530,0,0,-1.66,0.69,-3.45,-0.0045,-0.0422,0.3534,0.0000,0.0000,0.3000,0.2554,-4.55,0.35,32.17,1.3770,0.1560,0.7500,1.8280,2.3470,4,0.0000,0.0000,0.0000,0.0000,0.0000,0
10386,0.0031,-0.0426,0.3527,0.0015,-0.0314,-0.0032,-0.45,0.11,-1.03,0,3.389,0.168,2.698,0.546,0.007,-0.016,1.003,0.000,0.000,0.000,0.3520,0,0,-1.81,0.55,-3.43,-0.0054,-0.0400,0.3534,0.0000,0.0000,0.3000,0.2553,-4.61,0.30,30.94,1.3770,0.1560,0.7500,1.8280,2.3470,4,0.0000,0.0000,0.0000,0.0000,0.0000,0
10437,0.0038,-0.0479,0.3522,0.0020,-0.0348,-0.0035,-0.52,0.02,-0.98,0,3.394,1.399,0.737,1.434,0.008,-0.013,1.005,0.000,0.000,0.000,0.3540,3,0,-1.80,0.41,-3.41,-0.0064,-0.0375,0.3531,0.0000,0.0000,0.3000,0.2555,-5.16,0.38,29.46,0.0000,0.0000,0.7540,1.8320,2.3470,4,0.0000,0.0000,0.0000,0.0000,0.0000,0
10488,0.0036,-0.0499,0.3530,0.0012,-0.0309,0.0021,-0.52,0.02,-0.92,0,3.389,-3.886,-2.532,1.702,0.003,-0.010,1.003,0.000,0.000,0.000,0.3510,0,0,-1.54,0.34,-3.51,-0.0036,-0.0595,0.3544,0.0000,0.0000,0.3000,0.2547,-5.13,0.32,27.53,0.0000,0.0000,0.7540,1.8320,2.3470,4,0.0000,0.0000,0.0000,0.0000,0.0000,0
10538,0.0031,-0.0535,0.3521,0.0000,-0.0304,-0.0007,-0.63,0.09,-0.83,0,3.394,2.280,1.389,0.927,0.005,-0.014,1.003,0.000,0.000,0.000,0.3530,-1,0,-1.74,0.46,-3.42,-0.0040,-0.0605,0.3537,0.0000,0.0000,0.3000,0.2552,-5.36,0.23,24.93,0.0000,0.1540,0.7580,1.8440,2.3490,4,0.0000,0.0000,0.0000,0.0000,0.0000,0
10590,0.0035,-0.0581,0.3525,0.0002,-0.0311,0.0021,-0.59,0.01,-0.77,0,3.384,-0.019,-0.152,1.427,0.003,-0.010,1.004,0.000,0.000,0.000,0.3490,1,0,-1.66,0.39,-3.36,-0.0038,-0.0580,0.3540,0.0000,0.0000,0.3000,0.2548,-5.74,0.27,22.96,0.0000,0.1540,0.7580,1.8440,2.3490,4,0.0000,0.0000,0.0000,0.0000,0.0000,0
10641,0.0044,-0.0579,0.3509,0.0016,-0.0229,-0.0043,-0.68,-0.03,-0.69,0,3.394,-0.889,0.557,1.487,0.001,-0.012,1.009,0.000,0.000,0.000,0.3540,2,0,-1.64,0.39,-3.29,-0.0040,-0.0592,0.3529,0.0000,0.0000,0.3000,0.2558,-5.31,0.39,20.83,0.0000,0.0000,0.7550,1.8470,2.3460,4,0.0000,0.0000,0.0000,0.0000,0.0000,0
10692,0.0031,-0.0589,0.3522,-0.0007,-0.0170,0.0052,-0.70,0.02,-0.64,0,3.384,2.324,0.531,1.361,0.006,-0.017,1.003,0.000,0.000,0.000,0.3500,0,0,-1.65,0.36,-3.23,-0.0044,-0.0621,0.3538,0.0000,0.0000,0.3000,0.2545,-5.12,0.20,19.05,0.0000,0.0000,0.7550,1.8470,2.3460,4,0.0000,0.0000,0.0000,0.0000,0.0000,0
10744,0.0028,-0.0603,0.3514,-0.0013,-0.0120,0.0019,-0.63,0.04,-0.57,0,3.389,2.734,1.122,1.555,-0.002,-0.010,1.002,0.000,0.000,0.000,0.3530,-4,0,-1.53,0.33,-3.16,-0.0049,-0.0621,0.3532,0.0000,0.0000,0.3000,0.2550,-4.97,0.14,17.19,0.0000,0.1520,0.7630,1.8430,2.3440,4,0.0000,0.0000,0.0000,0.0000,0.0000,0
10795,0.0030,-0.0622,0.3523,-0.0011,-0.0096,0.0070,-0.51,-0.02,-0.51,0,3.384,1.007,-0.770,1.773,0.001,-0.017,1.001,0.000,0.000,0.000,0.3510,2,0,-1.50,0.26,-3.06,-0.0037,-0.0492,0.3536,0.0000,0.0000,0.3000,0.2543,-5.01,0.17,15.40,0.0000,0.1520,0.7630,1.8430,2.3440,4,0.0000,0.0000,0.0000,0.0000,0.0000,0
10845,0.0019,-0.0576,0.3520,-0.0028,0.0040,0.0062,-0.35,-0.05,-0.44,0,3.394,2.926,1.293,1.577,0.001,-0.011,1.004,0.000,0.000,0.000,0.3560,0,0,-1.40,0.29,-2.98,-0.0039,-0.0515,0.3535,0.0000,0.0000,0.3000,0.2544,-4.01,-0.00,13.22,0.0000,0.0000,0.7620,1.8500,2.3450,4,0.0000,0.0000,0.0000,0.0000,0.0000,0
10896,0.0004,-0.0597,0.3543,-0.0051,0.0030,0.0164,-0.23,-0.11,-0.37,0,3.389,2.736,1.536,1.694,0.005,-0.015,1.005,0.000,0.000,0.000,0.3520,1,0,-1.25,0.23,-2.90,-0.0043,-0.0489,0.3549,0.0000,0.0000,0.3000,0.2529,-4.24,-0.22,10.99,0.0000,0.0000,0.7620,1.8500,2.3450,4,0.0000,0.0000,0.0000,0.0000,0.0000,0
10948,0.0007,-0.0594,0.3538,-0.0030,0.0051,0.0113,-0.11,-0.15,-0.27,0,3.394,2.746,0.178,1.805,0.006,-0.014,1.005,0.000,0.000,0.000,0.3520,1,0,-1.04,0.14,-2.82,-0.0041,-0.0552,0.3550,0.0000,0.0000,0.3000,0.2535,-4.11,-0.09,8.04,0.0000,0.1560,0.7630,1.8360,2.3450,4,0.0000,0.0000,0.0000,0.0000,0.0000,0
10999,-0.0004,-0.0609,0.3534,-0.0035,0.0028,0.0080,0.02,-0.17,-0.18,0,3.389,0.168,1.249,1.056,0.006,-0.015,1.001,0.000,0.000,0.000,0.3540,-1,0,-0.88,0.13,-2.73,-0.0043,-0.0569,0.3549,0.0000,0.0000,0.3000,0.2540,-4.32,-0.20,5.39,0.0000,0.1560,0.7630,1.8360,2.3450,4,0.0000,0.0000,0.0000,0.0000,0.0000,0
11050,-0.0009,-0.0610,0.3540,-0.0027,0.0023,0.0083,0.02,-0.23,-0.12,0,3.389,1.516,-0.698,2.111,0.003,-0.008,1.000,0.000,0.000,0.000,0.3550,0,0,-0.88,0.06,-2.68,-0.0042,-0.0546,0.3553,0.0000,0.0000,0.3000,0.2538,-4.36,-0.19,3.68,0.0000,0.1500,0.7610,1.8480,2.3470,4,0.0000,0.0000,0.0000,0.0000,0.0000,0
11101,-0.0018,-0.0569,0.3548,-0.0024,0.0096,0.0095,0.04,-0.22,-0.02,0,3.384,1.315,-0.060,1.728,-0.002,-0.017,0.998,0.000,0.000,0.000,0.3540,0,0,-0.81,0.10,-2.57,-0.0041,-0.0536,0.3559,0.0000,0.0000,0.3000,0.2535,-3.71,-0.24,0.60,0.0000,0.1500,0.7610,1.8480,2.3470,4,0.0000,0.0000,0.0000,0.0000,0.0000,0
11151,-0.0022,-0.0593,0.3548,-0.0012,0.0039,0.0067,0.10,-0.17,0.08,0,3.389,-0.862,-1.127,1.631,0.008,-0.015,1.004,0.000,0.000,0.000,0.3530,0,0,-0.74,0.10,-2.48,-0.0041,-0.0527,0.3559,0.0000,0.0000,0.3000,0.2538,-4.16,-0.22,-2.40,0.0000,0.1500,0.7630,1.8470,2.3410,4,0.0000,0.0000,0.0000,0.0000,0.0000,0
11203,-0.0025,-0.0636,0.3543,-0.0002,-0.0055,0.0036,0.10,-0.13,0.17,0,3.384,-1.028,-0.145,1.345,0.007,-0.013,1.000,0.000,0.000,0.000,0.3560,1,0,-0.78,0.15,-2.40,-0.0040,-0.0518,0.3557,0.0000,0.0000,0.3000,0.2543,-4.92,-0.19,-5.08,0.0000,0.1500,0.7630,1.8470,2.3410,4,0.0000,0.0000,0.0000,0.0000,0.0000,0
11254,-0.0024,-0.0623,0.3553,0.0010,-0.0031,0.0087,0.05,-0.11,0.23,0,3.384,0.578,0.178,1.694,0.008,-0.010,1.005,0.000,0.000,0.000,0.3500,-2,-1,-0.78,0.17,-2.31,-0.0050,-0.0592,0.3564,0.0000,0.0000,0.3000,0.2535,-4.73,-0.13,-7.03,0.0000,0.1500,0.7660,1.8560,2.3480,4,0.0000,0.0000,0.0000,0.0000,0.0000,0
11304,-0.0024,-0.0647,0.3531,0.0018,-0.0078,-0.0019,0.01,-0.10,0.32,0,3.384,-1.530,-2.155,1.063,0.001,-0.013,1.000,0.000,0.000,0.000,0.3530,1,0,-0.77,0.15,-2.24,-0.0036,-0.0571,0.3551,0.0000,0.0000,0.3000,0.2551,-5.09,-0.09,-9.55,0.0000,0.1500,0.7660,1.8560,2.3480,4,0.0000,0.0000,0.0000,0.0000,0.0000,0
11355,-0.0018,-0.0643,0.3530,0.0034,-0.0066,-0.0008,-0.02,-0.02,0.38,0,3.384,-3.489,-1.176,0.893,0.012,-0.013,1.005,0.000,0.000,0.000,0.3540,-1,0,-0.84,0.25,-2.18,-0.0034,-0.0584,0.3548,0.0000,0.0000,0.3000,0.2550,-5.01,0.03,-11.32,0.0000,0.0000,0.7660,1.8710,2.3400,4,0.0000,0.0000,0.0000,0.0000,0.0000,0
11407,-0.0020,-0.0668,0.3535,0.0027,-0.0104,0.0038,-0.12,0.04,0.43,0,3.384,0.487,1.039,1.588,0.002,-0.015,1.003,0.000,0.000,0.000,0.3560,0,0,-1.03,0.31,-2.14,-0.0031,-0.0568,0.3550,0.0000,0.0000,0.3000,0.2544,-5.39,-0.01,-12.90,0.0000,0.0000,0.7660,1.8710,2.3400,4,0.0000,0.0000,0.0000,0.0000,0.0000,0
11458,-0.0020,-0.0676,0.3550,0.0021,-0.0099,0.0108,-0.15,0.02,0.51,0,3.389,0.051,4.485,1.821,0.006,-0.009,1.001,0.000,0.000,0.000,0.3580,1,0,-1.01,0.26,-2.06,-0.0027,-0.0565,0.3558,0.0000,0.0000,0.3000,0.2533,-5.44,-0.04,-15.27,0.0000,0.1490,0.7670,1.8710,2.3440,4,0.0000,0.0000,0.0000,0.0000,0.0000,0
11509,-0.0012,-0.0740,0.3569,0.0033,-0.0201,0.0177,-0.10,-0.09,0.61,0,3.384,-0.215,2.132,1.629,0.004,-0.015,0.991,0.000,0.000,0.000,0.3530,2,0,-0.97,0.04,-1.95,-0.0032,-0.0603,0.3571,0.0000,0.0000,0.3000,0.2522,-6.44,0.07,-18.25,0.0000,0.1490,0.7670,1.8710,2.3440,4,0.0000,0.0000,0.0000,0.0000,0.0000,0
11559,-0.0018,-0.0738,0.3557,0.0024,-0.0167,0.0061,-0.21,-0.01,0.71,0,3.389,-2.865,0.638,2.183,0.006,-0.016,0.999,0.000,0.000,0.000,0.3550,1,0,-0.95,-0.07,-1.86,-0.0032,-0.0644,0.3562,0.0000,0.0000,0.3000,0.2537,-6.22,-0.02,-21.45,0.0000,0.1500,0.7720,1.8810,2.3380,4,0.0000,0.0000,0.0000,0.0000,0.0000,0
11610,-0.0018,-0.0770,0.3556,0.0024,-0.0193,0.0020,-0.30,0.01,0.80,0,3.378,-2.517,-1.363,1.587,0.002,-0.016,0.994,0.000,0.000,0.000,0.3550,0,0,-1.08,-0.10,-1.75,-0.0031,-0.0670,0.3561,-0.0004,-0.0423,0.3000,0.2542,-3.50,0.02,-23.88,0.0000,0.1500,0.7720,1.8810,2.3380,4,0.0000,0.0000,0.0000,0.0000,0.0000,0
11662,-0.0019,-0.0786,0.3553,0.0020,-0.0179,-0.0007,-0.37,0.02,0.90,0,3.389,-2.618,-1.190,1.231,0.007,-0.011,0.999,0.000,0.000,0.000,0.3560,-1,0,-1.21,-0.04,-1.66,-0.0027,-0.0684,0.3558,-0.0004,-0.0423,0.3000,0.2545,-3.54,-0.01,-26.91,0.0000,0.0000,0.7720,1.8990,2.3400,4,0.0000,0.0000,0.0000,0.0000,0.0000,0
11712,-0.0018,-0.0794,0.3556,0.0018,-0.0146,-0.0009,-0.42,-0.02,0.96,0,3.378,1.361,1.364,1.162,0.001,-0.016,0.997,0.000,0.000,0.000,0.3540,0,1,-1.39,0.03,-1.61,-0.0034,-0.0631,0.3558,-0.0004,-0.0423,0.3000,0.2545,-3.44,-0.01,-28.80,0.0000,0.0000,0.7720,1.8990,2.3400,4,0.0000,0.0000,0.0000,0.0000,0.0000,0
11763,-0.0020,-0.0804,0.3547,0.0013,-0.0118,-0.0063,-0.39,-0.00,1.01,0,3.389,0.835,1.418,0.496,0.005,-0.020,0.995,0.000,0.000,0.000,0.3580,1,0,-1.32,-0.02,-1.53,-0.0054,-0.0629,0.3552,-0.0004,-0.0423,0.3000,0.2552,-3.37,-0.05,-30.36,0.0000,0.1510,0.7710,1.9050,2.3350,4,0.0000,0.0000,0.0000,0.0000,0.0000,0
11815,-0.0036,-0.0809,0.3561,-0.0017,-0.0085,0.0004,-0.30,-0.03,1.05,0,3.378,-1.537,-0.684,0.773,0.000,-0.014,0.998,0.000,0.000,0.000,0.3550,1,0,-1.26,-0.09,-1.50,-0.0054,-0.0651,0.3558,-0.0004,-0.0423,0.3000,0.2542,-3.26,-0.31,-31.49,0.0000,0.1510,0.7710,1.9050,2.3350,4,0.0000,0.0000,0.0000,0.0000,0.0000,0
11866,-0.0038,-0.0809,0.3555,-0.0017,-0.0050,-0.0030,-0.32,-0.07,1.07,0,3.384,3.469,1.821,-0.498,0.007,-0.013,1.001,0.000,0.000,0.000,0.3520,0,0,-1.32,-0.05,-1.44,-0.0055,-0.0677,0.3554,-0.0004,-0.0423,0.3000,0.2547,-3.08,-0.32,-32.19,0.0000,0.1440,0.7710,1.9000,2.3390,4,0.0000,0.0000,0.0000,0.0000,0.0000,0
11917,-0.0053,-0.0811,0.3536,-0.0039,-0.0024,-0.0117,-0.24,-0.08,1.08,0,3.378,0.480,-2.667,-0.880,0.001,-0.013,0.997,0.000,0.000,0.000,0.3580,-1,0,-1.14,-0.15,-1.47,-0.0052,-0.0679,0.3541,-0.0004,-0.0423,0.3000,0.2560,-2.97,-0.54,-32.40,0.0000,0.1440,0.7710,1.9000,2.3390,4,0.0000,0.0000,0.0000,0.0000,0.0000,0
11968,-0.0067,-0.0830,0.3553,-0.0053,-0.0040,-0.0022,-0.13,-0.10,1.07,0,3.378,-3.480,-1.785,-0.748,0.008,-0.012,0.997,0.000,0.000,0.000,0.3520,0,0,-1.15,-0.00,-1.53,-0.0056,-0.0635,0.3549,-0.0004,-0.0423,0.3000,0.2546,-3.19,-0.71,-32.19,0.0000,0.1470,0.7760,1.8970,2.3400,4,0.0000,0.0000,0.0000,0.0000,0.0000,0
12019,-0.0075,-0.0818,0.3535,-0.0054,-0.0006,-0.0095,-0.12,-0.13,1.06,0,3.378,4.102,3.807,-0.411,0.004,-0.009,0.998,0.000,0.000,0.000,0.3570,3,1,-1.33,0.09,-1.56,-0.0052,-0.0625,0.3536,-0.0004,-0.0423,0.3000,0.2557,-2.93,-0.78,-31.72,0.0000,0.1470,0.7760,1.8970,2.3400,4,0.0000,0.0000,0.0000,0.0000,0.0000,0
12069,-0.0080,-0.0779,0.3549,-0.0044,0.0075,-0.0015,0.01,-0.20,1.03,0,3.384,0.958,-4.654,-0.191,0.006,-0.016,0.999,0.000,0.000,0.000,0.3550,0,0,-1.02,-0.07,-1.51,-0.0102,-0.0760,0.3545,-0.0004,-0.0423,0.3000,0.2546,-2.27,-0.76,-30.78,0.0000,0.1440,0.7710,1.8960,2.3380,4,0.0000,0.0000,0.0000,0.0000,0.0000,0
12120,-0.0104,-0.0773,0.3548,-0.0070,0.0081,-0.0020,0.07,-0.10,0.99,0,3.373,1.537,-1.619,-0.286,0.002,-0.016,0.996,0.000,0.000,0.000,0.3550,0,0,-0.97,0.16,-1.51,-0.0105,-0.0773,0.3543,-0.0004,-0.0423,0.3000,0.2547,-2.20,-1.07,-29.68,0.0000,0.1440,0.7710,1.8960,2.3380,4,0.0000,0.0000,0.0000,0.0000,0.0000,0
12171,-0.0099,-0.0805,0.3548,-0.0043,0.0004,-0.0027,0.16,-0.14,0.95,0,3.384,-1.053,0.311,-1.453,0.008,-0.012,0.999,0.000,0.000,0.000,0.3520,3,1,-0.89,0.24,-1.52,-0.0108,-0.0786,0.3541,-0.0004,-0.0423,0.3000,0.2548,-2.80,-0.90,-28.45,0.0000,0.1490,0.7710,1.8800,2.3460,4,0.0000,0.0000,0.0000,0.0000,0.0000,0
12223,-0.0102,-0.0740,0.3532,-0.0033,0.0114,-0.0103,0.13,-0.12,0.89,0,3.373,2.152,3.136,-1.628,0.002,-0.013,0.995,0.000,0.000,0.000,0.3520,-1,0,-0.89,0.25,-1.55,-0.0149,-0.0880,0.3530,-0.0004,-0.0423,0.3000,0.2559,-1.78,-0.86,-26.71,0.0000,0.1490,0.7710,1.8800,2.3460,4,0.0000,0.0000,0.0000,0.0000,0.0000,0
12274,-0.0114,-0.0764,0.3521,-0.0041,0.0053,-0.0137,0.18,-0.20,0.85,0,3.378,-2.863,-3.988,-1.480,0.008,-0.013,1.004,0.000,0.000,0.000,0.3520,7,0,-0.80,0.09,-1.65,-0.0153,-0.0878,0.3521,-0.0004,-0.0423,0.3000,0.2564,-2.25,-0.99,-25.38,0.0000,0.0000,0.7730,1.8590,2.3490,4,0.0000,0.0000,0.0000,0.0000,0.0000,0
12324,-0.0114,-0.0732,0.3515,-0.0021,0.0094,-0.0128,0.21,-0.18,0.79,0,3.373,1.123,-0.291,-0.811,0.006,-0.013,0.998,0.000,0.000,0.000,0.3500,1,0,-0.86,0.29,-1.70,-0.0161,-0.1013,0.3513,-0.0004,-0.0423,0.3000,0.2565,-1.82,-0.90,-23.57,0.0000,0.0000,0.7730,1.8590,2.3490,4,0.0000,0.0000,0.0000,0.0000,0.0000,0
12376,-0.0121,-0.0763,0.3502,-0.0018,0.0017,-0.0152,0.18,-0.13,0.73,0,3.378,-0.772,-1.255,-1.207,0.002,-0.017,1.007,0.000,0.000,0.000,0.3490,3,1,-0.80,0.30,-1.74,-0.0165,-0.1054,0.3503,-0.0004,-0.0423,0.3000,0.2570,-2.41,-0.93,-21.94,0.0000,0.1490,0.7810,1.8540,2.3550,4,0.0000,0.0000,0.0000,0.0000,0.0000,0
12427,-0.0105,-0.0753,0.3489,0.0025,0.0023,-0.0157,0.17,-0.13,0.69,0,3.368,-2.050,-2.464,-0.005,0.007,-0.018,1.005,0.000,0.000,0.000,0.3480,-1,-1,-0.82,0.38,-1.78,-0.0192,-0.1136,0.3492,-0.0004,-0.0423,0.3000,0.2573,-2.31,-0.60,-20.76,0.0000,0.1490,0.7810,1.8540,2.3550,4,0.0000,0.0000,0.0000,0.0000,0.0000,0
12478,-0.0101,-0.0822,0.3478,0.0042,-0.0122,-0.0150,0.10,-0.09,0.68,0,3.378,-2.020,2.043,1.039,0.003,-0.011,1.005,0.000,0.000,0.000,0.3500,0,-1,-0.96,0.49,-1.81,-0.0170,-0.1128,0.3487,-0.0004,-0.0423,0.3000,0.2574,-3.50,-0.49,-20.35,0.0000,0.1510,0.7790,1.8670,2.3460,4,0.0000,0.0000,0.0000,0.0000,0.0000,0
12528,-0.0092,-0.0817,0.3483,0.0061,-0.0108,-0.0073,-0.06,-0.05,0.71,0,3.373,-3.245,0.091,0.348,0.005,-0.013,0.999,0.000,0.000,0.000,0.3510,2,-1,-1.09,0.36,-1.78,-0.0145,-0.1138,0.3489,-0.0004,-0.0423,0.3000,0.2565,-3.41,-0.34,-21.38,0.0000,0.1510,0.7790,1.8670,2.3460,4,0.0000,0.0000,0.0000,0.0000,0.0000,0
12580,-0.0077,-0.0835,0.3494,0.0085,-0.0126,0.0003,-0.14,0.01,0.74,0,3.378,-4.211,-5.118,0.294,0.002,-0.010,1.003,0.000,0.000,0.000,0.3500,1,-1,-1.23,0.34,-1.79,-0.0119,-0.1202,0.3492,-0.0004,-0.0423,0.3000,0.2554,-3.64,-0.12,-22.08,1.2780,0.1450,0.7820,1.8770,2.3530,4,0.0000,0.0000,0.0000,0.0000,0.0000,0
12631,-0.0080,-0.0872,0.3497,0.0066,-0.0169,0.0023,-0.22,0.15,0.74,0,3.368,-3.224,1.562,-0.978,0.008,-0.014,0.996,0.000,0.000,0.000,0.3450,0,0,-1.45,0.59,-1.79,-0.0090,-0.1237,0.3494,-0.0004,-0.0423,0.3000,0.2552,-4.12,-0.24,-22.28,1.2780,0.1450,0.7820,1.8770,2.3530,4,0.0000,0.0000,0.0000,0.0000,0.0000,0
12682,-0.0066,-0.0897,0.3474,0.0080,-0.0183,-0.0094,-0.31,0.04,0.75,0,3.378,-2.539,-0.181,0.352,0.006,-0.014,1.001,0.000,0.000,0.000,0.3500,0,-1,-1.61,0.51,-1.84,-0.0082,-0.1269,0.3478,-0.0004,-0.0423,0.3000,0.2569,-4.34,-0.06,-22.40,0.0000,0.1480,0.7850,1.8680,2.3500,4,0.0000,0.0000,0.0000,0.0000,0.0000,0
12733,-0.0066,-0.0915,0.3483,0.0065,-0.0172,-0.0029,-0.47,0.16,0.77,0,3.368,1.948,1.107,-0.286,0.005,-0.009,0.996,0.000,0.000,0.000,0.3470,1,-1,-1.79,0.50,-1.82,-0.0048,-0.1223,0.3482,-0.0004,-0.0423,0.3000,0.2560,-4.43,-0.13,-22.97,0.0000,0.1480,0.7850,1.8680,2.3500,4,0.0000,0.0000,0.0000,0.0000,0.0000,0
12784,-0.0046,-0.0928,0.3475,0.0087,-0.0144,-0.0067,-0.41,0.11,0.76,0,3.373,-0.173,2.579,-0.046,-0.000,-0.018,0.999,0.000,0.000,0.000,0.3450,2,-1,-1.68,0.43,-1.84,-0.0020,-0.1252,0.3475,-0.0004,-0.0423,0.3000,0.2565,-4.38,0.12,-22.75,0.0000,0.1470,0.7890,1.8630,2.3510,4,0.0000,0.0000,0.0000,0.0000,0.0000,0
12835,-0.0026,-0.0957,0.3459,0.0110,-0.0155,-0.0128,-0.44,0.09,0.76,0,3.368,2.293,-1.842,1.351,0.001,-0.015,0.999,0.000,0.000,0.000,0.3470,0,-1,-1.66,0.29,-1.86,0.0008,-0.1309,0.3463,-0.0004,-0.0423,0.3000,0.2575,-4.63,0.37,-22.94,0.0000,0.1470,0.7890,1.8630,2.3510,4,0.0000,0.0000,0.0000,0.0000,0.0000,0
12886,-0.0009,-0.0979,0.3459,0.0121,-0.0146,-0.0105,-0.43,0.21,0.80,0,3.368,-0.051,-2.077,0.367,0.004,-0.009,1.007,0.000,0.000,0.000,0.3420,0,-1,-1.55,0.37,-1.79,0.0039,-0.1313,0.3460,-0.0004,-0.0423,0.3000,0.2572,-4.74,0.55,-23.98,0.0000,0.1390,0.7950,1.8820,2.3510,4,0.0000,0.0000,0.0000,0.0000,0.0000,0
12937,0.0025,-0.1045,0.3435,0.0159,-0.0232,-0.0177,-0.45,0.29,0.79,0,3.362,3.158,4.365,-1.668,0.006,-0.011,1.006,0.000,0.000,0.000,0.3440,1,0,-1.55,0.47,-1.76,0.0070,-0.1315,0.3444,-0.0004,-0.0423,0.3000,0.2585,-5.61,0.97,-23.70,0.0000,0.1390,0.7950,1.8820,2.3510,4,0.0000,0.0000,0.0000,0.0000,0.0000,0
12989,0.0038,-0.1008,0.3430,0.0142,-0.0092,-0.0143,-0.50,0.25,0.71,0,3.373,-2.709,-5.648,-0.907,0.005,-0.013,1.010,0.000,0.000,0.000,0.3430,-2,0,-1.38,0.26,-1.86,0.0072,-0.1346,0.3439,-0.0004,-0.0423,0.3000,0.2582,-4.69,0.98,-21.24,0.0000,0.0000,0.7960,1.8590,2.3540,4,0.0000,0.0000,0.0000,0.0000,0.0000,0
13040,0.0033,-0.1047,0.3425,0.0102,-0.0129,-0.0119,-0.59,0.37,0.67,0,3.362,1.630,2.903,-1.723,0.004,-0.014,1.006,0.000,0.000,0.000,0.3410,0,0,-1.56,0.56,-1.89,0.0075,-0.1283,0.3435,-0.0004,-0.0423,0.3000,0.2580,-5.14,0.76,-19.98,0.0000,0.0000,0.7960,1.8590,2.3540,4,0.0000,0.0000,0.0000,0.0000,0.0000,0
13092,0.0031,-0.1044,0.3414,0.0058,-0.0066,-0.0118,-0.47,0.37,0.60,0,3.373,2.730,2.912,-1.050,0.006,-0.013,1.004,0.000,0.000,0.000,0.3450,-1,0,-1.47,0.42,-1.98,0.0088,-0.1272,0.3427,-0.0004,-0.0423,0.3000,0.2582,-4.82,0.53,-17.89,0.0000,0.1420,0.7900,1.8560,2.3540,4,0.0000,0.0000,0.0000,0.0000,0.0000,0
13143,0.0037,-0.1060,0.3427,0.0034,-0.0057,-0.0008,-0.36,0.29,0.54,0,3.368,2.470,-0.693,-1.058,-0.000,-0.018,0.996,0.000,0.000,0.000,0.3420,1,0,-1.34,0.29,-2.04,0.0067,-0.1248,0.3434,-0.0004,-0.0423,0.3000,0.2568,-4.92,0.46,-16.05,0.0000,0.1420,0.7900,1.8560,2.3540,4,0.0000,0.0000,0.0000,0.0000,0.0000,0
13194,0.0027,-0.1034,0.3424,-0.0016,0.0031,-0.0009,-0.20,0.23,0.50,0,3.368,3.230,-3.061,-1.510,0.006,-0.017,1.005,0.000,0.000,0.000,0.3420,-2,0,-1.19,0.33,-2.10,0.0067,-0.1270,0.3430,-0.0004,-0.0423,0.3000,0.2569,-4.31,0.15,-14.86,0.0000,0.1420,0.7950,1.8500,2.3610,4,0.0000,0.0000,0.0000,0.0000,0.0000,0
13244,0.0016,-0.1045,0.3422,-0.0055,0.0022,-0.0000,-0.03,0.34,0.41,0,3.362,3.627,0.110,-1.791,0.007,-0.015,1.003,0.000,0.000,0.000,0.3370,0,0,-1.05,0.49,-2.17,0.0070,-0.1214,0.3427,-0.0004,-0.0423,0.3000,0.2568,-4.43,-0.12,-12.39,0.0000,0.1420,0.7950,1.8500,2.3610,4,0.0000,0.0000,0.0000,0.0000,0.0000,0
13296,0.0017,-0.1053,0.3398,-0.0075,0.0002,-0.0087,0.19,0.32,0.30,0,3.368,0.215,3.731,-2.442,0.004,-0.018,1.007,0.000,0.000,0.000,0.3380,-1,0,-0.87,0.48,-2.26,0.0074,-0.1195,0.3410,-0.0004,-0.0423,0.3000,0.2582,-4.56,-0.21,-9.13,0.0000,0.1450,0.7970,1.8300,2.3590,4,0.0000,0.0000,0.0000,0.0000,0.0000,0
13346,0.0025,-0.1076,0.3386,-0.0077,-0.0065,-0.0097,0.22,0.13,0.18,0,3.357,-1.587,1.789,-3.185,0.008,-0.015,1.009,0.000,0.000,0.000,0.3380,-1,0,-0.85,0.29,-2.39,0.0071,-0.1182,0.3401,-0.0004,-0.0423,0.3000,0.2585,-5.04,-0.16,-5.52,0.0000,0.1450,0.7970,1.8300,2.3590,4,0.0000,0.0000,0.0000,0.0000,0.0000,0
13398,0.0015,-0.1092,0.3380,-0.0101,-0.0112,-0.0062,0.17,0.02,0.02,0,3.368,0.226,-0.669,-3.047,0.007,-0.017,1.012,0.000,0.000,0.000,0.3370,-2,0,-0.94,0.21,-2.54,0.0073,-0.1153,0.3396,-0.0004,-0.0423,0.3000,0.2582,-5.38,-0.35,-0.62,0.0000,0.0000,0.8030,1.8130,2.3590,4,0.0000,0.0000,0.0000,0.0000,0.0000,0
13449,0.0004,-0.1072,0.3374,-0.0114,-0.0073,-0.0037,0.13,0.03,-0.12,0,3.362,-2.232,-1.546,-1.437,0.005,-0.011,1.013,0.000,0.000,0.000,0.3420,0,0,-0.95,0.25,-2.70,0.0076,-0.1097,0.3391,-0.0004,-0.0423,0.3000,0.2581,-5.06,-0.49,3.53,0.0000,0.0000,0.8030,1.8130,2.3590,4,0.0000,0.0000,0.0000,0.0000,0.0000,0
13499,0.0005,-0.1113,0.3396,-0.0103,-0.0167,0.0133,0.12,0.02,-0.19,0,3.373,-4.013,1.594,0.066,0.000,-0.014,1.007,0.000,0.000,0.000,0.3420,0,0,-1.06,0.33,-2.77,0.0080,-0.1069,0.3406,-0.0004,-0.0423,0.3000,0.2558,-5.86,-0.43,5.79,0.0000,0.0000,0.8060,1.7990,2.3630,4,0.0000,0.0000,0.0000,0.0000,0.0000,0
13550,-0.0006,-0.1116,0.3414,-0.0118,-0.0165,0.0221,-0.05,-0.06,-0.21,0,3.362,-1.088,2.800,1.677,0.007,-0.014,0.998,0.000,0.000,0.000,0.3420,0,0,-1.26,0.25,-2.77,0.0082,-0.1040,0.3419,-0.0004,-0.0423,0.3000,0.2545,-5.90,-0.59,6.33,0.0000,0.0000,0.8060,1.7990,2.3630,4,0.0000,0.0000,0.0000,0.0000,0.0000,0
13602,-0.0025,-0.1129,0.3426,-0.0141,-0.0170,0.0237,-0.18,-0.16,-0.13,0,3.373,-0.343,5.147,1.932,0.008,-0.012,0.998,0.000,0.000,0.000,0.3400,0,0,-1.32,0.10,-2.68,0.0084,-0.1008,0.3428,-0.0004,-0.0423,0.3000,0.2541,-6.02,-0.84,4.04,0.0000,0.1490,0.8070,1.7950,2.3580,4,0.0000,0.0000,0.0000,0.0000,0.0000,0
13653,-0.0023,-0.1163,0.3423,-0.0109,-0.0211,0.0159,-0.21,-0.23,-0.03,0,3.368,-3.391,3.157,2.302,0.005,-0.014,0.996,0.000,0.000,0.000,0.3450,1,0,-1.34,-0.17,-2.59,0.0089,-0.0974,0.3427,-0.0004,-0.0423,0.3000,0.2550,-6.45,-0.67,0.90,0.0000,0.1490,0.8070,1.7950,2.3580,4,0.0000,0.0000,0.0000,0.0000,0.0000,0
13703,-0.0023,-0.1208,0.3442,-0.0074,-0.0266,0.0187,-0.27,-0.37,0.09,0,3.373,-0.641,-0.344,1.958,0.003,-0.013,0.989,0.000,0.000,0.000,0.3450,2,0,-1.38,-0.32,-2.46,0.0056,-0.1181,0.3446,-0.0004,-0.0423,0.3000,0.2544,-7.05,-0.49,-2.61,0.0000,0.1420,0.8080,1.8130,2.3520,4,0.0000,0.0000,0.0000,0.0000,0.0000,0
13755,-0.0018,-0.1255,0.3453,-0.0027,-0.0315,0.0165,-0.31,-0.31,0.19,0,3.362,-3.593,-1.411,2.229,0.006,-0.008,0.992,0.000,0.000,0.000,0.3430,0,0,-1.40,-0.30,-2.35,0.0057,-0.1198,0.3452,-0.0004,-0.0423,0.3000,0.2544,-7.62,-0.23,-5.79,0.0000,0.1420,0.8080,1.8130,2.3520,4,0.0000,0.0000,0.0000,0.0000,0.0000,0
13806,-0.0008,-0.1263,0.3447,0.0023,-0.0273,0.0059,-0.54,-0.20,0.32,0,3.373,-1.874,-1.168,1.679,0.006,-0.012,0.992,0.000,0.000,0.000,0.3470,2,0,-1.58,-0.23,-2.23,0.0063,-0.1198,0.3448,-0.0004,-0.0423,0.3000,0.2556,-7.44,0.09,-9.45,0.0000,0.1470,0.8120,1.8190,2.3530,4,0.0000,0.0000,0.0000,0.0000,0.0000,0
13856,0.0010,-0.1286,0.3460,0.0074,-0.0251,0.0056,-0.57,-0.15,0.40,0,3.362,-1.752,-0.884,1.198,0.005,-0.009,0.988,0.000,0.000,0.000,0.3440,0,0,-1.63,-0.17,-2.10,0.0058,-0.1243,0.3455,-0.0004,-0.0423,0.3000,0.2554,-7.51,0.46,-11.94,0.0000,0.1470,0.8120,1.8190,2.3530,4,0.0000,0.0000,0.0000,0.0000,0.0000,0
13907,0.0025,-0.1356,0.3451,0.0111,-0.0323,-0.0032,-0.60,-0.12,0.45,0,3.368,-6.348,-1.072,1.942,0.008,-0.013,0.996,0.000,0.000,0.000,0.3420,1,0,-1.72,-0.12,-2.04,0.0065,-0.1247,0.3448,-0.0004,-0.0423,0.3000,0.2565,-8.32,0.75,-13.58,0.0000,0.0000,0.8130,1.8420,2.3590,4,0.0000,0.0000,0.0000,0.0000,0.0000,0
13959,0.0041,-0.1359,0.3433,0.0141,-0.0246,-0.0148,-0.81,-0.03,0.53,0,3.357,1.979,-4.098,2.097,0.006,-0.014,0.997,0.000,0.000,0.000,0.3440,0,0,-2.02,-0.06,-1.92,0.0060,-0.1273,0.3436,-0.0004,-0.0423,0.3000,0.2581,-7.93,1.00,-15.98,0.0000,0.0000,0.8130,1.8420,2.3590,4,0.0000,0.0000,0.0000,0.0000,0.0000,0
14009,0.0052,-0.1385,0.3430,0.0152,-0.0210,-0.0150,-0.74,0.18,0.64,0,3.368,0.743,-2.412,1.607,0.004,-0.014,1.001,0.000,0.000,0.000,0.3410,3,0,-1.92,0.15,-1.81,0.0068,-0.1273,0.3432,-0.0004,-0.0423,0.3000,0.2582,-7.94,1.13,-19.29,0.0000,0.0000,0.8170,1.8520,2.3580,4,0.0000,0.0000,0.0000,0.0000,0.0000,0
14061,0.0072,-0.1404,0.3413,0.0165,-0.0170,-0.0197,-0.60,0.17,0.73,0,3.357,2.205,-2.647,1.492,0.011,-0.012,1.002,0.000,0.000,0.000,0.3410,0,0,-1.81,0.28,-1.67,0.0059,-0.1359,0.3422,-0.0004,-0.0423,0.3000,0.2590,-7.87,1.33,-21.85,0.0000,0.0000,0.8170,1.8520,2.3580,4,0.0000,0.0000,0.0000,0.0000,0.0000,0
14112,0.0078,-0.1413,0.3404,0.0148,-0.0117,-0.0185,-0.65,0.25,0.80,0,3.362,3.512,-4.586,1.369,0.003,-0.015,1.006,0.000,0.000,0.000,0.3420,0,-1,-1.69,0.41,-1.59,0.0066,-0.1371,0.3414,-0.0004,-0.0423,0.3000,0.2591,-7.68,1.30,-23.97,0.0000,0.0000,0.8190,1.8610,2.3560,4,0.0000,0.0000,0.0000,0.0000,0.0000,0
14163,0.0094,-0.1409,0.3404,0.0144,-0.0043,-0.0135,-0.62,0.33,0.89,0,3.357,6.438,-2.244,1.831,0.006,-0.011,1.003,0.000,0.000,0.000,0.3390,3,0,-1.53,0.63,-1.50,0.0091,-0.1366,0.3412,-0.0004,-0.0423,0.3000,0.2585,-7.32,1.39,-26.55,0.0000,0.0000,0.8190,1.8610,2.3560,4,0.0000,0.0000,0.0000,0.0000,0.0000,0
14214,0.0108,-0.1336,0.3392,0.0129,0.0169,-0.0142,-0.48,0.38,0.98,0,3.362,3.405,1.877,1.637,0.009,-0.014,1.009,0.000,0.000,0.000,0.3380,-2,0,-1.16,0.75,-1.41,0.0094,-0.1417,0.3403,-0.0004,-0.0423,0.3000,0.2588,-5.80,1.42,-29.43,0.0000,0.1370,0.8150,1.8620,2.3540,4,0.0000,0.0000,0.0000,0.0000,0.0000,0
14265,0.0111,-0.1361,0.3380,0.0091,0.0143,-0.0153,-0.24,0.32,1.10,0,3.357,3.356,1.398,2.915,0.003,-0.008,1.001,0.000,0.000,0.000,0.3380,0,0,-1.02,0.65,-1.32,0.0098,-0.1384,0.3395,-0.0004,-0.0423,0.3000,0.2592,-6.08,1.26,-33.05,0.0000,0.1370,0.8150,1.8620,2.3540,4,0.0000,0.0000,0.0000,0.0000,0.0000,0
14316,0.0106,-0.1326,0.3374,0.0044,0.0219,-0.0134,-0.09,0.26,1.24,0,3.362,3.192,2.441,4.023,0.005,-0.013,1.004,0.000,0.000,0.000,0.3380,0,0,-0.85,0.58,-1.17,0.0101,-0.1383,0.3389,-0.0004,-0.0423,0.3000,0.2591,-5.49,1.00,-37.32,0.0000,0.1370,0.8170,1.8540,2.3580,4,0.0000,0.0000,0.0000,0.0000,0.0000,0
14366,0.0108,-0.1315,0.3371,0.0021,0.0227,-0.0111,0.08,0.17,1.43,0,3.357,3.080,1.998,4.142,0.006,-0.013,1.005,0.000,0.000,0.000,0.3340,-1,0,-0.69,0.45,-0.97,0.0104,-0.1381,0.3385,-0.0004,-0.0423,0.3000,0.2589,-5.38,0.90,-42.90,0.0000,0.1370,0.8170,1.8540,2.3580,4,0.0000,0.0000,0.0000,0.0000,0.0000,0
14418,0.0112,-0.1300,0.3351,0.0015,0.0228,-0.0157,0.22,0.09,1.64,0,3.357,1.851,-0.504,3.808,0.005,-0.013,1.008,0.000,0.000,0.000,0.3350,0,0,-0.56,0.35,-0.75,0.0099,-0.1347,0.3370,-0.0004,-0.0423,0.3000,0.2598,-5.25,0.90,-49.30,0.0000,0.0000,0.8170,1.8710,2.3580,4,0.0000,0.0000,0.0000,0.0000,0.0000,0
14469,0.0103,-0.1317,0.3344,-0.0010,0.0149,-0.0127,0.36,0.09,1.84,0,3.357,-0.322,0.291,4.153,0.005,-0.009,1.006,0.000,0.000,0.000,0.3360,-2,0,-0.46,0.38,-0.55,0.0100,-0.1340,0.3364,-0.0004,-0.0423,0.3000,0.2596,-5.75,0.73,-55.09,0.0000,0.0000,0.8170,1.8710,2.3580,4,0.0000,0.0000,0.0000,0.0000,0.0000,0
14520,0.0113,-0.1290,0.3348,0.0006,0.0161,-0.0056,0.30,0.07,2.03,0,3.362,-1.242,2.592,3.190,0.005,-0.015,1.008,0.000,0.000,0.000,0.3350,0,0,-0.51,0.36,-0.33,0.0100,-0.1290,0.3362,-0.0004,-0.0423,0.3000,0.2587,-5.52,0.88,-60.99,0.0000,0.1340,0.8170,1.8600,2.3650,4,0.0000,0.0000,0.0000,0.0000,0.0000,0
14572,0.0111,-0.1299,0.3346,-0.0006,0.0098,-0.0037,0.27,-0.00,2.20,0,3.357,0.050,0.258,2.458,0.005,-0.007,1.004,0.000,0.000,0.000,0.3360,2,-1,-0.58,0.23,-0.17,0.0100,-0.1275,0.3361,-0.0004,-0.0423,0.3000,0.2585,-5.89,0.80,-65.87,0.0000,0.1340,0.8170,1.8600,2.3650,4,0.0000,0.0000,0.0000,0.0000,0.0000,0
14622,0.0090,-0.1300,0.3352,-0.0048,0.0063,0.0014,0.32,-0.03,2.33,0,3.362,-1.539,-1.622,2.075,0.004,-0.018,0.997,0.000,0.000,0.000,0.3330,0,0,-0.51,0.19,-0.09,0.0128,-0.1342,0.3365,-0.0004,-0.0423,0.3000,0.2579,-6.08,0.45,-69.76,0.0000,0.1340,0.8170,1.8900,2.3640,4,0.0000,0.0000,0.0000,0.0000,0.0000,0
14674,0.0100,-0.1309,0.3342,-0.0020,0.0015,-0.0039,0.26,-0.02,2.41,0,3.357,-1.811,2.214,1.760,0.006,-0.012,0.998,0.000,0.000,0.000,0.3330,6,0,-0.59,0.27,0.01,0.0135,-0.1348,0.3356,-0.0004,-0.0423,0.3000,0.2586,-6.35,0.66,-72.32,0.0000,0.1340,0.8170,1.8900,2.3640,4,0.0000,0.0000,0.0000,0.0000,0.0000,0
14725,0.0088,-0.1269,0.3335,-0.0039,0.0078,-0.0062,0.22,-0.08,2.49,0,3.357,-1.495,-1.971,1.577,0.007,-0.012,0.999,0.000,0.000,0.000,0.3320,3,0,-0.56,0.16,0.10,0.0130,-0.1516,0.3347,-0.0004,-0.0423,0.3000,0.2590,-5.76,0.48,-74.61,0.0000,0.1360,0.8190,1.9100,2.3640,4,0.0000,0.0000,0.0000,0.0000,0.0000,0
14775,0.0096,-0.1290,0.3325,-0.0012,0.0019,-0.0084,0.11,-0.03,2.56,0,3.352,-2.428,-1.427,1.509,0.003,-0.008,1.002,0.000,0.000,0.000,0.3310,0,0,-0.61,0.26,0.18,0.0133,-0.1587,0.3335,-0.0004,-0.0423,0.3000,0.2594,-6.18,0.66,-76.72,0.0000,0.1360,0.8190,1.9100,2.3640,4,0.0000,0.0000,0.0000,0.0000,0.0000,0
14827,0.0113,-0.1302,0.3314,0.0027,-0.0013,-0.0103,0.01,0.03,2.62,0,3.357,0.422,-1.936,0.780,0.004,-0.009,1.004,0.000,0.000,0.000,0.3320,-1,-1,-0.73,0.33,0.26,0.0137,-0.1638,0.3325,-0.0004,-0.0423,0.3000,0.2598,-6.41,0.97,-78.68,0.0000,0.0000,0.8210,1.9170,2.3670,4,0.0000,0.0000,0.0000,0.0000,0.0000,0
14878,0.0110,-0.1325,0.3313,0.0017,-0.0058,-0.0081,0.01,0.07,2.65,0,3.352,-4.151,1.331,0.454,0.005,-0.013,1.004,0.000,0.000,0.000,0.3280,-1,0,-0.80,0.42,0.28,0.0166,-0.1561,0.3329,-0.0004,-0.0423,0.3000,0.2596,-6.79,0.90,-79.53,0.0000,0.0000,0.8210,1.9170,2.3670,4,0.0000,0.0000,0.0000,0.0000,0.0000,0
14928,0.0121,-0.1315,0.3293,0.0031,-0.0033,-0.0154,-0.11,0.05,2.68,0,3.352,-2.770,-0.844,0.164,0.004,-0.016,1.005,0.000,0.000,0.000,0.3270,1,-1,-1.04,0.35,0.31,0.0169,-0.1551,0.3313,-0.0004,-0.0423,0.3000,0.2608,-6.57,1.04,-80.37,0.0000,0.1360,0.8230,1.9250,2.3670,4,0.0000,0.0000,0.0000,0.0000,0.0000,0
14980,0.0123,-0.1343,0.3275,0.0029,-0.0082,-0.0187,-0.13,0.06,2.68,0,3.352,0.953,-0.632,-0.873,0.010,-0.018,1.006,0.000,0.000,0.000,0.3290,7,-1,-1.17,0.38,0.30,0.0193,-0.1576,0.3298,-0.0004,-0.0423,0.3000,0.2615,-6.98,1.04,-80.26,0.0000,0.1360,0.8230,1.9250,2.3670,4,0.0000,0.0000,0.0000,0.0000,0.0000,0
15030,0.0131,-0.1327,0.3276,0.0034,-0.0028,-0.0111,-0.01,0.08,2.63,0,3.352,-1.229,-1.148,-1.160,0.002,-0.012,1.011,0.000,0.000,0.000,0.3280,1,-1,-1.01,0.40,0.22,0.0219,-0.1738,0.3295,-0.0004,-0.0423,0.3000,0.2607,-6.63,1.13,-78.81,0.0000,0.1310,0.8200,1.9170,2.3690,4,0.0000,0.0000,0.0000,0.0000,0.0000,0
15081,0.0134,-0.1419,0.3274,0.0030,-0.0207,-0.0048,-0.09,0.06,2.56,0,3.352,-2.548,0.259,-1.433,0.006,-0.013,1.006,0.000,0.000,0.000,0.3300,1,0,-1.08,0.45,0.16,0.0247,-0.1775,0.3291,-0.0004,-0.0423,0.3000,0.2600,-8.14,1.13,-76.74,0.0000,0.1310,0.8200,1.9170,2.3690,4,0.0000,0.0000,0.0000,0.0000,0.0000,0
15133,0.0144,-0.1406,0.3286,0.0039,-0.0148,0.0054,-0.32,0.06,2.48,0,3.357,1.015,1.856,-2.925,0.007,-0.014,1.003,0.000,0.000,0.000,0.3280,0,0,-1.21,0.45,0.09,0.0251,-0.1811,0.3297,-0.0004,-0.0423,0.3000,0.2587,-7.81,1.25,-74.50,0.0000,0.1290,0.8240,1.9240,2.3680,4,0.0000,0.0000,0.0000,0.0000,0.0000,0
15183,0.0146,-0.1434,0.3286,0.0033,-0.0166,0.0068,-0.28,0.00,2.36,0,3.352,-2.634,-2.830,-2.716,0.009,-0.015,1.000,0.000,0.000,0.000,0.3300,0,0,-1.16,0.36,-0.06,0.0263,-0.1849,0.3295,-0.0004,-0.0423,0.3000,0.2585,-8.10,1.24,-70.69,0.0000,0.1290,0.8240,1.9240,2.3680,4,0.0000,0.0000,0.0000,0.0000,0.0000,0
15234,0.0147,-0.1441,0.3296,0.0032,-0.0141,0.0104,-0.25,0.01,2.20,0,3.357,-1.719,0.228,-3.104,0.003,-0.018,1.001,0.000,0.000,0.000,0.3270,0,0,-1.29,0.50,-0.20,0.0277,-0.1887,0.3299,-0.0004,-0.0423,0.3000,0.2579,-8.06,1.25,-66.13,1.2080,0.0000,0.8200,1.9020,2.3680,4,0.0000,0.0000,0.0000,0.0000,0.0000,0
15285,0.0148,-0.1433,0.3288,0.0027,-0.0086,0.0035,-0.39,-0.04,2.07,0,3.352,0.678,0.141,-2.076,0.005,-0.015,0.999,0.000,0.000,0.000,0.3290,-1,0,-1.38,0.49,-0.35,0.0289,-0.1923,0.3293,-0.0004,-0.0423,0.3000,0.2589,-7.71,1.23,-62.01,1.2080,0.0000,0.8200,1.9020,2.3680,4,0.0000,0.0000,0.0000,0.0000,0.0000,0
15337,0.0138,-0.1449,0.3290,0.0004,-0.0081,0.0031,-0.34,-0.05,1.96,0,3.357,4.162,0.624,-0.596,0.009,-0.019,0.997,0.000,0.000,0.000,0.3290,0,0,-1.46,0.52,-0.40,0.0245,-0.1749,0.3296,-0.0004,-0.0423,0.3000,0.2588,-7.80,1.04,-58.69,1.2230,0.1310,0.8270,1.8920,2.3680,4,0.0000,0.0000,0.0000,0.0000,0.0000,0
15387,0.0146,-0.1451,0.3291,0.0025,-0.0050,0.0015,-0.22,-0.14,1.91,0,3.352,-1.405,-0.573,-0.196,0.006,-0.019,0.994,0.000,0.000,0.000,0.3300,3,0,-1.24,0.49,-0.43,0.0247,-0.1746,0.3295,-0.0004,-0.0423,0.3000,0.2590,-7.67,1.20,-57.21,1.2230,0.1310,0.8270,1.8920,2.3680,4,0.0000,0.0000,0.0000,0.0000,0.0000,0
15439,0.0149,-0.1418,0.3296,0.0041,0.0046,0.0017,-0.24,-0.19,1.87,0,3.357,1.185,-0.978,0.104,0.008,-0.014,0.995,0.000,0.000,0.000,0.3310,-2,0,-1.25,0.52,-0.47,0.0246,-0.1815,0.3299,-0.0004,-0.0423,0.3000,0.2589,-6.99,1.30,-56.08,0.0000,0.1320,0.8180,1.8910,2.3750,4,0.0000,0.0000,0.0000,0.0000,0.0000,0
15489,0.0151,-0.1454,0.3303,0.0055,-0.0011,0.0027,-0.19,-0.12,1.86,0,3.352,1.897,-3.406,0.088,0.005,-0.015,0.994,0.000,0.000,0.000,0.3280,0,0,-1.22,0.57,-0.45,0.0247,-0.1795,0.3301,-0.0004,-0.0423,0.3000,0.2586,-7.52,1.38,-55.93,0.0000,0.1320,0.8180,1.8910,2.3750,4,0.0000,0.0000,0.0000,0.0000,0.0000,0
15541,0.0166,-0.1403,0.3292,0.0093,0.0111,-0.0046,-0.11,-0.04,1.87,0,3.347,0.776,-2.498,0.461,0.000,-0.016,0.993,0.000,0.000,0.000,0.3280,1,0,-1.12,0.74,-0.44,0.0246,-0.1797,0.3292,-0.0004,-0.0423,0.3000,0.2596,-6.56,1.66,-56.18,0.0000,0.1360,0.8240,1.8570,2.3660,4,0.0000,0.0000,0.0000,0.0000,0.0000,0
15592,0.0171,-0.1403,0.3284,0.0097,0.0108,-0.0095,-0.06,0.08,1.89,0,3.347,0.659,-2.009,0.901,0.004,-0.015,1.005,0.000,0.000,0.000,0.3240,1,0,-1.06,0.86,-0.43,0.0249,-0.1824,0.3283,-0.0004,-0.0423,0.3000,0.2603,-6.56,1.72,-56.75,0.0000,0.1360,0.8240,1.8570,2.3660,4,0.0000,0.0000,0.0000,0.0000,0.0000,0
15643,0.0184,-0.1395,0.3257,0.0108,0.0120,-0.0203,0.03,0.19,1.94,0,3.347,2.208,-0.768,-0.085,0.004,-0.014,1.007,0.000,0.000,0.000,0.3250,0,0,-1.02,0.96,-0.39,0.0247,-0.1844,0.3265,-0.0004,-0.0423,0.3000,0.2620,-6.41,1.85,-58.21,0.0000,0.1350,0.8200,1.8780,2.3800,4,0.0000,0.0000,0.0000,0.0000,0.0000,0
15694,0.0189,-0.1381,0.3245,0.0093,0.0134,-0.0202,0.09,0.21,1.94,0,3.341,-0.214,1.761,-0.583,0.004,-0.018,1.002,0.000,0.000,0.000,0.3240,0,0,-0.91,1.00,-0.40,0.0239,-0.1853,0.3255,-0.0004,-0.0423,0.3000,0.2622,-6.24,1.82,-58.06,0.0000,0.1350,0.8200,1.8780,2.3800,4,0.0000,0.0000,0.0000,0.0000,0.0000,0
15745,0.0210,-0.1383,0.3235,0.0108,0.0108,-0.0185,0.15,0.27,1.91,0,3.341,0.529,2.250,-1.244,0.003,-0.017,1.007,0.000,0.000,0.000,0.3230,0,0,-0.92,0.91,-0.43,0.0228,-0.1862,0.3246,-0.0004,-0.0423,0.3000,0.2622,-6.37,2.03,-57.32,0.0000,0.1310,0.8190,1.8670,2.3770,4,0.0000,0.0000,0.0000,0.0000,0.0000,0
15795,0.0213,-0.1372,0.3225,0.0084,0.0106,-0.0160,0.18,0.19,1.85,0,3.341,-2.490,-1.862,-2.472,0.011,-0.014,1.007,0.000,0.000,0.000,0.3220,1,0,-0.89,0.80,-0.49,0.0213,-0.1871,0.3237,-0.0004,-0.0423,0.3000,0.2621,-6.31,1.94,-55.64,0.0000,0.1310,0.8190,1.8670,2.3770,4,0.0000,0.0000,0.0000,0.0000,0.0000,0
15847,0.0215,-0.1368,0.3217,0.0063,0.0088,-0.0128,0.12,0.21,1.74,0,3.352,0.986,1.276,-3.854,0.009,-0.014,1.012,0.000,0.000,0.000,0.3230,0,0,-1.01,0.85,-0.63,0.0261,-0.1877,0.3230,-0.0004,-0.0423,0.3000,0.2619,-6.38,1.86,-52.09,0.0000,0.1300,0.8190,1.8670,2.3710,4,0.0000,0.0000,0.0000,0.0000,0.0000,0
15898,0.0216,-0.1366,0.3219,0.0042,0.0075,-0.0051,0.11,0.18,1.56,0,3.347,-0.900,0.854,-3.419,0.006,-0.017,1.007,0.000,0.000,0.000,0.3230,-1,0,-0.96,0.79,-0.83,0.0257,-0.1884,0.3230,-0.0004,-0.0423,0.3000,0.2611,-6.44,1.77,-46.78,0.0000,0.1300,0.8190,1.8670,2.3710,4,0.0000,0.0000,0.0000,0.0000,0.0000,0
15949,0.0220,-0.1376,0.3223,0.0033,0.0037,0.0014,0.11,0.12,1.37,0,3.347,-0.134,1.498,-3.881,0.005,-0.016,1.007,0.000,0.000,0.000,0.3190,-1,0,-1.03,0.74,-0.98,0.0258,-0.1862,0.3232,-0.0004,-0.0423,0.3000,0.2603,-6.71,1.77,-41.12,0.0000,0.0000,0.8220,1.8430,2.3730,4,0.0000,0.0000,0.0000,0.0000,0.0000,0
16001,0.0223,-0.1387,0.3209,0.0027,-0.0000,-0.0021,0.10,0.07,1.12,0,3.341,0.623,-0.346,-4.962,0.008,-0.010,1.005,0.000,0.000,0.000,0.3220,1,0,-1.05,0.66,-1.17,0.0255,-0.1850,0.3222,-0.0004,-0.0423,0.3000,0.2609,-6.95,1.75,-33.66,0.0000,0.0000,0.8220,1.8430,2.3730,4,0.0000,0.0000,0.0000,0.0000,0.0000,0
16051,0.0223,-0.1393,0.3214,0.0018,-0.0023,0.0028,0.11,0.06,0.92,0,3.352,3.477,0.510,-4.671,0.005,-0.016,1.007,0.000,0.000,0.000,0.3230,-1,0,-0.99,0.68,-1.45,0.0251,-0.1861,0.3225,-0.0004,-0.0423,0.3000,0.2603,-7.12,1.71,-27.65,1.1900,0.0000,0.8220,1.8300,2.3770,4,0.0000,0.0000,0.0000,0.0000,0.0000,0
16102,0.0223,-0.1394,0.3224,0.0012,-0.0030,0.0085,0.09,0.04,0.67,0,3.341,-3.448,1.041,-3.777,0.010,-0.011,1.002,0.000,0.000,0.000,0.3200,0,0,-0.83,0.66,-1.67,0.0248,-0.1843,0.3231,-0.0004,-0.0423,0.3000,0.2595,-7.18,1.69,-20.08,1.1900,0.0000,0.8220,1.8300,2.3770,4,0.0000,0.0000,0.0000,0.0000,0.0000,0
16154,0.0227,-0.1408,0.3216,0.0018,-0.0064,0.0046,0.01,-0.00,0.45,0,3.352,-0.096,-0.733,-3.699,0.006,-0.015,1.000,0.000,0.000,0.000,0.3210,0,0,-1.00,0.61,-1.86,0.0241,-0.1836,0.3227,-0.0004,-0.0423,0.3000,0.2601,-7.42,1.75,-13.56,0.0000,0.0000,0.8240,1.8000,2.3730,4,0.0000,0.0000,0.0000,0.0000,0.0000,0
16205,0.0246,-0.1389,0.3215,0.0052,-0.0021,0.0036,-0.00,0.00,0.24,0,3.347,-1.611,1.288,-3.847,0.004,-0.013,1.001,0.000,0.000,0.000,0.3190,0,-2,-1.01,0.65,-2.05,0.0233,-0.1829,0.3226,-0.0004,-0.0423,0.3000,0.2602,-7.09,2.04,-7.08,0.0000,0.0000,0.8240,1.8000,2.3730,4,0.0000,0.0000,0.0000,0.0000,0.0000,0
16257,0.0249,-0.1400,0.3204,0.0051,-0.0041,-0.0017,-0.04,-0.04,0.05,0,3.347,1.042,-2.551,-2.774,0.008,-0.012,1.002,0.000,0.000,0.000,0.3180,5,0,-1.07,0.52,-2.31,0.0325,-0.1852,0.3220,-0.0004,-0.0423,0.3000,0.2610,-7.24,2.05,-1.40,1.2100,0.1370,0.8250,1.7800,2.3730,4,0.0000,0.0000,0.0000,0.0000,0.0000,0
16308,0.0288,-0.1390,0.3191,0.0128,-0.0011,-0.0064,-0.01,-0.03,-0.08,0,3.341,-1.748,-2.861,-2.363,0.010,-0.011,1.003,0.000,0.000,0.000,0.3200,1,-1,-0.95,0.65,-2.49,0.0329,-0.1918,0.3210,-0.0004,-0.0423,0.3000,0.2617,-7.01,2.69,2.46,1.2100,0.1370,0.8250,1.7800,2.3730,4,0.0000,0.0000,0.0000,0.0000,0.0000,0
16359,0.0277,-0.1400,0.3193,0.0094,-0.0021,-0.0037,-0.12,0.06,-0.20,0,3.347,-2.857,-0.918,-1.189,0.005,-0.013,1.005,0.000,0.000,0.000,0.3220,0,-2,-1.03,0.79,-2.62,0.0349,-0.1941,0.3209,-0.0004,-0.0423,0.3000,0.2614,-7.13,2.45,6.02,0.0000,0.1310,0.8260,1.7800,2.3780,4,0.0000,0.0000,0.0000,0.0000,0.0000,0
16409,0.0289,-0.1417,0.3205,0.0101,-0.0041,0.0037,-0.17,0.10,-0.25,0,3.341,-0.588,-0.497,-0.879,0.010,-0.012,1.005,0.000,0.000,0.000,0.3220,1,-1,-1.18,0.82,-2.69,0.0388,-0.1948,0.3215,-0.0004,-0.0423,0.3000,0.2604,-7.38,2.58,7.62,0.0000,0.1310,0.8260,1.7800,2.3780,4,0.0000,0.0000,0.0000,0.0000,0.0000,0
16460,0.0305,-0.1398,0.3214,0.0111,0.0015,0.0081,-0.16,0.16,-0.31,0,3.352,1.526,-0.074,-0.634,0.005,-0.013,0.997,0.000,0.000,0.000,0.3200,0,-2,-1.20,0.84,-2.74,0.0413,-0.1971,0.3221,-0.0004,-0.0423,0.3000,0.2597,-7.00,2.75,9.31,0.0000,0.1360,0.8250,1.8090,2.3740,4,0.0000,0.0000,0.0000,0.0000,0.0000,0
16512,0.0315,-0.1416,0.3211,0.0106,-0.0011,0.0044,-0.08,0.18,-0.39,0,3.347,-1.175,0.402,-0.364,0.006,-0.011,1.000,0.000,0.000,0.000,0.3230,0,0,-1.13,0.81,-2.78,0.0462,-0.1977,0.3218,-0.0004,-0.0423,0.3000,0.2602,-7.24,2.79,11.60,0.0000,0.1360,0.8250,1.8090,2.3740,4,0.0000,0.0000,0.0000,0.0000,0.0000,0
16563,0.0337,-0.1405,0.3222,0.0122,0.0019,0.0084,-0.13,0.20,-0.43,0,3.347,1.379,-0.944,-0.600,0.005,-0.014,0.998,0.000,0.000,0.000,0.3240,3,0,-1.19,0.79,-2.80,0.0483,-0.1984,0.3225,-0.0004,-0.0423,0.3000,0.2595,-7.04,3.03,12.94,0.0000,0.0000,0.8200,1.7820,2.3730,4,0.0000,0.0000,0.0000,0.0000,0.0000,0
16614,0.0350,-0.1408,0.3234,0.0123,0.0021,0.0102,-0.05,0.16,-0.45,0,3.341,-2.723,1.958,-0.706,0.010,-0.010,0.994,0.000,0.000,0.000,0.3210,0,0,-1.05,0.87,-2.89,0.0453,-0.2088,0.3234,-0.0004,-0.0423,0.3000,0.2591,-7.07,3.14,13.49,0.0000,0.0000,0.8200,1.7820,2.3730,4,0.0000,0.0000,0.0000,0.0000,0.0000,0
16664,0.0354,-0.1399,0.3226,0.0107,0.0050,0.0018,-0.14,0.11,-0.46,0,3.347,-1.156,-1.486,-0.073,0.005,-0.014,0.994,0.000,0.000,0.000,0.3230,2,0,-1.18,0.77,-2.92,0.0460,-0.2112,0.3229,-0.0004,-0.0423,0.3000,0.2601,-6.84,3.08,13.86,0.0000,0.0000,0.8240,1.7600,2.3760,4,0.0000,0.0000,0.0000,0.0000,0.0000,0
16716,0.0363,-0.1416,0.3228,0.0106,0.0018,-0.0002,-0.12,0.19,-0.49,0,3.341,3.492,0.146,-1.062,0.006,-0.016,0.996,0.000,0.000,0.000,0.3230,-1,0,-1.23,0.86,-2.94,0.0451,-0.2156,0.3229,-0.0004,-0.0423,0.3000,0.2603,-7.11,3.13,14.60,0.0000,0.0000,0.8240,1.7600,2.3760,4,0.0000,0.0000,0.0000,0.0000,0.0000,0
16766,0.0365,-0.1429,0.3229,0.0082,-0.0001,-0.0006,0.06,0.28,-0.54,0,3.347,-0.159,-3.611,-2.063,0.007,-0.016,1.000,0.000,0.000,0.000,0.3220,1,0,-1.07,0.85,-2.97,0.0452,-0.2146,0.3229,-0.0004,-0.0423,0.3000,0.2604,-7.28,3.03,16.10,0.0000,0.1350,0.8250,1.7700,2.3810,4,0.0000,0.0000,0.0000,0.0000,0.0000,0
16818,0.0368,-0.1401,0.3224,0.0058,0.0056,-0.0034,0.05,0.32,-0.61,0,3.341,0.986,1.045,-1.980,0.010,-0.011,1.001,0.000,0.000,0.000,0.3220,0,0,-1.07,1.03,-3.08,0.0450,-0.2174,0.3225,-0.0004,-0.0423,0.3000,0.2607,-6.81,2.94,18.41,0.0000,0.1350,0.8250,1.7700,2.3810,4,0.0000,0.0000,0.0000,0.0000,0.0000,0
16869,0.0370,-0.1405,0.3220,0.0030,0.0038,-0.0044,0.02,0.24,-0.70,0,3.341,3.753,-4.176,-1.863,0.010,-0.015,1.003,0.000,0.000,0.000,0.3200,0,0,-1.02,0.98,-3.18,0.0447,-0.2191,0.3223,-0.0004,-0.0423,0.3000,0.2609,-6.92,2.82,21.02,0.0000,0.1360,0.8210,1.7600,2.3800,4,0.0000,0.0000,0.0000,0.0000,0.0000,0
16919,0.0374,-0.1410,0.3208,0.0017,0.0020,-0.0094,0.16,0.20,-0.78,0,3.336,2.336,1.312,-2.107,0.006,-0.012,0.997,0.000,0.000,0.000,0.3190,0,0,-0.82,1.20,-3.27,0.0441,-0.2207,0.3215,-0.0004,-0.0423,0.3000,0.2617,-7.02,2.78,23.35,0.0000,0.1360,0.8210,1.7600,2.3800,4,0.0000,0.0000,0.0000,0.0000,0.0000,0
16971,0.0367,-0.1390,0.3195,-0.0019,0.0047,-0.0130,0.19,0.27,-0.87,0,3.341,-7.902,6.789,-0.236,0.010,-0.015,1.003,0.000,0.000,0.000,0.3180,2,1,-0.70,1.13,-3.38,0.0432,-0.2222,0.3205,-0.0004,-0.0423,0.3000,0.2623,-6.74,2.55,26.04,0.0000,0.1360,0.8250,1.7640,2.3800,4,0.0000,0.0000,0.0000,0.0000,0.0000,0
17022,0.0368,-0.1393,0.3182,-0.0034,0.0025,-0.0153,-0.20,0.02,-0.91,0,3.336,-40.107,6.473,-0.779,0.010,-0.012,1.008,0.000,0.000,0.000,0.3190,1,1,-1.12,0.77,-3.40,0.0434,-0.2236,0.3195,-0.0004,-0.0423,0.3000,0.2628,-6.85,2.49,27.37,0.0000,0.1360,0.8250,1.7640,2.3800,4,0.0000,0.0000,0.0000,0.0000,0.0000,0
17073,0.0370,-0.1378,0.3179,-0.0016,0.0098,-0.0116,-1.96,-0.42,-0.96,0,3.336,-17.878,-20.347,-0.154,0.013,-0.013,1.011,0.000,0.000,0.000,0.3160,3,-4,-3.16,0.45,-3.45,0.0416,-0.2255,0.3192,-0.0004,-0.0423,0.3000,0.2625,-6.42,2.59,28.65,0.0000,0.1290,0.8220,1.8090,2.3790,4,0.0000,0.0000,0.0000,0.0000,0.0000,0
17124,0.0335,-0.1354,0.3165,-0.0061,0.0322,-0.0118,-3.02,0.40,-0.92,0,3.336,2.007,-14.397,-0.603,0.006,-0.018,1.005,0.000,0.000,0.000,0.3200,-2,0,-4.04,1.44,-3.36,0.0459,-0.2299,0.3189,-0.0004,-0.0423,0.3000,0.2628,-5.20,2.13,27.74,0.0000,0.1290,0.8220,1.8090,2.3790,4,0.0000,0.0000,0.0000,0.0000,0.0000,0
17174,0.0375,-0.1369,0.3179,-0.0018,0.0506,0.0003,-3.03,1.09,-0.93,0,3.341,-5.894,28.620,-1.506,0.004,-0.018,1.000,0.000,0.000,0.000,0.3200,3,1,-3.96,2.17,-3.31,0.0460,-0.2269,0.3192,-0.0004,-0.0423,0.3000,0.2612,-4.47,2.63,27.95,0.0000,0.0000,0.8150,1.8310,2.3920,4,0.0000,0.0000,0.0000,0.0000,0.0000,0
17226,0.0370,-0.1312,0.3190,-0.0096,0.0823,0.0052,-3.21,-0.14,-1.07,0,3.341,1.419,17.445,-0.886,0.010,-0.016,1.003,0.000,0.000,0.000,0.3180,-7,1,-4.20,0.76,-3.61,0.0436,-0.2308,0.3202,-0.0004,-0.0423,0.3000,0.2605,-2.58,2.23,32.15,0.0000,0.0000,0.8150,1.8310,2.3920,4,0.0000,0.0000,0.0000,0.0000,0.0000,0
17277,0.0355,-0.1380,0.3188,-0.0084,0.0846,0.0038,-3.20,-1.06,-1.19,0,3.341,7.205,4.224,-0.501,0.009,-0.015,1.000,0.000,0.000,0.000,0.3180,-7,0,-4.23,-0.13,-3.61,0.0421,-0.2162,0.3188,-0.0004,-0.0423,0.3000,0.2606,-2.95,2.18,35.61,0.0000,0.1380,0.8120,1.8350,2.3880,4,0.0000,0.0000,0.0000,0.0000,0.0000,0
17327,0.0355,-0.1268,0.3185,0.0021,0.1247,0.0006,-2.99,-1.22,-1.22,0,3.336,9.453,8.219,1.186,0.006,-0.017,0.997,0.000,0.000,0.000,0.3180,-4,0,-3.94,-0.36,-3.54,0.0428,-0.1993,0.3172,-0.0004,-0.0423,0.3000,0.2610,-0.26,2.67,36.45,0.0000,0.1380,0.8120,1.8350,2.3880,4,0.0000,0.0000,0.0000,0.0000,0.0000,0
17378,0.0360,-0.1202,0.3182,0.0137,0.1481,-0.0032,-2.52,-1.52,-1.18,0,3.341,16.285,3.416,3.028,0.003,-0.021,0.999,0.000,0.000,0.000,0.3130,-8,0,-3.48,-0.78,-3.48,0.0433,-0.1872,0.3167,-0.0004,-0.0423,0.3000,0.2615,1.32,3.25,35.33,0.0000,0.0000,0.7980,1.8420,2.3930,4,0.0000,0.0000,0.0000,0.0000,0.0000,0
17429,0.0381,-0.1137,0.3154,0.0300,0.1645,-0.0169,-1.75,-1.68,-1.05,0,3.331,13.741,-9.521,3.176,0.005,-0.021,1.006,0.000,0.000,0.000,0.3140,-5,0,-2.72,-0.96,-3.35,0.0446,-0.1651,0.3136,-0.0004,-0.0423,0.3000,0.2635,2.53,4.14,31.65,0.0000,0.0000,0.7980,1.8420,2.3930,4,0.0000,0.0000,0.0000,0.0000,0.0000,0
17480,0.0395,-0.1058,0.3139,0.0435,0.1759,-0.0192,-0.94,-1.43,-0.91,0,3.336,4.439,-4.884,4.186,0.003,-0.014,1.003,0.000,0.000,0.000,0.3130,-9,-3,-2.03,-0.48,-3.19,0.0456,-0.1496,0.3128,-0.0004,-0.0423,0.3000,0.2640,3.61,4.86,27.30,0.0000,0.1430,0.7890,1.8290,2.3930,4,0.0000,0.0000,0.0000,0.0000,0.0000,0
17531,0.0406,-0.1054,0.3128,0.0513,0.1656,-0.0203,-0.43,-1.18,-0.68,0,3.331,11.381,-13.125,5.083,0.004,-0.016,1.006,0.000,0.000,0.000,0.3110,-6,0,-1.87,-0.29,-2.84,0.0550,-0.1238,0.3106,-0.0004,-0.0423,0.3000,0.2644,3.15,5.29,20.48,0.0000,0.1430,0.7890,1.8290,2.3930,4,0.0000,0.0000,0.0000,0.0000,0.0000,0
17583,0.0447,-0.0962,0.3112,0.0641,0.1700,-0.0217,0.18,-0.66,-0.42,0,3.336,8.952,-10.051,4.216,-0.001,-0.018,1.009,0.000,0.000,0.000,0.3120,-8,-1,-1.29,0.39,-2.62,0.0563,-0.1049,0.3098,-0.0004,-0.0423,0.3000,0.2648,4.00,6.16,12.66,1.1060,0.0000,0.7700,1.8210,2.3900,4,0.0000,0.0000,0.0000,0.0000,0.0000,0
17633,0.0471,-0.0917,0.3108,0.0679,0.1579,-0.0153,0.74,-0.15,-0.21,0,3.326,-0.265,-10.297,2.295,-0.004,-0.020,1.002,0.000,0.000,0.000,0.3090,0,-1,-0.87,0.90,-2.41,0.0603,-0.0813,0.3091,-0.0004,-0.0423,0.3000,0.2642,3.75,6.52,6.38,1.1060,0.0000,0.7700,1.8210,2.3900,4,0.0000,0.0000,0.0000,0.0000,0.0000,0
17684,0.0517,-0.0795,0.3094,0.0721,0.1622,-0.0153,0.84,0.30,-0.10,0,3.331,6.121,-28.495,0.787,0.006,-0.014,1.011,0.000,0.000,0.000,0.3080,-4,-2,-0.78,1.40,-2.19,0.0632,-0.0793,0.3112,-0.0004,-0.0423,0.3000,0.2645,4.80,7.02,2.89,1.1020,0.1390,0.7450,1.8230,2.3900,4,0.0000,0.0000,0.0000,0.0000,0.0000,0
17735,0.0548,-0.0743,0.3082,0.0682,0.1480,-0.0151,1.12,1.57,-0.06,0,3.331,10.278,-30.327,1.039,-0.001,-0.017,1.011,0.000,0.000,0.000,0.3080,-4,-4,-0.45,2.83,-2.09,0.0696,-0.0673,0.3108,-0.0004,-0.0423,0.3000,0.2647,4.50,7.05,1.91,1.1020,0.1390,0.7450,1.8230,2.3900,4,0.0000,0.0000,0.0000,0.0000,0.0000,0
17786,0.0574,-0.0673,0.3076,0.0533,0.1381,-0.0107,1.58,3.14,-0.06,0,3.336,-1.611,18.104,1.149,-0.003,-0.020,1.003,0.000,0.000,0.000,0.3120,-6,3,0.09,4.31,-1.98,0.0820,-0.0554,0.3109,-0.0004,-0.0423,0.3000,0.2643,4.54,6.55,1.92,1.2360,0.1310,0.7350,1.8370,2.3940,4,0.0000,0.0000,0.0000,0.0000,0.0000,0
17837,0.0600,-0.0621,0.3093,0.0277,0.1203,0.0016,1.50,2.69,0.02,0,3.331,-5.077,34.026,-0.740,-0.003,-0.015,0.996,0.000,0.000,0.000,0.3100,-3,2,-0.03,3.45,-1.86,0.0734,-0.0365,0.3111,-0.0004,-0.0423,0.3000,0.2627,4.09,5.59,-0.46,1.2360,0.1310,0.7350,1.8370,2.3940,4,0.0000,0.0000,0.0000,0.0000,0.0000,0
17888,0.0583,-0.0562,0.3097,-0.0017,0.1076,0.0016,1.30,1.12,0.04,0,3.336,0.872,6.357,-0.955,0.000,-0.013,0.997,0.000,0.000,0.000,0.3090,-6,2,-0.25,1.74,-1.99,0.0678,-0.0270,0.3113,-0.0004,-0.0423,0.3000,0.2626,3.92,4.09,-1.13,0.0000,0.1320,0.7210,1.8380,2.3970,4,0.0000,0.0000,0.0000,0.0000,0.0000,0
17940,0.0564,-0.0520,0.3094,-0.0159,0.0939,-0.0014,1.37,0.71,0.00,0,3.326,2.214,9.819,0.228,-0.006,-0.017,1.000,0.000,0.000,0.000,0.3060,-2,1,-0.24,1.43,-1.93,0.0618,-0.0081,0.3102,-0.0004,-0.0423,0.3000,0.2630,3.56,3.29,-0.06,0.0000,0.1320,0.7210,1.8380,2.3970,4,0.0000,0.0000,0.0000,0.0000,0.0000,0
17991,0.0537,-0.0439,0.3077,-0.0264,0.0913,-0.0094,1.56,0.40,0.01,0,3.336,1.592,21.606,-0.058,0.002,-0.019,1.004,0.000,0.000,0.000,0.3050,1,2,-0.07,0.90,-2.08,0.0597,-0.0026,0.3096,-0.0004,-0.0423,0.3000,0.2642,3.99,2.59,-0.25,1.0940,0.1380,0.7120,1.8330,2.3870,4,0.0000,0.0000,0.0000,0.0000,0.0000,0
18041,0.0515,-0.0430,0.3060,-0.0317,0.0688,-0.0156,1.72,-0.50,0.02,0,3.320,-3.881,5.451,-3.502,0.004,-0.013,1.009,0.000,0.000,0.000,0.3030,-2,1,0.10,-0.20,-2.30,0.0543,-0.0063,0.3092,-0.0004,-0.0423,0.3000,0.2651,3.00,2.19,-0.50,1.0940,0.1380,0.7120,1.8330,2.3870,4,0.0000,0.0000,0.0000,0.0000,0.0000,0
18093,0.0488,-0.0416,0.3040,-0.0311,0.0497,-0.0192,1.60,-0.91,-0.10,0,3.331,-5.621,4.121,-4.744,0.006,-0.014,1.009,0.000,0.000,0.000,0.3020,0,1,-0.08,-0.49,-2.53,0.0516,-0.0000,0.3077,-0.0004,-0.0423,0.3000,0.2659,2.19,2.02,3.13,1.0570,0.1470,0.7040,1.8330,2.3990,4,0.0000,0.0000,0.0000,0.0000,0.0000,0
18144,0.0470,-0.0401,0.3022,-0.0246,0.0338,-0.0197,1.36,-1.04,-0.34,0,3.326,-1.624,7.483,-4.022,0.001,-0.009,1.016,0.000,0.000,0.000,0.3030,-1,1,-0.33,-0.71,-2.84,0.0491,-0.0008,0.3065,-0.0004,-0.0423,0.3000,0.2663,1.55,2.20,10.29,1.0570,0.1470,0.7040,1.8330,2.3990,4,0.0000,0.0000,0.0000,0.0000,0.0000,0
18195,0.0443,-0.0385,0.3020,-0.0199,0.0223,-0.0104,1.22,-1.38,-0.54,0,3.331,-3.154,4.394,-0.259,0.004,-0.008,1.012,0.000,0.000,0.000,0.3040,0,0,-0.39,-1.09,-3.07,0.0464,0.0022,0.3060,-0.0004,-0.0423,0.3000,0.2653,1.14,2.23,16.18,1.0490,0.1560,0.6970,1.8350,2.3970,4,0.0000,0.0000,0.0000,0.0000,0.0000,0
18246,0.0432,-0.0340,0.3027,-0.0090,0.0218,0.0000,0.99,-1.61,-0.57,0,3.326,-4.354,-4.037,3.584,0.001,-0.010,1.009,0.000,0.000,0.000,0.3050,0,0,-0.56,-1.32,-3.08,0.0437,0.0079,0.3060,-0.0004,-0.0423,0.3000,0.2641,1.44,2.68,17.11,1.0490,0.1560,0.6970,1.8350,2.3970,4,0.0000,0.0000,0.0000,0.0000,0.0000,0
18298,0.0424,-0.0352,0.3040,0.0031,0.0072,0.0113,0.77,-1.58,-0.39,0,3.331,-7.101,1.166,5.653,-0.001,-0.007,1.004,0.000,0.000,0.000,0.3040,-2,0,-0.77,-1.11,-2.90,0.0416,0.0137,0.3066,-0.0004,-0.0423,0.3000,0.2626,0.67,3.21,11.76,1.0440,0.1590,0.6940,1.8500,2.3960,4,0.0000,0.0000,0.0000,0.0000,0.0000,0
18348,0.0429,-0.0339,0.3046,0.0169,0.0033,0.0137,0.48,-1.71,-0.12,0,3.326,-4.047,-4.722,4.508,-0.002,-0.003,0.999,0.000,0.000,0.000,0.3010,6,-1,-1.04,-1.22,-2.56,0.0474,0.0024,0.3072,-0.0004,-0.0423,0.3000,0.2622,0.58,3.89,3.50,1.0440,0.1590,0.6940,1.8500,2.3960,4,0.0000,0.0000,0.0000,0.0000,0.0000,0
18399,0.0433,-0.0317,0.3033,0.0292,0.0048,0.0040,0.29,-1.51,0.13,0,3.331,3.798,-18.813,3.006,0.005,-0.007,1.003,0.000,0.000,0.000,0.3050,-3,-1,-1.16,-1.00,-2.16,0.0481,-0.0060,0.3061,-0.0004,-0.0423,0.3000,0.2635,0.80,4.48,-3.92,1.0400,0.1600,0.6920,1.8920,2.4000,4,0.0000,0.0000,0.0000,0.0000,0.0000,0
18450,0.0447,-0.0315,0.3043,0.0409,0.0030,0.0088,0.32,-0.56,0.31,0,3.326,1.641,-38.814,2.796,-0.001,-0.006,1.005,0.000,0.000,0.000,0.3040,0,-5,-1.00,-0.06,-2.09,0.0509,-0.0001,0.3066,-0.0004,-0.0423,0.3000,0.2628,0.74,5.14,-9.21,1.0400,0.1600,0.6920,1.8920,2.4000,4,0.0000,0.0000,0.0000,0.0000,0.0000,0
18502,0.0452,-0.0279,0.3045,0.0411,0.0098,0.0087,0.33,1.33,0.42,0,3.331,-2.245,-4.810,-0.122,-0.011,-0.003,1.004,0.000,0.000,0.000,0.3050,2,0,-0.91,1.85,-1.96,0.0615,0.0005,0.3068,-0.0004,-0.0423,0.3000,0.2628,1.31,5.18,-12.56,1.0710,0.0000,0.6810,1.9050,2.3970,4,0.0000,0.0000,0.0000,0.0000,0.0000,0
18552,0.0483,-0.0240,0.3052,0.0335,0.0163,0.0104,0.20,1.68,0.43,0,3.326,5.555,31.596,-4.093,0.004,-0.005,1.006,0.000,0.000,0.000,0.3070,-2,5,-0.98,2.12,-1.90,0.0616,-0.0032,0.3072,-0.0004,-0.0423,0.3000,0.2625,1.89,5.05,-12.84,1.0710,0.0000,0.6810,1.9050,2.3970,4,0.0000,0.0000,0.0000,0.0000,0.0000,0
18603,0.0498,-0.0243,0.3066,0.0200,0.0117,0.0170,0.45,0.38,0.24,0,3.336,6.382,7.915,-6.327,0.009,-0.008,1.004,0.000,0.000,0.000,0.3060,-1,0,-0.72,0.62,-2.05,0.0506,0.0021,0.3082,-0.0004,-0.0423,0.3000,0.2615,1.66,4.54,-7.14,0.0000,0.1450,0.6750,1.8990,2.3940,4,0.0000,0.0000,0.0000,0.0000,0.0000,0
18654,0.0470,-0.0188,0.3071,0.0069,0.0217,0.0179,0.68,-0.11,-0.07,0,3.331,4.623,0.826,-6.960,0.000,-0.011,1.008,0.000,0.000,0.000,0.3100,0,0,-0.40,0.21,-2.38,0.0504,0.0051,0.3086,-0.0004,-0.0423,0.3000,0.2613,2.53,3.73,2.07,0.0000,0.1450,0.6750,1.8990,2.3940,4,0.0000,0.0000,0.0000,0.0000,0.0000,0
18705,0.0471,-0.0172,0.3093,0.0070,0.0175,0.0255,0.84,-0.11,-0.41,0,3.336,8.689,9.833,-7.028,-0.005,-0.011,1.003,0.000,0.000,0.000,0.3080,-5,2,-0.16,0.17,-2.74,0.0489,0.0076,0.3103,-0.0004,-0.0423,0.3000,0.2601,2.45,3.76,12.18,1.0680,0.0000,0.6790,1.8680,2.3930,4,0.0000,0.0000,0.0000,0.0000,0.0000,0
18756,0.0467,-0.0164,0.3099,0.0058,0.0103,0.0249,1.25,-0.47,-0.74,0,3.331,5.572,7.251,-7.650,-0.003,-0.009,0.995,0.000,0.000,0.000,0.3090,0,0,0.19,-0.31,-3.09,0.0448,0.0238,0.3107,-0.0004,-0.0423,0.3000,0.2600,2.17,3.67,22.11,1.0680,0.0000,0.6790,1.8680,2.3930,4,0.0000,0.0000,0.0000,0.0000,0.0000,0
18807,0.0448,-0.0119,0.3105,0.0037,0.0107,0.0210,1.47,-0.87,-1.10,0,3.336,2.482,0.309,-10.203,0.001,-0.009,1.000,0.000,0.000,0.000,0.3110,0,-3,0.47,-0.68,-3.48,0.0427,0.0285,0.3112,-0.0004,-0.0423,0.3000,0.2603,2.50,3.44,33.02,1.0560,0.1560,0.6720,1.8400,2.3960,4,0.0000,0.0000,0.0000,0.0000,0.0000,0
18859,0.0437,-0.0100,0.3116,0.0070,0.0027,0.0208,1.48,-0.73,-1.59,0,3.326,2.613,-28.592,-10.118,-0.001,-0.006,0.999,0.000,0.000,0.000,0.3080,-4,-2,0.65,-0.80,-4.16,0.0556,0.0228,0.3126,-0.0004,-0.0423,0.3000,0.2601,2.26,3.52,47.76,1.0560,0.1560,0.6720,1.8400,2.3960,4,0.0000,0.0000,0.0000,0.0000,0.0000,0
18910,0.0438,-0.0124,0.3106,0.0112,-0.0162,0.0116,1.64,0.59,-2.10,0,3.331,4.709,-18.820,-8.281,-0.002,-0.010,1.005,0.000,0.000,0.000,0.3110,2,-1,0.74,0.65,-4.85,0.0612,0.0308,0.3122,-0.0004,-0.0423,0.3000,0.2613,1.19,3.71,63.05,1.0650,0.0000,0.6700,1.8280,2.3940,4,0.0000,0.0000,0.0000,0.0000,0.0000,0
18961,0.0470,-0.0113,0.3114,0.0126,-0.0248,0.0150,1.89,1.49,-2.53,0,3.326,-10.547,-4.201,-6.898,-0.003,-0.007,0.997,0.000,0.000,0.000,0.3110,-1,0,1.03,1.60,-5.26,0.0633,0.0274,0.3128,-0.0004,-0.0423,0.3000,0.2608,0.86,4.01,76.00,1.0650,0.0000,0.6700,1.8280,2.3940,4,0.0000,0.0000,0.0000,0.0000,0.0000,0
19011,0.0477,-0.0144,0.3118,0.0004,-0.0436,0.0129,1.40,1.77,-2.88,0,3.331,-10.277,4.583,-5.187,-0.004,-0.004,0.999,0.000,0.000,0.000,0.3130,0,2,0.49,1.81,-5.60,0.0637,0.0297,0.3130,-0.0004,-0.0423,0.3000,0.2610,-0.25,3.48,86.41,1.1510,0.0000,0.6700,1.8190,2.3860,4,0.0000,0.0000,0.0000,0.0000,0.0000,0
19063,0.0465,-0.0116,0.3130,-0.0174,-0.0415,0.0152,0.75,1.56,-3.12,0,3.331,-4.339,36.492,-3.585,-0.001,-0.007,0.994,0.000,0.000,0.000,0.3150,0,3,-0.01,1.62,-5.74,0.0586,0.0304,0.3136,-0.0004,-0.0423,0.3000,0.2605,0.05,2.56,93.59,1.1510,0.0000,0.6700,1.8190,2.3860,4,0.0000,0.0000,0.0000,0.0000,0.0000,0
19113,0.0436,-0.0150,0.3145,-0.0348,-0.0507,0.0172,0.55,-0.03,-3.28,0,3.331,-5.963,22.223,-0.351,0.007,-0.004,0.994,0.000,0.000,0.000,0.3140,5,2,-0.24,-0.24,-5.79,0.0501,0.0313,0.3144,-0.0004,-0.0423,0.3000,0.2600,-0.63,1.53,98.42,0.0000,0.1730,0.6810,1.8220,2.3890,4,0.0000,0.0000,0.0000,0.0000,0.0000,0
19164,0.0408,-0.0154,0.3150,-0.0372,-0.0496,0.0123,0.38,-1.27,-3.32,0,3.326,-8.919,7.084,0.918,0.004,-0.002,0.993,0.000,0.000,0.000,0.3130,0,1,-0.44,-1.33,-5.78,0.0430,0.0193,0.3147,-0.0004,-0.0423,0.3000,0.2604,-0.60,1.21,99.47,0.0000,0.1730,0.6810,1.8220,2.3890,4,0.0000,0.0000,0.0000,0.0000,0.0000,0
19216,0.0376,-0.0173,0.3144,-0.0308,-0.0514,0.0021,-0.05,-1.68,-3.28,0,3.331,1.154,9.334,2.062,0.005,-0.006,1.007,0.000,0.000,0.000,0.3130,1,1,-0.91,-1.69,-5.73,0.0399,0.0193,0.3144,-0.0004,-0.0423,0.3000,0.2616,-0.82,1.29,98.49,1.0670,0.1790,0.6800,1.8190,2.3870,4,0.0000,0.0000,0.0000,0.0000,0.0000,0
19267,0.0354,-0.0182,0.3137,-0.0190,-0.0480,-0.0030,-0.02,-2.14,-3.19,0,3.320,2.777,7.273,2.259,-0.002,-0.009,0.998,0.000,0.000,0.000,0.3120,0,1,-0.84,-2.17,-5.60,0.0365,0.0167,0.3143,-0.0004,-0.0423,0.3000,0.2623,-0.72,1.69,95.84,1.0670,0.1790,0.6800,1.8190,2.3870,4,0.0000,0.0000,0.0000,0.0000,0.0000,0
19318,0.0343,-0.0204,0.3127,-0.0022,-0.0484,-0.0075,0.02,-2.52,-3.11,0,3.326,-3.583,-3.275,-2.597,0.004,-0.011,1.003,0.000,0.000,0.000,0.3120,-1,-1,-0.70,-2.53,-5.49,0.0335,0.0168,0.3137,-0.0004,-0.0423,0.3000,0.2630,-0.90,2.40,93.24,1.0520,0.0000,0.6810,1.8200,2.3940,4,0.0000,0.0000,0.0000,0.0000,0.0000,0
19370,0.0336,-0.0195,0.3120,0.0165,-0.0414,-0.0096,-0.17,-2.31,-3.20,0,3.320,-0.673,-35.516,-3.678,0.006,-0.005,1.001,0.000,0.000,0.000,0.3130,-2,-6,-0.92,-2.38,-5.74,0.0372,0.0194,0.3133,-0.0004,-0.0423,0.3000,0.2633,-0.50,3.22,96.07,1.0520,0.0000,0.6810,1.8200,2.3940,4,0.0000,0.0000,0.0000,0.0000,0.0000,0
19420,0.0343,-0.0198,0.3122,0.0343,-0.0372,-0.0060,-0.06,-0.70,-3.42,0,3.326,6.799,-24.999,-8.076,0.003,-0.009,1.002,0.000,0.000,0.000,0.3090,1,-1,-1.01,-0.63,-6.20,0.0571,0.0235,0.3129,-0.0004,-0.0423,0.3000,0.2629,-0.33,4.11,102.67,1.0490,0.0000,0.6850,1.8180,2.3940,4,0.0000,0.0000,0.0000,0.0000,0.0000,0
19472,0.0386,-0.0174,0.3104,0.0460,-0.0265,-0.0109,0.22,0.56,-3.82,0,3.320,3.224,-5.855,-8.106,0.002,-0.006,1.000,0.000,0.000,0.000,0.3110,3,-2,-0.64,0.64,-6.48,0.0597,0.0203,0.3119,-0.0004,-0.0423,0.3000,0.2638,0.35,4.94,114.56,1.0490,0.0000,0.6850,1.8180,2.3940,4,0.0000,0.0000,0.0000,0.0000,0.0000,0
19523,0.0400,-0.0195,0.3102,0.0396,-0.0295,-0.0099,0.45,0.86,-4.24,0,3.326,-1.417,-9.742,-3.581,-0.000,-0.004,0.997,0.000,0.000,0.000,0.3110,3,-4,-0.41,0.94,-6.75,0.0639,0.0104,0.3116,-0.0004,-0.0423,0.3000,0.2637,0.06,4.74,127.12,1.1270,0.1710,0.6900,1.8090,2.3960,4,0.0000,0.0000,0.0000,0.0000,0.0000,0
19574,0.0418,-0.0196,0.3102,0.0316,-0.0289,-0.0080,0.38,1.34,-4.45,0,3.320,1.830,-12.543,-2.015,-0.001,-0.007,1.006,0.000,0.000,0.000,0.3060,-1,-1,-0.43,1.39,-6.89,0.0748,-0.0002,0.3109,-0.0004,-0.0423,0.3000,0.2635,0.08,4.50,133.48,1.1270,0.1710,0.6900,1.8090,2.3960,4,0.0000,0.0000,0.0000,0.0000,0.0000,0
19624,0.0444,-0.0216,0.3078,0.0227,-0.0322,-0.0167,0.36,1.97,-4.52,0,3.320,0.617,-2.594,2.821,-0.003,-0.007,1.003,0.000,0.000,0.000,0.3080,-1,0,-0.37,2.04,-7.01,0.0782,0.0026,0.3095,-0.0004,-0.0423,0.3000,0.2649,-0.21,4.24,135.61,0.0000,0.1850,0.6940,1.8050,2.3950,4,0.0000,0.0000,0.0000,0.0000,0.0000,0
19675,0.0463,-0.0220,0.3072,0.0087,-0.0313,-0.0133,0.36,2.00,-4.40,0,3.320,-6.985,30.679,4.296,-0.000,-0.005,1.001,0.000,0.000,0.000,0.3100,0,5,-0.37,2.19,-6.85,0.0786,0.0055,0.3088,-0.0004,-0.0423,0.3000,0.2647,-0.20,3.73,132.03,0.0000,0.1850,0.6940,1.8050,2.3950,4,0.0000,0.0000,0.0000,0.0000,0.0000,0
19727,0.0484,-0.0222,0.3081,-0.0029,-0.0297,-0.0069,0.03,0.51,-4.16,0,3.320,-2.014,21.753,3.521,0.001,-0.011,1.001,0.000,0.000,0.000,0.3070,3,3,-0.74,0.73,-6.51,0.0626,0.0073,0.3090,-0.0004,-0.0423,0.3000,0.2638,-0.14,3.35,124.87,0.0000,0.0000,0.6930,1.8080,2.3900,4,0.0000,0.0000,0.0000,0.0000,0.0000,0
19778,0.0454,-0.0293,0.3073,-0.0140,-0.0437,-0.0081,0.05,-0.67,-3.95,0,3.320,-4.050,4.938,6.521,0.006,-0.004,0.996,0.000,0.000,0.000,0.3110,1,0,-0.79,-0.36,-6.32,0.0520,-0.0010,0.3081,-0.0004,-0.0423,0.3000,0.2641,-1.29,2.61,118.39,0.0000,0.0000,0.6930,1.8080,2.3900,4,0.0000,0.0000,0.0000,0.0000,0.0000,0
19829,0.0429,-0.0398,0.3088,-0.0132,-0.0641,0.0006,-0.09,-0.96,-3.61,0,3.320,-13.860,5.130,7.129,0.004,-0.007,1.005,0.000,0.000,0.000,0.3030,1,1,-0.99,-0.63,-6.01,0.0517,-0.0041,0.3087,-0.0004,-0.0423,0.3000,0.2628,-2.99,2.49,108.32,1.0860,0.1740,0.6950,1.8070,2.3930,4,0.0000,0.0000,0.0000,0.0000,0.0000,0
19880,0.0416,-0.0455,0.3060,-0.0071,-0.0703,-0.0103,-0.61,-0.96,-3.28,0,3.320,-0.683,-21.187,5.672,0.006,-0.009,1.007,0.000,0.000,0.000,0.3050,0,0,-1.68,-0.89,-5.64,0.0483,-0.0069,0.3068,-0.0004,-0.0423,0.3000,0.2645,-3.67,2.67,98.47,1.0860,0.1740,0.6950,1.8070,2.3930,4,0.0000,0.0000,0.0000,0.0000,0.0000,0
19930,0.0400,-0.0490,0.3052,-0.0026,-0.0662,-0.0089,-0.67,0.05,-2.99,0,3.315,-1.454,-21.951,4.269,0.002,-0.011,1.005,0.000,0.000,0.000,0.3040,-2,-2,-1.71,0.18,-5.32,0.0468,-0.0082,0.3061,-0.0004,-0.0423,0.3000,0.2646,-3.72,2.76,89.74,1.0620,0.1730,0.6990,1.8210,2.4010,4,0.0000,0.0000,0.0000,0.0000,0.0000,0
19982,0.0415,-0.0461,0.3043,0.0014,-0.0454,-0.0090,-1.00,1.00,-2.75,0,3.315,-3.690,20.138,2.679,0.002,-0.010,1.006,0.000,0.000,0.000,0.3060,0,2,-1.86,1.20,-5.12,0.0598,0.0016,0.3055,-0.0004,-0.0423,0.3000,0.2647,-2.55,3.06,82.48,1.0620,0.1730,0.6990,1.8210,2.4010,4,0.0000,0.0000,0.0000,0.0000,0.0000,0
20033,0.0427,-0.0450,0.3048,-0.0031,-0.0291,-0.0038,-1.22,0.11,-2.63,0,3.315,6.349,24.356,2.717,0.006,-0.009,1.011,0.000,0.000,0.000,0.3030,1,2,-2.04,0.18,-5.03,0.0551,0.0024,0.3058,-0.0004,-0.0423,0.3000,0.2641,-1.71,2.94,78.76,0.0000,0.1640,0.6960,1.8160,2.4030,4,0.0000,0.0000,0.0000,0.0000,0.0000,0
20083,0.0415,-0.0477,0.3039,-0.0061,-0.0227,-0.0026,-0.92,-1.06,-2.50,0,3.315,1.669,0.371,4.684,-0.000,-0.014,1.009,0.000,0.000,0.000,0.3030,0,0,-1.69,-1.04,-4.96,0.0500,0.0007,0.3055,-0.0004,-0.0423,0.3000,0.2641,-1.61,2.72,75.10,0.0000,0.1640,0.6960,1.8160,2.4030,4,0.0000,0.0000,0.0000,0.0000,0.0000,0
20135,0.0403,-0.0452,0.3034,0.0003,-0.0064,-0.0001,-0.93,-1.07,-2.26,0,3.315,3.561,-3.335,5.242,0.001,-0.007,1.016,0.000,0.000,0.000,0.3030,-2,-1,-1.60,-1.07,-4.73,0.0493,0.0025,0.3051,-0.0004,-0.0423,0.3000,0.2639,-0.66,2.93,67.74,0.0000,0.1680,0.7000,1.8270,2.4010,4,0.0000,0.0000,0.0000,0.0000,0.0000,0
20185,0.0403,-0.0493,0.3033,0.0093,-0.0085,0.0044,-0.78,-0.91,-2.03,0,3.315,4.584,3.317,5.998,-0.001,-0.016,1.010,0.000,0.000,0.000,0.3040,-3,0,-1.43,-0.93,-4.43,0.0541,0.0063,0.3051,-0.0004,-0.0423,0.3000,0.2635,-1.05,3.36,60.79,0.0000,0.1680,0.7000,1.8270,2.4010,4,0.0000,0.0000,0.0000,0.0000,0.0000,0
20236,0.0420,-0.0497,0.3040,0.0200,-0.0032,0.0109,-0.48,-1.08,-1.75,0,3.315,-1.201,4.598,3.830,0.002,-0.014,1.011,0.000,0.000,0.000,0.3010,0,0,-1.22,-1.10,-4.18,0.0551,0.0134,0.3055,-0.0004,-0.0423,0.3000,0.2626,-0.84,4.00,52.37,1.0600,0.1620,0.6940,1.8290,2.3950,4,0.0000,0.0000,0.0000,0.0000,0.0000,0
20288,0.0425,-0.0478,0.3031,0.0278,0.0052,0.0084,-0.48,-1.25,-1.55,0,3.315,5.745,-26.712,2.069,0.004,-0.010,1.010,0.000,0.000,0.000,0.3000,0,-5,-1.28,-1.34,-3.99,0.0568,0.0172,0.3051,-0.0004,-0.0423,0.3000,0.2631,-0.30,4.38,46.57,1.0600,0.1620,0.6940,1.8290,2.3950,4,0.0000,0.0000,0.0000,0.0000,0.0000,0
20339,0.0418,-0.0473,0.3020,0.0319,0.0093,0.0054,-0.31,-0.27,-1.44,0,3.326,5.910,-30.789,0.547,-0.006,-0.012,1.006,0.000,0.000,0.000,0.3090,1,-4,-0.91,-0.04,-3.63,0.0701,0.0104,0.3048,-0.0004,-0.0423,0.3000,0.2636,-0.08,4.52,43.30,1.0580,0.1600,0.6900,1.8330,2.3960,4,0.0000,0.0000,0.0000,0.0000,0.0000,0
20389,0.0442,-0.0477,0.3057,0.0328,0.0090,0.0234,0.02,1.37,-1.40,0,3.320,5.501,19.469,-0.543,-0.007,-0.015,1.003,0.000,0.000,0.000,0.3060,0,2,-0.59,1.50,-3.51,0.0789,0.0089,0.3071,-0.0004,-0.0423,0.3000,0.2610,-0.12,4.78,41.88,1.0580,0.1600,0.6900,1.8330,2.3960,4,0.0000,0.0000,0.0000,0.0000,0.0000,0
20441,0.0469,-0.0486,0.3068,0.0239,0.0059,0.0246,0.19,0.62,-1.41,0,3.326,-4.017,25.183,-0.089,0.001,-0.011,0.997,0.000,0.000,0.000,0.3040,-2,2,-0.30,0.58,-3.55,0.0766,0.0097,0.3085,-0.0004,-0.0423,0.3000,0.2606,-0.33,4.56,42.39,0.0000,0.1530,0.6880,1.8320,2.3950,4,0.0000,0.0000,0.0000,0.0000,0.0000,0
20492,0.0472,-0.0471,0.3066,0.0166,0.0080,0.0165,-0.05,-0.36,-1.41,0,3.315,-3.683,10.767,1.863,-0.002,-0.015,0.991,0.000,0.000,0.000,0.3030,-2,0,-0.54,-0.68,-3.57,0.0731,0.0146,0.3087,-0.0004,-0.0423,0.3000,0.2615,-0.12,4.22,42.44,0.0000,0.1530,0.6880,1.8320,2.3950,4,0.0000,0.0000,0.0000,0.0000,0.0000,0
20543,0.0461,-0.0496,0.3054,0.0160,0.0016,0.0042,-0.31,-0.89,-1.36,0,3.320,7.340,0.888,2.593,0.005,-0.011,1.004,0.000,0.000,0.000,0.3050,0,0,-0.75,-1.22,-3.50,0.0739,0.0197,0.3078,-0.0004,-0.0423,0.3000,0.2631,-0.59,4.09,40.81,1.0690,0.1630,0.6900,1.8370,2.3950,4,0.0000,0.0000,0.0000,0.0000,0.0000,0
20594,0.0464,-0.0480,0.3054,0.0221,0.0069,0.0031,-0.06,-0.94,-1.23,0,3.315,6.746,5.904,0.187,0.006,-0.012,1.011,0.000,0.000,0.000,0.3050,-2,0,-0.37,-1.27,-3.37,0.0761,0.0220,0.3076,-0.0004,-0.0423,0.3000,0.2632,-0.24,4.40,37.04,1.0690,0.1630,0.6900,1.8370,2.3950,4,0.0000,0.0000,0.0000,0.0000,0.0000,0
20645,0.0465,-0.0491,0.3054,0.0274,0.0029,0.0060,0.35,-1.09,-1.23,0,3.320,-0.074,-4.591,-0.100,0.002,-0.016,1.016,0.000,0.000,0.000,0.3090,-5,0,-0.04,-1.52,-3.35,0.0722,0.0263,0.3080,-0.0004,-0.0423,0.3000,0.2629,-0.50,4.65,37.02,1.0610,0.1620,0.6860,1.8370,2.3970,4,0.0000,0.0000,0.0000,0.0000,0.0000,0
20696,0.0476,-0.0497,0.3076,0.0357,-0.0026,0.0207,0.42,-1.08,-1.29,0,3.315,0.111,-16.341,-1.592,0.006,-0.018,1.018,0.000,0.000,0.000,0.3060,-3,-6,-0.10,-1.28,-3.49,0.0742,0.0371,0.3094,-0.0004,-0.0423,0.3000,0.2609,-0.82,5.16,38.57,1.0610,0.1620,0.6860,1.8370,2.3970,4,0.0000,0.0000,0.0000,0.0000,0.0000,0
20747,0.0491,-0.0486,0.3080,0.0434,-0.0037,0.0251,0.45,-0.51,-1.36,0,3.326,-3.158,-42.579,-0.800,-0.000,-0.014,1.011,0.000,0.000,0.000,0.3080,1,-4,-0.13,-0.53,-3.74,0.0894,0.0437,0.3097,-0.0004,-0.0423,0.3000,0.2603,-0.78,5.64,40.74,1.0600,0.0000,0.6890,1.8360,2.3900,4,0.0000,0.0000,0.0000,0.0000,0.0000,0
20798,0.0505,-0.0471,0.3093,0.0420,-0.0036,0.0308,0.34,1.39,-1.44,0,3.320,-3.946,0.998,-4.016,-0.002,-0.011,0.995,0.000,0.000,0.000,0.3080,0,1,-0.25,1.60,-3.73,0.0996,0.0418,0.3111,-0.0004,-0.0423,0.3000,0.2595,-0.68,5.70,43.27,1.0600,0.0000,0.6890,1.8360,2.3900,4,0.0000,0.0000,0.0000,0.0000,0.0000,0
20849,0.0544,-0.0482,0.3100,0.0334,-0.0081,0.0262,0.19,1.77,-1.57,0,3.326,-2.341,24.659,-3.757,0.004,-0.013,0.993,0.000,0.000,0.000,0.3080,1,3,-0.44,1.60,-3.84,0.0978,0.0425,0.3120,-0.0004,-0.0423,0.3000,0.2598,-0.97,5.56,47.04,1.1750,0.1510,0.6910,1.8460,2.3870,4,0.0000,0.0000,0.0000,0.0000,0.0000,0
20900,0.0549,-0.0483,0.3101,0.0186,-0.0082,0.0182,0.06,0.58,-1.76,0,3.320,1.490,8.710,-4.641,0.003,-0.005,0.990,0.000,0.000,0.000,0.3110,0,1,-0.52,0.42,-3.93,0.0899,0.0409,0.3124,-0.0004,-0.0423,0.3000,0.2607,-0.98,4.88,52.67,1.1750,0.1510,0.6910,1.8460,2.3870,4,0.0000,0.0000,0.0000,0.0000,0.0000,0
20951,0.0525,-0.0485,0.3113,0.0073,-0.0080,0.0165,-0.00,0.02,-1.98,0,3.326,0.182,4.765,-3.365,0.002,-0.011,0.988,0.000,0.000,0.000,0.3140,0,0,-0.44,0.00,-4.14,0.0873,0.0413,0.3129,-0.0004,-0.0423,0.3000,0.2606,-0.99,4.18,59.54,0.0000,0.0000,0.6920,1.8310,2.3910,4,0.0000,0.0000,0.0000,0.0000,0.0000,0
21003,0.0515,-0.0500,0.3133,0.0041,-0.0106,0.0174,0.04,-0.16,-2.17,0,3.315,-2.043,8.121,-2.617,0.005,-0.012,0.992,0.000,0.000,0.000,0.3120,-1,1,-0.43,-0.24,-4.31,0.0879,0.0425,0.3139,-0.0004,-0.0423,0.3000,0.2602,-1.21,3.96,65.07,0.0000,0.0000,0.6920,1.8310,2.3910,4,0.0000,0.0000,0.0000,0.0000,0.0000,0
