time_ms,pos_x,pos_y,pos_z,vel_x,vel_y,vel_z,roll,pitch,yaw,thrust,vbat,gyro_x,gyro_y,gyro_z,acc_x,acc_y,acc_z,rate_roll,rate_pitch,rate_yaw,range_z,flow_dx,flow_dy,mekf_roll,mekf_pitch,mekf_yaw,mekf_x,mekf_y,mekf_z,our_ref_x,our_ref_y,our_ref_z,our_thrust,our_roll_cmd,our_pitch_cmd,our_yaw_rate_cmd,multi_front,multi_back,multi_left,multi_right,multi_up,ai_feat_count,vo_x,vo_y,vo_sigma,pg_x,pg_y,lc_count
0,0.5476,1.1092,0.0091,-0.0043,0.0060,-0.0029,-0.42,0.61,-179.05,0,4.128,-0.307,0.077,-0.027,0.013,-0.007,1.001,0.000,0.000,0.000,0.0090,-14,-2,0.00,0.00,0.00,0.0000,0.0000,0.0000,0.0000,0.0000,0.0000,0.0000,0.00,0.00,0.00,1.5830,0.3180,1.3330,0.3040,2.7050,0,0.0000,0.0000,0.0000,0.0000,0.0000,0
100,0.5478,1.1094,0.0095,-0.0026,0.0059,-0.0002,-0.38,0.66,-178.47,0,4.128,-0.085,0.038,0.021,0.013,-0.006,1.000,0.000,0.000,0.000,0.0100,1,-1,0.00,0.00,0.00,0.0000,0.0000,0.0000,0.0000,0.0000,0.0000,0.0000,0.00,0.00,0.00,1.5830,0.3180,1.3330,0.3040,2.7050,0,0.0000,0.0000,0.0000,0.0000,0.0000,0
201,0.5482,1.1089,0.0093,-0.0002,0.0022,-0.0008,-0.42,0.61,-177.90,0,4.128,-0.089,0.014,0.068,0.011,-0.006,1.001,0.000,0.000,0.000,0.0100,2,-3,0.00,0.00,0.00,0.0000,0.0000,0.0000,0.0000,0.0000,0.0000,0.0000,0.00,0.00,0.00,1.5830,0.3110,1.3350,0.3040,2.7020,0,0.0000,0.0000,0.0000,0.0000,0.0000,0
302,0.5482,1.1094,0.0097,0.0007,0.0038,0.0014,-0.39,0.63,-177.33,0,4.133,-0.038,-0.013,-0.472,0.011,-0.008,1.000,0.000,0.000,0.000,0.0120,1,-1,0.00,0.00,0.00,0.0000,0.0000,0.0000,0.0000,0.0000,0.0000,0.0000,0.00,0.00,0.00,1.5760,0.3110,1.3350,0.3040,2.7020,0,0.0000,0.0000,0.0000,0.0000,0.0000,0
403,0.5478,1.1092,0.0104,-0.0008,0.0016,0.0043,-0.45,0.63,-176.76,0,4.128,0.056,-0.119,0.103,0.012,-0.004,0.997,0.000,0.000,0.000,0.0110,-6,0,0.00,0.00,0.00,0.0000,0.0000,0.0000,0.0000,0.0000,0.0000,0.0000,0.00,0.00,0.00,1.5760,0.3160,1.3340,0.3000,2.7080,0,0.0000,0.0000,0.0000,0.0000,0.0000,0
505,0.5465,1.1086,0.0114,-0.0067,-0.0021,0.0070,-0.29,0.59,-176.18,0,4.128,-0.148,0.179,0.078,0.011,-0.008,1.001,0.000,0.000,0.000,0.0130,0,-1,0.00,0.00,0.00,0.0000,0.0000,0.0000,0.0000,0.0000,0.0000,0.0000,0.00,0.00,0.00,1.5850,0.3160,1.3340,0.3000,2.7080,0,0.0000,0.0000,0.0000,0.0000,0.0000,0
606,0.5472,1.1113,0.0116,-0.0017,0.0103,0.0067,-0.34,0.63,-175.61,0,4.128,-0.051,-0.128,0.347,0.012,-0.005,1.000,0.000,0.000,0.000,0.0100,1,-8,0.00,0.00,0.00,0.0000,0.0000,0.0000,0.0000,0.0000,0.0000,0.0000,0.00,0.00,0.00,1.5850,0.3170,1.3320,0.2960,2.7040,0,0.0000,0.0000,0.0000,0.0000,0.0000,0
707,0.5473,1.1110,0.0127,-0.0004,0.0060,0.0106,-0.34,0.57,-175.03,0,4.128,-0.250,-0.116,0.146,0.011,-0.007,1.003,0.000,0.000,0.000,0.0110,-1,5,0.00,0.00,0.00,0.0000,0.0000,0.0000,0.0000,0.0000,0.0000,0.0000,0.00,0.00,0.00,1.5740,0.3170,1.3320,0.2960,2.7040,0,0.0000,0.0000,0.0000,0.0000,0.0000,0
808,0.5437,1.1141,0.0118,-0.0169,0.0190,0.0048,-0.25,0.57,-174.46,0,4.133,-0.010,0.191,0.084,0.013,-0.006,0.999,0.000,0.000,0.000,0.0120,-3,4,0.00,0.00,0.00,0.0000,0.0000,0.0000,0.0000,0.0000,0.0000,0.0000,0.00,0.00,0.00,1.5740,0.3030,1.3370,0.3000,2.7060,0,0.0000,0.0000,0.0000,0.0000,0.0000,0
909,0.5443,1.1147,0.0117,-0.0117,0.0176,0.0035,-0.23,0.57,-173.89,0,4.128,-0.167,-0.150,-0.178,0.011,-0.005,1.000,0.000,0.000,0.000,0.0100,-5,1,0.00,0.00,0.00,0.0000,0.0000,0.0000,0.0000,0.0000,0.0000,0.0000,0.00,0.00,0.00,1.5840,0.3030,1.3370,0.3000,2.7060,0,0.0000,0.0000,0.0000,0.0000,0.0000,0
1011,0.5443,1.1155,0.0121,-0.0098,0.0172,0.0050,-0.39,0.64,-173.32,0,4.128,-0.434,0.043,0.057,0.014,-0.007,1.001,0.000,0.000,0.000,0.0110,-3,0,0.00,0.00,0.00,0.0000,0.0000,0.0000,0.0000,0.0000,0.0000,0.0000,0.00,0.00,0.00,1.5840,0.3070,1.3350,0.3090,2.7090,0,0.0000,0.0000,0.0000,0.0000,0.0000,0
1112,0.5445,1.1145,0.0114,-0.0079,0.0094,0.0012,-0.39,0.61,-172.74,0,4.128,-0.261,0.237,0.129,0.011,-0.005,1.000,0.000,0.000,0.000,0.0110,-6,0,0.00,0.00,0.00,0.0000,0.0000,0.0000,0.0000,0.0000,0.0000,0.0000,0.00,0.00,0.00,1.5840,0.3070,1.3350,0.3090,2.7090,0,0.0000,0.0000,0.0000,0.0000,0.0000,0
1213,0.5448,1.1156,0.0112,-0.0044,0.0124,0.0009,-0.40,0.63,-172.17,0,4.128,-0.249,0.074,0.035,0.010,-0.006,0.999,0.000,0.000,0.000,0.0100,0,0,0.00,0.00,0.00,0.0000,0.0000,0.0000,0.0000,0.0000,0.0000,0.0000,0.00,0.00,0.00,1.5840,0.2950,1.3350,0.2990,2.7070,0,0.0000,0.0000,0.0000,0.0000,0.0000,0
1314,0.5448,1.1138,0.0112,-0.0029,0.0007,0.0010,-0.43,0.63,-171.60,0,4.128,0.039,0.136,-0.162,0.011,-0.005,0.999,0.000,0.000,0.000,0.0110,-1,0,0.00,0.00,0.00,0.0000,0.0000,0.0000,0.0000,0.0000,0.0000,0.0000,0.00,0.00,0.00,1.5840,0.2950,1.3350,0.2990,2.7070,0,0.0000,0.0000,0.0000,0.0000,0.0000,0
1416,0.5449,1.1145,0.0106,-0.0010,0.0028,-0.0016,-0.37,0.64,-171.03,0,4.133,-0.046,0.096,-0.222,0.014,-0.004,1.001,0.000,0.000,0.000,0.0100,-4,0,0.00,0.00,0.00,0.0000,0.0000,0.0000,0.0000,0.0000,0.0000,0.0000,0.00,0.00,0.00,1.5840,0.3030,1.3340,0.3010,2.7040,0,0.0000,0.0000,0.0000,0.0000,0.0000,0
1517,0.5444,1.1146,0.0108,-0.0036,0.0012,-0.0001,-0.33,0.61,-170.46,0,4.128,0.131,0.196,0.007,0.008,-0.005,1.002,0.000,0.000,0.000,0.0100,-1,3,0.00,0.00,0.00,0.0000,0.0000,0.0000,0.0000,0.0000,0.0000,0.0000,0.00,0.00,0.00,1.5880,0.3030,1.3340,0.3010,2.7040,0,0.0000,0.0000,0.0000,0.0000,0.0000,0
1569,0.5441,1.1153,0.0105,-0.0041,0.0032,-0.0007,-0.39,0.64,-169.89,0,4.128,0.004,0.060,0.018,0.011,-0.005,1.000,0.000,0.000,0.000,0.0100,-2,0,0.00,0.00,0.00,0.0000,0.0000,0.0000,0.0000,0.0000,0.0000,0.0000,0.00,0.00,0.00,1.5880,0.2970,1.3370,0.3020,2.7020,0,0.0000,0.0000,0.0000,0.0000,0.0000,0
1620,0.5446,1.1151,0.0102,-0.0013,0.0011,-0.0012,-0.30,0.60,-169.32,0,4.128,-0.035,-0.262,-0.262,0.010,-0.007,1.000,0.000,0.000,0.000,0.0130,4,-1,0.00,0.00,0.00,0.0000,0.0000,0.0000,0.0000,0.0000,0.0000,0.0000,0.00,0.00,0.00,1.5850,0.2970,1.3370,0.3020,2.7020,0,0.0000,0.0000,0.0000,0.0000,0.0000,0
1671,0.5434,1.1227,0.0100,-0.0062,0.0360,-0.0015,-0.21,0.67,-168.75,0,4.128,-0.219,0.021,0.180,0.009,-0.005,1.001,0.000,0.000,0.000,0.0090,-6,3,0.00,0.00,0.00,0.0000,0.0000,0.0000,0.0000,0.0000,0.0000,0.0000,0.00,0.00,0.00,1.5850,0.3030,1.3340,0.3020,2.7060,0,0.0000,0.0000,0.0000,0.0000,0.0000,0
1722,0.5425,1.1229,0.0116,-0.0094,0.0289,0.0051,-0.28,0.66,-168.18,0,4.128,0.074,-0.088,0.021,0.010,-0.006,1.002,0.000,0.000,0.000,0.0140,-2,-3,0.00,0.00,0.00,0.0000,0.0000,0.0000,0.0000,0.0000,0.0000,0.0000,0.00,0.00,0.00,1.5910,0.3030,1.3340,0.3020,2.7060,0,0.0000,0.0000,0.0000,0.0000,0.0000,0
1773,0.5433,1.1221,0.0106,-0.0039,0.0189,0.0001,-0.27,0.63,-167.61,0,4.128,0.080,0.266,-0.063,0.011,-0.004,1.001,0.000,0.000,0.000,0.0110,-20,1,0.00,0.00,0.00,0.0000,0.0000,0.0000,0.0000,0.0000,0.0000,0.0000,0.00,0.00,0.00,1.5910,0.3010,1.3440,0.3060,2.7010,0,0.0000,0.0000,0.0000,0.0000,0.0000,0
1824,0.5424,1.1224,0.0124,-0.0076,0.0144,0.0077,-0.51,0.56,-167.04,0,4.128,-0.227,-0.027,0.094,0.011,-0.005,1.001,0.000,0.000,0.000,0.0140,0,-1,0.00,0.00,0.00,0.0000,0.0000,0.0000,0.0000,0.0000,0.0000,0.0000,0.00,0.00,0.00,1.5860,0.3010,1.3440,0.3060,2.7010,0,0.0000,0.0000,0.0000,0.0000,0.0000,0
1875,0.5419,1.1224,0.0121,-0.0091,0.0126,0.0052,-0.31,0.57,-166.47,0,4.128,0.200,0.087,-0.120,0.013,-0.006,1.002,0.000,0.000,0.000,0.0100,-24,0,0.00,0.00,0.00,0.0000,0.0000,0.0000,0.0000,0.0000,0.0000,0.0000,0.00,0.00,0.00,1.5860,0.2890,1.3360,0.3110,2.7040,0,0.0000,0.0000,0.0000,0.0000,0.0000,0
1927,0.5408,1.1259,0.0133,-0.0128,0.0264,0.0096,-0.53,0.57,-165.89,0,4.128,-0.022,0.028,0.245,0.010,-0.006,1.000,0.000,0.000,0.000,0.0110,-3,1,0.00,0.00,0.00,0.0000,0.0000,0.0000,0.0000,0.0000,0.0000,0.0000,0.00,0.00,0.00,1.5770,0.2890,1.3360,0.3110,2.7040,0,0.0000,0.0000,0.0000,0.0000,0.0000,0
1978,0.5414,1.1210,0.0122,-0.0076,-0.0018,0.0028,-0.46,0.63,-165.32,0,4.128,-0.218,-0.279,-0.175,0.012,-0.005,1.000,0.000,0.000,0.000,0.0080,15,0,0.00,0.00,0.00,0.0000,0.0000,0.0000,0.0000,0.0000,0.0000,0.0000,0.00,0.00,0.00,1.5770,0.2980,1.3390,0.3060,2.7070,0,0.0000,0.0000,0.0000,0.0000,0.0000,0
2028,0.5413,1.1213,0.0118,-0.0065,-0.0010,0.0006,-0.47,0.58,-164.76,0,4.128,-0.093,-0.084,0.040,0.014,-0.005,1.002,0.000,0.000,0.000,0.0130,5,5,0.00,0.00,0.00,0.0000,0.0000,0.0000,0.0000,0.0000,0.0000,0.0000,0.00,0.00,0.00,1.5860,0.2980,1.3390,0.3060,2.7070,0,0.0000,0.0000,0.0000,0.0000,0.0000,0
2079,0.5410,1.1225,0.0099,-0.0074,0.0027,-0.0076,-0.43,0.59,-164.19,0,4.128,-0.022,0.035,0.277,0.010,-0.007,1.001,0.000,0.000,0.000,0.0110,0,-2,0.00,0.00,0.00,0.0000,0.0000,0.0000,0.0000,0.0000,0.0000,0.0000,0.00,0.00,0.00,1.5860,0.2930,1.3370,0.3040,2.7130,0,0.0000,0.0000,0.0000,0.0000,0.0000,0
2131,0.5414,1.1226,0.0111,-0.0039,0.0017,-0.0007,-0.65,0.59,-163.62,0,4.128,0.093,0.004,-0.055,0.013,-0.008,0.999,0.000,0.000,0.000,0.0100,0,1,0.00,0.00,0.00,0.0000,0.0000,0.0000,0.0000,0.0000,0.0000,0.0000,0.00,0.00,0.00,1.5820,0.2930,1.3370,0.3040,2.7130,0,0.0000,0.0000,0.0000,0.0000,0.0000,0
2182,0.5389,1.1242,0.0115,-0.0162,0.0110,0.0011,-0.27,0.59,-163.06,0,4.128,-0.211,0.133,0.151,0.013,-0.007,1.001,0.000,0.000,0.000,0.0100,0,1,0.00,0.00,0.00,0.0000,0.0000,0.0000,0.0000,0.0000,0.0000,0.0000,0.00,0.00,0.00,1.5820,0.2980,1.3380,0.3060,2.7030,0,0.0000,0.0000,0.0000,0.0000,0.0000,0
2232,0.5389,1.1251,0.0109,-0.0141,0.0113,-0.0018,-0.36,0.61,-162.49,0,4.128,-0.039,-0.184,0.121,0.009,-0.006,1.000,0.000,0.000,0.000,0.0130,3,5,0.00,0.00,0.00,0.0000,0.0000,0.0000,0.0000,0.0000,0.0000,0.0000,0.00,0.00,0.00,1.5820,0.2980,1.3380,0.3060,2.7030,0,0.0000,0.0000,0.0000,0.0000,0.0000,0
2283,0.5385,1.1247,0.0114,-0.0135,0.0061,0.0015,-0.34,0.60,-161.93,0,4.128,-0.093,-0.041,-0.081,0.013,-0.005,1.002,0.000,0.000,0.000,0.0130,-6,0,0.00,0.00,0.00,0.0000,0.0000,0.0000,0.0000,0.0000,0.0000,0.0000,0.00,0.00,0.00,1.5820,0.2920,1.3350,0.2990,2.7070,0,0.0000,0.0000,0.0000,0.0000,0.0000,0
2335,0.5387,1.1253,0.0123,-0.0098,0.0068,0.0058,-0.46,0.58,-161.36,0,4.128,0.247,-0.026,-0.171,0.008,-0.005,1.001,0.000,0.000,0.000,0.0120,-7,0,0.00,0.00,0.00,0.0000,0.0000,0.0000,0.0000,0.0000,0.0000,0.0000,0.00,0.00,0.00,1.5770,0.2920,1.3350,0.2990,2.7070,0,0.0000,0.0000,0.0000,0.0000,0.0000,0
2387,0.5392,1.1246,0.0120,-0.0050,0.0010,0.0031,-0.37,0.59,-160.80,0,4.128,0.029,0.169,0.039,0.011,-0.006,1.001,0.000,0.000,0.000,0.0100,0,3,0.00,0.00,0.00,0.0000,0.0000,0.0000,0.0000,0.0000,0.0000,0.0000,0.00,0.00,0.00,1.5770,0.2940,1.3340,0.3040,2.7090,0,0.0000,0.0000,0.0000,0.0000,0.0000,0
2437,0.5383,1.1250,0.0122,-0.0086,0.0011,0.0039,-0.38,0.60,-160.24,0,4.128,-0.343,-0.080,0.132,0.011,-0.005,1.002,0.000,0.000,0.000,0.0120,1,-4,0.00,0.00,0.00,0.0000,0.0000,0.0000,0.0000,0.0000,0.0000,0.0000,0.00,0.00,0.00,1.5910,0.2940,1.3340,0.3040,2.7090,0,0.0000,0.0000,0.0000,0.0000,0.0000,0
2488,0.5391,1.1255,0.0113,-0.0025,0.0015,-0.0001,-0.42,0.62,-159.67,0,4.128,0.200,0.128,-0.213,0.012,-0.008,0.999,0.000,0.000,0.000,0.0120,3,-2,0.00,0.00,0.00,0.0000,0.0000,0.0000,0.0000,0.0000,0.0000,0.0000,0.00,0.00,0.00,1.5910,0.2810,1.3370,0.3080,2.7020,0,0.0000,0.0000,0.0000,0.0000,0.0000,0
2539,0.5390,1.1245,0.0117,-0.0020,-0.0049,0.0022,-0.42,0.55,-159.10,0,4.128,-0.152,0.105,-0.380,0.012,-0.005,1.000,0.000,0.000,0.000,0.0120,7,0,0.00,0.00,0.00,0.0000,0.0000,0.0000,0.0000,0.0000,0.0000,0.0000,0.00,0.00,0.00,1.5820,0.2810,1.3370,0.3080,2.7020,0,0.0000,0.0000,0.0000,0.0000,0.0000,0
2591,0.5391,1.1245,0.0120,-0.0004,-0.0060,0.0030,-0.43,0.66,-158.54,0,4.128,0.138,-0.210,-0.062,0.011,-0.006,1.001,0.000,0.000,0.000,0.0110,3,3,0.00,0.00,0.00,0.0000,0.0000,0.0000,0.0000,0.0000,0.0000,0.0000,0.00,0.00,0.00,1.5820,0.2910,1.3360,0.3020,2.7070,0,0.0000,0.0000,0.0000,0.0000,0.0000,0
2642,0.5393,1.1252,0.0122,0.0014,-0.0027,0.0032,-0.53,0.65,-157.98,0,4.123,-0.314,0.189,0.125,0.009,-0.006,0.999,0.000,0.000,0.000,0.0080,-2,-8,0.00,0.00,0.00,0.0000,0.0000,0.0000,0.0000,0.0000,0.0000,0.0000,0.00,0.00,0.00,1.5890,0.2910,1.3360,0.3020,2.7070,0,0.0000,0.0000,0.0000,0.0000,0.0000,0
2693,0.5398,1.1257,0.0118,0.0043,-0.0004,0.0010,-0.52,0.57,-157.42,0,4.128,-0.010,0.105,0.269,0.015,-0.008,0.999,0.000,0.000,0.000,0.0130,0,-5,0.00,0.00,0.00,0.0000,0.0000,0.0000,0.0000,0.0000,0.0000,0.0000,0.00,0.00,0.00,1.5890,0.2940,1.3300,0.3030,2.7040,0,0.0000,0.0000,0.0000,0.0000,0.0000,0
2744,0.5393,1.1250,0.0099,0.0017,-0.0038,-0.0064,-0.61,0.57,-156.85,0,4.128,-0.207,-0.079,-0.048,0.011,-0.002,1.004,0.000,0.000,0.000,0.0120,-6,-5,0.00,0.00,0.00,0.0000,0.0000,0.0000,0.0000,0.0000,0.0000,0.0000,0.00,0.00,0.00,1.5840,0.2940,1.3300,0.3030,2.7040,0,0.0000,0.0000,0.0000,0.0000,0.0000,0
2795,0.5427,1.1194,0.0111,0.0191,-0.0310,0.0007,-0.69,0.58,-156.29,0,4.128,-0.127,-0.067,0.367,0.010,-0.007,1.001,0.000,0.000,0.000,0.0140,-6,0,0.00,0.00,0.00,0.0000,0.0000,0.0000,0.0000,0.0000,0.0000,0.0000,0.00,0.00,0.00,1.5840,0.2920,1.3330,0.2970,2.7100,0,0.0000,0.0000,0.0000,0.0000,0.0000,0
2846,0.5411,1.1185,0.0118,0.0086,-0.0303,0.0038,-0.70,0.58,-155.74,0,4.128,0.007,0.053,-0.142,0.011,-0.007,1.000,0.000,0.000,0.000,0.0120,2,1,0.00,0.00,0.00,0.0000,0.0000,0.0000,0.0000,0.0000,0.0000,0.0000,0.00,0.00,0.00,1.5800,0.2920,1.3330,0.2970,2.7100,0,0.0000,0.0000,0.0000,0.0000,0.0000,0
2897,0.5418,1.1186,0.0133,0.0103,-0.0237,0.0099,-0.56,0.60,-155.18,0,4.128,0.053,0.008,0.019,0.009,-0.005,0.997,0.000,0.000,0.000,0.0120,1,3,0.00,0.00,0.00,0.0000,0.0000,0.0000,0.0000,0.0000,0.0000,0.0000,0.00,0.00,0.00,1.5800,0.2850,1.3320,0.3010,2.7040,0,0.0000,0.0000,0.0000,0.0000,0.0000,0
2948,0.5413,1.1188,0.0131,0.0060,-0.0199,0.0072,-0.49,0.61,-154.63,0,4.123,-0.045,0.089,0.003,0.012,-0.004,0.999,0.000,0.000,0.000,0.0120,-9,0,0.00,0.00,0.00,0.0000,0.0000,0.0000,0.0000,0.0000,0.0000,0.0000,0.00,0.00,0.00,1.5780,0.2850,1.3320,0.3010,2.7040,0,0.0000,0.0000,0.0000,0.0000,0.0000,0
3000,0.5415,1.1192,0.0114,0.0063,-0.0145,-0.0009,-0.53,0.62,-154.07,0,4.128,0.182,0.066,-0.143,0.010,-0.006,1.000,0.000,0.000,0.000,0.0110,-25,1,0.00,0.00,0.00,0.0000,0.0000,0.0000,0.0000,0.0000,0.0000,0.0000,0.00,0.00,0.00,1.5780,0.2950,1.3340,0.3040,2.7020,0,0.0000,0.0000,0.0000,0.0000,0.0000,0
3050,0.5417,1.1194,0.0117,0.0060,-0.0107,0.0014,-0.76,0.60,-153.51,0,4.128,0.046,-0.132,-0.053,0.010,-0.006,1.000,0.000,0.000,0.000,0.0140,-2,-3,0.00,0.00,0.00,0.0000,0.0000,0.0000,0.0000,0.0000,0.0000,0.0000,0.00,0.00,0.00,1.5840,0.2950,1.3340,0.3040,2.7020,0,0.0000,0.0000,0.0000,0.0000,0.0000,0
3102,0.5419,1.1111,0.0114,0.0050,-0.0479,-0.0009,-0.71,0.48,-152.95,0,4.128,0.039,0.276,0.065,0.008,-0.006,1.001,0.000,0.000,0.000,0.0110,3,-2,0.00,0.00,0.00,0.0000,0.0000,0.0000,0.0000,0.0000,0.0000,0.0000,0.00,0.00,0.00,1.5840,0.2960,1.3340,0.3040,2.7020,0,0.0000,0.0000,0.0000,0.0000,0.0000,0
3153,0.5418,1.1110,0.0128,0.0042,-0.0401,0.0059,-0.44,0.45,-152.39,0,4.123,-0.117,-0.056,0.014,0.012,-0.004,0.999,0.000,0.000,0.000,0.0120,7,4,0.00,0.00,0.00,0.0000,0.0000,0.0000,0.0000,0.0000,0.0000,0.0000,0.00,0.00,0.00,1.5910,0.2960,1.3340,0.3040,2.7020,0,0.0000,0.0000,0.0000,0.0000,0.0000,0
3204,0.5427,1.1099,0.0123,0.0086,-0.0388,0.0028,-0.55,0.52,-151.84,0,4.128,0.039,0.210,0.135,0.011,-0.006,1.002,0.000,0.000,0.000,0.0130,-2,-3,0.00,0.00,0.00,0.0000,0.0000,0.0000,0.0000,0.0000,0.0000,0.0000,0.00,0.00,0.00,1.5910,0.2940,1.3360,0.3020,2.7000,0,0.0000,0.0000,0.0000,0.0000,0.0000,0
3256,0.5414,1.1105,0.0124,0.0009,-0.0306,0.0027,-0.62,0.52,-151.28,0,4.123,0.214,0.191,-0.102,0.012,-0.006,0.999,0.000,0.000,0.000,0.0110,-2,-1,0.00,0.00,0.00,0.0000,0.0000,0.0000,0.0000,0.0000,0.0000,0.0000,0.00,0.00,0.00,1.5880,0.2940,1.3360,0.3020,2.7000,0,0.0000,0.0000,0.0000,0.0000,0.0000,0
3306,0.5422,1.1127,0.0130,0.0042,-0.0120,0.0059,-0.41,0.60,-150.73,0,4.128,-0.257,-0.179,-0.079,0.011,-0.006,1.001,0.000,0.000,0.000,0.0100,-1,6,0.00,0.00,0.00,0.0000,0.0000,0.0000,0.0000,0.0000,0.0000,0.0000,0.00,0.00,0.00,1.5880,0.3080,1.3350,0.3090,2.7090,0,0.0000,0.0000,0.0000,0.0000,0.0000,0
3357,0.5427,1.1123,0.0123,0.0062,-0.0123,0.0017,-0.38,0.57,-150.17,0,4.123,-0.053,-0.148,-0.143,0.012,-0.005,1.000,0.000,0.000,0.000,0.0110,-2,-1,0.00,0.00,0.00,0.0000,0.0000,0.0000,0.0000,0.0000,0.0000,0.0000,0.00,0.00,0.00,1.5890,0.3080,1.3350,0.3090,2.7090,0,0.0000,0.0000,0.0000,0.0000,0.0000,0
3408,0.5418,1.1121,0.0112,0.0005,-0.0110,-0.0032,-0.36,0.57,-149.62,0,4.128,0.029,0.140,-0.173,0.010,-0.004,1.001,0.000,0.000,0.000,0.0100,-5,-6,0.00,0.00,0.00,0.0000,0.0000,0.0000,0.0000,0.0000,0.0000,0.0000,0.00,0.00,0.00,1.5890,0.3000,1.3340,0.3060,2.7040,0,0.0000,0.0000,0.0000,0.0000,0.0000,0
3459,0.5416,1.1129,0.0110,-0.0009,-0.0043,-0.0031,-0.33,0.67,-149.06,0,4.123,-0.245,-0.116,0.262,0.013,-0.005,1.002,0.000,0.000,0.000,0.0100,-3,0,0.00,0.00,0.00,0.0000,0.0000,0.0000,0.0000,0.0000,0.0000,0.0000,0.00,0.00,0.00,1.5910,0.3000,1.3340,0.3060,2.7040,0,0.0000,0.0000,0.0000,0.0000,0.0000,0
3510,0.5418,1.1128,0.0105,0.0000,-0.0038,-0.0044,-0.34,0.60,-148.51,0,4.128,-0.049,0.096,0.004,0.010,-0.005,1.000,0.000,0.000,0.000,0.0120,14,-6,0.00,0.00,0.00,0.0000,0.0000,0.0000,0.0000,0.0000,0.0000,0.0000,0.00,0.00,0.00,1.5910,0.2960,1.3340,0.3040,2.7000,0,0.0000,0.0000,0.0000,0.0000,0.0000,0
3561,0.5419,1.1124,0.0101,-0.0001,-0.0054,-0.0050,-0.27,0.58,-147.97,0,4.123,-0.210,-0.195,0.098,0.013,-0.006,1.000,0.000,0.000,0.000,0.0080,4,0,0.00,0.00,0.00,0.0000,0.0000,0.0000,0.0000,0.0000,0.0000,0.0000,0.00,0.00,0.00,1.5810,0.2960,1.3340,0.3040,2.7000,0,0.0000,0.0000,0.0000,0.0000,0.0000,0
3613,0.5372,1.1178,0.0108,-0.0247,0.0248,-0.0004,-0.03,0.58,-147.42,0,4.128,-0.143,-0.007,-0.052,0.011,-0.006,1.000,0.000,0.000,0.000,0.0120,-8,-3,0.00,0.00,0.00,0.0000,0.0000,0.0000,0.0000,0.0000,0.0000,0.0000,0.00,0.00,0.00,1.5810,0.0000,1.3360,0.3010,2.7010,0,0.0000,0.0000,0.0000,0.0000,0.0000,0
3663,0.5368,1.1188,0.0094,-0.0227,0.0248,-0.0056,-0.20,0.55,-146.87,0,4.128,-0.023,0.298,0.031,0.013,-0.007,1.000,0.000,0.000,0.000,0.0120,-4,0,0.00,0.00,0.00,0.0000,0.0000,0.0000,0.0000,0.0000,0.0000,0.0000,0.00,0.00,0.00,1.5860,0.0000,1.3360,0.3010,2.7010,0,0.0000,0.0000,0.0000,0.0000,0.0000,0
3714,0.5366,1.1187,0.0106,-0.0199,0.0194,0.0013,-0.25,0.57,-146.32,0,4.128,-0.345,-0.062,0.308,0.012,-0.006,1.003,0.000,0.000,0.000,0.0100,-4,0,0.00,0.00,0.00,0.0000,0.0000,0.0000,0.0000,0.0000,0.0000,0.0000,0.00,0.00,0.00,1.5860,0.2910,1.3360,0.3050,2.6990,0,0.0000,0.0000,0.0000,0.0000,0.0000,0
3766,0.5369,1.1182,0.0115,-0.0148,0.0125,0.0054,-0.30,0.59,-145.77,0,4.123,-0.092,0.067,0.096,0.011,-0.005,1.001,0.000,0.000,0.000,0.0080,-2,2,0.00,0.00,0.00,0.0000,0.0000,0.0000,0.0000,0.0000,0.0000,0.0000,0.00,0.00,0.00,1.5820,0.2910,1.3360,0.3050,2.6990,0,0.0000,0.0000,0.0000,0.0000,0.0000,0
3817,0.5371,1.1172,0.0110,-0.0109,0.0035,0.0017,-0.25,0.60,-145.23,0,4.128,-0.265,-0.255,-0.309,0.010,-0.008,1.000,0.000,0.000,0.000,0.0120,-13,-5,0.00,0.00,0.00,0.0000,0.0000,0.0000,0.0000,0.0000,0.0000,0.0000,0.00,0.00,0.00,1.5820,0.2970,1.3350,0.3080,2.7100,0,0.0000,0.0000,0.0000,0.0000,0.0000,0
3868,0.0000,-0.0000,0.0000,0.0039,-0.0026,0.0000,0.00,0.00,-0.00,0,4.123,-0.152,0.154,-0.124,0.013,-0.007,1.001,0.000,0.000,0.000,0.0100,-2,-1,0.00,0.00,0.00,0.0000,0.0000,0.0000,0.0000,0.0000,0.0000,0.0000,0.00,0.00,0.00,1.5950,0.2970,1.3350,0.3080,2.7100,0,0.0000,0.0000,0.0000,0.0000,0.0000,0
3919,0.0003,-0.0002,0.0121,0.0076,-0.0066,0.0003,-0.14,0.05,-0.00,0,4.128,0.098,-0.022,0.044,0.011,-0.007,1.002,0.000,0.000,0.000,0.0100,0,0,0.00,0.00,0.00,0.0000,0.0000,0.0000,0.0000,0.0000,0.0000,0.0000,0.00,0.00,0.00,1.5950,0.2900,1.3360,0.3040,2.7060,0,0.0000,0.0000,0.0000,0.0000,0.0000,0
3970,0.0004,-0.0008,0.0110,0.0078,-0.0126,-0.0003,0.16,-0.17,-0.00,0,4.128,-0.223,-0.043,-0.016,0.014,-0.005,1.001,0.000,0.000,0.000,0.0110,1,-2,0.00,0.00,0.00,0.0000,0.0000,0.0000,0.0000,0.0000,0.0000,0.0000,0.00,0.00,0.00,1.5860,0.2900,1.3360,0.3040,2.7060,0,0.0000,0.0000,0.0000,0.0000,0.0000,0
4021,0.0002,-0.0007,0.0106,0.0038,-0.0075,-0.0009,0.02,0.23,-0.00,0,4.128,-0.023,0.048,-0.106,0.013,-0.007,1.002,0.000,0.000,0.000,0.0090,3,-3,0.00,0.00,0.00,0.0000,0.0000,0.0000,0.0000,0.0000,0.0000,0.0000,0.00,0.00,0.00,1.5860,0.2880,1.3380,0.3050,2.7070,0,0.0000,0.0000,0.0000,0.0000,0.0000,0
4072,0.0002,-0.0007,0.0108,0.0035,-0.0058,0.0005,-0.49,0.19,-0.01,0,4.123,-0.109,0.229,-0.246,0.010,-0.004,1.001,0.000,0.000,0.000,0.0090,-2,1,0.00,0.00,0.00,0.0000,0.0000,0.0000,0.0000,0.0000,0.0000,0.0000,0.00,0.00,0.00,1.5870,0.2880,1.3380,0.3050,2.7070,0,0.0000,0.0000,0.0000,0.0000,0.0000,0
4124,0.0010,-0.0012,0.0100,0.0095,-0.0096,-0.0029,-0.49,0.27,-0.00,0,4.128,0.114,-0.433,-0.263,0.011,-0.007,1.002,0.000,0.000,0.000,0.0090,-6,-1,0.00,0.00,0.00,0.0000,0.0000,0.0000,0.0000,0.0000,0.0000,0.0000,0.00,0.00,0.00,1.5870,0.2920,1.3350,0.3010,2.7050,0,0.0000,0.0000,0.0000,0.0000,0.0000,0
4175,0.0000,-0.0005,0.0094,0.0003,-0.0037,-0.0049,-0.12,0.43,-0.01,0,4.123,0.024,-0.102,0.094,0.012,-0.006,0.999,0.000,0.000,0.000,0.0090,0,-3,0.00,0.00,0.00,0.0000,0.0000,0.0000,0.0000,0.0000,0.0000,0.0000,0.00,0.00,0.00,1.5860,0.2920,1.3350,0.3010,2.7050,0,0.0000,0.0000,0.0000,0.0000,0.0000,0
4226,0.0005,-0.0014,0.0096,0.0038,-0.0089,-0.0028,-0.44,0.35,-0.01,0,4.128,-0.109,-0.283,-0.053,0.010,-0.004,0.999,0.000,0.000,0.000,0.0110,-6,-6,0.00,0.00,0.00,0.0000,0.0000,0.0000,0.0000,0.0000,0.0000,0.0000,0.00,0.00,0.00,1.5860,0.2900,1.3350,0.3010,2.7010,0,0.0000,0.0000,0.0000,0.0000,0.0000,0
4277,0.0005,-0.0014,0.0092,0.0024,-0.0079,-0.0042,-0.46,0.41,-0.01,0,4.128,-0.023,0.188,0.272,0.012,-0.006,1.000,0.000,0.000,0.000,0.0110,-9,0,0.00,0.00,0.00,0.0000,0.0000,0.0000,0.0000,0.0000,0.0000,0.0000,0.00,0.00,0.00,1.5820,0.2900,1.3350,0.3010,2.7010,0,0.0000,0.0000,0.0000,0.0000,0.0000,0
4328,0.0007,-0.0013,0.0100,0.0028,-0.0065,0.0008,-0.29,0.48,-0.02,0,4.128,-0.163,0.111,0.515,0.012,-0.006,1.000,0.000,0.000,0.000,0.0070,-2,-1,0.00,0.00,0.00,0.0000,0.0000,0.0000,0.0000,0.0000,0.0000,0.0000,0.00,0.00,0.00,1.5820,0.2980,1.3370,0.3060,2.7000,0,0.0000,0.0000,0.0000,0.0000,0.0000,0
4380,0.0006,-0.0007,0.0106,0.0018,-0.0030,0.0032,-0.22,0.55,-0.02,0,4.123,-0.076,0.076,-0.225,0.011,-0.007,1.003,0.000,0.000,0.000,0.0110,1,7,0.00,0.00,0.00,0.0000,0.0000,0.0000,0.0000,0.0000,0.0000,0.0000,0.00,0.00,0.00,1.5850,0.2980,1.3370,0.3060,2.7000,0,0.0000,0.0000,0.0000,0.0000,0.0000,0
4431,0.0016,-0.0007,0.0089,0.0078,-0.0020,-0.0046,0.11,0.64,-0.03,0,4.123,-0.231,-0.059,0.211,0.011,-0.003,1.001,0.000,0.000,0.000,0.0080,5,0,0.00,0.00,0.00,0.0000,0.0000,0.0000,0.0000,0.0000,0.0000,0.0000,0.00,0.00,0.00,1.5850,0.2950,1.3330,0.3030,2.7060,0,0.0000,0.0000,0.0000,0.0000,0.0000,0
4482,-0.0002,-0.0041,0.0100,-0.0027,-0.0185,0.0017,-0.22,0.65,-0.02,0,4.123,0.064,-0.161,0.002,0.011,-0.005,1.000,0.000,0.000,0.000,0.0110,6,2,0.00,0.00,0.00,0.0000,0.0000,0.0000,0.0000,0.0000,0.0000,0.0000,0.00,0.00,0.00,1.5770,0.2950,1.3330,0.3030,2.7060,0,0.0000,0.0000,0.0000,0.0000,0.0000,0
4534,0.0003,-0.0046,0.0092,0.0009,-0.0166,-0.0015,-0.24,0.58,-0.03,0,4.128,-0.208,-0.126,0.087,0.011,-0.006,1.000,0.000,0.000,0.000,0.0110,-4,-2,0.00,0.00,0.00,0.0000,0.0000,0.0000,0.0000,0.0000,0.0000,0.0000,0.00,0.00,0.00,1.5770,0.2910,1.3320,0.3040,2.7120,0,0.0000,0.0000,0.0000,0.0000,0.0000,0
4585,0.0003,-0.0059,0.0101,0.0012,-0.0202,0.0038,-0.17,0.64,-0.03,0,4.128,0.074,-0.200,-0.010,0.013,-0.006,1.001,0.000,0.000,0.000,0.0100,6,-1,0.00,0.00,0.00,0.0000,0.0000,0.0000,0.0000,0.0000,0.0000,0.0000,0.00,0.00,0.00,1.5820,0.2910,1.3320,0.3040,2.7120,0,0.0000,0.0000,0.0000,0.0000,0.0000,0
4636,-0.0006,-0.0036,0.0099,-0.0039,-0.0042,0.0025,-0.32,0.60,-0.03,0,4.128,-0.166,0.077,-0.041,0.010,-0.006,1.002,0.000,0.000,0.000,0.0080,-3,2,0.00,0.00,0.00,0.0000,0.0000,0.0000,0.0000,0.0000,0.0000,0.0000,0.00,0.00,0.00,1.5820,0.2920,1.3360,0.2990,2.7040,0,0.0000,0.0000,0.0000,0.0000,0.0000,0
4687,0.0003,-0.0047,0.0101,0.0015,-0.0085,0.0039,-0.32,0.60,-0.03,0,4.128,-0.081,-0.468,-0.042,0.012,-0.007,1.000,0.000,0.000,0.000,0.0120,-5,-1,0.00,0.00,0.00,0.0000,0.0000,0.0000,0.0000,0.0000,0.0000,0.0000,0.00,0.00,0.00,1.5830,0.2920,1.3360,0.2990,2.7040,0,0.0000,0.0000,0.0000,0.0000,0.0000,0
4738,0.0003,-0.0049,0.0092,0.0022,-0.0081,-0.0007,-0.27,0.57,-0.03,0,4.123,-0.190,-0.278,0.096,0.013,-0.007,1.002,0.000,0.000,0.000,0.0110,-9,-4,0.00,0.00,0.00,0.0000,0.0000,0.0000,0.0000,0.0000,0.0000,0.0000,0.00,0.00,0.00,1.5830,0.2910,1.3320,0.3050,2.7000,0,0.0000,0.0000,0.0000,0.0000,0.0000,0
4790,-0.0002,-0.0058,0.0106,-0.0004,-0.0111,0.0053,-0.37,0.61,-0.03,0,4.123,0.065,0.042,-0.506,0.011,-0.005,1.002,0.000,0.000,0.000,0.0090,-6,0,0.00,0.00,0.00,0.0000,0.0000,0.0000,0.0000,0.0000,0.0000,0.0000,0.00,0.00,0.00,1.5840,0.2910,1.3320,0.3050,2.7000,0,0.0000,0.0000,0.0000,0.0000,0.0000,0
4842,-0.0002,-0.0055,0.0111,-0.0003,-0.0084,0.0069,-0.28,0.61,-0.03,0,4.123,-0.130,-0.123,0.084,0.011,-0.007,0.999,0.000,0.000,0.000,0.0100,5,0,0.00,0.00,0.00,0.0000,0.0000,0.0000,0.0000,0.0000,0.0000,0.0000,0.00,0.00,0.00,1.5840,0.2950,1.3330,0.3050,2.7040,0,0.0000,0.0000,0.0000,0.0000,0.0000,0
4894,-0.0002,-0.0045,0.0104,-0.0007,-0.0022,0.0025,-0.30,0.61,-0.03,0,4.128,-0.049,0.119,-0.025,0.012,-0.006,0.999,0.000,0.000,0.000,0.0100,-3,2,0.00,0.00,0.00,0.0000,0.0000,0.0000,0.0000,0.0000,0.0000,0.0000,0.00,0.00,0.00,1.5830,0.2950,1.3330,0.3050,2.7040,0,0.0000,0.0000,0.0000,0.0000,0.0000,0
4946,0.0003,-0.0057,0.0103,0.0019,-0.0060,0.0015,-0.27,0.59,-0.04,0,4.123,-0.227,-0.214,0.260,0.011,-0.003,1.000,0.000,0.000,0.000,0.0100,-9,0,0.00,0.00,0.00,0.0000,0.0000,0.0000,0.0000,0.0000,0.0000,0.0000,0.00,0.00,0.00,1.5830,0.2990,1.3330,0.3070,2.7090,0,0.0000,0.0000,0.0000,0.0000,0.0000,0
4997,0.0001,-0.0113,0.0102,0.0008,-0.0311,0.0007,-0.13,0.59,-0.04,0,4.123,0.001,0.222,0.115,0.012,-0.007,1.000,0.000,0.000,0.000,0.0110,1,1,0.00,0.00,0.00,0.0000,0.0000,0.0000,0.0000,0.0000,0.0000,0.0000,0.00,0.00,0.00,1.5850,0.2990,1.3330,0.3070,2.7090,0,0.0000,0.0000,0.0000,0.0000,0.0000,0
5048,0.0003,-0.0103,0.0103,0.0018,-0.0208,0.0009,-0.47,0.55,-0.04,0,4.123,-0.154,0.227,-0.174,0.011,-0.006,1.001,0.000,0.000,0.000,0.0090,-9,-6,0.00,0.00,0.00,0.0000,0.0000,0.0000,0.0000,0.0000,0.0000,0.0000,0.00,0.00,0.00,1.5850,0.3050,1.3320,0.3010,2.7060,0,0.0000,0.0000,0.0000,0.0000,0.0000,0
5099,-0.0011,-0.0113,0.0110,-0.0060,-0.0243,0.0039,-0.22,0.61,-0.04,0,3.737,-0.880,-0.358,1.431,0.004,0.000,0.990,0.000,0.000,0.000,0.0110,1,1,0.00,0.00,0.00,0.0000,0.0000,0.0000,0.0000,0.0000,0.0000,0.0000,0.00,0.00,0.00,1.5790,0.3050,1.3320,0.3010,2.7060,0,0.0000,0.0000,0.0000,0.0000,0.0000,0
5150,-0.0013,-0.0112,0.0102,-0.0075,-0.0195,0.0002,-0.22,0.62,-0.05,0,3.832,0.850,0.212,0.924,0.012,0.001,0.995,0.000,0.000,0.000,0.0120,-2,6,0.00,0.00,0.00,0.0000,0.0000,0.0000,0.0000,0.0000,0.0000,0.0000,0.00,0.00,0.00,1.5790,0.2990,1.3310,0.3040,2.7000,0,0.0000,0.0000,0.0000,0.0000,0.0000,0
5202,-0.0002,-0.0096,0.0107,-0.0055,-0.0044,0.0026,-0.39,0.55,-0.04,0,3.864,0.514,-0.460,0.723,0.013,-0.005,0.987,0.000,0.000,0.000,0.0100,-5,2,0.00,0.00,0.00,0.0000,0.0000,0.0000,0.0000,0.0000,0.0000,0.0000,0.00,0.00,0.00,1.5790,0.2990,1.3310,0.3040,2.7000,0,0.0000,0.0000,0.0000,0.0000,0.0000,0
5253,0.0012,-0.0058,0.0115,-0.0022,0.0169,0.0044,-0.47,0.57,-0.01,0,3.880,1.162,3.847,17.385,0.003,-0.048,1.000,0.000,0.000,0.000,0.0100,20,5,0.00,0.00,0.00,0.0000,0.0000,0.0000,0.0000,0.0000,0.0000,0.0000,0.00,0.00,0.00,1.5790,0.3030,1.3360,0.2940,2.7030,0,0.0000,0.0000,0.0000,0.0000,0.0000,0
5305,0.0006,-0.0098,0.0111,-0.0086,-0.0053,0.0018,0.15,0.58,0.44,0,3.874,1.000,2.433,6.701,-0.032,-0.008,0.993,0.000,0.000,0.000,0.0120,1,1,0.00,0.00,0.00,0.0000,0.0000,0.0000,0.0000,0.0000,0.0000,0.0000,0.00,0.00,0.00,1.5830,0.3030,1.3360,0.2940,2.7030,0,0.0000,0.0000,0.0000,0.0000,0.0000,0
5357,0.0001,-0.0239,0.0095,-0.0125,-0.0674,-0.0072,0.32,0.49,0.85,0,3.885,-0.245,4.374,-11.030,0.007,-0.000,1.016,0.000,0.000,0.000,0.0120,2,-5,0.00,0.00,0.00,0.0000,0.0000,0.0000,0.0000,0.0000,0.0000,0.0000,0.00,0.00,0.00,1.5830,0.3230,1.3240,0.3480,2.6950,0,0.0000,0.0000,0.0000,0.0000,0.0000,0
5408,-0.0001,-0.0338,0.0098,-0.0144,-0.1013,-0.0040,0.46,0.41,0.22,0,3.874,-0.499,-1.578,-30.149,0.006,-0.023,1.022,0.000,0.000,0.000,0.0090,6,0,0.00,0.00,0.00,0.0000,0.0000,0.0000,0.0000,0.0000,0.0000,0.0000,0.00,0.00,0.00,1.5840,0.3230,1.3240,0.3480,2.6950,0,0.0000,0.0000,0.0000,0.0000,0.0000,0
5459,-0.0003,-0.0322,0.0094,-0.0158,-0.0725,-0.0035,0.32,0.25,-1.15,0,3.880,-0.791,1.318,-19.759,0.015,-0.016,1.000,0.000,0.000,0.000,0.0090,7,3,0.00,0.00,0.00,0.0000,0.0000,0.0000,0.0000,0.0000,0.0000,0.0000,0.00,0.00,0.00,1.5840,0.3000,1.3380,0.2910,2.7000,0,0.0000,0.0000,0.0000,0.0000,0.0000,0
5510,0.0036,-0.0346,0.0092,0.0024,-0.0672,-0.0034,0.09,0.24,-2.24,0,3.874,1.593,1.657,-10.649,0.002,-0.012,1.008,0.000,0.000,0.000,0.0090,3,2,0.00,0.00,0.00,0.0000,0.0000,0.0000,0.0000,0.0000,0.0000,0.0000,0.00,0.00,0.00,1.5950,0.3000,1.3380,0.2910,2.7000,0,0.0000,0.0000,0.0000,0.0000,0.0000,0
5562,0.0043,-0.0345,0.0102,0.0037,-0.0507,0.0020,0.17,0.24,-2.79,0,3.880,3.495,5.712,0.245,-0.003,-0.023,1.007,0.000,0.000,0.000,0.0090,3,0,0.00,0.00,0.00,0.0000,0.0000,0.0000,0.0000,0.0000,0.0000,0.0000,0.00,0.00,0.00,1.5950,0.2500,1.3520,0.3130,2.6990,0,0.0000,0.0000,0.0000,0.0000,0.0000,0
5614,0.0017,-0.0461,0.0093,-0.0109,-0.0937,-0.0014,0.35,0.28,-2.87,0,3.864,-1.652,-2.573,7.046,0.004,0.003,1.015,0.000,0.000,0.000,0.0090,0,-1,0.00,0.00,0.00,0.0000,0.0000,0.0000,0.0000,0.0000,0.0000,0.0000,0.00,0.00,0.00,1.6010,0.2500,1.3520,0.3130,2.6990,0,0.0000,0.0000,0.0000,0.0000,0.0000,0
5666,-0.0011,-0.0530,0.0088,-0.0243,-0.1067,-0.0005,0.47,0.38,-2.56,0,3.869,6.190,-4.661,6.962,-0.006,0.005,1.000,0.000,0.000,0.000,0.0090,15,10,0.00,0.00,0.00,0.0000,0.0000,0.0000,0.0000,0.0000,0.0000,0.0000,0.00,0.00,0.00,1.6010,0.2420,1.3590,0.3480,2.7060,0,0.0000,0.0000,0.0000,0.0000,0.0000,0
5718,-0.0038,-0.0593,0.0088,-0.0340,-0.1125,-0.0039,0.51,0.42,-2.23,0,3.859,-17.919,-3.562,2.838,0.001,0.005,0.994,0.000,0.000,0.000,0.0110,2,8,0.00,0.00,0.00,0.0000,0.0000,0.0000,0.0000,0.0000,0.0000,0.0000,0.00,0.00,0.00,1.5960,0.2420,1.3590,0.3480,2.7060,0,0.0000,0.0000,0.0000,0.0000,0.0000,0
5770,-0.0064,-0.0691,0.0097,-0.0407,-0.1334,0.0080,-0.13,0.57,-2.04,0,3.864,-17.729,2.957,0.145,-0.015,-0.010,1.008,0.000,0.000,0.000,0.0110,1,1,0.00,0.00,0.00,0.0000,0.0000,0.0000,0.0000,0.0000,0.0000,0.0000,0.00,0.00,0.00,1.5960,0.2580,1.3470,0.0000,2.6990,0,0.0000,0.0000,0.0000,0.0000,0.0000,0
5821,-0.0094,-0.0737,0.0112,-0.0486,-0.1204,0.0194,-1.29,0.47,-2.08,0,3.853,-23.020,-0.094,4.595,0.021,-0.032,0.978,0.000,0.000,0.000,0.0130,-3,-1,0.00,0.00,0.00,0.0000,0.0000,0.0000,0.0000,0.0000,0.0000,0.0000,0.00,0.00,0.00,1.5950,0.2580,1.3470,0.0000,2.6990,0,0.0000,0.0000,0.0000,0.0000,0.0000,0
5872,-0.0119,-0.0687,0.0117,-0.0531,-0.0562,0.0190,-3.07,0.52,-1.88,0,3.853,-9.456,1.232,1.670,0.001,-0.011,1.009,0.000,0.000,0.000,0.0130,0,-21,0.00,0.00,0.00,0.0000,0.0000,0.0000,0.0000,0.0000,0.0000,0.0000,0.00,0.00,0.00,1.5950,0.2490,1.3200,1.0260,2.7090,0,0.0000,0.0000,0.0000,0.0000,0.0000,0
5923,-0.0110,-0.0506,0.0120,-0.0389,0.0646,0.0111,-4.22,-0.08,-1.68,0,3.838,6.038,12.528,-3.395,0.004,-0.018,0.991,0.000,0.000,0.000,0.0120,-8,-5,0.00,0.00,0.00,0.0000,0.0000,0.0000,0.0000,0.0000,0.0000,0.0000,0.00,0.00,0.00,1.5940,0.2490,1.3200,1.0260,2.7090,0,0.0000,0.0000,0.0000,0.0000,0.0000,0
5974,-0.0035,-0.0308,0.0096,0.0061,0.1740,-0.0043,-4.84,-0.89,-1.83,0,3.838,33.654,-1.269,2.508,-0.014,-0.029,1.001,0.000,0.000,0.000,0.0110,-2,-6,0.00,0.00,0.00,0.0000,0.0000,0.0000,0.0000,0.0000,0.0000,0.0000,0.00,0.00,0.00,1.5940,0.0000,1.2860,1.0490,2.7160,0,0.0000,0.0000,0.0000,0.0000,0.0000,0
6026,-0.0014,-0.0162,0.0101,0.0206,0.2298,-0.0075,-2.68,-0.61,-1.69,0,3.827,74.704,-28.878,5.002,0.002,-0.015,1.000,0.000,0.000,0.000,0.0130,-4,0,0.00,0.00,0.00,0.0000,0.0000,0.0000,0.0000,0.0000,0.0000,0.0000,0.00,0.00,0.00,1.5990,0.0000,1.2860,1.0490,2.7160,0,0.0000,0.0000,0.0000,0.0000,0.0000,0
6077,-0.0046,-0.0275,0.0151,0.0018,0.1317,0.0163,1.52,1.01,-1.49,0,3.832,-39.893,13.318,13.654,0.004,-0.014,1.007,0.000,0.000,0.000,0.0130,-2,0,0.00,0.00,0.00,0.0000,0.0000,0.0000,0.0000,0.0000,0.0000,0.0000,0.00,0.00,0.00,1.5990,0.2090,1.3340,0.0000,2.7030,0,0.0000,0.0000,0.0000,0.0000,0.0000,0
6129,-0.0061,-0.0293,0.0151,-0.0150,0.0793,0.0157,1.07,1.15,-0.89,0,3.822,-12.270,26.255,7.006,-0.001,-0.007,1.052,0.000,0.000,0.000,0.0080,8,-1,0.00,0.00,0.00,0.0000,0.0000,0.0000,0.0000,0.0000,0.0000,0.0000,0.00,0.00,0.00,1.5950,0.2090,1.3340,0.0000,2.7030,0,0.0000,0.0000,0.0000,0.0000,0.0000,0
6181,0.0018,-0.0331,0.0134,0.0212,0.0385,0.0274,0.10,-0.34,-0.44,0,3.827,16.413,13.226,11.062,0.002,-0.020,1.031,0.000,0.000,0.000,0.0080,-26,-5,0.00,0.00,0.00,0.0000,0.0000,0.0000,0.0000,0.0000,0.0000,0.0000,0.00,0.00,0.00,1.5950,0.0000,1.3210,0.0000,2.7090,0,0.0000,0.0000,0.0000,0.0000,0.0000,0
6232,0.0064,-0.0140,0.0112,0.0421,0.1281,0.0243,-0.86,-0.96,0.04,0,3.801,11.505,-15.772,5.850,0.011,-0.010,1.069,0.000,0.000,0.000,0.0000,-30,-7,0.00,0.00,0.00,0.0000,0.0000,0.0000,0.0000,0.0000,0.0000,0.0000,0.00,0.00,0.00,1.5730,0.0000,1.3210,0.0000,2.7090,0,0.0000,0.0000,0.0000,0.0000,0.0000,0
6283,0.0089,0.0131,0.0030,0.0520,0.2286,0.0029,-0.53,-0.50,0.27,0,3.806,44.251,-15.817,7.735,-0.003,-0.017,1.033,0.000,0.000,0.000,0.0000,-13,-2,0.00,0.00,0.00,0.0000,0.0000,0.0000,0.0000,0.0000,0.0000,0.0000,0.00,0.00,0.00,1.5730,0.2120,1.3190,0.7150,2.6930,0,0.0000,0.0000,0.0000,0.0000,0.0000,0
6335,0.0121,0.0346,-0.0007,0.0568,0.2760,0.0045,1.29,0.30,0.55,0,3.790,24.691,-11.387,9.452,-0.008,-0.007,1.078,0.000,0.000,0.000,0.0000,-10,5,0.00,0.00,0.00,0.0000,0.0000,0.0000,0.0000,0.0000,0.0000,0.0000,0.00,0.00,0.00,1.5980,0.2120,1.3190,0.7150,2.6930,0,0.0000,0.0000,0.0000,0.0000,0.0000,0
6386,0.0116,0.0450,0.0017,0.0361,0.2462,0.0452,2.73,1.28,0.96,0,3.801,9.734,-0.460,6.886,-0.000,-0.006,1.068,0.000,0.000,0.000,0.0100,1,5,0.00,0.00,0.00,0.0000,0.0000,0.0000,0.0000,0.0000,0.0000,0.0000,0.00,0.00,0.00,1.5980,0.0000,1.3500,0.4010,2.6990,0,0.0000,0.0000,0.0000,0.0000,0.0000,0
6437,-0.0010,0.0435,0.0055,-0.0464,0.1554,0.0789,3.79,2.21,1.36,0,3.795,-24.533,22.788,6.024,-0.002,-0.014,1.047,0.000,0.000,0.000,0.0240,6,19,0.00,0.00,0.00,0.0000,0.0000,0.0000,0.0000,0.0000,0.0000,0.0000,0.00,0.00,0.00,1.6310,0.0000,1.3500,0.4010,2.6990,0,0.0000,0.0000,0.0000,0.0000,0.0000,0
6488,-0.0074,0.0411,0.0120,-0.0809,0.0760,0.1088,3.04,1.36,1.69,0,3.806,-12.177,34.242,3.278,0.006,-0.003,1.031,0.000,0.000,0.000,0.0350,10,14,0.00,0.00,0.00,0.0000,0.0000,0.0000,0.0000,0.0000,0.0000,0.0000,0.00,0.00,0.00,1.6310,0.2460,1.3660,0.9330,2.6920,0,0.0000,0.0000,0.0000,0.0000,0.0000,0
6539,-0.0195,0.0359,0.0230,-0.1271,0.0078,0.1514,2.76,-0.07,2.02,0,3.801,-15.294,48.889,5.133,-0.001,-0.011,1.004,0.000,0.000,0.000,0.0470,10,6,0.00,0.00,0.00,0.0000,0.0000,0.0000,0.0000,0.0000,0.0000,0.0000,0.00,0.00,0.00,1.5870,0.2460,1.3660,0.9330,2.6920,0,0.0000,0.0000,0.0000,0.0000,0.0000,0
6591,-0.0268,0.0260,0.0362,-0.1245,-0.0627,0.1822,2.32,-2.50,2.36,0,3.806,-18.113,-5.549,4.384,0.003,-0.006,0.992,0.000,0.000,0.000,0.0600,15,4,0.00,0.00,0.00,0.0000,0.0000,0.0000,0.0000,0.0000,0.0000,0.0000,0.00,0.00,0.00,1.5870,0.3210,1.3670,1.0350,2.6580,0,0.0000,0.0000,0.0000,0.0000,0.0000,0
6643,-0.0316,0.0183,0.0506,-0.0954,-0.0992,0.2023,1.51,-2.83,2.58,0,3.795,-25.364,-8.820,3.426,-0.003,-0.007,0.977,0.000,0.000,0.000,0.0740,6,0,0.00,0.00,0.00,0.0000,0.0000,0.0000,0.0000,0.0000,0.0000,0.0000,0.00,0.00,0.00,1.5460,0.3210,1.3670,1.0350,2.6580,0,0.0000,0.0000,0.0000,0.0000,0.0000,0
6694,-0.0339,0.0070,0.0648,-0.0622,-0.1370,0.2119,0.40,-2.43,2.75,0,3.806,-38.566,3.092,-0.465,-0.002,-0.002,0.960,0.000,0.000,0.000,0.0830,26,0,0.00,0.00,0.00,0.0000,0.0000,0.0000,0.0000,0.0000,0.0000,0.0000,0.00,0.00,0.00,1.5460,0.3990,1.3650,1.1440,2.6380,0,0.0000,0.0000,0.0000,0.0000,0.0000,0
6744,-0.0341,0.0005,0.0802,-0.0301,-0.1323,0.2175,-1.30,-2.62,2.73,0,3.801,-16.107,-3.042,-0.606,0.003,0.002,0.976,0.000,0.000,0.000,0.0910,-4,1,0.00,0.00,0.00,0.0000,0.0000,0.0000,0.0000,0.0000,0.0000,0.0000,0.00,0.00,0.00,1.5810,0.3990,1.3650,1.1440,2.6380,0,0.0000,0.0000,0.0000,0.0000,0.0000,0
6795,-0.0323,-0.0093,0.0920,0.0048,-0.1321,0.2128,-2.34,-2.69,2.64,0,3.801,5.108,-19.667,1.676,-0.007,-0.008,0.971,0.000,0.000,0.000,0.0910,3,-4,0.00,0.00,0.00,0.0000,0.0000,0.0000,0.0000,0.0000,0.0000,0.0000,0.00,0.00,0.00,1.5810,0.4050,1.3520,1.3450,2.6280,0,0.0000,0.0000,0.0000,0.0000,0.0000,0
6847,-0.0299,-0.0135,0.0998,0.0308,-0.1127,0.1972,-2.25,-1.87,2.70,0,3.790,-3.039,-19.888,0.259,0.007,-0.010,0.962,0.000,0.000,0.000,0.1030,6,-8,0.00,0.00,0.00,0.0000,0.0000,0.0000,0.0000,0.0000,0.3000,0.2814,-5.83,-0.62,-80.85,1.6040,0.4050,1.3520,1.3450,2.6280,0,0.0000,0.0000,0.0000,0.0000,0.0000,0
6898,-0.0257,-0.0167,0.1086,0.0562,-0.0759,0.1679,-2.41,-1.08,2.73,0,3.790,1.315,-14.868,0.786,-0.005,-0.009,0.988,0.000,0.000,0.000,0.1140,3,-5,-2.25,1.87,2.70,-0.0299,-0.0135,0.1030,0.0000,0.0000,0.3000,0.2829,-4.41,0.77,-81.84,1.6040,0.4020,1.3660,1.3520,2.6050,0,0.0000,0.0000,0.0000,0.0000,0.0000,0
6950,-0.0206,-0.0193,0.1138,0.0730,-0.0521,0.1453,-2.40,-0.33,2.80,0,3.785,8.975,-14.171,0.630,-0.001,-0.012,0.985,0.000,0.000,0.000,0.1190,1,-5,-1.97,2.28,2.76,-0.0179,-0.0201,0.1108,0.0000,0.0000,0.3000,0.2844,-3.52,1.83,-83.95,1.6370,0.4020,1.3660,1.3520,2.6050,0,0.0000,0.0000,0.0000,0.0000,0.0000,0
7001,-0.0159,-0.0206,0.1209,0.0784,-0.0289,0.1386,-2.05,0.33,2.86,0,3.785,4.067,-22.719,1.788,0.001,-0.014,0.989,0.000,0.000,0.000,0.1210,-3,-10,-2.24,2.32,2.84,-0.0121,-0.0206,0.1171,0.0000,0.0000,0.3000,0.2838,-2.61,2.38,-85.86,1.6370,0.3820,1.3800,1.2940,2.5910,0,0.0000,0.0000,0.0000,0.0000,0.0000,0
7053,-0.0115,-0.0212,0.1266,0.0756,-0.0103,0.1270,-1.85,1.34,3.00,0,3.779,14.169,5.750,2.169,0.001,-0.012,0.993,0.000,0.000,0.000,0.1260,0,0,-4.50,-0.59,3.02,-0.0014,-0.0170,0.1195,0.0000,0.0000,0.3000,0.2840,-1.83,2.54,-90.10,1.6860,0.3820,1.3800,1.2940,2.5910,0,0.0000,0.0000,0.0000,0.0000,0.0000,0
7105,-0.0059,-0.0200,0.1298,0.0732,0.0091,0.1096,-1.18,1.23,3.12,0,3.779,15.921,6.705,0.192,0.005,-0.011,1.003,0.000,0.000,0.000,0.1260,-6,-6,-3.74,-0.91,3.11,0.0081,-0.0125,0.1253,0.0000,0.0000,0.3000,0.2853,-0.90,2.78,-93.69,1.6860,0.3730,1.3890,1.2290,2.5730,0,0.0000,0.0000,0.0000,0.0000,0.0000,0
7156,-0.0020,-0.0193,0.1333,0.0660,0.0169,0.1043,-0.38,0.86,3.17,0,3.769,2.219,-12.450,-2.272,0.001,-0.019,1.005,0.000,0.000,0.000,0.1360,0,-2,-2.21,1.82,3.02,0.0083,-0.0091,0.1354,0.0000,0.0000,0.3000,0.2852,-0.52,2.73,-95.22,1.6670,0.3730,1.3890,1.2290,2.5730,0,0.0000,0.0000,0.0000,0.0000,0.0000,0
7207,0.0020,-0.0180,0.1363,0.0660,0.0207,0.1012,-0.07,1.42,3.10,0,3.774,1.418,-4.703,-2.061,-0.002,-0.009,1.015,0.000,0.000,0.000,0.1390,0,-4,-1.32,2.67,2.87,0.0111,-0.0065,0.1391,0.0000,0.0000,0.3000,0.2850,-0.27,2.99,-92.92,1.6670,0.3620,1.4150,1.1970,2.5770,0,0.0000,0.0000,0.0000,0.0000,0.0000,0
7258,0.0061,-0.0170,0.1419,0.0578,0.0195,0.1040,-0.01,1.69,3.00,0,3.769,10.320,7.167,-2.974,0.002,-0.012,1.022,0.000,0.000,0.000,0.1450,-1,-1,-0.69,2.30,2.63,0.0152,-0.0048,0.1457,0.0000,0.0000,0.3000,0.2836,-0.27,2.92,-89.94,1.6720,0.3620,1.4150,1.1970,2.5770,0,0.0000,0.0000,0.0000,0.0000,0.0000,0
7309,0.0092,-0.0166,0.1447,0.0460,0.0177,0.1051,0.45,1.34,2.84,0,3.774,0.885,7.404,-3.606,0.000,-0.013,1.022,0.000,0.000,0.000,0.1450,0,0,-0.08,2.11,2.49,0.0166,-0.0031,0.1508,0.0000,0.0000,0.3000,0.2830,-0.31,2.61,-85.35,1.6720,0.3640,1.4220,1.1920,2.5650,0,0.0000,0.0000,0.0000,0.0000,0.0000,0
7361,0.0126,-0.0157,0.1510,0.0361,0.0120,0.1150,0.60,1.12,2.67,0,3.764,-4.869,3.435,-4.432,0.000,-0.012,1.027,0.000,0.000,0.000,0.1580,2,0,-0.02,1.75,2.30,0.0174,-0.0019,0.1548,0.0000,0.0000,0.3000,0.2807,-0.52,2.42,-80.18,1.6530,0.3640,1.4220,1.1920,2.5650,0,0.0000,0.0000,0.0000,0.0000,0.0000,0
7412,0.0143,-0.0150,0.1527,0.0305,0.0093,0.1101,0.45,0.95,2.44,0,3.774,0.367,5.375,-4.328,0.004,-0.014,1.023,0.000,0.000,0.000,0.1610,2,-1,0.32,1.62,1.99,0.0170,-0.0059,0.1622,0.0000,0.0000,0.3000,0.2809,-0.59,2.29,-73.20,1.6530,0.3760,1.4270,1.2170,2.5630,0,0.0000,0.0000,0.0000,0.0000,0.0000,0
7464,0.0147,-0.0151,0.1620,0.0167,0.0030,0.1347,0.53,0.75,2.19,0,3.769,-1.593,3.957,-4.402,0.006,-0.012,1.020,0.000,0.000,0.000,0.1710,9,1,0.46,1.20,1.69,0.0176,-0.0086,0.1690,0.0000,0.0000,0.3000,0.2765,-0.88,1.73,-65.67,1.6440,0.3760,1.4270,1.2170,2.5630,0,0.0000,0.0000,0.0000,0.0000,0.0000,0
7514,0.0119,-0.0184,0.1671,-0.0002,-0.0126,0.1415,0.58,0.53,1.96,0,3.779,-6.801,6.432,-2.146,0.007,-0.015,1.014,0.000,0.000,0.000,0.1710,2,1,1.25,1.08,1.46,0.0164,-0.0199,0.1748,0.0000,0.0000,0.3000,0.2749,-1.81,0.79,-58.86,1.6440,0.3900,1.4310,1.2560,2.5390,0,0.0000,0.0000,0.0000,0.0000,0.0000,0
7565,0.0117,-0.0222,0.1756,-0.0047,-0.0279,0.1549,0.27,0.16,1.82,0,3.774,-6.852,4.517,-1.666,0.006,-0.011,1.008,0.000,0.000,0.000,0.1900,0,-3,0.66,0.80,1.39,0.0149,-0.0244,0.1827,0.0000,0.0000,0.3000,0.2718,-2.79,0.59,-54.54,1.6390,0.3900,1.4310,1.2560,2.5390,0,0.0000,0.0000,0.0000,0.0000,0.0000,0
7616,0.0127,-0.0223,0.1855,-0.0014,-0.0254,0.1689,-0.12,-0.19,1.71,0,3.779,-0.810,-1.365,-2.855,0.008,-0.012,1.000,0.000,0.000,0.000,0.1930,0,-3,-0.06,0.16,1.01,0.0188,-0.0262,0.1946,0.0000,0.0000,0.3000,0.2684,-2.71,0.81,-51.35,1.6390,0.4010,1.4230,1.2830,2.5250,0,0.0000,0.0000,0.0000,0.0000,0.0000,0
7667,0.0142,-0.0216,0.1955,0.0049,-0.0180,0.1757,-0.39,0.02,1.61,0,3.779,3.902,-0.573,-2.748,0.001,-0.012,0.996,0.000,0.000,0.000,0.2070,0,-1,-0.37,-0.04,0.64,0.0238,-0.0270,0.2027,0.0000,0.0000,0.3000,0.2658,-2.35,1.22,-48.27,1.6350,0.4010,1.4230,1.2830,2.5250,0,0.0000,0.0000,0.0000,0.0000,0.0000,0
7718,0.0073,-0.0156,0.2022,-0.0181,0.0067,0.1641,-0.18,0.02,1.49,0,3.779,5.373,7.499,-0.767,0.002,-0.014,0.993,0.000,0.000,0.000,0.2120,0,2,-0.33,-0.00,0.46,0.0258,-0.0276,0.2125,0.0000,0.0000,0.3000,0.2658,-0.78,-0.34,-44.65,1.6350,0.4140,1.4270,1.3090,2.5060,0,0.0000,0.0000,0.0000,0.0000,0.0000,0
7769,0.0084,-0.0163,0.2121,-0.0114,0.0049,0.1677,0.08,-0.32,1.42,0,3.774,0.408,4.075,-0.987,0.004,-0.015,0.987,0.000,0.000,0.000,0.2240,0,-6,-0.18,-0.11,0.50,0.0223,-0.0279,0.2212,0.0000,0.0000,0.3000,0.2636,-0.92,0.06,-42.55,1.6350,0.4140,1.4270,1.3090,2.5060,0,0.0000,0.0000,0.0000,0.0000,0.0000,0
7820,0.0068,-0.0172,0.2195,-0.0122,0.0006,0.1583,0.18,-0.57,1.35,0,3.779,-0.959,-1.681,-0.276,-0.000,-0.010,0.990,0.000,0.000,0.000,0.2200,0,-2,-0.25,-0.80,0.19,0.0343,-0.0283,0.2302,0.0000,0.0000,0.3000,0.2632,-1.19,-0.09,-40.40,1.6350,0.4270,1.4430,1.3040,2.4900,0,0.0000,0.0000,0.0000,0.0000,0.0000,0
7871,0.0006,-0.0181,0.2287,-0.0265,-0.0039,0.1593,0.15,-0.31,1.32,0,3.769,-1.252,1.175,-0.210,0.000,-0.012,0.989,0.000,0.000,0.000,0.2370,1,-1,-0.37,-0.72,0.14,0.0389,-0.0282,0.2349,0.0000,0.0000,0.3000,0.2613,-1.48,-1.21,-39.49,1.6350,0.4270,1.4430,1.3040,2.4900,0,0.0000,0.0000,0.0000,0.0000,0.0000,0
7922,0.0021,-0.0184,0.2313,-0.0156,-0.0052,0.1299,0.13,-0.42,1.29,0,3.774,0.037,4.130,-0.280,0.001,-0.015,0.991,0.000,0.000,0.000,0.2340,0,0,-0.41,-0.71,0.17,0.0415,-0.0304,0.2430,0.0000,0.0000,0.3000,0.2640,-1.54,-0.58,-38.81,1.6350,0.4340,1.4420,1.3130,2.4750,0,0.0000,0.0000,0.0000,0.0000,0.0000,0
7974,0.0030,-0.0198,0.2399,-0.0077,-0.0096,0.1345,0.11,-0.64,1.29,0,3.769,-0.108,-0.975,-0.072,-0.001,-0.013,0.994,0.000,0.000,0.000,0.2420,1,-1,-0.41,-0.91,0.16,0.0461,-0.0321,0.2474,0.0000,0.0000,0.3000,0.2619,-1.87,-0.15,-38.63,1.6380,0.4340,1.4420,1.3130,2.4750,0,0.0000,0.0000,0.0000,0.0000,0.0000,0
8025,0.0076,-0.0198,0.2429,0.0119,-0.0089,0.1151,0.09,-0.73,1.28,0,3.769,-0.591,-5.534,0.015,0.002,-0.009,0.995,0.000,0.000,0.000,0.2460,1,-5,-0.47,-0.61,0.19,0.0416,-0.0318,0.2529,0.0000,0.0000,0.3000,0.2634,-1.82,1.10,-38.37,1.6380,0.4360,1.4450,1.2990,2.4570,0,0.0000,0.0000,0.0000,0.0000,0.0000,0
8077,0.0099,-0.0213,0.2476,0.0220,-0.0121,0.1088,0.06,-0.49,1.28,0,3.764,-0.463,-9.189,0.167,0.002,-0.015,0.999,0.000,0.000,0.000,0.2540,0,-1,-0.49,-0.51,0.15,0.0512,-0.0339,0.2572,0.0000,0.0000,0.3000,0.2632,-2.08,1.74,-38.50,1.6440,0.4360,1.4450,1.2990,2.4570,0,0.0000,0.0000,0.0000,0.0000,0.0000,0
8128,0.0143,-0.0217,0.2516,0.0343,-0.0118,0.1018,0.04,-0.08,1.29,0,3.769,-1.326,-5.485,1.446,0.000,-0.013,1.005,0.000,0.000,0.000,0.2600,3,-6,-0.55,0.02,0.14,0.0542,-0.0343,0.2623,0.0000,0.0000,0.3000,0.2632,-2.09,2.62,-38.65,1.6440,0.4430,1.4540,1.2710,2.4530,0,0.0000,0.0000,0.0000,0.0000,0.0000,0
8180,0.0170,-0.0228,0.2575,0.0375,-0.0133,0.1049,-0.01,0.16,1.34,0,3.769,-1.746,-4.541,0.030,-0.001,-0.011,0.999,0.000,0.000,0.000,0.2650,0,-1,-0.49,0.07,0.28,0.0677,-0.0407,0.2674,0.0000,0.0000,0.3000,0.2618,-2.25,2.98,-40.18,1.6630,0.4430,1.4540,1.2710,2.4530,0,0.0000,0.0000,0.0000,0.0000,0.0000,0
8231,0.0235,-0.0253,0.2635,0.0475,-0.0180,0.1090,-0.08,0.40,1.35,0,3.769,-2.650,-4.020,0.232,0.001,-0.009,0.999,0.000,0.000,0.000,0.2650,0,-1,-0.64,0.39,0.25,0.0707,-0.0410,0.2728,0.0000,0.0000,0.3000,0.2602,-2.67,3.93,-40.48,1.6630,0.4450,1.4520,1.2410,2.4370,0,0.0000,0.0000,0.0000,0.0000,0.0000,0
8282,0.0251,-0.0264,0.2692,0.0425,-0.0181,0.1103,-0.17,0.60,1.34,0,3.769,-1.422,-2.665,-0.714,0.002,-0.015,0.990,0.000,0.000,0.000,0.2780,0,0,-0.82,0.66,0.25,0.0735,-0.0411,0.2762,0.0000,0.0000,0.3000,0.2590,-2.77,3.83,-40.23,1.6650,0.4450,1.4520,1.2410,2.4370,0,0.0000,0.0000,0.0000,0.0000,0.0000,0
8333,0.0293,-0.0259,0.2750,0.0427,-0.0132,0.1108,-0.25,0.72,1.32,0,3.774,1.184,-0.672,-0.293,0.003,-0.013,0.993,0.000,0.000,0.000,0.2820,0,-1,-0.89,0.79,0.21,0.0782,-0.0428,0.2819,0.0000,0.0000,0.3000,0.2578,-2.51,4.15,-39.58,1.6650,0.4430,1.4590,1.2380,2.4240,0,0.0000,0.0000,0.0000,0.0000,0.0000,0
8384,0.0317,-0.0279,0.2820,0.0373,-0.0148,0.1144,-0.20,0.72,1.31,0,3.769,0.723,2.771,-0.453,0.003,-0.011,0.993,0.000,0.000,0.000,0.2900,0,0,-0.91,0.98,0.18,0.0747,-0.0401,0.2872,0.0000,0.0000,0.3000,0.2562,-2.74,4.09,-39.17,1.6600,0.4430,1.4590,1.2380,2.4240,0,0.0000,0.0000,0.0000,0.0000,0.0000,0
8435,0.0333,-0.0283,0.2870,0.0309,-0.0126,0.1077,-0.13,0.66,1.29,0,3.774,0.190,1.169,-0.916,0.004,-0.014,0.992,0.000,0.000,0.000,0.2900,1,-4,-0.88,0.83,0.15,0.0771,-0.0407,0.2930,0.0000,0.0000,0.3000,0.2559,-2.67,3.91,-38.84,1.6600,0.4330,1.4600,1.2230,2.4180,0,0.0000,0.0000,0.0000,0.0000,0.0000,0
8487,0.0371,-0.0290,0.2938,0.0310,-0.0117,0.1096,-0.09,0.55,1.26,0,3.769,0.622,-5.749,-0.916,0.004,-0.016,0.991,0.000,0.000,0.000,0.2990,0,0,-0.83,0.63,0.12,0.0873,-0.0431,0.2970,0.0000,0.0000,0.3000,0.2544,-2.69,4.21,-37.88,1.6620,0.4330,1.4600,1.2230,2.4180,0,0.0000,0.0000,0.0000,0.0000,0.0000,0
8538,0.0418,-0.0306,0.2997,0.0335,-0.0132,0.1065,-0.10,0.62,1.22,0,3.769,1.228,5.161,0.939,0.003,-0.013,0.986,0.000,0.000,0.000,0.3020,1,0,-0.80,0.93,0.07,0.0910,-0.0440,0.3021,0.0000,0.0000,0.3000,0.2537,-2.89,4.69,-36.56,1.6620,0.4360,1.4630,0.0000,2.4050,0,0.0000,0.0000,0.0000,0.0000,0.0000,0
8589,0.0450,-0.0315,0.3040,0.0321,-0.0130,0.0961,-0.07,0.49,1.26,0,3.769,0.909,-0.540,1.440,0.002,-0.013,0.983,0.000,0.000,0.000,0.3080,0,0,-0.72,0.79,0.10,0.0874,-0.0460,0.3065,0.0000,0.0000,0.3000,0.2540,-2.94,4.84,-37.82,1.6610,0.4360,1.4630,0.0000,2.4050,0,0.0000,0.0000,0.0000,0.0000,0.0000,0
8641,0.0466,-0.0337,0.3071,0.0284,-0.0159,0.0821,0.06,0.43,1.35,0,3.769,-1.874,-2.313,2.522,0.003,-0.014,0.985,0.000,0.000,0.000,0.3080,0,0,-0.68,0.81,0.18,0.0890,-0.0472,0.3108,0.0000,0.0000,0.3000,0.2549,-3.23,4.77,-40.35,1.6610,0.4360,1.4690,1.2300,2.4000,0,0.0000,0.0000,0.0000,0.0000,0.0000,0
8693,0.0479,-0.0345,0.3111,0.0249,-0.0164,0.0745,0.09,0.40,1.46,0,3.764,0.318,2.010,2.045,0.003,-0.011,0.987,0.000,0.000,0.000,0.3180,0,0,-0.78,0.93,0.31,0.0902,-0.0485,0.3134,0.0000,0.0000,0.3000,0.2550,-3.31,4.70,-43.72,1.6730,0.4360,1.4690,1.2300,2.4000,0,0.0000,0.0000,0.0000,0.0000,0.0000,0
8745,0.0491,-0.0353,0.3152,0.0216,-0.0172,0.0702,-0.01,0.41,1.58,0,3.769,-2.458,0.913,1.899,0.005,-0.007,0.989,0.000,0.000,0.000,0.3180,1,-1,-0.76,0.83,0.41,0.0911,-0.0497,0.3179,0.0000,0.0000,0.3000,0.2546,-3.42,4.62,-47.34,1.6730,0.4410,1.4700,1.2040,2.3860,0,0.0000,0.0000,0.0000,0.0000,0.0000,0
8795,0.0499,-0.0368,0.3196,0.0177,-0.0184,0.0681,-0.13,0.40,1.67,0,3.764,0.647,0.865,1.742,0.006,-0.013,0.984,0.000,0.000,0.000,0.3230,0,0,-0.91,0.77,0.52,0.0922,-0.0495,0.3208,0.0000,0.0000,0.3000,0.2540,-3.59,4.50,-50.04,1.6670,0.4410,1.4700,1.2040,2.3860,0,0.0000,0.0000,0.0000,0.0000,0.0000,0
8847,0.0512,-0.0375,0.3232,0.0154,-0.0172,0.0638,-0.13,0.35,1.75,0,3.764,2.185,2.382,0.707,0.001,-0.012,0.990,0.000,0.000,0.000,0.3230,2,0,-0.88,0.73,0.60,0.0928,-0.0502,0.3241,0.0000,0.0000,0.3000,0.2538,-3.59,4.49,-52.47,1.6670,0.4340,1.4760,1.1980,2.3860,0,0.0000,0.0000,0.0000,0.0000,0.0000,0
8898,0.0517,-0.0357,0.3261,0.0120,-0.0110,0.0562,-0.06,0.29,1.80,0,3.758,-1.173,4.427,0.937,0.003,-0.019,0.988,0.000,0.000,0.000,0.3260,-1,0,-0.71,0.61,0.62,0.0927,-0.0541,0.3261,0.0000,0.0000,0.3000,0.2541,-3.15,4.36,-54.05,1.6790,0.4340,1.4760,1.1980,2.3860,0,0.0000,0.0000,0.0000,0.0000,0.0000,0
8948,0.0513,-0.0383,0.3263,0.0075,-0.0143,0.0396,-0.04,0.20,1.84,0,3.764,0.908,4.095,-0.042,0.007,-0.014,0.995,0.000,0.000,0.000,0.3260,1,0,-0.80,0.38,0.67,0.0927,-0.0538,0.3281,0.0000,0.0000,0.3000,0.2558,-3.48,4.09,-55.11,1.6790,0.4300,1.4780,1.1970,2.3730,0,0.0000,0.0000,0.0000,0.0000,0.0000,0
8999,0.0524,-0.0412,0.3281,0.0075,-0.0179,0.0353,-0.00,0.07,1.85,0,3.753,-2.173,-0.347,-0.437,0.008,-0.016,0.999,0.000,0.000,0.000,0.3280,0,-1,-0.74,0.18,0.67,0.0927,-0.0559,0.3293,0.0000,0.0000,0.3000,0.2560,-3.87,4.16,-55.37,1.6720,0.4300,1.4780,1.1970,2.3730,0,0.0000,0.0000,0.0000,0.0000,0.0000,0
9051,0.0543,-0.0500,0.3280,0.0098,-0.0327,0.0253,0.02,0.02,1.82,0,3.758,-2.894,-1.553,-0.731,0.004,-0.013,1.003,0.000,0.000,0.000,0.3290,0,0,-0.86,0.17,0.65,0.0946,-0.0565,0.3307,0.0000,0.0000,0.3000,0.2571,-5.19,4.39,-54.75,1.6720,0.4350,1.4820,1.1990,2.3770,0,0.0000,0.0000,0.0000,0.0000,0.0000,0
9102,0.0544,-0.0515,0.3293,0.0088,-0.0324,0.0256,-0.14,0.06,1.77,0,3.753,-3.797,-3.252,-1.609,0.003,-0.015,1.004,0.000,0.000,0.000,0.3330,1,0,-1.01,0.25,0.61,0.0952,-0.0578,0.3320,0.0000,0.0000,0.3000,0.2568,-5.29,4.35,-53.22,1.6800,0.4350,1.4820,1.1990,2.3770,0,0.0000,0.0000,0.0000,0.0000,0.0000,0
9153,0.0542,-0.0546,0.3303,0.0069,-0.0332,0.0260,-0.41,0.15,1.72,0,3.753,1.630,1.059,-2.420,0.003,-0.014,1.006,0.000,0.000,0.000,0.3340,0,0,-1.19,0.43,0.53,0.0946,-0.0599,0.3342,0.0000,0.0000,0.3000,0.2566,-5.55,4.26,-51.71,1.6800,0.4260,1.4770,0.0000,2.3680,0,0.0000,0.0000,0.0000,0.0000,0.0000,0
9204,0.0530,-0.0564,0.3330,0.0029,-0.0300,0.0336,-0.45,0.11,1.62,0,3.758,-0.129,2.882,-1.619,0.007,-0.014,0.998,0.000,0.000,0.000,0.3350,0,0,-1.11,0.38,0.41,0.0948,-0.0611,0.3361,0.0000,0.0000,0.3000,0.2552,-5.55,4.00,-48.61,1.6810,0.4260,1.4770,0.0000,2.3680,0,0.0000,0.0000,0.0000,0.0000,0.0000,0
9255,0.0512,-0.0563,0.3351,-0.0013,-0.0236,0.0367,-0.45,0.01,1.54,0,3.758,-0.967,1.255,-0.543,0.004,-0.012,0.999,0.000,0.000,0.000,0.3350,0,1,-1.12,0.23,0.32,0.0950,-0.0621,0.3378,0.0000,0.0000,0.3000,0.2545,-5.26,3.68,-46.22,1.6810,0.4370,1.4770,1.2370,2.3650,0,0.0000,0.0000,0.0000,0.0000,0.0000,0
9306,0.0498,-0.0571,0.3369,-0.0037,-0.0193,0.0370,-0.45,-0.02,1.48,0,3.758,2.832,3.948,-0.768,0.004,-0.019,0.999,0.000,0.000,0.000,0.3410,0,0,-1.20,0.22,0.27,0.0908,-0.0601,0.3388,0.0000,0.0000,0.3000,0.2541,-5.11,3.47,-44.54,1.6820,0.4370,1.4770,1.2370,2.3650,0,0.0000,0.0000,0.0000,0.0000,0.0000,0
9357,0.0478,-0.0556,0.3396,-0.0065,-0.0113,0.0403,-0.42,-0.11,1.45,0,3.758,0.976,-1.147,0.799,0.003,-0.016,0.998,0.000,0.000,0.000,0.3410,0,-1,-1.05,0.02,0.22,0.0901,-0.0603,0.3413,0.0000,0.0000,0.3000,0.2532,-4.63,3.20,-43.40,1.6820,0.4370,1.4790,1.2420,2.3690,0,0.0000,0.0000,0.0000,0.0000,0.0000,0
9408,0.0471,-0.0504,0.3423,-0.0063,0.0018,0.0424,-0.35,-0.18,1.48,0,3.753,2.250,1.263,-1.017,0.008,-0.014,0.995,0.000,0.000,0.000,0.3400,0,0,-1.01,0.03,0.29,0.0932,-0.0601,0.3430,0.0000,0.0000,0.3000,0.2525,-3.63,3.17,-44.35,1.6810,0.4370,1.4790,1.2420,2.3690,0,0.0000,0.0000,0.0000,0.0000,0.0000,0
9459,0.0485,-0.0484,0.3436,-0.0022,0.0075,0.0369,-0.24,-0.10,1.45,0,3.753,2.463,-2.023,0.673,0.003,-0.018,0.996,0.000,0.000,0.000,0.3480,0,1,-0.89,-0.03,0.23,0.0936,-0.0601,0.3437,0.0000,0.0000,0.3000,0.2529,-3.21,3.46,-43.39,1.6810,0.4380,1.4760,1.2480,2.3500,0,0.0000,0.0000,0.0000,0.0000,0.0000,0
9510,0.0477,-0.0439,0.3436,-0.0024,0.0160,0.0275,-0.08,-0.04,1.44,0,3.753,1.451,1.163,-0.521,0.004,-0.014,0.995,0.000,0.000,0.000,0.3480,0,-1,-0.77,0.12,0.25,0.0903,-0.0601,0.3465,0.0000,0.0000,0.3000,0.2539,-2.45,3.39,-43.20,1.6850,0.4380,1.4760,1.2480,2.3500,0,0.0000,0.0000,0.0000,0.0000,0.0000,0
9561,0.0423,-0.0456,0.3471,-0.0108,0.0124,0.0357,0.10,-0.06,1.40,0,3.753,1.182,2.655,-1.799,0.006,-0.013,0.995,0.000,0.000,0.000,0.3500,0,0,-0.69,0.03,0.23,0.0919,-0.0601,0.3485,0.0000,0.0000,0.3000,0.2523,-2.77,2.60,-42.07,1.6850,0.4350,1.4830,1.2570,2.3590,0,0.0000,0.0000,0.0000,0.0000,0.0000,0
9612,0.0375,-0.0415,0.3493,-0.0176,0.0171,0.0355,0.20,-0.06,1.31,0,3.753,-2.445,3.649,-2.472,0.002,-0.013,0.995,0.000,0.000,0.000,0.3500,0,0,-0.63,-0.10,0.14,0.0922,-0.0601,0.3504,0.0000,0.0000,0.3000,0.2519,-2.24,1.92,-39.28,1.6840,0.4350,1.4830,1.2570,2.3590,0,0.0000,0.0000,0.0000,0.0000,0.0000,0
9664,0.0357,-0.0410,0.3512,-0.0187,0.0150,0.0332,0.19,-0.15,1.19,0,3.758,1.440,6.113,-2.103,0.005,-0.016,1.001,0.000,0.000,0.000,0.3500,0,2,-0.76,-0.28,0.01,0.0925,-0.0602,0.3517,0.0000,0.0000,0.3000,0.2518,-2.31,1.73,-35.56,1.6840,0.4430,1.4760,0.0000,2.3490,0,0.0000,0.0000,0.0000,0.0000,0.0000,0
9716,0.0359,-0.0392,0.3522,-0.0151,0.0153,0.0292,0.23,-0.33,1.07,0,3.748,0.150,-2.747,-1.638,0.005,-0.013,0.995,0.000,0.000,0.000,0.3490,0,0,-0.69,-0.51,-0.12,0.0834,-0.0598,0.3526,0.0000,0.0000,0.3000,0.2520,-2.16,1.93,-32.13,1.6840,0.4430,1.4760,0.0000,2.3490,0,0.0000,0.0000,0.0000,0.0000,0.0000,0
9767,0.0348,-0.0367,0.3523,-0.0129,0.0157,0.0205,0.40,-0.31,0.97,0,3.748,-2.363,-0.105,-2.158,0.007,-0.012,1.001,0.000,0.000,0.000,0.3520,0,0,-0.68,-0.36,-0.21,0.0825,-0.0599,0.3527,0.0000,0.0000,0.3000,0.2530,-1.95,1.94,-29.16,1.6840,0.4460,1.4790,1.3220,2.3460,0,0.0000,0.0000,0.0000,0.0000,0.0000,0
9818,0.0342,-0.0360,0.3516,-0.0102,0.0126,0.0122,0.29,-0.30,0.90,0,3.748,-0.996,-2.295,-1.886,0.004,-0.011,0.999,0.000,0.000,0.000,0.3510,0,0,-0.81,-0.36,-0.32,0.0818,-0.0600,0.3535,0.0000,0.0000,0.3000,0.2540,-2.04,2.02,-26.87,1.6860,0.4460,1.4790,1.3220,2.3460,0,0.0000,0.0000,0.0000,0.0000,0.0000,0
9869,0.0337,-0.0354,0.3523,-0.0077,0.0101,0.0123,0.31,-0.24,0.81,0,3.748,-1.038,-2.997,-0.949,0.002,-0.011,1.002,0.000,0.000,0.000,0.3510,0,0,-0.86,-0.24,-0.41,0.0815,-0.0600,0.3537,0.0000,0.0000,0.3000,0.2538,-2.13,2.11,-24.19,1.6860,0.4530,1.4750,1.3360,2.3480,0,0.0000,0.0000,0.0000,0.0000,0.0000,0
9920,0.0351,-0.0350,0.3522,-0.0033,0.0075,0.0084,0.29,-0.05,0.74,0,3.748,-2.343,-2.905,-2.035,0.006,-0.013,1.000,0.000,0.000,0.000,0.3530,2,0,-0.91,-0.08,-0.46,0.0813,-0.0599,0.3538,0.0000,0.0000,0.3000,0.2543,-2.22,2.42,-22.24,1.6910,0.4530,1.4750,1.3360,2.3480,0,0.0000,0.0000,0.0000,0.0000,0.0000,0
9971,0.0349,-0.0347,0.3520,-0.0031,0.0051,0.0056,0.22,0.08,0.65,0,3.748,-1.976,0.751,-2.578,0.004,-0.014,1.003,0.000,0.000,0.000,0.3540,3,1,-0.97,0.07,-0.49,0.0813,-0.0667,0.3544,0.0000,0.0000,0.3000,0.2546,-2.31,2.42,-19.49,1.6910,0.4470,1.4720,1.3460,2.3510,0,0.0000,0.0000,0.0000,0.0000,0.0000,0
10023,0.0394,-0.0398,0.3528,0.0035,-0.0047,0.0086,0.16,0.06,0.54,0,3.743,-4.114,-0.283,-1.988,0.002,-0.011,1.004,0.000,0.000,0.000,0.3530,0,0,-1.04,0.04,-0.60,0.0805,-0.0700,0.3551,0.0000,0.0000,0.3000,0.2541,-3.16,3.07,-16.29,1.6780,0.4470,1.4720,1.3460,2.3510,0,0.0000,0.0000,0.0000,0.0000,0.0000,0
10073,0.0397,-0.0497,0.3538,0.0033,-0.0205,0.0120,0.06,0.07,0.46,0,3.748,-6.617,-0.964,-1.497,0.004,-0.009,1.002,0.000,0.000,0.000,0.3530,0,0,-1.26,0.06,-0.70,0.0804,-0.0714,0.3553,0.0000,0.0000,0.3000,0.2536,-4.66,3.09,-13.80,1.6780,0.4380,1.4750,1.3910,2.3420,0,0.0000,0.0000,0.0000,0.0000,0.0000,0
10124,0.0414,-0.0490,0.3541,0.0051,-0.0180,0.0121,-0.19,0.13,0.37,0,3.743,-1.546,-0.897,-1.989,0.003,-0.011,1.003,0.000,0.000,0.000,0.3550,3,0,-1.59,0.11,-0.78,0.0803,-0.0726,0.3555,0.0000,0.0000,0.3000,0.2535,-4.49,3.30,-11.19,1.6820,0.4380,1.4750,1.3910,2.3420,0,0.0000,0.0000,0.0000,0.0000,0.0000,0
10176,0.0412,-0.0512,0.3536,0.0034,-0.0181,0.0094,-0.28,0.13,0.28,0,3.748,0.387,-2.551,-1.723,-0.001,-0.008,0.998,0.000,0.000,0.000,0.3540,4,0,-1.59,0.16,-0.82,0.0803,-0.0797,0.3563,0.0000,0.0000,0.3000,0.2539,-4.65,3.20,-8.42,1.6820,0.4470,1.4770,1.3860,2.3520,0,0.0000,0.0000,0.0000,0.0000,0.0000,0
10226,0.0410,-0.0529,0.3548,0.0016,-0.0165,0.0132,-0.22,0.19,0.22,0,3.743,-1.187,3.368,-3.085,0.002,-0.009,0.998,0.000,0.000,0.000,0.3540,0,0,-1.52,0.29,-0.88,0.0801,-0.0855,0.3563,0.0000,0.0000,0.3000,0.2532,-4.71,3.11,-6.45,1.6860,0.4470,1.4770,1.3860,2.3520,0,0.0000,0.0000,0.0000,0.0000,0.0000,0
10277,0.0407,-0.0686,0.3550,-0.0004,-0.0364,0.0112,-0.36,0.09,0.08,0,3.748,-5.664,-1.944,-3.746,0.007,-0.012,1.000,0.000,0.000,0.000,0.3580,0,0,-1.58,0.13,-1.04,0.0799,-0.0879,0.3562,0.0000,0.0000,0.3000,0.2534,-6.80,2.99,-2.54,1.6860,0.4370,1.4790,1.4200,2.3400,0,0.0000,0.0000,0.0000,0.0000,0.0000,0
10328,0.0403,-0.0746,0.3550,-0.0018,-0.0395,0.0086,-0.60,0.16,-0.09,0,3.743,-2.904,1.637,-2.758,0.007,-0.013,0.997,0.000,0.000,0.000,0.3560,-1,0,-1.87,0.23,-1.23,0.0798,-0.0899,0.3574,0.0000,0.0000,0.3000,0.2537,-7.37,2.89,2.63,1.6830,0.4370,1.4790,1.4200,2.3400,0,0.0000,0.0000,0.0000,0.0000,0.0000,0
10379,0.0406,-0.0770,0.3570,-0.0025,-0.0349,0.0152,-0.79,0.11,-0.25,0,3.748,-0.956,-2.823,-2.520,0.006,-0.011,1.002,0.000,0.000,0.000,0.3530,0,0,-2.09,0.15,-1.40,0.0799,-0.0841,0.3575,0.0000,0.0000,0.3000,0.2526,-7.36,2.89,7.62,1.6830,0.4430,1.4710,1.4460,2.3420,0,0.0000,0.0000,0.0000,0.0000,0.0000,0
10431,0.0432,-0.0787,0.3572,0.0006,-0.0282,0.0138,-0.86,0.17,-0.39,0,3.743,0.984,2.311,-1.805,0.003,-0.014,1.000,0.000,0.000,0.000,0.3590,0,1,-2.14,0.30,-1.53,0.0800,-0.0834,0.3566,0.0000,0.0000,0.3000,0.2527,-7.16,3.23,11.55,1.6830,0.4430,1.4710,1.4460,2.3420,0,0.0000,0.0000,0.0000,0.0000,0.0000,0
10482,0.0415,-0.0755,0.3556,-0.0034,-0.0144,0.0027,-0.74,0.10,-0.50,0,3.748,-1.345,-1.379,-0.992,0.005,-0.012,1.001,0.000,0.000,0.000,0.3580,0,1,-2.07,0.21,-1.67,0.0774,-0.0839,0.3578,0.0000,0.0000,0.3000,0.2542,-6.23,2.89,15.07,1.6830,0.4470,1.4740,1.4620,2.3470,0,0.0000,0.0000,0.0000,0.0000,0.0000,0
10534,0.0401,-0.0736,0.3575,-0.0058,-0.0044,0.0110,-0.70,0.10,-0.57,0,3.743,3.970,-1.911,-1.417,0.005,-0.016,0.998,0.000,0.000,0.000,0.3590,0,0,-2.13,0.30,-1.74,0.0755,-0.0830,0.3584,0.0000,0.0000,0.3000,0.2529,-5.64,2.68,17.16,1.6850,0.4470,1.4740,1.4620,2.3470,0,0.0000,0.0000,0.0000,0.0000,0.0000,0
10586,0.0379,-0.0739,0.3583,-0.0093,0.0011,0.0123,-0.57,0.13,-0.61,0,3.748,5.918,5.754,0.358,0.005,-0.015,1.000,0.000,0.000,0.000,0.3590,-1,0,-1.92,0.40,-1.81,0.0747,-0.0810,0.3590,0.0000,0.0000,0.3000,0.2527,-5.40,2.36,18.29,1.6850,0.4490,1.4780,1.4730,2.3440,0,0.0000,0.0000,0.0000,0.0000,0.0000,0
10636,0.0367,-0.0735,0.3592,-0.0113,0.0060,0.0128,-0.43,-0.03,-0.60,0,3.737,2.039,-0.393,1.278,0.004,-0.013,0.997,0.000,0.000,0.000,0.3600,0,1,-1.61,0.08,-1.77,0.0755,-0.0798,0.3595,0.0000,0.0000,0.3000,0.2524,-5.13,2.18,18.00,1.6780,0.4490,1.4780,1.4730,2.3440,0,0.0000,0.0000,0.0000,0.0000,0.0000,0
10687,0.0362,-0.0646,0.3596,-0.0112,0.0224,0.0105,-0.31,-0.04,-0.57,0,3.743,2.218,0.267,2.237,0.005,-0.018,0.996,0.000,0.000,0.000,0.3600,-1,0,-1.49,0.12,-1.73,0.0735,-0.0784,0.3601,0.0000,0.0000,0.3000,0.2526,-3.69,2.15,16.99,1.6780,0.4490,1.4720,1.4830,2.3390,0,0.0000,0.0000,0.0000,0.0000,0.0000,0
10739,0.0364,-0.0636,0.3603,-0.0095,0.0242,0.0093,-0.07,-0.11,-0.46,0,3.743,4.207,3.856,2.054,0.002,-0.017,0.994,0.000,0.000,0.000,0.3590,-1,-1,-1.39,0.10,-1.61,0.0733,-0.0752,0.3604,0.0000,0.0000,0.3000,0.2526,-3.53,2.24,13.95,1.6770,0.4490,1.4720,1.4830,2.3390,0,0.0000,0.0000,0.0000,0.0000,0.0000,0
10790,0.0337,-0.0605,0.3610,-0.0117,0.0272,0.0087,0.10,-0.21,-0.35,0,3.743,1.839,2.846,1.968,0.001,-0.014,0.999,0.000,0.000,0.000,0.3590,0,0,-1.17,-0.13,-1.47,0.0755,-0.0720,0.3602,0.0000,0.0000,0.3000,0.2525,-3.16,1.94,10.41,1.6770,0.4510,1.4770,1.4580,2.3450,0,0.0000,0.0000,0.0000,0.0000,0.0000,0
10842,0.0354,-0.0571,0.3604,-0.0065,0.0293,0.0026,0.26,-0.25,-0.26,0,3.737,2.703,1.412,1.305,0.004,-0.014,0.998,0.000,0.000,0.000,0.3590,0,1,-1.08,-0.28,-1.37,0.0757,-0.0688,0.3599,0.0000,0.0000,0.3000,0.2533,-2.80,2.31,7.74,1.6780,0.4510,1.4770,1.4580,2.3450,0,0.0000,0.0000,0.0000,0.0000,0.0000,0
10893,0.0352,-0.0533,0.3587,-0.0044,0.0308,-0.0052,0.37,-0.21,-0.19,0,3.743,2.402,-2.010,1.484,0.001,-0.014,1.005,0.000,0.000,0.000,0.3580,0,0,-0.88,-0.31,-1.32,0.0711,-0.0730,0.3598,0.0000,0.0000,0.3000,0.2544,-2.43,2.38,5.60,1.6780,0.4510,1.4800,1.4450,2.3390,0,0.0000,0.0000,0.0000,0.0000,0.0000,0
10944,0.0327,-0.0502,0.3586,-0.0061,0.0300,-0.0039,0.48,-0.14,-0.11,0,3.732,0.717,-1.891,0.542,0.000,-0.015,1.000,0.000,0.000,0.000,0.3580,0,-1,-0.76,-0.21,-1.24,0.0706,-0.0712,0.3594,0.0000,0.0000,0.3000,0.2543,-2.25,2.12,3.29,1.6790,0.4510,1.4800,1.4450,2.3390,0,0.0000,0.0000,0.0000,0.0000,0.0000,0
10995,0.0335,-0.0487,0.3581,-0.0036,0.0261,-0.0045,0.47,-0.03,-0.06,0,3.737,0.194,-0.250,0.353,0.002,-0.014,1.004,0.000,0.000,0.000,0.3610,1,0,-0.69,-0.15,-1.17,0.0749,-0.0733,0.3590,0.0000,0.0000,0.3000,0.2545,-2.33,2.30,1.82,1.6790,0.4480,1.4790,1.4390,2.3460,0,0.0000,0.0000,0.0000,0.0000,0.0000,0
11047,0.0352,-0.0480,0.3579,-0.0006,0.0213,-0.0036,0.52,0.01,-0.04,0,3.737,0.330,0.102,1.342,0.004,-0.012,0.999,0.000,0.000,0.000,0.3600,0,0,-0.66,-0.14,-1.13,0.0751,-0.0749,0.3598,0.0000,0.0000,0.3000,0.2544,-2.51,2.57,1.15,1.6790,0.4480,1.4790,1.4390,2.3460,0,0.0000,0.0000,0.0000,0.0000,0.0000,0
11098,0.0369,-0.0495,0.3593,0.0021,0.0128,0.0031,0.62,0.02,0.01,0,3.737,-3.474,-1.862,1.197,0.000,-0.012,1.001,0.000,0.000,0.000,0.3590,1,0,-0.64,-0.14,-1.06,0.0759,-0.0745,0.3600,0.0000,0.0000,0.3000,0.2534,-3.04,2.84,-0.32,1.6790,0.4450,1.4820,1.4290,2.3400,0,0.0000,0.0000,0.0000,0.0000,0.0000,0
11149,0.0381,-0.0520,0.3598,0.0036,0.0027,0.0031,0.53,0.10,0.06,0,3.737,-3.620,-1.138,-0.199,0.006,-0.010,0.996,0.000,0.000,0.000,0.3610,1,0,-0.78,-0.04,-0.97,0.0749,-0.0789,0.3599,0.0000,0.0000,0.3000,0.2533,-3.72,3.00,-1.67,1.6810,0.4450,1.4820,1.4290,2.3400,0,0.0000,0.0000,0.0000,0.0000,0.0000,0
11200,0.0389,-0.0542,0.3595,0.0037,-0.0047,0.0004,0.30,0.18,0.08,0,3.743,-4.827,1.581,1.894,0.005,-0.011,0.998,0.000,0.000,0.000,0.3560,0,0,-0.95,0.03,-0.97,0.0751,-0.0812,0.3603,0.0000,0.0000,0.3000,0.2537,-4.24,3.06,-2.42,1.6810,0.4490,1.4850,1.4250,2.3420,0,0.0000,0.0000,0.0000,0.0000,0.0000,0
11251,0.0386,-0.0591,0.3602,0.0016,-0.0143,0.0023,0.15,0.12,0.15,0,3.732,-3.848,0.121,1.394,0.002,-0.013,0.996,0.000,0.000,0.000,0.3580,2,-2,-1.20,-0.06,-0.87,0.0757,-0.0819,0.3590,0.0000,0.0000,0.3000,0.2533,-5.07,2.94,-4.48,1.6810,0.4490,1.4850,1.4250,2.3420,0,0.0000,0.0000,0.0000,0.0000,0.0000,0
11302,0.0386,-0.0640,0.3581,0.0007,-0.0223,-0.0079,0.02,0.09,0.20,0,3.737,-5.497,-2.074,1.413,0.004,-0.008,1.000,0.000,0.000,0.000,0.3550,1,0,-1.34,-0.11,-0.76,0.0827,-0.0894,0.3585,0.0000,0.0000,0.3000,0.2548,-5.78,2.88,-6.09,1.6810,0.4390,1.4870,0.0000,2.3370,0,0.0000,0.0000,0.0000,0.0000,0.0000,0
11354,0.0414,-0.0693,0.3577,0.0042,-0.0286,-0.0084,-0.31,0.15,0.27,0,3.732,-2.954,-1.566,2.286,0.005,-0.010,1.002,0.000,0.000,0.000,0.3570,0,0,-1.61,0.00,-0.68,0.0835,-0.0921,0.3571,0.0000,0.0000,0.3000,0.2549,-6.46,3.25,-8.06,1.6790,0.4390,1.4870,0.0000,2.3370,0,0.0000,0.0000,0.0000,0.0000,0.0000,0
11405,0.0417,-0.0702,0.3559,0.0029,-0.0248,-0.0130,-0.50,0.20,0.34,0,3.737,-0.820,-0.836,1.684,-0.001,-0.015,1.002,0.000,0.000,0.000,0.3570,0,0,-1.77,0.08,-0.56,0.0854,-0.0933,0.3567,0.0000,0.0000,0.3000,0.2558,-6.32,3.20,-10.32,1.6790,0.4380,1.4810,1.3940,2.3370,0,0.0000,0.0000,0.0000,0.0000,0.0000,0
11456,0.0432,-0.0751,0.3558,0.0034,-0.0271,-0.0092,-0.49,0.20,0.43,0,3.727,-1.477,1.292,1.701,0.004,-0.011,1.003,0.000,0.000,0.000,0.3540,4,0,-1.81,0.12,-0.48,0.0873,-0.0941,0.3565,0.0000,0.0000,0.3000,0.2554,-6.79,3.34,-12.78,1.6810,0.4380,1.4810,1.3940,2.3370,0,0.0000,0.0000,0.0000,0.0000,0.0000,0
11507,0.0433,-0.0761,0.3561,0.0020,-0.0235,-0.0054,-0.57,0.20,0.50,0,3.732,-2.596,-1.466,1.301,0.000,-0.009,1.003,0.000,0.000,0.000,0.3570,0,0,-1.77,0.10,-0.36,0.0820,-0.1109,0.3557,0.0000,0.0000,0.3000,0.2549,-6.71,3.29,-15.03,1.6810,0.4310,1.4880,1.3670,2.3440,0,0.0000,0.0000,0.0000,0.0000,0.0000,0
11559,0.0428,-0.0827,0.3547,-0.0006,-0.0261,-0.0076,-0.69,0.19,0.57,0,3.732,-2.554,1.577,1.534,0.001,-0.011,1.002,0.000,0.000,0.000,0.3550,0,0,-1.91,0.17,-0.29,0.0826,-0.1136,0.3559,0.0000,0.0000,0.3000,0.2554,-7.29,3.12,-17.11,1.6810,0.4310,1.4880,1.3670,2.3440,0,0.0000,0.0000,0.0000,0.0000,0.0000,0
11610,0.0431,-0.0859,0.3556,-0.0015,-0.0252,0.0002,-0.76,0.16,0.65,0,3.732,0.507,1.715,1.621,0.003,-0.010,1.005,0.000,0.000,0.000,0.3540,0,0,-2.04,0.09,-0.21,0.0831,-0.1156,0.3555,0.0382,-0.0570,0.3000,0.2544,-3.39,0.32,-19.48,1.6810,0.4390,1.4840,1.3390,2.3380,0,0.0000,0.0000,0.0000,0.0000,0.0000,0
11660,0.0430,-0.0871,0.3554,-0.0029,-0.0188,0.0008,-0.68,0.11,0.69,0,3.727,1.784,1.081,0.478,0.006,-0.009,1.005,0.000,0.000,0.000,0.3570,0,1,-2.01,-0.00,-0.13,0.0837,-0.1170,0.3550,0.0382,-0.0570,0.3000,0.2544,-3.16,0.24,-20.80,1.6750,0.4390,1.4840,1.3390,2.3380,0,0.0000,0.0000,0.0000,0.0000,0.0000,0
11711,0.0435,-0.0893,0.3547,-0.0025,-0.0154,-0.0009,-0.65,0.06,0.73,0,3.732,-0.229,1.053,-0.047,0.004,-0.008,0.999,0.000,0.000,0.000,0.3540,0,0,-1.95,-0.01,-0.19,0.0778,-0.1149,0.3557,0.0382,-0.0570,0.3000,0.2547,-3.16,0.31,-21.78,1.6750,0.4330,1.4860,1.3320,2.3480,0,0.0000,0.0000,0.0000,0.0000,0.0000,0
11762,0.0416,-0.0896,0.3559,-0.0060,-0.0092,0.0048,-0.59,0.06,0.71,0,3.732,2.632,1.491,-0.734,0.002,-0.013,0.997,0.000,0.000,0.000,0.3550,0,0,-1.96,-0.07,-0.19,0.0774,-0.1145,0.3552,0.0382,-0.0570,0.3000,0.2538,-2.89,-0.00,-21.31,1.6760,0.4330,1.4860,1.3320,2.3480,0,0.0000,0.0000,0.0000,0.0000,0.0000,0
11814,0.0396,-0.0899,0.3551,-0.0096,-0.0041,0.0010,-0.48,0.06,0.68,0,3.732,1.405,2.723,-0.852,0.003,-0.011,0.999,0.000,0.000,0.000,0.3530,-2,0,-1.82,-0.14,-0.23,0.0771,-0.1135,0.3551,0.0382,-0.0570,0.3000,0.2544,-2.66,-0.32,-20.51,1.6760,0.4260,1.4880,1.3420,2.3360,0,0.0000,0.0000,0.0000,0.0000,0.0000,0
11865,0.0407,-0.0852,0.3551,-0.0072,0.0085,0.0001,-0.45,-0.00,0.65,0,3.727,5.817,3.136,-1.841,0.001,-0.013,0.996,0.000,0.000,0.000,0.3540,0,0,-1.77,-0.28,-0.29,0.0774,-0.1101,0.3543,0.0382,-0.0570,0.3000,0.2545,-1.70,-0.12,-19.52,1.6780,0.4260,1.4880,1.3420,2.3360,0,0.0000,0.0000,0.0000,0.0000,0.0000,0
11916,0.0374,-0.0770,0.3540,-0.0124,0.0256,-0.0046,-0.27,-0.06,0.60,0,3.732,6.785,1.362,-1.304,0.003,-0.014,1.003,0.000,0.000,0.000,0.3540,-1,0,-1.47,-0.44,-0.38,0.0775,-0.1077,0.3539,0.0382,-0.0570,0.3000,0.2552,-0.27,-0.62,-17.93,1.6780,0.4270,1.4920,1.3570,2.3400,0,0.0000,0.0000,0.0000,0.0000,0.0000,0
11967,0.0367,-0.0755,0.3537,-0.0116,0.0279,-0.0045,0.04,-0.09,0.53,0,3.727,2.459,-0.729,-1.155,0.003,-0.012,1.003,0.000,0.000,0.000,0.3530,0,0,-1.11,-0.51,-0.45,0.0774,-0.1061,0.3537,0.0382,-0.0570,0.3000,0.2552,-0.05,-0.63,-15.79,1.6660,0.4270,1.4920,1.3570,2.3400,0,0.0000,0.0000,0.0000,0.0000,0.0000,0
12018,0.0396,-0.0751,0.3532,-0.0052,0.0263,-0.0057,0.20,-0.07,0.47,0,3.727,4.320,0.732,-1.860,0.001,-0.012,1.005,0.000,0.000,0.000,0.3540,-1,0,-0.99,-0.47,-0.51,0.0779,-0.1036,0.3533,0.0382,-0.0570,0.3000,0.2554,-0.10,-0.11,-14.03,1.6660,0.4270,1.4910,1.3550,2.3530,0,0.0000,0.0000,0.0000,0.0000,0.0000,0
12069,0.0395,-0.0694,0.3528,-0.0042,0.0325,-0.0059,0.29,-0.07,0.41,0,3.727,0.770,-1.212,-1.176,0.000,-0.008,1.003,0.000,0.000,0.000,0.3530,-1,0,-0.76,-0.49,-0.59,0.0776,-0.1022,0.3535,0.0382,-0.0570,0.3000,0.2555,0.62,-0.07,-12.25,1.6720,0.4270,1.4910,1.3550,2.3530,0,0.0000,0.0000,0.0000,0.0000,0.0000,0
12120,0.0393,-0.0664,0.3532,-0.0037,0.0324,-0.0020,0.35,-0.07,0.33,0,3.727,3.501,-3.244,-0.651,0.003,-0.013,1.002,0.000,0.000,0.000,0.3530,-1,0,-0.72,-0.43,-0.66,0.0780,-0.0993,0.3534,0.0382,-0.0570,0.3000,0.2550,0.83,-0.06,-9.92,1.6720,0.4400,1.4860,1.3690,2.3440,0,0.0000,0.0000,0.0000,0.0000,0.0000,0
12172,0.0394,-0.0616,0.3530,-0.0027,0.0348,-0.0013,0.49,-0.02,0.28,0,3.727,-0.853,0.706,-0.879,0.003,-0.012,0.998,0.000,0.000,0.000,0.3530,0,0,-0.55,-0.26,-0.70,0.0785,-0.0961,0.3534,0.0382,-0.0570,0.3000,0.2550,1.30,-0.00,-8.47,1.6770,0.4400,1.4860,1.3690,2.3440,0,0.0000,0.0000,0.0000,0.0000,0.0000,0
12223,0.0399,-0.0585,0.3529,-0.0015,0.0329,-0.0018,0.57,-0.06,0.22,0,3.727,1.763,0.189,-1.361,0.006,-0.011,1.002,0.000,0.000,0.000,0.3500,0,-1,-0.59,-0.29,-0.74,0.0795,-0.0935,0.3532,0.0382,-0.0570,0.3000,0.2551,1.43,0.09,-6.63,1.6770,0.4410,1.4890,1.3880,2.3480,0,0.0000,0.0000,0.0000,0.0000,0.0000,0
12274,0.0399,-0.0561,0.3529,-0.0008,0.0298,-0.0010,0.61,-0.07,0.16,0,3.721,0.934,-2.787,0.055,-0.001,-0.012,0.999,0.000,0.000,0.000,0.3510,1,0,-0.46,-0.31,-0.76,0.0817,-0.0962,0.3523,0.0382,-0.0570,0.3000,0.2550,1.45,0.12,-4.90,1.6650,0.4410,1.4890,1.3880,2.3480,0,0.0000,0.0000,0.0000,0.0000,0.0000,0
12326,0.0474,-0.0593,0.3514,0.0125,0.0168,-0.0076,0.73,-0.05,0.15,0,3.727,-1.985,-4.449,-0.261,0.001,-0.014,0.998,0.000,0.000,0.000,0.3490,0,0,-0.39,-0.16,-0.73,0.0825,-0.0974,0.3518,0.0382,-0.0570,0.3000,0.2560,0.59,1.31,-4.38,1.6650,0.4430,1.4850,1.3680,2.3470,0,0.0000,0.0000,0.0000,0.0000,0.0000,0
12377,0.0462,-0.0647,0.3508,0.0098,0.0004,-0.0086,0.59,0.09,0.16,0,3.721,-7.210,-0.662,0.060,0.001,-0.011,1.006,0.000,0.000,0.000,0.3530,1,0,-0.49,0.07,-0.74,0.0839,-0.0968,0.3507,0.0382,-0.0570,0.3000,0.2562,-0.60,1.10,-4.92,1.6700,0.4430,1.4850,1.3680,2.3470,0,0.0000,0.0000,0.0000,0.0000,0.0000,0
12427,0.0498,-0.0671,0.3495,0.0142,-0.0083,-0.0115,0.28,0.19,0.17,0,3.727,-4.348,0.125,0.468,0.002,-0.012,1.006,0.000,0.000,0.000,0.3510,1,0,-0.83,0.13,-0.69,0.0823,-0.1010,0.3513,0.0382,-0.0570,0.3000,0.2567,-1.19,1.56,-5.25,1.6700,0.4360,1.4950,1.3640,2.3500,0,0.0000,0.0000,0.0000,0.0000,0.0000,0
12478,0.0521,-0.0704,0.3508,0.0157,-0.0152,-0.0007,0.09,0.21,0.18,0,3.721,-5.051,-1.817,0.694,0.002,-0.011,1.000,0.000,0.000,0.000,0.3470,0,-1,-1.03,0.12,-0.65,0.0826,-0.1031,0.3513,0.0382,-0.0570,0.3000,0.2553,-1.77,1.82,-5.48,1.6670,0.4360,1.4950,1.3640,2.3500,0,0.0000,0.0000,0.0000,0.0000,0.0000,0
12529,0.0519,-0.0782,0.3509,0.0124,-0.0279,0.0008,-0.08,0.26,0.20,0,3.721,-3.635,-0.450,-0.186,0.000,-0.011,0.998,0.000,0.000,0.000,0.3470,1,0,-1.29,0.20,-0.62,0.0851,-0.1034,0.3500,0.0382,-0.0570,0.3000,0.2551,-2.95,1.64,-6.14,1.6670,0.4210,1.4980,1.3450,2.3470,0,0.0000,0.0000,0.0000,0.0000,0.0000,0
12581,0.0531,-0.0809,0.3490,0.0111,-0.0296,-0.0078,-0.24,0.34,0.19,0,3.721,-3.472,-1.640,0.611,0.000,-0.013,0.998,0.000,0.000,0.000,0.3460,1,0,-1.46,0.23,-0.62,0.0854,-0.1059,0.3489,0.0382,-0.0570,0.3000,0.2564,-3.22,1.66,-5.75,1.6750,0.4210,1.4980,1.3450,2.3470,0,0.0000,0.0000,0.0000,0.0000,0.0000,0
12631,0.0540,-0.0816,0.3476,0.0089,-0.0262,-0.0121,-0.37,0.41,0.22,0,3.721,-2.206,5.345,0.286,0.002,-0.014,1.002,0.000,0.000,0.000,0.3460,0,0,-1.62,0.32,-0.58,0.0855,-0.1087,0.3476,0.0382,-0.0570,0.3000,0.2572,-3.09,1.61,-6.50,1.6750,0.4190,1.4960,1.3440,2.3510,0,0.0000,0.0000,0.0000,0.0000,0.0000,0
12682,0.0553,-0.0985,0.3462,0.0072,-0.0500,-0.0150,-0.55,0.22,0.25,0,3.721,-7.120,2.386,0.526,0.006,-0.013,1.004,0.000,0.000,0.000,0.3480,2,0,-1.73,0.05,-0.58,0.0861,-0.1091,0.3467,0.0382,-0.0570,0.3000,0.2577,-5.43,1.61,-7.43,1.6660,0.4190,1.4960,1.3440,2.3510,0,0.0000,0.0000,0.0000,0.0000,0.0000,0
12733,0.0554,-0.1008,0.3455,0.0048,-0.0452,-0.0122,-0.72,0.25,0.26,0,3.721,-3.095,-0.329,0.302,0.002,-0.009,1.006,0.000,0.000,0.000,0.3480,2,0,-2.04,-0.06,-0.55,0.0850,-0.1178,0.3468,0.0382,-0.0570,0.3000,0.2576,-5.37,1.51,-7.95,1.6660,0.4020,1.4970,0.0000,2.3470,0,0.0000,0.0000,0.0000,0.0000,0.0000,0
12784,0.0546,-0.1072,0.3463,0.0009,-0.0465,-0.0040,-0.89,0.25,0.30,0,3.721,-1.536,0.883,0.483,0.003,-0.015,1.001,0.000,0.000,0.000,0.3490,0,0,-2.17,-0.04,-0.53,0.0851,-0.1229,0.3471,0.0382,-0.0570,0.3000,0.2565,-5.92,1.27,-8.95,1.6610,0.4020,1.4970,0.0000,2.3470,0,0.0000,0.0000,0.0000,0.0000,0.0000,0
12835,0.0564,-0.1125,0.3485,0.0023,-0.0441,0.0080,-1.04,0.17,0.34,0,3.721,-0.662,2.758,1.390,0.001,-0.013,0.997,0.000,0.000,0.000,0.3490,0,0,-2.25,-0.09,-0.50,0.0855,-0.1240,0.3476,0.0382,-0.0570,0.3000,0.2548,-6.22,1.48,-10.31,1.6610,0.0000,1.5020,1.3350,2.3510,0,0.0000,0.0000,0.0000,0.0000,0.0000,0
12887,0.0564,-0.1150,0.3492,0.0005,-0.0360,0.0083,-0.97,0.09,0.41,0,3.721,1.021,3.202,0.127,0.004,-0.016,0.998,0.000,0.000,0.000,0.3470,0,0,-2.28,-0.23,-0.44,0.0861,-0.1244,0.3480,0.0382,-0.0570,0.3000,0.2546,-6.02,1.39,-12.15,1.6610,0.0000,1.5020,1.3350,2.3510,0,0.0000,0.0000,0.0000,0.0000,0.0000,0
12938,0.0551,-0.1158,0.3494,-0.0026,-0.0264,0.0066,-0.95,0.03,0.43,0,3.721,1.819,0.307,0.565,-0.001,-0.014,1.001,0.000,0.000,0.000,0.3460,0,0,-2.23,-0.40,-0.44,0.0869,-0.1242,0.3476,0.0382,-0.0570,0.3000,0.2548,-5.62,1.15,-13.05,1.6610,0.3890,1.5020,0.0000,2.3510,0,0.0000,0.0000,0.0000,0.0000,0.0000,0
12989,0.0550,-0.1170,0.3485,-0.0030,-0.0185,0.0004,-0.87,0.05,0.46,0,3.716,3.079,1.036,-0.258,0.002,-0.013,0.995,0.000,0.000,0.000,0.3490,0,0,-2.14,-0.41,-0.41,0.0878,-0.1234,0.3470,0.0382,-0.0570,0.3000,0.2556,-5.30,1.12,-13.81,1.6610,0.3890,1.5020,0.0000,2.3510,0,0.0000,0.0000,0.0000,0.0000,0.0000,0
13040,0.0551,-0.1145,0.3472,-0.0031,-0.0051,-0.0071,-0.75,0.03,0.46,0,3.721,5.360,0.021,-0.878,0.001,-0.014,1.003,0.000,0.000,0.000,0.3490,0,0,-1.98,-0.47,-0.42,0.0890,-0.1219,0.3473,0.0382,-0.0570,0.3000,0.2567,-4.46,1.11,-13.69,1.6610,0.0000,1.5020,1.3080,2.3490,0,0.0000,0.0000,0.0000,0.0000,0.0000,0
13091,0.0551,-0.1109,0.3477,-0.0029,0.0078,-0.0029,-0.53,-0.03,0.43,0,3.716,5.297,0.129,-1.115,0.004,-0.010,1.000,0.000,0.000,0.000,0.3490,-1,0,-1.71,-0.47,-0.47,0.0904,-0.1199,0.3477,0.0382,-0.0570,0.3000,0.2561,-3.59,1.12,-12.92,1.6480,0.0000,1.5020,1.3080,2.3490,0,0.0000,0.0000,0.0000,0.0000,0.0000,0
13142,0.0553,-0.1083,0.3467,-0.0019,0.0159,-0.0070,-0.30,-0.06,0.40,0,3.721,6.136,-1.237,-0.803,-0.002,-0.011,1.001,0.000,0.000,0.000,0.3490,0,0,-1.38,-0.42,-0.57,0.0804,-0.1310,0.3483,0.0382,-0.0570,0.3000,0.2567,-3.01,1.19,-11.90,1.6480,0.3860,1.5010,1.3190,2.3480,0,0.0000,0.0000,0.0000,0.0000,0.0000,0
13193,0.0552,-0.1068,0.3475,-0.0015,0.0192,-0.0019,-0.07,-0.03,0.35,0,3.716,3.829,1.054,-0.790,0.001,-0.013,0.995,0.000,0.000,0.000,0.3460,-1,0,-1.06,-0.35,-0.61,0.0807,-0.1301,0.3486,0.0382,-0.0570,0.3000,0.2560,-2.75,1.20,-10.54,1.6580,0.3860,1.5010,1.3190,2.3480,0,0.0000,0.0000,0.0000,0.0000,0.0000,0
13244,0.0552,-0.1012,0.3466,-0.0010,0.0276,-0.0064,0.14,-0.05,0.30,0,3.716,4.435,-0.211,0.202,-0.003,-0.017,0.999,0.000,0.000,0.000,0.3440,0,0,-0.87,-0.40,-0.66,0.0808,-0.1285,0.3477,0.0382,-0.0570,0.3000,0.2567,-1.94,1.22,-9.04,1.6580,0.4030,1.4980,1.3010,2.3520,0,0.0000,0.0000,0.0000,0.0000,0.0000,0
13295,0.0555,-0.0973,0.3459,-0.0001,0.0309,-0.0091,0.30,-0.05,0.29,0,3.716,3.802,2.729,-0.782,-0.001,-0.012,0.999,0.000,0.000,0.000,0.3430,0,0,-0.65,-0.39,-0.65,0.0811,-0.1274,0.3463,0.0382,-0.0570,0.3000,0.2571,-1.50,1.29,-8.65,1.6520,0.4030,1.4980,1.3010,2.3520,0,0.0000,0.0000,0.0000,0.0000,0.0000,0
13347,0.0555,-0.0923,0.3445,0.0005,0.0344,-0.0128,0.54,-0.09,0.24,0,3.716,2.622,-0.137,-1.003,0.002,-0.011,1.004,0.000,0.000,0.000,0.3430,0,0,-0.45,-0.53,-0.69,0.0817,-0.1263,0.3449,0.0382,-0.0570,0.3000,0.2578,-0.96,1.31,-7.21,1.6520,0.3980,1.5000,1.3060,2.3590,0,0.0000,0.0000,0.0000,0.0000,0.0000,0
13399,0.0586,-0.0929,0.3431,0.0068,0.0257,-0.0153,0.66,-0.10,0.18,0,3.716,0.225,-1.773,-1.165,0.003,-0.013,1.005,0.000,0.000,0.000,0.3440,0,-1,-0.32,-0.52,-0.74,0.0825,-0.1253,0.3439,0.0382,-0.0570,0.3000,0.2583,-1.42,1.83,-5.26,1.6570,0.3980,1.5000,1.3060,2.3590,0,0.0000,0.0000,0.0000,0.0000,0.0000,0
13449,0.0584,-0.0907,0.3440,0.0067,0.0219,-0.0063,0.72,-0.02,0.10,0,3.716,-0.680,-4.081,-1.152,0.003,-0.008,1.003,0.000,0.000,0.000,0.3440,0,0,-0.28,-0.42,-0.77,0.0827,-0.1270,0.3436,0.0382,-0.0570,0.3000,0.2572,-1.45,1.83,-3.05,1.6570,0.4040,1.5010,1.3100,2.3570,0,0.0000,0.0000,0.0000,0.0000,0.0000,0
13500,0.0610,-0.0909,0.3437,0.0108,0.0135,-0.0051,0.69,0.08,0.02,0,3.716,-2.895,2.989,-0.375,-0.001,-0.010,1.003,0.000,0.000,0.000,0.3410,0,0,-0.32,-0.22,-0.83,0.0839,-0.1269,0.3434,0.0382,-0.0570,0.3000,0.2571,-1.87,2.21,-0.53,1.6520,0.4040,1.5010,1.3100,2.3570,0,0.0000,0.0000,0.0000,0.0000,0.0000,0
13551,0.0613,-0.0919,0.3426,0.0097,0.0051,-0.0074,0.57,0.08,-0.01,0,3.711,-4.774,-2.076,0.402,0.001,-0.013,1.003,0.000,0.000,0.000,0.3410,0,0,-0.46,-0.37,-0.85,0.0852,-0.1269,0.3425,0.0382,-0.0570,0.3000,0.2575,-2.34,2.18,0.21,1.6520,0.4070,1.4970,1.3250,2.3580,0,0.0000,0.0000,0.0000,0.0000,0.0000,0
13602,0.0630,-0.0946,0.3414,0.0113,-0.0050,-0.0100,0.45,0.08,-0.03,0,3.711,-2.018,-2.864,0.040,0.002,-0.012,1.001,0.000,0.000,0.000,0.3350,1,-1,-0.71,-0.26,-0.82,0.0866,-0.1270,0.3418,0.0382,-0.0570,0.3000,0.2580,-3.02,2.37,0.88,1.6420,0.4070,1.4970,1.3250,2.3580,0,0.0000,0.0000,0.0000,0.0000,0.0000,0
13653,0.0620,-0.1004,0.3403,0.0076,-0.0185,-0.0120,0.37,0.16,-0.05,0,3.706,-4.675,0.324,-0.710,0.002,-0.011,1.005,0.000,0.000,0.000,0.3370,0,0,-0.79,-0.10,-0.77,0.0859,-0.1292,0.3394,0.0382,-0.0570,0.3000,0.2585,-4.07,2.12,1.36,1.6420,0.3950,1.5020,1.3320,2.3600,0,0.0000,0.0000,0.0000,0.0000,0.0000,0
13704,0.0645,-0.1033,0.3371,0.0100,-0.0247,-0.0210,0.16,0.21,-0.07,0,3.706,-8.178,-0.138,0.489,0.002,-0.008,1.011,0.000,0.000,0.000,0.3410,2,0,-1.03,-0.11,-0.81,0.0870,-0.1298,0.3383,0.0382,-0.0570,0.3000,0.2600,-4.55,2.40,2.16,1.6470,0.3950,1.5020,1.3320,2.3600,0,0.0000,0.0000,0.0000,0.0000,0.0000,0
13755,0.0646,-0.1058,0.3362,0.0075,-0.0274,-0.0161,-0.19,0.23,-0.07,0,3.711,-2.466,1.202,0.902,0.002,-0.014,1.008,0.000,0.000,0.000,0.3360,3,0,-1.41,-0.09,-0.75,0.0870,-0.1332,0.3390,0.0382,-0.0570,0.3000,0.2597,-4.86,2.29,1.99,1.6470,0.3960,1.5040,1.3340,2.3520,0,0.0000,0.0000,0.0000,0.0000,0.0000,0
13806,0.0663,-0.1090,0.3379,0.0082,-0.0286,-0.0012,-0.32,0.13,-0.03,0,3.711,-4.144,-1.007,1.138,0.001,-0.014,1.001,0.000,0.000,0.000,0.3390,2,0,-1.51,-0.15,-0.69,0.0876,-0.1371,0.3381,0.0382,-0.0570,0.3000,0.2577,-5.18,2.46,1.03,1.6530,0.3960,1.5040,1.3340,2.3520,0,0.0000,0.0000,0.0000,0.0000,0.0000,0
13857,0.0654,-0.1151,0.3369,0.0049,-0.0340,-0.0036,-0.41,0.07,0.01,0,3.711,-5.864,2.652,0.151,0.001,-0.015,1.003,0.000,0.000,0.000,0.3370,0,0,-1.70,-0.10,-0.62,0.0881,-0.1407,0.3384,0.0382,-0.0570,0.3000,0.2582,-5.86,2.23,-0.36,1.6530,0.0000,1.5040,1.3070,2.3560,0,0.0000,0.0000,0.0000,0.0000,0.0000,0
13908,0.0655,-0.1202,0.3378,0.0038,-0.0363,0.0023,-0.62,0.08,0.06,0,3.711,-2.658,-0.374,-0.658,0.004,-0.011,0.995,0.000,0.000,0.000,0.3380,1,0,-2.00,-0.24,-0.62,0.0890,-0.1425,0.3381,0.0382,-0.0570,0.3000,0.2574,-6.35,2.19,-1.67,1.6420,0.0000,1.5040,1.3070,2.3560,0,0.0000,0.0000,0.0000,0.0000,0.0000,0
13959,0.0655,-0.1239,0.3375,0.0029,-0.0349,-0.0000,-0.65,0.06,0.03,0,3.711,-1.602,-3.616,-0.979,0.005,-0.008,0.996,0.000,0.000,0.000,0.3380,0,0,-2.13,-0.20,-0.66,0.0882,-0.1445,0.3380,0.0382,-0.0570,0.3000,0.2577,-6.54,2.16,-0.93,1.6420,0.3780,1.5010,1.3260,2.3660,0,0.0000,0.0000,0.0000,0.0000,0.0000,0
14010,0.0655,-0.1262,0.3378,0.0019,-0.0302,0.0007,-0.77,0.19,-0.01,0,3.711,1.724,2.242,-1.608,-0.000,-0.013,0.996,0.000,0.000,0.000,0.3390,0,0,-2.21,-0.01,-0.70,0.0891,-0.1452,0.3378,0.0382,-0.0570,0.3000,0.2576,-6.49,2.10,0.37,1.6440,0.3780,1.5010,1.3260,2.3660,0,0.0000,0.0000,0.0000,0.0000,0.0000,0
14061,0.0654,-0.1287,0.3379,0.0000,-0.0258,0.0004,-0.69,0.15,-0.09,0,3.706,3.002,5.025,-2.986,0.002,-0.016,0.996,0.000,0.000,0.000,0.3390,1,1,-2.12,-0.12,-0.78,0.0899,-0.1452,0.3379,0.0382,-0.0570,0.3000,0.2576,-6.46,2.01,2.68,1.6440,0.0000,1.5020,1.3400,2.3580,0,0.0000,0.0000,0.0000,0.0000,0.0000,0
14112,0.0649,-0.1259,0.3385,-0.0016,-0.0126,0.0016,-0.59,0.01,-0.21,0,3.711,-0.259,1.484,-2.322,0.007,-0.012,0.997,0.000,0.000,0.000,0.3380,0,0,-1.93,-0.33,-1.00,0.0845,-0.1498,0.3381,0.0382,-0.0570,0.3000,0.2573,-5.64,1.90,6.36,1.6400,0.0000,1.5020,1.3400,2.3580,0,0.0000,0.0000,0.0000,0.0000,0.0000,0
14163,0.0618,-0.1263,0.3378,-0.0071,-0.0074,-0.0027,-0.56,-0.04,-0.34,0,3.711,5.018,0.948,-1.311,0.000,-0.013,0.998,0.000,0.000,0.000,0.3370,-1,1,-1.94,-0.40,-1.12,0.0845,-0.1498,0.3377,0.0382,-0.0570,0.3000,0.2579,-5.41,1.41,10.28,1.6400,0.3920,1.5100,1.3550,2.3610,0,0.0000,0.0000,0.0000,0.0000,0.0000,0
14215,0.0614,-0.1253,0.3377,-0.0067,-0.0006,-0.0028,-0.41,-0.08,-0.43,0,3.711,2.549,-1.280,-0.968,0.002,-0.018,0.997,0.000,0.000,0.000,0.3370,-1,0,-1.70,-0.42,-1.23,0.0819,-0.1476,0.3371,0.0382,-0.0570,0.3000,0.2579,-5.01,1.40,12.80,1.6340,0.3920,1.5100,1.3550,2.3610,0,0.0000,0.0000,0.0000,0.0000,0.0000,0
14266,0.0601,-0.1232,0.3372,-0.0077,0.0061,-0.0046,-0.26,-0.09,-0.48,0,3.711,1.450,2.050,-0.404,0.003,-0.018,0.996,0.000,0.000,0.000,0.3380,0,0,-1.58,-0.36,-1.28,0.0818,-0.1454,0.3365,0.0382,-0.0570,0.3000,0.2582,-4.55,1.26,14.44,1.6340,0.3880,1.5040,1.3740,2.3610,0,0.0000,0.0000,0.0000,0.0000,0.0000,0
14317,0.0601,-0.1204,0.3369,-0.0062,0.0126,-0.0057,-0.11,-0.13,-0.52,0,3.711,6.923,1.905,-1.692,0.003,-0.012,1.003,0.000,0.000,0.000,0.3380,-1,0,-1.51,-0.46,-1.31,0.0818,-0.1437,0.3364,0.0382,-0.0570,0.3000,0.2584,-4.03,1.33,15.50,1.6350,0.3880,1.5040,1.3740,2.3610,0,0.0000,0.0000,0.0000,0.0000,0.0000,0
14367,0.0588,-0.1183,0.3372,-0.0068,0.0158,-0.0019,0.11,-0.20,-0.54,0,3.711,-0.688,-0.081,-0.036,0.004,-0.015,1.001,0.000,0.000,0.000,0.3370,-1,0,-1.15,-0.55,-1.39,0.0816,-0.1423,0.3364,0.0382,-0.0570,0.3000,0.2579,-3.73,1.21,16.26,1.6350,0.3850,1.5070,1.3680,2.3660,0,0.0000,0.0000,0.0000,0.0000,0.0000,0
14418,0.0587,-0.1156,0.3375,-0.0047,0.0179,-0.0005,0.22,-0.21,-0.57,0,3.706,2.006,-0.891,-0.927,0.001,-0.016,0.998,0.000,0.000,0.000,0.3360,0,0,-1.19,-0.55,-1.40,0.0819,-0.1396,0.3362,0.0382,-0.0570,0.3000,0.2577,-3.45,1.30,17.04,1.6300,0.3850,1.5070,1.3680,2.3660,0,0.0000,0.0000,0.0000,0.0000,0.0000,0
14469,0.0589,-0.1151,0.3372,-0.0026,0.0154,-0.0025,0.29,-0.13,-0.61,0,3.711,-3.319,-0.699,0.965,0.001,-0.016,1.001,0.000,0.000,0.000,0.3380,0,0,-1.09,-0.50,-1.45,0.0827,-0.1373,0.3357,0.0382,-0.0570,0.3000,0.2580,-3.53,1.42,18.22,1.6300,0.3960,1.5070,1.3810,2.3660,0,0.0000,0.0000,0.0000,0.0000,0.0000,0
14520,0.0585,-0.1162,0.3365,-0.0020,0.0096,-0.0047,0.25,-0.08,-0.59,0,3.706,0.486,1.119,0.865,-0.003,-0.015,0.999,0.000,0.000,0.000,0.3340,0,0,-1.25,-0.46,-1.40,0.0837,-0.1349,0.3361,0.0382,-0.0570,0.3000,0.2584,-3.88,1.42,17.78,1.6300,0.3960,1.5070,1.3810,2.3660,0,0.0000,0.0000,0.0000,0.0000,0.0000,0
14572,0.0583,-0.1159,0.3371,-0.0017,0.0072,-0.0014,0.27,-0.08,-0.55,0,3.706,-0.347,-3.074,1.959,0.001,-0.013,0.996,0.000,0.000,0.000,0.3340,-1,0,-1.23,-0.52,-1.36,0.0849,-0.1323,0.3351,0.0382,-0.0570,0.3000,0.2579,-3.98,1.41,16.62,1.6300,0.0000,1.5070,1.3700,2.3680,0,0.0000,0.0000,0.0000,0.0000,0.0000,0
14623,0.0594,-0.1193,0.3354,0.0013,-0.0018,-0.0089,0.26,-0.05,-0.47,0,3.700,-0.344,0.247,1.399,-0.002,-0.014,1.001,0.000,0.000,0.000,0.3310,1,0,-1.19,-0.33,-1.21,0.0803,-0.1377,0.3345,0.0382,-0.0570,0.3000,0.2590,-4.63,1.63,14.24,1.6290,0.0000,1.5070,1.3700,2.3680,0,0.0000,0.0000,0.0000,0.0000,0.0000,0
14673,0.0595,-0.1195,0.3332,0.0016,-0.0041,-0.0181,0.21,-0.12,-0.37,0,3.700,-3.138,-0.546,0.820,0.001,-0.014,1.008,0.000,0.000,0.000,0.3270,1,0,-1.20,-0.34,-1.13,0.0805,-0.1379,0.3329,0.0382,-0.0570,0.3000,0.2604,-4.73,1.64,11.15,1.6290,0.3860,1.5030,1.3350,2.3610,0,0.0000,0.0000,0.0000,0.0000,0.0000,0
14724,0.0603,-0.1227,0.3312,0.0041,-0.0111,-0.0212,0.03,-0.15,-0.31,0,3.700,-5.896,-0.829,1.294,-0.000,-0.010,1.009,0.000,0.000,0.000,0.3290,1,0,-1.34,-0.31,-1.08,0.0808,-0.1386,0.3307,0.0382,-0.0570,0.3000,0.2611,-5.28,1.82,9.19,1.6310,0.3860,1.5030,1.3350,2.3610,0,0.0000,0.0000,0.0000,0.0000,0.0000,0
14775,0.0612,-0.1256,0.3281,0.0065,-0.0150,-0.0257,-0.21,-0.08,-0.28,0,3.700,-3.423,-0.931,0.262,0.002,-0.015,1.017,0.000,0.000,0.000,0.3290,1,0,-1.62,-0.27,-1.00,0.0811,-0.1395,0.3297,0.0382,-0.0570,0.3000,0.2622,-5.64,1.99,8.49,1.6310,0.0000,1.5090,1.3230,2.3730,0,0.0000,0.0000,0.0000,0.0000,0.0000,0
14826,0.0615,-0.1317,0.3274,0.0069,-0.0228,-0.0179,-0.34,0.00,-0.26,0,3.700,-2.866,-2.975,0.132,0.000,-0.006,1.012,0.000,0.000,0.000,0.3270,0,0,-1.78,-0.22,-0.97,0.0813,-0.1408,0.3295,0.0382,-0.0570,0.3000,0.2615,-6.45,2.03,7.81,1.6320,0.0000,1.5090,1.3230,2.3730,0,0.0000,0.0000,0.0000,0.0000,0.0000,0
14877,0.0618,-0.1351,0.3271,0.0066,-0.0241,-0.0095,-0.48,0.11,-0.27,0,3.706,-2.934,2.640,0.621,-0.001,-0.014,1.012,0.000,0.000,0.000,0.3300,0,0,-1.92,-0.07,-0.96,0.0820,-0.1398,0.3289,0.0382,-0.0570,0.3000,0.2606,-6.77,2.04,8.02,1.6320,0.3620,1.5140,1.3350,2.3690,0,0.0000,0.0000,0.0000,0.0000,0.0000,0
14928,0.0627,-0.1361,0.3267,0.0068,-0.0193,-0.0043,-0.65,0.06,-0.27,0,3.700,-0.598,-0.108,0.108,0.003,-0.005,1.014,0.000,0.000,0.000,0.3250,0,0,-2.07,-0.20,-0.93,0.0827,-0.1383,0.3297,0.0382,-0.0570,0.3000,0.2601,-6.63,2.12,7.98,1.6280,0.3620,1.5140,1.3350,2.3690,0,0.0000,0.0000,0.0000,0.0000,0.0000,0
14980,0.0643,-0.1365,0.3284,0.0090,-0.0127,0.0093,-0.70,0.02,-0.24,0,3.706,2.157,-4.696,-0.667,0.002,-0.012,1.004,0.000,0.000,0.000,0.3290,1,-2,-2.10,-0.20,-0.92,0.0836,-0.1360,0.3290,0.0382,-0.0570,0.3000,0.2584,-6.39,2.36,7.27,1.6280,0.0000,1.5140,0.0000,2.3700,0,0.0000,0.0000,0.0000,0.0000,0.0000,0
15031,0.0647,-0.1370,0.3272,0.0087,-0.0067,0.0051,-0.62,0.11,-0.24,0,3.706,0.342,-0.648,0.659,0.002,-0.008,1.003,0.000,0.000,0.000,0.3310,0,0,-1.89,0.03,-0.89,0.0872,-0.1490,0.3302,0.0382,-0.0570,0.3000,0.2590,-6.13,2.37,7.19,1.6310,0.0000,1.5140,0.0000,2.3700,0,0.0000,0.0000,0.0000,0.0000,0.0000,0
15082,0.0672,-0.1388,0.3285,0.0116,-0.0044,0.0114,-0.53,0.13,-0.23,0,3.706,1.691,-0.416,0.020,0.002,-0.014,0.998,0.000,0.000,0.000,0.3270,0,0,-1.87,0.06,-0.85,0.0888,-0.1485,0.3314,0.0382,-0.0570,0.3000,0.2581,-6.18,2.70,6.89,1.6310,0.3480,1.5150,1.3300,2.3780,0,0.0000,0.0000,0.0000,0.0000,0.0000,0
15133,0.0678,-0.1389,0.3304,0.0104,-0.0000,0.0170,-0.43,0.21,-0.22,0,3.700,-0.365,-1.632,2.171,-0.000,-0.013,0.996,0.000,0.000,0.000,0.3280,0,-1,-1.78,0.08,-0.85,0.0904,-0.1476,0.3309,0.0382,-0.0570,0.3000,0.2571,-6.00,2.69,6.45,1.6300,0.3480,1.5150,1.3300,2.3780,0,0.0000,0.0000,0.0000,0.0000,0.0000,0
15184,0.0673,-0.1360,0.3294,0.0067,0.0088,0.0082,-0.36,0.26,-0.13,0,3.706,4.878,0.522,2.244,-0.001,-0.013,1.000,0.000,0.000,0.000,0.3300,-1,0,-1.77,0.17,-0.75,0.0908,-0.1496,0.3306,0.0382,-0.0570,0.3000,0.2583,-5.35,2.47,3.86,1.6300,0.3490,1.5130,1.3030,2.3670,0,0.0000,0.0000,0.0000,0.0000,0.0000,0
15235,0.0691,-0.1339,0.3291,0.0072,0.0149,0.0049,-0.25,0.22,-0.01,0,3.700,1.295,1.943,3.161,0.003,-0.015,0.998,0.000,0.000,0.000,0.3290,-1,0,-1.53,0.14,-0.64,0.0917,-0.1478,0.3309,0.0382,-0.0570,0.3000,0.2587,-4.90,2.61,0.28,1.6390,0.3490,1.5130,1.3030,2.3670,0,0.0000,0.0000,0.0000,0.0000,0.0000,0
15286,0.0709,-0.1305,0.3298,0.0084,0.0217,0.0067,-0.14,0.12,0.14,0,3.706,2.341,-0.660,3.033,0.001,-0.019,0.994,0.000,0.000,0.000,0.3290,-1,0,-1.47,0.04,-0.48,0.0923,-0.1456,0.3307,0.0382,-0.0570,0.3000,0.2584,-4.34,2.81,-4.19,1.6390,0.3490,1.5120,1.2630,2.3710,0,0.0000,0.0000,0.0000,0.0000,0.0000,0
15337,0.0695,-0.1297,0.3297,0.0039,0.0218,0.0040,0.02,0.17,0.30,0,3.706,3.877,-3.896,2.063,0.003,-0.013,0.994,0.000,0.000,0.000,0.3300,-1,-2,-1.36,0.08,-0.33,0.0929,-0.1431,0.3304,0.0382,-0.0570,0.3000,0.2587,-4.28,2.49,-9.13,1.6370,0.3490,1.5120,1.2630,2.3710,0,0.0000,0.0000,0.0000,0.0000,0.0000,0
15388,0.0692,-0.1282,0.3295,0.0014,0.0219,0.0012,0.26,0.32,0.43,0,3.700,5.245,-0.946,1.426,0.002,-0.009,1.000,0.000,0.000,0.000,0.3290,-1,0,-1.17,0.25,-0.20,0.0968,-0.1401,0.3302,0.0382,-0.0570,0.3000,0.2590,-4.15,2.35,-12.96,1.6370,0.0000,1.5120,1.2180,2.3700,0,0.0000,0.0000,0.0000,0.0000,0.0000,0
15440,0.0715,-0.1251,0.3298,0.0032,0.0243,0.0014,0.49,0.39,0.53,0,3.695,3.758,-1.084,1.862,-0.001,-0.017,0.997,0.000,0.000,0.000,0.3290,0,0,-0.90,0.30,-0.13,0.0975,-0.1370,0.3298,0.0382,-0.0570,0.3000,0.2589,-3.83,2.60,-15.79,1.6390,0.0000,1.5120,1.2180,2.3700,0,0.0000,0.0000,0.0000,0.0000,0.0000,0
15491,0.0712,-0.1226,0.3294,-0.0016,0.0213,-0.0033,0.64,0.42,0.62,0,3.700,2.474,-0.937,1.086,0.002,-0.019,0.996,0.000,0.000,0.000,0.3290,0,0,-0.71,0.36,-0.03,0.0987,-0.1342,0.3293,0.0382,-0.0570,0.3000,0.2595,-3.78,2.34,-18.73,1.6390,0.0000,1.5140,1.2040,2.3760,0,0.0000,0.0000,0.0000,0.0000,0.0000,0
15542,0.0697,-0.1198,0.3290,-0.0071,0.0207,-0.0057,0.75,0.46,0.67,0,3.700,-2.199,5.588,0.517,-0.000,-0.014,0.999,0.000,0.000,0.000,0.3300,0,1,-0.58,0.40,0.03,0.0999,-0.1315,0.3289,0.0382,-0.0570,0.3000,0.2598,-3.61,1.97,-20.24,1.6400,0.0000,1.5140,1.2040,2.3760,0,0.0000,0.0000,0.0000,0.0000,0.0000,0
15593,0.0688,-0.1190,0.3287,-0.0118,0.0143,-0.0061,0.70,0.25,0.72,0,3.700,-1.949,5.288,0.475,0.001,-0.013,1.004,0.000,0.000,0.000,0.3300,0,1,-0.63,0.17,0.02,0.0937,-0.1381,0.3291,0.0382,-0.0570,0.3000,0.2599,-3.86,1.68,-21.46,1.6400,0.3260,1.5200,1.1930,2.3660,0,0.0000,0.0000,0.0000,0.0000,0.0000,0
15645,0.0670,-0.1203,0.3291,-0.0160,0.0048,-0.0029,0.65,-0.03,0.75,0,3.695,-4.040,0.695,0.582,0.000,-0.016,1.001,0.000,0.000,0.000,0.3300,0,1,-0.73,-0.09,0.05,0.0919,-0.1377,0.3292,0.0382,-0.0570,0.3000,0.2595,-4.40,1.36,-22.62,1.6400,0.3260,1.5200,1.1930,2.3660,0,0.0000,0.0000,0.0000,0.0000,0.0000,0
15695,0.0656,-0.1215,0.3268,-0.0165,-0.0043,-0.0120,0.53,-0.14,0.78,0,3.700,-4.934,2.206,-0.015,0.002,-0.020,0.999,0.000,0.000,0.000,0.3290,3,0,-0.94,-0.12,0.08,0.0898,-0.1374,0.3293,0.0382,-0.0570,0.3000,0.2609,-4.89,1.22,-23.53,1.6400,0.0000,1.5200,1.2070,2.3730,0,0.0000,0.0000,0.0000,0.0000,0.0000,0
15746,0.0633,-0.1268,0.3279,-0.0179,-0.0182,-0.0043,0.32,-0.25,0.79,0,3.695,-4.614,3.735,-1.030,0.002,-0.012,1.001,0.000,0.000,0.000,0.3280,1,0,-1.14,-0.24,0.06,0.0894,-0.1429,0.3292,0.0382,-0.0570,0.3000,0.2599,-5.94,1.00,-23.69,1.6420,0.0000,1.5200,1.2070,2.3730,0,0.0000,0.0000,0.0000,0.0000,0.0000,0
15797,0.0622,-0.1308,0.3283,-0.0170,-0.0268,-0.0002,0.11,-0.37,0.74,0,3.700,-4.173,0.738,-1.584,0.002,-0.008,1.001,0.000,0.000,0.000,0.3280,0,0,-1.36,-0.43,-0.00,0.0892,-0.1452,0.3287,0.0382,-0.0570,0.3000,0.2594,-6.65,0.97,-22.29,1.6420,0.0000,1.5210,1.2240,2.3680,0,0.0000,0.0000,0.0000,0.0000,0.0000,0
15849,0.0606,-0.1341,0.3281,-0.0154,-0.0313,-0.0009,-0.13,-0.40,0.66,0,3.695,-5.450,-1.358,-0.977,-0.001,-0.011,0.998,0.000,0.000,0.000,0.3240,0,0,-1.58,-0.46,-0.08,0.0888,-0.1459,0.3284,0.0382,-0.0570,0.3000,0.2595,-7.08,0.93,-19.94,1.6310,0.0000,1.5210,1.2240,2.3680,0,0.0000,0.0000,0.0000,0.0000,0.0000,0
15899,0.0606,-0.1359,0.3280,-0.0105,-0.0306,-0.0025,-0.37,-0.34,0.61,0,3.695,-3.851,-1.772,-0.697,0.000,-0.014,0.999,0.000,0.000,0.000,0.3250,2,0,-1.86,-0.39,-0.13,0.0887,-0.1462,0.3269,0.0382,-0.0570,0.3000,0.2597,-7.18,1.17,-18.43,1.6310,0.0000,1.5170,1.2330,2.3760,0,0.0000,0.0000,0.0000,0.0000,0.0000,0
15950,0.0598,-0.1415,0.3258,-0.0085,-0.0357,-0.0132,-0.51,-0.23,0.58,0,3.695,-2.783,1.570,-1.644,0.002,-0.013,1.001,0.000,0.000,0.000,0.3280,1,0,-2.00,-0.30,-0.15,0.0886,-0.1546,0.3260,0.0382,-0.0570,0.3000,0.2612,-7.77,1.19,-17.47,1.6350,0.0000,1.5170,1.2330,2.3760,0,0.0000,0.0000,0.0000,0.0000,0.0000,0
16001,0.0595,-0.1448,0.3248,-0.0064,-0.0347,-0.0146,-0.66,-0.27,0.52,0,3.700,-1.044,-0.695,-0.949,0.001,-0.014,1.005,0.000,0.000,0.000,0.3230,2,0,-2.13,-0.38,-0.23,0.0887,-0.1566,0.3262,0.0382,-0.0570,0.3000,0.2616,-7.94,1.27,-15.55,1.6350,0.0000,1.5200,1.2370,2.3690,0,0.0000,0.0000,0.0000,0.0000,0.0000,0
16052,0.0589,-0.1462,0.3258,-0.0050,-0.0286,-0.0059,-0.72,-0.26,0.46,0,3.695,0.025,-1.146,-1.779,0.002,-0.015,1.003,0.000,0.000,0.000,0.3220,1,0,-2.16,-0.34,-0.27,0.0889,-0.1603,0.3250,0.0382,-0.0570,0.3000,0.2604,-7.79,1.30,-13.79,1.6270,0.0000,1.5200,1.2370,2.3690,0,0.0000,0.0000,0.0000,0.0000,0.0000,0
16103,0.0585,-0.1484,0.3242,-0.0032,-0.0242,-0.0104,-0.73,-0.19,0.38,0,3.695,-0.416,-3.284,-1.484,0.000,-0.012,1.006,0.000,0.000,0.000,0.3220,1,-2,-2.15,-0.27,-0.36,0.0891,-0.1625,0.3238,0.0382,-0.0570,0.3000,0.2612,-7.72,1.36,-11.36,1.6270,0.0000,1.5200,1.2550,2.3740,0,0.0000,0.0000,0.0000,0.0000,0.0000,0
16154,0.0582,-0.1502,0.3226,-0.0020,-0.0194,-0.0133,-0.76,-0.12,0.28,0,3.690,2.445,1.021,-1.987,-0.000,-0.011,1.006,0.000,0.000,0.000,0.3230,3,0,-2.15,-0.13,-0.38,0.0935,-0.1646,0.3230,0.0382,-0.0570,0.3000,0.2618,-7.61,1.39,-8.48,1.6320,0.0000,1.5200,1.2550,2.3740,0,0.0000,0.0000,0.0000,0.0000,0.0000,0
16205,0.0606,-0.1483,0.3218,0.0041,-0.0067,-0.0117,-0.66,-0.07,0.18,0,3.695,1.656,0.262,-1.425,0.002,-0.012,1.008,0.000,0.000,0.000,0.3200,0,0,-1.98,-0.17,-0.47,0.0939,-0.1715,0.3230,0.0382,-0.0570,0.3000,0.2618,-6.88,1.84,-5.46,1.6320,0.0000,1.5190,1.2790,2.3830,0,0.0000,0.0000,0.0000,0.0000,0.0000,0
16256,0.0598,-0.1490,0.3219,0.0026,-0.0016,-0.0066,-0.56,-0.03,0.10,0,3.695,4.708,-2.005,-1.671,-0.001,-0.013,1.003,0.000,0.000,0.000,0.3200,-1,0,-1.90,-0.18,-0.55,0.0952,-0.1725,0.3221,0.0382,-0.0570,0.3000,0.2612,-6.71,1.72,-3.05,1.6290,0.0000,1.5190,1.2790,2.3830,0,0.0000,0.0000,0.0000,0.0000,0.0000,0
16307,0.0617,-0.1498,0.3207,0.0066,0.0014,-0.0077,-0.34,0.08,0.02,0,3.695,3.046,2.811,-1.265,-0.002,-0.013,1.004,0.000,0.000,0.000,0.3250,-1,0,-1.69,-0.06,-0.67,0.0933,-0.1682,0.3216,0.0382,-0.0570,0.3000,0.2616,-6.62,2.04,-0.71,1.6290,0.0000,1.5210,1.2820,2.3740,0,0.0000,0.0000,0.0000,0.0000,0.0000,0
16359,0.0615,-0.1469,0.3200,0.0048,0.0102,-0.0072,-0.18,0.03,-0.04,0,3.695,2.931,-2.511,-1.158,-0.000,-0.020,1.005,0.000,0.000,0.000,0.3220,0,0,-1.55,-0.20,-0.75,0.0936,-0.1657,0.3227,0.0382,-0.0570,0.3000,0.2617,-6.00,1.94,1.30,1.6280,0.0000,1.5210,1.2820,2.3740,0,0.0000,0.0000,0.0000,0.0000,0.0000,0
16410,0.0626,-0.1454,0.3223,0.0063,0.0138,0.0073,-0.03,0.07,-0.11,0,3.695,1.543,-0.888,-1.399,-0.001,-0.017,1.002,0.000,0.000,0.000,0.3220,-1,0,-1.39,-0.06,-0.81,0.0943,-0.1643,0.3229,0.0382,-0.0570,0.3000,0.2597,-5.77,2.11,3.16,1.6280,0.0000,1.5240,1.3030,2.3780,0,0.0000,0.0000,0.0000,0.0000,0.0000,0
16461,0.0630,-0.1440,0.3225,0.0060,0.0156,0.0067,0.08,0.07,-0.18,0,3.695,1.993,-1.540,-0.954,-0.001,-0.014,0.994,0.000,0.000,0.000,0.3190,0,0,-1.31,-0.01,-0.89,0.0934,-0.1627,0.3230,0.0382,-0.0570,0.3000,0.2597,-5.59,2.12,5.33,1.6270,0.0000,1.5240,1.3030,2.3780,0,0.0000,0.0000,0.0000,0.0000,0.0000,0
16512,0.0636,-0.1412,0.3226,0.0061,0.0192,0.0045,0.25,0.16,-0.24,0,3.695,1.070,-0.070,-0.132,-0.001,-0.018,0.999,0.000,0.000,0.000,0.3190,0,0,-1.21,0.07,-0.93,0.0938,-0.1610,0.3219,0.0382,-0.0570,0.3000,0.2599,-5.22,2.17,7.14,1.6270,0.0000,1.5250,1.3060,2.3750,0,0.0000,0.0000,0.0000,0.0000,0.0000,0
16563,0.0624,-0.1390,0.3209,0.0015,0.0198,-0.0048,0.34,0.14,-0.26,0,3.690,1.349,3.736,0.428,-0.001,-0.016,1.003,0.000,0.000,0.000,0.3190,0,0,-1.16,0.08,-0.94,0.0941,-0.1591,0.3210,0.0382,-0.0570,0.3000,0.2612,-5.01,1.86,7.83,1.6280,0.0000,1.5250,1.3060,2.3750,0,0.0000,0.0000,0.0000,0.0000,0.0000,0
16614,0.0624,-0.1381,0.3202,0.0003,0.0169,-0.0070,0.42,0.08,-0.27,0,3.690,1.571,0.448,-0.027,0.001,-0.010,1.003,0.000,0.000,0.000,0.3170,0,0,-1.09,-0.11,-0.92,0.0943,-0.1572,0.3203,0.0382,-0.0570,0.3000,0.2616,-5.08,1.80,7.99,1.6280,0.0000,1.5210,1.3050,2.3780,0,0.0000,0.0000,0.0000,0.0000,0.0000,0
16665,0.0596,-0.1380,0.3193,-0.0064,0.0121,-0.0099,0.45,0.07,-0.26,0,3.690,-0.801,0.709,0.320,-0.004,-0.019,1.005,0.000,0.000,0.000,0.3180,0,1,-1.01,-0.14,-0.92,0.0946,-0.1550,0.3191,0.0382,-0.0570,0.3000,0.2621,-5.28,1.28,7.70,1.6250,0.0000,1.5210,1.3050,2.3780,0,0.0000,0.0000,0.0000,0.0000,0.0000,0
16716,0.0593,-0.1374,0.3177,-0.0069,0.0084,-0.0135,0.44,0.02,-0.26,0,3.690,-1.958,2.999,-0.582,0.000,-0.014,1.005,0.000,0.000,0.000,0.3160,0,0,-0.99,-0.15,-0.91,0.0903,-0.1638,0.3189,0.0382,-0.0570,0.3000,0.2628,-5.41,1.23,7.72,1.6250,0.0000,1.5210,1.3020,2.3830,0,0.0000,0.0000,0.0000,0.0000,0.0000,0
16767,0.0557,-0.1402,0.3173,-0.0137,-0.0020,-0.0112,0.40,-0.15,-0.28,0,3.684,-4.703,-2.649,-0.848,-0.001,-0.010,1.005,0.000,0.000,0.000,0.3170,1,0,-1.09,-0.30,-0.94,0.0898,-0.1635,0.3180,0.0382,-0.0570,0.3000,0.2626,-6.09,0.66,8.34,1.6190,0.0000,1.5210,1.3020,2.3830,0,0.0000,0.0000,0.0000,0.0000,0.0000,0
16818,0.0549,-0.1430,0.3162,-0.0128,-0.0106,-0.0113,0.21,-0.20,-0.31,0,3.690,-4.922,1.947,-1.647,0.002,-0.009,1.010,0.000,0.000,0.000,0.3160,0,0,-1.30,-0.17,-0.98,0.0898,-0.1652,0.3177,0.0382,-0.0570,0.3000,0.2628,-6.68,0.64,9.15,1.6190,0.0000,1.5270,1.3220,2.3810,0,0.0000,0.0000,0.0000,0.0000,0.0000,0
16870,0.0552,-0.1465,0.3161,-0.0095,-0.0180,-0.0060,0.06,-0.19,-0.36,0,3.690,-4.288,1.699,-2.349,0.001,-0.014,1.007,0.000,0.000,0.000,0.3180,0,-1,-1.56,-0.26,-1.07,0.0897,-0.1649,0.3174,0.0382,-0.0570,0.3000,0.2623,-7.28,0.82,10.91,1.6150,0.0000,1.5270,1.3220,2.3810,0,0.0000,0.0000,0.0000,0.0000,0.0000,0
16921,0.0530,-0.1476,0.3159,-0.0112,-0.0185,-0.0021,-0.13,-0.25,-0.47,0,3.690,-3.094,-1.602,-1.197,0.001,-0.011,1.005,0.000,0.000,0.000,0.3180,3,1,-1.77,-0.37,-1.20,0.0918,-0.1651,0.3179,0.0382,-0.0570,0.3000,0.2619,-7.40,0.59,13.99,1.6150,0.0000,1.5260,1.3380,2.3890,0,0.0000,0.0000,0.0000,0.0000,0.0000,0
16972,0.0541,-0.1501,0.3169,-0.0060,-0.0208,0.0046,-0.19,-0.16,-0.54,0,3.690,-3.723,1.415,-1.230,0.000,-0.014,1.002,0.000,0.000,0.000,0.3180,2,0,-1.89,-0.27,-1.24,0.0909,-0.1683,0.3186,0.0382,-0.0570,0.3000,0.2610,-7.71,0.91,16.28,1.6130,0.0000,1.5260,1.3380,2.3890,0,0.0000,0.0000,0.0000,0.0000,0.0000,0
17024,0.0543,-0.1586,0.3188,-0.0034,-0.0332,0.0133,-0.55,-0.25,-0.61,0,3.690,-43.441,-6.314,-1.459,0.001,-0.018,0.997,0.000,0.000,0.000,0.3190,3,0,-2.05,-0.34,-1.30,0.0911,-0.1711,0.3191,0.0382,-0.0570,0.3000,0.2597,-8.92,1.06,18.29,1.6130,0.0000,1.5240,1.3590,2.3770,0,0.0000,0.0000,0.0000,0.0000,0.0000,0
17076,0.0536,-0.1598,0.3190,-0.0027,-0.0271,0.0088,-2.54,0.06,-0.66,0,3.690,-29.719,-11.460,-1.949,-0.001,-0.011,1.003,0.000,0.000,0.000,0.3180,2,-1,-4.27,-0.00,-1.34,0.0912,-0.1764,0.3199,0.0382,-0.0570,0.3000,0.2601,-8.70,1.03,19.78,1.6240,0.0000,1.5240,1.3590,2.3770,0,0.0000,0.0000,0.0000,0.0000,0.0000,0
17128,0.0532,-0.1610,0.3194,-0.0035,-0.0064,0.0083,-4.15,0.52,-0.70,0,3.690,3.008,-0.723,-0.601,-0.005,-0.013,0.999,0.000,0.000,0.000,0.3240,0,0,-5.78,0.58,-1.35,0.0933,-0.1803,0.3202,0.0382,-0.0570,0.3000,0.2601,-7.83,0.97,20.95,1.6240,0.0000,1.5140,1.3860,2.3840,0,0.0000,0.0000,0.0000,0.0000,0.0000,0
17179,0.0542,-0.1597,0.3190,-0.0049,0.0302,0.0043,-4.20,0.59,-0.71,0,3.695,5.573,1.219,0.559,0.001,-0.023,0.996,0.000,0.000,0.000,0.3180,-2,0,-5.62,0.62,-1.37,0.0939,-0.1788,0.3219,0.0382,-0.0570,0.3000,0.2606,-6.01,0.98,21.28,1.6270,0.0000,1.5140,1.3860,2.3840,0,0.0000,0.0000,0.0000,0.0000,0.0000,0
17230,0.0544,-0.1569,0.3216,-0.0082,0.0666,0.0113,-3.94,0.52,-0.68,0,3.690,3.124,0.365,0.116,0.002,-0.022,0.994,0.000,0.000,0.000,0.3200,-3,0,-5.33,0.57,-1.37,0.0936,-0.1759,0.3212,0.0382,-0.0570,0.3000,0.2593,-4.12,0.84,20.48,1.6270,0.3310,1.5000,1.3940,2.3910,0,0.0000,0.0000,0.0000,0.0000,0.0000,0
17281,0.0549,-0.1504,0.3202,-0.0103,0.1045,-0.0022,-3.75,0.50,-0.66,0,3.690,15.338,-3.210,0.491,0.002,-0.026,0.999,0.000,0.000,0.000,0.3140,-4,-1,-5.19,0.55,-1.35,0.0938,-0.1681,0.3206,0.0382,-0.0570,0.3000,0.2611,-1.84,0.77,19.66,1.6350,0.3310,1.5000,1.3940,2.3910,0,0.0000,0.0000,0.0000,0.0000,0.0000,0
17333,0.0536,-0.1405,0.3199,-0.0159,0.1440,-0.0058,-3.06,0.59,-0.64,0,3.684,21.036,1.666,0.093,0.002,-0.023,0.996,0.000,0.000,0.000,0.3120,-3,0,-4.44,0.68,-1.18,0.0960,-0.1569,0.3181,0.0382,-0.0570,0.3000,0.2615,0.73,0.41,19.25,1.6350,0.3770,1.4950,0.0000,2.3820,0,0.0000,0.0000,0.0000,0.0000,0.0000,0
17385,0.0542,-0.1325,0.3166,-0.0177,0.1701,-0.0207,-1.94,0.53,-0.65,0,3.679,21.031,0.118,0.738,-0.001,-0.027,0.997,0.000,0.000,0.000,0.3140,-5,0,-3.34,0.60,-1.19,0.0962,-0.1477,0.3156,0.0382,-0.0570,0.3000,0.2637,2.51,0.36,19.36,1.6380,0.3770,1.4950,0.0000,2.3820,0,0.0000,0.0000,0.0000,0.0000,0.0000,0
17436,0.0543,-0.1254,0.3134,-0.0197,0.1832,-0.0299,-0.94,0.52,-0.60,0,3.679,18.391,-0.678,2.080,-0.001,-0.024,1.007,0.000,0.000,0.000,0.3150,-2,2,-2.28,0.58,-1.10,0.0964,-0.1333,0.3139,0.0382,-0.0570,0.3000,0.2653,3.60,0.28,18.14,1.6380,0.4100,1.4860,1.3980,2.3860,0,0.0000,0.0000,0.0000,0.0000,0.0000,0
17487,0.0537,-0.1128,0.3122,-0.0230,0.1981,-0.0253,-0.00,0.47,-0.51,0,3.684,15.609,3.146,2.521,0.005,-0.019,1.012,0.000,0.000,0.000,0.3180,-4,0,-1.31,0.65,-1.20,0.0916,-0.1265,0.3138,0.0382,-0.0570,0.3000,0.2651,5.17,0.08,15.23,1.6410,0.4100,1.4860,1.3980,2.3860,0,0.0000,0.0000,0.0000,0.0000,0.0000,0
17538,0.0524,-0.1051,0.3126,-0.0269,0.1931,-0.0141,0.65,0.34,-0.43,0,3.684,13.566,1.902,-0.122,0.003,-0.023,1.007,0.000,0.000,0.000,0.3170,-2,0,-0.53,0.48,-1.03,0.0915,-0.1138,0.3147,0.0382,-0.0570,0.3000,0.2638,5.50,-0.19,12.83,1.6410,0.4290,1.4790,1.3790,2.3890,0,0.0000,0.0000,0.0000,0.0000,0.0000,0
17589,0.0512,-0.0959,0.3147,-0.0293,0.1855,0.0016,1.34,0.20,-0.37,0,3.684,9.136,0.892,0.428,0.001,-0.023,1.004,0.000,0.000,0.000,0.3130,-2,0,0.19,0.37,-1.04,0.0914,-0.1068,0.3156,0.0382,-0.0570,0.3000,0.2617,5.83,-0.40,11.22,1.6480,0.4290,1.4790,1.3790,2.3890,0,0.0000,0.0000,0.0000,0.0000,0.0000,0
17640,0.0502,-0.0892,0.3161,-0.0299,0.1668,0.0091,1.90,0.17,-0.36,0,3.684,6.128,3.785,-0.697,0.002,-0.024,1.001,0.000,0.000,0.000,0.3100,-6,2,0.67,0.32,-1.03,0.0914,-0.1004,0.3151,0.0382,-0.0570,0.3000,0.2606,5.45,-0.49,10.79,1.6480,0.4440,1.4720,1.3820,2.3890,0,0.0000,0.0000,0.0000,0.0000,0.0000,0
17691,0.0483,-0.0809,0.3149,-0.0323,0.1513,0.0016,2.25,0.02,-0.36,0,3.679,0.240,1.688,-1.198,0.004,-0.019,1.000,0.000,0.000,0.000,0.3110,-2,0,0.92,0.16,-0.99,0.0857,-0.0822,0.3133,0.0382,-0.0570,0.3000,0.2616,5.29,-0.74,10.71,1.6520,0.4440,1.4720,1.3820,2.3890,0,0.0000,0.0000,0.0000,0.0000,0.0000,0
17743,0.0466,-0.0762,0.3124,-0.0327,0.1266,-0.0114,2.32,-0.07,-0.40,0,3.679,-1.190,2.510,-2.265,0.005,-0.017,0.999,0.000,0.000,0.000,0.3110,-2,0,0.95,0.06,-1.08,0.0858,-0.0758,0.3126,0.0382,-0.0570,0.3000,0.2635,4.43,-0.87,11.93,1.6520,0.4370,1.4620,1.4290,2.3930,0,0.0000,0.0000,0.0000,0.0000,0.0000,0
17794,0.0451,-0.0714,0.3111,-0.0318,0.1044,-0.0145,2.26,-0.13,-0.48,0,3.679,-5.497,3.418,-3.617,0.004,-0.016,1.001,0.000,0.000,0.000,0.3070,0,1,0.90,-0.09,-1.22,0.0860,-0.0698,0.3119,0.0382,-0.0570,0.3000,0.2641,3.72,-0.93,14.47,1.6510,0.4370,1.4620,1.4290,2.3930,0,0.0000,0.0000,0.0000,0.0000,0.0000,0
17846,0.0427,-0.0652,0.3104,-0.0328,0.0889,-0.0125,2.04,-0.23,-0.65,0,3.679,-3.797,3.092,-4.009,0.002,-0.017,1.006,0.000,0.000,0.000,0.3070,0,0,0.65,-0.25,-1.40,0.0829,-0.0698,0.3102,0.0382,-0.0570,0.3000,0.2640,3.43,-1.15,19.38,1.6510,0.4350,1.4500,1.4670,2.3960,0,0.0000,0.0000,0.0000,0.0000,0.0000,0
17896,0.0399,-0.0622,0.3082,-0.0337,0.0692,-0.0163,1.83,-0.44,-0.83,0,3.679,-4.191,2.455,-2.409,0.003,-0.019,1.009,0.000,0.000,0.000,0.3090,0,2,0.46,-0.41,-1.61,0.0817,-0.0654,0.3089,0.0382,-0.0570,0.3000,0.2648,2.71,-1.38,24.76,1.6450,0.4350,1.4500,1.4670,2.3960,0,0.0000,0.0000,0.0000,0.0000,0.0000,0
17948,0.0379,-0.0595,0.3101,-0.0308,0.0526,-0.0005,1.70,-0.59,-0.97,0,3.684,-8.257,5.176,-2.215,0.002,-0.016,1.010,0.000,0.000,0.000,0.3090,3,1,0.31,-0.50,-1.64,0.0744,-0.0722,0.3088,0.0382,-0.0570,0.3000,0.2628,2.14,-1.40,29.13,1.6450,0.4330,1.4450,1.5140,2.3880,0,0.0000,0.0000,0.0000,0.0000,0.0000,0
17998,0.0365,-0.0600,0.3096,-0.0255,0.0312,0.0007,1.40,-0.75,-1.12,0,3.679,-8.053,0.745,-2.927,0.002,-0.013,1.004,0.000,0.000,0.000,0.3060,0,1,-0.07,-0.76,-1.73,0.0714,-0.0790,0.3088,0.0382,-0.0570,0.3000,0.2627,1.10,-1.25,33.54,1.6310,0.4330,1.4450,1.5140,2.3880,0,0.0000,0.0000,0.0000,0.0000,0.0000,0
18050,0.0354,-0.0614,0.3094,-0.0188,0.0126,0.0030,0.98,-0.85,-1.27,0,3.679,-10.797,0.399,-2.084,-0.002,-0.011,1.013,0.000,0.000,0.000,0.3050,4,-1,-0.48,-0.79,-1.85,0.0685,-0.0790,0.3081,0.0382,-0.0570,0.3000,0.2625,0.13,-1.02,37.99,1.6310,0.4470,1.4460,1.5220,2.3950,0,0.0000,0.0000,0.0000,0.0000,0.0000,0
18102,0.0330,-0.0623,0.3079,-0.0159,0.0011,-0.0002,0.56,-0.88,-1.38,0,3.674,-12.501,-1.646,-1.127,-0.002,-0.017,1.008,0.000,0.000,0.000,0.3090,0,0,-0.98,-0.84,-1.99,0.0707,-0.0899,0.3074,0.0382,-0.0570,0.3000,0.2632,-0.48,-1.04,41.54,1.6350,0.4470,1.4460,1.5220,2.3950,0,0.0000,0.0000,0.0000,0.0000,0.0000,0
18153,0.0341,-0.0663,0.3065,-0.0040,-0.0132,-0.0028,0.05,-0.82,-1.46,0,3.684,-11.144,-2.863,0.268,-0.005,-0.013,1.010,0.000,0.000,0.000,0.3060,3,0,-1.63,-0.75,-2.05,0.0702,-0.0924,0.3084,0.0382,-0.0570,0.3000,0.2637,-1.43,-0.40,43.86,1.6350,0.4440,1.4400,1.5340,2.3980,0,0.0000,0.0000,0.0000,0.0000,0.0000,0
18203,0.0340,-0.0686,0.3077,0.0025,-0.0167,0.0074,-0.50,-0.67,-1.46,0,3.674,-6.817,-1.891,1.675,-0.000,-0.010,1.013,0.000,0.000,0.000,0.3060,0,0,-2.15,-0.61,-2.00,0.0702,-0.1009,0.3084,0.0382,-0.0570,0.3000,0.2624,-1.77,-0.11,43.77,1.6350,0.4440,1.4400,1.5340,2.3980,0,0.0000,0.0000,0.0000,0.0000,0.0000,0
18255,0.0351,-0.0723,0.3073,0.0105,-0.0197,0.0084,-0.85,-0.59,-1.40,0,3.679,-6.077,-3.064,1.129,-0.000,-0.013,1.009,0.000,0.000,0.000,0.3060,4,-2,-2.49,-0.52,-1.91,0.0703,-0.1035,0.3087,0.0382,-0.0570,0.3000,0.2623,-2.17,0.35,42.15,1.6350,0.4410,1.4360,1.5370,2.3970,0,0.0000,0.0000,0.0000,0.0000,0.0000,0
18305,0.0360,-0.0728,0.3071,0.0165,-0.0110,0.0096,-1.10,-0.49,-1.35,0,3.679,-5.517,-7.765,2.622,-0.001,-0.017,1.007,0.000,0.000,0.000,0.3100,0,-2,-2.74,-0.40,-1.80,0.0763,-0.1150,0.3090,0.0382,-0.0570,0.3000,0.2622,-1.79,0.70,40.39,1.6380,0.4410,1.4360,1.5370,2.3970,0,0.0000,0.0000,0.0000,0.0000,0.0000,0
18356,0.0383,-0.0763,0.3070,0.0236,-0.0091,0.0095,-1.32,-0.18,-1.23,0,3.684,-2.729,-4.921,3.471,-0.003,-0.013,1.007,0.000,0.000,0.000,0.3110,2,-3,-3.03,-0.04,-1.65,0.0807,-0.1163,0.3105,0.0382,-0.0570,0.3000,0.2623,-1.95,1.19,37.00,1.6380,0.4360,1.4350,1.5270,2.3950,0,0.0000,0.0000,0.0000,0.0000,0.0000,0
18407,0.0421,-0.0761,0.3091,0.0314,0.0036,0.0181,-1.52,0.06,-1.07,0,3.679,5.607,-5.972,2.718,-0.000,-0.015,1.001,0.000,0.000,0.000,0.3080,0,-1,-3.15,0.17,-1.41,0.0874,-0.1209,0.3120,0.0382,-0.0570,0.3000,0.2610,-1.35,1.84,32.10,1.6530,0.4360,1.4350,1.5270,2.3950,0,0.0000,0.0000,0.0000,0.0000,0.0000,0
18458,0.0455,-0.0753,0.3109,0.0348,0.0179,0.0229,-1.40,0.38,-0.88,0,3.679,5.741,-6.418,2.840,-0.000,-0.020,0.998,0.000,0.000,0.000,0.3120,-1,-2,-2.87,0.46,-1.26,0.0904,-0.1213,0.3122,0.0382,-0.0570,0.3000,0.2601,-0.62,2.24,26.33,1.6530,0.4310,1.4310,1.5060,2.3940,0,0.0000,0.0000,0.0000,0.0000,0.0000,0
18509,0.0485,-0.0745,0.3106,0.0347,0.0287,0.0159,-1.14,0.78,-0.72,0,3.679,7.010,-6.747,1.978,0.002,-0.017,0.995,0.000,0.000,0.000,0.3100,-2,-1,-2.60,0.76,-1.07,0.0958,-0.1189,0.3132,0.0382,-0.0570,0.3000,0.2609,-0.05,2.45,21.59,1.6650,0.4310,1.4310,1.5060,2.3940,0,0.0000,0.0000,0.0000,0.0000,0.0000,0
18561,0.0477,-0.0687,0.3120,0.0214,0.0482,0.0163,-0.82,1.19,-0.60,0,3.684,11.267,-0.485,0.256,-0.004,-0.016,0.996,0.000,0.000,0.000,0.3130,-3,0,-2.27,1.10,-0.94,0.0990,-0.1137,0.3132,0.0382,-0.0570,0.3000,0.2606,1.29,1.77,17.99,1.6650,0.4310,1.4340,1.4880,2.3930,0,0.0000,0.0000,0.0000,0.0000,0.0000,0
18612,0.0476,-0.0658,0.3117,0.0090,0.0554,0.0100,-0.41,1.23,-0.54,0,3.679,9.438,5.849,0.358,0.001,-0.018,0.991,0.000,0.000,0.000,0.3130,-1,0,-1.72,1.14,-0.93,0.0995,-0.1054,0.3137,0.0382,-0.0570,0.3000,0.2613,1.84,1.17,16.17,1.6740,0.4310,1.4340,1.4880,2.3930,0,0.0000,0.0000,0.0000,0.0000,0.0000,0
18663,0.0481,-0.0604,0.3128,-0.0003,0.0641,0.0101,0.12,1.00,-0.52,0,3.679,8.621,7.472,0.059,-0.000,-0.011,0.994,0.000,0.000,0.000,0.3130,-2,2,-1.24,0.85,-0.94,0.0998,-0.1023,0.3141,0.0382,-0.0570,0.3000,0.2611,2.63,0.76,15.58,1.6740,0.4230,1.4340,1.4810,2.3860,0,0.0000,0.0000,0.0000,0.0000,0.0000,0
18714,0.0464,-0.0556,0.3134,-0.0121,0.0666,0.0082,0.52,0.76,-0.52,0,3.679,6.372,1.988,-0.758,-0.003,-0.016,0.992,0.000,0.000,0.000,0.3120,-1,0,-0.81,0.51,-0.99,0.0946,-0.0963,0.3140,0.0382,-0.0570,0.3000,0.2612,3.09,0.08,15.49,1.6720,0.4230,1.4340,1.4810,2.3860,0,0.0000,0.0000,0.0000,0.0000,0.0000,0
18765,0.0437,-0.0525,0.3124,-0.0230,0.0613,0.0006,0.84,0.58,-0.52,0,3.679,5.934,8.659,-0.888,-0.001,-0.013,1.001,0.000,0.000,0.000,0.3120,-1,2,-0.48,0.41,-1.03,0.0946,-0.0931,0.3135,0.0382,-0.0570,0.3000,0.2622,3.04,-0.63,15.73,1.6720,0.4290,1.4280,1.4850,2.3940,0,0.0000,0.0000,0.0000,0.0000,0.0000,0
18817,0.0410,-0.0483,0.3122,-0.0311,0.0570,-0.0012,1.03,0.21,-0.53,0,3.674,7.747,6.450,-0.148,0.000,-0.016,0.998,0.000,0.000,0.000,0.3100,-1,2,-0.17,0.00,-1.10,0.0887,-0.0898,0.3131,0.0382,-0.0570,0.3000,0.2625,3.14,-1.20,15.81,1.6710,0.4290,1.4280,1.4850,2.3940,0,0.0000,0.0000,0.0000,0.0000,0.0000,0
18868,0.0391,-0.0461,0.3120,-0.0325,0.0465,-0.0015,1.36,-0.15,-0.51,0,3.679,3.003,2.838,-0.324,0.003,-0.015,0.993,0.000,0.000,0.000,0.3110,-3,1,0.24,-0.31,-1.10,0.0827,-0.0867,0.3120,0.0382,-0.0570,0.3000,0.2625,2.80,-1.39,15.36,1.6710,0.4430,1.4300,1.5070,2.3970,0,0.0000,0.0000,0.0000,0.0000,0.0000,0
18919,0.0343,-0.0455,0.3109,-0.0389,0.0304,-0.0068,1.57,-0.33,-0.50,0,3.674,0.566,3.148,0.059,-0.002,-0.014,0.999,0.000,0.000,0.000,0.3080,0,2,0.35,-0.45,-1.08,0.0798,-0.0774,0.3112,0.0382,-0.0570,0.3000,0.2633,2.08,-2.03,14.91,1.6630,0.4430,1.4300,1.5070,2.3970,0,0.0000,0.0000,0.0000,0.0000,0.0000,0
18971,0.0312,-0.0436,0.3107,-0.0387,0.0184,-0.0063,1.55,-0.56,-0.49,0,3.679,-4.158,3.446,0.043,0.003,-0.009,1.005,0.000,0.000,0.000,0.3120,0,3,0.40,-0.58,-1.05,0.0735,-0.0772,0.3097,0.0382,-0.0570,0.3000,0.2633,1.65,-2.24,14.69,1.6630,0.4450,1.4280,1.4970,2.4000,0,0.0000,0.0000,0.0000,0.0000,0.0000,0
19021,0.0291,-0.0439,0.3090,-0.0342,0.0030,-0.0109,1.31,-0.89,-0.48,0,3.674,-3.848,5.867,-0.538,0.005,-0.005,1.004,0.000,0.000,0.000,0.3130,0,0,0.20,-0.72,-0.96,0.0641,-0.0768,0.3099,0.0382,-0.0570,0.3000,0.2641,0.90,-2.17,14.37,1.6650,0.4450,1.4280,1.4970,2.4000,0,0.0000,0.0000,0.0000,0.0000,0.0000,0
19073,0.0255,-0.0457,0.3102,-0.0311,-0.0122,-0.0007,1.09,-1.12,-0.48,0,3.679,-7.693,4.516,-1.014,0.002,-0.013,1.009,0.000,0.000,0.000,0.3100,0,0,0.01,-1.01,-0.98,0.0607,-0.0748,0.3105,0.0382,-0.0570,0.3000,0.2628,0.06,-2.29,14.47,1.6650,0.4540,1.4290,1.5270,2.3950,0,0.0000,0.0000,0.0000,0.0000,0.0000,0
19124,0.0234,-0.0453,0.3116,-0.0229,-0.0179,0.0082,0.65,-1.34,-0.51,0,3.674,-3.973,0.715,0.196,0.000,-0.006,1.005,0.000,0.000,0.000,0.3110,0,1,-0.39,-1.25,-1.04,0.0578,-0.0733,0.3104,0.0382,-0.0570,0.3000,0.2615,-0.17,-2.06,15.27,1.6550,0.4540,1.4290,1.5270,2.3950,0,0.0000,0.0000,0.0000,0.0000,0.0000,0
19175,0.0231,-0.0486,0.3112,-0.0098,-0.0288,0.0068,0.37,-1.44,-0.50,0,3.679,-3.209,-1.557,1.004,-0.003,-0.011,1.005,0.000,0.000,0.000,0.3120,2,0,-0.56,-1.32,-1.08,0.0611,-0.0785,0.3108,0.0382,-0.0570,0.3000,0.2618,-0.93,-1.47,15.01,1.6550,0.4520,1.4260,1.5350,2.3970,0,0.0000,0.0000,0.0000,0.0000,0.0000,0
19226,0.0229,-0.0521,0.3115,0.0025,-0.0365,0.0076,0.19,-1.34,-0.44,0,3.674,-7.283,-7.136,2.144,0.002,-0.014,1.000,0.000,0.000,0.000,0.3100,2,-1,-0.70,-1.24,-1.00,0.0606,-0.0816,0.3115,0.0382,-0.0570,0.3000,0.2616,-1.54,-0.89,13.18,1.6570,0.4520,1.4260,1.5350,2.3970,0,0.0000,0.0000,0.0000,0.0000,0.0000,0
19277,0.0231,-0.0530,0.3121,0.0129,-0.0353,0.0079,-0.18,-1.11,-0.33,0,3.674,-4.262,-4.032,2.343,-0.001,-0.009,1.002,0.000,0.000,0.000,0.3120,0,-2,-1.04,-0.89,-0.87,0.0623,-0.0854,0.3113,0.0382,-0.0570,0.3000,0.2615,-1.55,-0.39,9.91,1.6570,0.4570,1.4290,1.5080,2.3950,0,0.0000,0.0000,0.0000,0.0000,0.0000,0
19328,0.0251,-0.0572,0.3114,0.0246,-0.0392,0.0036,-0.43,-0.82,-0.19,0,3.674,-2.776,-5.661,4.339,0.002,-0.011,0.999,0.000,0.000,0.000,0.3110,0,0,-1.26,-0.72,-0.80,0.0666,-0.0859,0.3118,0.0382,-0.0570,0.3000,0.2621,-2.02,0.30,5.80,1.6620,0.4570,1.4290,1.5080,2.3950,0,0.0000,0.0000,0.0000,0.0000,0.0000,0
19379,0.0266,-0.0597,0.3119,0.0313,-0.0372,0.0043,-0.54,-0.58,0.01,0,3.674,-3.196,-5.128,2.358,-0.001,-0.012,1.002,0.000,0.000,0.000,0.3110,0,-4,-1.40,-0.43,-0.58,0.0684,-0.0864,0.3119,0.0382,-0.0570,0.3000,0.2619,-2.11,0.72,-0.42,1.6620,0.4510,1.4310,1.4960,2.3990,0,0.0000,0.0000,0.0000,0.0000,0.0000,0
19431,0.0292,-0.0611,0.3116,0.0378,-0.0315,0.0012,-0.73,-0.36,0.17,0,3.669,-3.124,-4.772,1.518,0.003,-0.013,0.999,0.000,0.000,0.000,0.3080,0,-2,-1.57,-0.24,-0.54,0.0802,-0.0866,0.3117,0.0382,-0.0570,0.3000,0.2623,-1.94,1.21,-4.95,1.6610,0.4510,1.4310,1.4960,2.3990,0,0.0000,0.0000,0.0000,0.0000,0.0000,0
19482,0.0350,-0.0623,0.3108,0.0496,-0.0243,-0.0024,-0.92,-0.15,0.25,0,3.674,1.127,-3.438,1.628,-0.002,-0.011,1.008,0.000,0.000,0.000,0.3070,0,0,-1.73,-0.00,-0.46,0.0856,-0.0866,0.3107,0.0382,-0.0570,0.3000,0.2628,-1.68,2.18,-7.37,1.6610,0.4430,1.4220,1.4420,2.3920,0,0.0000,0.0000,0.0000,0.0000,0.0000,0
19533,0.0388,-0.0628,0.3093,0.0535,-0.0154,-0.0056,-0.89,0.05,0.33,0,3.669,1.004,-7.708,2.202,-0.001,-0.015,1.007,0.000,0.000,0.000,0.3100,1,-4,-1.67,0.17,-0.37,0.0899,-0.0859,0.3098,0.0382,-0.0570,0.3000,0.2635,-1.30,2.62,-9.76,1.6690,0.4430,1.4220,1.4420,2.3920,0,0.0000,0.0000,0.0000,0.0000,0.0000,0
19584,0.0407,-0.0593,0.3079,0.0505,0.0022,-0.0073,-0.86,0.42,0.41,0,3.674,2.498,-9.058,-0.265,0.005,-0.013,1.008,0.000,0.000,0.000,0.3100,0,-1,-1.58,0.53,-0.23,0.0983,-0.0905,0.3101,0.0382,-0.0570,0.3000,0.2639,-0.22,2.61,-12.28,1.6690,0.4410,1.4220,1.3990,2.4010,0,0.0000,0.0000,0.0000,0.0000,0.0000,0
19636,0.0455,-0.0600,0.3087,0.0513,0.0075,0.0008,-0.81,0.87,0.43,0,3.669,2.674,-2.080,0.448,0.003,-0.010,1.010,0.000,0.000,0.000,0.3080,0,1,-1.45,1.00,-0.23,0.1023,-0.0904,0.3107,0.0382,-0.0570,0.3000,0.2629,-0.02,3.00,-12.84,1.6690,0.4410,1.4220,1.3990,2.4010,0,0.0000,0.0000,0.0000,0.0000,0.0000,0
19687,0.0493,-0.0575,0.3069,0.0466,0.0186,-0.0029,-0.65,1.04,0.44,0,3.674,4.739,2.512,1.503,0.001,-0.019,1.008,0.000,0.000,0.000,0.3080,-1,0,-1.31,1.14,-0.20,0.1015,-0.0902,0.3108,0.0382,-0.0570,0.3000,0.2636,0.67,3.04,-13.31,1.6690,0.4240,1.4230,1.3510,2.3990,0,0.0000,0.0000,0.0000,0.0000,0.0000,0
19737,0.0517,-0.0560,0.3074,0.0381,0.0252,0.0041,-0.40,1.03,0.50,0,3.663,-0.126,-1.540,2.270,0.003,-0.016,1.004,0.000,0.000,0.000,0.3060,-2,-1,-1.08,1.03,-0.12,0.1022,-0.0878,0.3108,0.0382,-0.0570,0.3000,0.2628,1.10,2.82,-15.09,1.6710,0.4240,1.4230,1.3510,2.3990,0,0.0000,0.0000,0.0000,0.0000,0.0000,0
19789,0.0531,-0.0550,0.3065,0.0310,0.0275,0.0019,-0.28,1.07,0.61,0,3.674,3.849,-3.400,2.860,0.001,-0.015,1.007,0.000,0.000,0.000,0.3080,-1,-1,-1.12,1.10,0.03,0.1049,-0.0827,0.3101,0.0382,-0.0570,0.3000,0.2632,1.27,2.58,-18.36,1.6710,0.4300,1.4240,1.3050,2.3860,0,0.0000,0.0000,0.0000,0.0000,0.0000,0
19840,0.0550,-0.0528,0.3065,0.0202,0.0308,0.0060,-0.08,1.30,0.73,0,3.669,6.362,0.569,1.895,0.002,-0.014,1.005,0.000,0.000,0.000,0.3050,-2,0,-0.93,1.26,0.19,0.1077,-0.0798,0.3103,0.0382,-0.0570,0.3000,0.2627,1.58,2.21,-21.78,1.6810,0.4300,1.4240,1.3050,2.3860,0,0.0000,0.0000,0.0000,0.0000,0.0000,0
19892,0.0549,-0.0500,0.3076,0.0096,0.0348,0.0132,0.19,1.28,0.86,0,3.674,8.103,1.562,4.181,0.002,-0.017,1.001,0.000,0.000,0.000,0.3040,-3,0,-0.63,1.24,0.34,0.1077,-0.0741,0.3094,0.0382,-0.0570,0.3000,0.2618,1.98,1.71,-25.82,1.6810,0.4240,1.4230,1.2870,2.3890,0,0.0000,0.0000,0.0000,0.0000,0.0000,0
19943,0.0552,-0.0478,0.3069,-0.0012,0.0341,0.0101,0.56,1.18,1.06,0,3.663,5.158,3.567,4.709,0.003,-0.009,1.010,0.000,0.000,0.000,0.3050,-1,1,-0.25,1.17,0.64,0.1074,-0.0654,0.3082,0.0382,-0.0570,0.3000,0.2622,2.10,1.22,-31.70,1.6790,0.4240,1.4230,1.2870,2.3890,0,0.0000,0.0000,0.0000,0.0000,0.0000,0
19994,0.0540,-0.0435,0.3060,-0.0149,0.0333,0.0063,0.87,1.04,1.27,0,3.669,3.279,6.168,5.184,0.002,-0.012,1.006,0.000,0.000,0.000,0.3070,-1,2,0.01,1.00,0.88,0.1046,-0.0623,0.3079,0.0382,-0.0570,0.3000,0.2628,2.36,0.48,-38.18,1.6790,0.4290,1.4230,1.2500,2.3870,0,0.0000,0.0000,0.0000,0.0000,0.0000,0
20046,0.0534,-0.0412,0.3058,-0.0217,0.0295,0.0056,1.00,0.77,1.53,0,3.663,1.612,7.401,7.049,0.002,-0.013,1.010,0.000,0.000,0.000,0.3130,0,1,0.18,0.72,1.19,0.0987,-0.0591,0.3082,0.0382,-0.0570,0.3000,0.2629,2.34,0.12,-45.90,1.6860,0.4290,1.4230,1.2500,2.3870,0,0.0000,0.0000,0.0000,0.0000,0.0000,0
20097,0.0509,-0.0400,0.3067,-0.0307,0.0206,0.0112,1.07,0.38,1.87,0,3.674,4.684,4.596,7.694,0.005,-0.010,1.003,0.000,0.000,0.000,0.3130,-1,0,0.27,0.34,1.53,0.0958,-0.0591,0.3107,0.0382,-0.0570,0.3000,0.2621,2.01,-0.48,-56.09,1.6860,0.4330,1.4290,1.2260,2.3890,0,0.0000,0.0000,0.0000,0.0000,0.0000,0
20148,0.0475,-0.0392,0.3105,-0.0380,0.0115,0.0280,1.28,0.22,2.24,0,3.663,0.613,6.008,7.686,-0.001,-0.011,1.002,0.000,0.000,0.000,0.3100,0,0,0.50,0.10,1.91,0.0955,-0.0561,0.3127,0.0382,-0.0570,0.3000,0.2596,1.66,-1.07,-67.20,1.6870,0.4330,1.4290,1.2260,2.3890,0,0.0000,0.0000,0.0000,0.0000,0.0000,0
20199,0.0451,-0.0382,0.3111,-0.0405,0.0018,0.0246,1.33,-0.02,2.64,0,3.674,-2.910,6.054,5.578,0.010,-0.010,0.992,0.000,0.000,0.000,0.3100,0,0,0.54,-0.21,2.30,0.0936,-0.0545,0.3132,0.0382,-0.0570,0.3000,0.2599,1.27,-1.36,-79.09,1.6870,0.4430,1.4400,1.2020,2.3880,0,0.0000,0.0000,0.0000,0.0000,0.0000,0
20250,0.0429,-0.0386,0.3116,-0.0404,-0.0098,0.0184,1.14,-0.37,2.94,0,3.669,-4.602,6.236,4.242,0.000,-0.004,0.995,0.000,0.000,0.000,0.3170,4,0,0.39,-0.51,2.59,0.0920,-0.0533,0.3132,0.0382,-0.0570,0.3000,0.2604,0.69,-1.51,-88.26,1.6820,0.4430,1.4400,1.2020,2.3880,0,0.0000,0.0000,0.0000,0.0000,0.0000,0
20301,0.0383,-0.0405,0.3115,-0.0435,-0.0223,0.0130,0.95,-0.64,3.17,0,3.674,-6.529,3.839,3.496,0.004,-0.016,0.991,0.000,0.000,0.000,0.3170,1,0,0.28,-0.87,2.59,0.0977,-0.0745,0.3152,0.0382,-0.0570,0.3000,0.2610,-0.04,-1.98,-95.20,1.6820,0.4490,1.4430,1.1840,2.3800,0,0.0000,0.0000,0.0000,0.0000,0.0000,0
20352,0.0365,-0.0432,0.3149,-0.0372,-0.0328,0.0230,0.66,-0.80,3.34,0,3.669,1.961,3.231,1.090,-0.002,-0.010,0.989,0.000,0.000,0.000,0.3170,0,0,-0.05,-1.06,2.77,0.0979,-0.0778,0.3164,0.0382,-0.0570,0.3000,0.2593,-0.74,-1.82,-100.28,1.6880,0.4490,1.4430,1.1840,2.3800,0,0.0000,0.0000,0.0000,0.0000,0.0000,0
20404,0.0349,-0.0438,0.3169,-0.0298,-0.0351,0.0236,0.63,-0.98,3.42,0,3.679,-4.457,3.598,1.150,0.003,-0.007,0.985,0.000,0.000,0.000,0.3170,3,0,0.05,-1.23,2.83,0.0987,-0.0813,0.3171,0.0382,-0.0570,0.3000,0.2589,-0.89,-1.59,-102.64,1.6880,0.4470,1.4520,1.1790,2.3810,0,0.0000,0.0000,0.0000,0.0000,0.0000,0
20454,0.0353,-0.0487,0.3179,-0.0173,-0.0470,0.0176,0.45,-1.16,3.48,0,3.674,-13.430,-4.355,-0.480,0.002,-0.014,0.987,0.000,0.000,0.000,0.3160,0,0,-0.17,-1.40,2.95,0.0976,-0.0867,0.3171,0.0382,-0.0570,0.3000,0.2593,-1.81,-0.96,-104.51,1.6870,0.4470,1.4520,1.1790,2.3810,0,0.0000,0.0000,0.0000,0.0000,0.0000,0
20505,0.0351,-0.0520,0.3180,-0.0064,-0.0523,0.0071,-0.15,-0.97,3.48,0,3.669,-10.030,-6.019,-3.160,-0.001,-0.004,0.996,0.000,0.000,0.000,0.3170,3,0,-0.84,-1.18,2.93,0.0992,-0.0911,0.3165,0.0382,-0.0570,0.3000,0.2604,-2.29,-0.45,-104.37,1.6870,0.4530,1.4460,1.1720,2.3840,0,0.0000,0.0000,0.0000,0.0000,0.0000,0
20556,0.0365,-0.0573,0.3172,0.0051,-0.0573,-0.0018,-0.51,-0.63,3.33,0,3.669,-1.338,0.896,-3.946,0.003,-0.011,0.988,0.000,0.000,0.000,0.3150,0,0,-1.34,-0.85,2.85,0.0977,-0.0962,0.3163,0.0382,-0.0570,0.3000,0.2615,-2.89,0.19,-99.99,1.6920,0.4530,1.4460,1.1720,2.3840,0,0.0000,0.0000,0.0000,0.0000,0.0000,0
20607,0.0394,-0.0589,0.3169,0.0163,-0.0502,-0.0064,-0.63,-0.63,3.13,0,3.669,-3.951,-0.790,-4.591,-0.001,-0.015,0.996,0.000,0.000,0.000,0.3150,0,-1,-1.42,-0.89,2.65,0.0995,-0.1003,0.3152,0.0382,-0.0570,0.3000,0.2621,-2.66,0.93,-93.84,1.6920,0.4400,1.4420,1.1770,2.3870,0,0.0000,0.0000,0.0000,0.0000,0.0000,0
20658,0.0408,-0.0613,0.3156,0.0223,-0.0446,-0.0139,-0.83,-0.62,2.89,0,3.663,-5.786,-2.413,-4.740,0.002,-0.011,0.997,0.000,0.000,0.000,0.3120,0,0,-1.68,-0.83,2.32,0.1008,-0.0973,0.3145,0.0382,-0.0570,0.3000,0.2632,-2.56,1.30,-86.58,1.6850,0.4400,1.4420,1.1770,2.3870,0,0.0000,0.0000,0.0000,0.0000,0.0000,0
20709,0.0419,-0.0619,0.3147,0.0270,-0.0340,-0.0146,-1.10,-0.48,2.62,0,3.663,-1.751,-2.325,-8.276,-0.003,-0.006,1.009,0.000,0.000,0.000,0.3100,0,-1,-1.97,-0.70,2.08,0.1030,-0.0990,0.3128,0.0382,-0.0570,0.3000,0.2634,-2.10,1.60,-78.62,1.6850,0.4390,1.4380,1.1980,2.3860,0,0.0000,0.0000,0.0000,0.0000,0.0000,0
20760,0.0442,-0.0617,0.3127,0.0326,-0.0208,-0.0184,-1.14,-0.31,2.25,0,3.663,1.195,-6.254,-7.430,-0.001,-0.014,1.010,0.000,0.000,0.000,0.3100,0,-1,-2.08,-0.56,1.64,0.1038,-0.0983,0.3111,0.0382,-0.0570,0.3000,0.2642,-1.46,2.02,-67.64,1.6810,0.4390,1.4380,1.1980,2.3860,0,0.0000,0.0000,0.0000,0.0000,0.0000,0
20811,0.0471,-0.0617,0.3106,0.0376,-0.0093,-0.0200,-1.11,-0.06,1.85,0,3.663,3.423,-7.182,-7.488,-0.003,-0.013,1.011,0.000,0.000,0.000,0.3090,1,-3,-2.02,-0.23,1.27,0.1065,-0.0982,0.3100,0.0382,-0.0570,0.3000,0.2648,-0.92,2.45,-55.51,1.6810,0.4370,1.4200,1.2350,2.4000,0,0.0000,0.0000,0.0000,0.0000,0.0000,0
20862,0.0491,-0.0571,0.3095,0.0378,0.0111,-0.0162,-0.99,0.31,1.47,0,3.663,8.384,-7.694,-7.330,-0.003,-0.012,1.011,0.000,0.000,0.000,0.3050,-2,-2,-1.83,0.12,0.96,0.1129,-0.0995,0.3092,0.0382,-0.0570,0.3000,0.2645,0.35,2.60,-44.23,1.6820,0.4370,1.4200,1.2350,2.4000,0,0.0000,0.0000,0.0000,0.0000,0.0000,0
20913,0.0507,-0.0575,0.3087,0.0341,0.0171,-0.0107,-0.67,0.75,1.11,0,3.663,7.653,-8.003,-6.912,-0.002,-0.012,1.013,0.000,0.000,0.000,0.3080,-2,0,-1.43,0.51,0.58,0.1180,-0.0952,0.3075,0.0382,-0.0570,0.3000,0.2641,0.61,2.55,-33.39,1.6820,0.4330,1.4090,1.2760,2.4020,0,0.0000,0.0000,0.0000,0.0000,0.0000,0
20964,0.0521,-0.0518,0.3065,0.0273,0.0332,-0.0117,-0.29,1.16,0.76,0,3.663,9.192,-2.347,-7.150,-0.001,-0.014,1.012,0.000,0.000,0.000,0.3070,-2,0,-1.06,0.94,0.21,0.1190,-0.0904,0.3075,0.0382,-0.0570,0.3000,0.2646,1.76,2.33,-22.74,1.6840,0.4330,1.4090,1.2760,2.4020,0,0.0000,0.0000,0.0000,0.0000,0.0000,0
21016,0.0523,-0.0502,0.3069,0.0153,0.0351,-0.0020,0.14,1.27,0.38,0,3.669,6.092,4.902,-7.935,-0.006,-0.018,1.010,0.000,0.000,0.000,0.3050,-1,0,-0.60,1.08,-0.16,0.1196,-0.0851,0.3075,0.0382,-0.0570,0.3000,0.2635,1.97,1.79,-11.52,1.6840,0.4330,1.4130,1.3110,2.3950,0,0.0000,0.0000,0.0000,0.0000,0.0000,0
