time_ms,pos_x,pos_y,pos_z,vel_x,vel_y,vel_z,roll,pitch,yaw,thrust,vbat,gyro_x,gyro_y,gyro_z,acc_x,acc_y,acc_z,rate_roll,rate_pitch,rate_yaw,range_z,flow_dx,flow_dy,mekf_roll,mekf_pitch,mekf_yaw,mekf_x,mekf_y,mekf_z,our_ref_x,our_ref_y,our_ref_z,our_thrust,our_roll_cmd,our_pitch_cmd,our_yaw_rate_cmd,multi_front,multi_back,multi_left,multi_right,multi_up,ai_feat_count,vo_x,vo_y,vo_sigma,pg_x,pg_y,lc_count,canfly,is_tumbled,ctrltarget_z,motor_m1req,ctrltarget_x,ctrltarget_y,motor_m2req,motor_m3req,motor_m4req
0,-1.3256,0.8465,0.0055,0.1052,0.0143,-0.0138,-1.34,0.98,-82.90,0,4.080,-0.074,0.133,0.022,0.020,-0.008,0.997,0.000,0.000,0.000,0.0060,0,-2,0.00,0.00,0.00,0.0000,0.0000,0.0000,0.0000,0.0000,0.0000,0.0000,0.00,0.00,0.00,1.0680,0.0700,1.1760,1.2430,2.7060,0,0.0000,0.0000,0.0000,0.0000,0.0000,0,1,0,0.0400,0,0.0014,-0.0031,0,0,0
151,-1.3224,0.8462,0.0056,0.0998,0.0101,-0.0096,-1.44,1.05,-82.52,0,4.091,-0.027,-0.140,0.197,0.018,-0.009,0.999,0.000,0.000,0.000,0.0070,3,0,0.00,0.00,0.00,0.0000,0.0000,0.0000,0.0000,0.0000,0.0000,0.0000,0.00,0.00,0.00,1.0680,0.0680,1.1750,1.2450,2.7010,0,0.0000,0.0000,0.0000,0.0000,0.0000,0,1,0,0.0400,0,0.0014,-0.0031,0,0,0
302,-1.3168,0.8490,0.0061,0.1066,0.0208,-0.0043,-1.19,1.00,-82.14,0,4.080,-0.015,0.157,0.309,0.019,-0.008,0.999,0.000,0.000,0.000,0.0090,1,5,0.00,0.00,0.00,0.0000,0.0000,0.0000,0.0000,0.0000,0.0000,0.0000,0.00,0.00,0.00,1.0680,0.0680,1.1750,1.2450,2.7010,0,0.0000,0.0000,0.0000,0.0000,0.0000,0,1,0,0.0400,0,0.0014,-0.0031,0,0,0
454,-1.3170,0.8481,0.0077,0.0837,0.0120,0.0066,-1.01,0.93,-81.76,0,4.091,0.189,-0.244,-0.044,0.018,-0.010,0.997,0.000,0.000,0.000,0.0090,0,3,0.00,0.00,0.00,0.0000,0.0000,0.0000,0.0000,0.0000,0.0000,0.0000,0.00,0.00,0.00,1.0690,0.0690,1.1740,1.2380,2.7040,0,0.0000,0.0000,0.0000,0.0000,0.0000,0,1,0,0.0400,0,0.0014,-0.0031,0,0,0
604,-1.3204,0.8469,0.0090,0.0461,0.0032,0.0126,-0.48,0.95,-81.40,0,4.080,0.085,-0.102,-0.046,0.020,-0.008,0.999,0.000,0.000,0.000,0.0090,-2,1,0.00,0.00,0.00,0.0000,0.0000,0.0000,0.0000,0.0000,0.0000,0.0000,0.00,0.00,0.00,1.0690,0.0690,1.1740,1.2380,2.7040,0,0.0000,0.0000,0.0000,0.0000,0.0000,0,1,0,0.0400,0,0.0014,-0.0031,0,0,0
756,-1.3182,0.8486,0.0094,0.0499,0.0098,0.0116,-0.88,1.02,-81.03,0,4.091,0.091,0.128,-0.166,0.020,-0.005,0.999,0.000,0.000,0.000,0.0090,-2,0,0.00,0.00,0.00,0.0000,0.0000,0.0000,0.0000,0.0000,0.0000,0.0000,0.00,0.00,0.00,1.0600,0.0640,1.1750,1.2350,2.6980,0,0.0000,0.0000,0.0000,0.0000,0.0000,0,1,0,0.0400,0,0.0014,-0.0031,0,0,0
907,-1.3134,0.8491,0.0097,0.0608,0.0089,0.0099,-0.71,1.00,-80.66,0,4.080,-0.344,-0.132,0.484,0.020,-0.008,0.999,0.000,0.000,0.000,0.0080,2,4,0.00,0.00,0.00,0.0000,0.0000,0.0000,0.0000,0.0000,0.0000,0.0000,0.00,0.00,0.00,1.0600,0.0640,1.1750,1.2350,2.6980,0,0.0000,0.0000,0.0000,0.0000,0.0000,0,1,0,0.0400,0,0.0014,-0.0031,0,0,0
959,-1.3178,0.8488,0.0095,0.0224,0.0041,0.0071,-0.56,1.02,-80.29,0,4.091,0.279,0.139,-0.339,0.019,-0.009,0.998,0.000,0.000,0.000,0.0070,-5,0,0.00,0.00,0.00,0.0000,0.0000,0.0000,0.0000,0.0000,0.0000,0.0000,0.00,0.00,0.00,1.0670,0.0630,1.1770,1.2400,2.7050,0,0.0000,0.0000,0.0000,0.0000,0.0000,0,1,0,0.0400,0,0.0014,-0.0031,0,0,0
1009,-1.3137,0.8499,0.0088,0.0354,0.0071,0.0006,-0.46,1.02,-79.92,0,4.080,0.199,0.100,0.084,0.020,-0.008,1.002,0.000,0.000,0.000,0.0070,1,-1,0.00,0.00,0.00,0.0000,0.0000,0.0000,0.0000,0.0000,0.0000,0.0000,0.00,0.00,0.00,1.0670,0.0630,1.1770,1.2400,2.7050,0,0.0000,0.0000,0.0000,0.0000,0.0000,0,1,0,0.0400,0,0.0014,-0.0031,0,0,0
1061,-1.3134,0.8506,0.0081,0.0287,0.0073,-0.0030,-0.42,1.02,-79.56,0,4.091,0.054,0.143,0.042,0.018,-0.009,1.001,0.000,0.000,0.000,0.0080,-3,1,0.00,0.00,0.00,0.0000,0.0000,0.0000,0.0000,0.0000,0.0000,0.0000,0.00,0.00,0.00,1.0650,0.0680,1.1760,1.2430,2.7080,0,0.0000,0.0000,0.0000,0.0000,0.0000,0,1,0,0.0400,0,0.0014,-0.0031,0,0,0
1113,-1.3144,0.8506,0.0080,0.0166,0.0043,-0.0028,-0.36,0.95,-79.20,0,4.080,0.213,-0.039,-0.295,0.018,-0.007,0.999,0.000,0.000,0.000,0.0090,-8,9,0.00,0.00,0.00,0.0000,0.0000,0.0000,0.0000,0.0000,0.0000,0.0000,0.00,0.00,0.00,1.0650,0.0680,1.1760,1.2430,2.7080,0,0.0000,0.0000,0.0000,0.0000,0.0000,0,1,0,0.0400,0,0.0014,-0.0031,0,0,0
1164,-1.3166,0.8489,0.0084,-0.0013,-0.0069,0.0010,-0.15,0.90,-78.84,0,4.091,-0.028,-0.007,-0.088,0.020,-0.007,1.000,0.000,0.000,0.000,0.0080,-5,3,0.00,0.00,0.00,0.0000,0.0000,0.0000,0.0000,0.0000,0.0000,0.0000,0.00,0.00,0.00,1.0630,0.0680,1.1740,1.2400,2.7060,0,0.0000,0.0000,0.0000,0.0000,0.0000,0,1,0,0.0400,0,0.0014,-0.0031,0,0,0
1215,-1.3195,0.8475,0.0083,-0.0193,-0.0146,-0.0000,-0.06,0.90,-78.47,0,4.080,-0.002,0.035,-0.037,0.018,-0.007,1.002,0.000,0.000,0.000,0.0080,-7,0,0.00,0.00,0.00,0.0000,0.0000,0.0000,0.0000,0.0000,0.0000,0.0000,0.00,0.00,0.00,1.0630,0.0680,1.1740,1.2400,2.7060,0,0.0000,0.0000,0.0000,0.0000,0.0000,0,1,0,0.0400,0,0.0014,-0.0031,0,0,0
1266,-1.3149,0.8489,0.0083,0.0083,-0.0048,0.0005,-0.25,0.95,-78.11,0,4.091,0.167,0.030,0.223,0.019,-0.007,1.001,0.000,0.000,0.000,0.0100,-2,0,0.00,0.00,0.00,0.0000,0.0000,0.0000,0.0000,0.0000,0.0000,0.0000,0.00,0.00,0.00,1.0680,0.0680,1.1720,1.2370,2.6940,0,0.0000,0.0000,0.0000,0.0000,0.0000,0,1,0,0.0400,0,0.0014,-0.0031,0,0,0
1317,-1.3199,0.8465,0.0091,-0.0212,-0.0177,0.0044,-0.05,0.89,-77.75,0,4.080,-0.082,-0.229,-0.014,0.019,-0.008,1.002,0.000,0.000,0.000,0.0070,0,0,0.00,0.00,0.00,0.0000,0.0000,0.0000,0.0000,0.0000,0.0000,0.0000,0.00,0.00,0.00,1.0680,0.0680,1.1720,1.2370,2.6940,0,0.0000,0.0000,0.0000,0.0000,0.0000,0,1,0,0.0400,0,0.0014,-0.0031,0,0,0
1369,-1.3230,0.8454,0.0083,-0.0340,-0.0209,-0.0010,-0.03,0.88,-77.39,0,4.091,-0.018,-0.299,0.140,0.018,-0.008,0.999,0.000,0.000,0.000,0.0080,2,0,0.00,0.00,0.00,0.0000,0.0000,0.0000,0.0000,0.0000,0.0000,0.0000,0.00,0.00,0.00,1.0670,0.0710,1.1780,1.2440,2.6960,0,0.0000,0.0000,0.0000,0.0000,0.0000,0,1,0,0.0400,0,0.0014,-0.0031,0,0,0
1420,-1.3219,0.8449,0.0082,-0.0218,-0.0206,-0.0008,-0.12,0.94,-77.10,0,4.086,0.198,-0.007,-0.206,0.019,-0.006,1.000,0.000,0.000,0.000,0.0040,0,0,0.00,0.00,0.00,0.0000,0.0000,0.0000,0.0000,0.0000,0.0000,0.0000,0.00,0.00,0.00,1.0670,0.0710,1.1780,1.2440,2.6960,0,0.0000,0.0000,0.0000,0.0000,0.0000,0,1,0,0.0400,0,0.0014,-0.0031,0,0,0
1471,-1.3227,0.8448,0.0064,-0.0213,-0.0183,-0.0102,-0.17,0.94,-76.67,0,4.091,-0.009,0.222,0.196,0.017,-0.008,1.001,0.000,0.000,0.000,0.0100,2,2,0.00,0.00,0.00,0.0000,0.0000,0.0000,0.0000,0.0000,0.0000,0.0000,0.00,0.00,0.00,1.0660,0.0670,1.1740,1.2420,2.7010,0,0.0000,0.0000,0.0000,0.0000,0.0000,0,1,0,0.0400,0,0.0014,-0.0031,0,0,0
1523,-1.3228,0.8445,0.0076,-0.0178,-0.0171,-0.0011,-0.21,0.94,-76.32,0,4.080,-0.065,0.019,0.004,0.017,-0.009,0.999,0.000,0.000,0.000,0.0070,2,3,0.00,0.00,0.00,0.0000,0.0000,0.0000,0.0000,0.0000,0.0000,0.0000,0.00,0.00,0.00,1.0660,0.0670,1.1740,1.2420,2.7010,0,0.0000,0.0000,0.0000,0.0000,0.0000,0,1,0,0.0400,0,0.0014,-0.0031,0,0,0
1574,-1.3221,0.8450,0.0074,-0.0107,-0.0118,-0.0017,-0.31,0.97,-75.96,0,4.091,0.026,0.259,0.349,0.019,-0.006,1.000,0.000,0.000,0.000,0.0070,0,0,0.00,0.00,0.00,0.0000,0.0000,0.0000,0.0000,0.0000,0.0000,0.0000,0.00,0.00,0.00,1.0720,0.0660,1.1720,1.2400,2.7090,0,0.0000,0.0000,0.0000,0.0000,0.0000,0,1,0,0.0400,0,0.0014,-0.0031,0,0,0
1625,-1.3236,0.8455,0.0072,-0.0156,-0.0076,-0.0023,-0.35,1.00,-75.68,0,4.080,-0.059,-0.183,-0.091,0.019,-0.007,1.001,0.000,0.000,0.000,0.0080,2,2,0.00,0.00,0.00,0.0000,0.0000,0.0000,0.0000,0.0000,0.0000,0.0000,0.00,0.00,0.00,1.0720,0.0660,1.1720,1.2400,2.7090,0,0.0000,0.0000,0.0000,0.0000,0.0000,0,1,0,0.0400,0,0.0014,-0.0031,0,0,0
1676,-1.3236,0.8443,0.0075,-0.0130,-0.0125,-0.0001,-0.33,0.97,-75.33,0,4.091,-0.119,-0.129,-0.079,0.019,-0.008,0.999,0.000,0.000,0.000,0.0090,0,-1,0.00,0.00,0.00,0.0000,0.0000,0.0000,0.0000,0.0000,0.0000,0.0000,0.00,0.00,0.00,1.0630,0.0680,1.1730,1.2440,2.6970,0,0.0000,0.0000,0.0000,0.0000,0.0000,0,1,0,0.0400,0,0.0014,-0.0031,0,0,0
1728,-1.3221,0.8450,0.0082,-0.0031,-0.0083,0.0036,-0.39,1.00,-74.98,0,4.080,0.406,0.091,0.194,0.018,-0.009,0.998,0.000,0.000,0.000,0.0070,1,1,0.00,0.00,0.00,0.0000,0.0000,0.0000,0.0000,0.0000,0.0000,0.0000,0.00,0.00,0.00,1.0630,0.0680,1.1730,1.2440,2.6970,0,0.0000,0.0000,0.0000,0.0000,0.0000,0,1,0,0.0400,0,0.0014,-0.0031,0,0,0
1778,-1.3144,0.8468,0.0077,0.0385,0.0014,-0.0002,-0.78,1.01,-74.62,0,4.091,0.114,-0.049,0.254,0.018,-0.009,0.998,0.000,0.000,0.000,0.0070,-14,7,0.00,0.00,0.00,0.0000,0.0000,0.0000,0.0000,0.0000,0.0000,0.0000,0.00,0.00,0.00,1.0700,0.0650,1.1720,1.2410,2.6980,0,0.0000,0.0000,0.0000,0.0000,0.0000,0,1,0,0.0400,0,0.0014,-0.0031,0,0,0
1830,-1.3147,0.8469,0.0075,0.0290,0.0017,-0.0016,-0.61,0.95,-74.28,0,4.080,-0.150,0.026,-0.194,0.018,-0.008,0.996,0.000,0.000,0.000,0.0080,13,-2,0.00,0.00,0.00,0.0000,0.0000,0.0000,0.0000,0.0000,0.0000,0.0000,0.00,0.00,0.00,1.0700,0.0650,1.1720,1.2410,2.6980,0,0.0000,0.0000,0.0000,0.0000,0.0000,0,1,0,0.0400,0,0.0014,-0.0031,0,0,0
1882,-1.3145,0.8469,0.0078,0.0228,0.0007,0.0002,-0.61,1.00,-73.94,0,4.091,-0.050,0.010,-0.041,0.018,-0.007,0.999,0.000,0.000,0.000,0.0100,-5,1,0.00,0.00,0.00,0.0000,0.0000,0.0000,0.0000,0.0000,0.0000,0.0000,0.00,0.00,0.00,1.0640,0.0660,1.1750,1.2390,2.6910,0,0.0000,0.0000,0.0000,0.0000,0.0000,0,1,0,0.0400,0,0.0014,-0.0031,0,0,0
1933,-1.3135,0.8473,0.0088,0.0233,0.0018,0.0049,-0.56,0.99,-73.59,0,4.080,0.217,0.037,-0.025,0.017,-0.006,1.000,0.000,0.000,0.000,0.0060,-3,-3,0.00,0.00,0.00,0.0000,0.0000,0.0000,0.0000,0.0000,0.0000,0.0000,0.00,0.00,0.00,1.0640,0.0660,1.1750,1.2390,2.6910,0,0.0000,0.0000,0.0000,0.0000,0.0000,0,1,0,0.0400,0,0.0014,-0.0031,0,0,0
1985,-1.3182,0.8462,0.0078,-0.0059,-0.0054,-0.0016,-0.29,0.96,-73.26,0,4.091,0.038,-0.063,0.267,0.016,-0.007,0.999,0.000,0.000,0.000,0.0080,8,0,0.00,0.00,0.00,0.0000,0.0000,0.0000,0.0000,0.0000,0.0000,0.0000,0.00,0.00,0.00,1.0670,0.0680,1.1710,1.2410,2.7060,0,0.0000,0.0000,0.0000,0.0000,0.0000,0,1,0,0.0400,0,0.0014,-0.0031,0,0,0
2035,-1.3184,0.8450,0.0078,-0.0062,-0.0101,-0.0008,-0.34,0.97,-72.92,0,4.080,0.019,0.200,-0.037,0.018,-0.007,0.998,0.000,0.000,0.000,0.0050,1,-2,0.00,0.00,0.00,0.0000,0.0000,0.0000,0.0000,0.0000,0.0000,0.0000,0.00,0.00,0.00,1.0670,0.0680,1.1710,1.2410,2.7060,0,0.0000,0.0000,0.0000,0.0000,0.0000,0,1,0,0.0400,0,0.0014,-0.0031,0,0,0
2087,-1.3200,0.8437,0.0066,-0.0129,-0.0146,-0.0075,-0.37,1.01,-72.58,0,4.091,-0.290,-0.100,0.135,0.019,-0.007,1.000,0.000,0.000,0.000,0.0060,-3,4,0.00,0.00,0.00,0.0000,0.0000,0.0000,0.0000,0.0000,0.0000,0.0000,0.00,0.00,0.00,1.0720,0.0630,1.1720,1.2450,2.6930,0,0.0000,0.0000,0.0000,0.0000,0.0000,0,1,0,0.0400,0,0.0014,-0.0031,0,0,0
2138,-1.3199,0.8435,0.0061,-0.0106,-0.0145,-0.0078,-0.32,0.99,-72.24,0,4.080,0.128,-0.095,-0.057,0.018,-0.010,1.001,0.000,0.000,0.000,0.0090,-1,1,0.00,0.00,0.00,0.0000,0.0000,0.0000,0.0000,0.0000,0.0000,0.0000,0.00,0.00,0.00,1.0720,0.0630,1.1720,1.2450,2.6930,0,0.0000,0.0000,0.0000,0.0000,0.0000,0,1,0,0.0400,0,0.0014,-0.0031,0,0,0
2191,-1.3223,0.8430,0.0072,-0.0229,-0.0163,-0.0012,-0.20,0.99,-71.91,0,4.091,-0.031,-0.233,0.043,0.017,-0.009,1.000,0.000,0.000,0.000,0.0090,-3,-3,0.00,0.00,0.00,0.0000,0.0000,0.0000,0.0000,0.0000,0.0000,0.0000,0.00,0.00,0.00,1.0670,0.0680,1.1710,1.2420,2.7000,0,0.0000,0.0000,0.0000,0.0000,0.0000,0,1,0,0.0400,0,0.0014,-0.0031,0,0,0
2242,-1.3185,0.8460,0.0081,0.0016,0.0021,0.0043,-0.54,1.02,-71.57,0,4.080,0.191,-0.079,-0.112,0.018,-0.008,0.998,0.000,0.000,0.000,0.0070,0,-1,0.00,0.00,0.00,0.0000,0.0000,0.0000,0.0000,0.0000,0.0000,0.0000,0.00,0.00,0.00,1.0670,0.0680,1.1710,1.2420,2.7000,0,0.0000,0.0000,0.0000,0.0000,0.0000,0,1,0,0.0400,0,0.0014,-0.0031,0,0,0
2294,-1.3193,0.8446,0.0078,-0.0041,-0.0052,0.0014,-0.27,1.02,-71.23,0,4.091,-0.090,0.038,0.122,0.018,-0.006,0.999,0.000,0.000,0.000,0.0060,-3,-2,0.00,0.00,0.00,0.0000,0.0000,0.0000,0.0000,0.0000,0.0000,0.0000,0.00,0.00,0.00,1.0680,0.0670,1.1730,1.2440,2.6970,0,0.0000,0.0000,0.0000,0.0000,0.0000,0,1,0,0.0400,0,0.0014,-0.0031,0,0,0
2345,-1.3230,0.8447,0.0071,-0.0192,-0.0024,-0.0027,-0.29,1.01,-70.90,0,4.080,-0.210,0.141,0.088,0.018,-0.006,0.999,0.000,0.000,0.000,0.0070,0,-1,0.00,0.00,0.00,0.0000,0.0000,0.0000,0.0000,0.0000,0.0000,0.0000,0.00,0.00,0.00,1.0680,0.0670,1.1730,1.2440,2.6970,0,0.0000,0.0000,0.0000,0.0000,0.0000,0,1,0,0.0400,0,0.0014,-0.0031,0,0,0
2396,-1.3211,0.8445,0.0071,-0.0033,-0.0016,-0.0025,-0.39,0.98,-70.56,0,4.091,0.149,-0.165,-0.115,0.018,-0.007,1.002,0.000,0.000,0.000,0.0090,7,0,0.00,0.00,0.00,0.0000,0.0000,0.0000,0.0000,0.0000,0.0000,0.0000,0.00,0.00,0.00,1.0690,0.0680,1.1780,1.2440,2.7040,0,0.0000,0.0000,0.0000,0.0000,0.0000,0,1,0,0.0400,0,0.0014,-0.0031,0,0,0
2447,-1.3278,0.8419,0.0078,-0.0381,-0.0149,0.0017,-0.10,1.02,-70.23,0,4.080,0.032,-0.168,0.197,0.019,-0.007,1.001,0.000,0.000,0.000,0.0080,-2,0,0.00,0.00,0.00,0.0000,0.0000,0.0000,0.0000,0.0000,0.0000,0.0000,0.00,0.00,0.00,1.0690,0.0680,1.1780,1.2440,2.7040,0,0.0000,0.0000,0.0000,0.0000,0.0000,0,1,0,0.0400,0,0.0014,-0.0031,0,0,0
2498,-1.3222,0.8442,0.0082,0.0024,0.0002,0.0038,-0.54,1.06,-69.90,0,4.091,-0.127,0.185,0.129,0.019,-0.007,1.001,0.000,0.000,0.000,0.0050,0,-1,0.00,0.00,0.00,0.0000,0.0000,0.0000,0.0000,0.0000,0.0000,0.0000,0.00,0.00,0.00,1.0660,0.0670,1.1780,1.2380,2.7010,0,0.0000,0.0000,0.0000,0.0000,0.0000,0,1,0,0.0400,0,0.0014,-0.0031,0,0,0
2549,-1.3197,0.8444,0.0069,0.0162,0.0004,-0.0042,-0.60,1.01,-69.57,0,4.080,0.015,-0.182,-0.357,0.018,-0.007,1.001,0.000,0.000,0.000,0.0100,0,4,0.00,0.00,0.00,0.0000,0.0000,0.0000,0.0000,0.0000,0.0000,0.0000,0.00,0.00,0.00,1.0660,0.0670,1.1780,1.2380,2.7010,0,0.0000,0.0000,0.0000,0.0000,0.0000,0,1,0,0.0400,0,0.0014,-0.0031,0,0,0
2600,-1.3243,0.8427,0.0082,-0.0105,-0.0093,0.0034,-0.49,0.98,-69.25,0,4.091,-0.274,0.137,-0.020,0.018,-0.008,1.000,0.000,0.000,0.000,0.0070,0,0,0.00,0.00,0.00,0.0000,0.0000,0.0000,0.0000,0.0000,0.0000,0.0000,0.00,0.00,0.00,1.0700,0.0680,1.1740,1.2420,2.7060,0,0.0000,0.0000,0.0000,0.0000,0.0000,0,1,0,0.0400,0,0.0014,-0.0031,0,0,0
2652,-1.3247,0.8425,0.0078,-0.0110,-0.0100,0.0011,-0.22,0.98,-68.93,0,4.080,0.031,-0.131,-0.202,0.021,-0.010,0.999,0.000,0.000,0.000,0.0070,-1,4,0.00,0.00,0.00,0.0000,0.0000,0.0000,0.0000,0.0000,0.0000,0.0000,0.00,0.00,0.00,1.0700,0.0680,1.1740,1.2420,2.7060,0,0.0000,0.0000,0.0000,0.0000,0.0000,0,1,0,0.0400,0,0.0014,-0.0031,0,0,0
2702,-1.3274,0.8394,0.0075,-0.0199,-0.0237,-0.0006,-0.20,0.95,-68.61,0,4.091,-0.231,-0.102,-0.186,0.020,-0.008,1.001,0.000,0.000,0.000,0.0050,-6,3,0.00,0.00,0.00,0.0000,0.0000,0.0000,0.0000,0.0000,0.0000,0.0000,0.00,0.00,0.00,1.0730,0.0680,1.1700,1.2400,2.7050,0,0.0000,0.0000,0.0000,0.0000,0.0000,0,1,0,0.0400,0,0.0014,-0.0031,0,0,0
2753,-1.3289,0.8386,0.0065,-0.0219,-0.0244,-0.0053,-0.29,0.91,-68.28,0,4.075,0.058,0.275,0.049,0.019,-0.008,0.999,0.000,0.000,0.000,0.0090,4,-4,0.00,0.00,0.00,0.0000,0.0000,0.0000,0.0000,0.0000,0.0000,0.0000,0.00,0.00,0.00,1.0730,0.0680,1.1700,1.2400,2.7050,0,0.0000,0.0000,0.0000,0.0000,0.0000,0,1,0,0.0400,0,0.0014,-0.0031,0,0,0
2805,-1.3298,0.8387,0.0075,-0.0218,-0.0204,0.0008,-0.36,0.98,-67.96,0,4.091,-0.143,-0.042,0.026,0.020,-0.009,1.000,0.000,0.000,0.000,0.0070,0,3,0.00,0.00,0.00,0.0000,0.0000,0.0000,0.0000,0.0000,0.0000,0.0000,0.00,0.00,0.00,1.0700,0.0680,1.1730,1.2400,2.6970,0,0.0000,0.0000,0.0000,0.0000,0.0000,0,1,0,0.0400,0,0.0014,-0.0031,0,0,0
2856,-1.3284,0.8407,0.0074,-0.0095,-0.0069,0.0004,-0.42,0.96,-67.64,0,4.080,-0.165,0.015,-0.017,0.019,-0.009,0.999,0.000,0.000,0.000,0.0050,4,0,0.00,0.00,0.00,0.0000,0.0000,0.0000,0.0000,0.0000,0.0000,0.0000,0.00,0.00,0.00,1.0700,0.0680,1.1730,1.2400,2.6970,0,0.0000,0.0000,0.0000,0.0000,0.0000,0,1,0,0.0400,0,0.0014,-0.0031,0,0,0
2908,-1.3288,0.8408,0.0064,-0.0093,-0.0050,-0.0048,-0.47,0.99,-67.32,0,4.091,-0.168,-0.120,0.100,0.019,-0.006,0.999,0.000,0.000,0.000,0.0050,2,-5,0.00,0.00,0.00,0.0000,0.0000,0.0000,0.0000,0.0000,0.0000,0.0000,0.00,0.00,0.00,1.0680,0.0680,1.1710,1.2370,2.7050,0,0.0000,0.0000,0.0000,0.0000,0.0000,0,1,0,0.0400,0,0.0014,-0.0031,0,0,0
2959,-1.3287,0.8406,0.0056,-0.0054,-0.0047,-0.0077,-0.48,1.03,-67.00,0,4.080,-0.009,0.127,-0.023,0.018,-0.008,1.000,0.000,0.000,0.000,0.0090,-8,-6,0.00,0.00,0.00,0.0000,0.0000,0.0000,0.0000,0.0000,0.0000,0.0000,0.00,0.00,0.00,1.0680,0.0680,1.1710,1.2370,2.7050,0,0.0000,0.0000,0.0000,0.0000,0.0000,0,1,0,0.0400,0,0.0014,-0.0031,0,0,0
3010,-1.3291,0.8388,0.0069,-0.0053,-0.0121,0.0003,-0.47,1.03,-66.68,0,4.091,0.215,-0.269,-0.408,0.020,-0.007,1.000,0.000,0.000,0.000,0.0100,-2,0,0.00,0.00,0.00,0.0000,0.0000,0.0000,0.0000,0.0000,0.0000,0.0000,0.00,0.00,0.00,1.0670,0.0690,1.1730,1.2460,2.7040,0,0.0000,0.0000,0.0000,0.0000,0.0000,0,1,0,0.0400,0,0.0014,-0.0031,0,0,0
3061,-1.3288,0.8406,0.0083,-0.0019,-0.0016,0.0073,-0.52,1.03,-66.37,0,4.075,0.333,0.129,0.027,0.020,-0.008,1.000,0.000,0.000,0.000,0.0070,3,3,0.00,0.00,0.00,0.0000,0.0000,0.0000,0.0000,0.0000,0.0000,0.0000,0.00,0.00,0.00,1.0670,0.0690,1.1730,1.2460,2.7040,0,0.0000,0.0000,0.0000,0.0000,0.0000,0,1,0,0.0400,0,0.0014,-0.0031,0,0,0
3112,-1.3314,0.8396,0.0080,-0.0148,-0.0066,0.0036,-0.52,0.99,-66.05,0,4.091,0.274,-0.103,0.268,0.019,-0.006,0.999,0.000,0.000,0.000,0.0090,0,0,0.00,0.00,0.00,0.0000,0.0000,0.0000,0.0000,0.0000,0.0000,0.0000,0.00,0.00,0.00,1.0650,0.0620,1.1740,1.2430,2.7020,0,0.0000,0.0000,0.0000,0.0000,0.0000,0,1,0,0.0400,0,0.0014,-0.0031,0,0,0
3163,-1.3270,0.8406,0.0086,0.0097,-0.0007,0.0051,-0.51,1.02,-65.74,0,4.075,-0.002,-0.398,-0.196,0.019,-0.007,0.998,0.000,0.000,0.000,0.0070,2,0,0.00,0.00,0.00,0.0000,0.0000,0.0000,0.0000,0.0000,0.0000,0.0000,0.00,0.00,0.00,1.0650,0.0620,1.1740,1.2430,2.7020,0,0.0000,0.0000,0.0000,0.0000,0.0000,0,1,0,0.0400,0,0.0014,-0.0031,0,0,0
3214,-1.3296,0.8384,0.0081,-0.0033,-0.0124,0.0017,-0.55,1.03,-65.43,0,4.091,-0.185,0.036,0.052,0.017,-0.010,0.998,0.000,0.000,0.000,0.0100,5,-4,0.00,0.00,0.00,0.0000,0.0000,0.0000,0.0000,0.0000,0.0000,0.0000,0.00,0.00,0.00,1.0660,0.0680,1.1770,1.2390,2.7010,0,0.0000,0.0000,0.0000,0.0000,0.0000,0,1,0,0.0400,0,0.0014,-0.0031,0,0,0
3265,-1.3218,0.8408,0.0091,0.0365,0.0009,0.0049,-0.84,1.00,-65.12,0,4.080,0.077,-0.066,0.029,0.017,-0.007,1.000,0.000,0.000,0.000,0.0050,-10,8,0.00,0.00,0.00,0.0000,0.0000,0.0000,0.0000,0.0000,0.0000,0.0000,0.00,0.00,0.00,1.0660,0.0680,1.1770,1.2390,2.7010,0,0.0000,0.0000,0.0000,0.0000,0.0000,0,1,0,0.0400,0,0.0014,-0.0031,0,0,0
3316,-1.3195,0.8424,0.0075,0.0418,0.0080,-0.0049,-0.85,0.91,-64.81,0,4.091,-0.218,-0.405,-0.170,0.016,-0.008,1.002,0.000,0.000,0.000,0.0080,-2,-2,0.00,0.00,0.00,0.0000,0.0000,0.0000,0.0000,0.0000,0.0000,0.0000,0.00,0.00,0.00,1.0670,0.0650,1.1740,1.2400,2.7110,0,0.0000,0.0000,0.0000,0.0000,0.0000,0,1,0,0.0400,0,0.0014,-0.0031,0,0,0
3367,-1.3119,0.8461,0.0073,0.0707,0.0240,-0.0043,-1.02,0.99,-64.50,0,4.080,-0.013,0.146,0.133,0.019,-0.008,1.000,0.000,0.000,0.000,0.0100,-1,0,0.00,0.00,0.00,0.0000,0.0000,0.0000,0.0000,0.0000,0.0000,0.0000,0.00,0.00,0.00,1.0670,0.0650,1.1740,1.2400,2.7110,0,0.0000,0.0000,0.0000,0.0000,0.0000,0,1,0,0.0400,0,0.0014,-0.0031,0,0,0
3418,-1.3154,0.8444,0.0089,0.0390,0.0103,0.0049,-0.53,1.00,-64.20,0,4.091,0.085,0.062,-0.167,0.019,-0.004,1.001,0.000,0.000,0.000,0.0080,2,1,0.00,0.00,0.00,0.0000,0.0000,0.0000,0.0000,0.0000,0.0000,0.0000,0.00,0.00,0.00,1.0690,0.0660,1.1720,1.2440,2.6970,0,0.0000,0.0000,0.0000,0.0000,0.0000,0,1,0,0.0400,0,0.0014,-0.0031,0,0,0
3469,-1.3239,0.8411,0.0087,-0.0090,-0.0076,0.0032,-0.46,1.09,-63.90,0,4.080,0.093,-0.176,-0.126,0.019,-0.007,1.000,0.000,0.000,0.000,0.0070,-13,4,0.00,0.00,0.00,0.0000,0.0000,0.0000,0.0000,0.0000,0.0000,0.0000,0.00,0.00,0.00,1.0690,0.0660,1.1720,1.2440,2.6970,0,0.0000,0.0000,0.0000,0.0000,0.0000,0,1,0,0.0400,0,0.0014,-0.0031,0,0,0
3520,-1.3176,0.8455,0.0082,0.0259,0.0139,-0.0010,-0.61,1.05,-63.59,0,4.091,-0.002,0.084,-0.413,0.019,-0.008,1.001,0.000,0.000,0.000,0.0070,2,1,0.00,0.00,0.00,0.0000,0.0000,0.0000,0.0000,0.0000,0.0000,0.0000,0.00,0.00,0.00,1.0670,0.0670,1.1740,1.2420,2.7010,0,0.0000,0.0000,0.0000,0.0000,0.0000,0,1,0,0.0400,0,0.0014,-0.0031,0,0,0
3571,-1.3150,0.8443,0.0077,0.0339,0.0031,-0.0027,-0.60,0.96,-63.29,0,4.080,-0.002,0.029,-0.212,0.019,-0.007,1.000,0.000,0.000,0.000,0.0070,9,5,0.00,0.00,0.00,0.0000,0.0000,0.0000,0.0000,0.0000,0.0000,0.0000,0.00,0.00,0.00,1.0670,0.0670,1.1740,1.2420,2.7010,0,0.0000,0.0000,0.0000,0.0000,0.0000,0,1,0,0.0400,0,0.0014,-0.0031,0,0,0
3622,-1.3144,0.8449,0.0074,0.0319,0.0051,-0.0032,-0.62,0.93,-62.99,0,4.091,-0.206,0.058,0.045,0.019,-0.009,0.998,0.000,0.000,0.000,0.0070,-1,1,0.00,0.00,0.00,0.0000,0.0000,0.0000,0.0000,0.0000,0.0000,0.0000,0.00,0.00,0.00,1.0680,0.0680,1.1750,1.2410,2.7000,0,0.0000,0.0000,0.0000,0.0000,0.0000,0,1,0,0.0400,0,0.0014,-0.0031,0,0,0
3673,-1.3164,0.8441,0.0072,0.0158,0.0004,-0.0036,-0.47,0.98,-62.69,0,4.075,-0.020,-0.041,-0.003,0.020,-0.007,1.000,0.000,0.000,0.000,0.0050,-4,0,0.00,0.00,0.00,0.0000,0.0000,0.0000,0.0000,0.0000,0.0000,0.0000,0.00,0.00,0.00,1.0680,0.0680,1.1750,1.2410,2.7000,0,0.0000,0.0000,0.0000,0.0000,0.0000,0,1,0,0.0400,0,0.0014,-0.0031,0,0,0
3724,-1.3190,0.8420,0.0062,-0.0016,-0.0125,-0.0080,-0.37,1.00,-62.38,0,4.091,-0.025,-0.053,-0.289,0.019,-0.008,0.998,0.000,0.000,0.000,0.0050,-2,5,0.00,0.00,0.00,0.0000,0.0000,0.0000,0.0000,0.0000,0.0000,0.0000,0.00,0.00,0.00,1.0680,0.0700,1.1750,1.2390,2.7000,0,0.0000,0.0000,0.0000,0.0000,0.0000,0,1,0,0.0400,0,0.0014,-0.0031,0,0,0
3775,-1.3234,0.8400,0.0054,-0.0240,-0.0213,-0.0104,-0.16,0.94,-62.09,0,4.075,-0.063,0.189,0.553,0.019,-0.006,1.000,0.000,0.000,0.000,0.0050,-7,0,0.00,0.00,0.00,0.0000,0.0000,0.0000,0.0000,0.0000,0.0000,0.0000,0.00,0.00,0.00,1.0680,0.0700,1.1750,1.2390,2.7000,0,0.0000,0.0000,0.0000,0.0000,0.0000,0,1,0,0.0400,0,0.0014,-0.0031,0,0,0
3827,-1.3240,0.8387,0.0050,-0.0235,-0.0250,-0.0099,-0.17,0.98,-61.79,0,4.091,0.159,0.187,-0.152,0.019,-0.010,0.999,0.000,0.000,0.000,0.0070,2,0,0.00,0.00,0.00,0.0000,0.0000,0.0000,0.0000,0.0000,0.0000,0.0000,0.00,0.00,0.00,1.0620,0.0690,1.1730,1.2450,2.7050,0,0.0000,0.0000,0.0000,0.0000,0.0000,0,1,0,0.0400,0,0.0014,-0.0031,0,0,0
3877,0.0000,-0.0000,0.0070,0.0033,-0.0024,-0.0004,-0.03,0.00,-0.00,0,4.080,0.355,0.210,-0.200,0.019,-0.006,0.999,0.000,0.000,0.000,0.0060,0,0,0.00,0.00,0.00,0.0000,0.0000,0.0000,0.0000,0.0000,0.0000,0.0000,0.00,0.00,0.00,1.0620,0.0690,1.1730,1.2450,2.7050,0,0.0000,0.0000,0.0000,0.0000,0.0000,0,1,0,0.0400,0,0.0014,-0.0031,0,0,0
3928,0.0002,-0.0000,0.0065,0.0076,-0.0020,-0.0017,-0.26,0.10,-0.00,0,4.091,-0.125,-0.084,0.082,0.019,-0.009,1.000,0.000,0.000,0.000,0.0060,0,4,0.00,0.00,0.00,0.0000,0.0000,0.0000,0.0000,0.0000,0.0000,0.0000,0.00,0.00,0.00,1.0650,0.0670,1.1740,1.2420,2.7040,0,0.0000,0.0000,0.0000,0.0000,0.0000,0,1,0,0.0400,0,0.0014,-0.0031,0,0,0
3979,0.0011,-0.0030,0.0062,0.0197,-0.0431,-0.0026,0.94,0.02,-0.00,0,4.075,0.082,-0.253,0.046,0.018,-0.007,1.001,0.000,0.000,0.000,0.0090,-4,2,0.00,0.00,0.00,0.0000,0.0000,0.0000,0.0000,0.0000,0.0000,0.0000,0.00,0.00,0.00,1.0650,0.0670,1.1740,1.2420,2.7040,0,0.0000,0.0000,0.0000,0.0000,0.0000,0,1,0,0.0400,0,0.0014,-0.0031,0,0,0
4031,0.0022,-0.0006,0.0076,0.0274,-0.0031,0.0047,-0.31,0.17,-0.00,0,4.086,-0.011,-0.235,-0.074,0.019,-0.008,1.001,0.000,0.000,0.000,0.0060,0,-1,0.00,0.00,0.00,0.0000,0.0000,0.0000,0.0000,0.0000,0.0000,0.0000,0.00,0.00,0.00,1.0650,0.0630,1.1710,1.2430,2.7020,0,0.0000,0.0000,0.0000,0.0000,0.0000,0,1,0,0.0400,0,0.0014,-0.0031,0,0,0
4081,0.0022,-0.0025,0.0071,0.0216,-0.0204,0.0008,-0.57,0.45,0.00,0,4.075,-0.224,0.151,0.027,0.020,-0.006,0.999,0.000,0.000,0.000,0.0080,1,-1,0.00,0.00,0.00,0.0000,0.0000,0.0000,0.0000,0.0000,0.0000,0.0000,0.00,0.00,0.00,1.0650,0.0630,1.1710,1.2430,2.7020,0,0.0000,0.0000,0.0000,0.0000,0.0000,0,1,0,0.0400,0,0.0014,-0.0031,0,0,0
4132,0.0021,0.0021,0.0080,0.0181,0.0223,0.0051,-1.02,0.63,0.01,0,4.086,0.148,-0.192,0.059,0.021,-0.007,1.000,0.000,0.000,0.000,0.0090,6,3,0.00,0.00,0.00,0.0000,0.0000,0.0000,0.0000,0.0000,0.0000,0.0000,0.00,0.00,0.00,1.0710,0.0680,1.1760,1.2420,2.6990,0,0.0000,0.0000,0.0000,0.0000,0.0000,0,1,0,0.0400,0,0.0014,-0.0031,0,0,0
4184,0.0023,0.0024,0.0086,0.0166,0.0190,0.0067,-0.71,0.75,0.01,0,4.075,0.133,0.355,0.053,0.019,-0.007,1.002,0.000,0.000,0.000,0.0050,2,-5,0.00,0.00,0.00,0.0000,0.0000,0.0000,0.0000,0.0000,0.0000,0.0000,0.00,0.00,0.00,1.0710,0.0680,1.1760,1.2420,2.6990,0,0.0000,0.0000,0.0000,0.0000,0.0000,0,1,0,0.0400,0,0.0014,-0.0031,0,0,0
4235,0.0022,0.0030,0.0072,0.0128,0.0197,-0.0026,-0.72,0.85,0.01,0,4.091,-0.061,-0.033,-0.010,0.017,-0.006,1.000,0.000,0.000,0.000,0.0060,2,-3,0.00,0.00,0.00,0.0000,0.0000,0.0000,0.0000,0.0000,0.0000,0.0000,0.00,0.00,0.00,1.0650,0.0680,1.1780,1.2390,2.6950,0,0.0000,0.0000,0.0000,0.0000,0.0000,0,1,0,0.0400,0,0.0014,-0.0031,0,0,0
4286,0.0014,0.0020,0.0067,0.0055,0.0096,-0.0052,-0.45,0.95,0.00,0,4.075,-0.116,0.160,0.098,0.019,-0.008,1.002,0.000,0.000,0.000,0.0060,-5,0,0.00,0.00,0.00,0.0000,0.0000,0.0000,0.0000,0.0000,0.0000,0.0000,0.00,0.00,0.00,1.0650,0.0680,1.1780,1.2390,2.6950,0,0.0000,0.0000,0.0000,0.0000,0.0000,0,1,0,0.0400,0,0.0014,-0.0031,0,0,0
4337,0.0032,0.0059,0.0062,0.0171,0.0334,-0.0062,-0.85,0.98,0.01,0,4.091,-0.267,-0.133,0.329,0.019,-0.006,1.000,0.000,0.000,0.000,0.0070,0,6,0.00,0.00,0.00,0.0000,0.0000,0.0000,0.0000,0.0000,0.0000,0.0000,0.00,0.00,0.00,1.0650,0.0680,1.1710,1.2420,2.6950,0,0.0000,0.0000,0.0000,0.0000,0.0000,0,1,0,0.0400,0,0.0014,-0.0031,0,0,0
4388,0.0011,0.0055,0.0064,0.0026,0.0240,-0.0032,-0.60,0.82,0.01,0,4.080,-0.210,0.055,0.160,0.022,-0.008,0.999,0.000,0.000,0.000,0.0090,-23,4,0.00,0.00,0.00,0.0000,0.0000,0.0000,0.0000,0.0000,0.0000,0.0000,0.00,0.00,0.00,1.0650,0.0680,1.1710,1.2420,2.6950,0,0.0000,0.0000,0.0000,0.0000,0.0000,0,1,0,0.0400,0,0.0014,-0.0031,0,0,0
4439,0.0012,0.0036,0.0076,0.0030,0.0066,0.0032,-0.61,0.96,0.01,0,4.086,0.092,0.155,0.118,0.018,-0.009,0.998,0.000,0.000,0.000,0.0060,2,2,0.00,0.00,0.00,0.0000,0.0000,0.0000,0.0000,0.0000,0.0000,0.0000,0.00,0.00,0.00,1.0660,0.0680,1.1750,1.2440,2.7030,0,0.0000,0.0000,0.0000,0.0000,0.0000,0,1,0,0.0400,0,0.0014,-0.0031,0,0,0
4490,0.0022,0.0068,0.0072,0.0082,0.0193,0.0006,-0.88,0.96,0.01,0,4.080,0.295,0.058,0.022,0.019,-0.008,1.000,0.000,0.000,0.000,0.0090,2,-1,0.00,0.00,0.00,0.0000,0.0000,0.0000,0.0000,0.0000,0.0000,0.0000,0.00,0.00,0.00,1.0660,0.0680,1.1750,1.2440,2.7030,0,0.0000,0.0000,0.0000,0.0000,0.0000,0,1,0,0.0400,0,0.0014,-0.0031,0,0,0
4541,0.0005,0.0119,0.0080,-0.0016,0.0418,0.0043,-0.75,1.00,0.01,0,4.086,-0.229,0.141,0.259,0.020,-0.008,1.000,0.000,0.000,0.000,0.0090,-5,1,0.00,0.00,0.00,0.0000,0.0000,0.0000,0.0000,0.0000,0.0000,0.0000,0.00,0.00,0.00,1.0680,0.0680,1.1730,1.2420,2.6980,0,0.0000,0.0000,0.0000,0.0000,0.0000,0,1,0,0.0400,0,0.0014,-0.0031,0,0,0
4592,0.0021,0.0116,0.0087,0.0075,0.0315,0.0067,-0.63,0.98,0.01,0,4.075,0.269,-0.017,0.048,0.020,-0.009,0.998,0.000,0.000,0.000,0.0070,3,0,0.00,0.00,0.00,0.0000,0.0000,0.0000,0.0000,0.0000,0.0000,0.0000,0.00,0.00,0.00,1.0680,0.0680,1.1730,1.2420,2.6980,0,0.0000,0.0000,0.0000,0.0000,0.0000,0,1,0,0.0400,0,0.0014,-0.0031,0,0,0
4643,0.0021,0.0109,0.0082,0.0069,0.0206,0.0022,-0.59,1.00,0.01,0,4.086,-0.076,0.030,0.079,0.020,-0.007,1.000,0.000,0.000,0.000,0.0050,0,3,0.00,0.00,0.00,0.0000,0.0000,0.0000,0.0000,0.0000,0.0000,0.0000,0.00,0.00,0.00,1.0670,0.0670,1.1780,1.2380,2.6960,0,0.0000,0.0000,0.0000,0.0000,0.0000,0,1,0,0.0400,0,0.0014,-0.0031,0,0,0
4695,0.0012,0.0121,0.0069,0.0020,0.0225,-0.0051,-0.49,1.01,0.01,0,4.075,0.071,0.082,-0.016,0.018,-0.007,1.000,0.000,0.000,0.000,0.0070,6,3,0.00,0.00,0.00,0.0000,0.0000,0.0000,0.0000,0.0000,0.0000,0.0000,0.00,0.00,0.00,1.0670,0.0670,1.1780,1.2380,2.6960,0,0.0000,0.0000,0.0000,0.0000,0.0000,0,1,0,0.0400,0,0.0014,-0.0031,0,0,0
4746,0.0021,0.0121,0.0068,0.0070,0.0179,-0.0042,-0.59,1.01,0.01,0,4.086,0.057,0.066,0.161,0.019,-0.007,0.999,0.000,0.000,0.000,0.0060,-4,3,0.00,0.00,0.00,0.0000,0.0000,0.0000,0.0000,0.0000,0.0000,0.0000,0.00,0.00,0.00,1.0620,0.0640,1.1690,1.2410,2.7080,0,0.0000,0.0000,0.0000,0.0000,0.0000,0,1,0,0.0400,0,0.0014,-0.0031,0,0,0
4797,0.0012,0.0126,0.0064,0.0023,0.0156,-0.0055,-0.48,1.01,0.01,0,4.075,-0.088,0.152,0.096,0.019,-0.010,0.998,0.000,0.000,0.000,0.0110,-8,0,0.00,0.00,0.00,0.0000,0.0000,0.0000,0.0000,0.0000,0.0000,0.0000,0.00,0.00,0.00,1.0620,0.0640,1.1690,1.2410,2.7080,0,0.0000,0.0000,0.0000,0.0000,0.0000,0,1,0,0.0400,0,0.0014,-0.0031,0,0,0
4848,-0.0005,0.0154,0.0082,-0.0064,0.0261,0.0054,-0.44,1.02,0.01,0,4.086,-0.138,-0.031,0.082,0.017,-0.009,0.997,0.000,0.000,0.000,0.0080,5,0,0.00,0.00,0.00,0.0000,0.0000,0.0000,0.0000,0.0000,0.0000,0.0000,0.00,0.00,0.00,1.0660,0.0690,1.1720,1.2420,2.7040,0,0.0000,0.0000,0.0000,0.0000,0.0000,0,1,0,0.0400,0,0.0014,-0.0031,0,0,0
4899,-0.0007,0.0176,0.0084,-0.0075,0.0329,0.0037,-0.39,1.08,0.01,0,4.075,-0.069,0.267,0.158,0.020,-0.009,0.998,0.000,0.000,0.000,0.0070,-5,-3,0.00,0.00,0.00,0.0000,0.0000,0.0000,0.0000,0.0000,0.0000,0.0000,0.00,0.00,0.00,1.0660,0.0690,1.1720,1.2420,2.7040,0,0.0000,0.0000,0.0000,0.0000,0.0000,0,1,0,0.0400,0,0.0014,-0.0031,0,0,0
4950,0.0000,0.0101,0.0080,-0.0019,-0.0094,0.0002,-0.27,1.03,0.00,0,4.086,0.145,-0.175,-0.066,0.018,-0.008,1.001,0.000,0.000,0.000,0.0070,0,-1,0.00,0.00,0.00,0.0000,0.0000,0.0000,0.0000,0.0000,0.0000,0.0000,0.00,0.00,0.00,1.0610,0.0690,1.1730,1.2380,2.7080,0,0.0000,0.0000,0.0000,0.0000,0.0000,0,1,0,0.0400,0,0.0014,-0.0031,0,0,0
5001,-0.0002,0.0079,0.0076,-0.0022,-0.0202,-0.0022,-0.39,1.06,0.00,0,4.075,0.104,0.021,-0.057,0.021,-0.007,1.001,0.000,0.000,0.000,0.0080,0,0,0.00,0.00,0.00,0.0000,0.0000,0.0000,0.0000,0.0000,0.0000,0.0000,0.00,0.00,0.00,1.0610,0.0690,1.1730,1.2380,2.7080,0,0.0000,0.0000,0.0000,0.0000,0.0000,0,1,0,0.0400,0,-1.3256,0.8465,0,0,0
5052,-0.0010,0.0117,0.0078,-0.0052,-0.0016,-0.0006,-0.41,1.03,0.01,0,4.086,0.158,-0.077,-0.097,0.020,-0.008,0.999,0.000,0.000,0.000,0.0080,0,0,0.00,0.00,0.00,0.0000,0.0000,0.0000,0.0000,0.0000,0.0000,0.0000,0.00,0.00,0.00,1.0710,0.0660,1.1760,1.2390,2.6960,0,0.0000,0.0000,0.0000,0.0000,0.0000,0,1,0,0.2000,0,-1.3256,0.8465,0,0,0
5103,-0.0004,0.0126,0.0079,-0.0004,0.0018,-0.0003,-0.43,1.05,0.01,0,4.075,-0.051,0.061,-0.228,0.020,-0.009,1.000,0.000,0.000,0.000,0.0080,0,-1,0.00,0.00,0.00,0.0000,0.0000,0.0000,0.0000,0.0000,0.0000,0.0000,0.00,0.00,0.00,1.0710,0.0660,1.1760,1.2390,2.6960,0,0.0000,0.0000,0.0000,0.0000,0.0000,0,1,0,0.2000,0,-1.3256,0.8465,0,0,0
5154,-0.0002,0.0114,0.0079,0.0017,-0.0052,0.0003,-0.42,1.04,0.01,0,4.086,0.009,0.344,-0.104,0.018,-0.011,0.998,0.000,0.000,0.000,0.0110,3,0,0.00,0.00,0.00,0.0000,0.0000,0.0000,0.0000,0.0000,0.0000,0.0000,0.00,0.00,0.00,1.0690,0.0660,1.1780,1.2410,2.6920,0,0.0000,0.0000,0.0000,0.0000,0.0000,0,1,0,0.2000,0,-1.3224,0.8462,0,0,0
5206,-0.0011,0.0135,0.0092,-0.0024,0.0044,0.0060,-0.39,1.01,0.00,0,4.075,0.133,-0.044,-0.587,0.017,-0.005,1.001,0.000,0.000,0.000,0.0080,6,-3,0.00,0.00,0.00,0.0000,0.0000,0.0000,0.0000,0.0000,0.0000,0.0000,0.00,0.00,0.00,1.0690,0.0660,1.1780,1.2410,2.6920,0,0.0000,0.0000,0.0000,0.0000,0.0000,0,1,0,0.2200,0,-1.3224,0.8462,0,0,0
5256,-0.0002,0.0119,0.0089,0.0032,-0.0044,0.0030,-0.41,0.99,-0.01,0,4.086,0.086,0.011,0.063,0.020,-0.008,1.002,0.000,0.000,0.000,0.0070,0,0,0.00,0.00,0.00,0.0000,0.0000,0.0000,0.0000,0.0000,0.0000,0.0000,0.00,0.00,0.00,1.0660,0.0670,1.1710,1.2390,2.7000,0,0.0000,0.0000,0.0000,0.0000,0.0000,0,1,0,0.2200,0,-1.3224,0.8462,0,0,0
5308,-0.0009,0.0133,0.0082,-0.0000,0.0023,-0.0007,-0.39,1.00,-0.00,0,4.075,0.115,0.074,0.241,0.017,-0.007,1.000,0.000,0.000,0.000,0.0060,-2,0,0.00,0.00,0.00,0.0000,0.0000,0.0000,0.0000,0.0000,0.0000,0.0000,0.00,0.00,0.00,1.0660,0.0670,1.1710,1.2390,2.7000,0,0.0000,0.0000,0.0000,0.0000,0.0000,0,1,0,0.2200,0,0.0000,0.0000,0,0,0
5359,-0.0017,0.0137,0.0073,-0.0042,0.0041,-0.0062,-0.37,0.97,0.00,0,4.086,-0.230,0.094,0.081,0.019,-0.009,1.001,0.000,0.000,0.000,0.0090,1,-3,0.00,0.00,0.00,0.0000,0.0000,0.0000,0.0000,0.0000,0.0000,0.0000,0.00,0.00,0.00,1.0610,0.0680,1.1750,1.2410,2.7020,0,0.0000,0.0000,0.0000,0.0000,0.0000,0,0,0,0.0000,0,0.0000,0.0000,0,0,0
5411,-0.0006,0.0135,0.0078,0.0022,0.0023,-0.0017,-0.39,1.02,0.01,0,4.075,-0.274,-0.170,0.286,0.021,-0.012,0.997,0.000,0.000,0.000,0.0070,5,-4,0.00,0.00,0.00,0.0000,0.0000,0.0000,0.0000,0.0000,0.0000,0.0000,0.00,0.00,0.00,1.0610,0.0680,1.1750,1.2410,2.7020,0,0.0000,0.0000,0.0000,0.0000,0.0000,0,1,0,0.2400,0,-1.3168,0.8490,0,0,0
5462,0.0009,0.0092,0.0074,0.0108,-0.0211,-0.0035,-0.35,0.97,0.01,0,4.091,0.008,0.061,-0.097,0.020,-0.007,1.001,0.000,0.000,0.000,0.0100,0,0,0.00,0.00,0.00,0.0000,0.0000,0.0000,0.0000,0.0000,0.0000,0.0000,0.00,0.00,0.00,1.0680,0.0670,1.1780,1.2390,2.6980,0,0.0000,0.0000,0.0000,0.0000,0.0000,0,1,0,0.2400,0,-1.3170,0.8481,0,0,0
5513,0.0010,0.0093,0.0085,0.0114,-0.0182,0.0027,-0.48,0.95,0.01,0,4.075,-0.018,-0.082,0.195,0.020,-0.008,1.000,0.000,0.000,0.000,0.0080,-2,-1,0.00,0.00,0.00,0.0000,0.0000,0.0000,0.0000,0.0000,0.0000,0.0000,0.00,0.00,0.00,1.0680,0.0670,1.1780,1.2390,2.6980,0,0.0000,0.0000,0.0000,0.0000,0.0000,0,1,0,0.2600,0,-1.3170,0.8481,0,0,0
5564,0.0014,0.0129,0.0084,0.0129,0.0010,0.0020,-0.45,0.96,0.01,0,4.086,-0.014,0.232,-0.319,0.018,-0.007,0.998,0.000,0.000,0.000,0.0060,2,0,0.00,0.00,0.00,0.0000,0.0000,0.0000,0.0000,0.0000,0.0000,0.0000,0.00,0.00,0.00,1.0660,0.0680,1.1740,1.2420,2.6940,0,0.0000,0.0000,0.0000,0.0000,0.0000,0,1,0,0.2600,0,-1.3170,0.8481,0,0,0
5615,0.0001,0.0143,0.0075,0.0056,0.0073,-0.0040,-0.49,0.96,0.01,0,4.075,0.268,0.132,-0.286,0.021,-0.006,1.001,0.000,0.000,0.000,0.0070,0,0,0.00,0.00,0.00,0.0000,0.0000,0.0000,0.0000,0.0000,0.0000,0.0000,0.00,0.00,0.00,1.0660,0.0680,1.1740,1.2420,2.6940,0,0.0000,0.0000,0.0000,0.0000,0.0000,0,1,0,0.2600,0,-1.3204,0.8469,0,0,0
5666,0.0003,0.0189,0.0071,0.0063,0.0286,-0.0049,-0.85,0.97,0.01,0,4.086,-0.029,0.207,0.038,0.023,-0.007,1.001,0.000,0.000,0.000,0.0100,0,2,0.00,0.00,0.00,0.0000,0.0000,0.0000,0.0000,0.0000,0.0000,0.0000,0.00,0.00,0.00,1.0650,0.0660,1.1760,1.2400,2.6950,0,0.0000,0.0000,0.0000,0.0000,0.0000,0,1,0,0.2800,0,-1.3204,0.8469,0,0,0
5717,-0.0001,0.0255,0.0081,0.0043,0.0528,0.0014,-0.76,0.97,0.01,0,4.075,-0.167,-0.134,-0.095,0.020,-0.009,1.001,0.000,0.000,0.000,0.0070,7,4,0.00,0.00,0.00,0.0000,0.0000,0.0000,0.0000,0.0000,0.0000,0.0000,0.00,0.00,0.00,1.0650,0.0660,1.1760,1.2400,2.6950,0,0.0000,0.0000,0.0000,0.0000,0.0000,0,1,0,0.2800,0,-1.3204,0.8469,0,0,0
5768,-0.0006,0.0275,0.0078,0.0020,0.0523,-0.0007,-0.88,0.96,0.01,0,4.086,0.129,-0.154,0.090,0.019,-0.008,1.001,0.000,0.000,0.000,0.0100,7,3,0.00,0.00,0.00,0.0000,0.0000,0.0000,0.0000,0.0000,0.0000,0.0000,0.00,0.00,0.00,1.0670,0.0710,1.1760,1.2390,2.6930,0,0.0000,0.0000,0.0000,0.0000,0.0000,0,1,0,0.2800,0,-1.3182,0.8486,0,0,0
5819,-0.0009,0.0296,0.0089,0.0011,0.0503,0.0052,-0.74,1.00,0.01,0,4.075,-0.122,0.009,0.059,0.019,-0.007,1.002,0.000,0.000,0.000,0.0080,7,8,0.00,0.00,0.00,0.0000,0.0000,0.0000,0.0000,0.0000,0.0000,0.0000,0.00,0.00,0.00,1.0670,0.0710,1.1760,1.2390,2.6930,0,0.0000,0.0000,0.0000,0.0000,0.0000,0,1,0,0.3000,0,-1.3182,0.8486,0,0,0
5870,-0.0004,0.0307,0.0088,0.0036,0.0452,0.0036,-0.64,0.97,0.01,0,4.086,-0.015,0.052,0.176,0.019,-0.007,0.999,0.000,0.000,0.000,0.0100,19,2,0.00,0.00,0.00,0.0000,0.0000,0.0000,0.0000,0.0000,0.0000,0.0000,0.00,0.00,0.00,1.0630,0.0640,1.1780,1.2410,2.7060,0,0.0000,0.0000,0.0000,0.0000,0.0000,0,1,0,0.3000,0,-1.3182,0.8486,0,0,0
5921,-0.0007,0.0308,0.0095,0.0020,0.0370,0.0066,-0.50,0.99,0.00,0,4.075,-0.149,0.054,0.035,0.020,-0.009,0.997,0.000,0.000,0.000,0.0090,-20,7,0.00,0.00,0.00,0.0000,0.0000,0.0000,0.0000,0.0000,0.0000,0.0000,0.00,0.00,0.00,1.0630,0.0640,1.1780,1.2410,2.7060,0,0.0000,0.0000,0.0000,0.0000,0.0000,0,1,0,0.3000,0,-1.3182,0.8486,0,0,0
5972,0.0001,0.0217,0.0096,0.0066,-0.0151,0.0049,-0.18,0.94,0.00,0,4.086,0.078,0.096,0.172,0.019,-0.008,1.001,0.000,0.000,0.000,0.0070,-1,4,0.00,0.00,0.00,0.0000,0.0000,0.0000,0.0000,0.0000,0.0000,0.0000,0.00,0.00,0.00,1.0650,0.0670,1.1720,1.2400,2.6960,0,0.0000,0.0000,0.0000,0.0000,0.0000,0,1,0,0.3000,0,-1.3182,0.8486,0,0,0
6024,-0.0003,0.0217,0.0088,0.0041,-0.0157,-0.0005,-0.23,0.97,0.00,0,4.075,-0.128,-0.187,0.176,0.019,-0.007,1.000,0.000,0.000,0.000,0.0080,-4,3,0.00,0.00,0.00,0.0000,0.0000,0.0000,0.0000,0.0000,0.0000,0.0000,0.00,0.00,0.00,1.0650,0.0670,1.1720,1.2400,2.6960,0,0.0000,0.0000,0.0000,0.0000,0.0000,0,1,0,0.3000,0,-1.3182,0.8486,0,0,0
6074,-0.0009,0.0221,0.0085,0.0002,-0.0131,-0.0020,0.01,0.97,0.00,0,4.086,-0.012,0.325,0.028,0.017,-0.009,1.001,0.000,0.000,0.000,0.0080,2,-3,0.00,0.00,0.00,0.0000,0.0000,0.0000,0.0000,0.0000,0.0000,0.0000,0.00,0.00,0.00,1.0630,0.0660,1.1750,1.2400,2.6990,0,0.0000,0.0000,0.0000,0.0000,0.0000,0,1,0,0.3000,0,-1.3182,0.8486,0,0,0
6125,-0.0003,0.0260,0.0084,0.0034,0.0126,-0.0018,-0.61,1.01,0.01,0,4.075,0.042,-0.150,-0.140,0.021,-0.007,1.000,0.000,0.000,0.000,0.0110,-1,-2,0.00,0.00,0.00,0.0000,0.0000,0.0000,0.0000,0.0000,0.0000,0.0000,0.00,0.00,0.00,1.0630,0.0660,1.1750,1.2400,2.6990,0,0.0000,0.0000,0.0000,0.0000,0.0000,0,1,0,0.3000,0,-1.3182,0.8486,0,0,0
6176,-0.0017,0.0293,0.0095,-0.0046,0.0233,0.0039,-0.53,1.03,0.01,0,4.086,0.016,-0.063,0.068,0.022,-0.008,1.000,0.000,0.000,0.000,0.0070,2,-1,0.00,0.00,0.00,0.0000,0.0000,0.0000,0.0000,0.0000,0.0000,0.0000,0.00,0.00,0.00,1.0680,0.0660,1.1750,1.2390,2.6970,0,0.0000,0.0000,0.0000,0.0000,0.0000,0,1,0,0.3000,0,-1.3182,0.8486,0,0,0
6227,-0.0008,0.0299,0.0086,0.0011,0.0205,-0.0022,-0.50,1.02,0.01,0,4.075,0.074,0.130,-0.049,0.019,-0.005,1.001,0.000,0.000,0.000,0.0100,-14,3,0.00,0.00,0.00,0.0000,0.0000,0.0000,0.0000,0.0000,0.0000,0.0000,0.00,0.00,0.00,1.0680,0.0660,1.1750,1.2390,2.6970,0,0.0000,0.0000,0.0000,0.0000,0.0000,0,1,0,0.3000,0,-1.3182,0.8486,0,0,0
6279,0.0002,0.0271,0.0092,0.0069,0.0001,0.0017,-0.29,0.94,0.01,0,4.086,0.342,0.078,-0.214,0.020,-0.009,1.000,0.000,0.000,0.000,0.0090,3,0,0.00,0.00,0.00,0.0000,0.0000,0.0000,0.0000,0.0000,0.0000,0.0000,0.00,0.00,0.00,1.0630,0.0670,1.1750,1.2370,2.7020,0,0.0000,0.0000,0.0000,0.0000,0.0000,0,1,0,0.3000,0,-1.3182,0.8486,0,0,0
6330,0.0004,0.0289,0.0092,0.0073,0.0081,0.0013,-0.45,1.00,0.01,0,4.075,-0.136,0.028,-0.119,0.020,-0.008,1.000,0.000,0.000,0.000,0.0090,3,0,0.00,0.00,0.00,0.0000,0.0000,0.0000,0.0000,0.0000,0.0000,0.0000,0.00,0.00,0.00,1.0630,0.0670,1.1750,1.2370,2.7020,0,0.0000,0.0000,0.0000,0.0000,0.0000,0,1,0,0.3000,0,-1.3182,0.8486,0,0,0
6381,0.0008,0.0279,0.0092,0.0088,-0.0005,0.0003,-0.32,1.00,0.00,0,4.086,0.015,-0.026,0.177,0.018,-0.008,0.999,0.000,0.000,0.000,0.0090,0,-2,0.00,0.00,0.00,0.0000,0.0000,0.0000,0.0000,0.0000,0.0000,0.0000,0.00,0.00,0.00,1.0640,0.0670,1.1750,1.2360,2.7100,0,0.0000,0.0000,0.0000,0.0000,0.0000,0,1,0,0.3000,0,-1.3182,0.8486,0,0,0
6432,0.0011,0.0231,0.0091,0.0086,-0.0260,-0.0008,-0.13,0.97,0.00,0,4.075,-0.089,-0.069,0.244,0.018,-0.008,1.000,0.000,0.000,0.000,0.0090,0,2,0.00,0.00,0.00,0.0000,0.0000,0.0000,0.0000,0.0000,0.0000,0.0000,0.00,0.00,0.00,1.0640,0.0670,1.1750,1.2360,2.7100,0,0.0000,0.0000,0.0000,0.0000,0.0000,0,1,0,0.3000,0,-1.3182,0.8486,0,0,0
6483,0.0023,0.0224,0.0090,0.0134,-0.0255,-0.0012,-0.18,0.96,0.00,0,4.086,0.043,-0.191,-0.105,0.019,-0.008,0.998,0.000,0.000,0.000,0.0060,10,0,0.00,0.00,0.00,0.0000,0.0000,0.0000,0.0000,0.0000,0.0000,0.0000,0.00,0.00,0.00,1.0640,0.0650,1.1730,1.2410,2.7000,0,0.0000,0.0000,0.0000,0.0000,0.0000,0,1,0,0.3000,0,-1.3182,0.8486,0,0,0
6534,0.0013,0.0224,0.0077,0.0060,-0.0207,-0.0075,-0.29,1.00,0.00,0,4.075,-0.158,-0.013,-0.225,0.022,-0.006,1.002,0.000,0.000,0.000,0.0100,-4,2,0.00,0.00,0.00,0.0000,0.0000,0.0000,0.0000,0.0000,0.0000,0.0000,0.00,0.00,0.00,1.0640,0.0650,1.1730,1.2410,2.7000,0,0.0000,0.0000,0.0000,0.0000,0.0000,0,1,0,0.3000,0,-1.3182,0.8486,0,0,0
6585,0.0020,0.0215,0.0085,0.0100,-0.0227,-0.0014,-0.24,1.00,-0.00,0,4.086,0.062,-0.092,0.035,0.019,-0.009,0.998,0.000,0.000,0.000,0.0080,24,-9,0.00,0.00,0.00,0.0000,0.0000,0.0000,0.0000,0.0000,0.0000,0.0000,0.00,0.00,0.00,1.0670,0.0650,1.1760,1.2460,2.7080,0,0.0000,0.0000,0.0000,0.0000,0.0000,0,1,0,0.3000,0,-1.3182,0.8486,0,0,0
6636,0.0012,0.0184,0.0082,0.0042,-0.0373,-0.0035,-0.14,1.05,-0.01,0,4.075,0.179,-0.118,0.098,0.021,-0.005,0.998,0.000,0.000,0.000,0.0090,6,3,0.00,0.00,0.00,0.0000,0.0000,0.0000,0.0000,0.0000,0.0000,0.0000,0.00,0.00,0.00,1.0670,0.0650,1.1760,1.2460,2.7080,0,0.0000,0.0000,0.0000,0.0000,0.0000,0,1,0,0.3000,0,-1.3182,0.8486,0,0,0
6687,0.0036,0.0102,0.0082,0.0175,-0.0733,-0.0035,0.07,0.91,-0.01,0,4.086,0.163,-0.175,-0.274,0.018,-0.007,1.002,0.000,0.000,0.000,0.0060,0,-4,0.00,0.00,0.00,0.0000,0.0000,0.0000,0.0000,0.0000,0.0000,0.0000,0.00,0.00,0.00,1.0660,0.0690,1.1740,1.2390,2.7000,0,0.0000,0.0000,0.0000,0.0000,0.0000,0,1,0,0.3000,0,-1.3182,0.8486,0,0,0
6738,0.0026,0.0108,0.0074,0.0089,-0.0566,-0.0063,-0.03,0.96,-0.01,0,4.075,-0.175,0.155,0.232,0.019,-0.006,0.997,0.000,0.000,0.000,0.0070,1,-3,0.00,0.00,0.00,0.0000,0.0000,0.0000,0.0000,0.0000,0.0000,0.0000,0.00,0.00,0.00,1.0660,0.0690,1.1740,1.2390,2.7000,0,0.0000,0.0000,0.0000,0.0000,0.0000,0,1,0,0.3000,0,-1.3182,0.8486,0,0,0
6789,0.0026,0.0056,0.0070,0.0066,-0.0724,-0.0073,0.03,1.01,-0.01,0,4.086,-0.081,-0.043,0.082,0.020,-0.008,0.999,0.000,0.000,0.000,0.0080,-1,0,0.00,0.00,0.00,0.0000,0.0000,0.0000,0.0000,0.0000,0.0000,0.0000,0.00,0.00,0.00,1.0630,0.0680,1.1740,1.2440,2.6990,0,0.0000,0.0000,0.0000,0.0000,0.0000,0,1,0,0.3000,0,-1.3182,0.8486,0,0,0
6840,0.0038,0.0066,0.0074,0.0112,-0.0539,-0.0033,-0.07,0.99,-0.01,0,4.075,-0.139,0.352,0.079,0.018,-0.009,0.999,0.000,0.000,0.000,0.0070,-1,0,0.00,0.00,0.00,0.0000,0.0000,0.0000,0.0000,0.0000,0.0000,0.0000,0.00,0.00,0.00,1.0630,0.0680,1.1740,1.2440,2.6990,0,0.0000,0.0000,0.0000,0.0000,0.0000,0,1,0,0.3000,0,-1.3182,0.8486,0,0,0
6891,0.0027,0.0065,0.0072,0.0033,-0.0437,-0.0033,-0.18,1.02,-0.00,0,4.086,-0.021,0.067,0.037,0.021,-0.008,0.999,0.000,0.000,0.000,0.0070,4,-1,0.00,0.00,0.00,0.0000,0.0000,0.0000,0.0000,0.0000,0.0000,0.0000,0.00,0.00,0.00,1.0620,0.0670,1.1790,1.2440,2.7040,0,0.0000,0.0000,0.0000,0.0000,0.0000,0,1,0,0.3000,0,-1.3182,0.8486,0,0,0
6942,0.0038,0.0095,0.0072,0.0084,-0.0189,-0.0026,-0.38,0.99,0.00,0,4.075,-0.168,0.136,0.187,0.020,-0.009,0.998,0.000,0.000,0.000,0.0080,-9,-1,0.00,0.00,0.00,0.0000,0.0000,0.0000,0.0000,0.0000,0.0000,0.0000,0.00,0.00,0.00,1.0620,0.0670,1.1790,1.2440,2.7040,0,0.0000,0.0000,0.0000,0.0000,0.0000,0,1,0,0.3000,0,-1.3182,0.8486,0,0,0
6994,0.0036,0.0122,0.0075,0.0057,0.0011,-0.0002,-0.39,1.00,-0.00,0,4.086,-0.047,0.113,-0.130,0.018,-0.006,0.997,0.000,0.000,0.000,0.0100,0,-1,0.00,0.00,0.00,0.0000,0.0000,0.0000,0.0000,0.0000,0.0000,0.0000,0.00,0.00,0.00,1.0660,0.0680,1.1740,1.2390,2.7050,0,0.0000,0.0000,0.0000,0.0000,0.0000,0,1,0,0.3000,0,-1.3182,0.8486,0,0,0
7045,0.0036,0.0093,0.0087,0.0045,-0.0121,0.0051,-0.45,1.03,-0.00,0,4.070,-0.134,-0.006,-0.055,0.020,-0.007,0.999,0.000,0.000,0.000,0.0100,-4,0,0.00,0.00,0.00,0.0000,0.0000,0.0000,0.0000,0.0000,0.0000,0.0000,0.00,0.00,0.00,1.0660,0.0680,1.1740,1.2390,2.7050,0,0.0000,0.0000,0.0000,0.0000,0.0000,0,1,0,0.3000,0,-1.3182,0.8486,0,0,0
7096,0.0034,0.0056,0.0094,0.0024,-0.0282,0.0072,-0.41,1.02,-0.00,0,4.086,-0.011,0.233,0.154,0.020,-0.006,0.999,0.000,0.000,0.000,0.0090,3,5,0.00,0.00,0.00,0.0000,0.0000,0.0000,0.0000,0.0000,0.0000,0.0000,0.00,0.00,0.00,1.0680,0.0670,1.1760,1.2400,2.6920,0,0.0000,0.0000,0.0000,0.0000,0.0000,0,1,0,0.3000,0,-1.3182,0.8486,0,0,0
7147,0.0043,0.0066,0.0095,0.0065,-0.0181,0.0057,-0.47,1.00,-0.00,0,4.075,-0.244,0.029,-0.111,0.018,-0.009,1.001,0.000,0.000,0.000,0.0080,-1,-1,0.00,0.00,0.00,0.0000,0.0000,0.0000,0.0000,0.0000,0.0000,0.0000,0.00,0.00,0.00,1.0680,0.0670,1.1760,1.2400,2.6920,0,0.0000,0.0000,0.0000,0.0000,0.0000,0,1,0,0.3000,0,-1.3182,0.8486,0,0,0
7198,0.0054,0.0096,0.0091,0.0112,0.0007,0.0028,-0.48,1.06,-0.00,0,4.086,0.026,-0.072,-0.059,0.018,-0.008,0.999,0.000,0.000,0.000,0.0070,8,-5,0.00,0.00,0.00,0.0000,0.0000,0.0000,0.0000,0.0000,0.0000,0.0000,0.00,0.00,0.00,1.0650,0.0670,1.1740,1.2420,2.7070,0,0.0000,0.0000,0.0000,0.0000,0.0000,0,1,0,0.3000,0,-1.3182,0.8486,0,0,0
7249,0.0056,0.0065,0.0083,0.0114,-0.0134,-0.0023,-0.51,1.04,-0.00,0,4.075,0.091,0.073,-0.010,0.019,-0.007,0.999,0.000,0.000,0.000,0.0050,0,0,0.00,0.00,0.00,0.0000,0.0000,0.0000,0.0000,0.0000,0.0000,0.0000,0.00,0.00,0.00,1.0650,0.0670,1.1740,1.2420,2.7070,0,0.0000,0.0000,0.0000,0.0000,0.0000,0,1,0,0.3000,0,-1.3182,0.8486,0,0,0
7300,0.0056,0.0066,0.0068,0.0106,-0.0110,-0.0093,-0.47,1.04,-0.00,0,4.086,-0.229,0.175,0.006,0.020,-0.006,1.002,0.000,0.000,0.000,0.0090,-2,-3,0.00,0.00,0.00,0.0000,0.0000,0.0000,0.0000,0.0000,0.0000,0.0000,0.00,0.00,0.00,1.0650,0.0630,1.1700,1.2410,2.7030,0,0.0000,0.0000,0.0000,0.0000,0.0000,0,1,0,0.3000,0,-1.3182,0.8486,0,0,0
7351,0.0054,0.0083,0.0074,0.0091,0.0004,-0.0043,-0.50,1.08,-0.01,0,4.075,0.233,-0.083,-0.113,0.017,-0.007,1.000,0.000,0.000,0.000,0.0110,2,-1,0.00,0.00,0.00,0.0000,0.0000,0.0000,0.0000,0.0000,0.0000,0.0000,0.00,0.00,0.00,1.0650,0.0630,1.1700,1.2410,2.7030,0,0.0000,0.0000,0.0000,0.0000,0.0000,0,1,0,0.3000,0,-1.3182,0.8486,0,0,0
7403,0.0055,0.0043,0.0089,0.0083,-0.0196,0.0040,-0.46,1.03,-0.01,0,4.086,0.026,0.088,0.141,0.024,-0.008,0.999,0.000,0.000,0.000,0.0070,5,0,0.00,0.00,0.00,0.0000,0.0000,0.0000,0.0000,0.0000,0.0000,0.0000,0.00,0.00,0.00,1.0730,0.0680,1.1740,1.2410,2.6890,0,0.0000,0.0000,0.0000,0.0000,0.0000,0,1,0,0.3000,0,-1.3182,0.8486,0,0,0
7453,0.0057,0.0001,0.0082,0.0095,-0.0374,-0.0004,-0.24,1.02,-0.01,0,4.075,-0.074,0.344,0.048,0.018,-0.007,0.999,0.000,0.000,0.000,0.0080,4,0,0.00,0.00,0.00,0.0000,0.0000,0.0000,0.0000,0.0000,0.0000,0.0000,0.00,0.00,0.00,1.0730,0.0680,1.1740,1.2410,2.6890,0,0.0000,0.0000,0.0000,0.0000,0.0000,0,1,0,0.3000,0,-1.3182,0.8486,0,0,0
7504,0.0059,-0.0038,0.0081,0.0092,-0.0502,-0.0009,-0.39,1.03,-0.01,0,4.086,-0.071,0.130,-0.018,0.020,-0.007,0.998,0.000,0.000,0.000,0.0080,-1,0,0.00,0.00,0.00,0.0000,0.0000,0.0000,0.0000,0.0000,0.0000,0.0000,0.00,0.00,0.00,1.0650,0.0680,1.1760,1.2380,2.7010,0,0.0000,0.0000,0.0000,0.0000,0.0000,0,1,0,0.3000,0,-1.3182,0.8486,0,0,0
7555,0.0069,-0.0002,0.0083,0.0141,-0.0248,-0.0000,-0.35,1.03,-0.02,0,4.075,-0.105,0.212,-0.007,0.018,-0.009,0.999,0.000,0.000,0.000,0.0070,6,4,0.00,0.00,0.00,0.0000,0.0000,0.0000,0.0000,0.0000,0.0000,0.0000,0.00,0.00,0.00,1.0650,0.0680,1.1760,1.2380,2.7010,0,0.0000,0.0000,0.0000,0.0000,0.0000,0,1,0,0.3000,0,-1.3182,0.8486,0,0,0
7606,0.0050,0.0049,0.0078,0.0025,0.0053,-0.0032,-0.61,1.04,-0.01,0,4.086,-0.107,0.009,0.245,0.022,-0.006,0.999,0.000,0.000,0.000,0.0100,0,-2,0.00,0.00,0.00,0.0000,0.0000,0.0000,0.0000,0.0000,0.0000,0.0000,0.00,0.00,0.00,1.0610,0.0660,1.1730,1.2410,2.7010,0,0.0000,0.0000,0.0000,0.0000,0.0000,0,1,0,0.3000,0,-1.3182,0.8486,0,0,0
7658,0.0058,0.0038,0.0087,0.0077,-0.0002,0.0018,-0.58,1.04,-0.01,0,4.075,-0.244,0.068,-0.010,0.018,-0.008,0.998,0.000,0.000,0.000,0.0060,1,1,0.00,0.00,0.00,0.0000,0.0000,0.0000,0.0000,0.0000,0.0000,0.0000,0.00,0.00,0.00,1.0610,0.0660,1.1730,1.2410,2.7010,0,0.0000,0.0000,0.0000,0.0000,0.0000,0,1,0,0.3000,0,-1.3182,0.8486,0,0,0
7708,0.0050,0.0036,0.0075,0.0031,-0.0014,-0.0042,-0.53,1.04,-0.01,0,4.086,0.050,-0.152,-0.065,0.017,-0.006,0.998,0.000,0.000,0.000,0.0100,-3,0,0.00,0.00,0.00,0.0000,0.0000,0.0000,0.0000,0.0000,0.0000,0.0000,0.00,0.00,0.00,1.0670,0.0670,1.1720,1.2420,2.6960,0,0.0000,0.0000,0.0000,0.0000,0.0000,0,1,0,0.3000,0,-1.3182,0.8486,0,0,0
7759,0.0060,0.0024,0.0085,0.0072,-0.0066,0.0006,-0.55,1.08,-0.01,0,4.075,0.038,-0.231,-0.027,0.018,-0.008,0.999,0.000,0.000,0.000,0.0070,3,0,0.00,0.00,0.00,0.0000,0.0000,0.0000,0.0000,0.0000,0.0000,0.0000,0.00,0.00,0.00,1.0670,0.0670,1.1720,1.2420,2.6960,0,0.0000,0.0000,0.0000,0.0000,0.0000,0,1,0,0.3000,0,-1.3182,0.8486,0,0,0
7810,0.0059,0.0052,0.0078,0.0075,0.0075,-0.0028,-0.52,1.04,-0.01,0,4.086,0.102,-0.093,-0.199,0.018,-0.008,1.002,0.000,0.000,0.000,0.0100,-1,0,0.00,0.00,0.00,0.0000,0.0000,0.0000,0.0000,0.0000,0.0000,0.0000,0.00,0.00,0.00,1.0670,0.0660,1.1760,1.2400,2.7000,0,0.0000,0.0000,0.0000,0.0000,0.0000,0,1,0,0.3000,0,-1.3182,0.8486,0,0,0
7861,0.0050,0.0045,0.0087,0.0023,0.0044,0.0020,-0.53,1.03,-0.01,0,4.075,0.012,-0.164,0.136,0.019,-0.009,0.999,0.000,0.000,0.000,0.0100,0,-1,0.00,0.00,0.00,0.0000,0.0000,0.0000,0.0000,0.0000,0.0000,0.0000,0.00,0.00,0.00,1.0670,0.0660,1.1760,1.2400,2.7000,0,0.0000,0.0000,0.0000,0.0000,0.0000,0,1,0,0.3000,0,-1.3182,0.8486,0,0,0
7912,0.0059,0.0073,0.0094,0.0070,0.0194,0.0045,-0.67,1.02,-0.01,0,4.086,-0.067,0.277,0.198,0.018,-0.008,0.999,0.000,0.000,0.000,0.0070,-9,2,0.00,0.00,0.00,0.0000,0.0000,0.0000,0.0000,0.0000,0.0000,0.0000,0.00,0.00,0.00,1.0670,0.0660,1.1740,1.2420,2.6950,0,0.0000,0.0000,0.0000,0.0000,0.0000,0,1,0,0.3000,0,-1.3182,0.8486,0,0,0
7963,0.0050,0.0157,0.0082,0.0014,0.0598,-0.0028,-0.95,1.04,-0.01,0,4.070,-0.048,-0.230,0.001,0.017,-0.007,0.999,0.000,0.000,0.000,0.0090,-3,-1,0.00,0.00,0.00,0.0000,0.0000,0.0000,0.0000,0.0000,0.0000,0.0000,0.00,0.00,0.00,1.0670,0.0660,1.1740,1.2420,2.6950,0,0.0000,0.0000,0.0000,0.0000,0.0000,0,1,0,0.3000,0,-1.3182,0.8486,0,0,0
8015,0.0050,0.0172,0.0086,0.0014,0.0554,-0.0003,-0.86,1.07,-0.01,0,4.086,-0.127,-0.023,-0.240,0.020,-0.010,0.999,0.000,0.000,0.000,0.0050,-20,-4,0.00,0.00,0.00,0.0000,0.0000,0.0000,0.0000,0.0000,0.0000,0.0000,0.00,0.00,0.00,1.0680,0.0700,1.1760,1.2370,2.6990,0,0.0000,0.0000,0.0000,0.0000,0.0000,0,1,0,0.3000,0,-1.3182,0.8486,0,0,0
8065,0.0039,0.0129,0.0075,-0.0039,0.0213,-0.0057,-0.58,1.07,-0.01,0,4.075,-0.080,-0.107,-0.044,0.019,-0.009,0.999,0.000,0.000,0.000,0.0060,-1,0,0.00,0.00,0.00,0.0000,0.0000,0.0000,0.0000,0.0000,0.0000,0.0000,0.00,0.00,0.00,1.0680,0.0700,1.1760,1.2370,2.6990,0,0.0000,0.0000,0.0000,0.0000,0.0000,0,1,0,0.3000,0,-1.3182,0.8486,0,0,0
8116,0.0046,0.0169,0.0067,0.0008,0.0352,-0.0086,-0.66,1.06,-0.01,0,4.086,-0.098,0.140,-0.103,0.017,-0.007,0.999,0.000,0.000,0.000,0.0080,2,-5,0.00,0.00,0.00,0.0000,0.0000,0.0000,0.0000,0.0000,0.0000,0.0000,0.00,0.00,0.00,1.0650,0.0670,1.1690,1.2430,2.7050,0,0.0000,0.0000,0.0000,0.0000,0.0000,0,1,0,0.3000,0,-1.3182,0.8486,0,0,0
8167,0.0048,0.0141,0.0071,0.0023,0.0135,-0.0042,-0.43,1.05,-0.02,0,4.070,0.048,0.249,-0.130,0.021,-0.008,0.999,0.000,0.000,0.000,0.0080,-3,0,0.00,0.00,0.00,0.0000,0.0000,0.0000,0.0000,0.0000,0.0000,0.0000,0.00,0.00,0.00,1.0650,0.0670,1.1690,1.2430,2.7050,0,0.0000,0.0000,0.0000,0.0000,0.0000,0,1,0,0.3000,0,-1.3182,0.8486,0,0,0
8218,0.0054,0.0051,0.0072,0.0053,-0.0344,-0.0026,-0.20,1.04,-0.02,0,4.086,-0.150,-0.115,-0.066,0.019,-0.008,0.999,0.000,0.000,0.000,0.0080,1,1,0.00,0.00,0.00,0.0000,0.0000,0.0000,0.0000,0.0000,0.0000,0.0000,0.00,0.00,0.00,1.0640,0.0660,1.1730,1.2390,2.7050,0,0.0000,0.0000,0.0000,0.0000,0.0000,0,1,0,0.3000,0,-1.3182,0.8486,0,0,0
8269,0.0052,0.0028,0.0075,0.0045,-0.0396,-0.0009,-0.09,1.01,-0.03,0,4.070,-0.218,0.062,0.318,0.019,-0.007,0.999,0.000,0.000,0.000,0.0100,1,-3,0.00,0.00,0.00,0.0000,0.0000,0.0000,0.0000,0.0000,0.0000,0.0000,0.00,0.00,0.00,1.0640,0.0660,1.1730,1.2390,2.7050,0,0.0000,0.0000,0.0000,0.0000,0.0000,0,1,0,0.3000,0,-1.3182,0.8486,0,0,0
8320,0.0064,0.0055,0.0088,0.0101,-0.0181,0.0057,-0.16,0.99,-0.03,0,4.086,-0.300,0.005,0.042,0.020,-0.007,0.999,0.000,0.000,0.000,0.0090,1,2,0.00,0.00,0.00,0.0000,0.0000,0.0000,0.0000,0.0000,0.0000,0.0000,0.00,0.00,0.00,1.0680,0.0650,1.1740,1.2400,2.7040,0,0.0000,0.0000,0.0000,0.0000,0.0000,0,1,0,0.3000,0,-1.3182,0.8486,0,0,0
8371,0.0063,0.0034,0.0091,0.0082,-0.0245,0.0061,-0.24,1.00,-0.02,0,4.075,-0.037,0.150,-0.051,0.020,-0.004,1.001,0.000,0.000,0.000,0.0080,0,0,0.00,0.00,0.00,0.0000,0.0000,0.0000,0.0000,0.0000,0.0000,0.0000,0.00,0.00,0.00,1.0680,0.0650,1.1740,1.2400,2.7040,0,0.0000,0.0000,0.0000,0.0000,0.0000,0,1,0,0.3000,0,-1.3182,0.8486,0,0,0
8422,0.0065,0.0008,0.0088,0.0086,-0.0333,0.0031,-0.33,0.99,-0.02,0,4.086,0.005,-0.049,-0.113,0.019,-0.008,0.999,0.000,0.000,0.000,0.0070,20,0,0.00,0.00,0.00,0.0000,0.0000,0.0000,0.0000,0.0000,0.0000,0.0000,0.00,0.00,0.00,1.0660,0.0670,1.1790,1.2430,2.7050,0,0.0000,0.0000,0.0000,0.0000,0.0000,0,1,0,0.3000,0,-1.3182,0.8486,0,0,0
8473,0.0068,-0.0039,0.0081,0.0090,-0.0540,-0.0018,-0.21,1.01,-0.02,0,4.075,-0.390,-0.021,-0.247,0.019,-0.009,0.998,0.000,0.000,0.000,0.0060,4,-2,0.00,0.00,0.00,0.0000,0.0000,0.0000,0.0000,0.0000,0.0000,0.0000,0.00,0.00,0.00,1.0660,0.0670,1.1790,1.2430,2.7050,0,0.0000,0.0000,0.0000,0.0000,0.0000,0,1,0,0.3000,0,-1.3182,0.8486,0,0,0
8524,0.0065,-0.0084,0.0072,0.0076,-0.0683,-0.0073,0.02,1.03,-0.02,0,4.086,-0.325,-0.127,0.304,0.018,-0.008,1.002,0.000,0.000,0.000,0.0090,-8,0,0.00,0.00,0.00,0.0000,0.0000,0.0000,0.0000,0.0000,0.0000,0.0000,0.00,0.00,0.00,1.0670,0.0650,1.1760,1.2380,2.6960,0,0.0000,0.0000,0.0000,0.0000,0.0000,0,1,0,0.3000,0,-1.3182,0.8486,0,0,0
8575,0.0059,-0.0058,0.0080,0.0032,-0.0411,-0.0004,-0.21,1.03,-0.02,0,4.075,0.141,0.050,-0.522,0.016,-0.008,0.999,0.000,0.000,0.000,0.0080,0,0,0.00,0.00,0.00,0.0000,0.0000,0.0000,0.0000,0.0000,0.0000,0.0000,0.00,0.00,0.00,1.0670,0.0650,1.1760,1.2380,2.6960,0,0.0000,0.0000,0.0000,0.0000,0.0000,0,1,0,0.3000,0,-1.3182,0.8486,0,0,0
8626,0.0077,-0.0100,0.0080,0.0119,-0.0552,-0.0008,0.04,0.99,-0.03,0,4.080,-0.091,0.061,-0.197,0.018,-0.008,1.000,0.000,0.000,0.000,0.0070,5,2,0.00,0.00,0.00,0.0000,0.0000,0.0000,0.0000,0.0000,0.0000,0.0000,0.00,0.00,0.00,1.0640,0.0650,1.1730,1.2430,2.7070,0,0.0000,0.0000,0.0000,0.0000,0.0000,0,1,0,0.3000,0,-1.3182,0.8486,0,0,0
8677,0.0075,-0.0158,0.0075,0.0094,-0.0711,-0.0033,-0.09,0.96,-0.02,0,4.075,-0.142,0.064,0.099,0.017,-0.005,0.997,0.000,0.000,0.000,0.0070,4,1,0.00,0.00,0.00,0.0000,0.0000,0.0000,0.0000,0.0000,0.0000,0.0000,0.00,0.00,0.00,1.0640,0.0650,1.1730,1.2430,2.7070,0,0.0000,0.0000,0.0000,0.0000,0.0000,0,1,0,0.3000,0,-1.3182,0.8486,0,0,0
8728,0.0081,-0.0134,0.0074,0.0111,-0.0437,-0.0025,-0.27,0.99,-0.02,0,4.080,0.157,-0.088,0.027,0.020,-0.006,1.001,0.000,0.000,0.000,0.0100,-7,2,0.00,0.00,0.00,0.0000,0.0000,0.0000,0.0000,0.0000,0.0000,0.0000,0.00,0.00,0.00,1.0670,0.0660,1.1770,1.2440,2.6860,0,0.0000,0.0000,0.0000,0.0000,0.0000,0,1,0,0.3000,0,-1.3182,0.8486,0,0,0
8779,0.0075,-0.0124,0.0085,0.0062,-0.0271,0.0039,-0.26,1.00,-0.02,0,4.075,-0.065,-0.056,0.119,0.021,-0.006,1.000,0.000,0.000,0.000,0.0060,0,0,0.00,0.00,0.00,0.0000,0.0000,0.0000,0.0000,0.0000,0.0000,0.0000,0.00,0.00,0.00,1.0670,0.0660,1.1770,1.2440,2.6860,0,0.0000,0.0000,0.0000,0.0000,0.0000,0,1,0,0.3000,0,-1.3182,0.8486,0,0,0
8830,0.0070,-0.0104,0.0077,0.0032,-0.0095,-0.0019,-0.67,1.01,-0.01,0,4.086,0.225,0.116,-0.168,0.020,-0.008,0.999,0.000,0.000,0.000,0.0060,2,3,0.00,0.00,0.00,0.0000,0.0000,0.0000,0.0000,0.0000,0.0000,0.0000,0.00,0.00,0.00,1.0670,0.0670,1.1700,1.2370,2.7020,0,0.0000,0.0000,0.0000,0.0000,0.0000,0,1,0,0.3000,0,-1.3182,0.8486,0,0,0
8881,0.0073,-0.0072,0.0069,0.0044,0.0078,-0.0051,-0.67,1.02,-0.01,0,4.075,-0.018,0.040,0.225,0.019,-0.006,1.001,0.000,0.000,0.000,0.0060,0,0,0.00,0.00,0.00,0.0000,0.0000,0.0000,0.0000,0.0000,0.0000,0.0000,0.00,0.00,0.00,1.0670,0.0670,1.1700,1.2370,2.7020,0,0.0000,0.0000,0.0000,0.0000,0.0000,0,1,0,0.3000,0,-1.3182,0.8486,0,0,0
8932,0.0075,-0.0100,0.0064,0.0050,-0.0083,-0.0066,-0.55,1.03,-0.01,0,4.086,0.055,-0.176,0.041,0.015,-0.007,1.001,0.000,0.000,0.000,0.0090,-5,-3,0.00,0.00,0.00,0.0000,0.0000,0.0000,0.0000,0.0000,0.0000,0.0000,0.00,0.00,0.00,1.0640,0.0660,1.1760,1.2400,2.6970,0,0.0000,0.0000,0.0000,0.0000,0.0000,0,1,0,0.3000,0,-1.3182,0.8486,0,0,0
8983,0.0069,-0.0087,0.0073,0.0009,0.0004,-0.0003,-0.58,1.05,-0.01,0,4.075,-0.162,0.031,0.130,0.016,-0.006,1.000,0.000,0.000,0.000,0.0080,0,1,0.00,0.00,0.00,0.0000,0.0000,0.0000,0.0000,0.0000,0.0000,0.0000,0.00,0.00,0.00,1.0640,0.0660,1.1760,1.2400,2.6970,0,0.0000,0.0000,0.0000,0.0000,0.0000,0,1,0,0.3000,0,-1.3182,0.8486,0,0,0
9034,0.0084,-0.0072,0.0076,0.0088,0.0082,0.0016,-0.61,1.01,-0.01,0,4.086,-0.215,0.185,0.369,0.020,-0.008,1.001,0.000,0.000,0.000,0.0090,0,0,0.00,0.00,0.00,0.0000,0.0000,0.0000,0.0000,0.0000,0.0000,0.0000,0.00,0.00,0.00,1.0680,0.0670,1.1710,1.2390,2.6980,0,0.0000,0.0000,0.0000,0.0000,0.0000,0,1,0,0.3000,0,-1.3182,0.8486,0,0,0
9085,0.0083,-0.0066,0.0082,0.0083,0.0112,0.0042,-0.58,1.02,-0.01,0,4.070,-0.151,0.034,0.023,0.020,-0.007,1.001,0.000,0.000,0.000,0.0070,19,-6,0.00,0.00,0.00,0.0000,0.0000,0.0000,0.0000,0.0000,0.0000,0.0000,0.00,0.00,0.00,1.0680,0.0670,1.1710,1.2390,2.6980,0,0.0000,0.0000,0.0000,0.0000,0.0000,0,1,0,0.3000,0,-1.3182,0.8486,0,0,0
9136,0.0078,-0.0117,0.0079,0.0051,-0.0181,0.0011,-0.44,1.04,-0.01,0,4.086,0.185,-0.020,-0.222,0.020,-0.006,0.999,0.000,0.000,0.000,0.0080,1,0,0.00,0.00,0.00,0.0000,0.0000,0.0000,0.0000,0.0000,0.0000,0.0000,0.00,0.00,0.00,1.0660,0.0670,1.1760,1.2440,2.7080,0,0.0000,0.0000,0.0000,0.0000,0.0000,0,1,0,0.3000,0,-1.3182,0.8486,0,0,0
9187,0.0082,-0.0141,0.0080,0.0070,-0.0243,0.0013,-0.31,0.99,-0.01,0,4.075,0.189,-0.097,-0.485,0.018,-0.012,1.000,0.000,0.000,0.000,0.0100,1,0,0.00,0.00,0.00,0.0000,0.0000,0.0000,0.0000,0.0000,0.0000,0.0000,0.00,0.00,0.00,1.0660,0.0670,1.1760,1.2440,2.7080,0,0.0000,0.0000,0.0000,0.0000,0.0000,0,1,0,0.3000,0,-1.3182,0.8486,0,0,0
9238,0.0082,-0.0149,0.0089,0.0063,-0.0231,0.0055,-0.37,1.03,-0.01,0,4.080,-0.047,0.007,0.005,0.019,-0.009,0.999,0.000,0.000,0.000,0.0100,-17,2,0.00,0.00,0.00,0.0000,0.0000,0.0000,0.0000,0.0000,0.0000,0.0000,0.00,0.00,0.00,1.0680,0.0650,1.1750,1.2420,2.6960,0,0.0000,0.0000,0.0000,0.0000,0.0000,0,1,0,0.3000,0,-1.3182,0.8486,0,0,0
9289,0.0071,-0.0095,0.0097,0.0007,0.0112,0.0076,-0.63,1.01,-0.00,0,4.075,-0.014,0.107,-0.167,0.022,-0.008,0.997,0.000,0.000,0.000,0.0060,-32,-3,0.00,0.00,0.00,0.0000,0.0000,0.0000,0.0000,0.0000,0.0000,0.0000,0.00,0.00,0.00,1.0680,0.0650,1.1750,1.2420,2.6960,0,0.0000,0.0000,0.0000,0.0000,0.0000,0,1,0,0.3000,0,-1.3182,0.8486,0,0,0
9340,0.0090,0.0044,0.0076,0.0113,0.0821,-0.0065,-1.44,0.94,0.00,0,4.080,-0.195,0.072,0.316,0.017,-0.009,1.000,0.000,0.000,0.000,0.0100,0,3,0.00,0.00,0.00,0.0000,0.0000,0.0000,0.0000,0.0000,0.0000,0.0000,0.00,0.00,0.00,1.0710,0.0670,1.1750,1.2440,2.7000,0,0.0000,0.0000,0.0000,0.0000,0.0000,0,1,0,0.3000,0,-1.3182,0.8486,0,0,0
9391,0.0100,0.0172,0.0078,0.0145,0.1274,-0.0036,-1.49,0.93,0.01,0,4.070,0.079,0.050,-0.316,0.020,-0.010,1.000,0.000,0.000,0.000,0.0050,2,1,0.00,0.00,0.00,0.0000,0.0000,0.0000,0.0000,0.0000,0.0000,0.0000,0.00,0.00,0.00,1.0710,0.0670,1.1750,1.2440,2.7000,0,0.0000,0.0000,0.0000,0.0000,0.0000,0,1,0,0.3000,0,-1.3182,0.8486,0,0,0
9442,0.0112,0.0144,0.0076,0.0183,0.0854,-0.0023,-1.27,0.98,-0.00,0,4.086,0.191,-0.019,-0.058,0.019,-0.009,1.000,0.000,0.000,0.000,0.0080,-26,0,0.00,0.00,0.00,0.0000,0.0000,0.0000,0.0000,0.0000,0.0000,0.0000,0.00,0.00,0.00,1.0630,0.0660,1.1720,1.2410,2.6970,0,0.0000,0.0000,0.0000,0.0000,0.0000,0,1,0,0.3000,0,-1.3182,0.8486,0,0,0
9493,0.0093,0.0251,0.0073,0.0060,0.1228,-0.0041,-1.23,1.05,-0.00,0,4.070,0.022,-0.156,0.082,0.019,-0.009,1.001,0.000,0.000,0.000,0.0070,2,2,0.00,0.00,0.00,0.0000,0.0000,0.0000,0.0000,0.0000,0.0000,0.0000,0.00,0.00,0.00,1.0630,0.0660,1.1720,1.2410,2.6970,0,0.0000,0.0000,0.0000,0.0000,0.0000,0,1,0,0.3000,0,-1.3182,0.8486,0,0,0
9544,0.0092,0.0294,0.0075,0.0051,0.1173,-0.0012,-1.26,1.02,0.00,0,4.086,-0.114,0.603,0.223,0.020,-0.010,0.999,0.000,0.000,0.000,0.0100,-1,1,0.00,0.00,0.00,0.0000,0.0000,0.0000,0.0000,0.0000,0.0000,0.0000,0.00,0.00,0.00,1.0680,0.0680,1.1720,1.2400,2.7050,0,0.0000,0.0000,0.0000,0.0000,0.0000,0,1,0,0.3000,0,-1.3182,0.8486,0,0,0
9595,0.0091,0.0326,0.0088,0.0045,0.1089,0.0055,-1.01,1.04,-0.00,0,4.075,0.048,0.199,0.113,0.020,-0.008,0.999,0.000,0.000,0.000,0.0090,-20,-7,0.00,0.00,0.00,0.0000,0.0000,0.0000,0.0000,0.0000,0.0000,0.0000,0.00,0.00,0.00,1.0680,0.0680,1.1720,1.2400,2.7050,0,0.0000,0.0000,0.0000,0.0000,0.0000,0,1,0,0.3000,0,-1.3182,0.8486,0,0,0
9646,0.0098,0.0279,0.0097,0.0086,0.0612,0.0100,-0.75,1.06,-0.01,0,4.080,-0.091,-0.108,0.001,0.021,-0.007,1.001,0.000,0.000,0.000,0.0070,3,0,0.00,0.00,0.00,0.0000,0.0000,0.0000,0.0000,0.0000,0.0000,0.0000,0.00,0.00,0.00,1.0650,0.0670,1.1760,1.2420,2.6970,0,0.0000,0.0000,0.0000,0.0000,0.0000,0,1,0,0.3000,0,-1.3182,0.8486,0,0,0
9697,0.0101,0.0353,0.0088,0.0095,0.0835,0.0026,-0.79,1.00,0.00,0,4.070,0.295,0.249,-0.058,0.019,-0.008,1.002,0.000,0.000,0.000,0.0070,0,-1,0.00,0.00,0.00,0.0000,0.0000,0.0000,0.0000,0.0000,0.0000,0.0000,0.00,0.00,0.00,1.0650,0.0670,1.1760,1.2420,2.6970,0,0.0000,0.0000,0.0000,0.0000,0.0000,0,1,0,0.3000,0,-1.3182,0.8486,0,0,0
9748,0.0110,0.0335,0.0084,0.0126,0.0566,-0.0004,-0.62,1.01,0.00,0,4.086,-0.058,0.266,-0.022,0.022,-0.008,0.999,0.000,0.000,0.000,0.0060,-4,0,0.00,0.00,0.00,0.0000,0.0000,0.0000,0.0000,0.0000,0.0000,0.0000,0.00,0.00,0.00,1.0680,0.0640,1.1730,1.2380,2.6910,0,0.0000,0.0000,0.0000,0.0000,0.0000,0,1,0,0.3000,0,-1.3182,0.8486,0,0,0
9799,0.0099,0.0337,0.0075,0.0057,0.0437,-0.0043,-0.50,1.01,-0.00,0,4.070,-0.116,0.022,0.026,0.018,-0.010,0.999,0.000,0.000,0.000,0.0080,4,-1,0.00,0.00,0.00,0.0000,0.0000,0.0000,0.0000,0.0000,0.0000,0.0000,0.00,0.00,0.00,1.0680,0.0640,1.1730,1.2380,2.6910,0,0.0000,0.0000,0.0000,0.0000,0.0000,0,1,0,0.3000,0,-1.3182,0.8486,0,0,0
9850,0.0107,0.0356,0.0076,0.0093,0.0422,-0.0026,-0.41,1.04,-0.00,0,4.080,-0.089,-0.288,0.287,0.019,-0.006,1.001,0.000,0.000,0.000,0.0090,3,2,0.00,0.00,0.00,0.0000,0.0000,0.0000,0.0000,0.0000,0.0000,0.0000,0.00,0.00,0.00,1.0670,0.0670,1.1740,1.2450,2.6930,0,0.0000,0.0000,0.0000,0.0000,0.0000,0,1,0,0.3000,0,-1.3182,0.8486,0,0,0
9902,0.0096,0.0343,0.0082,0.0031,0.0261,0.0010,-0.35,1.01,0.00,0,4.075,0.424,0.109,-0.018,0.021,-0.009,0.997,0.000,0.000,0.000,0.0100,0,-3,0.00,0.00,0.00,0.0000,0.0000,0.0000,0.0000,0.0000,0.0000,0.0000,0.00,0.00,0.00,1.0670,0.0670,1.1740,1.2450,2.6930,0,0.0000,0.0000,0.0000,0.0000,0.0000,0,1,0,0.3000,0,-1.3182,0.8486,0,0,0
9952,0.0100,0.0346,0.0090,0.0051,0.0194,0.0049,-0.25,1.04,-0.01,0,4.080,-0.146,0.174,-0.082,0.020,-0.008,1.001,0.000,0.000,0.000,0.0070,-2,1,0.00,0.00,0.00,0.0000,0.0000,0.0000,0.0000,0.0000,0.0000,0.0000,0.00,0.00,0.00,1.0620,0.0660,1.1730,1.2390,2.7040,0,0.0000,0.0000,0.0000,0.0000,0.0000,0,1,0,0.3000,0,-1.3182,0.8486,0,0,0
10003,0.0090,0.0360,0.0083,-0.0004,0.0215,-0.0003,-0.25,1.04,-0.01,0,4.070,-0.162,-0.235,0.204,0.021,-0.008,1.000,0.000,0.000,0.000,0.0080,0,2,0.00,0.00,0.00,0.0000,0.0000,0.0000,0.0000,0.0000,0.0000,0.0000,0.00,0.00,0.00,1.0620,0.0660,1.1730,1.2390,2.7040,0,0.0000,0.0000,0.0000,0.0000,0.0000,0,1,0,0.3000,0,-1.3182,0.8486,0,0,0
10054,0.0110,0.0376,0.0082,0.0110,0.0255,-0.0014,-0.50,0.99,-0.01,0,4.086,-0.071,-0.241,-0.343,0.018,-0.010,1.002,0.000,0.000,0.000,0.0070,-2,-1,0.00,0.00,0.00,0.0000,0.0000,0.0000,0.0000,0.0000,0.0000,0.0000,0.00,0.00,0.00,1.0720,0.0680,1.1700,1.2420,2.7060,0,0.0000,0.0000,0.0000,0.0000,0.0000,0,1,0,0.3000,0,-1.3182,0.8486,0,0,0
10105,0.0103,0.0417,0.0076,0.0052,0.0382,-0.0045,-0.39,1.01,-0.01,0,4.075,0.118,0.230,-0.012,0.018,-0.008,0.998,0.000,0.000,0.000,0.0070,-5,3,0.00,0.00,0.00,0.0000,0.0000,0.0000,0.0000,0.0000,0.0000,0.0000,0.00,0.00,0.00,1.0720,0.0680,1.1700,1.2420,2.7060,0,0.0000,0.0000,0.0000,0.0000,0.0000,0,1,0,0.3000,0,-1.3182,0.8486,0,0,0
10156,0.0103,0.0433,0.0072,0.0040,0.0385,-0.0055,-0.34,1.02,-0.00,0,4.080,0.004,-0.314,0.023,0.019,-0.008,0.999,0.000,0.000,0.000,0.0080,0,0,0.00,0.00,0.00,0.0000,0.0000,0.0000,0.0000,0.0000,0.0000,0.0000,0.00,0.00,0.00,1.0680,0.0670,1.1730,1.2390,2.6920,0,0.0000,0.0000,0.0000,0.0000,0.0000,0,1,0,0.3000,0,-1.3182,0.8486,0,0,0
10207,0.0109,0.0415,0.0075,0.0070,0.0205,-0.0029,-0.31,1.02,-0.00,0,4.075,0.220,-0.063,0.154,0.019,-0.010,0.999,0.000,0.000,0.000,0.0090,-4,7,0.00,0.00,0.00,0.0000,0.0000,0.0000,0.0000,0.0000,0.0000,0.0000,0.00,0.00,0.00,1.0680,0.0670,1.1730,1.2390,2.6920,0,0.0000,0.0000,0.0000,0.0000,0.0000,0,1,0,0.3000,0,-1.3182,0.8486,0,0,0
10258,0.0099,0.0421,0.0081,0.0012,0.0173,0.0003,-0.14,1.03,0.00,0,4.080,0.009,-0.217,0.258,0.021,-0.009,0.998,0.000,0.000,0.000,0.0090,-4,2,0.00,0.00,0.00,0.0000,0.0000,0.0000,0.0000,0.0000,0.0000,0.0000,0.00,0.00,0.00,1.0650,0.0670,1.1710,1.2390,2.7030,0,0.0000,0.0000,0.0000,0.0000,0.0000,0,1,0,0.3000,0,-1.3182,0.8486,0,0,0
10309,0.0081,0.0413,0.0086,-0.0072,0.0102,0.0020,-0.29,1.10,0.01,0,4.070,-0.055,-0.059,-0.024,0.021,-0.007,0.999,0.000,0.000,0.000,0.0080,0,0,0.00,0.00,0.00,0.0000,0.0000,0.0000,0.0000,0.0000,0.0000,0.0000,0.00,0.00,0.00,1.0650,0.0670,1.1710,1.2390,2.7030,0,0.0000,0.0000,0.0000,0.0000,0.0000,0,1,0,0.3000,0,-1.3182,0.8486,0,0,0
10360,0.0090,0.0414,0.0084,-0.0008,0.0067,0.0004,-0.26,1.08,0.01,0,4.080,-0.274,-0.080,0.279,0.019,-0.007,0.999,0.000,0.000,0.000,0.0070,5,-8,0.00,0.00,0.00,0.0000,0.0000,0.0000,0.0000,0.0000,0.0000,0.0000,0.00,0.00,0.00,1.0660,0.0650,1.1780,1.2420,2.6950,0,0.0000,0.0000,0.0000,0.0000,0.0000,0,1,0,0.3000,0,-1.3182,0.8486,0,0,0
10411,0.0088,0.0424,0.0078,0.0003,0.0088,-0.0030,-0.27,1.10,0.01,0,4.075,0.276,0.186,-0.028,0.020,-0.009,1.000,0.000,0.000,0.000,0.0070,0,3,0.00,0.00,0.00,0.0000,0.0000,0.0000,0.0000,0.0000,0.0000,0.0000,0.00,0.00,0.00,1.0660,0.0650,1.1780,1.2420,2.6950,0,0.0000,0.0000,0.0000,0.0000,0.0000,0,1,0,0.3000,0,-1.3182,0.8486,0,0,0
10462,0.0093,0.0489,0.0074,0.0042,0.0404,-0.0045,-0.57,1.04,0.01,0,4.080,-0.234,-0.053,0.275,0.020,-0.011,0.999,0.000,0.000,0.000,0.0110,0,1,0.00,0.00,0.00,0.0000,0.0000,0.0000,0.0000,0.0000,0.0000,0.0000,0.00,0.00,0.00,1.0620,0.0690,1.1730,1.2440,2.7040,0,0.0000,0.0000,0.0000,0.0000,0.0000,0,1,0,0.3000,0,-1.3182,0.8486,0,0,0
10513,0.0083,0.0514,0.0088,0.0002,0.0432,0.0034,-0.52,1.03,0.01,0,4.075,0.159,-0.051,0.121,0.019,-0.007,1.001,0.000,0.000,0.000,0.0080,-3,1,0.00,0.00,0.00,0.0000,0.0000,0.0000,0.0000,0.0000,0.0000,0.0000,0.00,0.00,0.00,1.0620,0.0690,1.1730,1.2440,2.7040,0,0.0000,0.0000,0.0000,0.0000,0.0000,0,1,0,0.3000,0,-1.3182,0.8486,0,0,0
10564,0.0092,0.0517,0.0086,0.0060,0.0350,0.0014,-0.41,1.03,0.01,0,4.080,-0.091,-0.079,0.199,0.019,-0.009,1.000,0.000,0.000,0.000,0.0050,3,-4,0.00,0.00,0.00,0.0000,0.0000,0.0000,0.0000,0.0000,0.0000,0.0000,0.00,0.00,0.00,1.0670,0.0650,1.1780,1.2460,2.7010,0,0.0000,0.0000,0.0000,0.0000,0.0000,0,1,0,0.3000,0,-1.3182,0.8486,0,0,0
10615,0.0092,0.0498,0.0072,0.0062,0.0181,-0.0062,-0.39,1.06,0.01,0,4.070,0.032,0.081,-0.103,0.020,-0.009,0.999,0.000,0.000,0.000,0.0070,-1,1,0.00,0.00,0.00,0.0000,0.0000,0.0000,0.0000,0.0000,0.0000,0.0000,0.00,0.00,0.00,1.0670,0.0650,1.1780,1.2460,2.7010,0,0.0000,0.0000,0.0000,0.0000,0.0000,0,1,0,0.3000,0,-1.3182,0.8486,0,0,0
10666,0.0079,0.0487,0.0070,-0.0002,0.0061,-0.0062,-0.34,1.01,0.00,0,4.080,-0.117,-0.220,0.107,0.018,-0.007,1.000,0.000,0.000,0.000,0.0090,-3,4,0.00,0.00,0.00,0.0000,0.0000,0.0000,0.0000,0.0000,0.0000,0.0000,0.00,0.00,0.00,1.0660,0.0640,1.1740,1.2440,2.7070,0,0.0000,0.0000,0.0000,0.0000,0.0000,0,1,0,0.3000,0,-1.3182,0.8486,0,0,0
10717,0.0083,0.0498,0.0077,0.0019,0.0071,-0.0010,-0.32,1.02,-0.00,0,4.070,-0.105,-0.114,0.056,0.018,-0.010,1.001,0.000,0.000,0.000,0.0060,-5,0,0.00,0.00,0.00,0.0000,0.0000,0.0000,0.0000,0.0000,0.0000,0.0000,0.00,0.00,0.00,1.0660,0.0640,1.1740,1.2440,2.7070,0,0.0000,0.0000,0.0000,0.0000,0.0000,0,1,0,0.3000,0,-1.3182,0.8486,0,0,0
10768,0.0083,0.0505,0.0069,0.0026,0.0064,-0.0049,-0.31,1.03,0.01,0,4.080,-0.096,-0.133,0.085,0.017,-0.010,1.000,0.000,0.000,0.000,0.0080,2,-6,0.00,0.00,0.00,0.0000,0.0000,0.0000,0.0000,0.0000,0.0000,0.0000,0.00,0.00,0.00,1.0680,0.0670,1.1730,1.2430,2.7030,0,0.0000,0.0000,0.0000,0.0000,0.0000,0,1,0,0.3000,0,-1.3182,0.8486,0,0,0
10820,0.0079,0.0513,0.0072,0.0005,0.0071,-0.0024,-0.28,1.03,0.01,0,4.075,-0.063,0.225,-0.158,0.021,-0.008,1.000,0.000,0.000,0.000,0.0080,-4,1,0.00,0.00,0.00,0.0000,0.0000,0.0000,0.0000,0.0000,0.0000,0.0000,0.00,0.00,0.00,1.0680,0.0670,1.1730,1.2430,2.7030,0,0.0000,0.0000,0.0000,0.0000,0.0000,0,1,0,0.3000,0,-1.3182,0.8486,0,0,0
10871,0.0092,0.0465,0.0075,0.0081,-0.0219,-0.0006,0.08,0.95,0.00,0,4.080,0.067,0.061,-0.126,0.019,-0.008,1.000,0.000,0.000,0.000,0.0080,2,1,0.00,0.00,0.00,0.0000,0.0000,0.0000,0.0000,0.0000,0.0000,0.0000,0.00,0.00,0.00,1.0660,0.0670,1.1760,1.2460,2.6980,0,0.0000,0.0000,0.0000,0.0000,0.0000,0,1,0,0.3000,0,-1.3182,0.8486,0,0,0
10922,0.0100,0.0430,0.0077,0.0117,-0.0353,0.0009,-0.04,1.00,0.01,0,4.070,-0.182,0.221,-0.069,0.020,-0.007,1.000,0.000,0.000,0.000,0.0090,1,-2,0.00,0.00,0.00,0.0000,0.0000,0.0000,0.0000,0.0000,0.0000,0.0000,0.00,0.00,0.00,1.0660,0.0670,1.1760,1.2460,2.6980,0,0.0000,0.0000,0.0000,0.0000,0.0000,0,1,0,0.3000,0,-1.3182,0.8486,0,0,0
10974,0.0083,0.0461,0.0086,0.0023,-0.0117,0.0050,-0.17,1.00,0.01,0,4.080,0.013,0.027,0.093,0.019,-0.007,1.001,0.000,0.000,0.000,0.0070,4,2,0.00,0.00,0.00,0.0000,0.0000,0.0000,0.0000,0.0000,0.0000,0.0000,0.00,0.00,0.00,1.0670,0.0660,1.1760,1.2470,2.7030,0,0.0000,0.0000,0.0000,0.0000,0.0000,0,1,0,0.3000,0,-1.3182,0.8486,0,0,0
11024,0.0090,0.0544,0.0079,0.0059,0.0344,-0.0001,-0.95,0.97,0.01,0,4.070,0.300,-0.136,-0.050,0.020,-0.009,1.000,0.000,0.000,0.000,0.0070,0,-1,0.00,0.00,0.00,0.0000,0.0000,0.0000,0.0000,0.0000,0.0000,0.0000,0.00,0.00,0.00,1.0670,0.0660,1.1760,1.2470,2.7030,0,0.0000,0.0000,0.0000,0.0000,0.0000,0,1,0,0.3000,0,-1.3182,0.8486,0,0,0
11076,0.0090,0.0635,0.0073,0.0052,0.0698,-0.0030,-0.80,0.97,0.01,0,4.080,0.227,0.103,0.073,0.018,-0.008,1.000,0.000,0.000,0.000,0.0070,0,0,0.00,0.00,0.00,0.0000,0.0000,0.0000,0.0000,0.0000,0.0000,0.0000,0.00,0.00,0.00,1.0700,0.0680,1.1760,1.2420,2.7000,0,0.0000,0.0000,0.0000,0.0000,0.0000,0,1,0,0.3000,0,-1.3182,0.8486,0,0,0
11127,0.0092,0.0616,0.0074,0.0058,0.0464,-0.0021,-0.67,1.00,0.01,0,4.075,0.114,0.148,-0.125,0.022,-0.008,1.000,0.000,0.000,0.000,0.0090,-2,3,0.00,0.00,0.00,0.0000,0.0000,0.0000,0.0000,0.0000,0.0000,0.0000,0.00,0.00,0.00,1.0700,0.0680,1.1760,1.2420,2.7000,0,0.0000,0.0000,0.0000,0.0000,0.0000,0,1,0,0.3000,0,-1.3182,0.8486,0,0,0
11178,0.0079,0.0621,0.0081,-0.0002,0.0374,0.0025,-0.57,0.96,0.01,0,4.080,-0.025,-0.138,0.030,0.017,-0.009,1.000,0.000,0.000,0.000,0.0080,4,0,0.00,0.00,0.00,0.0000,0.0000,0.0000,0.0000,0.0000,0.0000,0.0000,0.00,0.00,0.00,1.0640,0.0660,1.1790,1.2450,2.7050,0,0.0000,0.0000,0.0000,0.0000,0.0000,0,1,0,0.3000,0,-1.3182,0.8486,0,0,0
11229,0.0093,0.0632,0.0082,0.0070,0.0342,0.0024,-0.54,0.96,0.01,0,4.070,-0.319,0.139,0.052,0.019,-0.009,0.999,0.000,0.000,0.000,0.0070,0,-4,0.00,0.00,0.00,0.0000,0.0000,0.0000,0.0000,0.0000,0.0000,0.0000,0.00,0.00,0.00,1.0640,0.0660,1.1790,1.2450,2.7050,0,0.0000,0.0000,0.0000,0.0000,0.0000,0,1,0,0.3000,0,-1.3182,0.8486,0,0,0
11280,0.0086,0.0606,0.0079,0.0025,0.0128,0.0002,-0.36,1.00,0.01,0,4.080,0.155,0.108,-0.317,0.021,-0.007,1.001,0.000,0.000,0.000,0.0050,-3,-5,0.00,0.00,0.00,0.0000,0.0000,0.0000,0.0000,0.0000,0.0000,0.0000,0.00,0.00,0.00,1.0640,0.0650,1.1730,1.2380,2.7030,0,0.0000,0.0000,0.0000,0.0000,0.0000,0,1,0,0.3000,0,-1.3182,0.8486,0,0,0
11331,0.0091,0.0590,0.0066,0.0050,0.0006,-0.0062,-0.26,0.99,0.01,0,4.070,0.308,-0.036,-0.058,0.019,-0.007,0.999,0.000,0.000,0.000,0.0090,-7,4,0.00,0.00,0.00,0.0000,0.0000,0.0000,0.0000,0.0000,0.0000,0.0000,0.00,0.00,0.00,1.0640,0.0650,1.1730,1.2380,2.7030,0,0.0000,0.0000,0.0000,0.0000,0.0000,0,1,0,0.3000,0,-1.3182,0.8486,0,0,0
11382,0.0097,0.0631,0.0075,0.0075,0.0204,-0.0005,-0.45,0.99,0.01,0,4.080,0.114,0.028,0.427,0.021,-0.008,0.999,0.000,0.000,0.000,0.0090,0,3,0.00,0.00,0.00,0.0000,0.0000,0.0000,0.0000,0.0000,0.0000,0.0000,0.00,0.00,0.00,1.0640,0.0660,1.1750,1.2400,2.6890,0,0.0000,0.0000,0.0000,0.0000,0.0000,0,1,0,0.3000,0,-1.3182,0.8486,0,0,0
11433,0.0069,0.0627,0.0082,-0.0067,0.0120,0.0028,-0.13,1.09,0.01,0,4.075,0.201,0.191,0.195,0.018,-0.008,0.998,0.000,0.000,0.000,0.0080,2,4,0.00,0.00,0.00,0.0000,0.0000,0.0000,0.0000,0.0000,0.0000,0.0000,0.00,0.00,0.00,1.0640,0.0660,1.1750,1.2400,2.6890,0,0.0000,0.0000,0.0000,0.0000,0.0000,0,1,0,0.3000,0,-1.3182,0.8486,0,0,0
11484,0.0063,0.0549,0.0082,-0.0081,-0.0297,0.0019,-0.02,1.07,0.01,0,4.080,-0.099,0.078,0.052,0.018,-0.007,1.002,0.000,0.000,0.000,0.0110,4,0,0.00,0.00,0.00,0.0000,0.0000,0.0000,0.0000,0.0000,0.0000,0.0000,0.00,0.00,0.00,1.0670,0.0660,1.1720,1.2390,2.7070,0,0.0000,0.0000,0.0000,0.0000,0.0000,0,1,0,0.3000,0,-1.3182,0.8486,0,0,0
11535,0.0057,0.0563,0.0096,-0.0101,-0.0172,0.0088,0.17,1.07,0.01,0,4.070,-0.256,0.150,0.089,0.019,-0.008,1.001,0.000,0.000,0.000,0.0080,5,0,0.00,0.00,0.00,0.0000,0.0000,0.0000,0.0000,0.0000,0.0000,0.0000,0.00,0.00,0.00,1.0670,0.0660,1.1720,1.2390,2.7070,0,0.0000,0.0000,0.0000,0.0000,0.0000,0,1,0,0.3000,0,-1.3182,0.8486,0,0,0
11586,0.0048,0.0523,0.0095,-0.0118,-0.0297,0.0062,-0.10,1.08,0.02,0,4.086,-0.018,0.183,0.156,0.020,-0.007,1.000,0.000,0.000,0.000,0.0110,-5,0,0.00,0.00,0.00,0.0000,0.0000,0.0000,0.0000,0.0000,0.0000,0.0000,0.00,0.00,0.00,1.0650,0.0680,1.1770,1.2430,2.7020,0,0.0000,0.0000,0.0000,0.0000,0.0000,0,1,0,0.3000,0,-1.3182,0.8486,0,0,0
11637,0.0038,0.0610,0.0105,-0.0137,0.0207,0.0093,-0.50,1.09,0.02,0,4.070,0.135,-0.024,-0.187,0.019,-0.007,0.998,0.000,0.000,0.000,0.0060,-2,0,0.00,0.00,0.00,0.0000,0.0000,0.0000,0.0000,0.0000,0.0000,0.0000,0.00,0.00,0.00,1.0650,0.0680,1.1770,1.2430,2.7020,0,0.0000,0.0000,0.0000,0.0000,0.0000,0,1,0,0.3000,0,-1.3182,0.8486,0,0,0
11688,0.0040,0.0617,0.0089,-0.0085,0.0194,-0.0020,-0.52,1.05,0.02,0,4.080,0.111,-0.020,0.112,0.018,-0.009,0.999,0.000,0.000,0.000,0.0060,-5,0,0.00,0.00,0.00,0.0000,0.0000,0.0000,0.0000,0.0000,0.0000,0.0000,0.00,0.00,0.00,1.0680,0.0650,1.1750,1.2410,2.6990,0,0.0000,0.0000,0.0000,0.0000,0.0000,0,1,0,0.3000,0,-1.3182,0.8486,0,0,0
11739,0.0043,0.0615,0.0076,-0.0043,0.0135,-0.0083,-0.42,1.02,0.02,0,4.075,-0.010,-0.029,0.191,0.020,-0.008,0.998,0.000,0.000,0.000,0.0090,4,-4,0.00,0.00,0.00,0.0000,0.0000,0.0000,0.0000,0.0000,0.0000,0.0000,0.00,0.00,0.00,1.0680,0.0650,1.1750,1.2410,2.6990,0,0.0000,0.0000,0.0000,0.0000,0.0000,0,1,0,0.3000,0,-1.3182,0.8486,0,0,0
11790,0.0049,0.0603,0.0080,0.0014,0.0043,-0.0052,-0.47,1.05,0.02,0,4.080,-0.214,0.118,0.012,0.019,-0.007,0.999,0.000,0.000,0.000,0.0110,-5,0,0.00,0.00,0.00,0.0000,0.0000,0.0000,0.0000,0.0000,0.0000,0.0000,0.00,0.00,0.00,1.0670,0.0660,1.1740,1.2420,2.6930,0,0.0000,0.0000,0.0000,0.0000,0.0000,0,1,0,0.3000,0,-1.3182,0.8486,0,0,0
11841,0.0036,0.0607,0.0091,-0.0043,0.0046,0.0014,-0.37,1.00,0.01,0,4.070,-0.055,-0.006,-0.150,0.020,-0.010,0.997,0.000,0.000,0.000,0.0090,2,0,0.00,0.00,0.00,0.0000,0.0000,0.0000,0.0000,0.0000,0.0000,0.0000,0.00,0.00,0.00,1.0670,0.0660,1.1740,1.2420,2.6930,0,0.0000,0.0000,0.0000,0.0000,0.0000,0,1,0,0.3000,0,-1.3182,0.8486,0,0,0
11892,0.0043,0.0616,0.0091,0.0006,0.0077,0.0000,-0.39,0.98,0.01,0,4.086,-0.001,-0.020,-0.020,0.019,-0.010,0.999,0.000,0.000,0.000,0.0080,6,9,0.00,0.00,0.00,0.0000,0.0000,0.0000,0.0000,0.0000,0.0000,0.0000,0.00,0.00,0.00,1.0670,0.0680,1.1760,1.2410,2.7040,0,0.0000,0.0000,0.0000,0.0000,0.0000,0,1,0,0.3000,0,-1.3182,0.8486,0,0,0
11943,0.0047,0.0591,0.0087,0.0037,-0.0082,-0.0020,-0.44,0.95,0.01,0,4.070,-0.089,-0.291,-0.112,0.019,-0.010,0.998,0.000,0.000,0.000,0.0090,21,1,0.00,0.00,0.00,0.0000,0.0000,0.0000,0.0000,0.0000,0.0000,0.0000,0.00,0.00,0.00,1.0670,0.0680,1.1760,1.2410,2.7040,0,0.0000,0.0000,0.0000,0.0000,0.0000,0,1,0,0.3000,0,-1.3182,0.8486,0,0,0
11994,0.0040,0.0587,0.0089,0.0006,-0.0107,-0.0010,-0.29,0.97,0.01,0,4.080,0.141,0.181,-0.206,0.020,-0.009,0.998,0.000,0.000,0.000,0.0080,0,0,0.00,0.00,0.00,0.0000,0.0000,0.0000,0.0000,0.0000,0.0000,0.0000,0.00,0.00,0.00,1.0720,0.0670,1.1740,1.2410,2.6950,0,0.0000,0.0000,0.0000,0.0000,0.0000,0,1,0,0.3000,0,-1.3182,0.8486,0,0,0
12045,0.0043,0.0539,0.0085,0.0020,-0.0317,-0.0033,-0.11,0.98,0.01,0,4.075,-0.005,-0.071,0.040,0.019,-0.008,1.000,0.000,0.000,0.000,0.0090,1,0,0.00,0.00,0.00,0.0000,0.0000,0.0000,0.0000,0.0000,0.0000,0.0000,0.00,0.00,0.00,1.0720,0.0670,1.1740,1.2410,2.6950,0,0.0000,0.0000,0.0000,0.0000,0.0000,0,1,0,0.3000,0,-1.3182,0.8486,0,0,0
12096,0.0050,0.0514,0.0086,0.0062,-0.0384,-0.0020,-0.04,0.95,0.01,0,4.080,0.267,0.034,-0.167,0.019,-0.006,0.999,0.000,0.000,0.000,0.0070,-3,0,0.00,0.00,0.00,0.0000,0.0000,0.0000,0.0000,0.0000,0.0000,0.0000,0.00,0.00,0.00,1.0700,0.0670,1.1720,1.2430,2.6980,0,0.0000,0.0000,0.0000,0.0000,0.0000,0,1,0,0.3000,0,-1.3182,0.8486,0,0,0
12147,0.0043,0.0536,0.0080,0.0022,-0.0201,-0.0045,-0.26,0.97,0.01,0,4.070,0.060,0.163,-0.166,0.017,-0.006,0.998,0.000,0.000,0.000,0.0070,0,0,0.00,0.00,0.00,0.0000,0.0000,0.0000,0.0000,0.0000,0.0000,0.0000,0.00,0.00,0.00,1.0700,0.0670,1.1720,1.2430,2.6980,0,0.0000,0.0000,0.0000,0.0000,0.0000,0,1,0,0.3000,0,-1.3182,0.8486,0,0,0
12199,0.0031,0.0603,0.0074,-0.0038,0.0189,-0.0073,-0.61,1.06,0.01,0,4.080,0.123,0.126,0.126,0.020,-0.007,1.001,0.000,0.000,0.000,0.0060,1,0,0.00,0.00,0.00,0.0000,0.0000,0.0000,0.0000,0.0000,0.0000,0.0000,0.00,0.00,0.00,1.0670,0.0650,1.1690,1.2390,2.6940,0,0.0000,0.0000,0.0000,0.0000,0.0000,0,1,0,0.3000,0,-1.3182,0.8486,0,0,0
12249,0.0019,0.0610,0.0065,-0.0080,0.0188,-0.0102,-0.56,1.03,0.01,0,4.070,-0.088,0.247,-0.093,0.019,-0.009,0.999,0.000,0.000,0.000,0.0080,-6,6,0.00,0.00,0.00,0.0000,0.0000,0.0000,0.0000,0.0000,0.0000,0.0000,0.00,0.00,0.00,1.0670,0.0650,1.1690,1.2390,2.6940,0,0.0000,0.0000,0.0000,0.0000,0.0000,0,1,0,0.3000,0,-1.3182,0.8486,0,0,0
12300,0.0055,0.0583,0.0070,0.0125,0.0011,-0.0057,-0.43,0.94,0.01,0,4.080,-0.303,-0.115,0.247,0.019,-0.006,0.998,0.000,0.000,0.000,0.0080,1,0,0.00,0.00,0.00,0.0000,0.0000,0.0000,0.0000,0.0000,0.0000,0.0000,0.00,0.00,0.00,1.0630,0.0680,1.1730,1.2410,2.6890,0,0.0000,0.0000,0.0000,0.0000,0.0000,0,1,0,0.3000,0,-1.3182,0.8486,0,0,0
12351,0.0029,0.0631,0.0073,0.0001,0.0236,-0.0037,-0.60,1.01,0.01,0,4.070,-0.108,0.277,0.308,0.020,-0.005,1.001,0.000,0.000,0.000,0.0080,-2,0,0.00,0.00,0.00,0.0000,0.0000,0.0000,0.0000,0.0000,0.0000,0.0000,0.00,0.00,0.00,1.0630,0.0680,1.1730,1.2410,2.6890,0,0.0000,0.0000,0.0000,0.0000,0.0000,0,1,0,0.3000,0,-1.3182,0.8486,0,0,0
12402,0.0011,0.0635,0.0075,-0.0075,0.0206,-0.0016,-0.50,1.01,0.01,0,4.080,0.171,-0.012,-0.318,0.018,-0.008,0.999,0.000,0.000,0.000,0.0090,-1,1,0.00,0.00,0.00,0.0000,0.0000,0.0000,0.0000,0.0000,0.0000,0.0000,0.00,0.00,0.00,1.0640,0.0660,1.1760,1.2420,2.6990,0,0.0000,0.0000,0.0000,0.0000,0.0000,0,1,0,0.3000,0,-1.3182,0.8486,0,0,0
12453,0.0022,0.0623,0.0081,-0.0005,0.0108,0.0021,-0.48,0.99,0.01,0,4.070,0.234,0.018,-0.071,0.018,-0.008,0.999,0.000,0.000,0.000,0.0090,1,0,0.00,0.00,0.00,0.0000,0.0000,0.0000,0.0000,0.0000,0.0000,0.0000,0.00,0.00,0.00,1.0640,0.0660,1.1760,1.2420,2.6990,0,0.0000,0.0000,0.0000,0.0000,0.0000,0,1,0,0.3000,0,-1.3182,0.8486,0,0,0
12504,0.0016,0.0628,0.0086,-0.0030,0.0091,0.0042,-0.46,0.98,0.01,0,4.086,-0.085,-0.047,0.208,0.018,-0.008,1.002,0.000,0.000,0.000,0.0100,5,-2,0.00,0.00,0.00,0.0000,0.0000,0.0000,0.0000,0.0000,0.0000,0.0000,0.00,0.00,0.00,1.0720,0.0670,1.1790,1.2410,2.7000,0,0.0000,0.0000,0.0000,0.0000,0.0000,0,1,0,0.3000,0,-1.3182,0.8486,0,0,0
12555,0.0018,0.0644,0.0094,-0.0008,0.0148,0.0071,-0.48,0.99,0.01,0,4.070,-0.308,0.128,0.104,0.022,-0.007,0.999,0.000,0.000,0.000,0.0090,1,-3,0.00,0.00,0.00,0.0000,0.0000,0.0000,0.0000,0.0000,0.0000,0.0000,0.00,0.00,0.00,1.0720,0.0670,1.1790,1.2410,2.7000,0,0.0000,0.0000,0.0000,0.0000,0.0000,0,1,0,0.3000,0,-1.3182,0.8486,0,0,0
12606,0.0011,0.0645,0.0094,-0.0031,0.0124,0.0056,-0.41,0.97,0.01,0,4.080,-0.193,0.077,0.068,0.020,-0.008,0.998,0.000,0.000,0.000,0.0090,1,-2,0.00,0.00,0.00,0.0000,0.0000,0.0000,0.0000,0.0000,0.0000,0.0000,0.00,0.00,0.00,1.0650,0.0680,1.1720,1.2440,2.6930,0,0.0000,0.0000,0.0000,0.0000,0.0000,0,1,0,0.3000,0,-1.3182,0.8486,0,0,0
12657,0.0018,0.0632,0.0094,0.0012,0.0033,0.0040,-0.42,0.98,0.01,0,4.070,0.141,-0.180,-0.194,0.020,-0.008,0.998,0.000,0.000,0.000,0.0070,0,0,0.00,0.00,0.00,0.0000,0.0000,0.0000,0.0000,0.0000,0.0000,0.0000,0.00,0.00,0.00,1.0650,0.0680,1.1720,1.2440,2.6930,0,0.0000,0.0000,0.0000,0.0000,0.0000,0,1,0,0.3000,0,-1.3182,0.8486,0,0,0
12708,0.0015,0.0620,0.0085,0.0007,-0.0052,-0.0021,-0.41,1.00,0.01,0,4.080,-0.014,0.244,0.314,0.019,-0.007,0.999,0.000,0.000,0.000,0.0060,0,1,0.00,0.00,0.00,0.0000,0.0000,0.0000,0.0000,0.0000,0.0000,0.0000,0.00,0.00,0.00,1.0650,0.0690,1.1780,1.2360,2.7000,0,0.0000,0.0000,0.0000,0.0000,0.0000,0,1,0,0.3000,0,-1.3182,0.8486,0,0,0
12759,0.0029,0.0587,0.0074,0.0085,-0.0236,-0.0073,-0.03,0.95,0.01,0,4.070,0.052,-0.060,-0.216,0.019,-0.009,0.999,0.000,0.000,0.000,0.0070,-7,2,0.00,0.00,0.00,0.0000,0.0000,0.0000,0.0000,0.0000,0.0000,0.0000,0.00,0.00,0.00,1.0650,0.0690,1.1780,1.2360,2.7000,0,0.0000,0.0000,0.0000,0.0000,0.0000,0,1,0,0.3000,0,-1.3182,0.8486,0,0,0
12810,0.0025,0.0512,0.0068,0.0062,-0.0575,-0.0088,-0.03,0.97,0.01,0,4.086,-0.187,-0.017,0.020,0.020,-0.010,1.001,0.000,0.000,0.000,0.0070,0,0,0.00,0.00,0.00,0.0000,0.0000,0.0000,0.0000,0.0000,0.0000,0.0000,0.00,0.00,0.00,1.0730,0.0660,1.1720,1.2450,2.7020,0,0.0000,0.0000,0.0000,0.0000,0.0000,0,1,0,0.3000,0,-1.3182,0.8486,0,0,0
12862,0.0022,0.0529,0.0068,0.0055,-0.0409,-0.0067,-0.22,0.97,0.01,0,4.070,-0.006,-0.046,0.305,0.019,-0.006,1.000,0.000,0.000,0.000,0.0060,4,-4,0.00,0.00,0.00,0.0000,0.0000,0.0000,0.0000,0.0000,0.0000,0.0000,0.00,0.00,0.00,1.0730,0.0660,1.1720,1.2450,2.7020,0,0.0000,0.0000,0.0000,0.0000,0.0000,0,1,0,0.3000,0,-1.3182,0.8486,0,0,0
12912,0.0018,0.0551,0.0064,0.0029,-0.0234,-0.0067,-0.27,0.99,0.01,0,4.080,0.080,0.208,0.105,0.017,-0.008,1.001,0.000,0.000,0.000,0.0080,0,0,0.00,0.00,0.00,0.0000,0.0000,0.0000,0.0000,0.0000,0.0000,0.0000,0.00,0.00,0.00,1.0650,0.0680,1.1720,1.2380,2.7080,0,0.0000,0.0000,0.0000,0.0000,0.0000,0,1,0,0.3000,0,-1.3182,0.8486,0,0,0
12964,0.0021,0.0534,0.0069,0.0037,-0.0279,-0.0026,-0.23,0.99,0.01,0,4.075,0.276,-0.151,0.010,0.021,-0.008,0.999,0.000,0.000,0.000,0.0090,4,1,0.00,0.00,0.00,0.0000,0.0000,0.0000,0.0000,0.0000,0.0000,0.0000,0.00,0.00,0.00,1.0650,0.0680,1.1720,1.2380,2.7080,0,0.0000,0.0000,0.0000,0.0000,0.0000,0,1,0,0.3000,0,-1.3182,0.8486,0,0,0
13014,0.0019,0.0512,0.0077,0.0030,-0.0349,0.0027,-0.34,1.02,0.01,0,4.080,-0.067,-0.014,0.135,0.019,-0.007,0.997,0.000,0.000,0.000,0.0050,-1,0,0.00,0.00,0.00,0.0000,0.0000,0.0000,0.0000,0.0000,0.0000,0.0000,0.00,0.00,0.00,1.0700,0.0660,1.1730,1.2430,2.7040,0,0.0000,0.0000,0.0000,0.0000,0.0000,0,1,0,0.3000,0,-1.3182,0.8486,0,0,0
13065,0.0008,0.0535,0.0068,-0.0024,-0.0177,-0.0029,-0.36,1.03,0.01,0,4.070,-0.118,-0.130,-0.143,0.019,-0.005,1.000,0.000,0.000,0.000,0.0070,1,0,0.00,0.00,0.00,0.0000,0.0000,0.0000,0.0000,0.0000,0.0000,0.0000,0.00,0.00,0.00,1.0700,0.0660,1.1730,1.2430,2.7040,0,0.0000,0.0000,0.0000,0.0000,0.0000,0,1,0,0.3000,0,-1.3182,0.8486,0,0,0
13116,0.0006,0.0544,0.0068,-0.0026,-0.0106,-0.0019,-0.38,1.01,0.00,0,4.080,-0.226,0.032,0.033,0.019,-0.006,0.999,0.000,0.000,0.000,0.0050,1,2,0.00,0.00,0.00,0.0000,0.0000,0.0000,0.0000,0.0000,0.0000,0.0000,0.00,0.00,0.00,1.0650,0.0650,1.1700,1.2450,2.7070,0,0.0000,0.0000,0.0000,0.0000,0.0000,0,1,0,0.3000,0,-1.3182,0.8486,0,0,0
13167,-0.0003,0.0626,0.0060,-0.0058,0.0358,-0.0060,-0.77,1.05,0.00,0,4.070,-0.015,-0.084,0.166,0.020,-0.009,0.998,0.000,0.000,0.000,0.0090,-3,0,0.00,0.00,0.00,0.0000,0.0000,0.0000,0.0000,0.0000,0.0000,0.0000,0.00,0.00,0.00,1.0650,0.0650,1.1700,1.2450,2.7070,0,0.0000,0.0000,0.0000,0.0000,0.0000,0,1,0,0.3000,0,-1.3182,0.8486,0,0,0
13218,-0.0008,0.0626,0.0072,-0.0068,0.0292,0.0013,-0.69,1.04,0.01,0,4.080,0.088,0.111,-0.266,0.019,-0.010,0.997,0.000,0.000,0.000,0.0100,1,0,0.00,0.00,0.00,0.0000,0.0000,0.0000,0.0000,0.0000,0.0000,0.0000,0.00,0.00,0.00,1.0690,0.0720,1.1780,1.2450,2.6920,0,0.0000,0.0000,0.0000,0.0000,0.0000,0,1,0,0.3000,0,-1.3182,0.8486,0,0,0
13269,-0.0014,0.0630,0.0084,-0.0071,0.0251,0.0065,-0.64,1.04,0.01,0,4.070,0.112,-0.034,-0.102,0.019,-0.007,0.998,0.000,0.000,0.000,0.0090,-8,-1,0.00,0.00,0.00,0.0000,0.0000,0.0000,0.0000,0.0000,0.0000,0.0000,0.00,0.00,0.00,1.0690,0.0720,1.1780,1.2450,2.6920,0,0.0000,0.0000,0.0000,0.0000,0.0000,0,1,0,0.3000,0,-1.3182,0.8486,0,0,0
13321,0.0005,0.0620,0.0089,0.0043,0.0136,0.0074,-0.53,1.00,0.00,0,4.080,-0.195,0.444,0.335,0.018,-0.009,0.997,0.000,0.000,0.000,0.0110,-1,4,0.00,0.00,0.00,0.0000,0.0000,0.0000,0.0000,0.0000,0.0000,0.0000,0.00,0.00,0.00,1.0650,0.0650,1.1690,1.2400,2.7110,0,0.0000,0.0000,0.0000,0.0000,0.0000,0,1,0,0.3000,0,-1.3182,0.8486,0,0,0
13372,-0.0009,0.0636,0.0101,-0.0023,0.0180,0.0106,-0.53,0.97,0.01,0,4.070,0.086,-0.278,0.238,0.018,-0.007,1.000,0.000,0.000,0.000,0.0080,-2,0,0.00,0.00,0.00,0.0000,0.0000,0.0000,0.0000,0.0000,0.0000,0.0000,0.00,0.00,0.00,1.0650,0.0650,1.1690,1.2400,2.7110,0,0.0000,0.0000,0.0000,0.0000,0.0000,0,1,0,0.3000,0,-1.3182,0.8486,0,0,0
13424,-0.0009,0.0630,0.0095,-0.0009,0.0116,0.0042,-0.53,0.99,0.01,0,4.080,-0.275,-0.045,-0.179,0.018,-0.011,0.997,0.000,0.000,0.000,0.0070,-3,2,0.00,0.00,0.00,0.0000,0.0000,0.0000,0.0000,0.0000,0.0000,0.0000,0.00,0.00,0.00,1.0720,0.0680,1.1740,1.2400,2.7050,0,0.0000,0.0000,0.0000,0.0000,0.0000,0,1,0,0.3000,0,-1.3182,0.8486,0,0,0
13475,-0.0009,0.0638,0.0085,0.0004,0.0118,-0.0025,-0.50,1.00,0.01,0,4.070,-0.126,0.148,0.466,0.018,-0.011,0.999,0.000,0.000,0.000,0.0080,-13,0,0.00,0.00,0.00,0.0000,0.0000,0.0000,0.0000,0.0000,0.0000,0.0000,0.00,0.00,0.00,1.0720,0.0680,1.1740,1.2400,2.7050,0,0.0000,0.0000,0.0000,0.0000,0.0000,0,1,0,0.3000,0,-1.3182,0.8486,0,0,0
13526,-0.0007,0.0520,0.0080,0.0019,-0.0520,-0.0047,-0.00,0.97,0.01,0,4.080,-0.109,0.052,-0.011,0.019,-0.009,0.998,0.000,0.000,0.000,0.0080,-14,3,0.00,0.00,0.00,0.0000,0.0000,0.0000,0.0000,0.0000,0.0000,0.0000,0.00,0.00,0.00,1.0700,0.0660,1.1790,1.2390,2.6990,0,0.0000,0.0000,0.0000,0.0000,0.0000,0,1,0,0.3000,0,-1.3182,0.8486,0,0,0
13577,-0.0009,0.0521,0.0081,0.0009,-0.0425,-0.0033,-0.14,0.97,0.01,0,4.070,0.386,0.094,-0.319,0.017,-0.009,1.000,0.000,0.000,0.000,0.0080,-2,-2,0.00,0.00,0.00,0.0000,0.0000,0.0000,0.0000,0.0000,0.0000,0.0000,0.00,0.00,0.00,1.0700,0.0660,1.1790,1.2390,2.6990,0,0.0000,0.0000,0.0000,0.0000,0.0000,0,1,0,0.3000,0,-1.3182,0.8486,0,0,0
13628,-0.0009,0.0545,0.0081,0.0015,-0.0242,-0.0029,-0.30,1.00,0.01,0,4.080,0.042,0.193,-0.056,0.019,-0.006,0.998,0.000,0.000,0.000,0.0100,1,0,0.00,0.00,0.00,0.0000,0.0000,0.0000,0.0000,0.0000,0.0000,0.0000,0.00,0.00,0.00,1.0690,0.0650,1.1750,1.2420,2.7020,0,0.0000,0.0000,0.0000,0.0000,0.0000,0,1,0,0.3000,0,-1.3182,0.8486,0,0,0
13679,-0.0022,0.0564,0.0089,-0.0045,-0.0100,0.0009,-0.36,0.99,0.01,0,4.070,0.062,-0.046,-0.182,0.018,-0.010,1.000,0.000,0.000,0.000,0.0100,0,0,0.00,0.00,0.00,0.0000,0.0000,0.0000,0.0000,0.0000,0.0000,0.0000,0.00,0.00,0.00,1.0690,0.0650,1.1750,1.2420,2.7020,0,0.0000,0.0000,0.0000,0.0000,0.0000,0,1,0,0.3000,0,-1.3182,0.8486,0,0,0
13731,-0.0014,0.0550,0.0094,0.0007,-0.0139,0.0038,-0.40,0.98,0.01,0,4.080,0.049,0.118,-0.158,0.019,-0.006,1.000,0.000,0.000,0.000,0.0120,-2,3,0.00,0.00,0.00,0.0000,0.0000,0.0000,0.0000,0.0000,0.0000,0.0000,0.00,0.00,0.00,1.0710,0.0680,1.1750,1.2400,2.7060,0,0.0000,0.0000,0.0000,0.0000,0.0000,0,1,0,0.3000,0,-1.3182,0.8486,0,0,0
13781,-0.0014,0.0549,0.0106,0.0014,-0.0113,0.0091,-0.38,0.98,0.01,0,4.070,0.239,0.009,-0.206,0.019,-0.008,0.996,0.000,0.000,0.000,0.0070,0,0,0.00,0.00,0.00,0.0000,0.0000,0.0000,0.0000,0.0000,0.0000,0.0000,0.00,0.00,0.00,1.0710,0.0680,1.1750,1.2400,2.7060,0,0.0000,0.0000,0.0000,0.0000,0.0000,0,1,0,0.3000,0,-1.3182,0.8486,0,0,0
13832,-0.0012,0.0538,0.0093,0.0038,-0.0145,-0.0009,-0.45,0.97,0.01,0,4.080,-0.040,0.173,0.218,0.018,-0.008,1.000,0.000,0.000,0.000,0.0070,2,0,0.00,0.00,0.00,0.0000,0.0000,0.0000,0.0000,0.0000,0.0000,0.0000,0.00,0.00,0.00,1.0640,0.0670,1.1720,1.2400,2.6990,0,0.0000,0.0000,0.0000,0.0000,0.0000,0,1,0,0.3000,0,-1.3182,0.8486,0,0,0
13883,-0.0018,0.0526,0.0084,0.0006,-0.0191,-0.0055,-0.47,0.96,0.01,0,4.070,0.018,-0.035,-0.133,0.019,-0.007,0.998,0.000,0.000,0.000,0.0090,27,-4,0.00,0.00,0.00,0.0000,0.0000,0.0000,0.0000,0.0000,0.0000,0.0000,0.00,0.00,0.00,1.0640,0.0670,1.1720,1.2400,2.6990,0,0.0000,0.0000,0.0000,0.0000,0.0000,0,1,0,0.3000,0,-1.3182,0.8486,0,0,0
13934,-0.0009,0.0523,0.0085,0.0059,-0.0187,-0.0034,-0.23,0.96,0.02,0,4.080,0.122,0.024,-0.240,0.018,-0.008,1.002,0.000,0.000,0.000,0.0070,0,2,0.00,0.00,0.00,0.0000,0.0000,0.0000,0.0000,0.0000,0.0000,0.0000,0.00,0.00,0.00,1.0630,0.0660,1.1770,1.2360,2.6970,0,0.0000,0.0000,0.0000,0.0000,0.0000,0,1,0,0.3000,0,-1.3182,0.8486,0,0,0
13986,-0.0003,0.0453,0.0078,0.0089,-0.0471,-0.0060,-0.10,0.92,0.01,0,4.070,0.143,0.135,0.013,0.018,-0.007,1.001,0.000,0.000,0.000,0.0090,0,-1,0.00,0.00,0.00,0.0000,0.0000,0.0000,0.0000,0.0000,0.0000,0.0000,0.00,0.00,0.00,1.0630,0.0660,1.1770,1.2360,2.6970,0,0.0000,0.0000,0.0000,0.0000,0.0000,0,1,0,0.3000,0,-1.3182,0.8486,0,0,0
14037,-0.0007,0.0440,0.0082,0.0055,-0.0435,-0.0019,-0.21,0.94,0.01,0,4.080,-0.119,0.207,0.249,0.019,-0.007,0.998,0.000,0.000,0.000,0.0060,-1,-1,0.00,0.00,0.00,0.0000,0.0000,0.0000,0.0000,0.0000,0.0000,0.0000,0.00,0.00,0.00,1.0680,0.0660,1.1730,1.2430,2.7010,0,0.0000,0.0000,0.0000,0.0000,0.0000,0,1,0,0.3000,0,-1.3182,0.8486,0,0,0
14088,-0.0011,0.0439,0.0073,0.0029,-0.0351,-0.0066,-0.26,0.95,0.02,0,4.070,0.219,-0.072,-0.312,0.018,-0.010,0.999,0.000,0.000,0.000,0.0100,-2,3,0.00,0.00,0.00,0.0000,0.0000,0.0000,0.0000,0.0000,0.0000,0.0000,0.00,0.00,0.00,1.0680,0.0660,1.1730,1.2430,2.7010,0,0.0000,0.0000,0.0000,0.0000,0.0000,0,1,0,0.3000,0,-1.3182,0.8486,0,0,0
14140,-0.0005,0.0453,0.0084,0.0060,-0.0186,0.0006,-0.37,0.95,0.02,0,4.080,-0.100,-0.085,0.311,0.021,-0.010,0.999,0.000,0.000,0.000,0.0080,-3,5,0.00,0.00,0.00,0.0000,0.0000,0.0000,0.0000,0.0000,0.0000,0.0000,0.00,0.00,0.00,1.0690,0.0640,1.1730,1.2390,2.7010,0,0.0000,0.0000,0.0000,0.0000,0.0000,0,1,0,0.3000,0,-1.3182,0.8486,0,0,0
14190,-0.0003,0.0434,0.0082,0.0070,-0.0226,-0.0003,-0.41,0.92,0.02,0,4.070,0.137,-0.095,-0.159,0.018,-0.007,0.999,0.000,0.000,0.000,0.0080,-1,-2,0.00,0.00,0.00,0.0000,0.0000,0.0000,0.0000,0.0000,0.0000,0.0000,0.00,0.00,0.00,1.0690,0.0640,1.1730,1.2390,2.7010,0,0.0000,0.0000,0.0000,0.0000,0.0000,0,1,0,0.3000,0,-1.3182,0.8486,0,0,0
14241,-0.0003,0.0438,0.0082,0.0062,-0.0146,-0.0004,-0.47,0.99,0.02,0,4.080,-0.002,0.575,0.024,0.020,-0.008,0.999,0.000,0.000,0.000,0.0070,0,-2,0.00,0.00,0.00,0.0000,0.0000,0.0000,0.0000,0.0000,0.0000,0.0000,0.00,0.00,0.00,1.0660,0.0660,1.1710,1.2400,2.6930,0,0.0000,0.0000,0.0000,0.0000,0.0000,0,1,0,0.3000,0,-1.3182,0.8486,0,0,0
14292,-0.0009,0.0438,0.0077,0.0028,-0.0107,-0.0028,-0.46,0.98,0.02,0,4.070,-0.027,0.174,0.185,0.018,-0.006,0.998,0.000,0.000,0.000,0.0080,8,-4,0.00,0.00,0.00,0.0000,0.0000,0.0000,0.0000,0.0000,0.0000,0.0000,0.00,0.00,0.00,1.0660,0.0660,1.1710,1.2400,2.6930,0,0.0000,0.0000,0.0000,0.0000,0.0000,0,1,0,0.3000,0,-1.3182,0.8486,0,0,0
14343,-0.0005,0.0471,0.0077,0.0048,0.0114,-0.0017,-0.65,1.03,0.02,0,4.080,-0.128,-0.140,0.036,0.019,-0.011,0.999,0.000,0.000,0.000,0.0060,-10,-7,0.00,0.00,0.00,0.0000,0.0000,0.0000,0.0000,0.0000,0.0000,0.0000,0.00,0.00,0.00,1.0670,0.0720,1.1730,1.2420,2.7010,0,0.0000,0.0000,0.0000,0.0000,0.0000,0,1,0,0.3000,0,-1.3182,0.8486,0,0,0
