time_ms,pos_x,pos_y,pos_z,vel_x,vel_y,vel_z,roll,pitch,yaw,thrust,vbat,gyro_x,gyro_y,gyro_z,acc_x,acc_y,acc_z,rate_roll,rate_pitch,rate_yaw,range_z,flow_dx,flow_dy,mekf_roll,mekf_pitch,mekf_yaw,mekf_x,mekf_y,mekf_z
0,0.1941,1.3749,0.0084,-0.0008,-0.0002,-0.0052,-1.28,0.45,-55.87,0,4.128,0.040,-0.226,0.291,0.008,-0.024,0.000,0.000,0.000,0.000,0.0120,4,0,0.00,0.00,0.00,0.0000,0.0000,0.0000
50,0.1939,1.3748,0.0098,-0.0011,-0.0019,0.0029,-1.32,0.45,-55.59,0,4.133,0.233,0.097,-0.116,0.008,-0.025,0.000,0.000,0.000,0.000,0.0100,4,0,0.00,0.00,0.00,0.0000,0.0000,0.0000
101,0.1937,1.3746,0.0100,-0.0015,-0.0023,0.0027,-1.31,0.44,-55.32,0,4.123,0.317,-0.175,0.081,0.008,-0.024,0.000,0.000,0.000,0.000,0.0080,3,-1,0.00,0.00,0.00,0.0000,0.0000,0.0000
152,0.1933,1.3747,0.0093,-0.0024,-0.0024,-0.0012,-1.31,0.44,-55.06,0,4.133,0.068,-0.421,-0.152,0.008,-0.026,0.000,0.000,0.000,0.000,0.0090,9,0,0.00,0.00,0.00,0.0000,0.0000,0.0000
203,0.1938,1.3747,0.0091,0.0009,-0.0020,-0.0014,-1.26,0.44,-54.80,0,4.123,0.048,-0.230,0.108,0.009,-0.028,0.000,0.000,0.000,0.000,0.0080,3,0,0.00,0.00,0.00,0.0000,0.0000,0.0000
254,0.1936,1.3746,0.0086,-0.0004,-0.0032,-0.0038,-1.31,0.45,-54.53,0,4.133,0.310,-0.372,-0.233,0.008,-0.025,0.000,0.000,0.000,0.000,0.0060,2,0,0.00,0.00,0.00,0.0000,0.0000,0.0000
305,0.1938,1.3746,0.0074,-0.0001,-0.0031,-0.0097,-1.32,0.45,-54.28,0,4.128,0.194,0.133,0.085,0.010,-0.025,0.000,0.000,0.000,0.000,0.0050,-1,0,0.00,0.00,0.00,0.0000,0.0000,0.0000
356,0.1926,1.3738,0.0061,-0.0064,-0.0074,-0.0138,-1.29,0.45,-54.02,0,4.133,0.069,0.056,0.188,0.009,-0.026,0.000,0.000,0.000,0.000,0.0060,8,-1,0.00,0.00,0.00,0.0000,0.0000,0.0000
407,0.1936,1.3748,0.0057,-0.0004,-0.0017,-0.0122,-1.27,0.46,-53.76,0,4.128,0.253,0.048,-0.277,0.008,-0.026,0.000,0.000,0.000,0.000,0.0090,2,0,0.00,0.00,0.00,0.0000,0.0000,0.0000
458,0.1931,1.3743,0.0067,-0.0026,-0.0045,-0.0036,-1.30,0.46,-53.50,0,4.133,0.137,-0.089,-0.234,0.009,-0.025,0.000,0.000,0.000,0.000,0.0100,8,0,0.00,0.00,0.00,0.0000,0.0000,0.0000
509,0.1937,1.3747,0.0081,0.0003,-0.0014,0.0051,-1.27,0.46,-53.24,0,4.123,0.057,0.171,-0.239,0.010,-0.025,0.000,0.000,0.000,0.000,0.0080,0,0,0.00,0.00,0.00,0.0000,0.0000,0.0000
560,0.1928,1.3741,0.0083,-0.0045,-0.0049,0.0049,-1.30,0.47,-52.99,0,4.133,0.180,-0.014,0.005,0.008,-0.026,0.000,0.000,0.000,0.000,0.0100,0,0,0.00,0.00,0.00,0.0000,0.0000,0.0000
611,0.1937,1.3747,0.0092,0.0004,-0.0012,0.0082,-1.35,0.47,-52.73,0,4.128,0.068,-0.017,-0.110,0.008,-0.027,0.000,0.000,0.000,0.000,0.0080,0,0,0.00,0.00,0.00,0.0000,0.0000,0.0000
662,0.1936,1.3746,0.0089,-0.0011,-0.0016,0.0047,-1.34,0.47,-52.48,0,4.133,0.144,0.098,-0.122,0.006,-0.025,0.000,0.000,0.000,0.000,0.0090,0,0,0.00,0.00,0.00,0.0000,0.0000,0.0000
713,0.1928,1.3740,0.0091,-0.0059,-0.0058,0.0047,-1.29,0.47,-52.22,0,4.123,-0.049,0.299,0.089,0.007,-0.026,0.000,0.000,0.000,0.000,0.0090,-5,3,0.00,0.00,0.00,0.0000,0.0000,0.0000
764,0.1915,1.3730,0.0092,-0.0124,-0.0103,0.0038,-1.29,0.50,-51.97,0,4.133,-0.028,0.070,0.124,0.008,-0.024,0.000,0.000,0.000,0.000,0.0060,-3,0,0.00,0.00,0.00,0.0000,0.0000,0.0000
815,0.1919,1.3733,0.0080,-0.0098,-0.0086,-0.0041,-1.29,0.47,-51.72,0,4.123,0.210,0.241,0.066,0.007,-0.027,0.000,0.000,0.000,0.000,0.0070,-8,0,0.00,0.00,0.00,0.0000,0.0000,0.0000
866,0.1920,1.3734,0.0075,-0.0091,-0.0080,-0.0053,-1.34,0.47,-51.47,0,4.128,0.099,0.023,0.185,0.005,-0.029,0.000,0.000,0.000,0.000,0.0080,8,0,0.00,0.00,0.00,0.0000,0.0000,0.0000
917,0.1936,1.3747,0.0076,-0.0022,-0.0020,-0.0033,-1.26,0.47,-51.22,0,4.123,0.096,0.056,0.344,0.010,-0.026,0.000,0.000,0.000,0.000,0.0080,0,0,0.00,0.00,0.00,0.0000,0.0000,0.0000
968,0.1935,1.3746,0.0077,-0.0023,-0.0023,-0.0018,-1.34,0.47,-50.97,0,4.133,-0.142,-0.557,-0.018,0.008,-0.026,0.000,0.000,0.000,0.000,0.0090,-2,0,0.00,0.00,0.00,0.0000,0.0000,0.0000
1020,0.1919,1.3733,0.0082,-0.0103,-0.0087,0.0010,-1.29,0.48,-50.73,0,4.123,0.252,-0.148,-0.141,0.008,-0.024,0.000,0.000,0.000,0.000,0.0090,3,0,0.00,0.00,0.00,0.0000,0.0000,0.0000
1070,0.1929,1.3741,0.0086,-0.0045,-0.0040,0.0027,-1.28,0.47,-50.48,0,4.133,0.019,-0.093,0.034,0.009,-0.026,0.000,0.000,0.000,0.000,0.0080,-3,1,0.00,0.00,0.00,0.0000,0.0000,0.0000
1121,0.1925,1.3734,0.0084,-0.0061,-0.0076,0.0013,-1.32,0.47,-50.24,0,4.123,0.194,-0.305,-0.189,0.006,-0.027,0.000,0.000,0.000,0.000,0.0120,-3,0,0.00,0.00,0.00,0.0000,0.0000,0.0000
1172,0.1919,1.3733,0.0100,-0.0088,-0.0074,0.0086,-1.30,0.48,-50.00,0,4.128,0.155,-0.090,-0.022,0.007,-0.027,0.000,0.000,0.000,0.000,0.0110,-3,0,0.00,0.00,0.00,0.0000,0.0000,0.0000
1223,0.1923,1.3737,0.0107,-0.0069,-0.0055,0.0097,-1.33,0.48,-49.75,0,4.133,0.157,-0.059,0.097,0.008,-0.027,0.000,0.000,0.000,0.000,0.0100,-4,0,0.00,0.00,0.00,0.0000,0.0000,0.0000
1274,0.1920,1.3735,0.0107,-0.0084,-0.0068,0.0074,-1.32,0.48,-49.51,0,4.144,0.245,-0.070,-0.183,0.008,-0.026,0.000,0.000,0.000,0.000,0.0070,1,0,0.00,0.00,0.00,0.0000,0.0000,0.0000
1325,0.1924,1.3738,0.0093,-0.0057,-0.0046,-0.0022,-1.30,0.48,-49.28,0,4.123,0.246,-0.077,-0.192,0.007,-0.026,0.000,0.000,0.000,0.000,0.0120,5,-1,0.00,0.00,0.00,0.0000,0.0000,0.0000
1376,0.1925,1.3746,0.0104,-0.0048,-0.0007,0.0035,-1.28,0.49,-49.04,0,4.133,-0.018,0.207,-0.057,0.009,-0.028,0.000,0.000,0.000,0.000,0.0070,0,0,0.00,0.00,0.00,0.0000,0.0000,0.0000
1427,0.1931,1.3744,0.0090,-0.0029,-0.0020,-0.0044,-1.33,0.48,-48.80,0,4.123,0.421,-0.154,0.220,0.010,-0.028,0.000,0.000,0.000,0.000,0.0080,0,-1,0.00,0.00,0.00,0.0000,0.0000,0.0000
1478,0.1931,1.3750,0.0085,-0.0029,0.0009,-0.0068,-1.35,0.48,-48.57,0,4.128,-0.075,-0.083,-0.261,0.008,-0.026,0.000,0.000,0.000,0.000,0.0100,3,0,0.00,0.00,0.00,0.0000,0.0000,0.0000
1529,0.1924,1.3738,0.0089,-0.0066,-0.0058,-0.0022,-1.27,0.47,-48.33,0,4.128,0.320,-0.005,-0.131,0.007,-0.027,0.000,0.000,0.000,0.000,0.0080,0,0,0.00,0.00,0.00,0.0000,0.0000,0.0000
1580,0.1934,1.3747,0.0085,-0.0010,-0.0010,-0.0039,-1.35,0.47,-48.10,0,4.133,0.226,-0.220,-0.332,0.009,-0.027,0.000,0.000,0.000,0.000,0.0050,0,0,0.00,0.00,0.00,0.0000,0.0000,0.0000
1632,0.1929,1.3739,0.0069,-0.0030,-0.0054,-0.0113,-1.32,0.46,-47.91,0,4.123,0.086,-0.088,0.267,0.006,-0.025,0.000,0.000,0.000,0.000,0.0100,5,0,0.00,0.00,0.00,0.0000,0.0000,0.0000
1682,0.1935,1.3748,0.0079,-0.0002,-0.0007,-0.0032,-1.31,0.47,-47.68,0,4.133,0.170,-0.185,-0.008,0.008,-0.025,0.000,0.000,0.000,0.000,0.0080,4,0,0.00,0.00,0.00,0.0000,0.0000,0.0000
1733,0.1933,1.3746,0.0078,-0.0014,-0.0012,-0.0029,-1.31,0.47,-47.44,0,4.123,0.100,-0.408,0.012,0.010,-0.027,0.000,0.000,0.000,0.000,0.0090,1,0,0.00,0.00,0.00,0.0000,0.0000,0.0000
1784,0.1918,1.3733,0.0082,-0.0094,-0.0082,-0.0007,-1.27,0.47,-47.21,0,4.128,-0.079,-0.150,0.004,0.007,-0.026,0.000,0.000,0.000,0.000,0.0070,0,0,0.00,0.00,0.00,0.0000,0.0000,0.0000
1835,0.1918,1.3733,0.0077,-0.0088,-0.0075,-0.0043,-1.28,0.48,-46.98,0,4.123,0.144,0.138,0.193,0.011,-0.025,0.000,0.000,0.000,0.000,0.0120,-3,0,0.00,0.00,0.00,0.0000,0.0000,0.0000
1886,0.1927,1.3741,0.0094,-0.0034,-0.0034,0.0053,-1.37,0.48,-46.75,0,4.133,0.325,-0.140,-0.062,0.012,-0.027,0.000,0.000,0.000,0.000,0.0080,0,0,0.00,0.00,0.00,0.0000,0.0000,0.0000
1937,0.1922,1.3737,0.0089,-0.0057,-0.0065,0.0015,-1.30,0.48,-46.53,0,4.123,0.288,0.120,0.000,0.009,-0.027,0.000,0.000,0.000,0.000,0.0080,4,0,0.00,0.00,0.00,0.0000,0.0000,0.0000
1988,0.1932,1.3746,0.0086,-0.0005,-0.0014,-0.0004,-1.31,0.48,-46.31,0,4.133,-0.009,-0.194,-0.072,0.008,-0.026,0.000,0.000,0.000,0.000,0.0100,0,0,0.00,0.00,0.00,0.0000,0.0000,0.0000
2039,0.1931,1.3746,0.0092,-0.0012,-0.0018,0.0023,-1.35,0.48,-46.08,0,4.123,0.163,-0.343,0.020,0.009,-0.026,0.000,0.000,0.000,0.000,0.0070,-4,-1,0.00,0.00,0.00,0.0000,0.0000,0.0000
2090,0.1919,1.3738,0.0083,-0.0077,-0.0060,-0.0030,-1.34,0.48,-45.86,0,4.128,0.163,-0.021,0.046,0.008,-0.026,0.000,0.000,0.000,0.000,0.0080,5,0,0.00,0.00,0.00,0.0000,0.0000,0.0000
2141,0.1925,1.3740,0.0081,-0.0048,-0.0051,-0.0036,-1.26,0.48,-45.64,0,4.128,0.016,-0.070,0.028,0.009,-0.027,0.000,0.000,0.000,0.000,0.0100,5,0,0.00,0.00,0.00,0.0000,0.0000,0.0000
2192,0.1931,1.3746,0.0088,-0.0010,-0.0016,0.0004,-1.30,0.49,-45.42,0,4.138,0.305,0.071,0.073,0.009,-0.027,0.000,0.000,0.000,0.000,0.0080,0,0,0.00,0.00,0.00,0.0000,0.0000,0.0000
2243,0.1933,1.3748,0.0085,-0.0002,-0.0010,-0.0019,-1.37,0.48,-45.20,0,4.133,0.111,-0.297,-0.194,0.010,-0.025,0.000,0.000,0.000,0.000,0.0080,-4,-1,0.00,0.00,0.00,0.0000,0.0000,0.0000
2295,0.1915,1.3734,0.0083,-0.0086,-0.0082,-0.0028,-1.32,0.48,-44.97,0,4.133,0.032,0.131,0.146,0.007,-0.027,0.000,0.000,0.000,0.000,0.0080,0,0,0.00,0.00,0.00,0.0000,0.0000,0.0000
2346,0.1920,1.3736,0.0081,-0.0063,-0.0074,-0.0033,-1.30,0.48,-44.75,0,4.123,0.006,-0.192,-0.018,0.009,-0.024,0.000,0.000,0.000,0.000,0.0100,0,0,0.00,0.00,0.00,0.0000,0.0000,0.0000
2397,0.1930,1.3746,0.0088,-0.0010,-0.0018,0.0011,-1.37,0.48,-44.53,0,4.128,0.068,-0.022,0.159,0.009,-0.027,0.000,0.000,0.000,0.000,0.0080,0,0,0.00,0.00,0.00,0.0000,0.0000,0.0000
2448,0.1930,1.3746,0.0085,-0.0007,-0.0020,-0.0012,-1.37,0.49,-44.32,0,4.128,-0.197,-0.002,0.042,0.011,-0.024,0.000,0.000,0.000,0.000,0.0090,0,0,0.00,0.00,0.00,0.0000,0.0000,0.0000
2498,0.1930,1.3746,0.0087,-0.0004,-0.0020,0.0010,-1.37,0.49,-44.10,0,4.128,0.225,-0.280,-0.052,0.005,-0.026,0.000,0.000,0.000,0.000,0.0090,-9,0,0.00,0.00,0.00,0.0000,0.0000,0.0000
2549,0.1912,1.3727,0.0089,-0.0100,-0.0114,0.0012,-1.36,0.49,-43.89,0,4.123,0.049,0.021,0.091,0.010,-0.028,0.000,0.000,0.000,0.000,0.0060,-2,0,0.00,0.00,0.00,0.0000,0.0000,0.0000
2600,0.1915,1.3730,0.0077,-0.0082,-0.0093,-0.0055,-1.31,0.49,-43.67,0,4.133,0.115,-0.217,0.118,0.008,-0.026,0.000,0.000,0.000,0.000,0.0090,-9,0,0.00,0.00,0.00,0.0000,0.0000,0.0000
2651,0.1912,1.3727,0.0081,-0.0094,-0.0106,-0.0018,-1.37,0.49,-43.46,0,4.123,0.320,-0.084,-0.278,0.011,-0.025,0.000,0.000,0.000,0.000,0.0070,4,0,0.00,0.00,0.00,0.0000,0.0000,0.0000
2702,0.1929,1.3745,0.0076,-0.0007,-0.0013,-0.0043,-1.33,0.49,-43.25,0,4.128,0.375,-0.228,-0.325,0.007,-0.025,0.000,0.000,0.000,0.000,0.0090,5,0,0.00,0.00,0.00,0.0000,0.0000,0.0000
2753,0.1929,1.3745,0.0081,-0.0005,-0.0012,-0.0011,-1.32,0.49,-43.04,0,4.128,0.179,-0.196,-0.071,0.007,-0.025,0.000,0.000,0.000,0.000,0.0080,2,-1,0.00,0.00,0.00,0.0000,0.0000,0.0000
2804,0.1918,1.3742,0.0080,-0.0060,-0.0025,-0.0009,-1.31,0.50,-42.83,0,4.128,0.284,-0.232,0.009,0.007,-0.026,0.000,0.000,0.000,0.000,0.0090,0,0,0.00,0.00,0.00,0.0000,0.0000,0.0000
2855,0.1928,1.3745,0.0085,-0.0009,-0.0001,0.0018,-1.38,0.49,-42.62,0,4.123,0.293,0.400,0.266,0.009,-0.028,0.000,0.000,0.000,0.000,0.0060,-1,0,0.00,0.00,0.00,0.0000,0.0000,0.0000
2906,0.1928,1.3745,0.0075,-0.0016,-0.0009,-0.0042,-1.38,0.49,-42.41,0,4.128,-0.107,-0.018,-0.038,0.010,-0.025,0.000,0.000,0.000,0.000,0.0070,-8,0,0.00,0.00,0.00,0.0000,0.0000,0.0000
2957,0.1915,1.3731,0.0071,-0.0087,-0.0085,-0.0048,-1.37,0.49,-42.21,0,4.123,-0.335,-0.133,0.376,0.009,-0.025,0.000,0.000,0.000,0.000,0.0060,1,0,0.00,0.00,0.00,0.0000,0.0000,0.0000
3008,0.1927,1.3745,0.0065,-0.0013,-0.0013,-0.0068,-1.35,0.49,-42.00,0,4.138,0.189,-0.086,0.117,0.008,-0.025,0.000,0.000,0.000,0.000,0.0090,4,0,0.00,0.00,0.00,0.0000,0.0000,0.0000
3059,0.1927,1.3745,0.0074,-0.0016,-0.0011,-0.0006,-1.32,0.48,-41.79,0,4.133,0.160,0.007,0.005,0.006,-0.027,0.000,0.000,0.000,0.000,0.0100,-8,0,0.00,0.00,0.00,0.0000,0.0000,0.0000
3110,0.1912,1.3729,0.0085,-0.0094,-0.0090,0.0052,-1.36,0.48,-41.59,0,4.133,0.088,0.090,0.031,0.009,-0.028,0.000,0.000,0.000,0.000,0.0060,-1,0,0.00,0.00,0.00,0.0000,0.0000,0.0000
3161,0.1923,1.3740,0.0076,-0.0038,-0.0036,-0.0009,-1.34,0.48,-41.38,0,4.123,0.090,0.011,0.089,0.008,-0.029,0.000,0.000,0.000,0.000,0.0060,-2,-1,0.00,0.00,0.00,0.0000,0.0000,0.0000
3212,0.1915,1.3735,0.0069,-0.0075,-0.0071,-0.0045,-1.32,0.47,-41.18,0,4.133,0.100,-0.052,0.018,0.007,-0.027,0.000,0.000,0.000,0.000,0.0090,-8,0,0.00,0.00,0.00,0.0000,0.0000,0.0000
3263,0.1914,1.3730,0.0077,-0.0076,-0.0090,0.0008,-1.36,0.47,-40.98,0,3.753,0.102,-0.971,-0.169,0.011,-0.029,0.000,0.000,0.000,0.000,0.0060,0,0,0.00,0.00,0.00,0.0000,0.0000,0.0000
3315,0.1915,1.3731,0.0070,-0.0064,-0.0064,-0.0030,-1.28,0.48,-40.86,0,3.785,-1.264,-1.458,0.363,0.002,-0.033,0.000,0.000,0.000,0.000,0.0090,2,-2,0.00,0.00,0.00,0.0000,0.0000,0.0000
3365,0.1911,1.3739,0.0078,-0.0034,0.0090,0.0025,-1.28,0.51,-40.85,0,3.838,0.222,-1.824,-0.148,0.003,-0.030,0.000,0.000,0.000,0.000,0.0100,9,0,0.00,0.00,0.00,0.0000,0.0000,0.0000
3416,0.1925,1.3747,0.0089,0.0080,0.0217,0.0101,-1.23,0.60,-40.87,0,3.874,0.601,-3.277,-5.034,0.004,-0.019,0.000,0.000,0.000,0.000,0.0080,2,1,0.00,0.00,0.00,0.0000,0.0000,0.0000
3468,0.1935,1.3759,0.0089,0.0156,0.0338,0.0073,-1.31,0.65,-41.08,0,3.880,-1.560,1.270,-8.029,0.011,-0.037,0.000,0.000,0.000,0.000,0.0100,7,-3,0.00,0.00,0.00,0.0000,0.0000,0.0000
3518,0.2004,1.3828,0.0093,0.0477,0.0697,0.0075,-1.55,0.59,-41.33,0,3.896,5.003,-1.852,-1.439,-0.012,-0.025,0.000,0.000,0.000,0.000,0.0070,7,8,0.00,0.00,0.00,0.0000,0.0000,0.0000
3569,0.2012,1.3808,0.0089,0.0456,0.0567,0.0019,-1.33,0.63,-41.50,0,3.896,4.845,-2.730,4.409,0.019,-0.043,0.000,0.000,0.000,0.000,0.0100,8,-9,0.00,0.00,0.00,0.0000,0.0000,0.0000
3620,0.1999,1.3826,0.0096,0.0328,0.0625,0.0048,-1.10,0.53,-41.34,0,3.890,1.209,3.861,5.331,-0.002,-0.029,0.000,0.000,0.000,0.000,0.0090,-7,2,0.00,0.00,0.00,0.0000,0.0000,0.0000
3671,0.1996,1.3801,0.0098,0.0255,0.0456,0.0015,-0.96,0.62,-41.05,0,3.890,-0.096,-0.660,3.872,0.015,-0.031,0.000,0.000,0.000,0.000,0.0070,-35,-7,0.00,0.00,0.00,0.0000,0.0000,0.0000
3722,0.2020,1.3846,0.0089,0.0362,0.0659,-0.0048,-1.23,0.51,-40.88,0,3.890,0.583,-1.342,2.431,0.012,-0.023,0.000,0.000,0.000,0.000,0.0070,-2,4,0.00,0.00,0.00,0.0000,0.0000,0.0000
3773,0.2169,1.4001,0.0061,0.1041,0.1348,-0.0257,-1.54,0.52,-40.88,0,3.874,7.992,11.529,10.938,0.009,-0.024,0.000,0.000,0.000,0.000,0.0080,-32,-9,0.00,0.00,0.00,0.0000,0.0000,0.0000
3824,0.2267,1.4095,0.0050,0.1411,0.1671,-0.0283,-1.95,0.28,-40.62,0,3.880,3.882,1.219,-2.006,0.013,-0.034,0.000,0.000,0.000,0.000,0.0070,-37,-10,0.00,0.00,0.00,0.0000,0.0000,0.0000
3875,0.2468,1.4231,0.0021,0.2164,0.2055,-0.0409,-2.39,-0.02,-40.68,0,3.869,2.067,2.528,2.728,-0.009,-0.054,0.000,0.000,0.000,0.000,0.0060,-24,-5,0.00,0.00,0.00,0.0000,0.0000,0.0000
3926,0.2723,1.4408,-0.0021,0.3041,0.2563,-0.0532,-2.29,-0.27,-40.52,0,3.864,34.139,-5.135,2.123,-0.002,-0.011,0.000,0.000,0.000,0.000,0.0070,-41,0,0.00,0.00,0.00,0.0000,0.0000,0.0000
3977,0.2932,1.4550,-0.0011,0.3462,0.2740,-0.0198,-1.16,-0.38,-40.27,0,3.864,64.733,10.336,-5.705,-0.015,-0.012,0.000,0.000,0.000,0.000,0.0130,-5,2,0.00,0.00,0.00,0.0000,0.0000,0.0000
4028,0.3074,1.4725,0.0055,0.3317,0.2947,0.0433,2.37,-0.30,-40.37,0,3.880,61.967,-5.591,-7.624,-0.006,0.019,0.000,0.000,0.000,0.000,0.0050,10,0,0.00,0.00,0.00,0.0000,0.0000,0.0000
4079,0.3050,1.4743,0.0119,0.2231,0.2085,0.0767,6.66,0.08,-40.56,0,3.869,31.045,-6.888,-14.099,0.002,0.022,0.000,0.000,0.000,0.000,0.0000,21,4,0.00,0.00,0.00,0.0000,0.0000,0.0000
4130,0.2857,1.4625,0.0094,0.0429,0.0549,0.0292,9.80,0.57,-40.90,0,3.864,-40.409,1.610,-7.116,0.009,0.023,0.000,0.000,0.000,0.000,0.0000,110,2,0.00,0.00,0.00,0.0000,0.0000,0.0000
4181,0.2494,1.4303,-0.0070,-0.1849,-0.1750,-0.1066,9.87,0.76,-41.12,0,3.832,-110.057,-11.975,0.176,0.006,0.020,0.000,0.000,0.000,0.000,0.0000,167,3,0.00,0.00,0.00,0.0000,0.0000,0.0000
4232,0.2223,1.4049,-0.0195,-0.3210,-0.3120,-0.1874,5.54,1.23,-41.11,0,3.806,-116.113,-3.266,-5.103,0.022,0.020,0.000,0.000,0.000,0.000,0.0060,69,15,0.00,0.00,0.00,0.0000,0.0000,0.0000
4283,0.1962,1.3697,-0.0226,-0.4156,-0.4327,-0.1380,1.73,0.27,-41.82,0,3.795,-44.693,-31.036,6.456,-0.008,0.019,0.000,0.000,0.000,0.000,0.0080,68,-5,0.00,0.00,0.00,0.0000,0.0000,0.0000
4334,0.1603,1.3361,-0.0231,-0.5055,-0.5158,-0.0304,2.18,-0.33,-42.03,0,3.843,-146.147,-36.460,4.920,0.012,-0.017,0.000,0.000,0.000,0.000,0.0060,83,-10,0.00,0.00,0.00,0.0000,0.0000,0.0000
4385,0.1372,1.3120,0.0016,-0.4751,-0.4832,0.1550,-4.60,0.93,-41.86,0,3.853,-96.049,-10.369,1.233,0.012,-0.012,0.000,0.000,0.000,0.000,0.0000,0,4,0.00,0.00,0.00,0.0000,0.0000,0.0000
4436,0.1167,1.2899,0.0085,-0.4361,-0.4355,0.1750,-9.93,1.11,-41.79,0,3.864,-24.430,-9.154,2.971,0.012,-0.005,0.000,0.000,0.000,0.000,0.0000,-55,5,0.00,0.00,0.00,0.0000,0.0000,0.0000
4487,0.1169,1.2952,0.0177,-0.2642,-0.2167,0.1755,-13.88,1.44,-41.48,0,3.859,60.713,-12.678,5.854,0.005,-0.018,0.000,0.000,0.000,0.000,0.0000,-58,0,0.00,0.00,0.00,0.0000,0.0000,0.0000
4538,0.1429,1.3288,0.0111,-0.0143,0.0813,0.0634,-13.63,1.80,-40.80,0,3.822,154.169,14.051,4.378,0.004,-0.029,0.000,0.000,0.000,0.000,0.0000,-179,16,0.00,0.00,0.00,0.0000,0.0000,0.0000
4589,0.1734,1.3647,-0.0052,0.1896,0.3021,-0.0672,-7.49,1.03,-40.33,0,3.801,134.795,42.273,7.873,0.005,-0.031,0.000,0.000,0.000,0.000,0.0000,-60,39,0.00,0.00,0.00,0.0000,0.0000,0.0000
4640,0.1820,1.3915,-0.0102,0.1739,0.4459,-0.0906,-0.97,0.24,-42.31,0,3.801,-67.778,-84.488,-18.745,0.048,-0.194,0.000,0.000,0.000,0.000,0.0000,0,0,0.00,0.00,0.00,0.0000,0.0000,0.0000
4691,0.1885,1.4340,-0.0228,0.1144,0.6126,-0.1116,-1.36,3.11,-44.63,0,3.769,-59.958,-48.644,-7.648,0.022,-0.011,0.000,0.000,0.000,0.000,0.0000,-52,106,0.00,0.00,0.00,0.0000,0.0000,0.0000
4742,0.1834,1.4722,-0.0265,0.0108,0.7122,-0.0495,-4.20,6.70,-46.15,0,3.790,176.168,124.667,0.147,0.006,-0.015,0.000,0.000,0.000,0.000,0.0000,-37,58,0.00,0.00,0.00,0.0000,0.0000,0.0000
4793,0.1775,1.5101,-0.0155,-0.0697,0.7894,0.1069,4.07,1.49,-47.18,0,3.801,173.927,202.415,-4.978,0.005,-0.026,0.000,0.000,0.000,0.000,0.0000,-63,57,0.00,0.00,0.00,0.0000,0.0000,0.0000
4844,0.1662,1.5470,-0.0038,-0.1609,0.7719,0.1876,12.46,-7.50,-45.81,0,3.811,6.488,133.051,-6.813,0.009,-0.031,0.000,0.000,0.000,0.000,0.0070,-15,0,0.00,0.00,0.00,0.0000,0.0000,0.0000
4895,0.1838,1.5869,0.0095,-0.0439,0.6679,0.1889,13.03,-15.50,-45.41,0,3.811,-11.432,-73.097,7.246,0.003,-0.010,0.000,0.000,0.000,0.000,0.0180,-1,-31,0.00,0.00,0.00,0.0000,0.0000,0.0000
4946,0.2119,1.5858,0.0220,0.0827,0.3350,0.1857,12.54,-15.07,-47.34,0,3.811,-13.365,-113.347,31.059,-0.022,-0.024,0.000,0.000,0.000,0.000,0.0180,23,-75,0.00,0.00,0.00,0.0000,0.0000,0.0000
4997,0.2413,1.5530,0.0203,0.1657,-0.0418,0.1148,12.48,-11.38,-48.93,0,3.779,-40.759,-63.513,46.990,-0.009,-0.008,0.000,0.000,0.000,0.000,0.0270,22,-38,0.00,0.00,0.00,0.0000,0.0000,0.0000
5048,0.2678,1.4855,0.0075,0.1866,-0.4543,-0.0035,11.35,-8.86,-47.95,0,3.769,-91.804,-119.863,49.482,-0.003,-0.000,0.000,0.000,0.000,0.000,0.0240,76,-102,0.00,0.00,0.00,0.0000,0.0000,0.0000
5099,0.2786,1.4129,-0.0093,0.1557,-0.7832,-0.1005,8.10,-4.03,-46.69,0,3.743,-160.442,-165.324,47.419,-0.023,0.007,0.000,0.000,0.000,0.000,0.0260,48,-53,0.00,0.00,0.00,0.0000,0.0000,0.0000
5150,0.2780,1.3657,0.0025,0.1147,-0.8895,0.0000,0.45,4.82,-43.82,0,3.764,-107.467,-142.751,26.632,-0.003,0.011,0.000,0.000,0.000,0.000,0.0300,38,-35,0.00,0.00,0.00,0.0000,0.0000,0.0000
5201,0.2761,1.3087,0.0109,0.0552,-0.9324,0.0814,-4.59,11.02,-42.35,0,3.764,-43.272,-15.528,15.523,-0.009,-0.002,0.000,0.000,0.000,0.000,0.0720,27,-19,0.00,0.00,0.00,0.0000,0.0000,0.0000
5253,0.2786,1.2396,0.0369,0.0109,-0.9156,0.2445,-7.05,12.15,-41.41,0,3.806,-67.108,15.382,10.906,-0.005,0.007,0.000,0.000,0.000,0.000,0.0670,17,-3,0.00,0.00,0.00,0.0000,0.0000,0.0000
5303,0.2750,1.2133,0.0665,-0.0184,-0.6978,0.3653,-11.25,12.00,-39.96,0,3.816,-27.011,-2.117,7.863,0.003,0.007,0.000,0.000,0.000,0.000,0.0710,3,3,0.00,0.00,0.00,0.0000,0.0000,0.0000
5355,0.2721,1.2158,0.0869,-0.0182,-0.4104,0.3779,-13.83,12.38,-38.54,0,3.822,60.570,42.925,3.292,-0.002,-0.006,0.000,0.000,0.000,0.000,0.0760,0,12,0.00,0.00,0.00,0.0000,0.0000,0.0000
5405,0.2695,1.2364,0.0934,-0.0246,-0.1216,0.2872,-11.86,11.02,-38.26,0,3.801,91.585,99.000,6.016,0.015,-0.016,0.000,0.000,0.000,0.000,0.0740,-11,42,0.00,0.00,0.00,0.0000,0.0000,0.0000
5456,0.2614,1.2550,0.0926,-0.0796,0.0835,0.1779,-7.46,7.07,-39.59,0,3.774,67.400,101.866,9.440,0.018,-0.017,0.000,0.000,0.000,0.000,0.0710,-11,26,0.00,0.00,0.00,0.0000,0.0000,0.0000
5507,0.2500,1.2833,0.0846,-0.1332,0.2541,0.0719,-4.25,2.61,-40.08,0,3.758,41.001,50.456,15.062,0.030,-0.015,0.000,0.000,0.000,0.000,0.0490,-18,41,0.00,0.00,0.00,0.0000,0.0000,0.0000
5558,0.2385,1.3039,0.0695,-0.1630,0.3276,-0.0222,-2.28,0.33,-40.34,0,3.743,39.681,82.841,16.945,0.008,-0.012,0.000,0.000,0.000,0.000,0.0460,-9,27,0.00,0.00,0.00,0.0000,0.0000,0.0000
5609,0.2246,1.3289,0.0556,-0.1906,0.3874,-0.0670,-0.27,-3.15,-40.11,0,3.711,38.038,59.222,13.954,0.017,-0.023,0.000,0.000,0.000,0.000,0.0460,-14,37,0.00,0.00,0.00,0.0000,0.0000,0.0000
5660,0.2124,1.3497,0.0493,-0.1850,0.3822,-0.0256,1.64,-6.08,-39.68,0,3.716,18.809,39.803,11.392,0.013,-0.025,0.000,0.000,0.000,0.000,0.0520,-2,12,0.00,0.00,0.00,0.0000,0.0000,0.0000
5711,0.2000,1.3695,0.0501,-0.1695,0.3391,0.0509,2.81,-8.12,-39.02,0,3.727,13.738,-0.218,11.052,0.022,-0.016,0.000,0.000,0.000,0.000,0.0610,-3,8,0.00,0.00,0.00,0.0000,0.0000,0.0000
5762,0.1917,1.3798,0.0584,-0.1273,0.2400,0.1462,3.63,-8.45,-38.31,0,3.743,-3.649,11.472,7.275,-0.004,-0.016,0.000,0.000,0.000,0.000,0.0750,0,4,0.00,0.00,0.00,0.0000,0.0000,0.0000
5813,0.1863,1.3817,0.0710,-0.0803,0.1182,0.2308,3.82,-8.92,-37.69,0,3.753,-18.424,-32.853,2.900,0.009,-0.000,0.000,0.000,0.000,0.000,0.0950,3,-4,0.00,0.00,0.00,0.0000,0.0000,0.0000
5865,0.1823,1.3815,0.0894,-0.0378,0.0138,0.3094,3.20,-7.59,-37.41,0,3.769,-17.343,-46.085,2.313,-0.003,-0.006,0.000,0.000,0.000,0.000,0.1050,0,-6,0.00,0.00,0.00,0.0000,0.0000,0.0000
5915,0.1799,1.3743,0.1053,-0.0026,-0.0837,0.3424,2.45,-5.36,-37.25,0,3.769,-23.785,-42.051,-0.180,-0.003,-0.002,0.000,0.000,0.000,0.000,0.1240,5,-6,3.20,-7.59,-37.41,0.1823,1.3815,0.1050
5966,0.1814,1.3659,0.1247,0.0281,-0.1462,0.3724,1.35,-3.32,-37.22,0,3.785,-25.618,-35.535,-2.704,-0.007,-0.003,0.000,0.000,0.000,0.000,0.1400,4,-5,2.02,-9.46,-37.52,0.1895,1.3756,0.0939
6018,0.1838,1.3577,0.1420,0.0467,-0.1738,0.3727,0.25,-1.86,-37.34,0,3.779,-14.355,-32.651,-5.904,-0.005,-0.000,0.000,0.000,0.000,0.000,0.1580,7,-13,-0.91,-4.56,-37.57,0.1818,1.3763,0.0872
6068,0.1878,1.3475,0.1610,0.0629,-0.1874,0.3749,-0.63,-0.29,-37.59,0,3.785,-9.462,-28.858,-7.154,-0.013,0.002,0.000,0.000,0.000,0.000,0.1780,5,-6,-0.76,-1.76,-37.28,0.1732,1.3800,0.0771
6119,0.1921,1.3361,0.1788,0.0716,-0.1925,0.3637,-1.07,1.13,-37.92,0,3.785,-9.745,-19.580,-7.784,-0.007,-0.006,0.000,0.000,0.000,0.000,0.1970,1,-11,-1.40,-3.25,-37.40,0.1686,1.3782,0.0629
6170,0.1956,1.3249,0.1982,0.0687,-0.1861,0.3565,-1.49,2.10,-38.29,0,3.790,-5.632,-10.923,-7.832,-0.006,-0.003,0.000,0.000,0.000,0.000,0.2060,4,-9,-2.28,-3.25,-37.31,0.1605,1.3778,0.0580
6221,0.2005,1.3159,0.2114,0.0687,-0.1663,0.3160,-1.82,2.72,-38.65,0,3.779,-1.099,-5.014,-5.053,-0.006,-0.005,0.000,0.000,0.000,0.000,0.2240,4,-2,-2.10,-3.75,-37.11,0.1580,1.3773,0.0412
6272,0.2074,1.3066,0.2267,0.0749,-0.1464,0.2930,-1.89,3.00,-38.94,0,3.785,6.384,-4.270,-4.757,-0.005,-0.006,0.000,0.000,0.000,0.000,0.2380,0,-6,-2.08,-4.51,-37.05,0.1571,1.3746,0.0235
6323,0.2106,1.2988,0.2396,0.0643,-0.1239,0.2623,-1.64,3.13,-39.13,0,3.779,2.802,-3.951,-3.103,-0.003,-0.005,0.000,0.000,0.000,0.000,0.2480,1,-3,-2.11,-4.60,-36.81,0.1522,1.3737,0.0125
6374,0.2142,1.2919,0.2515,0.0546,-0.1017,0.2335,-1.44,3.33,-39.30,0,3.779,3.052,5.669,-1.098,-0.006,-0.009,0.000,0.000,0.000,0.000,0.2620,1,-1,-1.91,-5.01,-36.68,0.1511,1.3744,-0.0068
6425,0.2172,1.2863,0.2632,0.0429,-0.0795,0.2138,-1.28,3.17,-39.36,0,3.779,4.736,10.280,-0.882,-0.001,-0.008,0.000,0.000,0.000,0.000,0.2730,1,-1,-1.80,-5.23,-36.63,0.1496,1.3762,-0.0196
6476,0.2191,1.2815,0.2741,0.0299,-0.0605,0.1966,-0.99,2.64,-39.47,0,3.779,8.655,8.599,-3.138,-0.003,-0.008,0.000,0.000,0.000,0.000,0.2830,0,0,-1.63,-5.96,-36.79,0.1485,1.3799,-0.0154
6527,0.2208,1.2774,0.2840,0.0204,-0.0461,0.1795,-0.65,2.14,-39.63,0,3.779,3.889,11.579,-2.847,0.004,-0.010,0.000,0.000,0.000,0.000,0.2930,0,0,-1.36,-7.53,-37.19,0.1563,1.3718,-0.0829
6578,0.2215,1.2750,0.2934,0.0101,-0.0328,0.1638,-0.43,1.65,-39.78,0,3.779,0.372,8.732,-2.580,0.005,-0.010,0.000,0.000,0.000,0.000,0.3010,0,0,-1.34,-9.10,-37.57,0.1565,1.3721,-0.1418
6629,0.2174,1.2716,0.3017,-0.0102,-0.0283,0.1469,-0.26,1.16,-39.92,0,3.774,-1.985,8.732,-2.628,0.005,-0.006,0.000,0.000,0.000,0.000,0.3100,0,0,-1.49,-10.68,-37.89,0.1455,1.3839,-0.1910
6680,0.2142,1.2689,0.3097,-0.0226,-0.0249,0.1334,-0.31,0.71,-40.04,0,3.779,-3.343,7.779,-1.011,0.005,-0.009,0.000,0.000,0.000,0.000,0.3140,0,0,-1.71,-11.88,-38.17,0.1210,1.4093,-0.2295
6731,0.2084,1.2638,0.3156,-0.0374,-0.0300,0.1143,-0.37,0.36,-40.14,0,3.774,-3.568,6.711,-0.535,0.001,-0.008,0.000,0.000,0.000,0.000,0.3190,0,0,-1.96,-12.53,-38.30,0.0822,1.4483,-0.2583
6782,0.2046,1.2618,0.3205,-0.0421,-0.0277,0.0944,-0.47,0.02,-40.22,0,3.774,-3.903,6.275,-0.694,0.003,-0.007,0.000,0.000,0.000,0.000,0.3260,0,0,-2.17,-12.54,-38.34,0.0305,1.4990,-0.2764
6833,0.2030,1.2601,0.3257,-0.0379,-0.0255,0.0829,-0.68,-0.29,-40.27,0,3.769,-2.681,2.880,0.574,0.007,-0.011,0.000,0.000,0.000,0.000,0.3280,4,1,-2.34,-11.91,-38.31,-0.0303,1.5573,-0.2835
6884,0.1961,1.2541,0.3291,-0.0447,-0.0341,0.0667,-0.68,-0.37,-40.31,0,3.774,-3.035,1.566,-0.459,0.007,-0.010,0.000,0.000,0.000,0.000,0.3340,0,-1,-1.30,-8.58,-40.13,-0.0705,1.5984,-0.3820
6935,0.1919,1.2507,0.3332,-0.0428,-0.0357,0.0599,-0.83,-0.48,-40.34,0,3.769,-3.334,-0.015,0.512,0.004,-0.007,0.000,0.000,0.000,0.000,0.3360,0,0,-1.21,-1.34,-39.73,-0.0832,1.5864,-0.4546
6986,0.1844,1.2443,0.3362,-0.0477,-0.0432,0.0508,-0.90,-0.47,-40.35,0,3.769,-2.591,-0.892,-0.463,0.003,-0.012,0.000,0.000,0.000,0.000,0.3360,0,-1,-1.51,-1.17,-39.63,-0.0511,1.5446,-0.5965
7037,0.1851,1.2423,0.3376,-0.0338,-0.0398,0.0373,-1.04,-0.49,-40.36,0,3.764,-2.036,-0.209,-1.808,0.001,-0.011,0.000,0.000,0.000,0.000,0.3360,0,0,-1.84,-2.44,-39.60,0.0194,1.4699,-0.6902
7089,0.1871,1.2399,0.3380,-0.0176,-0.0367,0.0236,-1.19,-0.49,-40.44,0,3.764,0.437,-4.463,-0.863,0.003,-0.007,0.000,0.000,0.000,0.000,0.3350,0,-1,-2.27,-3.92,-39.85,0.1030,1.3808,-0.7060
7139,0.1886,1.2364,0.3373,-0.0038,-0.0353,0.0094,-1.16,-0.35,-40.50,0,3.758,5.850,-2.947,-1.784,0.003,-0.011,0.000,0.000,0.000,0.000,0.3360,0,0,-2.43,-5.35,-39.64,0.1793,1.3038,-0.6440
7190,0.1911,1.2328,0.3370,0.0093,-0.0339,0.0024,-0.95,-0.22,-40.57,0,3.758,2.754,-4.951,-2.561,0.001,-0.014,0.000,0.000,0.000,0.000,0.3380,0,-2,-2.39,-6.69,-39.72,0.2455,1.2347,-0.5431
7241,0.1898,1.2284,0.3375,0.0118,-0.0343,0.0044,-0.76,0.02,-40.67,0,3.753,3.464,-5.667,-3.658,0.001,-0.011,0.000,0.000,0.000,0.000,0.3370,0,-2,-2.40,-7.49,-39.52,0.2852,1.1924,-0.4328
7292,0.1997,1.2321,0.3374,0.0328,-0.0189,0.0045,-0.69,0.28,-40.79,0,3.758,9.174,-4.829,-3.512,0.001,-0.012,0.000,0.000,0.000,0.000,0.3390,0,0,-2.32,-8.28,-39.49,0.3176,1.1602,-0.3301
7343,0.2027,1.2270,0.3384,0.0367,-0.0209,0.0120,-0.33,0.51,-40.98,0,3.758,6.227,-1.229,-3.718,0.001,-0.011,0.000,0.000,0.000,0.000,0.3410,-11,-4,-1.92,-9.04,-39.56,0.3444,1.1351,-0.2469
7394,0.2045,1.2261,0.3400,0.0347,-0.0162,0.0206,-0.14,0.57,-41.15,0,3.758,3.610,-2.084,-3.172,0.004,-0.009,0.000,0.000,0.000,0.000,0.3440,4,2,-1.52,-9.03,-39.68,0.3517,1.1326,-0.2008
7445,0.2225,1.2338,0.3425,0.0602,0.0024,0.0309,0.07,0.70,-41.31,0,3.758,7.890,-1.617,-2.258,0.003,-0.014,0.000,0.000,0.000,0.000,0.3430,-1,0,-1.49,-8.96,-39.17,0.3545,1.1198,-0.1876
7496,0.2219,1.2334,0.3437,0.0492,0.0046,0.0307,0.40,0.78,-41.44,0,3.764,4.498,1.128,-1.653,-0.000,-0.013,0.000,0.000,0.000,0.000,0.3470,0,0,-1.06,-9.10,-39.15,0.3664,1.1111,-0.2455
7547,0.2213,1.2343,0.3462,0.0363,0.0072,0.0350,0.67,0.76,-41.53,0,3.758,0.552,3.401,-0.799,0.004,-0.011,0.000,0.000,0.000,0.000,0.3460,-1,0,-0.81,-9.08,-39.07,0.3749,1.1065,-0.2878
7598,0.2320,1.2410,0.3472,0.0439,0.0182,0.0299,0.60,0.62,-41.57,0,3.758,1.958,3.749,-0.480,0.003,-0.008,0.000,0.000,0.000,0.000,0.3470,-1,0,-0.81,-8.78,-38.92,0.3740,1.1076,-0.3030
7650,0.2384,1.2444,0.3480,0.0443,0.0220,0.0249,0.63,0.43,-41.60,0,3.753,5.866,1.080,0.322,0.004,-0.014,0.000,0.000,0.000,0.000,0.3450,0,0,-0.71,-8.71,-38.63,0.3821,1.1052,-0.2968
7700,0.2356,1.2473,0.3475,0.0293,0.0231,0.0143,0.97,0.38,-41.57,0,3.753,1.559,1.977,1.253,0.001,-0.010,0.000,0.000,0.000,0.000,0.3500,0,1,-0.41,-8.91,-38.23,0.3931,1.1015,-0.2689
7751,0.2352,1.2486,0.3490,0.0186,0.0191,0.0171,1.05,0.29,-41.51,0,3.753,-3.109,4.452,1.527,0.005,-0.011,0.000,0.000,0.000,0.000,0.3490,0,0,-0.40,-8.68,-38.06,0.3858,1.1072,-0.2466
7802,0.2348,1.2499,0.3496,0.0094,0.0147,0.0149,0.91,0.08,-41.44,0,3.758,-1.696,5.034,2.127,0.001,-0.004,0.000,0.000,0.000,0.000,0.3490,0,1,-0.63,-8.34,-37.89,0.3842,1.1101,-0.2214
7853,0.2317,1.2510,0.3498,-0.0016,0.0100,0.0128,0.84,-0.11,-41.33,0,3.753,-4.133,1.654,2.402,0.006,-0.009,0.000,0.000,0.000,0.000,0.3510,0,0,-0.63,-8.20,-37.73,0.4018,1.1084,-0.2130
7904,0.2301,1.2531,0.3508,-0.0075,0.0069,0.0147,0.67,-0.22,-41.22,0,3.753,-5.387,2.180,2.603,0.001,-0.005,0.000,0.000,0.000,0.000,0.3530,4,1,-0.70,-8.67,-37.23,0.4315,1.0961,-0.2274
7956,0.2100,1.2451,0.3522,-0.0414,-0.0117,0.0190,0.62,-0.24,-41.10,0,3.753,-9.320,3.212,2.336,0.002,-0.008,0.000,0.000,0.000,0.000,0.3510,0,0,-1.12,-8.53,-36.85,0.4208,1.0907,-0.2937
8008,0.2050,1.2424,0.3523,-0.0470,-0.0196,0.0144,0.16,-0.40,-40.98,0,3.753,-11.654,3.580,3.146,0.001,-0.006,0.000,0.000,0.000,0.000,0.3530,9,3,-1.70,-7.87,-37.08,0.4000,1.0977,-0.3766
8059,0.2044,1.2411,0.3531,-0.0418,-0.0228,0.0155,-0.23,-0.58,-40.85,0,3.748,-5.910,0.543,1.438,0.005,-0.005,0.000,0.000,0.000,0.000,0.3560,1,0,-2.23,-7.43,-37.56,0.4040,1.0990,-0.4317
8109,0.1878,1.2287,0.3549,-0.0580,-0.0410,0.0205,-0.62,-0.63,-40.77,0,3.753,-9.649,-1.104,1.230,0.002,-0.009,0.000,0.000,0.000,0.000,0.3550,8,4,-2.44,-7.62,-38.02,0.4255,1.0843,-0.4623
8160,0.1954,1.2287,0.3556,-0.0339,-0.0367,0.0196,-0.99,-0.56,-40.68,0,3.753,-3.785,-3.500,0.913,0.002,-0.010,0.000,0.000,0.000,0.000,0.3580,0,-1,-3.05,-7.70,-38.18,0.4239,1.0693,-0.4563
8211,0.1766,1.2194,0.3573,-0.0499,-0.0441,0.0232,-1.22,-0.48,-40.63,0,3.753,-3.020,-0.955,-0.954,0.005,-0.009,0.000,0.000,0.000,0.000,0.3610,0,-1,-3.14,-8.02,-38.58,0.4325,1.0639,-0.4131
8262,0.1829,1.2196,0.3594,-0.0294,-0.0370,0.0286,-1.44,-0.40,-40.64,0,3.753,1.946,-2.822,-1.165,0.001,-0.010,0.000,0.000,0.000,0.000,0.3640,0,-1,-3.27,-8.15,-38.92,0.4320,1.0567,-0.3512
8313,0.1844,1.2179,0.3621,-0.0149,-0.0298,0.0348,-1.39,-0.23,-40.67,0,3.758,6.061,-4.740,-1.027,-0.001,-0.009,0.000,0.000,0.000,0.000,0.3600,0,-2,-3.22,-8.32,-39.05,0.4257,1.0489,-0.2874
8364,0.1932,1.2209,0.3622,0.0085,-0.0156,0.0231,-1.20,-0.05,-40.73,0,3.753,4.122,-4.122,-1.118,0.002,-0.013,0.000,0.000,0.000,0.000,0.3620,0,0,-2.98,-8.56,-39.06,0.4197,1.0423,-0.2329
8415,0.2072,1.2232,0.3628,0.0362,-0.0035,0.0163,-0.99,0.13,-40.80,0,3.753,11.969,-3.241,-2.173,0.007,-0.010,0.000,0.000,0.000,0.000,0.3640,-9,-3,-2.83,-8.82,-39.19,0.4187,1.0327,-0.1887
8466,0.2069,1.2239,0.3637,0.0374,0.0047,0.0127,-0.56,0.29,-40.90,0,3.748,8.314,-5.222,-2.232,0.001,-0.010,0.000,0.000,0.000,0.000,0.3600,0,0,-2.26,-9.05,-39.35,0.4196,1.0240,-0.1565
8517,0.2212,1.2310,0.3625,0.0570,0.0198,-0.0001,-0.08,0.51,-41.01,0,3.748,11.669,-1.657,-1.905,0.001,-0.011,0.000,0.000,0.000,0.000,0.3570,0,0,-1.88,-9.38,-39.48,0.4217,1.0168,-0.1374
8568,0.2379,1.2402,0.3601,0.0761,0.0361,-0.0159,0.35,0.58,-41.13,0,3.743,8.634,-1.467,-2.047,0.003,-0.014,0.000,0.000,0.000,0.000,0.3600,0,0,-1.31,-9.52,-39.55,0.4242,1.0116,-0.1290
8619,0.2367,1.2410,0.3595,0.0626,0.0353,-0.0154,0.85,0.63,-41.23,0,3.743,6.200,-1.036,-1.746,0.005,-0.012,0.000,0.000,0.000,0.000,0.3610,0,0,-0.89,-9.64,-39.58,0.4269,1.0085,-0.1268
8671,0.2563,1.2516,0.3597,0.0805,0.0475,-0.0086,1.07,0.63,-41.34,0,3.743,6.064,0.126,-2.407,0.004,-0.011,0.000,0.000,0.000,0.000,0.3590,0,1,-0.59,-9.73,-39.54,0.4295,1.0070,-0.1325
8721,0.2568,1.2541,0.3592,0.0651,0.0447,-0.0064,1.40,0.66,-41.44,0,3.748,5.037,0.445,-1.644,0.005,-0.010,0.000,0.000,0.000,0.000,0.3570,-5,-2,-0.28,-9.76,-39.51,0.4316,1.0076,-0.1361
8772,0.2580,1.2582,0.3581,0.0504,0.0427,-0.0085,1.54,0.62,-41.51,0,3.737,-1.203,3.437,-1.494,0.006,-0.013,0.000,0.000,0.000,0.000,0.3570,0,0,-0.04,-9.76,-39.41,0.4337,1.0091,-0.1467
8823,0.2713,1.2644,0.3574,0.0551,0.0429,-0.0078,1.49,0.43,-41.60,0,3.743,1.418,2.535,-1.346,0.003,-0.005,0.000,0.000,0.000,0.000,0.3600,0,0,-0.10,-9.59,-39.29,0.4353,1.0113,-0.1581
8875,0.2706,1.2671,0.3583,0.0385,0.0370,0.0024,1.57,0.32,-41.66,0,3.743,-2.885,2.776,-0.937,0.003,-0.011,0.000,0.000,0.000,0.000,0.3600,0,0,-0.03,-9.46,-39.16,0.4367,1.0138,-0.1714
8926,0.2722,1.2688,0.3592,0.0274,0.0287,0.0078,1.51,0.25,-41.72,0,3.743,-6.136,1.286,-0.954,0.004,-0.009,0.000,0.000,0.000,0.000,0.3600,0,0,-0.17,-9.31,-39.03,0.4376,1.0163,-0.1803
8976,0.2733,1.2700,0.3598,0.0172,0.0204,0.0103,1.24,0.17,-41.77,0,3.743,-5.347,1.869,-0.954,0.004,-0.008,0.000,0.000,0.000,0.000,0.3590,0,0,-0.48,-9.23,-38.92,0.4383,1.0181,-0.1857
9028,0.2578,1.2612,0.3598,-0.0178,-0.0025,0.0086,1.11,0.10,-41.83,0,3.743,-8.870,3.897,-1.073,0.003,-0.003,0.000,0.000,0.000,0.000,0.3610,0,0,-0.73,-9.12,-38.84,0.4390,1.0184,-0.1982
9078,0.2583,1.2597,0.3606,-0.0220,-0.0110,0.0107,0.72,-0.09,-41.91,0,3.743,-11.755,1.462,-1.648,0.004,-0.006,0.000,0.000,0.000,0.000,0.3610,0,-1,-1.18,-8.89,-38.81,0.4396,1.0178,-0.2013
9129,0.2364,1.2493,0.3611,-0.0591,-0.0317,0.0098,0.25,-0.20,-41.98,0,3.743,-11.789,1.045,-1.593,0.001,-0.009,0.000,0.000,0.000,0.000,0.3640,5,2,-1.75,-8.79,-38.85,0.4402,1.0154,-0.2081
9180,0.2416,1.2448,0.3626,-0.0467,-0.0392,0.0150,-0.29,-0.31,-42.05,0,3.743,-8.955,-0.405,-0.912,0.004,-0.008,0.000,0.000,0.000,0.000,0.3650,1,-1,-2.20,-8.21,-39.60,0.4617,0.9753,-0.2342
9231,0.2302,1.2391,0.3641,-0.0569,-0.0449,0.0171,-0.81,-0.36,-42.09,0,3.743,-6.679,1.391,-0.901,0.004,-0.007,0.000,0.000,0.000,0.000,0.3630,1,0,-2.56,-7.49,-40.63,0.5237,0.8885,-0.3339
9283,0.2207,1.2297,0.3640,-0.0616,-0.0535,0.0090,-1.11,-0.33,-42.13,0,3.743,-6.303,-2.532,-0.911,0.002,-0.007,0.000,0.000,0.000,0.000,0.3620,0,-1,-2.91,-7.86,-41.31,0.5675,0.8348,-0.4989
9334,0.2232,1.2281,0.3634,-0.0446,-0.0470,-0.0006,-1.43,-0.26,-42.20,0,3.743,-2.902,-1.025,0.487,0.006,-0.006,0.000,0.000,0.000,0.000,0.3650,0,-1,-3.26,-8.39,-41.82,0.5908,0.8017,-0.6262
9385,0.2136,1.2228,0.3640,-0.0475,-0.0446,-0.0000,-1.48,-0.18,-42.22,0,3.743,-1.130,-0.316,-0.756,-0.001,-0.008,0.000,0.000,0.000,0.000,0.3640,0,0,-3.49,-8.86,-42.19,0.5979,0.7808,-0.6827
9436,0.2085,1.2181,0.3640,-0.0427,-0.0404,-0.0020,-1.48,-0.12,-42.27,0,3.743,1.489,1.078,-0.845,0.002,-0.009,0.000,0.000,0.000,0.000,0.3650,-9,-3,-3.68,-9.42,-42.80,0.5941,0.7626,-0.6569
9487,0.2097,1.2166,0.3643,-0.0285,-0.0315,-0.0016,-1.59,-0.22,-42.32,0,3.737,4.805,-2.561,-2.945,0.004,-0.007,0.000,0.000,0.000,0.000,0.3650,0,0,-3.50,-9.40,-42.48,0.5764,0.7960,-0.5767
9538,0.2232,1.2228,0.3645,0.0055,-0.0106,-0.0029,-1.42,-0.14,-42.41,0,3.737,9.147,-1.718,-1.470,0.003,-0.013,0.000,0.000,0.000,0.000,0.3640,0,0,-3.37,-9.74,-42.47,0.5575,0.8004,-0.4638
9589,0.2428,1.2319,0.3641,0.0470,0.0135,-0.0069,-1.09,-0.02,-42.51,0,3.737,13.287,-4.652,-1.224,0.001,-0.010,0.000,0.000,0.000,0.000,0.3620,0,0,-3.00,-9.98,-42.37,0.5417,0.8050,-0.3519
9640,0.2436,1.2326,0.3630,0.0503,0.0198,-0.0131,-0.41,0.17,-42.61,0,3.737,13.727,-3.135,-0.766,0.003,-0.012,0.000,0.000,0.000,0.000,0.3590,-1,0,-2.40,-10.32,-42.23,0.5295,0.8097,-0.2575
9691,0.2636,1.2431,0.3608,0.0812,0.0393,-0.0222,0.12,0.28,-42.68,0,3.727,14.337,-5.200,-1.583,0.005,-0.013,0.000,0.000,0.000,0.000,0.3600,0,0,-1.95,-10.29,-41.00,0.5161,0.8206,-0.1965
9742,0.2760,1.2494,0.3597,0.0935,0.0476,-0.0227,0.76,0.41,-42.75,0,3.732,8.310,-0.010,-0.724,0.002,-0.010,0.000,0.000,0.000,0.000,0.3540,-10,-3,-1.49,-10.35,-39.70,0.5197,0.8293,-0.1531
9793,0.2775,1.2520,0.3566,0.0816,0.0459,-0.0329,1.16,0.49,-42.81,0,3.727,6.995,-1.192,-0.804,0.004,-0.011,0.000,0.000,0.000,0.000,0.3550,0,0,-1.26,-10.23,-38.68,0.5393,0.8365,-0.1246
9844,0.2943,1.2624,0.3548,0.0928,0.0548,-0.0325,1.55,0.55,-42.88,0,3.732,7.236,0.201,-0.813,0.003,-0.012,0.000,0.000,0.000,0.000,0.3570,-1,1,-1.03,-10.22,-37.91,0.5697,0.8436,-0.1077
9895,0.2931,1.2635,0.3549,0.0700,0.0455,-0.0203,1.97,0.63,-42.93,0,3.727,-1.702,0.639,-0.454,-0.000,-0.010,0.000,0.000,0.000,0.000,0.3530,2,1,-0.74,-10.18,-37.34,0.6075,0.8512,-0.0999
9946,0.3118,1.2730,0.3535,0.0823,0.0497,-0.0194,1.84,0.49,-42.96,0,3.732,-1.839,0.509,0.352,0.001,-0.010,0.000,0.000,0.000,0.000,0.3550,0,0,-0.86,-10.16,-36.90,0.6495,0.8593,-0.1012
9997,0.3111,1.2741,0.3537,0.0609,0.0393,-0.0097,1.77,0.51,-42.98,0,3.727,-1.000,1.875,0.910,0.004,-0.009,0.000,0.000,0.000,0.000,0.3520,0,1,-0.96,-10.16,-36.57,0.6935,0.8678,-0.1073
10048,0.3139,1.2759,0.3527,0.0474,0.0312,-0.0098,1.74,0.44,-42.95,0,3.732,-5.504,2.564,0.731,0.003,-0.011,0.000,0.000,0.000,0.000,0.3560,0,0,-0.99,-10.11,-36.33,0.7372,0.8763,-0.1180
10099,0.3140,1.2778,0.3539,0.0313,0.0237,0.0008,1.50,0.34,-42.89,0,3.732,-8.495,3.481,2.465,0.001,-0.009,0.000,0.000,0.000,0.000,0.3550,0,0,-1.22,-10.03,-36.21,0.7793,0.8844,-0.1296
10150,0.2996,1.2722,0.3544,-0.0070,0.0049,0.0047,1.26,0.30,-42.80,0,3.732,-12.763,4.159,2.074,0.005,-0.010,0.000,0.000,0.000,0.000,0.3520,0,1,-1.61,-9.91,-36.10,0.8182,0.8915,-0.1426
10201,0.2785,1.2629,0.3535,-0.0528,-0.0180,-0.0009,0.87,0.15,-42.68,0,3.727,-13.050,5.721,1.478,0.004,-0.009,0.000,0.000,0.000,0.000,0.3530,0,0,-2.19,-9.76,-36.12,0.8530,0.8968,-0.1568
10252,0.2818,1.2644,0.3533,-0.0479,-0.0185,-0.0028,0.13,-0.18,-42.56,0,3.732,-15.320,4.982,1.721,0.005,-0.005,0.000,0.000,0.000,0.000,0.3510,0,0,-2.78,-9.53,-36.28,0.8829,0.8998,-0.1700
10303,0.2650,1.2552,0.3522,-0.0728,-0.0346,-0.0083,-0.43,-0.34,-42.46,0,3.727,-11.108,2.694,2.944,0.004,-0.006,0.000,0.000,0.000,0.000,0.3560,1,-1,-3.49,-9.34,-36.53,0.9077,0.8999,-0.1829
10354,0.2672,1.2543,0.3535,-0.0576,-0.0324,-0.0006,-1.00,-0.52,-42.36,0,3.732,-5.341,0.578,2.031,0.006,-0.007,0.000,0.000,0.000,0.000,0.3500,0,0,-4.00,-9.26,-36.82,0.9275,0.8969,-0.1929
10405,0.2486,1.2442,0.3519,-0.0770,-0.0442,-0.0085,-1.21,-0.53,-42.26,0,3.727,-5.186,-1.550,2.209,0.002,-0.009,0.000,0.000,0.000,0.000,0.3520,1,0,-4.22,-9.28,-37.23,0.9431,0.8907,-0.2036
10456,0.2519,1.2430,0.3517,-0.0545,-0.0378,-0.0086,-1.46,-0.55,-42.20,0,3.727,-2.505,-0.632,0.960,0.006,-0.009,0.000,0.000,0.000,0.000,0.3540,-2,-1,-4.00,-9.35,-38.83,0.9305,0.8366,-0.2444
10507,0.2497,1.2403,0.3524,-0.0421,-0.0332,-0.0025,-1.72,-0.57,-42.12,0,3.727,2.671,-6.381,2.115,0.005,-0.010,0.000,0.000,0.000,0.000,0.3520,0,-1,-3.43,-9.30,-40.81,0.8746,0.7296,-0.3629
10558,0.2550,1.2409,0.3522,-0.0168,-0.0220,-0.0035,-1.57,-0.35,-42.04,0,3.732,5.019,-3.078,1.604,0.002,-0.013,0.000,0.000,0.000,0.000,0.3530,0,0,-3.62,-9.61,-40.35,0.8500,0.6752,-0.5226
10609,0.2555,1.2383,0.3524,-0.0041,-0.0169,-0.0020,-1.32,-0.16,-42.00,0,3.727,6.020,-3.409,0.298,0.005,-0.015,0.000,0.000,0.000,0.000,0.3490,0,0,-3.73,-9.92,-40.25,0.8249,0.6148,-0.6389
10660,0.2714,1.2453,0.3509,0.0320,0.0036,-0.0100,-1.10,-0.12,-41.98,0,3.727,13.880,-7.017,-0.122,0.005,-0.012,0.000,0.000,0.000,0.000,0.3510,0,-2,-3.89,-10.32,-40.12,0.7906,0.5630,-0.6813
10711,0.2715,1.2457,0.3506,0.0349,0.0096,-0.0086,-0.49,0.13,-41.98,0,3.721,9.610,-4.690,-0.441,0.001,-0.014,0.000,0.000,0.000,0.000,0.3470,0,0,-3.51,-10.40,-38.86,0.7508,0.5836,-0.6509
10762,0.2930,1.2523,0.3488,0.0711,0.0241,-0.0166,-0.15,0.28,-41.98,0,3.727,11.154,-1.999,0.149,0.004,-0.012,0.000,0.000,0.000,0.000,0.3470,0,0,-3.29,-10.78,-38.77,0.7283,0.5702,-0.5627
10813,0.2926,1.2533,0.3475,0.0627,0.0257,-0.0192,0.34,0.44,-41.97,0,3.721,9.583,-4.969,1.752,0.004,-0.011,0.000,0.000,0.000,0.000,0.3460,0,0,-2.94,-11.01,-38.61,0.7129,0.5648,-0.4528
10864,0.3058,1.2611,0.3462,0.0748,0.0372,-0.0193,0.78,0.66,-41.93,0,3.721,10.686,-0.909,0.106,0.004,-0.014,0.000,0.000,0.000,0.000,0.3480,-10,-2,-2.63,-11.36,-38.30,0.7042,0.5662,-0.3477
10915,0.3077,1.2623,0.3464,0.0625,0.0344,-0.0116,1.11,0.74,-41.89,0,3.721,3.011,1.448,1.259,0.005,-0.009,0.000,0.000,0.000,0.000,0.3440,0,0,-2.25,-11.28,-37.54,0.6963,0.5872,-0.2612
10966,0.3241,1.2736,0.3450,0.0738,0.0474,-0.0142,1.35,0.70,-41.85,0,3.721,4.988,-1.096,1.398,0.004,-0.011,0.000,0.000,0.000,0.000,0.3470,0,0,-2.24,-11.19,-36.91,0.7026,0.5972,-0.1958
11017,0.3274,1.2769,0.3455,0.0610,0.0441,-0.0058,1.64,0.74,-41.78,0,3.721,2.695,1.020,1.234,0.001,-0.011,0.000,0.000,0.000,0.000,0.3460,-4,-2,-2.10,-11.26,-36.39,0.7144,0.6063,-0.1497
11069,0.3257,1.2802,0.3455,0.0388,0.0399,-0.0029,1.75,0.71,-41.72,0,3.721,-3.043,4.850,0.564,0.003,-0.012,0.000,0.000,0.000,0.000,0.3440,0,0,-2.03,-11.22,-35.99,0.7291,0.6148,-0.1236
11120,0.3397,1.2879,0.3448,0.0460,0.0430,-0.0046,1.51,0.53,-41.67,0,3.721,0.856,1.996,1.410,0.002,-0.011,0.000,0.000,0.000,0.000,0.3410,7,4,-2.22,-10.99,-35.71,0.7443,0.6237,-0.1092
11170,0.3456,1.2915,0.3430,0.0413,0.0391,-0.0116,1.62,0.47,-41.61,0,3.721,-2.041,0.904,1.383,0.002,-0.012,0.000,0.000,0.000,0.000,0.3440,0,0,-2.21,-10.91,-35.46,0.7586,0.6328,-0.1043
11221,0.3326,1.2874,0.3431,0.0041,0.0214,-0.0079,1.53,0.40,-41.54,0,3.716,-10.561,5.819,0.845,0.002,-0.007,0.000,0.000,0.000,0.000,0.3420,0,0,-2.32,-10.89,-35.27,0.7721,0.6418,-0.1093
11272,0.3330,1.2860,0.3424,-0.0055,0.0100,-0.0075,1.07,0.15,-41.46,0,3.721,-7.925,2.964,2.223,0.004,-0.005,0.000,0.000,0.000,0.000,0.3420,0,0,-2.85,-10.61,-35.17,0.7838,0.6507,-0.1198
11324,0.3131,1.2763,0.3420,-0.0462,-0.0133,-0.0046,0.79,0.03,-41.37,0,3.716,-15.165,4.829,2.605,0.003,-0.004,0.000,0.000,0.000,0.000,0.3420,0,-1,-3.25,-10.46,-35.05,0.7937,0.6589,-0.1357
11375,0.3121,1.2751,0.3419,-0.0475,-0.0187,-0.0015,0.20,-0.25,-41.29,0,3.721,-10.623,2.460,1.707,0.005,-0.002,0.000,0.000,0.000,0.000,0.3440,1,0,-4.03,-10.22,-34.98,0.8009,0.6662,-0.1492
11426,0.2992,1.2653,0.3428,-0.0648,-0.0361,0.0053,-0.31,-0.38,-41.20,0,3.721,-10.515,1.918,0.474,0.006,-0.005,0.000,0.000,0.000,0.000,0.3450,9,5,-4.55,-10.09,-35.00,0.8059,0.6719,-0.1626
11477,0.3070,1.2650,0.3440,-0.0404,-0.0330,0.0111,-0.85,-0.47,-41.13,0,3.721,-4.973,-3.142,2.521,0.003,-0.000,0.000,0.000,0.000,0.000,0.3450,0,-2,-5.05,-10.00,-35.14,0.8088,0.6755,-0.1754
11528,0.2874,1.2572,0.3448,-0.0623,-0.0404,0.0131,-1.15,-0.40,-41.03,0,3.721,-4.583,-0.699,1.368,0.005,-0.008,0.000,0.000,0.000,0.000,0.3470,0,0,-5.29,-10.15,-35.19,0.8100,0.6771,-0.1876
11579,0.2934,1.2541,0.3462,-0.0375,-0.0369,0.0165,-1.38,-0.40,-40.94,0,3.727,-3.081,-0.488,2.068,0.006,-0.010,0.000,0.000,0.000,0.000,0.3470,0,0,-5.50,-10.18,-35.34,0.8100,0.6764,-0.1980
11630,0.2934,1.2525,0.3470,-0.0238,-0.0300,0.0151,-1.53,-0.43,-40.86,0,3.721,3.209,-6.423,-0.293,0.004,-0.009,0.000,0.000,0.000,0.000,0.3470,0,0,-5.65,-10.20,-35.46,0.8093,0.6735,-0.2073
11681,0.2934,1.2508,0.3475,-0.0110,-0.0229,0.0101,-1.38,-0.22,-40.85,0,3.721,3.563,0.264,-0.689,0.004,-0.010,0.000,0.000,0.000,0.000,0.3480,0,0,-5.46,-10.52,-35.67,0.8085,0.6686,-0.2154
11732,0.2943,1.2500,0.3479,-0.0004,-0.0153,0.0063,-1.13,-0.10,-40.90,0,3.716,7.635,-4.743,-1.120,0.001,-0.012,0.000,0.000,0.000,0.000,0.3450,0,0,-5.25,-10.51,-35.91,0.8081,0.6623,-0.2219
11783,0.3067,1.2532,0.3468,0.0282,-0.0020,-0.0053,-0.88,0.02,-40.99,0,3.716,4.791,-3.827,-3.416,0.003,-0.011,0.000,0.000,0.000,0.000,0.3420,0,0,-4.84,-10.75,-36.12,0.8085,0.6549,-0.2283
11834,0.3075,1.2520,0.3444,0.0314,0.0013,-0.0190,-0.54,0.21,-41.15,0,3.711,10.202,-4.634,-4.384,0.004,-0.011,0.000,0.000,0.000,0.000,0.3440,0,0,-4.56,-10.95,-36.40,0.8102,0.6469,-0.2344
11885,0.3295,1.2640,0.3436,0.0691,0.0270,-0.0204,-0.22,0.38,-41.32,0,3.716,14.157,-6.376,-4.611,0.004,-0.015,0.000,0.000,0.000,0.000,0.3440,0,0,-4.00,-11.19,-36.68,0.8134,0.6386,-0.2386
11936,0.3303,1.2649,0.3431,0.0620,0.0291,-0.0171,0.43,0.62,-41.52,0,3.711,11.429,2.182,-4.194,0.001,-0.012,0.000,0.000,0.000,0.000,0.3440,0,1,-3.24,-11.52,-36.92,0.8185,0.6304,-0.2418
11988,0.3505,1.2755,0.3429,0.0861,0.0457,-0.0123,0.89,0.64,-41.74,0,3.716,11.810,-2.409,-5.735,0.004,-0.012,0.000,0.000,0.000,0.000,0.3380,0,0,-2.44,-10.82,-36.23,0.9037,0.5547,-0.2684
