time_ms,pos_x,pos_y,pos_z,vel_x,vel_y,vel_z,roll,pitch,yaw,thrust,vbat,gyro_x,gyro_y,gyro_z,acc_x,acc_y,acc_z,rate_roll,rate_pitch,rate_yaw,range_z,flow_dx,flow_dy,mekf_roll,mekf_pitch,mekf_yaw,mekf_x,mekf_y,mekf_z
0,0.5538,0.0110,0.0060,0.0055,-0.0088,-0.0050,-1.56,0.03,-1.33,0,4.123,0.005,-0.017,0.273,0.001,-0.028,1.001,0.000,0.000,0.000,0.0080,1,-4,0.00,0.00,0.00,0.0000,0.0000,0.0000
100,0.5518,0.0126,0.0063,-0.0059,0.0004,-0.0021,-1.57,0.01,-1.33,0,4.133,0.221,0.058,0.033,0.002,-0.028,1.005,0.000,0.000,0.000,0.0080,3,0,0.00,0.00,0.00,0.0000,0.0000,0.0000
201,0.5521,0.0129,0.0071,-0.0050,0.0021,0.0032,-1.56,0.01,-1.32,0,4.128,-0.027,0.120,0.139,0.001,-0.030,1.003,0.000,0.000,0.000,0.0070,0,-5,0.00,0.00,0.00,0.0000,0.0000,0.0000
302,0.5525,0.0120,0.0078,-0.0024,-0.0024,0.0069,-1.56,0.04,-1.32,0,4.128,-0.135,0.131,0.047,-0.001,-0.029,1.001,0.000,0.000,0.000,0.0070,0,1,0.00,0.00,0.00,0.0000,0.0000,0.0000
403,0.5531,0.0118,0.0077,0.0006,-0.0034,0.0062,-1.56,0.01,-1.31,0,4.128,-0.113,-0.074,0.076,0.002,-0.028,1.000,0.000,0.000,0.000,0.0080,4,-3,0.00,0.00,0.00,0.0000,0.0000,0.0000
505,0.5517,0.0129,0.0071,-0.0070,0.0021,0.0024,-1.59,0.03,-1.30,0,4.128,-0.004,0.065,0.028,-0.000,-0.028,1.001,0.000,0.000,0.000,0.0080,-2,6,0.00,0.00,0.00,0.0000,0.0000,0.0000
607,0.5529,0.0127,0.0077,-0.0004,0.0016,0.0048,-1.62,0.02,-1.30,0,4.128,-0.172,-0.306,0.041,-0.000,-0.031,1.003,0.000,0.000,0.000,0.0090,0,-2,0.00,0.00,0.00,0.0000,0.0000,0.0000
707,0.5527,0.0123,0.0087,-0.0018,-0.0018,0.0089,-1.58,0.02,-1.30,0,4.133,-0.113,-0.274,-0.199,-0.001,-0.028,1.002,0.000,0.000,0.000,0.0090,0,0,0.00,0.00,0.00,0.0000,0.0000,0.0000
809,0.5527,0.0123,0.0092,-0.0012,-0.0014,0.0104,-1.57,0.06,-1.29,0,4.128,-0.096,0.155,-0.112,0.002,-0.027,0.999,0.000,0.000,0.000,0.0080,4,-9,0.00,0.00,0.00,0.0000,0.0000,0.0000
909,0.5518,0.0130,0.0086,-0.0064,0.0025,0.0057,-1.56,0.07,-1.28,0,4.128,-0.186,-0.156,-0.056,-0.001,-0.029,0.999,0.000,0.000,0.000,0.0080,8,-5,0.00,0.00,0.00,0.0000,0.0000,0.0000
1010,0.5525,0.0130,0.0086,-0.0021,0.0022,0.0057,-1.52,0.02,-1.28,0,4.128,-0.359,-0.192,-0.076,-0.001,-0.027,1.001,0.000,0.000,0.000,0.0110,-4,-5,0.00,0.00,0.00,0.0000,0.0000,0.0000
1111,0.5525,0.0121,0.0081,-0.0025,-0.0024,0.0026,-1.52,-0.01,-1.28,0,4.128,-0.181,-0.000,-0.136,-0.000,-0.029,1.004,0.000,0.000,0.000,0.0110,0,-1,0.00,0.00,0.00,0.0000,0.0000,0.0000
1213,0.5529,0.0119,0.0099,0.0001,-0.0033,0.0106,-1.56,0.05,-1.27,0,4.128,0.178,-0.160,-0.134,-0.002,-0.028,1.001,0.000,0.000,0.000,0.0070,-3,1,0.00,0.00,0.00,0.0000,0.0000,0.0000
1314,0.5521,0.0123,0.0078,-0.0045,-0.0009,0.0003,-1.59,-0.02,-1.27,0,4.128,-0.267,0.070,-0.052,-0.000,-0.029,1.003,0.000,0.000,0.000,0.0070,5,0,0.00,0.00,0.00,0.0000,0.0000,0.0000
1415,0.5528,0.0130,0.0075,0.0002,0.0020,0.0002,-1.56,0.05,-1.26,0,4.128,-0.278,-0.212,0.094,0.000,-0.028,0.999,0.000,0.000,0.000,0.0080,0,-3,0.00,0.00,0.00,0.0000,0.0000,0.0000
1515,0.5519,0.0124,0.0093,-0.0039,-0.0012,0.0089,-1.57,0.00,-1.26,0,4.128,0.002,-0.105,-0.127,0.001,-0.029,1.000,0.000,0.000,0.000,0.0080,-2,4,0.00,0.00,0.00,0.0000,0.0000,0.0000
1567,0.5528,0.0126,0.0091,0.0010,-0.0008,0.0064,-1.56,0.02,-1.25,0,4.123,-0.097,0.015,0.057,0.002,-0.029,1.001,0.000,0.000,0.000,0.0070,3,9,0.00,0.00,0.00,0.0000,0.0000,0.0000
1618,0.5536,0.0120,0.0099,0.0055,-0.0035,0.0090,-1.55,-0.01,-1.25,0,4.128,-0.372,-0.160,0.118,-0.002,-0.028,1.000,0.000,0.000,0.000,0.0070,4,-3,0.00,0.00,0.00,0.0000,0.0000,0.0000
1670,0.5523,0.0122,0.0089,-0.0021,-0.0017,0.0032,-1.56,0.03,-1.25,0,4.123,-0.134,0.021,0.111,-0.001,-0.028,1.000,0.000,0.000,0.000,0.0090,-4,-5,0.00,0.00,0.00,0.0000,0.0000,0.0000
1722,0.5519,0.0121,0.0071,-0.0047,-0.0015,-0.0044,-1.55,0.04,-1.24,0,4.128,0.021,0.086,-0.121,-0.001,-0.028,1.001,0.000,0.000,0.000,0.0090,6,-4,0.00,0.00,0.00,0.0000,0.0000,0.0000
1772,0.5527,0.0126,0.0079,0.0001,-0.0001,0.0005,-1.54,-0.01,-1.24,0,4.128,-0.091,0.096,0.019,0.000,-0.031,1.000,0.000,0.000,0.000,0.0080,-5,3,0.00,0.00,0.00,0.0000,0.0000,0.0000
1823,0.5527,0.0122,0.0075,-0.0007,-0.0026,-0.0005,-1.52,-0.01,-1.23,0,4.128,-0.151,0.175,-0.171,-0.000,-0.028,0.999,0.000,0.000,0.000,0.0080,3,0,0.00,0.00,0.00,0.0000,0.0000,0.0000
1875,0.5519,0.0129,0.0078,-0.0053,0.0013,0.0018,-1.57,-0.01,-1.23,0,4.128,-0.279,-0.352,0.121,-0.002,-0.029,0.999,0.000,0.000,0.000,0.0070,0,-2,0.00,0.00,0.00,0.0000,0.0000,0.0000
1925,0.5525,0.0129,0.0071,-0.0023,0.0009,-0.0017,-1.56,0.02,-1.23,0,4.128,-0.022,0.318,0.055,0.000,-0.030,1.003,0.000,0.000,0.000,0.0070,3,2,0.00,0.00,0.00,0.0000,0.0000,0.0000
1977,0.5535,0.0131,0.0070,0.0033,0.0020,-0.0004,-1.57,0.08,-1.22,0,4.128,0.020,0.083,0.095,0.000,-0.029,1.000,0.000,0.000,0.000,0.0040,-4,-8,0.00,0.00,0.00,0.0000,0.0000,0.0000
2027,0.5519,0.0121,0.0071,-0.0060,-0.0033,0.0005,-1.57,0.06,-1.21,0,4.133,-0.129,-0.106,0.269,0.000,-0.032,1.000,0.000,0.000,0.000,0.0040,9,0,0.00,0.00,0.00,0.0000,0.0000,0.0000
2079,0.5535,0.0129,0.0056,0.0044,0.0005,-0.0054,-1.55,0.02,-1.21,0,4.128,-0.080,-0.173,-0.100,0.000,-0.029,1.000,0.000,0.000,0.000,0.0050,2,-4,0.00,0.00,0.00,0.0000,0.0000,0.0000
2129,0.5518,0.0127,0.0066,-0.0057,-0.0001,-0.0000,-1.56,-0.01,-1.21,0,4.128,0.004,0.176,0.069,-0.002,-0.029,1.001,0.000,0.000,0.000,0.0050,3,2,0.00,0.00,0.00,0.0000,0.0000,0.0000
2181,0.5524,0.0123,0.0058,-0.0023,-0.0028,-0.0024,-1.53,0.03,-1.21,0,4.128,0.021,0.050,-0.021,0.002,-0.031,1.000,0.000,0.000,0.000,0.0090,-3,1,0.00,0.00,0.00,0.0000,0.0000,0.0000
2232,0.5526,0.0123,0.0064,-0.0012,-0.0027,0.0008,-1.56,-0.01,-1.20,0,4.128,0.069,-0.070,-0.327,-0.004,-0.029,0.998,0.000,0.000,0.000,0.0090,3,1,0.00,0.00,0.00,0.0000,0.0000,0.0000
2282,0.5518,0.0130,0.0078,-0.0061,0.0008,0.0073,-1.58,0.07,-1.20,0,4.128,-0.107,-0.058,-0.114,0.002,-0.031,1.000,0.000,0.000,0.000,0.0060,0,0,0.00,0.00,0.00,0.0000,0.0000,0.0000
2334,0.5518,0.0130,0.0072,-0.0048,0.0007,0.0035,-1.58,0.03,-1.19,0,4.133,-0.227,-0.076,0.315,-0.001,-0.031,1.001,0.000,0.000,0.000,0.0060,0,-2,0.00,0.00,0.00,0.0000,0.0000,0.0000
2385,0.5517,0.0132,0.0068,-0.0047,0.0010,0.0014,-1.55,-0.01,-1.19,0,4.128,-0.277,-0.022,0.059,0.001,-0.026,1.000,0.000,0.000,0.000,0.0070,-2,-1,0.00,0.00,0.00,0.0000,0.0000,0.0000
2436,0.5517,0.0126,0.0070,-0.0045,-0.0022,0.0031,-1.54,0.06,-1.18,0,4.128,0.093,0.058,-0.237,0.001,-0.027,1.001,0.000,0.000,0.000,0.0070,0,0,0.00,0.00,0.00,0.0000,0.0000,0.0000
2486,0.5517,0.0132,0.0072,-0.0042,0.0011,0.0040,-1.58,0.06,-1.18,0,4.128,-0.439,0.041,0.083,-0.001,-0.028,1.001,0.000,0.000,0.000,0.0090,-4,3,0.00,0.00,0.00,0.0000,0.0000,0.0000
2538,0.5534,0.0112,0.0074,0.0047,-0.0095,0.0045,-1.55,0.03,-1.17,0,4.128,-0.052,-0.335,-0.072,0.002,-0.029,1.001,0.000,0.000,0.000,0.0090,-1,-2,0.00,0.00,0.00,0.0000,0.0000,0.0000
2588,0.5519,0.0126,0.0084,-0.0033,-0.0016,0.0088,-1.60,0.07,-1.17,0,4.123,-0.266,0.107,-0.153,-0.001,-0.028,1.002,0.000,0.000,0.000,0.0070,0,0,0.00,0.00,0.00,0.0000,0.0000,0.0000
2639,0.5517,0.0126,0.0082,-0.0039,-0.0016,0.0062,-1.52,-0.02,-1.17,0,4.128,0.074,0.260,-0.055,0.001,-0.027,1.000,0.000,0.000,0.000,0.0070,4,-7,0.00,0.00,0.00,0.0000,0.0000,0.0000
2691,0.5519,0.0126,0.0080,-0.0026,-0.0017,0.0046,-1.54,-0.02,-1.17,0,4.128,-0.053,-0.068,-0.214,-0.000,-0.030,1.002,0.000,0.000,0.000,0.0090,4,-8,0.00,0.00,0.00,0.0000,0.0000,0.0000
2743,0.5517,0.0130,0.0077,-0.0044,0.0005,0.0032,-1.61,0.06,-1.16,0,4.128,-0.215,-0.459,0.093,-0.000,-0.029,1.001,0.000,0.000,0.000,0.0090,0,3,0.00,0.00,0.00,0.0000,0.0000,0.0000
2793,0.5535,0.0111,0.0086,0.0049,-0.0097,0.0071,-1.56,0.08,-1.16,0,4.128,0.071,0.175,-0.408,-0.002,-0.030,1.002,0.000,0.000,0.000,0.0070,8,0,0.00,0.00,0.00,0.0000,0.0000,0.0000
2844,0.5537,0.0130,0.0092,0.0059,0.0007,0.0089,-1.56,0.02,-1.16,0,4.128,-0.163,-0.277,-0.175,-0.002,-0.030,1.000,0.000,0.000,0.000,0.0070,0,7,0.00,0.00,0.00,0.0000,0.0000,0.0000
2895,0.5535,0.0130,0.0085,0.0039,0.0009,0.0045,-1.57,0.00,-1.15,0,4.128,-0.143,-0.011,-0.174,0.000,-0.029,0.998,0.000,0.000,0.000,0.0050,1,-5,0.00,0.00,0.00,0.0000,0.0000,0.0000
2947,0.5523,0.0115,0.0080,-0.0027,-0.0067,0.0018,-1.59,0.08,-1.14,0,4.128,-0.250,-0.050,0.105,0.000,-0.030,1.001,0.000,0.000,0.000,0.0050,5,-1,0.00,0.00,0.00,0.0000,0.0000,0.0000
2998,0.5526,0.0130,0.0066,-0.0010,0.0015,-0.0037,-1.55,0.01,-1.14,0,4.128,0.127,-0.484,-0.048,0.000,-0.028,1.002,0.000,0.000,0.000,0.0060,2,-8,0.00,0.00,0.00,0.0000,0.0000,0.0000
3049,0.5516,0.0126,0.0077,-0.0060,0.0001,0.0026,-1.58,0.06,-1.14,0,4.128,-0.248,-0.133,0.231,0.000,-0.029,1.001,0.000,0.000,0.000,0.0060,0,5,0.00,0.00,0.00,0.0000,0.0000,0.0000
3100,0.5526,0.0130,0.0070,-0.0016,0.0022,-0.0001,-1.61,0.05,-1.13,0,4.128,0.019,-0.341,0.147,0.002,-0.028,1.001,0.000,0.000,0.000,0.0100,-8,8,0.00,0.00,0.00,0.0000,0.0000,0.0000
3152,0.5534,0.0113,0.0071,0.0031,-0.0081,0.0008,-1.58,0.04,-1.13,0,4.128,-0.160,0.018,-0.077,-0.002,-0.027,1.000,0.000,0.000,0.000,0.0100,4,0,0.00,0.00,0.00,0.0000,0.0000,0.0000
3204,0.5525,0.0122,0.0087,-0.0017,-0.0028,0.0079,-1.56,0.04,-1.13,0,4.123,-0.000,-0.036,0.221,-0.000,-0.029,1.002,0.000,0.000,0.000,0.0090,-5,6,0.00,0.00,0.00,0.0000,0.0000,0.0000
3255,0.5529,0.0122,0.0082,0.0006,-0.0023,0.0051,-1.63,0.08,-1.12,0,4.128,-0.157,0.058,0.169,0.000,-0.030,1.002,0.000,0.000,0.000,0.0090,2,2,0.00,0.00,0.00,0.0000,0.0000,0.0000
3305,0.5530,0.0131,0.0089,0.0006,0.0021,0.0082,-1.57,0.07,-1.12,0,4.128,-0.150,-0.283,0.211,0.001,-0.028,1.002,0.000,0.000,0.000,0.0100,-3,-1,0.00,0.00,0.00,0.0000,0.0000,0.0000
3357,0.5523,0.0125,0.0094,-0.0029,-0.0012,0.0096,-1.57,0.06,-1.11,0,4.128,-0.148,-0.370,-0.182,0.001,-0.028,1.002,0.000,0.000,0.000,0.0100,-3,5,0.00,0.00,0.00,0.0000,0.0000,0.0000
3407,0.5527,0.0125,0.0102,-0.0006,-0.0011,0.0122,-1.53,0.01,-1.12,0,4.128,-0.135,-0.177,0.254,-0.001,-0.029,1.002,0.000,0.000,0.000,0.0110,-1,0,0.00,0.00,0.00,0.0000,0.0000,0.0000
3459,0.5527,0.0118,0.0086,-0.0009,-0.0044,0.0033,-1.56,0.01,-1.11,0,4.128,-0.231,-0.136,0.056,0.000,-0.030,1.000,0.000,0.000,0.000,0.0110,8,0,0.00,0.00,0.00,0.0000,0.0000,0.0000
3510,0.5534,0.0132,0.0100,0.0022,0.0034,0.0087,-1.54,0.04,-1.10,0,4.123,0.051,-0.118,0.241,0.002,-0.028,0.998,0.000,0.000,0.000,0.0040,0,-4,0.00,0.00,0.00,0.0000,0.0000,0.0000
3561,0.5516,0.0131,0.0084,-0.0068,0.0034,0.0001,-1.57,0.02,-1.11,0,4.128,-0.153,-0.027,0.059,-0.001,-0.028,1.001,0.000,0.000,0.000,0.0040,4,2,0.00,0.00,0.00,0.0000,0.0000,0.0000
3612,0.5529,0.0122,0.0062,0.0001,-0.0021,-0.0087,-1.54,0.04,-1.10,0,4.128,0.099,-0.072,-0.112,0.001,-0.029,1.000,0.000,0.000,0.000,0.0060,-7,4,0.00,0.00,0.00,0.0000,0.0000,0.0000
3662,0.5535,0.0113,0.0068,0.0039,-0.0068,-0.0038,-1.56,0.01,-1.10,0,4.128,-0.134,0.227,0.199,0.002,-0.026,1.002,0.000,0.000,0.000,0.0060,1,7,0.00,0.00,0.00,0.0000,0.0000,0.0000
3714,0.5533,0.0124,0.0063,0.0023,-0.0000,-0.0043,-1.54,0.01,-1.09,0,4.128,-0.193,-0.125,-0.058,-0.001,-0.029,1.003,0.000,0.000,0.000,0.0060,-2,5,0.00,0.00,0.00,0.0000,0.0000,0.0000
3765,0.5531,0.0127,0.0076,0.0005,0.0007,0.0032,-1.54,0.03,-1.09,0,4.128,-0.058,-0.133,-0.242,-0.001,-0.029,1.002,0.000,0.000,0.000,0.0060,8,-8,0.00,0.00,0.00,0.0000,0.0000,0.0000
3816,0.5516,0.0131,0.0070,-0.0073,0.0022,0.0009,-1.53,0.01,-1.09,0,4.123,-0.017,-0.252,-0.307,-0.000,-0.028,1.002,0.000,0.000,0.000,0.0060,2,0,0.00,0.00,0.00,0.0000,0.0000,0.0000
3866,-0.0003,0.0002,1.3199,-0.0092,0.0013,0.0006,0.03,-0.03,-0.00,0,4.128,-0.037,-0.138,0.067,-0.000,-0.030,1.001,0.000,0.000,0.000,0.0060,4,-8,0.00,0.00,0.00,0.0000,0.0000,0.0000
3917,-0.0002,-0.0004,0.0061,-0.0023,-0.0158,0.0008,0.10,-0.36,-0.01,0,4.128,-0.081,-0.238,-0.034,-0.001,-0.028,1.002,0.000,0.000,0.000,0.0110,8,-6,0.00,0.00,0.00,0.0000,0.0000,0.0000
3968,-0.0004,-0.0006,0.0079,-0.0050,-0.0176,0.0036,-0.23,-0.03,-0.01,0,4.128,-0.169,-0.152,0.090,0.000,-0.028,1.001,0.000,0.000,0.000,0.0110,6,-5,0.00,0.00,0.00,0.0000,0.0000,0.0000
4020,0.0001,-0.0006,0.0096,0.0003,-0.0163,0.0089,-0.54,0.17,-0.01,0,4.128,-0.340,-0.206,-0.132,-0.001,-0.028,0.997,0.000,0.000,0.000,0.0060,0,0,0.00,0.00,0.00,0.0000,0.0000,0.0000
4071,0.0012,-0.0024,0.0093,0.0112,-0.0312,0.0054,-1.05,0.17,-0.01,0,4.128,-0.202,-0.220,0.215,-0.000,-0.029,1.002,0.000,0.000,0.000,0.0060,4,1,0.00,0.00,0.00,0.0000,0.0000,0.0000
4123,0.0008,-0.0005,0.0081,0.0052,-0.0120,0.0001,-0.84,-0.04,-0.01,0,4.128,0.182,-0.181,0.140,-0.002,-0.029,1.000,0.000,0.000,0.000,0.0060,-2,0,0.00,0.00,0.00,0.0000,0.0000,0.0000
4175,0.0005,-0.0013,0.0076,0.0015,-0.0165,-0.0021,-1.20,0.03,-0.01,0,4.128,-0.074,-0.060,0.010,0.001,-0.032,1.001,0.000,0.000,0.000,0.0060,-3,7,0.00,0.00,0.00,0.0000,0.0000,0.0000
4226,0.0013,-0.0016,0.0067,0.0073,-0.0176,-0.0043,-1.27,-0.09,-0.01,0,4.128,-0.028,0.250,-0.108,-0.001,-0.026,1.003,0.000,0.000,0.000,0.0060,-1,0,0.00,0.00,0.00,0.0000,0.0000,0.0000
4277,-0.0008,-0.0001,0.0090,-0.0074,-0.0059,0.0078,-1.41,0.09,-0.02,0,4.128,-0.107,0.119,-0.045,0.000,-0.027,1.002,0.000,0.000,0.000,0.0060,0,-1,0.00,0.00,0.00,0.0000,0.0000,0.0000
4328,0.0005,-0.0010,0.0079,0.0018,-0.0111,0.0027,-1.29,-0.06,-0.01,0,4.128,-0.301,-0.146,-0.053,-0.000,-0.026,1.002,0.000,0.000,0.000,0.0090,-1,0,0.00,0.00,0.00,0.0000,0.0000,0.0000
4379,0.0005,-0.0001,0.0070,0.0004,-0.0041,-0.0007,-1.40,-0.04,-0.01,0,4.128,-0.001,0.083,-0.009,-0.000,-0.029,1.002,0.000,0.000,0.000,0.0090,3,-5,0.00,0.00,0.00,0.0000,0.0000,0.0000
4429,-0.0000,-0.0006,0.0081,-0.0029,-0.0068,0.0045,-1.43,-0.01,-0.01,0,4.123,-0.079,-0.252,-0.273,-0.001,-0.027,1.000,0.000,0.000,0.000,0.0080,-5,5,0.00,0.00,0.00,0.0000,0.0000,0.0000
4480,0.0012,-0.0008,0.0093,0.0041,-0.0075,0.0097,-1.53,0.06,-0.02,0,4.128,-0.171,-0.038,0.032,0.000,-0.029,1.002,0.000,0.000,0.000,0.0080,0,4,0.00,0.00,0.00,0.0000,0.0000,0.0000
4531,0.0002,-0.0009,0.0092,-0.0017,-0.0079,0.0086,-1.46,0.11,-0.02,0,4.128,-0.161,0.016,0.112,-0.001,-0.028,1.000,0.000,0.000,0.000,0.0050,0,-1,0.00,0.00,0.00,0.0000,0.0000,0.0000
4583,-0.0004,0.0002,0.0074,-0.0040,-0.0011,-0.0008,-1.47,0.09,-0.03,0,4.128,-0.095,-0.084,0.093,-0.001,-0.026,1.002,0.000,0.000,0.000,0.0050,9,0,0.00,0.00,0.00,0.0000,0.0000,0.0000
4634,0.0002,0.0005,0.0062,-0.0005,-0.0001,-0.0045,-1.44,0.08,-0.02,0,4.128,-0.348,-0.044,-0.097,-0.001,-0.027,1.000,0.000,0.000,0.000,0.0080,-3,9,0.00,0.00,0.00,0.0000,0.0000,0.0000
4684,0.0016,-0.0006,0.0070,0.0063,-0.0045,0.0003,-1.47,0.03,-0.02,0,4.128,-0.109,0.054,0.078,0.002,-0.029,1.002,0.000,0.000,0.000,0.0080,0,3,0.00,0.00,0.00,0.0000,0.0000,0.0000
4736,-0.0001,0.0006,0.0076,-0.0020,0.0016,0.0040,-1.53,0.07,-0.02,0,4.123,0.029,-0.046,-0.090,-0.002,-0.028,1.002,0.000,0.000,0.000,0.0050,-3,-1,0.00,0.00,0.00,0.0000,0.0000,0.0000
4786,0.0013,-0.0018,0.0070,0.0044,-0.0106,0.0008,-1.49,-0.03,-0.02,0,4.128,-0.237,-0.044,0.100,-0.001,-0.029,1.001,0.000,0.000,0.000,0.0050,-3,3,0.00,0.00,0.00,0.0000,0.0000,0.0000
4837,0.0007,-0.0004,0.0061,0.0006,-0.0031,-0.0022,-1.50,-0.01,-0.02,0,4.128,-0.202,-0.066,-0.081,0.000,-0.029,1.000,0.000,0.000,0.000,0.0090,-5,5,0.00,0.00,0.00,0.0000,0.0000,0.0000
4889,0.0002,-0.0008,0.0071,-0.0021,-0.0054,0.0029,-1.48,0.00,-0.02,0,4.128,-0.053,-0.187,-0.119,0.001,-0.027,1.002,0.000,0.000,0.000,0.0090,2,5,0.00,0.00,0.00,0.0000,0.0000,0.0000
4940,0.0005,0.0004,0.0083,-0.0000,0.0006,0.0083,-1.55,-0.02,-0.02,0,4.128,-0.066,0.102,0.045,0.000,-0.029,1.001,0.000,0.000,0.000,0.0050,-3,2,0.00,0.00,0.00,0.0000,0.0000,0.0000
4991,0.0012,-0.0000,0.0091,0.0038,-0.0021,0.0108,-1.55,0.01,-0.02,0,4.128,-0.167,-0.326,-0.042,0.001,-0.031,1.001,0.000,0.000,0.000,0.0050,5,-1,0.00,0.00,0.00,0.0000,0.0000,0.0000
5042,0.0000,-0.0003,0.0077,-0.0029,-0.0029,0.0035,-1.52,0.02,-0.02,0,3.669,-0.158,-0.375,-0.546,0.001,-0.030,1.001,0.000,0.000,0.000,0.0120,0,3,0.00,0.00,0.00,0.0000,0.0000,0.0000
5094,0.0012,-0.0007,0.0091,0.0030,-0.0021,0.0100,-1.52,-0.01,-0.02,0,3.743,0.270,0.101,1.189,-0.003,-0.029,0.997,0.000,0.000,0.000,0.0120,-3,-1,0.00,0.00,0.00,0.0000,0.0000,0.0000
5145,0.0002,-0.0007,0.0111,-0.0025,0.0099,0.0163,-1.55,0.08,-0.03,0,3.795,-0.038,0.048,-0.184,-0.005,-0.035,0.999,0.000,0.000,0.000,0.0060,-1,5,0.00,0.00,0.00,0.0000,0.0000,0.0000
5195,0.0013,0.0004,0.0102,0.0036,0.0242,0.0088,-1.59,0.08,-0.02,0,3.822,3.196,0.913,-3.381,-0.018,-0.016,0.999,0.000,0.000,0.000,0.0060,-9,0,0.00,0.00,0.00,0.0000,0.0000,0.0000
5246,0.0012,0.0008,0.0085,0.0027,0.0320,-0.0021,-1.60,0.05,-0.10,0,3.827,-1.649,-0.323,-8.016,0.000,-0.027,1.024,0.000,0.000,0.000,0.0090,-5,1,0.00,0.00,0.00,0.0000,0.0000,0.0000
5297,0.0003,0.0064,0.0086,-0.0024,0.0627,0.0017,-1.70,0.15,-0.39,0,3.838,1.014,2.056,-9.095,-0.015,-0.034,0.981,0.000,0.000,0.000,0.0090,-4,0,0.00,0.00,0.00,0.0000,0.0000,0.0000
5349,0.0004,0.0134,0.0085,-0.0023,0.0948,-0.0010,-1.93,0.04,-0.82,0,3.832,0.901,4.754,-28.698,0.005,-0.042,0.976,0.000,0.000,0.000,0.0080,-17,4,0.00,0.00,0.00,0.0000,0.0000,0.0000
5399,0.0025,0.0225,0.0093,0.0080,0.1299,0.0019,-2.10,0.11,-1.98,0,3.838,-2.682,2.819,-8.625,-0.013,-0.027,1.015,0.000,0.000,0.000,0.0080,-30,-10,0.00,0.00,0.00,0.0000,0.0000,0.0000
5450,0.0047,0.0387,0.0065,0.0175,0.1930,-0.0142,-2.53,-0.16,-2.66,0,3.827,6.041,5.375,0.822,-0.019,-0.022,1.017,0.000,0.000,0.000,0.0050,-16,4,0.00,0.00,0.00,0.0000,0.0000,0.0000
5501,0.0114,0.0646,0.0020,0.0467,0.2899,-0.0387,-2.45,-0.52,-2.62,0,3.827,17.878,6.388,13.277,-0.014,-0.020,0.983,0.000,0.000,0.000,0.0050,3,0,0.00,0.00,0.00,0.0000,0.0000,0.0000
5552,0.0107,0.0674,0.0066,0.0352,0.2468,0.0001,-1.39,-0.69,-2.03,0,3.827,-5.455,-2.274,20.073,-0.020,-0.028,1.001,0.000,0.000,0.000,0.0100,0,-4,0.00,0.00,0.00,0.0000,0.0000,0.0000
5603,0.0106,0.0671,0.0093,0.0304,0.1951,0.0123,-1.26,-0.76,-1.18,0,3.822,-11.921,-4.448,14.086,0.011,-0.004,1.011,0.000,0.000,0.000,0.0100,-15,-5,0.00,0.00,0.00,0.0000,0.0000,0.0000
5654,0.0167,0.0897,0.0061,0.0585,0.2805,-0.0153,-2.12,-0.86,-0.53,0,3.806,11.310,7.310,2.548,-0.019,-0.046,1.058,0.000,0.000,0.000,0.0090,-27,-42,0.00,0.00,0.00,0.0000,0.0000,0.0000
5705,0.0329,0.1145,0.0043,0.1276,0.3345,-0.0057,-1.52,-1.26,-0.48,0,3.816,37.383,-10.970,0.044,-0.034,-0.037,1.044,0.000,0.000,0.000,0.0090,-16,-6,0.00,0.00,0.00,0.0000,0.0000,0.0000
5756,0.0527,0.1223,0.0059,0.2088,0.3148,0.0154,0.21,-1.36,-0.52,0,3.811,72.065,9.181,-5.610,-0.002,-0.016,1.064,0.000,0.000,0.000,0.0060,-15,-15,0.00,0.00,0.00,0.0000,0.0000,0.0000
5807,0.0618,0.1362,0.0124,0.2121,0.2981,0.0585,3.77,-1.47,-0.67,0,3.811,56.170,-18.092,-19.441,0.002,0.000,0.994,0.000,0.000,0.000,0.0060,6,-6,0.00,0.00,0.00,0.0000,0.0000,0.0000
5858,0.0702,0.1330,0.0152,0.2124,0.1775,0.0750,7.67,-0.68,-1.44,0,3.785,-2.466,-54.098,-30.377,0.012,0.017,0.960,0.000,0.000,0.000,0.0000,53,-20,0.00,0.00,0.00,0.0000,0.0000,0.0000
5909,0.0744,0.1087,0.0079,0.1878,-0.0354,0.0095,9.29,1.62,-3.08,0,3.753,-76.635,-73.820,-29.368,0.018,0.015,0.967,0.000,0.000,0.000,0.0000,48,-7,0.00,0.00,0.00,0.0000,0.0000,0.0000
5960,0.0781,0.0497,-0.0189,0.1419,-0.3663,-0.1592,7.46,4.99,-5.04,0,3.737,-108.742,-74.914,-17.372,0.017,0.001,1.054,0.000,0.000,0.000,0.0000,118,16,0.00,0.00,0.00,0.0000,0.0000,0.0000
6011,0.0703,0.0244,-0.0212,0.0397,-0.4557,-0.1530,1.89,9.49,-5.29,0,3.748,-47.172,20.622,-19.220,0.034,0.006,1.091,0.000,0.000,0.000,0.0000,89,67,0.00,0.00,0.00,0.0000,0.0000,0.0000
6063,0.0514,0.0113,-0.0167,-0.1400,-0.4213,-0.0738,0.03,10.00,-6.04,0,3.727,-31.060,64.831,-9.122,0.013,-0.003,1.097,0.000,0.000,0.000,0.0000,33,48,0.00,0.00,0.00,0.0000,0.0000,0.0000
6114,0.0051,-0.0173,-0.0500,-0.4260,-0.4763,-0.2265,-0.89,8.33,-6.46,0,3.721,-86.608,104.028,-6.016,0.008,-0.020,1.125,0.000,0.000,0.000,0.0000,45,100,0.00,0.00,0.00,0.0000,0.0000,0.0000
6165,-0.0284,-0.0385,-0.0259,-0.5350,-0.4055,0.0059,-6.43,2.83,-5.80,0,3.758,-42.180,140.577,-2.685,-0.001,-0.009,1.085,0.000,0.000,0.000,0.0030,1,42,0.00,0.00,0.00,0.0000,0.0000,0.0000
6216,-0.0580,-0.0436,-0.0033,-0.5503,-0.2440,0.1712,-9.60,-3.52,-6.45,0,3.764,89.034,95.148,6.220,0.001,-0.019,1.019,0.000,0.000,0.000,0.0030,-32,47,0.00,0.00,0.00,0.0000,0.0000,0.0000
6267,-0.0900,-0.0381,0.0028,-0.5450,-0.0811,0.1702,-6.81,-8.26,-6.82,0,3.764,45.280,18.703,9.039,0.010,-0.030,0.991,0.000,0.000,0.000,0.0230,-12,6,0.00,0.00,0.00,0.0000,0.0000,0.0000
6318,-0.1110,-0.0200,0.0140,-0.4424,0.0813,0.1922,-4.85,-9.93,-6.61,0,3.764,22.855,-31.226,7.294,0.005,-0.018,0.989,0.000,0.000,0.000,0.0230,-15,-2,0.00,0.00,0.00,0.0000,0.0000,0.0000
6369,-0.1160,-0.0013,0.0275,-0.2692,0.1809,0.2116,-4.06,-9.44,-6.06,0,3.758,80.158,-34.679,13.105,0.003,-0.019,0.971,0.000,0.000,0.000,0.0390,-37,-14,0.00,0.00,0.00,0.0000,0.0000,0.0000
6419,-0.1080,0.0190,0.0362,-0.0886,0.2513,0.2002,-0.59,-8.40,-5.27,0,3.753,84.503,-32.237,10.067,-0.001,-0.028,0.956,0.000,0.000,0.000,0.0390,-17,-13,0.00,0.00,0.00,0.0000,0.0000,0.0000
6470,-0.0904,0.0413,0.0417,0.0811,0.2905,0.1627,3.58,-7.51,-4.74,0,3.737,29.891,-55.427,13.858,0.003,-0.026,0.967,0.000,0.000,0.000,0.0490,-20,-39,0.00,0.00,0.00,0.0000,0.0000,0.0000
6522,-0.0681,0.0553,0.0440,0.2206,0.2547,0.1192,5.51,-5.35,-4.14,0,3.727,17.673,-71.900,21.703,-0.013,-0.014,1.000,0.000,0.000,0.000,0.0490,-8,-20,0.00,0.00,0.00,0.0000,0.0000,0.0000
6572,-0.0406,0.0643,0.0468,0.3355,0.1891,0.0967,6.69,-2.14,-3.40,0,3.711,18.232,-82.114,29.020,-0.020,-0.022,0.974,0.000,0.000,0.000,0.0550,0,-21,0.00,0.00,0.00,0.0000,0.0000,0.0000
6623,-0.0183,0.0670,0.0494,0.3744,0.1050,0.0798,7.91,1.99,-2.44,0,3.706,-38.269,-79.468,26.022,-0.014,-0.015,1.012,0.000,0.000,0.000,0.0550,16,-34,0.00,0.00,0.00,0.0000,0.0000,0.0000
6675,0.0023,0.0640,0.0549,0.3634,0.0066,0.0831,6.42,6.07,-1.46,0,3.700,-45.738,-41.433,25.452,-0.012,-0.001,1.043,0.000,0.000,0.000,0.0570,9,-9,0.00,0.00,0.00,0.0000,0.0000,0.0000
6726,0.0204,0.0522,0.0563,0.3161,-0.0982,0.0814,4.39,8.30,-0.30,0,3.706,-26.917,-5.345,19.424,-0.005,-0.002,1.059,0.000,0.000,0.000,0.0570,20,-10,0.00,0.00,0.00,0.0000,0.0000,0.0000
6778,0.0271,0.0407,0.0608,0.2089,-0.1613,0.1019,2.92,9.05,0.82,0,3.695,-35.254,21.096,14.452,0.001,-0.009,1.042,0.000,0.000,0.000,0.0650,20,5,0.00,0.00,0.00,0.0000,0.0000,0.0000
6829,0.0293,0.0287,0.0653,0.1001,-0.2009,0.1195,1.15,8.45,1.72,0,3.700,-49.424,34.512,13.830,0.013,-0.005,1.071,0.000,0.000,0.000,0.0650,13,6,0.00,0.00,0.00,0.0000,0.0000,0.0000
6879,0.0231,0.0138,0.0697,-0.0165,-0.2324,0.1335,-1.23,6.90,2.43,0,3.695,-26.201,40.831,7.034,0.006,-0.000,1.060,0.000,0.000,0.000,0.0750,21,19,0.00,0.00,0.00,0.0000,0.0000,0.0000
6931,0.0139,0.0026,0.0744,-0.1083,-0.2209,0.1503,-2.78,5.01,2.87,0,3.706,-12.100,56.270,7.641,0.017,-0.006,1.053,0.000,0.000,0.000,0.0750,7,12,0.00,0.00,0.00,0.0000,0.0000,0.0000
6982,-0.0002,-0.0089,0.0810,-0.1892,-0.2008,0.1707,-3.46,2.43,3.16,0,3.700,-1.611,58.155,7.764,0.012,-0.011,1.049,0.000,0.000,0.000,0.0860,8,21,0.00,0.00,0.00,0.0000,0.0000,0.0000
7034,-0.0118,-0.0159,0.0899,-0.2186,-0.1592,0.1953,-3.71,-0.49,3.46,0,3.706,5.402,48.321,4.583,0.010,-0.006,1.039,0.000,0.000,0.000,0.0860,4,21,0.00,0.00,0.00,0.0000,0.0000,0.0000
7085,-0.0234,-0.0198,0.0973,-0.2192,-0.1118,0.2033,-3.56,-2.79,3.59,0,3.700,11.733,16.601,3.235,0.012,-0.007,1.040,0.000,0.000,0.000,0.0990,2,1,0.00,0.00,0.00,0.0000,0.0000,0.0000
7136,-0.0352,-0.0223,0.1062,-0.2037,-0.0685,0.2154,-2.98,-3.76,3.71,0,3.706,23.107,10.433,2.049,0.010,-0.014,1.036,0.000,0.000,0.000,0.0990,0,6,0.00,0.00,0.00,0.0000,0.0000,0.0000
7188,-0.0412,-0.0234,0.1128,-0.1592,-0.0343,0.2102,-1.89,-4.34,3.78,0,3.700,16.092,6.030,-1.964,0.005,-0.018,1.018,0.000,0.000,0.000,0.1290,-1,0,0.00,0.00,0.00,0.0000,0.0000,0.0000
7238,-0.0468,-0.0236,0.1233,-0.1160,-0.0107,0.2201,-1.15,-4.62,3.70,0,3.711,5.637,-4.816,-4.304,0.005,-0.013,1.019,0.000,0.000,0.000,0.1290,-1,1,-1.89,-4.34,3.78,-0.0412,-0.0234,0.1290
7289,-0.0504,-0.0235,0.1363,-0.0710,0.0037,0.2377,-0.86,-4.35,3.51,0,3.711,10.530,-21.371,-2.869,0.003,-0.014,1.008,0.000,0.000,0.000,0.1420,-2,-3,-1.58,-4.51,3.57,-0.0401,-0.0233,0.1296
7340,-0.0519,-0.0226,0.1465,-0.0296,0.0154,0.2352,-0.37,-3.32,3.34,0,3.711,10.794,-16.818,-3.437,0.001,-0.011,1.001,0.000,0.000,0.000,0.1420,0,0,-0.87,-1.42,3.46,-0.0418,-0.0225,0.1423
7391,-0.0518,-0.0204,0.1549,0.0024,0.0257,0.2227,0.11,-2.46,3.18,0,3.706,4.049,-14.637,-4.094,-0.001,-0.019,1.002,0.000,0.000,0.000,0.1690,-1,-5,-0.31,-2.28,3.30,-0.0419,-0.0217,0.1466
7442,-0.0497,-0.0193,0.1657,0.0298,0.0248,0.2216,0.42,-1.79,2.99,0,3.716,4.322,-14.438,-3.578,-0.002,-0.012,0.998,0.000,0.000,0.000,0.1690,0,-7,0.12,-1.96,3.07,-0.0416,-0.0213,0.1651
7493,-0.0479,-0.0179,0.1773,0.0447,0.0230,0.2237,0.63,-1.04,2.79,0,3.706,3.298,-15.392,-4.377,-0.004,-0.013,0.995,0.000,0.000,0.000,0.1930,-4,-7,0.27,-1.66,2.76,-0.0400,-0.0213,0.1733
7544,-0.0452,-0.0178,0.1877,0.0541,0.0143,0.2179,0.74,-0.36,2.59,0,3.716,-0.483,-10.633,-3.024,0.002,-0.009,0.991,0.000,0.000,0.000,0.1930,2,-9,-0.20,-2.01,2.40,-0.0385,-0.0198,0.1906
7595,-0.0411,-0.0164,0.2001,0.0619,0.0107,0.2215,0.77,0.12,2.44,0,3.716,-1.751,-6.935,-2.479,0.002,-0.012,0.983,0.000,0.000,0.000,0.2180,-1,0,0.27,-2.00,2.23,-0.0353,-0.0205,0.2012
7646,-0.0367,-0.0174,0.2124,0.0651,-0.0006,0.2206,0.71,0.51,2.31,0,3.721,-1.486,-5.770,-2.660,0.003,-0.008,0.981,0.000,0.000,0.000,0.2180,1,0,-0.10,-2.93,2.16,-0.0363,-0.0199,0.2194
7697,-0.0331,-0.0175,0.2249,0.0624,-0.0065,0.2177,0.58,0.75,2.19,0,3.711,-1.305,-1.603,-2.605,0.002,-0.010,0.971,0.000,0.000,0.000,0.2280,2,-1,-0.09,-3.11,2.00,-0.0367,-0.0204,0.2292
7748,-0.0312,-0.0183,0.2344,0.0529,-0.0126,0.2004,0.47,0.86,2.06,0,3.716,-4.979,-0.125,-1.481,-0.001,-0.012,0.974,0.000,0.000,0.000,0.2280,2,1,-0.08,-2.86,1.83,-0.0365,-0.0214,0.2384
7800,-0.0273,-0.0205,0.2399,0.0508,-0.0212,0.1678,0.33,0.83,1.95,0,3.706,-4.464,-2.331,-1.964,0.001,-0.010,0.976,0.000,0.000,0.000,0.2450,0,0,-0.36,-2.71,1.75,-0.0371,-0.0223,0.2433
7850,-0.0255,-0.0225,0.2467,0.0419,-0.0269,0.1507,0.13,0.88,1.84,0,3.706,-4.943,0.647,-2.722,0.003,-0.012,0.982,0.000,0.000,0.000,0.2450,3,0,-0.59,-2.83,1.65,-0.0393,-0.0234,0.2510
7901,-0.0240,-0.0255,0.2525,0.0331,-0.0331,0.1322,-0.03,0.79,1.71,0,3.700,-5.262,2.882,-1.940,0.003,-0.012,0.986,0.000,0.000,0.000,0.2630,2,0,-0.91,-2.27,1.56,-0.0367,-0.0236,0.2567
7952,-0.0249,-0.0282,0.2595,0.0196,-0.0360,0.1277,-0.15,0.74,1.60,0,3.706,-3.124,6.357,-1.350,0.004,-0.013,0.992,0.000,0.000,0.000,0.2630,0,1,-1.14,-2.01,1.49,-0.0371,-0.0245,0.2648
8003,-0.0252,-0.0302,0.2669,0.0102,-0.0351,0.1267,-0.35,0.61,1.51,0,3.700,-3.026,1.716,-2.489,0.003,-0.009,0.991,0.000,0.000,0.000,0.2760,0,1,-1.37,-1.60,1.43,-0.0378,-0.0243,0.2706
8055,-0.0249,-0.0342,0.2735,0.0052,-0.0388,0.1228,-0.44,0.42,1.41,0,3.711,-2.685,3.480,-1.925,0.004,-0.012,0.986,0.000,0.000,0.000,0.2760,2,0,-1.51,-1.44,1.35,-0.0385,-0.0242,0.2786
8105,-0.0263,-0.0364,0.2802,-0.0021,-0.0362,0.1201,-0.50,0.24,1.32,0,3.700,-5.005,2.679,-1.447,-0.000,-0.014,0.987,0.000,0.000,0.000,0.2880,0,1,-1.51,-1.12,1.39,-0.0384,-0.0253,0.2838
8156,-0.0265,-0.0383,0.2863,-0.0040,-0.0322,0.1150,-0.66,0.08,1.25,0,3.706,0.767,2.501,-1.032,0.001,-0.010,0.984,0.000,0.000,0.000,0.2880,2,0,-1.78,-0.96,1.32,-0.0391,-0.0251,0.2908
8207,-0.0270,-0.0424,0.2922,-0.0050,-0.0333,0.1090,-0.64,-0.11,1.18,0,3.700,-0.130,4.308,-0.665,0.004,-0.012,0.985,0.000,0.000,0.000,0.2990,0,2,-1.61,-0.74,1.44,-0.0389,-0.0264,0.2955
8259,-0.0271,-0.0446,0.2978,-0.0035,-0.0295,0.1032,-0.64,-0.30,1.13,0,3.706,0.166,-0.348,-0.563,0.002,-0.013,0.988,0.000,0.000,0.000,0.2990,2,0,-1.63,-0.56,1.36,-0.0403,-0.0263,0.3017
8311,-0.0275,-0.0473,0.3034,-0.0015,-0.0271,0.0990,-0.66,-0.34,1.10,0,3.700,-0.075,2.424,0.447,0.002,-0.018,0.983,0.000,0.000,0.000,0.3060,0,-1,-1.51,-0.49,1.51,-0.0401,-0.0276,0.3059
8361,-0.0280,-0.0495,0.3064,-0.0001,-0.0235,0.0839,-0.68,-0.34,1.11,0,3.706,-0.582,-1.696,0.307,0.006,-0.009,0.989,0.000,0.000,0.000,0.3060,0,0,-1.54,-0.27,1.55,-0.0393,-0.0274,0.3101
8412,-0.0281,-0.0495,0.3103,0.0025,-0.0154,0.0759,-0.66,-0.35,1.15,0,3.690,2.720,1.983,0.949,0.003,-0.014,0.989,0.000,0.000,0.000,0.3090,0,0,-1.57,-0.36,1.57,-0.0392,-0.0270,0.3128
8464,-0.0270,-0.0502,0.3097,0.0074,-0.0103,0.0508,-0.51,-0.41,1.19,0,3.695,-0.112,-4.923,0.498,0.005,-0.011,0.996,0.000,0.000,0.000,0.3090,0,0,-1.43,-0.26,1.62,-0.0391,-0.0263,0.3152
8515,-0.0261,-0.0505,0.3118,0.0115,-0.0057,0.0465,-0.48,-0.23,1.24,0,3.690,1.963,-2.723,0.369,0.000,-0.014,0.997,0.000,0.000,0.000,0.3120,0,0,-1.44,-0.51,1.65,-0.0391,-0.0253,0.3165
8567,-0.0220,-0.0507,0.3124,0.0207,-0.0018,0.0376,-0.41,-0.16,1.27,0,3.690,2.418,-3.891,0.461,0.004,-0.013,1.004,0.000,0.000,0.000,0.3120,0,0,-1.33,-0.65,1.67,-0.0392,-0.0239,0.3181
8618,-0.0204,-0.0510,0.3141,0.0226,0.0008,0.0389,-0.26,0.02,1.29,0,3.684,0.730,-2.735,0.773,0.005,-0.012,1.004,0.000,0.000,0.000,0.3220,0,0,-1.21,-0.85,1.70,-0.0396,-0.0223,0.3190
8668,-0.0188,-0.0510,0.3174,0.0231,0.0030,0.0463,-0.22,0.15,1.34,0,3.695,1.497,-1.870,0.601,0.009,-0.009,1.005,0.000,0.000,0.000,0.3220,0,0,-1.17,-0.99,1.74,-0.0402,-0.0205,0.3225
8719,-0.0179,-0.0515,0.3221,0.0212,0.0033,0.0576,-0.12,0.27,1.37,0,3.690,0.502,0.254,-0.108,0.004,-0.014,0.998,0.000,0.000,0.000,0.3280,0,0,-1.10,-1.08,1.78,-0.0410,-0.0184,0.3253
8770,-0.0165,-0.0519,0.3251,0.0196,0.0028,0.0577,-0.00,0.30,1.35,0,3.695,-0.298,1.386,-0.618,0.002,-0.013,0.998,0.000,0.000,0.000,0.3280,0,0,-1.07,-1.07,1.77,-0.0423,-0.0161,0.3290
8821,-0.0158,-0.0502,0.3294,0.0167,0.0057,0.0626,-0.01,0.24,1.32,0,3.690,-1.270,-0.337,0.047,0.004,-0.012,0.997,0.000,0.000,0.000,0.3340,0,-1,-1.09,-1.00,1.74,-0.0439,-0.0138,0.3316
8872,-0.0153,-0.0500,0.3331,0.0142,0.0057,0.0626,0.04,0.19,1.32,0,3.695,2.025,1.727,0.161,0.005,-0.014,0.990,0.000,0.000,0.000,0.3340,12,-9,-0.96,-0.87,2.00,-0.0337,-0.0263,0.3355
8924,-0.0168,-0.0511,0.3366,0.0087,0.0030,0.0607,0.23,0.08,1.33,0,3.690,-0.999,-0.519,-0.591,0.007,-0.013,0.988,0.000,0.000,0.000,0.3380,1,0,-0.59,-0.58,2.22,-0.0303,-0.0308,0.3338
8975,-0.0021,-0.0694,0.3383,0.0321,-0.0301,0.0506,0.18,0.09,1.33,0,3.695,-8.744,-0.452,-0.045,0.004,-0.013,0.990,0.000,0.000,0.000,0.3380,0,0,-0.76,-0.70,2.10,-0.0300,-0.0316,0.3395
9026,-0.0025,-0.0718,0.3405,0.0279,-0.0325,0.0443,-0.21,0.20,1.32,0,3.684,-4.139,-2.556,-0.404,0.003,-0.014,0.994,0.000,0.000,0.000,0.3430,2,-1,-1.20,-0.73,2.10,-0.0291,-0.0335,0.3412
9078,-0.0026,-0.0724,0.3417,0.0236,-0.0284,0.0374,-0.47,0.32,1.29,0,3.690,-0.291,1.266,-0.419,-0.001,-0.011,0.996,0.000,0.000,0.000,0.3430,0,0,-1.48,-0.88,2.02,-0.0291,-0.0331,0.3437
9130,-0.0019,-0.0768,0.3442,0.0198,-0.0293,0.0382,-0.56,0.32,1.26,0,3.684,-2.483,-0.484,-0.792,0.002,-0.016,0.995,0.000,0.000,0.000,0.3440,0,0,-1.50,-0.81,1.99,-0.0291,-0.0335,0.3454
9181,-0.0032,-0.0783,0.3457,0.0135,-0.0249,0.0349,-0.61,0.27,1.23,0,3.690,-2.756,1.061,-0.636,0.001,-0.013,1.001,0.000,0.000,0.000,0.3440,0,1,-1.62,-0.84,1.95,-0.0295,-0.0337,0.3466
9233,-0.0041,-0.0775,0.3466,0.0086,-0.0166,0.0304,-0.70,0.21,1.19,0,3.684,3.928,-0.348,-0.622,0.002,-0.013,0.997,0.000,0.000,0.000,0.3480,0,0,-1.75,-0.75,1.95,-0.0291,-0.0339,0.3476
9284,-0.0051,-0.0759,0.3466,0.0045,-0.0072,0.0235,-0.62,0.16,1.16,0,3.690,5.074,2.987,-0.456,0.001,-0.012,1.001,0.000,0.000,0.000,0.3480,-1,1,-1.55,-0.77,1.92,-0.0297,-0.0334,0.3492
9336,-0.0060,-0.0717,0.3485,0.0016,0.0052,0.0263,-0.46,0.04,1.13,0,3.679,3.419,-1.368,-0.828,0.004,-0.014,0.998,0.000,0.000,0.000,0.3510,-1,0,-1.26,-0.59,1.94,-0.0298,-0.0333,0.3504
9387,-0.0105,-0.0698,0.3494,-0.0060,0.0113,0.0243,-0.27,-0.06,1.12,0,3.684,1.495,0.399,0.034,0.000,-0.015,1.000,0.000,0.000,0.000,0.3510,0,0,-1.08,-0.65,1.90,-0.0299,-0.0326,0.3520
9439,-0.0102,-0.0658,0.3514,-0.0046,0.0188,0.0279,-0.15,-0.14,1.10,0,3.684,5.192,-0.124,-0.048,0.002,-0.010,0.996,0.000,0.000,0.000,0.3510,0,0,-1.01,-0.63,1.90,-0.0306,-0.0318,0.3532
9491,-0.0103,-0.0607,0.3530,-0.0031,0.0265,0.0282,0.06,-0.23,1.11,0,3.684,6.713,2.929,1.319,0.001,-0.015,0.999,0.000,0.000,0.000,0.3510,0,0,-0.74,-0.63,1.90,-0.0315,-0.0309,0.3539
9542,-0.0121,-0.0554,0.3534,-0.0039,0.0321,0.0236,0.30,-0.22,1.14,0,3.679,3.471,0.551,1.240,0.006,-0.014,0.999,0.000,0.000,0.000,0.3520,-1,0,-0.39,-0.48,1.97,-0.0326,-0.0300,0.3542
9594,-0.0123,-0.0533,0.3532,-0.0021,0.0303,0.0166,0.48,-0.23,1.19,0,3.684,3.046,2.256,1.293,0.000,-0.013,1.001,0.000,0.000,0.000,0.3520,-1,0,-0.18,-0.39,2.05,-0.0302,-0.0309,0.3546
9644,-0.0125,-0.0513,0.3534,-0.0003,0.0268,0.0139,0.57,-0.22,1.26,0,3.674,0.549,0.747,1.591,0.001,-0.011,1.001,0.000,0.000,0.000,0.3540,0,-1,-0.04,-0.27,2.09,-0.0303,-0.0305,0.3548
9695,-0.0143,-0.0500,0.3538,-0.0012,0.0218,0.0126,0.67,-0.25,1.33,0,3.679,-2.431,-3.183,1.536,0.003,-0.015,1.002,0.000,0.000,0.000,0.3540,2,0,-0.01,-0.20,2.13,-0.0298,-0.0305,0.3555
9747,-0.0128,-0.0471,0.3546,0.0032,0.0192,0.0145,0.63,-0.13,1.40,0,3.679,-1.192,0.140,0.663,0.002,-0.010,0.997,0.000,0.000,0.000,0.3550,1,0,-0.11,-0.37,2.27,-0.0297,-0.0319,0.3559
9797,-0.0135,-0.0520,0.3565,0.0029,0.0051,0.0197,0.60,-0.09,1.47,0,3.679,-3.312,0.260,1.345,0.003,-0.013,0.997,0.000,0.000,0.000,0.3550,0,0,-0.18,-0.37,2.28,-0.0297,-0.0326,0.3565
9849,-0.0091,-0.0568,0.3568,0.0107,-0.0075,0.0167,0.45,-0.20,1.54,0,3.674,-4.159,-1.348,1.203,0.002,-0.016,0.999,0.000,0.000,0.000,0.3580,0,-1,-0.35,-0.35,2.35,-0.0297,-0.0338,0.3567
9901,-0.0070,-0.0565,0.3571,0.0148,-0.0097,0.0141,0.23,-0.14,1.60,0,3.679,-4.840,-2.817,0.487,0.003,-0.011,1.001,0.000,0.000,0.000,0.3580,3,0,-0.63,-0.39,2.29,-0.0288,-0.0323,0.3578
9953,-0.0039,-0.0685,0.3583,0.0195,-0.0296,0.0167,0.10,-0.01,1.64,0,3.674,-4.257,-0.580,0.782,0.004,-0.010,0.994,0.000,0.000,0.000,0.3570,0,0,-0.83,-0.55,2.38,-0.0287,-0.0340,0.3589
10003,-0.0021,-0.0684,0.3589,0.0207,-0.0275,0.0146,-0.15,0.06,1.69,0,3.679,-4.989,-1.140,1.347,0.003,-0.012,0.999,0.000,0.000,0.000,0.3570,2,-1,-1.06,-0.58,2.42,-0.0287,-0.0350,0.3589
10055,-0.0029,-0.0689,0.3586,0.0170,-0.0245,0.0100,-0.38,0.14,1.74,0,3.674,-2.372,-1.013,1.252,0.001,-0.011,1.000,0.000,0.000,0.000,0.3600,1,0,-1.31,-0.61,2.49,-0.0278,-0.0356,0.3588
10106,-0.0007,-0.0757,0.3587,0.0177,-0.0297,0.0085,-0.49,0.20,1.79,0,3.679,-2.755,-1.727,1.174,0.004,-0.011,0.998,0.000,0.000,0.000,0.3600,4,0,-1.43,-0.66,2.56,-0.0278,-0.0363,0.3596
10157,0.0000,-0.0782,0.3598,0.0157,-0.0269,0.0106,-0.58,0.23,1.83,0,3.669,-2.348,-1.369,1.510,0.004,-0.010,0.997,0.000,0.000,0.000,0.3600,0,0,-1.50,-0.74,2.68,-0.0277,-0.0390,0.3603
10208,0.0005,-0.0847,0.3593,0.0133,-0.0298,0.0052,-0.68,0.23,1.90,0,3.679,-0.893,-0.984,1.128,0.004,-0.007,0.998,0.000,0.000,0.000,0.3600,0,0,-1.62,-0.81,2.76,-0.0279,-0.0402,0.3606
10260,0.0021,-0.0859,0.3599,0.0125,-0.0238,0.0059,-0.74,0.24,1.96,0,3.669,1.223,1.639,0.848,0.008,-0.010,1.002,0.000,0.000,0.000,0.3580,0,0,-1.67,-0.86,2.82,-0.0285,-0.0409,0.3608
10310,0.0036,-0.0866,0.3592,0.0116,-0.0166,0.0018,-0.77,0.23,2.02,0,3.674,1.102,-0.204,1.472,0.002,-0.015,1.005,0.000,0.000,0.000,0.3580,0,0,-1.60,-0.77,2.86,-0.0292,-0.0411,0.3603
10362,0.0041,-0.0873,0.3587,0.0095,-0.0103,0.0003,-0.68,0.23,2.09,0,3.669,1.530,1.197,1.358,0.001,-0.009,1.004,0.000,0.000,0.000,0.3600,0,0,-1.55,-0.78,2.93,-0.0302,-0.0410,0.3599
10413,0.0045,-0.0862,0.3594,0.0073,-0.0024,0.0054,-0.56,0.20,2.16,0,3.674,2.469,0.653,1.774,0.005,-0.013,0.999,0.000,0.000,0.000,0.3600,0,0,-1.47,-0.71,3.00,-0.0316,-0.0404,0.3603
10464,0.0028,-0.0868,0.3599,0.0027,0.0002,0.0069,-0.44,0.20,2.23,0,3.669,3.349,0.156,0.983,0.002,-0.016,0.999,0.000,0.000,0.000,0.3570,-2,1,-1.35,-0.68,3.09,-0.0332,-0.0396,0.3606
10515,0.0036,-0.0827,0.3593,0.0018,0.0109,0.0022,-0.38,0.11,2.30,0,3.674,5.849,1.290,1.400,-0.001,-0.010,1.004,0.000,0.000,0.000,0.3570,0,0,-1.13,-0.59,3.24,-0.0271,-0.0424,0.3599
10566,0.0010,-0.0783,0.3583,-0.0031,0.0194,-0.0024,-0.18,0.02,2.37,0,3.663,3.113,1.325,1.040,0.005,-0.010,1.001,0.000,0.000,0.000,0.3620,-1,0,-0.84,-0.53,3.31,-0.0275,-0.0420,0.3593
10617,-0.0010,-0.0746,0.3581,-0.0063,0.0254,-0.0013,0.00,-0.00,2.42,0,3.669,4.024,2.321,1.205,0.004,-0.010,1.005,0.000,0.000,0.000,0.3620,-1,0,-0.67,-0.44,3.37,-0.0274,-0.0417,0.3603
10668,-0.0025,-0.0740,0.3600,-0.0081,0.0243,0.0091,0.21,-0.07,2.49,0,3.663,3.299,-1.502,1.336,0.005,-0.015,0.999,0.000,0.000,0.000,0.3560,-1,0,-0.47,-0.32,3.42,-0.0275,-0.0411,0.3613
10719,-0.0042,-0.0713,0.3584,-0.0091,0.0243,0.0009,0.30,-0.10,2.54,0,3.669,0.499,2.828,0.681,0.005,-0.011,1.005,0.000,0.000,0.000,0.3560,0,0,-0.31,-0.39,3.48,-0.0275,-0.0404,0.3601
10771,-0.0057,-0.0702,0.3573,-0.0104,0.0225,-0.0035,0.35,-0.15,2.57,0,3.663,-0.403,4.054,1.575,0.003,-0.012,1.006,0.000,0.000,0.000,0.3580,0,0,-0.29,-0.25,3.52,-0.0276,-0.0400,0.3592
10823,-0.0083,-0.0681,0.3575,-0.0122,0.0211,0.0001,0.35,-0.29,2.62,0,3.669,-1.048,0.286,1.371,0.005,-0.013,1.007,0.000,0.000,0.000,0.3580,0,0,-0.31,-0.04,3.60,-0.0278,-0.0398,0.3592
10875,-0.0085,-0.0660,0.3578,-0.0091,0.0199,0.0033,0.36,-0.25,2.68,0,3.663,-0.245,-1.076,1.880,0.002,-0.011,1.004,0.000,0.000,0.000,0.3590,0,0,-0.36,-0.02,3.67,-0.0278,-0.0397,0.3593
10926,-0.0087,-0.0678,0.3576,-0.0063,0.0125,0.0044,0.33,-0.23,2.76,0,3.669,-0.745,-0.908,1.504,0.003,-0.010,1.000,0.000,0.000,0.000,0.3590,0,0,-0.37,-0.08,3.77,-0.0278,-0.0398,0.3598
10977,-0.0086,-0.0714,0.3586,-0.0037,0.0031,0.0097,0.30,-0.21,2.84,0,3.663,-1.256,-0.966,1.932,0.003,-0.009,1.003,0.000,0.000,0.000,0.3600,1,0,-0.41,-0.12,3.84,-0.0278,-0.0399,0.3601
11028,-0.0070,-0.0709,0.3587,0.0011,0.0014,0.0084,0.19,-0.18,2.92,0,3.669,-3.704,-0.950,1.851,0.003,-0.009,0.999,0.000,0.000,0.000,0.3600,0,0,-0.48,-0.17,3.94,-0.0280,-0.0398,0.3606
11079,-0.0057,-0.0730,0.3597,0.0047,-0.0033,0.0096,-0.01,-0.12,2.99,0,3.663,-0.407,-2.633,1.205,0.006,-0.010,0.992,0.000,0.000,0.000,0.3620,2,0,-0.67,-0.22,4.04,-0.0280,-0.0399,0.3610
11131,-0.0035,-0.0734,0.3603,0.0087,-0.0036,0.0087,-0.08,-0.01,3.06,0,3.669,-0.934,-2.816,-0.258,0.006,-0.013,0.996,0.000,0.000,0.000,0.3620,0,0,-0.67,-0.36,4.13,-0.0279,-0.0409,0.3617
11182,-0.0036,-0.0800,0.3615,0.0079,-0.0130,0.0097,-0.15,0.07,3.07,0,3.663,-4.993,-0.036,-0.661,0.005,-0.013,0.989,0.000,0.000,0.000,0.3590,0,0,-0.72,-0.50,4.12,-0.0279,-0.0416,0.3621
11233,-0.0020,-0.0808,0.3606,0.0092,-0.0120,0.0018,-0.31,0.06,3.03,0,3.663,-0.888,-0.473,-1.561,0.003,-0.010,0.997,0.000,0.000,0.000,0.3590,0,0,-0.97,-0.50,4.09,-0.0279,-0.0423,0.3611
11283,0.0024,-0.0857,0.3598,0.0146,-0.0162,-0.0036,-0.38,0.10,2.93,0,3.658,0.971,-1.098,-2.720,0.003,-0.016,1.001,0.000,0.000,0.000,0.3590,0,0,-1.02,-0.53,4.01,-0.0281,-0.0428,0.3603
11334,0.0046,-0.0862,0.3587,0.0161,-0.0126,-0.0079,-0.35,0.20,2.78,0,3.663,-2.726,-0.973,-3.930,0.005,-0.013,1.003,0.000,0.000,0.000,0.3590,0,0,-0.97,-0.59,3.87,-0.0285,-0.0432,0.3596
11385,0.0065,-0.0860,0.3585,0.0162,-0.0084,-0.0080,-0.47,0.25,2.57,0,3.658,3.399,-0.291,-5.025,0.005,-0.007,1.001,0.000,0.000,0.000,0.3570,0,0,-1.10,-0.64,3.67,-0.0290,-0.0436,0.3592
11436,0.0073,-0.0863,0.3599,0.0139,-0.0046,0.0007,-0.38,0.27,2.35,0,3.663,0.423,-0.343,-3.089,0.002,-0.011,1.001,0.000,0.000,0.000,0.3570,0,0,-0.93,-0.66,3.42,-0.0296,-0.0437,0.3582
11487,0.0079,-0.0865,0.3585,0.0115,-0.0015,-0.0051,-0.36,0.29,2.17,0,3.653,1.913,-0.197,-3.717,0.003,-0.009,1.002,0.000,0.000,0.000,0.3550,0,0,-0.90,-0.68,3.26,-0.0306,-0.0437,0.3575
11538,0.0073,-0.0798,0.3560,0.0072,0.0118,-0.0134,-0.31,0.28,1.99,0,3.658,3.846,0.348,-2.601,0.004,-0.016,1.008,0.000,0.000,0.000,0.3550,-1,0,-0.80,-0.69,3.07,-0.0318,-0.0435,0.3564
11589,0.0076,-0.0777,0.3550,0.0048,0.0165,-0.0123,-0.14,0.22,1.87,0,3.653,6.648,-0.381,-3.571,0.002,-0.011,1.006,0.000,0.000,0.000,0.3530,0,0,-0.60,-0.62,2.94,-0.0259,-0.0437,0.3558
11641,0.0076,-0.0710,0.3550,0.0025,0.0268,-0.0062,0.08,0.22,1.71,0,3.658,2.547,1.583,-2.271,0.000,-0.015,1.000,0.000,0.000,0.000,0.3530,0,0,-0.26,-0.64,2.76,-0.0261,-0.0436,0.3548
11692,0.0034,-0.0721,0.3538,-0.0058,0.0225,-0.0086,0.25,0.18,1.58,0,3.653,1.526,3.281,-2.201,0.003,-0.010,1.006,0.000,0.000,0.000,0.3530,0,1,-0.12,-0.56,2.64,-0.0266,-0.0439,0.3540
11743,0.0028,-0.0698,0.3541,-0.0078,0.0221,-0.0027,0.36,0.06,1.46,0,3.658,0.147,2.474,-1.613,0.003,-0.007,1.009,0.000,0.000,0.000,0.3530,0,0,-0.06,-0.38,2.50,-0.0264,-0.0434,0.3536
11794,-0.0006,-0.0696,0.3535,-0.0127,0.0177,-0.0020,0.38,-0.05,1.39,0,3.653,0.372,2.669,-1.981,0.002,-0.009,1.004,0.000,0.000,0.000,0.3530,0,1,-0.05,-0.25,2.42,-0.0267,-0.0436,0.3534
11846,-0.0020,-0.0680,0.3537,-0.0135,0.0157,0.0023,0.41,-0.13,1.30,0,3.658,0.702,0.478,-1.090,0.004,-0.013,1.003,0.000,0.000,0.000,0.3530,1,0,-0.05,-0.11,2.30,-0.0271,-0.0435,0.3534
11897,-0.0039,-0.0679,0.3535,-0.0142,0.0113,0.0025,0.44,-0.18,1.24,0,3.653,-0.466,0.512,-1.912,-0.001,-0.008,1.002,0.000,0.000,0.000,0.3540,-1,0,-0.01,-0.08,2.24,-0.0271,-0.0441,0.3534
11948,-0.0063,-0.0720,0.3549,-0.0154,0.0001,0.0094,0.43,-0.24,1.16,0,3.658,-2.157,2.006,-1.835,0.004,-0.012,1.001,0.000,0.000,0.000,0.3540,0,-1,-0.06,-0.05,2.09,-0.0272,-0.0435,0.3539
12000,-0.0085,-0.0733,0.3549,-0.0159,-0.0053,0.0072,0.31,-0.32,1.09,0,3.653,-4.284,1.654,-2.048,0.001,-0.015,0.998,0.000,0.000,0.000,0.3560,0,0,-0.17,0.07,1.96,-0.0265,-0.0435,0.3542
12050,-0.0064,-0.0740,0.3542,-0.0088,-0.0084,0.0017,0.14,-0.32,1.00,0,3.658,-4.562,1.387,-1.648,0.003,-0.008,1.001,0.000,0.000,0.000,0.3560,0,0,-0.40,0.15,1.85,-0.0261,-0.0439,0.3550
12102,-0.0059,-0.0787,0.3552,-0.0046,-0.0166,0.0053,-0.03,-0.31,0.92,0,3.648,-2.551,-1.702,-0.858,0.005,-0.010,0.995,0.000,0.000,0.000,0.3550,1,0,-0.63,0.22,1.77,-0.0255,-0.0443,0.3556
12153,-0.0059,-0.0825,0.3543,-0.0018,-0.0212,-0.0005,-0.10,-0.24,0.86,0,3.653,-3.502,-0.666,-0.583,0.002,-0.014,1.000,0.000,0.000,0.000,0.3550,0,0,-0.77,0.10,1.75,-0.0267,-0.0444,0.3557
12204,-0.0064,-0.0882,0.3546,-0.0005,-0.0278,0.0002,-0.27,-0.17,0.80,0,3.653,-4.394,0.197,-0.581,0.001,-0.007,0.996,0.000,0.000,0.000,0.3530,1,-1,-0.94,0.07,1.72,-0.0266,-0.0446,0.3557
12255,-0.0033,-0.0887,0.3543,0.0060,-0.0241,-0.0032,-0.44,-0.14,0.76,0,3.653,-0.311,-2.543,-0.418,0.001,-0.011,1.000,0.000,0.000,0.000,0.3530,0,-1,-1.16,0.08,1.71,-0.0261,-0.0451,0.3550
12307,-0.0030,-0.0907,0.3534,0.0069,-0.0218,-0.0071,-0.46,-0.02,0.74,0,3.648,-3.480,-2.167,-0.084,0.008,-0.009,1.003,0.000,0.000,0.000,0.3530,-1,0,-1.17,-0.04,1.69,-0.0255,-0.0452,0.3543
12359,0.0013,-0.0919,0.3529,0.0137,-0.0183,-0.0066,-0.52,0.08,0.71,0,3.653,2.831,-1.896,-0.049,0.003,-0.009,1.006,0.000,0.000,0.000,0.3530,0,-1,-1.36,-0.17,1.66,-0.0254,-0.0445,0.3539
12409,0.0001,-0.0916,0.3527,0.0098,-0.0121,-0.0046,-0.43,0.13,0.69,0,3.648,1.793,-0.790,-1.219,-0.000,-0.008,1.002,0.000,0.000,0.000,0.3530,0,-1,-1.20,-0.26,1.70,-0.0247,-0.0445,0.3537
12460,0.0023,-0.0896,0.3527,0.0116,-0.0043,-0.0018,-0.35,0.16,0.63,0,3.653,2.947,-1.671,-1.507,0.004,-0.013,0.997,0.000,0.000,0.000,0.3530,0,0,-1.09,-0.29,1.66,-0.0240,-0.0444,0.3536
12511,0.0033,-0.0902,0.3528,0.0111,-0.0021,-0.0003,-0.24,0.21,0.56,0,3.648,2.625,-0.468,-2.271,0.005,-0.011,1.001,0.000,0.000,0.000,0.3530,0,0,-0.94,-0.38,1.58,-0.0235,-0.0439,0.3534
12563,0.0045,-0.0893,0.3514,0.0107,0.0017,-0.0056,-0.11,0.18,0.48,0,3.653,0.462,-0.269,-1.692,0.007,-0.011,1.002,0.000,0.000,0.000,0.3530,0,0,-0.81,-0.41,1.47,-0.0229,-0.0433,0.3533
12614,0.0050,-0.0892,0.3520,0.0090,0.0027,-0.0019,-0.11,0.18,0.42,0,3.648,1.420,-1.215,-1.027,-0.000,-0.008,1.000,0.000,0.000,0.000,0.3500,0,0,-0.78,-0.42,1.38,-0.0224,-0.0426,0.3532
12666,0.0054,-0.0890,0.3524,0.0075,0.0036,0.0006,-0.03,0.22,0.36,0,3.648,2.049,2.078,-1.193,-0.000,-0.014,0.998,0.000,0.000,0.000,0.3500,0,0,-0.71,-0.48,1.33,-0.0221,-0.0417,0.3522
12716,0.0057,-0.0888,0.3512,0.0056,0.0038,-0.0050,0.13,0.19,0.28,0,3.642,-2.495,1.123,-1.719,0.004,-0.011,1.002,0.000,0.000,0.000,0.3490,0,0,-0.60,-0.38,1.27,-0.0220,-0.0410,0.3513
12767,0.0060,-0.0887,0.3494,0.0039,0.0028,-0.0123,0.07,0.14,0.20,0,3.648,1.625,1.565,-1.571,0.000,-0.014,1.005,0.000,0.000,0.000,0.3490,0,2,-0.73,-0.32,1.18,-0.0220,-0.0402,0.3503
12819,0.0062,-0.0885,0.3486,0.0027,0.0022,-0.0114,0.12,0.18,0.14,0,3.648,0.527,2.892,-1.168,-0.000,-0.012,1.001,0.000,0.000,0.000,0.3520,0,1,-0.62,-0.25,1.11,-0.0225,-0.0429,0.3498
12869,-0.0001,-0.0890,0.3494,-0.0100,0.0001,-0.0043,0.19,0.13,0.09,0,3.648,-2.306,7.005,-0.714,-0.002,-0.011,1.000,0.000,0.000,0.000,0.3520,0,0,-0.59,-0.10,1.05,-0.0230,-0.0429,0.3503
12920,0.0004,-0.0892,0.3505,-0.0091,-0.0019,0.0020,0.09,-0.09,0.06,0,3.642,-0.267,1.361,-0.495,0.005,-0.009,1.000,0.000,0.000,0.000,0.3460,-1,1,-0.70,0.25,1.01,-0.0236,-0.0429,0.3507
12972,-0.0017,-0.0914,0.3493,-0.0110,-0.0062,-0.0032,0.06,-0.16,0.04,0,3.648,0.901,-1.400,0.804,0.000,-0.011,1.001,0.000,0.000,0.000,0.3460,0,0,-0.73,0.31,0.97,-0.0240,-0.0424,0.3492
13023,-0.0015,-0.0919,0.3475,-0.0081,-0.0073,-0.0097,0.13,-0.19,0.05,0,3.642,-2.543,1.021,-0.230,-0.002,-0.011,1.000,0.000,0.000,0.000,0.3450,0,1,-0.68,0.24,1.02,-0.0242,-0.0420,0.3479
13075,-0.0011,-0.0953,0.3479,-0.0050,-0.0136,-0.0055,0.06,-0.20,0.05,0,3.642,-4.696,0.054,0.348,0.003,-0.010,1.001,0.000,0.000,0.000,0.3450,1,0,-0.80,0.29,1.03,-0.0247,-0.0423,0.3467
13125,-0.0026,-0.1006,0.3462,-0.0053,-0.0223,-0.0108,-0.08,-0.27,0.05,0,3.642,-0.425,0.570,-0.263,0.001,-0.010,1.005,0.000,0.000,0.000,0.3440,0,0,-1.03,0.29,1.08,-0.0247,-0.0428,0.3457
13176,-0.0011,-0.1053,0.3462,-0.0002,-0.0277,-0.0070,-0.14,-0.21,0.05,0,3.642,-4.065,-0.628,0.252,0.004,-0.008,1.004,0.000,0.000,0.000,0.3440,0,0,-1.05,0.32,1.07,-0.0246,-0.0428,0.3448
13228,0.0036,-0.1110,0.3448,0.0094,-0.0336,-0.0095,-0.30,-0.16,0.07,0,3.642,-4.970,-2.557,0.969,0.001,-0.011,1.001,0.000,0.000,0.000,0.3420,2,0,-1.26,0.29,1.08,-0.0242,-0.0426,0.3441
13279,0.0072,-0.1115,0.3439,0.0159,-0.0290,-0.0105,-0.42,-0.08,0.08,0,3.642,-2.915,-4.446,0.290,0.004,-0.010,1.007,0.000,0.000,0.000,0.3420,1,-1,-1.48,0.14,1.19,-0.0249,-0.0445,0.3432
13330,0.0073,-0.1163,0.3425,0.0153,-0.0310,-0.0125,-0.58,0.10,0.10,0,3.637,-1.314,-2.800,0.522,0.006,-0.009,1.002,0.000,0.000,0.000,0.3440,0,0,-1.62,-0.08,1.24,-0.0244,-0.0449,0.3426
13382,0.0106,-0.1165,0.3417,0.0185,-0.0235,-0.0121,-0.66,0.23,0.12,0,3.642,2.086,-0.421,0.933,0.004,-0.014,0.999,0.000,0.000,0.000,0.3440,0,0,-1.68,-0.22,1.27,-0.0238,-0.0447,0.3428
13433,0.0127,-0.1188,0.3423,0.0187,-0.0201,-0.0064,-0.61,0.24,0.15,0,3.642,2.014,-1.953,-0.072,-0.000,-0.011,0.999,0.000,0.000,0.000,0.3370,0,-1,-1.58,-0.24,1.32,-0.0233,-0.0441,0.3429
13485,0.0163,-0.1177,0.3440,0.0213,-0.0116,0.0029,-0.57,0.26,0.15,0,3.642,3.435,-1.983,0.152,0.003,-0.008,1.006,0.000,0.000,0.000,0.3370,0,0,-1.44,-0.35,1.34,-0.0233,-0.0455,0.3410
13536,0.0209,-0.1179,0.3406,0.0254,-0.0063,-0.0109,-0.53,0.31,0.16,0,3.637,1.581,-3.756,0.558,0.004,-0.016,1.001,0.000,0.000,0.000,0.3420,-1,-1,-1.26,-0.45,1.35,-0.0232,-0.0450,0.3394
13587,0.0239,-0.1187,0.3403,0.0256,-0.0031,-0.0093,-0.47,0.42,0.21,0,3.642,2.478,0.764,1.872,0.004,-0.016,1.004,0.000,0.000,0.000,0.3420,0,0,-1.17,-0.63,1.39,-0.0227,-0.0448,0.3398
13638,0.0269,-0.1118,0.3407,0.0251,0.0123,-0.0049,-0.31,0.44,0.28,0,3.637,5.459,-2.140,0.907,0.001,-0.008,1.002,0.000,0.000,0.000,0.3390,-2,-2,-1.05,-0.59,1.49,-0.0226,-0.0443,0.3403
13690,0.0264,-0.1099,0.3407,0.0182,0.0168,-0.0027,-0.10,0.47,0.35,0,3.637,4.501,0.758,1.256,0.009,-0.008,1.003,0.000,0.000,0.000,0.3390,0,0,-0.76,-0.67,1.55,-0.0214,-0.0436,0.3399
13742,0.0293,-0.1081,0.3397,0.0175,0.0186,-0.0050,0.10,0.47,0.41,0,3.632,0.888,1.492,2.331,0.005,-0.011,1.003,0.000,0.000,0.000,0.3390,1,0,-0.53,-0.63,1.62,-0.0209,-0.0427,0.3396
13793,0.0294,-0.1019,0.3376,0.0123,0.0268,-0.0124,0.21,0.44,0.47,0,3.637,3.802,-1.487,0.121,0.001,-0.010,1.006,0.000,0.000,0.000,0.3390,0,0,-0.45,-0.57,1.73,-0.0211,-0.0437,0.3395
13845,0.0314,-0.1027,0.3377,0.0112,0.0211,-0.0069,0.37,0.43,0.51,0,3.632,-2.529,4.613,2.096,0.002,-0.008,1.008,0.000,0.000,0.000,0.3360,0,0,-0.26,-0.64,1.73,-0.0213,-0.0440,0.3395
13896,0.0318,-0.1018,0.3376,0.0075,0.0177,-0.0032,0.38,0.29,0.58,0,3.637,1.565,1.263,1.609,0.001,-0.015,1.001,0.000,0.000,0.000,0.3360,0,0,-0.39,-0.40,1.84,-0.0217,-0.0444,0.3387
13947,0.0288,-0.1019,0.3367,-0.0008,0.0128,-0.0048,0.39,0.21,0.65,0,3.632,0.541,1.869,2.138,0.001,-0.014,1.003,0.000,0.000,0.000,0.3330,0,0,-0.31,-0.34,1.92,-0.0222,-0.0450,0.3381
13999,0.0307,-0.1018,0.3367,0.0009,0.0086,-0.0028,0.42,0.18,0.72,0,3.637,-5.019,1.346,0.695,0.004,-0.011,1.003,0.000,0.000,0.000,0.3330,2,0,-0.28,-0.24,2.03,-0.0229,-0.0459,0.3366
14051,0.0294,-0.1033,0.3347,-0.0028,0.0018,-0.0087,0.34,0.08,0.77,0,3.632,-3.075,-0.279,0.506,-0.001,-0.009,1.008,0.000,0.000,0.000,0.3340,0,0,-0.57,-0.15,2.03,-0.0214,-0.0446,0.3356
14102,0.0289,-0.1092,0.3351,-0.0039,-0.0108,-0.0030,0.19,-0.01,0.80,0,3.637,-2.623,1.067,0.441,-0.001,-0.011,1.006,0.000,0.000,0.000,0.3340,0,-1,-0.73,-0.16,2.06,-0.0214,-0.0449,0.3352
14153,0.0278,-0.1111,0.3344,-0.0053,-0.0146,-0.0029,0.06,-0.11,0.82,0,3.637,-3.349,1.731,0.057,0.005,-0.015,1.003,0.000,0.000,0.000,0.3380,1,0,-0.87,-0.09,2.07,-0.0209,-0.0447,0.3349
14205,0.0306,-0.1135,0.3362,0.0008,-0.0176,0.0071,-0.07,-0.15,0.80,0,3.637,-0.745,-2.451,-1.052,0.009,-0.010,1.000,0.000,0.000,0.000,0.3380,0,0,-1.03,-0.01,2.08,-0.0208,-0.0452,0.3362
14256,0.0322,-0.1174,0.3375,0.0046,-0.0224,0.0117,-0.11,-0.10,0.77,0,3.632,-4.808,0.484,-0.293,0.005,-0.014,1.000,0.000,0.000,0.000,0.3300,1,0,-1.07,-0.14,2.03,-0.0203,-0.0453,0.3371
14308,0.0345,-0.1203,0.3362,0.0088,-0.0247,0.0035,-0.27,-0.07,0.73,0,3.632,-2.171,-1.966,0.631,0.002,-0.010,1.001,0.000,0.000,0.000,0.3300,3,0,-1.30,-0.13,2.02,-0.0207,-0.0459,0.3353
14359,0.0382,-0.1211,0.3332,0.0153,-0.0215,-0.0099,-0.37,-0.03,0.74,0,3.632,-0.481,-4.293,-0.811,0.002,-0.010,1.004,0.000,0.000,0.000,0.3330,0,0,-1.38,-0.23,2.08,-0.0206,-0.0474,0.3338
14410,0.0391,-0.1250,0.3337,0.0155,-0.0232,-0.0036,-0.40,0.10,0.73,0,3.632,-1.299,-0.488,-0.193,0.005,-0.009,1.002,0.000,0.000,0.000,0.3330,0,0,-1.40,-0.45,2.05,-0.0206,-0.0480,0.3336
14461,0.0432,-0.1314,0.3332,0.0206,-0.0290,-0.0042,-0.49,0.17,0.70,0,3.632,-2.687,-0.492,-0.169,0.004,-0.014,0.997,0.000,0.000,0.000,0.3330,-1,0,-1.47,-0.47,2.04,-0.0207,-0.0483,0.3335
14513,0.0473,-0.1354,0.3350,0.0250,-0.0297,0.0049,-0.53,0.19,0.69,0,3.637,-1.490,-3.176,0.007,0.002,-0.014,1.000,0.000,0.000,0.000,0.3330,0,0,-1.61,-0.49,2.04,-0.0204,-0.0478,0.3333
14564,0.0481,-0.1368,0.3343,0.0222,-0.0254,0.0018,-0.58,0.37,0.68,0,3.632,0.260,-1.725,-0.218,0.003,-0.016,0.998,0.000,0.000,0.000,0.3340,0,0,-1.69,-0.66,2.04,-0.0206,-0.0472,0.3331
14615,0.0510,-0.1366,0.3342,0.0225,-0.0178,0.0008,-0.57,0.43,0.66,0,3.632,-1.522,0.747,-0.052,0.002,-0.012,0.996,0.000,0.000,0.000,0.3340,0,0,-1.67,-0.74,2.03,-0.0211,-0.0463,0.3333
14667,0.0536,-0.1370,0.3341,0.0216,-0.0122,-0.0010,-0.58,0.43,0.65,0,3.632,2.596,-2.053,-0.612,0.000,-0.009,1.001,0.000,0.000,0.000,0.3340,0,-1,-1.75,-0.71,2.03,-0.0218,-0.0449,0.3333
14719,0.0553,-0.1377,0.3335,0.0193,-0.0077,-0.0043,-0.54,0.45,0.64,0,3.632,1.521,0.936,0.189,0.005,-0.013,0.998,0.000,0.000,0.000,0.3340,0,-1,-1.55,-0.77,2.05,-0.0197,-0.0479,0.3339
14770,0.0570,-0.1378,0.3335,0.0170,-0.0032,-0.0045,-0.41,0.44,0.64,0,3.626,0.866,0.957,-0.288,0.009,-0.015,0.998,0.000,0.000,0.000,0.3330,-3,0,-1.47,-0.71,2.07,-0.0194,-0.0477,0.3337
14821,0.0585,-0.1370,0.3330,0.0147,0.0019,-0.0060,-0.34,0.42,0.63,0,3.632,4.086,-1.156,0.359,0.006,-0.014,0.999,0.000,0.000,0.000,0.3330,0,-1,-1.45,-0.67,2.07,-0.0194,-0.0460,0.3335
14873,0.0609,-0.1327,0.3327,0.0145,0.0125,-0.0066,-0.19,0.38,0.67,0,3.626,3.484,0.608,1.348,0.002,-0.015,1.001,0.000,0.000,0.000,0.3300,0,0,-1.21,-0.71,2.09,-0.0188,-0.0459,0.3333
14924,0.0621,-0.1297,0.3310,0.0124,0.0186,-0.0121,-0.06,0.39,0.72,0,3.626,2.628,0.512,1.093,0.001,-0.014,1.008,0.000,0.000,0.000,0.3300,0,0,-1.03,-0.68,2.16,-0.0187,-0.0450,0.3322
14976,0.0623,-0.1280,0.3299,0.0082,0.0203,-0.0126,0.08,0.42,0.76,0,3.626,1.592,0.963,0.971,0.000,-0.012,1.005,0.000,0.000,0.000,0.3270,0,0,-0.90,-0.65,2.21,-0.0189,-0.0441,0.3314
15028,0.0627,-0.1270,0.3300,0.0047,0.0194,-0.0078,0.16,0.36,0.81,0,3.626,1.395,1.731,1.142,0.000,-0.015,1.003,0.000,0.000,0.000,0.3270,0,0,-0.81,-0.60,2.26,-0.0194,-0.0430,0.3300
15079,0.0628,-0.1261,0.3281,0.0019,0.0179,-0.0117,0.24,0.25,0.86,0,3.621,1.482,0.559,2.006,0.004,-0.013,0.999,0.000,0.000,0.000,0.3240,0,0,-0.74,-0.51,2.32,-0.0202,-0.0420,0.3289
15130,0.0630,-0.1241,0.3266,0.0001,0.0181,-0.0139,0.29,0.19,0.94,0,3.626,-0.143,2.761,1.304,0.003,-0.016,1.005,0.000,0.000,0.000,0.3240,0,0,-0.67,-0.48,2.42,-0.0211,-0.0411,0.3271
15181,0.0651,-0.1238,0.3246,0.0027,0.0145,-0.0164,0.28,0.09,0.99,0,3.621,-0.044,1.821,0.832,0.002,-0.015,1.008,0.000,0.000,0.000,0.3240,0,0,-0.67,-0.34,2.49,-0.0222,-0.0402,0.3257
15233,0.0652,-0.1231,0.3247,0.0020,0.0121,-0.0083,0.28,0.05,1.04,0,3.621,-1.215,0.818,1.258,0.002,-0.016,1.010,0.000,0.000,0.000,0.3240,0,0,-0.68,-0.24,2.53,-0.0233,-0.0394,0.3249
15284,0.0653,-0.1226,0.3241,0.0016,0.0097,-0.0058,0.26,0.06,1.08,0,3.621,-0.937,1.064,0.098,0.003,-0.009,1.009,0.000,0.000,0.000,0.3260,0,-1,-0.74,-0.20,2.59,-0.0245,-0.0387,0.3245
15336,0.0654,-0.1221,0.3244,0.0012,0.0075,-0.0002,0.22,0.01,1.10,0,3.626,-0.879,-0.331,-0.101,0.005,-0.011,1.006,0.000,0.000,0.000,0.3260,0,-1,-0.76,-0.10,2.59,-0.0187,-0.0423,0.3251
15388,0.0701,-0.1271,0.3252,0.0096,-0.0037,0.0063,0.26,-0.01,1.10,0,3.621,-3.643,0.111,0.091,0.008,-0.011,1.000,0.000,0.000,0.000,0.3250,0,0,-0.80,-0.11,2.58,-0.0183,-0.0422,0.3256
15440,0.0751,-0.1314,0.3259,0.0179,-0.0133,0.0105,0.16,0.00,1.09,0,3.632,-4.848,-2.869,-0.150,0.005,-0.013,0.996,0.000,0.000,0.000,0.3250,1,-1,-0.99,-0.11,2.59,-0.0178,-0.0420,0.3257
15491,0.0762,-0.1336,0.3260,0.0183,-0.0174,0.0083,-0.02,0.10,1.07,0,3.626,-3.976,-3.378,-0.922,0.005,-0.013,0.996,0.000,0.000,0.000,0.3270,0,0,-1.23,-0.27,2.60,-0.0176,-0.0427,0.3258
15542,0.0786,-0.1370,0.3263,0.0200,-0.0214,0.0077,-0.23,0.22,1.04,0,3.626,-2.473,-1.010,-0.502,0.001,-0.012,0.997,0.000,0.000,0.000,0.3270,0,0,-1.43,-0.44,2.56,-0.0172,-0.0428,0.3262
15593,0.0838,-0.1427,0.3270,0.0246,-0.0271,0.0069,-0.32,0.29,1.01,0,3.621,-3.991,-2.479,-0.360,0.002,-0.012,0.996,0.000,0.000,0.000,0.3270,0,0,-1.56,-0.49,2.53,-0.0170,-0.0425,0.3265
15645,0.0863,-0.1464,0.3257,0.0253,-0.0295,-0.0019,-0.47,0.38,0.99,0,3.626,-3.015,-2.356,-1.238,0.003,-0.009,1.002,0.000,0.000,0.000,0.3270,0,-2,-1.76,-0.62,2.52,-0.0170,-0.0418,0.3267
15696,0.0883,-0.1458,0.3262,0.0234,-0.0219,-0.0007,-0.67,0.46,0.94,0,3.621,-0.001,-1.758,-2.015,0.003,-0.014,1.002,0.000,0.000,0.000,0.3280,0,0,-1.87,-0.73,2.48,-0.0158,-0.0438,0.3271
15748,0.0926,-0.1458,0.3250,0.0251,-0.0147,-0.0063,-0.67,0.52,0.86,0,3.621,2.368,-0.352,-2.000,0.005,-0.010,1.002,0.000,0.000,0.000,0.3280,0,0,-1.87,-0.82,2.38,-0.0157,-0.0433,0.3276
15800,0.0939,-0.1477,0.3263,0.0210,-0.0113,0.0012,-0.60,0.54,0.79,0,3.621,0.058,0.127,-1.557,0.004,-0.013,0.999,0.000,0.000,0.000,0.3240,0,0,-1.75,-0.84,2.28,-0.0160,-0.0421,0.3280
15851,0.0960,-0.1465,0.3257,0.0184,-0.0031,-0.0010,-0.59,0.53,0.72,0,3.621,2.770,0.883,-2.024,0.004,-0.015,1.001,0.000,0.000,0.000,0.3240,0,0,-1.74,-0.84,2.20,-0.0165,-0.0407,0.3270
15902,0.0968,-0.1466,0.3248,0.0139,0.0018,-0.0050,-0.48,0.50,0.63,0,3.616,1.647,0.737,-1.889,0.003,-0.014,1.004,0.000,0.000,0.000,0.3240,0,0,-1.60,-0.79,2.09,-0.0173,-0.0388,0.3261
15953,0.0970,-0.1451,0.3227,0.0087,0.0082,-0.0123,-0.36,0.51,0.50,0,3.621,2.247,1.921,-2.692,0.007,-0.011,1.007,0.000,0.000,0.000,0.3240,0,0,-1.52,-0.76,1.99,-0.0184,-0.0365,0.3255
16005,0.0960,-0.1381,0.3228,0.0020,0.0235,-0.0071,-0.31,0.40,0.37,0,3.616,5.517,1.715,-2.205,0.003,-0.017,1.006,0.000,0.000,0.000,0.3200,-3,0,-1.40,-0.66,1.85,-0.0197,-0.0339,0.3252
16056,0.0985,-0.1379,0.3227,0.0034,0.0240,-0.0030,-0.01,0.27,0.26,0,3.621,6.215,1.796,-1.703,0.002,-0.013,1.006,0.000,0.000,0.000,0.3200,-3,1,-1.02,-0.53,1.75,-0.0152,-0.0414,0.3243
16106,0.0964,-0.1348,0.3213,-0.0030,0.0273,-0.0062,0.26,0.17,0.16,0,3.616,1.722,1.294,-1.822,0.007,-0.010,1.004,0.000,0.000,0.000,0.3170,-1,1,-0.73,-0.45,1.66,-0.0156,-0.0403,0.3239
16158,0.0957,-0.1288,0.3214,-0.0053,0.0340,-0.0019,0.30,0.08,0.07,0,3.616,5.937,1.285,-2.348,-0.002,-0.016,1.000,0.000,0.000,0.000,0.3170,-1,0,-0.63,-0.39,1.57,-0.0162,-0.0396,0.3220
16210,0.0941,-0.1267,0.3191,-0.0085,0.0322,-0.0101,0.49,0.02,-0.03,0,3.616,1.290,0.216,-2.778,0.002,-0.018,1.007,0.000,0.000,0.000,0.3180,0,0,-0.32,-0.31,1.44,-0.0162,-0.0390,0.3204
16260,0.0929,-0.1238,0.3202,-0.0101,0.0307,-0.0004,0.60,-0.02,-0.15,0,3.616,0.171,0.304,-1.829,0.007,-0.010,1.011,0.000,0.000,0.000,0.3180,0,0,-0.25,-0.30,1.29,-0.0166,-0.0387,0.3196
16312,0.0924,-0.1223,0.3191,-0.0100,0.0257,-0.0015,0.57,-0.04,-0.27,0,3.616,-2.356,-1.258,-3.382,0.006,-0.014,1.011,0.000,0.000,0.000,0.3200,0,0,-0.24,-0.28,1.20,-0.0170,-0.0385,0.3193
16363,0.0926,-0.1220,0.3191,-0.0084,0.0192,0.0023,0.54,-0.10,-0.42,0,3.621,-0.323,1.895,-2.144,0.006,-0.011,1.005,0.000,0.000,0.000,0.3200,1,0,-0.37,-0.35,1.03,-0.0174,-0.0385,0.3199
16413,0.0948,-0.1225,0.3197,-0.0029,0.0120,0.0072,0.51,-0.16,-0.53,0,3.616,-1.719,-0.303,-1.448,0.007,-0.012,1.001,0.000,0.000,0.000,0.3230,0,-2,-0.38,-0.24,0.90,-0.0167,-0.0387,0.3205
16465,0.0951,-0.1268,0.3208,-0.0008,-0.0013,0.0124,0.43,-0.13,-0.63,0,3.621,-4.040,-1.303,-2.535,0.005,-0.011,1.002,0.000,0.000,0.000,0.3230,2,-1,-0.47,-0.24,0.79,-0.0159,-0.0388,0.3218
16516,0.0988,-0.1270,0.3225,0.0069,-0.0050,0.0179,0.24,-0.04,-0.75,0,3.616,-4.408,-1.661,-1.570,0.004,-0.013,0.995,0.000,0.000,0.000,0.3220,0,0,-0.66,-0.31,0.67,-0.0153,-0.0399,0.3230
16568,0.1002,-0.1316,0.3230,0.0093,-0.0151,0.0153,0.03,0.04,-0.83,0,3.621,-4.573,-1.608,-0.944,0.006,-0.007,1.000,0.000,0.000,0.000,0.3220,3,0,-0.88,-0.39,0.59,-0.0147,-0.0407,0.3234
16619,0.0998,-0.1351,0.3232,0.0074,-0.0205,0.0109,-0.11,0.13,-0.89,0,3.616,-3.966,-0.858,-0.058,0.006,-0.006,0.992,0.000,0.000,0.000,0.3230,1,-1,-1.11,-0.49,0.56,-0.0151,-0.0420,0.3236
16671,0.1019,-0.1404,0.3230,0.0095,-0.0277,0.0059,-0.29,0.15,-0.91,0,3.621,-5.300,-1.493,0.413,0.006,-0.013,0.996,0.000,0.000,0.000,0.3230,0,-2,-1.31,-0.53,0.56,-0.0147,-0.0426,0.3239
16721,0.1044,-0.1424,0.3232,0.0123,-0.0262,0.0033,-0.50,0.18,-0.89,0,3.616,-2.176,-4.014,0.945,0.005,-0.008,0.995,0.000,0.000,0.000,0.3230,-1,-1,-1.59,-0.58,0.60,-0.0135,-0.0427,0.3238
16773,0.1080,-0.1445,0.3217,0.0165,-0.0237,-0.0049,-0.58,0.34,-0.84,0,3.616,-2.979,-1.804,0.661,0.004,-0.013,1.001,0.000,0.000,0.000,0.3230,0,0,-1.71,-0.78,0.65,-0.0128,-0.0420,0.3236
16824,0.1094,-0.1465,0.3221,0.0149,-0.0205,-0.0016,-0.70,0.44,-0.81,0,3.616,1.813,-0.614,0.879,0.005,-0.009,1.003,0.000,0.000,0.000,0.3210,0,0,-1.87,-0.87,0.69,-0.0124,-0.0410,0.3235
16876,0.1119,-0.1467,0.3230,0.0149,-0.0133,0.0031,-0.65,0.44,-0.78,0,3.616,1.410,0.828,0.174,0.005,-0.006,1.006,0.000,0.000,0.000,0.3210,-1,0,-1.77,-0.90,0.74,-0.0122,-0.0394,0.3229
16927,0.1146,-0.1484,0.3221,0.0154,-0.0101,-0.0019,-0.56,0.43,-0.77,0,3.611,1.249,-3.757,1.056,0.007,-0.012,1.000,0.000,0.000,0.000,0.3190,-1,0,-1.63,-0.86,0.69,-0.0120,-0.0421,0.3229
16978,0.1165,-0.1476,0.3210,0.0143,-0.0031,-0.0063,-0.60,0.68,-0.70,0,3.611,-26.581,-46.744,0.465,0.007,-0.012,1.005,0.000,0.000,0.000,0.3190,1,-6,-1.57,-1.04,0.76,-0.0121,-0.0414,0.3219
17029,0.1151,-0.1435,0.3197,0.0036,0.0110,-0.0102,-1.84,2.74,-0.62,0,3.605,-14.220,-38.811,2.196,0.002,-0.011,1.004,0.000,0.000,0.000,0.3210,0,-1,-2.90,-3.34,0.96,-0.0090,-0.0417,0.3230
17081,0.1199,-0.1423,0.3195,-0.0096,0.0273,-0.0075,-2.60,4.66,-0.44,0,3.611,3.858,0.635,1.228,0.003,-0.015,1.009,0.000,0.000,0.000,0.3210,0,1,-3.61,-5.31,1.08,-0.0084,-0.0416,0.3232
17131,0.1178,-0.1398,0.3199,-0.0500,0.0510,-0.0032,-2.45,4.73,-0.35,0,3.616,6.178,4.143,1.684,0.011,-0.013,1.000,0.000,0.000,0.000,0.3190,0,1,-3.37,-5.26,0.93,-0.0090,-0.0414,0.3239
17183,0.1129,-0.1372,0.3203,-0.0937,0.0712,-0.0009,-2.15,4.50,-0.28,0,3.616,1.791,4.652,2.324,0.012,-0.014,1.002,0.000,0.000,0.000,0.3190,-1,1,-3.02,-5.01,0.88,-0.0099,-0.0413,0.3241
17233,0.1068,-0.1321,0.3195,-0.1336,0.0931,-0.0053,-1.99,4.31,-0.19,0,3.605,9.559,14.046,0.634,0.011,-0.017,0.998,0.000,0.000,0.000,0.3160,-1,5,-2.91,-4.70,1.05,-0.0105,-0.0407,0.3241
17285,0.1007,-0.1274,0.3180,-0.1673,0.1093,-0.0119,-1.55,3.60,-0.12,0,3.611,15.865,19.271,1.789,0.013,-0.019,1.005,0.000,0.000,0.000,0.3160,0,4,-2.39,-3.99,0.82,-0.0137,-0.0400,0.3223
17335,0.0899,-0.1215,0.3164,-0.2017,0.1230,-0.0151,-0.86,2.60,-0.07,0,3.605,12.555,19.515,1.180,0.018,-0.019,1.008,0.000,0.000,0.000,0.3140,-6,9,-1.53,-2.94,0.73,-0.0159,-0.0402,0.3211
17387,0.0801,-0.1184,0.3151,-0.2219,0.1234,-0.0155,-0.24,1.53,-0.01,0,3.605,9.517,20.663,0.420,0.014,-0.022,1.010,0.000,0.000,0.000,0.3140,-4,9,-0.97,-1.99,1.10,-0.0221,-0.0365,0.3199
17437,0.0684,-0.1122,0.3139,-0.2355,0.1255,-0.0134,0.22,0.50,0.05,0,3.605,7.819,22.571,0.962,0.013,-0.013,1.013,0.000,0.000,0.000,0.3130,-2,4,-0.48,-0.92,1.11,-0.0276,-0.0342,0.3186
17488,0.0549,-0.1058,0.3125,-0.2436,0.1242,-0.0113,0.60,-0.51,0.11,0,3.605,8.132,22.782,0.403,0.009,-0.021,1.008,0.000,0.000,0.000,0.3130,-4,6,-0.06,0.28,1.06,-0.0302,-0.0329,0.3175
17540,0.0429,-0.1005,0.3124,-0.2379,0.1164,-0.0042,1.06,-1.60,0.12,0,3.605,5.701,14.897,-0.613,0.013,-0.018,1.011,0.000,0.000,0.000,0.3110,-1,3,0.33,1.44,1.07,-0.0341,-0.0304,0.3169
17591,0.0311,-0.0948,0.3111,-0.2249,0.1074,-0.0042,1.36,-2.31,0.12,0,3.605,1.900,10.330,-1.203,0.007,-0.018,1.015,0.000,0.000,0.000,0.3110,-4,2,0.64,2.23,1.05,-0.0358,-0.0299,0.3154
17642,0.0217,-0.0919,0.3110,-0.2013,0.0897,0.0015,1.50,-2.73,0.07,0,3.605,0.550,5.177,-2.382,0.010,-0.020,1.006,0.000,0.000,0.000,0.3130,-2,4,0.67,2.76,0.74,-0.0369,-0.0272,0.3152
17693,0.0153,-0.0876,0.3122,-0.1681,0.0765,0.0101,1.51,-3.09,-0.01,0,3.611,-1.528,1.574,-2.019,0.005,-0.021,1.007,0.000,0.000,0.000,0.3130,0,2,0.69,2.96,0.77,-0.0395,-0.0261,0.3160
17745,0.0080,-0.0846,0.3132,-0.1396,0.0620,0.0156,1.46,-3.17,-0.13,0,3.611,-2.916,-3.004,-2.558,0.009,-0.012,1.006,0.000,0.000,0.000,0.3140,0,0,0.62,3.01,0.82,-0.0409,-0.0262,0.3161
17795,0.0013,-0.0818,0.3164,-0.1137,0.0498,0.0276,1.30,-3.08,-0.25,0,3.611,-3.002,-3.890,-2.103,0.006,-0.014,0.997,0.000,0.000,0.000,0.3140,-1,1,0.46,2.86,0.68,-0.0400,-0.0267,0.3163
17847,-0.0041,-0.0797,0.3164,-0.0887,0.0386,0.0196,1.10,-2.94,-0.37,0,3.605,-4.133,-4.356,-1.906,0.005,-0.015,0.994,0.000,0.000,0.000,0.3150,0,0,0.26,2.58,0.53,-0.0425,-0.0252,0.3173
17898,-0.0079,-0.0783,0.3155,-0.0640,0.0281,0.0087,0.94,-2.72,-0.48,0,3.611,-4.096,-6.567,-1.267,0.010,-0.009,0.997,0.000,0.000,0.000,0.3150,2,-2,0.04,2.36,0.43,-0.0412,-0.0255,0.3172
17949,-0.0097,-0.0772,0.3156,-0.0386,0.0199,0.0052,0.80,-2.41,-0.57,0,3.605,-5.155,-8.107,-0.887,0.003,-0.012,0.998,0.000,0.000,0.000,0.3170,1,-1,-0.16,1.96,0.54,-0.0419,-0.0263,0.3172
18000,-0.0082,-0.0778,0.3145,-0.0104,0.0095,-0.0020,0.52,-1.90,-0.65,0,3.605,-5.718,-13.219,-0.954,0.006,-0.010,0.999,0.000,0.000,0.000,0.3170,1,-2,-0.43,1.53,0.52,-0.0409,-0.0271,0.3174
18051,-0.0052,-0.0789,0.3156,0.0148,0.0006,0.0017,0.29,-1.41,-0.69,0,3.605,-3.568,-12.930,-1.068,0.001,-0.009,1.000,0.000,0.000,0.000,0.3160,3,-3,-0.72,0.84,0.48,-0.0395,-0.0277,0.3175
18102,-0.0033,-0.0780,0.3153,0.0281,0.0013,-0.0000,-0.00,-0.75,-0.73,0,3.605,-2.092,-9.084,0.683,0.001,-0.013,0.997,0.000,0.000,0.000,0.3160,0,-1,-0.88,0.17,0.54,-0.0376,-0.0296,0.3174
18153,-0.0001,-0.0795,0.3157,0.0378,-0.0028,0.0009,-0.12,-0.15,-0.73,0,3.600,-2.988,-14.620,0.179,0.002,-0.014,0.997,0.000,0.000,0.000,0.3140,0,-4,-1.01,-0.32,0.53,-0.0369,-0.0296,0.3171
18205,0.0021,-0.0808,0.3138,0.0389,-0.0046,-0.0078,-0.29,0.47,-0.70,0,3.605,-5.087,-10.448,0.636,0.003,-0.013,1.002,0.000,0.000,0.000,0.3140,0,-1,-1.17,-1.03,0.54,-0.0343,-0.0296,0.3164
18256,0.0046,-0.0814,0.3135,0.0356,-0.0029,-0.0075,-0.52,0.93,-0.68,0,3.600,-2.120,-2.082,1.308,0.002,-0.011,1.003,0.000,0.000,0.000,0.3140,0,-1,-1.44,-1.60,0.58,-0.0337,-0.0296,0.3155
18307,0.0076,-0.0823,0.3108,0.0317,-0.0009,-0.0164,-0.58,1.12,-0.64,0,3.600,1.479,-3.936,-0.001,0.001,-0.013,1.003,0.000,0.000,0.000,0.3140,0,-2,-1.54,-1.69,0.64,-0.0331,-0.0296,0.3150
18358,0.0097,-0.0822,0.3116,0.0234,0.0046,-0.0077,-0.62,1.41,-0.60,0,3.605,-1.309,3.722,1.647,0.005,-0.010,1.006,0.000,0.000,0.000,0.3100,0,0,-1.45,-1.87,0.66,-0.0318,-0.0296,0.3149
18410,0.0119,-0.0818,0.3121,0.0148,0.0101,-0.0022,-0.66,1.38,-0.54,0,3.605,0.020,-0.384,0.943,0.006,-0.014,1.009,0.000,0.000,0.000,0.3100,0,-1,-1.52,-1.67,0.74,-0.0318,-0.0290,0.3134
18461,0.0115,-0.0815,0.3110,0.0006,0.0149,-0.0042,-0.57,1.39,-0.48,0,3.600,-0.608,1.330,1.449,0.007,-0.012,1.003,0.000,0.000,0.000,0.3140,-2,2,-1.49,-1.66,0.74,-0.0306,-0.0298,0.3126
18512,0.0106,-0.0812,0.3093,-0.0131,0.0183,-0.0093,-0.49,1.35,-0.42,0,3.605,2.025,5.211,0.746,0.008,-0.013,1.005,0.000,0.000,0.000,0.3140,0,1,-1.54,-1.61,0.83,-0.0317,-0.0287,0.3131
18563,0.0057,-0.0780,0.3113,-0.0348,0.0277,0.0035,-0.38,1.06,-0.38,0,3.600,2.824,9.767,2.261,0.001,-0.012,0.998,0.000,0.000,0.000,0.3100,-1,2,-1.41,-1.33,0.82,-0.0324,-0.0286,0.3138
18615,0.0029,-0.0762,0.3113,-0.0454,0.0316,0.0041,-0.17,0.63,-0.30,0,3.605,4.549,8.934,2.044,0.008,-0.013,1.002,0.000,0.000,0.000,0.3100,-1,2,-1.27,-0.82,0.91,-0.0337,-0.0279,0.3129
18666,-0.0026,-0.0753,0.3109,-0.0580,0.0308,0.0026,0.11,0.21,-0.22,0,3.605,1.606,9.949,0.850,0.008,-0.018,1.000,0.000,0.000,0.000,0.3110,-3,3,-1.03,-0.35,1.01,-0.0350,-0.0274,0.3121
18718,-0.0058,-0.0748,0.3121,-0.0597,0.0269,0.0083,0.20,-0.23,-0.17,0,3.605,1.726,8.028,0.353,0.005,-0.014,1.000,0.000,0.000,0.000,0.3110,0,3,-0.97,0.14,1.04,-0.0369,-0.0255,0.3119
18769,-0.0109,-0.0711,0.3120,-0.0621,0.0309,0.0064,0.26,-0.67,-0.15,0,3.600,3.085,8.760,0.650,0.005,-0.012,1.000,0.000,0.000,0.000,0.3130,0,2,-0.85,0.55,1.08,-0.0388,-0.0256,0.3118
18820,-0.0153,-0.0723,0.3123,-0.0590,0.0217,0.0059,0.41,-1.05,-0.14,0,3.600,-1.581,7.758,0.595,0.008,-0.016,0.996,0.000,0.000,0.000,0.3130,0,2,-0.67,1.00,1.13,-0.0401,-0.0256,0.3121
18871,-0.0197,-0.0696,0.3129,-0.0533,0.0219,0.0061,0.47,-1.41,-0.12,0,3.600,0.602,4.686,0.052,0.006,-0.012,0.999,0.000,0.000,0.000,0.3110,0,0,-0.75,1.39,1.17,-0.0414,-0.0256,0.3124
18922,-0.0228,-0.0695,0.3127,-0.0426,0.0156,0.0031,0.48,-1.68,-0.11,0,3.600,-0.646,1.440,-0.041,0.009,-0.011,1.000,0.000,0.000,0.000,0.3110,0,1,-0.72,1.62,1.17,-0.0417,-0.0255,0.3119
18974,-0.0255,-0.0691,0.3120,-0.0301,0.0110,-0.0017,0.44,-1.84,-0.11,0,3.595,1.933,-4.432,-1.548,0.001,-0.012,1.000,0.000,0.000,0.000,0.3100,0,0,-0.75,1.67,1.21,-0.0429,-0.0257,0.3117
19024,-0.0272,-0.0687,0.3093,-0.0153,0.0068,-0.0136,0.46,-1.76,-0.14,0,3.600,-2.608,-3.695,0.843,0.007,-0.011,1.002,0.000,0.000,0.000,0.3100,0,0,-0.65,1.43,1.13,-0.0424,-0.0257,0.3110
19075,-0.0259,-0.0683,0.3090,0.0037,0.0035,-0.0105,0.40,-1.65,-0.14,0,3.595,-0.647,-4.441,-0.370,0.003,-0.010,1.006,0.000,0.000,0.000,0.3070,0,-1,-0.78,1.25,1.17,-0.0410,-0.0256,0.3105
19126,-0.0248,-0.0678,0.3065,0.0188,0.0013,-0.0166,0.30,-1.42,-0.15,0,3.595,-0.707,-4.087,0.037,0.005,-0.008,1.009,0.000,0.000,0.000,0.3070,3,-1,-0.80,0.96,1.21,-0.0429,-0.0259,0.3096
19177,-0.0211,-0.0677,0.3060,0.0362,-0.0010,-0.0110,0.24,-1.12,-0.14,0,3.589,-3.288,-11.328,1.543,0.002,-0.014,1.008,0.000,0.000,0.000,0.3080,0,0,-0.80,0.75,1.32,-0.0422,-0.0270,0.3088
19229,-0.0187,-0.0704,0.3051,0.0461,-0.0087,-0.0093,0.15,-0.73,-0.10,0,3.595,-2.416,-9.919,1.288,0.005,-0.013,1.008,0.000,0.000,0.000,0.3080,0,-1,-0.97,0.18,1.41,-0.0411,-0.0279,0.3087
19280,-0.0147,-0.0716,0.3062,0.0550,-0.0116,0.0017,0.01,-0.23,-0.05,0,3.595,-4.000,-7.616,0.874,0.004,-0.008,1.010,0.000,0.000,0.000,0.3050,0,0,-1.12,-0.37,1.45,-0.0415,-0.0273,0.3088
19332,-0.0126,-0.0710,0.3063,0.0548,-0.0088,0.0064,-0.15,0.14,0.01,0,3.595,-0.683,-8.250,0.689,0.004,-0.011,1.006,0.000,0.000,0.000,0.3050,0,-2,-1.32,-0.76,1.50,-0.0412,-0.0271,0.3081
19384,-0.0067,-0.0726,0.3061,0.0601,-0.0099,0.0072,-0.18,0.48,0.05,0,3.600,-4.304,-5.885,0.696,0.007,-0.011,1.000,0.000,0.000,0.000,0.3080,1,-4,-1.34,-1.17,1.55,-0.0403,-0.0274,0.3079
19435,-0.0054,-0.0726,0.3095,0.0515,-0.0070,0.0225,-0.35,0.82,0.08,0,3.600,-1.359,-1.749,0.547,0.001,-0.009,1.001,0.000,0.000,0.000,0.3080,-1,0,-1.55,-1.43,1.59,-0.0385,-0.0276,0.3085
19487,0.0001,-0.0744,0.3099,0.0508,-0.0070,0.0203,-0.44,0.95,0.11,0,3.595,-0.313,-5.030,-0.285,0.001,-0.010,0.998,0.000,0.000,0.000,0.3060,0,-2,-1.63,-1.54,1.62,-0.0384,-0.0270,0.3089
19537,0.0021,-0.0734,0.3082,0.0415,-0.0006,0.0078,-0.42,1.21,0.09,0,3.595,1.542,-2.479,-0.195,0.005,-0.009,1.003,0.000,0.000,0.000,0.3060,0,0,-1.62,-1.77,1.60,-0.0372,-0.0270,0.3088
19589,0.0049,-0.0735,0.3075,0.0332,0.0026,0.0025,-0.40,1.32,0.08,0,3.595,0.868,-1.691,-0.863,0.004,-0.010,1.000,0.000,0.000,0.000,0.3100,0,0,-1.54,-1.89,1.60,-0.0373,-0.0261,0.3083
19640,0.0059,-0.0728,0.3079,0.0210,0.0071,0.0043,-0.37,1.34,0.06,0,3.600,4.117,1.987,-1.020,0.002,-0.015,1.000,0.000,0.000,0.000,0.3100,-1,2,-1.50,-1.98,1.55,-0.0381,-0.0248,0.3091
19691,0.0066,-0.0730,0.3092,0.0095,0.0087,0.0084,-0.29,1.25,0.03,0,3.589,2.152,4.021,-0.689,0.008,-0.013,0.999,0.000,0.000,0.000,0.3080,0,2,-1.24,-1.84,1.40,-0.0368,-0.0264,0.3102
19742,0.0035,-0.0701,0.3084,-0.0083,0.0162,0.0026,-0.14,1.05,-0.02,0,3.600,4.108,7.082,-0.203,0.002,-0.010,1.004,0.000,0.000,0.000,0.3080,0,0,-1.12,-1.64,1.33,-0.0380,-0.0262,0.3099
19793,0.0014,-0.0676,0.3083,-0.0196,0.0207,0.0020,0.03,0.66,-0.02,0,3.589,4.989,5.032,-0.065,0.007,-0.014,1.002,0.000,0.000,0.000,0.3050,0,0,-0.91,-1.28,1.32,-0.0398,-0.0258,0.3098
19845,-0.0027,-0.0648,0.3093,-0.0312,0.0244,0.0068,0.20,0.37,-0.04,0,3.589,4.613,8.308,-0.150,0.007,-0.012,1.005,0.000,0.000,0.000,0.3050,0,0,-0.65,-1.02,1.31,-0.0420,-0.0253,0.3087
19895,-0.0054,-0.0626,0.3075,-0.0362,0.0244,-0.0017,0.37,-0.03,-0.03,0,3.589,3.324,8.539,0.191,0.007,-0.008,1.007,0.000,0.000,0.000,0.3050,-4,2,-0.41,-0.59,1.30,-0.0445,-0.0249,0.3079
19946,-0.0115,-0.0598,0.3067,-0.0446,0.0244,-0.0028,0.52,-0.44,0.00,0,3.589,4.990,6.054,0.117,0.007,-0.010,1.002,0.000,0.000,0.000,0.3050,0,1,-0.25,-0.08,1.28,-0.0407,-0.0239,0.3076
19997,-0.0140,-0.0583,0.3058,-0.0409,0.0199,-0.0040,0.74,-0.79,0.02,0,3.584,2.593,6.319,-0.364,0.004,-0.015,1.005,0.000,0.000,0.000,0.3070,0,3,0.01,0.22,1.30,-0.0411,-0.0238,0.3072
20049,-0.0154,-0.0561,0.3068,-0.0325,0.0160,0.0044,0.90,-1.08,0.02,0,3.595,1.766,1.681,-0.430,0.007,-0.011,1.004,0.000,0.000,0.000,0.3070,-4,2,0.14,0.50,1.35,-0.0427,-0.0239,0.3079
20100,-0.0187,-0.0562,0.3072,-0.0269,0.0065,0.0072,0.94,-1.25,-0.00,0,3.589,2.055,1.680,-0.983,0.002,-0.010,1.002,0.000,0.000,0.000,0.3070,-1,1,0.17,0.58,1.24,-0.0439,-0.0215,0.3084
20150,-0.0210,-0.0535,0.3085,-0.0186,0.0038,0.0134,1.00,-1.32,-0.05,0,3.595,0.343,2.536,-1.499,0.004,-0.006,1.002,0.000,0.000,0.000,0.3070,0,0,0.28,0.67,1.20,-0.0445,-0.0209,0.3085
20201,-0.0216,-0.0536,0.3083,-0.0093,-0.0033,0.0104,1.01,-1.45,-0.11,0,3.589,-2.437,-0.316,-2.103,0.004,-0.010,0.997,0.000,0.000,0.000,0.3050,1,0,0.30,0.80,1.13,-0.0448,-0.0205,0.3086
20253,-0.0207,-0.0545,0.3081,0.0053,-0.0132,0.0072,0.90,-1.44,-0.20,0,3.595,-4.132,-6.550,-2.139,0.003,-0.011,1.004,0.000,0.000,0.000,0.3050,1,-2,0.19,0.78,1.06,-0.0450,-0.0212,0.3079
20305,-0.0180,-0.0551,0.3069,0.0223,-0.0203,0.0010,0.71,-1.21,-0.31,0,3.584,-3.722,-9.757,-1.758,0.001,-0.010,1.002,0.000,0.000,0.000,0.3020,0,-1,-0.03,0.45,0.92,-0.0439,-0.0218,0.3074
20357,-0.0122,-0.0592,0.3065,0.0426,-0.0329,0.0004,0.54,-0.76,-0.42,0,3.589,-5.853,-11.445,-2.077,0.002,-0.006,1.005,0.000,0.000,0.000,0.3020,1,-3,-0.24,-0.07,0.81,-0.0432,-0.0218,0.3060
20407,-0.0082,-0.0616,0.3044,0.0526,-0.0389,-0.0084,0.27,-0.28,-0.52,0,3.589,-6.883,-8.904,-2.120,0.003,-0.007,1.008,0.000,0.000,0.000,0.3040,1,-3,-0.54,-0.64,0.68,-0.0414,-0.0224,0.3050
20458,-0.0016,-0.0643,0.3060,0.0623,-0.0419,0.0042,-0.04,0.12,-0.64,0,3.589,-3.903,-11.622,-2.524,-0.000,-0.009,1.006,0.000,0.000,0.000,0.3040,0,-1,-0.88,-1.07,0.56,-0.0395,-0.0230,0.3050
20509,0.0038,-0.0663,0.3053,0.0652,-0.0410,0.0036,-0.22,0.68,-0.78,0,3.584,-3.664,-10.742,-2.658,0.002,-0.006,1.007,0.000,0.000,0.000,0.3020,0,0,-1.08,-1.68,0.45,-0.0389,-0.0230,0.3050
20560,0.0078,-0.0688,0.3043,0.0606,-0.0397,0.0020,-0.40,1.15,-0.91,0,3.589,-4.268,-5.237,-3.354,0.004,-0.008,1.009,0.000,0.000,0.000,0.3020,0,-1,-1.27,-2.23,0.33,-0.0388,-0.0228,0.3045
20611,0.0119,-0.0704,0.3033,0.0565,-0.0370,-0.0006,-0.57,1.39,-1.08,0,3.584,-0.062,-7.773,-4.597,0.001,-0.011,1.005,0.000,0.000,0.000,0.3020,0,0,-1.46,-2.47,0.13,-0.0376,-0.0232,0.3047
20662,0.0152,-0.0716,0.3038,0.0426,-0.0289,0.0048,-0.57,1.68,-1.30,0,3.589,1.265,-2.527,-5.730,0.004,-0.009,1.011,0.000,0.000,0.000,0.3020,0,-2,-1.45,-2.87,-0.10,-0.0384,-0.0228,0.3045
20713,0.0190,-0.0737,0.3032,0.0362,-0.0270,0.0050,-0.48,1.82,-1.57,0,3.589,-3.044,1.672,-6.004,0.004,-0.011,1.001,0.000,0.000,0.000,0.3080,2,0,-1.35,-2.92,-0.41,-0.0363,-0.0232,0.3055
20764,0.0216,-0.0747,0.3054,0.0231,-0.0218,0.0169,-0.57,1.75,-1.87,0,3.589,2.206,1.862,-5.899,0.004,-0.008,1.005,0.000,0.000,0.000,0.3080,0,0,-1.45,-2.83,-0.86,-0.0365,-0.0238,0.3071
20815,0.0212,-0.0754,0.3075,0.0054,-0.0156,0.0240,-0.53,1.71,-2.15,0,3.589,3.154,5.751,-5.553,0.005,-0.007,0.995,0.000,0.000,0.000,0.3100,0,0,-1.32,-2.74,-1.16,-0.0382,-0.0238,0.3086
20867,0.0199,-0.0751,0.3097,-0.0120,-0.0086,0.0287,-0.35,1.49,-2.44,0,3.595,1.868,8.728,-4.893,0.002,-0.008,0.992,0.000,0.000,0.000,0.3100,0,1,-1.15,-2.46,-1.45,-0.0410,-0.0233,0.3101
20918,0.0171,-0.0746,0.3111,-0.0291,-0.0029,0.0267,-0.27,1.12,-2.70,0,3.584,2.603,7.468,-4.090,0.006,-0.007,0.993,0.000,0.000,0.000,0.3100,-1,2,-1.02,-1.89,-1.72,-0.0366,-0.0243,0.3120
20970,0.0156,-0.0742,0.3112,-0.0382,0.0010,0.0171,-0.21,0.77,-2.90,0,3.595,3.168,3.178,-2.403,0.006,-0.010,0.995,0.000,0.000,0.000,0.3100,-1,1,-0.88,-1.52,-1.92,-0.0378,-0.0237,0.3125
21021,0.0105,-0.0717,0.3113,-0.0515,0.0082,0.0116,-0.03,0.48,-3.02,0,3.584,3.188,7.987,-1.731,0.004,-0.011,0.995,0.000,0.000,0.000,0.3100,-2,1,-0.72,-1.33,-2.05,-0.0385,-0.0231,0.3124
21073,0.0098,-0.0719,0.3101,-0.0510,0.0074,0.0012,0.09,0.08,-3.10,0,3.589,1.938,7.410,-1.029,0.010,-0.007,1.002,0.000,0.000,0.000,0.3100,0,2,-0.56,-0.91,-2.12,-0.0392,-0.0219,0.3121
21124,0.0048,-0.0699,0.3101,-0.0570,0.0102,0.0003,0.18,-0.31,-3.13,0,3.584,2.455,3.616,0.727,0.005,-0.011,1.002,0.000,0.000,0.000,0.3060,0,1,-0.44,-0.52,-2.20,-0.0404,-0.0218,0.3120
21176,0.0013,-0.0684,0.3085,-0.0561,0.0109,-0.0053,0.26,-0.55,-3.09,0,3.584,1.166,6.560,1.680,0.007,-0.009,1.005,0.000,0.000,0.000,0.3060,0,2,-0.31,-0.32,-2.18,-0.0410,-0.0218,0.3105
21226,-0.0011,-0.0670,0.3070,-0.0508,0.0102,-0.0092,0.33,-0.82,-3.02,0,3.579,1.220,3.117,2.557,0.006,-0.011,1.006,0.000,0.000,0.000,0.3110,0,0,-0.25,0.01,-2.09,-0.0421,-0.0218,0.3094
21277,-0.0042,-0.0687,0.3077,-0.0456,0.0022,-0.0024,0.40,-0.97,-2.90,0,3.589,-0.320,-0.258,3.608,0.006,-0.007,1.007,0.000,0.000,0.000,0.3110,1,0,-0.19,0.17,-1.96,-0.0431,-0.0219,0.3102
21329,-0.0065,-0.0687,0.3093,-0.0378,-0.0016,0.0067,0.36,-0.95,-2.73,0,3.584,-3.302,-0.694,3.691,0.008,-0.010,1.001,0.000,0.000,0.000,0.3100,0,-1,-0.20,0.18,-1.80,-0.0425,-0.0223,0.3110
21379,-0.0075,-0.0722,0.3090,-0.0284,-0.0126,0.0052,0.24,-0.90,-2.54,0,3.589,-0.415,-4.641,3.002,0.007,-0.008,1.002,0.000,0.000,0.000,0.3100,1,0,-0.38,0.15,-1.64,-0.0419,-0.0224,0.3112
21430,-0.0052,-0.0721,0.3097,-0.0128,-0.0134,0.0078,0.11,-0.77,-2.38,0,3.584,-4.404,-2.950,2.748,0.008,-0.011,1.001,0.000,0.000,0.000,0.3120,0,0,-0.39,-0.10,-1.46,-0.0419,-0.0230,0.3115
21481,-0.0033,-0.0764,0.3097,-0.0012,-0.0225,0.0060,-0.10,-0.64,-2.26,0,3.589,-6.598,-1.724,1.948,0.005,-0.006,1.002,0.000,0.000,0.000,0.3120,3,-2,-0.62,-0.25,-1.31,-0.0414,-0.0236,0.3122
21532,-0.0031,-0.0777,0.3111,0.0044,-0.0220,0.0108,-0.39,-0.37,-2.16,0,3.584,-4.180,-7.962,2.366,0.001,-0.010,1.001,0.000,0.000,0.000,0.3090,0,0,-0.94,-0.33,-1.20,-0.0407,-0.0250,0.3128
21583,0.0004,-0.0792,0.3095,0.0147,-0.0195,0.0006,-0.59,-0.04,-2.10,0,3.589,-4.267,-7.332,0.393,-0.001,-0.010,1.001,0.000,0.000,0.000,0.3090,0,-2,-1.15,-0.73,-1.07,-0.0402,-0.0257,0.3123
21634,0.0024,-0.0833,0.3093,0.0177,-0.0212,-0.0005,-0.71,0.24,-2.08,0,3.579,-0.283,-4.031,-1.094,0.002,-0.010,1.006,0.000,0.000,0.000,0.3080,1,0,-1.39,-1.09,-1.05,-0.0393,-0.0254,0.3118
21686,0.0077,-0.0821,0.3056,0.0248,-0.0108,-0.0154,-0.75,0.52,-2.11,0,3.584,-0.554,-8.531,-1.804,0.005,-0.011,1.008,0.000,0.000,0.000,0.3080,0,-1,-1.38,-1.30,-1.11,-0.0393,-0.0258,0.3113
21736,0.0088,-0.0819,0.3062,0.0205,-0.0027,-0.0058,-0.75,0.89,-2.18,0,3.579,5.163,-3.967,-2.425,0.004,-0.006,1.009,0.000,0.000,0.000,0.3080,0,-2,-1.41,-1.72,-1.18,-0.0388,-0.0258,0.3110
21788,0.0126,-0.0824,0.3060,0.0191,0.0029,-0.0015,-0.58,1.07,-2.28,0,3.584,6.198,-1.856,-1.534,0.003,-0.013,1.007,0.000,0.000,0.000,0.3080,-1,0,-1.14,-1.89,-1.28,-0.0376,-0.0258,0.3110
21838,0.0143,-0.0799,0.3070,0.0120,0.0131,0.0066,-0.35,1.20,-2.39,0,3.579,3.154,0.029,-2.078,0.007,-0.009,1.002,0.000,0.000,0.000,0.3060,-1,0,-0.81,-1.98,-1.34,-0.0376,-0.0252,0.3109
21890,0.0129,-0.0788,0.3059,-0.0021,0.0173,0.0028,-0.16,1.19,-2.50,0,3.584,6.835,3.000,-1.980,0.008,-0.010,1.006,0.000,0.000,0.000,0.3060,0,0,-0.65,-1.97,-1.44,-0.0377,-0.0246,0.3102
21941,0.0149,-0.0758,0.3061,-0.0073,0.0233,0.0049,0.16,1.04,-2.61,0,3.579,5.066,2.583,-1.478,0.005,-0.015,1.005,0.000,0.000,0.000,0.3080,0,0,-0.29,-1.81,-1.55,-0.0387,-0.0239,0.3096
21991,0.0137,-0.0724,0.3058,-0.0174,0.0271,0.0034,0.41,0.93,-2.68,0,3.584,4.949,4.047,-1.194,0.009,-0.011,1.002,0.000,0.000,0.000,0.3080,-1,1,-0.03,-1.68,-1.62,-0.0403,-0.0234,0.3097
22043,0.0123,-0.0700,0.3071,-0.0263,0.0263,0.0087,0.63,0.76,-2.71,0,3.579,6.621,7.893,-0.653,0.004,-0.013,1.002,0.000,0.000,0.000,0.3070,0,2,0.22,-1.41,-1.74,-0.0376,-0.0232,0.3102
22094,0.0095,-0.0706,0.3059,-0.0357,0.0174,0.0020,0.88,0.44,-2.75,0,3.584,1.872,9.157,-0.717,0.002,-0.014,0.997,0.000,0.000,0.000,0.3070,0,1,0.56,-1.01,-1.75,-0.0387,-0.0233,0.3100
22145,0.0047,-0.0685,0.3065,-0.0461,0.0134,0.0034,0.84,0.10,-2.78,0,3.579,-1.760,8.291,-1.402,0.005,-0.009,0.996,0.000,0.000,0.000,0.3060,4,1,0.64,-0.52,-1.81,-0.0394,-0.0233,0.3096
22196,0.0025,-0.0676,0.3084,-0.0469,0.0068,0.0096,0.77,-0.21,-2.85,0,3.584,-3.286,5.878,-1.727,0.007,-0.009,0.995,0.000,0.000,0.000,0.3060,1,0,0.58,-0.09,-1.90,-0.0401,-0.0257,0.3086
22248,-0.0012,-0.0716,0.3076,-0.0486,-0.0081,0.0023,0.60,-0.50,-2.93,0,3.579,-6.277,2.671,-3.254,0.003,-0.008,0.993,0.000,0.000,0.000,0.3040,2,1,0.38,0.22,-2.05,-0.0401,-0.0263,0.3081
22300,-0.0029,-0.0724,0.3073,-0.0435,-0.0135,-0.0017,0.26,-0.73,-3.04,0,3.579,-3.190,1.041,-2.304,0.005,-0.007,0.999,0.000,0.000,0.000,0.3040,2,2,0.04,0.35,-2.21,-0.0408,-0.0275,0.3065
22352,-0.0027,-0.0778,0.3055,-0.0327,-0.0259,-0.0114,-0.01,-0.85,-3.15,0,3.574,-8.247,-0.898,-2.440,0.000,-0.010,1.000,0.000,0.000,0.000,0.3020,0,0,-0.13,0.38,-2.29,-0.0421,-0.0288,0.3053
22403,-0.0064,-0.0810,0.3047,-0.0301,-0.0299,-0.0128,-0.32,-0.73,-3.30,0,3.574,-8.585,0.079,-3.640,0.002,-0.008,1.001,0.000,0.000,0.000,0.3020,2,0,-0.56,0.34,-2.42,-0.0427,-0.0303,0.3036
22454,-0.0075,-0.0848,0.3028,-0.0233,-0.0325,-0.0182,-0.67,-0.72,-3.42,0,3.568,-7.550,-2.828,-2.251,0.006,-0.008,1.004,0.000,0.000,0.000,0.3010,4,1,-1.03,0.35,-2.68,-0.0423,-0.0301,0.3024
22505,-0.0073,-0.0883,0.2985,-0.0141,-0.0308,-0.0320,-1.04,-0.68,-3.53,0,3.574,-7.657,-3.948,-2.555,0.000,-0.009,1.010,0.000,0.000,0.000,0.3010,0,-1,-1.38,0.19,-2.72,-0.0429,-0.0321,0.3017
22566,-0.0091,-0.0942,0.2985,-0.0105,-0.0315,-0.0210,-1.34,-0.58,-3.64,0,3.568,-6.569,-1.121,-1.596,0.001,-0.008,1.010,0.000,0.000,0.000,0.2960,1,-1,-1.79,-0.00,-2.87,-0.0423,-0.0323,0.3010
22617,-0.0067,-0.0930,0.2969,0.0013,-0.0145,-0.0182,-1.64,-0.53,-3.73,0,3.574,2.940,-6.448,-3.206,0.003,-0.009,1.019,0.000,0.000,0.000,0.2960,0,0,-2.17,-0.07,-2.93,-0.0418,-0.0330,0.2994
22669,-0.0046,-0.0933,0.2958,0.0106,0.0001,-0.0134,-1.66,-0.34,-3.84,0,3.574,5.299,-4.446,-2.431,0.004,-0.007,1.013,0.000,0.000,0.000,0.2960,-2,-1,-2.02,-0.41,-3.08,-0.0412,-0.0326,0.2984
22721,-0.0026,-0.0929,0.2970,0.0171,0.0139,0.0017,-1.46,-0.09,-3.96,0,3.579,3.910,-3.269,-1.418,0.006,-0.012,1.011,0.000,0.000,0.000,0.2960,-3,0,-1.73,-0.64,-3.19,-0.0410,-0.0325,0.2980
22773,0.0022,-0.0909,0.2967,0.0272,0.0282,0.0050,-1.16,0.09,-4.03,0,3.574,8.433,-7.039,-0.880,0.004,-0.015,1.005,0.000,0.000,0.000,0.2950,-1,0,-1.53,-0.82,-3.27,-0.0409,-0.0308,0.2979
22824,0.0033,-0.0868,0.2957,0.0268,0.0434,0.0027,-0.81,0.29,-4.06,0,3.574,8.046,-5.506,0.233,0.005,-0.016,1.010,0.000,0.000,0.000,0.2950,-2,-1,-1.07,-1.18,-3.30,-0.0409,-0.0301,0.2976
22875,0.0052,-0.0842,0.2955,0.0255,0.0503,0.0055,-0.38,0.57,-4.06,0,3.574,10.010,0.679,0.585,0.001,-0.014,1.008,0.000,0.000,0.000,0.2990,-1,-1,-0.66,-1.44,-3.27,-0.0403,-0.0290,0.2976
22926,0.0063,-0.0802,0.2977,0.0201,0.0564,0.0180,0.08,0.64,-4.03,0,3.579,8.402,-1.661,0.464,0.001,-0.013,1.009,0.000,0.000,0.000,0.2990,-4,0,-0.14,-1.38,-3.25,-0.0397,-0.0283,0.2989
22978,0.0097,-0.0785,0.2993,0.0200,0.0532,0.0244,0.45,0.71,-3.99,0,3.579,9.607,-1.271,1.106,0.004,-0.010,1.002,0.000,0.000,0.000,0.3020,0,-1,0.25,-1.46,-3.17,-0.0396,-0.0259,0.3004
23029,0.0105,-0.0748,0.3029,0.0134,0.0514,0.0369,0.85,0.75,-3.93,0,3.584,2.858,-1.544,2.415,0.003,-0.009,0.997,0.000,0.000,0.000,0.3020,0,0,0.78,-1.50,-3.21,-0.0390,-0.0259,0.3022
23080,0.0117,-0.0713,0.3043,0.0081,0.0473,0.0336,0.94,0.81,-3.79,0,3.579,1.024,0.876,3.460,0.001,-0.006,0.994,0.000,0.000,0.000,0.3060,-1,0,0.92,-1.58,-3.08,-0.0395,-0.0259,0.3034
23131,0.0132,-0.0697,0.3056,0.0035,0.0383,0.0300,0.99,0.80,-3.66,0,3.584,3.363,2.163,2.816,0.007,-0.010,0.998,0.000,0.000,0.000,0.3060,-1,0,0.94,-1.50,-2.96,-0.0385,-0.0248,0.3056
23182,0.0130,-0.0674,0.3072,-0.0044,0.0313,0.0276,1.15,0.70,-3.53,0,3.574,-0.287,1.992,1.856,0.004,-0.012,0.991,0.000,0.000,0.000,0.3050,0,0,1.09,-1.38,-2.82,-0.0387,-0.0245,0.3070
23232,0.0118,-0.0666,0.3077,-0.0127,0.0204,0.0201,1.20,0.61,-3.40,0,3.579,-3.749,2.981,1.994,0.002,-0.010,0.993,0.000,0.000,0.000,0.3050,2,1,1.07,-1.28,-2.72,-0.0395,-0.0251,0.3073
23284,0.0110,-0.0667,0.3073,-0.0183,0.0086,0.0117,1.09,0.46,-3.30,0,3.574,-5.048,3.531,2.348,0.004,-0.012,0.993,0.000,0.000,0.000,0.3050,1,0,0.86,-1.10,-2.70,-0.0390,-0.0251,0.3075
23335,0.0093,-0.0682,0.3071,-0.0239,-0.0037,0.0067,0.88,0.29,-3.19,0,3.579,-3.048,4.750,2.477,0.004,-0.013,1.004,0.000,0.000,0.000,0.3050,0,1,0.58,-0.90,-2.61,-0.0392,-0.0259,0.3072
23386,0.0083,-0.0691,0.3063,-0.0257,-0.0120,0.0011,0.60,0.08,-3.07,0,3.568,-5.720,1.783,1.683,0.003,-0.008,0.999,0.000,0.000,0.000,0.3050,0,2,0.39,-0.66,-2.46,-0.0398,-0.0261,0.3070
23438,0.0079,-0.0733,0.3067,-0.0245,-0.0248,0.0033,0.32,0.01,-2.98,0,3.574,-4.484,-3.398,-0.089,0.000,-0.011,0.999,0.000,0.000,0.000,0.3050,0,0,0.07,-0.58,-2.36,-0.0411,-0.0261,0.3067
23489,0.0048,-0.0756,0.3061,-0.0290,-0.0298,0.0007,0.08,0.01,-2.91,0,3.568,-5.279,-1.929,-0.531,0.007,-0.011,1.006,0.000,0.000,0.000,0.3020,3,-1,-0.16,-0.75,-2.36,-0.0425,-0.0268,0.3064
23540,0.0049,-0.0776,0.3035,-0.0251,-0.0312,-0.0096,-0.23,-0.09,-2.89,0,3.568,-6.641,-4.002,-0.581,0.006,-0.013,1.008,0.000,0.000,0.000,0.3020,3,0,-0.43,-0.80,-2.47,-0.0406,-0.0276,0.3057
23591,0.0042,-0.0805,0.3023,-0.0231,-0.0316,-0.0092,-0.55,-0.07,-2.89,0,3.563,-1.302,-1.120,0.404,0.005,-0.014,1.008,0.000,0.000,0.000,0.2990,2,0,-0.75,-1.00,-2.50,-0.0406,-0.0293,0.3050
23712,0.0039,-0.0854,0.3003,-0.0201,-0.0345,-0.0120,-0.66,-0.04,-2.88,0,3.568,-9.497,0.320,1.095,0.004,-0.007,1.016,0.000,0.000,0.000,0.2990,1,0,-0.82,-1.05,-2.48,-0.0409,-0.0323,0.3039
23834,0.0036,-0.0883,0.2992,-0.0182,-0.0308,-0.0088,-1.05,-0.07,-2.82,0,3.563,-2.301,0.681,1.425,0.005,-0.007,1.016,0.000,0.000,0.000,0.3010,0,0,-2.01,-0.95,-2.31,-0.0402,-0.0325,0.3044
23955,0.0022,-0.0895,0.2989,-0.0181,-0.0212,-0.0020,-1.12,-0.08,-2.78,0,3.574,-6.607,-6.753,0.397,0.002,-0.012,1.012,0.000,0.000,0.000,0.3010,0,-1,-2.29,-0.86,-2.14,-0.0420,-0.0289,0.3070
24078,0.0013,-0.0926,0.3000,-0.0174,-0.0162,0.0096,-1.31,0.11,-2.72,0,3.568,1.301,4.941,1.461,0.003,-0.016,1.011,0.000,0.000,0.000,0.3030,0,0,-2.89,-1.56,-1.79,-0.0398,-0.0334,0.3139
24200,0.0025,-0.0928,0.3001,-0.0131,-0.0039,0.0128,-1.42,0.11,-2.65,0,3.574,0.393,2.751,3.574,0.002,-0.017,1.008,0.000,0.000,0.000,0.3030,-1,0,-2.73,-0.94,-1.64,-0.0430,-0.0279,0.3160
24320,0.0014,-0.0933,0.3023,-0.0143,0.0067,0.0244,-1.25,-0.05,-2.52,0,3.568,4.972,-1.565,2.459,0.004,-0.011,1.005,0.000,0.000,0.000,0.3030,-1,0,-2.45,-0.43,-0.82,-0.0406,-0.0328,0.3202
24441,0.0029,-0.0902,0.3023,-0.0082,0.0229,0.0216,-1.07,-0.06,-2.35,0,3.574,5.413,2.137,3.689,0.001,-0.016,1.006,0.000,0.000,0.000,0.3030,0,0,-1.76,-0.59,-0.40,-0.0404,-0.0324,0.3187
24562,0.0014,-0.0868,0.3038,-0.0099,0.0366,0.0250,-0.88,-0.05,-2.16,0,3.568,4.776,1.953,3.012,0.006,-0.013,1.005,0.000,0.000,0.000,0.3060,-2,0,-1.11,-0.32,0.04,-0.0416,-0.0294,0.3185
24684,0.0039,-0.0833,0.3050,-0.0022,0.0470,0.0263,-0.61,-0.13,-1.97,0,3.579,6.615,-1.041,2.758,0.005,-0.010,1.002,0.000,0.000,0.000,0.3060,-4,0,-0.44,-0.05,0.51,-0.0408,-0.0315,0.3191
24805,0.0039,-0.0804,0.3068,-0.0008,0.0526,0.0286,-0.25,-0.08,-1.82,0,3.579,10.200,-2.904,2.085,0.005,-0.013,0.995,0.000,0.000,0.000,0.3090,-2,0,0.32,-0.19,0.79,-0.0406,-0.0294,0.3193
24927,0.0063,-0.0752,0.3103,0.0051,0.0594,0.0369,0.20,0.07,-1.70,0,3.579,6.198,-2.747,0.615,0.001,-0.017,0.991,0.000,0.000,0.000,0.3090,0,-1,1.53,-0.55,1.01,-0.0406,-0.0284,0.3187
25048,0.0062,-0.0719,0.3114,0.0038,0.0579,0.0298,0.55,0.15,-1.64,0,3.574,9.044,-1.632,1.169,0.005,-0.017,0.986,0.000,0.000,0.000,0.3120,-4,0,2.19,-0.84,0.76,-0.0397,-0.0280,0.3183
25169,0.0083,-0.0706,0.3124,0.0067,0.0496,0.0237,0.90,0.15,-1.62,0,3.579,1.907,-1.730,0.072,0.009,-0.014,0.994,0.000,0.000,0.000,0.3120,-2,0,3.09,-1.02,0.80,-0.0396,-0.0255,0.3202
25290,0.0074,-0.0660,0.3133,0.0022,0.0467,0.0180,1.03,0.31,-1.61,0,3.568,1.570,0.835,-0.682,0.003,-0.011,0.995,0.000,0.000,0.000,0.3150,0,0,3.15,-1.20,0.69,-0.0395,-0.0241,0.3184
25412,0.0080,-0.0629,0.3133,0.0004,0.0398,0.0110,1.07,0.35,-1.63,0,3.579,4.288,-1.444,0.866,0.003,-0.012,0.998,0.000,0.000,0.000,0.3150,-3,0,3.34,-1.09,0.61,-0.0421,-0.0337,0.3153
25534,0.0088,-0.0627,0.3147,-0.0008,0.0268,0.0129,1.25,0.30,-1.59,0,3.574,-2.280,-4.916,1.276,0.001,-0.011,0.993,0.000,0.000,0.000,0.3130,0,0,3.49,-1.15,0.18,-0.0393,-0.0214,0.3291
25656,0.0087,-0.0597,0.3138,-0.0035,0.0205,0.0038,1.19,0.37,-1.51,0,3.574,-2.830,-0.750,1.223,0.002,-0.011,0.995,0.000,0.000,0.000,0.3130,0,0,3.20,-1.76,0.29,-0.0420,-0.0308,0.3221
25777,0.0064,-0.0587,0.3135,-0.0117,0.0112,-0.0010,1.05,0.46,-1.45,0,3.568,-1.098,3.885,0.234,0.000,-0.012,0.994,0.000,0.000,0.000,0.3130,0,2,2.85,-1.86,0.43,-0.0489,-0.0500,0.3158
25898,0.0067,-0.0582,0.3115,-0.0135,0.0029,-0.0115,0.98,0.38,-1.44,0,3.574,-2.994,3.792,-1.504,0.007,-0.009,0.999,0.000,0.000,0.000,0.3130,1,0,2.24,-1.17,-0.16,-0.0392,-0.0228,0.3331
26020,0.0034,-0.0605,0.3117,-0.0219,-0.0103,-0.0097,0.83,0.21,-1.53,0,3.568,-3.098,0.971,-2.108,0.006,-0.011,0.998,0.000,0.000,0.000,0.3120,0,0,1.76,-0.65,-0.52,-0.0381,-0.0200,0.3170
26141,0.0028,-0.0647,0.3104,-0.0227,-0.0248,-0.0134,0.66,0.10,-1.62,0,3.574,-6.162,1.157,-3.058,0.007,-0.008,1.003,0.000,0.000,0.000,0.3120,0,2,1.39,-0.53,-0.77,-0.0393,-0.0273,0.3136
26262,0.0012,-0.0649,0.3105,-0.0244,-0.0272,-0.0090,0.25,0.03,-1.72,0,3.563,-8.583,2.821,-3.171,0.003,-0.005,1.003,0.000,0.000,0.000,0.3080,2,0,0.44,-0.37,-1.33,-0.0393,-0.0196,0.3148
26383,-0.0025,-0.0684,0.3088,-0.0292,-0.0327,-0.0128,-0.27,-0.13,-1.86,0,3.568,-5.777,5.026,-6.095,0.006,-0.005,1.007,0.000,0.000,0.000,0.3080,0,0,-0.61,-0.01,-1.74,-0.0393,-0.0206,0.3111
26505,-0.0034,-0.0715,0.3078,-0.0263,-0.0330,-0.0117,-0.55,-0.39,-2.16,0,3.568,-6.210,1.891,-8.161,0.005,-0.005,1.005,0.000,0.000,0.000,0.3040,2,0,-1.31,0.59,-2.49,-0.0385,-0.0211,0.3101
26626,-0.0068,-0.0724,0.3070,-0.0271,-0.0265,-0.0102,-0.78,-0.47,-2.57,0,3.568,-3.939,0.429,-11.969,0.006,-0.003,1.007,0.000,0.000,0.000,0.3040,0,0,-2.04,0.74,-3.53,-0.0403,-0.0230,0.3094
26746,-0.0082,-0.0758,0.3050,-0.0231,-0.0242,-0.0141,-0.99,-0.51,-3.14,0,3.563,5.216,0.581,-13.922,0.003,-0.006,1.005,0.000,0.000,0.000,0.3020,0,0,-2.54,0.73,-4.98,-0.0373,-0.0192,0.3084
26867,-0.0083,-0.0758,0.3039,-0.0161,-0.0140,-0.0127,-0.78,-0.50,-3.84,0,3.568,2.533,-0.928,-14.865,0.001,-0.010,1.004,0.000,0.000,0.000,0.3020,0,0,-1.93,0.74,-6.65,-0.0314,-0.0101,0.3070
26989,-0.0081,-0.0734,0.3025,-0.0109,-0.0030,-0.0147,-0.70,-0.49,-4.56,0,3.563,0.214,-0.075,-10.783,0.001,-0.012,1.005,0.000,0.000,0.000,0.3030,0,0,-1.65,0.57,-8.44,-0.0229,0.0021,0.3063
27111,-0.0084,-0.0712,0.3022,-0.0059,0.0074,-0.0105,-0.71,-0.38,-5.13,0,3.568,3.709,-8.830,-7.443,0.004,-0.007,1.005,0.000,0.000,0.000,0.3030,-1,0,-1.63,0.52,-9.76,-0.0125,0.0165,0.3067
27231,-0.0063,-0.0701,0.3022,0.0027,0.0143,-0.0055,-0.46,-0.10,-5.52,0,3.563,7.392,-1.692,-5.351,0.000,-0.012,1.003,0.000,0.000,0.000,0.3060,-4,0,-0.90,-0.73,-10.55,-0.0376,-0.0167,0.3152
27352,-0.0052,-0.0701,0.3014,0.0061,0.0165,-0.0068,-0.10,-0.10,-5.79,0,3.568,6.034,-1.120,-3.943,0.007,-0.011,1.009,0.000,0.000,0.000,0.3060,-1,0,-0.03,-0.91,-11.13,-0.0377,-0.0146,0.3180
27473,-0.0040,-0.0635,0.3034,0.0088,0.0283,0.0067,0.24,-0.18,-5.98,0,3.563,7.661,-6.851,-2.200,-0.002,-0.015,0.999,0.000,0.000,0.000,0.3050,-1,-1,0.71,-1.03,-11.60,-0.0380,-0.0145,0.3177
27595,-0.0002,-0.0607,0.3035,0.0164,0.0299,0.0060,0.56,0.09,-6.10,0,3.568,8.936,-3.684,-0.769,0.000,-0.013,0.999,0.000,0.000,0.000,0.3050,0,-1,1.60,-1.80,-11.90,-0.0375,-0.0144,0.3179
27716,0.0014,-0.0580,0.3045,0.0168,0.0281,0.0098,0.97,0.28,-6.13,0,3.563,3.508,-6.077,1.547,0.000,-0.011,0.993,0.000,0.000,0.000,0.3050,-4,0,2.61,-2.18,-12.05,-0.0372,-0.0149,0.3183
27838,0.0030,-0.0593,0.3026,0.0151,0.0153,-0.0032,1.08,0.59,-6.09,0,3.563,0.737,-1.225,1.549,0.004,-0.012,0.998,0.000,0.000,0.000,0.3050,1,0,2.88,-2.86,-11.73,-0.0372,-0.0129,0.3202
27960,0.0041,-0.0549,0.3035,0.0092,0.0120,-0.0004,1.19,0.52,-6.05,0,3.563,0.066,1.699,1.005,0.004,-0.006,1.000,0.000,0.000,0.000,0.3030,0,0,2.86,-2.91,-11.71,-0.0373,-0.0134,0.3185
28081,0.0045,-0.0546,0.3022,0.0049,0.0043,-0.0069,1.21,0.47,-5.98,0,3.563,-0.651,1.192,1.680,0.001,-0.012,1.000,0.000,0.000,0.000,0.3030,2,0,2.86,-2.71,-11.58,-0.0464,-0.0211,0.3125
28202,0.0043,-0.0577,0.3023,-0.0009,-0.0120,-0.0057,1.19,0.40,-5.89,0,3.558,-4.479,2.133,1.375,0.004,-0.006,1.002,0.000,0.000,0.000,0.2990,1,0,2.52,-2.37,-11.39,-0.0383,-0.0144,0.3269
28324,0.0040,-0.0617,0.3009,-0.0056,-0.0280,-0.0100,1.05,0.37,-5.84,0,3.563,-8.397,1.509,0.503,0.001,-0.013,1.004,0.000,0.000,0.000,0.2990,3,0,1.86,-2.03,-11.26,-0.0367,-0.0135,0.3122
