time_ms,vel_x,vel_y,vel_z,roll,pitch,yaw,range_z,gyro_x,gyro_y,gyro_z
0,0.0026,0.0123,0.0082,-0.07,-0.27,-11.34,0.009,0.023,0.096,-0.093
0,0.0012,0.0118,0.0035,-0.07,-0.26,-11.33,0.009,-0.022,-0.013,-0.150
0,-0.0023,0.0067,0.0038,-0.02,-0.24,-11.32,0.009,-0.223,0.174,-0.143
0,-0.0001,0.0107,0.0039,-0.06,-0.25,-11.31,0.009,-0.189,0.032,-0.307
0,0.0016,0.0062,0.0040,-0.03,-0.27,-11.30,0.007,-0.077,-0.201,-0.208
0,0.0020,0.0082,0.0039,-0.04,-0.27,-11.29,0.007,-0.295,-0.179,0.141
0,0.0002,0.0056,-0.0043,-0.02,-0.26,-11.28,0.007,-0.095,0.006,-0.221
0,-0.0015,0.0213,-0.0045,-0.15,-0.22,-11.27,0.007,-0.111,-0.094,-0.018
0,0.0024,0.0038,-0.0040,-0.01,-0.28,-11.26,0.007,-0.219,-0.005,-0.092
0,0.0029,0.0069,-0.0040,-0.04,-0.28,-11.25,0.009,-0.118,0.095,0.082
0,0.0012,0.0114,-0.0040,-0.07,-0.25,-11.23,0.009,0.033,0.028,-0.114
7,0.0037,0.0056,-0.0038,-0.03,-0.28,-11.22,0.009,0.168,-0.138,-0.018
7,0.0020,0.0151,-0.0040,-0.11,-0.25,-11.21,0.009,-0.058,-0.047,0.026
7,0.0005,0.0074,-0.0040,-0.04,-0.26,-11.20,0.009,-0.267,-0.056,0.250
7,0.0033,0.0040,-0.0040,-0.02,-0.28,-11.19,0.009,0.107,-0.120,-0.197
7,0.0019,0.0040,-0.0042,-0.02,-0.27,-11.18,0.012,-0.150,0.077,0.160
7,0.0008,-0.0017,0.0031,0.03,-0.27,-11.17,0.012,-0.126,-0.024,0.256
8,-0.0059,0.0007,0.0033,0.02,-0.21,-11.15,0.012,0.001,0.089,0.194
8,-0.0011,-0.0004,0.0034,0.01,-0.25,-11.14,0.012,-0.287,-0.230,0.025
8,-0.0005,0.0032,0.0036,-0.01,-0.25,-11.13,0.008,-0.247,0.013,-0.260
8,0.0009,0.0039,0.0037,-0.02,-0.26,-11.12,0.008,0.068,0.136,-0.264
8,0.0001,0.0003,-0.0013,0.01,-0.26,-11.11,0.008,-0.226,0.198,0.320
8,0.0010,0.0049,-0.0011,-0.03,-0.26,-11.10,0.008,-0.157,-0.261,0.084
8,0.0006,0.0081,-0.0008,-0.06,-0.26,-11.08,0.008,-0.243,0.019,0.136
8,0.0006,0.0017,-0.0006,-0.01,-0.27,-11.07,0.009,-0.161,-0.129,0.041
8,-0.0029,-0.0013,-0.0004,0.02,-0.25,-11.06,0.009,0.281,0.162,-0.120
8,-0.0014,0.0077,-0.0011,-0.06,-0.25,-11.05,0.009,-0.312,-0.369,0.034
8,0.0032,-0.0042,-0.0008,0.03,-0.30,-11.04,0.009,0.026,0.022,-0.017
8,-0.0003,0.0025,-0.0006,-0.02,-0.26,-11.03,0.009,-0.219,-0.328,-0.066
8,0.0002,-0.0012,-0.0004,0.01,-0.27,-11.02,0.009,-0.244,0.128,0.272
8,-0.0015,0.0025,-0.0004,-0.02,-0.25,-11.00,0.009,-0.279,0.037,0.466
8,-0.0005,0.0067,-0.0009,-0.06,-0.25,-11.00,0.009,0.098,0.137,-0.177
8,-0.0036,0.0142,-0.0008,-0.11,-0.22,-10.98,0.009,-0.258,0.039,0.023
9,-0.0009,0.0027,-0.0005,-0.02,-0.26,-10.98,0.009,0.074,0.031,-0.249
9,-0.0011,0.0014,-0.0003,-0.01,-0.26,-10.97,0.009,-0.247,0.111,0.146
9,-0.0019,-0.0025,-0.0001,0.01,-0.26,-10.95,0.011,0.109,0.315,0.276
9,0.0040,0.0044,0.0041,-0.05,-0.30,-10.94,0.011,-0.062,-0.279,-0.023
9,0.0044,0.0076,0.0041,-0.08,-0.30,-10.92,0.011,-0.029,0.124,-0.024
9,-0.0026,-0.0041,0.0045,0.02,-0.26,-10.91,0.011,-0.333,-0.217,-0.148
9,-0.0026,-0.0041,0.0045,0.02,-0.26,-10.91,0.008,-0.198,0.268,0.056
9,-0.0027,0.0008,0.0048,-0.02,-0.25,-10.90,0.008,0.011,0.072,0.081
9,-0.0034,-0.0038,0.0004,0.02,-0.25,-10.89,0.008,-0.113,0.088,0.358
9,0.0032,-0.0013,0.0006,-0.01,-0.30,-10.88,0.008,-0.038,0.083,-0.113
9,0.0003,-0.0030,0.0007,0.01,-0.28,-10.87,0.008,0.007,0.008,-0.165
9,0.0003,-0.0030,0.0009,0.01,-0.28,-10.86,0.009,-0.039,-0.134,0.283
9,-0.0003,0.0058,0.0009,-0.06,-0.26,-10.85,0.009,0.137,-0.191,-0.275
9,-0.0024,-0.0038,0.0002,0.02,-0.26,-10.83,0.009,-0.112,-0.099,0.046
9,-0.0059,-0.0223,0.0002,0.17,-0.26,-10.82,0.009,-0.059,0.111,-0.057
9,-0.0092,-0.0206,0.0005,0.16,-0.23,-10.81,0.009,0.073,-0.156,-0.073
9,-0.0110,-0.0193,0.0008,0.15,-0.21,-10.80,0.009,-0.254,-0.096,-0.209
10,-0.0072,-0.0191,0.0010,0.14,-0.25,-10.79,0.009,0.103,0.138,-0.113
10,-0.0026,0.0045,0.0011,-0.06,-0.25,-10.78,0.009,-0.101,-0.104,0.012
10,0.0030,0.0079,0.0010,-0.10,-0.29,-10.77,0.009,-0.147,0.142,-0.063
10,-0.0072,0.0035,0.0011,-0.05,-0.21,-10.76,0.009,0.062,-0.052,-0.113
10,-0.0060,0.0078,0.0009,-0.09,-0.21,-10.75,0.007,0.178,-0.134,-0.219
10,-0.0020,0.0080,0.0009,-0.09,-0.25,-10.74,0.007,0.019,-0.073,-0.123
10,-0.0004,0.0038,-0.0041,-0.06,-0.27,-10.73,0.007,-0.117,0.070,0.281
10,0.0006,-0.0039,-0.0041,-0.00,-0.28,-10.72,0.007,0.070,-0.162,0.158
10,-0.0008,0.0071,-0.0040,-0.09,-0.25,-10.71,0.007,-0.208,-0.015,0.100
10,-0.0007,0.0071,-0.0041,-0.09,-0.25,-10.70,0.008,-0.132,0.046,-0.034
10,-0.0058,0.0063,-0.0039,-0.08,-0.21,-10.69,0.008,-0.099,-0.173,0.159
10,-0.0025,0.0016,-0.0043,-0.05,-0.25,-10.67,0.008,-0.276,0.293,0.024
10,-0.0033,-0.0108,-0.0043,0.05,-0.26,-10.66,0.008,0.009,-0.246,-0.151
10,0.0037,0.0059,-0.0039,-0.09,-0.28,-10.65,0.008,-0.143,-0.021,-0.388
10,0.0024,0.0058,-0.0038,-0.09,-0.28,-10.64,0.005,0.073,-0.127,-0.279
10,0.0019,0.0031,-0.0036,-0.07,-0.27,-10.63,0.005,-0.255,0.311,-0.142
10,0.0026,-0.0055,-0.0103,-0.00,-0.29,-10.62,0.005,0.083,0.081,-0.022
10,-0.0002,0.0062,-0.0101,-0.09,-0.25,-10.62,0.005,-0.068,0.018,-0.051
10,-0.0008,0.0025,-0.0101,-0.06,-0.25,-10.61,0.005,0.071,0.216,-0.217
10,0.0003,0.0020,-0.0100,-0.06,-0.26,-10.60,0.009,-0.129,0.244,-0.041
10,0.0010,0.0053,-0.0099,-0.08,-0.26,-10.59,0.009,-0.200,-0.035,0.033
10,-0.0005,-0.0041,-0.0036,-0.01,-0.26,-10.58,0.009,0.046,-0.048,-0.142
10,-0.0051,-0.0102,-0.0036,0.05,-0.24,-10.57,0.009,-0.149,-0.107,0.086
10,0.0001,-0.0015,-0.0033,-0.03,-0.27,-10.56,0.009,-0.083,0.085,-0.135
10,0.0005,0.0007,-0.0031,-0.05,-0.26,-10.55,0.009,-0.097,0.006,-0.356
10,0.0008,0.0028,-0.0030,-0.07,-0.26,-10.54,0.007,-0.215,0.108,0.228
10,0.0029,0.0022,-0.0037,-0.07,-0.28,-10.53,0.007,-0.193,0.116,0.099
10,0.0017,-0.0035,-0.0036,-0.02,-0.28,-10.52,0.007,-0.081,-0.068,0.026
10,-0.0006,0.0026,-0.0034,-0.07,-0.25,-10.51,0.007,0.027,-0.383,0.068
10,-0.0051,0.0021,-0.0033,-0.06,-0.22,-10.50,0.010,-0.200,0.195,0.075
10,0.0005,-0.0002,-0.0031,-0.05,-0.27,-10.49,0.010,0.036,0.115,0.015
11,0.0010,0.0018,0.0035,-0.07,-0.26,-10.48,0.010,-0.200,-0.200,0.046
11,-0.0009,-0.0014,0.0034,-0.04,-0.26,-10.47,0.010,-0.141,-0.027,0.175
11,-0.0012,-0.0013,0.0033,-0.04,-0.25,-10.46,0.010,-0.204,0.097,0.062
11,-0.0009,0.0012,0.0034,-0.07,-0.25,-10.45,0.011,0.034,-0.208,0.097
11,-0.0002,0.0047,0.0037,-0.09,-0.25,-10.43,0.011,0.069,0.092,-0.097
11,0.0014,-0.0063,0.0097,-0.01,-0.28,-10.42,0.011,-0.164,0.090,0.139
11,-0.0000,0.0121,0.0099,-0.15,-0.24,-10.41,0.011,0.049,-0.022,-0.040
11,0.0026,-0.0006,0.0103,-0.05,-0.28,-10.40,0.011,-0.415,0.154,0.160
11,-0.0007,0.0012,0.0105,-0.06,-0.25,-10.39,0.011,-0.273,0.177,0.137
11,-0.0012,-0.0023,0.0107,-0.04,-0.25,-10.38,0.011,-0.060,0.209,0.081
11,0.0023,-0.0027,0.0127,-0.04,-0.28,-10.37,0.011,-0.332,-0.260,-0.170
11,-0.0036,0.0102,0.0129,-0.13,-0.22,-10.36,0.011,0.285,-0.071,0.001
11,-0.0016,0.0014,0.0132,-0.06,-0.25,-10.35,0.011,-0.049,0.005,0.023
11,-0.0026,-0.0042,0.0133,-0.02,-0.25,-10.34,0.009,-0.057,0.281,0.061
11,0.0007,0.0013,0.0134,-0.07,-0.27,-10.32,0.009,-0.082,-0.026,0.153
11,0.0008,0.0013,0.0087,-0.07,-0.26,-10.31,0.009,-0.010,0.031,-0.170
11,0.0030,0.0069,0.0089,-0.12,-0.27,-10.30,0.009,-0.171,0.036,0.038
11,0.0026,-0.0019,0.0091,-0.05,-0.28,-10.29,0.009,0.031,0.011,-0.072
11,0.0016,-0.0004,0.0092,-0.06,-0.27,-10.28,0.012,-0.114,0.181,0.305
11,0.0017,-0.0003,0.0093,-0.06,-0.27,-10.27,0.012,-0.049,-0.152,0.006
11,0.0021,-0.0045,0.0122,-0.03,-0.28,-10.26,0.012,0.261,0.135,-0.107
11,-0.0039,0.0136,0.0125,-0.16,-0.21,-10.25,0.012,-0.232,-0.110,-0.187
11,-0.0020,0.0025,0.0128,-0.08,-0.24,-10.24,0.012,-0.342,0.129,0.166
11,-0.0010,-0.0055,0.0128,-0.02,-0.26,-10.23,0.012,0.063,-0.033,-0.076
11,-0.0011,-0.0057,0.0130,-0.02,-0.26,-10.22,0.012,-0.144,-0.320,-0.088
11,-0.0076,-0.0041,0.0131,-0.02,-0.21,-10.21,0.012,-0.015,0.044,-0.145
11,0.0047,0.0055,0.0136,-0.11,-0.29,-10.20,0.012,-0.025,0.050,-0.139
11,-0.0024,0.0026,0.0137,-0.08,-0.24,-10.19,0.012,-0.288,0.178,-0.114
11,-0.0039,0.0002,0.0138,-0.06,-0.23,-10.18,0.009,-0.051,-0.053,-0.171
11,-0.0028,-0.0011,0.0138,-0.05,-0.24,-10.17,0.009,-0.139,-0.036,0.010
11,-0.0003,0.0061,0.0052,-0.11,-0.25,-10.16,0.009,0.065,-0.299,0.206
11,0.0002,-0.0050,0.0054,-0.03,-0.27,-10.15,0.009,0.004,0.031,-0.065
11,0.0005,-0.0026,0.0056,-0.05,-0.27,-10.14,0.009,-0.041,0.072,0.159
12,-0.0017,0.0002,0.0058,-0.07,-0.25,-10.13,0.012,-0.113,0.126,-0.125
12,-0.0022,-0.0023,0.0060,-0.05,-0.25,-10.12,0.012,0.048,-0.184,-0.097
12,-0.0064,0.0010,0.0072,-0.07,-0.21,-10.11,0.012,0.084,0.055,0.148
12,-0.0017,0.0062,0.0074,-0.12,-0.25,-10.10,0.012,0.103,-0.003,-0.597
12,-0.0004,0.0011,0.0076,-0.08,-0.26,-10.09,0.012,-0.121,0.147,0.045
12,-0.0009,-0.0001,0.0075,-0.07,-0.26,-10.08,0.008,-0.166,0.181,0.077
12,-0.0012,-0.0012,0.0075,-0.06,-0.26,-10.08,0.008,-0.166,0.016,-0.224
12,-0.0007,0.0013,-0.0017,-0.08,-0.26,-10.07,0.008,-0.006,0.071,0.063
12,0.0002,0.0049,-0.0018,-0.11,-0.26,-10.06,0.008,-0.064,0.110,-0.084
12,0.0002,0.0050,-0.0017,-0.11,-0.26,-10.05,0.008,-0.422,-0.031,0.041
12,-0.0010,0.0050,-0.0015,-0.11,-0.25,-10.04,0.009,-0.141,0.010,0.072
12,-0.0003,0.0008,-0.0013,-0.08,-0.26,-10.03,0.009,0.008,0.140,-0.034
12,0.0011,-0.0054,-0.0040,-0.03,-0.28,-10.02,0.009,-0.116,0.017,0.162
12,-0.0002,0.0025,-0.0038,-0.09,-0.26,-10.01,0.009,-0.288,0.141,0.119
12,0.0021,0.0022,-0.0038,-0.09,-0.28,-10.00,0.009,-0.124,0.260,-0.012
12,0.0012,0.0049,-0.0039,-0.11,-0.27,-9.98,0.011,-0.133,-0.238,0.011
12,0.0006,0.0026,-0.0041,-0.09,-0.27,-9.97,0.011,-0.141,-0.385,-0.129
12,-0.0021,0.0018,-0.0012,-0.08,-0.26,-9.96,0.011,0.058,-0.076,0.062
12,-0.0014,0.0052,-0.0011,-0.11,-0.25,-9.95,0.011,0.128,0.252,-0.177
12,0.0018,0.0032,-0.0009,-0.10,-0.28,-9.94,0.011,-0.136,0.285,-0.139
12,-0.0008,0.0023,-0.0007,-0.09,-0.26,-9.93,0.011,-0.218,-0.094,-0.287
12,-0.0013,-0.0010,-0.0005,-0.06,-0.26,-9.92,0.011,-0.122,-0.142,-0.562
12,-0.0003,0.0026,0.0014,-0.09,-0.26,-9.91,0.011,-0.247,0.075,0.129
12,0.0009,-0.0036,0.0015,-0.04,-0.28,-9.90,0.011,-0.012,-0.036,-0.051
12,-0.0022,-0.0007,0.0016,-0.07,-0.25,-9.90,0.011,-0.260,-0.052,0.106
12,-0.0022,-0.0018,0.0016,-0.06,-0.25,-9.89,0.008,-0.142,0.025,-0.410
12,0.0014,-0.0011,0.0016,-0.07,-0.28,-9.88,0.008,-0.155,-0.296,-0.043
12,0.0005,0.0013,-0.0039,-0.09,-0.27,-9.87,0.008,0.165,-0.008,-0.199
12,0.0006,0.0013,-0.0040,-0.09,-0.27,-9.86,0.008,-0.234,0.176,0.131
12,-0.0006,-0.0046,-0.0041,-0.04,-0.27,-9.85,0.008,-0.084,-0.035,-0.213
12,0.0008,0.0043,-0.0041,-0.11,-0.27,-9.84,0.009,0.007,0.109,0.022
12,0.0010,0.0054,-0.0041,-0.12,-0.27,-9.83,0.009,-0.080,0.024,0.128
12,0.0031,0.0035,-0.0048,-0.11,-0.29,-9.82,0.009,-0.232,-0.102,0.109
12,-0.0069,0.0026,-0.0047,-0.09,-0.21,-9.81,0.009,-0.187,0.165,-0.058
13,-0.0016,-0.0044,-0.0045,-0.04,-0.26,-9.80,0.009,0.045,0.001,0.287
13,-0.0006,0.0018,-0.0043,-0.09,-0.26,-9.79,0.011,-0.133,0.082,0.122
13,0.0001,0.0054,-0.0042,-0.12,-0.26,-9.78,0.011,-0.141,0.218,-0.193
13,-0.0015,0.0021,0.0002,-0.09,-0.25,-9.77,0.011,-0.275,-0.006,-0.071
13,-0.0018,0.0080,0.0003,-0.13,-0.24,-9.76,0.011,-0.225,0.006,-0.057
13,0.0003,-0.0008,0.0005,-0.07,-0.27,-9.75,0.011,-0.117,-0.060,-0.016
13,0.0007,0.0004,0.0007,-0.08,-0.27,-9.74,0.010,0.170,0.052,-0.041
13,-0.0026,-0.0048,0.0009,-0.03,-0.26,-9.73,0.010,-0.245,-0.026,-0.105
13,-0.0023,-0.0035,0.0012,-0.04,-0.26,-9.73,0.010,-0.016,0.249,0.226
13,-0.0026,-0.0037,0.0013,-0.04,-0.26,-9.72,0.010,-0.025,0.162,-0.048
13,-0.0016,-0.0038,0.0015,-0.05,-0.27,-9.71,0.010,-0.086,0.213,-0.156
13,0.0009,-0.0029,0.0016,-0.06,-0.29,-9.70,0.010,0.111,-0.040,-0.152
13,0.0022,0.0044,0.0019,-0.12,-0.29,-9.69,0.010,-0.105,0.118,0.051
13,0.0002,-0.0002,0.0020,-0.08,-0.28,-9.68,0.010,-0.243,-0.098,0.050
13,0.0012,-0.0002,0.0021,-0.08,-0.29,-9.67,0.010,-0.135,0.105,0.063
13,0.0012,-0.0002,0.0022,-0.08,-0.29,-9.66,0.010,-0.059,-0.013,-0.208
13,0.0000,0.0001,0.0023,-0.08,-0.28,-9.65,0.010,-0.153,-0.019,-0.089
13,0.0014,-0.0001,0.0024,-0.08,-0.29,-9.64,0.008,-0.053,-0.332,0.054
13,0.0016,0.0013,-0.0023,-0.09,-0.29,-9.63,0.008,-0.330,-0.073,0.202
13,0.0019,0.0036,-0.0023,-0.11,-0.29,-9.62,0.008,-0.104,0.098,-0.043
13,-0.0023,0.0005,-0.0023,-0.08,-0.25,-9.61,0.008,0.167,0.221,0.069
13,-0.0008,0.0014,-0.0023,-0.10,-0.26,-9.60,0.009,-0.142,-0.167,0.010
13,-0.0069,0.0000,-0.0021,-0.08,-0.22,-9.59,0.009,-0.230,0.194,0.261
13,-0.0018,0.0064,-0.0024,-0.13,-0.25,-9.58,0.009,0.051,-0.226,-0.081
13,-0.0007,-0.0023,-0.0024,-0.06,-0.27,-9.57,0.009,0.117,0.015,-0.069
13,-0.0009,-0.0034,-0.0024,-0.06,-0.27,-9.56,0.009,-0.007,-0.058,-0.050
13,0.0019,-0.0013,-0.0022,-0.08,-0.29,-9.55,0.011,-0.042,0.251,-0.029
13,0.0030,-0.0014,-0.0021,-0.08,-0.30,-9.54,0.011,-0.147,-0.163,-0.267
13,0.0043,0.0067,0.0025,-0.15,-0.29,-9.53,0.011,-0.050,0.214,-0.417
13,0.0039,0.0054,0.0027,-0.13,-0.30,-9.52,0.011,-0.284,-0.310,0.109
13,0.0036,0.0040,0.0028,-0.12,-0.29,-9.51,0.011,-0.173,0.011,-0.135
13,0.0006,0.0020,0.0028,-0.10,-0.27,-9.51,0.006,-0.075,-0.084,-0.152
13,0.0006,0.0019,0.0026,-0.10,-0.27,-9.50,0.006,0.058,0.093,-0.011
13,0.0009,0.0033,-0.0063,-0.11,-0.27,-9.49,0.006,-0.011,-0.284,-0.297
14,0.0032,0.0101,-0.0062,-0.17,-0.28,-9.48,0.006,-0.170,-0.077,0.317
14,-0.0005,0.0015,-0.0057,-0.10,-0.26,-9.47,0.006,0.015,0.131,-0.027
14,-0.0017,0.0017,-0.0055,-0.09,-0.25,-9.46,0.011,0.011,0.026,-0.448
14,-0.0012,-0.0033,-0.0054,-0.06,-0.26,-9.45,0.011,0.201,-0.134,-0.027
14,-0.0008,-0.0008,0.0015,-0.08,-0.26,-9.44,0.011,0.001,0.358,0.216
14,-0.0015,-0.0044,0.0015,-0.05,-0.25,-9.43,0.011,0.107,0.146,-0.257
14,-0.0070,-0.0006,0.0014,-0.07,-0.21,-9.43,0.011,0.054,0.201,0.040
14,0.0019,0.0007,0.0013,-0.09,-0.28,-9.42,0.007,-0.278,-0.023,-0.052
14,0.0014,0.0055,0.0013,-0.12,-0.27,-9.41,0.007,-0.192,-0.044,0.125
14,0.0004,-0.0007,-0.0041,-0.08,-0.27,-9.40,0.007,0.040,-0.114,0.100
14,0.0004,-0.0005,-0.0041,-0.08,-0.27,-9.39,0.007,-0.362,-0.084,-0.026
14,0.0006,-0.0003,-0.0042,-0.08,-0.27,-9.38,0.007,-0.055,-0.057,-0.238
14,0.0023,0.0030,-0.0041,-0.11,-0.28,-9.37,0.012,-0.151,0.196,-0.326
14,0.0015,-0.0005,-0.0040,-0.08,-0.27,-9.36,0.012,0.111,-0.294,-0.276
14,0.0037,0.0133,0.0045,-0.19,-0.27,-9.35,0.012,-0.130,-0.169,0.017
14,0.0023,0.0129,0.0046,-0.19,-0.26,-9.34,0.012,-0.267,-0.080,-0.267
14,-0.0016,0.0035,0.0049,-0.11,-0.24,-9.34,0.012,-0.111,-0.314,0.193
14,-0.0017,0.0010,0.0049,-0.09,-0.24,-9.32,0.009,-0.004,-0.095,-0.122
14,-0.0004,0.0007,0.0048,-0.09,-0.25,-9.32,0.009,-0.030,0.069,-0.118
14,0.0020,0.0013,0.0025,-0.10,-0.27,-9.31,0.009,0.127,0.184,-0.055
14,0.0004,-0.0010,0.0027,-0.08,-0.26,-9.30,0.009,-0.008,0.111,0.061
14,-0.0022,0.0042,0.0030,-0.12,-0.23,-9.29,0.009,-0.213,-0.169,0.011
14,0.0021,-0.0056,0.0032,-0.04,-0.28,-9.28,0.009,0.027,-0.088,-0.163
14,-0.0001,-0.0049,0.0034,-0.05,-0.26,-9.27,0.011,-0.114,0.082,0.172
14,-0.0007,0.0058,0.0062,-0.13,-0.24,-9.26,0.011,-0.057,0.125,-0.192
14,-0.0028,0.0069,0.0063,-0.13,-0.22,-9.25,0.011,-0.114,-0.139,-0.041
14,0.0004,0.0050,0.0064,-0.12,-0.25,-9.24,0.011,0.102,-0.243,0.039
14,0.0008,-0.0066,0.0065,-0.03,-0.27,-9.23,0.011,-0.296,0.281,0.148
14,0.0028,-0.0009,0.0067,-0.08,-0.27,-9.22,0.011,-0.050,0.037,0.027
14,-0.0025,-0.0046,0.0077,-0.05,-0.23,-9.21,0.011,-0.041,-0.189,0.055
14,-0.0025,-0.0054,0.0077,-0.04,-0.24,-9.21,0.011,-0.077,-0.025,-0.179
14,0.0010,-0.0058,0.0078,-0.04,-0.26,-9.20,0.011,-0.063,0.002,0.033
14,-0.0007,0.0049,0.0080,-0.13,-0.23,-9.19,0.007,-0.124,0.271,0.191
14,0.0004,0.0044,0.0081,-0.12,-0.24,-9.18,0.007,-0.024,0.073,0.060
15,0.0032,0.0004,-0.0009,-0.10,-0.27,-9.17,0.007,-0.042,0.054,0.130
15,0.0026,-0.0016,-0.0008,-0.08,-0.27,-9.16,0.007,-0.019,0.115,-0.565
15,0.0012,0.0046,-0.0010,-0.12,-0.25,-9.15,0.007,-0.199,-0.055,0.050
15,-0.0006,0.0013,-0.0011,-0.10,-0.24,-9.14,0.010,0.053,0.167,-0.212
15,-0.0009,0.0013,-0.0011,-0.10,-0.24,-9.14,0.010,-0.214,0.161,-0.126
15,-0.0019,-0.0046,-0.0000,-0.05,-0.24,-9.13,0.010,-0.147,-0.203,-0.280
15,-0.0010,0.0015,-0.0000,-0.10,-0.24,-9.12,0.010,-0.091,-0.146,-0.134
15,-0.0018,-0.0045,0.0001,-0.05,-0.24,-9.11,0.010,-0.337,0.169,-0.154
15,-0.0018,-0.0046,0.0004,-0.05,-0.24,-9.10,0.011,-0.121,0.256,-0.133
15,0.0020,0.0029,0.0007,-0.11,-0.26,-9.10,0.011,0.076,0.282,-0.198
15,0.0001,0.0007,0.0038,-0.10,-0.25,-9.09,0.011,0.304,-0.044,-0.139
15,0.0020,0.0043,0.0040,-0.13,-0.26,-9.08,0.011,0.105,0.177,-0.060
15,0.0000,0.0020,0.0042,-0.10,-0.25,-9.07,0.011,-0.091,-0.236,-0.061
15,0.0005,0.0056,0.0043,-0.13,-0.25,-9.06,0.010,-0.242,0.176,0.118
15,0.0011,0.0014,0.0043,-0.10,-0.26,-9.05,0.010,0.044,-0.140,-0.005
15,-0.0012,-0.0046,0.0034,-0.05,-0.25,-9.04,0.010,0.123,0.057,-0.057
15,-0.0056,0.0134,0.0036,-0.19,-0.20,-9.03,0.010,-0.442,-0.202,-0.157
15,-0.0029,0.0051,0.0037,-0.13,-0.22,-9.03,0.010,-0.168,-0.178,-0.179
15,-0.0008,-0.0048,0.0039,-0.05,-0.25,-9.02,0.010,0.009,0.338,0.143
15,-0.0009,-0.0057,0.0041,-0.05,-0.25,-9.01,0.009,0.010,-0.231,0.094
15,-0.0016,-0.0029,0.0005,-0.07,-0.24,-9.00,0.009,-0.220,-0.175,-0.050
15,0.0015,0.0028,0.0005,-0.12,-0.26,-8.99,0.009,-0.060,0.177,0.406
15,0.0004,0.0053,0.0004,-0.13,-0.25,-8.98,0.009,-0.065,-0.194,-0.110
15,0.0000,0.0029,0.0004,-0.11,-0.25,-8.97,0.009,-0.187,-0.044,0.179
15,-0.0041,0.0058,0.0003,-0.13,-0.21,-8.96,0.009,0.087,-0.043,-0.184
15,-0.0032,0.0032,-0.0015,-0.11,-0.23,-8.95,0.009,-0.219,0.118,0.229
15,-0.0014,0.0066,-0.0015,-0.14,-0.23,-8.94,0.009,0.023,-0.086,-0.207
15,-0.0037,0.0068,-0.0013,-0.14,-0.22,-8.93,0.009,-0.274,-0.127,-0.076
15,-0.0040,0.0031,-0.0011,-0.11,-0.22,-8.92,0.009,-0.279,-0.122,0.063
15,-0.0008,0.0016,-0.0010,-0.10,-0.24,-8.92,0.008,0.060,0.293,-0.153
15,-0.0000,0.0061,-0.0045,-0.14,-0.25,-8.91,0.008,0.023,0.101,-0.147
15,0.0029,0.0031,-0.0045,-0.12,-0.27,-8.90,0.008,-0.166,-0.253,-0.011
15,0.0006,0.0044,-0.0044,-0.12,-0.25,-8.89,0.008,0.148,-0.445,-0.153
15,0.0016,0.0041,-0.0044,-0.12,-0.26,-8.88,0.011,-0.172,0.210,0.309
15,-0.0005,-0.0014,-0.0042,-0.08,-0.25,-8.87,0.011,-0.049,0.037,-0.330
16,-0.0011,-0.0047,0.0008,-0.05,-0.25,-8.86,0.011,-0.025,-0.154,0.070
16,-0.0009,-0.0034,0.0008,-0.06,-0.25,-8.85,0.011,-0.090,-0.249,0.019
16,-0.0011,0.0026,0.0007,-0.11,-0.24,-8.85,0.011,-0.082,0.261,-0.030
16,-0.0017,0.0049,0.0007,-0.13,-0.23,-8.84,0.011,-0.188,0.093,0.170
16,-0.0006,-0.0033,0.0008,-0.06,-0.25,-8.83,0.007,0.032,0.203,-0.068
16,-0.0028,-0.0028,-0.0050,-0.07,-0.23,-8.82,0.007,-0.440,-0.224,-0.092
16,-0.0003,-0.0167,-0.0051,0.04,-0.27,-8.81,0.007,-0.154,0.018,0.025
16,0.0061,-0.0124,-0.0049,-0.00,-0.31,-8.80,0.007,-0.008,0.079,0.011
16,-0.0055,-0.0282,-0.0051,0.14,-0.24,-8.79,0.009,-0.153,-0.089,0.167
16,-0.0023,-0.0237,-0.0046,0.09,-0.26,-8.78,0.009,-0.379,0.031,-0.057
16,-0.0037,-0.0244,-0.0031,0.10,-0.25,-8.77,0.009,-0.063,-0.032,-0.420
16,-0.0060,-0.0230,-0.0030,0.09,-0.23,-8.76,0.009,0.033,0.024,-0.257
16,-0.0069,-0.0287,-0.0031,0.13,-0.23,-8.76,0.009,-0.117,0.136,0.107
16,-0.0043,-0.0186,-0.0024,0.05,-0.24,-8.75,0.011,-0.350,0.435,0.047
16,-0.0057,-0.0267,-0.0025,0.11,-0.24,-8.74,0.011,-0.261,-0.142,0.064
16,-0.0017,-0.0162,0.0038,0.01,-0.26,-8.73,0.011,-0.011,0.025,0.027
16,-0.0074,-0.0148,0.0039,0.01,-0.22,-8.72,0.011,-0.071,-0.032,-0.054
16,-0.0026,-0.0148,0.0039,-0.00,-0.25,-8.71,0.011,0.147,0.022,-0.156
16,-0.0026,-0.0149,0.0039,-0.01,-0.25,-8.70,0.010,-0.149,-0.175,0.131
16,-0.0005,-0.0171,0.0039,0.01,-0.27,-8.69,0.010,0.124,-0.102,0.137
16,-0.0066,-0.0228,0.0045,0.06,-0.23,-8.68,0.010,-0.011,-0.175,0.046
16,-0.0051,-0.0119,0.0050,-0.03,-0.23,-8.68,0.010,-0.301,-0.044,-0.036
16,-0.0052,-0.0119,0.0051,-0.03,-0.23,-8.67,0.010,0.031,0.101,0.180
16,-0.0055,-0.0226,0.0050,0.05,-0.24,-8.66,0.011,-0.262,-0.058,0.079
16,-0.0013,-0.0105,0.0054,-0.05,-0.26,-8.65,0.011,-0.212,-0.250,0.144
16,-0.0037,-0.0170,0.0071,0.00,-0.25,-8.64,0.011,-0.162,0.189,-0.109
16,-0.0025,-0.0087,0.0077,-0.06,-0.25,-8.63,0.011,-0.085,-0.242,-0.035
16,-0.0025,-0.0086,0.0080,-0.07,-0.25,-8.62,0.011,-0.082,-0.027,0.032
16,-0.0038,-0.0182,0.0079,0.01,-0.25,-8.61,0.009,-0.173,0.294,-0.119
16,-0.0037,-0.0184,0.0080,0.01,-0.25,-8.60,0.009,-0.108,-0.348,-0.205
16,-0.0028,-0.0137,0.0042,-0.03,-0.25,-8.60,0.009,-0.183,0.103,0.105
16,0.0020,-0.0065,0.0045,-0.10,-0.28,-8.59,0.009,-0.064,0.175,0.016
16,-0.0045,-0.0162,0.0046,-0.01,-0.24,-8.58,0.009,-0.078,0.137,0.007
17,-0.0028,-0.0057,0.0050,-0.10,-0.24,-8.57,0.010,0.061,-0.002,-0.226
17,-0.0032,-0.0088,0.0051,-0.07,-0.24,-8.56,0.010,0.054,0.072,0.078
17,-0.0015,-0.0144,0.0042,-0.03,-0.26,-8.55,0.010,-0.152,0.011,-0.018
17,-0.0060,0.0113,0.0047,-0.23,-0.20,-8.55,0.010,0.019,0.109,0.111
17,-0.0028,0.0068,0.0049,-0.19,-0.23,-8.54,0.010,0.010,0.139,0.300
17,-0.0027,0.0072,0.0050,-0.19,-0.23,-8.53,0.011,-0.139,0.345,-0.179
17,-0.0027,0.0056,0.0050,-0.18,-0.23,-8.52,0.011,0.204,0.140,-0.251
17,-0.0001,0.0052,0.0062,-0.18,-0.25,-8.51,0.011,-0.040,-0.107,-0.153
17,-0.0084,0.0065,0.0062,-0.18,-0.18,-8.50,0.011,0.218,-0.003,-0.212
17,-0.0005,0.0052,0.0062,-0.17,-0.25,-8.49,0.011,-0.020,0.067,-0.230
17,0.0010,0.0049,0.0063,-0.17,-0.26,-8.49,0.011,0.053,-0.214,0.267
17,-0.0008,-0.0072,0.0065,-0.07,-0.25,-8.48,0.011,0.070,-0.085,-0.155
17,-0.0018,-0.0125,0.0060,-0.03,-0.26,-8.47,0.011,-0.075,0.196,-0.048
17,-0.0039,-0.0019,0.0061,-0.11,-0.23,-8.46,0.011,0.048,-0.208,0.080
17,-0.0014,-0.0023,0.0061,-0.11,-0.25,-8.45,0.011,0.120,-0.132,-0.074
17,-0.0014,-0.0023,0.0062,-0.11,-0.25,-8.45,0.011,-0.143,-0.130,0.111
17,0.0022,-0.0026,0.0062,-0.12,-0.28,-8.44,0.011,-0.134,-0.219,-0.040
17,-0.0050,-0.0087,0.0055,-0.06,-0.22,-8.43,0.011,-0.252,-0.006,0.091
17,0.0000,0.0000,0.0000,0.00,0.00,0.00,0.011,-0.152,-0.471,0.080
17,0.0040,-0.0082,0.0003,-0.00,-0.00,-0.00,0.011,-0.076,0.024,0.165
17,0.0035,-0.0060,0.0007,-0.02,0.00,-0.00,0.011,0.061,-0.027,-0.106
17,0.0029,-0.0059,0.0010,-0.02,0.00,0.00,0.011,-0.159,-0.110,0.031
17,-0.0010,0.0021,0.0010,-0.06,0.02,0.00,0.011,0.226,0.103,-0.132
17,-0.0056,0.0019,0.0015,-0.06,0.10,0.00,0.011,-0.072,0.070,0.026
17,-0.0058,-0.0053,0.0016,0.10,0.09,0.00,0.011,-0.169,-0.210,-0.017
17,-0.0058,-0.0124,0.0015,0.26,0.08,0.00,0.009,0.008,-0.371,-0.150
17,-0.0121,0.0224,0.0016,-0.60,0.22,0.00,0.009,0.102,-0.160,0.313
17,-0.0120,0.0151,0.0007,-0.39,0.19,0.00,0.009,-0.062,0.179,-0.215
17,-0.0135,0.0262,0.0004,-0.67,0.22,0.01,0.009,0.134,-0.018,0.068
17,-0.0143,0.0273,0.0003,-0.67,0.22,0.00,0.009,0.117,0.010,0.023
17,-0.0139,0.0220,0.0005,-0.49,0.18,0.00,0.009,0.008,-0.107,-0.039
17,-0.0115,0.0109,0.0010,-0.18,0.09,0.00,0.009,0.010,-0.267,-0.057
17,-0.0189,0.0199,-0.0011,-0.42,0.28,0.00,0.009,-0.239,0.158,0.140
17,-0.0181,0.0405,-0.0017,-0.94,0.23,0.01,0.009,0.063,0.025,-0.068
17,-0.0192,0.0401,-0.0015,-0.89,0.24,0.01,0.009,-0.336,0.004,0.317
18,-0.0242,0.0620,-0.0028,-1.42,0.34,0.01,0.011,-0.133,-0.186,-0.080
18,-0.0168,0.0602,-0.0020,-1.32,0.13,0.01,0.011,-0.150,-0.031,-0.043
18,-0.0138,0.0564,0.0014,-1.17,0.04,0.01,0.011,-0.061,-0.022,0.124
18,-0.0189,0.0445,0.0023,-0.84,0.15,0.01,0.011,-0.018,0.114,0.172
18,-0.0197,0.0517,0.0021,-0.98,0.16,0.01,0.011,-0.116,-0.143,-0.056
18,-0.0206,0.0461,0.0025,-0.81,0.16,0.01,0.010,0.119,0.022,0.011
18,-0.0213,0.0475,0.0024,-0.81,0.16,0.01,0.010,0.073,0.024,0.249
18,-0.0085,0.0437,0.0019,-0.70,-0.14,0.01,0.010,-0.206,-0.086,-0.098
18,-0.0318,0.0467,0.0015,-0.74,0.36,0.01,0.010,-0.097,-0.253,0.146
18,-0.0084,0.0389,0.0027,-0.55,-0.16,0.01,0.010,-0.124,0.001,-0.321
18,-0.0118,0.0253,0.0032,-0.25,-0.09,0.01,0.010,0.261,-0.253,-0.031
18,-0.0111,0.0274,0.0033,-0.28,-0.11,0.01,0.010,-0.328,0.010,0.117
18,-0.0061,0.0250,0.0024,-0.23,-0.21,0.01,0.010,-0.058,0.172,0.133
18,-0.0116,0.0167,0.0030,-0.07,-0.10,0.01,0.010,-0.206,-0.042,0.314
18,-0.0108,0.0309,0.0032,-0.34,-0.13,0.01,0.010,0.023,0.133,0.166
18,-0.0101,0.0205,0.0033,-0.14,-0.14,0.01,0.010,-0.002,-0.024,-0.078
18,-0.0017,0.0186,0.0034,-0.10,-0.30,0.01,0.010,0.008,-0.207,0.105
18,-0.0090,0.0075,0.0022,0.09,-0.17,0.01,0.010,-0.371,0.025,-0.069
18,-0.0027,0.0254,0.0027,-0.22,-0.28,0.01,0.010,0.007,-0.109,0.120
18,-0.0080,0.0178,0.0030,-0.09,-0.19,0.01,0.010,0.005,-0.164,0.137
18,-0.0074,0.0145,0.0033,-0.03,-0.20,0.01,0.011,-0.271,-0.041,0.043
18,-0.0049,0.0187,0.0035,-0.10,-0.24,0.01,0.011,-0.272,-0.118,0.057
18,-0.0046,0.0083,0.0049,0.07,-0.24,0.01,0.011,-0.120,-0.056,-0.104
18,-0.0044,0.0179,0.0051,-0.09,-0.25,0.01,0.011,-0.019,-0.084,0.172
18,-0.0007,0.0095,0.0051,0.04,-0.31,0.02,0.011,-0.185,-0.119,-0.080
18,-0.0041,0.0139,0.0049,-0.03,-0.26,0.02,0.011,-0.030,-0.244,0.128
18,-0.0042,0.0138,0.0048,-0.03,-0.25,0.02,0.010,-0.133,-0.099,-0.342
18,-0.0074,0.0123,0.0025,-0.01,-0.20,0.01,0.010,-0.187,0.220,-0.051
18,0.0020,-0.0014,0.0028,0.18,-0.34,0.02,0.010,-0.220,-0.218,-0.060
18,-0.0032,0.0070,0.0032,0.05,-0.26,0.01,0.010,-0.070,-0.030,-0.165
18,-0.0029,0.0047,0.0034,0.08,-0.27,0.01,0.011,-0.258,0.093,-0.029
18,-0.0030,0.0045,0.0035,0.08,-0.26,0.01,0.011,-0.061,0.073,-0.525
18,-0.0028,0.0094,0.0043,0.01,-0.27,0.01,0.011,0.168,-0.235,-0.097
18,-0.0061,-0.0004,0.0046,0.14,-0.23,0.01,0.011,0.116,-0.028,-0.247
21,-0.0057,0.0083,0.0051,0.03,-0.23,0.01,0.011,-0.105,0.002,0.266
31,-0.0037,0.0025,0.0054,0.10,-0.26,0.01,0.010,-0.082,-0.082,0.262
41,-0.0035,-0.0012,0.0057,0.15,-0.26,0.01,0.010,-0.056,0.006,0.191
51,0.0033,0.0095,0.0030,0.01,-0.35,0.01,0.010,0.164,-0.175,0.109
61,0.0035,0.0094,0.0033,0.01,-0.35,0.01,0.010,-0.171,-0.113,-0.112
71,-0.0014,0.0071,0.0036,0.03,-0.28,0.01,0.010,-0.023,-0.059,-0.018
81,-0.0015,0.0071,0.0037,0.03,-0.28,0.01,0.011,0.251,0.015,0.109
91,-0.0014,-0.0004,0.0039,0.12,-0.28,0.01,0.011,0.060,-0.007,-0.029
101,-0.0013,-0.0010,0.0046,0.12,-0.28,0.01,0.011,-0.260,-0.034,-0.159
111,-0.0045,-0.0116,0.0046,0.24,-0.24,0.01,0.011,-0.090,-0.004,-0.057
121,0.0024,-0.0029,0.0048,0.13,-0.32,0.01,0.011,0.037,0.025,-0.133
131,-0.0011,0.0036,0.0049,0.05,-0.28,0.00,0.008,0.114,-0.138,-0.039
141,-0.0009,-0.0016,0.0048,0.11,-0.29,0.00,0.008,-0.028,-0.063,-0.139
151,0.0040,-0.0048,-0.0027,0.14,-0.34,0.00,0.008,-0.185,0.016,0.100
160,-0.0053,0.0044,-0.0025,0.04,-0.23,0.00,0.008,-0.088,0.186,-0.022
171,0.0040,-0.0020,-0.0024,0.11,-0.33,0.00,0.008,0.004,0.039,-0.067
181,-0.0007,-0.0021,-0.0023,0.10,-0.28,0.00,0.012,-0.056,0.068,0.128
190,-0.0007,-0.0079,-0.0021,0.17,-0.28,0.00,0.012,0.027,-0.094,-0.073
200,-0.0005,0.0024,0.0030,0.05,-0.28,-0.00,0.012,0.041,0.272,0.064
211,-0.0003,0.0022,0.0031,0.05,-0.28,0.00,0.012,-0.139,0.171,0.166
221,0.0027,0.0003,0.0030,0.07,-0.32,0.00,0.012,0.158,0.002,-0.385
230,-0.0005,0.0014,0.0030,0.05,-0.28,0.00,0.012,-0.098,-0.241,0.071
240,-0.0004,-0.0090,0.0030,0.16,-0.29,0.00,0.012,-0.185,0.044,0.221
251,-0.0017,-0.0042,0.0058,0.11,-0.27,0.00,0.012,-0.198,-0.324,0.044
261,0.0013,-0.0113,0.0059,0.18,-0.30,0.00,0.012,0.161,-0.048,-0.130
270,0.0014,0.0017,0.0062,0.04,-0.30,0.00,0.012,-0.058,0.057,-0.231
281,-0.0013,-0.0027,0.0064,0.08,-0.27,0.00,0.009,0.153,-0.245,-0.013
291,0.0042,-0.0028,0.0067,0.08,-0.32,0.00,0.009,-0.443,-0.163,0.229
300,-0.0015,0.0012,0.0014,0.04,-0.27,0.00,0.009,-0.354,-0.293,-0.019
310,0.0012,0.0009,0.0015,0.04,-0.29,0.00,0.009,-0.094,0.022,-0.034
321,0.0013,-0.0031,0.0017,0.08,-0.29,0.00,0.009,-0.094,0.249,-0.111
330,-0.0001,-0.0058,0.0020,0.10,-0.28,0.00,0.011,-0.043,0.051,-0.085
341,-0.0000,0.0021,0.0023,0.02,-0.28,0.00,0.011,-0.202,0.077,0.179
351,0.0001,-0.0113,0.0030,0.14,-0.28,0.00,0.011,-0.282,-0.186,0.160
360,-0.0010,0.0085,0.0034,-0.05,-0.27,0.00,0.011,0.135,0.030,-0.233
371,0.0029,-0.0023,0.0038,0.05,-0.30,0.00,0.011,-0.317,0.119,0.268
380,0.0012,-0.0036,0.0037,0.06,-0.29,0.01,0.009,0.104,0.184,-0.109
391,0.0023,-0.0037,0.0036,0.05,-0.30,0.01,0.009,0.170,-0.109,-0.044
401,-0.0003,-0.0037,-0.0006,0.05,-0.27,0.01,0.009,-0.352,-0.242,-0.083
411,0.0011,0.0182,-0.0005,-0.15,-0.28,0.00,0.009,-0.094,0.105,0.211
421,0.0040,0.0044,0.0000,-0.02,-0.30,0.00,0.009,-0.314,-0.117,0.082
431,0.0026,0.0236,-0.0002,-0.19,-0.29,0.00,0.006,-0.160,0.055,0.050
441,0.0027,0.0162,0.0002,-0.12,-0.29,0.00,0.006,0.198,-0.133,0.012
451,0.0026,0.0163,-0.0101,-0.12,-0.29,0.00,0.006,0.148,-0.241,-0.168
461,-0.0014,0.0155,-0.0103,-0.11,-0.25,0.00,0.006,-0.041,0.236,0.195
470,0.0077,0.0144,-0.0103,-0.10,-0.33,-0.00,0.006,-0.147,0.032,-0.005
481,0.0083,-0.0059,-0.0097,0.07,-0.33,0.00,0.009,-0.049,0.368,0.054
491,0.0041,-0.0033,-0.0092,0.05,-0.30,0.00,0.009,0.108,-0.069,0.150
500,0.0026,0.0045,-0.0070,-0.02,-0.28,0.00,0.009,-0.276,-0.047,0.304
510,0.0072,-0.0078,-0.0066,0.09,-0.32,0.00,0.009,-0.099,0.037,-0.163
521,0.0076,-0.0080,-0.0066,0.08,-0.32,0.00,0.009,-0.275,-0.126,0.493
530,0.0077,-0.0083,-0.0065,0.08,-0.32,0.00,0.011,-0.173,-0.229,0.021
540,0.0072,-0.0184,-0.0065,0.17,-0.32,0.01,0.011,0.154,0.081,0.302
550,0.0075,-0.0188,0.0005,0.16,-0.31,0.01,0.011,-0.133,-0.027,0.064
561,0.0137,-0.0177,0.0007,0.15,-0.37,0.01,0.011,-0.223,-0.206,0.035
570,0.0076,-0.0166,0.0009,0.14,-0.31,0.01,0.011,-0.120,-0.001,-0.021
581,0.0086,-0.0053,0.0013,0.04,-0.32,0.01,0.010,-0.286,0.104,0.169
591,0.0069,-0.0102,0.0014,0.08,-0.30,0.01,0.010,0.021,-0.075,-0.027
601,0.0080,-0.0148,0.0026,0.12,-0.31,0.01,0.010,-0.063,0.025,-0.069
611,0.0065,-0.0116,0.0029,0.08,-0.30,0.01,0.010,-0.267,-0.185,0.059
620,0.0074,-0.0036,0.0031,0.01,-0.30,0.01,0.010,0.108,0.134,-0.227
630,0.0095,-0.0097,0.0033,0.06,-0.32,0.01,0.010,-0.134,-0.154,-0.107
640,0.0053,-0.0130,0.0034,0.09,-0.28,0.01,0.012,-0.164,-0.227,-0.170
650,0.0051,-0.0100,0.0083,0.06,-0.28,0.01,0.012,-0.135,-0.035,0.072
660,-0.0013,-0.0096,0.0084,0.05,-0.22,0.01,0.012,-0.168,-0.184,-0.061
670,0.0061,-0.0116,0.0086,0.07,-0.28,0.01,0.012,-0.256,-0.156,0.012
680,0.0057,-0.0050,0.0089,0.01,-0.28,0.01,0.011,-0.062,-0.011,-0.229
691,0.0052,-0.0073,0.0089,0.02,-0.27,0.01,0.011,-0.080,0.020,0.026
700,0.0012,-0.0105,0.0085,0.05,-0.24,0.01,0.011,-0.115,0.054,0.282
711,0.0011,0.0055,0.0087,-0.09,-0.24,0.00,0.011,0.051,0.238,0.068
720,0.0034,-0.0102,0.0090,0.05,-0.26,0.01,0.011,0.194,-0.033,-0.007
730,0.0032,-0.0105,0.0093,0.04,-0.26,0.01,0.008,0.111,-0.090,-0.161
741,0.0031,-0.0108,0.0093,0.04,-0.26,0.01,0.008,-0.151,-0.073,-0.064
750,-0.0011,0.0013,0.0011,-0.06,-0.22,0.01,0.008,-0.149,0.092,-0.022
760,0.0041,0.0036,0.0013,-0.08,-0.27,0.01,0.008,-0.130,0.065,-0.079
770,0.0039,-0.0058,0.0015,-0.00,-0.27,0.01,0.008,-0.003,-0.006,-0.248
780,0.0039,-0.0061,0.0018,-0.01,-0.27,0.01,0.009,0.091,-0.146,0.014
790,0.0022,-0.0058,0.0018,-0.01,-0.25,0.01,0.009,0.189,-0.191,0.165
800,0.0021,-0.0106,-0.0008,0.03,-0.25,0.00,0.009,-0.245,-0.139,0.111
810,0.0022,-0.0107,-0.0009,0.03,-0.25,0.00,0.009,-0.111,-0.164,0.018
820,0.0021,-0.0059,-0.0008,-0.01,-0.24,0.00,0.009,-0.162,-0.267,-0.186
830,0.0032,0.0000,-0.0005,-0.06,-0.25,0.01,0.007,-0.083,0.197,0.025
841,0.0015,-0.0097,-0.0003,0.02,-0.24,0.01,0.007,-0.083,0.363,0.022
851,0.0067,-0.0026,-0.0062,-0.04,-0.28,0.00,0.007,-0.243,0.080,0.313
861,0.0068,-0.0025,-0.0063,-0.04,-0.28,0.00,0.007,-0.096,-0.099,-0.001
870,0.0011,-0.0093,-0.0062,0.01,-0.24,0.01,0.007,0.068,-0.065,-0.079
880,0.0066,-0.0048,-0.0059,-0.03,-0.28,0.01,0.010,-0.100,0.076,-0.003
890,-0.0004,-0.0047,-0.0056,-0.03,-0.22,0.01,0.010,0.237,-0.099,-0.270
900,-0.0005,-0.0050,-0.0015,-0.03,-0.22,0.01,0.010,-0.183,-0.170,-0.053
910,0.0050,-0.0046,-0.0014,-0.03,-0.26,0.01,0.010,-0.025,0.095,0.045
920,0.0008,0.0011,-0.0013,-0.08,-0.23,0.00,0.010,-0.001,0.052,0.105
930,0.0008,0.0012,-0.0011,-0.08,-0.23,0.01,0.012,-0.198,0.021,0.153
940,-0.0006,-0.0085,-0.0010,-0.00,-0.22,0.01,0.012,-0.210,-0.159,-0.062
950,0.0020,-0.0107,0.0059,0.01,-0.24,0.01,0.012,-0.187,0.051,0.165
960,-0.0049,-0.0102,0.0062,0.01,-0.19,0.01,0.012,-0.083,-0.193,-0.067
970,0.0005,-0.0034,0.0064,-0.05,-0.23,0.01,0.012,-0.235,0.117,-0.058
980,0.0018,-0.0005,0.0063,-0.07,-0.24,0.01,0.009,-0.076,0.227,0.294
990,0.0016,0.0022,0.0064,-0.10,-0.24,0.01,0.009,-0.042,-0.001,-0.075
1000,0.0043,-0.0013,0.0031,-0.06,-0.26,0.01,0.009,0.084,0.202,-0.073
1010,0.0031,0.0042,0.0034,-0.11,-0.25,0.01,0.009,-0.283,0.118,-0.119
1020,0.0029,0.0003,0.0034,-0.07,-0.25,0.01,0.009,-0.102,-0.023,-0.094
1030,0.0003,0.0029,0.0038,-0.10,-0.23,0.01,0.010,0.090,-0.130,-0.083
1040,0.0003,-0.0057,0.0040,-0.03,-0.23,0.01,0.010,-0.354,0.147,0.124
1050,0.0015,-0.0043,0.0036,-0.04,-0.24,0.01,0.010,-0.008,-0.085,0.281
1060,0.0028,-0.0088,0.0036,-0.01,-0.24,0.01,0.010,0.077,0.188,-0.007
1071,0.0002,-0.0060,0.0037,-0.03,-0.22,0.01,0.010,0.041,-0.048,-0.059
1080,0.0000,-0.0061,0.0039,-0.03,-0.22,0.01,0.011,-0.062,0.049,0.209
1090,0.0011,0.0052,0.0042,-0.12,-0.23,0.01,0.011,-0.313,-0.005,0.214
1100,-0.0027,-0.0048,0.0060,-0.04,-0.20,0.02,0.011,-0.221,-0.102,0.085
1110,-0.0050,0.0052,0.0060,-0.12,-0.18,0.02,0.011,0.118,-0.258,0.176
1120,-0.0025,0.0002,0.0059,-0.08,-0.20,0.02,0.011,-0.001,-0.197,0.231
1130,-0.0000,0.0002,0.0058,-0.08,-0.23,0.02,0.007,-0.082,-0.117,-0.063
1140,-0.0001,-0.0023,0.0059,-0.06,-0.22,0.02,0.007,-0.192,-0.124,-0.253
1150,-0.0015,-0.0021,-0.0026,-0.06,-0.21,0.02,0.007,-0.149,0.059,0.482
1160,-0.0016,-0.0113,-0.0024,0.01,-0.21,0.01,0.007,0.162,0.121,0.068
1170,-0.0004,-0.0002,-0.0021,-0.08,-0.22,0.01,0.007,0.097,0.098,0.192
1179,-0.0005,-0.0038,-0.0022,-0.05,-0.22,0.01,0.013,-0.033,-0.023,0.177
1190,-0.0005,0.0022,-0.0021,-0.10,-0.22,0.01,0.013,-0.159,0.114,-0.020
1200,-0.0004,-0.0038,0.0063,-0.05,-0.22,0.02,0.013,-0.145,0.038,-0.076
1210,0.0008,-0.0035,0.0066,-0.06,-0.23,0.02,0.013,-0.133,0.022,0.056
1220,0.0007,0.0003,0.0067,-0.09,-0.23,0.02,0.013,-0.132,-0.100,-0.075
1230,-0.0017,-0.0032,0.0067,-0.06,-0.22,0.02,0.009,-0.232,0.048,0.214
1240,-0.0018,-0.0031,0.0068,-0.06,-0.22,0.02,0.009,-0.180,-0.113,-0.027
1250,-0.0069,0.0084,0.0020,-0.15,-0.18,0.02,0.009,-0.057,0.249,0.203
1260,0.0020,-0.0030,0.0023,-0.06,-0.25,0.02,0.009,0.047,-0.245,-0.312
1270,0.0007,0.0010,0.0026,-0.09,-0.24,0.02,0.009,-0.160,0.121,0.260
1280,-0.0004,0.0010,0.0029,-0.09,-0.23,0.02,0.010,-0.025,-0.074,0.010
1290,-0.0017,-0.0026,0.0030,-0.06,-0.22,0.02,0.010,0.159,0.308,0.105
1300,-0.0014,-0.0026,0.0022,-0.06,-0.22,0.02,0.010,-0.076,-0.028,0.212
1310,-0.0013,-0.0028,0.0023,-0.06,-0.22,0.02,0.010,-0.019,-0.147,0.131
1320,-0.0025,-0.0027,0.0023,-0.07,-0.21,0.02,0.010,-0.027,-0.090,-0.323
1330,-0.0048,0.0015,0.0023,-0.10,-0.19,0.03,0.010,0.064,-0.208,0.006
1340,-0.0009,0.0068,0.0026,-0.14,-0.22,0.03,0.010,-0.323,-0.255,0.220
1350,-0.0049,-0.0023,0.0021,-0.07,-0.19,0.02,0.010,0.157,-0.200,-0.068
1359,0.0016,-0.0044,0.0022,-0.05,-0.24,0.02,0.010,-0.034,-0.081,0.036
1370,0.0040,0.0021,0.0026,-0.10,-0.26,0.02,0.010,-0.065,-0.003,0.119
1380,0.0014,-0.0022,0.0025,-0.07,-0.23,0.02,0.010,-0.064,-0.096,-0.053
1390,-0.0012,0.0017,0.0027,-0.10,-0.21,0.03,0.010,-0.183,-0.190,0.107
1400,-0.0012,0.0017,0.0018,-0.10,-0.21,0.03,0.010,-0.183,-0.016,0.079
1410,-0.0013,0.0017,0.0019,-0.10,-0.21,0.03,0.010,-0.230,-0.047,0.021
1419,-0.0015,-0.0023,0.0020,-0.07,-0.21,0.03,0.010,-0.092,0.121,0.192
1430,-0.0016,-0.0022,0.0019,-0.07,-0.21,0.03,0.008,-0.103,0.009,-0.002
1440,-0.0028,-0.0020,0.0020,-0.07,-0.20,0.03,0.008,0.143,0.125,-0.115
1450,-0.0014,-0.0017,-0.0031,-0.08,-0.21,0.03,0.008,-0.002,-0.264,0.009
1460,0.0063,0.0088,-0.0029,-0.16,-0.27,0.03,0.008,-0.220,-0.150,0.023
1470,-0.0003,-0.0018,-0.0026,-0.07,-0.22,0.03,0.008,0.204,0.240,0.110
1479,-0.0004,-0.0018,-0.0027,-0.07,-0.22,0.03,0.012,-0.430,0.144,0.212
0,-0.0007,0.0076,-0.0026,-0.15,-0.22,0.03,0.012,-0.173,0.169,0.422
10,-0.0022,0.0032,0.0037,-0.12,-0.21,0.03,0.012,0.395,-0.187,0.097
19,-0.0034,0.0095,0.0038,-0.17,-0.20,0.03,0.012,-0.428,0.452,0.256
29,-0.0057,0.0041,0.0038,-0.13,-0.18,0.03,0.012,-0.622,2.204,0.748
39,-0.0043,-0.0025,0.0040,-0.07,-0.19,0.03,0.011,0.493,0.576,0.394
49,-0.0036,0.0015,0.0043,-0.10,-0.19,0.03,0.011,-1.402,2.700,0.777
59,0.0008,0.0067,0.0057,-0.14,-0.24,0.03,0.011,0.427,3.926,-0.185
69,-0.0010,0.0029,0.0056,-0.11,-0.23,0.03,0.011,-0.188,3.149,-0.613
79,-0.0028,0.0016,0.0060,-0.10,-0.23,0.04,0.011,0.518,0.827,0.864
90,0.0030,0.0028,0.0078,-0.10,-0.30,0.03,0.010,-0.629,0.127,0.051
100,0.0048,-0.0021,0.0084,-0.05,-0.34,0.03,0.010,-0.899,1.870,-4.096
109,0.0088,0.0039,0.0054,-0.09,-0.38,0.03,0.010,2.193,1.051,-7.894
119,0.0077,-0.0009,0.0051,-0.05,-0.38,0.03,0.010,3.253,-0.785,-10.526
129,0.0080,0.0030,0.0054,-0.08,-0.39,0.01,0.010,-3.706,0.543,-12.142
139,0.0095,0.0050,0.0069,-0.08,-0.40,-0.07,0.010,-4.449,-2.765,-15.489
149,0.0158,0.0083,0.0078,-0.08,-0.44,-0.17,0.008,-5.611,-2.656,-16.200
159,0.0224,-0.0097,0.0006,0.03,-0.50,-0.29,0.008,-2.692,-11.046,-16.288
169,0.0277,-0.0085,0.0006,-0.02,-0.51,-0.43,0.008,-1.611,-11.935,-16.764
179,0.0480,-0.0080,0.0020,-0.09,-0.63,-0.59,0.008,3.082,-22.569,-13.486
189,0.0491,-0.0078,0.0030,-0.11,-0.53,-0.76,0.012,-2.953,-34.241,-11.345
199,0.0380,-0.0072,0.0050,-0.13,-0.32,-0.92,0.012,-3.168,-42.315,-9.038
209,0.0387,-0.0070,0.0128,-0.10,-0.12,-1.06,0.012,-4.361,-32.599,-8.935
219,0.0303,-0.0392,0.0173,0.13,0.27,-1.18,0.012,-15.542,-27.212,-7.401
230,0.0491,-0.0422,0.0259,0.11,0.54,-1.27,0.012,-12.975,-24.707,-9.618
239,0.0466,-0.0455,0.0394,0.09,0.89,-1.36,0.012,-24.804,-32.997,-11.978
250,0.0448,-0.0456,0.0544,-0.04,1.17,-1.44,0.015,-41.681,-40.844,-11.736
259,0.0273,-0.0533,0.0747,-0.12,1.53,-1.53,0.015,-51.968,-41.620,-10.990
269,0.0224,-0.0529,0.0870,-0.36,1.87,-1.64,0.015,-49.254,-39.648,-8.951
279,0.0137,-0.0540,0.1005,-0.73,2.31,-1.76,0.015,-47.322,-32.016,-7.798
289,0.0022,-0.0494,0.1186,-1.24,2.78,-1.87,0.000,-38.925,-23.541,-6.500
299,-0.0090,-0.0383,0.1379,-1.79,3.22,-1.95,0.000,-26.192,-15.628,-5.594
309,-0.0234,-0.0269,0.1111,-2.30,3.61,-2.01,0.000,-16.437,-10.567,-7.193
320,-0.0505,-0.0254,0.1250,-2.67,4.02,-2.08,0.000,-0.498,-2.390,-7.132
329,-0.0693,-0.0042,0.1418,-3.07,4.29,-2.11,0.000,12.843,4.555,-5.433
339,-0.0851,-0.0036,0.1605,-3.18,4.46,-2.19,0.000,30.588,8.835,-6.364
350,-0.0691,-0.0065,0.1856,-3.14,4.31,-2.26,0.001,34.841,11.961,-5.153
359,-0.0731,0.0044,0.1633,-3.05,4.25,-2.31,0.001,38.030,8.588,-5.919
369,-0.0804,0.0140,0.1795,-2.78,4.17,-2.37,0.001,33.859,12.093,-4.885
379,-0.1100,0.0636,0.1897,-2.77,4.23,-2.35,0.001,35.133,13.320,-1.454
389,-0.1199,0.0689,0.2047,-2.38,4.16,-2.42,0.020,32.842,11.744,-0.777
399,-0.1312,0.0722,0.2189,-2.02,4.07,-2.48,0.020,28.663,15.747,0.344
409,-0.1230,0.0677,0.2353,-1.61,3.82,-2.51,0.020,22.689,21.761,1.203
419,-0.1297,0.0730,0.2476,-1.29,3.69,-2.51,0.020,15.481,28.851,1.634
429,-0.1377,0.0790,0.2582,-1.02,3.55,-2.51,0.020,6.773,31.005,2.852
439,-0.1418,0.0833,0.2680,-0.80,3.33,-2.49,0.020,-2.448,30.732,5.319
449,-0.1258,0.0667,0.2828,-0.49,2.88,-2.50,0.038,-10.858,23.950,6.456
459,-0.1354,0.0624,0.2966,-0.36,2.59,-2.49,0.038,-14.358,22.435,7.446
469,-0.1408,0.0604,0.3039,-0.36,2.29,-2.45,0.038,-20.200,23.499,9.260
479,-0.1546,0.0706,0.3089,-0.52,2.11,-2.37,0.038,-20.150,25.866,13.113
489,-0.1539,0.0720,0.3164,-0.66,1.85,-2.30,0.064,-12.459,22.834,15.502
499,-0.1359,0.0759,0.3266,-0.88,1.45,-2.18,0.064,-4.141,16.835,16.220
509,-0.1403,0.0774,0.3569,-1.08,1.20,-2.06,0.064,-0.396,10.128,15.819
519,-0.1567,0.0927,0.3579,-1.32,1.07,-1.89,0.064,4.249,5.472,15.602
529,-0.1555,0.0944,0.3610,-1.38,0.86,-1.74,0.064,10.889,1.463,14.726
539,-0.1555,0.0980,0.3626,-1.40,0.74,-1.57,0.064,14.802,1.170,13.859
549,-0.1466,0.0986,0.3651,-1.35,0.59,-1.40,0.088,18.835,2.942,13.257
559,-0.1671,0.0961,0.3902,-1.21,0.70,-1.28,0.088,20.434,3.801,12.013
569,-0.1647,0.0964,0.3898,-1.06,0.65,-1.14,0.088,18.749,6.094,11.726
579,-0.1558,0.1020,0.3900,-0.92,0.55,-0.99,0.088,20.786,4.888,11.043
589,-0.1520,0.1021,0.3901,-0.71,0.48,-0.86,0.109,18.646,3.033,10.741
599,-0.1448,0.0980,0.3905,-0.47,0.36,-0.75,0.109,14.576,-0.242,10.037
609,-0.1300,0.0532,0.4114,0.07,0.18,-0.69,0.109,8.071,-2.719,9.058
619,-0.1265,0.0543,0.4077,0.26,0.12,-0.58,0.109,5.201,-4.208,9.228
629,-0.1216,0.0520,0.4041,0.43,0.08,-0.48,0.109,2.320,0.057,9.062
639,-0.1164,0.0514,0.3996,0.52,0.06,-0.38,0.109,0.054,-0.788,8.302
649,-0.1117,0.0434,0.3945,0.62,0.06,-0.29,0.126,-5.966,1.783,7.429
659,-0.1062,0.0226,0.3896,0.79,0.02,-0.22,0.126,-8.440,3.125,6.317
669,-0.1021,0.0163,0.3825,0.82,-0.00,-0.14,0.126,-11.757,5.756,5.805
679,-0.1021,0.0167,0.3754,0.75,-0.01,-0.07,0.126,-13.006,7.237,5.558
688,-0.1002,0.0165,0.3683,0.66,-0.06,0.00,0.141,-9.954,5.908,5.042
699,-0.0980,0.0167,0.3610,0.54,-0.13,0.06,0.141,-10.978,6.384,4.590
709,-0.0972,0.0160,0.3461,0.41,-0.20,0.12,0.141,-9.510,6.166,4.567
719,-0.1010,0.0155,0.3387,0.30,-0.23,0.17,0.141,-7.000,5.181,4.104
728,-0.0998,0.0153,0.3315,0.20,-0.30,0.21,0.141,-4.001,6.377,3.309
738,-0.0966,0.0152,0.3237,0.10,-0.38,0.26,0.141,-5.998,4.019,4.568
749,-0.0946,0.0169,0.3151,0.01,-0.44,0.30,0.157,-2.505,3.632,3.682
759,-0.0962,0.0194,0.3007,-0.05,-0.48,0.33,0.157,1.488,2.048,3.173
768,-0.0941,0.0193,0.2919,-0.10,-0.53,0.38,0.157,2.689,3.013,2.880
779,-0.0951,0.0199,0.2833,-0.12,-0.55,0.41,0.157,-0.570,2.313,2.934
789,-0.0913,0.0223,0.2753,-0.12,-0.59,0.44,0.170,0.829,0.371,2.972
799,-0.0905,0.0216,0.2671,-0.09,-0.61,0.47,0.170,3.249,2.380,2.290
808,-0.0953,0.0201,0.2533,-0.07,-0.59,0.50,0.170,2.602,-0.806,2.516
819,-0.0966,0.0215,0.2449,-0.07,-0.58,0.53,0.170,4.058,-0.490,2.127
829,-0.0957,0.0216,0.2364,-0.03,-0.60,0.56,0.170,2.269,-1.649,2.458
839,-0.0941,0.0229,0.2281,-0.01,-0.60,0.58,0.182,1.330,-1.389,1.803
849,-0.0916,0.0220,0.2198,0.04,-0.61,0.60,0.182,0.457,-2.210,2.268
859,-0.0912,0.0251,0.2089,0.04,-0.59,0.63,0.182,-1.182,-1.535,2.283
868,-0.0920,0.0252,0.2001,0.07,-0.57,0.64,0.182,-1.419,-0.934,1.968
878,-0.0911,0.0251,0.1917,0.07,-0.55,0.67,0.182,-0.125,-0.321,2.087
889,-0.0900,0.0244,0.1836,0.08,-0.53,0.69,0.191,1.526,0.230,1.763
899,-0.0910,0.0279,0.1757,0.05,-0.50,0.71,0.191,0.272,1.907,1.311
910,-0.0877,0.0291,0.1665,0.05,-0.52,0.73,0.191,3.277,1.906,1.274
919,-0.0887,0.0281,0.1591,0.06,-0.51,0.75,0.191,0.770,1.771,1.216
929,-0.0907,0.0294,0.1517,0.06,-0.51,0.76,0.191,1.154,3.828,1.196
938,-0.0883,0.0294,0.1448,0.08,-0.54,0.77,0.191,0.308,3.854,0.788
948,-0.0849,0.0295,0.1380,0.09,-0.58,0.78,0.202,2.734,4.153,1.255
959,-0.0846,0.0296,0.1377,0.10,-0.62,0.79,0.202,0.605,5.204,0.911
969,-0.0855,0.0319,0.1307,0.09,-0.64,0.80,0.202,-0.402,5.610,1.162
979,-0.0843,0.0318,0.1232,0.11,-0.69,0.81,0.202,1.144,4.432,0.195
989,-0.0793,0.0354,0.1169,0.10,-0.77,0.82,0.210,-0.672,3.537,0.685
998,-0.0781,0.0352,0.1108,0.11,-0.82,0.83,0.210,-1.321,2.351,0.408
1009,-0.0742,0.0414,0.1131,0.07,-0.88,0.83,0.210,0.195,2.490,-0.045
1019,-0.0727,0.0401,0.1075,0.08,-0.92,0.84,0.210,0.672,2.245,0.250
1028,-0.0701,0.0414,0.1018,0.05,-0.95,0.84,0.210,-1.353,0.646,0.121
1039,-0.0663,0.0426,0.0960,0.04,-1.00,0.84,0.212,0.889,0.933,-0.485
1049,-0.0627,0.0438,0.0900,0.04,-1.03,0.84,0.212,0.219,-0.150,-0.232
1059,-0.0641,0.0425,0.0825,0.03,-1.01,0.84,0.212,1.823,-0.614,0.122
1068,-0.0570,0.0438,0.0776,0.03,-1.06,0.83,0.212,1.802,-2.164,-0.096
1078,-0.0553,0.0437,0.0728,0.04,-1.06,0.83,0.212,2.057,-1.581,-0.523
1089,-0.0520,0.0445,0.0678,0.05,-1.06,0.82,0.217,1.120,-2.460,-0.607
1098,-0.0503,0.0444,0.0629,0.07,-1.04,0.82,0.217,0.525,-3.498,-1.027
1108,-0.0577,0.0426,0.0602,0.10,-0.95,0.82,0.217,1.186,-1.432,-0.676
1118,-0.0574,0.0422,0.0553,0.12,-0.92,0.82,0.217,3.789,-1.180,-0.561
1128,-0.0545,0.0420,0.0507,0.13,-0.90,0.81,0.217,0.741,-2.440,-1.173
1138,-0.0518,0.0432,0.0463,0.14,-0.89,0.80,0.214,3.069,-2.038,-1.721
1148,-0.0503,0.0430,0.0423,0.16,-0.88,0.79,0.214,1.230,-1.424,-1.488
1159,-0.0489,0.0442,0.0275,0.16,-0.86,0.78,0.214,3.609,-1.711,-1.266
1169,-0.0448,0.0465,0.0237,0.16,-0.87,0.77,0.214,0.993,1.954,-0.157
1178,-0.0420,0.0462,0.0198,0.17,-0.87,0.76,0.214,-0.545,-0.468,-1.300
1188,-0.0422,0.0444,0.0157,0.21,-0.85,0.75,0.217,-5.443,0.923,-0.637
1198,-0.0407,0.0438,0.0121,0.22,-0.87,0.74,0.217,2.139,1.938,0.170
1208,-0.0393,0.0434,0.0073,0.21,-0.86,0.73,0.217,0.131,-1.277,-0.088
1218,-0.0365,0.0438,0.0042,0.16,-0.88,0.72,0.217,-3.700,0.371,-0.891
1228,-0.0338,0.0434,0.0012,0.17,-0.90,0.72,0.217,0.976,-3.117,-1.377
1239,-0.0323,0.0432,-0.0015,0.16,-0.89,0.72,0.202,-0.774,-0.829,-0.089
1248,-0.0298,0.0448,-0.0041,0.12,-0.90,0.71,0.202,2.450,-4.244,-1.727
1258,-0.0279,0.0443,-0.0402,0.13,-0.87,0.69,0.202,1.250,-3.230,-0.176
1268,-0.0264,0.0441,-0.0424,0.13,-0.86,0.69,0.202,3.664,-4.394,-0.454
1279,-0.0247,0.0450,-0.0446,0.14,-0.82,0.68,0.202,3.966,-3.173,-0.729
1289,-0.0228,0.0460,-0.0468,0.15,-0.79,0.67,0.216,2.628,-1.742,-0.416
1298,-0.0197,0.0438,-0.0486,0.20,-0.76,0.67,0.216,1.586,-1.110,0.351
1309,-0.0180,0.0432,-0.0341,0.23,-0.73,0.66,0.216,1.590,-2.734,0.080
1319,-0.0119,0.0456,-0.0353,0.24,-0.74,0.65,0.216,1.394,-1.862,-0.107
1328,-0.0134,0.0435,-0.0363,0.26,-0.71,0.65,0.216,2.072,-1.004,-0.388
1338,-0.0090,0.0414,-0.0372,0.28,-0.71,0.65,0.215,0.207,-2.378,-0.264
1348,-0.0063,0.0438,-0.0377,0.28,-0.70,0.65,0.215,-0.893,-0.239,0.130
1358,-0.0050,0.0434,-0.0269,0.30,-0.69,0.64,0.215,1.234,1.039,0.676
1368,-0.0039,0.0429,-0.0272,0.31,-0.67,0.64,0.215,0.526,-0.206,0.589
1378,-0.0027,0.0424,-0.0274,0.30,-0.67,0.64,0.215,1.607,-2.896,0.403
1388,-0.0014,0.0418,-0.0277,0.32,-0.68,0.65,0.209,0.998,-0.800,0.749
1398,-0.0004,0.0430,-0.0276,0.32,-0.67,0.66,0.209,3.460,-2.082,1.052
1408,0.0007,0.0424,-0.0315,0.34,-0.65,0.66,0.209,-0.564,-0.655,1.265
1418,0.0017,0.0436,-0.0317,0.34,-0.65,0.67,0.209,2.916,-3.074,0.894
1428,0.0029,0.0430,-0.0317,0.36,-0.63,0.68,0.209,2.303,-2.643,0.458
1438,0.0039,0.0424,-0.0318,0.37,-0.62,0.69,0.209,-1.989,-2.057,0.825
1448,0.0099,0.0396,-0.0318,0.40,-0.62,0.70,0.209,0.871,-2.406,0.593
1458,0.0100,0.0405,-0.0301,0.41,-0.59,0.70,0.209,2.606,-4.160,0.376
1469,0.0103,0.0419,-0.0299,0.38,-0.56,0.71,0.209,1.323,-1.547,0.643
1478,0.0121,0.0376,-0.0298,0.42,-0.54,0.72,0.209,0.607,-1.032,1.030
1488,0.0119,0.0370,-0.0298,0.44,-0.50,0.72,0.207,0.951,-2.809,1.391
1498,0.0139,0.0348,-0.0300,0.45,-0.50,0.73,0.207,0.491,-1.538,1.181
1508,0.0148,0.0340,-0.0307,0.47,-0.49,0.74,0.207,1.457,-1.925,1.097
1518,0.0146,0.0334,-0.0304,0.48,-0.46,0.76,0.207,0.289,-1.940,1.307
1528,0.0154,0.0326,-0.0302,0.48,-0.44,0.77,0.207,1.709,-0.635,1.528
1538,0.0162,0.0318,-0.0300,0.49,-0.43,0.78,0.207,-0.720,0.337,1.538
1548,0.0169,0.0310,-0.0298,0.50,-0.41,0.79,0.206,-0.113,-0.827,1.498
1558,0.0224,0.0288,-0.0282,0.52,-0.43,0.81,0.206,1.808,-0.562,0.309
1569,0.0317,0.0304,-0.0279,0.50,-0.49,0.82,0.206,-0.402,0.316,1.040
1578,0.0330,0.0281,-0.0276,0.52,-0.49,0.83,0.206,0.425,0.564,1.015
1588,0.0377,0.0297,-0.0273,0.52,-0.51,0.83,0.206,0.025,1.213,1.012
1598,0.0352,0.0260,-0.0268,0.53,-0.49,0.84,0.206,-1.453,-0.228,0.789
1608,0.0328,0.0241,-0.0233,0.53,-0.47,0.86,0.206,-1.358,0.551,0.733
1618,0.0359,0.0224,-0.0231,0.52,-0.49,0.87,0.206,-0.442,-0.195,0.735
1629,0.0369,0.0209,-0.0226,0.51,-0.49,0.88,0.206,-0.718,0.180,0.646
1638,0.0378,0.0200,-0.0216,0.49,-0.49,0.89,0.206,-0.630,-1.415,1.270
1648,0.0387,0.0184,-0.0205,0.49,-0.49,0.89,0.202,0.707,-0.838,0.719
1658,0.0395,0.0176,-0.0240,0.49,-0.49,0.90,0.202,1.740,-2.111,0.685
1668,0.0404,0.0167,-0.0236,0.49,-0.47,0.91,0.202,1.386,-2.391,0.481
1678,0.0412,0.0159,-0.0232,0.49,-0.46,0.92,0.202,1.032,-2.967,0.783
1688,0.0494,0.0142,-0.0225,0.51,-0.48,0.92,0.200,-0.125,-2.382,0.783
1698,0.0420,0.0124,-0.0216,0.53,-0.41,0.93,0.200,-0.172,-3.297,0.881
1708,0.0442,0.0106,-0.0254,0.56,-0.40,0.94,0.200,-0.070,-2.087,-0.115
1718,0.0444,0.0094,-0.0249,0.56,-0.38,0.94,0.200,-1.833,-0.838,0.636
1728,0.0463,0.0082,-0.0239,0.56,-0.35,0.95,0.200,-3.022,-1.408,0.550
1738,0.0481,0.0071,-0.0231,0.55,-0.34,0.95,0.200,-0.740,-2.079,0.424
1748,0.0537,0.0044,-0.0227,0.55,-0.35,0.95,0.198,-0.015,-0.257,-0.298
1758,0.0542,0.0035,-0.0262,0.52,-0.34,0.96,0.198,0.546,-0.971,-0.345
1768,0.0557,0.0028,-0.0254,0.51,-0.32,0.96,0.198,-1.621,-1.114,-0.115
1778,0.0538,0.0002,-0.0245,0.51,-0.30,0.96,0.198,-2.591,-1.124,0.229
1788,0.0544,-0.0007,-0.0237,0.50,-0.29,0.96,0.198,-3.971,-2.181,0.309
1798,0.0549,-0.0015,-0.0230,0.49,-0.28,0.96,0.198,-2.031,-1.125,-0.075
1808,0.0528,-0.0041,-0.0222,0.48,-0.25,0.96,0.198,-2.237,-0.874,-0.180
1818,0.0542,-0.0042,-0.0214,0.45,-0.25,0.97,0.198,-1.264,-1.287,0.134
1828,0.0630,-0.0040,-0.0210,0.42,-0.29,0.96,0.198,0.589,-1.277,-0.003
1838,0.0641,-0.0058,-0.0203,0.40,-0.28,0.96,0.195,-0.782,-0.999,-0.219
1848,0.0670,-0.0059,-0.0196,0.37,-0.28,0.97,0.195,-1.802,-0.597,0.046
1858,0.0643,-0.0080,-0.0226,0.37,-0.25,0.97,0.195,-0.182,-0.610,0.083
1868,0.0617,-0.0098,-0.0218,0.36,-0.22,0.96,0.195,0.395,-0.407,-0.017
1878,0.0610,-0.0099,-0.0212,0.34,-0.20,0.96,0.195,-0.012,0.572,0.511
1888,0.0622,-0.0101,-0.0205,0.33,-0.20,0.97,0.190,-1.378,-0.692,0.335
1898,0.0583,-0.0138,-0.0194,0.35,-0.17,0.97,0.190,-1.668,-0.204,0.069
1907,0.0577,-0.0137,-0.0300,0.34,-0.16,0.97,0.190,-2.263,-0.280,0.006
1918,0.0532,-0.0149,-0.0291,0.34,-0.13,0.98,0.190,-3.937,-0.906,0.293
1928,0.0535,-0.0155,-0.0281,0.33,-0.13,0.97,0.190,-2.418,-0.550,0.283
1938,0.0537,-0.0160,-0.0270,0.32,-0.13,0.97,0.195,-2.233,-0.137,-0.048
1948,0.0534,-0.0157,-0.0261,0.30,-0.13,0.97,0.195,-1.928,1.496,0.877
1958,0.0500,-0.0220,-0.0169,0.32,-0.11,0.98,0.195,-4.184,-0.491,0.594
1968,0.0465,-0.0211,-0.0156,0.28,-0.09,0.98,0.195,-3.622,1.520,1.223
1978,0.0547,-0.0203,-0.0141,0.26,-0.15,0.99,0.195,-2.720,0.737,2.153
1988,0.0591,-0.0177,-0.0128,0.20,-0.18,0.99,0.191,-5.367,-1.377,2.069
1998,0.0594,-0.0181,-0.0117,0.17,-0.19,1.01,0.191,-3.012,-1.203,2.291
2008,0.0574,-0.0187,-0.0136,0.14,-0.17,1.03,0.191,-1.966,-0.956,2.671
2018,0.0617,-0.0189,-0.0123,0.08,-0.19,1.05,0.191,1.796,-1.312,3.423
2028,0.0593,-0.0195,-0.0107,0.06,-0.16,1.07,0.191,-3.469,-2.145,4.521
2038,0.0588,-0.0185,-0.0093,0.03,-0.15,1.10,0.191,-0.323,-1.172,4.562
2048,0.0565,-0.0214,-0.0079,0.06,-0.12,1.14,0.191,-0.647,-1.531,4.664
2058,0.0541,-0.0234,-0.0070,0.05,-0.07,1.18,0.191,0.390,-0.978,5.364
2068,0.0597,-0.0209,-0.0059,0.04,-0.09,1.23,0.191,1.182,-1.064,4.934
2078,0.0528,-0.0218,-0.0046,0.04,-0.04,1.28,0.191,1.416,-0.384,5.687
2088,0.0508,-0.0242,-0.0036,0.06,-0.02,1.33,0.191,2.498,0.172,5.541
2098,0.0473,-0.0235,-0.0024,0.08,0.00,1.39,0.191,3.048,0.521,5.581
2108,0.0473,-0.0236,-0.0013,0.10,0.00,1.44,0.191,1.183,1.503,6.048
2118,0.0473,-0.0238,-0.0007,0.12,-0.00,1.50,0.191,0.959,1.442,6.263
2128,0.0471,-0.0233,-0.0001,0.15,-0.02,1.56,0.191,-0.439,1.198,6.289
2138,0.0535,-0.0226,0.0009,0.16,-0.07,1.62,0.193,2.456,0.776,5.229
2148,0.0580,-0.0219,0.0019,0.16,-0.11,1.68,0.193,-0.341,2.790,5.065
2158,0.0562,-0.0228,0.0074,0.17,-0.10,1.74,0.193,3.534,1.329,4.734
2167,0.0564,-0.0231,0.0078,0.18,-0.12,1.80,0.193,2.420,0.328,3.663
2178,0.0566,-0.0234,0.0084,0.19,-0.14,1.85,0.193,2.274,0.937,3.454
2188,0.0614,-0.0230,0.0091,0.22,-0.18,1.90,0.192,2.407,-0.313,1.889
2198,0.0610,-0.0243,0.0095,0.24,-0.18,1.93,0.192,-2.392,4.460,2.812
2208,0.0605,-0.0240,0.0092,0.26,-0.18,1.97,0.192,-0.144,1.523,1.110
2218,0.0665,-0.0234,0.0092,0.27,-0.23,1.98,0.192,-1.532,3.058,0.591
2228,0.0585,-0.0245,0.0097,0.26,-0.22,2.01,0.192,3.105,-1.681,0.561
2238,0.0585,-0.0271,0.0101,0.27,-0.24,2.02,0.192,1.803,0.856,0.233
2248,0.0590,-0.0275,0.0105,0.27,-0.26,2.03,0.192,0.376,-2.036,-1.547
2258,0.0600,-0.0273,0.0092,0.30,-0.24,2.03,0.192,0.791,-0.331,-1.046
2268,0.0566,-0.0288,0.0093,0.33,-0.22,2.03,0.192,-3.416,-0.119,-0.947
2278,0.0570,-0.0294,0.0096,0.34,-0.21,2.02,0.192,-1.276,-1.821,-1.450
2288,0.0574,-0.0299,0.0103,0.32,-0.21,2.01,0.195,-5.979,0.921,-1.365
2298,0.0570,-0.0305,0.0109,0.29,-0.21,2.00,0.195,-4.112,-2.303,-2.329
2308,0.0566,-0.0309,0.0161,0.26,-0.19,1.98,0.195,-3.678,-0.422,-2.380
2318,0.0600,-0.0358,0.0161,0.24,-0.22,1.97,0.195,-1.602,0.364,-1.894
2328,0.0609,-0.0326,0.0164,0.19,-0.22,1.95,0.195,-0.261,0.060,-2.572
2338,0.0613,-0.0329,0.0169,0.16,-0.21,1.92,0.193,0.615,-0.092,-3.149
2348,0.0623,-0.0314,0.0172,0.13,-0.20,1.90,0.193,2.119,-1.499,-3.003
2357,0.0634,-0.0337,0.0134,0.15,-0.20,1.87,0.193,0.502,-1.369,-3.884
2368,0.0662,-0.0377,0.0134,0.20,-0.21,1.83,0.193,0.931,1.009,-3.149
2378,0.0636,-0.0315,0.0136,0.16,-0.18,1.80,0.193,5.745,1.096,-4.105
2388,0.0676,-0.0323,0.0135,0.18,-0.19,1.76,0.192,3.306,1.209,-4.165
2397,0.0608,-0.0347,0.0137,0.22,-0.16,1.73,0.192,4.097,2.882,-4.579
2408,0.0558,-0.0359,0.0083,0.26,-0.14,1.69,0.192,6.230,2.206,-3.671
2418,0.0586,-0.0355,0.0081,0.31,-0.17,1.65,0.192,3.959,-0.100,-5.123
2428,0.0552,-0.0351,0.0080,0.35,-0.16,1.60,0.192,2.502,0.622,-4.970
2438,0.0585,-0.0378,0.0077,0.39,-0.19,1.56,0.192,-0.343,1.190,-4.531
2448,0.0628,-0.0373,0.0073,0.41,-0.23,1.52,0.193,-1.101,0.194,-4.329
2458,0.0593,-0.0369,0.0052,0.41,-0.20,1.47,0.193,-1.765,-0.353,-4.462
2468,0.0574,-0.0391,0.0052,0.41,-0.19,1.43,0.193,-2.231,-0.402,-4.648
2477,0.0630,-0.0364,0.0050,0.36,-0.22,1.38,0.193,-2.224,-0.986,-4.343
2488,0.0626,-0.0396,0.0049,0.35,-0.20,1.34,0.192,-2.854,-2.839,-4.528
2498,0.0621,-0.0398,0.0047,0.31,-0.19,1.29,0.192,-5.000,-3.316,-4.391
2508,0.0630,-0.0385,0.0012,0.27,-0.18,1.25,0.192,-1.001,-2.478,-4.580
2518,0.0607,-0.0388,0.0014,0.24,-0.14,1.20,0.192,-1.433,-2.332,-4.551
2527,0.0568,-0.0387,0.0017,0.20,-0.08,1.16,0.192,1.854,-1.737,-4.657
2537,0.0569,-0.0390,0.0021,0.20,-0.07,1.11,0.192,-1.901,-2.016,-4.123
2547,0.0570,-0.0394,0.0022,0.19,-0.04,1.07,0.193,1.464,-2.789,-4.142
2558,0.0689,-0.0444,0.0014,0.23,-0.10,1.02,0.193,-0.568,-1.976,-4.189
2568,0.0676,-0.0428,0.0017,0.21,-0.06,0.98,0.193,2.712,-0.442,-3.784
2578,0.0664,-0.0418,0.0021,0.22,-0.04,0.94,0.193,-0.271,-1.164,-4.317
2588,0.0682,-0.0434,0.0024,0.23,-0.03,0.90,0.194,-0.001,0.806,-3.970
2598,0.0824,-0.0421,0.0023,0.23,-0.11,0.86,0.194,-0.453,-0.326,-3.038
2607,0.0795,-0.0426,0.0045,0.24,-0.09,0.81,0.194,-0.506,-0.654,-3.821
2617,0.0827,-0.0426,0.0045,0.22,-0.11,0.78,0.194,-1.160,-0.440,-3.988
2628,0.0678,-0.0460,0.0051,0.23,-0.01,0.74,0.194,1.125,-0.512,-3.925
2638,0.0787,-0.0432,0.0049,0.22,-0.08,0.70,0.193,-0.955,-1.478,-4.629
2648,0.0773,-0.0432,0.0049,0.21,-0.06,0.67,0.193,0.662,-0.456,-4.347
2658,0.0805,-0.0421,0.0031,0.21,-0.08,0.62,0.193,1.163,-1.551,-4.737
2668,0.0774,-0.0438,0.0033,0.22,-0.04,0.58,0.193,1.376,-1.574,-4.785
2678,0.0700,-0.0455,0.0036,0.23,0.02,0.54,0.193,-0.223,-1.554,-4.547
2687,0.0656,-0.0442,0.0038,0.23,0.07,0.49,0.197,0.296,-1.711,-4.198
2698,0.0655,-0.0446,0.0040,0.24,0.09,0.44,0.197,-1.944,-1.869,-3.634
2708,0.0781,-0.0462,0.0113,0.25,0.03,0.39,0.197,-0.684,-2.264,-3.705
2717,0.0780,-0.0467,0.0114,0.24,0.04,0.35,0.197,-1.228,-1.858,-3.538
2727,0.0810,-0.0451,0.0114,0.21,0.04,0.31,0.197,-0.793,-0.822,-2.727
2738,0.0809,-0.0455,0.0117,0.20,0.06,0.28,0.197,-1.221,-1.428,-2.937
2747,0.0807,-0.0439,0.0123,0.17,0.08,0.25,0.196,-1.455,-1.131,-3.251
2757,0.0774,-0.0519,0.0136,0.21,0.11,0.22,0.196,-0.997,-2.836,-3.092
2768,0.0787,-0.0515,0.0138,0.19,0.11,0.19,0.196,-1.442,-2.255,-3.608
2778,0.0706,-0.0527,0.0141,0.18,0.18,0.15,0.196,-1.385,-1.500,-2.972
2788,0.0703,-0.0510,0.0143,0.16,0.20,0.12,0.195,-0.907,-1.550,-3.245
2797,0.0655,-0.0492,0.0147,0.13,0.25,0.09,0.195,1.103,-2.074,-3.187
2806,0.0745,-0.0489,0.0115,0.12,0.21,0.06,0.195,0.930,-3.101,-3.536
2818,0.0727,-0.0471,0.0113,0.11,0.23,0.03,0.195,0.839,-2.060,-3.260
2828,0.0677,-0.0473,0.0112,0.12,0.28,-0.01,0.195,1.322,-0.655,-3.050
2836,0.0672,-0.0475,0.0114,0.13,0.31,-0.04,0.195,2.937,-1.005,-3.214
2848,0.0717,-0.0493,0.0114,0.15,0.29,-0.08,0.196,2.146,0.574,-2.958
2858,0.0744,-0.0508,0.0100,0.18,0.28,-0.11,0.196,1.399,0.673,-3.662
2868,0.0740,-0.0511,0.0098,0.20,0.28,-0.14,0.196,-0.374,0.114,-3.481
2877,0.0708,-0.0513,0.0098,0.21,0.29,-0.17,0.196,-0.375,-0.030,-3.611
2887,0.0703,-0.0516,0.0099,0.22,0.29,-0.20,0.194,-0.750,0.582,-3.391
2898,0.0654,-0.0548,0.0099,0.24,0.32,-0.24,0.194,0.454,1.224,-3.411
2907,0.0606,-0.0530,0.0043,0.22,0.35,-0.28,0.194,-1.946,0.721,-3.401
2918,0.0600,-0.0533,0.0045,0.22,0.34,-0.31,0.194,-3.457,0.576,-3.478
2927,0.0555,-0.0516,0.0049,0.20,0.35,-0.34,0.194,-1.587,-0.190,-3.343
2938,0.0528,-0.0479,0.0050,0.14,0.36,-0.37,0.197,-2.755,-0.928,-2.885
2948,0.0549,-0.0539,0.0049,0.15,0.34,-0.41,0.197,-0.482,-0.751,-2.881
2957,0.0666,-0.0553,0.0070,0.14,0.26,-0.44,0.197,-1.301,-1.150,-3.286
2966,0.0661,-0.0555,0.0071,0.13,0.27,-0.47,0.197,-2.432,0.267,-2.809
2978,0.0678,-0.0584,0.0073,0.14,0.27,-0.50,0.197,0.255,-0.912,-3.205
2988,0.0661,-0.0561,0.0075,0.11,0.28,-0.54,0.193,-1.875,-0.037,-2.351
2997,0.0614,-0.0586,0.0075,0.11,0.31,-0.57,0.193,-0.234,-0.789,-2.735
3007,0.0534,-0.0595,0.0000,0.10,0.36,-0.60,0.193,0.210,0.099,-1.832
3016,0.0570,-0.0588,0.0003,0.09,0.34,-0.62,0.193,0.097,0.521,-1.979
3028,0.0557,-0.0581,0.0005,0.08,0.34,-0.64,0.193,-0.132,1.297,-1.735
3037,0.0529,-0.0545,0.0005,0.05,0.36,-0.66,0.195,-1.099,2.350,-1.342
3048,0.0518,-0.0539,0.0005,0.04,0.35,-0.68,0.195,-0.932,1.320,-1.940
3058,0.0524,-0.0503,0.0001,0.01,0.33,-0.70,0.195,-0.356,1.983,-1.362
3068,0.0515,-0.0576,0.0003,0.05,0.31,-0.72,0.195,-0.467,2.126,-1.621
3077,0.0522,-0.0585,0.0004,0.06,0.29,-0.74,0.195,-0.461,2.597,-1.066
3087,0.0499,-0.0609,0.0004,0.07,0.27,-0.75,0.197,-0.378,3.114,-1.508
3098,0.0434,-0.0578,0.0008,0.04,0.29,-0.76,0.197,-0.718,2.384,-1.515
3106,0.0429,-0.0579,0.0050,0.03,0.26,-0.78,0.197,0.745,2.275,-1.286
3117,0.0428,-0.0558,0.0053,0.01,0.23,-0.79,0.197,0.939,1.325,-1.503
3128,0.0396,-0.0611,0.0055,0.04,0.22,-0.81,0.197,0.729,0.325,-1.634
3137,0.0395,-0.0589,0.0057,0.03,0.20,-0.82,0.197,-0.216,0.237,-1.305
3146,0.0379,-0.0584,0.0060,0.03,0.19,-0.83,0.191,1.031,0.570,-1.348
3157,0.0422,-0.0549,-0.0059,0.01,0.15,-0.85,0.191,0.429,-0.347,-1.943
3167,0.0403,-0.0604,-0.0059,0.05,0.16,-0.86,0.191,0.554,-0.894,-1.162
3177,0.0400,-0.0605,-0.0057,0.05,0.16,-0.88,0.191,0.716,-0.530,-1.481
3187,0.0397,-0.0606,-0.0057,0.04,0.17,-0.89,0.195,-0.657,0.058,-1.696
3197,0.0393,-0.0582,-0.0054,0.03,0.18,-0.90,0.195,-1.520,-1.610,-1.782
3207,0.0372,-0.0637,-0.0025,0.06,0.21,-0.92,0.195,1.025,-0.092,-1.726
3217,0.0355,-0.0644,-0.0022,0.05,0.22,-0.94,0.195,0.201,-0.298,-2.014
3227,0.0351,-0.0645,-0.0020,0.06,0.23,-0.95,0.195,-0.724,-0.606,-1.969
3236,0.0381,-0.0653,-0.0018,0.07,0.21,-0.97,0.195,-1.183,-0.932,-1.697
3247,0.0377,-0.0654,-0.0015,0.06,0.22,-0.99,0.196,-1.164,-1.106,-1.857
3257,0.0390,-0.0645,0.0031,0.04,0.22,-1.00,0.196,-1.410,-0.735,-1.197
3267,0.0369,-0.0648,0.0037,0.01,0.24,-1.02,0.196,0.264,2.195,-1.366
3276,0.0333,-0.0653,0.0043,-0.00,0.27,-1.03,0.196,-1.664,-0.864,-1.907
3286,0.0330,-0.0659,0.0048,-0.01,0.25,-1.05,0.197,-2.977,0.024,-1.721
3297,0.0330,-0.0652,0.0051,-0.00,0.25,-1.07,0.197,-2.430,0.996,-1.085
3307,0.0311,-0.0656,0.0095,-0.02,0.26,-1.09,0.197,0.444,1.426,-1.698
3316,0.0310,-0.0644,0.0101,-0.04,0.25,-1.10,0.197,0.056,-0.237,-1.993
3327,0.0293,-0.0631,0.0106,-0.06,0.26,-1.12,0.197,-1.393,1.142,-1.951
3336,0.0265,-0.0606,0.0110,-0.07,0.27,-1.14,0.194,-2.386,-1.692,-1.685
3346,0.0266,-0.0581,0.0116,-0.10,0.27,-1.15,0.194,-1.745,-1.705,-1.464
3356,0.0266,-0.0615,0.0065,-0.10,0.27,-1.17,0.194,-2.191,-1.731,-1.502
3367,0.0261,-0.0613,0.0071,-0.13,0.28,-1.18,0.194,0.121,0.809,-1.609
3376,0.0260,-0.0614,0.0073,-0.17,0.29,-1.19,0.194,-0.246,-0.131,-1.714
3386,0.0244,-0.0615,0.0073,-0.17,0.30,-1.21,0.194,-0.112,-0.924,-1.021
3397,0.0261,-0.0621,0.0075,-0.18,0.28,-1.23,0.194,-0.427,-0.579,-1.296
3406,0.0256,-0.0617,0.0042,-0.19,0.28,-1.24,0.194,-0.661,0.324,-0.411
3416,0.0239,-0.0651,0.0042,-0.17,0.29,-1.25,0.194,1.491,0.451,-0.608
3426,0.0234,-0.0648,0.0044,-0.19,0.29,-1.26,0.194,2.020,0.911,-0.066
3436,0.0221,-0.0650,0.0048,-0.19,0.29,-1.26,0.194,4.844,2.130,-0.381
3446,0.0192,-0.0623,0.0054,-0.19,0.29,-1.27,0.198,2.632,2.823,0.270
3457,0.0194,-0.0664,0.0122,-0.13,0.27,-1.27,0.198,-0.162,-0.912,-0.667
3467,0.0184,-0.0659,0.0126,-0.09,0.24,-1.28,0.198,-0.458,0.373,-0.354
3476,0.0174,-0.0605,0.0129,-0.11,0.25,-1.28,0.198,-0.028,1.263,0.127
3486,0.0170,-0.0603,0.0131,-0.11,0.24,-1.28,0.193,0.174,1.073,0.110
3497,0.0175,-0.0576,0.0133,-0.14,0.23,-1.28,0.193,-4.758,1.554,0.140
3506,0.0165,-0.0630,0.0047,-0.11,0.22,-1.28,0.193,-1.730,-1.564,-0.110
3516,0.0161,-0.0628,0.0048,-0.13,0.22,-1.28,0.193,-3.305,-0.379,0.104
3526,0.0169,-0.0628,0.0049,-0.15,0.21,-1.28,0.193,-2.398,-1.397,0.690
3536,0.0156,-0.0630,0.0051,-0.17,0.22,-1.28,0.197,-3.003,-1.371,1.252
3546,0.0128,-0.0614,0.0055,-0.22,0.25,-1.27,0.197,-2.295,-0.771,0.492
3556,0.0116,-0.0601,0.0089,-0.24,0.28,-1.27,0.197,0.155,-0.100,0.385
3566,0.0119,-0.0634,0.0092,-0.24,0.28,-1.26,0.197,-0.213,-0.448,1.222
3576,0.0108,-0.0557,0.0098,-0.29,0.29,-1.26,0.197,1.134,-0.444,0.981
3587,0.0103,-0.0552,0.0107,-0.28,0.29,-1.25,0.198,0.948,1.225,1.133
3597,0.0098,-0.0547,0.0112,-0.28,0.29,-1.24,0.198,0.577,2.345,1.399
3606,0.0098,-0.0547,0.0142,-0.28,0.28,-1.23,0.198,2.764,2.121,1.293
3616,0.0085,-0.0653,0.0144,-0.18,0.26,-1.22,0.198,2.791,2.731,1.255
3626,0.0065,-0.0624,0.0147,-0.18,0.24,-1.20,0.198,1.810,3.705,1.460
3637,0.0082,-0.0636,0.0147,-0.17,0.23,-1.20,0.193,-2.249,2.494,1.906
3646,0.0079,-0.0660,0.0146,-0.13,0.20,-1.19,0.193,-3.543,4.004,1.581
3656,0.0073,-0.0654,0.0034,-0.12,0.14,-1.16,0.193,-1.725,3.123,2.126
3666,0.0054,-0.0704,0.0030,-0.12,0.11,-1.14,0.193,-4.241,3.967,2.802
3677,0.0052,-0.0702,0.0029,-0.14,0.09,-1.12,0.193,-3.635,0.838,2.976
3686,0.0053,-0.0686,0.0030,-0.15,0.09,-1.12,0.196,-4.265,1.214,2.870
3697,0.0052,-0.0683,0.0028,-0.18,0.06,-1.10,0.196,-4.635,0.217,2.909
3706,0.0048,-0.0714,0.0026,-0.19,0.04,-1.07,0.196,-3.409,-1.191,2.610
3716,0.0063,-0.0693,0.0027,-0.24,0.01,-1.04,0.196,-0.079,-2.741,2.612
3726,0.0092,-0.0653,0.0031,-0.30,-0.01,-1.01,0.196,0.678,-1.941,2.504
3736,0.0085,-0.0665,0.0035,-0.33,0.01,-0.99,0.195,1.108,-3.273,2.143
3746,0.0079,-0.0648,0.0037,-0.35,0.03,-0.96,0.195,0.685,-2.430,3.498
3756,0.0022,-0.0632,0.0014,-0.36,0.08,-0.93,0.195,0.868,-1.275,2.671
3766,0.0014,-0.0618,0.0018,-0.36,0.11,-0.90,0.195,0.954,-2.119,3.067
3776,0.0058,-0.0591,0.0023,-0.37,0.12,-0.87,0.195,1.414,-1.584,2.741
3786,0.0057,-0.0584,0.0026,-0.36,0.13,-0.84,0.198,-1.466,-0.423,3.450
3796,0.0050,-0.0590,0.0027,-0.35,0.15,-0.81,0.198,1.451,0.641,3.586
3806,0.0044,-0.0545,0.0079,-0.35,0.17,-0.78,0.198,-2.743,-0.110,3.543
3816,0.0037,-0.0646,0.0082,-0.29,0.18,-0.75,0.198,-2.708,1.571,3.982
3826,0.0050,-0.0617,0.0084,-0.30,0.17,-0.71,0.198,-4.372,0.211,3.137
3836,0.0045,-0.0614,0.0084,-0.32,0.17,-0.68,0.198,-3.632,0.566,3.893
3846,0.0027,-0.0598,0.0088,-0.36,0.17,-0.64,0.194,-3.806,0.887,3.920
3856,0.0024,-0.0579,0.0027,-0.40,0.15,-0.61,0.194,-1.665,0.610,3.357
3866,0.0021,-0.0608,0.0031,-0.41,0.15,-0.57,0.194,-0.938,1.047,3.399
3876,0.0036,-0.0574,0.0031,-0.46,0.13,-0.53,0.194,-0.952,0.565,2.798
3886,0.0033,-0.0565,0.0034,-0.49,0.12,-0.50,0.199,0.016,-0.028,2.791
3896,0.0032,-0.0566,0.0037,-0.49,0.11,-0.46,0.199,-0.257,0.730,2.973
3906,0.0030,-0.0558,0.0105,-0.50,0.10,-0.43,0.199,-0.498,0.848,2.446
3916,0.0027,-0.0611,0.0107,-0.47,0.10,-0.41,0.199,0.832,0.040,2.648
3926,0.0025,-0.0603,0.0107,-0.47,0.09,-0.38,0.199,-1.266,0.757,2.600
3936,0.0024,-0.0620,0.0108,-0.46,0.09,-0.35,0.198,0.549,0.113,3.027
3946,0.0021,-0.0596,0.0114,-0.46,0.08,-0.30,0.198,1.550,0.198,2.613
3956,0.0019,-0.0581,0.0119,-0.45,0.08,-0.27,0.198,2.038,0.320,2.608
3966,0.0019,-0.0581,0.0119,-0.45,0.08,-0.27,0.198,0.616,1.335,2.731
3976,0.0017,-0.0573,0.0121,-0.44,0.08,-0.24,0.198,0.080,1.646,3.194
3986,0.0034,-0.0543,0.0121,-0.44,0.06,-0.22,0.199,-0.104,0.863,2.954
3996,0.0033,-0.0550,0.0120,-0.43,0.05,-0.19,0.199,2.821,-0.532,3.309
4005,0.0033,-0.0554,0.0130,-0.41,0.04,-0.16,0.199,-1.200,0.578,3.507
4016,0.0032,-0.0507,0.0130,-0.44,0.03,-0.13,0.199,-0.279,-0.112,3.181
4026,0.0030,-0.0450,0.0129,-0.46,0.03,-0.10,0.199,-1.836,0.429,3.624
4037,0.0012,-0.0526,0.0125,-0.41,0.03,-0.03,0.199,-0.547,-0.435,3.427
4046,0.0012,-0.0526,0.0125,-0.41,0.03,-0.03,0.199,-1.552,-0.704,3.231
4056,0.0026,-0.0498,0.0117,-0.43,0.02,0.00,0.199,-1.780,-0.287,3.483
4066,0.0026,-0.0491,0.0115,-0.44,0.02,0.04,0.199,-1.806,-0.184,3.628
4076,0.0023,-0.0497,0.0112,-0.44,0.02,0.07,0.199,-1.014,-1.391,3.560
4086,0.0005,-0.0452,0.0111,-0.47,0.04,0.10,0.198,0.247,-0.864,2.911
4096,0.0003,-0.0472,0.0108,-0.47,0.04,0.14,0.198,-0.527,0.190,4.283
4106,0.0017,-0.0444,0.0065,-0.50,0.04,0.17,0.198,-0.305,0.446,3.657
4116,0.0015,-0.0450,0.0063,-0.49,0.05,0.21,0.198,1.102,0.066,3.388
4126,0.0014,-0.0442,0.0060,-0.50,0.06,0.25,0.198,-0.184,-0.121,3.820
4136,0.0013,-0.0433,0.0058,-0.50,0.06,0.28,0.197,2.020,0.400,3.413
4146,0.0028,-0.0409,0.0055,-0.50,0.04,0.32,0.197,0.960,1.719,3.346
4156,0.0058,-0.0416,0.0003,-0.49,0.02,0.36,0.197,0.900,1.933,3.500
4166,0.0058,-0.0408,0.0003,-0.48,0.02,0.39,0.197,0.185,1.834,3.303
4176,0.0057,-0.0400,-0.0001,-0.47,-0.00,0.43,0.197,0.612,2.144,3.909
4186,0.0057,-0.0392,-0.0005,-0.46,-0.02,0.46,0.198,-1.820,1.692,3.524
4195,0.0058,-0.0384,-0.0004,-0.45,-0.04,0.49,0.198,-2.453,0.092,3.591
4207,0.0058,-0.0376,-0.0009,-0.45,-0.05,0.53,0.198,-1.655,-0.729,4.018
4216,0.0077,-0.0387,-0.0009,-0.44,-0.07,0.57,0.198,-3.179,-2.049,3.942
4226,0.0078,-0.0379,-0.0010,-0.46,-0.07,0.60,0.198,-1.576,-1.168,4.198
4235,0.0075,-0.0411,-0.0012,-0.45,-0.05,0.64,0.195,-3.430,-3.672,3.974
4247,0.0068,-0.0361,-0.0009,-0.50,-0.03,0.68,0.195,-3.183,-2.975,3.284
4256,0.0081,-0.0408,-0.0074,-0.48,-0.02,0.72,0.195,-5.706,-0.537,3.976
4266,0.0081,-0.0399,-0.0072,-0.52,0.01,0.76,0.195,1.669,1.303,3.538
4276,0.0109,-0.0367,-0.0069,-0.56,0.02,0.80,0.195,0.733,-1.852,3.704
4286,0.0103,-0.0373,-0.0068,-0.59,0.04,0.84,0.198,3.439,-0.449,3.511
4296,0.0103,-0.0363,-0.0064,-0.59,0.03,0.87,0.198,0.034,-1.501,3.534
4305,0.0096,-0.0372,-0.0027,-0.56,0.05,0.91,0.198,1.450,-0.438,3.669
4316,0.0093,-0.0370,-0.0024,-0.55,0.05,0.95,0.198,3.151,-2.285,2.884
4326,0.0102,-0.0346,-0.0023,-0.55,0.05,0.98,0.198,2.942,-0.518,2.520
4336,0.0114,-0.0324,-0.0020,-0.54,0.06,1.02,0.199,-0.411,-1.212,2.760
4345,0.0113,-0.0315,-0.0014,-0.52,0.07,1.05,0.199,4.055,-2.297,2.879
4356,0.0111,-0.0306,0.0038,-0.49,0.08,1.08,0.199,2.182,-1.405,2.304
4366,0.0102,-0.0304,0.0044,-0.50,0.09,1.10,0.199,-1.107,-0.368,2.317
4376,0.0128,-0.0323,0.0046,-0.45,0.09,1.13,0.199,-1.380,0.776,1.797
4386,0.0135,-0.0288,0.0045,-0.45,0.11,1.15,0.195,-1.384,0.572,1.868
4396,0.0128,-0.0305,0.0046,-0.43,0.14,1.17,0.195,-1.924,-0.306,1.086
4405,0.0137,-0.0262,-0.0021,-0.46,0.13,1.19,0.195,-2.004,0.064,0.639
4415,0.0129,-0.0311,-0.0018,-0.45,0.13,1.21,0.195,-1.521,1.153,0.728
4426,0.0104,-0.0324,-0.0016,-0.46,0.16,1.22,0.195,-1.515,-2.553,-0.192
4436,0.0095,-0.0282,-0.0013,-0.49,0.17,1.23,0.196,-0.005,-2.733,0.389
4445,0.0105,-0.0261,-0.0006,-0.52,0.16,1.24,0.196,-1.543,-3.671,0.087
4456,0.0108,-0.0240,-0.0013,-0.54,0.18,1.24,0.196,-1.827,-2.528,0.431
4466,0.0094,-0.0187,-0.0006,-0.57,0.23,1.24,0.196,-2.336,-2.124,0.304
4476,0.0090,-0.0177,-0.0002,-0.59,0.26,1.24,0.196,-3.401,-0.910,0.076
4486,0.0078,-0.0140,0.0004,-0.63,0.29,1.25,0.197,-3.625,0.637,-0.297
4495,0.0068,-0.0137,0.0012,-0.65,0.32,1.25,0.197,0.265,-0.675,-0.694
4506,0.0108,-0.0115,0.0032,-0.69,0.30,1.25,0.197,-0.590,1.297,-0.723
4515,0.0103,-0.0103,0.0039,-0.73,0.29,1.25,0.197,1.185,-0.690,-1.307
4525,0.0091,-0.0071,0.0046,-0.75,0.30,1.25,0.197,2.162,-1.030,-1.943
4535,0.0150,-0.0072,0.0054,-0.75,0.25,1.24,0.194,2.026,0.642,-1.428
4547,0.0145,-0.0059,0.0066,-0.73,0.26,1.22,0.194,3.193,0.378,-2.244
4556,0.0133,-0.0066,0.0012,-0.70,0.27,1.21,0.194,2.949,0.879,-1.504
4566,0.0129,-0.0054,0.0017,-0.68,0.27,1.19,0.194,5.345,0.332,-1.915
4575,0.0124,-0.0043,0.0020,-0.65,0.26,1.17,0.194,1.621,1.345,-2.360
4585,0.0062,-0.0034,0.0027,-0.63,0.29,1.15,0.197,-0.192,-0.327,-2.450
4595,0.0090,-0.0028,0.0032,-0.59,0.27,1.13,0.197,4.608,0.085,-2.828
4605,0.0100,-0.0022,0.0061,-0.58,0.25,1.11,0.197,1.469,-0.187,-3.512
4615,0.0096,-0.0012,0.0064,-0.56,0.25,1.08,0.197,2.694,1.090,-3.095
4625,0.0069,-0.0010,0.0066,-0.53,0.26,1.05,0.197,-0.883,0.688,-3.181
4635,0.0010,-0.0006,0.0071,-0.51,0.29,1.02,0.194,-0.471,-0.102,-4.284
4646,0.0056,-0.0002,0.0077,-0.48,0.25,0.99,0.194,-2.689,-0.003,-4.491
4655,0.0066,0.0008,0.0024,-0.47,0.24,0.96,0.194,-2.355,1.783,-4.153
4665,0.0060,0.0001,0.0029,-0.46,0.25,0.92,0.194,-2.877,1.357,-4.367
4675,0.0038,-0.0019,0.0032,-0.47,0.26,0.87,0.194,0.289,3.343,-4.150
4686,0.0018,-0.0023,0.0039,-0.49,0.25,0.83,0.195,1.929,4.391,-4.342
4696,0.0063,0.0038,0.0047,-0.54,0.21,0.79,0.195,0.611,2.064,-4.671
4706,0.0029,0.0013,0.0037,-0.53,0.20,0.74,0.195,4.316,1.935,-4.760
4716,0.0061,0.0131,0.0042,-0.57,0.14,0.70,0.195,2.164,2.888,-4.036
4726,0.0057,0.0153,0.0045,-0.57,0.12,0.65,0.195,3.911,1.548,-4.590
4735,0.0055,0.0163,0.0050,-0.54,0.10,0.60,0.195,1.294,-0.384,-4.139
4745,0.0070,0.0164,0.0057,-0.50,0.06,0.56,0.195,-0.232,-0.471,-4.059
4755,0.0086,0.0161,0.0048,-0.47,0.04,0.51,0.195,0.070,-1.942,-4.229
4765,0.0085,0.0169,0.0057,-0.45,0.04,0.47,0.195,0.449,-2.845,-4.076
4776,0.0064,0.0169,0.0067,-0.44,0.05,0.43,0.195,-1.701,-2.991,-4.126
4785,0.0075,0.0168,0.0073,-0.43,0.05,0.39,0.198,-2.098,-2.999,-4.133
4795,0.0068,0.0184,0.0079,-0.43,0.07,0.35,0.198,-4.152,-3.067,-3.237
4805,0.0044,0.0185,0.0136,-0.43,0.11,0.31,0.198,-2.187,-2.534,-3.645
4816,0.0042,0.0192,0.0142,-0.44,0.14,0.27,0.198,-1.620,-3.327,-3.435
4825,0.0066,0.0212,0.0148,-0.47,0.15,0.23,0.198,0.938,-0.036,-3.293
4836,0.0072,0.0216,0.0154,-0.50,0.18,0.20,0.196,0.917,-1.237,-3.608
4846,0.0064,0.0233,0.0159,-0.51,0.21,0.16,0.196,-0.627,-1.636,-2.882
4855,0.0073,0.0245,0.0132,-0.51,0.21,0.13,0.196,1.181,0.046,-3.415
4865,0.0070,0.0254,0.0135,-0.51,0.22,0.09,0.196,2.152,1.107,-2.747
4875,0.0062,0.0233,0.0141,-0.49,0.24,0.06,0.196,2.060,1.442,-2.576
4885,0.0058,0.0242,0.0143,-0.47,0.24,0.03,0.197,1.353,2.397,-2.519
4895,0.0054,0.0250,0.0142,-0.44,0.23,-0.00,0.197,0.633,1.713,-2.631
4905,0.0050,0.0257,0.0130,-0.42,0.21,-0.03,0.197,1.946,1.105,-2.757
4915,0.0048,0.0270,0.0133,-0.41,0.19,-0.05,0.197,3.811,1.513,-2.509
4925,0.0027,0.0211,0.0136,-0.36,0.18,-0.08,0.197,1.853,1.880,-2.459
4935,0.0008,0.0204,0.0139,-0.33,0.18,-0.11,0.200,0.800,2.045,-2.085
4945,0.0005,0.0210,0.0142,-0.29,0.16,-0.13,0.200,0.483,1.822,-1.800
4955,0.0023,0.0343,0.0189,-0.36,0.13,-0.15,0.200,0.509,0.648,-2.284
4965,0.0006,0.0333,0.0192,-0.33,0.12,-0.17,0.200,1.334,1.745,-1.415
4975,0.0004,0.0338,0.0192,-0.33,0.10,-0.19,0.200,-0.728,0.471,-1.226
4985,0.0002,0.0344,0.0194,-0.32,0.09,-0.21,0.203,-0.389,-0.059,-0.612
4995,-0.0014,0.0334,0.0196,-0.30,0.09,-0.23,0.203,-0.217,-0.072,-1.142
5005,-0.0016,0.0340,0.0268,-0.31,0.08,-0.24,0.203,-0.688,-0.388,-0.622
5015,-0.0017,0.0345,0.0271,-0.31,0.08,-0.25,0.203,-0.589,-1.999,-0.760
5025,-0.0017,0.0354,0.0270,-0.31,0.08,-0.26,0.203,0.223,-0.978,-1.109
5035,-0.0019,0.0328,0.0271,-0.30,0.08,-0.26,0.201,-1.490,-0.798,-0.479
5045,0.0014,0.0390,0.0268,-0.34,0.08,-0.27,0.201,-0.282,-1.396,-0.655
5055,-0.0006,0.0379,0.0232,-0.33,0.10,-0.28,0.201,0.116,-0.445,-0.314
5065,-0.0008,0.0385,0.0229,-0.34,0.11,-0.28,0.201,-0.923,-0.099,-0.124
5075,-0.0011,0.0391,0.0227,-0.34,0.12,-0.29,0.201,-0.922,-1.639,-0.160
5085,0.0005,0.0381,0.0226,-0.33,0.11,-0.29,0.200,-0.344,-1.402,0.130
5095,0.0020,0.0390,0.0222,-0.33,0.11,-0.29,0.200,-0.054,-1.842,0.370
5105,0.0018,0.0395,0.0154,-0.34,0.12,-0.30,0.200,1.737,-1.183,0.045
5115,0.0049,0.0383,0.0150,-0.33,0.11,-0.30,0.200,1.278,-1.669,-0.442
5126,0.0007,0.0372,0.0148,-0.32,0.15,-0.29,0.200,1.461,-1.497,0.119
5135,0.0019,0.0410,0.0145,-0.32,0.16,-0.30,0.204,0.292,-0.754,0.401
5145,0.0030,0.0432,0.0141,-0.31,0.16,-0.30,0.204,0.648,-0.847,0.223
5155,0.0042,0.0419,0.0170,-0.29,0.17,-0.30,0.204,1.808,-0.771,0.431
5165,0.0019,0.0424,0.0169,-0.29,0.19,-0.29,0.204,1.741,-0.754,0.208
5175,0.0016,0.0429,0.0168,-0.28,0.20,-0.29,0.204,1.172,0.972,0.778
5185,0.0027,0.0377,0.0167,-0.23,0.20,-0.29,0.208,0.798,0.480,0.388
5195,0.0024,0.0380,0.0166,-0.21,0.20,-0.28,0.208,1.722,0.240,0.589
5206,0.0021,0.0348,0.0257,-0.17,0.19,-0.28,0.208,2.167,-0.358,1.221
5215,0.0017,0.0354,0.0258,-0.17,0.18,-0.27,0.208,1.949,0.880,1.361
5225,0.0014,0.0359,0.0258,-0.16,0.18,-0.27,0.208,2.141,1.748,1.218
5235,0.0011,0.0361,0.0257,-0.13,0.18,-0.26,0.205,-0.270,0.808,1.344
5245,-0.0026,0.0364,0.0257,-0.11,0.20,-0.25,0.205,1.680,-1.141,0.962
5255,-0.0029,0.0366,0.0212,-0.10,0.19,-0.23,0.205,-2.136,-0.456,1.104
5266,-0.0032,0.0367,0.0210,-0.11,0.18,-0.22,0.205,-2.253,-0.087,0.917
5275,-0.0016,0.0352,0.0206,-0.09,0.18,-0.21,0.205,-0.274,-1.528,0.257
5285,-0.0038,0.0375,0.0200,-0.12,0.19,-0.20,0.206,-1.906,-0.817,0.653
5295,-0.0041,0.0377,0.0198,-0.14,0.20,-0.19,0.206,-1.064,-1.909,1.181
5305,-0.0026,0.0364,0.0170,-0.15,0.20,-0.18,0.206,2.092,-2.694,0.472
5315,-0.0031,0.0390,0.0166,-0.18,0.21,-0.18,0.206,-0.930,1.046,1.356
5325,-0.0034,0.0393,0.0163,-0.18,0.22,-0.17,0.206,0.110,-0.361,0.750
5335,-0.0005,0.0377,0.0156,-0.16,0.23,-0.16,0.205,-0.529,1.747,0.892
5345,-0.0043,0.0367,0.0151,-0.16,0.24,-0.15,0.205,0.494,0.951,1.491
5355,-0.0047,0.0369,0.0096,-0.15,0.24,-0.14,0.205,0.201,0.376,1.078
5365,-0.0065,0.0356,0.0093,-0.14,0.23,-0.13,0.205,1.925,1.654,1.140
5375,-0.0047,0.0343,0.0089,-0.13,0.21,-0.11,0.205,-1.718,2.640,1.047
5385,-0.0048,0.0365,0.0083,-0.14,0.20,-0.10,0.203,-0.777,1.998,1.196
5394,-0.0048,0.0335,0.0080,-0.10,0.19,-0.09,0.203,0.241,-0.126,0.638
5405,-0.0044,0.0305,-0.0001,-0.09,0.16,-0.08,0.203,0.331,0.053,0.443
5415,-0.0041,0.0332,-0.0003,-0.12,0.13,-0.07,0.203,0.019,0.525,0.246
5425,-0.0023,0.0321,-0.0005,-0.11,0.11,-0.06,0.203,-0.267,-0.683,0.316
5435,-0.0024,0.0327,-0.0008,-0.12,0.11,-0.06,0.203,0.895,0.370,0.276
5445,-0.0026,0.0329,-0.0009,-0.13,0.10,-0.05,0.202,-0.491,-0.767,0.642
5455,-0.0010,0.0320,-0.0079,-0.13,0.10,-0.05,0.202,-1.366,-0.677,0.476
5464,-0.0045,0.0326,-0.0077,-0.13,0.11,-0.05,0.202,-1.682,0.382,1.193
5474,-0.0047,0.0328,-0.0075,-0.13,0.12,-0.04,0.202,0.465,0.365,0.886
5484,-0.0049,0.0330,-0.0076,-0.14,0.13,-0.03,0.201,-0.952,0.030,1.180
5495,-0.0031,0.0321,-0.0074,-0.16,0.12,-0.02,0.201,-3.323,-1.029,1.067
5505,-0.0032,0.0323,-0.0124,-0.17,0.12,-0.01,0.201,0.962,0.240,0.790
5515,-0.0035,0.0326,-0.0116,-0.19,0.12,-0.00,0.201,-4.183,0.031,0.858
5525,-0.0037,0.0329,-0.0111,-0.21,0.13,0.01,0.201,0.744,-0.145,-0.067
5535,-0.0039,0.0333,-0.0104,-0.21,0.13,0.02,0.201,0.336,0.605,0.036
5545,-0.0041,0.0337,-0.0097,-0.24,0.13,0.03,0.201,1.477,0.889,0.206
5555,-0.0043,0.0341,-0.0110,-0.24,0.13,0.03,0.201,4.684,3.013,0.416
5565,-0.0046,0.0345,-0.0101,-0.24,0.13,0.03,0.201,0.548,1.395,0.314
5575,-0.0048,0.0349,-0.0094,-0.22,0.12,0.03,0.201,4.558,2.980,-0.241
5585,-0.0019,0.0326,-0.0083,-0.16,0.07,0.03,0.205,0.050,0.438,-0.125
5595,-0.0020,0.0328,-0.0074,-0.14,0.05,0.03,0.205,-1.173,-0.205,0.154
5604,-0.0036,0.0329,0.0020,-0.10,0.04,0.03,0.205,-0.258,0.641,-0.100
5615,-0.0037,0.0331,0.0028,-0.09,0.03,0.03,0.205,-0.503,0.035,-0.167
5625,-0.0037,0.0333,0.0038,-0.09,0.03,0.03,0.205,-2.669,-1.149,-0.255
5635,-0.0038,0.0334,0.0050,-0.10,0.03,0.03,0.202,-0.976,0.087,-0.337
5644,-0.0038,0.0336,0.0058,-0.11,0.03,0.03,0.202,-0.002,-0.422,-0.445
5654,-0.0014,0.0444,0.0045,-0.19,0.02,0.03,0.202,-3.956,-2.205,-0.239
5665,-0.0015,0.0447,0.0053,-0.21,0.03,0.02,0.202,2.032,-0.397,-0.606
5674,-0.0039,0.0305,0.0065,-0.14,0.05,0.02,0.202,-1.562,-1.106,-0.274
5685,-0.0040,0.0307,0.0075,-0.16,0.06,0.02,0.204,-0.577,0.276,-0.707
5695,-0.0041,0.0310,0.0084,-0.16,0.07,0.01,0.204,2.454,0.646,-0.104
5705,-0.0042,0.0313,0.0116,-0.17,0.07,0.01,0.204,2.740,-0.281,-0.516
5714,-0.0044,0.0316,0.0123,-0.17,0.07,0.01,0.204,1.204,0.047,-0.401
5725,-0.0045,0.0319,0.0129,-0.15,0.07,0.01,0.204,1.978,0.679,-0.382
5735,0.0011,0.0317,0.0136,-0.12,0.03,0.00,0.205,1.398,1.004,-0.297
5745,-0.0040,0.0269,0.0140,-0.06,0.06,-0.00,0.205,1.111,0.469,-0.530
5754,-0.0036,0.0396,0.0167,-0.11,0.04,-0.01,0.205,0.826,0.786,-0.378
5765,-0.0036,0.0398,0.0174,-0.10,0.03,-0.01,0.205,0.309,0.211,-0.853
5774,-0.0034,0.0231,0.0182,0.01,0.03,-0.02,0.205,-0.626,0.097,-0.399
5785,-0.0034,0.0231,0.0184,0.02,0.02,-0.02,0.205,-0.696,-0.241,-0.639
5794,-0.0035,0.0230,0.0186,0.02,0.02,-0.03,0.205,-1.336,-0.478,-0.543
5805,-0.0035,0.0230,0.0187,0.01,0.02,-0.04,0.205,-1.756,-1.064,-0.190
5814,-0.0035,0.0322,0.0191,-0.05,0.02,-0.04,0.205,-1.419,-1.291,-0.639
5825,-0.0036,0.0209,0.0193,-0.00,0.03,-0.05,0.205,-2.041,-0.377,-0.647
5834,-0.0036,0.0209,0.0194,-0.01,0.04,-0.05,0.205,-1.707,-0.814,-0.369
5845,-0.0037,0.0210,0.0196,-0.02,0.05,-0.05,0.208,-0.220,-0.107,-1.246
5854,-0.0013,0.0327,0.0236,-0.10,0.04,-0.06,0.208,-1.356,0.810,-0.327
5864,-0.0015,0.0388,0.0236,-0.16,0.05,-0.07,0.208,-0.323,-0.310,-0.540
5875,-0.0039,0.0370,0.0236,-0.15,0.07,-0.08,0.208,-0.783,1.343,-0.364
5884,-0.0014,0.0377,0.0235,-0.16,0.05,-0.08,0.204,-0.163,0.970,-0.064
5895,-0.0037,0.0361,0.0235,-0.16,0.06,-0.08,0.204,3.186,2.622,-0.638
5904,-0.0012,0.0348,0.0152,-0.16,0.04,-0.09,0.204,0.832,2.439,-0.051
5914,-0.0032,0.0312,0.0151,-0.14,0.04,-0.09,0.204,2.606,0.290,-0.395
5925,-0.0006,0.0293,0.0150,-0.10,-0.00,-0.09,0.204,1.807,0.175,0.151
5935,-0.0003,0.0299,0.0148,-0.08,-0.02,-0.09,0.204,2.769,1.089,-0.015
5945,-0.0022,0.0263,0.0146,-0.03,-0.01,-0.09,0.207,2.047,0.023,-0.015
5955,-0.0020,0.0267,0.0136,-0.01,-0.01,-0.09,0.207,0.953,-0.997,0.528
5965,-0.0037,0.0251,0.0133,0.03,-0.01,-0.09,0.207,1.724,0.772,1.055
5975,0.0001,0.0237,0.0132,0.06,-0.03,-0.09,0.207,1.230,-1.762,0.718
5985,0.0000,0.0280,0.0132,0.05,-0.02,-0.08,0.206,0.210,-1.039,0.817
5995,-0.0037,0.0227,0.0130,0.10,0.00,-0.07,0.206,-0.219,0.209,0.918
6005,-0.0037,0.0225,0.0089,0.10,0.02,-0.06,0.206,-2.705,-0.404,1.069
6015,-0.0037,0.0224,0.0083,0.11,0.02,-0.05,0.206,-1.060,2.463,1.454
6024,-0.0037,0.0222,0.0080,0.10,0.02,-0.04,0.206,-1.324,1.203,1.005
6034,-0.0054,0.0234,0.0080,0.07,0.03,-0.03,0.207,-1.640,0.897,0.998
6044,-0.0029,0.0204,0.0080,0.07,-0.01,-0.02,0.207,-1.198,1.854,0.923
6054,-0.0029,0.0202,0.0067,0.06,-0.02,-0.01,0.207,-2.565,1.704,0.824
6065,-0.0029,0.0201,0.0064,0.05,-0.03,0.00,0.207,-1.249,1.240,1.003
6074,0.0015,0.0213,0.0058,0.03,-0.07,0.01,0.207,0.170,1.881,0.544
6084,0.0002,0.0199,0.0055,0.01,-0.07,0.02,0.207,0.770,2.170,1.088
6094,0.0003,0.0199,0.0054,0.00,-0.09,0.03,0.207,0.636,1.358,0.584
6104,0.0005,0.0199,0.0042,0.00,-0.11,0.04,0.207,0.035,1.046,0.021
6114,0.0010,0.0168,0.0043,0.03,-0.13,0.04,0.207,-0.751,-0.104,0.571
6125,0.0014,0.0179,0.0041,0.03,-0.15,0.05,0.207,-0.721,-1.265,0.190
6134,0.0035,0.0171,0.0039,0.03,-0.16,0.05,0.208,-0.694,-1.287,0.228
6144,0.0018,0.0145,0.0039,0.04,-0.15,0.06,0.208,1.227,-1.150,0.704
6154,-0.0001,0.0140,0.0048,0.04,-0.13,0.06,0.208,0.739,-0.955,0.545
6164,0.0002,0.0139,0.0048,0.04,-0.11,0.07,0.208,0.287,-1.252,0.285
6174,0.0039,0.0130,0.0047,0.05,-0.12,0.07,0.208,-1.261,-1.055,0.526
6184,0.0056,0.0142,0.0044,0.05,-0.12,0.08,0.208,-1.212,-0.192,0.082
6194,0.0058,0.0141,0.0041,0.04,-0.11,0.08,0.208,1.065,0.253,0.494
6204,0.0056,0.0119,0.0043,0.05,-0.10,0.08,0.208,-0.766,0.349,0.357
6214,0.0073,0.0114,0.0044,0.05,-0.11,0.08,0.208,0.068,-0.888,-0.394
6224,0.0075,0.0113,0.0043,0.06,-0.11,0.09,0.208,1.348,1.514,-0.487
6234,0.0092,0.0108,0.0043,0.05,-0.12,0.09,0.211,0.412,0.581,-0.662
6244,0.0108,0.0065,0.0046,0.08,-0.13,0.08,0.211,-1.564,-0.656,0.132
6254,0.0108,0.0078,0.0112,0.08,-0.14,0.08,0.211,-0.812,-1.086,-0.020
6265,0.0111,0.0076,0.0114,0.08,-0.15,0.08,0.211,0.032,-1.380,0.340
6274,0.0113,0.0075,0.0114,0.07,-0.14,0.08,0.211,-0.368,-0.590,-0.243
6284,0.0109,0.0053,0.0113,0.07,-0.12,0.07,0.208,-2.014,-0.867,0.091
6294,0.0105,0.0068,0.0114,0.06,-0.11,0.08,0.208,-2.780,-2.629,0.105
6304,0.0120,0.0064,0.0071,0.06,-0.11,0.07,0.208,-2.556,-3.239,0.328
6314,0.0151,0.0028,0.0069,0.06,-0.12,0.07,0.208,-1.126,-2.812,0.414
6324,0.0153,0.0027,0.0067,0.03,-0.09,0.07,0.208,-0.960,-2.261,0.730
6334,0.0155,0.0027,0.0068,0.01,-0.06,0.08,0.210,-2.641,-3.188,0.155
6344,0.0156,0.0026,0.0069,-0.01,-0.04,0.08,0.210,-3.226,-3.249,0.367
6355,0.0157,0.0027,0.0078,-0.02,-0.01,0.09,0.210,-1.456,-2.375,-0.230
6364,0.0157,0.0027,0.0078,-0.05,0.02,0.09,0.210,0.281,-1.911,0.652
6374,0.0144,-0.0009,0.0079,-0.04,0.05,0.09,0.210,-0.164,-1.314,-0.234
6384,0.0143,-0.0009,0.0080,-0.06,0.07,0.09,0.210,-1.800,-1.865,-0.544
6394,0.0134,-0.0028,0.0077,-0.05,0.09,0.10,0.210,-2.342,-1.657,0.009
6404,0.0155,-0.0057,0.0070,-0.04,0.09,0.09,0.210,0.403,1.098,0.571
6414,0.0153,-0.0056,0.0066,-0.06,0.10,0.09,0.210,0.567,1.857,0.345
6425,0.0123,-0.0030,0.0064,-0.08,0.12,0.09,0.210,-0.340,1.372,0.081
6434,0.0121,-0.0029,0.0064,-0.07,0.10,0.09,0.210,-1.321,0.671,-0.063
6444,0.0177,-0.0048,0.0063,-0.04,0.05,0.10,0.210,1.256,1.924,-0.007
6454,0.0149,-0.0044,0.0053,-0.05,0.06,0.10,0.210,0.870,2.031,-0.109
6464,0.0148,-0.0044,0.0055,-0.05,0.05,0.09,0.210,-0.464,0.748,0.442
6474,0.0147,-0.0043,0.0056,-0.05,0.03,0.09,0.210,-2.258,0.285,0.638
6484,0.0163,-0.0061,0.0055,-0.03,0.00,0.09,0.212,-1.589,-0.858,-0.087
6494,0.0176,-0.0076,0.0054,-0.03,-0.01,0.10,0.212,-0.252,-0.810,-0.458
6504,0.0169,-0.0090,0.0083,-0.03,-0.01,0.10,0.212,-1.596,-1.030,0.194
6514,0.0178,-0.0084,0.0083,-0.05,0.00,0.10,0.212,-2.268,-1.649,0.239
6524,0.0169,-0.0096,0.0084,-0.05,0.02,0.11,0.212,-2.243,-1.383,0.266
6534,0.0168,-0.0095,0.0084,-0.07,0.02,0.11,0.208,-0.383,-2.264,-0.410
6544,0.0196,-0.0087,0.0085,-0.09,0.02,0.11,0.208,-1.216,-1.295,-0.024
6554,0.0202,-0.0080,0.0001,-0.11,0.04,0.11,0.208,-0.622,0.310,0.576
6564,0.0202,-0.0078,0.0002,-0.11,0.06,0.11,0.208,-0.828,-0.284,0.371
6573,0.0200,-0.0076,0.0004,-0.12,0.08,0.12,0.208,-0.254,-0.613,-0.092
6584,0.0209,-0.0049,0.0004,-0.14,0.08,0.12,0.209,-0.234,-0.208,0.167
6594,0.0200,-0.0099,0.0003,-0.12,0.08,0.12,0.209,-1.016,-1.178,-0.127
6603,0.0227,-0.0091,-0.0020,-0.14,0.07,0.12,0.209,-0.622,-0.580,0.012
6614,0.0198,-0.0120,-0.0018,-0.13,0.08,0.12,0.209,-1.079,-0.778,-0.274
6624,0.0206,-0.0092,-0.0016,-0.16,0.08,0.12,0.209,-0.291,-0.331,-0.235
6634,0.0195,-0.0100,-0.0013,-0.17,0.10,0.12,0.208,2.482,0.241,-0.195
6644,0.0184,-0.0110,-0.0010,-0.16,0.11,0.11,0.208,0.613,-0.241,-0.723
6654,0.0182,-0.0107,-0.0041,-0.16,0.10,0.11,0.208,-0.141,-0.470,-0.483
6663,0.0180,-0.0105,-0.0039,-0.13,0.10,0.11,0.208,1.606,1.730,-0.594
6673,0.0178,-0.0102,-0.0035,-0.13,0.10,0.10,0.208,0.162,-0.772,-0.578
6683,0.0177,-0.0100,-0.0031,-0.12,0.10,0.09,0.207,2.382,0.353,-0.572
6694,0.0175,-0.0098,-0.0027,-0.11,0.10,0.09,0.207,1.337,-0.906,-0.759
6704,0.0203,-0.0093,-0.0058,-0.10,0.08,0.08,0.207,1.449,-1.353,-1.048
6714,0.0191,-0.0110,-0.0054,-0.08,0.10,0.08,0.207,-0.923,-0.643,-0.757
6724,0.0182,-0.0126,-0.0051,-0.06,0.10,0.07,0.207,-2.116,-0.250,-1.100
6734,0.0152,-0.0121,-0.0047,-0.05,0.12,0.06,0.207,1.136,0.498,-1.251
6744,0.0199,-0.0093,-0.0040,-0.08,0.09,0.05,0.207,-0.692,0.793,-1.156
6754,0.0169,-0.0123,-0.0051,-0.07,0.11,0.04,0.207,-1.458,0.075,-1.034
6764,0.0167,-0.0122,-0.0046,-0.07,0.11,0.03,0.207,-2.270,-0.504,-1.011
6775,0.0158,-0.0096,-0.0044,-0.10,0.12,0.02,0.207,-2.959,-1.240,-1.170
6784,0.0168,-0.0089,-0.0038,-0.12,0.11,0.01,0.207,-2.905,-1.091,-0.656
6793,0.0166,-0.0087,-0.0031,-0.14,0.12,-0.00,0.207,-2.198,-1.742,-0.528
6805,0.0155,-0.0094,-0.0032,-0.16,0.13,-0.01,0.207,-1.405,-0.516,-0.480
6814,0.0142,-0.0101,-0.0027,-0.18,0.15,-0.02,0.207,-0.198,-0.119,-0.396
6824,0.0130,-0.0073,-0.0026,-0.21,0.17,-0.03,0.207,-0.394,-0.281,-0.764
6834,0.0127,-0.0069,-0.0023,-0.23,0.18,-0.03,0.207,0.130,-0.495,-0.488
6843,0.0138,-0.0061,-0.0015,-0.24,0.17,-0.04,0.207,1.695,-0.352,-0.152
6854,0.0129,-0.0072,-0.0008,-0.24,0.18,-0.04,0.207,1.109,0.332,-0.434
6864,0.0139,-0.0065,-0.0006,-0.24,0.18,-0.05,0.207,1.104,0.364,-0.258
6874,0.0147,-0.0059,-0.0001,-0.23,0.17,-0.05,0.207,2.107,1.059,-0.304
6883,0.0120,-0.0035,0.0003,-0.23,0.19,-0.05,0.209,1.675,0.641,-0.503
6893,0.0094,-0.0050,0.0009,-0.21,0.20,-0.06,0.209,0.958,1.048,-0.329
6904,0.0106,-0.0050,0.0057,-0.19,0.18,-0.06,0.209,1.537,1.725,-0.223
6914,0.0103,-0.0047,0.0062,-0.17,0.17,-0.07,0.209,1.460,1.150,-0.576
6924,0.0116,-0.0027,0.0067,-0.16,0.15,-0.07,0.209,1.177,1.774,-0.607
6933,0.0094,-0.0043,0.0073,-0.14,0.15,-0.07,0.207,-0.231,0.170,-0.116
6944,0.0092,-0.0041,0.0076,-0.12,0.14,-0.08,0.207,0.386,-0.413,-0.522
6954,0.0089,-0.0039,0.0051,-0.11,0.12,-0.08,0.207,-0.545,-0.367,-0.233
6964,0.0087,-0.0037,0.0054,-0.10,0.12,-0.09,0.207,0.257,-0.616,-0.414
6974,0.0081,-0.0014,0.0055,-0.12,0.12,-0.09,0.207,-1.184,-1.344,-0.344
6984,0.0092,-0.0011,0.0058,-0.12,0.12,-0.09,0.211,-0.091,-0.723,-0.487
6994,0.0085,-0.0043,0.0063,-0.12,0.13,-0.10,0.211,0.777,-0.273,-0.502
7003,0.0079,-0.0002,0.0134,-0.14,0.14,-0.10,0.211,0.422,-1.554,-0.316
7013,0.0077,0.0000,0.0139,-0.15,0.16,-0.11,0.211,1.328,-1.681,-0.878
7024,0.0089,0.0001,0.0141,-0.14,0.16,-0.11,0.211,1.242,-1.537,-0.771
7033,0.0063,-0.0016,0.0143,-0.12,0.18,-0.12,0.211,1.687,-1.209,-0.508
7044,0.0055,0.0003,0.0143,-0.11,0.19,-0.13,0.208,2.935,0.080,-0.850
7054,0.0030,-0.0014,0.0101,-0.08,0.21,-0.14,0.208,0.201,-0.042,-0.324
7064,0.0027,-0.0013,0.0103,-0.07,0.22,-0.14,0.208,2.502,-1.341,-0.910
7074,0.0022,0.0005,0.0103,-0.07,0.22,-0.15,0.208,-0.055,0.073,-0.654
7083,0.0018,0.0006,0.0102,-0.06,0.23,-0.16,0.208,-1.927,1.121,-0.278
7093,0.0014,0.0007,0.0103,-0.06,0.23,-0.17,0.208,-2.144,0.330,-0.564
7104,-0.0009,0.0007,0.0071,-0.07,0.24,-0.17,0.208,-1.510,-0.229,-0.848
7113,-0.0013,0.0008,0.0071,-0.08,0.23,-0.18,0.208,-0.268,-0.196,-0.848
7123,0.0021,0.0012,0.0069,-0.10,0.20,-0.18,0.208,0.564,0.863,-1.408
7133,-0.0002,0.0015,0.0065,-0.11,0.21,-0.19,0.209,0.046,1.934,-1.037
7143,0.0013,0.0017,0.0066,-0.12,0.19,-0.20,0.209,0.709,1.948,-1.149
7154,0.0009,0.0001,0.0061,-0.11,0.18,-0.21,0.209,0.184,2.014,-1.242
7164,0.0009,-0.0014,0.0063,-0.10,0.16,-0.22,0.209,-0.222,1.703,-1.592
7173,-0.0027,0.0006,0.0064,-0.11,0.16,-0.23,0.209,-0.062,0.927,-1.394
7184,-0.0030,0.0007,0.0063,-0.11,0.15,-0.24,0.211,0.515,0.723,-1.433
7194,-0.0032,0.0009,0.0063,-0.10,0.13,-0.26,0.211,-0.405,0.931,-1.439
7203,-0.0068,0.0010,0.0098,-0.10,0.13,-0.27,0.211,-0.460,-0.051,-1.439
7213,-0.0048,0.0011,0.0100,-0.09,0.11,-0.28,0.211,-1.558,0.785,-1.148
7224,-0.0066,-0.0004,0.0100,-0.09,0.11,-0.30,0.211,-1.924,1.358,-0.921
7234,-0.0064,0.0035,0.0101,-0.12,0.11,-0.31,0.211,-2.157,-0.000,-0.908
7244,-0.0078,0.0019,0.0104,-0.12,0.10,-0.32,0.211,-2.255,-0.488,-1.085
7255,-0.0080,0.0022,0.0113,-0.14,0.09,-0.33,0.211,-0.687,0.028,-1.069
7264,-0.0082,0.0024,0.0115,-0.16,0.09,-0.34,0.211,-0.575,-0.352,-1.323
7273,-0.0098,0.0028,0.0115,-0.17,0.10,-0.35,0.211,-0.206,-0.089,-0.984
7283,-0.0100,0.0031,0.0114,-0.18,0.10,-0.36,0.207,-1.073,1.018,-0.383
7293,-0.0101,0.0034,0.0114,-0.18,0.10,-0.37,0.207,1.135,1.077,-0.515
7303,-0.0103,0.0037,0.0018,-0.18,0.08,-0.38,0.207,1.508,0.819,-0.899
7313,-0.0097,0.0058,0.0015,-0.19,0.06,-0.38,0.207,1.211,0.268,-0.469
7323,-0.0093,0.0037,0.0014,-0.16,0.05,-0.39,0.207,1.409,0.979,-0.796
7333,-0.0109,0.0035,0.0015,-0.14,0.05,-0.40,0.208,0.463,0.387,-1.153
7343,-0.0122,0.0052,0.0016,-0.13,0.05,-0.40,0.208,-0.281,-0.066,-0.850
7354,-0.0123,0.0054,-0.0025,-0.12,0.03,-0.41,0.208,-0.761,0.089,-1.393
7363,-0.0123,0.0056,-0.0025,-0.11,0.03,-0.42,0.208,-0.242,-0.178,-1.001
7373,-0.0124,0.0058,-0.0022,-0.12,0.02,-0.43,0.208,-1.301,-0.128,-1.607
7383,-0.0117,0.0037,-0.0020,-0.10,0.02,-0.45,0.211,-1.845,0.176,-1.095
7393,-0.0150,0.0078,-0.0021,-0.14,0.04,-0.46,0.211,-1.349,-0.103,-1.755
7403,-0.0125,0.0078,0.0027,-0.15,0.03,-0.47,0.211,-1.364,-1.205,-1.967
7413,-0.0120,0.0060,0.0032,-0.15,0.02,-0.49,0.211,-0.218,-0.027,-1.442
7423,-0.0120,0.0062,0.0038,-0.16,0.03,-0.51,0.211,-1.005,0.622,-1.091
7433,-0.0118,0.0026,0.0042,-0.14,0.03,-0.52,0.209,-0.706,0.155,-1.357
7443,-0.0132,0.0047,0.0046,-0.16,0.04,-0.54,0.209,0.390,0.279,-1.544
7453,-0.0133,0.0050,0.0031,-0.17,0.04,-0.55,0.209,1.283,1.113,-1.570
7463,-0.0133,0.0053,0.0036,-0.17,0.03,-0.56,0.209,1.201,0.968,-1.435
7473,-0.0134,0.0056,0.0039,-0.16,0.02,-0.58,0.209,0.978,1.419,-2.386
7483,-0.0127,0.0013,0.0039,-0.13,0.01,-0.59,0.206,0.776,2.383,-1.932
7493,-0.0127,0.0015,0.0040,-0.12,0.00,-0.61,0.206,0.121,1.183,-1.886
7503,-0.0121,0.0035,-0.0032,-0.13,-0.01,-0.63,0.206,0.649,-0.522,-2.133
7513,-0.0121,0.0038,-0.0029,-0.12,-0.02,-0.65,0.206,0.694,1.527,-2.127
7523,-0.0111,0.0016,-0.0026,-0.10,-0.04,-0.68,0.206,-0.942,0.955,-2.248
7533,-0.0126,0.0037,-0.0022,-0.11,-0.04,-0.70,0.206,-0.265,-1.610,-2.164
7543,-0.0138,0.0055,-0.0017,-0.12,-0.03,-0.72,0.209,-1.508,0.509,-1.902
7553,-0.0138,0.0057,0.0010,-0.12,-0.03,-0.74,0.209,-1.425,-2.756,-2.442
7563,-0.0094,0.0037,0.0015,-0.11,-0.05,-0.76,0.209,-0.645,-1.479,-2.337
7573,-0.0128,0.0020,0.0018,-0.12,-0.02,-0.79,0.209,-2.298,-0.494,-2.293
7584,-0.0127,0.0022,0.0021,-0.13,-0.00,-0.81,0.207,-1.520,-0.735,-1.893
7593,-0.0124,0.0045,0.0027,-0.16,0.02,-0.83,0.207,-2.514,-2.601,-1.737
7603,-0.0121,0.0030,-0.0001,-0.17,0.03,-0.86,0.207,0.140,-1.621,-1.878
7613,-0.0097,0.0032,0.0002,-0.19,0.03,-0.88,0.207,1.622,0.485,-1.804
7623,-0.0133,0.0074,0.0005,-0.21,0.06,-0.90,0.207,0.149,1.337,-2.055
7633,-0.0133,0.0017,0.0011,-0.17,0.07,-0.92,0.207,-0.747,2.204,-1.652
7643,-0.0147,0.0074,0.0018,-0.20,0.08,-0.94,0.208,0.437,0.846,-1.594
7653,-0.0123,0.0054,0.0024,-0.18,0.06,-0.95,0.208,1.988,2.734,-1.804
7663,-0.0124,0.0057,0.0029,-0.18,0.05,-0.97,0.208,1.435,1.633,-1.386
7673,-0.0136,0.0041,0.0034,-0.17,0.03,-0.99,0.208,-0.320,2.232,-1.166
7682,-0.0127,0.0078,0.0037,-0.18,0.01,-1.00,0.211,0.066,2.860,-1.804
7693,-0.0120,0.0059,0.0041,-0.17,-0.01,-1.01,0.211,2.372,-0.386,-1.810
7703,-0.0147,0.0044,0.0111,-0.16,-0.03,-1.03,0.211,0.734,-2.694,-1.496
7713,-0.0136,0.0062,0.0119,-0.15,-0.05,-1.04,0.211,-1.301,-2.687,-1.899
7723,-0.0147,0.0060,0.0126,-0.13,-0.03,-1.06,0.211,-0.657,-0.828,-1.518
7733,-0.0147,0.0062,0.0131,-0.13,-0.01,-1.08,0.209,-0.801,-1.204,-1.906
7743,-0.0146,0.0064,0.0138,-0.14,0.01,-1.10,0.209,-1.565,-1.926,-1.419
7753,-0.0142,0.0081,0.0125,-0.15,0.02,-1.12,0.209,1.832,-1.096,-1.833
7763,-0.0137,0.0097,0.0130,-0.15,0.03,-1.13,0.209,-0.337,0.346,-1.901
7773,-0.0138,0.0099,0.0133,-0.16,0.04,-1.15,0.209,-3.361,2.821,-1.563
7783,-0.0139,0.0102,0.0135,-0.16,0.05,-1.17,0.209,-5.723,-1.032,-1.494
7793,-0.0149,0.0062,0.0136,-0.14,0.06,-1.17,0.209,-4.389,-0.475,-1.485
7803,-0.0120,0.0067,0.0112,-0.16,0.01,-1.18,0.209,-1.792,1.598,-1.218
7813,-0.0136,0.0077,0.0115,-0.24,0.02,-1.21,0.209,-1.581,0.559,-1.278
7823,-0.0113,0.0066,0.0118,-0.25,-0.00,-1.23,0.209,-1.608,-2.369,-1.373
7833,-0.0123,0.0090,0.0124,-0.28,-0.01,-1.24,0.211,-0.121,-4.894,-1.072
7842,-0.0117,0.0076,0.0128,-0.28,-0.00,-1.25,0.211,2.263,-4.369,-1.072
7853,-0.0117,0.0081,0.0143,-0.28,0.03,-1.26,0.211,-0.687,-3.942,-1.385
7863,-0.0117,0.0081,0.0143,-0.28,0.03,-1.26,0.211,1.212,-1.320,-1.037
7872,-0.0117,0.0086,0.0144,-0.27,0.07,-1.26,0.211,-0.703,0.487,-1.171
7883,-0.0119,0.0090,0.0148,-0.28,0.12,-1.28,0.211,-3.342,0.366,-0.407
7893,-0.0120,0.0095,0.0153,-0.28,0.13,-1.29,0.211,-0.997,1.041,0.130
7902,-0.0115,0.0117,0.0149,-0.28,0.13,-1.30,0.211,-2.526,-2.278,-0.694
7913,-0.0111,0.0103,0.0151,-0.29,0.12,-1.31,0.211,0.077,-0.749,-0.074
7923,-0.0089,0.0124,0.0152,-0.32,0.10,-1.31,0.211,-0.234,0.902,0.021
7933,-0.0090,0.0109,0.0154,-0.33,0.12,-1.31,0.211,0.275,-1.090,-0.769
7942,-0.0091,0.0129,0.0158,-0.35,0.12,-1.31,0.211,1.320,2.849,-0.213
7952,-0.0123,0.0093,0.0140,-0.34,0.15,-1.31,0.211,-1.881,0.273,0.419
7963,-0.0139,0.0078,0.0143,-0.32,0.15,-1.32,0.211,0.410,-2.424,0.487
7972,-0.0141,0.0084,0.0145,-0.31,0.13,-1.32,0.211,0.280,1.453,0.771
7982,-0.0143,0.0089,0.0147,-0.32,0.12,-1.32,0.213,0.700,-1.611,1.092
7992,-0.0145,0.0095,0.0146,-0.32,0.13,-1.32,0.213,0.584,-0.200,0.964
8003,-0.0147,0.0100,0.0162,-0.31,0.13,-1.31,0.213,-0.635,-0.551,0.652
8013,-0.0149,0.0106,0.0163,-0.30,0.13,-1.30,0.213,0.499,0.188,1.206
8022,-0.0164,0.0104,0.0166,-0.30,0.15,-1.29,0.213,0.318,-1.106,1.321
8032,-0.0166,0.0109,0.0169,-0.29,0.15,-1.28,0.213,-0.377,-2.604,1.604
8042,-0.0169,0.0115,0.0171,-0.29,0.14,-1.27,0.213,0.557,-3.482,0.925
8052,-0.0171,0.0120,0.0163,-0.30,0.16,-1.26,0.213,1.877,0.195,1.112
8062,-0.0174,0.0125,0.0163,-0.30,0.18,-1.24,0.213,-0.571,0.811,1.455
8073,-0.0174,0.0148,0.0165,-0.30,0.20,-1.23,0.213,-1.823,1.363,1.670
8082,-0.0190,0.0143,0.0167,-0.29,0.22,-1.22,0.217,-2.657,0.607,1.955
8093,-0.0182,0.0119,0.0169,-0.28,0.21,-1.20,0.217,-0.595,0.052,1.730
8103,-0.0186,0.0125,0.0233,-0.28,0.20,-1.19,0.217,0.560,0.166,2.070
8113,-0.0179,0.0149,0.0230,-0.31,0.18,-1.17,0.217,1.719,-0.513,1.678
8123,-0.0152,0.0167,0.0233,-0.34,0.16,-1.15,0.217,1.574,-0.712,1.256
8133,-0.0189,0.0144,0.0232,-0.32,0.18,-1.13,0.217,1.612,-0.187,1.153
8142,-0.0163,0.0181,0.0229,-0.33,0.17,-1.11,0.213,0.741,1.385,1.329
8152,-0.0141,0.0118,0.0148,-0.27,0.16,-1.10,0.213,1.704,0.692,1.553
8163,-0.0156,0.0117,0.0147,-0.26,0.16,-1.08,0.213,2.477,1.512,1.765
8172,-0.0148,0.0172,0.0147,-0.28,0.15,-1.07,0.213,1.665,2.095,2.261
8182,-0.0150,0.0177,0.0147,-0.26,0.13,-1.05,0.208,0.451,2.185,2.163
8193,-0.0153,0.0181,0.0145,-0.24,0.13,-1.03,0.208,0.350,0.780,2.701
8203,-0.0166,0.0175,-0.0035,-0.22,0.11,-1.01,0.208,0.662,-1.528,2.443
8212,-0.0167,0.0179,-0.0036,-0.21,0.09,-0.99,0.208,0.391,-1.202,2.123
8222,-0.0183,0.0154,-0.0037,-0.19,0.08,-0.97,0.208,-1.507,-0.582,2.290
8233,-0.0198,0.0151,-0.0040,-0.19,0.10,-0.94,0.213,-2.855,2.190,2.068
8242,-0.0200,0.0154,-0.0043,-0.19,0.12,-0.92,0.213,-2.363,-1.283,1.958
8252,-0.0194,0.0174,-0.0026,-0.21,0.12,-0.89,0.213,-0.821,0.904,1.797
8262,-0.0196,0.0177,-0.0022,-0.23,0.11,-0.87,0.213,-0.354,0.227,2.576
8272,-0.0197,0.0181,-0.0020,-0.26,0.11,-0.85,0.213,-0.651,-0.358,2.604
8283,-0.0199,0.0186,-0.0019,-0.27,0.11,-0.83,0.209,-0.373,0.305,2.490
8292,-0.0201,0.0191,-0.0016,-0.27,0.11,-0.81,0.209,1.148,2.124,2.284
8302,-0.0203,0.0195,-0.0092,-0.26,0.11,-0.79,0.209,0.270,1.509,2.852
8312,-0.0216,0.0189,-0.0092,-0.26,0.10,-0.76,0.209,-0.197,-0.071,2.712
8322,-0.0217,0.0194,-0.0090,-0.26,0.09,-0.74,0.209,-0.394,-0.933,2.524
8333,-0.0219,0.0198,-0.0086,-0.25,0.08,-0.71,0.214,-0.666,-0.106,2.894
8342,-0.0220,0.0203,-0.0078,-0.24,0.08,-0.69,0.214,0.963,0.445,3.416
8352,-0.0233,0.0197,0.0005,-0.23,0.08,-0.66,0.214,-1.095,-0.291,3.625
8362,-0.0234,0.0201,0.0012,-0.23,0.07,-0.63,0.214,-0.340,-0.500,3.113
8372,-0.0197,0.0195,0.0020,-0.22,0.04,-0.60,0.214,-0.710,-0.606,3.512
8382,-0.0198,0.0199,0.0027,-0.24,0.04,-0.56,0.215,0.068,-0.809,3.647
8392,-0.0213,0.0194,0.0037,-0.23,0.04,-0.53,0.215,0.025,-1.033,4.012
8402,-0.0181,0.0189,0.0106,-0.23,0.03,-0.50,0.215,-0.693,-0.951,3.665
8412,-0.0196,0.0184,0.0108,-0.22,0.03,-0.46,0.215,-0.655,-0.859,3.278
8423,-0.0197,0.0188,0.0115,-0.22,0.03,-0.42,0.215,-0.906,-0.317,3.324
8433,-0.0197,0.0192,0.0123,-0.22,0.04,-0.38,0.216,-1.052,-0.168,4.263
8442,-0.0198,0.0195,0.0128,-0.23,0.05,-0.35,0.216,-0.494,-0.226,4.119
8452,-0.0199,0.0200,0.0177,-0.24,0.05,-0.32,0.216,0.162,-1.040,3.570
8462,-0.0213,0.0220,0.0179,-0.26,0.06,-0.27,0.216,-1.350,-0.262,3.879
8472,-0.0214,0.0224,0.0182,-0.28,0.07,-0.23,0.216,-0.193,-0.611,3.314
8482,-0.0183,0.0217,0.0186,-0.28,0.06,-0.20,0.214,-0.761,-0.948,2.955
8492,-0.0184,0.0223,0.0191,-0.29,0.07,-0.15,0.214,0.402,-0.162,3.134
8502,-0.0185,0.0227,0.0156,-0.30,0.07,-0.12,0.214,0.611,0.861,3.532
8512,-0.0186,0.0233,0.0158,-0.30,0.08,-0.09,0.214,1.346,1.231,3.269
8522,-0.0188,0.0238,0.0161,-0.30,0.09,-0.06,0.214,2.663,-0.027,3.426
8532,-0.0154,0.0227,0.0162,-0.28,0.07,-0.02,0.214,0.674,-0.227,2.615
8542,-0.0155,0.0231,0.0161,-0.26,0.07,0.01,0.215,0.352,0.566,2.958
8552,-0.0147,0.0244,0.0139,-0.24,0.07,0.04,0.215,-2.970,-0.509,3.004
8562,-0.0166,0.0229,0.0139,-0.23,0.08,0.07,0.215,1.395,-1.050,1.977
8572,-0.0156,0.0194,0.0139,-0.19,0.08,0.10,0.215,-3.026,0.551,2.602
8582,-0.0157,0.0198,0.0138,-0.21,0.07,0.13,0.213,0.153,-2.429,2.057
8592,-0.0158,0.0201,0.0137,-0.20,0.08,0.15,0.213,-3.237,0.059,2.845
8602,-0.0128,0.0221,0.0063,-0.24,0.07,0.18,0.213,-1.103,-2.041,3.036
8612,-0.0146,0.0215,0.0061,-0.23,0.10,0.20,0.213,-0.386,-1.644,2.381
8622,-0.0139,0.0190,0.0059,-0.24,0.09,0.23,0.213,-0.344,-0.344,2.491
8632,-0.0112,0.0209,0.0056,-0.26,0.08,0.26,0.214,0.371,-0.690,2.137
8642,-0.0110,0.0183,0.0055,-0.26,0.09,0.28,0.214,0.434,0.113,2.150
8652,-0.0131,0.0174,0.0030,-0.26,0.11,0.31,0.214,0.004,1.324,3.075
8662,-0.0133,0.0178,0.0028,-0.24,0.12,0.33,0.214,2.712,-1.716,2.078
8672,-0.0110,0.0172,0.0030,-0.23,0.10,0.35,0.214,-2.346,0.907,2.561
8682,-0.0112,0.0176,0.0031,-0.23,0.10,0.38,0.216,0.457,-1.209,1.885
8692,-0.0109,0.0189,0.0030,-0.21,0.11,0.40,0.216,-1.462,0.490,2.466
8701,-0.0103,0.0165,0.0057,-0.20,0.09,0.42,0.216,-0.689,-2.022,2.264
8712,-0.0104,0.0179,0.0058,-0.21,0.10,0.44,0.216,-2.459,-1.042,1.845
8722,-0.0106,0.0183,0.0058,-0.22,0.10,0.47,0.216,-1.682,-1.369,2.408
8732,-0.0108,0.0186,0.0059,-0.23,0.12,0.49,0.217,-2.788,0.034,2.413
8742,-0.0107,0.0163,0.0061,-0.24,0.13,0.51,0.217,-1.452,-1.446,2.843
8753,-0.0126,0.0185,0.0094,-0.26,0.15,0.53,0.217,-1.025,-0.559,2.156
8762,-0.0129,0.0189,0.0099,-0.29,0.15,0.56,0.217,2.523,-0.764,1.700
8772,-0.0106,0.0210,0.0101,-0.31,0.15,0.59,0.217,1.296,-0.674,1.842
8782,-0.0109,0.0215,0.0101,-0.32,0.15,0.61,0.213,1.348,0.337,1.832
8792,-0.0107,0.0165,0.0103,-0.27,0.16,0.63,0.213,1.789,0.870,1.183
8802,-0.0110,0.0169,0.0026,-0.26,0.17,0.65,0.213,2.231,1.562,0.747
8812,-0.0113,0.0173,0.0030,-0.24,0.17,0.67,0.213,0.207,0.807,0.460
8822,-0.0130,0.0167,0.0033,-0.22,0.17,0.68,0.213,-0.672,0.646,0.288
8832,-0.0104,0.0181,0.0035,-0.21,0.14,0.69,0.218,-1.181,0.648,0.581
8842,-0.0141,0.0176,0.0037,-0.20,0.15,0.69,0.218,-4.731,2.333,1.039
8851,-0.0096,0.0175,0.0098,-0.20,0.12,0.70,0.218,-3.843,0.972,0.108
8862,-0.0113,0.0192,0.0100,-0.23,0.12,0.70,0.218,-2.547,0.019,0.470
8872,-0.0087,0.0215,0.0105,-0.28,0.08,0.71,0.218,-2.296,-0.025,-0.060
8882,-0.0103,0.0177,0.0109,-0.30,0.08,0.71,0.216,-1.186,0.258,0.555
8892,-0.0104,0.0182,0.0110,-0.32,0.07,0.72,0.216,2.193,-2.434,-0.232
8902,-0.0084,0.0202,0.0089,-0.35,0.06,0.72,0.216,0.607,-1.145,-0.102
8912,-0.0119,0.0201,0.0091,-0.36,0.08,0.72,0.216,0.944,-0.291,-0.493
8922,-0.0101,0.0197,0.0091,-0.34,0.09,0.72,0.216,3.065,-2.968,-0.762
8932,-0.0080,0.0212,0.0090,-0.34,0.09,0.72,0.214,0.790,-1.423,-0.275
8943,-0.0099,0.0170,0.0091,-0.30,0.11,0.71,0.214,1.490,-1.121,-0.421
8952,-0.0138,0.0217,0.0026,-0.30,0.16,0.71,0.214,1.417,-1.951,-0.763
8962,-0.0141,0.0222,0.0027,-0.29,0.17,0.70,0.214,-0.124,-0.546,-0.728
8972,-0.0085,0.0216,0.0030,-0.27,0.15,0.70,0.214,-0.881,0.811,-0.284
8982,-0.0087,0.0221,0.0031,-0.26,0.17,0.69,0.213,-0.668,1.667,-0.727
8992,-0.0090,0.0225,0.0034,-0.26,0.18,0.69,0.213,-1.146,1.628,-1.199
9001,-0.0107,0.0221,-0.0024,-0.26,0.18,0.68,0.213,-0.479,1.575,-0.710
9012,-0.0110,0.0225,-0.0020,-0.27,0.17,0.68,0.213,-1.261,2.882,-0.609
9022,-0.0113,0.0230,-0.0018,-0.29,0.16,0.67,0.213,-2.393,2.790,-0.335
9032,-0.0086,0.0228,-0.0015,-0.29,0.12,0.66,0.217,-1.048,1.820,-0.244
9042,-0.0088,0.0233,-0.0008,-0.30,0.09,0.65,0.217,-0.708,1.015,-0.381
9052,-0.0103,0.0329,0.0051,-0.37,0.08,0.65,0.217,0.024,0.098,-0.203
9062,-0.0116,0.0322,0.0056,-0.37,0.07,0.65,0.217,-1.388,-0.199,-0.228
9072,-0.0129,0.0317,0.0059,-0.37,0.06,0.64,0.217,1.369,-1.131,-1.174
9082,-0.0105,0.0331,0.0062,-0.38,0.05,0.64,0.218,1.131,-0.889,-1.290
9092,-0.0101,0.0308,0.0068,-0.38,0.04,0.63,0.218,0.153,-0.252,-1.592
9102,-0.0079,0.0303,0.0120,-0.36,0.04,0.62,0.218,-0.191,-0.139,-1.185
9112,-0.0080,0.0310,0.0125,-0.36,0.05,0.61,0.218,-1.251,-0.908,-0.765
9121,-0.0081,0.0319,0.0130,-0.36,0.05,0.60,0.218,2.893,-2.392,-1.982
9131,-0.0116,0.0313,0.0133,-0.35,0.08,0.58,0.218,-0.788,0.612,-1.124
9142,-0.0095,0.0308,0.0139,-0.34,0.08,0.57,0.218,1.075,-1.943,-2.109
9151,-0.0097,0.0369,0.0157,-0.35,0.10,0.56,0.218,-0.850,0.590,-1.498
9162,-0.0099,0.0375,0.0162,-0.36,0.10,0.55,0.218,-1.398,0.181,-1.655
9171,-0.0117,0.0363,0.0166,-0.34,0.12,0.53,0.218,1.848,-0.877,-1.960
9182,-0.0120,0.0369,0.0169,-0.34,0.12,0.51,0.217,-0.870,2.010,-1.570
9191,-0.0098,0.0362,0.0174,-0.35,0.11,0.50,0.217,-0.059,0.504,-2.079
9201,-0.0078,0.0350,0.0143,-0.32,0.10,0.47,0.217,-1.201,0.912,-1.899
9211,-0.0072,0.0360,0.0142,-0.33,0.08,0.46,0.217,2.335,0.102,-2.450
9222,-0.0074,0.0366,0.0138,-0.32,0.07,0.44,0.217,-0.518,0.506,-2.027
9232,-0.0088,0.0377,0.0136,-0.33,0.07,0.42,0.218,0.298,2.349,-2.002
9241,-0.0089,0.0383,0.0139,-0.32,0.06,0.39,0.218,0.972,0.065,-2.091
9251,-0.0105,0.0411,0.0127,-0.34,0.05,0.37,0.218,-0.055,0.498,-2.511
9261,-0.0080,0.0419,0.0125,-0.34,0.02,0.35,0.218,-0.554,1.297,-2.107
9272,-0.0094,0.0389,0.0124,-0.31,0.02,0.33,0.218,1.067,2.137,-2.178
9281,-0.0091,0.0361,0.0125,-0.29,0.01,0.30,0.219,-0.113,0.542,-2.174
9291,-0.0091,0.0366,0.0125,-0.30,0.00,0.28,0.219,-0.449,-0.867,-2.771
9301,-0.0068,0.0390,0.0124,-0.29,-0.03,0.26,0.219,-0.992,-2.017,-2.369
9312,-0.0082,0.0398,0.0120,-0.29,-0.03,0.24,0.219,-3.149,-0.655,-1.823
9322,-0.0079,0.0408,0.0117,-0.29,-0.02,0.21,0.219,-1.137,2.618,-2.214
9331,-0.0078,0.0365,0.0118,-0.28,-0.00,0.18,0.219,-0.803,1.280,-2.415
9341,-0.0057,0.0378,0.0120,-0.31,-0.01,0.16,0.219,-0.197,1.304,-2.456
9351,-0.0068,0.0439,0.0104,-0.35,-0.02,0.14,0.219,0.870,0.017,-2.267
9362,-0.0068,0.0445,0.0104,-0.35,-0.03,0.11,0.219,-0.191,-2.179,-2.290
9371,-0.0068,0.0451,0.0104,-0.35,-0.04,0.09,0.219,-0.651,-2.872,-2.121
9381,-0.0083,0.0438,0.0105,-0.33,-0.03,0.06,0.217,0.971,-1.101,-2.278
9392,-0.0083,0.0498,0.0103,-0.36,-0.01,0.04,0.217,1.148,-0.356,-2.452
9401,-0.0085,0.0448,0.0035,-0.33,0.02,0.02,0.217,1.746,0.177,-1.757
9411,-0.0084,0.0469,0.0031,-0.34,0.03,-0.00,0.217,2.449,-0.337,-2.123
9422,-0.0084,0.0475,0.0031,-0.32,0.03,-0.02,0.217,4.750,0.191,-2.661
9431,-0.0081,0.0477,0.0032,-0.31,0.03,-0.04,0.218,3.855,0.794,-3.156
9441,-0.0076,0.0454,0.0030,-0.27,0.03,-0.06,0.218,2.244,3.418,-2.770
9452,-0.0076,0.0458,0.0010,-0.23,0.03,-0.09,0.218,-0.339,0.024,-2.850
9462,-0.0055,0.0440,0.0012,-0.18,0.01,-0.12,0.218,0.356,1.590,-3.000
9471,-0.0055,0.0443,0.0011,-0.16,-0.02,-0.15,0.218,0.061,2.500,-2.768
9481,-0.0055,0.0446,0.0011,-0.16,-0.04,-0.18,0.216,-1.585,-1.007,-2.305
9491,-0.0054,0.0449,0.0011,-0.16,-0.05,-0.21,0.216,-2.310,-1.682,-2.310
9501,-0.0049,0.0508,-0.0046,-0.20,-0.06,-0.24,0.216,-0.593,0.625,-2.086
9511,-0.0048,0.0511,-0.0045,-0.21,-0.06,-0.26,0.216,-4.368,-3.256,-1.438
9521,-0.0047,0.0515,-0.0044,-0.23,-0.04,-0.28,0.216,-1.823,-1.074,-1.729
9531,-0.0046,0.0519,-0.0043,-0.24,-0.04,-0.31,0.220,-0.770,-1.571,-2.005
9542,-0.0046,0.0523,-0.0040,-0.27,-0.01,-0.32,0.220,-2.873,-1.527,-1.187
9551,-0.0045,0.0528,0.0025,-0.29,0.00,-0.34,0.220,0.480,-1.484,-1.644
9561,-0.0046,0.0617,0.0028,-0.35,0.02,-0.36,0.220,-0.288,-4.017,-1.956
9571,-0.0026,0.0599,0.0033,-0.36,0.02,-0.37,0.220,2.603,-2.631,-1.355
9582,-0.0026,0.0605,0.0041,-0.36,0.04,-0.39,0.218,0.097,-3.345,-1.125
9591,-0.0032,0.0604,0.0048,-0.36,0.08,-0.40,0.218,1.091,-2.834,-1.334
9601,-0.0036,0.0599,0.0042,-0.33,0.11,-0.42,0.218,2.140,2.813,-0.977
9611,-0.0003,0.0578,0.0042,-0.31,0.12,-0.43,0.218,4.877,1.453,-1.683
9621,-0.0008,0.0596,0.0043,-0.31,0.15,-0.44,0.218,4.323,0.476,-1.178
9632,-0.0010,0.0602,0.0046,-0.29,0.12,-0.45,0.218,4.307,3.282,-1.489
9641,-0.0012,0.0607,0.0052,-0.24,0.11,-0.47,0.221,2.870,1.190,-1.297
9651,-0.0012,0.0597,0.0108,-0.18,0.10,-0.48,0.221,1.155,1.000,-0.311
9662,-0.0007,0.0588,0.0110,-0.14,0.06,-0.49,0.221,2.447,3.426,-0.380
9671,-0.0008,0.0591,0.0115,-0.12,0.04,-0.50,0.221,1.062,-0.242,-0.742
9681,-0.0009,0.0593,0.0118,-0.11,0.03,-0.51,0.219,1.075,0.338,-0.473
9691,0.0018,0.0564,0.0116,-0.07,-0.01,-0.51,0.219,-0.196,-0.806,-0.384
9701,0.0018,0.0565,0.0092,-0.06,-0.01,-0.52,0.219,-1.932,-2.689,-0.367
9711,-0.0001,0.0601,0.0090,-0.08,0.00,-0.52,0.219,0.784,-2.223,-0.396
9721,0.0000,0.0596,0.0091,-0.09,0.00,-0.53,0.219,-1.432,-1.120,0.319
9731,0.0000,0.0598,0.0095,-0.10,0.02,-0.53,0.222,-1.569,-4.053,-0.334
9741,0.0037,0.0571,0.0100,-0.09,0.01,-0.53,0.222,-1.790,-0.845,0.332
9751,0.0037,0.0573,0.0142,-0.10,0.03,-0.53,0.222,-2.203,-4.260,0.730
9761,0.0029,0.0574,0.0146,-0.12,0.06,-0.53,0.222,-1.885,-0.884,0.792
9771,0.0028,0.0576,0.0148,-0.14,0.08,-0.53,0.222,-1.134,-3.253,0.926
9781,0.0020,0.0577,0.0149,-0.16,0.11,-0.52,0.216,0.033,0.865,1.014
9791,0.0015,0.0599,0.0149,-0.19,0.13,-0.51,0.216,-0.517,0.247,1.261
9801,0.0047,0.0556,0.0028,-0.18,0.14,-0.50,0.216,0.388,-2.560,0.972
9811,0.0024,0.0536,0.0029,-0.18,0.15,-0.49,0.216,-0.253,-2.276,1.263
9821,0.0021,0.0539,0.0031,-0.19,0.15,-0.47,0.216,2.181,-1.546,0.482
9832,0.0034,0.0559,0.0032,-0.20,0.17,-0.46,0.216,1.425,-1.528,1.467
9841,0.0025,0.0557,0.0033,-0.19,0.19,-0.45,0.220,-0.022,-1.803,1.377
9851,-0.0002,0.0535,0.0045,-0.17,0.22,-0.44,0.220,0.479,2.517,0.986
9861,-0.0007,0.0531,0.0046,-0.15,0.24,-0.43,0.220,4.755,2.493,0.517
9871,0.0007,0.0548,0.0048,-0.15,0.24,-0.41,0.220,3.278,2.723,0.432
9881,0.0006,0.0545,0.0049,-0.14,0.22,-0.40,0.217,2.219,0.006,1.276
9891,0.0024,0.0519,0.0050,-0.09,0.18,-0.40,0.217,1.734,-0.827,0.353
9901,0.0021,0.0520,-0.0014,-0.06,0.16,-0.39,0.217,1.568,0.821,0.878
9911,0.0017,0.0512,-0.0012,-0.03,0.16,-0.38,0.217,0.557,0.699,0.536
9921,-0.0007,0.0490,-0.0011,0.00,0.18,-0.38,0.217,-0.733,-2.196,0.941
9931,0.0010,0.0466,-0.0010,0.04,0.16,-0.37,0.217,0.827,-2.976,1.135
9941,0.0007,0.0465,-0.0006,0.04,0.16,-0.37,0.219,-1.406,-3.058,0.721
9952,0.0000,0.0463,0.0004,0.04,0.18,-0.36,0.219,-1.056,-3.224,0.406
9961,-0.0007,0.0462,0.0005,0.05,0.21,-0.35,0.219,-0.803,-1.948,0.329
9971,0.0020,0.0427,0.0004,0.06,0.23,-0.35,0.219,-0.823,0.786,0.931
9981,0.0016,0.0426,0.0006,0.05,0.26,-0.34,0.219,-1.863,-0.485,0.489
9991,0.0011,0.0425,0.0010,0.03,0.27,-0.33,0.219,-2.037,-1.997,0.167
10001,0.0046,0.0410,0.0013,0.03,0.24,-0.33,0.219,-3.644,-4.158,0.606
10011,0.0042,0.0409,0.0013,0.01,0.24,-0.32,0.219,-3.148,-1.560,0.679
10021,0.0038,0.0409,0.0014,-0.02,0.26,-0.32,0.219,-2.099,0.341,0.447
10031,0.0024,0.0417,0.0018,-0.06,0.31,-0.31,0.219,-1.752,-0.450,0.833
10041,0.0019,0.0418,0.0023,-0.08,0.33,-0.31,0.221,1.320,2.059,0.928
10051,0.0014,0.0423,0.0072,-0.10,0.33,-0.30,0.221,2.494,2.091,1.006
10061,0.0008,0.0425,0.0074,-0.11,0.32,-0.29,0.221,0.669,1.606,0.495
10071,0.0003,0.0427,0.0077,-0.10,0.30,-0.28,0.221,2.438,2.311,0.767
10080,-0.0003,0.0429,0.0080,-0.08,0.28,-0.27,0.219,3.688,2.143,0.705
10091,-0.0007,0.0430,0.0080,-0.07,0.26,-0.27,0.219,-1.075,-1.338,0.411
10101,-0.0012,0.0431,0.0053,-0.04,0.24,-0.26,0.219,0.198,-2.211,0.026
10110,-0.0012,0.0494,0.0052,-0.05,0.22,-0.25,0.219,-0.379,-1.555,0.478
10121,-0.0018,0.0430,0.0055,-0.03,0.24,-0.24,0.219,1.649,-2.719,0.010
10131,-0.0022,0.0431,0.0057,-0.02,0.26,-0.24,0.219,-0.778,-3.739,-0.037
10140,-0.0030,0.0389,0.0062,-0.00,0.28,-0.24,0.219,-3.548,-1.839,0.150
10150,-0.0037,0.0391,0.0036,0.00,0.30,-0.24,0.219,-4.653,-0.683,0.096
10161,-0.0047,0.0397,0.0037,-0.02,0.33,-0.24,0.219,-0.462,2.360,-0.304
10171,-0.0052,0.0367,0.0039,-0.04,0.34,-0.24,0.219,-0.838,0.451,-0.629
10181,-0.0058,0.0367,0.0037,-0.08,0.34,-0.24,0.219,-2.544,-0.723,-0.157
10190,-0.0064,0.0369,0.0036,-0.09,0.32,-0.24,0.219,-1.958,0.527,0.466
10201,-0.0069,0.0370,0.0019,-0.10,0.32,-0.25,0.219,1.373,3.402,0.512
10211,-0.0050,0.0402,0.0023,-0.14,0.31,-0.25,0.219,-1.517,1.525,0.338
10221,-0.0056,0.0404,0.0026,-0.16,0.29,-0.24,0.219,-0.752,0.480,0.077
10231,-0.0061,0.0407,0.0027,-0.15,0.26,-0.23,0.220,0.470,-1.113,0.454
10241,-0.0065,0.0409,0.0027,-0.16,0.25,-0.23,0.220,1.006,1.569,0.880
10251,-0.0066,0.0439,0.0039,-0.18,0.25,-0.23,0.220,2.077,3.376,0.840
10261,-0.0113,0.0420,0.0043,-0.17,0.28,-0.23,0.220,1.656,1.777,0.407
10270,-0.0054,0.0420,0.0044,-0.15,0.21,-0.22,0.220,-0.676,-1.988,0.147
10280,-0.0057,0.0423,0.0046,-0.13,0.18,-0.21,0.216,-1.045,-2.101,-0.268
10290,-0.0057,0.0383,0.0049,-0.10,0.17,-0.21,0.216,-0.604,-1.217,-0.161
10301,-0.0081,0.0368,-0.0034,-0.10,0.21,-0.21,0.216,-2.244,1.792,-0.873
10311,-0.0105,0.0374,-0.0032,-0.11,0.24,-0.21,0.216,1.458,1.594,-0.680
10321,-0.0110,0.0376,-0.0033,-0.13,0.24,-0.21,0.216,-0.525,1.589,-0.058
10331,-0.0114,0.0378,-0.0033,-0.13,0.22,-0.22,0.219,0.486,2.671,0.107
10340,-0.0089,0.0381,-0.0031,-0.12,0.19,-0.22,0.219,1.184,2.650,-0.121
10351,-0.0106,0.0388,-0.0010,-0.13,0.18,-0.22,0.219,1.401,2.996,-0.180
10361,-0.0120,0.0392,-0.0007,-0.12,0.16,-0.22,0.219,0.326,-0.353,0.328
10370,-0.0122,0.0395,-0.0006,-0.11,0.13,-0.22,0.219,0.073,0.972,0.582
10381,-0.0124,0.0396,-0.0005,-0.09,0.10,-0.23,0.217,-2.255,-2.656,0.725
10391,-0.0126,0.0398,-0.0004,-0.08,0.10,-0.22,0.217,-4.764,-2.553,1.262
10401,-0.0119,0.0402,-0.0032,-0.09,0.10,-0.21,0.217,-2.373,-2.432,1.005
10411,-0.0121,0.0404,-0.0032,-0.12,0.13,-0.21,0.217,-2.062,-2.559,1.431
10420,-0.0123,0.0406,-0.0030,-0.16,0.15,-0.20,0.217,-0.435,-0.414,1.365
10430,-0.0103,0.0392,-0.0026,-0.17,0.17,-0.19,0.219,-1.213,-2.542,1.672
10441,-0.0106,0.0395,-0.0021,-0.19,0.18,-0.17,0.219,-0.798,-1.615,1.026
10450,-0.0129,0.0379,0.0011,-0.18,0.20,-0.16,0.219,-0.564,-1.137,1.022
10461,-0.0132,0.0383,0.0015,-0.19,0.22,-0.14,0.219,1.312,-0.830,0.949
10471,-0.0136,0.0386,0.0019,-0.20,0.24,-0.13,0.219,4.489,-1.015,0.661
10481,-0.0134,0.0392,0.0022,-0.20,0.25,-0.12,0.216,6.117,2.608,0.651
10490,-0.0131,0.0418,0.0024,-0.19,0.25,-0.11,0.216,3.744,-1.033,1.782
10500,-0.0150,0.0416,-0.0022,-0.14,0.25,-0.10,0.216,4.375,0.226,1.667
10510,-0.0167,0.0386,-0.0016,-0.06,0.24,-0.09,0.216,1.097,2.894,1.574
10521,-0.0164,0.0386,-0.0008,-0.03,0.25,-0.08,0.216,0.400,4.146,1.893
10531,-0.0159,0.0382,-0.0003,0.01,0.24,-0.06,0.219,-1.590,3.388,1.824
10541,-0.0170,0.0363,-0.0001,0.04,0.21,-0.05,0.219,-0.909,2.951,1.820
10551,-0.0173,0.0363,0.0039,0.04,0.18,-0.03,0.219,-1.558,1.688,1.867
10561,-0.0163,0.0368,0.0042,0.02,0.14,-0.01,0.219,-3.616,-0.146,1.934
10570,-0.0166,0.0368,0.0046,0.00,0.11,0.00,0.219,-6.112,-2.557,1.904
10580,-0.0158,0.0335,0.0050,0.00,0.10,0.02,0.217,-3.825,-4.862,2.067
10590,-0.0155,0.0306,0.0051,-0.03,0.11,0.04,0.217,-3.050,-4.761,1.702
10600,-0.0154,0.0341,0.0029,-0.10,0.14,0.06,0.217,-4.330,-4.171,2.403
10610,-0.0156,0.0354,0.0034,-0.14,0.17,0.08,0.217,-1.615,-3.408,2.195
10620,-0.0160,0.0328,0.0040,-0.15,0.22,0.10,0.217,0.720,-2.906,1.282
10630,-0.0163,0.0331,0.0045,-0.19,0.26,0.12,0.215,3.000,-0.879,1.103
10641,-0.0166,0.0341,0.0050,-0.20,0.29,0.14,0.215,2.627,-0.392,1.247
10651,-0.0171,0.0344,-0.0014,-0.19,0.31,0.15,0.215,2.698,1.246,1.067
10660,-0.0189,0.0367,-0.0008,-0.18,0.31,0.17,0.215,2.316,2.456,1.429
10670,-0.0194,0.0370,-0.0003,-0.16,0.31,0.18,0.215,2.560,1.382,1.268
10680,-0.0200,0.0373,-0.0002,-0.13,0.30,0.19,0.215,3.053,1.309,1.468
10690,-0.0192,0.0375,0.0003,-0.11,0.27,0.20,0.215,2.648,2.944,1.365
10700,-0.0225,0.0380,-0.0027,-0.10,0.27,0.22,0.215,0.987,3.611,1.567
10710,-0.0230,0.0381,-0.0021,-0.08,0.24,0.24,0.215,-1.458,1.809,1.131
10720,-0.0219,0.0380,-0.0016,-0.05,0.20,0.25,0.215,-2.807,0.976,1.046
10731,-0.0229,0.0382,-0.0012,-0.04,0.17,0.27,0.221,-3.123,-0.986,1.076
10740,-0.0242,0.0370,-0.0006,-0.06,0.17,0.28,0.221,-2.704,-0.490,1.025
10750,-0.0256,0.0360,0.0117,-0.08,0.17,0.29,0.221,-4.398,-0.654,1.189
10761,-0.0269,0.0349,0.0120,-0.10,0.19,0.30,0.221,-2.376,-0.127,1.350
10771,-0.0272,0.0351,0.0126,-0.13,0.19,0.31,0.221,-2.768,-0.697,1.040
10780,-0.0266,0.0365,0.0131,-0.18,0.19,0.33,0.216,-1.241,0.297,1.241
10791,-0.0269,0.0369,0.0138,-0.19,0.19,0.34,0.216,-1.180,-1.048,0.775
10800,-0.0272,0.0371,0.0087,-0.21,0.20,0.35,0.216,0.477,0.408,1.275
10810,-0.0282,0.0359,0.0091,-0.21,0.21,0.36,0.216,-0.408,-0.731,1.178
10821,-0.0286,0.0362,0.0094,-0.21,0.22,0.37,0.216,2.081,-0.201,1.425
10830,-0.0290,0.0366,0.0098,-0.21,0.22,0.38,0.217,0.954,0.271,1.261
10840,-0.0294,0.0370,0.0103,-0.20,0.22,0.39,0.217,1.513,1.786,0.921
10850,-0.0303,0.0375,0.0083,-0.20,0.22,0.40,0.217,0.018,1.870,0.663
10860,-0.0307,0.0378,0.0087,-0.18,0.21,0.41,0.217,0.965,0.550,-0.014
10870,-0.0311,0.0381,0.0091,-0.18,0.20,0.42,0.217,-0.906,2.632,0.189
10880,-0.0338,0.0408,0.0092,-0.19,0.20,0.43,0.218,1.182,3.497,0.042
10890,-0.0343,0.0370,0.0095,-0.16,0.17,0.43,0.218,1.052,3.196,0.444
10900,-0.0349,0.0376,0.0096,-0.16,0.15,0.43,0.218,1.028,3.181,0.412
10910,-0.0352,0.0360,0.0095,-0.14,0.14,0.43,0.218,1.002,1.944,0.199
10920,-0.0354,0.0344,0.0097,-0.12,0.12,0.43,0.218,-0.062,-0.515,0.068
10930,-0.0375,0.0347,0.0101,-0.10,0.10,0.44,0.220,1.878,-0.061,-0.109
10940,-0.0337,0.0331,0.0105,-0.08,0.06,0.44,0.220,1.925,1.731,-0.362
10950,-0.0380,0.0318,0.0139,-0.06,0.07,0.44,0.220,-0.002,-0.423,-1.260
10960,-0.0382,0.0319,0.0138,-0.06,0.07,0.44,0.220,-1.676,-1.822,-0.518
10970,-0.0383,0.0320,0.0143,-0.06,0.06,0.43,0.220,-0.493,0.374,-1.809
10980,-0.0384,0.0321,0.0147,-0.06,0.07,0.42,0.219,-1.261,-1.067,-1.556
10990,-0.0369,0.0289,0.0151,-0.06,0.06,0.41,0.219,-2.508,1.431,-1.546
11000,-0.0375,0.0276,0.0138,-0.05,0.06,0.40,0.219,-0.755,2.336,-1.708
11010,-0.0383,0.0269,0.0140,-0.07,0.08,0.38,0.219,-0.068,-0.831,-2.039
11020,-0.0385,0.0270,0.0140,-0.10,0.06,0.37,0.219,-3.812,0.715,-2.081
11030,-0.0386,0.0272,0.0141,-0.11,0.05,0.35,0.219,-0.197,1.907,-2.544
11040,-0.0369,0.0283,0.0140,-0.13,0.05,0.33,0.221,-1.460,0.186,-2.393
11050,-0.0370,0.0285,0.0153,-0.15,0.02,0.30,0.221,0.138,1.478,-2.938
11060,-0.0373,0.0275,0.0153,-0.15,0.01,0.28,0.221,1.770,2.742,-2.684
11070,-0.0373,0.0278,0.0153,-0.15,-0.00,0.26,0.221,0.760,4.003,-3.096
11080,-0.0355,0.0311,0.0153,-0.17,-0.02,0.23,0.221,-1.452,1.661,-2.273
11090,-0.0355,0.0314,0.0152,-0.17,-0.05,0.20,0.221,-0.937,2.853,-2.851
11100,-0.0350,0.0342,0.0145,-0.17,-0.09,0.17,0.221,-0.809,2.375,-2.199
11110,-0.0413,0.0330,0.0145,-0.17,-0.08,0.15,0.221,-2.088,-0.538,-3.009
11120,-0.0372,0.0322,0.0143,-0.18,-0.11,0.13,0.221,-0.257,-0.043,-3.318
11130,-0.0312,0.0312,0.0143,-0.18,-0.16,0.10,0.221,-2.983,-1.901,-2.661
11140,-0.0314,0.0303,0.0143,-0.18,-0.16,0.07,0.217,-0.628,-1.970,-3.306
11150,-0.0374,0.0295,0.0025,-0.20,-0.11,0.04,0.217,-2.929,-0.756,-3.165
11160,-0.0377,0.0288,0.0026,-0.20,-0.10,0.01,0.217,-0.982,0.847,-2.390
11170,-0.0375,0.0291,0.0025,-0.22,-0.09,-0.02,0.217,-0.473,1.423,-2.210
11180,-0.0374,0.0295,0.0023,-0.24,-0.07,-0.05,0.215,-0.630,0.129,-2.878
11190,-0.0373,0.0299,0.0024,-0.24,-0.08,-0.07,0.215,-1.269,0.434,-2.478
11200,-0.0371,0.0302,-0.0082,-0.25,-0.08,-0.10,0.215,-0.309,-0.134,-2.366
11210,-0.0373,0.0293,-0.0081,-0.25,-0.08,-0.13,0.215,-1.487,1.418,-2.637
11220,-0.0331,0.0286,-0.0078,-0.25,-0.11,-0.15,0.215,0.551,-0.455,-3.454
11229,-0.0334,0.0298,-0.0075,-0.25,-0.11,-0.18,0.215,-0.002,0.752,-2.434
11240,-0.0332,0.0302,-0.0070,-0.27,-0.12,-0.20,0.217,-0.028,0.512,-2.307
11250,-0.0330,0.0307,-0.0074,-0.27,-0.13,-0.23,0.217,1.798,0.670,-3.004
11260,-0.0332,0.0296,-0.0070,-0.25,-0.14,-0.26,0.217,0.411,-1.741,-2.830
11270,-0.0293,0.0328,-0.0065,-0.27,-0.16,-0.28,0.217,-0.178,0.411,-1.846
11280,-0.0290,0.0333,-0.0057,-0.24,-0.16,-0.31,0.217,0.973,0.764,-3.091
11290,-0.0288,0.0337,-0.0052,-0.25,-0.16,-0.34,0.217,-1.235,-0.169,-2.296
11300,-0.0295,0.0367,-0.0050,-0.25,-0.15,-0.36,0.217,1.141,1.304,-2.409
11310,-0.0292,0.0371,-0.0045,-0.26,-0.16,-0.39,0.217,3.324,-1.434,-1.883
11320,-0.0289,0.0375,-0.0039,-0.25,-0.16,-0.41,0.217,1.228,-1.203,-2.024
11330,-0.0270,0.0381,-0.0035,-0.23,-0.17,-0.43,0.218,-3.887,0.481,-2.054
11340,-0.0256,0.0338,-0.0030,-0.17,-0.17,-0.45,0.218,-4.614,1.007,-1.767
11349,-0.0265,0.0346,0.0005,-0.19,-0.16,-0.47,0.218,-2.042,-1.873,-2.573
11360,-0.0262,0.0350,0.0013,-0.23,-0.16,-0.49,0.218,-0.223,0.091,-2.452
11370,-0.0223,0.0345,0.0019,-0.27,-0.19,-0.51,0.218,0.367,-2.870,-2.459
11380,-0.0220,0.0350,0.0024,-0.27,-0.17,-0.53,0.217,-0.889,-0.287,-2.251
11390,-0.0217,0.0354,0.0032,-0.28,-0.15,-0.56,0.217,1.836,-0.976,-2.737
11400,-0.0214,0.0359,0.0031,-0.27,-0.14,-0.58,0.217,-0.577,-1.665,-2.016
11410,-0.0212,0.0364,0.0037,-0.27,-0.12,-0.61,0.217,-1.745,-0.899,-2.385
11420,-0.0153,0.0348,0.0044,-0.26,-0.15,-0.63,0.217,1.098,-1.719,-3.088
11430,-0.0151,0.0352,0.0052,-0.28,-0.15,-0.65,0.218,-3.264,-0.650,-2.488
11440,-0.0142,0.0389,0.0059,-0.31,-0.14,-0.69,0.218,-0.409,-1.499,-2.893
11450,-0.0182,0.0373,0.0077,-0.30,-0.10,-0.71,0.218,1.428,-0.473,-2.301
11460,-0.0180,0.0378,0.0085,-0.32,-0.08,-0.74,0.218,0.371,-0.263,-2.786
11470,-0.0127,0.0408,0.0097,-0.32,-0.09,-0.77,0.218,1.450,-1.008,-2.875
11480,-0.0141,0.0370,0.0106,-0.29,-0.08,-0.79,0.219,0.878,0.042,-2.431
11490,-0.0132,0.0380,0.0112,-0.29,-0.07,-0.82,0.219,2.328,-2.309,-2.304
11500,-0.0131,0.0385,0.0138,-0.28,-0.06,-0.85,0.219,-0.433,-0.720,-1.871
11510,-0.0125,0.0392,0.0143,-0.26,-0.05,-0.87,0.219,2.859,-1.296,-2.647
11520,-0.0120,0.0414,0.0147,-0.25,-0.04,-0.89,0.219,0.936,0.748,-1.914
11529,-0.0135,0.0442,0.0153,-0.26,-0.02,-0.92,0.219,0.879,-1.167,-2.146
11539,-0.0135,0.0446,0.0156,-0.23,-0.02,-0.94,0.219,0.498,-0.351,-2.069
11550,-0.0148,0.0453,0.0148,-0.23,-0.01,-0.96,0.219,-0.572,1.257,-2.283
11560,-0.0122,0.0452,0.0150,-0.21,-0.02,-0.98,0.219,0.586,0.317,-2.514
11570,-0.0114,0.0477,0.0157,-0.23,-0.03,-1.01,0.219,-0.369,-0.062,-1.975
11580,-0.0114,0.0480,0.0161,-0.22,-0.03,-1.03,0.220,-0.859,-0.043,-1.408
11590,-0.0113,0.0484,0.0162,-0.23,-0.04,-1.05,0.220,0.168,-1.204,-1.779
11600,-0.0112,0.0488,0.0168,-0.23,-0.03,-1.07,0.220,-0.705,-0.869,-1.268
11610,-0.0107,0.0514,0.0172,-0.24,-0.03,-1.09,0.220,0.828,-1.650,-1.784
11620,-0.0082,0.0496,0.0175,-0.23,-0.03,-1.10,0.220,1.003,-2.330,-1.510
11629,-0.0082,0.0500,0.0178,-0.23,-0.02,-1.12,0.220,-0.288,-2.963,-1.622
11640,-0.0059,0.0483,0.0179,-0.22,-0.01,-1.14,0.220,0.625,-3.088,-1.769
11650,-0.0080,0.0507,0.0159,-0.24,0.03,-1.15,0.220,-0.804,-2.289,-1.205
11660,-0.0080,0.0511,0.0163,-0.25,0.06,-1.17,0.220,0.133,-1.780,-1.333
11669,-0.0084,0.0471,0.0168,-0.22,0.08,-1.18,0.220,0.305,-3.096,-1.339
11680,-0.0085,0.0475,0.0172,-0.22,0.11,-1.19,0.223,-1.576,-1.269,-1.291
11690,-0.0086,0.0500,0.0173,-0.24,0.13,-1.20,0.223,0.831,-2.411,-1.760
11700,-0.0088,0.0505,0.0213,-0.24,0.16,-1.22,0.223,0.033,-1.446,-1.638
11709,-0.0090,0.0448,0.0214,-0.21,0.17,-1.23,0.223,-0.433,-0.801,-1.293
11719,-0.0090,0.0493,0.0217,-0.24,0.19,-1.25,0.223,-0.493,0.033,-0.968
11729,-0.0071,0.0554,0.0220,-0.27,0.18,-1.26,0.225,0.376,0.251,-1.520
11739,-0.0074,0.0559,0.0221,-0.26,0.19,-1.27,0.225,0.840,-0.105,-0.765
11749,-0.0096,0.0539,0.0261,-0.24,0.20,-1.28,0.225,0.866,-0.768,-0.599
11760,-0.0099,0.0544,0.0261,-0.23,0.20,-1.30,0.225,0.279,-2.201,-1.575
11770,-0.0075,0.0606,0.0258,-0.28,0.19,-1.31,0.225,-0.109,2.346,-0.600
11781,-0.0073,0.0603,0.0256,-0.28,0.18,-1.31,0.223,2.741,1.352,-0.304
11790,-0.0076,0.0608,0.0256,-0.27,0.17,-1.32,0.223,0.399,0.233,-0.807
11799,-0.0073,0.0605,0.0210,-0.26,0.17,-1.33,0.223,1.090,2.222,-0.382
11809,-0.0075,0.0610,0.0204,-0.24,0.15,-1.33,0.223,3.190,1.154,-0.660
11820,-0.0054,0.0585,0.0199,-0.20,0.12,-1.33,0.223,3.870,0.066,-0.334
11829,-0.0052,0.0580,0.0195,-0.17,0.12,-1.34,0.223,2.903,-0.372,-0.342
11839,-0.0054,0.0583,0.0191,-0.14,0.11,-1.34,0.223,1.717,-0.431,-0.331
11849,-0.0074,0.0618,0.0130,-0.15,0.13,-1.35,0.223,-0.503,-2.601,-0.563
11859,-0.0093,0.0630,0.0125,-0.14,0.15,-1.35,0.223,-1.374,-2.539,-0.677
11869,-0.0074,0.0503,0.0124,-0.06,0.14,-1.35,0.223,-1.011,-0.408,-0.316
11880,-0.0052,0.0637,0.0121,-0.14,0.15,-1.36,0.223,-0.192,-2.643,-1.086
11889,-0.0057,0.0633,0.0119,-0.14,0.16,-1.36,0.223,0.364,-1.631,0.190
11899,-0.0076,0.0609,0.0075,-0.14,0.18,-1.36,0.223,0.391,1.229,0.400
11909,-0.0081,0.0606,0.0070,-0.15,0.21,-1.37,0.223,-1.529,0.002,-0.011
11920,-0.0081,0.0622,0.0068,-0.16,0.21,-1.36,0.223,1.419,-1.673,-0.693
11929,-0.0084,0.0625,0.0068,-0.16,0.19,-1.36,0.214,1.830,1.316,0.358
11939,-0.0087,0.0627,0.0069,-0.16,0.21,-1.37,0.214,2.474,1.348,-0.223
11949,-0.0108,0.0617,-0.0170,-0.13,0.22,-1.37,0.214,3.590,0.024,-0.053
11960,-0.0083,0.0609,-0.0171,-0.10,0.18,-1.36,0.214,2.477,-0.040,-0.010
11970,-0.0064,0.0582,-0.0173,-0.05,0.18,-1.37,0.214,2.502,-0.542,0.676
11980,-0.0043,0.0553,-0.0173,-0.01,0.16,-1.37,0.221,1.358,-0.787,0.528
11989,-0.0061,0.0566,-0.0170,-0.00,0.17,-1.37,0.221,1.701,-1.609,0.467
11999,-0.0060,0.0614,-0.0128,-0.01,0.17,-1.36,0.221,0.158,-1.760,0.514
12010,-0.0062,0.0614,-0.0124,0.00,0.19,-1.36,0.221,-0.302,-1.120,0.196
12020,-0.0062,0.0569,-0.0124,0.03,0.18,-1.36,0.221,1.022,0.181,-0.089
12029,-0.0119,0.0546,-0.0120,0.05,0.23,-1.35,0.229,-0.155,0.074,-0.137
12039,-0.0082,0.0595,-0.0114,0.03,0.22,-1.35,0.229,0.058,-0.440,-0.894
12049,-0.0102,0.0575,0.0115,0.04,0.24,-1.35,0.229,1.076,0.201,-0.668
12059,-0.0108,0.0570,0.0123,0.03,0.25,-1.35,0.229,-0.132,0.474,-0.817
12070,-0.0108,0.0570,0.0123,0.03,0.25,-1.36,0.229,-0.768,0.139,-0.236
12079,-0.0106,0.0619,0.0131,0.01,0.25,-1.36,0.215,0.122,1.660,-0.223
12089,-0.0110,0.0619,0.0135,0.00,0.24,-1.36,0.215,0.345,1.829,-0.225
12099,-0.0091,0.0592,-0.0062,0.01,0.21,-1.36,0.215,1.017,1.817,-0.417
12109,-0.0110,0.0586,-0.0056,0.04,0.20,-1.37,0.215,2.322,1.575,0.039
12120,-0.0110,0.0586,-0.0056,0.04,0.20,-1.37,0.215,2.678,0.207,0.132
12130,-0.0107,0.0581,-0.0050,0.05,0.19,-1.37,0.227,-0.515,0.127,-0.025
12139,-0.0085,0.0555,-0.0044,0.07,0.17,-1.38,0.227,0.368,-0.967,-0.520
12150,-0.0119,0.0567,0.0114,0.07,0.18,-1.38,0.227,-0.267,-0.949,0.183
12159,-0.0122,0.0566,0.0123,0.07,0.18,-1.38,0.227,-0.224,0.683,0.256
12169,-0.0123,0.0508,0.0131,0.11,0.17,-1.38,0.227,-4.402,0.532,1.925
12179,-0.0139,0.0539,0.0138,0.07,0.18,-1.37,0.217,3.167,-2.828,-0.077
12189,-0.0156,0.0519,0.0142,0.09,0.19,-1.36,0.217,-2.860,0.298,1.904
12199,-0.0158,0.0516,0.0003,0.06,0.20,-1.35,0.217,-1.047,-1.446,0.723
12209,-0.0159,0.0526,0.0006,0.06,0.21,-1.35,0.217,0.912,-1.943,1.334
12219,-0.0104,0.0438,0.0011,0.11,0.18,-1.34,0.217,2.392,-0.449,1.762
12229,-0.0139,0.0491,0.0015,0.07,0.21,-1.33,0.227,0.419,2.487,2.069
12239,-0.0105,0.0466,0.0021,0.08,0.21,-1.32,0.227,-3.064,-0.795,1.237
12249,-0.0139,0.0502,0.0156,0.09,0.24,-1.30,0.227,0.101,2.192,2.322
12259,-0.0152,0.0499,0.0159,0.08,0.22,-1.28,0.227,-2.559,-0.148,0.936
12269,-0.0156,0.0498,0.0160,0.07,0.22,-1.27,0.227,0.019,-0.589,1.877
12279,-0.0150,0.0494,0.0162,0.06,0.21,-1.25,0.215,-1.697,0.568,1.945
