time_ms,vel_x,vel_y,vel_z,roll,pitch,yaw,range_z,gyro_x,gyro_y,gyro_z
0,0.0037,0.0024,0.0013,0.33,-0.01,-70.04,0.010,-0.076,0.056,-0.123
0,0.0080,-0.0031,0.0013,0.31,-0.07,-69.97,0.010,-0.099,-0.001,0.098
0,0.0081,-0.0039,0.0036,0.31,-0.08,-69.91,0.010,-0.039,-0.215,0.139
0,0.0028,0.0006,0.0038,0.34,-0.03,-69.84,0.010,-0.185,0.031,0.163
0,0.0013,0.0048,0.0040,0.34,0.01,-69.78,0.010,-0.236,-0.027,-0.048
0,0.0013,0.0048,0.0039,0.34,0.01,-69.71,0.008,-0.064,0.274,-0.157
0,-0.0022,0.0034,0.0040,0.37,0.01,-69.65,0.008,0.257,-0.003,-0.095
0,0.0011,-0.0053,0.0008,0.37,-0.07,-69.58,0.008,-0.043,0.005,0.084
0,0.0046,0.0027,0.0010,0.32,-0.02,-69.52,0.008,-0.040,0.173,0.017
0,0.0015,0.0040,0.0011,0.35,-0.00,-69.45,0.008,0.039,-0.259,-0.420
0,0.0017,0.0040,0.0013,0.35,-0.00,-69.39,0.012,-0.279,0.091,0.114
0,-0.0044,-0.0009,0.0015,0.41,-0.02,-69.32,0.012,0.164,0.028,0.125
0,0.0061,0.0031,0.0082,0.31,-0.02,-69.26,0.012,-0.130,0.095,0.321
0,0.0048,0.0025,0.0082,0.33,-0.02,-69.19,0.012,-0.106,0.118,-0.068
1,0.0043,0.0035,0.0083,0.33,-0.01,-69.13,0.012,0.180,0.044,-0.132
1,0.0010,0.0047,0.0086,0.35,0.00,-69.06,0.008,-0.377,-0.002,-0.127
1,-0.0011,0.0037,0.0087,0.37,0.00,-69.00,0.008,-0.171,-0.007,0.014
1,0.0023,-0.0016,0.0031,0.36,-0.05,-68.93,0.008,0.005,0.045,-0.038
1,-0.0009,0.0035,0.0033,0.36,0.00,-68.87,0.008,-0.055,-0.106,0.028
1,0.0002,0.0038,0.0034,0.35,0.00,-68.80,0.008,0.074,0.196,0.104
1,0.0045,0.0027,0.0036,0.33,-0.02,-68.74,0.006,0.051,-0.100,-0.049
1,0.0014,0.0039,0.0038,0.35,-0.00,-68.67,0.006,-0.024,-0.131,0.288
1,0.0052,-0.0062,-0.0051,0.35,-0.08,-68.61,0.006,0.168,-0.209,-0.117
1,0.0053,-0.0064,-0.0049,0.35,-0.08,-68.55,0.006,0.246,-0.055,-0.280
1,-0.0016,0.0014,-0.0046,0.38,-0.00,-68.48,0.006,-0.510,0.151,0.233
1,-0.0017,0.0016,-0.0044,0.38,-0.00,-68.42,0.008,0.074,0.344,0.309
1,0.0014,0.0002,-0.0042,0.36,-0.02,-68.35,0.008,-0.248,0.299,-0.134
2,0.0013,0.0003,-0.0044,0.36,-0.02,-68.29,0.008,-0.074,0.116,0.210
2,-0.0004,0.0037,-0.0042,0.36,0.01,-68.22,0.008,-0.177,-0.068,0.148
2,-0.0015,0.0030,-0.0041,0.37,0.00,-68.16,0.008,-0.054,0.042,-0.002
2,0.0034,-0.0058,-0.0041,0.36,-0.08,-68.10,0.005,-0.116,0.146,0.140
2,0.0019,-0.0020,-0.0040,0.36,-0.04,-68.03,0.005,-0.114,-0.125,-0.185
2,0.0011,0.0003,-0.0104,0.36,-0.02,-67.97,0.005,0.136,-0.043,-0.292
2,0.0002,0.0001,-0.0102,0.37,-0.02,-67.90,0.005,-0.204,0.078,-0.277
2,-0.0016,-0.0018,-0.0103,0.38,-0.03,-67.84,0.005,-0.074,0.197,0.234
2,-0.0005,0.0024,-0.0103,0.36,-0.00,-67.78,0.008,-0.169,-0.085,-0.106
2,0.0058,-0.0002,-0.0102,0.32,-0.04,-67.71,0.008,-0.213,0.091,0.591
2,0.0044,0.0060,-0.0063,0.32,0.01,-67.65,0.008,-0.030,0.178,-0.367
2,0.0033,-0.0008,-0.0061,0.34,-0.04,-67.59,0.008,-0.055,-0.018,0.080
2,0.0038,0.0007,-0.0061,0.33,-0.03,-67.52,0.008,-0.002,-0.056,0.034
2,0.0055,-0.0008,-0.0060,0.33,-0.05,-67.46,0.008,-0.117,-0.149,0.244
2,0.0007,0.0049,-0.0058,0.35,0.01,-67.39,0.008,0.143,-0.087,-0.038
2,0.0130,-0.0011,-0.0025,0.27,-0.08,-67.33,0.008,-0.267,0.147,0.079
3,0.0018,0.0006,-0.0022,0.35,-0.02,-67.27,0.008,-0.142,-0.036,-0.031
3,0.0020,0.0008,-0.0021,0.35,-0.02,-67.20,0.008,0.110,-0.140,-0.000
3,0.0021,-0.0055,-0.0017,0.37,-0.07,-67.14,0.007,0.018,-0.226,-0.147
3,-0.0003,0.0002,-0.0013,0.37,-0.02,-67.08,0.007,0.152,0.235,-0.018
3,0.0009,0.0006,-0.0016,0.36,-0.02,-67.01,0.007,-0.163,-0.009,0.114
3,0.0011,0.0005,-0.0013,0.36,-0.02,-66.95,0.007,-0.051,-0.102,-0.330
3,-0.0015,0.0033,-0.0012,0.37,0.01,-66.89,0.007,-0.087,0.315,-0.029
3,0.0050,0.0006,-0.0009,0.33,-0.03,-66.83,0.009,-0.129,-0.119,-0.025
3,0.0078,-0.0035,-0.0007,0.32,-0.07,-66.76,0.009,-0.133,0.142,0.165
3,-0.0017,-0.0007,0.0039,0.38,-0.02,-66.70,0.009,-0.183,-0.061,-0.155
3,-0.0042,0.0021,0.0039,0.39,0.01,-66.64,0.009,0.093,0.183,0.156
3,-0.0002,0.0052,0.0042,0.35,0.02,-66.58,0.009,0.134,0.011,-0.021
3,0.0009,0.0055,0.0044,0.34,0.02,-66.52,0.006,-0.097,0.031,0.043
3,-0.0003,0.0049,0.0046,0.35,0.02,-66.45,0.006,-0.038,0.099,-0.372
3,0.0057,-0.0003,0.0002,0.33,-0.04,-66.39,0.006,0.138,0.184,0.082
3,-0.0018,0.0044,0.0002,0.36,0.01,-66.33,0.006,-0.177,-0.075,-0.066
3,0.0040,0.0002,0.0004,0.34,-0.03,-66.26,0.006,-0.251,-0.153,0.282
3,-0.0006,0.0045,0.0007,0.36,0.01,-66.20,0.008,-0.206,0.177,0.244
3,0.0005,0.0047,0.0008,0.35,0.01,-66.14,0.008,-0.078,0.300,-0.236
3,-0.0003,0.0004,0.0026,0.36,-0.02,-66.08,0.008,0.223,0.236,-0.352
3,-0.0016,0.0037,0.0028,0.36,0.01,-66.02,0.008,-0.190,-0.137,0.081
3,0.0026,0.0030,0.0029,0.33,-0.01,-65.95,0.008,0.047,0.150,-0.050
3,0.0035,0.0033,0.0030,0.33,-0.01,-65.89,0.008,0.011,-0.131,0.127
4,-0.0014,0.0023,0.0030,0.36,-0.00,-65.83,0.008,0.057,0.050,-0.071
4,-0.0029,0.0029,0.0034,0.37,0.01,-65.77,0.008,-0.066,0.224,-0.105
4,-0.0027,0.0030,0.0034,0.37,0.01,-65.70,0.008,-0.278,-0.046,0.045
4,-0.0027,0.0032,0.0032,0.37,0.01,-65.64,0.008,0.027,0.032,0.094
4,0.0051,0.0013,0.0033,0.32,-0.03,-65.58,0.009,-0.193,0.258,0.307
4,0.0011,-0.0018,0.0034,0.36,-0.04,-65.52,0.009,-0.131,-0.194,0.085
4,-0.0002,0.0041,0.0057,0.35,0.01,-65.45,0.009,-0.044,-0.238,-0.227
4,-0.0065,0.0010,0.0058,0.40,0.00,-65.39,0.009,0.056,0.196,0.217
4,0.0002,0.0039,0.0062,0.34,0.00,-65.33,0.009,-0.092,-0.032,0.081
4,0.0002,0.0040,0.0063,0.34,0.00,-65.27,0.007,-0.036,0.038,-0.015
4,0.0029,0.0011,0.0063,0.33,-0.03,-65.21,0.007,-0.121,-0.140,-0.021
4,-0.0024,0.0013,0.0026,0.37,-0.01,-65.15,0.007,-0.176,-0.058,0.023
4,0.0032,0.0013,0.0027,0.33,-0.03,-65.08,0.007,-0.209,-0.156,0.030
4,0.0021,0.0034,0.0029,0.33,-0.01,-65.02,0.007,-0.180,-0.074,-0.283
4,0.0051,0.0022,0.0030,0.31,-0.03,-64.96,0.009,-0.262,-0.013,0.067
4,-0.0062,0.0010,0.0031,0.40,0.00,-64.90,0.009,0.029,-0.100,0.129
4,0.0067,-0.0009,0.0049,0.31,-0.06,-64.84,0.009,-0.047,-0.021,-0.037
4,-0.0001,0.0025,0.0049,0.35,-0.01,-64.77,0.009,-0.044,0.068,-0.153
4,0.0046,0.0008,0.0047,0.32,-0.04,-64.71,0.009,0.124,-0.044,0.044
4,0.0042,-0.0045,0.0044,0.34,-0.07,-64.65,0.008,0.031,0.111,-0.113
4,0.0051,-0.0012,0.0045,0.32,-0.05,-64.59,0.008,-0.199,-0.158,-0.046
4,-0.0054,0.0017,0.0030,0.39,0.01,-64.53,0.008,0.287,-0.039,-0.075
4,-0.0012,0.0038,0.0030,0.35,0.00,-64.47,0.008,-0.151,-0.041,0.236
4,0.0027,-0.0044,0.0031,0.35,-0.07,-64.41,0.008,0.148,-0.178,-0.256
4,0.0048,0.0019,0.0031,0.31,-0.03,-64.35,0.010,0.107,-0.014,-0.028
4,-0.0030,0.0020,0.0032,0.37,-0.00,-64.29,0.010,-0.066,0.062,-0.004
4,0.0017,0.0054,0.0063,0.32,0.01,-64.23,0.010,0.259,0.137,-0.084
4,-0.0004,-0.0007,0.0065,0.36,-0.03,-64.17,0.010,-0.002,0.148,0.200
4,-0.0010,0.0005,0.0066,0.36,-0.02,-64.11,0.010,0.145,0.236,-0.050
4,-0.0005,-0.0005,0.0067,0.36,-0.03,-64.05,0.009,-0.277,0.283,0.088
4,-0.0023,0.0036,0.0067,0.36,0.00,-63.99,0.009,-0.041,-0.134,-0.123
4,0.0010,0.0001,0.0055,0.35,-0.04,-63.92,0.009,-0.318,-0.117,0.052
4,0.0035,-0.0050,0.0055,0.35,-0.08,-63.86,0.009,-0.075,-0.257,0.235
5,0.0001,-0.0005,0.0058,0.36,-0.03,-63.80,0.009,0.242,0.138,0.144
5,0.0003,0.0046,0.0060,0.34,0.01,-63.74,0.008,-0.090,-0.145,-0.172
5,0.0079,-0.0031,0.0062,0.31,-0.08,-63.68,0.008,-0.055,0.214,-0.066
5,0.0081,-0.0030,0.0023,0.31,-0.08,-63.62,0.008,-0.214,0.115,0.136
5,0.0015,0.0047,0.0026,0.33,0.00,-63.56,0.008,0.032,0.097,0.108
5,-0.0018,0.0028,0.0028,0.36,0.00,-63.50,0.008,0.240,-0.286,-0.363
5,0.0005,0.0038,0.0029,0.34,-0.00,-63.44,0.009,-0.085,0.109,0.145
5,0.0036,0.0025,0.0030,0.32,-0.02,-63.38,0.009,-0.154,0.002,-0.068
5,-0.0014,0.0041,0.0028,0.36,0.01,-63.32,0.009,0.021,0.298,0.081
5,-0.0007,0.0004,0.0030,0.36,-0.02,-63.26,0.009,-0.029,-0.388,-0.015
5,0.0037,0.0026,0.0031,0.32,-0.02,-63.20,0.009,-0.096,0.058,-0.036
5,0.0041,0.0042,0.0030,0.32,-0.02,-63.14,0.009,-0.086,-0.081,-0.062
5,0.0005,0.0037,0.0031,0.35,-0.01,-63.08,0.009,-0.053,-0.179,0.030
5,0.0007,0.0040,0.0026,0.35,-0.01,-63.02,0.009,-0.346,-0.282,-0.044
5,0.0081,-0.0029,0.0027,0.32,-0.08,-62.96,0.009,-0.004,-0.403,-0.432
5,0.0057,0.0013,0.0030,0.32,-0.04,-62.90,0.009,-0.130,0.073,0.016
5,-0.0023,0.0039,0.0032,0.37,0.01,-62.84,0.007,0.089,0.086,-0.304
5,-0.0007,-0.0017,0.0035,0.37,-0.03,-62.78,0.007,-0.011,0.094,0.238
5,0.0065,-0.0030,-0.0019,0.33,-0.07,-62.72,0.007,0.007,-0.078,0.034
5,0.0048,0.0001,-0.0019,0.33,-0.04,-62.66,0.007,-0.238,-0.072,-0.144
5,-0.0010,0.0036,-0.0019,0.36,0.01,-62.61,0.007,0.010,0.111,-0.589
5,-0.0035,0.0033,-0.0019,0.37,0.01,-62.55,0.009,0.018,0.152,0.106
5,0.0027,0.0062,-0.0019,0.32,0.01,-62.49,0.009,-0.043,-0.229,-0.076
5,0.0028,0.0065,-0.0002,0.32,0.01,-62.43,0.009,0.046,0.130,-0.276
5,-0.0035,0.0030,-0.0003,0.38,0.01,-62.37,0.009,-0.133,0.038,-0.081
5,0.0006,0.0009,-0.0004,0.36,-0.02,-62.31,0.009,0.044,-0.021,-0.090
5,0.0059,0.0011,-0.0005,0.32,-0.04,-62.26,0.011,0.006,-0.225,-0.066
5,0.0041,-0.0036,-0.0007,0.35,-0.06,-62.20,0.011,-0.287,-0.178,0.148
5,0.0026,0.0013,0.0048,0.34,-0.02,-62.14,0.011,-0.189,0.118,0.040
5,0.0046,0.0024,0.0050,0.32,-0.02,-62.08,0.011,0.053,0.259,-0.306
5,0.0018,0.0048,0.0049,0.33,0.01,-62.02,0.011,-0.008,0.053,-0.050
5,0.0017,0.0019,0.0050,0.34,-0.01,-61.96,0.006,-0.120,-0.135,0.319
5,-0.0003,-0.0069,0.0051,0.39,-0.07,-61.90,0.006,-0.312,0.008,0.036
5,0.0027,-0.0000,-0.0030,0.34,-0.03,-61.85,0.006,0.032,0.040,-0.218
5,0.0045,-0.0030,-0.0032,0.34,-0.06,-61.79,0.006,0.270,0.075,0.019
6,0.0037,0.0031,-0.0032,0.32,-0.01,-61.72,0.006,0.127,0.234,0.026
6,0.0011,0.0003,-0.0030,0.35,-0.02,-61.67,0.008,-0.282,-0.046,0.072
6,-0.0001,0.0049,-0.0027,0.34,0.02,-61.61,0.008,-0.047,-0.061,0.092
6,-0.0040,0.0026,-0.0027,0.38,0.01,-61.55,0.008,0.145,0.406,0.209
6,-0.0011,0.0002,-0.0025,0.37,-0.01,-61.49,0.008,-0.338,0.172,0.053
6,-0.0009,0.0002,-0.0024,0.36,-0.02,-61.43,0.008,0.078,-0.009,-0.180
6,0.0055,-0.0033,-0.0023,0.33,-0.07,-61.37,0.008,-0.062,0.194,-0.208
6,0.0089,-0.0024,-0.0022,0.31,-0.07,-61.31,0.008,-0.269,-0.129,0.031
6,0.0063,-0.0034,-0.0017,0.33,-0.07,-61.25,0.008,0.092,0.183,0.097
6,-0.0015,0.0034,-0.0015,0.36,0.01,-61.20,0.008,-0.258,0.052,0.007
6,-0.0024,0.0026,-0.0013,0.37,0.01,-61.14,0.008,-0.132,0.181,-0.353
6,0.0036,0.0017,-0.0010,0.33,-0.02,-61.08,0.005,0.005,-0.225,-0.166
6,0.0012,-0.0065,-0.0010,0.37,-0.07,-61.02,0.005,-0.082,0.042,0.012
6,-0.0011,0.0031,-0.0075,0.35,0.01,-60.96,0.005,-0.222,0.054,-0.063
6,-0.0017,0.0042,-0.0073,0.35,0.01,-60.91,0.005,-0.101,-0.219,-0.041
6,0.0001,0.0011,-0.0073,0.35,-0.02,-60.85,0.005,-0.120,0.077,0.324
6,0.0014,0.0060,-0.0072,0.32,0.01,-60.79,0.007,-0.033,0.151,-0.225
6,-0.0026,0.0035,-0.0069,0.36,0.01,-60.73,0.007,0.062,0.076,-0.097
6,0.0078,-0.0030,-0.0052,0.31,-0.08,-60.67,0.007,-0.110,-0.073,0.087
6,-0.0026,0.0033,-0.0049,0.36,0.01,-60.62,0.007,-0.185,-0.011,0.300
6,-0.0015,0.0039,-0.0048,0.35,0.01,-60.56,0.007,0.005,-0.107,-0.036
6,0.0032,0.0027,-0.0047,0.32,-0.02,-60.50,0.009,0.081,0.129,0.038
6,-0.0016,0.0041,-0.0046,0.35,0.01,-60.45,0.009,0.046,-0.153,-0.041
6,-0.0016,0.0041,0.0012,0.35,0.01,-60.45,0.009,-0.043,-0.148,0.088
6,0.0063,-0.0005,0.0013,0.32,-0.06,-60.39,0.009,0.004,0.080,-0.184
6,0.0006,0.0044,0.0015,0.34,-0.00,-60.33,0.009,0.240,-0.218,-0.129
6,-0.0003,0.0038,0.0016,0.35,0.00,-60.27,0.008,0.073,0.228,0.101
6,-0.0007,0.0046,0.0017,0.35,0.01,-60.22,0.008,0.188,-0.121,-0.172
6,-0.0035,0.0027,0.0027,0.37,0.01,-60.16,0.008,-0.283,0.215,0.476
6,0.0044,0.0030,0.0027,0.32,-0.02,-60.10,0.008,0.053,0.123,0.005
6,0.0012,0.0040,0.0027,0.34,-0.00,-59.99,0.008,-0.299,0.081,-0.100
6,0.0015,0.0056,0.0026,0.33,0.00,-59.93,0.007,-0.110,0.250,0.196
6,0.0015,0.0056,0.0026,0.33,0.00,-59.93,0.007,0.086,0.018,-0.048
6,0.0076,-0.0033,0.0006,0.32,-0.09,-59.81,0.007,0.048,0.118,-0.057
7,0.0076,-0.0033,0.0006,0.32,-0.09,-59.81,0.007,-0.101,-0.019,-0.196
7,0.0002,-0.0004,0.0009,0.36,-0.04,-59.76,0.007,-0.224,0.008,-0.063
7,0.0071,-0.0030,0.0009,0.32,-0.08,-59.70,0.008,-0.077,0.106,-0.118
7,0.0071,-0.0030,0.0012,0.32,-0.08,-59.58,0.008,0.254,-0.107,-0.113
7,0.0072,-0.0030,0.0019,0.32,-0.08,-59.53,0.008,0.225,0.252,0.039
7,-0.0039,0.0037,0.0020,0.37,0.01,-59.47,0.008,-0.190,-0.072,0.229
7,-0.0039,0.0037,0.0020,0.37,0.01,-59.47,0.008,0.050,-0.018,0.051
7,0.0011,0.0027,0.0020,0.34,-0.02,-59.36,0.007,-0.222,0.113,0.186
7,0.0011,0.0027,0.0020,0.34,-0.02,-59.36,0.007,-0.127,0.349,-0.079
7,0.0004,0.0061,-0.0000,0.33,0.01,-59.24,0.007,-0.256,0.097,0.160
7,0.0004,0.0061,-0.0000,0.33,0.01,-59.24,0.007,-0.420,-0.113,-0.062
7,-0.0013,-0.0004,0.0002,0.37,-0.04,-59.13,0.007,-0.174,-0.065,-0.111
7,-0.0013,-0.0004,0.0002,0.37,-0.04,-59.13,0.007,0.004,-0.041,-0.107
7,-0.0035,0.0033,0.0004,0.36,0.00,-59.02,0.007,-0.062,0.155,0.011
7,-0.0035,0.0033,-0.0009,0.36,0.00,-59.02,0.007,-0.126,-0.390,0.104
7,0.0022,0.0025,-0.0006,0.32,-0.03,-58.96,0.007,-0.007,-0.084,0.056
7,0.0024,0.0028,-0.0005,0.32,-0.02,-58.85,0.007,-0.152,0.357,0.278
7,-0.0026,0.0038,-0.0005,0.35,0.00,-58.85,0.007,-0.476,0.029,-0.081
7,-0.0028,0.0039,-0.0004,0.35,0.00,-58.79,0.007,0.202,-0.215,-0.126
7,0.0015,-0.0006,-0.0010,0.34,-0.05,-58.73,0.007,-0.074,0.122,0.222
7,0.0016,-0.0006,-0.0010,0.34,-0.05,-58.68,0.007,-0.072,-0.121,-0.027
7,-0.0009,0.0033,-0.0009,0.34,-0.01,-58.62,0.007,0.094,-0.180,-0.191
7,-0.0008,0.0035,-0.0008,0.34,-0.01,-58.56,0.007,0.038,-0.062,-0.018
7,-0.0023,0.0038,-0.0005,0.35,0.00,-58.45,0.007,-0.173,-0.023,0.180
7,-0.0023,0.0038,-0.0008,0.35,0.00,-58.45,0.007,-0.198,-0.218,0.026
7,0.0018,-0.0006,-0.0004,0.34,-0.04,-58.34,0.007,-0.258,0.034,-0.062
7,0.0018,-0.0006,-0.0004,0.34,-0.04,-58.34,0.007,-0.188,0.038,0.184
7,-0.0016,0.0030,-0.0006,0.35,-0.00,-58.23,0.008,-0.136,-0.028,-0.355
7,-0.0016,0.0030,-0.0006,0.35,-0.00,-58.23,0.008,0.051,-0.243,-0.336
7,0.0046,-0.0043,0.0014,0.33,-0.08,-58.12,0.008,-0.130,0.005,0.177
7,-0.0001,0.0053,0.0016,0.32,0.00,-58.06,0.008,-0.061,0.304,0.119
7,-0.0002,0.0011,0.0018,0.34,-0.03,-58.01,0.008,0.009,0.137,0.109
7,-0.0002,0.0011,0.0018,0.34,-0.03,-58.01,0.010,0.283,-0.216,-0.184
7,-0.0019,0.0040,0.0018,0.34,-0.00,-57.95,0.010,-0.041,0.071,0.332
8,-0.0076,0.0000,0.0073,0.40,-0.00,-57.89,0.010,-0.202,-0.096,0.020
8,0.0073,-0.0017,0.0076,0.30,-0.08,-57.84,0.010,-0.166,-0.371,0.099
8,0.0022,-0.0004,0.0077,0.33,-0.05,-57.78,0.010,0.022,0.183,-0.074
8,-0.0013,0.0030,0.0077,0.34,-0.01,-57.73,0.010,-0.058,0.273,0.349
8,0.0023,-0.0004,0.0078,0.33,-0.05,-57.67,0.010,0.172,0.092,0.080
8,-0.0002,0.0037,0.0098,0.33,-0.01,-57.62,0.010,-0.067,-0.055,0.172
8,0.0042,-0.0032,0.0096,0.33,-0.08,-57.56,0.010,-0.067,0.269,0.043
8,0.0022,-0.0041,0.0097,0.35,-0.07,-57.50,0.010,0.090,-0.067,-0.302
8,0.0010,-0.0044,0.0098,0.36,-0.07,-57.45,0.011,-0.231,0.117,0.306
8,0.0052,0.0017,0.0099,0.30,-0.05,-57.39,0.011,0.022,0.090,-0.346
8,0.0044,0.0029,0.0122,0.30,-0.04,-57.33,0.011,-0.169,-0.066,-0.018
8,0.0038,0.0038,0.0122,0.30,-0.03,-57.28,0.011,-0.040,-0.084,-0.259
8,0.0011,0.0059,0.0122,0.31,-0.01,-57.23,0.011,-0.027,0.309,0.116
8,-0.0023,0.0048,0.0123,0.34,0.00,-57.17,0.008,-0.142,0.108,0.186
8,0.0012,0.0014,0.0124,0.33,-0.04,-57.12,0.008,-0.115,-0.002,0.153
8,0.0023,0.0059,0.0059,0.30,-0.01,-57.06,0.008,0.273,0.036,-0.202
8,0.0041,0.0029,0.0060,0.30,-0.04,-57.01,0.008,0.066,0.199,-0.033
8,0.0042,0.0029,0.0060,0.30,-0.04,-56.95,0.008,-0.055,0.134,-0.132
8,-0.0034,0.0036,0.0060,0.35,-0.01,-56.90,0.012,-0.000,0.098,-0.005
8,-0.0080,0.0001,0.0061,0.40,-0.01,-56.85,0.012,0.100,-0.294,-0.304
8,0.0071,0.0097,0.0106,0.25,-0.01,-56.79,0.012,0.085,0.100,0.005
8,0.0050,0.0041,0.0108,0.30,-0.04,-56.74,0.012,-0.058,-0.189,0.017
8,0.0023,-0.0004,0.0111,0.34,-0.06,-56.68,0.012,-0.052,0.022,-0.012
8,0.0026,0.0054,0.0113,0.31,-0.02,-56.63,0.009,0.297,0.036,0.170
8,0.0075,-0.0025,0.0114,0.31,-0.09,-56.57,0.009,0.060,-0.218,0.020
8,0.0017,-0.0007,0.0057,0.34,-0.05,-56.52,0.009,-0.238,0.104,-0.385
8,0.0025,-0.0042,0.0056,0.35,-0.08,-56.46,0.009,0.096,-0.138,-0.185
8,0.0027,-0.0042,0.0055,0.35,-0.08,-56.41,0.009,-0.298,0.325,0.143
8,-0.0020,-0.0012,0.0056,0.37,-0.04,-56.36,0.007,-0.144,-0.234,-0.022
8,0.0022,0.0060,0.0058,0.31,-0.01,-56.30,0.007,-0.194,-0.050,-0.062
8,0.0024,0.0061,-0.0025,0.30,-0.01,-56.25,0.007,-0.156,0.186,0.220
8,-0.0031,0.0033,-0.0026,0.35,-0.00,-56.20,0.007,-0.035,-0.060,0.187
8,-0.0031,0.0033,-0.0026,0.35,-0.00,-56.14,0.007,0.239,0.066,-0.302
8,-0.0019,0.0038,-0.0026,0.34,-0.01,-56.09,0.007,0.159,0.037,-0.203
8,-0.0018,0.0041,-0.0025,0.34,-0.01,-56.03,0.007,-0.172,0.140,-0.186
9,-0.0004,0.0002,-0.0069,0.35,-0.04,-55.98,0.007,0.117,-0.246,0.154
9,-0.0003,0.0005,-0.0068,0.35,-0.04,-55.93,0.007,-0.097,-0.291,-0.009
9,-0.0027,0.0019,-0.0067,0.36,-0.02,-55.87,0.007,-0.149,0.202,0.140
9,-0.0026,0.0019,-0.0066,0.36,-0.02,-55.82,0.011,-0.155,-0.124,0.006
9,-0.0014,0.0024,-0.0064,0.35,-0.02,-55.77,0.011,0.001,-0.079,-0.057
9,0.0053,0.0011,0.0007,0.31,-0.06,-55.71,0.011,-0.130,0.120,0.022
9,0.0176,-0.0045,0.0006,0.26,-0.15,-55.66,0.011,0.102,0.183,-0.024
9,0.0038,0.0024,0.0012,0.32,-0.04,-55.61,0.011,-0.207,-0.068,-0.070
9,0.0039,0.0024,0.0012,0.31,-0.04,-55.55,0.005,-0.092,-0.113,0.103
9,0.0007,0.0045,0.0012,0.33,-0.01,-55.50,0.005,-0.095,0.202,0.227
9,-0.0003,0.0036,-0.0087,0.34,-0.02,-55.45,0.005,0.052,-0.171,0.064
9,0.0049,-0.0042,-0.0085,0.34,-0.09,-55.39,0.005,-0.046,-0.119,-0.060
9,-0.0030,0.0036,-0.0082,0.36,-0.00,-55.34,0.005,0.034,-0.007,0.239
9,-0.0035,0.0029,-0.0082,0.37,-0.00,-55.29,0.008,0.047,0.096,-0.062
9,0.0057,-0.0038,-0.0080,0.34,-0.09,-55.23,0.008,-0.330,0.168,0.230
9,0.0030,0.0060,-0.0059,0.31,-0.01,-55.18,0.008,-0.067,0.185,0.168
9,0.0042,0.0040,-0.0058,0.31,-0.03,-55.13,0.008,0.058,-0.039,-0.177
9,0.0000,0.0038,-0.0057,0.34,-0.01,-55.07,0.008,0.114,-0.034,-0.052
9,0.0023,0.0027,-0.0058,0.33,-0.04,-55.02,0.007,-0.164,0.077,0.115
9,-0.0072,0.0003,-0.0057,0.41,-0.01,-54.97,0.007,0.026,-0.294,-0.072
9,0.0024,0.0066,-0.0060,0.31,-0.01,-54.91,0.007,-0.137,-0.044,0.081
9,-0.0005,0.0042,-0.0058,0.34,-0.01,-54.86,0.007,-0.042,0.131,0.067
9,0.0076,-0.0015,-0.0057,0.31,-0.08,-54.81,0.007,-0.153,0.001,-0.100
9,0.0053,-0.0043,-0.0057,0.34,-0.09,-54.75,0.006,-0.001,0.215,0.029
9,0.0063,-0.0020,-0.0055,0.32,-0.08,-54.70,0.006,-0.272,0.034,-0.030
9,0.0020,0.0061,-0.0073,0.31,-0.00,-54.65,0.006,-0.128,-0.163,0.001
9,0.0029,-0.0046,-0.0070,0.36,-0.08,-54.60,0.006,-0.108,-0.171,-0.065
9,0.0010,0.0040,-0.0068,0.33,-0.01,-54.54,0.006,0.038,0.392,-0.170
9,0.0000,0.0032,-0.0066,0.34,-0.01,-54.49,0.010,-0.208,0.059,-0.123
9,0.0020,0.0002,-0.0064,0.34,-0.04,-54.44,0.010,0.050,0.042,-0.197
9,-0.0001,0.0027,0.0018,0.34,-0.01,-54.39,0.010,-0.154,-0.305,0.324
9,0.0021,0.0017,0.0020,0.33,-0.03,-54.34,0.010,-0.112,0.123,0.403
9,0.0043,-0.0048,0.0023,0.35,-0.09,-54.28,0.010,-0.079,-0.149,-0.054
9,-0.0017,0.0036,0.0026,0.35,-0.00,-54.23,0.009,-0.132,0.016,-0.016
10,0.0033,-0.0053,0.0028,0.36,-0.09,-54.17,0.009,-0.090,0.035,-0.104
10,0.0059,-0.0029,0.0052,0.33,-0.09,-54.12,0.009,-0.257,0.260,0.119
10,0.0062,-0.0029,0.0054,0.33,-0.09,-54.07,0.009,0.162,0.016,0.187
10,0.0014,-0.0064,0.0055,0.38,-0.08,-54.02,0.009,-0.039,-0.095,0.038
10,0.0012,-0.0019,0.0054,0.36,-0.05,-53.97,0.010,0.078,-0.113,-0.187
10,-0.0031,0.0038,0.0055,0.36,0.01,-53.92,0.010,-0.067,0.035,-0.301
10,0.0022,0.0045,0.0085,0.32,-0.01,-53.86,0.010,-0.065,0.026,-0.051
10,0.0026,-0.0041,0.0087,0.36,-0.07,-53.81,0.010,0.117,-0.037,0.043
10,0.0013,0.0055,0.0090,0.32,-0.00,-53.76,0.010,-0.210,0.002,0.001
10,0.0006,0.0019,0.0092,0.34,-0.02,-53.71,0.009,0.127,-0.087,-0.079
10,0.0039,-0.0046,0.0092,0.35,-0.08,-53.66,0.009,-0.160,-0.014,-0.249
10,0.0018,0.0064,0.0076,0.31,-0.00,-53.61,0.009,0.056,0.128,-0.247
10,0.0036,-0.0025,0.0078,0.34,-0.07,-53.56,0.009,-0.154,0.136,0.053
10,0.0037,-0.0022,0.0080,0.34,-0.07,-53.51,0.009,0.095,0.087,-0.062
10,0.0015,-0.0034,0.0081,0.36,-0.07,-53.45,0.010,0.014,-0.055,-0.030
10,-0.0026,0.0043,0.0081,0.35,0.00,-53.40,0.010,0.091,0.267,0.006
10,0.0067,0.0003,0.0085,0.31,-0.07,-53.35,0.010,-0.176,0.008,-0.044
10,0.0070,0.0004,0.0086,0.31,-0.07,-53.30,0.010,-0.324,-0.186,0.164
10,0.0004,0.0064,0.0087,0.32,-0.00,-53.25,0.010,-0.078,0.038,-0.175
10,0.0017,-0.0035,0.0091,0.36,-0.07,-53.20,0.012,-0.179,0.173,0.322
10,-0.0017,0.0055,0.0092,0.34,0.01,-53.15,0.012,-0.132,0.205,0.123
10,0.0106,0.0011,0.0128,0.28,-0.08,-53.10,0.012,0.049,-0.242,0.010
10,0.0023,0.0081,0.0129,0.30,0.01,-53.05,0.012,-0.155,-0.041,0.237
10,0.0038,-0.0039,0.0130,0.35,-0.08,-52.99,0.012,-0.169,-0.222,-0.186
10,0.0009,0.0074,0.0131,0.31,0.00,-52.94,0.008,0.083,-0.357,-0.484
10,-0.0081,0.0002,0.0133,0.41,0.00,-52.89,0.008,-0.202,0.439,-0.148
10,0.0067,-0.0017,0.0055,0.32,-0.08,-52.84,0.008,-0.092,0.112,0.032
10,0.0047,-0.0030,0.0057,0.34,-0.08,-52.79,0.008,-0.040,0.006,-0.241
10,-0.0006,0.0003,0.0061,0.36,-0.03,-52.74,0.008,-0.207,0.158,0.096
10,-0.0024,0.0031,0.0062,0.36,-0.00,-52.69,0.008,-0.216,-0.051,0.195
10,0.0077,-0.0007,0.0062,0.31,-0.08,-52.64,0.008,-0.091,-0.070,0.022
10,0.0000,0.0012,0.0000,0.00,0.00,0.00,0.008,0.082,0.048,-0.326
10,-0.0035,0.0015,0.0000,-0.00,0.01,0.00,0.008,-0.081,0.099,-0.090
10,-0.0101,-0.0024,0.0002,0.04,0.08,0.00,0.008,-0.134,-0.168,0.009
11,-0.0098,-0.0061,0.0004,0.11,0.07,-0.00,0.011,0.055,-0.016,-0.004
11,-0.0094,-0.0019,0.0005,0.03,0.06,-0.00,0.011,0.061,0.181,0.272
11,-0.0088,0.0035,0.0017,-0.08,0.04,-0.01,0.011,-0.076,0.260,0.266
11,-0.0083,-0.0023,0.0017,0.09,0.03,-0.01,0.011,-0.187,0.078,0.114
11,0.0028,0.0024,0.0017,-0.02,-0.27,-0.00,0.011,-0.128,-0.051,0.068
11,-0.0066,-0.0010,0.0019,0.10,0.01,-0.00,0.009,0.155,0.015,0.205
11,-0.0077,0.0054,0.0020,-0.07,0.04,-0.00,0.009,-0.273,-0.021,0.166
11,0.0064,0.0057,0.0014,-0.06,-0.39,-0.00,0.009,0.025,0.063,0.047
11,-0.0078,0.0028,0.0017,0.05,0.06,-0.00,0.009,0.132,0.061,-0.057
11,-0.0024,-0.0017,0.0019,0.20,-0.11,-0.00,0.009,-0.106,0.054,-0.036
11,-0.0055,0.0004,0.0019,0.15,-0.01,0.00,0.008,0.038,-0.026,0.115
11,-0.0034,0.0009,0.0018,0.15,-0.08,0.00,0.008,-0.375,0.122,-0.048
11,0.0077,0.0029,-0.0008,0.10,-0.39,0.00,0.008,0.052,-0.002,0.202
11,-0.0072,0.0013,-0.0005,0.16,0.04,0.00,0.008,-0.318,-0.140,-0.162
11,0.0101,0.0073,-0.0004,0.01,-0.44,0.00,0.008,-0.145,0.153,-0.403
11,0.0098,0.0036,-0.0003,0.13,-0.41,0.00,0.009,-0.080,-0.178,0.094
11,-0.0022,0.0113,-0.0002,-0.07,-0.09,-0.00,0.009,0.037,0.049,-0.264
11,-0.0078,-0.0006,-0.0003,0.25,0.05,-0.00,0.009,-0.160,0.058,0.063
11,-0.0070,0.0037,-0.0001,0.16,0.03,-0.00,0.009,0.050,-0.223,0.276
11,-0.0005,0.0117,0.0001,-0.02,-0.12,-0.00,0.009,0.015,-0.049,-0.069
11,-0.0062,0.0054,0.0002,0.14,0.01,-0.00,0.009,-0.044,0.041,-0.059
11,-0.0002,0.0013,0.0002,0.24,-0.13,0.00,0.009,-0.027,-0.373,0.150
11,-0.0002,0.0112,0.0001,0.03,-0.13,0.00,0.009,-0.024,0.161,-0.108
11,-0.0001,0.0119,0.0001,0.03,-0.13,0.00,0.009,0.187,0.124,0.047
11,0.0042,0.0051,0.0004,0.19,-0.22,0.00,0.009,-0.075,-0.132,-0.161
11,0.0020,0.0030,0.0005,0.24,-0.17,0.00,0.011,-0.239,-0.237,-0.069
11,0.0023,0.0034,0.0006,0.24,-0.17,0.00,0.011,0.093,0.086,-0.137
11,-0.0039,0.0054,0.0056,0.21,-0.05,0.00,0.011,0.000,-0.063,-0.073
11,0.0126,-0.0069,0.0057,0.45,-0.36,0.00,0.011,-0.074,0.254,0.405
11,-0.0002,0.0099,0.0063,0.14,-0.12,0.00,0.011,-0.404,-0.421,-0.087
11,0.0095,0.0050,0.0062,0.24,-0.29,0.00,0.010,-0.253,-0.004,0.290
11,0.0090,0.0030,0.0062,0.28,-0.27,0.00,0.010,-0.003,-0.194,-0.322
11,-0.0060,0.0101,0.0057,0.15,0.00,0.00,0.010,-0.119,-0.169,0.089
11,0.0087,0.0078,0.0059,0.19,-0.26,0.00,0.010,-0.134,-0.271,-0.211
11,0.0046,0.0075,0.0061,0.20,-0.18,0.00,0.010,-0.106,-0.054,-0.321
12,-0.0062,0.0038,0.0063,0.27,0.00,0.00,0.007,-0.045,-0.040,0.177
12,0.0062,0.0037,0.0067,0.28,-0.20,0.00,0.007,0.185,0.004,0.134
12,0.0042,0.0037,-0.0018,0.28,-0.17,-0.00,0.007,0.088,-0.021,-0.314
12,0.0024,0.0037,-0.0018,0.29,-0.14,-0.00,0.007,0.055,-0.201,-0.090
12,0.0054,0.0069,-0.0016,0.24,-0.18,-0.00,0.007,-0.157,-0.134,-0.284
12,0.0067,0.0001,-0.0015,0.35,-0.20,-0.00,0.006,-0.051,-0.068,0.017
12,-0.0065,-0.0013,-0.0011,0.37,0.00,-0.00,0.006,0.145,0.166,-0.060
12,-0.0060,-0.0027,-0.0072,0.39,-0.00,-0.00,0.006,-0.176,-0.043,0.049
12,0.0009,0.0037,-0.0069,0.30,-0.10,-0.01,0.006,-0.082,-0.039,-0.034
12,-0.0053,0.0021,-0.0067,0.33,-0.01,-0.01,0.006,0.112,-0.006,0.151
12,-0.0004,0.0006,-0.0066,0.35,-0.08,-0.01,0.011,-0.093,0.215,0.153
12,-0.0035,0.0084,-0.0066,0.24,-0.04,-0.01,0.011,0.233,0.101,-0.020
12,-0.0045,0.0051,0.0017,0.29,-0.02,-0.01,0.011,0.104,0.096,0.102
21,0.0018,0.0032,0.0020,0.32,-0.11,-0.01,0.011,0.027,0.172,-0.103
31,0.0018,0.0033,0.0022,0.32,-0.11,-0.01,0.011,-0.257,-0.058,0.339
41,-0.0045,-0.0063,0.0023,0.44,-0.03,-0.01,0.010,0.149,0.173,0.109
51,0.0036,-0.0060,0.0024,0.44,-0.13,-0.01,0.010,-0.113,-0.302,-0.216
61,-0.0026,0.0022,0.0043,0.33,-0.05,-0.01,0.010,-0.177,0.127,0.199
71,-0.0039,0.0024,0.0044,0.33,-0.03,-0.01,0.010,0.060,0.027,0.052
81,-0.0036,0.0011,0.0045,0.35,-0.04,-0.01,0.010,-0.129,-0.417,0.134
91,-0.0034,-0.0048,0.0046,0.43,-0.04,-0.01,0.010,-0.042,-0.079,-0.169
101,0.0041,0.0089,0.0049,0.26,-0.13,-0.01,0.010,0.029,-0.208,-0.038
111,-0.0035,0.0086,0.0055,0.27,-0.04,-0.01,0.010,-0.083,-0.314,-0.045
121,-0.0006,0.0081,0.0057,0.27,-0.08,-0.01,0.010,0.277,0.027,-0.294
131,-0.0035,0.0033,0.0058,0.33,-0.04,-0.01,0.010,0.103,0.108,-0.098
142,-0.0036,0.0034,0.0058,0.33,-0.04,-0.01,0.009,0.020,-0.270,-0.548
152,0.0042,0.0001,0.0060,0.37,-0.13,-0.01,0.009,-0.243,-0.022,0.190
162,0.0025,0.0016,0.0038,0.35,-0.11,-0.01,0.009,-0.131,0.036,-0.063
171,0.0086,0.0030,0.0040,0.33,-0.17,-0.02,0.009,0.175,-0.165,-0.103
181,-0.0034,-0.0014,0.0044,0.38,-0.03,-0.02,0.009,-0.294,-0.137,-0.140
192,0.0098,-0.0026,0.0048,0.39,-0.17,-0.02,0.006,0.220,0.050,-0.011
201,-0.0035,0.0075,0.0054,0.29,-0.03,-0.02,0.006,-0.236,-0.265,-0.047
211,-0.0036,0.0078,-0.0041,0.29,-0.03,-0.02,0.006,-0.038,0.159,0.006
221,0.0085,0.0061,-0.0041,0.31,-0.16,-0.02,0.006,0.038,0.153,0.045
231,0.0023,0.0001,-0.0036,0.37,-0.09,-0.02,0.006,0.015,0.002,-0.071
241,0.0024,0.0002,-0.0035,0.37,-0.09,-0.02,0.010,0.112,-0.235,0.056
252,0.0082,0.0003,-0.0036,0.37,-0.15,-0.02,0.010,-0.074,0.021,-0.245
262,0.0036,-0.0025,0.0005,0.40,-0.10,-0.02,0.010,-0.095,-0.248,0.124
270,0.0037,0.0059,0.0006,0.32,-0.10,-0.02,0.010,-0.093,-0.129,0.128
281,0.0041,0.0061,0.0005,0.32,-0.10,-0.02,0.010,-0.009,-0.004,0.103
290,0.0092,-0.0010,0.0007,0.39,-0.15,-0.02,0.007,0.040,-0.136,0.063
301,-0.0032,0.0032,0.0012,0.35,-0.02,-0.01,0.007,-0.120,0.408,0.045
312,0.0072,0.0072,-0.0034,0.31,-0.13,-0.01,0.007,-0.067,-0.265,0.122
321,0.0082,0.0031,-0.0031,0.35,-0.14,-0.01,0.007,-0.152,0.190,0.060
332,0.0014,0.0054,-0.0029,0.32,-0.07,-0.01,0.007,0.034,0.137,-0.430
341,0.0027,0.0026,-0.0028,0.35,-0.08,-0.01,0.006,0.171,-0.028,-0.344
351,0.0078,-0.0027,-0.0027,0.40,-0.13,-0.01,0.006,-0.128,0.041,-0.154
362,0.0076,-0.0000,-0.0069,0.37,-0.13,-0.01,0.006,-0.208,0.090,0.231
370,0.0075,0.0015,-0.0070,0.36,-0.12,-0.01,0.006,0.154,0.116,-0.267
381,0.0023,0.0004,-0.0072,0.37,-0.07,-0.01,0.006,-0.147,0.150,0.091
391,0.0071,0.0018,-0.0071,0.36,-0.12,-0.01,0.011,0.028,-0.172,0.430
401,-0.0043,0.0030,-0.0068,0.35,-0.01,-0.01,0.011,-0.120,0.106,-0.025
411,-0.0041,0.0016,0.0026,0.36,-0.02,-0.01,0.011,-0.071,0.088,-0.276
421,-0.0002,0.0016,0.0026,0.36,-0.05,-0.01,0.011,-0.282,0.112,-0.194
431,-0.0025,0.0015,0.0024,0.36,-0.03,-0.01,0.011,0.155,0.024,-0.369
441,0.0014,0.0051,0.0023,0.33,-0.07,-0.01,0.007,-0.164,0.096,-0.037
451,0.0040,-0.0034,0.0025,0.40,-0.09,-0.01,0.007,0.165,-0.085,-0.156
461,-0.0020,-0.0007,-0.0010,0.38,-0.03,-0.01,0.007,-0.152,0.109,0.161
470,-0.0031,0.0018,-0.0009,0.36,-0.02,-0.01,0.007,0.050,-0.241,-0.194
481,-0.0030,0.0006,-0.0008,0.37,-0.02,-0.02,0.007,0.125,-0.050,-0.090
490,0.0079,-0.0006,-0.0007,0.38,-0.12,-0.01,0.007,-0.147,0.104,0.116
500,0.0078,0.0043,-0.0006,0.34,-0.11,-0.01,0.007,-0.332,0.168,0.134
511,0.0075,0.0064,-0.0030,0.32,-0.11,-0.02,0.007,-0.317,0.119,0.005
521,0.0070,-0.0022,-0.0029,0.39,-0.10,-0.01,0.007,0.055,-0.031,-0.399
531,-0.0028,-0.0032,-0.0027,0.40,-0.02,-0.01,0.007,-0.085,0.200,-0.008
540,0.0055,0.0005,-0.0025,0.37,-0.09,-0.01,0.007,-0.263,-0.033,0.214
550,0.0018,0.0006,-0.0024,0.37,-0.06,-0.02,0.007,-0.057,-0.081,-0.238
560,-0.0043,-0.0005,-0.0036,0.38,-0.01,-0.02,0.007,-0.008,0.177,-0.074
571,-0.0041,0.0008,-0.0036,0.36,-0.01,-0.01,0.007,0.182,-0.048,0.226
580,-0.0004,0.0056,-0.0036,0.32,-0.04,-0.02,0.007,0.047,-0.126,-0.134
591,0.0056,0.0008,-0.0035,0.37,-0.09,-0.02,0.008,-0.366,0.049,0.096
601,-0.0043,0.0057,-0.0033,0.33,-0.01,-0.02,0.008,-0.127,-0.213,-0.394
611,-0.0005,0.0020,-0.0011,0.36,-0.04,-0.02,0.008,0.148,-0.010,0.006
620,-0.0029,0.0018,-0.0009,0.36,-0.02,-0.02,0.008,0.063,0.123,-0.326
631,-0.0038,0.0042,-0.0008,0.34,-0.01,-0.02,0.008,-0.229,-0.031,0.070
641,0.0001,0.0039,-0.0007,0.34,-0.04,-0.02,0.008,0.009,0.362,-0.020
650,0.0073,0.0003,-0.0007,0.37,-0.10,-0.02,0.008,0.125,0.164,-0.260
661,0.0046,0.0003,0.0004,0.37,-0.08,-0.02,0.008,-0.337,0.119,0.329
671,0.0007,0.0027,0.0004,0.35,-0.05,-0.02,0.008,-0.138,-0.232,0.354
680,0.0006,0.0028,0.0005,0.35,-0.05,-0.02,0.008,0.102,0.123,0.023
691,0.0054,0.0042,0.0006,0.34,-0.09,-0.02,0.006,-0.040,0.123,-0.141
700,0.0030,0.0007,0.0007,0.37,-0.06,-0.02,0.006,0.005,-0.066,0.095
712,0.0005,0.0064,-0.0035,0.32,-0.04,-0.02,0.006,-0.062,0.213,0.031
721,-0.0031,0.0024,-0.0033,0.36,-0.02,-0.02,0.006,-0.041,-0.233,-0.176
730,0.0019,0.0047,-0.0030,0.34,-0.06,-0.02,0.006,-0.048,0.255,-0.019
740,0.0005,0.0023,-0.0030,0.36,-0.05,-0.02,0.008,0.017,0.158,-0.336
751,0.0051,0.0058,-0.0029,0.33,-0.09,-0.02,0.008,-0.396,-0.067,0.196
761,0.0049,0.0061,-0.0003,0.33,-0.09,-0.02,0.008,-0.170,-0.111,0.308
770,-0.0004,0.0021,-0.0001,0.36,-0.04,-0.02,0.008,-0.118,-0.177,-0.166
781,-0.0055,0.0034,0.0001,0.35,0.00,-0.02,0.008,-0.213,0.198,0.097
791,0.0043,0.0033,0.0002,0.35,-0.08,-0.02,0.006,0.235,-0.182,-0.086
801,0.0041,0.0057,0.0002,0.33,-0.08,-0.02,0.006,-0.123,0.175,-0.155
810,0.0027,0.0009,-0.0029,0.38,-0.07,-0.02,0.006,0.024,-0.093,-0.052
820,-0.0012,0.0046,-0.0028,0.35,-0.04,-0.02,0.006,-0.327,-0.171,-0.257
831,-0.0023,0.0021,-0.0027,0.37,-0.03,-0.02,0.006,-0.013,0.029,-0.130
840,-0.0057,0.0045,-0.0029,0.35,0.00,-0.02,0.008,-0.012,-0.257,0.330
851,0.0052,-0.0003,-0.0028,0.39,-0.09,-0.02,0.008,-0.154,-0.066,-0.082
860,-0.0009,0.0046,0.0002,0.35,-0.04,-0.03,0.008,0.179,0.057,-0.084
870,-0.0044,0.0021,0.0002,0.37,-0.01,-0.02,0.008,-0.316,0.143,-0.006
880,0.0038,-0.0016,0.0005,0.40,-0.08,-0.02,0.008,-0.026,-0.209,0.054
891,-0.0046,-0.0015,0.0007,0.40,-0.01,-0.02,0.007,-0.171,0.082,0.019
901,0.0047,0.0057,0.0010,0.34,-0.08,-0.03,0.007,0.156,-0.311,-0.036
911,-0.0059,0.0021,0.0005,0.37,0.00,-0.03,0.007,0.023,-0.163,0.261
920,-0.0056,0.0031,0.0006,0.36,0.00,-0.03,0.007,-0.186,-0.040,0.036
930,-0.0058,0.0032,0.0009,0.36,0.00,-0.03,0.007,-0.087,-0.139,0.214
940,-0.0020,0.0007,0.0011,0.38,-0.03,-0.03,0.010,-0.130,-0.176,-0.236
950,-0.0009,-0.0017,0.0009,0.40,-0.04,-0.03,0.010,-0.053,-0.081,0.036
960,-0.0045,0.0007,0.0066,0.38,-0.01,-0.03,0.010,-0.172,0.126,-0.031
970,-0.0021,0.0007,0.0066,0.37,-0.03,-0.03,0.010,-0.202,0.095,-0.167
980,-0.0020,0.0044,0.0068,0.34,-0.03,-0.03,0.010,0.069,-0.146,-0.157
990,-0.0043,-0.0004,0.0069,0.38,-0.02,-0.03,0.008,-0.017,0.072,-0.257
1000,-0.0018,0.0054,0.0068,0.33,-0.04,-0.03,0.008,-0.039,-0.240,-0.117
1010,-0.0053,-0.0030,0.0052,0.40,-0.01,-0.03,0.008,0.188,-0.214,-0.080
1020,-0.0050,0.0031,0.0053,0.35,-0.01,-0.03,0.008,-0.097,0.100,-0.240
1031,-0.0037,-0.0052,0.0054,0.42,-0.02,-0.03,0.008,-0.269,-0.141,0.027
1040,-0.0013,-0.0002,0.0055,0.38,-0.04,-0.03,0.005,0.153,0.035,0.159
1050,0.0010,-0.0013,0.0056,0.39,-0.06,-0.03,0.005,-0.157,0.168,-0.060
1061,-0.0049,0.0061,-0.0019,0.33,-0.01,-0.03,0.005,-0.253,0.133,0.318
1070,-0.0047,0.0001,-0.0017,0.38,-0.02,-0.03,0.005,-0.290,0.233,0.093
1080,-0.0033,0.0048,-0.0018,0.34,-0.03,-0.03,0.005,0.008,-0.057,-0.170
1090,-0.0033,0.0048,-0.0016,0.34,-0.03,-0.03,0.009,-0.086,0.230,0.052
1100,0.0064,0.0022,-0.0013,0.35,-0.11,-0.03,0.009,-0.031,-0.220,-0.151
1111,-0.0042,0.0057,0.0033,0.33,-0.02,-0.03,0.009,0.115,-0.211,-0.114
1120,-0.0004,0.0043,0.0033,0.34,-0.05,-0.03,0.009,-0.232,-0.017,0.093
1130,0.0008,0.0041,0.0033,0.34,-0.06,-0.03,0.009,-0.142,0.226,0.096
1140,0.0019,0.0015,0.0035,0.36,-0.06,-0.03,0.012,-0.042,-0.135,-0.224
1151,0.0007,0.0048,0.0036,0.33,-0.05,-0.03,0.012,-0.042,-0.393,0.052
1160,0.0019,0.0045,0.0121,0.33,-0.06,-0.03,0.012,-0.100,-0.171,-0.115
1169,0.0053,0.0010,0.0121,0.36,-0.09,-0.04,0.012,-0.118,0.293,0.045
1181,-0.0029,-0.0024,0.0122,0.39,-0.02,-0.04,0.012,-0.041,0.094,0.164
1190,-0.0005,0.0001,0.0122,0.37,-0.04,-0.03,0.008,0.104,-0.128,-0.084
1200,0.0052,0.0015,0.0122,0.36,-0.09,-0.03,0.008,-0.080,0.129,-0.133
1210,-0.0041,0.0015,0.0067,0.36,-0.01,-0.03,0.008,0.030,-0.205,-0.046
1221,-0.0039,0.0048,0.0068,0.33,-0.01,-0.03,0.008,0.005,0.134,-0.209
1231,0.0030,0.0035,0.0069,0.34,-0.07,-0.04,0.008,0.224,0.177,-0.079
1240,-0.0003,0.0002,0.0070,0.37,-0.04,-0.04,0.010,-0.242,-0.161,-0.039
1250,-0.0037,-0.0019,0.0069,0.39,-0.01,-0.04,0.010,-0.061,-0.173,0.075
1260,-0.0036,0.0039,0.0074,0.34,-0.02,-0.04,0.010,-0.450,-0.128,0.153
1270,-0.0039,0.0040,0.0072,0.34,-0.02,-0.04,0.010,-0.126,-0.167,-0.344
1280,-0.0039,0.0016,0.0071,0.36,-0.02,-0.04,0.010,0.012,-0.253,-0.184
1290,0.0021,0.0016,0.0071,0.36,-0.07,-0.04,0.007,-0.183,-0.149,0.083
1300,0.0055,0.0038,0.0073,0.34,-0.09,-0.04,0.007,0.016,-0.109,0.050
1310,0.0055,0.0038,-0.0001,0.34,-0.09,-0.04,0.007,0.276,-0.046,-0.116
1320,0.0064,-0.0012,-0.0002,0.38,-0.10,-0.04,0.007,-0.035,-0.182,0.117
1330,-0.0000,0.0051,-0.0000,0.32,-0.04,-0.04,0.007,-0.218,0.059,-0.314
1340,-0.0003,-0.0032,0.0002,0.40,-0.04,-0.04,0.010,-0.104,-0.062,0.343
1350,-0.0004,-0.0005,0.0004,0.37,-0.04,-0.04,0.010,-0.154,-0.178,0.166
1360,0.0044,0.0009,0.0028,0.36,-0.08,-0.04,0.010,-0.092,0.197,-0.344
1370,0.0019,0.0010,0.0030,0.36,-0.06,-0.04,0.010,-0.335,0.018,0.208
1380,-0.0038,0.0010,0.0031,0.36,-0.01,-0.04,0.010,-0.219,0.300,0.245
1390,0.0011,-0.0002,0.0032,0.37,-0.05,-0.04,0.008,-0.267,-0.135,0.188
1399,0.0058,0.0033,0.0030,0.34,-0.09,-0.04,0.008,0.049,0.185,-0.169
1410,0.0056,0.0055,-0.0003,0.32,-0.09,-0.04,0.008,0.146,-0.261,-0.217
1420,0.0056,0.0056,-0.0001,0.32,-0.09,-0.04,0.008,-0.242,0.350,0.344
1430,0.0003,0.0020,-0.0000,0.35,-0.05,-0.04,0.008,-0.266,-0.124,-0.058
1440,-0.0061,-0.0004,-0.0001,0.37,0.01,-0.04,0.007,0.070,0.073,-0.195
1450,-0.0059,0.0033,0.0000,0.34,0.00,-0.04,0.007,-0.290,0.193,0.252
1460,0.0005,0.0080,-0.0037,0.30,-0.05,-0.04,0.007,0.103,-0.257,-0.122
1470,-0.0055,-0.0018,-0.0033,0.38,-0.00,-0.04,0.007,0.115,0.223,-0.216
1480,-0.0053,0.0034,-0.0031,0.34,-0.00,-0.04,0.007,-0.143,-0.013,-0.009
0,0.0047,-0.0003,-0.0027,0.37,-0.08,-0.04,0.007,0.026,0.102,0.041
9,0.0058,0.0036,-0.0027,0.35,-0.09,-0.04,0.007,-0.310,-0.068,-0.146
18,0.0060,0.0038,-0.0048,0.34,-0.08,-0.04,0.007,-0.405,-0.394,0.071
29,-0.0057,0.0026,-0.0045,0.36,0.01,-0.04,0.007,0.118,1.286,0.058
38,-0.0057,0.0027,-0.0042,0.35,0.01,-0.04,0.007,0.954,2.023,-1.688
48,0.0053,0.0024,-0.0037,0.35,-0.08,-0.04,0.006,-0.161,1.508,-0.642
58,0.0051,0.0027,-0.0036,0.34,-0.08,-0.04,0.006,-0.646,2.010,-0.132
68,0.0013,0.0018,-0.0064,0.35,-0.05,-0.04,0.006,-0.847,0.914,-0.836
78,-0.0050,0.0063,-0.0057,0.30,-0.01,-0.04,0.006,-0.968,1.494,-1.330
89,0.0057,0.0004,-0.0056,0.35,-0.11,-0.04,0.006,-0.778,2.023,-2.685
99,-0.0040,-0.0060,-0.0057,0.39,-0.04,-0.04,0.008,-3.051,0.601,-4.822
109,-0.0035,-0.0037,-0.0052,0.35,-0.06,-0.06,0.008,-1.360,2.226,-9.257
119,0.0089,0.0010,-0.0024,0.30,-0.18,-0.08,0.008,-1.315,0.753,-9.737
129,0.0078,-0.0006,-0.0017,0.28,-0.18,-0.14,0.008,0.818,1.538,-10.297
138,0.0076,-0.0091,-0.0011,0.34,-0.21,-0.24,0.008,-1.801,-1.707,-10.734
149,0.0077,-0.0082,-0.0006,0.31,-0.22,-0.34,0.008,2.181,-2.924,-10.155
160,0.0074,-0.0092,-0.0023,0.33,-0.23,-0.44,0.008,1.091,5.590,-9.143
169,0.0186,-0.0247,-0.0013,0.43,-0.30,-0.55,0.008,-3.207,-4.602,-8.541
179,0.0162,-0.0322,0.0012,0.51,-0.27,-0.65,0.008,-6.880,-25.528,-6.750
188,0.0138,-0.0554,0.0035,0.69,-0.29,-0.74,0.008,-9.853,-31.782,-6.830
199,0.0109,-0.0654,0.0078,0.72,-0.15,-0.82,0.007,-18.759,-33.904,-6.558
208,0.0232,-0.0783,0.0131,0.74,0.05,-0.89,0.007,-24.154,-47.732,-4.651
218,0.0229,-0.0883,0.0221,0.68,0.36,-0.96,0.007,-47.799,-46.584,-4.452
228,0.0225,-0.1132,0.0328,0.66,0.75,-1.03,0.007,-74.719,-30.678,-2.931
238,0.0151,-0.1148,0.0479,0.35,1.29,-1.08,0.007,-87.558,-19.142,1.181
248,-0.0023,-0.1480,0.0540,0.03,1.82,-1.12,0.008,-94.789,-14.026,2.046
258,-0.0126,-0.1604,0.0639,-0.66,2.12,-1.14,0.008,-81.502,-21.909,2.226
268,-0.0185,-0.2041,0.0759,-1.21,2.30,-1.14,0.008,-58.810,-19.532,2.539
278,-0.0247,-0.2115,0.0915,-2.03,2.48,-1.12,0.008,-48.254,-23.413,0.497
288,-0.0377,-0.2241,0.1080,-2.65,2.75,-1.11,0.008,-51.993,-27.697,1.968
298,-0.0393,-0.2130,0.1318,-3.22,2.92,-1.07,0.000,-46.916,-23.095,-0.263
308,-0.0547,-0.2133,0.1479,-3.70,3.26,-1.06,0.000,-37.509,-15.069,1.353
318,-0.0590,-0.1939,0.1472,-4.30,3.51,-1.02,0.000,-33.121,-11.021,1.086
328,-0.0586,-0.1661,0.1706,-4.88,3.66,-0.97,0.000,-23.194,1.257,1.350
338,-0.0556,-0.1323,0.1927,-5.43,3.71,-0.89,0.000,-19.580,19.750,0.102
348,-0.0712,-0.0969,0.2091,-5.92,3.84,-0.84,0.006,-14.715,36.496,-1.484
359,-0.0563,-0.0880,0.2294,-6.11,3.58,-0.81,0.006,-7.736,45.206,-1.763
369,-0.0618,-0.0734,0.2207,-6.30,3.31,-0.85,0.006,-1.018,48.152,-0.605
378,-0.0661,-0.0549,0.2354,-6.47,2.89,-0.89,0.006,3.022,48.035,0.425
389,-0.0615,-0.0331,0.2492,-6.60,2.35,-0.92,0.006,10.038,46.554,0.602
398,-0.0366,-0.0183,0.2622,-6.62,1.65,-0.90,0.026,13.371,43.814,0.835
408,-0.0334,-0.0356,0.2753,-6.33,1.13,-0.99,0.026,18.123,34.267,1.381
418,-0.0356,-0.0103,0.2797,-6.32,0.68,-1.02,0.026,29.157,23.680,2.597
429,-0.0605,0.0121,0.2889,-6.25,0.46,-1.10,0.026,29.819,14.557,3.379
438,-0.0588,0.0210,0.2970,-6.01,0.14,-1.12,0.026,29.407,11.966,3.731
449,-0.0368,0.0159,0.3058,-5.59,-0.23,-1.06,0.053,31.677,6.833,2.280
458,-0.0339,0.0231,0.3121,-5.26,-0.39,-1.04,0.053,34.158,7.550,2.681
469,-0.0134,0.0318,0.3460,-4.96,-0.64,-0.94,0.053,39.507,4.446,3.702
479,-0.0151,0.0438,0.3500,-4.64,-0.69,-0.93,0.053,45.390,3.860,2.732
488,-0.0230,0.0588,0.3527,-4.34,-0.69,-0.93,0.053,50.718,-3.683,2.209
498,-0.0217,0.0664,0.3553,-3.92,-0.73,-0.91,0.068,48.319,-5.814,2.995
508,-0.0231,0.0772,0.3574,-3.47,-0.74,-0.89,0.068,42.903,-10.342,3.641
518,-0.0221,0.0890,0.3714,-3.02,-0.69,-0.86,0.068,39.347,-10.528,4.621
529,-0.0243,0.1146,0.3714,-2.70,-0.59,-0.83,0.068,36.455,-9.370,4.558
539,-0.0241,0.1291,0.3716,-2.35,-0.48,-0.78,0.068,30.908,-7.284,3.206
548,-0.0311,0.1239,0.3741,-1.90,-0.32,-0.77,0.094,27.039,-2.682,1.711
558,-0.0299,0.1552,0.3699,-1.77,-0.24,-0.71,0.094,23.980,-0.240,0.354
569,-0.0346,0.1606,0.3962,-1.49,-0.15,-0.70,0.094,26.132,1.471,0.768
579,-0.0332,0.1708,0.3942,-1.29,-0.15,-0.68,0.094,31.708,1.379,0.577
588,-0.0309,0.1682,0.3943,-1.01,-0.16,-0.67,0.094,39.124,1.407,0.261
599,-0.0308,0.1761,0.3910,-0.77,-0.18,-0.66,0.113,43.827,3.578,1.315
609,-0.0354,0.1761,0.3890,-0.42,-0.16,-0.67,0.113,52.504,5.286,1.044
618,-0.0365,0.1881,0.3999,-0.08,-0.17,-0.67,0.113,55.023,9.222,1.273
629,-0.0352,0.1840,0.3972,0.43,-0.22,-0.65,0.113,56.642,8.782,1.631
639,-0.0346,0.1782,0.3935,1.01,-0.29,-0.64,0.113,60.624,11.231,2.011
648,-0.0358,0.1826,0.3879,1.52,-0.36,-0.62,0.128,57.238,11.093,2.326
658,-0.0339,0.1768,0.3838,2.12,-0.47,-0.60,0.128,56.695,13.647,2.958
668,-0.0386,0.1813,0.3760,2.65,-0.53,-0.59,0.128,56.101,13.080,2.808
678,-0.0391,0.1735,0.3699,3.25,-0.65,-0.55,0.128,54.559,13.958,2.571
688,-0.0394,0.1729,0.3629,3.78,-0.77,-0.52,0.128,51.912,12.712,2.311
699,-0.0357,0.1620,0.3567,4.37,-0.91,-0.48,0.152,44.206,12.478,2.382
708,-0.0366,0.1613,0.3499,4.85,-1.02,-0.45,0.152,39.573,11.228,2.209
719,-0.0293,0.1542,0.3550,5.34,-1.19,-0.41,0.152,34.295,10.802,2.160
728,-0.0218,0.1504,0.3481,5.73,-1.35,-0.38,0.152,28.044,8.219,1.780
739,-0.0180,0.1392,0.3407,6.13,-1.47,-0.34,0.152,22.700,6.607,1.630
748,-0.0191,0.1313,0.3327,6.41,-1.54,-0.31,0.175,17.812,3.069,1.817
759,-0.0155,0.1216,0.3247,6.67,-1.62,-0.28,0.175,12.707,1.680,1.498
768,-0.0156,0.1151,0.3361,6.87,-1.66,-0.26,0.175,14.103,-1.767,1.447
779,-0.0142,0.1005,0.3290,7.05,-1.68,-0.23,0.175,7.599,-2.208,1.414
789,-0.0112,0.0895,0.3220,7.20,-1.67,-0.22,0.175,2.287,-3.989,1.443
799,-0.0084,0.0775,0.3145,7.31,-1.65,-0.21,0.179,0.982,-6.996,0.910
807,-0.0057,0.0689,0.3063,7.34,-1.62,-0.20,0.179,-1.036,-6.726,0.172
819,-0.0074,0.0576,0.2817,7.36,-1.53,-0.19,0.179,-3.075,-6.380,-0.448
829,-0.0023,0.0460,0.2735,7.36,-1.49,-0.19,0.179,-5.125,-6.025,0.086
839,-0.0004,0.0358,0.2655,7.33,-1.42,-0.21,0.179,-8.300,-4.976,0.063
849,0.0034,0.0232,0.2577,7.30,-1.37,-0.22,0.193,-11.373,-3.015,0.038
859,0.0051,0.0123,0.2498,7.24,-1.31,-0.23,0.193,-18.135,-2.565,0.525
869,0.0098,0.0023,0.2333,7.13,-1.29,-0.24,0.193,-22.653,-2.100,0.642
878,0.0062,-0.0110,0.2249,7.01,-1.22,-0.22,0.193,-27.022,-1.366,0.938
889,0.0089,-0.0212,0.2165,6.81,-1.20,-0.22,0.193,-29.780,-1.769,0.804
898,0.0115,-0.0295,0.2082,6.55,-1.19,-0.23,0.201,-28.732,-2.194,0.211
909,0.0139,-0.0400,0.2004,6.27,-1.17,-0.22,0.201,-29.349,-3.155,-0.037
919,0.0172,-0.0523,0.1809,6.00,-1.16,-0.22,0.201,-32.695,-3.816,0.704
929,0.0141,-0.0591,0.1738,5.69,-1.10,-0.21,0.201,-36.527,-4.997,0.774
938,0.0184,-0.0661,0.1667,5.35,-1.08,-0.22,0.201,-36.049,-5.679,0.797
950,0.0184,-0.0661,0.1667,5.35,-1.08,-0.22,0.205,-38.040,-6.496,0.955
957,0.0181,-0.0699,0.1595,4.99,-1.02,-0.21,0.205,-39.444,-7.210,0.269
968,0.0206,-0.0825,0.1345,4.69,-0.98,-0.21,0.205,-40.261,-7.309,0.772
978,0.0210,-0.0889,0.1274,4.31,-0.91,-0.20,0.205,-40.356,-8.112,0.562
988,0.0212,-0.0966,0.1210,3.93,-0.83,-0.20,0.205,-40.654,-8.657,1.189
997,0.0224,-0.1012,0.1149,3.52,-0.76,-0.20,0.206,-40.693,-10.718,0.999
1009,0.0280,-0.1051,0.1089,3.10,-0.71,-0.22,0.206,-37.304,-8.753,0.710
1018,0.0311,-0.1128,0.0764,2.29,-0.55,-0.21,0.206,-39.681,-10.842,0.825
1029,0.0311,-0.1128,0.0764,2.29,-0.55,-0.21,0.206,-36.891,-7.848,0.777
1037,0.0279,-0.1213,0.0668,1.54,-0.32,-0.18,0.206,-34.446,-7.138,0.920
1047,0.0279,-0.1213,0.0668,1.54,-0.32,-0.18,0.210,-32.910,-8.012,0.571
1057,0.0258,-0.1262,0.0577,0.79,-0.12,-0.15,0.210,-32.730,-7.509,0.878
1068,0.0256,-0.1253,0.0469,0.79,-0.12,-0.15,0.210,-31.131,-9.055,0.337
1077,0.0288,-0.1222,0.0393,0.08,0.02,-0.15,0.210,-31.204,-8.336,0.515
1087,0.0288,-0.1222,0.0393,0.08,0.02,-0.15,0.210,-29.135,-7.793,0.627
1097,0.0283,-0.1231,0.0361,-0.23,0.10,-0.15,0.215,-31.185,-7.032,0.644
1108,0.0302,-0.1210,0.0329,-0.56,0.17,-0.15,0.215,-26.115,-9.378,0.750
1117,0.0275,-0.1169,0.0287,-1.15,0.33,-0.13,0.215,-26.706,-7.134,0.504
1128,0.0275,-0.1169,0.0287,-1.15,0.33,-0.13,0.215,-27.326,-8.335,0.213
1138,0.0267,-0.1118,0.0249,-1.71,0.49,-0.12,0.215,-22.641,-4.647,0.530
1148,0.0267,-0.1118,0.0249,-1.71,0.49,-0.12,0.216,-18.606,-5.804,0.052
1157,0.0283,-0.1042,0.0223,-2.25,0.61,-0.11,0.216,-17.069,-5.384,-0.109
1167,0.0283,-0.1042,0.0219,-2.25,0.61,-0.11,0.216,-15.158,-5.707,-0.304
1177,0.0248,-0.0982,0.0197,-2.63,0.72,-0.10,0.216,-12.358,-4.344,-0.970
1188,0.0248,-0.0982,0.0197,-2.63,0.72,-0.10,0.216,-11.792,-3.057,-0.456
1197,0.0260,-0.0926,0.0191,-2.81,0.77,-0.10,0.217,-12.774,-3.294,0.846
1207,0.0247,-0.0878,0.0190,-2.95,0.81,-0.11,0.217,-8.278,-2.286,-0.386
1218,0.0238,-0.0843,0.0185,-3.06,0.85,-0.11,0.217,-6.857,-1.953,-0.317
1227,0.0224,-0.0791,0.0182,-3.18,0.88,-0.10,0.217,-7.301,-1.745,-0.106
1237,0.0218,-0.0716,0.0183,-3.30,0.90,-0.11,0.217,-2.837,-2.389,-1.025
1247,0.0203,-0.0659,0.0184,-3.37,0.92,-0.11,0.227,-3.079,-2.040,0.043
1258,0.0210,-0.0581,0.0183,-3.46,0.93,-0.11,0.227,1.146,-1.915,-0.374
1267,0.0195,-0.0524,0.0378,-3.50,0.95,-0.12,0.227,3.580,-1.985,-1.635
1278,0.0198,-0.0460,0.0377,-3.55,0.96,-0.12,0.227,2.128,-0.443,-0.144
1288,0.0165,-0.0338,0.0381,-3.53,1.00,-0.13,0.227,6.086,-1.088,-0.766
1298,0.0148,-0.0277,0.0390,-3.50,1.01,-0.13,0.220,4.729,-1.074,-0.436
1307,0.0148,-0.0277,0.0390,-3.50,1.01,-0.13,0.220,9.885,-0.256,-0.889
1317,0.0132,-0.0172,0.0318,-3.40,1.01,-0.14,0.220,11.349,-0.016,-1.583
1327,0.0132,-0.0172,0.0318,-3.40,1.01,-0.14,0.220,14.090,0.979,-0.904
1338,0.0120,-0.0033,0.0321,-3.22,1.01,-0.16,0.220,16.939,1.720,-1.356
1347,0.0120,-0.0033,0.0321,-3.22,1.01,-0.16,0.225,15.891,2.485,-0.557
1358,0.0083,0.0036,0.0321,-2.93,1.00,-0.18,0.225,17.554,3.799,-0.553
1368,0.0083,0.0036,0.0349,-2.93,1.00,-0.18,0.225,18.104,3.292,-0.713
1378,0.0081,0.0160,0.0351,-2.60,0.92,-0.20,0.225,20.291,3.265,-0.744
1388,0.0083,0.0148,0.0351,-2.60,0.92,-0.20,0.225,15.502,1.598,-1.193
1397,0.0069,0.0217,0.0354,-2.22,0.85,-0.22,0.227,16.978,2.507,-0.901
1407,0.0069,0.0217,0.0354,-2.22,0.85,-0.22,0.227,17.329,2.255,-1.243
1418,0.0054,0.0273,0.0373,-2.05,0.82,-0.23,0.227,12.879,0.590,-1.453
1428,0.0027,0.0365,0.0370,-1.93,0.81,-0.23,0.227,17.336,1.695,-1.040
1438,0.0014,0.0400,0.0368,-1.74,0.79,-0.25,0.227,19.411,1.726,-1.077
1447,0.0002,0.0439,0.0366,-1.60,0.77,-0.26,0.228,16.989,0.825,-2.088
1458,0.0006,0.0444,0.0364,-1.43,0.74,-0.27,0.228,23.007,2.537,-2.284
1468,-0.0020,0.0491,0.0355,-1.25,0.73,-0.28,0.228,23.367,3.039,-2.546
1478,-0.0028,0.0497,0.0352,-1.07,0.72,-0.30,0.228,23.458,4.397,-1.621
1487,-0.0035,0.0544,0.0349,-0.88,0.70,-0.32,0.228,22.114,4.832,-1.786
1498,-0.0041,0.0543,0.0348,-0.63,0.66,-0.35,0.233,23.028,4.698,-2.415
1508,-0.0044,0.0568,0.0348,-0.41,0.63,-0.37,0.233,19.216,5.234,-1.529
1517,-0.0048,0.0560,0.0417,-0.19,0.58,-0.39,0.233,21.157,4.959,-1.721
1528,-0.0035,0.0595,0.0415,0.03,0.52,-0.41,0.233,21.412,4.949,-1.926
1537,-0.0051,0.0580,0.0412,0.25,0.47,-0.43,0.233,19.392,5.140,-1.278
1547,-0.0052,0.0590,0.0406,0.44,0.41,-0.44,0.235,17.127,5.204,-0.792
1557,-0.0059,0.0582,0.0400,0.66,0.36,-0.46,0.235,17.706,3.610,-0.874
1567,-0.0071,0.0592,0.0432,0.85,0.32,-0.48,0.235,18.986,3.092,-1.916
1577,-0.0070,0.0583,0.0425,1.02,0.27,-0.49,0.235,16.840,2.983,-1.288
1587,-0.0054,0.0583,0.0419,1.19,0.21,-0.49,0.235,14.517,3.144,-0.499
1597,-0.0067,0.0554,0.0412,1.38,0.18,-0.51,0.239,15.190,2.109,-1.164
1607,-0.0079,0.0512,0.0405,1.56,0.16,-0.52,0.239,12.791,2.252,-0.425
1617,-0.0077,0.0482,0.0460,1.71,0.13,-0.53,0.239,12.563,1.670,-0.984
1627,-0.0075,0.0452,0.0453,1.86,0.11,-0.54,0.239,11.676,2.152,-0.623
1637,-0.0072,0.0419,0.0446,2.01,0.08,-0.54,0.239,8.999,2.179,-0.564
1648,-0.0055,0.0387,0.0437,2.14,0.05,-0.55,0.243,9.199,2.822,-0.928
1657,-0.0056,0.0351,0.0426,2.25,0.03,-0.55,0.243,5.780,2.291,-0.455
1667,-0.0052,0.0321,0.0493,2.35,0.01,-0.56,0.243,5.031,2.195,-0.427
1677,-0.0048,0.0280,0.0483,2.45,-0.01,-0.57,0.243,3.132,2.883,-0.081
1687,-0.0089,0.0225,0.0473,2.53,-0.01,-0.57,0.243,2.814,1.742,-0.424
1697,-0.0053,0.0172,0.0460,2.59,-0.06,-0.58,0.243,0.359,1.703,-0.297
1707,-0.0053,0.0128,0.0451,2.63,-0.08,-0.58,0.243,-2.912,1.461,0.286
1717,-0.0048,0.0091,0.0432,2.66,-0.10,-0.59,0.243,-4.242,0.203,0.365
1727,-0.0047,0.0046,0.0419,2.66,-0.12,-0.59,0.243,-4.229,-0.294,0.539
1737,-0.0044,-0.0010,0.0407,2.65,-0.14,-0.59,0.243,-5.006,0.839,1.056
1748,-0.0042,-0.0055,0.0395,2.63,-0.16,-0.58,0.243,-6.276,0.119,0.994
1757,-0.0037,-0.0122,0.0382,2.61,-0.17,-0.58,0.243,-7.155,0.124,1.281
1767,-0.0035,-0.0165,0.0320,2.55,-0.18,-0.57,0.243,-9.737,-0.601,1.712
1777,-0.0031,-0.0225,0.0307,2.50,-0.18,-0.56,0.243,-9.591,-0.530,1.283
1787,-0.0028,-0.0268,0.0295,2.42,-0.17,-0.54,0.243,-10.149,0.409,2.073
1797,-0.0009,-0.0320,0.0282,2.34,-0.18,-0.52,0.244,-11.977,-0.622,2.025
1807,-0.0007,-0.0369,0.0270,2.26,-0.18,-0.51,0.244,-13.801,-0.140,2.343
1817,-0.0020,-0.0381,0.0218,2.14,-0.17,-0.49,0.244,-14.109,-0.316,2.420
1827,-0.0002,-0.0470,0.0205,2.05,-0.17,-0.47,0.244,-15.867,-1.041,2.518
1837,-0.0015,-0.0471,0.0193,1.89,-0.16,-0.45,0.244,-16.427,-0.605,3.043
1848,-0.0013,-0.0534,0.0182,1.77,-0.16,-0.43,0.241,-16.673,-1.077,2.973
1858,-0.0028,-0.0566,0.0174,1.62,-0.14,-0.40,0.241,-17.026,0.068,3.537
1868,-0.0043,-0.0597,0.0051,1.47,-0.12,-0.37,0.241,-18.038,0.627,3.410
1877,-0.0039,-0.0612,0.0042,1.28,-0.11,-0.34,0.241,-19.253,-0.266,3.413
1887,-0.0036,-0.0668,0.0035,1.14,-0.11,-0.31,0.241,-17.643,1.063,3.714
1897,-0.0017,-0.0673,0.0024,0.95,-0.12,-0.27,0.240,-18.283,0.486,3.351
1907,-0.0013,-0.0708,0.0014,0.77,-0.12,-0.24,0.240,-21.542,0.500,3.868
1918,-0.0025,-0.0703,-0.0081,0.58,-0.12,-0.21,0.240,-17.130,2.463,4.153
1927,0.0041,-0.0726,-0.0087,0.41,-0.17,-0.18,0.240,-19.097,-0.171,3.978
1938,0.0014,-0.0750,-0.0092,0.22,-0.16,-0.14,0.240,-14.054,0.921,4.039
1947,-0.0015,-0.0767,-0.0095,0.05,-0.16,-0.10,0.238,-14.810,0.186,4.746
1956,0.0020,-0.0758,-0.0098,-0.15,-0.19,-0.06,0.238,-17.936,-2.938,4.995
1968,0.0022,-0.0757,-0.0185,-0.30,-0.20,-0.01,0.238,-19.236,-4.524,4.416
1977,0.0005,-0.0752,-0.0188,-0.45,-0.20,0.04,0.238,-13.909,-0.953,5.919
1987,0.0003,-0.0789,-0.0189,-0.61,-0.17,0.09,0.238,-17.956,-0.413,5.855
1997,-0.0011,-0.0752,-0.0186,-0.81,-0.12,0.13,0.237,-16.232,-1.927,4.517
2007,-0.0009,-0.0753,-0.0185,-0.96,-0.11,0.19,0.237,-15.367,0.079,4.857
2017,-0.0010,-0.0738,-0.0233,-1.12,-0.09,0.24,0.237,-13.168,-1.847,5.327
2027,-0.0008,-0.0738,-0.0225,-1.28,-0.08,0.29,0.237,-12.998,-1.588,5.044
2037,0.0038,-0.0692,-0.0219,-1.44,-0.10,0.34,0.237,-11.755,-0.065,4.855
2047,-0.0041,-0.0676,-0.0217,-1.57,-0.03,0.39,0.236,-10.266,0.484,5.023
2057,-0.0070,-0.0676,-0.0214,-1.68,-0.01,0.43,0.236,-9.635,0.863,4.450
2067,-0.0070,-0.0647,-0.0234,-1.80,-0.01,0.48,0.236,-9.366,1.219,4.862
2076,-0.0018,-0.0627,-0.0224,-1.92,-0.05,0.53,0.236,-6.069,0.680,3.931
2086,-0.0016,-0.0578,-0.0217,-2.03,-0.05,0.57,0.236,-4.907,1.123,3.737
2097,-0.0013,-0.0565,-0.0207,-2.11,-0.07,0.62,0.235,-2.899,2.193,3.090
2106,-0.0010,-0.0537,-0.0197,-2.18,-0.07,0.66,0.235,-4.633,3.079,3.663
2117,-0.0006,-0.0511,-0.0200,-2.22,-0.09,0.69,0.235,-3.719,2.443,3.443
2127,-0.0005,-0.0473,-0.0189,-2.27,-0.11,0.73,0.235,-2.275,3.004,3.643
2137,0.0016,-0.0430,-0.0178,-2.32,-0.15,0.76,0.235,-3.436,2.438,3.887
2146,0.0018,-0.0390,-0.0164,-2.36,-0.18,0.80,0.237,-3.609,1.593,5.042
2157,0.0021,-0.0349,-0.0150,-2.39,-0.21,0.83,0.237,-1.816,0.164,3.288
2167,0.0025,-0.0308,-0.0089,-2.44,-0.23,0.87,0.237,-2.099,-0.837,4.118
2176,0.0011,-0.0288,-0.0077,-2.45,-0.23,0.92,0.237,0.879,-1.479,2.670
2187,-0.0004,-0.0235,-0.0067,-2.48,-0.23,0.95,0.237,-0.237,-1.884,3.494
2197,-0.0001,-0.0192,-0.0054,-2.50,-0.22,0.99,0.238,3.215,-1.848,3.054
2207,0.0002,-0.0148,-0.0041,-2.51,-0.21,1.02,0.238,3.902,-2.152,3.220
2217,0.0005,-0.0103,0.0038,-2.50,-0.19,1.05,0.238,5.225,-2.657,3.064
2228,0.0040,-0.0045,0.0050,-2.48,-0.18,1.08,0.238,6.177,-2.626,3.213
2237,0.0073,-0.0010,0.0060,-2.45,-0.18,1.12,0.238,9.087,-2.322,3.031
2247,0.0034,0.0021,0.0071,-2.40,-0.13,1.15,0.238,10.431,-1.667,2.139
2257,0.0035,0.0063,0.0082,-2.34,-0.10,1.18,0.238,12.186,-0.957,2.304
2267,0.0062,0.0105,0.0122,-2.25,-0.10,1.22,0.238,11.066,-1.652,2.084
2277,0.0063,0.0144,0.0133,-2.15,-0.09,1.24,0.238,12.967,-0.589,2.225
2287,0.0078,0.0159,0.0145,-2.03,-0.08,1.26,0.238,11.864,0.073,2.314
2298,0.0070,0.0215,0.0154,-1.94,-0.06,1.28,0.239,11.518,-1.430,1.820
2308,0.0101,0.0258,0.0161,-1.82,-0.07,1.31,0.239,13.616,-1.540,1.328
2317,0.0096,0.0298,0.0191,-1.70,-0.07,1.33,0.239,12.003,-2.344,1.323
2328,0.0174,0.0333,0.0198,-1.59,-0.10,1.36,0.239,13.118,-1.357,1.812
2337,0.0149,0.0363,0.0203,-1.46,-0.08,1.37,0.239,14.117,-1.583,1.520
2348,0.0143,0.0391,0.0207,-1.33,-0.06,1.38,0.240,12.050,-2.814,2.157
2357,0.0086,0.0445,0.0209,-1.22,-0.01,1.39,0.240,12.466,-3.693,1.769
2367,0.0143,0.0468,0.0227,-1.09,-0.03,1.41,0.240,14.667,-4.101,1.292
2377,0.0133,0.0470,0.0231,-0.96,0.00,1.43,0.240,12.610,-4.124,1.064
2386,0.0122,0.0515,0.0230,-0.85,0.04,1.45,0.240,14.731,-5.139,1.139
2397,0.0121,0.0530,0.0231,-0.71,0.08,1.46,0.237,14.757,-5.403,0.129
2406,0.0107,0.0569,0.0233,-0.60,0.13,1.47,0.237,14.031,-5.039,0.682
2416,0.0159,0.0572,0.0151,-0.45,0.15,1.49,0.237,16.020,-5.261,0.095
2426,0.0144,0.0557,0.0151,-0.28,0.20,1.49,0.237,14.367,-4.354,-0.460
2437,0.0144,0.0571,0.0150,-0.13,0.26,1.50,0.237,15.951,-3.392,-0.123
2446,0.0080,0.0565,0.0149,0.03,0.35,1.49,0.238,14.138,-4.657,-0.380
2457,0.0099,0.0574,0.0149,0.17,0.38,1.49,0.238,14.424,-2.715,-0.533
2466,0.0083,0.0548,0.0108,0.34,0.43,1.49,0.238,15.324,-2.928,-0.720
2477,0.0069,0.0569,0.0106,0.47,0.47,1.48,0.238,11.048,-3.057,-0.335
2487,0.0149,0.0557,0.0103,0.62,0.45,1.49,0.238,11.829,-1.543,-0.304
2496,0.0117,0.0561,0.0103,0.76,0.50,1.48,0.245,10.835,-1.945,-0.604
2506,0.0103,0.0530,0.0103,0.89,0.53,1.47,0.245,7.798,-0.408,-0.383
2517,0.0087,0.0532,0.0218,1.01,0.55,1.47,0.245,10.693,-0.610,-0.553
2527,0.0078,0.0514,0.0214,1.12,0.57,1.46,0.245,9.518,-2.277,-0.794
2536,0.0065,0.0496,0.0213,1.21,0.58,1.46,0.245,7.453,0.817,-1.012
2546,0.0098,0.0496,0.0215,1.29,0.56,1.46,0.245,6.623,-0.536,-0.428
2557,0.0056,0.0448,0.0214,1.40,0.60,1.45,0.245,6.474,-0.708,-1.063
2566,0.0044,0.0418,0.0255,1.48,0.60,1.44,0.245,5.888,1.690,-1.498
2576,0.0034,0.0392,0.0252,1.55,0.60,1.43,0.245,7.313,-0.163,-1.586
2587,0.0009,0.0378,0.0249,1.61,0.61,1.42,0.245,5.302,-1.294,-1.665
2596,-0.0065,0.0327,0.0248,1.69,0.64,1.40,0.245,3.979,2.395,-1.210
2607,0.0004,0.0329,0.0245,1.75,0.59,1.39,0.245,4.970,0.278,-2.033
2616,-0.0002,0.0300,0.0235,1.81,0.59,1.38,0.245,5.217,1.877,-2.507
2627,0.0005,0.0269,0.0233,1.85,0.56,1.36,0.245,1.477,3.343,-2.234
2637,-0.0004,0.0238,0.0228,1.89,0.55,1.34,0.245,-0.440,5.256,-2.284
2647,-0.0008,0.0213,0.0222,1.93,0.54,1.32,0.248,-2.765,3.119,-3.152
2657,-0.0017,0.0180,0.0214,1.95,0.51,1.29,0.248,-0.929,6.013,-3.046
2667,-0.0036,0.0145,0.0250,1.94,0.46,1.27,0.248,-4.942,3.396,-3.562
2676,-0.0043,0.0112,0.0244,1.93,0.42,1.24,0.248,-2.747,4.438,-3.213
2688,-0.0050,0.0079,0.0239,1.92,0.37,1.21,0.248,-1.653,4.098,-2.981
2696,-0.0056,0.0046,0.0234,1.88,0.34,1.18,0.247,-4.391,3.071,-3.144
2707,-0.0052,-0.0001,0.0229,1.86,0.29,1.15,0.247,-3.872,2.429,-3.600
2716,-0.0048,-0.0066,0.0194,1.87,0.25,1.12,0.247,-4.716,3.695,-3.307
2726,-0.0051,-0.0097,0.0187,1.82,0.23,1.09,0.247,-10.356,-0.156,-3.406
2737,-0.0102,-0.0156,0.0180,1.80,0.23,1.05,0.247,-10.375,1.059,-3.443
2747,-0.0084,-0.0200,0.0172,1.75,0.19,1.02,0.245,-10.663,1.697,-3.631
2758,-0.0100,-0.0207,0.0166,1.63,0.19,0.98,0.245,-12.455,2.059,-4.255
2767,-0.0114,-0.0228,0.0087,1.52,0.18,0.95,0.245,-12.750,3.609,-3.604
2777,-0.0127,-0.0279,0.0080,1.43,0.18,0.91,0.245,-9.717,5.578,-3.791
2787,-0.0120,-0.0310,0.0075,1.31,0.16,0.87,0.245,-10.430,5.210,-4.088
2797,-0.0110,-0.0324,0.0070,1.18,0.12,0.83,0.243,-12.287,5.357,-3.879
2807,-0.0134,-0.0369,0.0065,1.10,0.09,0.80,0.243,-15.046,3.050,-3.694
2817,-0.0123,-0.0390,-0.0042,1.00,0.03,0.76,0.243,-11.124,4.089,-3.541
2827,-0.0115,-0.0422,-0.0046,0.89,-0.02,0.72,0.243,-14.088,4.626,-3.509
2836,-0.0088,-0.0423,-0.0051,0.73,-0.07,0.68,0.243,-16.073,3.078,-4.195
2846,-0.0128,-0.0453,-0.0053,0.62,-0.09,0.64,0.240,-16.018,4.218,-3.952
2857,-0.0126,-0.0463,-0.0054,0.47,-0.14,0.61,0.240,-15.390,3.315,-4.485
2866,-0.0095,-0.0533,-0.0167,0.35,-0.18,0.56,0.240,-18.868,1.988,-5.003
2876,-0.0067,-0.0516,-0.0162,0.18,-0.23,0.52,0.240,-16.785,2.817,-4.037
2886,-0.0057,-0.0525,-0.0156,0.03,-0.26,0.47,0.240,-18.112,1.222,-3.916
2896,-0.0047,-0.0518,-0.0152,-0.16,-0.29,0.42,0.243,-10.639,1.866,-4.207
2906,-0.0042,-0.0515,-0.0146,-0.33,-0.32,0.38,0.243,-11.107,1.139,-5.288
2916,-0.0049,-0.0581,-0.0122,-0.46,-0.33,0.34,0.243,-11.948,-0.306,-5.382
2926,-0.0044,-0.0573,-0.0114,-0.57,-0.34,0.29,0.243,-16.056,-1.185,-4.424
2936,-0.0037,-0.0596,-0.0108,-0.66,-0.36,0.24,0.243,-15.131,-1.448,-5.073
2946,-0.0031,-0.0593,-0.0102,-0.79,-0.35,0.19,0.242,-11.495,-2.295,-4.434
2956,-0.0025,-0.0580,-0.0095,-0.95,-0.33,0.14,0.242,-17.765,-2.631,-3.554
2966,-0.0022,-0.0580,-0.0088,-1.08,-0.31,0.10,0.242,-15.442,-1.377,-3.729
2977,-0.0020,-0.0568,-0.0080,-1.20,-0.29,0.05,0.242,-12.212,-1.423,-4.450
2986,0.0001,-0.0505,-0.0069,-1.39,-0.27,0.02,0.242,-14.865,-2.220,-3.925
2997,-0.0014,-0.0516,-0.0057,-1.52,-0.24,-0.02,0.242,-11.331,-2.025,-4.573
3006,-0.0010,-0.0490,-0.0045,-1.65,-0.22,-0.07,0.242,-11.440,-2.108,-3.647
3016,-0.0009,-0.0499,-0.0027,-1.78,-0.19,-0.11,0.242,-13.009,-2.032,-4.556
3026,-0.0006,-0.0468,-0.0014,-1.90,-0.16,-0.15,0.242,-5.054,-2.336,-3.558
3036,-0.0006,-0.0436,-0.0003,-2.02,-0.14,-0.19,0.242,-5.155,-0.097,-4.321
3046,-0.0003,-0.0397,0.0008,-2.15,-0.12,-0.24,0.244,-6.654,-1.600,-3.773
3056,-0.0001,-0.0395,0.0020,-2.20,-0.10,-0.28,0.244,-5.651,-1.214,-3.035
3066,0.0001,-0.0356,0.0079,-2.26,-0.09,-0.32,0.244,0.312,1.450,-3.551
3076,0.0076,-0.0315,0.0092,-2.32,-0.11,-0.36,0.244,-4.238,0.219,-4.114
3087,0.0079,-0.0275,0.0104,-2.37,-0.11,-0.39,0.244,-4.895,-1.611,-4.784
3097,0.0081,-0.0234,0.0116,-2.39,-0.12,-0.43,0.244,-0.727,0.898,-3.827
3106,0.0077,-0.0216,0.0125,-2.42,-0.11,-0.46,0.244,6.899,-0.535,-3.067
3116,0.0078,-0.0147,0.0149,-2.50,-0.10,-0.51,0.244,5.350,-4.559,-4.016
3126,0.0080,-0.0104,0.0157,-2.50,-0.10,-0.54,0.244,3.338,-3.696,-3.391
3136,0.0082,-0.0060,0.0163,-2.44,-0.09,-0.57,0.244,5.374,-3.123,-3.302
3147,0.0084,-0.0018,0.0172,-2.38,-0.05,-0.61,0.244,4.744,-0.272,-2.037
3157,0.0077,0.0052,0.0177,-2.35,-0.01,-0.64,0.244,9.134,-3.483,-2.799
3166,0.0095,0.0121,0.0174,-2.31,0.02,-0.68,0.244,3.890,-1.282,-2.566
3177,0.0095,0.0161,0.0177,-2.26,0.03,-0.70,0.244,9.600,-4.136,-2.968
3186,0.0090,0.0247,0.0181,-2.21,0.07,-0.73,0.244,7.482,-2.580,-1.916
3196,0.0089,0.0285,0.0182,-2.17,0.09,-0.75,0.246,9.852,-2.977,-2.371
3207,0.0142,0.0356,0.0184,-2.10,0.09,-0.78,0.246,13.379,-2.349,-3.172
3216,0.0090,0.0402,0.0205,-2.02,0.14,-0.80,0.246,13.290,-1.601,-1.862
3226,0.0088,0.0437,0.0207,-1.91,0.16,-0.82,0.246,14.066,-1.330,-1.411
3237,0.0100,0.0488,0.0207,-1.78,0.17,-0.85,0.246,20.631,-0.851,-2.006
3246,0.0092,0.0557,0.0208,-1.66,0.19,-0.87,0.243,22.990,-2.126,-2.544
3256,0.0064,0.0589,0.0211,-1.52,0.22,-0.89,0.243,21.029,-1.573,-1.818
3266,0.0055,0.0610,0.0142,-1.31,0.23,-0.91,0.243,18.505,-1.401,-1.027
3276,0.0047,0.0594,0.0142,-1.08,0.26,-0.94,0.243,17.450,-2.498,-1.175
3286,0.0040,0.0655,0.0140,-0.90,0.28,-0.96,0.243,18.684,-2.940,-1.751
3296,0.0106,0.0655,0.0140,-0.70,0.26,-0.96,0.248,18.663,-2.556,-1.692
3306,-0.0000,0.0652,0.0141,-0.50,0.34,-0.98,0.248,18.181,-2.342,-0.587
3316,-0.0009,0.0720,0.0191,-0.34,0.37,-1.00,0.248,19.951,-0.937,-0.153
3326,-0.0018,0.0709,0.0191,-0.14,0.40,-1.01,0.248,22.335,-1.979,-1.617
3336,-0.0025,0.0710,0.0191,0.04,0.42,-1.01,0.248,18.676,-0.024,-1.188
3346,-0.0016,0.0669,0.0187,0.27,0.42,-1.02,0.250,21.717,1.140,-2.145
3356,-0.0039,0.0720,0.0186,0.46,0.45,-1.04,0.250,18.904,1.409,-1.008
3366,-0.0026,0.0710,0.0236,0.66,0.43,-1.05,0.250,17.174,2.089,-1.065
3376,-0.0029,0.0717,0.0232,0.85,0.42,-1.07,0.250,15.534,2.639,-1.511
3386,-0.0033,0.0671,0.0228,1.06,0.41,-1.08,0.250,16.799,3.252,-2.074
3397,-0.0051,0.0695,0.0226,1.21,0.39,-1.10,0.250,11.948,3.461,-0.885
3406,-0.0035,0.0628,0.0221,1.38,0.35,-1.11,0.250,11.637,4.245,-1.528
3416,-0.0052,0.0619,0.0241,1.53,0.31,-1.12,0.250,11.840,3.744,-1.437
3427,-0.0032,0.0590,0.0237,1.66,0.26,-1.13,0.250,9.658,4.181,-1.020
3436,-0.0030,0.0577,0.0234,1.76,0.21,-1.14,0.250,9.789,3.459,-0.430
3446,-0.0044,0.0516,0.0229,1.90,0.18,-1.15,0.250,11.014,2.540,-1.690
3456,-0.0024,0.0504,0.0226,1.98,0.12,-1.15,0.250,6.792,1.371,-0.477
3466,-0.0007,0.0439,0.0215,2.10,0.08,-1.16,0.250,6.167,1.289,-0.250
3476,-0.0006,0.0414,0.0210,2.19,0.05,-1.17,0.250,7.023,1.726,-1.423
3486,-0.0008,0.0376,0.0207,2.26,0.03,-1.17,0.250,4.239,0.706,-0.770
3496,-0.0006,0.0334,0.0203,2.33,0.00,-1.17,0.250,1.619,-0.920,0.410
3506,-0.0005,0.0311,0.0200,2.40,-0.01,-1.18,0.250,3.605,0.749,-0.571
3516,-0.0006,0.0271,0.0161,2.45,-0.03,-1.18,0.250,-1.049,-1.037,0.055
3528,-0.0006,0.0229,0.0153,2.46,-0.03,-1.18,0.250,-4.107,-0.978,0.948
3536,-0.0007,0.0187,0.0147,2.48,-0.03,-1.19,0.250,-4.292,-1.998,-0.711
3546,-0.0007,0.0145,0.0143,2.46,-0.02,-1.19,0.248,-7.798,-2.236,-0.396
3556,-0.0011,0.0088,0.0135,2.43,-0.01,-1.19,0.248,-10.586,-2.262,1.050
3566,-0.0011,0.0047,0.0031,2.38,0.02,-1.19,0.248,-7.226,-2.201,0.092
3576,-0.0012,0.0007,0.0024,2.31,0.04,-1.20,0.248,-8.447,-2.713,0.303
3586,-0.0017,-0.0035,0.0020,2.22,0.06,-1.19,0.248,-10.192,-2.220,0.708
3596,-0.0022,-0.0097,0.0017,2.16,0.09,-1.19,0.252,-13.134,-1.393,1.410
3606,-0.0046,-0.0136,0.0013,2.07,0.12,-1.19,0.252,-9.299,-0.845,0.256
3617,-0.0050,-0.0182,0.0039,1.97,0.15,-1.18,0.252,-13.161,-0.845,1.957
3626,-0.0054,-0.0268,0.0037,1.88,0.16,-1.17,0.252,-8.921,-0.324,0.577
3636,-0.0056,-0.0287,0.0037,1.77,0.17,-1.16,0.252,-12.605,0.544,1.546
3646,-0.0059,-0.0348,0.0036,1.66,0.18,-1.15,0.250,-14.962,0.075,1.698
3656,-0.0063,-0.0376,0.0037,1.57,0.18,-1.14,0.250,-11.745,0.182,0.758
3666,-0.0064,-0.0421,0.0026,1.45,0.18,-1.13,0.250,-14.675,0.559,2.123
3676,-0.0065,-0.0431,0.0027,1.31,0.17,-1.11,0.250,-13.903,1.038,0.985
3686,-0.0066,-0.0486,0.0026,1.21,0.17,-1.10,0.250,-15.147,1.451,1.010
3697,-0.0030,-0.0505,0.0023,1.05,0.14,-1.08,0.252,-18.694,1.659,2.338
3706,-0.0030,-0.0502,0.0021,0.90,0.13,-1.08,0.252,-14.632,2.262,0.411
3716,-0.0030,-0.0543,0.0056,0.77,0.11,-1.06,0.252,-18.560,1.758,1.803
3726,-0.0010,-0.0534,0.0055,0.57,0.08,-1.05,0.252,-19.493,1.936,1.598
3736,-0.0027,-0.0551,0.0054,0.42,0.07,-1.04,0.252,-17.542,1.527,0.531
3746,-0.0028,-0.0558,0.0056,0.23,0.06,-1.02,0.246,-18.761,0.882,1.053
3756,-0.0028,-0.0658,0.0056,0.10,0.04,-1.01,0.246,-17.436,-0.703,1.301
3766,-0.0027,-0.0677,-0.0076,-0.07,0.02,-1.00,0.246,-16.581,-0.493,0.674
3776,-0.0046,-0.0697,-0.0074,-0.24,0.03,-0.99,0.246,-15.983,-0.645,0.607
3785,-0.0046,-0.0693,-0.0071,-0.41,0.04,-0.98,0.246,-16.206,-0.953,0.830
3796,-0.0029,-0.0710,-0.0068,-0.57,0.03,-0.98,0.245,-14.183,-0.395,0.701
3806,-0.0030,-0.0687,-0.0063,-0.73,0.04,-0.97,0.245,-13.542,-0.722,1.150
3816,-0.0048,-0.0700,-0.0157,-0.86,0.06,-0.96,0.245,-14.247,-0.542,1.132
3826,-0.0049,-0.0685,-0.0154,-1.00,0.06,-0.95,0.245,-16.444,0.130,1.239
3836,-0.0049,-0.0693,-0.0148,-1.14,0.07,-0.94,0.245,-15.896,0.179,0.749
3845,-0.0049,-0.0661,-0.0142,-1.29,0.07,-0.93,0.247,-14.182,-0.271,0.617
3856,-0.0047,-0.0611,-0.0139,-1.46,0.07,-0.92,0.247,-15.736,-0.318,0.603
3866,-0.0048,-0.0615,-0.0136,-1.60,0.06,-0.91,0.247,-16.745,1.179,0.675
3875,-0.0048,-0.0632,-0.0133,-1.72,0.06,-0.90,0.247,-11.326,1.552,1.332
3885,-0.0062,-0.0557,-0.0127,-1.88,0.06,-0.89,0.247,-9.369,1.739,0.705
3896,-0.0059,-0.0525,-0.0120,-2.05,0.06,-0.88,0.247,-12.541,-0.709,0.982
3905,-0.0055,-0.0494,-0.0111,-2.16,0.04,-0.87,0.247,-5.257,0.053,1.594
3916,-0.0054,-0.0441,-0.0084,-2.27,0.02,-0.86,0.247,-7.821,-1.006,0.995
3926,-0.0052,-0.0415,-0.0075,-2.37,0.02,-0.85,0.247,-2.573,1.594,1.971
3936,-0.0035,-0.0385,-0.0064,-2.43,-0.00,-0.83,0.247,-6.277,-1.428,1.913
3945,-0.0048,-0.0361,-0.0052,-2.49,0.01,-0.82,0.248,0.669,-0.536,2.256
3956,-0.0048,-0.0318,-0.0041,-2.53,0.00,-0.80,0.248,1.719,0.481,2.446
3966,-0.0048,-0.0274,0.0005,-2.58,0.02,-0.79,0.248,-2.876,-2.588,0.864
3976,-0.0045,-0.0242,0.0014,-2.57,0.03,-0.77,0.248,4.332,-1.478,2.205
3986,-0.0045,-0.0197,0.0024,-2.55,0.04,-0.75,0.248,1.275,-1.198,2.872
3996,-0.0045,-0.0153,0.0031,-2.57,0.06,-0.73,0.248,3.366,0.107,1.943
4006,-0.0046,-0.0109,0.0038,-2.53,0.06,-0.71,0.248,4.790,-2.734,1.650
4016,-0.0046,-0.0065,0.0064,-2.51,0.08,-0.69,0.248,3.922,-2.089,2.579
4026,-0.0045,-0.0006,0.0070,-2.48,0.09,-0.66,0.248,2.603,-0.942,2.566
4036,-0.0049,0.0049,0.0078,-2.45,0.10,-0.64,0.248,7.416,-0.623,1.936
4046,-0.0050,0.0091,0.0085,-2.39,0.12,-0.62,0.248,7.701,-0.205,1.841
4056,-0.0050,0.0165,0.0091,-2.36,0.14,-0.60,0.248,6.868,-0.770,2.940
4066,-0.0050,0.0205,0.0102,-2.29,0.15,-0.57,0.248,12.395,1.172,1.841
4076,-0.0070,0.0226,0.0108,-2.19,0.17,-0.55,0.248,11.546,0.392,2.858
4085,-0.0072,0.0263,0.0116,-2.11,0.17,-0.53,0.248,13.646,-0.446,1.837
4096,-0.0050,0.0313,0.0121,-2.01,0.16,-0.51,0.248,15.865,1.183,2.036
4106,-0.0052,0.0387,0.0125,-1.90,0.14,-0.49,0.248,17.704,1.159,1.448
4116,-0.0051,0.0419,0.0117,-1.76,0.14,-0.47,0.248,18.578,0.329,0.821
4126,-0.0054,0.0449,0.0125,-1.62,0.13,-0.45,0.248,18.293,-0.084,0.655
4136,-0.0053,0.0505,0.0130,-1.47,0.12,-0.43,0.248,17.004,0.366,1.389
4146,-0.0052,0.0519,0.0134,-1.29,0.12,-0.43,0.247,19.271,-0.117,0.683
4156,-0.0069,0.0604,0.0136,-1.15,0.12,-0.42,0.247,20.351,-0.708,0.184
4166,-0.0071,0.0623,0.0100,-0.98,0.11,-0.40,0.247,18.790,0.305,1.466
4175,-0.0052,0.0676,0.0105,-0.81,0.10,-0.39,0.247,20.653,-0.121,0.636
4186,-0.0052,0.0674,0.0107,-0.60,0.09,-0.39,0.247,19.479,0.504,0.743
4195,-0.0069,0.0701,0.0108,-0.43,0.09,-0.37,0.250,20.225,1.127,0.129
4206,-0.0050,0.0690,0.0112,-0.21,0.07,-0.37,0.250,18.523,2.246,0.712
4216,-0.0030,0.0746,0.0141,-0.05,0.05,-0.35,0.250,20.253,1.073,0.332
4226,-0.0026,0.0712,0.0138,0.18,0.03,-0.35,0.250,17.770,1.283,0.817
4236,-0.0024,0.0707,0.0139,0.37,0.01,-0.34,0.250,19.028,-0.182,0.466
4245,-0.0022,0.0686,0.0141,0.59,-0.01,-0.33,0.250,21.175,-0.038,0.644
4256,-0.0021,0.0712,0.0138,0.75,-0.02,-0.32,0.250,13.381,0.202,1.935
4266,-0.0020,0.0680,0.0160,0.95,-0.03,-0.31,0.250,17.932,-3.066,0.018
4275,-0.0018,0.0673,0.0157,1.14,-0.02,-0.30,0.250,14.283,-1.434,0.815
4285,-0.0022,0.0624,0.0155,1.32,-0.01,-0.28,0.250,10.877,-2.352,0.836
4295,-0.0039,0.0628,0.0154,1.47,0.02,-0.29,0.256,13.591,-2.498,0.158
4305,-0.0042,0.0602,0.0156,1.59,0.05,-0.28,0.256,9.998,-1.675,1.791
4316,-0.0045,0.0571,0.0264,1.72,0.07,-0.27,0.256,10.593,-1.562,1.192
4326,-0.0047,0.0544,0.0264,1.85,0.09,-0.26,0.256,9.857,-0.798,0.569
4335,-0.0049,0.0512,0.0263,1.96,0.11,-0.25,0.256,9.609,-0.406,0.558
4345,-0.0034,0.0516,0.0261,2.04,0.12,-0.24,0.254,7.357,0.628,0.331
4355,-0.0036,0.0481,0.0257,2.12,0.12,-0.23,0.254,6.986,1.177,0.497
4365,-0.0036,0.0450,0.0245,2.21,0.12,-0.22,0.254,4.967,1.813,0.457
4376,-0.0035,0.0406,0.0242,2.28,0.11,-0.21,0.254,4.541,1.649,0.076
4385,-0.0037,0.0367,0.0238,2.33,0.10,-0.21,0.254,3.063,1.612,-0.500
4395,-0.0035,0.0327,0.0232,2.38,0.08,-0.20,0.255,0.486,1.981,-0.137
4405,-0.0033,0.0290,0.0225,2.41,0.06,-0.20,0.255,-1.021,1.021,0.296
4415,-0.0035,0.0249,0.0210,2.43,0.04,-0.20,0.255,-2.369,0.617,0.111
4426,-0.0086,0.0201,0.0208,2.44,0.06,-0.20,0.255,-3.729,-0.205,-0.531
4435,-0.0065,0.0175,0.0200,2.42,0.04,-0.20,0.255,-4.852,0.325,-0.849
4446,-0.0047,0.0118,0.0191,2.41,0.02,-0.21,0.257,-4.244,0.019,-0.481
4455,-0.0048,0.0077,0.0183,2.37,0.02,-0.21,0.257,-8.288,0.036,0.190
4466,-0.0048,0.0036,0.0193,2.32,0.02,-0.22,0.257,-5.917,0.898,-0.994
4475,-0.0047,-0.0016,0.0186,2.27,0.02,-0.22,0.257,-10.557,1.136,0.266
4486,-0.0047,-0.0055,0.0178,2.20,0.02,-0.22,0.257,-8.552,1.234,-0.669
4496,-0.0042,-0.0134,0.0171,2.15,0.00,-0.23,0.256,-6.799,1.018,-1.190
4506,-0.0039,-0.0170,0.0165,2.04,-0.01,-0.23,0.256,-9.103,0.663,-0.543
4515,-0.0036,-0.0240,0.0124,1.98,-0.02,-0.23,0.256,-14.165,-0.491,0.602
4525,-0.0069,-0.0267,0.0116,1.91,-0.01,-0.24,0.256,-14.174,-0.385,0.096
4536,-0.0032,-0.0304,0.0108,1.80,-0.04,-0.25,0.256,-12.980,-0.745,-0.367
4545,-0.0032,-0.0334,0.0099,1.66,-0.03,-0.24,0.252,-11.751,-0.946,-0.883
4556,-0.0032,-0.0402,0.0090,1.55,-0.03,-0.25,0.252,-18.110,-0.806,-0.188
4566,-0.0032,-0.0412,-0.0038,1.42,-0.02,-0.25,0.252,-19.735,0.201,0.255
4575,-0.0049,-0.0481,-0.0045,1.30,-0.00,-0.26,0.252,-15.212,0.749,-1.338
4586,-0.0049,-0.0503,-0.0050,1.11,-0.00,-0.25,0.252,-17.898,0.106,-0.105
4595,0.0007,-0.0571,-0.0055,0.96,-0.03,-0.26,0.252,-16.325,1.559,-1.396
4605,0.0007,-0.0576,-0.0060,0.79,-0.04,-0.27,0.252,-19.569,1.689,0.240
4615,-0.0008,-0.0615,-0.0105,0.63,-0.04,-0.27,0.252,-19.796,0.909,-0.225
4624,-0.0008,-0.0626,-0.0108,0.45,-0.06,-0.28,0.252,-19.354,0.383,0.002
4634,0.0031,-0.0654,-0.0108,0.28,-0.09,-0.29,0.252,-18.779,0.289,-0.202
4645,0.0031,-0.0679,-0.0107,0.10,-0.09,-0.29,0.249,-19.165,0.067,-0.007
4656,0.0032,-0.0700,-0.0109,-0.08,-0.10,-0.29,0.249,-19.502,-0.008,-0.794
4665,0.0015,-0.0662,-0.0208,-0.29,-0.08,-0.29,0.249,-18.855,-0.380,-0.901
4675,0.0015,-0.0729,-0.0209,-0.45,-0.09,-0.29,0.249,-18.709,-1.743,-0.923
4685,0.0017,-0.0722,-0.0209,-0.64,-0.08,-0.30,0.249,-18.586,-2.658,-0.845
4695,0.0033,-0.0712,-0.0207,-0.82,-0.08,-0.31,0.249,-15.734,-2.194,-1.024
4705,0.0029,-0.0700,-0.0203,-1.00,-0.06,-0.32,0.249,-15.222,-2.743,-0.774
4715,0.0025,-0.0706,-0.0230,-1.16,-0.03,-0.33,0.249,-15.431,-2.953,-0.484
4724,0.0026,-0.0686,-0.0223,-1.33,-0.00,-0.34,0.249,-14.288,-1.895,-0.969
4735,0.0021,-0.0671,-0.0219,-1.49,0.03,-0.34,0.249,-14.178,-1.944,-0.552
4745,0.0017,-0.0637,-0.0212,-1.65,0.06,-0.35,0.246,-15.886,-2.798,-1.217
4756,0.0012,-0.0620,-0.0206,-1.81,0.09,-0.36,0.246,-10.456,-0.456,-0.379
4765,0.0006,-0.0598,-0.0260,-1.95,0.11,-0.36,0.246,-12.595,-2.051,-1.243
4775,0.0004,-0.0565,-0.0253,-2.09,0.13,-0.37,0.246,-13.859,-1.752,-0.899
4785,0.0002,-0.0529,-0.0242,-2.20,0.13,-0.38,0.246,-11.437,-0.510,-1.085
4797,-0.0003,-0.0471,-0.0232,-2.36,0.16,-0.39,0.245,-3.440,1.488,0.002
4805,-0.0007,-0.0486,-0.0221,-2.46,0.18,-0.40,0.245,-6.966,0.034,-0.660
4815,-0.0009,-0.0444,-0.0237,-2.55,0.18,-0.40,0.245,-5.163,0.319,-0.423
4825,0.0007,-0.0374,-0.0224,-2.61,0.16,-0.41,0.245,-2.462,1.180,-0.304
4835,0.0005,-0.0328,-0.0211,-2.67,0.16,-0.41,0.245,0.023,2.421,-0.214
4845,0.0004,-0.0286,-0.0201,-2.72,0.16,-0.42,0.249,1.282,0.920,0.516
4855,0.0002,-0.0239,-0.0190,-2.73,0.14,-0.42,0.249,-1.351,0.212,0.277
4866,-0.0001,-0.0191,-0.0088,-2.72,0.12,-0.42,0.249,0.075,-0.049,-0.157
4875,-0.0002,-0.0116,-0.0072,-2.74,0.12,-0.42,0.249,7.863,-0.192,-0.115
4886,-0.0003,-0.0068,-0.0055,-2.74,0.13,-0.42,0.249,10.249,1.668,0.960
4896,-0.0005,-0.0020,-0.0038,-2.71,0.12,-0.42,0.250,6.036,-2.209,0.497
4905,-0.0007,0.0027,-0.0024,-2.63,0.12,-0.42,0.250,6.614,-0.986,0.360
4916,-0.0028,0.0102,0.0100,-2.56,0.12,-0.41,0.250,8.494,-0.624,0.293
4925,-0.0029,0.0186,0.0114,-2.51,0.13,-0.41,0.250,6.132,-0.656,0.162
4936,-0.0031,0.0230,0.0124,-2.45,0.14,-0.40,0.250,11.024,0.026,0.388
4946,-0.0013,0.0251,0.0131,-2.34,0.13,-0.40,0.247,8.670,0.516,0.556
4956,-0.0014,0.0301,0.0137,-2.27,0.14,-0.40,0.247,12.950,1.910,0.473
4966,-0.0015,0.0351,0.0103,-2.16,0.13,-0.39,0.247,10.835,0.273,0.540
4976,-0.0013,0.0391,0.0107,-2.08,0.12,-0.39,0.247,15.336,1.318,0.677
4984,-0.0032,0.0432,0.0113,-1.96,0.12,-0.38,0.247,16.625,1.012,1.286
4994,-0.0032,0.0463,0.0121,-1.82,0.10,-0.37,0.248,16.996,0.089,1.349
5006,-0.0049,0.0489,0.0128,-1.66,0.11,-0.37,0.248,17.482,0.057,1.564
5016,-0.0013,0.0509,0.0121,-1.49,0.08,-0.35,0.248,20.173,0.757,1.091
5025,-0.0013,0.0543,0.0123,-1.31,0.08,-0.34,0.248,21.305,1.133,1.427
5034,-0.0013,0.0606,0.0123,-1.15,0.07,-0.32,0.248,20.095,1.856,1.440
5045,-0.0012,0.0608,0.0123,-0.94,0.06,-0.31,0.250,19.240,2.335,1.330
5054,-0.0009,0.0661,0.0121,-0.76,0.05,-0.29,0.250,18.008,2.143,1.585
5064,-0.0006,0.0658,0.0143,-0.55,0.02,-0.28,0.250,17.894,1.895,1.015
5074,-0.0003,0.0688,0.0142,-0.38,-0.00,-0.26,0.250,17.338,0.791,1.687
5085,-0.0000,0.0680,0.0141,-0.18,-0.03,-0.25,0.250,16.936,0.057,1.306
5094,0.0002,0.0704,0.0139,-0.02,-0.04,-0.24,0.247,15.618,0.129,1.684
5106,0.0002,0.0691,0.0137,0.15,-0.05,-0.22,0.247,16.261,-0.487,1.714
5114,0.0003,0.0692,0.0067,0.32,-0.05,-0.20,0.247,16.388,-1.173,1.885
5126,-0.0013,0.0675,0.0066,0.49,-0.04,-0.19,0.247,16.412,-1.393,1.603
5135,0.0020,0.0722,0.0063,0.62,-0.05,-0.17,0.247,16.593,-1.283,1.568
5146,0.0018,0.0682,0.0061,0.81,-0.04,-0.15,0.250,15.698,-1.456,2.235
5154,0.0016,0.0638,0.0059,1.00,-0.02,-0.13,0.250,14.559,-2.145,2.348
5166,0.0030,0.0629,0.0078,1.17,-0.01,-0.12,0.250,15.336,-1.301,1.628
5175,0.0010,0.0635,0.0078,1.32,0.02,-0.10,0.250,12.844,-1.477,1.582
5186,-0.0024,0.0589,0.0077,1.49,0.05,-0.08,0.250,12.967,-0.662,1.477
5195,-0.0011,0.0560,0.0076,1.64,0.06,-0.07,0.250,13.926,-0.709,0.850
5206,0.0004,0.0530,0.0073,1.78,0.06,-0.05,0.250,8.397,-0.752,1.684
5214,0.0002,0.0481,0.0074,1.91,0.07,-0.04,0.250,9.889,0.525,0.739
5226,-0.0016,0.0471,0.0074,2.01,0.09,-0.03,0.250,5.163,0.732,1.456
5235,-0.0017,0.0425,0.0074,2.12,0.09,-0.02,0.250,6.192,0.795,0.053
5244,-0.0033,0.0402,0.0069,2.18,0.10,-0.01,0.254,-0.035,1.407,1.217
5256,-0.0034,0.0365,0.0064,2.23,0.09,0.00,0.254,0.194,0.763,0.975
5266,-0.0017,0.0334,0.0142,2.26,0.07,0.01,0.254,-0.887,1.596,0.489
5276,-0.0001,0.0318,0.0141,2.25,0.05,0.02,0.254,-3.732,1.095,0.023
5285,-0.0000,0.0288,0.0142,2.25,0.04,0.02,0.254,-5.155,1.386,0.389
5296,-0.0001,0.0250,0.0140,2.23,0.02,0.03,0.255,-4.579,2.358,-0.006
5304,0.0000,0.0195,0.0136,2.21,0.00,0.03,0.255,-3.798,2.841,0.127
5316,0.0020,0.0160,0.0190,2.17,-0.03,0.03,0.255,-2.576,2.896,0.125
5324,0.0008,0.0123,0.0191,2.13,-0.05,0.03,0.255,-4.913,1.783,0.186
5335,0.0008,0.0087,0.0191,2.08,-0.07,0.04,0.255,-4.359,1.273,0.345
5345,0.0012,0.0038,0.0189,2.05,-0.09,0.04,0.255,-5.624,0.591,0.012
5355,0.0012,0.0038,0.0189,2.05,-0.09,0.04,0.255,-6.364,0.561,0.395
5365,-0.0001,0.0010,0.0199,2.00,-0.10,0.04,0.255,-6.020,0.152,0.233
5375,-0.0013,-0.0101,0.0195,1.93,-0.11,0.05,0.255,-7.175,-0.432,0.272
5385,-0.0013,-0.0101,0.0195,1.93,-0.11,0.05,0.255,-8.481,0.074,0.631
5394,0.0006,-0.0120,0.0193,1.85,-0.13,0.05,0.252,-10.489,-0.513,0.801
5405,0.0010,-0.0184,0.0190,1.71,-0.12,0.06,0.252,-11.612,-0.638,1.151
5415,0.0010,-0.0182,0.0107,1.71,-0.12,0.06,0.252,-12.425,-1.175,1.249
5425,-0.0022,-0.0260,0.0102,1.53,-0.09,0.07,0.252,-13.964,-0.885,1.520
5435,-0.0022,-0.0260,0.0102,1.53,-0.09,0.07,0.252,-13.592,-1.251,1.467
5445,-0.0037,-0.0305,0.0098,1.29,-0.07,0.10,0.250,-14.057,-0.922,1.638
5454,-0.0037,-0.0305,0.0098,1.29,-0.07,0.10,0.250,-14.496,-0.949,1.278
5465,-0.0003,-0.0384,0.0008,1.04,-0.07,0.12,0.250,-15.468,-1.179,1.396
5474,-0.0003,-0.0384,0.0008,1.04,-0.07,0.12,0.250,-14.478,-0.217,1.903
5484,-0.0003,-0.0402,0.0007,0.90,-0.06,0.14,0.250,-13.865,1.047,2.034
5494,-0.0004,-0.0399,0.0006,0.74,-0.05,0.15,0.250,-13.332,1.273,1.474
5504,-0.0001,-0.0455,0.0004,0.47,-0.05,0.19,0.250,-13.750,2.340,2.035
5514,-0.0001,-0.0453,-0.0065,0.47,-0.05,0.19,0.250,-13.275,-0.469,1.345
5524,-0.0043,-0.0483,-0.0065,0.19,-0.04,0.23,0.250,-11.993,-0.327,2.090
5535,-0.0043,-0.0483,-0.0065,0.19,-0.04,0.23,0.250,-13.923,-1.761,2.219
5544,-0.0023,-0.0470,-0.0058,-0.10,-0.06,0.26,0.248,-12.624,-1.112,2.241
5554,-0.0023,-0.0470,-0.0058,-0.10,-0.06,0.26,0.248,-12.069,-1.140,1.707
5564,-0.0024,-0.0479,-0.0131,-0.33,-0.05,0.31,0.248,-8.752,0.232,2.206
5574,-0.0024,-0.0479,-0.0131,-0.33,-0.05,0.31,0.248,-8.300,-0.490,1.807
5584,-0.0006,-0.0488,-0.0126,-0.55,-0.03,0.35,0.248,-10.630,-0.022,1.543
5594,-0.0006,-0.0488,-0.0126,-0.55,-0.03,0.35,0.249,-14.369,-0.567,1.560
5604,-0.0021,-0.0486,-0.0119,-0.64,-0.02,0.37,0.249,-8.183,2.189,1.309
5615,-0.0021,-0.0475,-0.0120,-0.74,-0.02,0.39,0.249,-12.908,-0.064,0.829
5624,-0.0017,-0.0468,-0.0112,-0.85,-0.02,0.40,0.249,-6.721,1.374,1.026
5634,-0.0017,-0.0453,-0.0105,-0.97,-0.03,0.42,0.249,-12.122,-0.327,0.319
5644,-0.0014,-0.0431,-0.0097,-1.07,-0.04,0.43,0.248,-6.214,1.382,0.408
5654,-0.0013,-0.0412,-0.0087,-1.17,-0.05,0.44,0.248,-9.350,1.034,0.754
5664,-0.0010,-0.0407,-0.0093,-1.25,-0.06,0.44,0.248,-8.974,1.148,0.622
5674,-0.0007,-0.0370,-0.0080,-1.42,-0.07,0.45,0.248,-4.846,-0.060,0.314
5684,-0.0005,-0.0363,-0.0080,-1.42,-0.07,0.45,0.248,-4.825,-0.503,0.351
5694,-0.0004,-0.0335,-0.0070,-1.50,-0.08,0.46,0.249,-6.345,-0.717,1.060
5704,-0.0003,-0.0309,-0.0058,-1.55,-0.09,0.47,0.249,-3.634,0.406,1.008
5714,-0.0002,-0.0282,-0.0027,-1.61,-0.08,0.48,0.249,-2.845,-0.943,0.936
5724,0.0000,-0.0273,-0.0018,-1.65,-0.08,0.49,0.249,-5.139,-1.752,1.015
5734,0.0000,-0.0250,-0.0008,-1.69,-0.08,0.49,0.249,-2.145,-1.990,0.863
5745,0.0001,-0.0220,0.0001,-1.73,-0.07,0.50,0.249,-0.206,-2.102,0.767
5754,-0.0001,-0.0198,0.0010,-1.77,-0.05,0.51,0.249,1.782,-1.063,0.388
5764,0.0000,-0.0167,0.0028,-1.78,-0.03,0.53,0.249,0.134,-1.407,0.428
5774,0.0000,-0.0136,0.0035,-1.78,-0.01,0.54,0.249,0.154,-2.746,0.472
5784,0.0000,-0.0106,0.0043,-1.79,0.01,0.54,0.249,3.907,-2.474,1.195
5794,-0.0000,-0.0075,0.0054,-1.79,0.03,0.54,0.252,5.887,-1.217,1.315
5805,-0.0005,-0.0023,0.0065,-1.79,0.05,0.55,0.252,6.652,-1.929,0.749
5814,-0.0006,0.0008,0.0145,-1.75,0.07,0.56,0.252,3.778,-1.121,0.952
5825,-0.0008,0.0038,0.0154,-1.72,0.09,0.57,0.252,6.244,-0.942,0.531
5834,0.0007,0.0098,0.0165,-1.68,0.10,0.58,0.252,10.410,-0.181,0.228
5844,0.0005,0.0127,0.0174,-1.63,0.12,0.59,0.252,6.298,-0.853,-0.751
5854,-0.0017,0.0151,0.0183,-1.56,0.13,0.60,0.252,8.219,1.372,0.185
5865,-0.0019,0.0180,0.0232,-1.47,0.13,0.61,0.252,6.869,2.780,0.151
5873,-0.0019,0.0223,0.0237,-1.42,0.14,0.61,0.252,8.213,0.764,-0.307
5884,0.0002,0.0226,0.0243,-1.32,0.11,0.61,0.252,8.043,2.031,-0.533
5895,0.0001,0.0264,0.0247,-1.27,0.09,0.61,0.250,10.842,1.237,-0.293
5904,-0.0016,0.0302,0.0248,-1.19,0.09,0.61,0.250,10.187,1.089,-1.439
5914,-0.0015,0.0328,0.0179,-1.11,0.07,0.60,0.250,9.401,1.593,0.124
5924,-0.0015,0.0338,0.0180,-0.98,0.06,0.59,0.250,11.612,1.793,0.011
5934,-0.0013,0.0364,0.0182,-0.89,0.04,0.58,0.250,15.676,2.607,-0.332
5944,-0.0014,0.0380,0.0184,-0.79,0.03,0.58,0.252,9.161,-0.004,0.190
5954,-0.0011,0.0428,0.0183,-0.69,0.01,0.58,0.252,16.478,2.524,0.399
5964,-0.0011,0.0429,0.0186,-0.55,-0.01,0.58,0.252,10.500,0.028,0.375
5974,-0.0006,0.0435,0.0183,-0.43,-0.02,0.58,0.252,15.368,0.421,0.825
5984,-0.0006,0.0447,0.0182,-0.28,-0.04,0.58,0.252,11.298,-1.627,1.730
5994,0.0012,0.0484,0.0184,-0.19,-0.06,0.59,0.255,15.348,-0.719,0.806
6004,0.0010,0.0472,0.0183,-0.04,-0.05,0.59,0.255,16.923,-0.184,0.242
6014,-0.0007,0.0435,0.0208,0.13,-0.04,0.60,0.255,9.478,-1.983,-0.061
6024,0.0010,0.0463,0.0205,0.24,-0.03,0.62,0.255,14.185,-0.802,0.223
6034,-0.0010,0.0465,0.0205,0.40,-0.02,0.62,0.255,10.253,-0.719,1.270
6043,-0.0010,0.0457,0.0203,0.54,-0.01,0.62,0.252,5.034,-1.562,0.993
6054,-0.0011,0.0452,0.0201,0.66,0.01,0.62,0.252,5.777,0.014,0.423
6064,-0.0013,0.0453,0.0148,0.76,0.02,0.63,0.252,9.398,1.735,0.672
6074,0.0004,0.0401,0.0143,0.85,0.02,0.64,0.252,11.373,1.186,0.988
6083,0.0006,0.0411,0.0139,0.89,0.02,0.65,0.252,6.383,0.814,1.858
6093,0.0006,0.0396,0.0137,0.97,0.01,0.65,0.255,3.287,0.276,2.192
6104,0.0007,0.0375,0.0135,1.08,-0.00,0.67,0.255,4.332,-0.363,2.021
6113,0.0007,0.0357,0.0130,1.16,-0.01,0.68,0.255,-1.751,-3.655,1.334
6124,0.0007,0.0338,0.0128,1.20,-0.02,0.70,0.255,6.787,-2.006,0.655
6134,0.0008,0.0317,0.0125,1.24,-0.02,0.72,0.255,9.086,-1.102,0.584
6144,-0.0000,0.0320,0.0123,1.23,0.01,0.74,0.254,7.301,-0.739,0.884
6154,-0.0000,0.0299,0.0119,1.26,0.03,0.75,0.254,2.428,-1.131,1.959
6164,-0.0001,0.0278,0.0078,1.32,0.05,0.75,0.254,4.697,-2.015,0.747
6174,-0.0001,0.0255,0.0075,1.39,0.07,0.76,0.254,3.170,-0.446,0.934
6184,-0.0007,0.0257,0.0071,1.42,0.08,0.78,0.254,1.514,-0.589,0.718
6193,-0.0008,0.0233,0.0069,1.47,0.09,0.79,0.255,-2.603,1.208,1.800
6205,-0.0010,0.0231,0.0067,1.51,0.11,0.80,0.255,-0.014,1.914,0.537
6214,-0.0012,0.0205,0.0057,1.53,0.11,0.81,0.255,-2.276,3.317,2.026
6224,-0.0013,0.0179,0.0055,1.54,0.10,0.82,0.255,-3.580,1.998,2.129
6233,-0.0012,0.0165,0.0053,1.52,0.09,0.83,0.255,-3.566,2.395,2.127
6245,-0.0013,0.0139,0.0050,1.51,0.06,0.85,0.254,0.148,2.465,0.515
6255,-0.0010,0.0095,0.0047,1.48,0.04,0.87,0.254,0.603,1.927,0.602
6264,-0.0006,0.0087,0.0012,1.44,0.01,0.89,0.254,-2.355,0.298,0.901
6274,-0.0002,0.0040,0.0014,1.44,-0.01,0.90,0.254,-2.317,-0.486,0.958
6284,-0.0001,0.0015,0.0016,1.45,-0.03,0.90,0.254,-2.950,-0.357,0.778
6293,-0.0058,-0.0025,0.0015,1.46,-0.01,0.91,0.257,-3.183,0.712,1.008
6305,-0.0019,-0.0041,0.0015,1.44,-0.03,0.93,0.257,-7.046,1.774,0.340
6313,-0.0054,-0.0079,0.0063,1.41,-0.02,0.94,0.257,-6.571,-0.478,-0.126
6324,-0.0053,-0.0103,0.0065,1.37,-0.02,0.95,0.257,-5.058,-0.211,-0.179
6334,-0.0012,-0.0149,0.0066,1.32,-0.05,0.95,0.257,-4.719,0.726,-0.308
6345,-0.0011,-0.0172,0.0067,1.27,-0.05,0.95,0.254,-7.728,1.133,1.127
6355,-0.0027,-0.0180,0.0067,1.21,-0.05,0.95,0.254,-9.462,1.996,1.457
6364,-0.0041,-0.0219,0.0017,1.17,-0.06,0.96,0.254,-9.353,1.144,0.673
6373,-0.0035,-0.0254,0.0015,1.11,-0.07,0.96,0.254,-11.080,0.752,0.938
6384,-0.0033,-0.0273,0.0017,1.01,-0.08,0.97,0.254,-14.770,0.006,1.704
6393,0.0009,-0.0280,0.0017,0.91,-0.12,0.98,0.252,-14.822,0.239,1.143
6403,-0.0026,-0.0338,0.0018,0.83,-0.09,0.98,0.252,-10.458,0.229,-0.329
6414,-0.0024,-0.0352,-0.0029,0.70,-0.09,1.00,0.252,-10.071,0.433,0.115
6424,-0.0039,-0.0411,-0.0027,0.59,-0.07,1.01,0.252,-11.652,-0.799,0.776
6434,-0.0055,-0.0390,-0.0025,0.46,-0.06,1.01,0.252,-14.079,-0.964,1.140
6443,-0.0015,-0.0402,-0.0023,0.36,-0.08,1.01,0.252,-12.757,0.280,0.140
6453,-0.0033,-0.0409,-0.0021,0.25,-0.06,1.01,0.252,-9.512,0.497,-0.791
6464,-0.0030,-0.0416,-0.0049,0.12,-0.05,1.02,0.252,-11.737,-1.115,-0.751
6473,-0.0027,-0.0407,-0.0047,-0.01,-0.04,1.03,0.252,-12.170,0.494,1.679
6484,-0.0008,-0.0429,-0.0042,-0.11,-0.05,1.02,0.252,-10.607,2.350,0.577
6493,-0.0006,-0.0430,-0.0042,-0.21,-0.05,1.02,0.252,-11.725,0.372,0.167
6504,-0.0005,-0.0426,-0.0040,-0.34,-0.05,1.03,0.252,-10.764,-0.425,0.692
6513,-0.0003,-0.0424,-0.0071,-0.46,-0.06,1.04,0.252,-10.392,-0.225,0.484
6523,-0.0003,-0.0422,-0.0068,-0.57,-0.06,1.04,0.252,-11.440,-1.761,0.501
6533,-0.0002,-0.0412,-0.0063,-0.68,-0.07,1.05,0.252,-9.134,0.763,0.538
6543,-0.0003,-0.0443,-0.0056,-0.76,-0.06,1.05,0.252,-5.389,-2.198,-0.108
6554,-0.0002,-0.0430,-0.0052,-0.86,-0.06,1.05,0.252,-10.195,-1.264,0.474
6563,-0.0004,-0.0410,-0.0043,-0.95,-0.06,1.05,0.252,-4.414,-3.738,-0.252
6573,-0.0006,-0.0383,-0.0038,-1.03,-0.04,1.06,0.252,-8.067,-3.856,-0.512
6583,-0.0005,-0.0365,-0.0030,-1.12,-0.02,1.06,0.252,-3.323,-2.026,-0.375
6593,-0.0011,-0.0339,-0.0024,-1.18,0.01,1.06,0.255,-1.167,1.650,-0.135
6604,-0.0014,-0.0340,-0.0017,-1.24,0.05,1.06,0.255,-3.568,-0.140,-0.131
6613,-0.0015,-0.0319,0.0041,-1.29,0.07,1.06,0.255,-1.192,2.162,0.203
6623,-0.0017,-0.0297,0.0045,-1.32,0.07,1.05,0.255,-4.287,2.285,0.362
6633,-0.0014,-0.0281,0.0049,-1.34,0.08,1.05,0.255,-3.190,4.434,1.234
6644,-0.0016,-0.0258,0.0054,-1.35,0.05,1.05,0.254,-1.253,0.378,-0.977
6653,-0.0017,-0.0235,0.0059,-1.39,0.03,1.05,0.254,0.082,2.298,0.236
6663,-0.0018,-0.0211,0.0065,-1.43,-0.00,1.06,0.254,-0.973,1.508,1.135
6673,-0.0017,-0.0197,0.0071,-1.44,-0.01,1.05,0.254,-3.560,0.285,0.753
6683,-0.0017,-0.0172,0.0077,-1.44,-0.04,1.05,0.254,-4.621,-0.489,1.354
6694,-0.0017,-0.0147,0.0079,-1.44,-0.06,1.06,0.255,1.408,-0.190,1.028
6704,-0.0039,-0.0088,0.0081,-1.49,-0.05,1.07,0.255,3.787,-5.230,-0.485
6714,-0.0038,-0.0062,0.0101,-1.53,-0.05,1.08,0.255,5.400,-2.237,0.420
6723,-0.0024,-0.0019,0.0103,-1.55,-0.05,1.09,0.255,3.553,-4.200,0.038
6734,-0.0024,0.0007,0.0103,-1.50,-0.01,1.09,0.255,4.091,-1.892,0.604
6743,-0.0051,0.0046,0.0102,-1.46,0.03,1.09,0.252,7.746,-1.942,0.725
6754,-0.0056,0.0105,0.0100,-1.44,0.07,1.10,0.252,8.292,1.994,0.783
6764,-0.0038,0.0132,0.0052,-1.39,0.07,1.10,0.252,8.873,-0.345,-0.536
6773,-0.0056,0.0155,0.0051,-1.33,0.10,1.10,0.252,6.620,2.189,-0.060
6784,-0.0056,0.0177,0.0049,-1.24,0.10,1.11,0.252,10.634,3.978,0.799
6793,-0.0054,0.0260,0.0045,-1.19,0.09,1.11,0.254,9.778,3.283,0.056
6804,-0.0047,0.0272,0.0043,-1.12,0.07,1.10,0.254,9.589,1.368,-0.710
6813,-0.0042,0.0323,0.0034,-1.04,0.03,1.11,0.254,9.047,1.014,-1.051
6823,-0.0039,0.0352,0.0034,-0.93,0.01,1.10,0.254,7.497,2.371,-1.532
6833,-0.0040,0.0368,0.0034,-0.83,-0.01,1.09,0.254,7.574,5.774,-1.022
6844,-0.0035,0.0415,0.0031,-0.76,-0.03,1.08,0.250,14.156,4.503,-1.088
6853,-0.0024,0.0419,0.0027,-0.67,-0.06,1.07,0.250,15.718,2.353,-1.309
6863,-0.0015,0.0429,-0.0042,-0.59,-0.10,1.05,0.250,14.497,2.706,-0.749
6873,-0.0029,0.0455,-0.0041,-0.47,-0.14,1.04,0.250,11.046,1.446,-1.028
6883,-0.0059,0.0442,-0.0037,-0.30,-0.16,1.03,0.250,11.746,-0.787,-1.253
6893,-0.0016,0.0471,-0.0033,-0.17,-0.21,1.02,0.252,15.888,2.527,-0.969
6903,-0.0013,0.0494,-0.0030,-0.05,-0.24,1.01,0.252,13.823,1.408,-0.759
6913,0.0013,0.0491,-0.0025,0.07,-0.25,1.00,0.252,14.837,-2.808,-0.839
6923,0.0019,0.0506,-0.0024,0.22,-0.27,0.99,0.252,18.517,-0.520,-1.123
6933,0.0018,0.0480,-0.0023,0.36,-0.27,0.99,0.252,14.222,-1.330,-1.497
6943,-0.0051,0.0483,-0.0022,0.50,-0.21,0.98,0.257,12.010,-0.603,-2.506
6953,-0.0012,0.0491,-0.0021,0.68,-0.22,0.97,0.257,12.729,0.800,-0.448
6963,-0.0010,0.0534,0.0075,0.80,-0.22,0.95,0.257,12.217,-1.182,-1.197
6973,0.0030,0.0485,0.0078,0.95,-0.23,0.93,0.257,10.044,-1.551,-1.662
6983,0.0031,0.0470,0.0080,1.07,-0.23,0.92,0.257,5.054,1.602,-0.665
6993,0.0032,0.0440,0.0079,1.20,-0.22,0.91,0.255,8.900,-0.118,-1.318
7003,0.0020,0.0450,0.0080,1.27,-0.20,0.89,0.255,6.094,1.093,-1.450
7013,0.0023,0.0428,0.0082,1.34,-0.21,0.89,0.255,4.308,-2.155,-0.925
7023,0.0027,0.0405,0.0082,1.41,-0.21,0.87,0.255,6.684,-2.411,-0.648
7033,0.0027,0.0397,0.0082,1.48,-0.22,0.86,0.255,7.293,-1.775,-1.841
7043,0.0026,0.0385,0.0082,1.52,-0.20,0.85,0.258,4.753,-1.421,-0.849
7053,0.0044,0.0336,0.0083,1.59,-0.19,0.84,0.258,6.700,-1.112,-1.298
7064,0.0044,0.0309,0.0145,1.66,-0.17,0.82,0.258,3.270,-2.464,-0.109
7073,0.0079,0.0261,0.0147,1.72,-0.17,0.81,0.258,2.647,-2.849,-0.573
7083,0.0076,0.0236,0.0148,1.79,-0.15,0.80,0.258,3.172,-2.951,-2.348
7093,0.0055,0.0195,0.0147,1.84,-0.12,0.80,0.257,0.087,-1.486,-2.819
7103,0.0058,0.0163,0.0145,1.88,-0.09,0.79,0.257,2.413,-2.849,-1.738
7113,0.0088,0.0156,0.0139,1.89,-0.08,0.77,0.257,-1.145,-1.058,-0.710
7123,0.0084,0.0136,0.0136,1.88,-0.05,0.74,0.257,-3.720,-1.201,-1.889
7133,0.0086,0.0103,0.0130,1.90,-0.03,0.73,0.257,-4.032,-1.046,-2.483
7144,0.0087,0.0071,0.0125,1.89,-0.02,0.71,0.256,-4.294,-1.102,-2.112
7153,0.0101,0.0044,0.0119,1.86,-0.01,0.69,0.256,-6.682,-2.050,-0.944
7163,0.0101,0.0013,0.0076,1.82,-0.00,0.67,0.256,-5.241,-2.428,-1.850
7173,0.0095,-0.0044,0.0070,1.80,0.01,0.65,0.256,-7.358,-3.324,-1.027
7183,0.0096,-0.0075,0.0065,1.75,0.02,0.64,0.256,-7.049,-2.485,-1.619
7193,0.0124,-0.0089,0.0061,1.69,0.03,0.62,0.254,-8.751,-3.195,-1.307
7203,0.0116,-0.0120,0.0055,1.62,0.05,0.61,0.254,-10.000,-2.588,-0.710
7214,0.0162,-0.0147,-0.0026,1.55,0.05,0.60,0.254,-7.260,-1.926,-1.849
7223,0.0079,-0.0189,-0.0029,1.48,0.12,0.59,0.254,-9.608,-3.349,-1.711
7233,0.0077,-0.0214,-0.0033,1.39,0.15,0.58,0.254,-10.668,-2.476,-1.457
7243,0.0124,-0.0251,-0.0037,1.31,0.15,0.56,0.256,-9.312,-2.010,-2.397
7253,0.0077,-0.0284,-0.0042,1.23,0.20,0.55,0.256,-9.125,-1.096,-1.769
7263,0.0123,-0.0280,-0.0040,1.11,0.19,0.53,0.256,-12.160,-0.964,-1.050
7273,0.0114,-0.0311,-0.0044,1.02,0.21,0.51,0.256,-12.999,-0.829,-0.776
7283,0.0105,-0.0335,-0.0047,0.93,0.23,0.49,0.256,-12.135,-0.536,-1.885
7293,0.0102,-0.0351,-0.0049,0.81,0.25,0.47,0.256,-12.852,-2.221,-1.832
7303,0.0093,-0.0388,-0.0050,0.69,0.27,0.46,0.256,-10.516,1.393,-1.931
7313,0.0082,-0.0385,-0.0039,0.56,0.28,0.44,0.256,-11.015,0.247,-0.764
7323,0.0095,-0.0419,-0.0037,0.45,0.28,0.43,0.256,-13.739,-0.813,-0.201
7332,0.0017,-0.0414,-0.0038,0.34,0.32,0.41,0.256,-11.810,-1.099,-0.467
7342,0.0045,-0.0421,-0.0039,0.23,0.31,0.40,0.252,-10.165,-0.233,0.226
7353,0.0107,-0.0410,-0.0038,0.08,0.28,0.39,0.252,-12.582,-1.651,0.500
7362,0.0011,-0.0435,-0.0112,-0.02,0.35,0.39,0.252,-8.390,-1.546,-1.569
7373,0.0020,-0.0402,-0.0113,-0.15,0.35,0.39,0.252,-8.237,-2.528,-1.443
7382,-0.0006,-0.0409,-0.0116,-0.28,0.38,0.39,0.252,-10.043,-1.687,-0.525
7393,-0.0016,-0.0413,-0.0114,-0.37,0.39,0.38,0.252,-11.942,0.259,-0.496
7403,-0.0024,-0.0396,-0.0113,-0.46,0.41,0.36,0.252,-12.755,5.302,-0.058
7412,-0.0030,-0.0392,-0.0147,-0.57,0.42,0.36,0.252,-7.839,5.024,-1.228
7423,0.0057,-0.0351,-0.0144,-0.71,0.36,0.35,0.252,-5.297,2.944,-0.937
7433,-0.0028,-0.0369,-0.0140,-0.81,0.35,0.36,0.252,-6.037,3.305,-0.561
7442,-0.0029,-0.0353,-0.0133,-0.89,0.29,0.35,0.250,-6.190,4.675,-1.032
7452,-0.0028,-0.0352,-0.0130,-0.95,0.26,0.34,0.250,-1.707,6.012,-0.594
7464,-0.0025,-0.0332,-0.0153,-1.02,0.23,0.33,0.250,-2.408,2.610,-0.170
7473,-0.0036,-0.0318,-0.0149,-1.08,0.18,0.33,0.250,-5.075,1.570,-1.287
7483,-0.0051,-0.0287,-0.0145,-1.11,0.13,0.32,0.250,-5.277,3.422,-1.205
7493,-0.0053,-0.0268,-0.0139,-1.13,0.10,0.32,0.250,-2.822,2.513,-1.669
7502,-0.0055,-0.0248,-0.0132,-1.18,0.08,0.31,0.250,-2.681,-2.751,-1.904
7513,-0.0056,-0.0228,-0.0151,-1.23,0.05,0.29,0.250,0.412,2.100,-0.916
7523,-0.0057,-0.0206,-0.0145,-1.26,0.03,0.28,0.250,0.923,-0.335,-0.336
7533,-0.0058,-0.0185,-0.0136,-1.29,0.05,0.26,0.250,1.454,0.830,-1.012
7543,-0.0059,-0.0162,-0.0128,-1.29,0.03,0.25,0.248,2.366,-0.936,-1.283
7552,-0.0059,-0.0140,-0.0119,-1.28,0.03,0.25,0.248,1.764,2.440,-1.141
7563,-0.0060,-0.0118,-0.0154,-1.26,0.02,0.24,0.248,2.126,-0.016,-1.049
7573,-0.0060,-0.0096,-0.0149,-1.24,0.03,0.23,0.248,2.227,2.318,-1.511
7582,-0.0061,-0.0075,-0.0144,-1.24,0.01,0.22,0.248,0.739,2.105,-1.255
7592,-0.0061,-0.0054,-0.0138,-1.22,0.00,0.21,0.245,0.918,4.654,-1.615
7603,-0.0075,-0.0033,-0.0131,-1.21,-0.01,0.20,0.245,0.578,6.143,-0.670
7613,-0.0085,-0.0013,-0.0198,-1.20,-0.02,0.18,0.245,4.991,3.911,-0.136
7623,-0.0070,0.0027,-0.0189,-1.20,-0.07,0.17,0.245,7.980,4.978,0.040
7633,-0.0059,0.0079,-0.0180,-1.21,-0.13,0.16,0.245,4.804,1.062,-0.925
7643,-0.0057,0.0100,-0.0170,-1.16,-0.18,0.15,0.248,5.941,1.660,-0.335
7652,-0.0050,0.0149,-0.0163,-1.10,-0.23,0.15,0.248,5.260,1.316,-1.756
7663,-0.0046,0.0168,-0.0118,-1.04,-0.24,0.14,0.248,7.707,-1.105,-0.568
7672,-0.0058,0.0169,-0.0105,-0.98,-0.25,0.14,0.248,9.494,-0.936,-1.699
7682,-0.0054,0.0206,-0.0094,-0.93,-0.26,0.12,0.248,9.908,-0.382,-0.937
7692,-0.0049,0.0222,-0.0085,-0.86,-0.26,0.12,0.249,8.635,1.336,-1.423
7702,-0.0044,0.0252,-0.0074,-0.78,-0.25,0.10,0.249,8.593,-1.420,-2.057
7712,-0.0035,0.0282,-0.0005,-0.69,-0.24,0.09,0.249,10.460,-2.041,-2.743
7722,-0.0033,0.0308,0.0003,-0.60,-0.25,0.08,0.249,7.237,0.632,-1.786
7732,-0.0028,0.0319,0.0011,-0.51,-0.24,0.06,0.249,11.018,2.779,-1.030
7743,-0.0022,0.0364,0.0019,-0.44,-0.22,0.03,0.247,11.927,-0.175,-0.493
7752,-0.0013,0.0379,0.0028,-0.36,-0.23,0.01,0.247,12.228,1.442,-1.015
7763,-0.0009,0.0390,0.0026,-0.25,-0.25,0.00,0.247,12.142,1.773,-0.568
7772,0.0018,0.0398,0.0036,-0.13,-0.27,-0.00,0.247,8.114,0.033,-0.522
7782,0.0044,0.0404,0.0048,-0.01,-0.30,-0.01,0.247,10.555,-1.900,-1.817
7792,0.0086,0.0395,0.0056,0.11,-0.33,-0.01,0.248,11.418,-1.213,-2.048
7802,0.0047,0.0438,0.0064,0.17,-0.31,-0.02,0.248,9.819,-2.863,-1.281
7812,0.0049,0.0420,0.0084,0.28,-0.29,-0.04,0.248,10.960,-0.768,-1.428
7822,0.0048,0.0403,0.0095,0.40,-0.27,-0.06,0.248,12.718,1.176,-0.629
7833,0.0087,0.0420,0.0103,0.49,-0.27,-0.07,0.248,12.612,-2.876,-0.834
7842,0.0090,0.0414,0.0108,0.60,-0.27,-0.09,0.247,13.027,-3.757,-1.093
7853,0.0069,0.0406,0.0112,0.73,-0.26,-0.09,0.247,11.968,-3.706,-0.478
7862,0.0065,0.0378,0.0092,0.87,-0.24,-0.10,0.247,9.460,-2.381,-0.638
7872,0.0079,0.0350,0.0099,1.00,-0.22,-0.11,0.247,7.180,-3.236,-1.595
7882,0.0094,0.0307,0.0106,1.12,-0.19,-0.11,0.247,4.871,-3.701,-1.624
7892,0.0142,0.0302,0.0111,1.20,-0.20,-0.12,0.250,4.760,-3.864,-1.001
7902,0.0145,0.0281,0.0117,1.27,-0.17,-0.13,0.250,4.417,-5.826,-1.279
7912,0.0138,0.0279,0.0183,1.31,-0.14,-0.14,0.250,-0.243,-4.135,-1.022
7923,0.0144,0.0241,0.0187,1.36,-0.10,-0.15,0.250,-0.149,-5.397,-1.080
7932,0.0135,0.0246,0.0190,1.39,-0.04,-0.16,0.250,2.251,-4.287,-1.317
7942,0.0140,0.0232,0.0191,1.40,0.01,-0.18,0.252,1.035,-2.339,-1.255
7952,0.0140,0.0208,0.0190,1.41,0.06,-0.19,0.252,1.624,-2.589,-0.648
7962,0.0139,0.0184,0.0229,1.43,0.10,-0.20,0.252,1.372,-3.514,-0.827
7972,0.0147,0.0187,0.0230,1.42,0.13,-0.21,0.252,0.016,-2.786,-0.503
7982,0.0145,0.0163,0.0232,1.43,0.16,-0.22,0.252,-0.970,-2.182,-0.069
7992,0.0142,0.0138,0.0233,1.44,0.19,-0.23,0.249,1.175,-1.251,-0.961
8002,0.0139,0.0106,0.0234,1.45,0.21,-0.23,0.249,1.117,-1.016,-0.677
8012,0.0135,0.0082,0.0158,1.45,0.23,-0.24,0.249,-1.425,-1.442,-0.222
8023,0.0131,0.0057,0.0159,1.45,0.25,-0.25,0.249,-0.978,-1.594,0.023
8033,0.0196,0.0033,0.0159,1.45,0.22,-0.25,0.249,-2.285,-1.685,0.576
8042,0.0182,-0.0009,0.0158,1.45,0.24,-0.25,0.252,-1.756,-3.058,-0.288
8053,0.0168,-0.0048,0.0158,1.45,0.26,-0.25,0.252,-2.398,-1.827,-0.455
8062,0.0164,-0.0073,0.0168,1.43,0.29,-0.26,0.252,-4.552,-1.548,-0.303
8072,0.0159,-0.0098,0.0166,1.41,0.31,-0.26,0.252,-5.830,-0.352,0.754
8082,0.0153,-0.0122,0.0164,1.39,0.33,-0.26,0.252,-6.879,-1.482,0.972
8094,0.0141,-0.0150,0.0160,1.35,0.35,-0.26,0.250,-6.682,-1.982,-0.047
8103,0.0167,-0.0175,0.0160,1.30,0.34,-0.26,0.250,-9.474,-3.005,0.423
8112,0.0151,-0.0199,0.0097,1.24,0.36,-0.26,0.250,-9.395,-3.739,0.604
8122,0.0145,-0.0220,0.0094,1.17,0.39,-0.26,0.250,-8.448,-3.489,-0.294
8132,0.0127,-0.0255,0.0094,1.09,0.42,-0.25,0.250,-11.927,-3.603,0.787
8142,0.0109,-0.0269,0.0095,0.99,0.46,-0.24,0.249,-11.563,-4.229,0.534
8152,0.0092,-0.0294,0.0093,0.89,0.49,-0.24,0.249,-10.417,-4.502,1.019
8162,0.0074,-0.0317,0.0030,0.78,0.53,-0.23,0.249,-9.938,-5.467,0.210
8172,0.0092,-0.0339,0.0029,0.68,0.56,-0.23,0.249,-9.567,0.858,0.470
8182,0.0071,-0.0360,0.0030,0.59,0.61,-0.22,0.249,-11.225,-1.919,0.740
8192,0.0060,-0.0397,0.0029,0.51,0.65,-0.22,0.249,-8.968,3.111,0.031
8203,0.0049,-0.0406,0.0032,0.41,0.64,-0.22,0.249,-10.564,0.972,0.157
8212,0.0022,-0.0383,-0.0011,0.29,0.66,-0.21,0.249,-11.099,0.828,0.816
8222,0.0012,-0.0376,-0.0012,0.18,0.64,-0.21,0.249,-9.902,1.044,0.424
8232,0.0002,-0.0422,-0.0011,0.10,0.62,-0.21,0.249,-9.634,1.103,0.306
8242,-0.0008,-0.0412,-0.0007,-0.03,0.62,-0.20,0.250,-9.867,0.981,0.431
8252,0.0002,-0.0455,-0.0003,-0.11,0.60,-0.20,0.250,-8.918,-0.035,0.816
8262,-0.0006,-0.0440,-0.0001,-0.22,0.58,-0.19,0.250,-7.758,0.372,0.566
8271,-0.0016,-0.0444,0.0003,-0.32,0.57,-0.18,0.250,-7.794,1.337,0.598
8282,-0.0024,-0.0447,0.0008,-0.41,0.57,-0.17,0.250,-8.252,3.609,0.667
8292,-0.0034,-0.0440,0.0014,-0.49,0.56,-0.17,0.250,-10.595,4.076,1.416
8302,-0.0019,-0.0422,0.0018,-0.57,0.52,-0.16,0.250,-9.950,2.123,0.410
8312,-0.0039,-0.0436,0.0044,-0.64,0.49,-0.16,0.250,-8.443,2.881,-0.080
8322,-0.0047,-0.0425,0.0048,-0.74,0.46,-0.15,0.250,-10.504,1.416,1.350
8331,-0.0030,-0.0385,0.0053,-0.85,0.42,-0.14,0.250,-9.224,1.954,0.793
8343,-0.0052,-0.0359,0.0057,-0.96,0.40,-0.14,0.250,-8.426,0.244,0.461
8352,-0.0054,-0.0406,0.0060,-1.03,0.39,-0.13,0.250,-9.345,-0.490,0.101
8362,-0.0058,-0.0380,0.0049,-1.13,0.37,-0.13,0.250,-8.147,4.450,0.031
8372,-0.0063,-0.0371,0.0050,-1.22,0.37,-0.12,0.250,-7.010,0.652,0.007
8382,-0.0096,-0.0361,0.0054,-1.31,0.38,-0.12,0.250,-5.011,4.317,0.039
8392,-0.0103,-0.0338,0.0057,-1.38,0.35,-0.12,0.252,-3.928,2.612,0.347
8402,-0.0109,-0.0315,0.0060,-1.45,0.34,-0.12,0.252,-4.133,1.256,0.498
8412,-0.0106,-0.0292,0.0094,-1.50,0.29,-0.12,0.252,-1.765,2.280,0.771
8422,-0.0111,-0.0266,0.0101,-1.54,0.27,-0.12,0.252,-0.195,4.036,0.459
8432,-0.0092,-0.0224,0.0107,-1.58,0.25,-0.11,0.252,0.646,4.711,0.568
8443,-0.0108,-0.0186,0.0110,-1.61,0.23,-0.11,0.248,0.756,4.743,0.874
8452,-0.0112,-0.0158,0.0110,-1.61,0.18,-0.10,0.248,1.026,5.477,0.943
8462,-0.0158,-0.0145,0.0028,-1.59,0.17,-0.10,0.248,0.294,5.258,0.810
8472,-0.0161,-0.0118,0.0027,-1.57,0.13,-0.10,0.248,-0.730,2.743,1.324
8482,-0.0148,-0.0069,0.0026,-1.58,0.07,-0.10,0.248,-0.486,1.578,1.138
8492,-0.0149,-0.0042,0.0028,-1.58,0.03,-0.09,0.250,3.112,2.270,1.144
8502,-0.0150,-0.0015,0.0031,-1.58,0.01,-0.08,0.250,4.643,-1.686,0.780
8513,-0.0150,0.0012,0.0026,-1.57,-0.01,-0.07,0.250,5.214,1.157,0.862
8522,-0.0147,0.0070,0.0031,-1.56,-0.02,-0.06,0.250,5.691,0.799,0.879
8533,-0.0147,0.0097,0.0035,-1.52,-0.01,-0.05,0.250,7.603,1.171,1.179
8542,-0.0137,0.0129,0.0038,-1.46,-0.01,-0.04,0.252,9.256,4.604,1.153
8553,-0.0130,0.0195,0.0038,-1.41,-0.04,-0.03,0.252,8.983,2.550,0.928
8563,-0.0136,0.0197,0.0095,-1.31,-0.06,-0.02,0.252,11.614,6.833,2.034
8572,-0.0126,0.0216,0.0098,-1.22,-0.10,-0.01,0.252,10.580,2.667,0.331
8582,-0.0109,0.0248,0.0101,-1.13,-0.15,0.00,0.252,9.673,3.050,2.141
8592,-0.0098,0.0260,0.0104,-1.02,-0.20,0.01,0.248,11.367,4.310,1.914
8602,-0.0086,0.0309,0.0107,-0.93,-0.24,0.02,0.248,11.318,3.957,0.968
8611,-0.0072,0.0312,0.0018,-0.83,-0.28,0.04,0.248,12.974,2.630,0.696
8622,-0.0077,0.0353,0.0023,-0.73,-0.31,0.06,0.248,13.680,1.802,0.674
8632,-0.0065,0.0351,0.0027,-0.60,-0.36,0.07,0.248,12.574,1.573,1.290
8642,-0.0054,0.0382,0.0028,-0.49,-0.39,0.08,0.250,13.621,3.554,2.578
8652,-0.0044,0.0376,0.0029,-0.35,-0.41,0.09,0.250,11.363,0.298,1.669
8662,-0.0030,0.0402,0.0041,-0.22,-0.43,0.10,0.250,11.239,-2.346,1.006
8672,-0.0021,0.0410,0.0042,-0.09,-0.46,0.13,0.250,11.688,-0.035,1.252
8682,-0.0013,0.0412,0.0044,0.05,-0.47,0.15,0.250,11.497,-1.042,2.510
8691,-0.0005,0.0434,0.0048,0.15,-0.45,0.17,0.250,14.700,-4.055,1.494
8701,0.0001,0.0417,0.0052,0.28,-0.44,0.18,0.250,10.772,-6.580,2.867
8712,0.0020,0.0465,0.0055,0.37,-0.42,0.20,0.250,9.743,-6.112,2.240
8722,-0.0037,0.0444,0.0059,0.51,-0.33,0.21,0.250,9.536,-4.823,1.424
8731,0.0014,0.0477,0.0060,0.58,-0.28,0.23,0.250,8.070,-2.844,2.657
8742,0.0018,0.0467,0.0059,0.69,-0.24,0.25,0.252,5.530,-4.657,3.379
8751,0.0017,0.0463,0.0059,0.78,-0.19,0.27,0.252,5.873,-1.494,3.420
8761,0.0031,0.0444,0.0081,0.85,-0.16,0.29,0.252,7.249,-3.425,2.459
8771,0.0048,0.0441,0.0084,0.91,-0.13,0.33,0.252,10.121,-1.125,3.360
8782,0.0078,0.0418,0.0088,0.97,-0.13,0.36,0.252,7.628,-1.239,2.663
8791,0.0076,0.0408,0.0092,1.05,-0.09,0.39,0.252,10.728,-0.379,2.060
8802,0.0073,0.0418,0.0094,1.13,-0.08,0.42,0.252,11.406,0.559,1.922
8812,0.0071,0.0404,0.0118,1.22,-0.07,0.45,0.252,10.369,0.114,1.628
8821,0.0071,0.0389,0.0120,1.33,-0.06,0.46,0.252,8.968,-0.569,2.446
8831,0.0070,0.0356,0.0121,1.43,-0.06,0.48,0.252,9.827,-4.036,1.908
8842,0.0068,0.0325,0.0120,1.54,-0.04,0.50,0.250,7.337,-1.527,1.695
8852,0.0061,0.0292,0.0119,1.64,-0.03,0.52,0.250,4.844,-4.661,2.394
8862,0.0107,0.0279,0.0076,1.71,-0.02,0.54,0.250,3.135,-4.502,2.005
8872,0.0108,0.0249,0.0077,1.77,0.02,0.56,0.250,1.988,-4.054,2.398
8882,0.0064,0.0220,0.0077,1.82,0.06,0.58,0.250,-0.091,-4.280,2.695
8891,0.0039,0.0194,0.0079,1.84,0.12,0.60,0.257,-1.077,-5.220,3.609
8902,0.0046,0.0154,0.0082,1.86,0.17,0.62,0.257,-1.106,-6.206,2.439
8912,0.0020,0.0116,0.0187,1.87,0.23,0.65,0.257,-1.931,-5.870,3.013
8921,0.0064,0.0097,0.0189,1.85,0.26,0.68,0.257,-3.621,-4.715,2.881
8932,0.0060,0.0065,0.0191,1.84,0.32,0.70,0.257,-4.380,-3.697,2.816
8942,0.0047,0.0021,0.0194,1.82,0.38,0.73,0.254,-4.160,-3.738,2.396
8952,0.0051,-0.0021,0.0192,1.79,0.42,0.75,0.254,-4.045,-2.974,2.450
8962,0.0055,-0.0060,0.0163,1.74,0.46,0.77,0.254,-5.116,-2.134,2.243
8971,0.0047,-0.0090,0.0161,1.70,0.49,0.80,0.254,-5.756,-0.745,2.390
8982,0.0036,-0.0126,0.0157,1.66,0.51,0.82,0.254,-6.384,0.630,2.481
8992,0.0076,-0.0158,0.0154,1.61,0.49,0.84,0.252,-7.902,0.986,2.262
9001,0.0050,-0.0187,0.0151,1.55,0.50,0.87,0.252,-7.825,0.286,2.202
9011,0.0026,-0.0212,0.0088,1.48,0.51,0.89,0.252,-8.850,0.044,2.562
9021,0.0018,-0.0252,0.0085,1.41,0.50,0.92,0.252,-10.097,-2.093,2.539
9031,0.0010,-0.0272,0.0080,1.32,0.50,0.94,0.252,-11.190,-1.866,2.233
9041,-0.0018,-0.0288,0.0075,1.22,0.52,0.97,0.252,-11.701,-1.585,2.223
9052,-0.0028,-0.0317,0.0071,1.12,0.53,0.99,0.252,-12.402,-2.511,2.041
9061,-0.0037,-0.0326,0.0030,1.00,0.56,1.01,0.252,-13.213,-2.370,1.055
9072,-0.0016,-0.0363,0.0028,0.90,0.56,1.03,0.252,-13.120,-2.115,0.880
9082,-0.0059,-0.0366,0.0025,0.76,0.60,1.05,0.252,-13.627,-1.205,0.578
9091,-0.0070,-0.0382,0.0025,0.63,0.63,1.07,0.252,-12.815,-1.421,-0.134
9102,-0.0079,-0.0395,0.0026,0.50,0.64,1.08,0.252,-13.294,0.824,-0.266
9112,-0.0089,-0.0406,-0.0004,0.37,0.65,1.08,0.252,-12.004,2.310,-0.273
9121,-0.0064,-0.0413,-0.0004,0.24,0.63,1.08,0.252,-11.639,3.129,-0.099
9131,-0.0053,-0.0420,-0.0000,0.11,0.60,1.08,0.252,-10.754,3.836,-0.166
9141,-0.0074,-0.0426,0.0003,-0.02,0.56,1.08,0.256,-10.549,4.817,0.565
9151,-0.0091,-0.0431,0.0004,-0.13,0.53,1.08,0.256,-10.809,4.420,-0.353
9162,-0.0101,-0.0430,0.0052,-0.23,0.48,1.08,0.256,-9.890,3.666,-0.557
9171,-0.0131,-0.0463,0.0052,-0.31,0.45,1.08,0.256,-8.683,4.586,-0.309
9183,-0.0139,-0.0458,0.0055,-0.41,0.41,1.07,0.256,-8.796,4.626,-0.254
9192,-0.0151,-0.0474,0.0058,-0.49,0.37,1.07,0.252,-8.835,3.534,-0.257
9202,-0.0146,-0.0456,0.0062,-0.59,0.32,1.06,0.252,-8.616,3.261,-0.217
9211,-0.0175,-0.0452,0.0003,-0.67,0.29,1.06,0.252,-8.462,3.676,-0.318
9222,-0.0186,-0.0431,0.0007,-0.76,0.25,1.06,0.252,-7.846,3.036,-0.506
9232,-0.0196,-0.0442,0.0007,-0.84,0.22,1.06,0.252,-8.786,3.840,-0.891
9242,-0.0206,-0.0404,0.0007,-0.93,0.19,1.05,0.252,-9.364,4.590,-0.775
9252,-0.0197,-0.0396,0.0009,-1.01,0.15,1.04,0.252,-9.984,4.102,-0.859
9263,-0.0220,-0.0355,-0.0028,-1.12,0.12,1.04,0.252,-7.691,4.282,-0.969
9272,-0.0209,-0.0344,-0.0025,-1.21,0.07,1.03,0.252,-6.526,4.610,-0.423
9282,-0.0215,-0.0302,-0.0021,-1.31,0.03,1.02,0.252,-5.137,5.768,-0.412
9293,-0.0219,-0.0294,-0.0015,-1.38,-0.02,1.01,0.252,-3.884,7.163,0.346
9302,-0.0205,-0.0271,-0.0009,-1.44,-0.07,1.00,0.252,-2.539,7.552,-0.116
9312,-0.0189,-0.0248,-0.0025,-1.50,-0.14,1.00,0.252,-1.079,7.413,0.136
9322,-0.0203,-0.0227,-0.0021,-1.54,-0.20,1.00,0.252,1.103,6.999,-0.264
9332,-0.0169,-0.0176,-0.0018,-1.58,-0.29,1.00,0.252,2.060,6.599,0.086
9341,-0.0169,-0.0176,-0.0018,-1.58,-0.29,1.00,0.249,2.399,5.378,-0.105
9352,-0.0192,-0.0150,-0.0009,-1.56,-0.41,0.99,0.249,3.613,4.205,-0.165
9362,-0.0185,-0.0123,-0.0084,-1.53,-0.47,0.99,0.249,4.835,3.667,-0.315
9371,-0.0178,-0.0097,-0.0081,-1.50,-0.51,0.99,0.249,4.892,2.789,-0.352
9382,-0.0170,-0.0071,-0.0079,-1.46,-0.55,0.98,0.249,5.432,2.427,-0.396
9391,-0.0170,-0.0071,-0.0079,-1.46,-0.55,0.98,0.250,4.545,0.401,-0.705
9402,-0.0187,-0.0051,-0.0077,-1.42,-0.56,0.98,0.250,4.324,0.455,-0.327
9413,-0.0152,0.0001,-0.0078,-1.33,-0.61,0.97,0.250,6.104,0.580,-0.638
9422,-0.0155,0.0034,-0.0074,-1.29,-0.61,0.97,0.250,4.656,1.127,-0.536
9432,-0.0140,0.0079,-0.0074,-1.25,-0.61,0.96,0.250,3.619,0.963,-0.809
9442,-0.0089,0.0092,-0.0070,-1.20,-0.64,0.96,0.250,2.363,0.301,-0.728
9452,-0.0091,0.0103,-0.0064,-1.15,-0.64,0.95,0.250,4.551,1.806,-0.751
9462,-0.0078,0.0133,-0.0058,-1.11,-0.64,0.94,0.250,6.905,1.568,-0.597
9471,-0.0097,0.0174,-0.0051,-1.08,-0.64,0.93,0.250,8.237,0.062,-0.965
9481,-0.0081,0.0193,-0.0044,-1.03,-0.65,0.93,0.250,6.593,-0.763,-0.820
9491,-0.0070,0.0211,-0.0036,-0.96,-0.65,0.92,0.250,8.825,1.440,-0.520
9501,-0.0058,0.0228,-0.0028,-0.88,-0.66,0.91,0.250,11.266,0.780,-0.776
9512,-0.0044,0.0257,-0.0017,-0.80,-0.67,0.90,0.250,10.831,-0.260,-0.676
9521,-0.0031,0.0280,-0.0012,-0.71,-0.67,0.90,0.250,11.311,-0.002,-0.595
9531,-0.0019,0.0284,-0.0007,-0.60,-0.67,0.89,0.250,13.375,-0.627,-1.012
9541,-0.0008,0.0286,-0.0005,-0.49,-0.67,0.88,0.250,12.629,-1.139,-1.141
9552,0.0002,0.0316,-0.0004,-0.39,-0.66,0.87,0.250,12.117,-2.177,-1.988
9561,0.0012,0.0312,0.0026,-0.26,-0.64,0.86,0.250,11.208,-2.310,-1.334
9572,0.0019,0.0323,0.0030,-0.14,-0.62,0.85,0.250,11.421,-2.422,-1.741
9581,0.0025,0.0333,0.0036,-0.02,-0.60,0.83,0.250,9.647,-3.318,-1.555
9593,0.0031,0.0340,0.0043,0.09,-0.58,0.81,0.250,9.450,-2.475,-1.756
9601,0.0034,0.0363,0.0049,0.18,-0.55,0.79,0.250,8.248,-4.351,-1.436
9611,0.0006,0.0384,0.0068,0.26,-0.49,0.77,0.250,8.996,-3.736,-1.831
9621,0.0015,0.0380,0.0073,0.36,-0.46,0.76,0.250,8.048,-3.148,-1.219
9632,0.0050,0.0383,0.0079,0.44,-0.44,0.74,0.250,8.305,-2.306,-1.351
9641,0.0068,0.0352,0.0086,0.53,-0.41,0.73,0.252,8.173,-2.475,-1.545
9652,0.0053,0.0353,0.0088,0.61,-0.36,0.71,0.252,8.396,-2.060,-1.409
9662,0.0104,0.0354,0.0107,0.68,-0.36,0.70,0.252,8.950,-1.482,-1.873
9671,0.0105,0.0335,0.0109,0.77,-0.34,0.69,0.252,8.566,-0.487,-1.730
9681,0.0122,0.0316,0.0114,0.87,-0.33,0.67,0.252,9.478,-0.878,-1.924
9691,0.0123,0.0329,0.0119,0.95,-0.33,0.65,0.254,10.057,-1.820,-1.478
9701,0.0107,0.0288,0.0123,1.05,-0.31,0.63,0.254,9.795,-2.121,-1.533
9712,0.0107,0.0281,0.0171,1.15,-0.29,0.62,0.254,8.079,-2.580,-1.465
9721,0.0106,0.0271,0.0175,1.24,-0.27,0.60,0.254,6.469,-2.090,-0.802
9732,0.0136,0.0248,0.0177,1.33,-0.26,0.59,0.254,4.182,-3.431,-1.369
9741,0.0133,0.0225,0.0176,1.40,-0.23,0.57,0.252,2.524,-4.724,-1.188
9752,0.0138,0.0201,0.0178,1.46,-0.20,0.56,0.252,1.973,-4.134,-1.130
9762,0.0163,0.0199,0.0140,1.49,-0.17,0.55,0.252,2.894,-4.348,-0.943
9771,0.0155,0.0148,0.0142,1.54,-0.12,0.54,0.252,0.384,-5.948,-1.402
9781,0.0155,0.0148,0.0142,1.54,-0.12,0.54,0.252,-2.816,-4.303,-1.613
9791,0.0147,0.0131,0.0142,1.56,-0.06,0.53,0.252,-3.974,-3.878,-1.291
9801,0.0148,0.0104,0.0143,1.55,-0.01,0.51,0.252,-3.342,-3.160,-1.127
9811,0.0170,0.0094,0.0129,1.52,0.02,0.50,0.252,-3.729,-1.493,-0.729
9821,0.0170,0.0068,0.0130,1.49,0.07,0.48,0.252,-3.565,-3.354,-1.411
9831,0.0159,0.0028,0.0129,1.47,0.11,0.47,0.252,-3.409,-2.392,-0.850
9841,0.0157,0.0003,0.0127,1.45,0.15,0.46,0.256,-4.539,-2.434,-0.703
9851,0.0163,-0.0050,0.0126,1.43,0.17,0.45,0.256,-4.510,-1.917,-0.918
9861,0.0152,-0.0083,0.0168,1.38,0.19,0.44,0.256,-4.648,-1.990,-0.526
9871,0.0149,-0.0107,0.0165,1.33,0.21,0.43,0.256,-4.681,-1.721,-1.049
9881,0.0138,-0.0136,0.0163,1.29,0.23,0.42,0.256,-4.456,-0.832,-1.247
9890,0.0135,-0.0159,0.0164,1.25,0.25,0.41,0.254,-4.840,-1.806,-1.244
9901,0.0131,-0.0180,0.0166,1.20,0.27,0.40,0.254,-5.653,-3.402,-0.711
9911,0.0167,-0.0208,0.0128,1.17,0.26,0.39,0.254,-6.745,-1.704,-0.916
9920,0.0163,-0.0228,0.0126,1.12,0.28,0.38,0.254,-6.461,-1.347,-0.452
9931,0.0095,-0.0247,0.0126,1.06,0.35,0.37,0.254,-8.523,-1.273,-1.313
9941,0.0090,-0.0266,0.0123,1.00,0.36,0.36,0.252,-7.984,-2.603,-1.579
9951,0.0127,-0.0277,0.0119,0.93,0.35,0.35,0.252,-11.101,-2.375,-0.966
9961,0.0121,-0.0292,0.0055,0.85,0.36,0.34,0.252,-11.705,-1.720,-0.716
9971,0.0117,-0.0310,0.0052,0.76,0.39,0.33,0.252,-10.831,-0.996,-0.443
9981,0.0110,-0.0324,0.0051,0.66,0.41,0.31,0.252,-10.182,-0.714,-0.496
9990,0.0163,-0.0332,0.0048,0.55,0.40,0.30,0.250,-11.448,-0.801,-0.496
10001,0.0156,-0.0342,0.0045,0.45,0.42,0.29,0.250,-11.272,0.909,-0.476
10011,0.0136,-0.0364,-0.0042,0.34,0.44,0.29,0.250,-10.666,1.257,-0.663
10021,0.0129,-0.0370,-0.0045,0.22,0.45,0.28,0.250,-8.631,0.265,-0.757
10031,0.0116,-0.0335,-0.0044,0.08,0.44,0.28,0.250,-8.066,-0.115,-0.652
10041,0.0109,-0.0336,-0.0045,-0.02,0.43,0.28,0.252,-7.188,-0.714,-0.769
10051,0.0099,-0.0382,-0.0047,-0.09,0.42,0.27,0.252,-8.945,-1.050,-0.308
10060,0.0091,-0.0380,-0.0068,-0.17,0.42,0.26,0.252,-8.667,-1.059,-0.932
10071,0.0093,-0.0398,-0.0062,-0.24,0.42,0.25,0.252,-9.128,-0.850,-0.085
10080,0.0075,-0.0397,-0.0053,-0.41,0.44,0.24,0.252,-8.220,-1.470,-0.491
10090,0.0071,-0.0405,-0.0053,-0.41,0.44,0.24,0.248,-8.244,-1.542,-0.434
10101,0.0063,-0.0398,-0.0048,-0.49,0.45,0.24,0.248,-8.841,-1.369,-0.576
10111,0.0040,-0.0381,-0.0137,-0.65,0.48,0.23,0.248,-9.363,-1.069,-0.270
10120,0.0040,-0.0381,-0.0137,-0.65,0.48,0.23,0.248,-8.604,-0.037,-0.137
10130,0.0035,-0.0341,-0.0135,-0.83,0.50,0.22,0.248,-10.091,-0.977,0.360
10140,0.0035,-0.0341,-0.0135,-0.83,0.50,0.22,0.249,-7.136,0.508,0.100
10151,0.0015,-0.0297,-0.0122,-1.02,0.51,0.22,0.249,-5.765,0.402,-0.126
10161,0.0015,-0.0297,-0.0142,-1.02,0.51,0.22,0.249,-6.850,0.102,-0.242
10171,-0.0002,-0.0274,-0.0127,-1.17,0.50,0.22,0.249,-8.534,-0.733,-0.193
10180,-0.0010,-0.0253,-0.0119,-1.25,0.50,0.22,0.249,-4.141,3.046,-0.000
10191,-0.0019,-0.0231,-0.0108,-1.33,0.49,0.22,0.250,-4.745,0.151,-0.363
10201,-0.0019,-0.0231,-0.0108,-1.33,0.49,0.22,0.250,-2.994,1.681,-0.643
10211,-0.0045,-0.0210,-0.0066,-1.42,0.47,0.21,0.250,0.165,0.711,-0.379
10220,-0.0045,-0.0210,-0.0066,-1.42,0.47,0.21,0.250,2.418,2.662,-0.814
10230,-0.0054,-0.0185,-0.0056,-1.44,0.46,0.21,0.250,2.836,2.150,-0.692
10242,-0.0059,-0.0173,-0.0048,-1.46,0.45,0.20,0.250,2.285,2.258,-0.492
10251,-0.0078,-0.0129,-0.0042,-1.45,0.44,0.20,0.250,1.756,2.477,-0.345
10261,-0.0085,-0.0104,-0.0013,-1.44,0.42,0.19,0.250,1.767,2.385,-0.359
10271,-0.0139,-0.0079,-0.0003,-1.42,0.43,0.18,0.250,2.555,4.005,-0.125
10280,-0.0156,-0.0055,0.0003,-1.40,0.40,0.18,0.250,1.386,3.918,-0.120
10291,-0.0163,-0.0031,0.0010,-1.37,0.37,0.17,0.248,3.282,5.370,-0.235
10300,-0.0175,0.0027,0.0019,-1.37,0.33,0.17,0.248,3.843,4.131,-0.547
10310,-0.0181,0.0050,-0.0007,-1.35,0.30,0.17,0.248,3.469,5.549,-0.475
10321,-0.0186,0.0073,-0.0001,-1.33,0.26,0.17,0.248,5.281,4.807,-0.378
10331,-0.0191,0.0096,0.0007,-1.32,0.21,0.16,0.248,4.555,6.344,-0.329
10340,-0.0194,0.0119,0.0017,-1.27,0.16,0.16,0.247,6.630,6.917,-0.499
10351,-0.0180,0.0148,0.0023,-1.22,0.09,0.15,0.247,8.097,6.683,-0.655
10360,-0.0221,0.0189,-0.0015,-1.17,0.06,0.15,0.247,9.042,5.888,0.081
10370,-0.0165,0.0227,-0.0010,-1.12,-0.04,0.15,0.247,10.009,6.119,0.149
10381,-0.0164,0.0246,-0.0004,-1.05,-0.10,0.14,0.247,10.921,5.016,0.282
10390,-0.0205,0.0277,0.0004,-0.98,-0.14,0.14,0.247,10.285,5.057,-0.351
10400,-0.0284,0.0264,0.0012,-0.87,-0.15,0.13,0.247,13.335,5.206,-0.382
10410,-0.0263,0.0290,-0.0008,-0.77,-0.22,0.13,0.247,10.151,5.158,-0.148
10420,-0.0241,0.0328,-0.0003,-0.67,-0.29,0.13,0.247,11.235,4.384,-0.498
10430,-0.0257,0.0330,0.0006,-0.54,-0.34,0.13,0.247,11.457,3.611,-0.193
10440,-0.0272,0.0328,0.0015,-0.42,-0.38,0.12,0.254,12.116,4.604,0.017
10450,-0.0251,0.0361,0.0021,-0.33,-0.43,0.12,0.254,8.633,2.615,0.187
10460,-0.0246,0.0355,0.0165,-0.21,-0.47,0.12,0.254,9.261,4.441,-0.239
10470,-0.0226,0.0351,0.0173,-0.09,-0.53,0.12,0.254,8.538,3.231,-0.407
10480,-0.0203,0.0362,0.0179,-0.00,-0.58,0.12,0.254,8.957,3.068,0.193
10490,-0.0198,0.0372,0.0189,0.09,-0.63,0.12,0.250,9.361,3.126,-0.218
10500,-0.0176,0.0398,0.0199,0.15,-0.67,0.12,0.250,6.340,2.859,0.053
10510,-0.0155,0.0386,0.0199,0.24,-0.72,0.12,0.250,7.758,5.506,0.768
10521,-0.0142,0.0382,0.0202,0.32,-0.76,0.12,0.250,10.222,3.602,0.387
10530,-0.0117,0.0369,0.0206,0.40,-0.80,0.12,0.250,10.506,2.613,0.456
10540,-0.0103,0.0363,0.0210,0.48,-0.84,0.13,0.252,8.442,2.737,0.996
10550,-0.0090,0.0317,0.0212,0.59,-0.87,0.13,0.252,10.974,1.530,0.945
10560,-0.0075,0.0307,0.0209,0.69,-0.91,0.13,0.252,9.283,1.273,0.300
10570,-0.0049,0.0333,0.0208,0.77,-0.94,0.14,0.252,8.817,-2.894,0.826
10580,-0.0033,0.0320,0.0206,0.88,-0.95,0.15,0.252,7.214,-3.701,0.274
10590,-0.0068,0.0292,0.0203,0.98,-0.95,0.16,0.252,5.080,-2.032,0.231
10600,-0.0052,0.0276,0.0201,1.07,-0.93,0.16,0.252,4.630,-1.076,0.545
10610,-0.0007,0.0256,0.0194,1.14,-0.91,0.17,0.252,3.654,-5.660,0.712
10621,0.0009,0.0237,0.0189,1.21,-0.88,0.17,0.252,1.519,-3.033,0.515
10630,0.0022,0.0236,0.0186,1.24,-0.87,0.18,0.252,-1.127,-5.369,0.401
10640,0.0037,0.0215,0.0182,1.28,-0.83,0.18,0.254,0.471,-4.981,0.646
10650,0.0046,0.0218,0.0176,1.29,-0.78,0.18,0.254,-2.545,-5.422,0.497
10661,0.0067,0.0191,0.0170,1.29,-0.73,0.19,0.254,-0.908,-6.341,0.567
10670,0.0121,0.0162,0.0169,1.29,-0.72,0.19,0.254,-2.573,-5.058,0.339
10681,0.0134,0.0140,0.0167,1.28,-0.66,0.20,0.254,-0.754,-5.601,0.383
10690,0.0151,0.0100,0.0166,1.28,-0.62,0.20,0.255,-2.503,-4.946,0.877
10701,0.0161,0.0078,0.0164,1.26,-0.55,0.21,0.255,-1.338,-3.543,1.269
10710,0.0158,0.0040,0.0166,1.26,-0.50,0.21,0.255,1.185,-6.424,0.580
10720,0.0166,0.0019,0.0163,1.24,-0.44,0.21,0.255,0.066,-4.327,0.044
10730,0.0174,-0.0002,0.0161,1.22,-0.41,0.22,0.255,-2.243,-5.227,-0.109
10740,0.0181,-0.0023,0.0157,1.23,-0.35,0.23,0.257,-2.713,-4.394,0.353
10751,0.0187,-0.0044,0.0150,1.23,-0.31,0.23,0.257,-5.594,-6.198,-0.083
10760,0.0198,-0.0117,0.0176,1.24,-0.25,0.23,0.257,-5.000,-6.105,0.185
10771,0.0202,-0.0138,0.0175,1.22,-0.20,0.23,0.257,-6.718,-6.802,0.320
10781,0.0187,-0.0125,0.0172,1.17,-0.12,0.23,0.257,-8.337,-6.358,-0.266
10791,0.0249,-0.0148,0.0168,1.12,-0.09,0.23,0.252,-9.469,-6.747,-0.122
10800,0.0308,-0.0167,0.0163,1.06,-0.05,0.23,0.252,-10.670,-7.861,-0.050
10810,0.0305,-0.0201,0.0049,0.99,0.02,0.22,0.252,-11.425,-7.582,0.075
10820,0.0338,-0.0192,0.0048,0.89,0.07,0.22,0.252,-12.053,-7.402,0.366
10830,0.0313,-0.0220,0.0048,0.79,0.16,0.22,0.252,-10.465,-7.568,0.201
10840,0.0288,-0.0225,0.0045,0.68,0.25,0.22,0.252,-12.222,-6.996,0.582
10850,0.0281,-0.0268,0.0037,0.58,0.33,0.22,0.252,-11.223,-5.405,0.713
10860,0.0273,-0.0248,-0.0014,0.45,0.40,0.23,0.252,-10.827,-6.840,0.829
10870,0.0249,-0.0285,-0.0012,0.35,0.49,0.23,0.252,-9.112,-6.693,0.474
10880,0.0240,-0.0300,-0.0010,0.24,0.54,0.24,0.252,-6.459,-5.421,0.278
10890,0.0231,-0.0334,-0.0013,0.15,0.61,0.24,0.252,-4.353,-9.603,-0.214
10900,0.0222,-0.0316,-0.0014,0.05,0.67,0.25,0.252,-10.132,-7.522,-0.022
10910,0.0188,-0.0353,-0.0060,0.01,0.76,0.25,0.252,-7.541,-5.829,-0.184
10921,0.0176,-0.0343,-0.0060,-0.05,0.85,0.25,0.252,-7.229,-5.573,0.178
10929,0.0165,-0.0320,-0.0064,-0.14,0.92,0.25,0.252,-9.019,-4.190,-0.130
10939,0.0154,-0.0331,-0.0065,-0.20,0.98,0.25,0.249,-8.455,-0.989,0.421
10950,0.0144,-0.0304,-0.0065,-0.29,1.03,0.25,0.249,-14.230,-1.439,0.123
10960,0.0138,-0.0311,-0.0149,-0.37,1.06,0.25,0.249,-12.113,0.822,0.557
10970,0.0120,-0.0304,-0.0151,-0.46,1.07,0.26,0.249,-13.162,1.821,-0.054
10980,0.0099,-0.0321,-0.0150,-0.58,1.09,0.26,0.249,-11.301,0.454,-0.424
10989,0.0063,-0.0334,-0.0148,-0.69,1.09,0.26,0.250,-5.846,3.603,0.288
11000,0.0059,-0.0329,-0.0145,-0.83,1.07,0.26,0.250,-7.175,3.312,0.270
11010,0.0028,-0.0296,-0.0154,-0.96,1.06,0.26,0.250,-3.021,3.056,-0.066
11020,0.0014,-0.0294,-0.0148,-1.02,1.03,0.26,0.250,-0.562,3.868,-0.091
11030,0.0001,-0.0280,-0.0142,-1.08,1.01,0.26,0.250,-1.442,7.354,0.424
11041,-0.0010,-0.0270,-0.0134,-1.13,0.98,0.26,0.250,-1.987,2.624,0.078
11050,-0.0050,-0.0240,-0.0126,-1.15,0.94,0.26,0.250,-7.460,3.352,0.083
11060,-0.0067,-0.0220,-0.0093,-1.16,0.88,0.26,0.250,-5.128,3.506,-0.529
11070,-0.0109,-0.0218,-0.0089,-1.17,0.86,0.26,0.250,-0.498,3.995,-0.106
11080,-0.0132,-0.0184,-0.0080,-1.25,0.83,0.26,0.250,-1.695,1.493,-0.914
11090,-0.0146,-0.0162,-0.0066,-1.30,0.81,0.26,0.252,-7.293,4.873,-0.095
11100,-0.0161,-0.0140,-0.0054,-1.33,0.77,0.26,0.252,0.913,5.440,0.402
11110,-0.0174,-0.0117,0.0008,-1.34,0.74,0.25,0.252,-2.552,5.735,-0.190
11120,-0.0174,-0.0096,0.0019,-1.40,0.69,0.25,0.252,2.513,8.212,-0.017
11130,-0.0172,-0.0052,0.0030,-1.42,0.63,0.25,0.252,4.462,4.801,-0.048
11141,-0.0203,-0.0025,0.0040,-1.45,0.58,0.24,0.249,2.374,7.113,-0.092
11150,-0.0181,-0.0024,0.0046,-1.41,0.49,0.24,0.249,1.390,8.782,-0.277
11160,-0.0189,-0.0003,0.0011,-1.38,0.43,0.24,0.249,1.054,7.349,-0.185
11170,-0.0195,0.0018,0.0016,-1.34,0.36,0.24,0.249,2.984,7.462,-0.188
11179,-0.0184,0.0055,0.0021,-1.34,0.27,0.23,0.249,4.842,7.412,-0.130
11189,-0.0256,0.0038,0.0029,-1.30,0.23,0.23,0.248,6.056,9.656,-0.268
11201,-0.0259,0.0050,0.0036,-1.27,0.16,0.23,0.248,7.574,5.166,-0.551
11210,-0.0239,0.0077,-0.0008,-1.23,0.07,0.22,0.248,11.880,7.119,-0.078
11220,-0.0291,0.0102,-0.0001,-1.17,0.01,0.22,0.248,12.264,7.298,-0.735
11231,-0.0289,0.0119,0.0003,-1.10,-0.05,0.21,0.248,7.588,6.098,-0.551
11240,-0.0269,0.0132,0.0006,-0.98,-0.12,0.21,0.252,5.388,6.787,0.053
11250,-0.0250,0.0150,0.0010,-0.86,-0.21,0.20,0.252,6.426,6.901,-0.201
11260,-0.0279,0.0153,0.0072,-0.78,-0.25,0.20,0.252,7.693,6.906,-0.371
11270,-0.0240,0.0201,0.0076,-0.73,-0.35,0.20,0.252,8.149,4.353,-0.180
11279,-0.0234,0.0214,0.0080,-0.66,-0.42,0.19,0.252,4.528,4.393,-0.077
11289,-0.0213,0.0223,0.0084,-0.58,-0.49,0.19,0.250,1.419,6.814,0.720
11300,-0.0225,0.0220,0.0089,-0.51,-0.52,0.19,0.250,5.791,7.522,0.575
11310,-0.0283,0.0219,0.0096,-0.46,-0.53,0.19,0.250,3.952,4.739,0.541
11320,-0.0287,0.0228,0.0100,-0.44,-0.59,0.19,0.250,6.581,6.280,0.030
11330,-0.0295,0.0223,0.0101,-0.38,-0.65,0.19,0.250,11.747,4.340,0.232
11339,-0.0282,0.0229,0.0103,-0.33,-0.70,0.20,0.250,8.436,0.478,-0.037
11350,-0.0256,0.0228,0.0106,-0.26,-0.78,0.20,0.250,9.848,3.651,0.631
11360,-0.0202,0.0246,0.0082,-0.17,-0.84,0.21,0.250,10.906,4.691,0.608
11370,-0.0161,0.0244,0.0084,-0.08,-0.87,0.21,0.250,7.054,1.837,0.376
11380,-0.0183,0.0239,0.0087,0.02,-0.88,0.21,0.250,7.379,3.401,0.377
11389,-0.0160,0.0238,0.0091,0.11,-0.91,0.22,0.252,7.311,2.382,0.426
11399,-0.0136,0.0235,0.0095,0.19,-0.93,0.22,0.252,7.218,2.030,0.212
11409,-0.0129,0.0231,0.0130,0.27,-0.96,0.22,0.252,5.471,1.447,0.284
11420,-0.0112,0.0227,0.0125,0.32,-0.98,0.23,0.252,4.348,0.530,0.032
11429,-0.0095,0.0221,0.0121,0.38,-1.00,0.23,0.252,3.439,-0.065,0.144
11439,-0.0075,0.0235,0.0121,0.42,-1.02,0.23,0.252,2.058,-0.309,0.132
11449,-0.0056,0.0199,0.0123,0.48,-1.03,0.23,0.252,0.002,-1.145,-0.438
11460,-0.0037,0.0199,0.0131,0.51,-1.03,0.23,0.252,-0.144,-2.486,0.288
11469,-0.0020,0.0190,0.0128,0.53,-1.04,0.23,0.252,-0.812,-2.775,0.606
11479,-0.0005,0.0192,0.0129,0.54,-1.03,0.23,0.252,3.217,-1.764,0.761
11490,0.0008,0.0161,0.0133,0.57,-1.01,0.23,0.252,-0.356,-3.156,0.559
11499,0.0022,0.0125,0.0136,0.59,-0.98,0.24,0.252,1.935,-2.852,0.615
11510,0.0039,0.0115,0.0124,0.61,-0.95,0.25,0.252,1.568,-5.594,0.543
11520,0.0055,0.0105,0.0124,0.63,-0.92,0.25,0.252,2.752,-3.715,0.122
11529,0.0078,0.0106,0.0126,0.64,-0.88,0.26,0.252,2.414,-5.518,-0.192
11540,0.0093,0.0095,0.0128,0.64,-0.83,0.26,0.254,-1.292,-6.387,0.234
11550,0.0108,0.0084,0.0126,0.67,-0.79,0.26,0.254,-0.250,-4.036,-0.423
11560,0.0167,0.0049,0.0127,0.70,-0.77,0.26,0.254,-1.137,-6.202,-0.427
11570,0.0180,0.0037,0.0125,0.70,-0.72,0.26,0.254,-4.859,-5.958,-0.322
11580,0.0180,0.0042,0.0125,0.70,-0.67,0.26,0.254,-1.697,-6.305,-0.509
11589,0.0212,0.0000,0.0126,0.70,-0.62,0.25,0.252,-2.987,-5.148,-0.689
11599,0.0223,-0.0011,0.0127,0.66,-0.56,0.25,0.252,-5.331,-8.189,-0.956
11610,0.0253,-0.0035,0.0087,0.64,-0.51,0.25,0.252,-3.537,-4.834,-0.387
11620,0.0262,-0.0046,0.0084,0.62,-0.46,0.24,0.252,-4.936,-8.801,-0.602
11630,0.0309,-0.0085,0.0084,0.58,-0.40,0.23,0.252,-2.344,-6.972,-0.582
11639,0.0309,-0.0084,0.0086,0.54,-0.35,0.23,0.256,-7.115,-9.516,-1.217
11650,0.0276,-0.0123,0.0085,0.51,-0.25,0.22,0.256,-2.291,-7.323,-1.391
11660,0.0257,-0.0153,0.0119,0.50,-0.16,0.22,0.256,-4.244,-7.776,-1.749
11669,0.0293,-0.0153,0.0115,0.43,-0.10,0.20,0.256,-7.375,-11.186,-1.236
11679,0.0221,-0.0184,0.0112,0.42,0.03,0.19,0.256,-4.883,-8.549,-1.633
11690,0.0321,-0.0173,0.0111,0.36,0.05,0.18,0.252,-9.025,-9.981,-1.565
11700,0.0320,-0.0180,0.0108,0.29,0.15,0.16,0.252,-8.679,-9.601,-1.462
11709,0.0363,-0.0200,0.0022,0.25,0.21,0.14,0.252,-5.213,-7.061,-1.209
11719,0.0351,-0.0202,0.0018,0.17,0.31,0.13,0.252,-7.447,-4.576,-1.534
11729,0.0323,-0.0226,0.0019,0.09,0.42,0.11,0.252,-9.162,-5.725,-1.695
11739,0.0299,-0.0227,0.0020,0.03,0.50,0.10,0.252,-10.173,-8.036,-1.780
11749,0.0290,-0.0227,0.0020,-0.04,0.55,0.09,0.252,-8.292,-7.717,-2.450
11759,0.0277,-0.0257,-0.0007,-0.11,0.61,0.07,0.252,-8.684,-6.872,-2.160
11769,0.0266,-0.0255,-0.0010,-0.21,0.68,0.05,0.252,-8.040,-3.845,-1.902
11779,0.0254,-0.0266,-0.0007,-0.29,0.75,0.03,0.252,-5.599,-2.111,-2.208
11790,0.0241,-0.0261,-0.0002,-0.38,0.81,0.01,0.254,-2.913,-4.349,-2.353
11800,0.0271,-0.0293,-0.0000,-0.43,0.82,-0.01,0.254,-6.750,-1.644,-2.493
11809,0.0240,-0.0307,0.0007,-0.47,0.86,-0.04,0.254,-9.264,-5.950,-2.315
11819,0.0215,-0.0315,0.0009,-0.50,0.90,-0.06,0.254,-4.458,-3.766,-2.327
11829,0.0183,-0.0300,0.0013,-0.57,0.93,-0.09,0.254,-4.302,-2.147,-2.518
11839,0.0167,-0.0290,0.0019,-0.66,0.99,-0.11,0.247,-5.531,-2.832,-2.210
11849,0.0150,-0.0279,0.0023,-0.70,1.03,-0.13,0.247,-9.570,-1.909,-2.209
11859,0.0124,-0.0286,-0.0120,-0.74,1.06,-0.15,0.247,-8.923,-3.172,-2.867
11870,0.0042,-0.0286,-0.0119,-0.79,1.12,-0.18,0.247,-6.102,3.493,-1.939
11879,0.0054,-0.0249,-0.0114,-0.90,1.12,-0.20,0.247,-6.336,2.284,-1.798
11890,0.0040,-0.0234,-0.0109,-0.98,1.15,-0.22,0.250,-7.868,3.250,-2.552
11899,0.0039,-0.0254,-0.0105,-1.03,1.11,-0.25,0.250,-2.016,1.676,-2.578
11910,0.0025,-0.0252,-0.0110,-1.09,1.08,-0.27,0.250,-3.949,2.293,-3.073
11919,0.0008,-0.0259,-0.0103,-1.15,1.05,-0.30,0.250,-1.317,6.428,-2.758
11930,-0.0005,-0.0206,-0.0093,-1.19,1.03,-0.32,0.250,-1.521,8.573,-2.592
11940,-0.0013,-0.0195,-0.0085,-1.22,1.00,-0.35,0.249,-1.868,3.602,-2.089
11949,-0.0033,-0.0166,-0.0080,-1.24,0.93,-0.38,0.249,-1.412,3.015,-1.968
11959,-0.0078,-0.0136,-0.0092,-1.26,0.87,-0.41,0.249,0.567,7.061,-2.278
11969,-0.0102,-0.0108,-0.0085,-1.29,0.84,-0.44,0.249,-1.450,5.518,-2.218
11979,-0.0120,-0.0084,-0.0079,-1.29,0.80,-0.46,0.249,-3.753,3.847,-1.904
11989,-0.0133,-0.0062,-0.0074,-1.29,0.74,-0.48,0.250,-3.032,5.544,-2.031
12000,-0.0168,-0.0052,-0.0066,-1.30,0.69,-0.50,0.250,0.756,6.687,-1.555
12010,-0.0173,-0.0034,-0.0011,-1.34,0.64,-0.52,0.250,3.781,6.526,-1.497
12019,-0.0185,-0.0011,-0.0004,-1.37,0.58,-0.55,0.250,4.465,5.308,-2.429
12029,-0.0179,-0.0010,0.0007,-1.35,0.50,-0.56,0.250,5.636,4.456,-2.101
12039,-0.0188,0.0013,0.0016,-1.31,0.44,-0.58,0.250,5.807,6.385,-1.451
12050,-0.0195,0.0036,0.0027,-1.27,0.40,-0.61,0.250,6.484,10.314,-1.446
12060,-0.0256,0.0049,0.0057,-1.22,0.38,-0.63,0.250,6.178,9.302,-2.234
12070,-0.0291,0.0093,0.0063,-1.17,0.33,-0.64,0.250,6.438,9.626,-1.812
12079,-0.0290,0.0101,0.0069,-1.10,0.23,-0.66,0.250,3.294,6.081,-1.622
12090,-0.0294,0.0120,0.0078,-1.04,0.14,-0.69,0.255,2.560,10.251,-1.898
12099,-0.0330,0.0130,0.0087,-0.98,0.06,-0.71,0.255,5.472,8.828,-1.222
12109,-0.0340,0.0175,0.0191,-0.95,-0.01,-0.73,0.255,4.019,9.166,-0.821
12119,-0.0339,0.0192,0.0198,-0.92,-0.11,-0.74,0.255,5.263,10.070,-0.954
12129,-0.0337,0.0207,0.0203,-0.88,-0.19,-0.76,0.255,6.164,6.380,-1.140
12139,-0.0306,0.0225,0.0209,-0.83,-0.29,-0.77,0.248,8.339,10.156,-0.731
12149,-0.0281,0.0239,0.0213,-0.79,-0.39,-0.78,0.248,7.768,10.810,-1.008
12159,-0.0303,0.0230,0.0098,-0.72,-0.44,-0.79,0.248,6.722,6.967,-0.719
12168,-0.0269,0.0240,0.0098,-0.64,-0.55,-0.80,0.248,9.526,8.233,-0.845
12179,-0.0293,0.0251,0.0100,-0.57,-0.63,-0.81,0.248,9.114,11.100,-0.729
12189,-0.0278,0.0238,0.0101,-0.48,-0.71,-0.82,0.250,9.102,7.715,-1.390
12199,-0.0292,0.0295,0.0096,-0.42,-0.78,-0.83,0.250,10.556,5.444,-1.084
12209,-0.0276,0.0278,0.0073,-0.32,-0.89,-0.84,0.250,8.866,5.683,-0.710
12219,-0.0296,0.0276,0.0073,-0.22,-0.94,-0.85,0.250,7.769,5.086,-0.017
12229,-0.0245,0.0275,0.0074,-0.11,-1.02,-0.86,0.250,7.344,4.175,0.128
12239,-0.0212,0.0290,0.0071,-0.03,-1.09,-0.86,0.250,7.266,4.499,-0.143
12249,-0.0215,0.0271,0.0065,0.06,-1.13,-0.86,0.250,6.421,2.543,-0.242
12259,-0.0183,0.0267,0.0044,0.14,-1.18,-0.86,0.250,5.568,2.052,-0.501
12269,-0.0163,0.0265,0.0045,0.21,-1.22,-0.87,0.250,3.717,2.502,0.181
