time_ms,vel_x,vel_y,vel_z,roll,pitch,yaw,range_z,gyro_x,gyro_y,gyro_z,ekf_x,ekf_y,acc_x,acc_y,acc_z,ref_x,ref_y,ref_z,est_x,est_y
0,0.0064,-0.0322,0.0078,-0.07,0.01,-0.03,0.009,-0.080,0.126,-0.015,0.0065,0.0082,0.0043,-0.0090,1.0049,0.0000,0.0000,0.3000,0.0000,0.0000
9,-0.0005,-0.0653,0.0062,0.19,0.07,-0.03,0.009,-0.113,-0.040,-0.103,0.0067,0.0098,0.0008,-0.0134,1.0048,0.0000,0.0000,0.3000,0.0000,0.0000
19,-0.0005,-0.0541,0.0082,0.09,0.07,-0.03,0.009,-0.082,-0.192,-0.156,0.0061,0.0081,-0.0012,-0.0128,1.0085,0.0000,0.0000,0.3000,0.0000,0.0000
29,0.0008,-0.0443,0.0098,-0.00,0.07,-0.03,0.009,0.106,0.619,0.033,0.0072,0.0081,-0.0012,-0.0092,1.0042,0.0000,0.0000,0.3000,0.0000,0.0000
39,-0.0025,-0.0516,0.0097,0.05,0.09,-0.03,0.009,-0.019,-0.746,0.327,0.0063,0.0081,0.0061,-0.0124,1.0013,0.0000,0.0000,0.3000,0.0000,0.0000
50,0.0035,-0.0497,0.0046,0.02,0.05,-0.03,0.009,-0.763,-1.182,-0.683,0.0061,0.0066,-0.0052,-0.0138,1.0047,0.0000,0.0000,0.3000,0.0000,0.0000
59,-0.0010,-0.0481,0.0053,0.00,0.09,-0.03,0.009,-0.949,0.460,1.167,0.0063,0.0100,-0.0026,-0.0220,1.0070,0.0000,0.0000,0.3000,0.0000,0.0000
70,-0.0024,-0.0545,0.0056,0.04,0.09,-0.03,0.011,-1.859,1.369,1.186,0.0062,0.0096,0.0023,-0.0183,0.9941,0.0000,0.0000,0.3000,0.0000,0.0000
79,-0.0014,-0.0348,0.0082,-0.12,0.08,-0.03,0.011,-1.112,-0.623,-0.820,0.0063,0.0069,-0.0015,-0.0092,1.0076,0.0000,0.0000,0.3000,0.0000,0.0000
89,-0.0015,-0.0346,0.0086,-0.13,0.09,-0.03,0.011,-0.757,0.268,-0.995,0.0060,0.0068,-0.0017,-0.0013,0.9964,0.0000,0.0000,0.3000,0.0000,0.0000
100,-0.0014,-0.0463,0.0079,-0.04,0.08,-0.03,0.011,0.034,-0.342,-0.109,0.0063,0.0082,0.0065,-0.0034,1.0024,0.0000,0.0000,0.3000,0.0000,0.0000
109,-0.0027,-0.0447,0.0088,-0.06,0.08,-0.03,0.011,-1.966,0.994,1.109,0.0076,0.0110,-0.0025,-0.0191,1.0115,0.0000,0.0000,0.3000,0.0000,0.0000
119,-0.0015,-0.0351,0.0091,-0.15,0.08,-0.03,0.010,-1.862,1.093,-1.038,0.0076,0.0104,0.0013,-0.0215,1.0186,0.0000,0.0000,0.3000,0.0000,0.0000
129,0.0054,-0.0190,0.0100,-0.28,0.02,-0.04,0.010,-4.721,1.241,1.103,0.0086,0.0107,0.0080,0.0000,0.9828,0.0000,0.0000,0.3000,0.0000,0.0000
139,0.0051,-0.0208,0.0102,-0.26,0.03,-0.04,0.010,-3.720,1.567,5.624,0.0079,0.0124,0.0029,-0.0153,1.0251,0.0000,0.0000,0.3000,0.0000,0.0000
150,0.0095,-0.0178,0.0063,-0.30,-0.02,-0.03,0.010,-2.651,1.994,4.894,0.0084,0.0127,0.0077,-0.0231,1.0277,0.0000,0.0000,0.3000,0.0000,0.0000
159,0.0057,-0.0078,0.0069,-0.40,0.00,-0.04,0.010,-4.681,2.698,0.612,0.0084,0.0126,-0.0007,-0.0223,1.0181,0.0000,0.0000,0.3000,0.0000,0.0000
169,0.0078,-0.0053,0.0087,-0.46,-0.03,-0.03,0.010,-6.125,0.832,0.466,0.0083,0.0092,0.0017,-0.0253,1.0221,0.0000,0.0000,0.3000,0.0000,0.0000
179,0.0079,-0.0045,0.0083,-0.49,-0.04,0.02,0.010,-13.866,5.389,1.179,0.0127,0.0075,0.0090,-0.0266,1.0485,0.0000,0.0000,0.3000,0.0000,0.0000
189,0.0066,-0.0210,0.0093,-0.38,-0.04,0.07,0.010,-17.934,1.239,0.574,0.0202,0.0127,0.0071,-0.0171,1.0527,0.0000,0.0000,0.3000,0.0000,0.0000
199,0.0291,-0.0280,0.0084,-0.35,-0.25,0.07,0.010,-20.375,-2.763,-1.264,0.0211,0.0136,0.0101,-0.0067,1.0711,0.0000,0.0000,0.3000,0.0000,0.0000
209,0.0665,0.0006,0.0092,-0.63,-0.56,0.05,0.010,-23.491,-11.954,-0.722,0.0213,0.0144,0.0187,-0.0061,1.1051,0.0000,0.0000,0.3000,0.0000,0.0000
219,0.0685,0.0059,0.0106,-0.80,-0.62,0.06,0.009,-30.897,-15.533,3.853,0.0278,0.0136,0.0111,-0.0294,1.0898,0.0000,0.0000,0.3000,0.0000,0.0000
229,0.0665,0.0113,0.0147,-1.00,-0.60,0.07,0.009,-39.946,-19.099,6.193,0.0338,0.0170,0.0060,-0.0312,1.1074,0.0000,0.0000,0.3000,0.0000,0.0000
240,0.0987,0.0077,0.0160,-1.19,-0.80,0.04,0.009,-53.161,-19.123,4.998,0.0395,0.0212,0.0185,-0.0182,1.1528,0.0000,0.0000,0.3000,0.0000,0.0000
251,0.1262,0.0269,0.0138,-1.57,-0.89,0.03,0.009,-47.812,-22.430,6.234,0.0401,0.0224,0.0197,-0.0085,1.1547,0.0000,0.0000,0.3000,0.0000,0.0000
259,0.1504,0.0499,0.0165,-2.04,-0.92,0.06,0.009,-35.194,-36.490,5.868,0.0413,0.0251,0.0119,-0.0064,1.1702,0.0000,0.0000,0.3000,0.0000,0.0000
270,0.1474,0.0574,0.0266,-2.46,-0.69,0.13,0.012,-25.379,-33.874,3.622,0.0408,0.0260,0.0028,-0.0158,1.1712,0.0000,0.0000,0.3000,0.0000,0.0000
279,0.1473,0.0728,0.0343,-3.07,-0.49,0.19,0.012,-22.092,-34.015,1.905,0.0475,0.0349,0.0067,-0.0256,1.1552,0.0000,0.0000,0.3000,0.0000,0.0000
289,0.1376,0.0793,0.0505,-3.54,-0.18,0.27,0.012,-17.464,-33.035,5.229,0.0487,0.0386,0.0214,-0.0277,1.1292,0.0000,0.0000,0.3000,0.0000,0.0000
299,0.1657,0.1274,0.0570,-4.21,-0.04,0.33,0.012,0.771,-27.973,8.491,0.0493,0.0413,0.0171,-0.0184,1.1508,0.0000,0.0000,0.3000,0.0000,0.0000
309,0.1632,0.1480,0.0695,-4.56,0.31,0.39,0.012,15.200,-30.174,9.062,0.0508,0.0430,0.0010,-0.0161,1.1937,0.0000,0.0000,0.3000,0.0000,0.0000
320,0.1612,0.1666,0.0825,-4.85,0.66,0.43,0.000,26.666,-32.240,9.611,0.0515,0.0383,0.0048,-0.0187,1.1961,0.0000,0.0000,0.3000,0.0000,0.0000
329,0.1553,0.1719,0.1007,-4.98,1.00,0.51,0.000,39.716,-14.434,7.217,0.0511,0.0406,0.0021,-0.0244,1.1779,0.0000,0.0000,0.3000,0.0000,0.0000
339,0.1523,0.1502,0.1273,-4.75,1.29,0.62,0.000,42.860,2.851,7.128,0.0517,0.0461,0.0074,-0.0218,1.1687,0.0000,0.0000,0.3000,0.0000,0.0000
349,0.1371,0.1602,0.1109,-4.62,1.68,0.74,0.000,37.789,11.027,5.818,0.0515,0.0486,0.0107,-0.0191,1.1482,0.0000,0.0000,0.3000,0.0000,0.0000
359,0.1294,0.1884,0.1235,-4.48,2.01,0.85,0.000,38.636,9.413,3.394,0.0514,0.0546,0.0054,-0.0256,1.1305,0.0000,0.0000,0.3000,0.0000,0.0000
369,0.1181,0.2001,0.1426,-4.10,2.20,0.92,0.000,31.605,6.743,4.657,0.0499,0.0556,0.0059,-0.0252,1.1337,0.0000,0.0000,0.3000,0.0000,0.0000
379,0.1069,0.2283,0.1532,-3.85,2.21,0.99,0.000,25.289,10.404,6.684,0.0499,0.0616,0.0013,-0.0235,1.1336,0.0000,0.0000,0.3000,0.0000,0.0000
389,0.0937,0.2346,0.1713,-3.45,2.18,1.03,0.000,25.326,5.639,5.975,0.0486,0.0644,-0.0006,-0.0221,1.1229,0.0000,0.0000,0.3000,0.0000,0.0000
399,0.0819,0.2546,0.1455,-3.19,2.13,1.07,0.000,24.218,4.192,5.572,0.0479,0.0663,-0.0045,-0.0204,1.1129,0.0000,0.0000,0.3000,0.0000,0.0000
409,0.0670,0.2615,0.1589,-2.89,2.14,1.10,0.000,15.049,11.456,2.566,0.0484,0.0673,-0.0018,-0.0228,1.1016,0.0000,0.0000,0.3000,0.0000,0.0000
419,0.0561,0.2628,0.1733,-2.59,2.09,1.14,0.019,10.217,9.098,3.620,0.0497,0.0676,0.0019,-0.0204,1.0967,0.0000,0.0000,0.3000,0.0000,0.0000
429,0.0515,0.2586,0.1902,-2.28,2.02,1.18,0.019,11.180,5.722,2.566,0.0549,0.0714,0.0016,-0.0236,1.0914,0.0000,0.0000,0.3000,0.0000,0.0000
439,0.0517,0.2495,0.2081,-1.96,1.92,1.23,0.019,6.081,9.928,3.555,0.0525,0.0779,0.0048,-0.0240,1.0802,0.0000,0.0000,0.3000,0.0000,0.0000
449,0.0731,0.2604,0.2203,-1.87,1.62,1.30,0.019,-0.764,8.630,2.905,0.0535,0.0790,0.0046,-0.0241,1.0689,0.0000,0.0000,0.3000,0.0000,0.0000
459,0.0538,0.2841,0.2251,-1.92,1.66,1.33,0.019,-0.752,10.188,3.434,0.0538,0.0804,0.0055,-0.0148,1.0684,0.0000,0.0000,0.3000,0.0000,0.0000
469,0.0530,0.2780,0.2385,-1.74,1.58,1.35,0.035,7.082,12.360,2.877,0.0584,0.0808,0.0038,-0.0116,1.0638,0.0000,0.0000,0.3000,0.0000,0.0000
478,0.0488,0.2736,0.2508,-1.62,1.50,1.36,0.035,12.929,12.910,1.743,0.0578,0.0822,0.0118,-0.0151,1.0510,0.0000,0.0000,0.3000,0.0000,0.0000
489,0.0673,0.2622,0.2640,-1.52,1.26,1.40,0.035,12.157,12.502,2.249,0.0633,0.0811,0.0087,-0.0126,1.0418,0.0000,0.0000,0.3000,0.0000,0.0000
499,0.0588,0.2592,0.2779,-1.45,1.20,1.41,0.035,12.757,13.703,3.675,0.0625,0.0820,0.0044,-0.0122,1.0314,0.0000,0.0000,0.3000,0.0000,0.0000
509,0.0824,0.2421,0.2883,-1.21,0.88,1.44,0.035,15.956,11.049,3.854,0.0648,0.0841,0.0012,-0.0146,1.0236,0.0000,0.0000,0.3000,0.0000,0.0000
519,0.0726,0.2359,0.2983,-1.02,0.81,1.44,0.059,17.343,12.294,4.296,0.0637,0.0886,0.0013,-0.0152,1.0179,0.0000,0.0000,0.3000,0.0000,0.0000
529,0.0795,0.2365,0.3030,-0.89,0.62,1.47,0.059,19.206,8.661,4.083,0.0632,0.0893,0.0058,-0.0154,1.0113,0.0000,0.0000,0.3000,0.0000,0.0000
538,0.0665,0.2407,0.3083,-0.78,0.58,1.49,0.059,16.334,4.891,5.002,0.0619,0.0910,0.0081,-0.0179,1.0001,0.0000,0.0000,0.3000,0.0000,0.0000
549,0.0603,0.2386,0.3392,-0.57,0.50,1.52,0.059,13.703,-2.337,5.274,0.0615,0.0909,0.0038,-0.0224,0.9950,0.0000,0.0000,0.3000,0.0000,0.0000
560,0.0496,0.2361,0.3437,-0.37,0.47,1.54,0.059,13.066,-4.181,5.372,0.0638,0.0862,0.0052,-0.0229,0.9911,0.0000,0.0000,0.3000,0.0000,0.0000
569,0.0441,0.2233,0.3500,-0.08,0.42,1.57,0.078,13.708,-4.918,4.595,0.0632,0.0870,0.0087,-0.0216,0.9921,0.0000,0.0000,0.3000,0.0000,0.0000
579,0.0532,0.1864,0.3612,0.38,0.31,1.59,0.078,15.009,-5.294,4.604,0.0606,0.0809,0.0042,-0.0167,0.9954,0.0000,0.0000,0.3000,0.0000,0.0000
589,0.0467,0.1785,0.3638,0.57,0.38,1.64,0.078,15.088,-6.446,3.208,0.0604,0.0811,0.0015,-0.0161,0.9825,0.0000,0.0000,0.3000,0.0000,0.0000
599,0.0297,0.1369,0.3763,1.02,0.55,1.65,0.078,10.179,-4.863,3.644,0.0588,0.0825,0.0046,-0.0174,0.9789,0.0000,0.0000,0.3000,0.0000,0.0000
609,0.0264,0.1290,0.3762,1.21,0.62,1.69,0.078,7.102,-5.720,3.725,0.0621,0.0866,0.0089,-0.0169,0.9670,0.0000,0.0000,0.3000,0.0000,0.0000
619,0.0156,0.1280,0.3756,1.35,0.76,1.73,0.102,4.908,-9.281,2.593,0.0611,0.0883,0.0088,-0.0203,0.9613,0.0000,0.0000,0.3000,0.0002,0.0013
629,0.0314,0.1404,0.3730,1.39,0.69,1.78,0.102,0.228,-13.248,2.786,0.0608,0.0888,0.0090,-0.0233,0.9552,0.0000,0.0000,0.3000,0.0005,0.0027
639,0.0227,0.1346,0.3727,1.51,0.79,1.81,0.102,-3.406,-10.945,2.089,0.0625,0.0881,0.0102,-0.0211,0.9487,0.0000,0.0000,0.3000,0.0007,0.0040
649,0.0194,0.1313,0.3915,1.59,0.86,1.84,0.102,-6.531,-7.108,1.584,0.0616,0.0859,0.0090,-0.0165,0.9429,0.0000,0.0000,0.3000,0.0009,0.0053
661,0.0260,0.1180,0.3898,1.72,0.89,1.86,0.102,-7.782,1.857,0.563,0.0621,0.0860,0.0056,-0.0136,0.9406,0.0000,0.0000,0.3000,0.0012,0.0065
669,0.0190,0.0977,0.3882,1.85,1.06,1.87,0.122,-10.337,7.650,-0.505,0.0605,0.0839,0.0056,-0.0141,0.9384,0.0000,0.0000,0.3000,0.0013,0.0075
679,0.0188,0.0902,0.3842,1.85,1.16,1.88,0.122,-10.525,13.568,-1.061,0.0606,0.0846,0.0070,-0.0115,0.9310,0.0000,0.0000,0.3000,0.0015,0.0084
689,0.0111,0.0737,0.3804,1.89,1.27,1.89,0.122,-11.630,18.089,-2.007,0.0605,0.0854,0.0072,-0.0106,0.9290,0.0000,0.0000,0.3000,0.0016,0.0091
699,0.0060,0.0684,0.3803,1.83,1.27,1.90,0.122,-10.385,21.183,-2.170,0.0605,0.0857,0.0048,-0.0121,0.9254,0.0000,0.0000,0.3000,0.0017,0.0098
709,0.0036,0.0663,0.3744,1.72,1.20,1.90,0.122,-9.539,20.602,-2.857,0.0624,0.0856,0.0079,-0.0123,0.9227,0.0000,0.0000,0.3000,0.0017,0.0105
719,0.0019,0.0617,0.3685,1.62,1.07,1.89,0.135,-8.187,20.314,-3.249,0.0629,0.0802,0.0086,-0.0124,0.9199,0.0000,0.0000,0.3000,0.0018,0.0111
729,0.0098,0.0557,0.3620,1.53,0.81,1.86,0.135,-6.557,18.776,-3.492,0.0624,0.0804,0.0055,-0.0149,0.9167,0.0000,0.0000,0.3000,0.0019,0.0117
739,0.0106,0.0242,0.3563,1.65,0.60,1.82,0.135,-4.540,16.912,-3.318,0.0626,0.0805,0.0094,-0.0158,0.9165,0.0000,0.0000,0.3000,0.0020,0.0119
749,0.0070,0.0210,0.3482,1.56,0.41,1.80,0.135,-1.939,13.546,-4.305,0.0626,0.0806,0.0131,-0.0187,0.9144,0.0000,0.0000,0.3000,0.0020,0.0121
759,0.0067,0.0182,0.3406,1.47,0.21,1.78,0.135,-3.147,9.832,-4.652,0.0639,0.0807,0.0123,-0.0179,0.9139,0.0000,0.0000,0.3000,0.0021,0.0123
769,0.0065,0.0158,0.3328,1.41,0.02,1.75,0.143,-2.782,5.875,-4.996,0.0641,0.0833,0.0109,-0.0156,0.9121,0.0000,0.0000,0.3000,0.0022,0.0125
779,0.0123,0.0133,0.3246,1.37,-0.19,1.71,0.143,-2.440,2.018,-4.733,0.0643,0.0835,0.0117,-0.0146,0.9117,0.0000,0.0000,0.3000,0.0023,0.0126
789,0.0128,0.0246,0.3162,1.24,-0.33,1.67,0.143,-3.477,-1.128,-4.915,0.0648,0.0829,0.0122,-0.0135,0.9123,0.0000,0.0000,0.3000,0.0024,0.0128
798,0.0133,0.0218,0.2797,1.22,-0.42,1.63,0.143,-3.993,-3.336,-4.952,0.0638,0.0832,0.0120,-0.0111,0.9121,0.0000,0.0000,0.3000,0.0025,0.0130
809,0.0159,0.0162,0.2713,1.22,-0.49,1.57,0.143,-6.082,-5.035,-4.999,0.0639,0.0848,0.0085,-0.0138,0.9101,0.0000,0.0000,0.3000,0.0027,0.0132
819,0.0110,0.0149,0.2629,1.19,-0.46,1.54,0.159,-8.269,-4.703,-4.539,0.0635,0.0852,0.0051,-0.0136,0.9102,0.0000,0.0000,0.3000,0.0028,0.0134
829,0.0120,0.0201,0.2541,1.10,-0.45,1.49,0.159,-5.663,-5.115,-6.256,0.0620,0.0853,0.0072,-0.0140,0.9121,0.0000,0.0000,0.3000,0.0029,0.0136
838,0.0099,0.0192,0.2455,1.05,-0.39,1.45,0.159,-7.086,-5.892,-6.575,0.0629,0.0838,0.0082,-0.0114,0.9117,0.0000,0.0000,0.3000,0.0030,0.0138
849,0.0037,0.0174,0.2338,1.00,-0.29,1.41,0.159,-8.289,-1.846,-5.035,0.0631,0.0833,0.0094,-0.0138,0.9103,0.0000,0.0000,0.3000,0.0031,0.0139
859,0.0079,0.0086,0.2252,0.97,-0.27,1.36,0.159,-3.730,-5.191,-4.830,0.0631,0.0830,0.0085,-0.0147,0.9118,0.0000,0.0000,0.3000,0.0031,0.0140
869,0.0087,0.0043,0.2165,0.93,-0.21,1.29,0.168,-5.957,0.321,-4.535,0.0652,0.0833,0.0117,-0.0185,0.9140,0.0000,0.0000,0.3000,0.0032,0.0141
879,0.0087,0.0013,0.2078,0.88,-0.16,1.22,0.168,-5.509,1.119,-5.948,0.0637,0.0885,0.0090,-0.0158,0.9132,0.0000,0.0000,0.3000,0.0033,0.0141
889,0.0176,0.0014,0.1990,0.79,-0.20,1.16,0.168,-4.501,0.689,-6.289,0.0638,0.0882,0.0083,-0.0148,0.9207,0.0000,0.0000,0.3000,0.0035,0.0141
899,0.0107,0.0227,0.1789,0.57,-0.10,1.12,0.168,-1.031,-0.054,-6.706,0.0623,0.0883,0.0067,-0.0122,0.9236,0.0000,0.0000,0.3000,0.0036,0.0143
909,0.0107,0.0195,0.1703,0.53,-0.09,1.07,0.168,-1.275,3.243,-5.252,0.0621,0.0884,0.0061,-0.0141,0.9230,0.0000,0.0000,0.3000,0.0037,0.0145
919,0.0043,0.0183,0.1619,0.48,-0.04,1.02,0.176,2.169,0.570,-6.375,0.0619,0.0882,0.0054,-0.0118,0.9300,0.0000,0.0000,0.3000,0.0038,0.0147
928,0.0032,0.0171,0.1534,0.45,-0.05,0.97,0.176,2.859,2.020,-6.753,0.0617,0.0901,0.0062,-0.0143,0.9330,0.0000,0.0000,0.3000,0.0038,0.0149
939,0.0024,0.0149,0.1455,0.44,-0.06,0.91,0.176,0.635,0.661,-4.304,0.0604,0.0900,0.0068,-0.0126,0.9307,0.0000,0.0000,0.3000,0.0038,0.0150
948,0.0013,0.0211,0.1343,0.38,-0.08,0.85,0.176,-0.500,5.873,-5.512,0.0602,0.0901,0.0097,-0.0163,0.9299,0.0000,0.0000,0.3000,0.0038,0.0152
959,-0.0038,0.0195,0.1268,0.41,-0.05,0.79,0.176,-0.175,4.050,-4.458,0.0600,0.0904,0.0088,-0.0156,0.9340,0.0000,0.0000,0.3000,0.0038,0.0154
970,-0.0046,0.0182,0.1198,0.43,-0.05,0.73,0.178,-0.414,2.464,-5.066,0.0600,0.0907,0.0098,-0.0182,0.9374,0.0000,0.0000,0.3000,0.0037,0.0156
978,-0.0049,0.0181,0.1132,0.43,-0.08,0.68,0.178,1.177,3.233,-5.390,0.0583,0.0907,0.0111,-0.0166,0.9406,0.0000,0.0000,0.3000,0.0037,0.0158
989,-0.0048,0.0174,0.1064,0.44,-0.12,0.63,0.178,-0.287,0.756,-4.512,0.0589,0.0898,0.0087,-0.0134,0.9461,0.0000,0.0000,0.3000,0.0036,0.0160
998,-0.0112,0.0163,0.0847,0.45,-0.11,0.58,0.178,1.293,-0.113,-5.417,0.0562,0.0898,0.0073,-0.0121,0.9469,0.0000,0.0000,0.3000,0.0035,0.0161
1009,-0.0079,0.0114,0.0782,0.47,-0.16,0.53,0.178,-0.595,-0.130,-4.879,0.0568,0.0898,0.0085,-0.0122,0.9490,0.0000,0.0000,0.3000,0.0035,0.0162
1019,-0.0180,0.0102,0.0719,0.48,-0.10,0.49,0.184,-0.319,-1.381,-4.388,0.0577,0.0926,0.0103,-0.0137,0.9491,0.0000,0.0000,0.3000,0.0033,0.0163
1028,-0.0149,0.0090,0.0661,0.49,-0.12,0.44,0.184,1.033,-1.085,-4.857,0.0573,0.0908,0.0101,-0.0147,0.9528,0.0000,0.0000,0.3000,0.0031,0.0164
1039,-0.0107,0.0189,0.0606,0.42,-0.15,0.38,0.184,0.375,-0.133,-4.249,0.0579,0.0920,0.0076,-0.0117,0.9546,0.0000,0.0000,0.3000,0.0030,0.0166
1048,-0.0115,0.0104,0.0546,0.47,-0.13,0.33,0.184,0.736,-0.225,-3.701,0.0579,0.0930,0.0085,-0.0164,0.9581,0.0000,0.0000,0.3000,0.0029,0.0167
1058,-0.0086,0.0141,0.0495,0.44,-0.14,0.28,0.184,0.630,0.412,-3.545,0.0579,0.0927,0.0067,-0.0154,0.9643,0.0000,0.0000,0.3000,0.0028,0.0169
1070,-0.0081,0.0165,0.0445,0.42,-0.13,0.23,0.184,1.613,0.813,-2.988,0.0549,0.0931,0.0065,-0.0134,0.9668,0.0000,0.0000,0.3000,0.0027,0.0170
1078,-0.0077,0.0141,0.0399,0.45,-0.12,0.19,0.184,1.856,1.119,-3.051,0.0548,0.0932,0.0053,-0.0119,0.9658,0.0000,0.0000,0.3000,0.0027,0.0172
1089,-0.0182,0.0140,0.0353,0.45,-0.04,0.17,0.184,-0.165,2.750,-3.052,0.0551,0.0921,0.0059,-0.0127,0.9687,0.0000,0.0000,0.3000,0.0025,0.0173
1098,-0.0181,0.0133,0.0243,0.46,-0.03,0.13,0.184,-0.064,1.946,-3.186,0.0548,0.0918,0.0066,-0.0174,0.9708,0.0000,0.0000,0.3000,0.0023,0.0174
1108,-0.0161,0.0082,0.0208,0.52,-0.05,0.10,0.184,0.109,1.700,-3.177,0.0535,0.0918,0.0089,-0.0173,0.9728,0.0000,0.0000,0.3000,0.0021,0.0175
1118,-0.0164,0.0058,0.0175,0.54,-0.06,0.07,0.187,0.105,2.591,-2.849,0.0528,0.0921,0.0060,-0.0133,0.9774,0.0000,0.0000,0.3000,0.0020,0.0176
1129,-0.0207,0.0047,0.0142,0.56,-0.06,0.04,0.187,3.292,1.322,-3.192,0.0500,0.0921,0.0102,-0.0148,0.9786,0.0000,0.0000,0.3000,0.0018,0.0176
1138,-0.0223,0.0050,0.0111,0.56,-0.07,0.01,0.187,2.529,3.843,-3.059,0.0511,0.0920,0.0107,-0.0153,0.9794,0.0000,0.0000,0.3000,0.0015,0.0177
1149,-0.0314,0.0038,0.0094,0.55,-0.02,-0.01,0.187,1.272,2.088,-3.173,0.0508,0.0908,0.0094,-0.0150,0.9811,0.0000,0.0000,0.3000,0.0012,0.0177
1158,-0.0263,0.0025,0.0069,0.57,-0.08,-0.04,0.187,-1.060,-0.970,-1.981,0.0505,0.0908,0.0096,-0.0152,0.9822,0.0000,0.0000,0.3000,0.0010,0.0177
1169,-0.0262,-0.0026,0.0046,0.63,-0.10,-0.07,0.185,-1.573,1.055,-2.377,0.0509,0.0905,0.0068,-0.0150,0.9865,0.0000,0.0000,0.3000,0.0007,0.0177
1178,-0.0260,-0.0037,0.0025,0.65,-0.13,-0.10,0.185,-0.690,0.724,-1.964,0.0455,0.0913,0.0078,-0.0130,0.9868,0.0000,0.0000,0.3000,0.0004,0.0177
1188,-0.0238,-0.0057,0.0006,0.67,-0.16,-0.14,0.185,-1.022,0.636,-1.633,0.0439,0.0913,0.0058,-0.0146,0.9901,0.0000,0.0000,0.3000,0.0002,0.0176
1198,-0.0412,-0.0037,-0.0059,0.62,-0.02,-0.14,0.185,-0.628,1.172,-1.982,0.0440,0.0918,0.0078,-0.0139,0.9918,0.0000,0.0000,0.3000,-0.0002,0.0176
1208,-0.0450,-0.0045,-0.0077,0.60,0.00,-0.16,0.185,-0.449,1.584,-1.737,0.0444,0.0914,0.0097,-0.0138,0.9919,0.0000,0.0000,0.3000,-0.0007,0.0175
1218,-0.0433,-0.0038,-0.0091,0.58,-0.02,-0.18,0.184,-0.425,2.128,-1.693,0.0449,0.0914,0.0072,-0.0142,0.9931,0.0000,0.0000,0.3000,-0.0011,0.0175
1228,-0.0403,-0.0059,-0.0103,0.58,-0.04,-0.20,0.184,0.643,3.245,-1.614,0.0442,0.0914,0.0091,-0.0183,0.9960,0.0000,0.0000,0.3000,-0.0015,0.0174
1238,-0.0373,-0.0066,-0.0112,0.57,-0.08,-0.22,0.184,0.661,4.594,-1.964,0.0456,0.0906,0.0059,-0.0161,0.9989,0.0000,0.0000,0.3000,-0.0019,0.0174
1248,-0.0383,-0.0072,-0.0156,0.57,-0.09,-0.24,0.184,-0.492,5.315,-1.141,0.0388,0.0914,0.0062,-0.0159,0.9990,0.0000,0.0000,0.3000,-0.0023,0.0173
1258,-0.0324,-0.0107,-0.0163,0.59,-0.15,-0.26,0.184,-0.286,4.670,-1.789,0.0382,0.0913,0.0058,-0.0160,0.9997,0.0000,0.0000,0.3000,-0.0026,0.0172
1268,-0.0534,-0.0086,-0.0173,0.57,-0.04,-0.25,0.186,1.794,2.219,-2.557,0.0377,0.0912,0.0064,-0.0162,0.9975,0.0000,0.0000,0.3000,-0.0031,0.0171
1278,-0.0534,-0.0095,-0.0177,0.58,-0.08,-0.27,0.186,-0.756,6.695,-0.865,0.0392,0.0911,0.0097,-0.0159,0.9976,0.0000,0.0000,0.3000,-0.0036,0.0170
1288,-0.0532,-0.0105,-0.0179,0.58,-0.12,-0.29,0.186,1.819,2.927,-1.160,0.0391,0.0912,0.0118,-0.0126,1.0014,0.0000,0.0000,0.3000,-0.0042,0.0169
1298,-0.0464,-0.0114,-0.0132,0.60,-0.20,-0.31,0.186,2.119,2.135,-1.289,0.0384,0.0911,0.0104,-0.0140,1.0013,0.0000,0.0000,0.3000,-0.0046,0.0168
1309,-0.0450,-0.0118,-0.0133,0.60,-0.26,-0.33,0.186,1.845,0.399,-0.731,0.0372,0.0911,0.0075,-0.0155,1.0029,0.0000,0.0000,0.3000,-0.0051,0.0167
1318,-0.0454,-0.0126,-0.0135,0.60,-0.30,-0.34,0.181,0.313,0.771,-0.284,0.0364,0.0915,0.0070,-0.0161,1.0048,0.0000,0.0000,0.3000,-0.0055,0.0165
1328,-0.0473,-0.0133,-0.0138,0.61,-0.31,-0.35,0.181,1.711,2.646,-0.203,0.0338,0.0920,0.0091,-0.0129,1.0074,0.0000,0.0000,0.3000,-0.0060,0.0164
1338,-0.0478,-0.0126,-0.0137,0.60,-0.31,-0.36,0.181,-3.142,3.549,0.445,0.0359,0.0920,0.0061,-0.0120,1.0087,0.0000,0.0000,0.3000,-0.0065,0.0163
1348,-0.0539,-0.0116,-0.0206,0.61,-0.28,-0.36,0.181,1.474,-0.771,-1.764,0.0354,0.0918,0.0044,-0.0136,1.0086,0.0000,0.0000,0.3000,-0.0070,0.0162
1359,-0.0454,-0.0124,-0.0202,0.62,-0.35,-0.37,0.181,1.743,0.946,0.272,0.0355,0.0908,0.0080,-0.0162,1.0086,0.0000,0.0000,0.3000,-0.0075,0.0160
1368,-0.0448,-0.0134,-0.0198,0.61,-0.38,-0.37,0.182,1.547,2.800,-2.209,0.0357,0.0918,0.0101,-0.0169,1.0082,0.0000,0.0000,0.3000,-0.0079,0.0159
1379,-0.0425,-0.0171,-0.0190,0.61,-0.41,-0.37,0.182,1.998,1.672,-0.319,0.0345,0.0922,0.0056,-0.0180,1.0091,0.0000,0.0000,0.3000,-0.0084,0.0157
1388,-0.0401,-0.0147,-0.0181,0.61,-0.41,-0.39,0.182,0.324,-0.911,0.505,0.0360,0.0921,0.0059,-0.0133,1.0070,0.0000,0.0000,0.3000,-0.0088,0.0156
1398,-0.0419,-0.0138,-0.0170,0.61,-0.42,-0.39,0.182,2.229,0.192,-0.883,0.0361,0.0926,0.0054,-0.0109,1.0091,0.0000,0.0000,0.3000,-0.0092,0.0155
1408,-0.0349,-0.0145,-0.0161,0.63,-0.47,-0.41,0.182,0.071,1.359,0.430,0.0366,0.0921,0.0097,-0.0136,1.0073,0.0000,0.0000,0.3000,-0.0095,0.0153
1418,-0.0328,-0.0137,-0.0152,0.63,-0.49,-0.42,0.180,-0.298,2.933,-0.079,0.0368,0.0917,0.0114,-0.0149,1.0074,0.0000,0.0000,0.3000,-0.0099,0.0152
1428,-0.0292,-0.0159,-0.0143,0.65,-0.50,-0.41,0.180,0.409,-1.322,0.170,0.0370,0.0922,0.0087,-0.0129,1.0100,0.0000,0.0000,0.3000,-0.0102,0.0150
1438,-0.0271,-0.0179,-0.0136,0.67,-0.51,-0.42,0.180,2.687,0.759,-0.479,0.0367,0.0920,0.0060,-0.0137,1.0082,0.0000,0.0000,0.3000,-0.0104,0.0148
1448,-0.0248,-0.0167,-0.0156,0.67,-0.53,-0.42,0.180,-0.821,0.291,0.761,0.0365,0.0918,0.0069,-0.0169,1.0100,0.0000,0.0000,0.3000,-0.0107,0.0147
1459,-0.0239,-0.0179,-0.0148,0.66,-0.54,-0.41,0.180,-1.256,-1.840,0.767,0.0363,0.0916,0.0096,-0.0165,1.0118,0.0000,0.0000,0.3000,-0.0109,0.0145
1469,-0.0230,-0.0190,-0.0141,0.67,-0.54,-0.41,0.182,0.825,-0.449,0.192,0.0360,0.0925,0.0076,-0.0179,1.0106,0.0000,0.0000,0.3000,-0.0111,0.0143
1480,-0.0220,-0.0202,-0.0131,0.69,-0.56,-0.41,0.182,0.751,-1.171,0.578,0.0359,0.0923,0.0055,-0.0155,1.0072,0.0000,0.0000,0.3000,-0.0114,0.0141
1488,-0.0236,-0.0171,-0.0122,0.66,-0.54,-0.41,0.182,2.987,-2.847,-0.234,0.0369,0.0929,0.0029,-0.0176,1.0076,0.0000,0.0000,0.3000,-0.0116,0.0139
1497,-0.0202,-0.0192,-0.0070,0.66,-0.53,-0.40,0.182,1.321,-2.746,0.717,0.0369,0.0923,0.0055,-0.0199,1.0079,0.0000,0.0000,0.3000,-0.0118,0.0137
1508,-0.0155,-0.0180,-0.0058,0.65,-0.55,-0.40,0.182,-0.629,-3.733,1.309,0.0368,0.0918,0.0063,-0.0130,1.0088,0.0000,0.0000,0.3000,-0.0120,0.0136
1518,-0.0144,-0.0203,-0.0048,0.68,-0.52,-0.40,0.181,1.183,-2.294,0.863,0.0377,0.0929,0.0050,-0.0126,1.0087,0.0000,0.0000,0.3000,-0.0121,0.0134
1528,-0.0133,-0.0223,-0.0042,0.71,-0.50,-0.40,0.181,-0.747,-3.573,0.770,0.0366,0.0884,0.0079,-0.0145,1.0105,0.0000,0.0000,0.3000,-0.0122,0.0131
1538,-0.0093,-0.0194,-0.0033,0.68,-0.49,-0.39,0.181,-0.252,-2.977,0.710,0.0376,0.0889,0.0054,-0.0174,1.0067,0.0000,0.0000,0.3000,-0.0123,0.0129
1548,-0.0115,-0.0335,-0.0018,0.77,-0.43,-0.37,0.181,-1.069,-5.446,0.871,0.0375,0.0886,0.0050,-0.0149,1.0095,0.0000,0.0000,0.3000,-0.0124,0.0126
1558,-0.0078,-0.0334,-0.0010,0.76,-0.42,-0.37,0.181,-1.120,-2.176,0.806,0.0374,0.0882,0.0040,-0.0152,1.0077,0.0000,0.0000,0.3000,-0.0125,0.0123
1568,-0.0071,-0.0347,-0.0001,0.75,-0.38,-0.36,0.181,0.548,-2.346,0.885,0.0373,0.0875,0.0016,-0.0151,1.0080,0.0000,0.0000,0.3000,-0.0126,0.0119
1578,-0.0064,-0.0360,0.0009,0.74,-0.36,-0.35,0.181,0.747,0.782,1.009,0.0373,0.0875,0.0033,-0.0165,1.0093,0.0000,0.0000,0.3000,-0.0127,0.0116
1589,-0.0058,-0.0373,0.0016,0.73,-0.33,-0.34,0.181,0.405,-1.682,0.952,0.0384,0.0876,0.0040,-0.0169,1.0068,0.0000,0.0000,0.3000,-0.0127,0.0112
1599,-0.0053,-0.0385,0.0031,0.72,-0.31,-0.32,0.181,-1.898,-1.639,1.615,0.0384,0.0872,0.0074,-0.0151,1.0055,0.0000,0.0000,0.3000,-0.0128,0.0108
1608,-0.0012,-0.0381,0.0039,0.72,-0.32,-0.32,0.181,0.174,-0.781,0.917,0.0395,0.0875,0.0062,-0.0099,1.0078,0.0000,0.0000,0.3000,-0.0128,0.0104
1618,-0.0007,-0.0393,0.0047,0.71,-0.31,-0.30,0.179,-2.518,-0.199,1.668,0.0405,0.0877,0.0040,-0.0131,1.0093,0.0000,0.0000,0.3000,-0.0128,0.0100
1628,0.0030,-0.0385,0.0055,0.70,-0.32,-0.29,0.179,-2.203,-0.855,1.762,0.0383,0.0880,0.0066,-0.0184,1.0068,0.0000,0.0000,0.3000,-0.0128,0.0096
1638,0.0065,-0.0381,0.0062,0.68,-0.32,-0.28,0.179,0.030,-1.350,1.369,0.0404,0.0883,0.0096,-0.0164,1.0081,0.0000,0.0000,0.3000,-0.0127,0.0093
1648,0.0002,-0.0371,0.0022,0.67,-0.26,-0.26,0.179,-1.720,-1.602,2.503,0.0405,0.0879,0.0089,-0.0162,1.0084,0.0000,0.0000,0.3000,-0.0127,0.0089
1658,0.0069,-0.0363,0.0031,0.64,-0.29,-0.25,0.179,-1.712,-0.499,2.451,0.0403,0.0854,0.0059,-0.0151,1.0082,0.0000,0.0000,0.3000,-0.0126,0.0085
1668,0.0074,-0.0374,0.0039,0.63,-0.29,-0.23,0.179,-4.025,-0.133,2.559,0.0414,0.0835,0.0057,-0.0161,1.0073,0.0000,0.0000,0.3000,-0.0125,0.0082
1678,0.0073,-0.0448,0.0045,0.66,-0.28,-0.21,0.179,-4.059,0.345,2.384,0.0413,0.0845,0.0048,-0.0130,1.0064,0.0000,0.0000,0.3000,-0.0125,0.0077
1687,0.0106,-0.0502,0.0052,0.67,-0.30,-0.19,0.179,-1.976,-0.850,2.086,0.0407,0.0871,0.0056,-0.0117,1.0036,0.0000,0.0000,0.3000,-0.0124,0.0072
1698,0.0106,-0.0469,0.0032,0.60,-0.29,-0.16,0.179,-1.890,-0.612,2.488,0.0396,0.0875,0.0058,-0.0099,1.0107,0.0000,0.0000,0.3000,-0.0123,0.0067
1708,0.0091,-0.0390,0.0041,0.52,-0.28,-0.14,0.179,-2.209,-1.387,2.037,0.0379,0.0929,0.0042,-0.0116,1.0121,0.0000,0.0000,0.3000,-0.0122,0.0063
1718,0.0060,-0.0364,0.0049,0.47,-0.26,-0.12,0.176,-2.517,-2.463,1.900,0.0379,0.0945,0.0057,-0.0152,1.0066,0.0000,0.0000,0.3000,-0.0121,0.0060
1728,0.0014,-0.0214,0.0057,0.36,-0.22,-0.10,0.176,-0.204,-1.073,2.444,0.0372,0.0954,0.0043,-0.0124,1.0065,0.0000,0.0000,0.3000,-0.0121,0.0058
1738,0.0015,-0.0161,0.0062,0.29,-0.22,-0.08,0.176,0.563,-1.220,2.983,0.0361,0.0959,0.0026,-0.0132,1.0086,0.0000,0.0000,0.3000,-0.0121,0.0056
1748,-0.0001,-0.0139,-0.0018,0.25,-0.19,-0.06,0.176,0.091,-0.029,2.795,0.0387,0.0961,0.0047,-0.0117,1.0105,0.0000,0.0000,0.3000,-0.0121,0.0055
1758,-0.0030,-0.0121,-0.0007,0.22,-0.15,-0.04,0.176,1.554,0.107,2.803,0.0350,0.1012,0.0033,-0.0140,1.0102,0.0000,0.0000,0.3000,-0.0121,0.0053
1767,0.0049,-0.0120,0.0000,0.21,-0.19,-0.02,0.179,-0.702,-1.027,3.100,0.0350,0.1021,-0.0004,-0.0134,1.0095,0.0000,0.0000,0.3000,-0.0121,0.0052
1778,-0.0057,0.0032,0.0006,0.11,-0.11,0.01,0.179,1.919,-0.571,3.165,0.0350,0.1031,0.0019,-0.0137,1.0096,0.0000,0.0000,0.3000,-0.0121,0.0053
1789,-0.0052,0.0057,0.0014,0.09,-0.11,0.04,0.179,2.226,-1.237,3.440,0.0325,0.1040,0.0017,-0.0137,1.0099,0.0000,0.0000,0.3000,-0.0122,0.0053
1798,-0.0050,0.0084,0.0038,0.08,-0.10,0.07,0.179,3.352,1.094,2.990,0.0400,0.0985,0.0030,-0.0125,1.0069,0.0000,0.0000,0.3000,-0.0122,0.0054
1808,-0.0122,0.0107,0.0048,0.07,-0.04,0.11,0.179,2.749,-0.932,2.677,0.0380,0.0949,0.0049,-0.0139,1.0081,0.0000,0.0000,0.3000,-0.0123,0.0055
1819,0.0107,-0.0065,0.0061,0.20,-0.18,0.13,0.178,3.127,-0.091,2.804,0.0381,0.0947,0.0022,-0.0119,1.0078,0.0000,0.0000,0.3000,-0.0122,0.0054
1828,0.0048,-0.0174,0.0071,0.30,-0.14,0.17,0.178,3.220,0.046,3.444,0.0381,0.0957,0.0043,-0.0136,1.0103,0.0000,0.0000,0.3000,-0.0122,0.0053
1837,0.0050,-0.0179,0.0081,0.33,-0.14,0.20,0.178,2.404,0.736,3.155,0.0381,0.0961,0.0043,-0.0140,1.0098,0.0000,0.0000,0.3000,-0.0121,0.0051
1848,0.0051,-0.0151,0.0066,0.34,-0.14,0.23,0.178,2.055,-0.126,3.169,0.0380,0.0976,0.0043,-0.0131,1.0141,0.0000,0.0000,0.3000,-0.0121,0.0049
1858,0.0051,-0.0139,0.0074,0.35,-0.14,0.26,0.178,1.489,0.385,2.781,0.0381,0.0975,0.0039,-0.0155,1.0139,0.0000,0.0000,0.3000,-0.0120,0.0048
1867,0.0052,-0.0097,0.0083,0.35,-0.13,0.29,0.175,0.499,-0.745,3.202,0.0437,0.0960,0.0058,-0.0188,1.0100,0.0000,0.0000,0.3000,-0.0120,0.0047
1878,0.0054,-0.0103,0.0092,0.38,-0.14,0.32,0.175,-2.128,-2.209,3.232,0.0446,0.0970,0.0052,-0.0167,1.0068,0.0000,0.0000,0.3000,-0.0119,0.0046
1890,0.0224,-0.0152,0.0101,0.42,-0.25,0.35,0.175,-2.364,-2.229,3.383,0.0429,0.0982,0.0021,-0.0149,1.0096,0.0000,0.0000,0.3000,-0.0117,0.0044
1897,0.0247,-0.0121,0.0024,0.41,-0.25,0.38,0.175,-2.542,-1.934,3.209,0.0483,0.0943,0.0043,-0.0126,1.0084,0.0000,0.0000,0.3000,-0.0115,0.0043
1908,0.0194,-0.0091,0.0038,0.38,-0.21,0.41,0.175,-1.818,-3.427,2.908,0.0482,0.0920,0.0039,-0.0121,1.0049,0.0000,0.0000,0.3000,-0.0113,0.0042
1917,0.0353,-0.0210,0.0044,0.44,-0.29,0.44,0.174,-2.257,-3.054,3.126,0.0469,0.0917,0.0040,-0.0142,1.0090,0.0000,0.0000,0.3000,-0.0109,0.0040
1928,0.0342,-0.0280,0.0050,0.46,-0.26,0.48,0.174,-2.284,-2.297,3.005,0.0471,0.0919,0.0042,-0.0151,1.0140,0.0000,0.0000,0.3000,-0.0106,0.0037
1937,0.0299,-0.0289,0.0061,0.44,-0.20,0.51,0.174,-3.875,-2.912,3.142,0.0499,0.0927,0.0072,-0.0168,1.0127,0.0000,0.0000,0.3000,-0.0103,0.0035
1948,0.0300,-0.0280,-0.0010,0.40,-0.17,0.54,0.174,-2.192,-1.497,2.563,0.0496,0.0934,0.0057,-0.0147,1.0091,0.0000,0.0000,0.3000,-0.0100,0.0032
1958,0.0376,-0.0257,-0.0005,0.36,-0.18,0.57,0.174,-2.464,-1.933,2.963,0.0494,0.0964,0.0063,-0.0110,1.0085,0.0000,0.0000,0.3000,-0.0096,0.0029
1968,0.0361,-0.0234,0.0005,0.31,-0.14,0.60,0.176,-1.548,-1.362,3.117,0.0522,0.0884,0.0080,-0.0124,1.0114,0.0000,0.0000,0.3000,-0.0092,0.0027
1978,0.0347,-0.0142,0.0020,0.22,-0.11,0.62,0.176,-1.057,-1.523,2.787,0.0530,0.0882,0.0028,-0.0123,1.0113,0.0000,0.0000,0.3000,-0.0089,0.0025
1988,0.0422,-0.0381,0.0028,0.35,-0.14,0.66,0.176,-0.575,-1.605,2.997,0.0537,0.0879,0.0024,-0.0117,1.0133,0.0000,0.0000,0.3000,-0.0085,0.0022
1998,0.0435,-0.0384,0.0037,0.33,-0.13,0.68,0.176,-1.832,-2.767,3.211,0.0555,0.0857,0.0033,-0.0137,1.0152,0.0000,0.0000,0.3000,-0.0080,0.0018
2007,0.0447,-0.0387,0.0046,0.31,-0.12,0.72,0.176,-0.614,-2.060,2.735,0.0567,0.0808,0.0045,-0.0161,1.0153,0.0000,0.0000,0.3000,-0.0076,0.0014
2018,0.0487,-0.0447,0.0055,0.34,-0.13,0.75,0.175,-0.805,-2.612,3.045,0.0569,0.0824,0.0084,-0.0114,1.0152,0.0000,0.0000,0.3000,-0.0071,0.0009
2029,0.0511,-0.0587,0.0062,0.42,-0.12,0.78,0.175,-0.197,-2.097,2.418,0.0585,0.0821,0.0045,-0.0099,1.0146,0.0000,0.0000,0.3000,-0.0066,0.0004
2038,0.0505,-0.0528,0.0079,0.36,-0.09,0.81,0.175,-0.897,-1.426,2.708,0.0592,0.0786,0.0063,-0.0118,1.0153,0.0000,0.0000,0.3000,-0.0061,-0.0002
2048,0.0540,-0.0526,0.0067,0.35,-0.09,0.84,0.175,-0.850,-2.121,2.477,0.0598,0.0780,0.0060,-0.0104,1.0115,0.0000,0.0000,0.3000,-0.0055,-0.0007
2058,0.0548,-0.0623,0.0079,0.41,-0.08,0.86,0.175,-2.454,-3.094,3.104,0.0596,0.0777,0.0042,-0.0148,1.0124,0.0000,0.0000,0.3000,-0.0050,-0.0013
2068,0.0549,-0.0630,0.0093,0.40,-0.06,0.89,0.178,-2.760,-3.492,1.857,0.0603,0.0771,0.0055,-0.0141,1.0166,0.0000,0.0000,0.3000,-0.0044,-0.0019
2078,0.0527,-0.0625,0.0109,0.39,-0.02,0.91,0.178,-3.751,-5.012,1.629,0.0628,0.0774,0.0079,-0.0134,1.0122,0.0000,0.0000,0.3000,-0.0039,-0.0026
2088,0.0532,-0.0632,0.0124,0.37,0.01,0.94,0.178,-5.122,-5.516,1.842,0.0642,0.0777,0.0046,-0.0117,1.0089,0.0000,0.0000,0.3000,-0.0034,-0.0032
2097,0.0592,-0.0610,0.0176,0.33,0.00,0.96,0.178,-6.209,-4.374,1.835,0.0643,0.0771,0.0054,-0.0150,1.0086,0.0000,0.0000,0.3000,-0.0028,-0.0038
2108,0.0620,-0.0587,0.0189,0.27,0.03,0.98,0.178,-6.456,-3.873,2.111,0.0646,0.0721,0.0049,-0.0121,1.0059,0.0000,0.0000,0.3000,-0.0022,-0.0044
2117,0.0604,-0.0591,0.0204,0.23,0.09,1.00,0.177,-7.046,-3.620,1.796,0.0647,0.0734,0.0047,-0.0139,1.0091,0.0000,0.0000,0.3000,-0.0016,-0.0050
2128,0.0591,-0.0733,0.0212,0.27,0.14,1.02,0.177,-4.786,-3.337,0.940,0.0681,0.0703,0.0051,-0.0119,1.0098,0.0000,0.0000,0.3000,-0.0010,-0.0057
2137,0.0576,-0.0675,0.0224,0.17,0.20,1.04,0.177,-5.104,-2.494,1.514,0.0674,0.0702,0.0039,-0.0133,1.0115,0.0000,0.0000,0.3000,-0.0004,-0.0064
2148,0.0659,-0.0753,0.0209,0.16,0.19,1.05,0.177,-4.224,-1.480,0.930,0.0677,0.0696,0.0068,-0.0125,1.0066,0.0000,0.0000,0.3000,0.0003,-0.0072
2158,0.0614,-0.0737,0.0217,0.09,0.25,1.07,0.177,-1.853,-0.302,0.551,0.0675,0.0703,0.0061,-0.0132,1.0066,0.0000,0.0000,0.3000,0.0009,-0.0079
2168,0.0597,-0.0732,0.0227,0.04,0.29,1.08,0.181,-1.246,-0.788,0.451,0.0678,0.0705,0.0068,-0.0104,1.0086,0.0000,0.0000,0.3000,0.0015,-0.0086
2178,0.0569,-0.0688,0.0240,-0.04,0.33,1.09,0.181,-1.106,-1.571,0.869,0.0713,0.0672,0.0026,-0.0108,1.0078,0.0000,0.0000,0.3000,0.0020,-0.0093
2188,0.0555,-0.0659,0.0252,-0.09,0.35,1.10,0.181,-2.131,-1.289,0.878,0.0715,0.0674,0.0006,-0.0089,1.0058,0.0000,0.0000,0.3000,0.0026,-0.0100
2199,0.0639,-0.0740,0.0306,-0.06,0.30,1.10,0.181,-1.674,0.639,0.568,0.0718,0.0676,0.0028,-0.0126,1.0037,0.0000,0.0000,0.3000,0.0032,-0.0107
2208,0.0622,-0.0710,0.0314,-0.10,0.32,1.11,0.181,0.266,-1.808,0.304,0.0735,0.0639,0.0063,-0.0144,1.0028,0.0000,0.0000,0.3000,0.0039,-0.0114
2218,0.0606,-0.0680,0.0324,-0.14,0.33,1.12,0.181,-1.088,0.065,1.056,0.0743,0.0624,0.0093,-0.0138,1.0056,0.0000,0.0000,0.3000,0.0045,-0.0121
2228,0.0636,-0.0772,0.0328,-0.09,0.32,1.13,0.181,-1.198,-3.300,-0.246,0.0750,0.0629,0.0055,-0.0150,1.0045,0.0000,0.0000,0.3000,0.0051,-0.0129
2237,0.0634,-0.0797,0.0332,-0.08,0.33,1.13,0.181,-2.008,-1.930,0.312,0.0756,0.0631,0.0028,-0.0140,1.0057,0.0000,0.0000,0.3000,0.0057,-0.0137
2248,0.0631,-0.0752,0.0334,-0.11,0.33,1.14,0.181,-2.898,-2.178,0.707,0.0764,0.0611,0.0065,-0.0142,1.0084,0.0000,0.0000,0.3000,0.0064,-0.0144
2258,0.0626,-0.0721,0.0338,-0.15,0.35,1.14,0.181,-2.313,-3.450,-0.167,0.0771,0.0588,0.0055,-0.0151,1.0054,0.0000,0.0000,0.3000,0.0070,-0.0151
2268,0.0624,-0.0757,0.0342,-0.13,0.37,1.14,0.179,-3.299,-3.831,-0.155,0.0785,0.0591,0.0057,-0.0136,1.0027,0.0000,0.0000,0.3000,0.0076,-0.0159
2277,0.0624,-0.0757,0.0342,-0.13,0.37,1.14,0.179,-3.654,-2.001,-0.228,0.0792,0.0584,0.0049,-0.0151,0.9999,0.0000,0.0000,0.3000,0.0082,-0.0167
2288,0.0615,-0.0803,0.0350,-0.14,0.41,1.15,0.179,-4.107,-2.899,-0.368,0.0769,0.0598,0.0026,-0.0152,0.9990,0.0000,0.0000,0.3000,0.0089,-0.0175
2300,0.0635,-0.0765,0.0274,-0.18,0.43,1.14,0.179,-1.927,-1.067,-0.652,0.0806,0.0593,0.0035,-0.0158,1.0007,0.0000,0.0000,0.3000,0.0095,-0.0182
2308,0.0532,-0.0690,0.0282,-0.27,0.52,1.14,0.179,0.091,-5.913,-1.492,0.0804,0.0590,0.0027,-0.0182,1.0012,0.0000,0.0000,0.3000,0.0100,-0.0189
2318,0.0626,-0.0680,0.0283,-0.31,0.48,1.14,0.183,-1.762,-2.033,-0.491,0.0818,0.0591,0.0047,-0.0178,1.0028,0.0000,0.0000,0.3000,0.0106,-0.0196
2328,0.0593,-0.0662,0.0284,-0.35,0.51,1.14,0.183,-1.900,-2.219,-0.857,0.0822,0.0576,0.0026,-0.0165,1.0021,0.0000,0.0000,0.3000,0.0112,-0.0203
2338,0.0611,-0.0632,0.0284,-0.37,0.53,1.13,0.183,-1.049,-2.301,-1.020,0.0821,0.0565,0.0058,-0.0116,1.0024,0.0000,0.0000,0.3000,0.0119,-0.0209
2347,0.0593,-0.0655,0.0292,-0.36,0.58,1.11,0.183,-3.107,0.163,0.034,0.0826,0.0558,0.0044,-0.0139,1.0012,0.0000,0.0000,0.3000,0.0124,-0.0215
2358,0.0559,-0.0664,0.0293,-0.37,0.60,1.11,0.183,-2.904,2.373,-0.298,0.0830,0.0560,0.0007,-0.0138,0.9981,0.0000,0.0000,0.3000,0.0130,-0.0222
2368,0.0549,-0.0658,0.0295,-0.38,0.63,1.10,0.184,-2.970,1.309,0.017,0.0842,0.0562,0.0050,-0.0114,0.9982,0.0000,0.0000,0.3000,0.0136,-0.0229
2377,0.0532,-0.0623,0.0298,-0.43,0.64,1.10,0.184,-2.120,1.211,-0.473,0.0834,0.0568,0.0051,-0.0147,0.9994,0.0000,0.0000,0.3000,0.0141,-0.0235
2388,0.0546,-0.0589,0.0299,-0.48,0.61,1.10,0.184,0.833,-0.284,-0.472,0.0829,0.0578,0.0016,-0.0153,0.9949,0.0000,0.0000,0.3000,0.0146,-0.0241
2397,0.0488,-0.0542,0.0295,-0.53,0.61,1.10,0.184,-1.150,0.966,-0.229,0.0871,0.0558,0.0054,-0.0172,0.9938,0.0000,0.0000,0.3000,0.0151,-0.0246
2408,0.0447,-0.0483,0.0293,-0.60,0.63,1.10,0.184,-0.826,2.288,0.465,0.0876,0.0553,0.0062,-0.0145,0.9982,0.0000,0.0000,0.3000,0.0156,-0.0251
2418,0.0559,-0.0523,0.0290,-0.57,0.54,1.10,0.182,-0.434,-0.525,0.582,0.0876,0.0568,0.0048,-0.0136,0.9968,0.0000,0.0000,0.3000,0.0161,-0.0256
2427,0.0549,-0.0513,0.0288,-0.56,0.54,1.09,0.182,1.914,-0.782,0.524,0.0888,0.0547,-0.0012,-0.0115,0.9963,0.0000,0.0000,0.3000,0.0167,-0.0261
2437,0.0521,-0.0441,0.0283,-0.62,0.53,1.10,0.182,2.828,-2.168,0.058,0.0892,0.0525,0.0023,-0.0167,0.9975,0.0000,0.0000,0.3000,0.0172,-0.0266
2448,0.0535,-0.0483,0.0198,-0.58,0.51,1.09,0.182,1.339,-2.620,0.260,0.0891,0.0512,0.0077,-0.0124,0.9982,0.0000,0.0000,0.3000,0.0177,-0.0271
2457,0.0521,-0.0529,0.0195,-0.54,0.52,1.10,0.182,1.940,-2.636,-0.314,0.0890,0.0499,0.0051,-0.0110,0.9989,0.0000,0.0000,0.3000,0.0183,-0.0276
2468,0.0491,-0.0546,0.0191,-0.50,0.54,1.10,0.186,0.142,-1.752,0.263,0.0892,0.0504,0.0044,-0.0124,1.0007,0.0000,0.0000,0.3000,0.0187,-0.0281
2478,0.0461,-0.0561,0.0188,-0.47,0.59,1.10,0.186,0.382,-5.431,0.103,0.0912,0.0509,0.0035,-0.0121,1.0005,0.0000,0.0000,0.3000,0.0192,-0.0287
2488,0.0445,-0.0520,0.0186,-0.48,0.61,1.10,0.186,0.103,-5.102,0.901,0.0893,0.0517,0.0058,-0.0104,1.0013,0.0000,0.0000,0.3000,0.0196,-0.0292
2498,0.0486,-0.0478,0.0204,-0.49,0.60,1.10,0.186,0.722,-3.310,0.219,0.0924,0.0514,0.0047,-0.0132,1.0010,0.0000,0.0000,0.3000,0.0201,-0.0297
2507,0.0395,-0.0426,0.0205,-0.52,0.69,1.10,0.186,-0.998,-2.808,0.665,0.0929,0.0510,0.0078,-0.0148,1.0011,0.0000,0.0000,0.3000,0.0205,-0.0301
2518,0.0475,-0.0414,0.0205,-0.52,0.66,1.12,0.186,-1.895,-2.506,1.019,0.0936,0.0511,0.0083,-0.0167,0.9996,0.0000,0.0000,0.3000,0.0210,-0.0305
2528,0.0463,-0.0405,0.0205,-0.52,0.71,1.12,0.186,-1.301,-1.917,0.031,0.0943,0.0508,0.0029,-0.0136,1.0004,0.0000,0.0000,0.3000,0.0215,-0.0309
2537,0.0459,-0.0380,0.0207,-0.53,0.73,1.13,0.186,-1.746,-0.511,0.414,0.0942,0.0505,0.0033,-0.0130,1.0035,0.0000,0.0000,0.3000,0.0219,-0.0313
2548,0.0456,-0.0369,0.0197,-0.54,0.75,1.13,0.186,-1.581,-2.103,0.516,0.0946,0.0497,0.0053,-0.0158,1.0039,0.0000,0.0000,0.3000,0.0224,-0.0317
2558,0.0424,-0.0359,0.0197,-0.56,0.78,1.14,0.186,-1.380,-2.024,0.545,0.0941,0.0489,0.0046,-0.0122,1.0008,0.0000,0.0000,0.3000,0.0228,-0.0320
2568,0.0409,-0.0363,0.0196,-0.57,0.79,1.14,0.183,-1.510,-1.169,0.057,0.0966,0.0478,0.0050,-0.0126,1.0005,0.0000,0.0000,0.3000,0.0232,-0.0324
2577,0.0362,-0.0366,0.0197,-0.58,0.82,1.14,0.183,-0.979,-0.678,0.405,0.0956,0.0466,0.0061,-0.0130,0.9992,0.0000,0.0000,0.3000,0.0236,-0.0328
2588,0.0419,-0.0382,0.0200,-0.58,0.78,1.15,0.183,0.569,0.447,0.594,0.0947,0.0480,0.0049,-0.0158,0.9994,0.0000,0.0000,0.3000,0.0240,-0.0332
2598,0.0360,-0.0400,0.0108,-0.58,0.83,1.15,0.183,0.536,-0.597,0.308,0.0951,0.0480,0.0045,-0.0174,1.0001,0.0000,0.0000,0.3000,0.0244,-0.0336
2609,0.0301,-0.0331,0.0109,-0.63,0.87,1.15,0.183,0.639,-0.339,0.260,0.0950,0.0476,0.0068,-0.0142,1.0028,0.0000,0.0000,0.3000,0.0247,-0.0339
2617,0.0290,-0.0309,0.0109,-0.63,0.87,1.16,0.181,0.479,0.247,0.650,0.0945,0.0480,0.0055,-0.0112,1.0045,0.0000,0.0000,0.3000,0.0249,-0.0342
2628,0.0264,-0.0302,0.0108,-0.62,0.88,1.16,0.181,0.110,-0.599,0.731,0.0983,0.0481,-0.0007,-0.0153,1.0053,0.0000,0.0000,0.3000,0.0252,-0.0345
2637,0.0224,-0.0267,0.0107,-0.63,0.89,1.17,0.181,-0.604,-1.019,0.095,0.0986,0.0479,0.0032,-0.0160,1.0040,0.0000,0.0000,0.3000,0.0254,-0.0348
2648,0.0328,-0.0244,-0.0006,-0.63,0.81,1.18,0.181,0.293,-0.618,-0.074,0.0981,0.0479,0.0065,-0.0172,1.0040,0.0000,0.0000,0.3000,0.0258,-0.0350
2658,0.0328,-0.0244,-0.0006,-0.63,0.81,1.18,0.181,1.136,1.834,-0.416,0.0984,0.0477,0.0075,-0.0159,1.0047,0.0000,0.0000,0.3000,0.0261,-0.0353
2667,0.0286,-0.0224,-0.0003,-0.64,0.83,1.19,0.182,2.020,1.900,-0.325,0.0988,0.0491,0.0068,-0.0147,1.0066,0.0000,0.0000,0.3000,0.0264,-0.0355
2678,0.0272,-0.0214,0.0001,-0.64,0.83,1.19,0.182,2.873,2.231,-0.443,0.0991,0.0490,0.0048,-0.0140,1.0085,0.0000,0.0000,0.3000,0.0266,-0.0357
2687,0.0265,-0.0151,0.0006,-0.68,0.83,1.20,0.182,-0.219,2.781,1.086,0.0992,0.0475,0.0047,-0.0174,1.0092,0.0000,0.0000,0.3000,0.0269,-0.0358
2697,0.0250,-0.0139,-0.0034,-0.67,0.82,1.19,0.182,0.820,-0.945,0.362,0.0978,0.0471,0.0050,-0.0161,1.0063,0.0000,0.0000,0.3000,0.0272,-0.0360
2709,0.0230,-0.0172,-0.0030,-0.63,0.79,1.19,0.182,2.782,-0.472,-0.780,0.0992,0.0457,0.0067,-0.0173,1.0066,0.0000,0.0000,0.3000,0.0274,-0.0362
2717,0.0165,-0.0172,-0.0024,-0.60,0.79,1.18,0.186,1.681,1.422,-0.326,0.0987,0.0447,0.0064,-0.0184,1.0092,0.0000,0.0000,0.3000,0.0276,-0.0363
2727,0.0191,-0.0200,-0.0017,-0.57,0.74,1.19,0.186,0.229,0.129,-0.199,0.0988,0.0445,0.0038,-0.0161,1.0122,0.0000,0.0000,0.3000,0.0278,-0.0365
2737,0.0156,-0.0217,-0.0009,-0.54,0.76,1.19,0.186,0.908,-0.914,-0.239,0.0992,0.0446,0.0063,-0.0124,1.0115,0.0000,0.0000,0.3000,0.0279,-0.0367
2747,0.0143,-0.0208,0.0065,-0.52,0.76,1.19,0.186,0.393,2.372,-0.419,0.0977,0.0441,0.0021,-0.0134,1.0076,0.0000,0.0000,0.3000,0.0280,-0.0370
2757,0.0139,-0.0191,0.0070,-0.51,0.73,1.18,0.186,1.192,0.278,-1.002,0.0992,0.0432,0.0050,-0.0144,1.0066,0.0000,0.0000,0.3000,0.0282,-0.0371
2767,0.0074,-0.0193,0.0078,-0.49,0.78,1.17,0.183,0.988,1.108,-1.407,0.1016,0.0419,0.0081,-0.0189,1.0070,0.0000,0.0000,0.3000,0.0283,-0.0373
2778,0.0107,-0.0207,0.0088,-0.46,0.75,1.17,0.183,-1.398,2.905,-0.964,0.1016,0.0423,0.0055,-0.0165,1.0076,0.0000,0.0000,0.3000,0.0284,-0.0375
2787,0.0167,-0.0237,0.0100,-0.43,0.69,1.17,0.183,0.288,-1.240,-1.745,0.1016,0.0429,0.0028,-0.0159,1.0071,0.0000,0.0000,0.3000,0.0285,-0.0378
2798,0.0150,-0.0207,0.0072,-0.43,0.70,1.16,0.183,-3.323,3.292,-0.329,0.0993,0.0429,0.0049,-0.0170,1.0093,0.0000,0.0000,0.3000,0.0287,-0.0380
2807,0.0136,-0.0175,0.0079,-0.44,0.68,1.15,0.183,-0.046,0.237,-2.523,0.1016,0.0435,0.0079,-0.0166,1.0051,0.0000,0.0000,0.3000,0.0288,-0.0382
2817,0.0044,-0.0163,0.0086,-0.45,0.73,1.13,0.187,-1.037,1.520,-1.330,0.1017,0.0434,0.0042,-0.0174,1.0048,0.0000,0.0000,0.3000,0.0289,-0.0383
2827,0.0107,-0.0129,0.0093,-0.47,0.67,1.13,0.187,-0.529,1.039,-2.168,0.1018,0.0433,0.0054,-0.0165,1.0051,0.0000,0.0000,0.3000,0.0290,-0.0385
2837,0.0096,-0.0121,0.0100,-0.49,0.65,1.12,0.187,-0.507,0.932,-1.369,0.1019,0.0432,0.0030,-0.0200,1.0063,0.0000,0.0000,0.3000,0.0291,-0.0386
2848,0.0084,-0.0113,0.0163,-0.50,0.65,1.10,0.187,-1.657,4.198,-1.140,0.1019,0.0431,0.0045,-0.0179,1.0067,0.0000,0.0000,0.3000,0.0292,-0.0387
2857,0.0073,-0.0104,0.0172,-0.51,0.63,1.08,0.187,1.202,0.064,-2.124,0.1021,0.0438,0.0061,-0.0154,1.0032,0.0000,0.0000,0.3000,0.0292,-0.0388
2868,0.0062,-0.0096,0.0177,-0.51,0.62,1.06,0.183,1.480,1.609,-1.698,0.1021,0.0437,0.0040,-0.0184,1.0050,0.0000,0.0000,0.3000,0.0293,-0.0389
2877,0.0054,-0.0065,0.0181,-0.53,0.60,1.05,0.183,3.070,-1.604,-2.504,0.1022,0.0431,0.0052,-0.0167,1.0075,0.0000,0.0000,0.3000,0.0293,-0.0390
2887,0.0044,-0.0056,0.0187,-0.54,0.57,1.03,0.183,-0.143,0.974,-1.730,0.1010,0.0440,0.0062,-0.0174,1.0031,0.0000,0.0000,0.3000,0.0294,-0.0390
2897,0.0035,-0.0064,0.0119,-0.52,0.56,1.01,0.183,2.493,0.677,-3.055,0.1006,0.0399,0.0062,-0.0182,1.0044,0.0000,0.0000,0.3000,0.0294,-0.0391
2907,-0.0022,-0.0015,0.0128,-0.50,0.58,0.97,0.183,3.145,-1.851,-3.616,0.1006,0.0398,0.0061,-0.0151,1.0051,0.0000,0.0000,0.3000,0.0294,-0.0391
2917,-0.0034,-0.0147,0.0128,-0.41,0.59,0.96,0.189,0.514,1.332,-2.365,0.1005,0.0397,0.0040,-0.0152,1.0022,0.0000,0.0000,0.3000,0.0294,-0.0392
2928,-0.0054,-0.0133,0.0140,-0.38,0.59,0.91,0.189,-0.149,-0.072,-2.435,0.1006,0.0391,0.0046,-0.0183,1.0037,0.0000,0.0000,0.3000,0.0293,-0.0394
2937,-0.0054,-0.0133,0.0140,-0.38,0.59,0.91,0.189,1.860,-1.203,-3.492,0.1006,0.0397,0.0068,-0.0185,0.9996,0.0000,0.0000,0.3000,0.0293,-0.0395
2947,-0.0070,-0.0133,0.0221,-0.35,0.57,0.85,0.189,1.159,0.385,-3.247,0.1000,0.0397,0.0086,-0.0197,0.9988,0.0000,0.0000,0.3000,0.0292,-0.0396
2957,-0.0068,-0.0109,0.0221,-0.36,0.57,0.86,0.189,-0.940,2.123,-2.483,0.1006,0.0397,0.0056,-0.0144,1.0014,0.0000,0.0000,0.3000,0.0291,-0.0397
2967,-0.0103,-0.0096,0.0228,-0.35,0.58,0.80,0.187,-0.527,1.405,-2.779,0.1005,0.0396,0.0047,-0.0147,1.0038,0.0000,0.0000,0.3000,0.0290,-0.0398
2977,-0.0091,-0.0087,0.0231,-0.34,0.56,0.77,0.187,0.336,-0.328,-3.801,0.1004,0.0395,0.0041,-0.0158,1.0041,0.0000,0.0000,0.3000,0.0289,-0.0399
2987,-0.0101,-0.0081,0.0230,-0.34,0.55,0.74,0.187,-1.470,1.089,-2.959,0.0999,0.0412,0.0049,-0.0144,1.0027,0.0000,0.0000,0.3000,0.0288,-0.0400
2997,-0.0110,-0.0076,0.0203,-0.34,0.54,0.71,0.187,-0.872,1.625,-3.154,0.1000,0.0391,0.0059,-0.0162,1.0016,0.0000,0.0000,0.3000,0.0287,-0.0401
3007,-0.0133,-0.0014,0.0206,-0.38,0.54,0.68,0.187,-1.816,1.825,-2.749,0.1012,0.0414,0.0053,-0.0169,1.0019,0.0000,0.0000,0.3000,0.0286,-0.0401
3018,-0.0134,-0.0075,0.0209,-0.35,0.52,0.65,0.187,-1.882,-0.725,-3.326,0.1014,0.0372,0.0084,-0.0154,1.0042,0.0000,0.0000,0.3000,0.0284,-0.0402
3027,-0.0101,0.0005,0.0213,-0.40,0.49,0.62,0.187,-2.516,1.900,-2.712,0.1008,0.0373,0.0125,-0.0145,1.0047,0.0000,0.0000,0.3000,0.0283,-0.0402
3037,-0.0101,-0.0121,0.0215,-0.33,0.46,0.59,0.187,-0.807,1.485,-3.527,0.1007,0.0372,0.0097,-0.0123,1.0065,0.0000,0.0000,0.3000,0.0282,-0.0403
3047,-0.0115,-0.0113,0.0176,-0.33,0.47,0.59,0.187,0.299,0.367,-3.610,0.0992,0.0372,0.0055,-0.0176,1.0056,0.0000,0.0000,0.3000,0.0281,-0.0404
3057,-0.0123,-0.0107,0.0178,-0.35,0.46,0.55,0.187,-1.466,-0.289,-2.893,0.0982,0.0373,0.0071,-0.0172,1.0010,0.0000,0.0000,0.3000,0.0280,-0.0405
3067,-0.0174,-0.0096,0.0180,-0.37,0.48,0.52,0.187,-0.210,-2.014,-3.660,0.0998,0.0374,0.0075,-0.0192,1.0019,0.0000,0.0000,0.3000,0.0278,-0.0406
3077,-0.0207,-0.0087,0.0184,-0.38,0.49,0.49,0.187,-0.328,-1.500,-4.165,0.0982,0.0342,0.0047,-0.0177,1.0019,0.0000,0.0000,0.3000,0.0276,-0.0407
3087,-0.0158,-0.0074,0.0190,-0.39,0.45,0.45,0.187,-0.304,-0.168,-3.715,0.0977,0.0358,0.0053,-0.0132,1.0033,0.0000,0.0000,0.3000,0.0275,-0.0408
3097,-0.0210,-0.0163,0.0152,-0.34,0.47,0.42,0.187,0.507,-1.604,-4.143,0.0978,0.0354,0.0051,-0.0165,0.9985,0.0000,0.0000,0.3000,0.0273,-0.0409
3107,-0.0228,-0.0102,0.0156,-0.38,0.49,0.38,0.187,1.206,-2.108,-4.232,0.0975,0.0353,0.0069,-0.0170,0.9984,0.0000,0.0000,0.3000,0.0270,-0.0410
3119,-0.0226,-0.0107,0.0157,-0.38,0.49,0.35,0.189,-2.020,0.047,-3.848,0.0973,0.0352,0.0059,-0.0178,1.0013,0.0000,0.0000,0.3000,0.0268,-0.0411
3127,-0.0234,-0.0100,0.0159,-0.38,0.51,0.31,0.189,-0.744,-0.035,-4.868,0.0957,0.0359,0.0067,-0.0183,1.0013,0.0000,0.0000,0.3000,0.0266,-0.0412
3137,-0.0243,-0.0094,0.0161,-0.37,0.53,0.26,0.189,-0.688,-1.964,-5.529,0.0959,0.0354,0.0053,-0.0152,1.0044,0.0000,0.0000,0.3000,0.0263,-0.0413
3147,-0.0292,-0.0064,0.0165,-0.39,0.56,0.23,0.189,-3.014,2.818,-4.393,0.0959,0.0365,0.0092,-0.0157,1.0021,0.0000,0.0000,0.3000,0.0260,-0.0414
3157,-0.0288,-0.0070,0.0163,-0.39,0.56,0.19,0.189,0.629,0.304,-5.342,0.0972,0.0361,0.0080,-0.0145,1.0024,0.0000,0.0000,0.3000,0.0258,-0.0415
3167,-0.0288,-0.0028,0.0163,-0.42,0.56,0.14,0.189,-1.563,1.473,-5.240,0.0973,0.0340,0.0089,-0.0185,1.0030,0.0000,0.0000,0.3000,0.0255,-0.0415
3177,-0.0249,-0.0032,0.0164,-0.42,0.53,0.09,0.189,-1.877,2.574,-4.830,0.0974,0.0336,0.0079,-0.0180,1.0020,0.0000,0.0000,0.3000,0.0252,-0.0415
3187,-0.0247,-0.0089,0.0167,-0.40,0.51,0.04,0.189,-3.757,3.840,-4.782,0.0976,0.0363,0.0077,-0.0153,1.0008,0.0000,0.0000,0.3000,0.0250,-0.0416
3197,-0.0244,-0.0092,0.0153,-0.40,0.50,-0.01,0.189,-2.472,2.391,-5.430,0.0979,0.0360,0.0083,-0.0199,1.0011,0.0000,0.0000,0.3000,0.0247,-0.0417
3207,-0.0239,-0.0001,0.0156,-0.46,0.48,-0.06,0.189,-2.258,3.867,-4.697,0.0985,0.0350,0.0057,-0.0158,1.0018,0.0000,0.0000,0.3000,0.0245,-0.0417
3217,-0.0232,-0.0004,0.0158,-0.47,0.45,-0.11,0.188,-0.388,3.594,-5.312,0.0988,0.0362,0.0045,-0.0158,1.0024,0.0000,0.0000,0.3000,0.0243,-0.0417
3227,-0.0212,-0.0024,0.0161,-0.49,0.39,-0.16,0.188,0.751,2.680,-4.764,0.0985,0.0331,0.0061,-0.0170,1.0008,0.0000,0.0000,0.3000,0.0240,-0.0417
3237,-0.0205,0.0019,0.0163,-0.54,0.36,-0.21,0.188,1.425,0.927,-4.521,0.0986,0.0326,0.0068,-0.0139,1.0004,0.0000,0.0000,0.3000,0.0238,-0.0417
3247,-0.0213,-0.0064,0.0115,-0.50,0.33,-0.26,0.188,2.715,0.229,-4.748,0.0977,0.0326,0.0040,-0.0176,1.0032,0.0000,0.0000,0.3000,0.0236,-0.0418
3257,-0.0207,-0.0069,0.0116,-0.50,0.27,-0.31,0.188,2.502,-0.981,-5.395,0.0983,0.0320,0.0064,-0.0173,1.0008,0.0000,0.0000,0.3000,0.0234,-0.0418
3267,-0.0233,-0.0060,0.0118,-0.50,0.26,-0.36,0.188,1.867,-2.352,-5.165,0.0981,0.0319,0.0070,-0.0169,0.9996,0.0000,0.0000,0.3000,0.0232,-0.0419
3277,-0.0213,-0.0068,0.0121,-0.48,0.23,-0.40,0.188,0.764,-0.986,-4.887,0.0979,0.0319,0.0053,-0.0175,0.9958,0.0000,0.0000,0.3000,0.0230,-0.0420
3287,-0.0217,-0.0059,0.0121,-0.46,0.22,-0.45,0.188,-0.099,-1.774,-4.415,0.0963,0.0319,0.0072,-0.0190,0.9983,0.0000,0.0000,0.3000,0.0228,-0.0420
3297,-0.0221,-0.0051,0.0081,-0.44,0.23,-0.50,0.188,0.900,-3.337,-5.707,0.0960,0.0319,0.0085,-0.0197,0.9995,0.0000,0.0000,0.3000,0.0225,-0.0421
3307,-0.0264,-0.0042,0.0082,-0.43,0.27,-0.55,0.188,-2.157,0.222,-3.873,0.0954,0.0318,0.0076,-0.0184,1.0036,0.0000,0.0000,0.3000,0.0223,-0.0421
3317,-0.0269,-0.0035,0.0082,-0.42,0.29,-0.60,0.186,-1.817,-2.617,-5.390,0.0952,0.0318,0.0075,-0.0173,1.0066,0.0000,0.0000,0.3000,0.0220,-0.0422
3327,-0.0283,-0.0027,0.0081,-0.40,0.32,-0.65,0.186,-3.036,1.162,-4.766,0.0946,0.0325,0.0064,-0.0158,1.0023,0.0000,0.0000,0.3000,0.0217,-0.0422
3337,-0.0289,-0.0020,0.0077,-0.40,0.34,-0.70,0.186,-2.660,3.061,-3.956,0.0948,0.0337,0.0038,-0.0169,1.0023,0.0000,0.0000,0.3000,0.0214,-0.0422
3347,-0.0301,0.0006,-0.0001,-0.42,0.35,-0.75,0.186,-4.882,0.837,-4.817,0.0951,0.0333,0.0024,-0.0194,1.0000,0.0000,0.0000,0.3000,0.0211,-0.0422
3357,-0.0292,0.0050,-0.0001,-0.46,0.36,-0.80,0.186,-4.173,2.785,-4.338,0.0925,0.0335,0.0031,-0.0183,1.0016,0.0000,0.0000,0.3000,0.0208,-0.0422
3367,-0.0282,0.0044,0.0005,-0.48,0.34,-0.85,0.188,-1.635,3.374,-5.191,0.0928,0.0353,0.0052,-0.0176,1.0000,0.0000,0.0000,0.3000,0.0206,-0.0421
3377,-0.0356,0.0058,0.0009,-0.50,0.37,-0.90,0.188,-2.221,2.687,-4.796,0.0924,0.0354,0.0087,-0.0185,1.0040,0.0000,0.0000,0.3000,0.0202,-0.0421
3387,-0.0342,0.0118,0.0012,-0.57,0.34,-0.95,0.188,-0.063,1.886,-4.765,0.0927,0.0349,0.0102,-0.0169,1.0042,0.0000,0.0000,0.3000,0.0199,-0.0419
3404,-0.0348,0.0128,0.0011,-0.61,0.31,-0.99,0.188,-0.231,1.782,-4.881,0.0951,0.0348,0.0070,-0.0196,1.0013,0.0000,0.0000,0.3000,0.0195,-0.0418
3408,-0.0335,0.0119,0.0012,-0.61,0.27,-1.04,0.188,0.226,1.036,-4.396,0.0926,0.0343,0.0077,-0.0168,1.0032,0.0000,0.0000,0.3000,0.0192,-0.0417
3417,-0.0257,0.0123,0.0013,-0.62,0.20,-1.09,0.184,1.858,0.908,-4.899,0.0923,0.0344,0.0074,-0.0173,1.0013,0.0000,0.0000,0.3000,0.0189,-0.0416
3428,-0.0328,0.0114,0.0015,-0.62,0.23,-1.14,0.184,0.505,1.940,-4.307,0.0952,0.0337,0.0088,-0.0189,1.0051,0.0000,0.0000,0.3000,0.0186,-0.0414
3437,-0.0331,0.0125,0.0019,-0.62,0.22,-1.19,0.184,1.914,0.849,-4.201,0.0910,0.0342,0.0055,-0.0165,1.0067,0.0000,0.0000,0.3000,0.0183,-0.0413
3447,-0.0236,0.0108,-0.0066,-0.60,0.15,-1.23,0.184,1.434,0.611,-4.505,0.0912,0.0346,0.0055,-0.0164,1.0072,0.0000,0.0000,0.3000,0.0180,-0.0412
3457,-0.0356,0.0132,-0.0064,-0.59,0.21,-1.28,0.184,0.791,0.800,-4.150,0.0909,0.0348,0.0080,-0.0136,1.0096,0.0000,0.0000,0.3000,0.0177,-0.0411
3467,-0.0343,0.0150,-0.0063,-0.59,0.19,-1.33,0.187,1.714,0.624,-4.448,0.0910,0.0336,0.0084,-0.0226,1.0095,0.0000,0.0000,0.3000,0.0173,-0.0409
3477,-0.0346,0.0160,-0.0059,-0.57,0.18,-1.37,0.187,0.450,-2.009,-3.875,0.0912,0.0324,0.0087,-0.0200,1.0085,0.0000,0.0000,0.3000,0.0170,-0.0408
3487,-0.0333,0.0128,-0.0052,-0.53,0.16,-1.42,0.187,0.124,-1.670,-3.889,0.0913,0.0345,0.0060,-0.0210,1.0082,0.0000,0.0000,0.3000,0.0166,-0.0406
3496,-0.0322,0.0097,-0.0026,-0.49,0.15,-1.46,0.187,-0.818,-0.261,-3.666,0.0909,0.0347,0.0063,-0.0201,1.0088,0.0000,0.0000,0.3000,0.0163,-0.0405
3507,-0.0312,0.0166,-0.0017,-0.52,0.13,-1.51,0.187,0.262,-0.416,-3.594,0.0906,0.0349,0.0074,-0.0188,1.0085,0.0000,0.0000,0.3000,0.0160,-0.0404
3517,-0.0314,0.0174,-0.0008,-0.52,0.15,-1.55,0.186,-0.108,-0.931,-3.747,0.0885,0.0354,0.0085,-0.0149,1.0089,0.0000,0.0000,0.3000,0.0157,-0.0402
3528,-0.0316,0.0183,0.0001,-0.52,0.17,-1.59,0.186,0.044,-0.957,-3.549,0.0908,0.0324,0.0088,-0.0160,1.0105,0.0000,0.0000,0.3000,0.0154,-0.0400
3537,-0.0373,0.0203,0.0008,-0.52,0.21,-1.63,0.186,1.861,-0.076,-2.983,0.0882,0.0369,0.0090,-0.0162,1.0102,0.0000,0.0000,0.3000,0.0150,-0.0398
3547,-0.0296,0.0117,0.0007,-0.47,0.17,-1.66,0.186,-0.258,-0.062,-2.790,0.0879,0.0372,0.0083,-0.0124,1.0078,0.0000,0.0000,0.3000,0.0147,-0.0397
3556,-0.0367,0.0255,0.0014,-0.55,0.22,-1.70,0.186,1.549,0.427,-2.978,0.0875,0.0375,0.0049,-0.0193,1.0072,0.0000,0.0000,0.3000,0.0143,-0.0395
3567,-0.0370,0.0264,0.0023,-0.55,0.22,-1.73,0.183,-0.077,-0.532,-3.057,0.0860,0.0373,0.0061,-0.0210,1.0061,0.0000,0.0000,0.3000,0.0140,-0.0392
3577,-0.0374,0.0274,0.0033,-0.54,0.22,-1.77,0.183,0.275,0.409,-2.768,0.0856,0.0372,0.0100,-0.0193,1.0085,0.0000,0.0000,0.3000,0.0136,-0.0389
3587,-0.0412,0.0270,0.0043,-0.53,0.25,-1.80,0.183,-0.675,-0.535,-1.622,0.0864,0.0370,0.0073,-0.0196,1.0094,0.0000,0.0000,0.3000,0.0132,-0.0386
3597,-0.0414,0.0267,-0.0024,-0.50,0.24,-1.83,0.183,0.786,-0.708,-2.206,0.0860,0.0373,0.0060,-0.0195,1.0068,0.0000,0.0000,0.3000,0.0128,-0.0384
3607,-0.0382,0.0262,-0.0017,-0.48,0.22,-1.86,0.183,-2.740,0.011,-2.125,0.0868,0.0377,0.0051,-0.0181,1.0093,0.0000,0.0000,0.3000,0.0124,-0.0381
3616,-0.0386,0.0271,-0.0010,-0.47,0.22,-1.89,0.185,-0.554,2.859,-1.748,0.0864,0.0379,0.0066,-0.0147,1.0119,0.0000,0.0000,0.3000,0.0120,-0.0378
3626,-0.0355,0.0282,-0.0003,-0.48,0.19,-1.91,0.185,1.559,-0.699,-0.956,0.0860,0.0383,0.0079,-0.0144,1.0082,0.0000,0.0000,0.3000,0.0116,-0.0376
3637,-0.0358,0.0290,0.0006,-0.48,0.19,-1.93,0.185,0.918,1.123,-1.552,0.0868,0.0374,0.0071,-0.0142,1.0105,0.0000,0.0000,0.3000,0.0113,-0.0373
3646,-0.0361,0.0299,0.0014,-0.50,0.19,-1.95,0.185,0.291,-1.671,-0.994,0.0871,0.0378,0.0049,-0.0190,1.0094,0.0000,0.0000,0.3000,0.0109,-0.0370
3657,-0.0330,0.0272,0.0023,-0.48,0.15,-1.97,0.185,-0.861,0.037,-0.523,0.0867,0.0381,0.0068,-0.0225,1.0083,0.0000,0.0000,0.3000,0.0106,-0.0367
3666,-0.0315,0.0284,0.0034,-0.48,0.14,-1.98,0.187,1.886,1.094,-0.842,0.0864,0.0384,0.0077,-0.0184,1.0061,0.0000,0.0000,0.3000,0.0103,-0.0364
3677,-0.0317,0.0292,0.0043,-0.47,0.12,-1.99,0.187,0.870,2.574,-1.249,0.0861,0.0387,0.0049,-0.0156,1.0088,0.0000,0.0000,0.3000,0.0100,-0.0361
3686,-0.0319,0.0300,0.0052,-0.48,0.12,-2.00,0.187,0.253,1.623,-0.973,0.0858,0.0390,0.0053,-0.0163,1.0074,0.0000,0.0000,0.3000,0.0096,-0.0358
3697,-0.0321,0.0309,0.0103,-0.48,0.11,-2.01,0.187,-1.131,2.986,-0.100,0.0854,0.0393,0.0089,-0.0169,1.0053,0.0000,0.0000,0.3000,0.0093,-0.0355
3707,-0.0323,0.0317,0.0112,-0.47,0.10,-2.01,0.187,0.989,1.903,-0.245,0.0791,0.0421,0.0114,-0.0206,1.0045,0.0000,0.0000,0.3000,0.0090,-0.0352
3717,-0.0324,0.0326,0.0119,-0.48,0.08,-2.02,0.185,3.162,1.286,0.537,0.0786,0.0425,0.0097,-0.0196,1.0070,0.0000,0.0000,0.3000,0.0087,-0.0349
3726,-0.0501,0.0406,0.0123,-0.52,0.17,-2.03,0.185,3.221,0.217,0.352,0.0781,0.0430,0.0080,-0.0140,1.0069,0.0000,0.0000,0.3000,0.0082,-0.0345
3736,-0.0504,0.0415,0.0131,-0.52,0.15,-2.03,0.185,2.595,-1.138,1.134,0.0792,0.0424,0.0049,-0.0176,1.0078,0.0000,0.0000,0.3000,0.0077,-0.0340
3747,-0.0506,0.0423,0.0108,-0.50,0.14,-2.03,0.185,4.133,-0.336,0.413,0.0787,0.0399,0.0068,-0.0211,1.0073,0.0000,0.0000,0.3000,0.0072,-0.0336
3757,-0.0459,0.0402,0.0114,-0.46,0.10,-2.02,0.185,2.169,-1.414,0.639,0.0792,0.0421,0.0072,-0.0171,1.0070,0.0000,0.0000,0.3000,0.0067,-0.0332
3766,-0.0461,0.0324,0.0121,-0.38,0.09,-2.02,0.183,0.512,0.022,0.090,0.0768,0.0424,0.0077,-0.0184,1.0055,0.0000,0.0000,0.3000,0.0063,-0.0329
3777,-0.0436,0.0387,0.0127,-0.40,0.08,-2.01,0.183,0.784,0.234,-0.276,0.0772,0.0434,0.0059,-0.0148,1.0046,0.0000,0.0000,0.3000,0.0058,-0.0325
3786,-0.0496,0.0392,0.0133,-0.36,0.12,-2.01,0.183,2.754,-1.955,0.642,0.0808,0.0436,0.0092,-0.0147,1.0036,0.0000,0.0000,0.3000,0.0053,-0.0321
3797,-0.0470,0.0415,0.0057,-0.36,0.11,-2.01,0.183,0.010,1.047,1.896,0.0790,0.0433,0.0076,-0.0167,1.0059,0.0000,0.0000,0.3000,0.0048,-0.0317
3806,-0.0352,0.0415,0.0066,-0.34,0.04,-2.00,0.183,-0.931,2.678,0.693,0.0794,0.0437,0.0051,-0.0173,1.0065,0.0000,0.0000,0.3000,0.0045,-0.0313
3817,-0.0395,0.0399,0.0072,-0.31,0.07,-2.00,0.187,2.420,0.961,1.600,0.0785,0.0435,0.0069,-0.0151,1.0072,0.0000,0.0000,0.3000,0.0041,-0.0309
3827,-0.0374,0.0403,0.0077,-0.29,0.07,-2.00,0.187,0.727,2.444,2.186,0.0776,0.0444,0.0044,-0.0140,1.0080,0.0000,0.0000,0.3000,0.0037,-0.0305
3836,-0.0390,0.0391,0.0081,-0.27,0.07,-1.98,0.187,2.461,1.175,0.856,0.0772,0.0449,0.0095,-0.0186,1.0059,0.0000,0.0000,0.3000,0.0033,-0.0301
3846,-0.0406,0.0411,0.0121,-0.29,0.06,-1.97,0.187,1.709,3.575,0.770,0.0768,0.0453,0.0078,-0.0166,1.0060,0.0000,0.0000,0.3000,0.0029,-0.0297
3857,-0.0407,0.0416,0.0127,-0.27,0.05,-1.95,0.187,0.894,3.602,2.561,0.0764,0.0457,0.0066,-0.0149,1.0070,0.0000,0.0000,0.3000,0.0025,-0.0293
3866,-0.0408,0.0421,0.0134,-0.26,0.04,-1.93,0.187,2.079,1.623,2.073,0.0743,0.0474,0.0091,-0.0139,1.0056,0.0000,0.0000,0.3000,0.0021,-0.0288
3877,-0.0408,0.0426,0.0141,-0.24,0.02,-1.92,0.187,1.719,0.671,2.155,0.0739,0.0479,0.0093,-0.0154,1.0052,0.0000,0.0000,0.3000,0.0017,-0.0284
3886,-0.0454,0.0467,0.0146,-0.25,0.03,-1.90,0.187,1.252,3.288,2.393,0.0762,0.0461,0.0083,-0.0168,1.0039,0.0000,0.0000,0.3000,0.0013,-0.0280
3897,-0.0455,0.0471,0.0157,-0.24,-0.00,-1.88,0.187,0.535,1.577,2.651,0.0758,0.0465,0.0081,-0.0181,1.0048,0.0000,0.0000,0.3000,0.0008,-0.0275
3907,-0.0377,0.0410,0.0165,-0.19,-0.07,-1.86,0.187,0.762,1.136,3.158,0.0768,0.0448,0.0101,-0.0144,1.0043,0.0000,0.0000,0.3000,0.0004,-0.0271
3917,-0.0375,0.0413,0.0171,-0.19,-0.09,-1.83,0.185,2.358,0.340,2.849,0.0764,0.0445,0.0080,-0.0171,1.0042,0.0000,0.0000,0.3000,0.0000,-0.0267
3927,-0.0336,0.0357,0.0177,-0.14,-0.14,-1.80,0.185,0.290,1.691,2.522,0.0709,0.0463,0.0071,-0.0156,1.0066,0.0000,0.0000,0.3000,-0.0003,-0.0263
3938,-0.0334,0.0342,0.0182,-0.12,-0.15,-1.78,0.185,1.028,3.396,3.808,0.0720,0.0467,0.0071,-0.0125,1.0065,0.0000,0.0000,0.3000,-0.0006,-0.0260
3946,-0.0478,0.0384,0.0129,-0.13,-0.07,-1.75,0.185,3.246,0.378,3.231,0.0724,0.0458,0.0087,-0.0139,1.0024,0.0000,0.0000,0.3000,-0.0011,-0.0256
3956,-0.0432,0.0385,0.0134,-0.12,-0.11,-1.72,0.185,1.890,-1.880,2.898,0.0727,0.0460,0.0046,-0.0130,1.0013,0.0000,0.0000,0.3000,-0.0015,-0.0252
3966,-0.0406,0.0350,0.0139,-0.09,-0.14,-1.69,0.188,0.060,-0.706,2.435,0.0715,0.0433,0.0079,-0.0156,1.0016,0.0000,0.0000,0.3000,-0.0019,-0.0248
3976,-0.0384,0.0349,0.0145,-0.07,-0.18,-1.65,0.188,-2.031,2.444,2.506,0.0711,0.0436,0.0089,-0.0141,0.9996,0.0000,0.0000,0.3000,-0.0023,-0.0245
3987,-0.0403,0.0264,0.0152,0.01,-0.18,-1.62,0.188,-2.274,1.919,3.118,0.0740,0.0453,0.0066,-0.0149,1.0017,0.0000,0.0000,0.3000,-0.0027,-0.0242
3996,-0.0400,0.0263,0.0169,0.02,-0.17,-1.59,0.188,0.043,-1.721,3.043,0.0743,0.0459,0.0077,-0.0143,1.0016,0.0000,0.0000,0.3000,-0.0031,-0.0240
4007,-0.0305,0.0305,0.0171,-0.01,-0.22,-1.56,0.188,-1.114,1.212,2.872,0.0726,0.0452,0.0060,-0.0145,1.0018,0.0000,0.0000,0.3000,-0.0034,-0.0237
4017,-0.0284,0.0312,0.0173,-0.03,-0.25,-1.53,0.186,2.627,-2.068,3.492,0.0705,0.0451,0.0053,-0.0162,1.0036,0.0000,0.0000,0.3000,-0.0037,-0.0234
4026,-0.0321,0.0283,0.0174,-0.03,-0.24,-1.50,0.186,-0.574,0.455,3.176,0.0701,0.0454,0.0046,-0.0169,1.0014,0.0000,0.0000,0.3000,-0.0040,-0.0231
4036,-0.0369,0.0274,0.0174,-0.03,-0.20,-1.47,0.186,0.036,-1.950,3.918,0.0704,0.0483,0.0071,-0.0172,1.0008,0.0000,0.0000,0.3000,-0.0044,-0.0228
4046,-0.0365,0.0274,0.0127,-0.03,-0.21,-1.44,0.186,-1.710,1.900,3.140,0.0700,0.0486,0.0081,-0.0185,0.9995,0.0000,0.0000,0.3000,-0.0048,-0.0225
4056,-0.0342,0.0348,0.0128,-0.06,-0.20,-1.41,0.186,1.767,1.139,3.811,0.0703,0.0491,0.0086,-0.0146,1.0008,0.0000,0.0000,0.3000,-0.0051,-0.0222
4067,-0.0339,0.0349,0.0131,-0.06,-0.20,-1.38,0.187,1.854,2.859,3.651,0.0700,0.0494,0.0049,-0.0163,1.0034,0.0000,0.0000,0.3000,-0.0055,-0.0218
4076,-0.0317,0.0354,0.0133,-0.07,-0.20,-1.34,0.187,0.022,1.953,3.808,0.0698,0.0515,0.0079,-0.0201,1.0015,0.0000,0.0000,0.3000,-0.0058,-0.0215
4086,-0.0315,0.0355,0.0134,-0.08,-0.21,-1.31,0.187,0.783,2.210,4.169,0.0706,0.0496,0.0089,-0.0156,1.0008,0.0000,0.0000,0.3000,-0.0061,-0.0211
4096,-0.0309,0.0405,0.0106,-0.09,-0.23,-1.27,0.187,0.266,1.767,4.983,0.0703,0.0499,0.0079,-0.0165,1.0017,0.0000,0.0000,0.3000,-0.0064,-0.0207
4107,-0.0274,0.0339,0.0107,-0.04,-0.29,-1.23,0.187,0.008,2.123,5.095,0.0700,0.0515,0.0074,-0.0196,0.9973,0.0000,0.0000,0.3000,-0.0067,-0.0204
4116,-0.0269,0.0340,0.0110,-0.04,-0.31,-1.20,0.186,1.407,1.903,4.183,0.0697,0.0518,0.0044,-0.0156,0.9999,0.0000,0.0000,0.3000,-0.0069,-0.0200
4126,-0.0265,0.0376,0.0112,-0.06,-0.34,-1.16,0.186,-0.328,1.191,4.274,0.0695,0.0522,0.0054,-0.0150,1.0030,0.0000,0.0000,0.3000,-0.0072,-0.0197
4137,-0.0260,0.0377,0.0112,-0.05,-0.36,-1.11,0.186,2.106,-0.899,3.964,0.0697,0.0514,0.0043,-0.0179,1.0049,0.0000,0.0000,0.3000,-0.0075,-0.0193
4147,-0.0253,0.0377,0.0069,-0.04,-0.38,-1.06,0.186,0.967,-0.897,4.283,0.0698,0.0505,0.0080,-0.0174,1.0047,0.0000,0.0000,0.3000,-0.0077,-0.0189
4157,-0.0234,0.0343,0.0069,-0.01,-0.40,-1.02,0.186,2.205,-3.122,3.849,0.0695,0.0508,0.0104,-0.0151,0.9985,0.0000,0.0000,0.3000,-0.0079,-0.0186
4166,-0.0218,0.0306,0.0069,0.01,-0.41,-0.97,0.186,0.552,-1.488,4.402,0.0695,0.0511,0.0079,-0.0156,0.9969,0.0000,0.0000,0.3000,-0.0082,-0.0182
4176,-0.0211,0.0306,0.0071,0.02,-0.40,-0.93,0.186,1.997,-0.800,4.300,0.0683,0.0509,0.0063,-0.0183,0.9980,0.0000,0.0000,0.3000,-0.0084,-0.0179
4187,-0.0199,0.0306,0.0074,0.03,-0.39,-0.89,0.186,2.738,-0.290,3.842,0.0690,0.0506,0.0047,-0.0136,1.0054,0.0000,0.0000,0.3000,-0.0086,-0.0176
4196,-0.0221,0.0291,0.0040,0.06,-0.34,-0.85,0.186,0.147,-0.488,4.325,0.0688,0.0509,0.0062,-0.0169,1.0032,0.0000,0.0000,0.3000,-0.0088,-0.0173
4206,-0.0190,0.0273,0.0041,0.08,-0.35,-0.81,0.186,0.611,1.401,3.930,0.0687,0.0512,0.0076,-0.0193,1.0022,0.0000,0.0000,0.3000,-0.0090,-0.0171
4217,-0.0184,0.0272,0.0039,0.10,-0.34,-0.77,0.182,-0.941,-0.595,4.286,0.0689,0.0522,0.0075,-0.0166,1.0015,0.0000,0.0000,0.3000,-0.0092,-0.0168
4226,-0.0178,0.0270,0.0036,0.12,-0.34,-0.73,0.182,-0.912,1.903,4.139,0.0689,0.0508,0.0085,-0.0123,1.0018,0.0000,0.0000,0.3000,-0.0093,-0.0165
4236,-0.0162,0.0291,0.0039,0.11,-0.34,-0.68,0.182,-0.790,2.006,3.458,0.0694,0.0522,0.0093,-0.0133,1.0046,0.0000,0.0000,0.3000,-0.0095,-0.0162
4247,-0.0150,0.0240,-0.0068,0.15,-0.35,-0.64,0.182,-1.763,1.140,4.043,0.0693,0.0524,0.0064,-0.0119,1.0032,0.0000,0.0000,0.3000,-0.0097,-0.0160
4256,-0.0134,0.0245,-0.0066,0.14,-0.36,-0.60,0.182,-1.511,0.951,3.497,0.0692,0.0527,0.0073,-0.0133,1.0022,0.0000,0.0000,0.3000,-0.0098,-0.0158
4266,-0.0119,0.0267,-0.0064,0.12,-0.37,-0.56,0.187,-2.300,1.207,4.129,0.0693,0.0496,0.0088,-0.0157,1.0023,0.0000,0.0000,0.3000,-0.0099,-0.0155
4276,-0.0113,0.0265,-0.0063,0.11,-0.38,-0.53,0.187,-2.339,-0.333,3.874,0.0694,0.0514,0.0085,-0.0150,1.0054,0.0000,0.0000,0.3000,-0.0100,-0.0152
4287,-0.0100,0.0165,-0.0059,0.15,-0.40,-0.48,0.187,-2.850,-0.929,3.903,0.0695,0.0526,0.0059,-0.0137,1.0046,0.0000,0.0000,0.3000,-0.0101,-0.0151
4296,-0.0087,0.0211,-0.0002,0.10,-0.42,-0.45,0.187,-1.193,-0.417,3.917,0.0700,0.0526,0.0093,-0.0137,1.0030,0.0000,0.0000,0.3000,-0.0102,-0.0148
4306,-0.0077,0.0237,0.0001,0.07,-0.43,-0.41,0.187,-2.211,-1.425,3.552,0.0700,0.0528,0.0105,-0.0168,1.0039,0.0000,0.0000,0.3000,-0.0103,-0.0146
4316,-0.0051,0.0229,0.0002,0.05,-0.44,-0.37,0.184,-1.372,-0.644,3.311,0.0700,0.0530,0.0063,-0.0148,1.0056,0.0000,0.0000,0.3000,-0.0103,-0.0144
4327,-0.0043,0.0228,0.0007,0.03,-0.43,-0.33,0.184,-0.914,-0.693,3.685,0.0700,0.0554,0.0047,-0.0171,1.0058,0.0000,0.0000,0.3000,-0.0104,-0.0142
4336,-0.0036,0.0228,0.0012,0.01,-0.43,-0.29,0.184,-1.844,-2.028,3.647,0.0700,0.0557,0.0056,-0.0167,1.0040,0.0000,0.0000,0.3000,-0.0104,-0.0139
4347,-0.0028,0.0290,-0.0021,-0.05,-0.42,-0.26,0.184,-1.037,-1.540,3.129,0.0699,0.0560,0.0058,-0.0168,1.0031,0.0000,0.0000,0.3000,-0.0104,-0.0136
4356,-0.0020,0.0290,-0.0018,-0.06,-0.41,-0.23,0.184,-0.970,-1.002,3.287,0.0699,0.0563,0.0078,-0.0146,1.0061,0.0000,0.0000,0.3000,-0.0105,-0.0133
4366,-0.0013,0.0291,-0.0013,-0.07,-0.40,-0.19,0.182,-1.581,-0.722,3.705,0.0699,0.0565,0.0072,-0.0150,1.0056,0.0000,0.0000,0.3000,-0.0105,-0.0131
4376,-0.0007,0.0293,-0.0007,-0.08,-0.38,-0.15,0.182,-0.783,-0.601,3.134,0.0700,0.0568,0.0089,-0.0116,1.0052,0.0000,0.0000,0.3000,-0.0105,-0.0128
4386,0.0000,0.0294,-0.0002,-0.09,-0.37,-0.12,0.182,1.000,-0.280,2.997,0.0692,0.0566,0.0061,-0.0162,1.0039,0.0000,0.0000,0.3000,-0.0105,-0.0125
4396,0.0006,0.0295,-0.0066,-0.10,-0.36,-0.09,0.182,-0.425,-0.496,3.479,0.0699,0.0564,0.0070,-0.0157,1.0062,0.0000,0.0000,0.3000,-0.0105,-0.0122
4406,-0.0009,0.0283,-0.0061,-0.10,-0.34,-0.05,0.182,0.940,0.444,2.746,0.0712,0.0555,0.0065,-0.0170,1.0065,0.0000,0.0000,0.3000,-0.0105,-0.0119
4416,0.0016,0.0268,-0.0054,-0.10,-0.35,-0.02,0.186,-0.750,-0.600,2.685,0.0718,0.0553,0.0049,-0.0146,1.0056,0.0000,0.0000,0.3000,-0.0105,-0.0116
4426,0.0059,0.0237,-0.0049,-0.08,-0.37,0.02,0.186,-0.576,-1.046,2.231,0.0717,0.0558,0.0014,-0.0180,1.0089,0.0000,0.0000,0.3000,-0.0104,-0.0114
4436,0.0081,0.0225,-0.0046,-0.07,-0.37,0.05,0.186,0.475,-0.803,2.009,0.0729,0.0551,0.0028,-0.0162,1.0078,0.0000,0.0000,0.3000,-0.0103,-0.0112
4446,0.0083,0.0236,0.0012,-0.07,-0.37,0.08,0.186,0.456,-0.727,1.792,0.0728,0.0556,0.0058,-0.0161,1.0045,0.0000,0.0000,0.3000,-0.0103,-0.0109
4456,0.0119,0.0208,0.0019,-0.06,-0.38,0.10,0.186,0.075,-1.142,1.711,0.0739,0.0530,0.0085,-0.0180,1.0066,0.0000,0.0000,0.3000,-0.0101,-0.0107
4467,0.0119,0.0217,0.0025,-0.06,-0.38,0.12,0.182,-0.634,-1.189,1.800,0.0737,0.0523,0.0051,-0.0166,1.0050,0.0000,0.0000,0.3000,-0.0100,-0.0105
4476,0.0155,0.0137,0.0033,-0.01,-0.39,0.15,0.182,-0.862,-2.703,1.794,0.0739,0.0524,0.0061,-0.0145,1.0057,0.0000,0.0000,0.3000,-0.0099,-0.0104
4486,0.0152,0.0113,0.0042,0.01,-0.37,0.17,0.182,-0.693,-1.854,1.942,0.0749,0.0536,0.0046,-0.0126,1.0056,0.0000,0.0000,0.3000,-0.0097,-0.0102
4496,0.0159,0.0113,-0.0013,0.01,-0.36,0.19,0.182,-0.969,-2.204,1.290,0.0741,0.0529,0.0061,-0.0155,1.0056,0.0000,0.0000,0.3000,-0.0095,-0.0101
4507,0.0188,0.0144,-0.0008,-0.01,-0.36,0.20,0.182,-0.400,-2.106,0.745,0.0739,0.0571,0.0062,-0.0147,1.0026,0.0000,0.0000,0.3000,-0.0094,-0.0100
4516,0.0165,0.0121,-0.0001,-0.00,-0.31,0.22,0.187,-0.676,-1.993,1.058,0.0743,0.0552,0.0058,-0.0165,1.0079,0.0000,0.0000,0.3000,-0.0092,-0.0099
4526,0.0159,0.0238,0.0004,-0.08,-0.28,0.24,0.187,0.162,-1.691,-0.104,0.0735,0.0575,0.0072,-0.0168,1.0071,0.0000,0.0000,0.3000,-0.0090,-0.0096
4536,0.0171,0.0178,0.0010,-0.05,-0.27,0.25,0.187,0.173,-0.682,0.054,0.0740,0.0574,0.0047,-0.0162,1.0046,0.0000,0.0000,0.3000,-0.0089,-0.0095
4546,0.0149,0.0240,0.0090,-0.10,-0.23,0.26,0.187,-0.086,-1.259,-0.171,0.0733,0.0572,0.0093,-0.0159,1.0055,0.0000,0.0000,0.3000,-0.0087,-0.0092
4556,0.0161,0.0231,0.0093,-0.09,-0.21,0.27,0.187,0.318,-0.726,-0.920,0.0737,0.0572,0.0080,-0.0142,1.0074,0.0000,0.0000,0.3000,-0.0086,-0.0090
4566,0.0140,0.0222,0.0100,-0.09,-0.18,0.27,0.186,-0.236,0.328,-0.982,0.0758,0.0581,0.0064,-0.0182,1.0058,0.0000,0.0000,0.3000,-0.0084,-0.0088
4576,0.0152,0.0214,0.0108,-0.08,-0.18,0.27,0.186,0.183,-0.915,-1.951,0.0760,0.0584,0.0060,-0.0173,1.0055,0.0000,0.0000,0.3000,-0.0083,-0.0085
4587,0.0211,0.0239,0.0112,-0.09,-0.20,0.27,0.186,0.138,-1.477,-1.730,0.0762,0.0586,0.0055,-0.0178,1.0029,0.0000,0.0000,0.3000,-0.0081,-0.0083
4596,0.0214,0.0240,0.0129,-0.09,-0.20,0.26,0.186,0.486,-0.937,-2.436,0.0766,0.0585,0.0067,-0.0179,1.0018,0.0000,0.0000,0.3000,-0.0078,-0.0081
4607,0.0218,0.0242,0.0136,-0.09,-0.20,0.25,0.186,-0.620,-1.065,-2.184,0.0781,0.0584,0.0050,-0.0156,1.0008,0.0000,0.0000,0.3000,-0.0076,-0.0078
4616,0.0226,0.0233,0.0142,-0.08,-0.19,0.23,0.184,0.332,-1.082,-2.650,0.0784,0.0587,0.0041,-0.0135,1.0042,0.0000,0.0000,0.3000,-0.0074,-0.0076
4626,0.0230,0.0234,0.0147,-0.08,-0.18,0.21,0.184,0.120,-2.086,-2.736,0.0788,0.0571,0.0009,-0.0161,1.0047,0.0000,0.0000,0.3000,-0.0072,-0.0074
4636,0.0272,0.0227,0.0150,-0.07,-0.19,0.19,0.184,0.527,-0.876,-3.610,0.0791,0.0573,0.0024,-0.0175,1.0028,0.0000,0.0000,0.3000,-0.0069,-0.0071
4646,0.0261,0.0234,0.0103,-0.08,-0.17,0.16,0.184,-0.495,-1.072,-2.906,0.0789,0.0589,0.0058,-0.0163,1.0025,0.0000,0.0000,0.3000,-0.0066,-0.0069
4657,0.0284,0.0175,0.0104,-0.03,-0.17,0.14,0.184,-0.511,-1.352,-2.809,0.0809,0.0583,0.0022,-0.0153,1.0036,0.0000,0.0000,0.3000,-0.0063,-0.0067
4666,0.0272,0.0216,0.0106,-0.06,-0.15,0.11,0.183,0.384,-1.321,-3.610,0.0796,0.0603,0.0029,-0.0177,1.0030,0.0000,0.0000,0.3000,-0.0061,-0.0065
4676,0.0326,0.0193,0.0111,-0.04,-0.17,0.07,0.183,0.680,-1.231,-3.177,0.0799,0.0606,0.0039,-0.0142,1.0014,0.0000,0.0000,0.3000,-0.0057,-0.0063
4686,0.0281,0.0250,0.0114,-0.08,-0.13,0.04,0.183,2.230,-0.298,-4.200,0.0808,0.0610,0.0093,-0.0151,0.9989,0.0000,0.0000,0.3000,-0.0055,-0.0061
4696,0.0283,0.0251,0.0047,-0.08,-0.12,0.01,0.183,2.804,0.388,-4.495,0.0807,0.0629,0.0059,-0.0142,1.0011,0.0000,0.0000,0.3000,-0.0052,-0.0058
4706,0.0304,0.0257,0.0050,-0.08,-0.12,-0.02,0.183,1.433,-0.522,-4.217,0.0806,0.0632,0.0036,-0.0153,1.0058,0.0000,0.0000,0.3000,-0.0049,-0.0056
4716,0.0293,0.0309,0.0053,-0.11,-0.10,-0.06,0.188,2.445,-0.721,-4.554,0.0811,0.0657,0.0049,-0.0155,1.0046,0.0000,0.0000,0.3000,-0.0046,-0.0052
4726,0.0283,0.0311,0.0055,-0.09,-0.08,-0.10,0.188,3.678,-0.810,-4.871,0.0814,0.0649,0.0049,-0.0170,1.0033,0.0000,0.0000,0.3000,-0.0043,-0.0049
4736,0.0288,0.0377,0.0053,-0.10,-0.08,-0.15,0.188,2.701,-1.770,-4.920,0.0817,0.0653,0.0059,-0.0175,1.0019,0.0000,0.0000,0.3000,-0.0040,-0.0046
4746,0.0293,0.0345,0.0121,-0.07,-0.07,-0.19,0.188,2.509,-0.499,-5.225,0.0821,0.0635,0.0037,-0.0156,1.0011,0.0000,0.0000,0.3000,-0.0037,-0.0042
4757,0.0294,0.0346,0.0126,-0.05,-0.06,-0.23,0.188,2.712,-0.391,-5.305,0.0820,0.0643,0.0047,-0.0153,1.0006,0.0000,0.0000,0.3000,-0.0034,-0.0039
4766,0.0296,0.0281,0.0132,0.02,-0.05,-0.27,0.188,0.673,-1.463,-4.929,0.0834,0.0641,0.0056,-0.0178,0.9981,0.0000,0.0000,0.3000,-0.0031,-0.0036
4776,0.0284,0.0297,0.0135,0.02,-0.04,-0.32,0.188,0.984,0.491,-5.074,0.0837,0.0644,0.0084,-0.0171,0.9992,0.0000,0.0000,0.3000,-0.0028,-0.0033
4786,0.0320,0.0281,0.0137,0.06,-0.06,-0.37,0.188,0.608,-4.303,-3.570,0.0836,0.0648,0.0027,-0.0163,1.0017,0.0000,0.0000,0.3000,-0.0025,-0.0030
4796,0.0321,0.0280,0.0163,0.07,-0.07,-0.42,0.188,0.873,-0.460,-4.548,0.0833,0.0641,0.0000,-0.0188,1.0016,0.0000,0.0000,0.3000,-0.0022,-0.0027
4806,0.0310,0.0282,0.0163,0.08,-0.05,-0.47,0.188,-0.708,1.741,-5.311,0.0836,0.0644,0.0013,-0.0217,1.0027,0.0000,0.0000,0.3000,-0.0019,-0.0024
4816,0.0292,0.0253,0.0163,0.11,-0.03,-0.52,0.185,1.349,-2.443,-5.613,0.0836,0.0638,0.0052,-0.0213,1.0027,0.0000,0.0000,0.3000,-0.0016,-0.0022
4826,0.0293,0.0251,0.0162,0.11,0.01,-0.55,0.185,0.059,-3.302,-4.478,0.0839,0.0657,0.0061,-0.0195,1.0010,0.0000,0.0000,0.3000,-0.0013,-0.0019
4836,0.0283,0.0224,0.0163,0.13,0.01,-0.60,0.185,1.465,-3.839,-5.154,0.0842,0.0660,0.0038,-0.0197,1.0036,0.0000,0.0000,0.3000,-0.0010,-0.0017
4846,0.0284,0.0274,0.0101,0.09,0.00,-0.66,0.185,1.127,-1.841,-5.875,0.0839,0.0653,0.0046,-0.0184,1.0039,0.0000,0.0000,0.3000,-0.0007,-0.0014
4856,0.0283,0.0272,0.0103,0.10,0.03,-0.71,0.185,0.851,0.802,-4.944,0.0843,0.0678,0.0047,-0.0126,1.0031,0.0000,0.0000,0.3000,-0.0005,-0.0012
4866,0.0265,0.0241,0.0106,0.13,0.08,-0.76,0.183,0.840,-1.823,-4.924,0.0843,0.0702,0.0083,-0.0132,1.0030,0.0000,0.0000,0.3000,-0.0002,-0.0009
4876,0.0268,0.0308,0.0107,0.10,0.11,-0.82,0.183,-1.744,0.907,-4.206,0.0856,0.0700,0.0069,-0.0156,1.0009,0.0000,0.0000,0.3000,0.0001,-0.0006
4887,0.0257,0.0372,0.0109,0.07,0.12,-0.87,0.183,0.805,-2.539,-4.450,0.0840,0.0679,0.0071,-0.0123,0.9988,0.0000,0.0000,0.3000,0.0003,-0.0003
4896,0.0289,0.0353,0.0012,0.09,0.10,-0.92,0.183,-0.621,0.449,-3.931,0.0843,0.0678,0.0063,-0.0127,0.9999,0.0000,0.0000,0.3000,0.0006,0.0001
4906,0.0228,0.0277,0.0018,0.14,0.15,-0.96,0.183,1.374,-0.734,-4.263,0.0848,0.0677,0.0082,-0.0155,1.0033,0.0000,0.0000,0.3000,0.0008,0.0004
4916,0.0229,0.0262,0.0020,0.14,0.14,-1.01,0.184,0.166,-0.284,-4.413,0.0850,0.0680,0.0092,-0.0161,1.0054,0.0000,0.0000,0.3000,0.0011,0.0006
4926,0.0233,0.0250,0.0022,0.15,0.15,-1.05,0.184,1.361,-1.178,-4.369,0.0880,0.0699,0.0055,-0.0153,1.0064,0.0000,0.0000,0.3000,0.0013,0.0009
4936,0.0231,0.0247,0.0022,0.15,0.15,-1.09,0.184,2.046,-2.146,-3.493,0.0884,0.0707,0.0015,-0.0137,1.0034,0.0000,0.0000,0.3000,0.0015,0.0011
4946,0.0316,0.0297,-0.0013,0.13,0.12,-1.14,0.184,3.034,-1.705,-2.973,0.0887,0.0710,0.0031,-0.0154,1.0043,0.0000,0.0000,0.3000,0.0019,0.0014
4956,0.0316,0.0310,-0.0011,0.13,0.12,-1.18,0.184,0.485,1.762,-2.116,0.0890,0.0713,0.0044,-0.0159,1.0057,0.0000,0.0000,0.3000,0.0022,0.0017
4965,0.0314,0.0308,-0.0006,0.13,0.14,-1.21,0.183,2.965,-3.070,-3.674,0.0884,0.0706,0.0063,-0.0152,1.0038,0.0000,0.0000,0.3000,0.0025,0.0021
4976,0.0311,0.0306,-0.0000,0.15,0.15,-1.25,0.183,1.116,1.372,-3.006,0.0871,0.0709,0.0070,-0.0168,1.0081,0.0000,0.0000,0.3000,0.0028,0.0024
4986,0.0280,0.0272,0.0004,0.20,0.17,-1.28,0.183,0.452,-1.595,-3.880,0.0887,0.0708,0.0044,-0.0147,1.0067,0.0000,0.0000,0.3000,0.0031,0.0026
4995,0.0227,0.0271,-0.0038,0.21,0.21,-1.30,0.183,-1.468,-1.937,-1.627,0.0901,0.0706,0.0040,-0.0134,1.0027,0.0000,0.0000,0.3000,0.0033,0.0029
5006,0.0265,0.0253,-0.0032,0.23,0.19,-1.34,0.183,-0.881,-0.783,-2.796,0.0904,0.0701,0.0070,-0.0168,1.0037,0.0000,0.0000,0.3000,0.0036,0.0032
5016,0.0298,0.0236,-0.0029,0.25,0.17,-1.37,0.184,0.941,-1.074,-1.728,0.0907,0.0703,0.0058,-0.0193,1.0050,0.0000,0.0000,0.3000,0.0039,0.0034
5026,0.0295,0.0208,-0.0021,0.27,0.18,-1.40,0.184,0.828,-2.221,-3.379,0.0905,0.0691,0.0034,-0.0186,1.0063,0.0000,0.0000,0.3000,0.0042,0.0036
5036,0.0292,0.0203,-0.0015,0.27,0.20,-1.42,0.184,-1.265,1.419,-2.063,0.0908,0.0690,0.0012,-0.0142,1.0093,0.0000,0.0000,0.3000,0.0045,0.0038
5046,0.0274,0.0156,-0.0011,0.29,0.20,-1.45,0.184,0.831,-1.486,-2.240,0.0908,0.0695,0.0012,-0.0143,1.0078,0.0000,0.0000,0.3000,0.0047,0.0040
5055,0.0272,0.0143,-0.0008,0.31,0.22,-1.47,0.184,-1.152,-0.405,-2.512,0.0912,0.0705,0.0054,-0.0175,1.0045,0.0000,0.0000,0.3000,0.0050,0.0041
5065,0.0259,0.0150,-0.0003,0.29,0.23,-1.50,0.184,-0.794,-1.220,-1.323,0.0910,0.0690,0.0070,-0.0164,1.0087,0.0000,0.0000,0.3000,0.0053,0.0043
5076,0.0259,0.0169,0.0003,0.26,0.23,-1.52,0.184,-0.476,0.858,-0.349,0.0919,0.0689,0.0065,-0.0153,1.0083,0.0000,0.0000,0.3000,0.0055,0.0044
5086,0.0242,0.0113,0.0012,0.29,0.25,-1.54,0.184,-2.018,0.126,-0.364,0.0918,0.0694,0.0051,-0.0150,1.0051,0.0000,0.0000,0.3000,0.0058,0.0045
5096,0.0257,0.0103,0.0020,0.27,0.25,-1.56,0.184,1.720,-0.221,-1.245,0.0921,0.0695,0.0066,-0.0174,1.0046,0.0000,0.0000,0.3000,0.0060,0.0046
5106,0.0244,0.0111,0.0025,0.25,0.26,-1.57,0.184,-0.708,-0.502,-1.079,0.0930,0.0694,0.0054,-0.0163,1.0057,0.0000,0.0000,0.3000,0.0063,0.0047
5116,0.0239,0.0107,0.0032,0.24,0.26,-1.57,0.184,-0.476,-1.246,-0.196,0.0929,0.0699,0.0028,-0.0151,1.0054,0.0000,0.0000,0.3000,0.0065,0.0049
5126,0.0256,0.0095,0.0040,0.23,0.25,-1.58,0.184,2.891,-1.072,-0.159,0.0923,0.0699,0.0032,-0.0150,1.0049,0.0000,0.0000,0.3000,0.0068,0.0049
5135,0.0240,0.0105,0.0046,0.22,0.27,-1.58,0.184,0.008,0.156,0.713,0.0922,0.0702,0.0089,-0.0137,1.0053,0.0000,0.0000,0.3000,0.0070,0.0051
5146,0.0209,0.0098,0.0048,0.22,0.29,-1.59,0.184,1.584,1.028,-0.498,0.0924,0.0703,0.0101,-0.0156,1.0060,0.0000,0.0000,0.3000,0.0072,0.0052
5156,0.0194,0.0102,0.0054,0.22,0.30,-1.59,0.184,3.453,-0.826,-0.044,0.0926,0.0704,0.0036,-0.0143,1.0069,0.0000,0.0000,0.3000,0.0074,0.0053
5167,0.0189,0.0099,0.0059,0.25,0.29,-1.59,0.182,-0.042,2.854,0.568,0.0924,0.0697,0.0035,-0.0154,1.0053,0.0000,0.0000,0.3000,0.0076,0.0054
5176,0.0184,0.0094,0.0064,0.26,0.29,-1.60,0.182,0.755,-0.092,-0.541,0.0926,0.0698,0.0063,-0.0154,1.0071,0.0000,0.0000,0.3000,0.0078,0.0054
5185,0.0169,0.0065,0.0070,0.28,0.29,-1.59,0.182,0.774,-2.132,0.987,0.0926,0.0708,0.0062,-0.0167,1.0082,0.0000,0.0000,0.3000,0.0079,0.0055
5196,0.0164,0.0060,0.0020,0.30,0.29,-1.59,0.182,-0.514,2.406,1.024,0.0927,0.0708,0.0071,-0.0099,1.0061,0.0000,0.0000,0.3000,0.0081,0.0056
5205,0.0153,0.0085,0.0027,0.29,0.29,-1.59,0.182,-0.827,0.508,-0.054,0.0933,0.0703,0.0060,-0.0093,1.0063,0.0000,0.0000,0.3000,0.0083,0.0057
5215,0.0148,0.0080,0.0033,0.29,0.27,-1.59,0.181,0.165,-2.488,1.036,0.0934,0.0703,0.0027,-0.0127,1.0078,0.0000,0.0000,0.3000,0.0084,0.0057
5225,0.0156,0.0055,0.0040,0.31,0.27,-1.58,0.181,-2.946,1.022,1.981,0.0936,0.0704,0.0021,-0.0136,1.0119,0.0000,0.0000,0.3000,0.0086,0.0058
5235,0.0152,0.0050,0.0048,0.32,0.27,-1.57,0.181,1.468,-4.336,0.435,0.0937,0.0704,0.0053,-0.0157,1.0121,0.0000,0.0000,0.3000,0.0087,0.0058
5245,0.0147,0.0045,0.0001,0.31,0.27,-1.56,0.181,-0.217,2.543,0.800,0.0928,0.0692,0.0088,-0.0190,1.0103,0.0000,0.0000,0.3000,0.0089,0.0059
5255,0.0142,0.0039,0.0008,0.31,0.28,-1.56,0.181,0.511,-3.522,0.764,0.0935,0.0709,0.0075,-0.0202,1.0085,0.0000,0.0000,0.3000,0.0090,0.0059
5265,0.0104,-0.0006,0.0015,0.33,0.31,-1.54,0.181,-1.828,0.298,2.091,0.0927,0.0697,0.0074,-0.0192,1.0108,0.0000,0.0000,0.3000,0.0091,0.0059
5275,0.0117,0.0043,0.0027,0.28,0.31,-1.54,0.181,0.312,-1.081,-0.123,0.0932,0.0698,0.0065,-0.0163,1.0116,0.0000,0.0000,0.3000,0.0092,0.0060
5286,0.0082,0.0001,0.0038,0.31,0.33,-1.53,0.181,-0.170,-0.806,0.968,0.0931,0.0676,0.0055,-0.0141,1.0089,0.0000,0.0000,0.3000,0.0093,0.0060
5295,0.0091,-0.0002,0.0012,0.31,0.34,-1.52,0.181,-3.223,0.080,0.648,0.0924,0.0677,0.0056,-0.0123,1.0055,0.0000,0.0000,0.3000,0.0094,0.0060
5306,0.0078,-0.0077,0.0021,0.34,0.35,-1.51,0.181,-5.057,-2.126,1.279,0.0924,0.0673,0.0062,-0.0117,1.0034,0.0000,0.0000,0.3000,0.0095,0.0059
5316,0.0050,-0.0078,0.0032,0.33,0.37,-1.50,0.181,0.986,1.100,-0.075,0.0918,0.0661,0.0041,-0.0121,1.0070,0.0000,0.0000,0.3000,0.0095,0.0058
5325,0.0041,-0.0092,0.0043,0.32,0.39,-1.50,0.181,-1.255,0.278,1.045,0.0918,0.0650,0.0089,-0.0130,1.0079,0.0000,0.0000,0.3000,0.0096,0.0057
5336,0.0012,-0.0135,0.0051,0.31,0.41,-1.48,0.181,-3.964,1.429,1.359,0.0918,0.0649,0.0113,-0.0125,1.0085,0.0000,0.0000,0.3000,0.0096,0.0056
5346,0.0005,-0.0169,0.0034,0.29,0.40,-1.48,0.181,-0.023,2.441,0.147,0.0929,0.0656,0.0101,-0.0122,1.0089,0.0000,0.0000,0.3000,0.0096,0.0054
5355,-0.0002,-0.0174,0.0038,0.29,0.38,-1.47,0.181,-0.764,0.406,0.572,0.0925,0.0657,0.0064,-0.0137,1.0068,0.0000,0.0000,0.3000,0.0096,0.0052
5366,0.0028,-0.0149,0.0045,0.25,0.36,-1.46,0.184,-1.184,1.078,1.693,0.0925,0.0652,0.0043,-0.0156,1.0070,0.0000,0.0000,0.3000,0.0096,0.0051
5376,0.0008,-0.0146,0.0052,0.22,0.36,-1.45,0.184,-1.540,4.965,-0.002,0.0925,0.0651,0.0057,-0.0171,1.0069,0.0000,0.0000,0.3000,0.0096,0.0049
5385,0.0002,-0.0158,0.0060,0.21,0.34,-1.44,0.184,-1.845,1.596,0.662,0.0937,0.0652,0.0060,-0.0174,1.0048,0.0000,0.0000,0.3000,0.0096,0.0048
5396,-0.0004,-0.0162,0.0117,0.20,0.32,-1.44,0.184,-0.657,0.915,0.281,0.0928,0.0653,0.0070,-0.0179,1.0051,0.0000,0.0000,0.3000,0.0096,0.0046
5405,0.0031,-0.0157,0.0125,0.19,0.29,-1.43,0.184,-1.369,-0.071,0.926,0.0927,0.0652,0.0087,-0.0128,1.0063,0.0000,0.0000,0.3000,0.0096,0.0045
5415,-0.0006,-0.0150,0.0132,0.18,0.28,-1.42,0.178,-0.299,0.991,1.388,0.0912,0.0659,0.0082,-0.0134,1.0055,0.0000,0.0000,0.3000,0.0096,0.0043
5426,-0.0011,-0.0153,0.0139,0.16,0.26,-1.41,0.178,-2.122,3.197,1.152,0.0922,0.0628,0.0067,-0.0175,1.0080,0.0000,0.0000,0.3000,0.0096,0.0042
5435,-0.0065,-0.0128,0.0143,0.13,0.27,-1.40,0.178,-0.691,-0.176,0.404,0.0924,0.0625,0.0093,-0.0115,1.0082,0.0000,0.0000,0.3000,0.0096,0.0040
5445,-0.0034,-0.0224,0.0033,0.17,0.23,-1.40,0.178,0.081,-1.028,1.202,0.0924,0.0621,0.0082,-0.0104,1.0054,0.0000,0.0000,0.3000,0.0095,0.0038
5456,-0.0032,-0.0231,0.0039,0.17,0.22,-1.39,0.178,-2.733,0.539,1.352,0.0924,0.0627,0.0066,-0.0087,1.0062,0.0000,0.0000,0.3000,0.0095,0.0036
5466,-0.0034,-0.0238,0.0044,0.16,0.21,-1.38,0.180,-3.846,-0.377,1.107,0.0934,0.0613,0.0037,-0.0103,1.0049,0.0000,0.0000,0.3000,0.0095,0.0033
5476,-0.0037,-0.0214,0.0052,0.13,0.20,-1.37,0.180,-3.285,-0.439,1.609,0.0933,0.0611,0.0044,-0.0129,1.0033,0.0000,0.0000,0.3000,0.0094,0.0031
5486,-0.0008,-0.0253,0.0060,0.14,0.18,-1.37,0.180,-2.807,0.201,0.655,0.0933,0.0608,0.0033,-0.0163,1.0014,0.0000,0.0000,0.3000,0.0094,0.0029
5495,-0.0012,-0.0255,0.0032,0.12,0.19,-1.36,0.180,-5.697,1.364,1.269,0.0933,0.0605,0.0070,-0.0166,1.0039,0.0000,0.0000,0.3000,0.0094,0.0026
5505,-0.0015,-0.0257,0.0038,0.10,0.21,-1.35,0.180,-3.974,0.169,1.179,0.0933,0.0602,0.0060,-0.0171,1.0051,0.0000,0.0000,0.3000,0.0094,0.0024
5515,-0.0018,-0.0260,0.0043,0.07,0.21,-1.34,0.179,-3.695,2.663,0.822,0.0923,0.0585,0.0097,-0.0159,1.0060,0.0000,0.0000,0.3000,0.0094,0.0021
5525,-0.0021,-0.0261,0.0046,0.04,0.21,-1.33,0.179,-4.611,0.467,1.390,0.0909,0.0588,0.0087,-0.0169,1.0038,0.0000,0.0000,0.3000,0.0094,0.0018
5535,-0.0058,-0.0310,0.0047,0.04,0.22,-1.33,0.179,-5.664,0.257,1.664,0.0908,0.0585,0.0097,-0.0156,1.0045,0.0000,0.0000,0.3000,0.0093,0.0015
5546,-0.0104,-0.0291,0.0009,-0.02,0.24,-1.31,0.179,-5.106,0.130,1.340,0.0907,0.0582,0.0080,-0.0158,1.0075,0.0000,0.0000,0.3000,0.0092,0.0012
5556,-0.0108,-0.0290,0.0014,-0.06,0.23,-1.30,0.179,-5.674,-0.415,1.928,0.0907,0.0596,0.0080,-0.0155,1.0065,0.0000,0.0000,0.3000,0.0091,0.0010
5565,-0.0112,-0.0289,0.0019,-0.11,0.23,-1.29,0.180,-5.539,-1.304,2.246,0.0903,0.0605,0.0057,-0.0143,1.0043,0.0000,0.0000,0.3000,0.0090,0.0007
5577,-0.0109,-0.0232,0.0024,-0.20,0.23,-1.27,0.180,-5.007,-2.200,2.335,0.0901,0.0603,0.0045,-0.0133,1.0050,0.0000,0.0000,0.3000,0.0089,0.0004
5585,-0.0125,-0.0193,0.0029,-0.28,0.25,-1.25,0.180,-3.397,-3.674,2.507,0.0901,0.0596,0.0064,-0.0097,1.0046,0.0000,0.0000,0.3000,0.0087,0.0002
5595,-0.0129,-0.0188,0.0028,-0.34,0.26,-1.23,0.180,-0.878,-3.314,1.622,0.0899,0.0561,0.0057,-0.0104,1.0003,0.0000,0.0000,0.3000,0.0086,0.0000
5605,-0.0131,-0.0201,0.0035,-0.37,0.27,-1.21,0.180,-0.461,-1.951,1.880,0.0893,0.0558,0.0094,-0.0150,1.0029,0.0000,0.0000,0.3000,0.0085,-0.0002
5615,-0.0137,-0.0298,0.0039,-0.34,0.30,-1.19,0.179,0.333,-2.168,2.364,0.0891,0.0555,0.0067,-0.0156,1.0024,0.0000,0.0000,0.3000,0.0083,-0.0004
5626,-0.0157,-0.0294,0.0043,-0.36,0.34,-1.17,0.179,0.543,-1.700,2.641,0.0896,0.0556,0.0075,-0.0167,0.9999,0.0000,0.0000,0.3000,0.0082,-0.0007
5635,-0.0163,-0.0288,0.0048,-0.38,0.37,-1.15,0.179,0.404,-0.866,2.678,0.0897,0.0544,0.0076,-0.0140,1.0038,0.0000,0.0000,0.3000,0.0080,-0.0010
5645,-0.0147,-0.0269,0.0021,-0.38,0.38,-1.13,0.179,1.197,0.005,2.688,0.0894,0.0538,0.0065,-0.0121,1.0022,0.0000,0.0000,0.3000,0.0079,-0.0013
5656,-0.0151,-0.0301,0.0023,-0.35,0.39,-1.10,0.179,1.073,1.344,2.741,0.0912,0.0552,0.0084,-0.0091,1.0023,0.0000,0.0000,0.3000,0.0077,-0.0016
5665,-0.0158,-0.0295,0.0025,-0.33,0.40,-1.08,0.181,2.674,2.398,2.051,0.0891,0.0534,0.0073,-0.0125,1.0023,0.0000,0.0000,0.3000,0.0076,-0.0019
5675,-0.0105,-0.0244,0.0027,-0.35,0.36,-1.05,0.181,1.454,3.105,2.818,0.0891,0.0534,0.0077,-0.0169,1.0024,0.0000,0.0000,0.3000,0.0075,-0.0021
5685,-0.0172,-0.0278,0.0029,-0.30,0.39,-1.02,0.181,1.954,1.864,2.633,0.0887,0.0529,0.0091,-0.0182,1.0028,0.0000,0.0000,0.3000,0.0073,-0.0024
5695,-0.0179,-0.0273,0.0055,-0.29,0.37,-1.00,0.181,-0.734,3.422,2.855,0.0912,0.0542,0.0067,-0.0170,0.9999,0.0000,0.0000,0.3000,0.0071,-0.0027
5705,-0.0185,-0.0268,0.0057,-0.27,0.35,-0.97,0.181,0.055,2.172,2.444,0.0903,0.0528,0.0067,-0.0144,1.0038,0.0000,0.0000,0.3000,0.0069,-0.0030
5715,-0.0108,-0.0220,0.0061,-0.29,0.28,-0.94,0.179,-1.530,1.359,1.666,0.0889,0.0529,0.0050,-0.0154,1.0045,0.0000,0.0000,0.3000,0.0068,-0.0032
5726,-0.0139,-0.0255,0.0063,-0.26,0.27,-0.91,0.179,-4.110,1.678,2.699,0.0880,0.0530,0.0102,-0.0148,1.0055,0.0000,0.0000,0.3000,0.0067,-0.0034
5735,-0.0186,-0.0238,0.0065,-0.27,0.27,-0.88,0.179,-3.697,2.882,2.467,0.0871,0.0533,0.0113,-0.0136,1.0056,0.0000,0.0000,0.3000,0.0065,-0.0037
5745,-0.0215,-0.0221,0.0030,-0.28,0.27,-0.85,0.179,-4.336,2.726,2.237,0.0872,0.0525,0.0064,-0.0153,1.0071,0.0000,0.0000,0.3000,0.0063,-0.0039
5755,-0.0242,-0.0200,0.0034,-0.30,0.27,-0.83,0.179,-3.676,0.953,2.197,0.0870,0.0523,0.0053,-0.0165,1.0051,0.0000,0.0000,0.3000,0.0060,-0.0041
5765,-0.0232,-0.0215,0.0039,-0.31,0.24,-0.81,0.182,-3.269,1.300,1.899,0.0856,0.0510,0.0052,-0.0133,1.0051,0.0000,0.0000,0.3000,0.0058,-0.0043
5775,-0.0237,-0.0209,0.0044,-0.35,0.23,-0.79,0.182,-2.987,-1.086,1.785,0.0848,0.0512,0.0071,-0.0134,1.0040,0.0000,0.0000,0.3000,0.0056,-0.0045
5785,-0.0279,-0.0239,0.0049,-0.36,0.24,-0.76,0.182,-1.876,-1.014,1.340,0.0868,0.0523,0.0081,-0.0147,1.0037,0.0000,0.0000,0.3000,0.0053,-0.0048
5795,-0.0302,-0.0218,0.0096,-0.41,0.25,-0.74,0.182,-1.887,0.898,0.756,0.0866,0.0522,0.0078,-0.0152,1.0016,0.0000,0.0000,0.3000,0.0050,-0.0050
5805,-0.0229,-0.0165,0.0102,-0.47,0.20,-0.72,0.182,-2.126,-0.696,1.439,0.0863,0.0520,0.0056,-0.0143,1.0022,0.0000,0.0000,0.3000,0.0048,-0.0051
5815,-0.0232,-0.0157,0.0107,-0.48,0.19,-0.71,0.180,-1.979,-1.121,2.095,0.0861,0.0519,0.0096,-0.0142,1.0039,0.0000,0.0000,0.3000,0.0045,-0.0053
5826,-0.0235,-0.0148,0.0110,-0.50,0.20,-0.69,0.180,0.447,-0.391,1.738,0.0859,0.0518,0.0067,-0.0159,1.0021,0.0000,0.0000,0.3000,0.0043,-0.0054
5835,-0.0238,-0.0140,0.0114,-0.52,0.20,-0.68,0.180,1.408,-0.089,0.989,0.0856,0.0516,0.0056,-0.0158,1.0033,0.0000,0.0000,0.3000,0.0040,-0.0056
5846,-0.0242,-0.0131,0.0082,-0.53,0.20,-0.66,0.180,2.162,0.826,0.791,0.0857,0.0511,0.0088,-0.0163,1.0053,0.0000,0.0000,0.3000,0.0038,-0.0057
5855,-0.0245,-0.0122,0.0085,-0.53,0.20,-0.65,0.180,1.227,2.517,0.852,0.0859,0.0527,0.0096,-0.0153,1.0033,0.0000,0.0000,0.3000,0.0036,-0.0058
5865,-0.0237,-0.0127,0.0088,-0.51,0.19,-0.63,0.180,0.357,2.597,0.999,0.0811,0.0517,0.0099,-0.0163,1.0015,0.0000,0.0000,0.3000,0.0033,-0.0060
5875,-0.0227,-0.0060,0.0090,-0.53,0.17,-0.62,0.180,0.605,2.854,1.106,0.0814,0.0511,0.0091,-0.0156,1.0006,0.0000,0.0000,0.3000,0.0031,-0.0060
5885,-0.0379,-0.0084,0.0093,-0.49,0.25,-0.62,0.180,-0.094,3.833,0.273,0.0810,0.0510,0.0081,-0.0134,1.0001,0.0000,0.0000,0.3000,0.0027,-0.0061
5895,-0.0361,-0.0090,0.0069,-0.47,0.21,-0.61,0.180,-1.519,3.019,0.452,0.0832,0.0501,0.0054,-0.0120,1.0007,0.0000,0.0000,0.3000,0.0024,-0.0062
5905,-0.0364,-0.0082,0.0073,-0.46,0.19,-0.60,0.180,-0.535,2.160,-0.135,0.0832,0.0501,0.0027,-0.0158,0.9985,0.0000,0.0000,0.3000,0.0020,-0.0063
5915,-0.0310,-0.0107,0.0074,-0.44,0.12,-0.59,0.180,-0.769,3.210,-0.019,0.0813,0.0507,0.0054,-0.0159,1.0000,0.0000,0.0000,0.3000,0.0017,-0.0064
5925,-0.0276,-0.0093,0.0075,-0.44,0.07,-0.59,0.180,-2.119,3.006,0.868,0.0795,0.0508,0.0032,-0.0172,1.0021,0.0000,0.0000,0.3000,0.0014,-0.0065
5935,-0.0331,-0.0062,0.0075,-0.47,0.07,-0.59,0.180,-1.276,3.820,0.541,0.0793,0.0508,0.0069,-0.0198,1.0005,0.0000,0.0000,0.3000,0.0011,-0.0065
5945,-0.0381,-0.0050,0.0050,-0.48,0.07,-0.60,0.180,-0.132,4.144,0.211,0.0789,0.0508,0.0078,-0.0179,1.0020,0.0000,0.0000,0.3000,0.0007,-0.0066
5955,-0.0377,-0.0038,0.0049,-0.49,0.04,-0.60,0.180,0.713,4.036,-0.414,0.0792,0.0519,0.0068,-0.0170,1.0005,0.0000,0.0000,0.3000,0.0003,-0.0066
5965,-0.0377,-0.0029,0.0049,-0.50,-0.00,-0.59,0.182,0.384,4.254,0.227,0.0774,0.0513,0.0079,-0.0153,0.9999,0.0000,0.0000,0.3000,-0.0001,-0.0067
5975,-0.0353,0.0015,0.0052,-0.54,-0.05,-0.59,0.182,0.411,4.067,0.505,0.0771,0.0513,0.0087,-0.0161,0.9997,0.0000,0.0000,0.3000,-0.0004,-0.0066
5986,-0.0399,0.0006,0.0052,-0.53,-0.07,-0.59,0.182,1.454,4.589,0.243,0.0785,0.0513,0.0109,-0.0185,1.0010,0.0000,0.0000,0.3000,-0.0008,-0.0066
5995,-0.0398,0.0015,0.0078,-0.52,-0.10,-0.59,0.182,0.748,2.533,0.729,0.0788,0.0502,0.0084,-0.0162,1.0019,0.0000,0.0000,0.3000,-0.0012,-0.0066
6005,-0.0337,0.0022,0.0079,-0.52,-0.18,-0.58,0.182,2.377,2.488,0.175,0.0782,0.0502,0.0095,-0.0156,1.0017,0.0000,0.0000,0.3000,-0.0015,-0.0066
6015,-0.0313,-0.0006,0.0079,-0.49,-0.23,-0.58,0.180,1.371,0.827,1.057,0.0782,0.0502,0.0058,-0.0135,1.0002,0.0000,0.0000,0.3000,-0.0019,-0.0066
6025,-0.0309,0.0002,0.0079,-0.48,-0.26,-0.57,0.180,2.180,0.095,0.891,0.0767,0.0501,0.0079,-0.0142,1.0015,0.0000,0.0000,0.3000,-0.0022,-0.0066
6035,-0.0304,0.0010,0.0080,-0.46,-0.29,-0.57,0.180,2.568,0.639,0.881,0.0774,0.0494,0.0101,-0.0162,0.9978,0.0000,0.0000,0.3000,-0.0025,-0.0066
6045,-0.0337,0.0015,0.0043,-0.44,-0.28,-0.56,0.180,2.794,0.502,1.042,0.0781,0.0488,0.0087,-0.0180,0.9994,0.0000,0.0000,0.3000,-0.0028,-0.0066
6055,-0.0299,0.0001,0.0045,-0.41,-0.32,-0.56,0.180,2.965,0.535,0.120,0.0793,0.0487,0.0038,-0.0176,1.0005,0.0000,0.0000,0.3000,-0.0031,-0.0066
6065,-0.0262,-0.0014,0.0045,-0.37,-0.35,-0.55,0.178,2.626,0.800,0.880,0.0768,0.0485,0.0066,-0.0157,0.9988,0.0000,0.0000,0.3000,-0.0034,-0.0066
6075,-0.0208,-0.0012,0.0046,-0.34,-0.39,-0.54,0.178,2.111,-0.219,1.517,0.0749,0.0490,0.0085,-0.0132,1.0003,0.0000,0.0000,0.3000,-0.0036,-0.0066
6085,-0.0275,-0.0009,0.0044,-0.31,-0.34,-0.53,0.178,2.279,0.266,0.830,0.0755,0.0494,0.0094,-0.0125,1.0028,0.0000,0.0000,0.3000,-0.0039,-0.0066
6095,-0.0323,0.0010,-0.0028,-0.30,-0.31,-0.53,0.178,2.488,0.730,0.899,0.0761,0.0497,0.0112,-0.0167,1.0008,0.0000,0.0000,0.3000,-0.0042,-0.0066
6105,-0.0287,0.0028,-0.0028,-0.28,-0.33,-0.52,0.178,2.831,0.926,0.722,0.0752,0.0496,0.0073,-0.0168,0.9999,0.0000,0.0000,0.3000,-0.0045,-0.0066
6115,-0.0253,0.0044,-0.0030,-0.27,-0.35,-0.50,0.179,3.188,0.911,0.888,0.0753,0.0470,0.0063,-0.0166,0.9992,0.0000,0.0000,0.3000,-0.0047,-0.0065
6125,-0.0267,0.0044,-0.0029,-0.24,-0.33,-0.49,0.179,2.192,0.108,1.684,0.0759,0.0489,0.0091,-0.0169,0.9994,0.0000,0.0000,0.3000,-0.0050,-0.0065
6135,-0.0249,-0.0038,-0.0027,-0.17,-0.35,-0.48,0.179,1.504,-0.250,1.728,0.0755,0.0507,0.0090,-0.0146,1.0010,0.0000,0.0000,0.3000,-0.0052,-0.0065
6145,-0.0215,0.0026,-0.0043,-0.18,-0.37,-0.47,0.179,1.416,-1.265,0.821,0.0756,0.0515,0.0085,-0.0164,0.9997,0.0000,0.0000,0.3000,-0.0054,-0.0065
6155,-0.0215,0.0087,-0.0043,-0.19,-0.37,-0.46,0.179,-0.002,-0.213,0.782,0.0775,0.0514,0.0099,-0.0154,1.0024,0.0000,0.0000,0.3000,-0.0057,-0.0064
6166,-0.0200,0.0116,-0.0044,-0.19,-0.38,-0.44,0.177,1.596,-1.523,0.834,0.0756,0.0514,0.0068,-0.0165,1.0013,0.0000,0.0000,0.3000,-0.0059,-0.0063
6174,-0.0125,0.0112,-0.0044,-0.18,-0.42,-0.42,0.177,0.439,-0.038,0.708,0.0761,0.0513,0.0059,-0.0157,1.0038,0.0000,0.0000,0.3000,-0.0060,-0.0062
6185,-0.0174,0.0111,-0.0044,-0.17,-0.38,-0.42,0.177,0.782,-0.281,1.169,0.0775,0.0527,0.0065,-0.0165,1.0043,0.0000,0.0000,0.3000,-0.0062,-0.0061
6194,-0.0146,0.0107,-0.0094,-0.16,-0.39,-0.41,0.177,1.530,0.141,1.762,0.0775,0.0530,0.0074,-0.0154,1.0062,0.0000,0.0000,0.3000,-0.0063,-0.0060
6205,-0.0088,0.0150,-0.0092,-0.18,-0.42,-0.40,0.177,0.835,-0.472,1.426,0.0766,0.0534,0.0080,-0.0126,1.0050,0.0000,0.0000,0.3000,-0.0064,-0.0058
6215,-0.0078,0.0161,-0.0090,-0.17,-0.42,-0.39,0.176,0.741,1.130,1.148,0.0772,0.0527,0.0076,-0.0149,1.0018,0.0000,0.0000,0.3000,-0.0065,-0.0057
6225,-0.0098,0.0170,-0.0087,-0.15,-0.39,-0.37,0.176,3.516,-3.803,0.863,0.0772,0.0528,0.0079,-0.0166,1.0023,0.0000,0.0000,0.3000,-0.0066,-0.0055
6234,-0.0102,0.0194,-0.0082,-0.15,-0.38,-0.36,0.176,-1.892,1.536,2.283,0.0766,0.0531,0.0052,-0.0152,1.0028,0.0000,0.0000,0.3000,-0.0067,-0.0053
6245,-0.0061,0.0143,-0.0118,-0.09,-0.39,-0.34,0.176,0.694,-4.661,1.616,0.0765,0.0533,0.0043,-0.0157,1.0052,0.0000,0.0000,0.3000,-0.0067,-0.0051
6254,-0.0071,0.0150,-0.0115,-0.07,-0.36,-0.33,0.176,-2.774,-0.920,2.287,0.0764,0.0528,0.0066,-0.0151,1.0060,0.0000,0.0000,0.3000,-0.0068,-0.0050
6265,-0.0064,0.0151,-0.0112,-0.07,-0.37,-0.32,0.174,-1.303,-4.577,1.503,0.0755,0.0528,0.0057,-0.0151,1.0045,0.0000,0.0000,0.3000,-0.0069,-0.0048
6275,-0.0061,0.0131,-0.0110,-0.05,-0.33,-0.30,0.174,-1.628,-5.866,1.992,0.0754,0.0529,0.0079,-0.0109,1.0047,0.0000,0.0000,0.3000,-0.0069,-0.0047
6284,-0.0085,0.0129,-0.0107,-0.07,-0.30,-0.28,0.174,-0.168,-6.249,1.596,0.0756,0.0530,0.0045,-0.0132,1.0032,0.0000,0.0000,0.3000,-0.0070,-0.0046
6296,-0.0080,0.0130,-0.0156,-0.08,-0.25,-0.27,0.174,-0.766,-7.088,2.070,0.0755,0.0531,0.0074,-0.0120,1.0043,0.0000,0.0000,0.3000,-0.0071,-0.0045
6305,-0.0065,0.0128,-0.0151,-0.10,-0.20,-0.24,0.174,-1.181,-5.817,2.023,0.0757,0.0536,0.0068,-0.0131,1.0057,0.0000,0.0000,0.3000,-0.0072,-0.0043
6315,-0.0062,0.0130,-0.0147,-0.11,-0.15,-0.22,0.178,-1.501,-3.466,2.689,0.0757,0.0537,0.0039,-0.0137,1.0090,0.0000,0.0000,0.3000,-0.0072,-0.0042
6325,-0.0050,0.0143,-0.0143,-0.14,-0.10,-0.20,0.178,-1.344,-2.744,2.881,0.0760,0.0537,0.0056,-0.0141,1.0074,0.0000,0.0000,0.3000,-0.0073,-0.0041
6334,-0.0048,0.0145,-0.0139,-0.16,-0.05,-0.17,0.178,-2.645,-1.077,2.622,0.0745,0.0551,0.0031,-0.0111,1.0105,0.0000,0.0000,0.3000,-0.0073,-0.0039
6344,-0.0034,0.0143,-0.0062,-0.17,-0.01,-0.15,0.178,0.013,-0.680,2.365,0.0764,0.0542,0.0062,-0.0124,1.0058,0.0000,0.0000,0.3000,-0.0074,-0.0038
6355,-0.0083,0.0189,-0.0056,-0.21,0.06,-0.13,0.178,-1.321,0.735,2.191,0.0745,0.0551,0.0052,-0.0106,1.0025,0.0000,0.0000,0.3000,-0.0074,-0.0036
6365,-0.0019,0.0157,-0.0047,-0.21,0.04,-0.10,0.178,-0.396,0.115,1.535,0.0764,0.0533,0.0082,-0.0108,1.0023,0.0000,0.0000,0.3000,-0.0075,-0.0034
6375,-0.0082,0.0185,-0.0038,-0.22,0.11,-0.08,0.178,1.918,-1.171,2.209,0.0764,0.0534,0.0063,-0.0137,1.0046,0.0000,0.0000,0.3000,-0.0075,-0.0032
6385,-0.0018,0.0121,-0.0028,-0.17,0.08,-0.06,0.178,-1.232,3.257,1.933,0.0763,0.0543,0.0068,-0.0173,1.0026,0.0000,0.0000,0.3000,-0.0076,-0.0031
6395,-0.0019,0.0124,0.0024,-0.17,0.09,-0.03,0.178,0.627,-0.939,1.796,0.0763,0.0544,0.0039,-0.0185,1.0010,0.0000,0.0000,0.3000,-0.0076,-0.0030
6405,-0.0021,0.0150,0.0026,-0.19,0.08,-0.01,0.178,-1.686,2.421,2.505,0.0763,0.0546,0.0034,-0.0157,1.0003,0.0000,0.0000,0.3000,-0.0076,-0.0028
6415,-0.0023,0.0153,0.0029,-0.19,0.07,0.00,0.175,0.079,-0.024,1.273,0.0769,0.0551,0.0015,-0.0143,1.0009,0.0000,0.0000,0.3000,-0.0076,-0.0027
6424,-0.0024,0.0157,0.0032,-0.19,0.07,0.03,0.175,-1.398,2.001,2.600,0.0769,0.0560,0.0035,-0.0133,1.0042,0.0000,0.0000,0.3000,-0.0076,-0.0025
6435,-0.0004,0.0172,0.0034,-0.20,0.04,0.05,0.175,1.671,-3.031,1.924,0.0765,0.0560,0.0089,-0.0156,1.0075,0.0000,0.0000,0.3000,-0.0076,-0.0024
6445,-0.0004,0.0200,-0.0006,-0.22,0.04,0.07,0.175,-0.937,-1.851,0.765,0.0768,0.0558,0.0066,-0.0180,1.0018,0.0000,0.0000,0.3000,-0.0076,-0.0022
6455,-0.0018,0.0197,-0.0006,-0.23,0.03,0.08,0.175,-0.912,-0.765,2.612,0.0772,0.0554,0.0041,-0.0137,0.9998,0.0000,0.0000,0.3000,-0.0077,-0.0020
6464,-0.0006,0.0190,-0.0005,-0.23,0.03,0.11,0.173,0.198,-2.241,1.095,0.0763,0.0549,0.0072,-0.0154,1.0036,0.0000,0.0000,0.3000,-0.0077,-0.0018
6475,0.0007,0.0170,0.0001,-0.21,0.05,0.12,0.173,-0.162,-2.368,2.116,0.0763,0.0550,0.0052,-0.0176,1.0037,0.0000,0.0000,0.3000,-0.0077,-0.0016
6485,-0.0026,0.0152,0.0007,-0.22,0.07,0.14,0.173,-0.701,0.919,2.211,0.0766,0.0550,0.0053,-0.0173,1.0033,0.0000,0.0000,0.3000,-0.0077,-0.0015
6495,-0.0028,0.0155,-0.0059,-0.21,0.10,0.16,0.173,-0.339,0.618,1.080,0.0762,0.0559,0.0068,-0.0140,1.0023,0.0000,0.0000,0.3000,-0.0077,-0.0013
6505,-0.0015,0.0153,-0.0058,-0.21,0.11,0.18,0.173,0.236,0.991,0.284,0.0762,0.0561,0.0101,-0.0150,1.0049,0.0000,0.0000,0.3000,-0.0077,-0.0011
6515,-0.0032,0.0183,-0.0055,-0.23,0.12,0.20,0.176,1.639,-1.413,1.132,0.0772,0.0556,0.0059,-0.0158,1.0048,0.0000,0.0000,0.3000,-0.0078,-0.0010
6525,-0.0034,0.0187,-0.0052,-0.24,0.12,0.21,0.176,0.346,0.175,1.826,0.0762,0.0578,0.0053,-0.0114,1.0048,0.0000,0.0000,0.3000,-0.0078,-0.0008
6535,0.0001,0.0165,-0.0048,-0.22,0.10,0.21,0.176,0.141,1.857,1.580,0.0762,0.0582,0.0051,-0.0118,1.0047,0.0000,0.0000,0.3000,-0.0078,-0.0006
6546,-0.0036,0.0241,-0.0013,-0.26,0.13,0.23,0.176,1.205,2.075,1.393,0.0763,0.0618,0.0096,-0.0130,1.0043,0.0000,0.0000,0.3000,-0.0078,-0.0004
6555,-0.0037,0.0251,-0.0008,-0.26,0.12,0.24,0.176,1.635,0.083,1.467,0.0762,0.0622,0.0103,-0.0124,1.0028,0.0000,0.0000,0.3000,-0.0079,-0.0001
6565,-0.0035,0.0372,-0.0005,-0.33,0.11,0.25,0.172,1.001,2.040,2.117,0.0762,0.0625,0.0080,-0.0126,1.0038,0.0000,0.0000,0.3000,-0.0079,0.0003
6574,-0.0037,0.0377,-0.0000,-0.32,0.10,0.27,0.172,2.632,-1.054,2.053,0.0763,0.0599,0.0103,-0.0135,1.0021,0.0000,0.0000,0.3000,-0.0079,0.0006
6584,-0.0037,0.0377,-0.0000,-0.32,0.10,0.27,0.172,1.343,1.128,2.824,0.0763,0.0602,0.0095,-0.0151,1.0038,0.0000,0.0000,0.3000,-0.0080,0.0010
6595,-0.0035,0.0351,-0.0061,-0.26,0.07,0.30,0.172,2.853,1.815,1.863,0.0764,0.0619,0.0105,-0.0145,1.0042,0.0000,0.0000,0.3000,-0.0080,0.0014
6605,-0.0035,0.0282,-0.0060,-0.21,0.07,0.30,0.172,4.324,-0.288,2.167,0.0764,0.0622,0.0074,-0.0146,1.0024,0.0000,0.0000,0.3000,-0.0081,0.0016
6614,-0.0034,0.0401,-0.0059,-0.26,0.07,0.32,0.171,2.383,1.373,1.591,0.0764,0.0661,0.0054,-0.0154,1.0044,0.0000,0.0000,0.3000,-0.0081,0.0020
6625,-0.0031,0.0335,-0.0054,-0.19,0.05,0.36,0.171,5.575,-2.124,1.270,0.0769,0.0663,0.0072,-0.0172,1.0037,0.0000,0.0000,0.3000,-0.0081,0.0024
6635,-0.0032,0.0460,-0.0054,-0.24,0.05,0.36,0.171,2.250,1.811,2.745,0.0769,0.0668,0.0105,-0.0148,1.0054,0.0000,0.0000,0.3000,-0.0081,0.0028
6645,-0.0014,0.0456,-0.0106,-0.20,0.04,0.38,0.171,6.051,-4.303,3.018,0.0769,0.0656,0.0075,-0.0154,1.0006,0.0000,0.0000,0.3000,-0.0082,0.0033
6654,-0.0015,0.0459,-0.0103,-0.17,0.03,0.40,0.171,4.364,-2.726,1.432,0.0768,0.0643,0.0064,-0.0218,1.0011,0.0000,0.0000,0.3000,-0.0082,0.0038
6665,-0.0012,0.0406,-0.0099,-0.08,0.05,0.42,0.171,0.031,0.790,1.381,0.0767,0.0659,0.0079,-0.0173,1.0031,0.0000,0.0000,0.3000,-0.0082,0.0042
6675,-0.0018,0.0350,-0.0095,-0.01,0.04,0.44,0.171,1.845,0.199,2.638,0.0767,0.0649,0.0098,-0.0174,1.0041,0.0000,0.0000,0.3000,-0.0082,0.0045
6684,-0.0022,0.0392,-0.0090,0.01,0.06,0.47,0.171,3.015,-2.361,2.880,0.0767,0.0638,0.0127,-0.0147,1.0031,0.0000,0.0000,0.3000,-0.0082,0.0049
6694,-0.0020,0.0344,-0.0109,0.09,0.09,0.49,0.171,4.620,-2.785,0.604,0.0767,0.0641,0.0059,-0.0106,1.0026,0.0000,0.0000,0.3000,-0.0083,0.0052
6705,-0.0021,0.0294,-0.0108,0.13,0.09,0.50,0.171,0.478,1.090,-0.535,0.0767,0.0644,0.0066,-0.0119,1.0040,0.0000,0.0000,0.3000,-0.0083,0.0055
6714,-0.0022,0.0292,-0.0106,0.15,0.08,0.52,0.171,-1.291,3.942,0.309,0.0767,0.0647,0.0071,-0.0151,1.0086,0.0000,0.0000,0.3000,-0.0083,0.0058
6725,-0.0024,0.0289,-0.0102,0.17,0.10,0.55,0.171,-0.571,4.036,0.433,0.0783,0.0656,0.0113,-0.0164,1.0069,0.0000,0.0000,0.3000,-0.0083,0.0061
6734,-0.0025,0.0286,-0.0098,0.22,0.14,0.56,0.171,-3.167,4.148,-0.344,0.0785,0.0651,0.0080,-0.0126,1.0046,0.0000,0.0000,0.3000,-0.0083,0.0064
6744,0.0030,0.0305,-0.0097,0.22,0.10,0.56,0.171,-2.046,3.478,-1.472,0.0786,0.0675,0.0114,-0.0145,1.0072,0.0000,0.0000,0.3000,-0.0083,0.0067
6754,0.0033,0.0272,-0.0093,0.22,0.07,0.56,0.171,-1.744,-1.010,-1.662,0.0754,0.0665,0.0095,-0.0160,1.0055,0.0000,0.0000,0.3000,-0.0083,0.0070
6764,0.0035,0.0342,-0.0089,0.17,0.02,0.57,0.168,-0.346,-0.512,-1.369,0.0768,0.0688,0.0055,-0.0146,1.0027,0.0000,0.0000,0.3000,-0.0082,0.0073
6774,-0.0075,0.0293,-0.0079,0.17,0.05,0.57,0.168,-1.007,1.446,-0.846,0.0767,0.0691,0.0069,-0.0159,1.0057,0.0000,0.0000,0.3000,-0.0083,0.0076
6785,-0.0027,0.0359,-0.0075,0.10,-0.02,0.55,0.168,-0.599,-0.793,-0.991,0.0767,0.0695,0.0095,-0.0166,1.0083,0.0000,0.0000,0.3000,-0.0083,0.0080
6794,-0.0027,0.0357,-0.0127,0.09,-0.03,0.53,0.168,0.037,0.820,-2.027,0.0767,0.0699,0.0063,-0.0150,1.0064,0.0000,0.0000,0.3000,-0.0084,0.0083
6805,-0.0026,0.0355,-0.0120,0.08,-0.02,0.52,0.168,-0.792,2.623,-0.850,0.0767,0.0702,0.0079,-0.0129,1.0057,0.0000,0.0000,0.3000,-0.0084,0.0087
6814,-0.0026,0.0355,-0.0116,0.07,-0.04,0.51,0.169,1.505,-1.710,-0.911,0.0766,0.0706,0.0077,-0.0117,1.0057,0.0000,0.0000,0.3000,-0.0084,0.0090
6825,-0.0025,0.0354,-0.0111,0.06,-0.04,0.50,0.169,-1.098,1.121,-1.517,0.0766,0.0698,0.0061,-0.0142,1.0059,0.0000,0.0000,0.3000,-0.0084,0.0094
6834,-0.0023,0.0351,-0.0097,0.07,-0.08,0.47,0.169,1.245,-0.634,-1.178,0.0766,0.0701,0.0083,-0.0183,1.0089,0.0000,0.0000,0.3000,-0.0085,0.0097
6844,-0.0025,0.0313,-0.0096,0.09,-0.08,0.47,0.169,0.805,2.875,-1.128,0.0771,0.0694,0.0068,-0.0139,1.0071,0.0000,0.0000,0.3000,-0.0085,0.0101
6854,-0.0022,0.0310,-0.0084,0.10,-0.07,0.44,0.169,1.086,0.541,-1.814,0.0767,0.0692,0.0067,-0.0137,1.0087,0.0000,0.0000,0.3000,-0.0085,0.0104
6865,-0.0004,0.0274,-0.0084,0.13,-0.08,0.44,0.169,3.080,1.583,-0.578,0.0767,0.0696,0.0099,-0.0126,1.0059,0.0000,0.0000,0.3000,-0.0085,0.0106
6875,-0.0014,0.0254,-0.0072,0.15,-0.10,0.42,0.169,-0.587,3.303,-0.405,0.0768,0.0713,0.0079,-0.0159,1.0070,0.0000,0.0000,0.3000,-0.0085,0.0109
6884,-0.0013,0.0258,-0.0072,0.15,-0.10,0.42,0.169,3.100,-0.171,-1.089,0.0769,0.0718,0.0070,-0.0157,1.0071,0.0000,0.0000,0.3000,-0.0086,0.0112
6895,-0.0007,0.0305,-0.0048,0.14,-0.13,0.40,0.169,1.529,2.716,-0.232,0.0774,0.0705,0.0092,-0.0134,1.0060,0.0000,0.0000,0.3000,-0.0086,0.0115
6904,-0.0002,0.0308,-0.0048,0.14,-0.13,0.40,0.169,2.445,1.893,-1.461,0.0775,0.0708,0.0069,-0.0112,1.0052,0.0000,0.0000,0.3000,-0.0086,0.0118
6914,0.0017,0.0253,-0.0039,0.18,-0.16,0.39,0.168,2.806,3.708,-0.420,0.0785,0.0721,0.0092,-0.0118,1.0065,0.0000,0.0000,0.3000,-0.0085,0.0120
6925,0.0023,0.0252,-0.0033,0.20,-0.18,0.39,0.168,3.825,0.383,-0.750,0.0772,0.0752,0.0071,-0.0122,1.0074,0.0000,0.0000,0.3000,-0.0085,0.0123
6935,0.0060,0.0283,-0.0026,0.20,-0.23,0.38,0.168,2.472,0.063,-1.211,0.0772,0.0744,0.0078,-0.0122,1.0068,0.0000,0.0000,0.3000,-0.0085,0.0126
6944,0.0017,0.0376,-0.0033,0.17,-0.22,0.37,0.168,1.215,1.302,-1.260,0.0773,0.0748,0.0079,-0.0161,1.0091,0.0000,0.0000,0.3000,-0.0084,0.0129
6954,0.0020,0.0335,-0.0027,0.21,-0.26,0.36,0.168,-0.339,0.705,-0.904,0.0773,0.0751,0.0073,-0.0166,1.0061,0.0000,0.0000,0.3000,-0.0084,0.0133
6964,0.0025,0.0331,-0.0021,0.24,-0.27,0.36,0.168,2.041,-1.667,-0.784,0.0773,0.0754,0.0059,-0.0150,1.0080,0.0000,0.0000,0.3000,-0.0084,0.0136
6974,0.0029,0.0327,-0.0014,0.28,-0.27,0.34,0.168,0.658,0.218,-1.806,0.0767,0.0752,0.0054,-0.0149,1.0063,0.0000,0.0000,0.3000,-0.0084,0.0139
6984,0.0034,0.0322,-0.0007,0.30,-0.27,0.33,0.168,2.887,-2.421,-0.604,0.0772,0.0750,0.0055,-0.0154,1.0041,0.0000,0.0000,0.3000,-0.0083,0.0143
6995,0.0017,0.0298,-0.0005,0.32,-0.27,0.32,0.168,1.228,-0.063,-0.291,0.0771,0.0753,0.0105,-0.0131,1.0090,0.0000,0.0000,0.3000,-0.0083,0.0145
7004,0.0038,0.0278,0.0003,0.35,-0.27,0.31,0.168,1.097,-0.072,-0.498,0.0776,0.0746,0.0094,-0.0156,1.0101,0.0000,0.0000,0.3000,-0.0083,0.0148
7014,0.0037,0.0271,0.0010,0.36,-0.26,0.30,0.166,1.863,-0.926,-1.377,0.0790,0.0754,0.0063,-0.0155,1.0091,0.0000,0.0000,0.3000,-0.0082,0.0151
7025,0.0056,0.0235,0.0017,0.40,-0.27,0.29,0.166,3.571,-1.506,-1.184,0.0770,0.0753,0.0076,-0.0164,1.0097,0.0000,0.0000,0.3000,-0.0082,0.0153
7034,0.0107,0.0248,0.0022,0.40,-0.29,0.28,0.166,3.726,-1.816,-0.061,0.0784,0.0751,0.0059,-0.0174,1.0085,0.0000,0.0000,0.3000,-0.0081,0.0156
7044,0.0041,0.0227,-0.0022,0.43,-0.22,0.27,0.166,0.405,0.801,-0.488,0.0792,0.0749,0.0057,-0.0145,1.0080,0.0000,0.0000,0.3000,-0.0080,0.0158
7054,0.0089,0.0205,-0.0013,0.47,-0.24,0.26,0.166,4.609,-2.862,-1.085,0.0792,0.0757,0.0056,-0.0164,1.0098,0.0000,0.0000,0.3000,-0.0079,0.0160
7064,0.0118,0.0183,-0.0004,0.51,-0.25,0.25,0.164,2.651,-0.239,-0.096,0.0790,0.0746,0.0056,-0.0161,1.0090,0.0000,0.0000,0.3000,-0.0078,0.0162
7074,0.0117,0.0197,0.0005,0.52,-0.24,0.25,0.164,0.656,0.115,-0.853,0.0792,0.0747,0.0083,-0.0106,1.0082,0.0000,0.0000,0.3000,-0.0077,0.0164
7084,0.0113,0.0144,0.0015,0.57,-0.23,0.25,0.164,1.144,-0.426,-0.081,0.0796,0.0746,0.0098,-0.0164,1.0039,0.0000,0.0000,0.3000,-0.0076,0.0165
7094,0.0117,0.0134,-0.0051,0.61,-0.21,0.24,0.164,0.567,-1.320,-1.530,0.0800,0.0759,0.0114,-0.0173,1.0049,0.0000,0.0000,0.3000,-0.0075,0.0167
7104,0.0131,0.0117,-0.0043,0.63,-0.22,0.24,0.164,-1.674,1.904,-0.182,0.0803,0.0754,0.0069,-0.0143,1.0065,0.0000,0.0000,0.3000,-0.0074,0.0168
7114,0.0143,0.0146,-0.0034,0.62,-0.22,0.22,0.168,0.892,-5.254,-1.537,0.0804,0.0736,0.0039,-0.0110,1.0044,0.0000,0.0000,0.3000,-0.0072,0.0169
7124,0.0154,0.0113,-0.0026,0.65,-0.22,0.22,0.168,-4.101,-0.229,-0.704,0.0806,0.0736,0.0092,-0.0120,1.0071,0.0000,0.0000,0.3000,-0.0071,0.0170
7134,0.0154,0.0039,-0.0019,0.70,-0.20,0.21,0.168,-3.249,-1.000,-1.559,0.0810,0.0737,0.0087,-0.0120,1.0081,0.0000,0.0000,0.3000,-0.0069,0.0171
7144,0.0159,0.0025,0.0031,0.68,-0.22,0.21,0.168,-0.946,-1.759,-2.021,0.0800,0.0743,0.0086,-0.0164,1.0109,0.0000,0.0000,0.3000,-0.0067,0.0171
7154,0.0171,0.0017,0.0036,0.69,-0.18,0.20,0.168,-2.230,-2.496,-1.070,0.0825,0.0743,0.0082,-0.0141,1.0088,0.0000,0.0000,0.3000,-0.0066,0.0171
7164,0.0135,0.0024,0.0042,0.65,-0.14,0.18,0.166,-3.260,-0.917,-0.744,0.0819,0.0744,0.0073,-0.0126,1.0101,0.0000,0.0000,0.3000,-0.0064,0.0172
7174,0.0218,0.0014,0.0047,0.62,-0.18,0.17,0.166,-2.159,0.025,-1.353,0.0823,0.0741,0.0071,-0.0134,1.0078,0.0000,0.0000,0.3000,-0.0062,0.0172
7184,0.0194,0.0006,0.0055,0.61,-0.15,0.15,0.166,-1.462,-0.709,-1.844,0.0822,0.0746,0.0069,-0.0164,1.0068,0.0000,0.0000,0.3000,-0.0060,0.0172
7194,0.0202,-0.0015,0.0043,0.59,-0.13,0.14,0.166,-0.970,-0.901,-2.460,0.0822,0.0742,0.0063,-0.0175,1.0044,0.0000,0.0000,0.3000,-0.0058,0.0172
7204,0.0195,-0.0007,0.0054,0.55,-0.11,0.12,0.166,1.646,-0.659,-2.132,0.0821,0.0758,0.0077,-0.0165,1.0079,0.0000,0.0000,0.3000,-0.0056,0.0171
7216,0.0188,-0.0029,0.0063,0.54,-0.10,0.10,0.165,1.644,-2.197,-2.301,0.0836,0.0742,0.0068,-0.0145,1.0087,0.0000,0.0000,0.3000,-0.0054,0.0171
7224,0.0181,0.0021,0.0072,0.49,-0.08,0.09,0.165,0.630,-0.539,-2.559,0.0839,0.0741,0.0082,-0.0147,1.0080,0.0000,0.0000,0.3000,-0.0053,0.0171
7234,0.0231,-0.0045,0.0079,0.52,-0.11,0.06,0.165,1.580,-0.583,-2.060,0.0841,0.0741,0.0059,-0.0140,1.0085,0.0000,0.0000,0.3000,-0.0050,0.0171
7244,0.0232,-0.0054,0.0044,0.53,-0.10,0.04,0.165,0.614,-0.700,-2.644,0.0849,0.0723,0.0048,-0.0160,1.0102,0.0000,0.0000,0.3000,-0.0048,0.0170
7254,0.0234,-0.0063,0.0049,0.53,-0.09,0.02,0.165,1.656,1.406,-2.783,0.0848,0.0711,0.0056,-0.0141,1.0056,0.0000,0.0000,0.3000,-0.0046,0.0170
7264,0.0254,-0.0132,0.0057,0.58,-0.09,-0.01,0.166,0.890,1.811,-2.585,0.0848,0.0706,0.0045,-0.0172,1.0076,0.0000,0.0000,0.3000,-0.0043,0.0168
7274,0.0244,-0.0181,0.0065,0.61,-0.08,-0.03,0.166,1.041,0.837,-2.806,0.0848,0.0702,0.0068,-0.0148,1.0063,0.0000,0.0000,0.3000,-0.0041,0.0167
7284,0.0237,-0.0200,0.0072,0.62,-0.08,-0.05,0.166,-0.525,0.372,-2.841,0.0851,0.0700,0.0105,-0.0168,1.0078,0.0000,0.0000,0.3000,-0.0038,0.0165
7294,0.0230,-0.0218,0.0074,0.64,-0.09,-0.08,0.166,1.325,-1.322,-3.043,0.0850,0.0705,0.0108,-0.0152,1.0105,0.0000,0.0000,0.3000,-0.0036,0.0162
7304,0.0231,-0.0229,0.0082,0.65,-0.10,-0.11,0.166,-1.812,-1.115,-2.546,0.0853,0.0702,0.0096,-0.0119,1.0103,0.0000,0.0000,0.3000,-0.0034,0.0160
7314,0.0223,-0.0214,0.0089,0.65,-0.09,-0.14,0.164,-2.072,-1.804,-2.194,0.0851,0.0699,0.0059,-0.0144,1.0092,0.0000,0.0000,0.3000,-0.0031,0.0158
7324,0.0225,-0.0226,0.0096,0.65,-0.10,-0.16,0.164,-3.185,-1.640,-2.657,0.0854,0.0697,0.0090,-0.0143,1.0081,0.0000,0.0000,0.3000,-0.0029,0.0156
7334,0.0215,-0.0239,0.0103,0.66,-0.08,-0.19,0.164,-3.987,-1.573,-2.738,0.0857,0.0712,0.0086,-0.0161,1.0073,0.0000,0.0000,0.3000,-0.0027,0.0153
7344,0.0216,-0.0250,0.0057,0.65,-0.07,-0.22,0.164,-2.282,-2.200,-2.646,0.0847,0.0718,0.0096,-0.0152,1.0040,0.0000,0.0000,0.3000,-0.0025,0.0151
7354,0.0221,-0.0197,0.0068,0.59,-0.06,-0.25,0.164,-5.026,-1.895,-1.899,0.0849,0.0716,0.0109,-0.0123,1.0070,0.0000,0.0000,0.3000,-0.0023,0.0149
7364,0.0178,-0.0176,0.0079,0.54,-0.01,-0.27,0.167,-2.436,-2.068,-2.655,0.0857,0.0679,0.0093,-0.0121,1.0085,0.0000,0.0000,0.3000,-0.0021,0.0147
7374,0.0178,-0.0186,0.0087,0.51,0.00,-0.30,0.167,-3.943,-2.582,-1.988,0.0859,0.0676,0.0062,-0.0118,1.0096,0.0000,0.0000,0.3000,-0.0019,0.0145
7384,0.0198,-0.0340,0.0092,0.58,0.01,-0.33,0.167,-4.774,-0.402,-2.348,0.0847,0.0671,0.0038,-0.0142,1.0094,0.0000,0.0000,0.3000,-0.0017,0.0142
7394,0.0202,-0.0332,0.0121,0.52,0.02,-0.35,0.167,-1.817,-2.636,-2.614,0.0848,0.0668,0.0046,-0.0130,1.0088,0.0000,0.0000,0.3000,-0.0015,0.0139
7404,0.0173,-0.0288,0.0127,0.46,0.07,-0.38,0.167,-2.373,0.321,-2.286,0.0838,0.0652,0.0073,-0.0133,1.0067,0.0000,0.0000,0.3000,-0.0013,0.0136
7414,0.0148,-0.0354,0.0133,0.46,0.11,-0.39,0.163,-2.861,1.044,-1.766,0.0839,0.0648,0.0079,-0.0123,1.0073,0.0000,0.0000,0.3000,-0.0012,0.0132
7423,0.0105,-0.0405,0.0142,0.45,0.15,-0.42,0.163,-0.263,1.045,-1.988,0.0866,0.0633,0.0079,-0.0136,1.0072,0.0000,0.0000,0.3000,-0.0011,0.0128
7434,0.0102,-0.0413,0.0151,0.42,0.17,-0.44,0.163,-0.613,0.820,-1.619,0.0874,0.0634,0.0057,-0.0120,1.0072,0.0000,0.0000,0.3000,-0.0010,0.0124
7444,0.0190,-0.0459,0.0074,0.43,0.11,-0.47,0.163,-2.289,3.365,-1.757,0.0870,0.0648,0.0078,-0.0121,1.0043,0.0000,0.0000,0.3000,-0.0008,0.0119
7454,0.0212,-0.0445,0.0082,0.39,0.09,-0.49,0.163,-1.040,2.247,-2.128,0.0870,0.0646,0.0098,-0.0152,1.0027,0.0000,0.0000,0.3000,-0.0006,0.0115
7464,0.0187,-0.0385,0.0090,0.33,0.10,-0.50,0.164,-2.392,2.305,-1.306,0.0883,0.0618,0.0059,-0.0158,1.0033,0.0000,0.0000,0.3000,-0.0004,0.0111
7474,0.0180,-0.0386,0.0096,0.32,0.08,-0.52,0.164,-1.997,2.404,-2.439,0.0892,0.0624,0.0071,-0.0152,1.0050,0.0000,0.0000,0.3000,-0.0002,0.0107
7484,0.0218,-0.0479,0.0101,0.37,0.03,-0.55,0.164,-2.526,1.826,-2.092,0.0884,0.0621,0.0062,-0.0118,1.0046,0.0000,0.0000,0.3000,0.0000,0.0102
7494,0.0241,-0.0445,0.0063,0.34,-0.01,-0.57,0.164,-3.380,1.470,-1.227,0.0888,0.0582,0.0054,-0.0125,1.0057,0.0000,0.0000,0.3000,0.0002,0.0098
7504,0.0204,-0.0444,0.0066,0.32,-0.01,-0.59,0.164,-4.401,1.209,-0.904,0.0884,0.0588,0.0059,-0.0142,1.0046,0.0000,0.0000,0.3000,0.0004,0.0094
7514,0.0211,-0.0574,0.0067,0.39,-0.04,-0.61,0.165,-3.425,-0.546,-1.988,0.0892,0.0591,0.0052,-0.0137,1.0032,0.0000,0.0000,0.3000,0.0007,0.0088
7524,0.0190,-0.0537,0.0073,0.33,-0.05,-0.63,0.165,-3.805,-0.810,-1.478,0.0894,0.0585,0.0060,-0.0146,1.0016,0.0000,0.0000,0.3000,0.0008,0.0082
7534,0.0213,-0.0515,0.0078,0.29,-0.08,-0.65,0.165,-2.949,-2.158,-2.021,0.0906,0.0588,0.0070,-0.0138,1.0023,0.0000,0.0000,0.3000,0.0011,0.0077
7544,0.0214,-0.0519,0.0075,0.25,-0.09,-0.66,0.165,-3.148,-2.438,-1.982,0.0909,0.0594,0.0070,-0.0133,1.0036,0.0000,0.0000,0.3000,0.0013,0.0072
7554,0.0250,-0.0497,0.0081,0.19,-0.10,-0.68,0.165,-4.098,-1.748,-1.374,0.0907,0.0551,0.0072,-0.0154,1.0045,0.0000,0.0000,0.3000,0.0015,0.0067
7564,0.0253,-0.0460,0.0086,0.12,-0.10,-0.69,0.165,-4.821,-1.554,-1.277,0.0909,0.0545,0.0082,-0.0163,1.0045,0.0000,0.0000,0.3000,0.0018,0.0063
7574,0.0239,-0.0599,0.0085,0.18,-0.07,-0.70,0.165,-5.318,-0.975,-1.237,0.0917,0.0552,0.0061,-0.0167,1.0019,0.0000,0.0000,0.3000,0.0020,0.0057
7584,0.0240,-0.0603,0.0087,0.14,-0.05,-0.72,0.165,-6.387,0.910,-1.337,0.0912,0.0563,0.0059,-0.0138,1.0039,0.0000,0.0000,0.3000,0.0023,0.0051
7594,0.0259,-0.0557,0.0076,0.06,-0.05,-0.74,0.165,-4.060,-0.357,-1.361,0.0911,0.0530,0.0089,-0.0131,1.0065,0.0000,0.0000,0.3000,0.0025,0.0045
7604,0.0233,-0.0498,0.0082,-0.03,-0.02,-0.75,0.165,-5.641,0.987,0.271,0.0906,0.0520,0.0075,-0.0103,1.0086,0.0000,0.0000,0.3000,0.0028,0.0040
7614,0.0223,-0.0601,0.0084,-0.01,-0.01,-0.76,0.164,-0.795,-1.241,-0.066,0.0926,0.0519,0.0076,-0.0138,1.0081,0.0000,0.0000,0.3000,0.0030,0.0034
7625,0.0198,-0.0614,0.0086,-0.05,0.00,-0.77,0.164,0.822,-2.850,-0.016,0.0930,0.0528,0.0087,-0.0112,1.0072,0.0000,0.0000,0.3000,0.0032,0.0028
7634,0.0263,-0.0596,0.0089,-0.10,-0.04,-0.79,0.164,2.210,-1.571,-0.568,0.0948,0.0532,0.0057,-0.0107,1.0078,0.0000,0.0000,0.3000,0.0034,0.0022
7644,0.0266,-0.0538,0.0059,-0.19,-0.05,-0.79,0.164,-1.018,-1.471,-0.007,0.0931,0.0533,0.0037,-0.0097,1.0089,0.0000,0.0000,0.3000,0.0037,0.0016
7654,0.0324,-0.0500,0.0067,-0.23,-0.07,-0.79,0.164,1.784,-5.041,-0.323,0.0938,0.0499,0.0030,-0.0131,1.0067,0.0000,0.0000,0.3000,0.0040,0.0011
7664,0.0253,-0.0477,0.0076,-0.23,0.00,-0.79,0.164,3.438,-4.035,-0.973,0.0940,0.0498,0.0066,-0.0129,1.0047,0.0000,0.0000,0.3000,0.0043,0.0007
7674,0.0267,-0.0581,0.0081,-0.14,0.01,-0.80,0.164,0.546,-2.358,0.481,0.0934,0.0498,0.0064,-0.0151,1.0053,0.0000,0.0000,0.3000,0.0045,0.0001
7684,0.0264,-0.0557,0.0090,-0.16,0.03,-0.80,0.164,2.043,-1.995,-0.367,0.0937,0.0499,0.0072,-0.0133,1.0026,0.0000,0.0000,0.3000,0.0048,-0.0005
7694,0.0233,-0.0534,0.0065,-0.16,0.10,-0.80,0.164,0.613,-1.991,-0.168,0.0929,0.0499,0.0082,-0.0157,1.0034,0.0000,0.0000,0.3000,0.0050,-0.0010
7704,0.0233,-0.0510,0.0073,-0.14,0.14,-0.81,0.164,-0.788,-0.347,-0.088,0.0932,0.0499,0.0074,-0.0168,1.0054,0.0000,0.0000,0.3000,0.0053,-0.0015
7714,0.0190,-0.0488,0.0079,-0.14,0.19,-0.81,0.164,0.990,-2.056,-0.815,0.0946,0.0481,0.0086,-0.0152,1.0058,0.0000,0.0000,0.3000,0.0055,-0.0020
7724,0.0191,-0.0466,0.0084,-0.13,0.21,-0.81,0.164,-1.665,-0.156,-0.027,0.0949,0.0466,0.0067,-0.0096,1.0071,0.0000,0.0000,0.3000,0.0057,-0.0025
7733,0.0235,-0.0515,0.0087,-0.10,0.20,-0.81,0.164,-0.165,-1.943,-0.626,0.0948,0.0464,0.0086,-0.0141,1.0065,0.0000,0.0000,0.3000,0.0059,-0.0030
7744,0.0233,-0.0548,0.0063,-0.08,0.21,-0.82,0.164,-2.195,0.598,-0.072,0.0951,0.0460,0.0097,-0.0138,1.0084,0.0000,0.0000,0.3000,0.0061,-0.0035
7754,0.0219,-0.0537,0.0068,-0.08,0.23,-0.82,0.164,0.424,-1.797,-0.357,0.0953,0.0455,0.0109,-0.0155,1.0067,0.0000,0.0000,0.3000,0.0063,-0.0041
7763,0.0218,-0.0527,0.0073,-0.09,0.24,-0.82,0.164,-3.857,1.646,0.688,0.0960,0.0440,0.0083,-0.0154,1.0043,0.0000,0.0000,0.3000,0.0066,-0.0046
7774,0.0214,-0.0526,0.0080,-0.10,0.25,-0.83,0.164,0.129,0.457,-1.112,0.0968,0.0442,0.0077,-0.0132,1.0015,0.0000,0.0000,0.3000,0.0068,-0.0051
7783,0.0227,-0.0560,0.0085,-0.09,0.23,-0.83,0.164,-1.899,0.824,-0.460,0.0979,0.0450,0.0077,-0.0128,1.0066,0.0000,0.0000,0.3000,0.0070,-0.0057
7794,0.0244,-0.0531,0.0066,-0.11,0.22,-0.84,0.164,-3.000,2.418,-0.178,0.0971,0.0451,0.0091,-0.0156,1.0064,0.0000,0.0000,0.3000,0.0072,-0.0062
7804,0.0273,-0.0479,0.0074,-0.17,0.19,-0.83,0.164,-2.595,2.775,-0.625,0.0971,0.0415,0.0080,-0.0162,0.9992,0.0000,0.0000,0.3000,0.0075,-0.0067
7814,0.0232,-0.0454,0.0081,-0.19,0.20,-0.84,0.166,-1.391,2.567,-1.200,0.0974,0.0410,0.0094,-0.0143,1.0021,0.0000,0.0000,0.3000,0.0078,-0.0071
7824,0.0220,-0.0568,0.0080,-0.13,0.19,-0.85,0.166,-2.463,2.547,-1.234,0.0967,0.0411,0.0076,-0.0132,1.0052,0.0000,0.0000,0.3000,0.0080,-0.0077
7833,0.0217,-0.0566,0.0084,-0.15,0.17,-0.85,0.166,-4.929,2.422,-0.744,0.0978,0.0405,0.0070,-0.0170,1.0042,0.0000,0.0000,0.3000,0.0082,-0.0083
7843,0.0180,-0.0538,0.0115,-0.20,0.17,-0.86,0.166,-2.934,-0.491,-1.748,0.0983,0.0407,0.0075,-0.0188,1.0037,0.0000,0.0000,0.3000,0.0084,-0.0088
7853,0.0215,-0.0538,0.0117,-0.22,0.12,-0.87,0.166,-1.732,-1.968,-1.033,0.0986,0.0408,0.0047,-0.0141,1.0052,0.0000,0.0000,0.3000,0.0086,-0.0094
7864,0.0221,-0.0507,0.0117,-0.27,0.09,-0.88,0.166,-0.785,-1.971,-0.995,0.0982,0.0405,0.0041,-0.0140,1.0068,0.0000,0.0000,0.3000,0.0088,-0.0099
7874,0.0224,-0.0478,0.0123,-0.34,0.06,-0.89,0.166,-0.163,-1.851,-1.210,0.0981,0.0398,0.0100,-0.0145,1.0073,0.0000,0.0000,0.3000,0.0090,-0.0103
7883,0.0198,-0.0465,0.0128,-0.37,0.08,-0.90,0.166,-1.720,-0.664,-0.427,0.0983,0.0363,0.0067,-0.0117,1.0111,0.0000,0.0000,0.3000,0.0092,-0.0108
7893,0.0185,-0.0467,0.0129,-0.38,0.11,-0.92,0.166,-1.266,-2.813,-0.656,0.0997,0.0363,0.0054,-0.0098,1.0042,0.0000,0.0000,0.3000,0.0094,-0.0113
7903,0.0186,-0.0578,0.0131,-0.31,0.13,-0.93,0.166,-3.571,-0.137,-0.430,0.0989,0.0379,0.0067,-0.0131,0.9999,0.0000,0.0000,0.3000,0.0096,-0.0118
7913,0.0230,-0.0549,0.0137,-0.33,0.11,-0.94,0.167,-2.200,-1.970,-0.683,0.0996,0.0376,0.0098,-0.0152,1.0034,0.0000,0.0000,0.3000,0.0098,-0.0124
7923,0.0190,-0.0465,0.0146,-0.40,0.15,-0.94,0.167,0.164,-0.750,-1.382,0.0989,0.0388,0.0057,-0.0142,1.0073,0.0000,0.0000,0.3000,0.0100,-0.0129
7933,0.0207,-0.0450,0.0156,-0.41,0.16,-0.95,0.167,-3.224,0.110,-0.491,0.0987,0.0327,0.0056,-0.0142,1.0068,0.0000,0.0000,0.3000,0.0102,-0.0133
7944,0.0167,-0.0381,0.0172,-0.49,0.19,-0.96,0.167,-2.797,-0.780,0.115,0.0970,0.0329,0.0026,-0.0165,1.0036,0.0000,0.0000,0.3000,0.0104,-0.0137
7953,0.0153,-0.0588,0.0170,-0.35,0.22,-0.97,0.167,-2.422,-0.326,0.007,0.0994,0.0333,0.0056,-0.0159,1.0024,0.0000,0.0000,0.3000,0.0105,-0.0143
7963,0.0077,-0.0555,0.0173,-0.38,0.28,-0.98,0.164,-2.012,0.084,0.704,0.0997,0.0334,0.0075,-0.0143,1.0043,0.0000,0.0000,0.3000,0.0106,-0.0148
7973,0.0162,-0.0512,0.0180,-0.43,0.22,-0.98,0.164,-0.003,-0.223,-0.350,0.0999,0.0329,0.0073,-0.0124,1.0033,0.0000,0.0000,0.3000,0.0108,-0.0153
7984,0.0166,-0.0483,0.0188,-0.47,0.22,-0.98,0.164,1.536,-0.478,-0.080,0.1002,0.0330,0.0065,-0.0114,1.0037,0.0000,0.0000,0.3000,0.0110,-0.0158
7994,0.0161,-0.0473,0.0106,-0.49,0.23,-0.98,0.164,2.450,-1.950,-0.602,0.1004,0.0325,0.0064,-0.0127,1.0056,0.0000,0.0000,0.3000,0.0111,-0.0163
8004,0.0165,-0.0446,0.0108,-0.52,0.22,-0.98,0.164,3.630,-1.169,-0.490,0.1033,0.0324,0.0082,-0.0146,1.0059,0.0000,0.0000,0.3000,0.0113,-0.0168
8014,0.0161,-0.0437,0.0112,-0.52,0.23,-0.98,0.169,2.758,-0.881,0.282,0.1033,0.0327,0.0081,-0.0164,1.0025,0.0000,0.0000,0.3000,0.0114,-0.0172
8024,0.0263,-0.0415,0.0115,-0.52,0.16,-0.98,0.169,2.202,2.129,-0.034,0.1029,0.0327,0.0097,-0.0155,1.0035,0.0000,0.0000,0.3000,0.0117,-0.0176
8035,0.0249,-0.0380,0.0119,-0.51,0.19,-0.98,0.169,0.857,0.952,-0.049,0.1047,0.0326,0.0092,-0.0170,1.0031,0.0000,0.0000,0.3000,0.0119,-0.0180
8043,0.0221,-0.0359,0.0172,-0.48,0.21,-0.99,0.169,-0.243,0.314,0.043,0.1047,0.0322,0.0087,-0.0172,1.0030,0.0000,0.0000,0.3000,0.0122,-0.0183
8054,0.0281,-0.0341,0.0177,-0.45,0.18,-0.99,0.169,2.660,1.520,-0.277,0.1051,0.0330,0.0094,-0.0180,1.0056,0.0000,0.0000,0.3000,0.0125,-0.0187
8063,0.0268,-0.0334,0.0182,-0.42,0.18,-0.99,0.165,-3.275,-1.257,0.924,0.1054,0.0327,0.0069,-0.0167,1.0036,0.0000,0.0000,0.3000,0.0127,-0.0190
8074,0.0269,-0.0286,0.0185,-0.43,0.17,-0.99,0.165,-1.767,0.035,0.445,0.1057,0.0324,0.0060,-0.0165,1.0042,0.0000,0.0000,0.3000,0.0130,-0.0193
8083,0.0266,-0.0279,0.0188,-0.42,0.17,-0.99,0.165,-2.805,2.013,0.475,0.1056,0.0306,0.0077,-0.0202,1.0028,0.0000,0.0000,0.3000,0.0133,-0.0196
8094,0.0263,-0.0270,0.0106,-0.41,0.16,-0.99,0.165,-4.163,-1.070,0.598,0.1057,0.0319,0.0068,-0.0194,0.9991,0.0000,0.0000,0.3000,0.0135,-0.0199
8104,0.0247,-0.0325,0.0110,-0.39,0.18,-0.99,0.165,-0.582,0.699,0.742,0.1060,0.0316,0.0046,-0.0136,0.9967,0.0000,0.0000,0.3000,0.0138,-0.0202
8114,0.0237,-0.0255,0.0116,-0.45,0.19,-0.98,0.167,0.266,-0.356,0.300,0.1059,0.0305,0.0072,-0.0147,1.0046,0.0000,0.0000,0.3000,0.0140,-0.0204
8123,0.0237,-0.0247,0.0118,-0.47,0.18,-0.98,0.167,-3.041,0.079,0.688,0.1062,0.0303,0.0074,-0.0141,1.0075,0.0000,0.0000,0.3000,0.0142,-0.0207
8134,0.0224,-0.0272,0.0121,-0.48,0.20,-0.98,0.167,-1.791,-1.513,0.459,0.1061,0.0284,0.0077,-0.0120,1.0079,0.0000,0.0000,0.3000,0.0145,-0.0210
8144,0.0221,-0.0264,0.0109,-0.50,0.19,-0.97,0.167,2.112,-3.662,-0.141,0.1060,0.0297,0.0063,-0.0141,1.0044,0.0000,0.0000,0.3000,0.0147,-0.0212
8154,0.0207,-0.0316,0.0106,-0.47,0.20,-0.97,0.167,1.482,-1.848,0.682,0.1063,0.0285,0.0063,-0.0152,1.0067,0.0000,0.0000,0.3000,0.0149,-0.0215
8164,0.0194,-0.0247,0.0108,-0.52,0.22,-0.96,0.166,1.303,-0.728,1.607,0.1062,0.0277,0.0060,-0.0156,1.0109,0.0000,0.0000,0.3000,0.0151,-0.0218
8173,0.0192,-0.0275,0.0115,-0.50,0.23,-0.96,0.166,1.699,-2.415,1.301,0.1061,0.0281,0.0068,-0.0154,1.0085,0.0000,0.0000,0.3000,0.0153,-0.0221
8183,0.0177,-0.0287,0.0123,-0.46,0.26,-0.96,0.166,4.724,-5.215,0.800,0.1063,0.0279,0.0085,-0.0159,1.0036,0.0000,0.0000,0.3000,0.0155,-0.0223
8193,0.0165,-0.0253,0.0081,-0.47,0.28,-0.95,0.166,3.495,-5.590,1.024,0.1064,0.0276,0.0071,-0.0181,1.0022,0.0000,0.0000,0.3000,0.0156,-0.0226
8203,0.0160,-0.0245,0.0087,-0.47,0.30,-0.93,0.166,5.750,-0.251,0.971,0.1066,0.0274,0.0062,-0.0176,1.0058,0.0000,0.0000,0.3000,0.0158,-0.0228
8213,0.0155,-0.0237,0.0097,-0.44,0.34,-0.92,0.168,4.256,-0.863,0.489,0.1067,0.0272,0.0060,-0.0215,1.0076,0.0000,0.0000,0.3000,0.0159,-0.0231
8223,0.0149,-0.0229,0.0106,-0.39,0.38,-0.91,0.168,1.095,-0.008,0.470,0.1068,0.0270,0.0086,-0.0195,1.0048,0.0000,0.0000,0.3000,0.0161,-0.0233
8233,0.0143,-0.0222,0.0110,-0.35,0.42,-0.90,0.168,0.656,-0.911,0.950,0.1070,0.0268,0.0040,-0.0203,1.0058,0.0000,0.0000,0.3000,0.0162,-0.0235
8243,0.0136,-0.0216,0.0122,-0.31,0.43,-0.89,0.168,2.242,0.640,1.303,0.1071,0.0266,0.0027,-0.0190,1.0060,0.0000,0.0000,0.3000,0.0164,-0.0237
8253,0.0128,-0.0211,0.0127,-0.27,0.45,-0.89,0.168,-1.659,2.138,1.606,0.1071,0.0271,0.0073,-0.0157,1.0093,0.0000,0.0000,0.3000,0.0165,-0.0240
8263,0.0121,-0.0206,0.0133,-0.25,0.45,-0.88,0.166,-2.806,-0.573,2.363,0.1072,0.0269,0.0083,-0.0159,1.0075,0.0000,0.0000,0.3000,0.0166,-0.0242
8273,0.0108,-0.0175,0.0139,-0.26,0.46,-0.87,0.166,-0.603,3.795,2.077,0.1072,0.0267,0.0077,-0.0178,1.0075,0.0000,0.0000,0.3000,0.0167,-0.0243
8283,0.0100,-0.0171,0.0145,-0.25,0.47,-0.85,0.166,-4.762,3.139,2.524,0.1073,0.0266,0.0035,-0.0155,1.0076,0.0000,0.0000,0.3000,0.0168,-0.0245
8293,0.0092,-0.0166,0.0092,-0.26,0.45,-0.84,0.166,-4.206,1.033,2.891,0.1091,0.0269,0.0045,-0.0182,1.0086,0.0000,0.0000,0.3000,0.0169,-0.0247
8304,0.0085,-0.0162,0.0101,-0.28,0.44,-0.82,0.166,-1.090,1.178,2.736,0.1091,0.0288,0.0095,-0.0163,1.0065,0.0000,0.0000,0.3000,0.0170,-0.0248
8313,0.0137,-0.0141,0.0108,-0.31,0.38,-0.79,0.165,0.010,0.343,2.422,0.1117,0.0272,0.0058,-0.0155,1.0058,0.0000,0.0000,0.3000,0.0171,-0.0250
8323,0.0126,-0.0064,0.0115,-0.39,0.37,-0.77,0.165,-0.923,1.381,2.020,0.1119,0.0271,0.0041,-0.0131,1.0068,0.0000,0.0000,0.3000,0.0173,-0.0250
8333,0.0207,-0.0109,0.0123,-0.39,0.30,-0.74,0.165,-0.390,2.182,2.570,0.1121,0.0271,0.0069,-0.0145,1.0048,0.0000,0.0000,0.3000,0.0175,-0.0251
8344,0.0202,-0.0102,0.0070,-0.40,0.28,-0.71,0.165,0.231,0.694,2.662,0.1123,0.0270,0.0049,-0.0138,1.0067,0.0000,0.0000,0.3000,0.0177,-0.0253
8353,0.0197,-0.0095,0.0078,-0.41,0.28,-0.69,0.165,0.358,-0.354,2.943,0.1128,0.0270,0.0086,-0.0158,1.0048,0.0000,0.0000,0.3000,0.0179,-0.0253
8363,0.0192,-0.0088,0.0083,-0.43,0.28,-0.66,0.172,0.615,-1.876,2.542,0.1109,0.0276,0.0070,-0.0171,1.0047,0.0000,0.0000,0.3000,0.0181,-0.0254
8373,0.0198,-0.0077,0.0090,-0.44,0.27,-0.64,0.172,0.861,-2.170,2.757,0.1110,0.0276,0.0033,-0.0196,1.0050,0.0000,0.0000,0.3000,0.0183,-0.0255
8383,0.0124,-0.0045,0.0096,-0.46,0.32,-0.61,0.172,-0.564,-2.988,3.309,0.1108,0.0270,0.0031,-0.0135,1.0037,0.0000,0.0000,0.3000,0.0184,-0.0256
8393,0.0118,-0.0037,0.0210,-0.46,0.32,-0.58,0.172,2.075,-3.272,3.272,0.1118,0.0271,0.0057,-0.0107,1.0025,0.0000,0.0000,0.3000,0.0185,-0.0256
8411,0.0103,-0.0048,0.0214,-0.45,0.34,-0.56,0.172,2.708,-3.371,3.063,0.1119,0.0270,0.0094,-0.0113,1.0050,0.0000,0.0000,0.3000,0.0186,-0.0256
8413,0.0125,-0.0038,0.0218,-0.44,0.34,-0.53,0.169,2.421,-4.208,2.960,0.1116,0.0264,0.0092,-0.0134,1.0067,0.0000,0.0000,0.3000,0.0187,-0.0257
8423,0.0119,-0.0030,0.0224,-0.43,0.37,-0.49,0.169,2.568,-3.514,3.078,0.1108,0.0274,0.0065,-0.0166,1.0083,0.0000,0.0000,0.3000,0.0188,-0.0257
8434,0.0101,-0.0045,0.0228,-0.40,0.42,-0.46,0.169,2.158,-2.496,3.585,0.1106,0.0262,0.0062,-0.0163,1.0051,0.0000,0.0000,0.3000,0.0189,-0.0258
8444,0.0063,-0.0002,0.0206,-0.40,0.47,-0.43,0.169,1.639,-1.962,3.223,0.1106,0.0262,0.0099,-0.0176,1.0047,0.0000,0.0000,0.3000,0.0190,-0.0258
8453,0.0047,-0.0036,0.0210,-0.35,0.51,-0.41,0.169,1.983,-1.417,3.588,0.1111,0.0261,0.0070,-0.0217,1.0051,0.0000,0.0000,0.3000,0.0191,-0.0258
8463,0.0038,-0.0030,0.0216,-0.32,0.54,-0.38,0.170,1.532,-1.761,2.754,0.1099,0.0266,0.0076,-0.0171,1.0036,0.0000,0.0000,0.3000,0.0191,-0.0258
