time_ms,vel_x,vel_y,vel_z,roll,pitch,yaw,range_z,gyro_x,gyro_y,gyro_z,ekf_x,ekf_y
0,0.0248,0.0147,-0.0096,-0.91,-0.56,-44.94,0.007,-0.023,0.386,0.032,0.7639,1.0853
0,0.0251,0.0148,-0.0095,-0.91,-0.56,-44.90,0.007,-0.356,-0.007,0.241,0.7665,1.0870
0,0.0216,0.0183,-0.0093,-0.91,-0.52,-44.85,0.007,-0.007,0.482,-0.139,0.7695,1.0904
0,0.0189,0.0125,-0.0089,-0.85,-0.54,-44.80,0.007,-0.000,0.234,0.196,0.7702,1.0908
0,0.0323,0.0213,-0.0094,-0.98,-0.56,-44.72,0.007,-0.250,0.308,0.163,0.7704,1.0903
0,0.0468,0.0384,-0.0111,-1.16,-0.55,-44.72,0.007,-0.044,0.316,0.215,0.7684,1.0905
0,0.0493,0.0401,-0.0112,-1.17,-0.56,-44.63,0.008,-0.221,0.141,0.030,0.7696,1.0914
0,0.0474,0.0354,-0.0106,-1.13,-0.58,-44.63,0.008,-0.050,0.184,0.017,0.7693,1.0904
0,0.0349,0.0348,-0.0088,-1.05,-0.51,-44.54,0.008,-0.015,0.272,0.130,0.7695,1.0903
0,0.0396,0.0379,-0.0055,-1.09,-0.52,-44.54,0.008,-0.025,0.147,0.032,0.7696,1.0904
1,0.0367,0.0314,-0.0048,-1.03,-0.54,-44.45,0.010,0.129,0.345,0.094,0.7691,1.0904
1,0.0355,0.0289,-0.0046,-1.01,-0.55,-44.45,0.010,-0.030,0.194,-0.096,0.7739,1.0963
1,0.0348,0.0287,-0.0042,-0.99,-0.55,-44.37,0.010,0.070,0.081,-0.012,0.7745,1.0969
1,0.0299,0.0272,0.0025,-0.96,-0.53,-44.37,0.010,-0.085,-0.041,0.052,0.7746,1.0970
1,0.0554,0.0587,0.0004,-1.27,-0.51,-44.32,0.010,-0.018,0.092,-0.196,0.7741,1.0964
1,0.0560,0.0592,0.0005,-1.27,-0.51,-44.28,0.010,-0.144,0.121,0.138,0.7745,1.0957
1,0.0540,0.0573,0.0013,-1.24,-0.51,-44.24,0.010,-0.187,0.233,0.266,0.7768,1.0984
1,0.0482,0.0513,0.0028,-1.17,-0.51,-44.19,0.010,-0.073,0.374,0.151,0.7772,1.1000
1,0.0485,0.0448,0.0035,-1.12,-0.55,-44.15,0.010,-0.246,0.251,-0.088,0.7784,1.1012
1,0.0591,0.0574,0.0060,-1.25,-0.54,-44.11,0.010,-0.241,0.117,-0.098,0.7790,1.1019
2,0.0588,0.0638,0.0058,-1.27,-0.50,-44.06,0.011,-0.183,0.074,-0.037,0.7790,1.1028
2,0.0625,0.0673,0.0053,-1.31,-0.51,-44.02,0.011,-0.160,0.210,-0.012,0.7786,1.1020
2,0.0632,0.0680,0.0056,-1.31,-0.51,-43.98,0.011,-0.176,0.183,0.211,0.7791,1.1026
2,0.0606,0.0700,0.0102,-1.29,-0.48,-43.94,0.011,-0.214,0.296,0.062,0.7788,1.1019
2,0.0553,0.0626,0.0116,-1.21,-0.50,-43.90,0.011,0.009,0.217,-0.128,0.7787,1.1031
2,0.0558,0.0632,0.0117,-1.21,-0.50,-43.85,0.011,0.030,0.409,0.118,0.7800,1.1018
2,0.0514,0.0563,0.0131,-1.14,-0.51,-43.81,0.012,-0.072,0.069,0.260,0.7756,1.0972
2,0.0487,0.0603,0.0132,-1.15,-0.48,-43.77,0.012,-0.181,0.176,0.026,0.7752,1.0976
2,0.0533,0.0506,0.0140,-1.11,-0.56,-43.72,0.012,-0.243,0.011,0.088,0.7758,1.0982
2,0.0271,0.0231,0.0195,-0.79,-0.56,-43.68,0.012,0.373,-0.034,0.009,0.7753,1.0962
2,0.0231,0.0242,0.0196,-0.78,-0.53,-43.64,0.013,-0.130,0.083,0.064,0.7805,1.1017
2,0.0252,0.0265,0.0197,-0.80,-0.53,-43.60,0.013,-0.188,0.132,0.029,0.7808,1.1008
2,0.0215,0.0142,0.0204,-0.71,-0.58,-43.55,0.013,-0.038,0.241,-0.160,0.7799,1.1014
2,0.0481,0.0428,0.0202,-1.03,-0.58,-43.51,0.013,0.101,0.050,0.067,0.7811,1.1023
2,0.0473,0.0355,0.0206,-0.98,-0.62,-43.46,0.013,0.176,-0.003,-0.224,0.7794,1.1015
2,0.0397,0.0367,0.0213,-0.94,-0.57,-43.42,0.013,-0.042,0.048,-0.097,0.7771,1.0990
2,0.0441,0.0399,0.0211,-0.98,-0.58,-43.38,0.011,-0.051,-0.017,-0.085,0.7769,1.0984
3,0.0331,0.0336,0.0224,-0.88,-0.55,-43.34,0.011,-0.033,-0.056,-0.207,0.7754,1.0989
3,0.0189,0.0185,0.0239,-0.71,-0.55,-43.30,0.011,-0.153,0.112,-0.109,0.7766,1.0978
3,0.0167,0.0144,0.0158,-0.68,-0.56,-43.26,0.011,0.129,0.210,-0.086,0.7767,1.0975
3,0.0076,0.0163,0.0161,-0.64,-0.49,-43.22,0.010,-0.233,0.031,-0.069,0.7760,1.0968
3,0.0136,0.0091,0.0165,-0.64,-0.57,-43.18,0.010,-0.172,0.339,-0.008,0.7721,1.0941
3,0.0128,0.0068,0.0167,-0.62,-0.58,-43.14,0.010,-0.141,0.300,0.146,0.7721,1.0944
3,0.0084,0.0027,0.0090,-0.58,-0.58,-43.09,0.010,-0.027,-0.254,-0.329,0.7723,1.0931
3,-0.0136,-0.0121,0.0092,-0.37,-0.53,-43.05,0.010,-0.026,0.126,0.060,0.7719,1.0932
3,-0.0133,-0.0102,0.0096,-0.39,-0.53,-43.01,0.010,0.051,0.354,-0.167,0.7681,1.0890
3,-0.0117,-0.0172,0.0097,-0.36,-0.58,-42.97,0.006,0.061,0.185,0.021,0.7669,1.0878
3,-0.0136,-0.0163,0.0100,-0.36,-0.56,-42.93,0.006,-0.019,0.298,0.322,0.7684,1.0892
3,-0.0338,-0.0385,0.0085,-0.12,-0.56,-42.89,0.006,-0.049,-0.094,0.396,0.7694,1.0914
3,-0.0388,-0.0440,-0.0062,-0.07,-0.56,-42.85,0.006,0.050,0.027,-0.406,0.7692,1.0919
3,-0.0288,-0.0351,-0.0046,-0.19,-0.57,-42.81,0.010,-0.414,0.124,0.244,0.7689,1.0924
3,-0.0227,-0.0216,-0.0032,-0.31,-0.53,-42.76,0.010,0.077,0.209,0.155,0.7698,1.0922
3,-0.0228,-0.0187,-0.0030,-0.33,-0.52,-42.72,0.010,0.009,0.583,-0.061,0.7696,1.0926
3,-0.0238,-0.0154,-0.0026,-0.36,-0.49,-42.67,0.010,-0.079,-0.124,0.093,0.7690,1.0926
3,-0.0182,-0.0167,-0.0023,-0.39,-0.53,-42.63,0.010,0.037,0.024,0.031,0.7694,1.0927
3,-0.0185,-0.0140,-0.0020,-0.41,-0.52,-42.59,0.010,-0.287,0.275,0.322,0.7685,1.0911
3,-0.0211,-0.0138,-0.0019,-0.40,-0.50,-42.54,0.011,-0.242,0.379,-0.024,0.7704,1.0913
3,-0.0179,-0.0125,-0.0015,-0.43,-0.52,-42.50,0.011,0.097,-0.034,-0.043,0.7690,1.0923
3,-0.0225,-0.0216,-0.0016,-0.36,-0.54,-42.47,0.011,-0.166,0.248,0.189,0.7694,1.0917
3,-0.0110,-0.0195,0.0017,-0.43,-0.59,-42.42,0.011,-0.087,0.138,0.148,0.7692,1.0915
3,-0.0182,-0.0136,0.0022,-0.44,-0.52,-42.38,0.009,-0.042,0.153,0.092,0.7698,1.0922
3,-0.0158,-0.0165,0.0025,-0.44,-0.55,-42.34,0.009,0.118,0.192,-0.185,0.7703,1.0928
4,-0.0162,-0.0171,0.0025,-0.44,-0.55,-42.30,0.009,0.058,0.054,0.129,0.7698,1.0922
4,-0.0123,-0.0129,-0.0007,-0.49,-0.55,-42.26,0.009,-0.128,0.263,0.062,0.7696,1.0924
4,-0.0086,-0.0089,-0.0003,-0.53,-0.56,-42.21,0.009,-0.060,0.280,0.139,0.7692,1.0919
4,-0.0112,-0.0124,-0.0001,-0.50,-0.56,-42.17,0.009,0.080,0.475,-0.050,0.7683,1.0908
4,-0.0116,-0.0116,0.0004,-0.51,-0.55,-42.13,0.007,-0.121,0.105,-0.214,0.7694,1.0889
4,-0.0135,-0.0139,0.0006,-0.49,-0.55,-42.09,0.007,-0.232,0.361,0.213,0.7661,1.0877
4,-0.0185,-0.0196,0.0006,-0.43,-0.55,-42.05,0.007,-0.337,0.215,0.230,0.7671,1.0888
4,-0.0116,-0.0292,-0.0062,-0.42,-0.65,-42.01,0.007,-0.399,0.447,-0.050,0.7679,1.0901
4,-0.0294,-0.0349,-0.0065,-0.29,-0.57,-41.97,0.011,-0.096,0.128,-0.106,0.7665,1.0907
4,-0.0230,-0.0278,-0.0056,-0.38,-0.57,-41.93,0.011,-0.349,0.013,0.215,0.7650,1.0904
4,-0.0178,-0.0204,-0.0048,-0.46,-0.56,-41.88,0.011,-0.170,0.190,0.329,0.7661,1.0903
4,-0.0245,-0.0164,0.0007,-0.46,-0.50,-41.84,0.011,0.087,0.100,-0.048,0.7655,1.0908
4,-0.0313,-0.0180,0.0007,-0.41,-0.47,-41.79,0.011,-0.392,0.374,0.107,0.7656,1.0907
4,-0.0243,-0.0177,0.0011,-0.46,-0.51,-41.75,0.011,0.075,0.275,-0.276,0.7631,1.0875
4,-0.0264,-0.0142,0.0012,-0.47,-0.48,-41.71,0.009,-0.051,0.203,0.097,0.7629,1.0863
4,-0.0244,-0.0146,0.0013,-0.48,-0.50,-41.67,0.009,0.056,0.184,-0.254,0.7618,1.0873
4,-0.0376,-0.0317,0.0003,-0.32,-0.51,-41.63,0.009,-0.115,0.210,0.007,0.7626,1.0873
4,-0.0371,-0.0370,-0.0008,-0.29,-0.55,-41.59,0.009,-0.137,0.232,-0.216,0.7624,1.0867
4,-0.0413,-0.0305,-0.0004,-0.32,-0.48,-41.55,0.010,-0.064,0.029,-0.040,0.7634,1.0879
4,-0.0350,-0.0292,0.0004,-0.36,-0.52,-41.51,0.010,0.059,0.038,-0.039,0.7610,1.0847
4,-0.0351,-0.0317,0.0005,-0.36,-0.53,-41.47,0.010,-0.157,0.144,0.032,0.7595,1.0852
4,-0.0277,-0.0237,0.0026,-0.45,-0.54,-41.43,0.010,-0.222,0.230,-0.031,0.7602,1.0861
4,-0.0405,-0.0403,0.0019,-0.28,-0.55,-41.39,0.010,-0.350,0.130,0.062,0.7604,1.0856
4,-0.0468,-0.0361,0.0019,-0.28,-0.49,-41.34,0.010,-0.160,0.295,0.039,0.7594,1.0835
4,-0.0405,-0.0300,0.0030,-0.36,-0.49,-41.30,0.012,-0.194,0.150,-0.004,0.7615,1.0856
4,-0.0378,-0.0313,0.0034,-0.37,-0.52,-41.26,0.012,-0.373,0.071,0.041,0.7622,1.0874
4,-0.0416,-0.0416,0.0029,-0.30,-0.55,-41.22,0.012,-0.078,0.067,0.138,0.7620,1.0875
4,-0.0281,-0.0284,0.0097,-0.46,-0.56,-41.18,0.012,-0.023,0.290,0.220,0.7626,1.0870
4,-0.0229,-0.0176,0.0105,-0.56,-0.54,-41.14,0.010,-0.186,0.061,-0.001,0.7639,1.0821
5,-0.0228,-0.0162,0.0106,-0.57,-0.54,-41.10,0.010,-0.077,0.147,-0.136,0.7632,1.0800
5,-0.0184,-0.0187,0.0105,-0.59,-0.58,-41.06,0.010,-0.165,0.087,-0.251,0.7638,1.0795
5,-0.0107,-0.0447,0.0069,-0.47,-0.76,-41.03,0.010,-0.069,0.035,0.184,0.7634,1.0812
5,-0.0139,-0.0543,0.0064,-0.40,-0.79,-40.99,0.010,0.208,0.095,0.168,0.7632,1.0819
5,-0.0097,-0.0549,0.0066,-0.42,-0.82,-40.96,0.010,-0.191,0.345,-0.072,0.7669,1.0846
5,-0.0113,-0.0432,0.0080,-0.49,-0.74,-40.91,0.009,-0.141,-0.019,-0.142,0.7672,1.0855
5,-0.0116,-0.0374,0.0087,-0.53,-0.71,-40.87,0.009,-0.281,0.251,0.209,0.7673,1.0844
5,0.0110,-0.0197,0.0102,-0.75,-0.75,-40.83,0.009,-0.054,0.011,-0.202,0.7675,1.0856
5,0.0121,-0.0136,0.0048,-0.79,-0.72,-40.79,0.009,-0.137,-0.084,-0.102,0.7684,1.0853
5,0.0121,-0.0195,0.0050,-0.75,-0.75,-40.75,0.012,-0.034,0.160,-0.051,0.7664,1.0884
5,0.0128,-0.0119,0.0053,-0.80,-0.71,-40.71,0.012,0.078,-0.127,-0.127,0.7666,1.0892
5,0.0172,-0.0127,0.0053,-0.82,-0.74,-40.67,0.012,0.058,0.081,-0.156,0.7668,1.0891
5,0.0053,0.0047,0.0087,-0.87,-0.58,-40.62,0.012,-0.127,0.016,0.076,0.7670,1.0887
5,0.0064,0.0094,0.0087,-0.90,-0.56,-40.58,0.012,-0.008,0.142,0.042,0.7669,1.0890
5,0.0071,0.0084,0.0091,-0.89,-0.57,-40.55,0.012,-0.166,0.042,-0.026,0.7663,1.0895
5,0.0079,0.0057,0.0092,-0.88,-0.59,-40.51,0.010,-0.106,-0.218,0.277,0.7656,1.0877
5,0.0075,0.0072,0.0092,-0.88,-0.59,-40.47,0.010,0.043,0.001,-0.198,0.7669,1.0880
5,0.0038,0.0098,0.0092,-0.88,-0.55,-40.43,0.010,-0.168,0.227,0.043,0.7669,1.0890
5,-0.0003,-0.0005,0.0055,-0.79,-0.58,-40.39,0.010,-0.257,0.222,0.212,0.7672,1.0890
5,0.0069,0.0009,0.0056,-0.84,-0.62,-40.35,0.010,-0.134,0.146,0.072,0.7673,1.0891
5,0.0070,0.0062,0.0057,-0.87,-0.59,-40.31,0.010,-0.107,0.252,-0.099,0.7689,1.0907
5,0.0084,0.0058,0.0057,-0.88,-0.60,-40.27,0.010,0.012,0.065,-0.155,0.7688,1.0908
5,0.0087,0.0059,0.0028,-0.88,-0.60,-40.23,0.010,-0.026,0.211,-0.016,0.7668,1.0895
5,0.0176,0.0148,0.0027,-0.98,-0.61,-40.19,0.010,0.002,0.424,-0.164,0.7676,1.0904
5,0.0159,0.0148,0.0030,-0.97,-0.60,-40.15,0.010,-0.135,0.406,0.212,0.7669,1.0895
5,0.0045,0.0066,0.0038,-0.85,-0.57,-40.11,0.008,-0.075,-0.071,-0.173,0.7694,1.0900
5,0.0090,0.0115,0.0039,-0.91,-0.57,-40.07,0.008,-0.139,0.275,-0.090,0.7683,1.0899
5,0.0043,0.0054,0.0044,-0.84,-0.58,-40.03,0.008,-0.150,0.330,0.074,0.7709,1.0936
5,0.0185,0.0080,-0.0024,-0.93,-0.66,-39.99,0.008,-0.188,0.340,-0.005,0.7710,1.0938
6,0.0114,0.0069,-0.0019,-0.89,-0.61,-39.95,0.012,-0.050,0.087,0.128,0.7708,1.0929
6,0.0253,0.0271,-0.0024,-1.08,-0.60,-39.92,0.012,0.037,0.106,-0.426,0.7711,1.0929
6,0.0249,0.0267,-0.0019,-1.08,-0.60,-39.88,0.012,-0.092,0.401,0.016,0.7711,1.0935
6,0.0230,0.0206,0.0039,-1.02,-0.62,-39.84,0.012,-0.293,0.295,0.086,0.7713,1.0938
6,0.0238,0.0198,0.0039,-1.02,-0.63,-39.80,0.012,0.175,-0.078,-0.146,0.7716,1.0941
6,0.0227,0.0223,0.0039,-1.02,-0.61,-39.76,0.012,-0.025,0.414,-0.181,0.7711,1.0931
6,0.0233,0.0230,0.0043,-1.02,-0.61,-39.72,0.007,-0.384,0.119,-0.126,0.7700,1.0938
6,0.0236,0.0231,0.0048,-1.02,-0.62,-39.68,0.007,-0.019,0.287,-0.081,0.7709,1.0939
6,0.0198,0.0165,0.0055,-0.96,-0.62,-39.65,0.007,-0.062,0.361,-0.082,0.7716,1.0947
6,0.0132,0.0198,-0.0029,-0.95,-0.57,-39.61,0.007,-0.196,0.074,-0.025,0.7703,1.0936
6,0.0176,0.0192,-0.0028,-0.97,-0.60,-39.57,0.009,-0.217,0.091,-0.151,0.7705,1.0934
6,0.0207,0.0227,-0.0031,-1.00,-0.60,-39.53,0.009,0.126,0.294,-0.029,0.7697,1.0905
6,0.0133,0.0150,-0.0024,-0.91,-0.59,-39.49,0.009,-0.135,0.240,0.088,0.7666,1.0903
6,0.0137,0.0135,-0.0028,-0.90,-0.60,-39.45,0.009,-0.067,0.059,-0.305,0.7701,1.0933
6,0.0090,-0.0031,-0.0023,-0.77,-0.66,-39.41,0.009,-0.213,0.072,0.106,0.7702,1.0930
6,-0.0086,-0.0041,-0.0018,-0.67,-0.55,-39.38,0.009,0.014,0.336,0.276,0.7717,1.0934
6,0.0112,0.0125,-0.0011,-0.88,-0.60,-39.34,0.010,0.025,0.237,-0.314,0.7685,1.0959
6,0.0108,0.0102,-0.0010,-0.86,-0.61,-39.30,0.010,-0.057,0.181,0.130,0.7689,1.0951
6,0.0190,0.0113,-0.0009,-0.91,-0.65,-39.26,0.010,-0.101,0.157,-0.026,0.7713,1.0991
6,0.0004,0.0254,0.0013,-0.90,-0.47,-39.23,0.010,-0.264,0.314,0.175,0.7708,1.0985
6,0.0025,0.0196,0.0015,-0.87,-0.51,-39.19,0.009,0.061,0.531,-0.064,0.7709,1.0995
6,0.0159,0.0407,0.0008,-1.07,-0.49,-39.15,0.009,-0.181,0.103,0.015,0.7712,1.0989
6,0.0124,0.0350,0.0017,-1.01,-0.50,-39.11,0.009,0.089,0.226,-0.170,0.7708,1.0987
6,0.0121,0.0389,-0.0001,-1.03,-0.48,-39.07,0.009,0.000,0.059,0.073,0.7709,1.0992
6,0.0136,0.0340,0.0003,-1.01,-0.52,-39.03,0.009,0.028,0.036,-0.075,0.7715,1.1000
6,0.0106,0.0312,0.0006,-0.98,-0.52,-39.00,0.009,-0.056,0.309,-0.026,0.7717,1.1004
6,0.0108,0.0324,0.0007,-0.97,-0.52,-38.96,0.010,-0.029,0.207,0.275,0.7742,1.1066
7,0.0142,0.0354,0.0006,-1.00,-0.52,-38.92,0.010,-0.275,0.112,0.014,0.7734,1.1056
7,0.0144,0.0357,0.0005,-1.00,-0.52,-38.88,0.010,-0.379,-0.204,-0.115,0.7727,1.1047
7,0.0279,0.0684,-0.0003,-1.26,-0.45,-38.85,0.010,-0.132,0.310,0.239,0.7725,1.1044
7,0.0222,0.0599,0.0013,-1.17,-0.46,-38.81,0.008,-0.009,0.336,-0.243,0.7708,1.1002
7,0.0175,0.0527,0.0024,-1.10,-0.47,-38.77,0.008,-0.115,0.078,-0.102,0.7674,1.0942
7,0.0153,0.0486,0.0029,-1.06,-0.48,-38.73,0.008,-0.110,0.136,-0.182,0.7658,1.0935
7,0.0056,0.0236,-0.0000,-0.86,-0.54,-38.69,0.008,-0.204,0.003,0.324,0.7660,1.0944
7,-0.0131,-0.0104,0.0006,-0.55,-0.59,-38.65,0.008,-0.209,0.449,0.053,0.7651,1.0930
7,-0.0210,-0.0135,0.0003,-0.50,-0.56,-38.62,0.008,-0.010,0.094,0.172,0.7668,1.0930
7,-0.0190,-0.0083,0.0009,-0.54,-0.55,-38.58,0.009,-0.241,0.071,0.042,0.7671,1.0938
7,-0.0230,-0.0162,0.0007,-0.48,-0.56,-38.54,0.009,-0.312,0.073,0.163,0.7651,1.0933
7,-0.0128,-0.0155,0.0014,-0.54,-0.62,-38.50,0.009,-0.054,0.326,-0.123,0.7662,1.0930
7,-0.0103,-0.0108,0.0006,-0.58,-0.62,-38.46,0.009,-0.115,0.051,-0.147,0.7654,1.0930
7,-0.0208,-0.0136,0.0004,-0.52,-0.56,-38.43,0.006,-0.330,0.208,0.071,0.7661,1.0935
7,-0.0139,-0.0151,0.0008,-0.55,-0.61,-38.39,0.006,-0.031,0.206,-0.252,0.7655,1.0927
7,-0.0172,-0.0143,0.0009,-0.54,-0.59,-38.35,0.006,0.053,0.188,-0.225,0.7656,1.0932
7,-0.0126,-0.0110,-0.0065,-0.58,-0.60,-38.31,0.006,-0.095,0.076,0.029,0.7653,1.0928
7,-0.0154,-0.0153,-0.0065,-0.55,-0.60,-38.27,0.006,-0.390,0.271,0.302,0.7652,1.0927
7,-0.0142,-0.0125,-0.0062,-0.57,-0.60,-38.24,0.006,0.042,0.296,0.120,0.7662,1.0919
7,-0.0148,-0.0139,-0.0063,-0.56,-0.60,-38.20,0.008,-0.049,0.020,0.058,0.7677,1.0927
7,-0.0149,-0.0143,-0.0065,-0.56,-0.60,-38.16,0.008,0.021,0.126,0.176,0.7654,1.0926
7,-0.0085,-0.0180,-0.0066,-0.58,-0.66,-38.13,0.008,0.197,0.207,-0.031,0.7655,1.0927
7,-0.0000,-0.0129,-0.0055,-0.65,-0.69,-38.09,0.008,0.020,-0.152,-0.096,0.7663,1.0941
7,-0.0122,-0.0131,-0.0052,-0.59,-0.61,-38.05,0.009,-0.045,0.003,0.110,0.7663,1.0930
7,-0.0108,-0.0119,-0.0051,-0.60,-0.61,-38.01,0.009,-0.402,0.137,0.207,0.7657,1.0929
7,-0.0061,-0.0044,-0.0048,-0.68,-0.61,-37.97,0.009,-0.154,0.144,0.206,0.7649,1.0937
7,-0.0059,-0.0103,-0.0017,-0.64,-0.64,-37.94,0.009,-0.219,0.063,0.014,0.7650,1.0931
7,-0.0089,-0.0105,-0.0014,-0.63,-0.62,-37.90,0.009,-0.165,-0.110,-0.232,0.7658,1.0931
7,-0.0126,-0.0057,-0.0010,-0.65,-0.57,-37.86,0.009,0.248,-0.027,-0.104,0.7658,1.0942
8,-0.0116,-0.0091,-0.0009,-0.63,-0.59,-37.82,0.010,-0.353,0.367,0.231,0.7661,1.0921
8,-0.0067,-0.0091,-0.0007,-0.66,-0.63,-37.78,0.010,-0.055,-0.028,-0.084,0.7644,1.0915
8,-0.0061,-0.0028,-0.0007,-0.70,-0.60,-37.75,0.010,-0.127,0.042,0.198,0.7644,1.0913
8,-0.0041,-0.0143,0.0031,-0.64,-0.67,-37.71,0.010,0.009,0.215,-0.048,0.7643,1.0887
8,-0.0133,-0.0168,0.0031,-0.58,-0.62,-37.67,0.011,0.042,0.170,-0.076,0.7642,1.0899
8,-0.0123,-0.0179,0.0032,-0.58,-0.63,-37.64,0.011,-0.227,-0.129,-0.065,0.7657,1.0947
8,-0.0121,-0.0313,0.0030,-0.50,-0.70,-37.60,0.011,-0.083,0.260,0.232,0.7623,1.0948
8,-0.0121,-0.0236,0.0077,-0.56,-0.65,-37.56,0.011,-0.190,0.114,0.084,0.7621,1.0948
8,-0.0025,0.0043,0.0085,-0.77,-0.58,-37.52,0.011,-0.115,0.518,-0.123,0.7614,1.0942
8,-0.0215,0.0039,0.0086,-0.68,-0.47,-37.48,0.011,-0.056,0.360,0.120,0.7602,1.0926
8,-0.0216,0.0038,0.0086,-0.68,-0.47,-37.44,0.009,-0.091,0.237,-0.067,0.7573,1.0891
8,-0.0244,0.0001,0.0089,-0.65,-0.47,-37.41,0.009,-0.174,0.175,0.129,0.7558,1.0883
8,-0.0298,-0.0086,0.0089,-0.57,-0.48,-37.37,0.009,0.076,-0.073,0.028,0.7570,1.0880
8,-0.0449,-0.0278,0.0049,-0.39,-0.48,-37.33,0.009,-0.104,0.270,-0.080,0.7566,1.0877
8,-0.0508,-0.0312,0.0046,-0.34,-0.47,-37.30,0.007,-0.122,0.279,-0.197,0.7564,1.0905
8,-0.0424,-0.0315,0.0056,-0.39,-0.52,-37.26,0.007,-0.112,0.062,-0.134,0.7592,1.0927
8,-0.0429,-0.0320,0.0057,-0.39,-0.52,-37.22,0.007,-0.057,0.249,-0.300,0.7623,1.0975
8,-0.0419,-0.0158,-0.0004,-0.50,-0.45,-37.18,0.007,-0.178,-0.074,0.038,0.7624,1.0977
8,-0.0248,-0.0035,0.0007,-0.66,-0.51,-37.15,0.007,-0.136,0.438,-0.077,0.7624,1.0979
8,-0.0071,0.0224,0.0009,-0.91,-0.49,-37.11,0.007,0.002,0.239,-0.026,0.7618,1.0971
8,-0.0058,0.0223,0.0010,-0.91,-0.51,-37.08,0.012,-0.207,0.062,0.117,0.7624,1.0966
8,-0.0055,0.0225,0.0010,-0.91,-0.51,-37.04,0.012,-0.079,0.294,-0.101,0.7622,1.0967
8,-0.0078,0.0174,0.0014,-0.87,-0.52,-37.00,0.012,0.161,0.197,-0.047,0.7625,1.0974
8,-0.0044,0.0141,0.0079,-0.86,-0.56,-36.97,0.012,-0.231,0.152,0.167,0.7627,1.0969
8,-0.0048,0.0141,0.0080,-0.86,-0.56,-36.93,0.009,-0.230,0.143,0.040,0.7623,1.0967
8,-0.0032,0.0172,0.0081,-0.89,-0.56,-36.89,0.009,-0.035,0.026,0.100,0.7629,1.0982
8,-0.0018,0.0141,0.0082,-0.87,-0.59,-36.86,0.009,0.058,0.528,-0.011,0.7619,1.0969
8,-0.0038,0.0123,0.0045,-0.85,-0.58,-36.82,0.009,-0.116,-0.160,-0.100,0.7629,1.0982
8,-0.0003,0.0197,0.0045,-0.91,-0.57,-36.78,0.009,-0.064,0.103,0.215,0.7626,1.0978
8,-0.0050,0.0119,0.0049,-0.83,-0.58,-36.75,0.009,0.121,0.199,-0.078,0.7628,1.0988
8,0.0005,0.0179,0.0050,-0.90,-0.59,-36.71,0.011,0.003,0.352,0.001,0.7595,1.0940
9,-0.0004,0.0149,0.0053,-0.87,-0.59,-36.68,0.011,0.117,0.221,0.329,0.7594,1.0939
9,0.0007,0.0192,0.0051,-0.90,-0.58,-36.64,0.011,-0.084,0.299,0.045,0.7589,1.0952
9,-0.0162,-0.0068,0.0070,-0.65,-0.59,-36.60,0.011,0.085,-0.024,0.204,0.7590,1.0937
9,-0.0162,-0.0071,0.0070,-0.65,-0.60,-36.57,0.008,-0.238,0.031,0.027,0.7582,1.0943
9,-0.0182,-0.0004,0.0071,-0.69,-0.55,-36.53,0.008,-0.299,0.105,0.148,0.7585,1.0935
9,-0.0168,-0.0084,0.0071,-0.65,-0.60,-36.49,0.008,-0.161,0.148,-0.236,0.7591,1.0934
9,-0.0198,-0.0052,0.0005,-0.65,-0.56,-36.46,0.008,0.022,0.399,0.239,0.7592,1.0951
9,-0.0172,-0.0091,0.0007,-0.64,-0.60,-36.42,0.008,0.024,0.412,-0.012,0.7602,1.0946
9,-0.0135,-0.0091,0.0010,-0.66,-0.62,-36.38,0.008,-0.137,0.166,0.240,0.7598,1.0943
9,-0.0122,-0.0001,0.0012,-0.73,-0.59,-36.35,0.009,-0.049,0.500,0.148,0.7567,1.0902
9,-0.0062,-0.0027,0.0013,-0.74,-0.64,-36.31,0.009,0.081,0.045,-0.070,0.7566,1.0914
9,-0.0081,-0.0038,0.0015,-0.72,-0.64,-36.28,0.009,0.055,0.127,-0.002,0.7578,1.0905
9,-0.0234,-0.0254,-0.0008,-0.51,-0.64,-36.24,0.009,-0.023,0.098,-0.296,0.7589,1.0939
9,-0.0233,-0.0179,-0.0002,-0.57,-0.61,-36.20,0.008,-0.006,0.324,0.014,0.7595,1.0940
9,-0.0155,-0.0224,0.0000,-0.58,-0.68,-36.17,0.008,0.089,0.022,-0.100,0.7589,1.0934
9,-0.0089,-0.0042,0.0010,-0.73,-0.63,-36.13,0.008,-0.181,0.164,-0.209,0.7593,1.0939
9,-0.0049,-0.0035,-0.0026,-0.75,-0.66,-36.10,0.008,-0.287,0.159,-0.206,0.7601,1.0947
9,-0.0080,-0.0066,-0.0025,-0.71,-0.65,-36.06,0.008,-0.115,0.221,-0.078,0.7595,1.0946
9,-0.0053,-0.0034,-0.0024,-0.75,-0.65,-36.03,0.008,-0.077,0.415,0.117,0.7608,1.0874
9,-0.0003,0.0008,-0.0022,-0.79,-0.66,-36.00,0.010,-0.066,-0.134,-0.055,0.7604,1.0850
9,-0.0034,0.0000,-0.0020,-0.78,-0.65,-35.96,0.010,-0.197,0.155,0.025,0.7608,1.0848
9,0.0041,-0.0395,-0.0018,-0.57,-0.87,-35.93,0.010,-0.003,0.046,-0.172,0.7606,1.0846
9,0.0020,-0.0512,0.0002,-0.49,-0.91,-35.89,0.010,0.176,0.260,-0.392,0.7615,1.0869
9,0.0039,-0.0506,0.0002,-0.51,-0.91,-35.86,0.008,-0.073,0.336,0.106,0.7605,1.0863
9,0.0033,-0.0495,0.0004,-0.52,-0.90,-35.82,0.008,-0.097,0.249,-0.022,0.7566,1.0791
9,0.0083,-0.0352,0.0019,-0.63,-0.86,-35.79,0.008,-0.222,0.008,-0.001,0.7571,1.0783
9,0.0027,-0.0373,-0.0014,-0.59,-0.83,-35.75,0.008,-0.198,0.191,-0.269,0.7565,1.0782
9,-0.0182,-0.0750,-0.0032,-0.26,-0.87,-35.71,0.008,-0.248,0.255,0.157,0.7573,1.0782
9,-0.0146,-0.0763,-0.0029,-0.28,-0.89,-35.67,0.008,-0.397,-0.155,0.130,0.7574,1.0799
9,-0.0169,-0.0735,-0.0023,-0.29,-0.86,-35.64,0.009,0.048,0.107,-0.108,0.7570,1.0774
9,-0.0119,-0.0706,-0.0016,-0.34,-0.88,-35.61,0.009,-0.269,-0.008,0.269,0.7568,1.0790
10,-0.0100,-0.0584,0.0001,-0.43,-0.83,-35.58,0.009,-0.116,0.320,-0.004,0.7573,1.0797
10,-0.0120,-0.0697,-0.0008,-0.36,-0.86,-35.54,0.009,-0.344,0.114,0.270,0.7562,1.0785
10,-0.0121,-0.0579,0.0005,-0.44,-0.81,-35.50,0.006,-0.427,0.160,-0.056,0.7575,1.0789
10,-0.0087,-0.0517,0.0011,-0.50,-0.80,-35.47,0.006,-0.187,-0.012,0.007,0.7555,1.0762
10,-0.0141,-0.0563,0.0008,-0.45,-0.78,-35.43,0.006,0.156,-0.056,-0.136,0.7542,1.0744
10,-0.0064,-0.0517,-0.0053,-0.52,-0.81,-35.40,0.006,-0.280,0.000,0.205,0.7541,1.0742
10,-0.0164,-0.0642,-0.0060,-0.40,-0.80,-35.36,0.006,-0.088,0.261,0.272,0.7542,1.0746
10,-0.0226,-0.0717,-0.0067,-0.32,-0.79,-35.32,0.006,-0.194,0.096,-0.059,0.7536,1.0735
10,-0.0220,-0.0699,-0.0061,-0.34,-0.78,-35.29,0.010,-0.023,0.345,0.102,0.7531,1.0728
10,-0.0203,-0.0646,-0.0051,-0.39,-0.77,-35.25,0.010,-0.081,0.203,0.057,0.7544,1.0744
10,-0.0223,-0.0681,-0.0055,-0.37,-0.77,-35.21,0.010,-0.073,-0.052,0.082,0.7544,1.0749
10,-0.0236,-0.0690,-0.0001,-0.36,-0.76,-35.18,0.010,0.090,0.372,0.138,0.7549,1.0751
10,-0.0159,-0.0569,0.0015,-0.48,-0.75,-35.15,0.008,-0.284,-0.005,0.131,0.7538,1.0726
10,-0.0144,-0.0522,0.0021,-0.53,-0.74,-35.11,0.008,0.028,0.369,-0.107,0.7541,1.0751
10,-0.0110,-0.0488,0.0024,-0.57,-0.74,-35.08,0.008,-0.248,0.503,0.233,0.7550,1.0745
10,-0.0159,-0.0605,-0.0003,-0.47,-0.76,-35.04,0.008,0.154,0.287,0.089,0.7543,1.0735
10,-0.0132,-0.0440,0.0010,-0.60,-0.70,-35.01,0.008,-0.006,0.220,0.198,0.7548,1.0749
10,-0.0077,-0.0454,0.0010,-0.61,-0.74,-34.98,0.008,0.156,-0.082,0.014,0.7524,1.0716
10,-0.0111,-0.0490,0.0010,-0.58,-0.73,-34.94,0.011,0.080,0.385,-0.124,0.7520,1.0717
10,-0.0077,-0.0390,0.0021,-0.66,-0.71,-34.91,0.011,-0.134,0.276,-0.278,0.7520,1.0720
10,-0.0198,-0.0558,0.0014,-0.49,-0.71,-34.86,0.011,-0.146,0.046,0.272,0.7521,1.0722
10,-0.0204,-0.0524,0.0069,-0.52,-0.68,-34.83,0.011,-0.008,0.132,-0.218,0.7532,1.0719
10,-0.0195,-0.0488,0.0072,-0.55,-0.67,-34.80,0.011,-0.270,0.173,0.390,0.7516,1.0707
10,-0.0179,-0.0458,0.0075,-0.58,-0.66,-34.77,0.011,0.136,-0.011,-0.151,0.7524,1.0725
10,-0.0109,-0.0452,0.0078,-0.62,-0.71,-34.73,0.011,-0.015,0.152,-0.405,0.7525,1.0724
10,-0.0185,-0.0497,0.0094,-0.56,-0.67,-34.70,0.011,-0.028,0.246,0.114,0.7536,1.0724
10,-0.0136,-0.0378,0.0102,-0.66,-0.65,-34.66,0.011,-0.159,0.349,0.038,0.7517,1.0707
10,-0.0120,-0.0367,0.0102,-0.68,-0.66,-34.63,0.011,-0.142,0.202,0.155,0.7526,1.0720
10,-0.0058,-0.0346,0.0104,-0.72,-0.69,-34.60,0.012,-0.354,0.138,0.255,0.7532,1.0747
11,-0.0157,-0.0421,0.0103,-0.63,-0.66,-34.56,0.012,0.030,0.239,-0.214,0.7504,1.0703
11,-0.0096,-0.0325,0.0113,-0.72,-0.65,-34.53,0.012,-0.127,0.000,0.065,0.7505,1.0727
11,-0.0057,-0.0162,0.0135,-0.84,-0.61,-34.50,0.012,-0.071,0.226,-0.246,0.7504,1.0724
11,-0.0206,-0.0401,0.0132,-0.62,-0.61,-34.46,0.008,-0.067,-0.301,0.113,0.7502,1.0727
11,-0.0184,-0.0246,0.0143,-0.73,-0.56,-34.43,0.008,-0.012,0.262,-0.077,0.7510,1.0719
11,-0.0183,-0.0245,0.0145,-0.73,-0.56,-34.39,0.008,0.091,0.241,-0.309,0.7508,1.0720
11,-0.0184,-0.0222,0.0054,-0.75,-0.55,-34.36,0.008,-0.019,0.229,-0.294,0.7508,1.0723
11,-0.0129,-0.0254,0.0056,-0.75,-0.60,-34.33,0.008,-0.147,0.099,0.084,0.7497,1.0723
11,-0.0129,-0.0235,0.0058,-0.76,-0.59,-34.29,0.008,0.163,0.237,-0.301,0.7503,1.0724
11,-0.0120,-0.0207,0.0061,-0.78,-0.58,-34.26,0.007,0.015,0.068,-0.064,0.7466,1.0658
11,-0.0169,-0.0200,0.0060,-0.77,-0.54,-34.23,0.007,-0.147,0.256,-0.170,0.7475,1.0675
11,-0.0126,-0.0183,0.0064,-0.80,-0.57,-34.20,0.007,-0.264,-0.115,-0.006,0.7481,1.0676
11,-0.0322,-0.0532,-0.0041,-0.48,-0.60,-34.16,0.007,0.023,0.105,-0.185,0.7480,1.0675
11,-0.0259,-0.0416,-0.0027,-0.59,-0.59,-34.13,0.008,0.197,0.418,-0.051,0.7486,1.0723
11,-0.0213,-0.0391,-0.0022,-0.63,-0.61,-34.10,0.008,0.168,0.289,-0.257,0.7485,1.0717
11,-0.0208,-0.0380,-0.0020,-0.64,-0.61,-34.06,0.008,-0.116,0.222,-0.012,0.7483,1.0715
11,-0.0162,-0.0105,-0.0035,-0.85,-0.51,-34.03,0.008,0.026,0.248,-0.254,0.7478,1.0719
11,-0.0161,-0.0135,-0.0032,-0.82,-0.53,-34.00,0.008,0.118,0.228,-0.049,0.7486,1.0727
11,-0.0161,-0.0135,-0.0032,-0.82,-0.53,-33.96,0.008,-0.285,-0.231,-0.031,0.7500,1.0732
11,-0.0181,-0.0105,-0.0032,-0.84,-0.51,-33.93,0.011,0.086,-0.108,-0.358,0.7513,1.0760
11,-0.0126,-0.0055,-0.0031,-0.89,-0.52,-33.90,0.011,-0.010,0.235,0.085,0.7518,1.0783
11,-0.0044,-0.0029,-0.0031,-0.94,-0.57,-33.86,0.011,0.038,0.278,-0.124,0.7516,1.0784
11,0.0032,0.0123,0.0018,-1.08,-0.55,-33.83,0.011,0.023,-0.091,-0.180,0.7513,1.0779
11,0.0060,0.0244,0.0016,-1.17,-0.51,-33.80,0.010,0.010,0.037,-0.043,0.7513,1.0781
11,0.0051,0.0240,0.0020,-1.15,-0.51,-33.76,0.010,0.040,0.034,-0.095,0.7524,1.0776
11,0.0034,0.0201,0.0027,-1.11,-0.52,-33.73,0.010,-0.022,0.283,-0.022,0.7510,1.0788
11,0.0037,0.0205,0.0033,-1.11,-0.52,-33.70,0.010,-0.206,0.275,-0.113,0.7515,1.0787
11,0.0096,0.0174,0.0035,-1.11,-0.57,-33.67,0.010,0.146,0.074,-0.375,0.7514,1.0785
11,0.0021,0.0232,0.0037,-1.11,-0.49,-33.64,0.010,-0.083,0.212,0.162,0.7515,1.0775
11,0.0051,0.0221,0.0038,-1.11,-0.52,-33.60,0.007,0.026,0.145,-0.325,0.7503,1.0780
12,0.0043,0.0204,0.0040,-1.09,-0.52,-33.57,0.007,-0.267,0.189,0.415,0.7523,1.0791
12,0.0053,0.0146,0.0043,-1.05,-0.56,-33.54,0.007,-0.083,0.181,-0.032,0.7520,1.0790
12,-0.0015,0.0170,-0.0028,-1.03,-0.50,-33.51,0.007,0.212,0.369,-0.169,0.7524,1.0793
12,0.0095,0.0220,-0.0030,-1.11,-0.56,-33.47,0.008,-0.080,0.161,0.104,-0.0000,-0.0000
12,0.0077,0.0208,-0.0027,-1.09,-0.55,-33.44,0.008,-0.301,0.261,0.023,-0.0001,0.0001
12,0.0101,0.0213,-0.0025,-1.10,-0.57,-33.41,0.008,-0.129,0.185,-0.079,-0.0001,0.0001
12,-0.0002,-0.0003,0.0000,0.00,0.00,-0.00,0.008,-0.442,-0.036,0.163,-0.0001,-0.0000
12,-0.0080,0.0066,0.0002,-0.01,0.00,-0.00,0.008,-0.329,0.046,0.044,-0.0001,0.0000
12,-0.0062,0.0038,0.0003,-0.00,-0.01,0.00,0.008,0.223,0.450,-0.178,0.0001,-0.0001
12,-0.0045,-0.0025,0.0005,0.05,-0.05,0.00,0.007,-0.401,0.084,0.302,0.0001,-0.0014
12,-0.0051,-0.0027,0.0004,0.03,-0.05,0.00,0.007,-0.005,0.162,-0.066,0.0001,-0.0040
12,0.0007,-0.0052,0.0004,0.05,-0.18,-0.00,0.007,-0.049,0.071,0.338,0.0003,-0.0048
12,-0.0001,-0.0313,-0.0004,0.60,-0.19,0.00,0.007,0.404,0.218,0.118,0.0001,-0.0049
12,-0.0007,-0.0745,-0.0025,1.58,-0.19,0.00,0.009,-0.343,0.284,0.282,-0.0000,-0.0053
12,0.0020,-0.0792,-0.0027,1.60,-0.27,0.01,0.009,-0.095,0.407,0.120,0.0001,-0.0064
12,-0.0016,-0.0727,-0.0015,1.31,-0.18,0.01,0.009,-0.177,0.276,0.307,0.0002,-0.0103
12,-0.0036,-0.0706,0.0008,1.16,-0.14,0.01,0.009,-0.314,0.165,-0.158,0.0003,-0.0114
12,-0.0021,-0.0798,0.0005,1.32,-0.20,0.01,0.009,0.011,0.198,0.025,0.0000,-0.0118
12,-0.0009,-0.1235,-0.0040,2.43,-0.26,0.01,0.009,-0.253,0.073,0.039,0.0003,-0.0124
12,0.0003,-0.1273,-0.0037,2.38,-0.32,0.01,0.011,-0.015,0.314,-0.101,0.0002,-0.0138
12,-0.0037,-0.1217,-0.0019,2.07,-0.22,0.01,0.011,-0.400,0.364,0.408,0.0008,-0.0145
12,-0.0000,-0.1343,-0.0034,2.27,-0.33,0.01,0.011,0.194,0.107,-0.107,0.0011,-0.0178
12,-0.0020,-0.1411,0.0038,2.29,-0.29,0.02,0.011,-0.257,0.033,-0.178,0.0017,-0.0159
12,0.0058,-0.1372,0.0055,2.05,-0.50,0.01,0.010,-0.056,0.180,-0.309,0.0017,-0.0165
12,0.0073,-0.1486,0.0044,2.21,-0.53,0.02,0.010,-0.095,0.223,0.145,0.0014,-0.0156
12,0.0146,-0.1316,0.0083,1.66,-0.72,0.01,0.010,0.069,0.025,0.183,0.0010,-0.0164
12,0.0135,-0.1274,0.0103,1.45,-0.68,0.01,0.010,-0.065,0.037,-0.271,0.0016,-0.0167
12,0.0084,-0.1069,0.0130,0.86,-0.56,0.00,0.010,-0.074,0.182,-0.051,0.0018,-0.0161
12,0.0037,-0.1077,0.0133,0.80,-0.45,0.01,0.010,-0.123,0.239,-0.158,0.0014,-0.0172
12,0.0095,-0.1022,0.0141,0.61,-0.58,0.00,0.009,-0.033,0.098,-0.168,0.0012,-0.0171
12,0.0108,-0.0889,0.0154,0.26,-0.60,-0.00,0.009,-0.265,0.254,0.040,0.0012,-0.0156
13,0.0059,-0.0922,0.0155,0.29,-0.49,-0.00,0.009,0.111,0.069,-0.286,0.0010,-0.0156
13,0.0032,-0.0847,0.0105,0.09,-0.44,-0.00,0.009,0.061,0.157,-0.084,0.0014,-0.0156
13,0.0031,-0.0642,0.0114,-0.36,-0.44,-0.01,0.012,-0.235,0.116,0.184,0.0019,-0.0175
13,0.0010,-0.0589,0.0116,-0.48,-0.39,-0.01,0.012,0.192,0.032,-0.043,0.0008,-0.0177
13,0.0047,-0.0539,0.0118,-0.59,-0.47,-0.01,0.012,-0.348,0.516,-0.025,0.0008,-0.0163
13,0.0082,-0.0668,0.0147,-0.35,-0.54,-0.01,0.012,-0.086,0.216,0.017,0.0010,-0.0154
13,-0.0019,-0.0631,0.0150,-0.43,-0.34,-0.01,0.012,-0.189,0.246,-0.066,0.0014,-0.0174
13,-0.0019,-0.0464,0.0151,-0.75,-0.35,-0.01,0.012,-0.184,0.244,0.213,0.0010,-0.0158
13,-0.0002,-0.0348,0.0149,-0.97,-0.39,-0.01,0.011,0.103,0.049,-0.105,0.0017,-0.0218
13,0.0032,-0.0480,0.0152,-0.72,-0.45,-0.01,0.011,-0.083,0.035,0.156,0.0003,-0.0218
13,-0.0010,-0.0311,0.0152,-1.02,-0.39,-0.01,0.011,0.038,0.183,0.052,-0.0010,-0.0206
13,0.0044,-0.0769,0.0121,-0.23,-0.49,-0.01,0.011,-0.043,-0.009,-0.112,-0.0012,-0.0211
13,-0.0067,-0.0713,0.0127,-0.34,-0.30,-0.01,0.011,0.104,-0.023,-0.084,-0.0027,-0.0210
13,-0.0168,-0.0572,0.0135,-0.59,-0.14,-0.01,0.011,-0.142,0.286,-0.101,-0.0029,-0.0215
13,-0.0173,-0.0575,0.0137,-0.59,-0.14,-0.01,0.011,0.077,0.549,-0.004,-0.0025,-0.0224
13,-0.0274,-0.0523,0.0106,-0.67,0.01,-0.01,0.011,-0.247,0.362,0.067,-0.0025,-0.0214
13,-0.0282,-0.0524,0.0106,-0.67,0.01,-0.01,0.011,-0.270,0.038,0.150,-0.0024,-0.0229
13,-0.0227,-0.0516,0.0110,-0.69,-0.09,-0.01,0.011,-0.321,0.263,0.037,-0.0010,-0.0199
13,-0.0231,-0.0451,0.0113,-0.78,-0.09,-0.02,0.010,-0.257,0.190,-0.012,-0.0017,-0.0203
13,-0.0200,-0.0486,0.0117,-0.74,-0.15,-0.01,0.010,-0.149,0.227,-0.135,-0.0012,-0.0220
13,-0.0117,-0.0281,0.0127,-1.03,-0.29,-0.01,0.010,-0.083,0.156,-0.033,-0.0013,-0.0217
13,-0.0149,-0.0270,0.0067,-1.05,-0.25,-0.01,0.010,0.017,0.239,0.272,-0.0017,-0.0200
13,-0.0124,-0.0384,0.0067,-0.89,-0.29,-0.01,0.007,0.024,0.337,-0.355,-0.0006,-0.0217
13,-0.0118,-0.0316,0.0069,-0.98,-0.31,-0.01,0.007,-0.021,-0.106,-0.040,-0.0006,-0.0198
13,-0.0147,-0.0203,0.0070,-1.13,-0.28,-0.01,0.007,-0.336,0.017,-0.172,-0.0013,-0.0206
22,-0.0071,-0.0297,-0.0030,-1.00,-0.39,-0.01,0.007,-0.121,-0.043,-0.380,-0.0003,-0.0213
32,-0.0066,-0.0153,-0.0028,-1.18,-0.40,-0.01,0.007,0.003,0.498,0.171,-0.0013,-0.0207
42,-0.0113,-0.0184,-0.0025,-1.13,-0.35,-0.01,0.007,0.304,0.197,-0.107,-0.0020,-0.0177
53,-0.0040,-0.0212,-0.0023,-1.09,-0.44,-0.01,0.005,-0.065,0.254,-0.324,0.0015,-0.0229
62,-0.0101,-0.0158,-0.0022,-1.15,-0.36,-0.01,0.005,0.005,0.077,-0.296,-0.0012,-0.0197
72,-0.0142,0.0050,-0.0026,-1.39,-0.32,-0.02,0.005,0.211,0.336,-0.065,-0.0013,-0.0197
82,0.0082,-0.0265,-0.0129,-1.00,-0.59,-0.01,0.005,-0.054,0.326,0.023,-0.0010,-0.0195
91,-0.0091,-0.0045,-0.0121,-1.26,-0.39,-0.02,0.009,-0.077,0.361,0.210,-0.0010,-0.0205
102,-0.0094,-0.0035,-0.0121,-1.26,-0.39,-0.02,0.009,0.441,0.400,-0.149,-0.0015,-0.0194
112,-0.0073,-0.0008,-0.0120,-1.28,-0.42,-0.02,0.009,-0.076,0.257,0.267,-0.0012,-0.0195
122,-0.0067,-0.0062,-0.0084,-1.21,-0.43,-0.02,0.009,-0.100,-0.118,-0.002,-0.0007,-0.0207
132,-0.0092,0.0011,-0.0082,-1.28,-0.40,-0.02,0.009,-0.497,0.621,0.282,-0.0001,-0.0207
142,-0.0073,0.0019,-0.0081,-1.28,-0.43,-0.02,0.009,0.164,0.385,-0.151,-0.0006,-0.0192
152,-0.0040,-0.0048,-0.0079,-1.19,-0.47,-0.01,0.009,-0.199,0.513,0.177,-0.0001,-0.0200
162,-0.0006,-0.0042,-0.0078,-1.20,-0.51,-0.01,0.009,-0.223,0.088,0.082,-0.0011,-0.0205
172,-0.0031,0.0053,-0.0076,-1.29,-0.48,-0.01,0.009,-0.072,0.005,0.060,-0.0006,-0.0205
182,-0.0001,0.0013,-0.0043,-1.24,-0.52,-0.01,0.009,-0.078,0.109,0.122,-0.0008,-0.0195
192,-0.0059,-0.0010,-0.0042,-1.21,-0.46,-0.01,0.008,-0.225,0.436,0.237,-0.0011,-0.0193
202,-0.0027,-0.0002,-0.0039,-1.21,-0.49,-0.01,0.008,-0.296,0.266,-0.042,0.0040,-0.0215
211,-0.0039,0.0062,-0.0036,-1.27,-0.48,-0.01,0.008,0.036,0.261,-0.148,0.0039,-0.0241
222,-0.0050,0.0081,-0.0035,-1.28,-0.47,-0.01,0.008,-0.167,0.295,0.044,0.0039,-0.0236
232,0.0237,-0.0034,-0.0033,-1.15,-0.77,0.01,0.008,0.062,0.093,-0.068,0.0036,-0.0236
242,0.0227,-0.0173,-0.0033,-1.00,-0.76,0.01,0.008,-0.094,0.203,-0.199,0.0043,-0.0293
252,0.0216,-0.0131,-0.0030,-1.04,-0.75,0.01,0.012,-0.107,0.140,0.262,0.0041,-0.0325
262,0.0194,-0.0119,-0.0027,-1.04,-0.72,0.00,0.012,-0.052,0.003,-0.443,0.0036,-0.0329
271,0.0224,-0.0427,-0.0034,-0.73,-0.75,0.01,0.012,-0.255,0.131,-0.083,0.0024,-0.0302
281,0.0202,-0.0585,0.0053,-0.57,-0.72,0.01,0.012,0.032,0.098,-0.153,0.0026,-0.0325
291,0.0167,-0.0578,0.0057,-0.58,-0.68,0.01,0.010,-0.085,-0.070,-0.201,0.0028,-0.0275
301,0.0095,-0.0401,0.0078,-0.76,-0.61,-0.00,0.010,0.013,0.180,-0.112,0.0030,-0.0277
311,0.0105,-0.0505,0.0073,-0.66,-0.62,0.00,0.010,-0.154,0.126,-0.055,0.0039,-0.0277
322,0.0117,-0.0205,0.0090,-0.95,-0.63,-0.01,0.010,0.012,0.382,0.074,0.0029,-0.0264
331,0.0121,-0.0202,0.0091,-0.95,-0.63,-0.01,0.010,-0.148,0.414,-0.046,0.0041,-0.0259
341,0.0171,-0.0185,0.0092,-0.97,-0.67,-0.00,0.010,-0.013,0.247,0.108,0.0024,-0.0199
352,0.0111,-0.0103,0.0095,-1.04,-0.62,-0.01,0.009,-0.032,0.047,-0.044,0.0011,-0.0161
362,0.0174,-0.0064,0.0093,-1.07,-0.67,-0.01,0.009,-0.034,0.075,-0.243,0.0019,-0.0221
372,0.0074,0.0273,0.0093,-1.38,-0.58,-0.02,0.009,-0.132,0.221,-0.007,0.0021,-0.0231
382,0.0005,0.0474,0.0043,-1.56,-0.51,-0.03,0.009,-0.458,0.338,0.402,0.0021,-0.0222
391,0.0044,0.0136,0.0076,-1.23,-0.55,-0.02,0.010,0.157,0.020,-0.071,0.0021,-0.0215
403,0.0055,0.0084,0.0080,-1.17,-0.56,-0.02,0.010,-0.239,0.186,-0.188,0.0016,-0.0234
412,0.0053,0.0137,0.0080,-1.22,-0.56,-0.02,0.010,-0.144,0.420,0.150,0.0012,-0.0225
422,0.0050,0.0175,0.0065,-1.24,-0.56,-0.02,0.010,0.033,-0.112,-0.301,0.0014,-0.0234
431,0.0022,0.0070,0.0069,-1.14,-0.53,-0.02,0.010,-0.318,0.418,-0.024,0.0014,-0.0215
442,-0.0006,0.0124,0.0069,-1.18,-0.51,-0.02,0.010,0.129,0.046,0.013,0.0021,-0.0216
452,0.0006,0.0072,0.0070,-1.13,-0.52,-0.02,0.008,0.061,-0.095,-0.057,0.0014,-0.0207
462,0.0005,0.0175,0.0069,-1.22,-0.53,-0.02,0.008,-0.146,0.141,-0.140,0.0016,-0.0232
472,0.0043,0.0172,0.0071,-1.21,-0.56,-0.02,0.008,0.039,-0.130,0.026,0.0019,-0.0216
482,0.0003,0.0218,0.0007,-1.24,-0.53,-0.02,0.008,-0.014,-0.150,0.105,0.0016,-0.0226
492,0.0016,0.0075,0.0015,-1.11,-0.54,-0.02,0.008,0.133,0.374,0.131,0.0016,-0.0233
502,0.0029,0.0163,0.0014,-1.18,-0.55,-0.02,0.008,-0.146,0.143,-0.266,0.0012,-0.0235
512,0.0015,0.0110,0.0014,-1.13,-0.54,-0.02,0.008,0.048,0.196,-0.066,0.0014,-0.0229
522,0.0014,0.0073,-0.0024,-1.09,-0.54,-0.02,0.008,0.041,-0.147,0.044,0.0016,-0.0235
531,-0.0011,0.0057,-0.0024,-1.08,-0.51,-0.02,0.008,-0.066,0.291,0.381,0.0016,-0.0204
542,0.0001,0.0094,-0.0021,-1.10,-0.53,-0.02,0.008,-0.083,-0.037,-0.175,0.0021,-0.0195
551,0.0013,0.0059,-0.0018,-1.07,-0.54,-0.02,0.009,-0.153,0.022,0.031,0.0016,-0.0216
561,0.0013,0.0227,-0.0019,-1.21,-0.54,-0.03,0.009,0.060,0.071,-0.157,0.0027,-0.0211
571,0.0037,0.0268,-0.0020,-1.24,-0.56,-0.02,0.009,-0.176,0.069,-0.154,0.0027,-0.0203
581,0.0012,0.0153,-0.0012,-1.13,-0.54,-0.02,0.009,0.103,0.154,-0.070,0.0016,-0.0212
591,0.0071,0.0175,-0.0013,-1.14,-0.59,-0.02,0.012,0.052,0.159,-0.076,0.0016,-0.0196
602,0.0069,0.0217,-0.0013,-1.17,-0.58,-0.02,0.012,-0.139,0.148,-0.191,0.0008,-0.0170
612,0.0008,0.0163,-0.0008,-1.12,-0.53,-0.02,0.012,-0.137,0.327,-0.029,-0.0003,-0.0131
621,0.0007,0.0244,0.0055,-1.18,-0.53,-0.03,0.012,-0.047,0.183,-0.200,-0.0004,-0.0125
631,-0.0039,0.0376,0.0053,-1.29,-0.49,-0.03,0.012,-0.242,0.068,-0.284,0.0001,-0.0128
642,-0.0095,0.0571,0.0039,-1.45,-0.44,-0.04,0.012,0.012,0.058,-0.106,0.0001,-0.0119
651,-0.0094,0.0580,0.0038,-1.45,-0.44,-0.04,0.011,-0.029,0.499,0.078,0.0001,-0.0127
661,-0.0065,0.0545,0.0046,-1.41,-0.47,-0.04,0.011,0.157,-0.039,-0.176,-0.0008,-0.0139
671,-0.0062,0.0573,0.0047,-1.42,-0.48,-0.04,0.011,-0.292,0.076,0.523,-0.0006,-0.0123
681,-0.0060,0.0516,0.0071,-1.36,-0.48,-0.04,0.011,-0.202,0.429,0.001,-0.0003,-0.0121
690,-0.0104,0.0436,0.0078,-1.28,-0.45,-0.04,0.006,-0.221,-0.018,-0.126,-0.0006,-0.0132
701,-0.0085,0.0502,0.0075,-1.33,-0.46,-0.04,0.006,-0.092,0.093,0.090,0.0030,-0.0179
711,-0.0067,0.0495,0.0077,-1.31,-0.48,-0.03,0.006,0.055,-0.002,-0.160,0.0026,-0.0157
721,-0.0077,0.0423,-0.0025,-1.25,-0.48,-0.03,0.006,-0.039,0.240,-0.191,0.0026,-0.0164
731,0.0114,0.0162,-0.0010,-1.02,-0.64,-0.02,0.006,-0.082,0.043,0.326,-0.0014,-0.0124
741,0.0086,0.0273,-0.0009,-1.11,-0.62,-0.02,0.006,0.158,0.019,-0.218,-0.0012,-0.0081
751,0.0083,0.0228,-0.0008,-1.07,-0.61,-0.02,0.009,-0.189,0.185,-0.001,0.0001,-0.0125
761,-0.0127,0.0430,-0.0009,-1.23,-0.43,-0.03,0.009,-0.389,0.101,0.194,-0.0009,-0.0171
772,-0.0110,0.0644,-0.0024,-1.41,-0.45,-0.03,0.009,-0.013,0.180,-0.021,-0.0007,-0.0164
781,-0.0035,0.0389,0.0001,-1.18,-0.51,-0.03,0.009,-0.091,0.302,-0.084,-0.0007,-0.0169
791,-0.0089,0.0133,0.0016,-0.96,-0.47,-0.03,0.012,-0.397,0.075,0.105,-0.0013,-0.0162
801,-0.0072,0.0165,0.0022,-0.98,-0.48,-0.03,0.012,-0.275,0.285,0.066,-0.0000,-0.0168
811,-0.0068,0.0133,0.0023,-0.96,-0.49,-0.03,0.012,0.001,0.180,-0.081,-0.0007,-0.0164
821,-0.0098,0.0167,0.0070,-0.98,-0.46,-0.03,0.012,-0.055,0.116,-0.127,-0.0007,-0.0162
831,-0.0024,0.0123,0.0072,-0.94,-0.53,-0.02,0.012,-0.197,0.030,0.114,-0.0009,-0.0162
841,-0.0055,0.0144,0.0069,-0.96,-0.50,-0.03,0.012,-0.186,0.301,0.048,-0.0013,-0.0181
851,-0.0052,0.0148,0.0069,-0.96,-0.50,-0.03,0.010,-0.023,0.267,0.124,-0.0000,-0.0229
862,-0.0061,0.0144,0.0072,-0.95,-0.50,-0.03,0.010,-0.176,0.405,-0.050,-0.0009,-0.0196
871,-0.0081,0.0032,0.0074,-0.86,-0.48,-0.03,0.010,0.017,0.492,-0.034,0.0006,-0.0196
881,-0.0006,-0.0227,0.0048,-0.65,-0.54,-0.02,0.010,0.177,0.014,-0.353,0.0008,-0.0199
891,-0.0052,-0.0038,0.0058,-0.80,-0.51,-0.03,0.010,-0.140,0.255,-0.142,0.0032,-0.0197
901,0.0033,-0.0034,0.0061,-0.80,-0.58,-0.02,0.010,0.009,0.348,0.021,0.0038,-0.0224
911,0.0044,-0.0044,0.0062,-0.79,-0.59,-0.02,0.010,-0.010,0.166,-0.094,0.0038,-0.0209
921,0.0170,-0.0032,0.0040,-0.80,-0.69,-0.02,0.010,-0.356,0.270,0.005,0.0040,-0.0209
930,0.0198,-0.0181,0.0039,-0.68,-0.71,-0.02,0.010,0.112,0.144,-0.107,0.0040,-0.0207
941,0.0191,-0.0094,0.0042,-0.76,-0.70,-0.02,0.010,0.049,0.017,0.175,0.0038,-0.0255
951,0.0194,-0.0090,0.0043,-0.76,-0.70,-0.02,0.006,-0.118,0.088,-0.195,0.0027,-0.0266
961,0.0185,-0.0072,0.0045,-0.77,-0.70,-0.02,0.006,-0.033,0.088,0.160,0.0025,-0.0316
972,0.0167,-0.0330,0.0043,-0.56,-0.68,-0.02,0.006,0.000,0.189,0.143,0.0031,-0.0324
981,0.0103,-0.0373,-0.0072,-0.53,-0.63,-0.02,0.006,-0.243,0.192,0.283,0.0027,-0.0330
991,0.0087,-0.0629,-0.0088,-0.33,-0.61,-0.02,0.011,-0.055,-0.017,-0.112,0.0021,-0.0314
1001,0.0117,-0.0648,-0.0090,-0.32,-0.64,-0.02,0.011,0.081,0.348,-0.144,0.0032,-0.0333
1012,0.0091,-0.0654,-0.0088,-0.32,-0.62,-0.02,0.011,0.096,0.380,-0.031,0.0032,-0.0324
1021,0.0057,-0.0537,-0.0011,-0.43,-0.59,-0.02,0.011,-0.079,0.197,-0.206,0.0026,-0.0330
1031,0.0112,-0.0614,-0.0014,-0.37,-0.63,-0.02,0.011,-0.109,-0.126,0.329,0.0021,-0.0326
1041,0.0108,-0.0542,-0.0004,-0.43,-0.63,-0.02,0.011,-0.122,0.304,-0.043,0.0024,-0.0297
1051,0.0070,-0.0552,-0.0002,-0.43,-0.60,-0.02,0.007,-0.181,0.385,0.106,0.0017,-0.0328
1061,0.0044,-0.0505,0.0004,-0.47,-0.58,-0.02,0.007,-0.225,0.037,-0.027,0.0021,-0.0328
1071,0.0055,-0.0327,0.0019,-0.62,-0.58,-0.02,0.007,-0.259,0.102,-0.042,0.0019,-0.0330
1081,0.0019,-0.0477,-0.0051,-0.50,-0.56,-0.02,0.007,-0.113,0.145,0.167,0.0032,-0.0322
1091,0.0040,-0.0456,-0.0049,-0.52,-0.57,-0.02,0.011,-0.133,-0.002,0.224,0.0026,-0.0318
1101,0.0030,-0.0446,-0.0047,-0.53,-0.56,-0.02,0.011,0.065,0.157,0.090,0.0020,-0.0314
1111,0.0097,-0.0382,-0.0041,-0.59,-0.62,-0.02,0.011,0.146,0.194,-0.189,0.0022,-0.0312
1121,0.0063,-0.0344,0.0016,-0.63,-0.59,-0.02,0.011,-0.135,0.109,0.168,0.0022,-0.0328
1131,0.0029,-0.0305,0.0018,-0.66,-0.56,-0.02,0.011,-0.165,0.045,0.024,0.0024,-0.0310
1141,0.0039,-0.0278,0.0020,-0.68,-0.57,-0.02,0.011,0.039,0.063,0.043,0.0022,-0.0326
1151,0.0038,-0.0354,0.0020,-0.62,-0.57,-0.02,0.004,0.001,0.154,-0.040,0.0021,-0.0321
1161,0.0049,-0.0240,0.0027,-0.72,-0.58,-0.02,0.004,0.278,0.311,-0.067,0.0023,-0.0313
1171,0.0037,-0.0318,0.0029,-0.66,-0.56,-0.01,0.004,0.033,-0.066,-0.270,0.0024,-0.0316
1181,0.0034,-0.0279,-0.0097,-0.69,-0.56,-0.02,0.004,-0.115,-0.205,0.117,0.0024,-0.0322
1191,0.0045,-0.0222,-0.0096,-0.74,-0.57,-0.02,0.009,-0.296,-0.041,-0.030,0.0033,-0.0320
1200,0.0045,-0.0223,-0.0097,-0.74,-0.57,-0.02,0.009,-0.487,0.566,0.264,0.0026,-0.0328
1211,0.0043,-0.0249,-0.0097,-0.72,-0.57,-0.02,0.009,-0.086,0.310,0.290,0.0024,-0.0314
1221,0.0088,-0.0227,-0.0052,-0.74,-0.61,-0.02,0.009,0.016,0.188,-0.072,0.0018,-0.0313
1231,0.0051,-0.0261,-0.0051,-0.71,-0.58,-0.02,0.009,0.025,0.033,-0.040,0.0018,-0.0332
1241,0.0040,-0.0164,-0.0048,-0.79,-0.57,-0.02,0.009,0.057,-0.032,-0.156,0.0026,-0.0280
1251,0.0005,-0.0154,-0.0046,-0.80,-0.54,-0.01,0.010,-0.483,-0.084,-0.020,0.0003,-0.0215
1261,0.0005,-0.0249,-0.0047,-0.73,-0.54,-0.01,0.010,0.076,0.057,0.005,-0.0009,-0.0217
1271,0.0051,0.0052,-0.0034,-0.97,-0.58,-0.02,0.010,0.082,0.354,0.044,-0.0009,-0.0204
1281,-0.0077,0.0408,0.0011,-1.26,-0.47,-0.02,0.010,-0.208,0.189,0.174,0.0001,-0.0177
1291,-0.0143,0.0382,0.0014,-1.23,-0.42,-0.02,0.008,-0.262,0.164,0.230,0.0000,-0.0171
1301,-0.0138,0.0438,0.0011,-1.27,-0.43,-0.02,0.008,-0.013,-0.040,-0.129,0.0000,-0.0174
1311,-0.0075,0.0575,0.0000,-1.37,-0.48,-0.02,0.008,0.169,-0.045,-0.154,0.0012,-0.0168
1321,-0.0075,0.0586,-0.0007,-1.37,-0.48,-0.02,0.008,-0.144,0.213,-0.210,0.0005,-0.0181
1331,-0.0072,0.0547,-0.0002,-1.33,-0.49,-0.02,0.008,0.237,0.196,-0.141,0.0003,-0.0181
1341,-0.0009,0.0560,-0.0002,-1.33,-0.54,-0.02,0.008,-0.355,0.338,0.226,-0.0003,-0.0173
1351,-0.0046,0.0464,0.0011,-1.25,-0.52,-0.02,0.008,0.182,0.688,0.121,0.0001,-0.0175
1361,-0.0056,0.0446,0.0013,-1.22,-0.51,-0.02,0.008,-0.139,0.097,0.081,-0.0005,-0.0152
1371,-0.0088,0.0478,0.0012,-1.24,-0.49,-0.02,0.008,-0.189,0.374,0.119,-0.0003,-0.0120
1381,-0.0058,0.0447,0.0006,-1.21,-0.51,-0.02,0.008,-0.084,0.005,0.045,0.0008,-0.0140
1391,-0.0088,0.0560,0.0000,-1.29,-0.49,-0.02,0.006,-0.255,0.265,-0.087,-0.0012,-0.0142
1401,-0.0071,0.0711,-0.0016,-1.40,-0.51,-0.02,0.006,-0.181,0.118,0.407,-0.0001,-0.0227
1411,-0.0009,0.0578,0.0006,-1.28,-0.56,-0.02,0.006,-0.165,-0.022,-0.220,0.0001,-0.0236
1421,-0.0110,0.0539,-0.0044,-1.25,-0.47,-0.02,0.006,0.140,0.390,0.113,0.0008,-0.0232
1431,-0.0047,0.0057,-0.0009,-0.86,-0.53,-0.01,0.006,-0.197,0.104,0.100,-0.0003,-0.0227
1441,-0.0031,0.0009,-0.0008,-0.82,-0.54,-0.01,0.006,-0.205,-0.051,0.513,0.0008,-0.0229
1451,0.0006,0.0032,-0.0007,-0.83,-0.57,-0.01,0.010,-0.378,0.154,0.052,0.0006,-0.0208
1460,-0.0051,0.0053,-0.0005,-0.85,-0.53,-0.01,0.010,-0.108,0.190,0.588,0.0008,-0.0231
1471,0.0010,0.0040,-0.0004,-0.84,-0.58,-0.01,0.010,0.067,-0.087,-0.248,0.0006,-0.0235
1481,-0.0002,0.0154,0.0043,-0.93,-0.57,-0.01,0.010,-0.089,0.213,-0.070,0.0008,-0.0229
0,0.0011,0.0024,0.0047,-0.82,-0.58,-0.01,0.009,0.018,-0.025,-0.230,0.0006,-0.0237
9,0.0000,0.0003,0.0050,-0.80,-0.57,-0.00,0.009,-0.079,0.057,0.060,0.0008,-0.0254
20,0.0011,0.0038,0.0052,-0.83,-0.58,-0.00,0.009,0.650,-0.225,-0.075,0.0008,-0.0243
29,0.0001,-0.0009,0.0053,-0.79,-0.57,-0.00,0.009,0.957,-0.518,1.063,0.0006,-0.0227
39,0.0014,-0.0098,0.0053,-0.72,-0.57,-0.00,0.009,-0.026,-1.301,0.706,0.0002,-0.0231
49,0.0014,-0.0037,0.0056,-0.77,-0.57,-0.00,0.009,-0.500,1.435,0.050,-0.0000,-0.0264
59,0.0003,0.0052,0.0060,-0.84,-0.56,-0.00,0.011,-2.085,1.841,-0.848,-0.0000,-0.0317
69,-0.0010,0.0040,0.0066,-0.81,-0.54,-0.00,0.011,-3.772,4.563,-1.103,0.0006,-0.0298
79,-0.0011,-0.0128,0.0066,-0.66,-0.53,0.00,0.011,-5.926,6.577,-0.018,-0.0009,-0.0312
89,-0.0001,-0.0398,0.0099,-0.44,-0.53,-0.00,0.011,-5.001,5.088,-2.360,0.0012,-0.0320
99,0.0043,-0.0267,0.0112,-0.56,-0.57,-0.01,0.010,-11.855,14.305,-6.441,0.0010,-0.0253
109,-0.0034,-0.0318,0.0103,-0.54,-0.54,-0.01,0.010,-12.375,13.311,-11.322,0.0012,-0.0243
119,0.0094,-0.0333,0.0118,-0.57,-0.70,-0.01,0.010,-8.074,7.391,-9.119,0.0014,-0.0249
129,0.0086,0.0057,0.0146,-0.92,-0.74,-0.04,0.010,-5.041,5.876,-1.989,0.0015,-0.0238
139,0.0107,0.0126,0.0123,-1.08,-0.87,-0.09,0.010,0.540,1.772,-2.891,0.0012,-0.0237
149,0.0127,0.0103,0.0111,-1.17,-1.01,-0.20,0.010,0.662,-2.728,-12.015,0.0010,-0.0245
159,0.0143,0.0178,0.0115,-1.31,-1.09,-0.30,0.010,-3.536,6.251,-10.179,0.0016,-0.0239
169,0.0137,0.0194,0.0133,-1.36,-1.14,-0.34,0.010,-3.918,-5.734,-8.133,0.0017,-0.0236
179,0.0136,0.0162,0.0147,-1.32,-1.15,-0.36,0.010,5.686,-11.929,-3.364,0.0017,-0.0244
189,0.0182,0.0209,0.0119,-1.34,-1.15,-0.47,0.010,3.352,-20.745,2.131,0.0013,-0.0235
199,0.0196,0.0236,0.0135,-1.37,-1.19,-0.57,0.007,0.974,-30.155,-1.770,0.0006,-0.0236
209,0.0207,0.0202,0.0149,-1.38,-1.16,-0.66,0.007,-18.746,-23.804,-12.276,0.0009,-0.0225
219,0.0191,0.0265,0.0196,-1.38,-1.02,-0.70,0.007,-35.543,-26.302,-7.373,-0.0001,-0.0223
229,0.0159,0.0269,0.0181,-1.31,-0.78,-0.68,0.007,-44.467,-36.922,1.225,0.0000,-0.0239
239,0.0184,0.0339,0.0263,-1.32,-0.49,-0.68,0.007,-36.749,-47.479,0.831,-0.0023,-0.0223
249,0.0123,0.0357,0.0356,-1.47,-0.18,-0.79,0.007,-27.773,-52.253,-1.812,-0.0031,-0.0229
259,0.0125,0.0275,0.0497,-1.70,0.08,-0.86,0.012,-19.672,-53.394,0.339,-0.0032,-0.0196
269,-0.0017,0.0387,0.0660,-2.18,0.53,-0.86,0.012,-13.363,-43.719,2.335,-0.0038,-0.0165
278,-0.0076,0.0373,0.0838,-2.53,1.03,-0.82,0.012,-12.062,-39.964,5.006,-0.0057,-0.0138
290,-0.0094,0.0590,0.0984,-2.95,1.54,-0.81,0.012,-6.381,-37.298,7.527,-0.0064,-0.0109
299,-0.0155,0.0794,0.1106,-3.27,2.09,-0.78,0.000,-2.679,-32.776,7.817,-0.0064,-0.0100
309,-0.0296,0.0967,0.1227,-3.50,2.62,-0.73,0.000,8.705,-18.068,7.016,-0.0107,-0.0051
318,-0.0370,0.1143,0.1365,-3.71,3.03,-0.65,0.000,18.560,-7.545,6.742,-0.0128,-0.0026
329,-0.0406,0.1204,0.1160,-3.79,3.38,-0.55,0.000,27.289,-0.923,6.318,-0.0113,-0.0045
339,-0.0692,0.1487,0.1242,-4.00,3.87,-0.44,0.000,34.131,3.449,6.429,-0.0101,-0.0034
349,-0.0844,0.1625,0.1364,-3.99,4.12,-0.35,0.000,24.723,7.177,8.066,-0.0123,0.0003
359,-0.0788,0.1499,0.1600,-3.67,4.09,-0.30,0.002,26.834,6.711,8.135,-0.0130,0.0008
369,-0.0755,0.1545,0.1762,-3.39,4.01,-0.22,0.002,21.467,16.793,6.946,-0.0159,0.0052
379,-0.0912,0.1735,0.1849,-3.17,4.03,-0.14,0.002,15.423,22.081,7.595,-0.0181,0.0060
389,-0.0977,0.1732,0.1663,-2.89,3.96,-0.07,0.002,12.365,23.129,8.819,-0.0200,0.0090
398,-0.1157,0.1934,0.1713,-2.75,3.96,0.02,0.022,7.430,21.204,9.717,-0.0216,0.0106
408,-0.1290,0.1920,0.1833,-2.47,3.85,0.06,0.022,-0.416,23.449,9.957,-0.0279,0.0136
419,-0.1397,0.2031,0.1912,-2.36,3.66,0.14,0.022,0.378,28.271,9.348,-0.0287,0.0149
429,-0.1473,0.2044,0.2105,-2.23,3.43,0.21,0.022,-0.361,30.137,9.443,-0.0286,0.0122
439,-0.1811,0.2142,0.2122,-2.21,3.43,0.28,0.022,-0.901,33.638,9.698,-0.0305,0.0125
449,-0.1814,0.2133,0.2247,-2.18,3.14,0.36,0.022,2.514,36.835,8.198,-0.0336,0.0145
459,-0.1759,0.1892,0.2456,-1.96,2.77,0.38,0.036,6.197,34.910,7.848,-0.0345,0.0160
468,-0.1813,0.1841,0.2549,-1.90,2.47,0.44,0.036,14.868,29.828,8.303,-0.0373,0.0183
479,-0.1930,0.1885,0.2575,-1.92,2.19,0.52,0.036,20.011,25.680,6.475,-0.0342,0.0158
489,-0.1911,0.1889,0.2714,-1.87,1.76,0.59,0.036,25.728,21.386,6.437,-0.0307,0.0209
499,-0.1989,0.1945,0.2748,-1.83,1.44,0.66,0.060,28.951,18.431,6.294,-0.0320,0.0218
509,-0.1724,0.1717,0.2942,-1.48,0.90,0.69,0.060,32.750,16.448,6.980,-0.0351,0.0247
520,-0.1445,0.1931,0.3005,-1.41,0.41,0.83,0.060,34.367,16.086,8.136,-0.0332,0.0212
529,-0.1432,0.1883,0.3260,-1.08,0.17,0.87,0.060,32.344,13.083,10.081,-0.0352,0.0216
539,-0.1535,0.1962,0.3268,-0.83,0.06,0.94,0.060,29.763,13.676,10.557,-0.0344,0.0264
548,-0.1334,0.1662,0.3399,-0.26,-0.27,0.96,0.060,22.278,9.421,10.841,-0.0348,0.0270
558,-0.1366,0.1596,0.3433,0.14,-0.41,1.02,0.079,12.594,3.538,12.397,-0.0367,0.0294
569,-0.1238,0.1773,0.3433,0.33,-0.64,1.16,0.079,14.170,-9.144,11.439,-0.0371,0.0295
579,-0.1180,0.1701,0.3464,0.68,-0.81,1.26,0.079,7.947,-17.195,11.142,-0.0374,0.0319
589,-0.1202,0.1721,0.3586,0.89,-0.89,1.38,0.079,4.186,-27.928,11.032,-0.0380,0.0319
598,-0.1141,0.1616,0.3606,1.10,-0.97,1.49,0.103,-0.740,-29.060,10.457,-0.0397,0.0326
608,-0.1074,0.1644,0.3596,1.20,-0.93,1.61,0.103,-4.998,-27.634,8.897,-0.0403,0.0351
619,-0.1030,0.1532,0.3602,1.36,-0.78,1.71,0.103,-8.157,-20.699,7.761,-0.0410,0.0364
628,-0.1044,0.1450,0.3777,1.45,-0.50,1.81,0.103,-10.900,-13.489,7.377,-0.0414,0.0368
639,-0.1010,0.1482,0.3740,1.40,-0.23,1.91,0.103,-11.017,-5.265,8.018,-0.0434,0.0391
648,-0.0979,0.1439,0.3703,1.37,0.06,2.00,0.103,-12.461,-0.436,7.722,-0.0440,0.0402
659,-0.0948,0.1362,0.3664,1.34,0.25,2.07,0.112,-4.817,3.687,6.468,-0.0445,0.0406
669,-0.1008,0.1390,0.3596,1.19,0.43,2.15,0.112,-2.545,8.104,7.220,-0.0455,0.0418
679,-0.0995,0.1356,0.3549,1.09,0.47,2.22,0.112,1.417,12.603,6.849,-0.0465,0.0431
689,-0.0981,0.1292,0.3397,1.01,0.47,2.29,0.112,1.787,15.377,7.524,-0.0445,0.0433
699,-0.0988,0.1275,0.3340,0.95,0.43,2.36,0.136,5.433,16.181,6.707,-0.0501,0.0466
708,-0.0994,0.1260,0.3280,0.92,0.34,2.44,0.136,9.654,16.473,6.972,-0.0503,0.0476
719,-0.0843,0.1190,0.3247,0.97,0.10,2.50,0.136,10.373,15.626,5.849,-0.0508,0.0480
728,-0.1092,0.1282,0.3256,0.91,0.14,2.61,0.136,11.126,15.446,5.941,-0.0516,0.0481
738,-0.1048,0.1253,0.3198,0.97,-0.05,2.67,0.136,8.708,12.426,4.486,-0.0518,0.0485
749,-0.1015,0.1192,0.3140,1.10,-0.24,2.74,0.136,7.921,10.747,5.005,-0.0534,0.0504
758,-0.1000,0.1118,0.3077,1.25,-0.40,2.80,0.144,7.753,7.888,4.604,-0.0536,0.0508
769,-0.0955,0.1064,0.3007,1.37,-0.58,2.86,0.144,11.727,5.307,2.944,-0.0544,0.0517
778,-0.0978,0.1086,0.2922,1.43,-0.69,2.92,0.144,6.936,2.425,2.995,-0.0547,0.0518
788,-0.0928,0.1033,0.2739,1.52,-0.81,2.97,0.144,1.253,2.982,3.108,-0.0552,0.0524
799,-0.0909,0.1006,0.2662,1.60,-0.89,3.01,0.159,1.495,-0.670,2.990,-0.0564,0.0541
809,-0.0867,0.0939,0.2586,1.73,-0.96,3.04,0.159,-1.936,-3.233,2.851,-0.0568,0.0543
818,-0.0831,0.0898,0.2505,1.81,-1.01,3.08,0.159,-3.616,-1.947,3.168,-0.0576,0.0550
828,-0.0830,0.0906,0.2393,1.80,-1.02,3.11,0.159,-4.755,-3.307,2.361,-0.0579,0.0551
839,-0.0797,0.0849,0.2311,1.84,-1.02,3.14,0.159,-8.726,-4.372,2.745,-0.0582,0.0557
849,-0.0778,0.0812,0.2227,1.83,-0.99,3.17,0.159,-5.899,-5.206,1.655,-0.0590,0.0564
858,-0.0738,0.0752,0.2145,1.82,-0.98,3.19,0.172,-4.903,-4.988,1.835,-0.0597,0.0571
869,-0.0701,0.0717,0.2063,1.77,-0.96,3.22,0.172,-6.147,-2.738,2.115,-0.0599,0.0572
879,-0.0690,0.0692,0.1980,1.69,-0.92,3.24,0.172,-3.702,-3.912,1.794,-0.0602,0.0579
889,-0.0674,0.0667,0.1931,1.62,-0.87,3.26,0.172,-2.455,-2.021,1.414,-0.0605,0.0584
898,-0.0641,0.0615,0.1852,1.58,-0.84,3.27,0.179,-1.068,0.762,2.309,-0.0611,0.0589
908,-0.0612,0.0598,0.1773,1.51,-0.82,3.29,0.179,2.437,-0.146,1.204,-0.0614,0.0588
918,-0.0582,0.0569,0.1697,1.48,-0.79,3.30,0.179,2.255,3.354,1.341,-0.0610,0.0589
929,-0.0568,0.0546,0.1592,1.46,-0.77,3.32,0.179,-1.539,6.241,1.765,-0.0586,0.0578
939,-0.0547,0.0495,0.1524,1.47,-0.78,3.34,0.179,-0.331,5.895,1.580,-0.0585,0.0577
948,-0.0492,0.0458,0.1455,1.49,-0.82,3.35,0.179,0.458,3.841,0.749,-0.0629,0.0594
958,-0.0355,0.0370,0.1388,1.56,-0.95,3.34,0.186,-0.357,3.627,0.867,-0.0646,0.0591
969,-0.0321,0.0325,0.1314,1.56,-1.02,3.36,0.186,-0.995,2.361,0.953,-0.0651,0.0594
979,-0.0473,0.0360,0.1238,1.51,-0.95,3.41,0.186,-1.490,0.601,0.410,-0.0651,0.0592
988,-0.0506,0.0309,0.1150,1.53,-0.95,3.43,0.186,-1.920,-0.588,0.531,-0.0656,0.0594
998,-0.0490,0.0286,0.1087,1.53,-0.98,3.43,0.192,-3.469,-0.963,0.221,-0.0663,0.0591
1009,-0.0455,0.0243,0.1025,1.54,-1.01,3.44,0.192,-3.821,-3.594,0.379,-0.0661,0.0590
1018,-0.0437,0.0220,0.0963,1.52,-1.02,3.44,0.192,-4.946,-3.933,0.412,-0.0662,0.0582
1028,-0.0431,0.0177,0.0904,1.51,-1.01,3.45,0.192,-5.772,-1.946,-0.365,-0.0657,0.0586
1038,-0.0389,0.0141,0.0842,1.49,-1.01,3.45,0.192,-4.832,-0.821,0.113,-0.0662,0.0587
1048,-0.0360,0.0081,0.0780,1.47,-0.99,3.45,0.192,-4.271,-0.668,-0.123,-0.0660,0.0586
1058,-0.0312,0.0074,0.0720,1.41,-0.97,3.45,0.194,-4.557,-1.801,-0.079,-0.0649,0.0574
1069,-0.0298,0.0051,0.0659,1.36,-0.95,3.44,0.194,-3.810,-1.556,-0.418,-0.0657,0.0575
1078,-0.0261,0.0022,0.0606,1.31,-0.95,3.44,0.194,-2.879,-0.273,-0.569,-0.0654,0.0569
1089,-0.0196,-0.0043,0.0516,1.30,-0.97,3.43,0.194,-3.309,-1.422,-0.732,-0.0654,0.0566
1099,-0.0199,-0.0059,0.0463,1.26,-0.94,3.44,0.195,-2.697,-0.762,-0.967,-0.0647,0.0560
1108,-0.0164,-0.0098,0.0411,1.23,-0.94,3.43,0.195,-3.418,-1.227,-1.427,-0.0644,0.0561
1118,-0.0142,-0.0124,0.0362,1.20,-0.94,3.42,0.195,-3.073,-1.660,-1.153,-0.0644,0.0557
1128,-0.0095,-0.0160,0.0271,1.18,-0.95,3.41,0.195,-3.405,-2.147,-1.268,-0.0636,0.0548
1138,-0.0064,-0.0170,0.0230,1.15,-0.95,3.40,0.195,-5.130,-1.939,-1.015,-0.0636,0.0545
1148,-0.0047,-0.0193,0.0186,1.12,-0.93,3.38,0.195,-3.080,-2.672,-1.799,-0.0625,0.0531
1158,-0.0001,-0.0238,0.0140,1.11,-0.94,3.37,0.198,-3.719,-2.705,-1.589,-0.0624,0.0527
1168,0.0015,-0.0255,0.0100,1.08,-0.92,3.35,0.198,-2.710,-4.321,-2.052,-0.0621,0.0521
1178,0.0071,-0.0314,0.0065,1.07,-0.92,3.33,0.198,-2.988,-1.401,-2.295,-0.0617,0.0510
1188,0.0087,-0.0331,0.0052,1.04,-0.90,3.32,0.198,-4.234,0.023,-2.753,-0.0608,0.0499
1198,0.0110,-0.0357,0.0018,1.01,-0.87,3.30,0.194,-4.244,-2.719,-2.512,-0.0597,0.0502
1208,0.0134,-0.0399,-0.0017,1.00,-0.83,3.28,0.194,-5.349,-2.051,-1.936,-0.0597,0.0491
1218,0.0174,-0.0438,-0.0050,0.99,-0.84,3.25,0.194,-5.387,-2.879,-2.499,-0.0595,0.0486
1228,0.0221,-0.0430,-0.0156,0.93,-0.86,3.21,0.194,-3.771,-1.413,-2.014,-0.0583,0.0482
1238,0.0227,-0.0466,-0.0182,0.90,-0.83,3.20,0.194,-4.102,-2.341,-2.350,-0.0583,0.0471
1248,0.0242,-0.0480,-0.0207,0.85,-0.81,3.17,0.194,-5.264,-2.037,-2.115,-0.0570,0.0457
1258,0.0288,-0.0493,-0.0233,0.79,-0.80,3.14,0.195,-3.826,-2.808,-2.678,-0.0566,0.0450
1268,0.0291,-0.0524,-0.0256,0.75,-0.78,3.13,0.195,-4.309,-2.608,-1.828,-0.0562,0.0440
1278,0.0339,-0.0565,-0.0276,0.71,-0.78,3.10,0.195,-3.985,-3.058,-2.649,-0.0559,0.0433
1288,0.0353,-0.0578,-0.0290,0.66,-0.76,3.08,0.195,-3.628,-3.347,-1.974,-0.0546,0.0423
1298,0.0367,-0.0605,-0.0311,0.63,-0.73,3.05,0.198,-3.387,-2.306,-2.189,-0.0542,0.0411
1309,0.0380,-0.0615,-0.0328,0.59,-0.70,3.03,0.198,-3.006,-2.721,-1.879,-0.0544,0.0418
1318,0.0420,-0.0639,-0.0343,0.56,-0.69,3.00,0.198,-3.091,-3.454,-1.603,-0.0521,0.0389
1328,0.0431,-0.0664,-0.0254,0.53,-0.66,2.99,0.198,-3.079,-2.659,-1.307,-0.0518,0.0391
1338,0.0423,-0.0629,-0.0269,0.46,-0.62,2.96,0.198,-2.140,-3.252,-1.525,-0.0510,0.0375
1348,0.0494,-0.0708,-0.0286,0.48,-0.63,2.94,0.198,-0.833,-2.005,-2.219,-0.0507,0.0377
1358,0.0497,-0.0686,-0.0297,0.43,-0.59,2.92,0.194,-0.751,-1.837,-1.651,-0.0504,0.0370
1369,0.0518,-0.0722,-0.0308,0.42,-0.57,2.91,0.194,-1.721,-3.212,-2.148,-0.0501,0.0367
1378,0.0520,-0.0700,-0.0315,0.38,-0.54,2.89,0.194,-0.399,-1.721,-2.454,-0.0493,0.0360
1388,0.0524,-0.0706,-0.0320,0.37,-0.52,2.88,0.194,-0.955,-3.498,-1.904,-0.0487,0.0353
1398,0.0526,-0.0700,-0.0329,0.35,-0.49,2.86,0.189,-1.260,-2.855,-2.144,-0.0464,0.0332
1408,0.0543,-0.0705,-0.0338,0.34,-0.47,2.84,0.189,-0.453,-2.335,-3.104,-0.0461,0.0325
1418,0.0551,-0.0711,-0.0346,0.33,-0.44,2.81,0.189,-1.473,-3.372,-3.074,-0.0458,0.0327
1428,0.0612,-0.0758,-0.0428,0.35,-0.44,2.79,0.189,-1.457,-3.896,-3.823,-0.0450,0.0316
1438,0.0610,-0.0761,-0.0436,0.34,-0.42,2.77,0.189,-1.511,-4.525,-3.549,-0.0443,0.0314
1448,0.0607,-0.0735,-0.0440,0.31,-0.39,2.74,0.189,-3.088,-5.109,-3.885,-0.0441,0.0318
1458,0.0620,-0.0753,-0.0447,0.30,-0.36,2.71,0.190,-3.462,-4.746,-4.749,-0.0429,0.0307
1468,0.0629,-0.0740,-0.0451,0.27,-0.33,2.67,0.190,-1.874,-3.598,-4.853,-0.0437,0.0310
1478,0.0622,-0.0710,-0.0453,0.23,-0.29,2.64,0.190,-2.241,-2.357,-5.028,-0.0409,0.0293
1488,0.0645,-0.0727,-0.0428,0.21,-0.25,2.60,0.190,-2.765,-3.569,-4.799,-0.0412,0.0291
1498,0.0606,-0.0700,-0.0427,0.15,-0.19,2.55,0.187,-1.649,-3.647,-5.677,-0.0394,0.0284
1508,0.0674,-0.0728,-0.0428,0.15,-0.19,2.49,0.187,0.985,-4.380,-6.334,-0.0393,0.0281
1518,0.0648,-0.0716,-0.0427,0.12,-0.14,2.45,0.187,1.505,-3.491,-6.614,-0.0386,0.0274
1527,0.0683,-0.0719,-0.0427,0.11,-0.13,2.39,0.187,1.957,-2.253,-6.889,-0.0389,0.0271
1538,0.0671,-0.0706,-0.0426,0.08,-0.09,2.33,0.187,3.141,-1.629,-7.476,-0.0383,0.0264
1548,0.0672,-0.0707,-0.0424,0.08,-0.05,2.27,0.187,3.236,-2.717,-7.935,-0.0348,0.0242
1558,0.0643,-0.0697,-0.0417,0.08,0.00,2.21,0.183,3.770,-4.041,-8.351,-0.0336,0.0240
1568,0.0643,-0.0698,-0.0410,0.10,0.03,2.14,0.183,1.386,-4.641,-8.415,-0.0334,0.0227
1578,0.0727,-0.0746,-0.0409,0.14,-0.01,2.06,0.183,3.720,-3.630,-8.162,-0.0327,0.0219
1588,0.0742,-0.0730,-0.0446,0.15,0.00,1.98,0.183,3.546,-3.086,-8.514,-0.0310,0.0222
1598,0.0726,-0.0751,-0.0440,0.18,0.04,1.90,0.176,2.770,-5.135,-8.685,-0.0300,0.0216
1608,0.0725,-0.0755,-0.0434,0.21,0.09,1.82,0.176,2.457,-3.176,-8.801,-0.0306,0.0213
1618,0.0752,-0.0727,-0.0429,0.22,0.11,1.73,0.176,1.540,-3.952,-8.723,-0.0289,0.0204
1628,0.0757,-0.0729,-0.0558,0.24,0.14,1.65,0.176,-0.522,-5.439,-8.815,-0.0277,0.0180
1638,0.0716,-0.0720,-0.0547,0.26,0.22,1.56,0.176,-2.067,-3.843,-8.411,-0.0261,0.0183
1647,0.0740,-0.0728,-0.0536,0.29,0.24,1.47,0.176,-3.571,-2.637,-8.653,-0.0253,0.0175
1657,0.0748,-0.0783,-0.0529,0.34,0.27,1.38,0.176,-1.590,-0.120,-9.196,-0.0253,0.0168
1668,0.0770,-0.0757,-0.0514,0.33,0.30,1.29,0.176,0.033,-1.975,-9.490,-0.0257,0.0168
1678,0.0765,-0.0763,-0.0500,0.32,0.33,1.20,0.176,0.212,-0.247,-9.964,-0.0239,0.0150
1688,0.0738,-0.0768,-0.0505,0.31,0.37,1.11,0.176,-0.301,2.480,-10.589,-0.0236,0.0154
1698,0.0698,-0.0751,-0.0493,0.27,0.40,1.03,0.171,-4.477,1.943,-9.750,-0.0239,0.0153
1708,0.0725,-0.0787,-0.0480,0.30,0.39,0.93,0.171,-6.002,4.236,-9.870,-0.0219,0.0129
1718,0.0704,-0.0758,-0.0464,0.28,0.39,0.82,0.171,-6.247,3.687,-10.578,-0.0215,0.0130
1727,0.0670,-0.0744,-0.0517,0.26,0.39,0.72,0.171,-7.842,2.965,-10.618,-0.0207,0.0126
1738,0.0701,-0.0796,-0.0509,0.23,0.33,0.62,0.171,-7.160,1.723,-10.502,-0.0200,0.0119
1747,0.0686,-0.0773,-0.0499,0.14,0.30,0.52,0.171,-2.448,0.976,-11.163,-0.0191,0.0097
1758,0.0686,-0.0764,-0.0484,0.08,0.26,0.42,0.171,-5.009,-0.961,-10.545,-0.0195,0.0098
1767,0.0682,-0.0765,-0.0467,0.01,0.23,0.31,0.171,-4.839,-2.204,-10.427,-0.0194,0.0099
1778,0.0682,-0.0806,-0.0451,-0.01,0.21,0.20,0.171,1.030,-1.951,-11.475,-0.0182,0.0083
1788,0.0649,-0.0781,-0.0421,-0.06,0.22,0.10,0.171,6.543,-2.542,-11.278,-0.0175,0.0075
1798,0.0630,-0.0754,-0.0404,-0.13,0.25,-0.01,0.168,4.269,-3.901,-10.515,-0.0175,0.0072
1808,0.0642,-0.0777,-0.0388,-0.15,0.26,-0.11,0.168,3.960,-3.611,-10.608,-0.0169,0.0062
1817,0.0637,-0.0774,-0.0368,-0.11,0.28,-0.23,0.168,1.714,-3.367,-10.294,-0.0169,0.0058
1828,0.0615,-0.0759,-0.0369,-0.07,0.32,-0.34,0.168,-4.353,-3.655,-9.448,-0.0163,0.0051
1838,0.0608,-0.0763,-0.0353,-0.01,0.35,-0.45,0.168,-2.257,-2.780,-9.622,-0.0158,0.0051
1848,0.0585,-0.0752,-0.0334,0.03,0.40,-0.55,0.168,2.472,-2.086,-10.120,-0.0146,0.0039
1858,0.0578,-0.0753,-0.0313,0.04,0.43,-0.66,0.165,5.272,0.655,-10.999,-0.0129,0.0021
1867,0.0570,-0.0730,-0.0291,-0.01,0.47,-0.75,0.165,-3.241,0.948,-9.770,-0.0123,0.0013
1878,0.0579,-0.0744,-0.0271,-0.01,0.49,-0.85,0.165,-4.381,1.660,-8.625,-0.0120,0.0009
1888,0.0604,-0.0775,-0.0290,0.04,0.48,-0.95,0.165,-1.455,2.834,-9.528,-0.0118,0.0010
1898,0.0596,-0.0776,-0.0268,0.07,0.48,-1.06,0.163,-8.075,1.686,-8.701,-0.0109,-0.0001
1908,0.0578,-0.0768,-0.0248,0.03,0.47,-1.16,0.163,-6.404,1.199,-8.575,-0.0107,-0.0011
1918,0.0561,-0.0742,-0.0231,-0.03,0.46,-1.24,0.163,-6.314,1.908,-8.028,-0.0108,-0.0011
1928,0.0561,-0.0753,-0.0254,-0.04,0.42,-1.34,0.163,-5.191,2.796,-7.263,-0.0110,-0.0009
1938,0.0545,-0.0758,-0.0233,-0.10,0.40,-1.43,0.163,-4.750,2.873,-6.628,-0.0117,-0.0008
1948,0.0515,-0.0729,-0.0211,-0.18,0.40,-1.52,0.163,-0.026,5.522,-6.537,-0.0113,-0.0014
1958,0.0487,-0.0700,-0.0189,-0.26,0.40,-1.60,0.166,-3.016,3.123,-5.588,-0.0107,-0.0022
1968,0.0445,-0.0671,-0.0167,-0.33,0.39,-1.67,0.166,-1.068,4.121,-5.464,-0.0108,-0.0028
1977,0.0438,-0.0661,-0.0147,-0.37,0.36,-1.74,0.166,-1.052,2.923,-4.865,-0.0114,-0.0025
1988,0.0434,-0.0658,-0.0057,-0.37,0.31,-1.80,0.166,0.121,0.735,-4.001,-0.0110,-0.0023
1997,0.0413,-0.0651,-0.0038,-0.39,0.29,-1.86,0.166,1.291,0.081,-3.229,-0.0097,-0.0036
2007,0.0378,-0.0615,-0.0017,-0.41,0.28,-1.91,0.166,1.646,-1.041,-2.377,-0.0099,-0.0038
2018,0.0376,-0.0582,0.0002,-0.43,0.25,-1.96,0.166,1.247,-2.902,-1.898,-0.0120,-0.0022
2028,0.0399,-0.0597,0.0058,-0.41,0.23,-1.99,0.166,1.599,-1.679,-1.744,-0.0104,-0.0048
2038,0.0376,-0.0579,0.0072,-0.41,0.25,-2.02,0.166,-0.359,-0.661,-1.689,-0.0102,-0.0044
2048,0.0298,-0.0505,0.0089,-0.44,0.32,-2.04,0.166,-8.610,-0.788,0.538,-0.0099,-0.0051
2057,0.0332,-0.0562,0.0101,-0.39,0.31,-2.07,0.164,-4.303,-1.813,0.905,-0.0096,-0.0056
2068,0.0324,-0.0526,0.0111,-0.43,0.34,-2.08,0.164,-5.722,-0.368,2.136,-0.0098,-0.0060
2077,0.0316,-0.0522,0.0119,-0.45,0.35,-2.08,0.164,-11.079,-2.886,3.680,-0.0100,-0.0066
2088,0.0310,-0.0513,0.0092,-0.52,0.35,-2.08,0.164,-6.890,-1.639,3.178,-0.0097,-0.0071
2097,0.0288,-0.0502,0.0097,-0.59,0.38,-2.06,0.164,-8.529,-3.428,4.828,-0.0086,-0.0077
2107,0.0267,-0.0493,0.0101,-0.64,0.40,-2.04,0.164,-9.409,-2.650,5.127,-0.0105,-0.0067
2117,0.0261,-0.0482,0.0104,-0.75,0.43,-2.00,0.164,-3.395,-2.833,4.754,-0.0103,-0.0071
2128,0.0282,-0.0474,0.0081,-0.80,0.43,-1.97,0.164,1.471,-1.318,5.023,-0.0088,-0.0097
2138,0.0205,-0.0412,0.0083,-0.93,0.51,-1.91,0.164,-3.440,-4.825,6.678,-0.0090,-0.0099
2147,0.0196,-0.0396,0.0081,-1.02,0.53,-1.86,0.164,-0.650,-1.366,6.443,-0.0069,-0.0109
2157,0.0231,-0.0451,0.0080,-0.97,0.53,-1.81,0.164,-0.798,-3.278,7.085,-0.0066,-0.0112
2167,0.0210,-0.0427,0.0078,-0.99,0.56,-1.76,0.164,-0.507,-2.330,6.869,-0.0068,-0.0114
2178,0.0260,-0.0426,0.0072,-0.98,0.55,-1.69,0.164,0.598,-2.440,7.536,-0.0074,-0.0109
2187,0.0253,-0.0405,0.0041,-0.99,0.56,-1.63,0.164,0.726,-1.538,7.526,-0.0067,-0.0121
2196,0.0229,-0.0384,0.0037,-1.00,0.60,-1.56,0.165,1.408,1.696,7.377,-0.0077,-0.0119
2208,0.0193,-0.0337,0.0032,-1.02,0.64,-1.49,0.165,3.139,1.976,7.071,-0.0072,-0.0123
2217,0.0199,-0.0348,0.0026,-0.99,0.65,-1.41,0.165,2.792,3.719,7.457,-0.0070,-0.0126
2227,0.0151,-0.0315,0.0019,-1.01,0.68,-1.34,0.165,1.922,2.646,7.534,-0.0069,-0.0129
2238,0.0151,-0.0300,0.0015,-0.99,0.65,-1.27,0.165,2.637,3.050,7.435,-0.0068,-0.0131
2247,0.0140,-0.0283,0.0012,-0.98,0.63,-1.20,0.165,4.715,4.994,7.623,-0.0067,-0.0134
2257,0.0129,-0.0266,0.0005,-0.96,0.60,-1.12,0.161,0.358,3.326,8.230,-0.0076,-0.0138
2267,0.0120,-0.0249,-0.0001,-0.94,0.57,-1.04,0.161,0.095,1.943,8.269,-0.0075,-0.0141
2278,0.0110,-0.0233,-0.0008,-0.91,0.54,-0.97,0.161,2.368,5.788,7.344,-0.0084,-0.0124
2288,0.0067,-0.0225,-0.0101,-0.88,0.53,-0.89,0.161,-0.196,2.190,8.885,-0.0078,-0.0134
2297,0.0058,-0.0210,-0.0106,-0.85,0.49,-0.82,0.162,6.079,4.121,7.069,-0.0081,-0.0134
2307,0.0019,-0.0134,-0.0111,-0.89,0.48,-0.73,0.162,-2.414,2.026,9.132,-0.0081,-0.0135
2318,0.0032,-0.0149,-0.0118,-0.84,0.42,-0.66,0.162,2.662,2.498,7.355,-0.0085,-0.0133
2327,0.0012,-0.0128,-0.0142,-0.84,0.39,-0.57,0.162,-0.812,0.771,9.580,-0.0086,-0.0134
2337,0.0005,-0.0113,-0.0146,-0.79,0.36,-0.50,0.162,5.003,3.163,7.812,-0.0086,-0.0134
2347,-0.0014,-0.0089,-0.0147,-0.82,0.35,-0.41,0.162,1.310,0.533,8.808,-0.0085,-0.0132
2357,-0.0020,-0.0075,-0.0146,-0.79,0.33,-0.33,0.164,2.596,0.941,9.480,-0.0085,-0.0132
2367,-0.0026,-0.0060,-0.0148,-0.80,0.31,-0.23,0.164,1.622,1.416,8.986,-0.0090,-0.0133
2377,-0.0027,-0.0038,-0.0148,-0.73,0.29,-0.15,0.164,4.821,2.959,8.086,-0.0110,-0.0130
2387,-0.0032,-0.0025,-0.0093,-0.73,0.28,-0.06,0.164,1.738,4.174,7.924,-0.0092,-0.0132
2397,-0.0052,-0.0012,-0.0094,-0.71,0.29,0.03,0.164,8.378,2.751,7.487,-0.0092,-0.0132
2407,-0.0122,0.0010,-0.0096,-0.68,0.31,0.11,0.164,0.623,4.948,8.704,-0.0093,-0.0132
2418,-0.0062,0.0012,-0.0094,-0.62,0.22,0.19,0.164,5.327,6.054,8.050,-0.0117,-0.0124
2427,-0.0066,0.0023,-0.0056,-0.59,0.18,0.28,0.164,2.733,3.345,8.009,-0.0125,-0.0109
2437,-0.0070,0.0033,-0.0053,-0.52,0.14,0.35,0.164,-1.181,1.733,7.732,-0.0126,-0.0107
2447,-0.0152,0.0070,-0.0052,-0.51,0.14,0.43,0.164,2.792,-0.530,8.181,-0.0128,-0.0106
2457,-0.0176,0.0127,-0.0049,-0.52,0.11,0.51,0.162,2.026,1.767,8.298,-0.0132,-0.0110
2467,-0.0178,0.0136,-0.0045,-0.49,0.08,0.59,0.162,2.921,0.047,7.449,-0.0130,-0.0105
2477,-0.0180,0.0144,-0.0042,-0.45,0.07,0.66,0.162,4.185,-1.084,7.639,-0.0135,-0.0107
2487,-0.0189,0.0135,-0.0055,-0.40,0.07,0.74,0.162,1.156,1.261,7.977,-0.0137,-0.0106
2497,-0.0178,0.0153,-0.0054,-0.40,0.05,0.82,0.162,1.357,1.669,6.685,-0.0139,-0.0104
2507,-0.0189,0.0148,-0.0053,-0.36,0.06,0.89,0.162,3.536,-0.231,6.432,-0.0149,-0.0095
2517,-0.0190,0.0154,-0.0052,-0.32,0.06,0.97,0.162,-1.114,3.332,6.733,-0.0147,-0.0086
2527,-0.0191,0.0159,-0.0057,-0.32,0.05,1.04,0.162,1.372,-0.046,5.584,-0.0155,-0.0093
2537,-0.0219,0.0190,-0.0056,-0.32,0.06,1.11,0.162,-0.431,4.007,5.602,-0.0153,-0.0089
2546,-0.0206,0.0218,-0.0056,-0.31,0.04,1.18,0.162,1.195,1.309,5.346,-0.0156,-0.0090
2557,-0.0228,0.0197,-0.0057,-0.30,0.03,1.23,0.160,0.051,1.683,4.824,-0.0159,-0.0086
2567,-0.0214,0.0206,-0.0058,-0.29,-0.00,1.29,0.160,1.740,3.696,5.041,-0.0152,-0.0088
2578,-0.0216,0.0201,-0.0058,-0.28,-0.02,1.34,0.160,3.469,3.072,4.349,-0.0154,-0.0089
2587,-0.0218,0.0212,-0.0096,-0.28,-0.05,1.39,0.160,1.633,3.248,4.258,-0.0157,-0.0092
2597,-0.0187,0.0204,-0.0092,-0.26,-0.09,1.44,0.161,5.085,3.119,4.096,-0.0159,-0.0090
2607,-0.0187,0.0198,-0.0092,-0.24,-0.13,1.49,0.161,4.611,2.596,3.801,-0.0161,-0.0088
2617,-0.0188,0.0188,-0.0092,-0.20,-0.16,1.54,0.161,6.130,1.846,2.658,-0.0163,-0.0086
2627,-0.0185,0.0192,-0.0083,-0.17,-0.18,1.58,0.161,5.543,0.378,2.226,-0.0151,-0.0073
2637,-0.0182,0.0195,-0.0085,-0.12,-0.21,1.62,0.161,2.379,1.237,2.581,-0.0149,-0.0087
2647,-0.0179,0.0197,-0.0084,-0.07,-0.24,1.65,0.161,2.600,0.229,2.437,-0.0189,-0.0075
2658,-0.0131,0.0234,-0.0080,-0.04,-0.28,1.68,0.161,1.388,-0.578,2.791,-0.0189,-0.0072
2667,-0.0116,0.0182,-0.0076,0.04,-0.29,1.70,0.161,0.881,-0.315,2.197,-0.0198,-0.0074
2677,-0.0240,0.0215,-0.0073,0.05,-0.22,1.72,0.161,-0.512,1.499,2.167,-0.0200,-0.0072
2687,-0.0225,0.0216,-0.0056,0.07,-0.22,1.74,0.161,-1.666,1.514,1.995,-0.0205,-0.0068
2697,-0.0244,0.0202,-0.0055,0.08,-0.20,1.77,0.156,0.404,1.616,1.505,-0.0205,-0.0068
2707,-0.0241,0.0201,-0.0055,0.08,-0.20,1.79,0.156,0.605,-0.232,1.362,-0.0210,-0.0064
2717,-0.0238,0.0200,-0.0052,0.08,-0.20,1.82,0.156,-1.519,0.383,0.995,-0.0216,-0.0066
2727,-0.0234,0.0198,-0.0141,0.07,-0.21,1.84,0.156,-1.264,0.914,0.795,-0.0216,-0.0060
2737,-0.0230,0.0197,-0.0141,0.05,-0.22,1.85,0.156,0.342,1.883,1.112,-0.0216,-0.0060
2747,-0.0247,0.0188,-0.0141,0.04,-0.22,1.86,0.156,2.245,1.729,0.370,-0.0221,-0.0057
2757,-0.0228,0.0195,-0.0138,0.03,-0.24,1.87,0.162,2.107,1.673,0.173,-0.0221,-0.0056
2767,-0.0224,0.0194,-0.0134,0.03,-0.25,1.88,0.162,1.581,1.659,-0.080,-0.0224,-0.0060
2778,-0.0220,0.0194,-0.0130,0.04,-0.27,1.89,0.162,3.870,0.550,-0.820,-0.0223,-0.0057
2787,-0.0215,0.0194,-0.0029,0.06,-0.29,1.89,0.162,2.037,2.689,-0.970,-0.0226,-0.0061
2797,-0.0214,0.0175,-0.0024,0.09,-0.31,1.89,0.157,2.676,1.887,-1.112,-0.0228,-0.0059
2807,-0.0196,0.0176,-0.0021,0.13,-0.32,1.89,0.157,-0.265,0.037,-0.620,-0.0230,-0.0058
2817,-0.0196,0.0157,-0.0021,0.17,-0.34,1.88,0.157,0.774,0.399,-1.697,-0.0241,-0.0047
2827,-0.0190,0.0154,-0.0072,0.20,-0.35,1.87,0.157,-1.107,1.588,-1.392,-0.0233,-0.0060
2837,-0.0184,0.0151,-0.0069,0.21,-0.37,1.86,0.157,-1.160,1.264,-2.130,-0.0234,-0.0059
2847,-0.0206,0.0175,-0.0068,0.19,-0.35,1.85,0.157,-1.976,0.225,-1.984,-0.0239,-0.0047
2857,-0.0167,0.0124,-0.0068,0.23,-0.38,1.84,0.160,-1.551,-0.567,-2.419,-0.0232,-0.0058
2867,-0.0160,0.0121,-0.0068,0.22,-0.40,1.82,0.160,-2.478,-1.588,-2.002,-0.0233,-0.0057
2877,-0.0164,0.0152,-0.0065,0.18,-0.39,1.80,0.160,-0.753,-1.171,-2.764,-0.0245,-0.0046
2887,-0.0128,0.0107,-0.0017,0.19,-0.41,1.78,0.160,-2.500,-1.258,-3.139,-0.0232,-0.0057
2897,-0.0121,0.0104,-0.0014,0.16,-0.41,1.76,0.154,-2.020,0.134,-2.550,-0.0233,-0.0056
2907,-0.0146,0.0136,-0.0013,0.12,-0.38,1.74,0.154,-0.581,-2.158,-2.696,-0.0234,-0.0055
2917,-0.0094,0.0093,-0.0010,0.13,-0.41,1.71,0.154,-1.699,-0.104,-3.536,-0.0235,-0.0054
2926,-0.0086,0.0091,-0.0113,0.12,-0.40,1.68,0.154,1.830,-2.464,-3.225,-0.0229,-0.0067
2937,-0.0080,0.0089,-0.0111,0.10,-0.38,1.66,0.154,-0.968,-1.356,-3.115,-0.0230,-0.0067
2947,-0.0073,0.0087,-0.0109,0.08,-0.38,1.63,0.154,1.228,-1.032,-3.274,-0.0230,-0.0066
2957,-0.0046,0.0041,-0.0107,0.12,-0.37,1.59,0.155,-0.410,-2.601,-3.922,-0.0230,-0.0066
2967,-0.0040,0.0039,-0.0103,0.11,-0.36,1.56,0.155,-2.256,0.197,-3.828,-0.0231,-0.0066
2977,-0.0033,0.0037,-0.0100,0.12,-0.33,1.53,0.155,0.708,-1.583,-4.474,-0.0231,-0.0071
2986,-0.0028,0.0035,-0.0127,0.11,-0.32,1.50,0.155,-0.293,-0.015,-4.078,-0.0231,-0.0071
2996,-0.0022,0.0034,-0.0124,0.11,-0.31,1.46,0.153,-3.902,0.327,-4.160,-0.0231,-0.0071
3007,-0.0016,0.0013,-0.0120,0.11,-0.30,1.41,0.153,-1.344,-0.733,-4.727,-0.0231,-0.0071
3017,-0.0011,0.0011,-0.0115,0.12,-0.29,1.37,0.153,0.985,-0.239,-4.927,-0.0231,-0.0071
3027,-0.0006,0.0009,-0.0160,0.09,-0.30,1.33,0.153,-1.364,2.910,-4.965,-0.0230,-0.0087
3037,-0.0001,0.0008,-0.0156,0.07,-0.29,1.29,0.153,-0.330,-0.444,-5.097,-0.0230,-0.0087
3047,0.0004,0.0006,-0.0148,0.08,-0.29,1.24,0.153,-1.809,3.526,-4.480,-0.0230,-0.0087
3057,0.0013,-0.0044,-0.0140,0.11,-0.31,1.19,0.155,0.336,0.705,-4.633,-0.0228,-0.0095
3067,0.0018,-0.0046,-0.0135,0.09,-0.32,1.14,0.155,-1.017,2.142,-4.998,-0.0228,-0.0102
3077,0.0024,-0.0048,-0.0130,0.10,-0.34,1.09,0.155,2.595,2.959,-4.923,-0.0229,-0.0080
3087,0.0033,-0.0070,-0.0086,0.12,-0.36,1.04,0.155,3.301,-0.023,-5.263,-0.0221,-0.0099
3097,0.0041,-0.0094,-0.0077,0.14,-0.38,1.00,0.155,-2.488,-0.470,-4.547,-0.0220,-0.0100
3106,0.0043,-0.0024,-0.0071,0.11,-0.39,0.95,0.155,-0.398,0.110,-5.217,-0.0215,-0.0101
3117,0.0073,-0.0085,-0.0064,0.15,-0.42,0.90,0.155,-0.648,-1.883,-5.422,-0.0210,-0.0099
3127,0.0080,-0.0087,-0.0029,0.15,-0.43,0.85,0.155,1.603,-0.363,-5.319,-0.0213,-0.0103
3137,0.0100,-0.0089,-0.0022,0.17,-0.43,0.79,0.155,-3.019,-1.893,-4.631,-0.0220,-0.0120
3146,0.0120,-0.0082,-0.0015,0.15,-0.43,0.74,0.155,0.449,-2.072,-4.929,-0.0219,-0.0122
3157,0.0116,-0.0097,-0.0007,0.16,-0.40,0.69,0.154,1.896,-0.347,-4.538,-0.0218,-0.0123
3167,0.0098,-0.0149,0.0001,0.17,-0.38,0.65,0.154,-0.613,0.277,-4.522,-0.0217,-0.0125
3177,0.0104,-0.0151,0.0010,0.18,-0.36,0.59,0.154,-3.683,2.448,-4.630,-0.0216,-0.0126
3187,0.0110,-0.0155,0.0012,0.19,-0.33,0.55,0.154,-1.138,2.407,-5.203,-0.0216,-0.0116
3197,0.0116,-0.0158,0.0020,0.18,-0.33,0.51,0.153,1.478,-0.845,-4.808,-0.0217,-0.0119
3207,0.0122,-0.0161,0.0030,0.14,-0.35,0.46,0.153,0.203,-0.569,-5.309,-0.0186,-0.0158
3217,0.0123,-0.0125,0.0035,0.09,-0.37,0.41,0.153,2.688,-1.868,-6.024,-0.0189,-0.0161
3227,0.0125,-0.0132,0.0015,0.08,-0.37,0.37,0.153,-1.733,-0.875,-4.985,-0.0197,-0.0159
3237,0.0224,-0.0251,0.0020,0.17,-0.43,0.31,0.153,-3.643,0.349,-4.134,-0.0195,-0.0161
3247,0.0214,-0.0257,0.0028,0.17,-0.39,0.26,0.153,2.405,0.401,-5.439,-0.0185,-0.0178
3257,0.0188,-0.0243,0.0035,0.15,-0.37,0.21,0.152,-3.403,-2.131,-4.991,-0.0181,-0.0175
3267,0.0195,-0.0246,0.0041,0.13,-0.38,0.16,0.152,-0.984,0.265,-5.899,-0.0190,-0.0179
3276,0.0228,-0.0292,0.0045,0.17,-0.40,0.12,0.152,-3.258,1.133,-5.508,-0.0188,-0.0182
3287,0.0239,-0.0278,0.0007,0.14,-0.39,0.07,0.152,-5.963,0.115,-3.905,-0.0186,-0.0185
3297,0.0205,-0.0282,0.0007,0.15,-0.37,0.07,0.151,-7.556,-1.665,-4.532,-0.0171,-0.0190
3307,0.0211,-0.0285,0.0009,0.15,-0.36,0.01,0.151,-4.712,-2.574,-4.155,-0.0174,-0.0197
3316,0.0218,-0.0287,0.0010,0.11,-0.37,-0.04,0.151,-3.203,-4.714,-3.978,-0.0172,-0.0193
3327,0.0264,-0.0295,-0.0032,0.05,-0.40,-0.09,0.151,-2.754,-5.114,-3.967,-0.0170,-0.0196
3337,0.0251,-0.0310,-0.0028,-0.02,-0.38,-0.13,0.151,-1.256,-6.849,-4.803,-0.0167,-0.0198
3347,0.0256,-0.0286,-0.0022,-0.08,-0.35,-0.17,0.151,2.167,-5.127,-6.629,-0.0173,-0.0202
3356,0.0262,-0.0285,-0.0013,-0.12,-0.31,-0.21,0.155,-3.984,-2.047,-5.059,-0.0171,-0.0207
3366,0.0267,-0.0283,-0.0004,-0.15,-0.26,-0.25,0.155,3.446,-2.751,-6.185,-0.0158,-0.0232
3377,0.0244,-0.0284,0.0006,-0.17,-0.18,-0.29,0.155,3.681,-0.930,-5.932,-0.0151,-0.0232
3386,0.0248,-0.0286,0.0079,-0.16,-0.12,-0.35,0.155,-5.273,-1.375,-4.288,-0.0143,-0.0228
3396,0.0282,-0.0354,0.0087,-0.11,-0.11,-0.41,0.154,2.888,-1.929,-5.724,-0.0150,-0.0241
3407,0.0298,-0.0339,0.0094,-0.12,-0.09,-0.47,0.154,-0.958,0.082,-6.438,-0.0147,-0.0240
3416,0.0314,-0.0316,0.0097,-0.09,-0.07,-0.53,0.154,-8.235,2.304,-3.714,-0.0179,-0.0220
3427,0.0282,-0.0345,0.0105,-0.11,-0.03,-0.58,0.154,-0.480,-0.341,-5.516,-0.0154,-0.0230
3437,0.0283,-0.0330,0.0108,-0.12,-0.03,-0.63,0.154,-6.751,-0.519,-3.818,-0.0152,-0.0233
3446,0.0175,-0.0252,0.0114,-0.15,0.05,-0.69,0.154,-0.414,-0.090,-5.305,-0.0139,-0.0249
3456,0.0246,-0.0275,0.0119,-0.21,-0.01,-0.74,0.155,-8.037,-1.356,-3.422,-0.0145,-0.0238
3466,0.0246,-0.0271,0.0128,-0.26,-0.02,-0.78,0.155,2.724,-0.660,-5.226,-0.0141,-0.0240
3476,0.0282,-0.0310,0.0134,-0.28,-0.04,-0.82,0.155,-3.714,-0.641,-3.310,-0.0143,-0.0243
3486,0.0252,-0.0260,0.0149,-0.34,-0.02,-0.87,0.155,3.100,-1.293,-5.214,-0.0144,-0.0247
3497,0.0256,-0.0250,0.0156,-0.37,-0.00,-0.91,0.156,-0.964,-2.670,-3.338,-0.0146,-0.0252
3507,0.0243,-0.0245,0.0162,-0.40,0.00,-0.96,0.156,-2.140,-1.375,-3.038,-0.0143,-0.0254
3516,0.0232,-0.0244,0.0165,-0.42,0.02,-0.99,0.156,-1.844,1.181,-3.751,-0.0140,-0.0253
3526,0.0218,-0.0245,0.0179,-0.39,0.04,-1.04,0.156,4.942,-0.128,-4.063,-0.0138,-0.0255
3536,0.0218,-0.0238,0.0183,-0.38,0.06,-1.08,0.156,-0.484,-1.376,-2.354,-0.0131,-0.0277
3546,0.0220,-0.0220,0.0189,-0.41,0.08,-1.11,0.156,-2.358,0.170,-2.383,-0.0131,-0.0272
3556,0.0218,-0.0205,0.0194,-0.38,0.07,-1.19,0.156,-0.611,0.665,-2.721,-0.0131,-0.0274
3566,0.0236,-0.0271,0.0193,-0.34,0.05,-1.19,0.156,-1.250,3.701,-2.759,-0.0129,-0.0276
3576,0.0225,-0.0235,0.0197,-0.34,0.07,-1.24,0.156,6.066,3.708,-3.401,-0.0127,-0.0279
3586,0.0216,-0.0234,0.0180,-0.34,0.07,-1.24,0.156,5.788,3.711,-3.821,-0.0125,-0.0281
3597,0.0215,-0.0221,0.0177,-0.37,0.03,-1.30,0.152,5.352,3.787,-3.199,-0.0125,-0.0286
3606,0.0215,-0.0221,0.0177,-0.37,0.03,-1.30,0.152,4.525,3.467,-1.993,-0.0129,-0.0292
3616,0.0214,-0.0209,0.0180,-0.27,-0.04,-1.37,0.152,-1.714,2.196,-1.979,-0.0124,-0.0300
3626,0.0206,-0.0222,0.0071,-0.26,-0.04,-1.37,0.152,3.393,-0.128,-2.983,-0.0122,-0.0302
3636,0.0185,-0.0227,0.0071,-0.19,-0.06,-1.41,0.152,-0.172,-3.086,-0.989,-0.0110,-0.0303
3647,0.0196,-0.0244,0.0071,-0.14,-0.11,-1.43,0.152,-1.067,0.338,-0.375,-0.0117,-0.0306
3656,0.0198,-0.0242,0.0072,-0.15,-0.13,-1.45,0.153,-2.756,-0.396,-0.308,-0.0123,-0.0304
3666,0.0238,-0.0233,0.0072,-0.14,-0.17,-1.48,0.153,0.807,-1.262,-1.561,-0.0121,-0.0307
3676,0.0208,-0.0235,0.0076,-0.11,-0.13,-1.49,0.153,0.836,-1.331,-1.498,-0.0108,-0.0320
3687,0.0181,-0.0218,0.0018,-0.13,-0.09,-1.50,0.153,-6.540,-1.953,-0.686,-0.0131,-0.0308
3696,0.0183,-0.0216,0.0018,-0.15,-0.08,-1.50,0.157,-5.217,-0.390,-1.230,-0.0132,-0.0313
3706,0.0222,-0.0254,0.0020,-0.13,-0.11,-1.51,0.157,-0.434,-5.653,-0.673,-0.0129,-0.0313
3716,0.0135,-0.0201,0.0025,-0.15,-0.04,-1.53,0.157,-6.322,-4.752,-0.089,-0.0123,-0.0318
3726,0.0126,-0.0209,0.0081,-0.19,-0.02,-1.54,0.157,-9.011,-2.967,0.237,-0.0118,-0.0331
3736,0.0132,-0.0196,0.0082,-0.26,-0.01,-1.55,0.157,-1.020,-3.605,-0.991,-0.0123,-0.0329
3745,0.0151,-0.0202,0.0085,-0.26,0.02,-1.56,0.157,-10.024,-3.465,1.667,-0.0125,-0.0334
3756,0.0165,-0.0239,0.0089,-0.31,0.05,-1.55,0.158,0.426,-3.235,-0.213,-0.0134,-0.0332
3766,0.0139,-0.0217,0.0096,-0.40,0.11,-1.55,0.158,-7.493,-4.004,1.394,-0.0132,-0.0342
3776,0.0124,-0.0223,0.0100,-0.42,0.15,-1.56,0.158,-6.784,-2.296,0.971,-0.0125,-0.0340
3786,0.0084,-0.0197,0.0150,-0.51,0.22,-1.55,0.158,-0.331,0.309,-0.451,-0.0130,-0.0342
3797,0.0085,-0.0220,0.0157,-0.52,0.25,-1.55,0.152,5.165,-1.372,-0.070,-0.0129,-0.0343
3806,0.0102,-0.0193,0.0163,-0.59,0.28,-1.54,0.152,5.519,-1.997,-0.203,-0.0122,-0.0356
3816,0.0077,-0.0183,0.0168,-0.65,0.32,-1.53,0.152,0.241,1.068,0.767,-0.0122,-0.0358
3826,0.0072,-0.0171,0.0052,-0.68,0.33,-1.53,0.152,-1.171,-3.160,0.478,-0.0129,-0.0357
3836,0.0089,-0.0201,0.0056,-0.61,0.32,-1.53,0.152,1.176,0.014,-0.225,-0.0137,-0.0352
3846,0.0084,-0.0190,0.0060,-0.56,0.33,-1.53,0.152,0.012,0.832,0.152,-0.0134,-0.0360
3856,0.0046,-0.0170,0.0065,-0.55,0.35,-1.53,0.160,-5.573,0.589,0.862,-0.0134,-0.0363
3866,0.0008,-0.0136,0.0070,-0.57,0.39,-1.52,0.160,-7.710,-1.143,1.217,-0.0138,-0.0360
3876,0.0016,-0.0152,0.0076,-0.56,0.38,-1.52,0.160,-8.370,-0.669,0.746,-0.0132,-0.0373
3886,0.0009,-0.0146,0.0180,-0.55,0.37,-1.52,0.160,-2.536,0.732,-0.397,-0.0132,-0.0374
3896,-0.0015,-0.0122,0.0187,-0.61,0.38,-1.52,0.157,-1.149,-0.738,-0.512,-0.0147,-0.0374
3906,0.0003,-0.0155,0.0194,-0.65,0.39,-1.51,0.157,-4.578,-0.505,1.177,-0.0148,-0.0376
3916,-0.0003,-0.0144,0.0203,-0.73,0.40,-1.50,0.157,0.035,-1.005,0.383,-0.0141,-0.0393
3926,-0.0068,-0.0126,0.0184,-0.78,0.43,-1.50,0.157,3.920,-1.979,-1.123,-0.0142,-0.0395
3935,-0.0075,-0.0112,0.0192,-0.78,0.44,-1.51,0.157,2.310,0.674,-0.703,-0.0146,-0.0399
3946,-0.0052,-0.0163,0.0200,-0.78,0.42,-1.51,0.157,-2.497,3.293,0.692,-0.0130,-0.0399
3956,-0.0059,-0.0149,0.0206,-0.80,0.43,-1.50,0.158,-2.876,2.108,2.137,-0.0141,-0.0401
3966,-0.0081,-0.0146,0.0212,-0.75,0.46,-1.51,0.158,6.013,-2.073,0.551,-0.0141,-0.0402
3976,-0.0023,-0.0128,0.0216,-0.73,0.42,-1.51,0.158,2.100,-1.203,0.483,-0.0150,-0.0404
3986,-0.0071,-0.0118,0.0197,-0.75,0.42,-1.51,0.158,-0.268,0.468,0.131,-0.0151,-0.0405
3996,-0.0078,-0.0105,0.0203,-0.78,0.40,-1.49,0.160,-0.854,1.951,1.328,-0.0154,-0.0407
4006,-0.0114,-0.0093,0.0210,-0.74,0.42,-1.48,0.160,-0.031,2.299,0.019,-0.0153,-0.0412
4016,-0.0121,-0.0080,0.0216,-0.70,0.44,-1.48,0.160,-4.504,-0.692,1.481,-0.0154,-0.0413
4026,-0.0134,-0.0073,0.0232,-0.71,0.44,-1.47,0.160,2.892,3.504,0.607,-0.0158,-0.0416
4036,-0.0131,-0.0078,0.0234,-0.72,0.41,-1.46,0.160,-2.759,2.467,1.000,-0.0156,-0.0421
4046,-0.0138,-0.0066,0.0236,-0.71,0.38,-1.46,0.160,-1.338,2.203,0.702,-0.0159,-0.0423
4056,-0.0152,-0.0064,0.0238,-0.74,0.38,-1.45,0.161,0.621,3.740,0.795,-0.0170,-0.0423
4067,-0.0147,-0.0067,0.0241,-0.72,0.35,-1.44,0.161,-2.086,0.970,1.445,-0.0184,-0.0415
4076,-0.0160,-0.0062,0.0245,-0.72,0.32,-1.43,0.161,1.739,4.659,1.279,-0.0186,-0.0414
4086,-0.0198,-0.0045,0.0252,-0.74,0.33,-1.42,0.161,-0.594,1.162,1.593,-0.0189,-0.0414
4096,-0.0252,0.0002,0.0254,-0.76,0.32,-1.42,0.163,-1.707,4.745,1.297,-0.0192,-0.0419
4106,-0.0257,0.0015,0.0258,-0.78,0.30,-1.41,0.163,5.454,2.944,1.015,-0.0202,-0.0418
4116,-0.0262,0.0029,0.0263,-0.77,0.27,-1.40,0.163,-1.235,1.526,1.619,-0.0205,-0.0423
4126,-0.0268,0.0023,0.0286,-0.76,0.25,-1.38,0.163,3.819,4.235,1.901,-0.0208,-0.0423
4136,-0.0301,0.0039,0.0286,-0.76,0.23,-1.37,0.163,2.985,2.976,2.001,-0.0207,-0.0427
4146,-0.0304,0.0029,0.0287,-0.72,0.20,-1.36,0.163,3.159,3.204,2.496,-0.0209,-0.0429
4156,-0.0307,0.0041,0.0288,-0.71,0.18,-1.35,0.160,4.095,3.823,1.793,-0.0223,-0.0431
4166,-0.0293,0.0035,0.0289,-0.67,0.13,-1.33,0.160,3.832,4.807,1.995,-0.0208,-0.0433
4176,-0.0291,0.0039,0.0289,-0.65,0.10,-1.31,0.160,5.927,6.128,2.857,-0.0205,-0.0438
4186,-0.0335,0.0040,0.0199,-0.60,0.09,-1.29,0.160,3.969,3.860,1.449,-0.0235,-0.0431
4195,-0.0266,0.0041,0.0202,-0.55,0.00,-1.27,0.162,3.127,4.034,1.486,-0.0237,-0.0433
4206,-0.0247,0.0029,0.0201,-0.50,-0.07,-1.24,0.162,0.479,2.541,1.474,-0.0250,-0.0422
4216,-0.0350,0.0063,0.0197,-0.46,-0.05,-1.22,0.162,2.282,1.690,2.095,-0.0254,-0.0420
4226,-0.0343,0.0061,0.0166,-0.42,-0.09,-1.21,0.162,-1.259,2.919,1.764,-0.0253,-0.0429
4236,-0.0380,0.0110,0.0169,-0.40,-0.11,-1.20,0.162,-3.550,0.068,1.611,-0.0256,-0.0428
4245,-0.0378,0.0117,0.0171,-0.40,-0.14,-1.18,0.162,-2.163,-0.702,1.590,-0.0255,-0.0432
4255,-0.0356,0.0085,0.0167,-0.35,-0.17,-1.16,0.167,-1.180,0.250,1.416,-0.0263,-0.0427
4266,-0.0349,0.0094,0.0164,-0.36,-0.20,-1.15,0.167,-3.729,0.568,1.501,-0.0270,-0.0429
4276,-0.0331,0.0080,0.0164,-0.38,-0.22,-1.13,0.167,-3.529,0.681,1.114,-0.0274,-0.0428
4286,-0.0343,0.0102,0.0238,-0.40,-0.20,-1.12,0.167,-0.434,-0.702,0.982,-0.0258,-0.0440
4295,-0.0354,0.0095,0.0238,-0.41,-0.19,-1.10,0.167,-0.116,-1.637,0.435,-0.0257,-0.0444
4306,-0.0351,0.0102,0.0243,-0.45,-0.20,-1.09,0.167,-0.694,-2.284,0.634,-0.0292,-0.0439
4316,-0.0273,0.0063,0.0246,-0.45,-0.26,-1.07,0.167,-0.778,-2.446,-0.214,-0.0296,-0.0439
4326,-0.0258,0.0052,0.0263,-0.44,-0.27,-1.06,0.167,-1.526,-0.836,0.178,-0.0300,-0.0439
4336,-0.0376,0.0075,0.0263,-0.45,-0.17,-1.06,0.167,-3.253,-0.321,0.309,-0.0315,-0.0434
4346,-0.0374,0.0079,0.0267,-0.46,-0.15,-1.05,0.167,-5.373,2.072,1.581,-0.0319,-0.0432
4356,-0.0372,0.0086,0.0269,-0.46,-0.12,-1.05,0.166,-1.265,-1.838,0.407,-0.0323,-0.0431
4365,-0.0412,0.0110,0.0269,-0.49,-0.08,-1.05,0.166,-4.605,1.326,0.911,-0.0327,-0.0430
4376,-0.0411,0.0118,0.0269,-0.53,-0.08,-1.05,0.166,-1.372,-0.533,0.130,-0.0326,-0.0438
4386,-0.0409,0.0127,0.0232,-0.58,-0.10,-1.04,0.166,1.225,0.848,-0.300,-0.0330,-0.0437
4396,-0.0407,0.0137,0.0233,-0.60,-0.09,-1.03,0.166,0.949,1.875,0.217,-0.0334,-0.0436
4406,-0.0386,0.0112,0.0233,-0.62,-0.11,-1.02,0.166,-0.048,0.478,-0.116,-0.0355,-0.0437
4415,-0.0384,0.0122,0.0234,-0.63,-0.10,-1.02,0.166,4.065,0.761,-0.487,-0.0340,-0.0438
4426,-0.0382,0.0133,0.0188,-0.64,-0.12,-1.02,0.166,3.004,0.895,-1.127,-0.0344,-0.0440
4436,-0.0447,0.0134,0.0189,-0.62,-0.08,-1.02,0.166,0.335,3.819,-0.086,-0.0337,-0.0441
4446,-0.0370,0.0135,0.0192,-0.60,-0.13,-1.02,0.166,3.103,1.540,0.340,-0.0341,-0.0439
4455,-0.0367,0.0132,0.0196,-0.56,-0.14,-1.03,0.166,3.280,1.552,0.195,-0.0348,-0.0431
4466,-0.0328,0.0135,0.0199,-0.52,-0.17,-1.04,0.166,1.819,1.856,-0.033,-0.0351,-0.0436
4476,-0.0325,0.0144,0.0198,-0.52,-0.20,-1.04,0.166,1.346,1.564,-0.310,-0.0345,-0.0428
4486,-0.0336,0.0176,0.0140,-0.51,-0.22,-1.03,0.166,-2.959,1.622,-0.302,-0.0366,-0.0429
4496,-0.0332,0.0160,0.0141,-0.47,-0.23,-1.03,0.173,-1.383,0.618,-0.074,-0.0369,-0.0428
4506,-0.0292,0.0193,0.0142,-0.48,-0.27,-1.03,0.173,0.263,-0.690,-0.103,-0.0360,-0.0433
4516,-0.0354,0.0191,0.0143,-0.46,-0.24,-1.03,0.173,0.417,-1.462,-0.489,-0.0364,-0.0433
4526,-0.0349,0.0193,0.0251,-0.48,-0.26,-1.03,0.173,0.120,-2.040,-0.436,-0.0372,-0.0433
4536,-0.0297,0.0178,0.0252,-0.47,-0.30,-1.03,0.173,-0.354,-1.889,-0.524,-0.0375,-0.0431
4546,-0.0295,0.0178,0.0255,-0.47,-0.30,-1.03,0.173,-4.064,1.113,-0.749,-0.0388,-0.0431
4555,-0.0310,0.0179,0.0257,-0.47,-0.27,-1.04,0.177,0.013,-1.250,-0.561,-0.0375,-0.0430
4568,-0.0306,0.0187,0.0257,-0.47,-0.25,-1.04,0.177,-2.939,1.565,-0.217,-0.0387,-0.0426
4576,-0.0336,0.0189,0.0257,-0.47,-0.21,-1.05,0.177,-0.857,-0.884,-1.300,-0.0390,-0.0424
4590,-0.0271,0.0192,0.0388,-0.49,-0.26,-1.05,0.177,0.467,-0.764,-0.792,-0.0389,-0.0420
4595,-0.0300,0.0210,0.0389,-0.51,-0.23,-1.06,0.170,2.822,0.266,-0.409,-0.0392,-0.0420
4606,-0.0296,0.0218,0.0388,-0.53,-0.24,-1.06,0.170,0.436,0.072,-0.262,-0.0391,-0.0417
4616,-0.0277,0.0234,0.0385,-0.54,-0.25,-1.07,0.170,2.138,0.494,-0.674,-0.0391,-0.0423
4625,-0.0276,0.0232,0.0259,-0.53,-0.25,-1.07,0.170,2.708,2.073,-0.608,-0.0390,-0.0420
4635,-0.0259,0.0246,0.0258,-0.52,-0.26,-1.08,0.170,-0.086,1.568,-1.390,-0.0389,-0.0414
4646,-0.0244,0.0222,0.0253,-0.48,-0.26,-1.08,0.170,0.824,2.089,-0.755,-0.0392,-0.0411
4656,-0.0228,0.0233,0.0252,-0.45,-0.28,-1.08,0.177,4.972,1.855,-0.563,-0.0398,-0.0408
4666,-0.0212,0.0256,0.0253,-0.43,-0.30,-1.09,0.177,3.369,4.155,-0.118,-0.0393,-0.0409
4675,-0.0207,0.0263,0.0253,-0.42,-0.32,-1.10,0.177,1.798,0.086,-1.131,-0.0388,-0.0412
4685,-0.0218,0.0272,0.0306,-0.41,-0.33,-1.11,0.177,-1.751,2.095,-0.729,-0.0389,-0.0409
4695,-0.0185,0.0263,0.0305,-0.36,-0.37,-1.11,0.173,-0.166,-0.441,0.083,-0.0430,-0.0396
4705,-0.0154,0.0251,0.0303,-0.31,-0.43,-1.11,0.173,-4.073,-0.059,-0.094,-0.0433,-0.0393
4715,-0.0146,0.0256,0.0301,-0.29,-0.43,-1.12,0.173,-0.608,-0.705,0.163,-0.0428,-0.0394
4725,-0.0279,0.0299,0.0205,-0.34,-0.35,-1.13,0.173,-0.781,-0.438,-0.136,-0.0432,-0.0395
4736,-0.0273,0.0305,0.0200,-0.34,-0.35,-1.13,0.173,-2.882,-1.524,-0.303,-0.0427,-0.0395
4745,-0.0241,0.0297,0.0196,-0.37,-0.37,-1.13,0.173,-2.756,-2.220,-0.155,-0.0431,-0.0385
4755,-0.0241,0.0289,0.0195,-0.36,-0.36,-1.13,0.174,1.700,-0.790,-0.600,-0.0427,-0.0381
4765,-0.0209,0.0285,0.0193,-0.35,-0.37,-1.13,0.174,2.091,-1.165,0.403,-0.0419,-0.0382
4776,-0.0209,0.0315,0.0190,-0.40,-0.35,-1.13,0.174,2.893,-1.321,0.063,-0.0415,-0.0384
4786,-0.0180,0.0326,0.0138,-0.43,-0.36,-1.13,0.174,0.651,-0.518,0.120,-0.0416,-0.0381
4795,-0.0138,0.0316,0.0137,-0.41,-0.37,-1.14,0.173,-0.424,-0.565,-0.116,-0.0417,-0.0378
4805,-0.0114,0.0306,0.0135,-0.38,-0.36,-1.14,0.173,1.328,0.049,0.140,-0.0426,-0.0364
4815,-0.0108,0.0313,0.0134,-0.35,-0.35,-1.14,0.173,3.615,0.699,0.758,-0.0427,-0.0361
4826,-0.0102,0.0318,0.0065,-0.35,-0.34,-1.14,0.173,2.832,2.256,1.090,-0.0454,-0.0353
4836,-0.0122,0.0360,0.0062,-0.38,-0.32,-1.14,0.173,2.287,-0.687,-0.379,-0.0440,-0.0361
4846,-0.0116,0.0366,0.0060,-0.38,-0.33,-1.14,0.173,-1.591,2.431,0.793,-0.0453,-0.0347
4855,-0.0201,0.0388,0.0059,-0.37,-0.28,-1.13,0.176,-2.452,0.495,0.793,-0.0454,-0.0343
4865,-0.0141,0.0352,0.0062,-0.32,-0.33,-1.12,0.176,1.461,-0.052,1.134,-0.0456,-0.0339
4875,-0.0174,0.0391,0.0061,-0.31,-0.30,-1.13,0.176,4.404,1.143,1.164,-0.0446,-0.0342
4885,-0.0169,0.0397,0.0084,-0.32,-0.32,-1.12,0.176,3.574,-1.549,0.331,-0.0447,-0.0339
4895,-0.0164,0.0402,0.0087,-0.33,-0.32,-1.11,0.174,-0.874,1.169,0.686,-0.0456,-0.0326
4906,-0.0117,0.0383,0.0092,-0.29,-0.36,-1.10,0.174,-0.900,-1.646,1.431,-0.0422,-0.0328
4915,-0.0111,0.0388,0.0094,-0.24,-0.36,-1.10,0.174,0.241,0.542,0.752,-0.0417,-0.0329
4924,-0.0133,0.0423,0.0051,-0.22,-0.33,-1.09,0.174,5.248,-0.232,1.167,-0.0426,-0.0322
4935,-0.0002,0.0405,0.0051,-0.21,-0.42,-1.09,0.174,2.056,-1.318,1.108,-0.0431,-0.0315
4946,0.0020,0.0388,0.0053,-0.20,-0.42,-1.07,0.174,1.218,-1.518,0.761,-0.0432,-0.0312
4955,-0.0003,0.0402,0.0058,-0.19,-0.40,-1.07,0.174,3.068,-0.920,0.727,-0.0436,-0.0309
4965,-0.0014,0.0418,0.0063,-0.16,-0.39,-1.06,0.174,1.101,-0.086,0.532,-0.0437,-0.0305
4975,-0.0008,0.0416,0.0066,-0.15,-0.38,-1.04,0.174,-2.502,1.118,1.313,-0.0446,-0.0296
4986,-0.0018,0.0413,0.0036,-0.13,-0.36,-1.03,0.174,-2.036,0.481,1.553,-0.0436,-0.0297
4995,-0.0012,0.0415,0.0037,-0.10,-0.35,-1.02,0.175,-0.015,-1.079,1.482,-0.0436,-0.0293
5005,-0.0036,0.0432,0.0035,-0.10,-0.33,-1.02,0.175,-1.535,-0.861,2.120,-0.0430,-0.0294
5015,0.0005,0.0417,0.0034,-0.11,-0.36,-1.00,0.175,1.568,-1.151,1.194,-0.0426,-0.0295
5026,0.0011,0.0418,0.0036,-0.13,-0.37,-0.99,0.175,-2.833,0.357,2.566,-0.0421,-0.0297
5035,0.0035,0.0402,0.0037,-0.12,-0.38,-0.97,0.175,1.401,-2.551,2.803,-0.0430,-0.0299
5045,0.0055,0.0386,0.0040,-0.12,-0.38,-0.95,0.175,3.858,-2.359,1.403,-0.0432,-0.0288
5055,0.0076,0.0372,0.0043,-0.10,-0.39,-0.94,0.174,0.068,-0.685,1.808,-0.0437,-0.0280
5065,0.0048,0.0352,0.0049,-0.10,-0.37,-0.92,0.174,-0.010,-0.673,2.319,-0.0437,-0.0276
5076,0.0049,0.0380,0.0053,-0.09,-0.34,-0.90,0.174,6.939,-2.506,1.785,-0.0433,-0.0274
5085,0.0036,0.0394,0.0029,-0.06,-0.31,-0.88,0.174,0.951,-1.786,1.431,-0.0415,-0.0281
5095,0.0041,0.0395,0.0032,-0.05,-0.30,-0.87,0.174,-1.623,0.338,1.422,-0.0430,-0.0264
5105,0.0058,0.0391,0.0035,-0.05,-0.30,-0.84,0.174,1.630,2.132,1.847,-0.0434,-0.0260
5115,0.0119,0.0355,0.0035,0.03,-0.31,-0.82,0.174,-2.207,2.067,2.384,-0.0433,-0.0256
5125,0.0073,0.0398,0.0014,0.02,-0.27,-0.81,0.174,-4.048,1.462,2.904,-0.0433,-0.0252
5135,0.0060,0.0398,0.0019,0.01,-0.26,-0.80,0.174,-0.720,-0.415,2.022,-0.0413,-0.0254
5145,0.0065,0.0397,0.0023,0.02,-0.28,-0.78,0.174,4.651,-2.323,1.291,-0.0418,-0.0236
5155,0.0069,0.0397,0.0025,0.01,-0.30,-0.76,0.171,3.333,0.667,1.505,-0.0417,-0.0232
5164,0.0138,0.0379,0.0025,0.01,-0.35,-0.73,0.171,1.014,-2.693,1.557,-0.0428,-0.0234
5175,0.0122,0.0425,0.0029,-0.02,-0.34,-0.72,0.171,-0.422,-1.847,1.170,-0.0423,-0.0232
5185,0.0127,0.0425,-0.0045,0.01,-0.32,-0.70,0.171,2.318,-2.384,2.128,-0.0420,-0.0234
5195,0.0093,0.0403,-0.0041,0.05,-0.29,-0.69,0.173,-0.062,-3.565,1.210,-0.0419,-0.0230
5205,0.0109,0.0396,-0.0037,0.07,-0.28,-0.67,0.173,-1.175,-1.098,1.810,-0.0421,-0.0227
5216,0.0120,0.0376,-0.0034,0.09,-0.26,-0.66,0.173,-2.245,-2.762,0.897,-0.0420,-0.0224
5225,0.0125,0.0374,-0.0030,0.10,-0.24,-0.64,0.173,0.551,-3.333,1.777,-0.0416,-0.0226
5235,0.0118,0.0368,-0.0027,0.10,-0.20,-0.62,0.173,-2.351,0.378,1.956,-0.0418,-0.0217
5246,0.0122,0.0367,-0.0024,0.09,-0.19,-0.61,0.173,-3.552,-0.174,1.550,-0.0416,-0.0213
5254,0.0132,0.0347,-0.0019,0.08,-0.17,-0.60,0.175,-0.946,-1.513,1.006,-0.0417,-0.0204
5265,0.0127,0.0363,-0.0013,0.07,-0.14,-0.58,0.175,1.902,-1.963,0.572,-0.0418,-0.0210
5275,0.0129,0.0362,-0.0006,0.05,-0.13,-0.56,0.175,3.057,-1.123,0.814,-0.0417,-0.0207
5285,0.0125,0.0381,0.0047,0.01,-0.13,-0.55,0.175,3.201,-0.150,1.377,-0.0413,-0.0205
5295,0.0120,0.0346,0.0055,0.03,-0.11,-0.54,0.178,0.808,2.356,1.587,-0.0413,-0.0202
5305,0.0121,0.0346,0.0061,0.04,-0.09,-0.53,0.178,-2.751,3.662,1.183,-0.0407,-0.0198
5315,0.0133,0.0340,0.0062,0.08,-0.08,-0.52,0.178,-2.804,3.882,0.386,-0.0405,-0.0195
5325,0.0129,0.0337,0.0147,0.11,-0.08,-0.50,0.178,1.517,2.590,0.118,-0.0410,-0.0194
5335,0.0146,0.0337,0.0150,0.12,-0.11,-0.49,0.178,0.853,2.167,0.497,-0.0399,-0.0195
5345,0.0148,0.0335,0.0153,0.09,-0.15,-0.48,0.178,1.020,0.613,0.437,-0.0403,-0.0187
5354,0.0130,0.0322,0.0158,0.07,-0.17,-0.47,0.174,3.194,0.073,-0.162,-0.0402,-0.0184
5364,0.0165,0.0308,0.0158,0.08,-0.22,-0.46,0.174,1.716,-2.264,-0.851,-0.0408,-0.0186
5375,0.0149,0.0324,0.0160,0.07,-0.23,-0.46,0.174,4.932,-3.349,-0.807,-0.0409,-0.0184
5385,0.0152,0.0322,0.0107,0.08,-0.24,-0.45,0.174,0.650,-4.041,-0.110,-0.0407,-0.0181
5395,0.0131,0.0303,0.0108,0.11,-0.22,-0.46,0.174,1.212,-2.750,-0.574,-0.0409,-0.0173
5405,0.0125,0.0299,0.0106,0.13,-0.19,-0.46,0.174,-1.128,-0.999,0.077,-0.0408,-0.0170
5414,0.0134,0.0296,0.0108,0.17,-0.16,-0.47,0.174,-1.647,0.092,0.122,-0.0413,-0.0164
5425,0.0125,0.0310,0.0062,0.17,-0.11,-0.48,0.174,-1.738,-3.039,-0.410,-0.0390,-0.0180
5434,0.0127,0.0307,0.0057,0.18,-0.08,-0.48,0.174,-0.329,-0.284,-0.463,-0.0391,-0.0176
5445,0.0105,0.0312,0.0054,0.16,-0.06,-0.48,0.174,-1.395,-1.217,-0.139,-0.0407,-0.0166
5455,0.0180,0.0245,0.0055,0.19,-0.10,-0.48,0.173,-0.297,-0.109,-0.467,-0.0417,-0.0167
5465,0.0171,0.0250,0.0053,0.17,-0.07,-0.49,0.173,-4.291,1.431,-0.499,-0.0393,-0.0173
5475,0.0115,0.0270,0.0049,0.15,-0.02,-0.49,0.173,1.481,-0.251,-0.895,-0.0407,-0.0169
5485,0.0080,0.0255,-0.0009,0.15,0.00,-0.49,0.173,-1.119,2.205,-0.698,-0.0393,-0.0173
5495,0.0154,0.0224,-0.0010,0.17,-0.04,-0.50,0.172,-0.322,-0.699,-0.638,-0.0398,-0.0169
5505,0.0103,0.0227,-0.0010,0.14,-0.02,-0.50,0.172,-3.581,1.807,-0.344,-0.0397,-0.0167
5516,0.0146,0.0205,-0.0009,0.15,-0.05,-0.51,0.172,1.167,0.316,0.376,-0.0402,-0.0162
5525,0.0126,0.0208,-0.0062,0.14,-0.05,-0.51,0.172,-2.557,-0.434,-0.863,-0.0401,-0.0160
5535,0.0127,0.0206,-0.0062,0.14,-0.05,-0.52,0.172,1.663,-0.826,-0.703,-0.0406,-0.0161
5545,0.0108,0.0213,-0.0063,0.11,-0.06,-0.53,0.172,-2.532,1.062,-0.463,-0.0412,-0.0156
5555,0.0109,0.0211,-0.0065,0.14,-0.06,-0.53,0.177,-3.836,1.143,-1.495,-0.0403,-0.0160
5565,0.0088,0.0199,-0.0065,0.14,-0.04,-0.54,0.177,-1.040,-3.283,-1.072,-0.0402,-0.0158
5575,0.0066,0.0206,-0.0063,0.14,-0.01,-0.54,0.177,-2.502,-1.008,-0.983,-0.0408,-0.0160
5585,0.0095,0.0184,0.0026,0.13,-0.04,-0.55,0.177,-1.383,-0.709,-2.343,-0.0407,-0.0158
5594,0.0096,0.0182,0.0031,0.09,-0.04,-0.56,0.177,-9.741,-1.943,-1.205,-0.0392,-0.0168
5605,0.0074,0.0170,0.0037,0.09,0.01,-0.57,0.177,1.225,-4.988,-2.704,-0.0409,-0.0162
5615,0.0074,0.0169,0.0043,0.06,0.02,-0.58,0.177,-2.900,-2.433,-1.409,-0.0406,-0.0164
5624,0.0120,0.0128,0.0092,0.07,-0.01,-0.61,0.177,-0.757,-1.685,-2.559,-0.0407,-0.0157
5635,0.0061,0.0142,0.0096,0.00,0.06,-0.62,0.177,-4.143,-2.364,-1.936,-0.0407,-0.0156
5645,0.0067,0.0132,0.0102,0.03,0.10,-0.65,0.177,-6.398,-4.386,-0.535,-0.0399,-0.0164
5655,0.0059,0.0150,0.0108,-0.02,0.13,-0.66,0.177,-0.362,-1.724,-1.999,-0.0399,-0.0163
5665,0.0056,0.0150,0.0111,-0.03,0.15,-0.69,0.177,-3.282,1.292,-1.599,-0.0398,-0.0162
5675,0.0077,0.0118,0.0116,-0.05,0.16,-0.70,0.177,-1.551,-0.536,-1.362,-0.0397,-0.0160
5684,0.0074,0.0119,0.0135,-0.11,0.20,-0.71,0.177,3.752,3.228,-2.601,-0.0397,-0.0159
5695,0.0070,0.0121,0.0138,-0.11,0.20,-0.73,0.172,-2.070,3.728,-0.668,-0.0396,-0.0158
5705,0.0067,0.0123,0.0141,-0.15,0.19,-0.74,0.172,-1.061,0.504,-0.406,-0.0418,-0.0151
5714,0.0064,0.0126,0.0144,-0.16,0.19,-0.76,0.172,-0.802,0.777,-0.741,-0.0394,-0.0156
5724,0.0060,0.0128,0.0030,-0.13,0.15,-0.78,0.172,2.297,0.973,-0.783,-0.0394,-0.0155
5734,-0.0015,0.0150,0.0029,-0.16,0.17,-0.79,0.172,1.581,1.535,-1.570,-0.0400,-0.0146
5744,0.0059,0.0129,0.0030,-0.16,0.10,-0.79,0.172,7.969,0.598,-1.706,-0.0416,-0.0150
5755,0.0057,0.0132,0.0032,-0.17,0.09,-0.80,0.175,8.931,-0.556,-2.670,-0.0416,-0.0150
5764,0.0034,0.0159,0.0037,-0.16,0.10,-0.81,0.175,6.090,0.851,-0.736,-0.0405,-0.0154
5775,-0.0020,0.0146,0.0041,-0.11,0.11,-0.82,0.175,-5.929,1.175,-1.240,-0.0405,-0.0153
5784,-0.0022,0.0142,0.0038,-0.03,0.11,-0.84,0.175,-6.087,-1.857,-1.451,-0.0404,-0.0152
5795,0.0014,0.0124,0.0041,0.08,0.09,-0.87,0.175,-5.418,-2.867,-1.057,-0.0399,-0.0150
5805,0.0012,0.0123,0.0042,0.12,0.07,-0.88,0.175,-4.862,-0.788,-0.912,-0.0399,-0.0149
5814,0.0011,0.0121,0.0042,0.08,0.07,-0.90,0.175,-6.543,-2.234,-0.729,-0.0399,-0.0148
5824,0.0026,0.0119,0.0034,0.04,0.07,-0.91,0.175,-4.107,0.896,-1.351,-0.0399,-0.0147
5834,0.0025,0.0118,0.0037,-0.02,0.10,-0.92,0.175,0.341,-1.158,-1.777,-0.0398,-0.0146
5844,0.0023,0.0119,0.0040,-0.07,0.11,-0.93,0.175,-1.939,1.300,-1.238,-0.0404,-0.0144
5855,0.0021,0.0120,0.0044,-0.14,0.12,-0.94,0.175,3.917,1.054,-1.701,-0.0422,-0.0141
5865,0.0019,0.0123,0.0052,-0.15,0.11,-0.95,0.175,1.174,2.969,-1.657,-0.0402,-0.0142
5875,-0.0002,0.0125,0.0059,-0.17,0.12,-0.97,0.175,2.309,1.369,-1.033,-0.0402,-0.0141
5884,-0.0059,0.0136,0.0053,-0.16,0.13,-0.98,0.175,4.109,3.674,-2.199,-0.0402,-0.0140
5894,0.0002,0.0129,0.0056,-0.14,0.08,-1.00,0.177,2.749,-0.309,-0.827,-0.0402,-0.0138
5905,0.0001,0.0131,0.0059,-0.09,0.05,-1.01,0.177,0.488,2.516,-0.530,-0.0407,-0.0130
5913,-0.0000,0.0133,0.0062,-0.07,0.03,-1.02,0.177,3.279,1.283,-0.635,-0.0407,-0.0128
5925,-0.0001,0.0134,0.0098,-0.01,0.01,-1.04,0.177,4.618,2.635,-2.133,-0.0406,-0.0138
5934,-0.0017,0.0158,0.0103,-0.04,0.01,-1.04,0.177,1.754,0.651,-1.385,-0.0432,-0.0127
5944,-0.0017,0.0158,0.0108,-0.02,-0.02,-1.06,0.177,4.675,0.727,-1.376,-0.0422,-0.0124
5955,-0.0012,0.0123,0.0113,0.04,-0.05,-1.07,0.178,-6.396,-1.633,-0.511,-0.0423,-0.0122
5964,-0.0089,0.0153,0.0117,0.06,-0.01,-1.08,0.178,-2.031,2.814,-0.796,-0.0422,-0.0132
5974,-0.0057,0.0155,0.0121,0.09,-0.06,-1.10,0.178,0.073,0.162,-0.215,-0.0409,-0.0136
5984,-0.0056,0.0154,0.0152,0.11,-0.05,-1.11,0.178,2.384,-0.406,-1.350,-0.0409,-0.0135
5995,-0.0052,0.0119,0.0156,0.06,-0.05,-1.11,0.178,-3.822,-3.653,-0.766,-0.0429,-0.0123
6004,-0.0008,0.0103,0.0160,0.08,-0.10,-1.13,0.178,-7.432,-2.812,0.010,-0.0423,-0.0126
6014,-0.0006,0.0101,0.0165,0.10,-0.09,-1.14,0.178,0.672,-0.040,-1.811,-0.0411,-0.0136
6025,-0.0065,0.0132,0.0166,0.10,-0.04,-1.15,0.178,-3.561,-1.308,-1.009,-0.0411,-0.0130
6034,-0.0044,0.0118,0.0165,0.05,-0.03,-1.15,0.178,1.618,-2.152,-0.973,-0.0406,-0.0136
6044,-0.0006,0.0084,0.0165,0.00,-0.03,-1.15,0.178,-3.315,-0.174,-1.019,-0.0418,-0.0129
6055,-0.0008,0.0099,0.0166,-0.02,-0.02,-1.16,0.177,3.528,-2.048,-0.568,-0.0418,-0.0119
6064,0.0009,0.0077,0.0168,-0.02,-0.02,-1.18,0.177,-5.001,0.616,-0.306,-0.0413,-0.0130
6075,-0.0028,0.0097,0.0168,-0.05,0.02,-1.18,0.177,4.219,1.624,-2.092,-0.0418,-0.0134
6084,-0.0026,0.0125,0.0126,-0.06,0.02,-1.20,0.177,-4.104,-0.037,-0.163,-0.0418,-0.0134
6094,-0.0011,0.0088,0.0125,-0.03,0.03,-1.20,0.175,0.935,2.742,-1.933,-0.0406,-0.0132
6105,-0.0027,0.0073,0.0125,-0.06,0.03,-1.21,0.175,1.368,1.946,0.142,-0.0434,-0.0119
6115,-0.0027,0.0074,0.0125,-0.03,0.02,-1.23,0.175,7.760,1.106,-0.680,-0.0432,-0.0128
6125,0.0009,0.0076,0.0045,-0.07,-0.00,-1.23,0.175,2.430,3.980,-1.154,-0.0421,-0.0134
6135,-0.0073,0.0117,0.0044,-0.06,0.03,-1.25,0.175,1.891,0.028,-0.808,-0.0425,-0.0132
6144,-0.0067,0.0086,0.0044,0.00,0.00,-1.25,0.175,1.141,2.663,-1.273,-0.0435,-0.0120
6155,-0.0031,0.0064,0.0047,0.06,-0.03,-1.26,0.183,-3.591,1.447,-0.496,-0.0436,-0.0118
6164,-0.0042,0.0068,0.0049,0.10,-0.05,-1.27,0.183,-2.491,0.956,-0.654,-0.0409,-0.0141
6174,-0.0071,0.0102,0.0050,0.07,-0.04,-1.28,0.183,-4.248,-0.358,-0.168,-0.0425,-0.0136
6184,-0.0071,0.0101,0.0176,0.08,-0.05,-1.29,0.183,-3.095,-0.051,-0.803,-0.0431,-0.0135
6194,0.0013,0.0027,0.0176,0.11,-0.11,-1.30,0.182,0.073,-0.557,-0.629,-0.0431,-0.0135
6204,-0.0034,0.0041,0.0175,0.09,-0.08,-1.31,0.182,-0.469,-2.120,-0.159,-0.0436,-0.0136
6214,-0.0047,0.0040,0.0175,0.06,-0.07,-1.31,0.182,-0.991,-2.933,0.137,-0.0410,-0.0149
6224,-0.0046,0.0039,0.0209,0.06,-0.06,-1.32,0.182,1.124,-2.063,-0.461,-0.0425,-0.0137
6234,-0.0060,0.0032,0.0209,0.08,-0.05,-1.33,0.182,-5.260,-1.529,-0.157,-0.0436,-0.0135
6244,0.0024,-0.0009,0.0210,0.12,-0.09,-1.34,0.182,-4.019,-0.277,0.404,-0.0437,-0.0135
6255,-0.0023,0.0024,0.0214,0.09,-0.05,-1.34,0.184,4.410,1.546,-1.323,-0.0436,-0.0140
6265,-0.0055,0.0030,0.0216,0.06,-0.01,-1.34,0.184,-1.427,1.775,-0.208,-0.0425,-0.0150
6274,-0.0055,0.0028,0.0218,0.03,-0.00,-1.35,0.184,-1.852,-0.543,-0.305,-0.0426,-0.0150
6284,-0.0049,0.0012,0.0260,0.03,-0.02,-1.35,0.184,-3.139,0.317,-0.502,-0.0430,-0.0142
6294,-0.0016,-0.0022,0.0262,0.06,-0.05,-1.36,0.179,-6.741,-0.801,0.219,-0.0431,-0.0147
6304,-0.0015,-0.0023,0.0261,0.07,-0.06,-1.37,0.179,-2.691,-1.722,-0.246,-0.0436,-0.0147
6314,-0.0029,0.0003,0.0262,0.00,-0.05,-1.36,0.179,2.067,0.311,-0.469,-0.0436,-0.0155
6324,-0.0029,-0.0012,0.0154,-0.01,-0.05,-1.37,0.179,4.237,-0.957,-0.459,-0.0436,-0.0156
6334,-0.0042,-0.0011,0.0153,-0.04,-0.03,-1.37,0.179,4.091,0.854,-0.770,-0.0437,-0.0156
6344,-0.0040,-0.0037,0.0151,-0.05,-0.03,-1.38,0.179,-3.948,0.010,0.023,-0.0437,-0.0156
6354,-0.0040,-0.0037,0.0151,-0.03,-0.03,-1.38,0.178,-2.214,-2.564,-0.205,-0.0437,-0.0157
6364,-0.0039,-0.0036,0.0150,-0.02,-0.03,-1.38,0.178,5.176,0.921,-1.008,-0.0437,-0.0161
6374,-0.0039,-0.0036,0.0148,-0.01,-0.02,-1.38,0.178,-1.425,2.336,-0.027,-0.0438,-0.0166
6384,-0.0038,-0.0036,0.0036,-0.02,-0.02,-1.39,0.178,-4.394,0.073,0.635,-0.0438,-0.0177
6394,-0.0036,-0.0048,0.0037,-0.03,-0.01,-1.39,0.182,-1.375,0.612,0.630,-0.0439,-0.0178
6404,-0.0036,-0.0061,0.0037,-0.01,-0.02,-1.39,0.182,-4.073,-1.517,-0.276,-0.0438,-0.0187
6414,-0.0036,-0.0092,0.0036,-0.00,-0.01,-1.39,0.182,-4.259,-1.126,-0.150,-0.0439,-0.0171
6424,-0.0036,-0.0092,0.0057,0.00,-0.01,-1.39,0.182,-7.484,-1.597,0.223,-0.0440,-0.0179
6434,-0.0035,-0.0118,0.0058,-0.00,-0.02,-1.39,0.182,-1.294,-1.760,-0.029,-0.0441,-0.0181
6444,-0.0036,-0.0065,0.0058,-0.10,0.01,-1.39,0.182,-2.823,-1.398,-0.136,-0.0441,-0.0182
6454,-0.0037,-0.0085,0.0060,-0.15,0.02,-1.39,0.178,2.084,-0.247,0.459,-0.0447,-0.0186
6464,-0.0038,-0.0088,0.0063,-0.20,0.03,-1.39,0.178,2.112,0.565,0.095,-0.0447,-0.0187
6474,-0.0038,-0.0084,0.0067,-0.21,0.04,-1.39,0.178,1.596,0.232,0.163,-0.0448,-0.0188
6484,-0.0055,-0.0090,-0.0015,-0.22,0.06,-1.39,0.178,0.732,3.281,0.936,-0.0448,-0.0188
6494,-0.0056,-0.0086,-0.0011,-0.19,0.06,-1.39,0.180,2.448,2.853,0.411,-0.0454,-0.0188
6504,-0.0057,-0.0083,-0.0008,-0.17,0.05,-1.39,0.180,2.706,2.576,1.404,-0.0445,-0.0206
6514,-0.0058,-0.0080,-0.0004,-0.16,0.04,-1.38,0.180,6.212,4.726,1.551,-0.0449,-0.0190
6524,-0.0073,-0.0073,-0.0003,-0.16,0.03,-1.38,0.180,6.624,5.642,1.574,-0.0440,-0.0199
6534,-0.0045,-0.0125,-0.0002,-0.10,-0.03,-1.37,0.180,5.443,2.369,1.578,-0.0439,-0.0211
6544,-0.0056,-0.0067,-0.0000,-0.11,-0.05,-1.36,0.180,2.069,1.965,1.134,-0.0460,-0.0201
6553,-0.0026,-0.0092,0.0003,-0.02,-0.12,-1.34,0.177,0.965,2.521,2.206,-0.0442,-0.0224
6564,-0.0019,-0.0127,0.0007,0.05,-0.17,-1.33,0.177,2.567,2.064,2.511,-0.0479,-0.0211
6574,-0.0079,-0.0091,0.0011,0.07,-0.15,-1.31,0.177,-1.120,2.375,2.621,-0.0478,-0.0215
6584,-0.0020,-0.0162,-0.0056,0.14,-0.21,-1.30,0.177,-1.792,4.174,2.769,-0.0481,-0.0215
6594,-0.0130,-0.0120,-0.0053,0.12,-0.16,-1.27,0.180,-1.347,1.273,2.357,-0.0482,-0.0216
6604,-0.0120,-0.0130,-0.0054,0.11,-0.18,-1.25,0.180,2.771,1.794,2.555,-0.0475,-0.0220
6614,-0.0123,-0.0128,-0.0054,0.11,-0.21,-1.22,0.180,-4.004,-0.800,2.859,-0.0475,-0.0231
6624,-0.0119,-0.0130,-0.0023,0.11,-0.24,-1.19,0.180,1.609,0.825,2.798,-0.0480,-0.0229
6634,-0.0089,-0.0140,-0.0021,0.10,-0.28,-1.16,0.180,-1.550,-2.669,2.883,-0.0481,-0.0230
6643,-0.0081,-0.0171,-0.0019,0.13,-0.28,-1.14,0.180,-6.596,-1.384,2.655,-0.0481,-0.0232
6654,-0.0089,-0.0161,-0.0018,0.10,-0.27,-1.11,0.178,-5.295,-3.357,2.206,-0.0482,-0.0239
6664,-0.0085,-0.0163,-0.0014,0.12,-0.26,-1.08,0.178,-1.491,-1.552,1.952,-0.0493,-0.0241
6674,-0.0079,-0.0165,-0.0011,0.07,-0.24,-1.05,0.178,-1.176,-1.976,2.142,-0.0484,-0.0240
6684,-0.0073,-0.0184,-0.0028,0.02,-0.23,-1.03,0.178,-4.773,-4.678,2.701,-0.0490,-0.0238
6694,-0.0103,-0.0183,-0.0022,-0.03,-0.18,-1.00,0.180,0.663,-0.744,2.480,-0.0490,-0.0245
6704,-0.0069,-0.0175,-0.0018,-0.04,-0.17,-0.98,0.180,-6.284,-3.686,2.613,-0.0472,-0.0255
6713,-0.0081,-0.0162,-0.0015,-0.07,-0.14,-0.96,0.180,-2.634,0.424,2.435,-0.0468,-0.0268
6723,-0.0078,-0.0185,0.0021,-0.07,-0.11,-0.94,0.180,-0.140,-0.310,1.496,-0.0482,-0.0268
6733,-0.0016,-0.0208,0.0025,-0.07,-0.12,-0.91,0.180,1.719,1.515,1.921,-0.0482,-0.0271
6743,0.0000,-0.0244,0.0030,-0.07,-0.12,-0.89,0.180,2.741,2.721,1.991,-0.0486,-0.0268
6754,-0.0043,-0.0233,0.0037,-0.08,-0.09,-0.87,0.175,-4.155,2.421,2.574,-0.0472,-0.0277
6763,-0.0042,-0.0234,0.0044,-0.09,-0.08,-0.85,0.175,-0.182,0.203,1.783,-0.0471,-0.0280
6774,-0.0050,-0.0217,0.0050,-0.12,-0.10,-0.83,0.175,-2.302,0.480,1.849,-0.0471,-0.0282
6783,-0.0002,-0.0235,-0.0047,-0.11,-0.14,-0.80,0.175,-1.395,-0.069,1.527,-0.0466,-0.0291
6793,0.0004,-0.0236,-0.0044,-0.13,-0.16,-0.78,0.185,1.449,-1.245,1.884,-0.0470,-0.0295
6804,0.0007,-0.0234,-0.0040,-0.15,-0.17,-0.76,0.185,-0.189,-1.301,1.884,-0.0479,-0.0295
6814,0.0027,-0.0253,-0.0035,-0.14,-0.20,-0.74,0.185,3.614,-0.588,1.021,-0.0475,-0.0303
6824,0.0016,-0.0255,0.0134,-0.14,-0.19,-0.73,0.185,0.820,-2.187,1.349,-0.0484,-0.0307
6833,-0.0011,-0.0245,0.0139,-0.14,-0.17,-0.71,0.185,-1.197,-2.450,1.750,-0.0472,-0.0311
6844,0.0005,-0.0260,0.0146,-0.13,-0.16,-0.69,0.185,-0.473,-3.531,2.041,-0.0464,-0.0320
6853,-0.0025,-0.0261,0.0154,-0.11,-0.12,-0.68,0.178,4.242,0.468,-0.002,-0.0464,-0.0322
6863,0.0022,-0.0265,0.0162,-0.10,-0.14,-0.66,0.178,-1.832,-0.970,0.524,-0.0463,-0.0325
6874,0.0050,-0.0284,0.0166,-0.08,-0.13,-0.65,0.178,1.263,-3.005,0.387,-0.0468,-0.0325
6883,0.0050,-0.0280,0.0097,-0.10,-0.13,-0.64,0.178,-3.575,-0.006,2.277,-0.0477,-0.0328
6893,0.0053,-0.0278,0.0103,-0.09,-0.11,-0.63,0.181,-4.286,-0.422,0.496,-0.0473,-0.0339
6903,0.0038,-0.0267,0.0105,-0.09,-0.10,-0.63,0.181,-3.619,-1.171,1.493,-0.0473,-0.0342
6914,0.0005,-0.0267,0.0106,-0.11,-0.05,-0.61,0.181,-2.769,0.166,1.194,-0.0473,-0.0345
6923,0.0020,-0.0294,0.0124,-0.13,-0.06,-0.59,0.181,1.566,2.449,-0.291,-0.0474,-0.0355
6934,0.0020,-0.0292,0.0127,-0.16,-0.06,-0.59,0.181,-5.363,0.760,0.365,-0.0461,-0.0363
6944,0.0021,-0.0289,0.0129,-0.17,-0.05,-0.58,0.181,-1.752,0.257,0.573,-0.0460,-0.0366
6954,0.0020,-0.0310,0.0130,-0.20,-0.05,-0.57,0.171,-6.772,0.365,0.752,-0.0460,-0.0377
6964,0.0065,-0.0323,0.0132,-0.22,-0.09,-0.56,0.171,-2.533,-1.044,0.345,-0.0457,-0.0381
6974,0.0066,-0.0320,0.0134,-0.24,-0.09,-0.56,0.171,-2.584,-2.798,-0.078,-0.0455,-0.0388
6984,0.0063,-0.0332,-0.0093,-0.24,-0.08,-0.56,0.171,-0.813,-1.823,-0.510,-0.0453,-0.0391
6993,0.0076,-0.0341,-0.0087,-0.27,-0.08,-0.55,0.180,-0.371,-0.649,-0.619,-0.0472,-0.0391
7004,0.0077,-0.0337,-0.0085,-0.27,-0.07,-0.56,0.180,-1.224,-5.248,-0.340,-0.0472,-0.0391
7014,0.0087,-0.0344,-0.0084,-0.29,-0.05,-0.56,0.180,-2.178,-1.728,-0.116,-0.0450,-0.0405
7023,0.0017,-0.0315,-0.0007,-0.35,0.02,-0.56,0.180,-3.408,-1.332,0.531,-0.0442,-0.0405
7033,0.0017,-0.0309,-0.0001,-0.35,0.05,-0.56,0.180,-1.643,-1.234,-0.806,-0.0452,-0.0404
7043,0.0090,-0.0328,0.0003,-0.38,0.04,-0.56,0.180,0.084,-1.386,-0.335,-0.0444,-0.0425
7054,0.0116,-0.0321,0.0010,-0.41,0.03,-0.56,0.176,-1.805,-0.696,0.555,-0.0443,-0.0429
7064,0.0078,-0.0300,0.0021,-0.43,0.07,-0.56,0.176,-5.158,-0.172,0.933,-0.0476,-0.0418
7074,0.0102,-0.0356,0.0029,-0.40,0.07,-0.56,0.176,-3.574,0.039,0.123,-0.0476,-0.0421
7084,0.0101,-0.0349,-0.0007,-0.42,0.08,-0.56,0.176,-0.671,-2.333,0.424,-0.0476,-0.0424
7094,-0.0020,-0.0292,0.0001,-0.48,0.16,-0.56,0.181,-2.163,-1.520,0.560,-0.0477,-0.0432
7104,-0.0023,-0.0284,0.0010,-0.51,0.16,-0.55,0.181,-1.740,-1.214,0.374,-0.0451,-0.0454
7114,-0.0026,-0.0275,0.0017,-0.52,0.17,-0.55,0.181,-1.428,0.611,0.065,-0.0437,-0.0457
7123,-0.0031,-0.0283,0.0107,-0.54,0.19,-0.55,0.181,0.507,2.294,0.250,-0.0441,-0.0456
7133,0.0060,-0.0341,0.0113,-0.52,0.15,-0.54,0.181,0.434,1.684,-0.014,-0.0458,-0.0455
7143,0.0102,-0.0331,0.0121,-0.54,0.12,-0.54,0.181,-0.233,1.240,-0.248,-0.0431,-0.0469
7154,0.0082,-0.0308,0.0129,-0.54,0.12,-0.54,0.172,0.376,0.625,0.110,-0.0440,-0.0469
7163,0.0019,-0.0284,0.0135,-0.56,0.13,-0.54,0.172,3.010,2.110,0.024,-0.0444,-0.0468
7173,0.0110,-0.0311,0.0140,-0.53,0.06,-0.54,0.172,-2.026,0.705,0.985,-0.0435,-0.0481
7184,0.0073,-0.0293,-0.0029,-0.51,0.08,-0.54,0.172,-1.290,2.532,0.609,-0.0439,-0.0485
7194,0.0055,-0.0270,-0.0025,-0.52,0.07,-0.54,0.176,5.674,5.153,0.967,-0.0447,-0.0485
7203,0.0083,-0.0297,-0.0021,-0.49,0.04,-0.53,0.176,6.293,6.640,0.781,-0.0446,-0.0488
7213,0.0066,-0.0291,-0.0019,-0.50,0.03,-0.53,0.176,7.024,4.752,0.506,-0.0448,-0.0490
7224,0.0038,-0.0272,-0.0016,-0.48,0.01,-0.52,0.176,6.930,5.245,0.255,-0.0448,-0.0492
7234,0.0038,-0.0264,-0.0013,-0.42,-0.05,-0.51,0.176,1.299,1.568,1.215,-0.0448,-0.0495
7244,0.0030,-0.0255,-0.0007,-0.35,-0.10,-0.50,0.176,-0.135,-0.781,1.089,-0.0447,-0.0505
7254,0.0031,-0.0249,-0.0003,-0.28,-0.16,-0.50,0.179,3.633,-0.775,1.143,-0.0452,-0.0499
7263,0.0034,-0.0244,0.0001,-0.26,-0.19,-0.49,0.179,0.252,0.782,1.200,-0.0452,-0.0509
7273,0.0038,-0.0266,0.0003,-0.22,-0.21,-0.48,0.179,-2.390,-1.034,0.983,-0.0452,-0.0511
7284,0.0025,-0.0232,0.0076,-0.24,-0.19,-0.47,0.179,0.352,-0.851,1.035,-0.0452,-0.0515
7294,0.0026,-0.0255,0.0081,-0.20,-0.19,-0.45,0.177,1.208,-1.743,0.529,-0.0452,-0.0517
7304,0.0029,-0.0251,0.0084,-0.22,-0.19,-0.44,0.177,0.353,-0.558,0.265,-0.0451,-0.0520
7314,0.0031,-0.0250,0.0088,-0.22,-0.18,-0.44,0.177,-4.763,1.651,0.217,-0.0451,-0.0523
7323,0.0034,-0.0246,0.0080,-0.22,-0.17,-0.43,0.177,-4.519,1.778,0.171,-0.0451,-0.0525
7333,0.0037,-0.0243,0.0085,-0.21,-0.16,-0.42,0.177,-1.607,0.096,-0.355,-0.0441,-0.0528
7344,0.0038,-0.0241,0.0090,-0.24,-0.16,-0.42,0.177,-1.579,-2.587,0.390,-0.0462,-0.0532
7353,0.0041,-0.0237,0.0094,-0.28,-0.18,-0.42,0.178,-0.284,-4.414,-0.260,-0.0463,-0.0536
7363,0.0077,-0.0234,0.0100,-0.32,-0.21,-0.42,0.178,-3.812,-3.706,0.351,-0.0479,-0.0530
7372,0.0007,-0.0234,0.0109,-0.32,-0.14,-0.43,0.178,-4.489,-1.022,-0.324,-0.0480,-0.0532
7384,0.0004,-0.0236,0.0117,-0.32,-0.11,-0.43,0.178,-2.662,-0.475,0.082,-0.0466,-0.0539
7394,-0.0049,-0.0199,0.0123,-0.37,-0.03,-0.44,0.180,0.229,-1.921,-0.742,-0.0466,-0.0544
7403,-0.0049,-0.0194,0.0128,-0.41,-0.01,-0.44,0.180,-4.145,-0.984,0.209,-0.0462,-0.0547
7413,-0.0000,-0.0204,0.0131,-0.44,-0.03,-0.43,0.180,0.968,-0.997,-0.016,-0.0462,-0.0549
7423,-0.0000,-0.0205,0.0171,-0.44,-0.03,-0.44,0.180,-1.850,-1.100,0.365,-0.0462,-0.0551
7433,0.0014,-0.0200,0.0179,-0.47,-0.02,-0.44,0.180,-3.799,-1.800,0.446,-0.0448,-0.0558
7443,0.0015,-0.0192,0.0186,-0.48,-0.01,-0.44,0.180,-2.949,-1.913,0.286,-0.0459,-0.0557
7454,0.0015,-0.0184,0.0195,-0.48,0.00,-0.44,0.180,2.671,-1.793,0.372,-0.0458,-0.0559
7463,0.0063,-0.0193,0.0201,-0.52,-0.02,-0.43,0.180,-0.791,-0.576,0.718,-0.0464,-0.0559
7473,0.0024,-0.0176,0.0208,-0.53,0.03,-0.43,0.180,4.091,1.111,-0.215,-0.0478,-0.0553
7483,0.0024,-0.0167,0.0210,-0.54,0.05,-0.42,0.180,3.429,3.006,0.349,-0.0472,-0.0560
7494,0.0004,-0.0150,0.0215,-0.53,0.07,-0.42,0.180,5.867,3.914,0.012,-0.0466,-0.0561
7503,-0.0048,-0.0115,0.0220,-0.54,0.10,-0.42,0.180,6.071,4.553,-0.157,-0.0464,-0.0568
7514,-0.0028,-0.0124,0.0225,-0.48,0.07,-0.42,0.180,5.962,3.370,-1.291,-0.0475,-0.0568
7524,-0.0005,-0.0117,0.0206,-0.43,0.01,-0.42,0.180,3.603,0.209,-0.732,-0.0469,-0.0568
7533,0.0002,-0.0129,0.0208,-0.35,-0.05,-0.42,0.180,-0.851,2.056,-0.032,-0.0464,-0.0568
7543,-0.0037,-0.0118,0.0209,-0.32,-0.07,-0.43,0.180,-1.594,0.239,0.186,-0.0456,-0.0577
7553,-0.0012,-0.0110,0.0211,-0.29,-0.12,-0.43,0.184,-0.761,-0.891,0.077,-0.0440,-0.0589
7563,0.0004,-0.0107,0.0211,-0.29,-0.13,-0.43,0.184,-3.532,0.149,-0.395,-0.0458,-0.0586
7573,0.0035,-0.0128,0.0216,-0.27,-0.16,-0.43,0.184,-3.659,0.452,-0.278,-0.0449,-0.0589
7583,0.0092,-0.0158,0.0271,-0.26,-0.19,-0.43,0.184,-1.627,0.976,-0.408,-0.0454,-0.0583
7593,0.0030,-0.0139,0.0273,-0.30,-0.12,-0.43,0.184,-2.123,-1.581,-0.009,-0.0455,-0.0589
7603,0.0062,-0.0141,0.0275,-0.34,-0.13,-0.43,0.184,-3.689,-2.205,0.203,-0.0455,-0.0590
7613,0.0044,-0.0108,0.0278,-0.39,-0.13,-0.43,0.184,0.270,-3.542,0.081,-0.0454,-0.0591
7623,0.0041,-0.0119,0.0280,-0.42,-0.12,-0.43,0.184,-3.166,-4.095,0.601,-0.0454,-0.0596
7632,0.0043,-0.0112,0.0284,-0.45,-0.10,-0.43,0.184,5.152,-0.337,-0.718,-0.0454,-0.0597
7643,0.0045,-0.0105,0.0286,-0.47,-0.08,-0.43,0.184,0.825,0.194,-0.316,-0.0460,-0.0596
7653,0.0044,-0.0109,0.0286,-0.48,-0.06,-0.43,0.184,-3.823,-3.193,0.713,-0.0459,-0.0596
7663,0.0045,-0.0101,0.0287,-0.49,-0.04,-0.42,0.184,3.736,-1.505,-0.852,-0.0459,-0.0597
7673,0.0024,-0.0084,0.0286,-0.48,-0.01,-0.42,0.184,-1.207,-0.710,0.336,-0.0465,-0.0598
7683,0.0025,-0.0076,0.0245,-0.50,0.01,-0.42,0.184,-4.369,0.310,1.182,-0.0465,-0.0599
7693,0.0024,-0.0068,0.0244,-0.50,0.03,-0.42,0.185,-3.105,0.938,0.194,-0.0465,-0.0599
7703,0.0004,-0.0061,0.0243,-0.48,0.04,-0.43,0.185,-0.582,0.148,0.129,-0.0465,-0.0600
7713,0.0003,-0.0053,0.0241,-0.46,0.05,-0.43,0.185,-1.067,1.296,-0.249,-0.0465,-0.0600
7723,0.0002,-0.0045,0.0218,-0.50,0.06,-0.41,0.185,1.402,-0.791,0.561,-0.0465,-0.0600
7733,0.0001,-0.0037,0.0215,-0.53,0.05,-0.41,0.185,-0.290,2.107,0.224,-0.0465,-0.0601
7744,0.0000,-0.0028,0.0212,-0.51,0.05,-0.41,0.185,3.206,0.984,-0.885,-0.0465,-0.0601
7753,-0.0001,-0.0019,0.0210,-0.53,0.04,-0.41,0.187,0.852,0.217,0.235,-0.0466,-0.0609
7763,-0.0001,-0.0010,0.0207,-0.49,0.04,-0.41,0.187,-2.954,-0.047,0.368,-0.0466,-0.0602
7773,-0.0002,-0.0002,0.0206,-0.50,0.04,-0.41,0.187,-0.182,0.853,-0.949,-0.0466,-0.0602
7783,-0.0004,-0.0020,0.0207,-0.44,0.02,-0.41,0.187,4.575,-0.343,-1.525,-0.0466,-0.0602
7793,-0.0007,0.0011,0.0201,-0.44,0.03,-0.42,0.188,-0.180,-2.325,-0.285,-0.0466,-0.0601
7803,-0.0007,0.0018,0.0199,-0.46,0.04,-0.41,0.188,-1.687,-2.842,-0.088,-0.0467,-0.0601
7813,-0.0008,0.0026,0.0196,-0.48,0.03,-0.42,0.188,-6.682,-1.039,0.429,-0.0467,-0.0600
7824,-0.0008,0.0034,0.0198,-0.45,0.03,-0.43,0.188,-2.000,-1.088,-1.512,-0.0467,-0.0600
7833,-0.0009,0.0042,0.0195,-0.44,0.05,-0.44,0.188,-1.033,0.176,0.015,-0.0474,-0.0601
7842,-0.0011,0.0057,0.0193,-0.49,0.10,-0.44,0.188,3.801,0.881,-2.132,-0.0475,-0.0600
7853,-0.0011,0.0057,0.0193,-0.49,0.10,-0.44,0.189,-3.123,1.428,0.014,-0.0482,-0.0596
7863,-0.0038,0.0069,0.0189,-0.52,0.12,-0.45,0.189,0.910,0.817,-0.051,-0.0483,-0.0595
7873,-0.0038,0.0069,0.0189,-0.52,0.12,-0.45,0.189,2.378,2.465,-0.793,-0.0475,-0.0603
7883,-0.0064,0.0098,0.0190,-0.52,0.11,-0.47,0.189,-0.285,-0.947,0.089,-0.0476,-0.0602
7893,-0.0064,0.0098,0.0190,-0.52,0.11,-0.47,0.190,-0.741,-0.432,0.195,-0.0533,-0.0588
7903,-0.0042,0.0086,0.0189,-0.49,0.08,-0.48,0.190,7.118,1.855,-1.529,-0.0529,-0.0575
7913,-0.0042,0.0086,0.0189,-0.49,0.08,-0.48,0.190,0.514,2.125,0.550,-0.0532,-0.0573
7922,-0.0218,0.0137,0.0192,-0.47,0.18,-0.49,0.190,0.374,0.865,-0.454,-0.0507,-0.0576
7933,-0.0203,0.0179,0.0188,-0.50,0.17,-0.49,0.190,5.337,2.545,-0.445,-0.0554,-0.0579
7943,-0.0206,0.0188,0.0188,-0.46,0.15,-0.50,0.190,-2.005,-0.844,0.465,-0.0503,-0.0595
7952,-0.0129,0.0183,0.0189,-0.43,0.09,-0.50,0.190,-1.741,4.139,-0.554,-0.0556,-0.0567
7962,-0.0267,0.0176,0.0188,-0.42,0.16,-0.50,0.190,3.051,1.703,-1.064,-0.0552,-0.0576
7973,-0.0109,0.0128,0.0188,-0.34,0.04,-0.50,0.190,-1.480,-0.947,0.311,-0.0550,-0.0572
7983,-0.0264,0.0215,0.0161,-0.39,0.13,-0.50,0.190,-1.454,2.504,-0.186,-0.0552,-0.0570
7994,-0.0248,0.0188,0.0161,-0.40,0.09,-0.50,0.191,1.118,1.537,-0.085,-0.0554,-0.0567
8002,-0.0234,0.0202,0.0161,-0.38,0.06,-0.51,0.191,-1.225,2.613,-0.020,-0.0553,-0.0561
8013,-0.0235,0.0209,0.0158,-0.38,0.06,-0.51,0.191,2.258,0.503,-0.084,-0.0555,-0.0558
8023,-0.0236,0.0215,0.0150,-0.41,0.04,-0.51,0.191,-0.039,1.021,0.117,-0.0552,-0.0552
8033,-0.0225,0.0236,0.0148,-0.40,0.02,-0.52,0.191,0.732,1.680,0.317,-0.0557,-0.0563
8043,-0.0225,0.0243,0.0146,-0.41,0.01,-0.51,0.191,2.318,0.030,-0.611,-0.0555,-0.0551
8053,-0.0210,0.0259,0.0146,-0.39,-0.02,-0.52,0.190,0.109,0.995,-0.052,-0.0557,-0.0548
8063,-0.0218,0.0229,0.0147,-0.38,-0.03,-0.52,0.190,0.836,2.863,-1.281,-0.0549,-0.0549
8073,-0.0206,0.0263,0.0146,-0.38,-0.05,-0.51,0.190,-1.020,-1.164,0.113,-0.0553,-0.0554
8082,-0.0205,0.0269,0.0099,-0.37,-0.05,-0.52,0.190,2.609,3.938,-1.275,-0.0551,-0.0560
8093,-0.0174,0.0266,0.0099,-0.35,-0.08,-0.52,0.192,-1.138,0.694,-0.087,-0.0553,-0.0558
8103,-0.0180,0.0249,0.0097,-0.35,-0.09,-0.53,0.192,3.149,0.550,-0.778,-0.0554,-0.0555
8113,-0.0167,0.0230,0.0094,-0.31,-0.10,-0.53,0.192,0.210,0.198,-1.452,-0.0556,-0.0553
8123,-0.0165,0.0236,0.0103,-0.31,-0.13,-0.54,0.192,-2.982,1.883,-0.060,-0.0548,-0.0556
8133,-0.0163,0.0241,0.0103,-0.29,-0.14,-0.55,0.192,-0.118,0.991,-0.309,-0.0549,-0.0554
8143,-0.0161,0.0246,0.0104,-0.27,-0.15,-0.56,0.192,0.223,-0.543,-0.586,-0.0625,-0.0501
8153,-0.0131,0.0233,0.0102,-0.28,-0.16,-0.56,0.189,-2.016,-1.978,-0.032,-0.0602,-0.0505
8163,-0.0128,0.0238,0.0099,-0.28,-0.17,-0.57,0.189,-2.704,-1.255,0.175,-0.0629,-0.0508
8173,-0.0336,0.0387,0.0095,-0.35,-0.06,-0.58,0.189,-2.217,-0.113,0.193,-0.0626,-0.0498
8183,-0.0262,0.0370,0.0022,-0.32,-0.10,-0.59,0.189,-0.441,0.985,0.338,-0.0643,-0.0501
8193,-0.0328,0.0357,0.0021,-0.31,-0.04,-0.59,0.190,1.059,2.236,0.368,-0.0645,-0.0496
8203,-0.0311,0.0380,0.0022,-0.34,-0.03,-0.59,0.190,2.027,4.175,0.048,-0.0629,-0.0499
8213,-0.0348,0.0367,0.0021,-0.33,-0.01,-0.59,0.190,4.658,2.623,-0.316,-0.0631,-0.0502
8222,-0.0345,0.0375,-0.0000,-0.33,-0.02,-0.60,0.190,3.102,2.014,0.056,-0.0635,-0.0500
8232,-0.0288,0.0362,-0.0003,-0.31,-0.09,-0.60,0.190,6.355,2.349,-0.624,-0.0637,-0.0496
8242,-0.0285,0.0347,-0.0005,-0.28,-0.12,-0.60,0.190,4.594,2.037,0.585,-0.0640,-0.0494
8253,-0.0284,0.0350,-0.0003,-0.25,-0.16,-0.60,0.193,0.106,0.972,0.425,-0.0643,-0.0490
8263,-0.0282,0.0354,-0.0002,-0.22,-0.18,-0.60,0.193,3.857,0.023,0.232,-0.0642,-0.0487
8273,-0.0280,0.0356,0.0001,-0.18,-0.20,-0.60,0.193,4.577,1.024,-0.391,-0.0644,-0.0483
8283,-0.0276,0.0359,0.0056,-0.14,-0.22,-0.60,0.193,1.202,0.213,-0.429,-0.0642,-0.0478
8293,-0.0260,0.0360,0.0059,-0.12,-0.25,-0.60,0.192,1.757,0.875,0.334,-0.0645,-0.0475
8302,-0.0256,0.0362,0.0060,-0.09,-0.25,-0.59,0.192,-2.881,1.022,0.982,-0.0647,-0.0471
8312,-0.0239,0.0367,0.0062,-0.06,-0.27,-0.59,0.192,-3.664,-0.673,0.830,-0.0711,-0.0465
8323,-0.0234,0.0368,0.0068,-0.06,-0.27,-0.60,0.192,-1.082,0.498,-0.117,-0.0708,-0.0454
8332,-0.0230,0.0369,0.0070,-0.05,-0.28,-0.59,0.192,0.496,1.734,0.677,-0.0712,-0.0450
8343,-0.0401,0.0375,0.0069,-0.07,-0.19,-0.59,0.192,0.766,1.937,-0.356,-0.0716,-0.0446
8353,-0.0378,0.0397,0.0069,-0.11,-0.20,-0.58,0.193,0.478,3.021,0.721,-0.0739,-0.0437
8362,-0.0374,0.0399,0.0071,-0.12,-0.20,-0.58,0.193,3.323,3.407,0.939,-0.0735,-0.0448
8373,-0.0371,0.0401,0.0075,-0.12,-0.21,-0.57,0.193,3.593,2.394,0.711,-0.0738,-0.0452
8382,-0.0421,0.0417,0.0092,-0.13,-0.20,-0.57,0.193,2.176,1.719,0.533,-0.0741,-0.0448
8392,-0.0394,0.0377,0.0096,-0.08,-0.25,-0.57,0.192,-0.982,1.783,0.981,-0.0745,-0.0445
8403,-0.0387,0.0356,0.0099,-0.04,-0.28,-0.56,0.192,0.507,3.041,-0.261,-0.0749,-0.0441
8412,-0.0382,0.0357,0.0100,-0.00,-0.30,-0.55,0.192,-0.107,3.105,0.122,-0.0753,-0.0438
8422,-0.0377,0.0356,0.0078,0.03,-0.32,-0.54,0.192,1.136,3.665,0.021,-0.0748,-0.0435
8432,-0.0371,0.0356,0.0078,0.05,-0.34,-0.54,0.192,2.995,4.135,-0.507,-0.0743,-0.0445
8442,-0.0366,0.0355,0.0077,0.07,-0.37,-0.54,0.192,-0.908,2.514,0.061,-0.0739,-0.0441
8452,-0.0335,0.0350,0.0079,0.10,-0.42,-0.54,0.197,-0.664,1.286,-0.418,-0.0742,-0.0437
8462,-0.0305,0.0310,0.0082,0.14,-0.47,-0.54,0.197,1.777,0.732,-0.545,-0.0745,-0.0434
8473,-0.0278,0.0312,0.0084,0.15,-0.52,-0.54,0.197,-1.538,-0.408,-0.218,-0.0742,-0.0443
8482,-0.0269,0.0310,0.0176,0.15,-0.55,-0.55,0.197,-3.079,-2.240,0.095,-0.0745,-0.0441
8493,-0.0260,0.0307,0.0178,0.15,-0.56,-0.55,0.194,-1.958,-0.572,-0.064,-0.0747,-0.0438
8502,-0.0237,0.0270,0.0182,0.18,-0.58,-0.55,0.194,-1.401,-0.515,0.196,-0.0749,-0.0435
8513,-0.0227,0.0267,0.0183,0.17,-0.58,-0.56,0.194,0.649,1.239,0.393,-0.0751,-0.0433
8522,-0.0217,0.0264,0.0145,0.16,-0.57,-0.56,0.194,3.394,1.091,-0.049,-0.0753,-0.0430
8532,-0.0207,0.0261,0.0143,0.14,-0.56,-0.56,0.194,4.143,-0.782,-0.000,-0.0759,-0.0435
8542,-0.0198,0.0258,0.0143,0.12,-0.55,-0.56,0.194,2.183,-0.077,0.221,-0.0798,-0.0413
8552,-0.0188,0.0256,0.0144,0.13,-0.56,-0.55,0.190,0.577,0.223,0.496,-0.0800,-0.0411
8563,-0.0191,0.0234,0.0143,0.17,-0.57,-0.55,0.190,-0.969,0.251,0.749,-0.0798,-0.0424
8573,-0.0282,0.0284,0.0140,0.17,-0.50,-0.55,0.190,2.084,0.017,0.574,-0.0858,-0.0428
8583,-0.0273,0.0280,0.0016,0.18,-0.50,-0.55,0.190,3.130,1.007,-0.448,-0.0854,-0.0421
8592,-0.0251,0.0233,0.0014,0.22,-0.51,-0.54,0.193,-4.965,2.787,0.939,-0.0857,-0.0419
8602,-0.0398,0.0213,0.0009,0.24,-0.41,-0.53,0.193,-0.075,1.855,0.692,-0.0821,-0.0420
8613,-0.0370,0.0222,0.0003,0.25,-0.43,-0.53,0.193,-2.362,1.378,0.769,-0.0817,-0.0427
8622,-0.0363,0.0218,-0.0010,0.27,-0.44,-0.53,0.193,-1.782,2.348,0.512,-0.0843,-0.0428
8632,-0.0247,0.0204,-0.0011,0.25,-0.53,-0.53,0.193,-2.680,1.040,0.920,-0.0855,-0.0428
8642,-0.0221,0.0175,-0.0014,0.26,-0.57,-0.52,0.193,-1.122,2.533,0.347,-0.0845,-0.0429
8652,-0.0277,0.0163,-0.0016,0.25,-0.55,-0.51,0.194,-0.668,1.365,0.054,-0.0849,-0.0420
8662,-0.0291,0.0154,-0.0017,0.24,-0.55,-0.51,0.194,0.040,2.867,0.268,-0.0845,-0.0428
8672,-0.0246,0.0144,-0.0019,0.22,-0.59,-0.50,0.194,0.282,1.403,-0.015,-0.0843,-0.0435
8682,-0.0241,0.0159,-0.0001,0.19,-0.61,-0.50,0.194,0.137,-0.944,0.030,-0.0845,-0.0434
8692,-0.0214,0.0131,0.0001,0.19,-0.63,-0.50,0.193,-0.180,-2.170,-0.372,-0.0846,-0.0433
8702,-0.0191,0.0104,0.0002,0.20,-0.67,-0.49,0.193,0.423,-2.039,-0.903,-0.0848,-0.0432
8712,-0.0180,0.0100,0.0002,0.21,-0.69,-0.49,0.193,0.092,-0.736,-0.301,-0.0850,-0.0431
8722,-0.0168,0.0097,-0.0009,0.21,-0.68,-0.49,0.193,-1.676,-0.814,0.003,-0.0851,-0.0431
8732,-0.0156,0.0093,-0.0006,0.20,-0.66,-0.49,0.193,0.082,0.112,0.110,-0.0850,-0.0438
8742,-0.0145,0.0090,-0.0005,0.20,-0.64,-0.50,0.193,-1.249,-0.534,0.523,-0.0852,-0.0438
8752,-0.0134,0.0086,-0.0005,0.20,-0.63,-0.50,0.195,-1.736,-0.635,-0.009,-0.0853,-0.0437
8762,-0.0118,0.0059,-0.0005,0.21,-0.63,-0.50,0.195,-0.583,-0.494,0.014,-0.0852,-0.0451
8772,-0.0107,0.0056,-0.0007,0.21,-0.63,-0.50,0.195,-2.813,0.390,0.214,-0.0851,-0.0442
8782,-0.0096,0.0052,0.0030,0.20,-0.62,-0.49,0.195,-0.784,-0.004,-0.182,-0.0822,-0.0449
8792,-0.0082,0.0007,0.0031,0.22,-0.62,-0.49,0.191,-1.524,1.055,0.549,-0.0829,-0.0449
8802,-0.0066,0.0029,0.0032,0.18,-0.62,-0.49,0.191,-1.425,-0.620,0.445,-0.0844,-0.0448
8812,0.0026,0.0007,0.0031,0.17,-0.67,-0.49,0.191,-0.861,0.515,-0.162,-0.0788,-0.0462
8823,0.0018,0.0002,-0.0039,0.16,-0.66,-0.49,0.191,-1.640,-1.705,0.340,-0.0844,-0.0453
8832,-0.0012,0.0003,-0.0039,0.15,-0.65,-0.48,0.191,-2.905,-0.864,0.510,-0.0845,-0.0459
8842,0.0153,-0.0038,-0.0039,0.16,-0.73,-0.48,0.191,-2.819,-4.025,0.314,-0.0844,-0.0459
8852,0.0008,-0.0014,-0.0036,0.13,-0.64,-0.48,0.192,-2.031,-1.960,0.630,-0.0832,-0.0464
8862,0.0016,-0.0032,-0.0031,0.12,-0.63,-0.48,0.192,-1.679,-3.875,0.125,-0.0809,-0.0469
8872,0.0027,-0.0034,-0.0028,0.09,-0.62,-0.47,0.192,-1.706,-2.621,0.120,-0.0799,-0.0482
8882,0.0069,-0.0050,-0.0041,0.08,-0.60,-0.47,0.192,-0.696,-2.843,-0.337,-0.0821,-0.0474
8892,0.0142,-0.0063,-0.0038,0.06,-0.62,-0.47,0.190,-1.877,-3.835,-0.260,-0.0837,-0.0472
8902,0.0177,-0.0097,-0.0033,0.06,-0.59,-0.47,0.190,-1.017,-4.761,-0.151,-0.0808,-0.0472
8914,0.0120,-0.0075,-0.0027,0.04,-0.53,-0.46,0.190,-1.643,-3.733,-0.472,-0.0806,-0.0472
8922,0.0082,-0.0068,-0.0073,0.02,-0.46,-0.47,0.190,-2.528,-2.888,-0.235,-0.0809,-0.0477
8932,0.0167,-0.0065,-0.0071,-0.00,-0.47,-0.47,0.190,-3.797,-2.250,0.470,-0.0824,-0.0476
8942,0.0175,-0.0065,-0.0068,-0.01,-0.43,-0.47,0.190,-2.399,-2.128,0.066,-0.0822,-0.0477
8952,0.0170,-0.0077,-0.0063,-0.01,-0.39,-0.48,0.192,-3.249,-1.957,-0.035,-0.0830,-0.0482
8962,0.0132,-0.0072,-0.0059,-0.03,-0.33,-0.48,0.192,-3.634,-0.734,-0.384,-0.0807,-0.0500
8972,0.0137,-0.0071,-0.0054,-0.06,-0.31,-0.47,0.192,-1.198,-0.145,0.452,-0.0805,-0.0502
8982,0.0116,-0.0084,-0.0029,-0.07,-0.28,-0.47,0.192,-1.277,0.552,0.366,-0.0807,-0.0511
8992,0.0183,-0.0130,-0.0026,-0.06,-0.30,-0.47,0.193,0.179,0.044,0.636,-0.0778,-0.0509
9002,0.0188,-0.0129,-0.0023,-0.08,-0.29,-0.48,0.193,0.284,-0.202,0.888,-0.0834,-0.0507
9012,0.0183,-0.0151,-0.0019,-0.08,-0.28,-0.47,0.193,0.844,-0.484,0.678,-0.0816,-0.0506
9022,0.0265,-0.0140,0.0022,-0.11,-0.33,-0.47,0.193,1.705,-0.332,0.503,-0.0782,-0.0506
9032,0.0105,-0.0129,0.0027,-0.13,-0.22,-0.46,0.193,0.594,0.407,0.465,-0.0806,-0.0512
9042,0.0155,-0.0120,0.0033,-0.13,-0.25,-0.46,0.193,0.621,0.794,0.444,-0.0834,-0.0501
9052,0.0252,-0.0114,0.0039,-0.14,-0.30,-0.46,0.192,1.715,0.887,0.496,-0.0834,-0.0507
9062,0.0183,-0.0125,0.0042,-0.12,-0.26,-0.45,0.192,-0.475,-0.062,0.969,-0.0812,-0.0513
9072,0.0101,-0.0088,0.0045,-0.13,-0.21,-0.45,0.192,1.345,1.221,0.494,-0.0834,-0.0508
9082,0.0102,-0.0102,0.0044,-0.11,-0.22,-0.44,0.192,-0.387,0.045,0.238,-0.0833,-0.0509
