time_ms,vel_x,vel_y,vel_z,roll,pitch,yaw,range_z,gyro_x,gyro_y,gyro_z,ekf_x,ekf_y,acc_x,acc_y,acc_z,ref_x,ref_y,ref_z,est_x,est_y
0,-0.0256,0.1075,0.0027,-0.10,0.00,0.01,0.015,0.007,-0.025,-0.297,-0.0268,0.1003,0.0002,0.0064,1.0007,0.0000,0.0000,0.2200,0.0000,0.0000
9,-0.0256,0.1081,0.0027,-0.10,0.00,0.01,0.015,-0.021,0.122,0.092,-0.0271,0.1014,0.0019,0.0055,1.0002,0.0000,0.0000,0.2200,0.0000,0.0000
21,-0.0256,0.1085,0.0044,-0.11,0.00,0.01,0.015,0.061,0.129,-0.152,-0.0273,0.1025,-0.0001,-0.0003,1.0010,0.0000,0.0000,0.2200,0.0000,0.0000
29,-0.0257,0.1091,0.0045,-0.11,0.00,0.00,0.015,0.477,-0.085,0.272,-0.0276,0.1036,-0.0070,-0.0073,0.9996,0.0000,0.0000,0.2200,0.0000,0.0000
39,-0.0257,0.1098,0.0043,-0.10,0.00,0.00,0.015,-0.103,-0.175,-0.076,-0.0279,0.1047,-0.0064,-0.0192,0.9947,0.0000,0.0000,0.2200,0.0000,0.0000
49,-0.0257,0.1106,0.0043,-0.10,0.00,0.00,0.012,-0.883,-0.481,1.089,-0.0282,0.1065,0.0050,0.0017,0.9834,0.0000,0.0000,0.2200,0.0000,0.0000
59,-0.0256,0.1113,0.0043,-0.10,0.00,0.00,0.012,-0.883,-0.859,2.217,-0.0285,0.1076,-0.0098,0.0240,0.9920,0.0000,0.0000,0.2200,0.0000,0.0000
69,-0.0256,0.1116,0.0045,-0.10,0.00,0.00,0.012,-0.646,0.213,0.621,-0.0287,0.1088,-0.0014,0.0007,1.0004,0.0000,0.0000,0.2200,0.0000,0.0000
79,-0.0263,0.1126,-0.0016,-0.11,0.00,0.00,0.012,-0.155,0.475,0.200,-0.0290,0.1099,-0.0074,0.0106,1.0067,0.0000,0.0000,0.2200,0.0000,0.0000
89,-0.0263,0.1128,-0.0017,-0.11,0.01,0.00,0.013,-0.907,0.218,0.954,-0.0293,0.1110,0.0115,0.0221,1.0006,0.0000,0.0000,0.2200,0.0000,0.0000
99,-0.0263,0.1130,-0.0017,-0.11,0.01,-0.01,0.013,-0.754,-0.114,0.929,-0.0295,0.1123,0.0030,0.0073,0.9802,0.0000,0.0000,0.2200,0.0000,0.0000
109,-0.0263,0.1131,-0.0022,-0.12,0.01,0.00,0.013,-2.132,-0.805,-4.696,-0.0301,0.1146,0.0114,-0.0032,0.9949,0.0000,0.0000,0.2200,0.0000,0.0000
119,-0.0263,0.1135,-0.0033,-0.12,0.01,0.00,0.013,-2.164,1.923,-1.922,-0.0301,0.1146,0.0101,-0.0207,1.0217,0.0000,0.0000,0.2200,0.0000,0.0000
129,-0.0264,0.1137,-0.0029,-0.13,0.00,0.02,0.013,-4.826,1.943,-1.002,-0.0306,0.1169,0.0106,-0.0068,1.0138,0.0000,0.0000,0.2200,0.0000,0.0000
139,-0.0264,0.1139,-0.0032,-0.13,0.00,0.01,0.013,2.976,-6.279,3.153,-0.0306,0.1169,0.0070,-0.0034,0.9272,0.0000,0.0000,0.2200,0.0000,0.0000
149,-0.0264,0.1142,-0.0031,-0.14,0.01,-0.02,0.015,-1.754,-10.451,6.236,-0.0311,0.1187,0.0066,-0.0124,1.0533,0.0000,0.0000,0.2200,0.0000,0.0000
159,-0.0264,0.1144,-0.0043,-0.17,-0.00,-0.04,0.015,1.727,-2.251,3.207,-0.0311,0.1187,0.0207,-0.0187,0.9881,0.0000,0.0000,0.2200,0.0000,0.0000
169,-0.0264,0.1147,-0.0019,-0.16,0.02,-0.04,0.015,-8.027,7.485,-3.107,-0.0316,0.1210,-0.0018,-0.0047,1.0408,0.0000,0.0000,0.2200,0.0000,0.0000
179,-0.0264,0.1145,0.0019,-0.15,0.02,0.01,0.015,-0.042,-23.677,-7.784,-0.0316,0.1210,-0.0051,-0.0166,1.0184,0.0000,0.0000,0.2200,0.0000,0.0000
189,-0.0264,0.1147,-0.0018,-0.15,0.01,0.06,0.016,9.328,2.637,-11.144,-0.0321,0.1233,0.0152,-0.0188,1.0341,0.0000,0.0000,0.2200,0.0000,0.0000
199,-0.0264,0.1150,0.0033,-0.12,-0.01,0.06,0.016,0.312,2.788,-9.283,-0.0321,0.1228,0.0190,-0.0124,1.0547,0.0000,0.0000,0.2200,0.0000,0.0000
209,-0.0264,0.1152,0.0048,-0.14,0.06,0.01,0.016,-15.314,-10.705,-10.471,-0.0324,0.1241,0.0108,-0.0128,1.0869,0.0000,0.0000,0.2200,0.0000,0.0000
219,-0.0264,0.1150,0.0110,-0.13,0.23,-0.08,0.016,-16.016,-22.995,-10.542,-0.0326,0.1252,0.0105,-0.0100,1.1093,0.0000,0.0000,0.2200,0.0000,0.0000
229,-0.0269,0.1153,0.0134,-0.07,0.18,-0.19,0.016,-18.371,-27.840,-6.338,-0.0329,0.1264,0.0091,-0.0111,1.1164,0.0000,0.0000,0.2200,0.0000,0.0000
239,-0.0272,0.1154,0.0160,-0.14,0.22,-0.30,0.016,-21.107,-25.194,-8.471,-0.0332,0.1275,0.0136,-0.0138,1.1293,0.0000,0.0000,0.2200,0.0000,0.0000
249,-0.0276,0.1156,0.0208,-0.28,0.39,-0.40,0.016,-21.282,-29.146,-7.607,-0.0335,0.1287,0.0140,-0.0154,1.1568,0.0000,0.0000,0.2200,0.0000,0.0000
259,-0.0284,0.1162,0.0283,-0.46,0.66,-0.48,0.016,-19.693,-32.428,-9.961,-0.0338,0.1299,0.0110,-0.0212,1.1616,0.0000,0.0000,0.2200,0.0000,0.0000
269,-0.0296,0.1171,0.0384,-0.64,0.92,-0.55,0.016,-28.168,-34.930,-11.177,-0.0341,0.1311,0.0125,-0.0209,1.1648,0.0000,0.0000,0.2200,0.0000,0.0000
279,-0.0314,0.1184,0.0499,-0.86,1.18,-0.63,0.016,-30.133,-25.238,-11.935,-0.0344,0.1323,0.0125,-0.0247,1.1766,0.0000,0.0000,0.2200,0.0000,0.0000
289,-0.0338,0.1201,0.0622,-1.05,1.49,-0.71,0.008,-24.038,-24.992,-10.636,-0.0348,0.1335,0.0125,-0.0165,1.1776,0.0000,0.0000,0.2200,0.0000,0.0000
299,-0.0368,0.1223,0.0770,-1.28,1.83,-0.80,0.008,-11.115,-23.263,-12.056,-0.0372,0.1378,0.0154,-0.0072,1.1643,0.0000,0.0000,0.2200,0.0000,0.0000
310,-0.0404,0.1250,0.0930,-1.58,2.12,-0.91,0.008,-8.964,-13.694,-11.768,-0.0377,0.1391,0.0089,-0.0074,1.1390,0.0000,0.0000,0.2200,0.0000,0.0000
319,-0.0464,0.1310,0.0824,-1.85,2.38,-1.02,0.008,-0.460,-5.928,-11.571,0.3250,0.1030,0.0049,-0.0172,1.1452,0.0000,0.0000,0.2200,0.0000,0.0000
330,-0.0512,0.1349,0.0993,-2.01,2.64,-1.12,0.008,3.322,-0.935,-14.547,0.2913,0.0291,0.0025,-0.0148,1.1710,0.0000,0.0000,0.2200,0.0000,0.0000
339,-0.0565,0.1391,0.1164,-2.09,2.82,-1.23,0.008,13.963,6.722,-14.377,0.1844,0.1634,0.0042,-0.0181,1.1586,0.0000,0.0000,0.2200,0.0000,0.0000
349,0.2645,0.1095,0.1293,-2.05,2.06,-1.36,0.000,30.651,5.732,-12.429,0.1707,0.0511,0.0041,-0.0218,1.1531,0.0000,0.0000,0.2200,0.0000,0.0000
359,0.2278,0.0462,0.1448,-1.85,2.18,-1.50,0.000,44.150,7.571,-13.097,0.2429,-0.0815,-0.0000,-0.0213,1.1408,0.0000,0.0000,0.2200,0.0000,0.0000
369,0.1249,0.1710,0.1657,-2.07,2.42,-1.64,0.000,48.451,13.464,-13.531,0.2313,-0.0965,0.0007,-0.0201,1.1240,0.0000,0.0000,0.2200,0.0000,0.0000
380,0.1072,0.0716,0.1346,-1.57,2.39,-1.78,0.000,40.502,22.852,-14.797,0.2051,-0.0727,0.0116,-0.0198,1.1124,0.0000,0.0000,0.2200,0.0000,0.0000
389,0.1682,-0.0485,0.1471,-0.83,2.14,-1.92,0.013,33.011,23.082,-14.496,0.2633,-0.1053,0.0098,-0.0266,1.1115,0.0000,0.0000,0.2200,0.0000,0.0000
400,0.1515,-0.0606,0.1616,-0.31,2.06,-2.05,0.013,24.201,13.705,-13.283,0.2195,-0.0788,0.0071,-0.0273,1.1070,0.0000,0.0000,0.2200,0.0000,0.0000
408,0.1207,-0.0363,0.1794,0.06,1.97,-2.19,0.013,11.508,4.497,-12.927,0.2415,-0.1052,0.0054,-0.0294,1.0839,0.0000,0.0000,0.2200,0.0000,0.0000
419,0.1716,-0.0693,0.1749,0.54,1.54,-2.34,0.013,2.327,-0.202,-11.267,0.2404,-0.1068,0.0004,-0.0189,1.0656,0.0000,0.0000,0.2200,0.0000,0.0000
430,0.1243,-0.0412,0.1920,0.73,1.52,-2.47,0.013,-13.873,-1.171,-10.792,0.2388,-0.0992,0.0050,-0.0200,1.0610,0.0000,0.0000,0.2200,0.0000,0.0000
439,0.1437,-0.0703,0.1996,1.00,1.35,-2.61,0.013,-28.133,-3.621,-10.849,0.2117,-0.0614,0.0018,-0.0187,1.0560,0.0000,0.0000,0.2200,0.0000,0.0000
449,0.1382,-0.0731,0.2102,1.07,1.34,-2.73,0.023,-40.619,0.005,-9.484,0.2032,-0.0575,0.0020,-0.0088,1.0608,0.0000,0.0000,0.2200,0.0000,0.0000
459,0.1320,-0.0652,0.2203,0.97,1.37,-2.84,0.023,-48.038,-3.393,-9.252,0.1969,-0.0486,0.0049,-0.0102,1.0563,0.0000,0.0000,0.2200,0.0000,0.0000
469,0.0934,-0.0189,0.2353,0.55,1.55,-2.92,0.023,-43.433,-7.912,-9.487,0.1943,-0.0475,0.0026,-0.0098,1.0483,0.0000,0.0000,0.2200,0.0000,0.0000
479,0.0801,-0.0146,0.2252,0.19,1.59,-3.02,0.023,-34.781,-11.700,-8.662,0.1949,-0.0465,0.0011,-0.0098,1.0392,0.0000,0.0000,0.2200,0.0000,0.0000
489,0.0671,-0.0019,0.2312,-0.30,1.66,-3.11,0.041,-20.035,-11.072,-8.336,0.1922,-0.0430,0.0039,-0.0082,1.0435,0.0000,0.0000,0.2200,0.0000,0.0000
499,0.0591,0.0005,0.2372,-0.77,1.75,-3.20,0.041,-9.826,-7.579,-6.867,0.1933,-0.0388,0.0011,-0.0121,1.0331,0.0000,0.0000,0.2200,0.0000,0.0000
510,0.0560,0.0038,0.2427,-1.16,1.85,-3.29,0.041,-2.284,-6.853,-5.097,0.1938,-0.0386,0.0013,-0.0122,1.0259,0.0000,0.0000,0.2200,0.0000,0.0000
519,0.0478,0.0124,0.2569,-1.46,2.01,-3.37,0.041,4.476,-4.414,-3.673,0.1955,-0.0300,0.0001,-0.0108,1.0180,0.0000,0.0000,0.2200,0.0000,0.0000
528,0.0428,0.0239,0.2605,-1.67,2.12,-3.43,0.041,12.970,0.729,-2.536,0.1959,-0.0285,0.0001,-0.0162,1.0114,0.0000,0.0000,0.2200,0.0000,0.0000
539,0.0392,0.0272,0.2645,-1.73,2.20,-3.49,0.041,19.234,2.203,0.727,0.1928,-0.0292,-0.0012,-0.0171,1.0009,0.0000,0.0000,0.2200,0.0000,0.0000
549,0.0387,0.0520,0.2662,-1.83,2.24,-3.51,0.056,23.000,4.367,2.111,0.1926,-0.0301,0.0045,-0.0195,0.9923,0.0000,0.0000,0.2200,0.0000,0.0000
558,0.0348,0.0582,0.2684,-1.76,2.26,-3.54,0.056,22.759,6.823,4.417,0.1933,-0.0311,0.0021,-0.0151,0.9847,0.0000,0.0000,0.2200,0.0000,0.0000
569,0.0194,0.0567,0.2710,-1.57,2.32,-3.55,0.056,21.855,8.459,3.568,0.1944,-0.0332,0.0012,-0.0157,0.9703,0.0000,0.0000,0.2200,0.0000,0.0000
579,0.0127,0.0540,0.2775,-1.31,2.30,-3.54,0.056,16.590,10.198,3.643,0.1926,-0.0318,0.0027,-0.0160,0.9645,0.0000,0.0000,0.2200,0.0000,0.0000
589,0.0120,0.0490,0.2782,-1.03,2.22,-3.52,0.082,10.113,10.509,5.012,0.1942,-0.0332,0.0049,-0.0154,0.9624,0.0000,0.0000,0.2200,0.0000,0.0000
599,0.0151,0.0343,0.2785,-0.69,2.09,-3.49,0.082,7.030,8.976,4.960,0.1952,-0.0330,0.0081,-0.0153,0.9657,0.0000,0.0000,0.2200,0.0000,0.0000
609,-0.0073,0.0435,0.2771,-0.56,2.14,-3.46,0.082,-0.548,9.019,6.951,0.1954,-0.0329,0.0075,-0.0190,0.9601,0.0000,0.0000,0.2200,0.0000,0.0000
619,0.0162,0.0213,0.3040,-0.26,1.83,-3.42,0.082,-3.940,8.109,7.047,0.1959,-0.0317,0.0078,-0.0141,0.9583,0.0000,0.0000,0.2200,0.0000,0.0000
629,0.0068,0.0213,0.3005,-0.16,1.77,-3.37,0.082,-6.234,7.210,6.950,0.1963,-0.0317,0.0090,-0.0138,0.9494,0.0000,0.0000,0.2200,0.0000,0.0000
639,0.0029,0.0259,0.2968,-0.17,1.69,-3.30,0.082,-6.273,7.074,7.204,0.1960,-0.0354,0.0100,-0.0148,0.9411,0.0000,0.0000,0.2200,0.0000,0.0000
649,-0.0125,0.0124,0.2936,-0.08,1.70,-3.26,0.088,-6.554,9.569,7.071,0.1961,-0.0357,0.0055,-0.0125,0.9376,0.0000,0.0000,0.2200,0.0000,0.0000
658,-0.0206,0.0154,0.2897,-0.15,1.67,-3.19,0.088,-3.102,12.014,8.616,0.1956,-0.0342,0.0073,-0.0130,0.9401,0.0000,0.0000,0.2200,0.0000,0.0000
669,-0.0201,0.0462,0.2856,-0.44,1.58,-3.08,0.088,-1.926,14.870,7.828,0.1948,-0.0338,0.0040,-0.0167,0.9340,0.0000,0.0000,0.2200,0.0000,0.0000
679,-0.0243,0.0514,0.2766,-0.54,1.51,-3.00,0.088,1.530,15.553,8.184,0.1942,-0.0344,0.0046,-0.0221,0.9319,0.0000,0.0000,0.2200,0.0000,0.0000
689,-0.0258,0.0474,0.2712,-0.55,1.40,-2.93,0.104,2.975,17.180,8.800,0.1964,-0.0264,0.0086,-0.0158,0.9324,0.0000,0.0000,0.2200,-0.0003,0.0005
699,-0.0253,0.0484,0.2652,-0.58,1.24,-2.85,0.104,7.551,16.377,9.723,0.1973,-0.0249,0.0067,-0.0175,0.9369,0.0000,0.0000,0.2200,-0.0005,0.0010
710,-0.0253,0.0540,0.2590,-0.61,1.07,-2.76,0.104,6.546,16.288,9.911,0.1968,-0.0245,0.0043,-0.0146,0.9393,0.0000,0.0000,0.2200,-0.0008,0.0015
718,-0.0378,0.0280,0.2628,-0.36,0.98,-2.72,0.104,7.329,13.265,9.490,0.1940,-0.0236,0.0069,-0.0157,0.9334,0.0000,0.0000,0.2200,-0.0011,0.0018
729,-0.0444,0.0245,0.2561,-0.27,0.86,-2.63,0.104,6.981,12.345,9.593,0.1968,-0.0288,0.0104,-0.0139,0.9373,0.0000,0.0000,0.2200,-0.0016,0.0020
740,-0.0456,0.0245,0.2494,-0.21,0.71,-2.53,0.104,4.775,5.827,10.151,0.1961,-0.0272,0.0110,-0.0143,0.9374,0.0000,0.0000,0.2200,-0.0020,0.0023
749,-0.0399,0.0228,0.2434,-0.12,0.51,-2.43,0.114,7.309,2.942,10.592,0.1965,-0.0260,0.0086,-0.0191,0.9293,0.0000,0.0000,0.2200,-0.0024,0.0025
760,-0.0494,0.0387,0.2369,-0.18,0.46,-2.32,0.114,2.590,-1.610,10.622,0.1950,-0.0254,0.0072,-0.0182,0.9269,0.0000,0.0000,0.2200,-0.0029,0.0029
768,-0.0495,0.0357,0.2307,-0.09,0.37,-2.22,0.114,0.919,-4.231,11.579,0.1934,-0.0244,0.0047,-0.0150,0.9266,0.0000,0.0000,0.2200,-0.0034,0.0032
778,-0.0517,0.0336,0.2185,-0.01,0.35,-2.12,0.114,1.192,-1.643,11.235,0.1929,-0.0241,0.0007,-0.0184,0.9282,0.0000,0.0000,0.2200,-0.0039,0.0036
789,-0.0500,0.0329,0.2124,0.03,0.32,-2.01,0.136,1.679,-1.346,11.658,0.1959,-0.0233,-0.0018,-0.0165,0.9259,0.0000,0.0000,0.2200,-0.0044,0.0039
799,-0.0477,0.0312,0.2058,0.07,0.33,-1.90,0.136,0.441,1.460,10.096,0.1934,-0.0248,0.0014,-0.0181,0.9222,0.0000,0.0000,0.2200,-0.0049,0.0042
809,-0.0482,0.0311,0.1987,0.08,0.36,-1.79,0.136,-1.581,5.152,11.998,0.1936,-0.0244,0.0090,-0.0146,0.9229,0.0000,0.0000,0.2200,-0.0054,0.0045
818,-0.0580,0.0307,0.2166,0.09,0.45,-1.67,0.136,-0.028,9.275,11.147,0.1922,-0.0235,0.0088,-0.0168,0.9238,0.0000,0.0000,0.2200,-0.0060,0.0048
829,-0.0562,0.0346,0.2096,0.07,0.42,-1.57,0.136,-0.376,10.858,11.297,0.1912,-0.0226,0.0058,-0.0129,0.9253,0.0000,0.0000,0.2200,-0.0065,0.0052
841,-0.0586,0.0345,0.2023,0.05,0.40,-1.45,0.136,2.912,12.492,11.512,0.1912,-0.0241,0.0033,-0.0146,0.9262,0.0000,0.0000,0.2200,-0.0071,0.0055
849,-0.0575,0.0331,0.1948,0.06,0.31,-1.34,0.142,4.292,13.279,10.580,0.1919,-0.0206,0.0087,-0.0123,0.9246,0.0000,0.0000,0.2200,-0.0077,0.0059
859,-0.0571,0.0318,0.1874,0.07,0.20,-1.23,0.142,1.963,12.910,11.517,0.1916,-0.0212,0.0094,-0.0135,0.9219,0.0000,0.0000,0.2200,-0.0083,0.0062
868,-0.0584,0.0358,0.1797,0.05,0.09,-1.11,0.142,5.548,12.019,10.129,0.1914,-0.0212,0.0088,-0.0115,0.9229,0.0000,0.0000,0.2200,-0.0089,0.0065
878,-0.0619,0.0288,0.1750,0.15,-0.02,-1.01,0.142,6.017,10.562,10.406,0.1926,-0.0201,0.0048,-0.0126,0.9269,0.0000,0.0000,0.2200,-0.0095,0.0068
888,-0.0626,0.0306,0.1676,0.16,-0.15,-0.89,0.147,2.503,7.238,10.146,0.1905,-0.0207,0.0072,-0.0145,0.9286,0.0000,0.0000,0.2200,-0.0101,0.0071
899,-0.0633,0.0310,0.1602,0.20,-0.27,-0.79,0.147,2.667,7.738,10.427,0.1906,-0.0203,0.0090,-0.0142,0.9265,0.0000,0.0000,0.2200,-0.0107,0.0074
908,-0.0671,0.0291,0.1524,0.27,-0.35,-0.69,0.147,-1.610,4.341,10.622,0.1898,-0.0196,0.0107,-0.0158,0.9284,0.0000,0.0000,0.2200,-0.0114,0.0077
918,-0.0633,0.0304,0.1428,0.30,-0.46,-0.58,0.147,-0.402,2.981,10.160,0.1934,-0.0085,0.0061,-0.0134,0.9281,0.0000,0.0000,0.2200,-0.0120,0.0080
929,-0.0640,0.0299,0.1356,0.32,-0.51,-0.48,0.147,2.890,1.198,9.698,0.1919,-0.0083,0.0067,-0.0134,0.9304,0.0000,0.0000,0.2200,-0.0127,0.0083
938,-0.0627,0.0284,0.1286,0.33,-0.57,-0.37,0.147,0.432,0.936,9.771,0.1911,-0.0102,0.0092,-0.0141,0.9347,0.0000,0.0000,0.2200,-0.0133,0.0086
949,-0.0717,0.0036,0.1214,0.54,-0.52,-0.27,0.157,1.266,0.470,9.062,0.1922,-0.0055,0.0047,-0.0118,0.9341,0.0000,0.0000,0.2200,-0.0140,0.0086
958,-0.0692,0.0024,0.1144,0.56,-0.55,-0.17,0.157,0.756,1.586,9.568,0.1903,-0.0085,0.0064,-0.0142,0.9338,0.0000,0.0000,0.2200,-0.0147,0.0087
968,-0.0680,0.0058,0.1075,0.54,-0.57,-0.08,0.157,1.461,1.433,9.149,0.1886,-0.0100,0.0103,-0.0136,0.9342,0.0000,0.0000,0.2200,-0.0154,0.0087
978,-0.0715,-0.0056,0.1040,0.64,-0.54,0.02,0.157,2.669,2.091,8.194,0.1903,-0.0093,0.0069,-0.0158,0.9372,0.0000,0.0000,0.2200,-0.0161,0.0087
988,-0.0680,0.0002,0.0977,0.59,-0.57,0.11,0.156,0.503,2.968,8.479,0.1884,-0.0098,0.0051,-0.0143,0.9374,0.0000,0.0000,0.2200,-0.0168,0.0087
999,-0.0646,0.0027,0.0913,0.57,-0.60,0.20,0.156,-0.942,3.006,6.457,0.1878,-0.0107,0.0039,-0.0181,0.9417,0.0000,0.0000,0.2200,-0.0174,0.0087
1008,-0.0692,0.0004,0.0846,0.60,-0.57,0.28,0.156,-2.873,4.456,7.856,0.1865,-0.0112,0.0045,-0.0153,0.9407,0.0000,0.0000,0.2200,-0.0181,0.0087
1018,-0.0653,0.0007,0.0699,0.59,-0.62,0.36,0.156,-1.115,4.055,8.041,0.1858,-0.0112,0.0078,-0.0162,0.9442,0.0000,0.0000,0.2200,-0.0188,0.0087
1028,-0.0640,0.0018,0.0631,0.58,-0.65,0.44,0.156,-0.536,5.132,8.064,0.1855,-0.0088,0.0076,-0.0130,0.9428,0.0000,0.0000,0.2200,-0.0194,0.0087
1038,-0.0614,0.0023,0.0570,0.54,-0.70,0.51,0.156,-0.702,4.456,6.382,0.1844,-0.0108,0.0088,-0.0122,0.9453,0.0000,0.0000,0.2200,-0.0200,0.0088
1048,-0.0600,0.0014,0.0513,0.53,-0.75,0.59,0.163,-4.310,2.967,6.863,0.1855,-0.0073,0.0104,-0.0151,0.9506,0.0000,0.0000,0.2200,-0.0206,0.0088
1059,-0.0596,-0.0055,0.0454,0.57,-0.79,0.68,0.163,-1.038,3.250,5.871,0.1840,-0.0089,0.0037,-0.0105,0.9507,0.0000,0.0000,0.2200,-0.0212,0.0087
1068,-0.0569,-0.0012,0.0400,0.52,-0.85,0.75,0.163,-0.979,2.464,6.123,0.1834,-0.0090,0.0042,-0.0140,0.9545,0.0000,0.0000,0.2200,-0.0218,0.0087
1078,-0.0603,-0.0115,0.0367,0.57,-0.84,0.82,0.163,-3.555,3.045,6.060,0.1825,-0.0093,0.0061,-0.0162,0.9558,0.0000,0.0000,0.2200,-0.0224,0.0086
1089,-0.0565,-0.0083,0.0314,0.53,-0.89,0.88,0.160,-2.321,2.373,5.815,0.1833,-0.0061,0.0076,-0.0125,0.9587,0.0000,0.0000,0.2200,-0.0230,0.0085
1098,-0.0550,-0.0091,0.0265,0.52,-0.92,0.94,0.160,-2.076,2.114,6.084,0.1825,-0.0066,0.0045,-0.0147,0.9586,0.0000,0.0000,0.2200,-0.0235,0.0084
1109,-0.0524,-0.0093,0.0217,0.49,-0.95,1.00,0.160,-1.947,1.542,6.048,0.1805,-0.0162,0.0081,-0.0185,0.9621,0.0000,0.0000,0.2200,-0.0240,0.0083
1118,-0.0547,-0.0198,0.0092,0.54,-0.95,1.07,0.160,-3.265,-0.533,5.863,0.1795,-0.0182,0.0063,-0.0165,0.9675,0.0000,0.0000,0.2200,-0.0246,0.0081
1128,-0.0521,-0.0195,0.0049,0.49,-0.97,1.13,0.160,-1.697,0.768,4.851,0.1797,-0.0146,0.0036,-0.0082,0.9665,0.0000,0.0000,0.2200,-0.0251,0.0079
1139,-0.0463,0.0081,0.0011,0.24,-1.02,1.17,0.160,-3.046,-1.210,4.859,0.1776,-0.0178,0.0039,-0.0099,0.9693,0.0000,0.0000,0.2200,-0.0256,0.0080
1149,-0.0430,0.0142,-0.0029,0.17,-1.04,1.22,0.163,0.054,-2.212,4.965,0.1784,-0.0140,0.0054,-0.0142,0.9720,0.0000,0.0000,0.2200,-0.0260,0.0082
1159,-0.0432,0.0030,-0.0065,0.24,-1.03,1.29,0.163,-0.516,-1.130,4.714,0.1765,-0.0179,0.0063,-0.0104,0.9739,0.0000,0.0000,0.2200,-0.0264,0.0082
1169,-0.0361,0.0133,-0.0098,0.14,-1.07,1.32,0.163,-0.648,-1.726,3.773,0.1766,-0.0138,0.0005,-0.0090,0.9736,0.0000,0.0000,0.2200,-0.0268,0.0083
1178,-0.0382,0.0008,-0.0115,0.23,-1.02,1.39,0.163,1.750,2.513,3.297,0.1752,-0.0171,0.0058,-0.0107,0.9767,0.0000,0.0000,0.2200,-0.0272,0.0083
1188,-0.0315,0.0139,-0.0145,0.11,-1.04,1.42,0.165,0.795,0.125,3.335,0.1749,-0.0170,0.0028,-0.0109,0.9772,0.0000,0.0000,0.2200,-0.0275,0.0085
1198,-0.0310,0.0000,-0.0172,0.22,-1.02,1.47,0.165,1.931,-0.784,4.009,0.1755,-0.0135,0.0029,-0.0084,0.9854,0.0000,0.0000,0.2200,-0.0278,0.0085
1208,-0.0257,0.0114,-0.0198,0.13,-1.06,1.49,0.165,0.458,-0.691,2.781,0.1753,-0.0135,0.0038,-0.0119,0.9817,0.0000,0.0000,0.2200,-0.0281,0.0086
1218,-0.0240,0.0112,-0.0163,0.14,-1.06,1.53,0.165,2.829,-0.292,2.306,0.1750,-0.0135,0.0049,-0.0159,0.9829,0.0000,0.0000,0.2200,-0.0283,0.0087
1228,-0.0251,-0.0019,-0.0186,0.26,-1.04,1.58,0.165,2.108,-1.209,2.227,0.1748,-0.0135,0.0072,-0.0150,0.9890,0.0000,0.0000,0.2200,-0.0286,0.0087
1238,-0.0233,-0.0023,-0.0208,0.27,-1.04,1.60,0.165,1.229,-0.826,1.929,0.1751,-0.0099,0.0054,-0.0154,0.9872,0.0000,0.0000,0.2200,-0.0288,0.0086
1249,-0.0215,-0.0027,-0.0224,0.30,-1.04,1.63,0.167,-0.427,-2.428,2.622,0.1748,-0.0089,0.0042,-0.0160,0.9882,0.0000,0.0000,0.2200,-0.0290,0.0086
1258,-0.0198,-0.0031,-0.0242,0.32,-1.02,1.66,0.167,1.176,-2.563,2.065,0.1748,-0.0090,0.0040,-0.0139,0.9867,0.0000,0.0000,0.2200,-0.0292,0.0086
1268,-0.0199,-0.0191,-0.0260,0.45,-1.00,1.69,0.167,-1.342,-1.406,1.446,0.1739,-0.0092,0.0024,-0.0114,0.9892,0.0000,0.0000,0.2200,-0.0294,0.0084
1278,-0.0174,-0.0251,-0.0159,0.49,-0.98,1.72,0.167,-1.754,-1.528,2.092,0.1738,-0.0095,0.0034,-0.0155,0.9910,0.0000,0.0000,0.2200,-0.0296,0.0081
1288,-0.0168,-0.0264,-0.0172,0.50,-0.94,1.74,0.161,-0.608,-1.109,1.206,0.1730,-0.0100,0.0042,-0.0148,0.9900,0.0000,0.0000,0.2200,-0.0297,0.0079
1298,-0.0116,-0.0275,-0.0184,0.51,-0.96,1.76,0.161,-3.100,-0.184,0.775,0.1729,-0.0103,0.0072,-0.0129,0.9895,0.0000,0.0000,0.2200,-0.0299,0.0076
1308,-0.0099,-0.0283,-0.0196,0.48,-0.94,1.78,0.161,-3.312,-0.995,0.200,0.1722,-0.0109,0.0030,-0.0171,0.9871,0.0000,0.0000,0.2200,-0.0300,0.0073
1318,-0.0051,-0.0275,-0.0258,0.46,-0.95,1.79,0.161,-1.597,-0.930,0.017,0.1722,-0.0112,0.0023,-0.0214,0.9904,0.0000,0.0000,0.2200,-0.0300,0.0070
1328,-0.0035,-0.0283,-0.0268,0.44,-0.94,1.79,0.161,-3.005,-1.345,0.201,0.1718,-0.0117,0.0036,-0.0192,0.9890,0.0000,0.0000,0.2200,-0.0300,0.0068
1338,0.0014,-0.0270,-0.0278,0.39,-0.96,1.79,0.161,-4.169,-0.478,0.197,0.1721,-0.0096,0.0047,-0.0176,0.9925,0.0000,0.0000,0.2200,-0.0300,0.0065
1349,0.0030,-0.0276,-0.0288,0.37,-0.95,1.79,0.161,-3.197,-0.019,0.355,0.1728,-0.0095,0.0075,-0.0134,0.9931,0.0000,0.0000,0.2200,-0.0300,0.0062
1358,0.0075,-0.0264,-0.0301,0.33,-0.96,1.79,0.161,-3.058,0.485,-0.265,0.1719,-0.0098,0.0011,-0.0144,0.9946,0.0000,0.0000,0.2200,-0.0299,0.0060
1369,0.0076,-0.0414,-0.0314,0.40,-0.94,1.81,0.161,-2.472,-0.820,-0.045,0.1720,-0.0103,0.0019,-0.0119,0.9954,0.0000,0.0000,0.2200,-0.0298,0.0055
1378,0.0058,-0.0460,-0.0321,0.38,-0.91,1.82,0.161,-1.661,-2.055,-0.958,0.1716,-0.0111,0.0055,-0.0089,0.9981,0.0000,0.0000,0.2200,-0.0298,0.0051
1388,0.0135,-0.0469,-0.0329,0.36,-0.96,1.82,0.160,-2.882,-1.291,-0.720,0.1718,-0.0116,0.0054,-0.0092,0.9967,0.0000,0.0000,0.2200,-0.0297,0.0046
1399,0.0151,-0.0474,-0.0335,0.33,-0.95,1.82,0.160,-2.366,-1.319,-0.567,0.1724,-0.0108,0.0032,-0.0129,0.9987,0.0000,0.0000,0.2200,-0.0295,0.0041
1408,0.0210,-0.0452,-0.0341,0.29,-0.97,1.80,0.160,-1.987,-2.451,-1.393,0.1728,-0.0107,0.0035,-0.0143,0.9991,0.0000,0.0000,0.2200,-0.0293,0.0037
1418,0.0226,-0.0456,-0.0336,0.26,-0.95,1.79,0.160,-2.707,-3.125,-1.389,0.1731,-0.0116,0.0021,-0.0093,0.9971,0.0000,0.0000,0.2200,-0.0291,0.0032
1428,0.0216,-0.0571,-0.0340,0.32,-0.91,1.80,0.160,-1.684,-3.261,-1.770,0.1730,-0.0125,0.0031,-0.0112,0.9960,0.0000,0.0000,0.2200,-0.0289,0.0027
1439,0.0220,-0.0629,-0.0345,0.34,-0.88,1.79,0.160,-2.603,-3.450,-1.854,0.1731,-0.0134,0.0024,-0.0131,0.9967,0.0000,0.0000,0.2200,-0.0286,0.0020
1449,0.0221,-0.0616,-0.0346,0.31,-0.85,1.78,0.158,-3.852,-3.546,-1.262,0.1733,-0.0142,0.0018,-0.0124,1.0004,0.0000,0.0000,0.2200,-0.0284,0.0014
1458,0.0270,-0.0587,-0.0347,0.27,-0.84,1.75,0.158,-4.217,-2.877,-1.002,0.1737,-0.0137,0.0007,-0.0105,0.9969,0.0000,0.0000,0.2200,-0.0281,0.0008
1469,0.0300,-0.0558,-0.0349,0.23,-0.82,1.73,0.158,-4.098,-3.204,-1.546,0.1742,-0.0141,0.0007,-0.0109,0.9974,0.0000,0.0000,0.2200,-0.0278,0.0003
1478,0.0313,-0.0525,-0.0340,0.20,-0.83,1.73,0.158,-3.889,-3.235,-1.727,0.1744,-0.0151,0.0033,-0.0120,0.9980,0.0000,0.0000,0.2200,-0.0275,-0.0003
1489,0.0312,-0.0654,-0.0347,0.26,-0.79,1.73,0.155,-3.608,-3.359,-1.806,0.1747,-0.0160,0.0018,-0.0090,1.0003,0.0000,0.0000,0.2200,-0.0272,-0.0009
1499,0.0308,-0.0698,-0.0352,0.25,-0.75,1.72,0.155,-5.211,-2.875,-1.254,0.1749,-0.0168,-0.0013,-0.0077,1.0048,0.0000,0.0000,0.2200,-0.0269,-0.0016
1509,0.0332,-0.0662,-0.0351,0.18,-0.73,1.70,0.155,-3.179,-2.324,-2.011,0.1753,-0.0175,-0.0034,-0.0101,1.0011,0.0000,0.0000,0.2200,-0.0266,-0.0023
1518,0.0354,-0.0628,-0.0383,0.12,-0.71,1.68,0.155,-4.477,-3.767,-1.668,0.1754,-0.0179,0.0014,-0.0120,1.0023,0.0000,0.0000,0.2200,-0.0262,-0.0029
1529,0.0390,-0.0593,-0.0385,0.06,-0.69,1.66,0.155,-2.867,-2.634,-1.923,0.1758,-0.0186,0.0033,-0.0129,1.0032,0.0000,0.0000,0.2200,-0.0258,-0.0035
1539,0.0394,-0.0562,-0.0386,-0.01,-0.66,1.64,0.155,-2.277,-3.754,-2.210,0.1763,-0.0193,0.0018,-0.0138,1.0040,0.0000,0.0000,0.2200,-0.0254,-0.0040
1549,0.0473,-0.0587,-0.0388,-0.03,-0.68,1.62,0.155,-0.281,-2.724,-2.374,0.1767,-0.0205,0.0017,-0.0143,1.0019,0.0000,0.0000,0.2200,-0.0250,-0.0046
1558,0.0503,-0.0570,-0.0384,-0.08,-0.66,1.60,0.155,-1.828,-3.227,-1.958,0.1773,-0.0204,0.0038,-0.0107,1.0016,0.0000,0.0000,0.2200,-0.0245,-0.0052
1569,0.0500,-0.0538,-0.0381,-0.13,-0.62,1.58,0.155,-1.064,-3.177,-1.518,0.1777,-0.0209,0.0011,-0.0151,1.0007,0.0000,0.0000,0.2200,-0.0240,-0.0057
1579,0.0538,-0.0338,-0.0343,-0.29,-0.61,1.54,0.155,-1.739,-2.142,-2.300,0.1784,-0.0213,0.0008,-0.0163,1.0018,0.0000,0.0000,0.2200,-0.0234,-0.0061
1588,0.0538,-0.0474,-0.0340,-0.20,-0.57,1.53,0.152,0.211,-2.723,-2.279,0.1789,-0.0218,0.0029,-0.0152,1.0027,0.0000,0.0000,0.2200,-0.0229,-0.0066
1598,0.0604,-0.0460,-0.0338,-0.22,-0.58,1.51,0.152,-1.249,-4.161,-2.031,0.1796,-0.0222,0.0040,-0.0133,1.0055,0.0000,0.0000,0.2200,-0.0223,-0.0070
1608,0.0586,-0.0505,-0.0336,-0.20,-0.52,1.50,0.152,-0.422,-4.226,-2.070,0.1802,-0.0227,0.0045,-0.0123,1.0071,0.0000,0.0000,0.2200,-0.0217,-0.0075
1618,0.0648,-0.0447,-0.0354,-0.25,-0.54,1.47,0.152,-1.127,-4.231,-1.877,0.1808,-0.0232,0.0022,-0.0125,1.0051,0.0000,0.0000,0.2200,-0.0210,-0.0080
1627,0.0626,-0.0464,-0.0352,-0.24,-0.49,1.45,0.152,-1.840,-4.596,-1.975,0.1815,-0.0236,0.0013,-0.0140,1.0052,0.0000,0.0000,0.2200,-0.0204,-0.0084
1638,0.0657,-0.0439,-0.0351,-0.27,-0.47,1.43,0.152,-1.709,-5.595,-1.991,0.1821,-0.0237,0.0003,-0.0126,1.0055,0.0000,0.0000,0.2200,-0.0198,-0.0089
1648,0.0658,-0.0414,-0.0347,-0.28,-0.42,1.40,0.149,-1.252,-5.302,-2.055,0.1828,-0.0239,-0.0023,-0.0126,1.0044,0.0000,0.0000,0.2200,-0.0191,-0.0093
1659,0.0687,-0.0443,-0.0343,-0.26,-0.39,1.39,0.149,-0.572,-4.853,-1.818,0.1836,-0.0241,-0.0016,-0.0119,1.0053,0.0000,0.0000,0.2200,-0.0184,-0.0097
1668,0.0732,-0.0112,-0.0332,-0.51,-0.38,1.34,0.149,-0.253,-3.932,-2.311,0.1843,-0.0242,0.0056,-0.0145,1.0059,0.0000,0.0000,0.2200,-0.0177,-0.0098
1677,0.0741,-0.0165,-0.0361,-0.48,-0.33,1.33,0.149,-0.158,-2.559,-1.944,0.1850,-0.0243,0.0016,-0.0200,1.0078,0.0000,0.0000,0.2200,-0.0169,-0.0100
1688,0.0735,-0.0148,-0.0355,-0.50,-0.27,1.31,0.146,1.334,-1.779,-2.199,0.1859,-0.0245,0.0027,-0.0139,1.0057,0.0000,0.0000,0.2200,-0.0162,-0.0102
1698,0.0729,-0.0132,-0.0350,-0.52,-0.21,1.29,0.146,2.475,-1.812,-1.916,0.1866,-0.0247,-0.0005,-0.0114,1.0077,0.0000,0.0000,0.2200,-0.0155,-0.0103
1707,0.0737,-0.0117,-0.0346,-0.52,-0.17,1.27,0.146,2.450,-1.115,-2.082,0.1874,-0.0248,0.0020,-0.0096,1.0067,0.0000,0.0000,0.2200,-0.0147,-0.0104
1718,0.0785,-0.0157,-0.0394,-0.48,-0.17,1.25,0.146,1.007,-1.568,-1.746,0.1881,-0.0249,0.0026,-0.0106,1.0071,0.0000,0.0000,0.2200,-0.0140,-0.0106
1729,0.0765,-0.0145,-0.0386,-0.47,-0.14,1.23,0.146,1.633,-2.318,-2.598,0.1891,-0.0250,0.0054,-0.0134,1.0089,0.0000,0.0000,0.2200,-0.0132,-0.0107
1739,0.0773,-0.0126,-0.0374,-0.42,-0.10,1.19,0.146,2.119,-3.454,-2.818,0.1898,-0.0253,0.0018,-0.0133,1.0140,0.0000,0.0000,0.2200,-0.0124,-0.0108
1748,0.0751,-0.0121,-0.0373,-0.42,-0.09,1.19,0.154,1.398,-3.080,-2.733,0.1908,-0.0254,0.0026,-0.0148,1.0142,0.0000,0.0000,0.2200,-0.0117,-0.0110
1758,0.0826,-0.0101,-0.0362,-0.40,-0.10,1.14,0.154,0.318,-3.360,-2.209,0.1914,-0.0256,-0.0012,-0.0134,1.0125,0.0000,0.0000,0.2200,-0.0108,-0.0111
1768,0.0788,-0.0152,-0.0360,-0.36,-0.08,1.14,0.154,-0.031,-2.713,-2.250,0.1923,-0.0257,0.0026,-0.0102,1.0121,0.0000,0.0000,0.2200,-0.0101,-0.0112
1778,0.0813,-0.0135,-0.0146,-0.34,-0.03,1.09,0.154,2.341,-2.551,-2.452,0.1931,-0.0258,0.0027,-0.0150,1.0081,0.0000,0.0000,0.2200,-0.0092,-0.0113
1788,0.0788,-0.0129,-0.0145,-0.35,-0.01,1.09,0.145,1.040,-3.672,-2.134,0.1941,-0.0263,0.0010,-0.0109,1.0115,0.0000,0.0000,0.2200,-0.0085,-0.0115
1798,0.0791,-0.0110,-0.0118,-0.35,0.05,1.05,0.145,1.104,-2.428,-2.416,0.1948,-0.0264,-0.0009,-0.0122,1.0128,0.0000,0.0000,0.2200,-0.0077,-0.0116
1808,0.0808,-0.0118,-0.0119,-0.35,0.03,1.05,0.145,2.912,-2.017,-1.941,0.1955,-0.0266,0.0024,-0.0137,1.0112,0.0000,0.0000,0.2200,-0.0069,-0.0117
1817,0.0820,-0.0173,-0.0179,-0.29,0.05,1.02,0.145,2.825,-2.021,-1.840,0.1964,-0.0267,0.0013,-0.0118,1.0076,0.0000,0.0000,0.2200,-0.0060,-0.0119
1828,0.0808,-0.0160,-0.0167,-0.28,0.09,1.00,0.145,2.339,-0.868,-1.960,0.1971,-0.0268,0.0026,-0.0125,1.0095,0.0000,0.0000,0.2200,-0.0052,-0.0120
1838,0.0782,-0.0149,-0.0156,-0.27,0.13,0.98,0.145,-0.575,-1.094,-2.332,0.1984,-0.0268,0.0033,-0.0122,1.0079,0.0000,0.0000,0.2200,-0.0044,-0.0122
1849,0.0797,-0.0140,-0.0146,-0.26,0.14,0.96,0.151,-0.445,-1.924,-1.764,0.1991,-0.0273,-0.0001,-0.0143,1.0100,0.0000,0.0000,0.2200,-0.0037,-0.0123
1858,0.0785,-0.0133,-0.0133,-0.23,0.17,0.94,0.151,0.510,-2.552,-2.560,0.2000,-0.0275,0.0030,-0.0143,1.0096,0.0000,0.0000,0.2200,-0.0029,-0.0125
1868,0.0853,-0.0122,-0.0127,-0.21,0.12,0.92,0.151,1.422,-1.478,-2.184,0.2007,-0.0276,-0.0039,-0.0169,1.0091,0.0000,0.0000,0.2200,-0.0020,-0.0126
1878,0.0818,-0.0165,-0.0004,-0.17,0.16,0.90,0.151,-0.472,-1.117,-2.581,0.2015,-0.0277,-0.0035,-0.0144,1.0063,0.0000,0.0000,0.2200,-0.0012,-0.0127
1887,0.0831,-0.0167,0.0005,-0.18,0.17,0.88,0.140,0.244,-0.834,-2.191,0.2026,-0.0277,0.0009,-0.0137,1.0053,0.0000,0.0000,0.2200,-0.0004,-0.0129
1898,0.0817,-0.0158,0.0014,-0.18,0.20,0.85,0.140,-0.071,-2.302,-2.697,0.2033,-0.0284,-0.0033,-0.0126,1.0069,0.0000,0.0000,0.2200,0.0005,-0.0131
1909,0.0804,-0.0149,0.0024,-0.17,0.22,0.83,0.140,-0.828,-3.115,-2.696,0.2041,-0.0285,-0.0035,-0.0151,1.0065,0.0000,0.0000,0.2200,0.0013,-0.0132
1918,0.0835,-0.0126,-0.0150,-0.19,0.20,0.81,0.140,-0.056,-3.004,-2.476,0.2047,-0.0286,0.0004,-0.0167,1.0072,0.0000,0.0000,0.2200,0.0021,-0.0133
1928,0.0820,-0.0181,-0.0141,-0.14,0.23,0.79,0.140,-1.074,-2.644,-2.859,0.2052,-0.0287,-0.0004,-0.0168,1.0049,0.0000,0.0000,0.2200,0.0029,-0.0135
1939,0.0817,-0.0170,-0.0135,-0.15,0.24,0.76,0.140,0.642,-2.721,-2.411,0.2069,-0.0287,-0.0001,-0.0162,0.9991,0.0000,0.0000,0.2200,0.0037,-0.0137
1948,0.0787,-0.0160,-0.0128,-0.16,0.29,0.73,0.150,0.579,-2.929,-2.102,0.2075,-0.0293,0.0009,-0.0156,1.0050,0.0000,0.0000,0.2200,0.0045,-0.0139
1958,0.0759,-0.0150,-0.0120,-0.17,0.34,0.71,0.150,-0.090,-3.448,-2.021,0.2083,-0.0297,0.0011,-0.0116,1.0100,0.0000,0.0000,0.2200,0.0053,-0.0140
1968,0.0846,-0.0140,-0.0119,-0.18,0.30,0.68,0.150,1.204,-1.581,-2.169,0.2090,-0.0298,-0.0001,-0.0136,1.0080,0.0000,0.0000,0.2200,0.0061,-0.0141
1978,0.0808,-0.0182,0.0025,-0.14,0.35,0.66,0.150,1.617,-2.048,-2.059,0.2102,-0.0299,-0.0006,-0.0163,1.0025,0.0000,0.0000,0.2200,0.0069,-0.0143
1988,0.0803,-0.0197,0.0028,-0.13,0.38,0.64,0.144,0.500,-1.125,-2.243,0.2109,-0.0300,-0.0002,-0.0111,1.0042,0.0000,0.0000,0.2200,0.0077,-0.0145
1997,0.0787,-0.0188,0.0029,-0.13,0.42,0.61,0.144,1.378,-0.459,-2.237,0.2116,-0.0309,-0.0006,-0.0082,1.0079,0.0000,0.0000,0.2200,0.0085,-0.0147
2007,0.0821,-0.0179,0.0033,-0.12,0.41,0.60,0.144,0.702,-0.760,-2.260,0.2123,-0.0310,0.0001,-0.0090,1.0053,0.0000,0.0000,0.2200,0.0093,-0.0149
2017,0.0802,-0.0170,-0.0018,-0.12,0.43,0.58,0.144,0.339,-0.859,-2.474,0.2131,-0.0311,0.0022,-0.0116,1.0049,0.0000,0.0000,0.2200,0.0101,-0.0151
2028,0.0786,-0.0226,-0.0011,-0.06,0.45,0.55,0.144,-0.185,-1.118,-2.355,0.2136,-0.0312,0.0011,-0.0127,1.0047,0.0000,0.0000,0.2200,0.0109,-0.0153
2037,0.0770,-0.0216,-0.0008,-0.06,0.47,0.53,0.144,-1.065,-1.125,-2.838,0.2152,-0.0312,-0.0020,-0.0113,1.0050,0.0000,0.0000,0.2200,0.0117,-0.0155
2048,0.0766,-0.0205,-0.0002,-0.06,0.47,0.51,0.152,-2.441,-1.599,-2.229,0.2158,-0.0321,0.0030,-0.0116,1.0068,0.0000,0.0000,0.2200,0.0125,-0.0157
2057,0.0738,-0.0193,0.0006,-0.08,0.50,0.48,0.152,-1.992,0.057,-2.108,0.2164,-0.0322,0.0028,-0.0084,1.0039,0.0000,0.0000,0.2200,0.0132,-0.0159
2067,0.0798,-0.0182,0.0007,-0.09,0.45,0.46,0.152,-1.885,-0.846,-2.187,0.2174,-0.0322,0.0004,-0.0131,1.0018,0.0000,0.0000,0.2200,0.0140,-0.0161
2078,0.0774,-0.0234,0.0157,-0.06,0.48,0.43,0.152,-1.604,-0.780,-2.222,0.2180,-0.0323,0.0016,-0.0158,1.0053,0.0000,0.0000,0.2200,0.0148,-0.0163
2087,0.0748,-0.0222,0.0162,-0.09,0.50,0.41,0.142,-1.809,-1.579,-2.019,0.2185,-0.0330,0.0007,-0.0141,1.0041,0.0000,0.0000,0.2200,0.0155,-0.0165
2097,0.0759,-0.0209,0.0167,-0.11,0.49,0.38,0.142,-1.346,-2.467,-1.910,0.2198,-0.0334,0.0030,-0.0098,1.0039,0.0000,0.0000,0.2200,0.0163,-0.0167
2108,0.0744,-0.0197,0.0173,-0.14,0.50,0.36,0.142,-1.081,-1.719,-1.534,0.2206,-0.0335,0.0028,-0.0072,1.0022,0.0000,0.0000,0.2200,0.0170,-0.0169
2118,0.0713,-0.0234,0.0028,-0.13,0.53,0.34,0.142,-1.211,-2.240,-2.173,0.2210,-0.0336,0.0009,-0.0118,1.0013,0.0000,0.0000,0.2200,0.0177,-0.0172
2127,0.0748,-0.0245,0.0029,-0.13,0.51,0.31,0.142,-1.005,-1.291,-1.811,0.2218,-0.0337,-0.0001,-0.0161,1.0012,0.0000,0.0000,0.2200,0.0185,-0.0174
2138,0.0745,-0.0232,0.0035,-0.15,0.53,0.29,0.142,-0.896,-1.255,-1.901,0.2230,-0.0337,0.0024,-0.0130,1.0026,0.0000,0.0000,0.2200,0.0192,-0.0177
2148,0.0715,-0.0219,0.0039,-0.17,0.56,0.28,0.147,-1.170,-0.823,-2.335,0.2243,-0.0333,0.0012,-0.0097,1.0020,0.0000,0.0000,0.2200,0.0199,-0.0179
2157,0.0712,-0.0206,0.0043,-0.19,0.58,0.26,0.147,-1.228,-0.762,-2.072,0.2245,-0.0367,0.0032,-0.0134,1.0028,0.0000,0.0000,0.2200,0.0207,-0.0181
2170,0.0734,-0.0192,0.0043,-0.20,0.57,0.24,0.147,-1.510,-0.489,-1.858,0.2254,-0.0370,0.0007,-0.0156,1.0010,0.0000,0.0000,0.2200,0.0214,-0.0183
2177,0.0769,-0.0142,0.0055,-0.25,0.55,0.23,0.147,-1.085,-0.546,-2.048,0.2262,-0.0362,-0.0007,-0.0132,1.0026,0.0000,0.0000,0.2200,0.0222,-0.0184
2187,0.0715,-0.0368,0.0057,-0.10,0.59,0.19,0.142,-0.264,0.499,-1.836,0.2265,-0.0376,0.0010,-0.0118,1.0018,0.0000,0.0000,0.2200,0.0229,-0.0188
2198,0.0713,-0.0363,0.0059,-0.11,0.60,0.17,0.142,0.370,-0.009,-1.967,0.2269,-0.0381,0.0015,-0.0100,1.0051,0.0000,0.0000,0.2200,0.0236,-0.0191
2207,0.0711,-0.0282,0.0062,-0.18,0.59,0.16,0.142,-0.505,0.381,-1.541,0.2286,-0.0383,0.0032,-0.0158,1.0030,0.0000,0.0000,0.2200,0.0243,-0.0194
2217,0.0670,-0.0353,-0.0040,-0.14,0.62,0.13,0.142,0.472,-0.009,-2.034,0.2292,-0.0384,0.0005,-0.0112,1.0023,0.0000,0.0000,0.2200,0.0250,-0.0198
2227,0.0645,-0.0361,-0.0038,-0.14,0.62,0.11,0.142,-0.087,-0.716,-2.433,0.2300,-0.0385,0.0020,-0.0089,1.0047,0.0000,0.0000,0.2200,0.0256,-0.0201
2237,0.0697,-0.0342,-0.0038,-0.15,0.57,0.09,0.142,0.877,-1.848,-1.485,0.2302,-0.0396,0.0004,-0.0116,1.0016,0.0000,0.0000,0.2200,0.0263,-0.0205
2248,0.0683,-0.0325,-0.0035,-0.16,0.57,0.07,0.153,-2.669,-1.023,-1.039,0.2304,-0.0448,0.0035,-0.0124,1.0025,0.0000,0.0000,0.2200,0.0270,-0.0208
2257,0.0683,-0.0309,-0.0030,-0.17,0.56,0.06,0.153,-0.671,-2.607,-1.214,0.2313,-0.0445,0.0041,-0.0114,1.0038,0.0000,0.0000,0.2200,0.0277,-0.0211
2267,0.0643,-0.0356,-0.0028,-0.14,0.58,0.03,0.153,-1.245,-2.235,-1.494,0.2319,-0.0451,-0.0011,-0.0100,1.0030,0.0000,0.0000,0.2200,0.0283,-0.0215
2277,0.0598,-0.0663,0.0160,0.08,0.63,-0.01,0.153,-2.289,-2.163,-2.020,0.2325,-0.0471,0.0016,-0.0128,1.0034,0.0000,0.0000,0.2200,0.0289,-0.0221
2287,0.0610,-0.0601,0.0167,0.01,0.63,-0.01,0.142,-2.538,-1.629,-1.496,0.2329,-0.0458,0.0024,-0.0119,1.0049,0.0000,0.0000,0.2200,0.0295,-0.0227
2298,0.0599,-0.0601,0.0168,0.00,0.65,-0.03,0.142,-2.796,-1.309,-1.980,0.2330,-0.0495,0.0032,-0.0135,1.0074,0.0000,0.0000,0.2200,0.0301,-0.0233
2309,0.0587,-0.0688,0.0166,0.05,0.67,-0.05,0.142,-4.264,-0.424,-1.260,0.2332,-0.0506,0.0028,-0.0144,1.0056,0.0000,0.0000,0.2200,0.0307,-0.0240
2317,0.0560,-0.0565,0.0025,-0.07,0.70,-0.06,0.142,-5.599,0.202,-0.886,0.2340,-0.0509,0.0049,-0.0163,1.0047,0.0000,0.0000,0.2200,0.0313,-0.0246
2327,0.0523,-0.0758,0.0021,0.05,0.73,-0.09,0.142,-5.070,0.837,-0.633,0.2345,-0.0516,0.0027,-0.0128,1.0024,0.0000,0.0000,0.2200,0.0318,-0.0253
2338,0.0488,-0.0774,0.0024,0.03,0.76,-0.11,0.142,-4.130,1.273,-0.803,0.2353,-0.0517,0.0023,-0.0098,1.0066,0.0000,0.0000,0.2200,0.0323,-0.0261
2347,0.0493,-0.0748,0.0030,-0.03,0.76,-0.12,0.150,-5.397,2.017,-0.226,0.2362,-0.0521,0.0045,-0.0139,1.0052,0.0000,0.0000,0.2200,0.0328,-0.0269
2358,0.0480,-0.0748,0.0037,-0.07,0.76,-0.13,0.150,-5.063,2.599,-0.814,0.2363,-0.0528,0.0022,-0.0135,1.0040,0.0000,0.0000,0.2200,0.0333,-0.0276
2368,0.0488,-0.0708,0.0044,-0.14,0.73,-0.13,0.150,-5.679,1.905,-0.639,0.2374,-0.0522,0.0039,-0.0136,1.0008,0.0000,0.0000,0.2200,0.0337,-0.0283
2378,0.0498,-0.0684,0.0132,-0.20,0.70,-0.14,0.150,-5.785,1.407,-0.362,0.2378,-0.0531,0.0036,-0.0153,1.0015,0.0000,0.0000,0.2200,0.0342,-0.0290
2388,0.0468,-0.0685,0.0136,-0.25,0.70,-0.14,0.140,-5.545,0.587,-0.742,0.2384,-0.0534,0.0017,-0.0116,1.0039,0.0000,0.0000,0.2200,0.0347,-0.0297
2397,0.0492,-0.0606,0.0145,-0.35,0.64,-0.14,0.140,-3.711,-0.924,-1.020,0.2391,-0.0534,0.0005,-0.0130,1.0059,0.0000,0.0000,0.2200,0.0352,-0.0303
2407,0.0475,-0.0621,0.0149,-0.39,0.63,-0.15,0.140,-3.468,-2.254,-1.411,0.2396,-0.0539,-0.0002,-0.0150,1.0047,0.0000,0.0000,0.2200,0.0357,-0.0309
2417,0.0468,-0.0592,-0.0029,-0.45,0.62,-0.16,0.140,-2.909,-1.976,-1.151,0.2404,-0.0539,0.0004,-0.0136,1.0012,0.0000,0.0000,0.2200,0.0361,-0.0315
2427,0.0476,-0.0555,-0.0028,-0.52,0.60,-0.17,0.140,-3.085,-2.622,-1.219,0.2419,-0.0540,-0.0016,-0.0135,1.0001,0.0000,0.0000,0.2200,0.0366,-0.0321
2437,0.0465,-0.0546,-0.0026,-0.57,0.61,-0.18,0.140,-1.483,-1.675,-1.553,0.2422,-0.0550,0.0003,-0.0119,1.0038,0.0000,0.0000,0.2200,0.0371,-0.0326
2447,0.0473,-0.0508,-0.0022,-0.63,0.62,-0.19,0.153,-1.408,-1.729,-0.868,0.2428,-0.0556,0.0012,-0.0136,1.0032,0.0000,0.0000,0.2200,0.0376,-0.0331
2457,0.0521,-0.0471,-0.0018,-0.68,0.59,-0.20,0.153,-1.776,-0.654,-0.235,0.2438,-0.0554,0.0041,-0.0152,1.0051,0.0000,0.0000,0.2200,0.0381,-0.0336
2467,0.0499,-0.0490,-0.0014,-0.69,0.63,-0.21,0.153,-1.151,-0.034,-0.136,0.2439,-0.0549,0.0024,-0.0140,1.0052,0.0000,0.0000,0.2200,0.0386,-0.0341
2478,0.0490,-0.0482,0.0168,-0.71,0.64,-0.23,0.153,0.103,-0.234,0.373,0.2442,-0.0560,0.0046,-0.0160,1.0084,0.0000,0.0000,0.2200,0.0391,-0.0346
2487,0.0511,-0.0434,0.0169,-0.75,0.63,-0.23,0.142,-0.737,-0.652,0.088,0.2447,-0.0564,0.0015,-0.0186,1.0024,0.0000,0.0000,0.2200,0.0396,-0.0350
2497,0.0478,-0.0374,0.0174,-0.80,0.65,-0.23,0.142,-1.155,-0.325,0.412,0.2475,-0.0552,0.0017,-0.0178,1.0033,0.0000,0.0000,0.2200,0.0401,-0.0354
2507,0.0460,-0.0397,0.0177,-0.79,0.66,-0.23,0.142,-1.101,-1.234,0.445,0.2475,-0.0550,0.0033,-0.0177,1.0030,0.0000,0.0000,0.2200,0.0405,-0.0358
2517,0.0447,-0.0381,0.0033,-0.80,0.66,-0.23,0.142,-0.057,-2.480,0.235,0.2480,-0.0547,0.0049,-0.0191,1.0031,0.0000,0.0000,0.2200,0.0410,-0.0361
2526,0.0556,-0.0293,0.0037,-0.86,0.58,-0.22,0.142,0.126,-2.263,0.021,0.2483,-0.0551,0.0035,-0.0194,1.0066,0.0000,0.0000,0.2200,0.0415,-0.0364
2538,0.0519,-0.0252,0.0044,-0.88,0.61,-0.21,0.142,-0.589,-1.956,0.383,0.2494,-0.0523,0.0021,-0.0178,1.0081,0.0000,0.0000,0.2200,0.0420,-0.0367
2547,0.0510,-0.0213,0.0046,-0.90,0.62,-0.21,0.154,-0.192,-2.954,0.593,0.2502,-0.0526,0.0024,-0.0141,1.0022,0.0000,0.0000,0.2200,0.0426,-0.0369
2557,0.0488,-0.0203,0.0049,-0.90,0.65,-0.21,0.154,-0.127,-3.101,0.863,0.2502,-0.0534,0.0033,-0.0134,1.0074,0.0000,0.0000,0.2200,0.0430,-0.0371
2567,0.0508,-0.0041,0.0050,-1.00,0.65,-0.20,0.154,0.960,-2.973,0.919,0.2505,-0.0551,0.0017,-0.0094,1.0092,0.0000,0.0000,0.2200,0.0435,-0.0372
2577,0.0514,-0.0038,0.0221,-0.99,0.66,-0.19,0.154,1.081,-2.654,1.139,0.2516,-0.0494,-0.0026,-0.0137,1.0062,0.0000,0.0000,0.2200,0.0441,-0.0372
2587,0.0478,-0.0060,0.0229,-0.96,0.71,-0.19,0.145,1.127,-2.177,1.042,0.2516,-0.0505,-0.0000,-0.0128,1.0049,0.0000,0.0000,0.2200,0.0445,-0.0372
2597,0.0455,-0.0121,0.0235,-0.90,0.75,-0.19,0.145,1.672,-0.335,0.963,0.2527,-0.0480,0.0015,-0.0139,1.0014,0.0000,0.0000,0.2200,0.0450,-0.0374
2607,0.0474,0.0177,0.0237,-1.10,0.76,-0.16,0.145,1.397,-0.763,1.331,0.2528,-0.0505,0.0035,-0.0139,1.0027,0.0000,0.0000,0.2200,0.0455,-0.0372
2617,0.0438,0.0133,0.0127,-1.04,0.80,-0.15,0.145,3.197,-0.329,0.672,0.2531,-0.0492,0.0000,-0.0145,1.0017,0.0000,0.0000,0.2200,0.0459,-0.0371
2628,0.0459,0.0264,0.0132,-1.11,0.79,-0.13,0.145,3.659,-0.328,1.022,0.2531,-0.0506,0.0003,-0.0130,1.0009,0.0000,0.0000,0.2200,0.0464,-0.0368
2637,0.0423,0.0148,0.0142,-1.00,0.82,-0.13,0.145,4.028,-0.441,1.268,0.2540,-0.0465,0.0051,-0.0126,1.0010,0.0000,0.0000,0.2200,0.0468,-0.0366
2647,0.0404,0.0222,0.0144,-1.02,0.83,-0.11,0.143,5.064,-0.973,0.887,0.2540,-0.0484,0.0049,-0.0184,0.9985,0.0000,0.0000,0.2200,0.0472,-0.0364
2657,0.0372,0.0159,0.0149,-0.93,0.84,-0.11,0.143,5.110,-0.732,1.178,0.2537,-0.0499,0.0059,-0.0160,0.9975,0.0000,0.0000,0.2200,0.0476,-0.0363
2667,0.0382,0.0363,0.0145,-1.03,0.83,-0.08,0.143,5.294,-1.264,1.093,0.2545,-0.0491,0.0046,-0.0127,0.9993,0.0000,0.0000,0.2200,0.0479,-0.0359
2677,0.0349,0.0277,0.0013,-0.92,0.85,-0.08,0.143,5.362,-1.947,1.378,0.2559,-0.0487,0.0032,-0.0127,0.9982,0.0000,0.0000,0.2200,0.0483,-0.0356
2688,0.0304,0.0207,0.0015,-0.81,0.88,-0.07,0.144,5.347,-1.521,0.942,0.2563,-0.0484,0.0076,-0.0199,0.9991,0.0000,0.0000,0.2200,0.0486,-0.0354
2698,0.0315,0.0246,0.0014,-0.78,0.87,-0.06,0.144,4.833,-0.734,1.342,0.2562,-0.0480,0.0082,-0.0173,1.0024,0.0000,0.0000,0.2200,0.0489,-0.0352
2707,0.0351,0.0268,0.0010,-0.74,0.85,-0.04,0.144,4.046,-1.546,1.356,0.2577,-0.0469,0.0059,-0.0168,1.0017,0.0000,0.0000,0.2200,0.0493,-0.0349
2717,0.0336,0.0280,-0.0054,-0.69,0.87,-0.03,0.144,3.176,-0.457,0.915,0.2580,-0.0465,0.0042,-0.0171,1.0010,0.0000,0.0000,0.2200,0.0496,-0.0346
2727,0.0306,0.0300,-0.0055,-0.64,0.89,-0.02,0.144,2.537,0.206,1.353,0.2583,-0.0462,0.0066,-0.0171,1.0034,0.0000,0.0000,0.2200,0.0499,-0.0343
2738,0.0344,0.0346,-0.0058,-0.62,0.87,-0.00,0.144,2.426,0.526,1.243,0.2587,-0.0458,0.0045,-0.0183,1.0042,0.0000,0.0000,0.2200,0.0503,-0.0340
2747,0.0329,0.0357,-0.0059,-0.58,0.88,0.01,0.143,2.079,0.876,0.846,0.2597,-0.0432,0.0057,-0.0200,1.0041,0.0000,0.0000,0.2200,0.0506,-0.0336
2758,0.0314,0.0367,-0.0056,-0.54,0.88,0.02,0.143,2.079,1.179,0.996,0.2600,-0.0427,0.0088,-0.0171,1.0011,0.0000,0.0000,0.2200,0.0509,-0.0333
2766,0.0298,0.0376,-0.0055,-0.52,0.88,0.03,0.143,2.167,1.288,1.365,0.2603,-0.0429,0.0069,-0.0174,1.0032,0.0000,0.0000,0.2200,0.0512,-0.0329
2777,0.0316,0.0483,-0.0108,-0.57,0.85,0.05,0.143,1.727,1.326,1.383,0.2600,-0.0438,0.0050,-0.0187,1.0037,0.0000,0.0000,0.2200,0.0515,-0.0324
2787,0.0301,0.0493,-0.0105,-0.54,0.84,0.06,0.152,1.666,0.620,1.373,0.2610,-0.0404,0.0076,-0.0172,1.0073,0.0000,0.0000,0.2200,0.0518,-0.0319
2797,0.0289,0.0473,-0.0099,-0.50,0.83,0.07,0.152,3.287,0.027,1.505,0.2612,-0.0397,0.0083,-0.0113,1.0039,0.0000,0.0000,0.2200,0.0521,-0.0314
2806,0.0247,0.0424,-0.0094,-0.44,0.84,0.08,0.152,4.626,-1.722,0.744,0.2609,-0.0423,0.0068,-0.0147,1.0031,0.0000,0.0000,0.2200,0.0523,-0.0310
2816,0.0267,0.0563,0.0086,-0.51,0.80,0.10,0.152,4.972,-1.422,1.106,0.2612,-0.0404,0.0061,-0.0131,1.0039,0.0000,0.0000,0.2200,0.0526,-0.0304
2827,0.0254,0.0572,0.0088,-0.50,0.79,0.12,0.152,3.879,-2.028,1.306,0.2615,-0.0405,0.0069,-0.0153,1.0076,0.0000,0.0000,0.2200,0.0529,-0.0299
2837,0.0213,0.0442,0.0099,-0.38,0.81,0.12,0.152,2.697,-1.608,1.276,0.2617,-0.0372,0.0052,-0.0140,1.0079,0.0000,0.0000,0.2200,0.0531,-0.0294
2846,0.0204,0.0513,0.0103,-0.39,0.82,0.13,0.143,2.474,-1.349,1.277,0.2620,-0.0375,0.0062,-0.0170,1.0003,0.0000,0.0000,0.2200,0.0533,-0.0289
2857,0.0193,0.0492,0.0107,-0.33,0.83,0.14,0.143,4.264,-1.948,1.202,0.2620,-0.0391,0.0057,-0.0146,1.0021,0.0000,0.0000,0.2200,0.0535,-0.0284
2866,0.0183,0.0617,0.0106,-0.39,0.84,0.16,0.143,3.639,-1.775,1.043,0.2623,-0.0392,0.0079,-0.0160,1.0030,0.0000,0.0000,0.2200,0.0537,-0.0278
2876,0.0173,0.0587,0.0009,-0.34,0.85,0.17,0.143,3.453,-1.309,1.458,0.2622,-0.0380,0.0081,-0.0162,0.9988,0.0000,0.0000,0.2200,0.0538,-0.0272
2887,0.0148,0.0502,0.0021,-0.25,0.88,0.17,0.143,3.236,-0.477,1.637,0.2625,-0.0392,0.0061,-0.0178,1.0002,0.0000,0.0000,0.2200,0.0540,-0.0267
2897,0.0139,0.0478,0.0025,-0.19,0.89,0.18,0.143,2.828,0.723,1.359,0.2622,-0.0387,0.0068,-0.0194,1.0015,0.0000,0.0000,0.2200,0.0541,-0.0262
2906,0.0115,0.0511,0.0025,-0.17,0.92,0.20,0.143,2.427,1.141,1.011,0.2622,-0.0392,0.0067,-0.0171,1.0016,0.0000,0.0000,0.2200,0.0542,-0.0257
2917,0.0109,0.0441,-0.0034,-0.09,0.92,0.20,0.143,2.475,1.907,1.571,0.2623,-0.0380,0.0068,-0.0163,1.0043,0.0000,0.0000,0.2200,0.0543,-0.0253
2927,0.0075,0.0447,-0.0033,-0.06,0.94,0.22,0.143,0.996,2.268,1.946,0.2623,-0.0374,0.0061,-0.0155,1.0043,0.0000,0.0000,0.2200,0.0544,-0.0248
2938,0.0057,0.0410,-0.0033,-0.01,0.93,0.23,0.143,2.354,1.994,0.934,0.2620,-0.0376,0.0085,-0.0163,1.0016,0.0000,0.0000,0.2200,0.0545,-0.0244
2947,0.0041,0.0443,-0.0033,-0.00,0.92,0.25,0.148,2.053,1.779,2.206,0.2627,-0.0337,0.0071,-0.0164,1.0038,0.0000,0.0000,0.2200,0.0545,-0.0240
2958,0.0025,0.0447,-0.0032,0.02,0.90,0.26,0.148,2.368,1.223,0.855,0.2634,-0.0331,0.0067,-0.0166,1.0043,0.0000,0.0000,0.2200,0.0545,-0.0235
2967,-0.0002,0.0423,-0.0029,0.06,0.89,0.28,0.148,-0.550,0.874,1.526,0.2634,-0.0338,0.0057,-0.0117,1.0054,0.0000,0.0000,0.2200,0.0545,-0.0231
2977,0.0012,0.0565,0.0046,-0.02,0.85,0.30,0.148,0.995,0.436,2.665,0.2631,-0.0332,0.0050,-0.0144,1.0046,0.0000,0.0000,0.2200,0.0546,-0.0226
2987,0.0025,0.0565,0.0050,0.00,0.81,0.32,0.149,2.485,-1.015,0.920,0.2631,-0.0326,0.0031,-0.0138,1.0027,0.0000,0.0000,0.2200,0.0546,-0.0220
2999,0.0012,0.0513,0.0054,0.05,0.80,0.33,0.149,-0.101,0.214,0.264,0.2630,-0.0321,0.0053,-0.0162,1.0058,0.0000,0.0000,0.2200,0.0546,-0.0215
3008,-0.0015,0.0516,0.0058,0.04,0.80,0.35,0.149,-1.691,-0.264,1.177,0.2630,-0.0318,0.0039,-0.0158,1.0038,0.0000,0.0000,0.2200,0.0546,-0.0210
3017,-0.0031,0.0517,0.0123,0.06,0.80,0.37,0.149,0.705,-1.238,1.777,0.2630,-0.0312,0.0035,-0.0163,1.0028,0.0000,0.0000,0.2200,0.0545,-0.0204
3028,-0.0044,0.0515,0.0130,0.08,0.81,0.38,0.149,-0.932,-0.487,0.781,0.2629,-0.0307,0.0067,-0.0113,1.0012,0.0000,0.0000,0.2200,0.0545,-0.0199
3038,-0.0056,0.0505,0.0134,0.08,0.81,0.39,0.149,2.375,-1.604,2.412,0.2633,-0.0300,0.0127,-0.0178,1.0025,0.0000,0.0000,0.2200,0.0544,-0.0194
3048,-0.0068,0.0508,0.0138,0.07,0.81,0.40,0.149,-0.886,-0.230,0.082,0.2626,-0.0287,0.0084,-0.0188,1.0007,0.0000,0.0000,0.2200,0.0544,-0.0189
3057,-0.0082,0.0506,0.0143,0.08,0.82,0.41,0.149,1.438,-0.506,2.112,0.2633,-0.0298,0.0054,-0.0187,0.9989,0.0000,0.0000,0.2200,0.0543,-0.0184
3069,-0.0078,0.0509,0.0145,0.07,0.82,0.42,0.149,0.382,0.217,0.758,0.2632,-0.0293,0.0052,-0.0170,1.0015,0.0000,0.0000,0.2200,0.0542,-0.0179
3078,-0.0118,0.0541,0.0167,0.07,0.85,0.44,0.149,1.771,0.750,0.438,0.2629,-0.0295,0.0060,-0.0165,1.0024,0.0000,0.0000,0.2200,0.0541,-0.0174
3088,-0.0098,0.0472,0.0171,0.11,0.82,0.44,0.149,3.224,0.733,1.141,0.2622,-0.0279,0.0098,-0.0181,1.0005,0.0000,0.0000,0.2200,0.0540,-0.0169
3097,-0.0112,0.0470,0.0173,0.13,0.83,0.46,0.149,3.837,1.111,2.202,0.2622,-0.0263,0.0055,-0.0186,0.9974,0.0000,0.0000,0.2200,0.0539,-0.0164
3108,-0.0134,0.0443,0.0173,0.15,0.83,0.47,0.149,2.398,1.882,-0.871,0.2621,-0.0258,0.0072,-0.0170,0.9995,0.0000,0.0000,0.2200,0.0538,-0.0160
3119,-0.0170,0.0487,0.0164,0.14,0.84,0.48,0.149,0.634,2.259,1.952,0.2618,-0.0270,0.0046,-0.0165,0.9997,0.0000,0.0000,0.2200,0.0536,-0.0155
3126,-0.0176,0.0531,0.0165,0.13,0.82,0.50,0.149,3.579,1.290,1.110,0.2619,-0.0261,0.0078,-0.0188,0.9988,0.0000,0.0000,0.2200,0.0534,-0.0150
3138,-0.0190,0.0528,0.0167,0.17,0.81,0.51,0.149,1.510,1.490,0.022,0.2620,-0.0255,0.0062,-0.0146,0.9990,0.0000,0.0000,0.2200,0.0532,-0.0144
3147,-0.0206,0.0455,0.0168,0.24,0.79,0.51,0.152,-0.988,1.747,-0.026,0.2613,-0.0255,0.0058,-0.0154,0.9970,0.0000,0.0000,0.2200,0.0530,-0.0140
3157,-0.0207,0.0469,0.0166,0.24,0.76,0.52,0.152,-1.871,1.898,1.090,0.2610,-0.0255,0.0065,-0.0159,0.9983,0.0000,0.0000,0.2200,0.0528,-0.0135
3167,-0.0209,0.0470,0.0165,0.27,0.74,0.53,0.152,-0.376,1.137,0.276,0.2608,-0.0255,0.0022,-0.0182,1.0006,0.0000,0.0000,0.2200,0.0526,-0.0130
3176,-0.0239,0.0445,0.0209,0.29,0.74,0.53,0.152,-0.944,1.590,0.925,0.2605,-0.0251,0.0031,-0.0175,0.9981,0.0000,0.0000,0.2200,0.0524,-0.0126
3186,-0.0252,0.0423,0.0208,0.29,0.72,0.53,0.150,-1.472,1.901,0.564,0.2602,-0.0247,0.0054,-0.0178,0.9987,0.0000,0.0000,0.2200,0.0521,-0.0122
3197,-0.0266,0.0400,0.0206,0.29,0.71,0.54,0.150,0.185,1.176,0.484,0.2599,-0.0248,0.0082,-0.0181,0.9978,0.0000,0.0000,0.2200,0.0518,-0.0118
3206,-0.0278,0.0395,0.0204,0.28,0.69,0.54,0.150,0.325,1.091,1.353,0.2596,-0.0245,0.0078,-0.0149,0.9948,0.0000,0.0000,0.2200,0.0516,-0.0114
3216,-0.0289,0.0389,0.0161,0.27,0.67,0.55,0.150,-0.743,1.096,0.556,0.2593,-0.0241,0.0062,-0.0122,0.9989,0.0000,0.0000,0.2200,0.0513,-0.0110
3226,-0.0300,0.0366,0.0161,0.28,0.66,0.56,0.150,0.605,-0.583,1.419,0.2586,-0.0246,0.0047,-0.0151,0.9966,0.0000,0.0000,0.2200,0.0510,-0.0106
3237,-0.0312,0.0361,0.0160,0.28,0.65,0.56,0.150,-1.167,-0.226,1.924,0.2575,-0.0247,0.0062,-0.0167,1.0005,0.0000,0.0000,0.2200,0.0507,-0.0103
3247,-0.0323,0.0356,0.0158,0.28,0.64,0.57,0.152,0.301,-0.148,1.815,0.2576,-0.0220,0.0021,-0.0144,0.9966,0.0000,0.0000,0.2200,0.0503,-0.0099
3256,-0.0348,0.0318,0.0154,0.30,0.64,0.58,0.152,0.298,0.195,1.211,0.2577,-0.0245,0.0074,-0.0148,0.9995,0.0000,0.0000,0.2200,0.0500,-0.0096
3266,-0.0388,0.0298,0.0151,0.31,0.67,0.59,0.152,1.587,0.170,0.820,0.2582,-0.0245,0.0077,-0.0146,0.9969,0.0000,0.0000,0.2200,0.0496,-0.0093
3277,-0.0382,0.0384,0.0151,0.24,0.66,0.62,0.152,1.291,0.774,1.371,0.2568,-0.0246,0.0090,-0.0158,0.9968,0.0000,0.0000,0.2200,0.0492,-0.0089
3287,-0.0374,0.0271,0.0151,0.33,0.65,0.63,0.154,-1.159,0.634,0.473,0.2563,-0.0244,0.0084,-0.0141,0.9966,0.0000,0.0000,0.2200,0.0488,-0.0086
3298,-0.0351,0.0252,0.0150,0.34,0.62,0.64,0.154,1.595,0.700,0.818,0.2557,-0.0244,0.0079,-0.0165,0.9976,0.0000,0.0000,0.2200,0.0485,-0.0084
3307,-0.0403,0.0234,0.0148,0.35,0.65,0.65,0.154,-1.995,1.823,0.781,0.2558,-0.0241,0.0060,-0.0185,1.0007,0.0000,0.0000,0.2200,0.0481,-0.0081
3316,-0.0414,0.0228,0.0173,0.36,0.64,0.66,0.154,-1.286,1.324,0.978,0.2559,-0.0229,0.0045,-0.0180,0.9969,0.0000,0.0000,0.2200,0.0477,-0.0079
3328,-0.0435,0.0210,0.0169,0.36,0.64,0.67,0.154,-0.288,1.321,1.747,0.2557,-0.0229,0.0088,-0.0171,0.9958,0.0000,0.0000,0.2200,0.0472,-0.0077
3336,-0.0423,0.0210,0.0166,0.37,0.62,0.67,0.154,-1.592,2.402,1.368,0.2540,-0.0264,0.0084,-0.0174,0.9915,0.0000,0.0000,0.2200,0.0468,-0.0075
3348,-0.0412,0.0239,0.0163,0.33,0.58,0.69,0.151,-0.631,1.715,0.827,0.2538,-0.0264,0.0088,-0.0157,0.9934,0.0000,0.0000,0.2200,0.0464,-0.0073
3357,-0.0416,0.0224,0.0162,0.32,0.56,0.70,0.151,0.182,1.043,2.006,0.2547,-0.0229,0.0094,-0.0151,0.9942,0.0000,0.0000,0.2200,0.0460,-0.0070
3367,-0.0473,0.0079,0.0161,0.41,0.58,0.71,0.151,-2.197,1.364,1.162,0.2548,-0.0226,0.0118,-0.0192,0.9929,0.0000,0.0000,0.2200,0.0455,-0.0069
3376,-0.0473,0.0069,0.0091,0.40,0.55,0.72,0.151,-0.000,0.325,1.551,0.2545,-0.0226,0.0087,-0.0192,0.9933,0.0000,0.0000,0.2200,0.0450,-0.0069
3387,-0.0431,0.0191,0.0087,0.30,0.50,0.74,0.154,-3.164,1.593,-0.071,0.2538,-0.0233,0.0041,-0.0156,0.9950,0.0000,0.0000,0.2200,0.0446,-0.0067
3396,-0.0420,0.0192,0.0080,0.29,0.47,0.75,0.154,-0.386,0.159,1.357,0.2539,-0.0225,0.0036,-0.0126,0.9987,0.0000,0.0000,0.2200,0.0442,-0.0065
3408,-0.0422,0.0179,0.0073,0.28,0.46,0.76,0.154,-0.636,0.346,-0.534,0.2535,-0.0224,0.0050,-0.0140,1.0036,0.0000,0.0000,0.2200,0.0438,-0.0063
3417,-0.0439,0.0140,0.0082,0.30,0.46,0.77,0.154,-0.308,0.547,1.117,0.2517,-0.0224,0.0073,-0.0191,0.9971,0.0000,0.0000,0.2200,0.0433,-0.0062
3428,-0.0427,0.0159,0.0076,0.25,0.43,0.78,0.154,0.351,0.173,-0.068,0.2518,-0.0228,0.0089,-0.0157,0.9962,0.0000,0.0000,0.2200,0.0429,-0.0060
3436,-0.0434,0.0155,0.0070,0.25,0.43,0.79,0.154,-1.351,0.846,-0.480,0.2519,-0.0209,0.0054,-0.0142,0.9924,0.0000,0.0000,0.2200,0.0425,-0.0059
3446,-0.0493,0.0144,0.0065,0.24,0.46,0.79,0.153,-4.772,1.096,0.956,0.2517,-0.0209,0.0027,-0.0152,0.9958,0.0000,0.0000,0.2200,0.0420,-0.0057
3457,-0.0476,0.0117,0.0068,0.26,0.44,0.79,0.153,-1.421,1.740,1.612,0.2514,-0.0208,0.0073,-0.0154,0.9976,0.0000,0.0000,0.2200,0.0415,-0.0056
3467,-0.0462,0.0180,0.0068,0.21,0.41,0.79,0.153,-0.983,2.245,0.061,0.2512,-0.0208,0.0079,-0.0142,0.9974,0.0000,0.0000,0.2200,0.0410,-0.0054
3477,-0.0460,0.0172,0.0044,0.19,0.39,0.79,0.153,-2.373,2.610,0.879,0.2506,-0.0226,0.0076,-0.0098,1.0005,0.0000,0.0000,0.2200,0.0406,-0.0053
3488,-0.0459,0.0164,0.0039,0.15,0.38,0.80,0.152,-0.744,1.950,1.412,0.2508,-0.0208,0.0077,-0.0086,0.9989,0.0000,0.0000,0.2200,0.0401,-0.0051
3497,-0.0456,0.0154,0.0033,0.15,0.35,0.81,0.152,0.523,1.694,0.771,0.2495,-0.0241,0.0116,-0.0083,0.9965,0.0000,0.0000,0.2200,0.0397,-0.0049
3506,-0.0466,0.0078,0.0031,0.18,0.33,0.81,0.152,0.621,1.479,0.796,0.2496,-0.0223,0.0113,-0.0151,0.9993,0.0000,0.0000,0.2200,0.0392,-0.0049
3516,-0.0448,0.0142,-0.0011,0.11,0.29,0.82,0.152,-0.913,1.836,1.503,0.2491,-0.0222,0.0093,-0.0145,0.9993,0.0000,0.0000,0.2200,0.0387,-0.0047
3526,-0.0485,0.0011,-0.0012,0.20,0.30,0.83,0.152,-2.359,1.441,-0.096,0.2486,-0.0221,0.0070,-0.0116,0.9987,0.0000,0.0000,0.2200,0.0383,-0.0047
3536,-0.0468,0.0075,-0.0010,0.15,0.27,0.84,0.152,-0.705,-0.124,1.587,0.2476,-0.0218,0.0066,-0.0142,1.0000,0.0000,0.0000,0.2200,0.0378,-0.0046
3546,-0.0473,0.0072,-0.0013,0.16,0.25,0.85,0.156,-1.962,0.650,0.998,0.2473,-0.0206,0.0076,-0.0197,0.9994,0.0000,0.0000,0.2200,0.0373,-0.0046
3557,-0.0477,0.0069,-0.0015,0.14,0.24,0.86,0.156,-0.539,0.472,0.377,0.2468,-0.0205,0.0069,-0.0167,1.0026,0.0000,0.0000,0.2200,0.0368,-0.0045
3566,-0.0503,0.0077,-0.0015,0.12,0.25,0.86,0.156,-0.357,0.003,0.734,0.2453,-0.0241,0.0040,-0.0152,1.0026,0.0000,0.0000,0.2200,0.0363,-0.0044
3577,-0.0500,0.0116,0.0052,0.08,0.24,0.88,0.156,0.030,0.018,1.471,0.2448,-0.0241,0.0070,-0.0182,1.0020,0.0000,0.0000,0.2200,0.0358,-0.0043
3586,-0.0504,0.0115,0.0051,0.06,0.24,0.89,0.156,0.417,0.971,0.908,0.2449,-0.0229,0.0071,-0.0182,0.9974,0.0000,0.0000,0.2200,0.0353,-0.0042
3597,-0.0542,-0.0025,0.0051,0.15,0.26,0.89,0.156,1.757,-1.161,1.412,0.2446,-0.0222,0.0094,-0.0181,0.9988,0.0000,0.0000,0.2200,0.0348,-0.0042
3607,-0.0546,-0.0028,0.0052,0.15,0.26,0.91,0.156,-0.366,1.644,0.387,0.2444,-0.0222,0.0054,-0.0147,1.0003,0.0000,0.0000,0.2200,0.0343,-0.0042
3616,-0.0526,0.0016,0.0089,0.12,0.24,0.92,0.156,0.837,-0.016,0.856,0.2433,-0.0246,0.0044,-0.0149,0.9976,0.0000,0.0000,0.2200,0.0337,-0.0042
3626,-0.0522,0.0042,0.0092,0.10,0.23,0.93,0.156,-1.897,-0.267,1.234,0.2428,-0.0247,0.0067,-0.0113,0.9984,0.0000,0.0000,0.2200,0.0332,-0.0042
3636,-0.0515,0.0036,0.0090,0.13,0.22,0.94,0.156,-0.941,0.135,0.974,0.2429,-0.0223,0.0076,-0.0128,0.9978,0.0000,0.0000,0.2200,0.0327,-0.0041
3646,-0.0539,-0.0057,0.0087,0.19,0.24,0.96,0.156,-1.359,-0.799,1.639,0.2414,-0.0259,0.0062,-0.0159,0.9980,0.0000,0.0000,0.2200,0.0321,-0.0042
3656,-0.0543,-0.0060,0.0087,0.20,0.24,0.97,0.156,0.976,0.143,1.644,0.2423,-0.0228,0.0053,-0.0199,0.9948,0.0000,0.0000,0.2200,0.0316,-0.0043
3666,-0.0523,0.0027,0.0087,0.13,0.22,0.98,0.156,-1.159,0.212,1.042,0.2418,-0.0228,0.0078,-0.0168,0.9942,0.0000,0.0000,0.2200,0.0311,-0.0042
3676,-0.0562,-0.0111,0.0092,0.22,0.25,0.99,0.156,-3.504,2.292,1.339,0.2407,-0.0243,0.0083,-0.0106,0.9944,0.0000,0.0000,0.2200,0.0305,-0.0043
3686,-0.0513,0.0006,0.0093,0.13,0.21,1.00,0.156,-1.984,0.763,0.972,0.2385,-0.0251,0.0087,-0.0168,0.9951,0.0000,0.0000,0.2200,0.0300,-0.0043
3696,-0.0517,0.0004,0.0091,0.12,0.21,1.01,0.156,0.212,1.014,0.759,0.2395,-0.0246,0.0063,-0.0173,0.9992,0.0000,0.0000,0.2200,0.0295,-0.0043
3707,-0.0539,-0.0055,0.0087,0.14,0.22,1.03,0.156,-2.216,2.053,0.895,0.2389,-0.0246,0.0068,-0.0135,1.0013,0.0000,0.0000,0.2200,0.0290,-0.0044
3716,-0.0605,-0.0085,0.0074,0.14,0.24,1.04,0.156,-3.218,0.780,0.963,0.2379,-0.0280,0.0051,-0.0108,0.9997,0.0000,0.0000,0.2200,0.0283,-0.0045
3726,-0.0551,-0.0067,0.0071,0.10,0.19,1.05,0.156,-2.536,0.860,0.806,0.2384,-0.0243,0.0051,-0.0106,0.9993,0.0000,0.0000,0.2200,0.0278,-0.0045
3736,-0.0556,-0.0063,0.0065,0.09,0.17,1.05,0.156,-1.556,1.424,1.792,0.2385,-0.0196,0.0079,-0.0142,1.0000,0.0000,0.0000,0.2200,0.0272,-0.0046
3746,-0.0574,-0.0191,0.0062,0.15,0.17,1.07,0.152,0.160,1.864,0.671,0.2379,-0.0208,0.0034,-0.0162,0.9958,0.0000,0.0000,0.2200,0.0267,-0.0048
3756,-0.0538,-0.0052,0.0065,0.03,0.13,1.08,0.152,0.695,2.005,1.703,0.2381,-0.0181,0.0043,-0.0150,0.9954,0.0000,0.0000,0.2200,0.0261,-0.0048
3766,-0.0518,0.0125,0.0066,-0.12,0.10,1.08,0.152,0.513,-0.177,1.566,0.2382,-0.0178,0.0060,-0.0146,0.9929,0.0000,0.0000,0.2200,0.0256,-0.0047
3776,-0.0520,0.0079,-0.0032,-0.10,0.09,1.10,0.152,1.511,0.618,0.288,0.2372,-0.0236,0.0073,-0.0135,0.9972,0.0000,0.0000,0.2200,0.0251,-0.0046
3786,-0.0498,0.0177,-0.0033,-0.16,0.06,1.10,0.157,1.119,-0.075,0.874,0.2369,-0.0248,0.0045,-0.0136,0.9988,0.0000,0.0000,0.2200,0.0246,-0.0045
3797,-0.0476,0.0185,-0.0035,-0.16,0.02,1.11,0.157,0.185,-0.748,0.092,0.2369,-0.0240,0.0044,-0.0172,1.0014,0.0000,0.0000,0.2200,0.0241,-0.0043
3806,-0.0494,-0.0034,-0.0036,-0.01,0.04,1.13,0.157,3.276,0.595,-0.002,0.2363,-0.0237,0.0063,-0.0178,1.0025,0.0000,0.0000,0.2200,0.0236,-0.0043
3816,-0.0487,-0.0079,0.0012,0.05,0.03,1.14,0.157,1.815,-1.277,0.470,0.2360,-0.0238,0.0058,-0.0174,0.9964,0.0000,0.0000,0.2200,0.0231,-0.0044
3826,-0.0468,-0.0048,0.0008,0.03,0.02,1.15,0.157,-0.487,-0.500,0.877,0.2356,-0.0239,0.0060,-0.0176,0.9975,0.0000,0.0000,0.2200,0.0227,-0.0044
3836,-0.0476,-0.0035,0.0006,0.04,0.03,1.15,0.157,-0.801,1.214,0.397,0.2354,-0.0238,0.0047,-0.0164,0.9992,0.0000,0.0000,0.2200,0.0222,-0.0045
3846,-0.0470,-0.0038,0.0006,0.07,0.02,1.15,0.154,-0.678,1.201,0.158,0.2350,-0.0239,0.0034,-0.0155,1.0005,0.0000,0.0000,0.2200,0.0217,-0.0045
3856,-0.0464,-0.0039,0.0008,0.08,0.03,1.16,0.154,-0.707,0.262,0.341,0.2351,-0.0249,0.0050,-0.0138,0.9989,0.0000,0.0000,0.2200,0.0213,-0.0046
3866,-0.0457,-0.0038,0.0007,0.07,0.03,1.16,0.154,-1.118,0.111,-0.025,0.2352,-0.0242,0.0048,-0.0123,0.9976,0.0000,0.0000,0.2200,0.0208,-0.0046
3876,-0.0457,-0.0039,-0.0033,0.06,0.01,1.17,0.154,-0.847,1.064,-0.884,0.2345,-0.0241,0.0091,-0.0107,1.0011,0.0000,0.0000,0.2200,0.0203,-0.0046
3886,-0.0450,-0.0081,-0.0034,0.09,0.00,1.17,0.157,-1.405,-0.139,-0.604,0.2335,-0.0241,0.0087,-0.0157,0.9997,0.0000,0.0000,0.2200,0.0199,-0.0047
3897,-0.0431,-0.0049,-0.0033,0.05,-0.01,1.17,0.157,-3.366,1.115,-0.888,0.2332,-0.0247,0.0064,-0.0195,0.9980,0.0000,0.0000,0.2200,0.0195,-0.0048
3906,-0.0438,-0.0046,-0.0034,0.04,-0.02,1.17,0.157,1.415,0.592,-0.568,0.2336,-0.0236,0.0030,-0.0167,1.0036,0.0000,0.0000,0.2200,0.0190,-0.0048
3916,-0.0462,-0.0045,0.0014,0.04,-0.01,1.16,0.157,-1.368,2.013,-0.714,0.2330,-0.0236,0.0038,-0.0162,1.0046,0.0000,0.0000,0.2200,0.0186,-0.0048
3926,-0.0455,-0.0067,0.0014,0.03,-0.01,1.16,0.157,1.245,1.676,-0.927,0.2326,-0.0236,0.0030,-0.0150,1.0025,0.0000,0.0000,0.2200,0.0181,-0.0049
3936,-0.0421,-0.0024,0.0015,-0.01,-0.05,1.15,0.157,-1.515,1.988,-1.166,0.2316,-0.0239,0.0057,-0.0136,1.0011,0.0000,0.0000,0.2200,0.0177,-0.0049
3947,-0.0427,-0.0021,0.0012,-0.02,-0.06,1.15,0.152,-1.065,2.500,-1.491,0.2318,-0.0235,0.0084,-0.0080,1.0038,0.0000,0.0000,0.2200,0.0173,-0.0050
3956,-0.0426,-0.0021,0.0015,-0.02,-0.08,1.14,0.152,0.587,1.264,-1.767,0.2301,-0.0265,0.0081,-0.0140,1.0033,0.0000,0.0000,0.2200,0.0168,-0.0050
3966,-0.0446,-0.0032,0.0018,-0.01,-0.08,1.13,0.152,0.843,-0.249,-1.113,0.2296,-0.0266,0.0077,-0.0199,0.9994,0.0000,0.0000,0.2200,0.0164,-0.0050
3976,-0.0422,-0.0015,-0.0063,-0.03,-0.11,1.12,0.152,-1.570,1.693,-1.345,0.2300,-0.0232,0.0073,-0.0190,1.0009,0.0000,0.0000,0.2200,0.0160,-0.0050
3987,-0.0468,-0.0129,-0.0063,0.06,-0.09,1.11,0.155,-0.380,1.445,-1.135,0.2296,-0.0232,0.0080,-0.0181,1.0002,0.0000,0.0000,0.2200,0.0155,-0.0052
3996,-0.0466,-0.0130,-0.0059,0.07,-0.10,1.09,0.155,2.272,0.201,-1.550,0.2287,-0.0313,0.0099,-0.0154,0.9990,0.0000,0.0000,0.2200,0.0150,-0.0053
4006,-0.0431,0.0006,-0.0054,-0.04,-0.13,1.07,0.155,0.821,-0.866,-0.897,0.2287,-0.0298,0.0043,-0.0174,1.0010,0.0000,0.0000,0.2200,0.0146,-0.0053
4016,-0.0429,0.0007,-0.0029,-0.05,-0.14,1.06,0.155,0.614,-1.324,-1.469,0.2283,-0.0301,0.0061,-0.0192,1.0005,0.0000,0.0000,0.2200,0.0142,-0.0053
4026,-0.0445,-0.0306,-0.0031,0.18,-0.13,1.07,0.155,1.085,0.141,-1.950,0.2278,-0.0303,0.0064,-0.0155,1.0039,0.0000,0.0000,0.2200,0.0137,-0.0056
4036,-0.0424,-0.0239,-0.0028,0.15,-0.14,1.05,0.155,0.208,-0.414,-1.471,0.2271,-0.0303,0.0018,-0.0145,1.0032,0.0000,0.0000,0.2200,0.0133,-0.0058
4046,-0.0422,-0.0242,-0.0029,0.16,-0.14,1.04,0.157,-1.426,-0.734,-1.668,0.2268,-0.0302,0.0022,-0.0179,1.0007,0.0000,0.0000,0.2200,0.0129,-0.0061
4056,-0.0419,-0.0244,-0.0028,0.16,-0.13,1.02,0.157,-1.316,-0.727,-1.186,0.2264,-0.0301,0.0089,-0.0200,0.9969,0.0000,0.0000,0.2200,0.0125,-0.0063
4066,-0.0428,-0.0236,-0.0027,0.16,-0.12,1.00,0.157,-0.231,1.173,-2.141,0.2260,-0.0303,0.0076,-0.0167,0.9992,0.0000,0.0000,0.2200,0.0120,-0.0065
4076,-0.0424,-0.0227,0.0036,0.15,-0.11,0.99,0.157,-1.063,0.156,-1.694,0.2245,-0.0344,0.0053,-0.0144,0.9999,0.0000,0.0000,0.2200,0.0116,-0.0068
4086,-0.0419,-0.0218,0.0040,0.13,-0.10,0.97,0.156,-2.591,-0.105,-2.213,0.2241,-0.0348,0.0042,-0.0145,1.0010,0.0000,0.0000,0.2200,0.0112,-0.0070
4096,-0.0417,-0.0220,0.0041,0.12,-0.11,0.96,0.156,-4.666,1.235,-2.097,0.2238,-0.0341,0.0083,-0.0159,1.0009,0.0000,0.0000,0.2200,0.0108,-0.0072
4106,-0.0455,-0.0368,0.0036,0.22,-0.08,0.95,0.156,-4.367,1.254,-1.817,0.2248,-0.0301,0.0095,-0.0166,1.0026,0.0000,0.0000,0.2200,0.0103,-0.0076
4117,-0.0454,-0.0372,0.0044,0.20,-0.08,0.93,0.156,-2.660,2.275,-2.077,0.2242,-0.0301,0.0062,-0.0116,1.0014,0.0000,0.0000,0.2200,0.0099,-0.0079
4126,-0.0445,-0.0336,0.0045,0.14,-0.10,0.90,0.156,-1.815,2.320,-2.508,0.2215,-0.0339,0.0030,-0.0139,0.9980,0.0000,0.0000,0.2200,0.0094,-0.0083
4135,-0.0391,-0.0175,0.0050,-0.01,-0.15,0.87,0.156,-2.459,1.803,-1.824,0.2200,-0.0362,0.0035,-0.0164,0.9960,0.0000,0.0000,0.2200,0.0090,-0.0085
4146,-0.0382,-0.0161,0.0051,-0.07,-0.17,0.85,0.154,-2.691,1.331,-2.169,0.2206,-0.0325,0.0048,-0.0159,0.9983,0.0000,0.0000,0.2200,0.0087,-0.0086
4156,-0.0479,-0.0305,0.0050,0.00,-0.12,0.84,0.154,-3.665,-0.657,-2.018,0.2203,-0.0354,0.0035,-0.0116,0.9961,0.0000,0.0000,0.2200,0.0082,-0.0089
4166,-0.0497,-0.0366,0.0050,0.03,-0.12,0.82,0.154,-0.821,0.500,-1.634,0.2204,-0.0351,0.0057,-0.0119,0.9977,0.0000,0.0000,0.2200,0.0077,-0.0093
4176,-0.0471,-0.0226,0.0009,-0.09,-0.16,0.79,0.154,-2.421,-2.329,-1.742,0.2201,-0.0332,0.0079,-0.0112,0.9986,0.0000,0.0000,0.2200,0.0072,-0.0095
4186,-0.0446,-0.0316,0.0005,-0.05,-0.18,0.77,0.155,-1.463,0.795,-2.328,0.2194,-0.0348,0.0044,-0.0141,0.9979,0.0000,0.0000,0.2200,0.0068,-0.0098
4196,-0.0437,-0.0302,0.0003,-0.07,-0.18,0.74,0.155,-4.448,-0.599,-2.835,0.2202,-0.0316,0.0056,-0.0137,1.0004,0.0000,0.0000,0.2200,0.0063,-0.0101
4207,-0.0417,-0.0211,0.0001,-0.14,-0.19,0.71,0.155,-2.399,-0.017,-1.037,0.2199,-0.0346,0.0065,-0.0159,0.9992,0.0000,0.0000,0.2200,0.0059,-0.0103
4215,-0.0436,-0.0269,-0.0008,-0.14,-0.17,0.70,0.155,-2.105,-1.621,-1.708,0.2203,-0.0326,0.0056,-0.0157,1.0017,0.0000,0.0000,0.2200,0.0055,-0.0106
4226,-0.0387,-0.0133,-0.0008,-0.25,-0.20,0.67,0.155,-3.497,-0.073,-1.918,0.2200,-0.0327,0.0023,-0.0161,0.9997,0.0000,0.0000,0.2200,0.0051,-0.0107
4237,-0.0380,-0.0238,-0.0010,-0.19,-0.20,0.65,0.155,-1.875,0.495,-2.156,0.2169,-0.0350,0.0028,-0.0196,0.9987,0.0000,0.0000,0.2200,0.0047,-0.0110
4246,-0.0346,-0.0148,-0.0010,-0.28,-0.22,0.63,0.153,-1.150,2.104,-2.163,0.2171,-0.0337,0.0052,-0.0133,0.9970,0.0000,0.0000,0.2200,0.0044,-0.0111
4256,-0.0342,-0.0143,-0.0010,-0.31,-0.22,0.61,0.153,1.279,1.270,-1.411,0.2172,-0.0333,0.0043,-0.0128,0.9987,0.0000,0.0000,0.2200,0.0040,-0.0113
4266,-0.0441,-0.0218,-0.0011,-0.29,-0.14,0.59,0.153,1.121,3.437,-1.984,0.2170,-0.0334,0.0067,-0.0120,0.9997,0.0000,0.0000,0.2200,0.0036,-0.0115
4275,-0.0416,-0.0157,-0.0058,-0.34,-0.17,0.57,0.153,2.702,1.234,-1.987,0.2160,-0.0334,0.0063,-0.0146,0.9985,0.0000,0.0000,0.2200,0.0032,-0.0116
4286,-0.0393,-0.0130,-0.0059,-0.36,-0.20,0.55,0.156,1.152,3.386,-2.642,0.2156,-0.0335,0.0065,-0.0157,1.0000,0.0000,0.0000,0.2200,0.0028,-0.0118
4296,-0.0383,-0.0120,-0.0061,-0.34,-0.22,0.54,0.156,-1.337,2.743,-2.094,0.2138,-0.0366,0.0071,-0.0167,1.0009,0.0000,0.0000,0.2200,0.0024,-0.0119
4306,-0.0402,-0.0112,-0.0064,-0.33,-0.23,0.51,0.156,-0.189,2.598,-2.519,0.2147,-0.0335,0.0067,-0.0158,1.0026,0.0000,0.0000,0.2200,0.0020,-0.0120
4315,-0.0399,-0.0107,-0.0018,-0.32,-0.25,0.50,0.156,0.852,0.046,-1.526,0.2143,-0.0336,0.0029,-0.0183,1.0037,0.0000,0.0000,0.2200,0.0016,-0.0121
4326,-0.0446,-0.0214,-0.0020,-0.24,-0.24,0.49,0.156,0.620,1.388,-1.418,0.2140,-0.0337,0.0050,-0.0202,1.0027,0.0000,0.0000,0.2200,0.0011,-0.0123
4335,-0.0391,-0.0083,-0.0018,-0.32,-0.30,0.46,0.156,-0.376,-1.186,-1.061,0.2132,-0.0336,0.0041,-0.0180,1.0012,0.0000,0.0000,0.2200,0.0007,-0.0124
4345,-0.0386,-0.0077,-0.0018,-0.33,-0.30,0.44,0.154,1.083,0.563,-1.017,0.2128,-0.0337,0.0069,-0.0189,1.0022,0.0000,0.0000,0.2200,0.0004,-0.0125
4355,-0.0381,-0.0072,-0.0016,-0.31,-0.31,0.43,0.154,-2.974,-0.113,-1.478,0.2121,-0.0335,0.0076,-0.0170,1.0010,0.0000,0.0000,0.2200,-0.0000,-0.0126
4366,-0.0390,-0.0061,-0.0012,-0.32,-0.30,0.42,0.154,1.120,-0.935,-2.109,0.2117,-0.0336,0.0058,-0.0165,1.0011,0.0000,0.0000,0.2200,-0.0004,-0.0126
4377,-0.0385,-0.0055,-0.0027,-0.32,-0.30,0.41,0.154,-0.233,-0.782,-1.824,0.2101,-0.0336,0.0045,-0.0150,1.0036,0.0000,0.0000,0.2200,-0.0008,-0.0127
4386,-0.0392,-0.0044,-0.0025,-0.33,-0.29,0.40,0.154,-1.265,-0.406,-1.133,0.2102,-0.0357,0.0056,-0.0157,1.0025,0.0000,0.0000,0.2200,-0.0012,-0.0127
4397,-0.0387,-0.0038,-0.0024,-0.34,-0.27,0.38,0.154,-1.054,0.179,-0.540,0.2107,-0.0319,0.0069,-0.0163,1.0038,0.0000,0.0000,0.2200,-0.0016,-0.0128
4405,-0.0429,-0.0031,-0.0024,-0.33,-0.24,0.37,0.154,0.940,0.198,-1.602,0.2108,-0.0340,0.0063,-0.0147,1.0035,0.0000,0.0000,0.2200,-0.0020,-0.0128
4416,-0.0402,-0.0101,-0.0028,-0.29,-0.25,0.37,0.154,2.333,-0.041,-0.537,0.2105,-0.0320,0.0066,-0.0140,1.0014,0.0000,0.0000,0.2200,-0.0024,-0.0129
4426,-0.0364,0.0050,-0.0025,-0.40,-0.27,0.34,0.154,2.480,0.578,-1.510,0.2090,-0.0358,0.0065,-0.0157,0.9998,0.0000,0.0000,0.2200,-0.0028,-0.0128
4435,-0.0342,-0.0024,-0.0022,-0.34,-0.28,0.34,0.154,1.857,0.631,-1.496,0.2100,-0.0321,0.0059,-0.0170,0.9995,0.0000,0.0000,0.2200,-0.0031,-0.0129
4445,-0.0335,0.0058,-0.0019,-0.38,-0.29,0.32,0.150,0.770,1.558,-2.582,0.2097,-0.0321,0.0063,-0.0172,1.0012,0.0000,0.0000,0.2200,-0.0035,-0.0128
4455,-0.0373,-0.0078,-0.0015,-0.27,-0.26,0.32,0.150,0.108,1.697,-0.917,0.2094,-0.0320,0.0023,-0.0147,1.0026,0.0000,0.0000,0.2200,-0.0038,-0.0129
4466,-0.0321,0.0064,-0.0012,-0.35,-0.30,0.30,0.150,2.122,1.647,-1.042,0.2086,-0.0322,0.0023,-0.0130,1.0025,0.0000,0.0000,0.2200,-0.0041,-0.0128
4475,-0.0315,0.0070,-0.0103,-0.34,-0.31,0.29,0.150,-2.269,1.543,-0.930,0.2075,-0.0361,0.0055,-0.0154,1.0019,0.0000,0.0000,0.2200,-0.0045,-0.0128
4485,-0.0309,0.0076,-0.0104,-0.32,-0.32,0.27,0.153,-0.401,-0.509,-1.791,0.2077,-0.0323,0.0071,-0.0171,0.9984,0.0000,0.0000,0.2200,-0.0048,-0.0127
4496,-0.0319,0.0073,-0.0103,-0.29,-0.32,0.26,0.153,0.132,-0.425,-1.022,0.2086,-0.0323,0.0059,-0.0193,0.9973,0.0000,0.0000,0.2200,-0.0051,-0.0126
4506,-0.0342,-0.0070,-0.0100,-0.18,-0.33,0.26,0.153,0.680,0.649,-1.733,0.2082,-0.0324,0.0098,-0.0200,1.0006,0.0000,0.0000,0.2200,-0.0054,-0.0127
4515,-0.0319,0.0077,-0.0077,-0.29,-0.34,0.23,0.153,-0.152,1.671,-1.160,0.2080,-0.0323,0.0104,-0.0179,1.0017,0.0000,0.0000,0.2200,-0.0057,-0.0126
4527,-0.0268,0.0077,-0.0075,-0.28,-0.37,0.22,0.153,-1.304,1.789,-1.294,0.2077,-0.0323,0.0049,-0.0216,1.0002,0.0000,0.0000,0.2200,-0.0060,-0.0125
4535,-0.0264,0.0076,-0.0076,-0.27,-0.37,0.21,0.153,-2.335,0.386,-1.362,0.2069,-0.0322,0.0049,-0.0173,1.0034,0.0000,0.0000,0.2200,-0.0063,-0.0124
4545,-0.0258,0.0081,-0.0078,-0.26,-0.38,0.20,0.155,1.138,-1.099,-2.209,0.2067,-0.0321,0.0047,-0.0140,1.0026,0.0000,0.0000,0.2200,-0.0065,-0.0124
4555,-0.0251,0.0085,-0.0078,-0.26,-0.40,0.18,0.155,0.182,-0.994,-1.841,0.2064,-0.0320,0.0051,-0.0104,1.0051,0.0000,0.0000,0.2200,-0.0068,-0.0123
4566,-0.0263,0.0089,-0.0077,-0.29,-0.40,0.17,0.155,-1.137,-1.324,-1.571,0.2055,-0.0320,0.0001,-0.0153,1.0072,0.0000,0.0000,0.2200,-0.0071,-0.0122
4575,-0.0257,0.0094,-0.0008,-0.29,-0.40,0.15,0.155,-1.555,0.561,-1.711,0.2053,-0.0319,0.0026,-0.0179,1.0030,0.0000,0.0000,0.2200,-0.0073,-0.0121
4586,-0.0250,0.0099,-0.0005,-0.29,-0.39,0.13,0.152,3.446,1.032,-1.683,0.2049,-0.0316,0.0068,-0.0125,1.0017,0.0000,0.0000,0.2200,-0.0076,-0.0120
4595,-0.0266,0.0101,-0.0003,-0.29,-0.36,0.12,0.152,5.125,0.552,-1.824,0.2055,-0.0304,0.0059,-0.0161,1.0025,0.0000,0.0000,0.2200,-0.0078,-0.0119
4606,-0.0260,0.0106,0.0001,-0.30,-0.35,0.10,0.152,4.792,0.910,-1.430,0.2038,-0.0307,0.0042,-0.0193,1.0031,0.0000,0.0000,0.2200,-0.0081,-0.0118
4615,-0.0255,0.0118,-0.0017,-0.29,-0.35,0.08,0.152,2.211,1.143,-1.112,0.2040,-0.0322,0.0085,-0.0189,1.0038,0.0000,0.0000,0.2200,-0.0083,-0.0117
4626,-0.0218,0.0161,-0.0013,-0.27,-0.39,0.06,0.152,0.681,-0.505,-1.851,0.2036,-0.0310,0.0067,-0.0161,1.0034,0.0000,0.0000,0.2200,-0.0086,-0.0115
4635,-0.0265,0.0151,-0.0012,-0.21,-0.36,0.05,0.152,2.719,0.067,-2.132,0.2034,-0.0308,0.0045,-0.0172,1.0000,0.0000,0.0000,0.2200,-0.0088,-0.0114
4646,-0.0244,0.0092,-0.0009,-0.14,-0.38,0.03,0.152,1.756,-0.108,-0.989,0.2031,-0.0307,0.0017,-0.0190,1.0016,0.0000,0.0000,0.2200,-0.0091,-0.0113
4655,-0.0242,0.0138,-0.0007,-0.17,-0.38,0.02,0.152,-0.197,-0.938,-0.904,0.2027,-0.0302,0.0023,-0.0160,1.0059,0.0000,0.0000,0.2200,-0.0093,-0.0111
4666,-0.0235,0.0141,-0.0003,-0.15,-0.38,-0.00,0.152,0.763,0.167,-1.192,0.2019,-0.0303,0.0056,-0.0171,1.0075,0.0000,0.0000,0.2200,-0.0095,-0.0110
4676,-0.0229,0.0144,-0.0015,-0.12,-0.38,-0.02,0.152,-0.714,1.486,-1.625,0.2017,-0.0301,0.0066,-0.0150,1.0046,0.0000,0.0000,0.2200,-0.0098,-0.0108
4686,-0.0228,0.0157,-0.0015,-0.14,-0.37,-0.02,0.153,-1.588,-0.658,-1.093,0.2022,-0.0301,0.0082,-0.0134,1.0040,0.0000,0.0000,0.2200,-0.0100,-0.0107
4695,-0.0243,0.0151,-0.0014,-0.13,-0.35,-0.03,0.153,1.808,-0.369,-1.406,0.2018,-0.0303,0.0053,-0.0127,1.0039,0.0000,0.0000,0.2200,-0.0102,-0.0105
4705,-0.0237,0.0154,-0.0009,-0.12,-0.36,-0.04,0.153,-0.451,0.283,-1.738,0.2016,-0.0301,0.0023,-0.0150,1.0033,0.0000,0.0000,0.2200,-0.0105,-0.0104
4715,-0.0202,0.0150,0.0013,-0.13,-0.37,-0.06,0.153,0.146,0.605,-0.775,0.2013,-0.0302,0.0062,-0.0152,1.0007,0.0000,0.0000,0.2200,-0.0107,-0.0102
4725,-0.0202,0.0143,0.0018,-0.12,-0.37,-0.07,0.153,-0.939,0.813,-0.857,0.2009,-0.0302,0.0062,-0.0130,1.0045,0.0000,0.0000,0.2200,-0.0109,-0.0101
4735,-0.0196,0.0145,0.0021,-0.12,-0.36,-0.09,0.153,1.006,0.565,0.065,0.2006,-0.0303,0.0011,-0.0169,1.0009,0.0000,0.0000,0.2200,-0.0111,-0.0099
4746,-0.0195,0.0138,0.0026,-0.11,-0.37,-0.10,0.152,2.578,1.865,-0.866,0.2004,-0.0302,0.0083,-0.0154,1.0017,0.0000,0.0000,0.2200,-0.0113,-0.0098
4756,-0.0194,0.0135,0.0029,-0.12,-0.38,-0.10,0.152,4.178,3.523,0.337,0.2002,-0.0301,0.0082,-0.0172,1.0006,0.0000,0.0000,0.2200,-0.0115,-0.0097
4765,-0.0192,0.0129,0.0030,-0.12,-0.39,-0.10,0.152,0.361,0.733,0.447,0.1999,-0.0302,0.0068,-0.0158,1.0013,0.0000,0.0000,0.2200,-0.0117,-0.0095
4775,-0.0186,0.0130,0.0018,-0.10,-0.40,-0.11,0.152,3.150,1.283,-0.243,0.1997,-0.0301,0.0063,-0.0141,1.0030,0.0000,0.0000,0.2200,-0.0118,-0.0094
4785,-0.0179,0.0132,0.0020,-0.06,-0.42,-0.11,0.151,1.661,-0.647,-0.948,0.1996,-0.0299,0.0046,-0.0204,1.0043,0.0000,0.0000,0.2200,-0.0120,-0.0093
4796,-0.0176,0.0125,0.0021,-0.04,-0.45,-0.11,0.151,1.573,0.718,-0.750,0.2003,-0.0229,0.0045,-0.0170,1.0049,0.0000,0.0000,0.2200,-0.0122,-0.0092
4805,-0.0168,0.0126,0.0022,-0.03,-0.46,-0.11,0.151,1.474,-2.258,-0.388,0.2012,-0.0231,0.0005,-0.0151,1.0058,0.0000,0.0000,0.2200,-0.0124,-0.0090
4815,-0.0160,0.0126,-0.0008,-0.01,-0.46,-0.12,0.151,2.377,-0.655,-0.448,0.2003,-0.0234,0.0058,-0.0138,1.0046,0.0000,0.0000,0.2200,-0.0125,-0.0089
4825,-0.0123,0.0369,-0.0006,-0.16,-0.49,-0.14,0.151,-2.483,-1.993,0.232,0.2002,-0.0231,0.0039,-0.0118,1.0000,0.0000,0.0000,0.2200,-0.0127,-0.0085
4836,-0.0075,0.0353,-0.0001,-0.14,-0.50,-0.14,0.151,0.237,-1.290,-0.438,0.2006,-0.0233,0.0048,-0.0193,1.0020,0.0000,0.0000,0.2200,-0.0127,-0.0082
4845,-0.0098,0.0333,0.0004,-0.11,-0.46,-0.14,0.150,0.879,-0.138,0.675,0.2006,-0.0230,0.0078,-0.0177,1.0041,0.0000,0.0000,0.2200,-0.0128,-0.0078
4855,-0.0090,0.0335,0.0009,-0.12,-0.46,-0.14,0.150,-3.088,-0.778,1.222,0.2001,-0.0226,0.0068,-0.0141,1.0052,0.0000,0.0000,0.2200,-0.0129,-0.0075
4865,-0.0063,0.0317,0.0014,-0.10,-0.45,-0.14,0.150,-1.922,-1.731,-0.037,0.2000,-0.0223,0.0046,-0.0163,1.0015,0.0000,0.0000,0.2200,-0.0130,-0.0072
4876,-0.0055,0.0318,-0.0029,-0.08,-0.44,-0.14,0.150,-0.958,-0.545,1.734,0.2000,-0.0220,0.0040,-0.0167,1.0017,0.0000,0.0000,0.2200,-0.0130,-0.0069
4885,-0.0062,0.0322,-0.0027,-0.10,-0.43,-0.13,0.155,0.834,-0.007,1.281,0.1999,-0.0216,0.0061,-0.0159,1.0011,0.0000,0.0000,0.2200,-0.0131,-0.0066
4895,-0.0055,0.0323,-0.0022,-0.13,-0.42,-0.13,0.155,2.734,-0.004,-0.089,0.1994,-0.0220,0.0015,-0.0161,1.0033,0.0000,0.0000,0.2200,-0.0132,-0.0062
4905,-0.0047,0.0326,-0.0018,-0.14,-0.41,-0.12,0.155,1.068,-1.821,1.521,0.1993,-0.0218,0.0008,-0.0180,1.0047,0.0000,0.0000,0.2200,-0.0132,-0.0059
4915,-0.0040,0.0329,0.0068,-0.13,-0.41,-0.11,0.155,0.905,0.346,0.949,0.1993,-0.0215,0.0022,-0.0141,1.0043,0.0000,0.0000,0.2200,-0.0132,-0.0056
4925,-0.0050,0.0306,0.0070,-0.09,-0.40,-0.10,0.155,4.981,-0.819,1.181,0.1992,-0.0212,0.0046,-0.0142,1.0079,0.0000,0.0000,0.2200,-0.0133,-0.0053
4936,-0.0043,0.0304,0.0072,-0.07,-0.39,-0.09,0.155,3.168,-1.081,1.028,0.1992,-0.0209,0.0074,-0.0168,1.0057,0.0000,0.0000,0.2200,-0.0133,-0.0050
4945,-0.0037,0.0305,0.0075,-0.06,-0.38,-0.08,0.152,6.389,0.292,0.261,0.2004,-0.0190,0.0079,-0.0169,1.0034,0.0000,0.0000,0.2200,-0.0134,-0.0047
4955,-0.0030,0.0306,0.0079,-0.03,-0.38,-0.08,0.152,4.009,-1.006,1.228,0.1992,-0.0212,0.0050,-0.0139,1.0033,0.0000,0.0000,0.2200,-0.0134,-0.0044
4965,-0.0024,0.0306,0.0084,-0.01,-0.37,-0.07,0.152,3.628,-1.456,1.808,0.1980,-0.0222,0.0031,-0.0145,0.9997,0.0000,0.0000,0.2200,-0.0134,-0.0041
4975,0.0025,0.0359,0.0067,0.00,-0.40,-0.06,0.152,2.864,0.387,1.255,0.1991,-0.0193,0.0053,-0.0140,1.0017,0.0000,0.0000,0.2200,-0.0134,-0.0037
4985,-0.0010,0.0274,0.0075,0.10,-0.36,-0.05,0.152,3.948,0.242,1.281,0.1991,-0.0223,0.0058,-0.0104,1.0023,0.0000,0.0000,0.2200,-0.0134,-0.0034
4995,-0.0042,0.0228,0.0079,0.18,-0.33,-0.03,0.152,2.976,0.478,1.028,0.2007,-0.0185,0.0052,-0.0151,1.0009,0.0000,0.0000,0.2200,-0.0135,-0.0032
5006,0.0002,0.0318,0.0081,0.14,-0.35,-0.02,0.152,-2.725,-0.235,1.365,0.2002,-0.0186,0.0040,-0.0208,1.0037,0.0000,0.0000,0.2200,-0.0134,-0.0029
5015,0.0009,0.0200,0.0064,0.26,-0.35,-0.01,0.152,-3.231,0.563,1.049,0.2001,-0.0181,0.0055,-0.0143,1.0053,0.0000,0.0000,0.2200,-0.0134,-0.0027
5026,0.0068,0.0319,0.0064,0.21,-0.39,-0.00,0.152,-1.768,0.048,0.401,0.2001,-0.0187,0.0050,-0.0149,1.0041,0.0000,0.0000,0.2200,-0.0134,-0.0024
5035,0.0053,0.0300,0.0067,0.21,-0.37,0.01,0.152,-0.791,-0.132,1.362,0.2014,-0.0188,0.0078,-0.0211,1.0030,0.0000,0.0000,0.2200,-0.0133,-0.0021
5046,0.0056,0.0302,0.0067,0.18,-0.37,0.02,0.149,-0.049,-0.236,0.804,0.1999,-0.0203,0.0051,-0.0224,1.0029,0.0000,0.0000,0.2200,-0.0133,-0.0018
5055,0.0060,0.0269,0.0071,0.18,-0.37,0.03,0.149,1.651,-0.347,0.716,0.2004,-0.0191,0.0070,-0.0205,0.9996,0.0000,0.0000,0.2200,-0.0132,-0.0015
5065,0.0111,0.0255,0.0076,0.17,-0.40,0.04,0.149,-1.088,-1.276,1.404,0.1999,-0.0210,0.0036,-0.0191,1.0008,0.0000,0.0000,0.2200,-0.0131,-0.0012
5075,0.0063,0.0191,-0.0012,0.20,-0.36,0.05,0.149,1.956,-0.546,0.740,0.2003,-0.0184,0.0033,-0.0152,1.0021,0.0000,0.0000,0.2200,-0.0130,-0.0010
5085,0.0083,0.0223,-0.0009,0.18,-0.37,0.06,0.149,-0.196,-2.382,1.040,0.1997,-0.0208,0.0038,-0.0145,1.0055,0.0000,0.0000,0.2200,-0.0129,-0.0008
5096,0.0068,0.0146,-0.0005,0.23,-0.35,0.07,0.153,1.091,-0.382,0.176,0.2010,-0.0173,0.0013,-0.0164,1.0064,0.0000,0.0000,0.2200,-0.0129,-0.0007
5106,0.0086,0.0227,-0.0005,0.18,-0.35,0.07,0.153,1.334,-1.990,0.562,0.1996,-0.0208,0.0074,-0.0193,1.0041,0.0000,0.0000,0.2200,-0.0128,-0.0004
5115,0.0070,0.0135,0.0035,0.25,-0.32,0.08,0.153,-0.836,-1.075,0.550,0.2016,-0.0174,0.0076,-0.0149,1.0065,0.0000,0.0000,0.2200,-0.0127,-0.0003
5125,0.0116,0.0245,0.0036,0.17,-0.34,0.08,0.153,1.480,-1.630,0.539,0.2018,-0.0172,0.0054,-0.0154,1.0058,0.0000,0.0000,0.2200,-0.0126,-0.0001
5136,0.0070,0.0111,0.0043,0.27,-0.29,0.09,0.153,-1.010,-1.440,1.351,0.2021,-0.0173,0.0056,-0.0160,1.0054,0.0000,0.0000,0.2200,-0.0125,0.0001
5145,0.0143,0.0220,0.0049,0.20,-0.32,0.09,0.154,0.723,-0.686,1.102,0.2037,-0.0131,0.0089,-0.0162,1.0008,0.0000,0.0000,0.2200,-0.0124,0.0003
5155,0.0149,0.0217,0.0053,0.21,-0.31,0.10,0.154,1.442,-1.157,1.134,0.2027,-0.0145,0.0036,-0.0156,1.0009,0.0000,0.0000,0.2200,-0.0122,0.0005
5165,0.0160,0.0203,0.0060,0.22,-0.29,0.11,0.154,-0.857,-1.984,2.109,0.2026,-0.0150,0.0022,-0.0154,1.0014,0.0000,0.0000,0.2200,-0.0121,0.0007
5175,0.0216,0.0336,0.0105,0.13,-0.32,0.12,0.154,-1.118,-2.337,1.513,0.2028,-0.0148,0.0018,-0.0171,0.9999,0.0000,0.0000,0.2200,-0.0119,0.0010
5186,0.0181,0.0274,0.0111,0.18,-0.28,0.13,0.153,-1.486,-1.788,1.543,0.2029,-0.0145,0.0050,-0.0128,1.0045,0.0000,0.0000,0.2200,-0.0117,0.0013
5196,0.0174,0.0244,0.0112,0.20,-0.25,0.15,0.153,-0.870,-2.484,1.974,0.2032,-0.0146,0.0012,-0.0165,1.0024,0.0000,0.0000,0.2200,-0.0115,0.0015
5205,0.0179,0.0241,0.0113,0.19,-0.23,0.17,0.153,-2.241,-2.336,2.511,0.2039,-0.0120,-0.0001,-0.0188,1.0045,0.0000,0.0000,0.2200,-0.0113,0.0018
5214,0.0182,0.0238,0.0105,0.18,-0.22,0.19,0.153,-3.105,-1.527,2.026,0.2038,-0.0146,0.0018,-0.0197,1.0024,0.0000,0.0000,0.2200,-0.0112,0.0020
5225,0.0189,0.0224,0.0106,0.18,-0.19,0.21,0.153,-0.914,-1.777,1.072,0.2054,-0.0108,0.0076,-0.0149,1.0010,0.0000,0.0000,0.2200,-0.0110,0.0022
5235,0.0211,0.0304,0.0108,0.09,-0.18,0.23,0.153,1.280,-2.112,1.237,0.2056,-0.0105,0.0084,-0.0188,1.0016,0.0000,0.0000,0.2200,-0.0108,0.0026
5245,0.0203,0.0201,0.0113,0.14,-0.16,0.25,0.155,1.758,-1.880,0.504,0.2063,-0.0106,0.0059,-0.0182,1.0047,0.0000,0.0000,0.2200,-0.0106,0.0028
5255,0.0254,0.0325,0.0115,0.04,-0.18,0.26,0.155,3.291,-3.283,1.558,0.2066,-0.0103,0.0045,-0.0139,1.0001,0.0000,0.0000,0.2200,-0.0103,0.0031
5265,0.0257,0.0325,0.0117,0.04,-0.16,0.27,0.155,3.333,-2.185,0.423,0.2069,-0.0100,0.0056,-0.0164,1.0011,0.0000,0.0000,0.2200,-0.0100,0.0034
5275,0.0275,0.0306,0.0143,0.08,-0.15,0.28,0.155,3.888,-1.613,0.851,0.2071,-0.0097,0.0049,-0.0150,1.0008,0.0000,0.0000,0.2200,-0.0098,0.0037
5284,0.0278,0.0305,0.0145,0.10,-0.12,0.29,0.156,4.060,-1.309,0.935,0.2074,-0.0094,0.0049,-0.0156,0.9977,0.0000,0.0000,0.2200,-0.0095,0.0040
5295,0.0280,0.0303,0.0149,0.14,-0.10,0.30,0.156,1.665,-0.560,1.482,0.2077,-0.0091,0.0021,-0.0167,0.9955,0.0000,0.0000,0.2200,-0.0092,0.0043
5304,0.0281,0.0300,0.0150,0.16,-0.08,0.31,0.156,2.845,0.441,0.061,0.2076,-0.0089,0.0033,-0.0180,0.9965,0.0000,0.0000,0.2200,-0.0089,0.0046
5314,0.0283,0.0298,0.0172,0.19,-0.07,0.32,0.156,1.496,0.412,0.600,0.2078,-0.0086,0.0063,-0.0163,0.9954,0.0000,0.0000,0.2200,-0.0086,0.0049
5325,0.0284,0.0294,0.0173,0.21,-0.06,0.33,0.156,0.083,0.024,1.030,0.2101,-0.0043,0.0051,-0.0187,0.9967,0.0000,0.0000,0.2200,-0.0084,0.0052
5335,0.0270,0.0288,0.0170,0.24,-0.05,0.33,0.156,1.163,0.189,0.161,0.2095,-0.0061,0.0069,-0.0150,0.9986,0.0000,0.0000,0.2200,-0.0081,0.0055
5346,0.0271,0.0284,0.0166,0.25,-0.05,0.34,0.156,1.705,-0.798,0.051,0.2098,-0.0068,0.0056,-0.0173,0.9971,0.0000,0.0000,0.2200,-0.0078,0.0058
5354,0.0344,0.0424,0.0159,0.16,-0.10,0.35,0.156,3.280,-0.393,0.163,0.2092,-0.0071,0.0083,-0.0185,0.9958,0.0000,0.0000,0.2200,-0.0075,0.0062
5364,0.0311,0.0342,0.0157,0.25,-0.07,0.35,0.156,0.227,-2.516,0.855,0.2090,-0.0058,0.0063,-0.0189,0.9939,0.0000,0.0000,0.2200,-0.0072,0.0065
5374,0.0312,0.0298,0.0146,0.29,-0.07,0.35,0.156,0.210,-0.841,0.286,0.2097,-0.0054,0.0024,-0.0132,0.9938,0.0000,0.0000,0.2200,-0.0069,0.0068
5385,0.0280,0.0275,0.0146,0.32,-0.05,0.36,0.158,2.386,-2.229,0.402,0.2096,-0.0061,0.0047,-0.0152,0.9944,0.0000,0.0000,0.2200,-0.0066,0.0071
5395,0.0263,0.0304,0.0143,0.31,-0.02,0.36,0.158,0.757,-1.314,0.408,0.2099,-0.0075,0.0075,-0.0157,0.9951,0.0000,0.0000,0.2200,-0.0063,0.0074
5405,0.0281,0.0301,0.0139,0.31,-0.02,0.36,0.158,0.838,-2.314,0.301,0.2093,-0.0076,0.0062,-0.0194,0.9971,0.0000,0.0000,0.2200,-0.0060,0.0077
5415,0.0266,0.0262,0.0158,0.36,0.01,0.37,0.158,-1.599,-1.200,0.371,0.2095,-0.0074,0.0037,-0.0153,0.9977,0.0000,0.0000,0.2200,-0.0058,0.0080
5424,0.0267,0.0195,0.0152,0.40,0.03,0.37,0.158,-0.521,-1.653,0.366,0.2107,-0.0035,0.0066,-0.0137,0.9961,0.0000,0.0000,0.2200,-0.0055,0.0082
5435,0.0236,0.0178,0.0147,0.42,0.06,0.37,0.158,1.359,-0.652,-0.205,0.2115,-0.0037,0.0057,-0.0143,0.9939,0.0000,0.0000,0.2200,-0.0053,0.0084
5444,0.0235,0.0170,0.0142,0.42,0.08,0.37,0.156,-0.811,-0.989,0.437,0.2117,-0.0034,0.0075,-0.0175,0.9953,0.0000,0.0000,0.2200,-0.0050,0.0085
5455,0.0268,0.0296,0.0139,0.35,0.07,0.37,0.156,1.145,-0.014,0.096,0.2120,-0.0031,0.0054,-0.0184,0.9956,0.0000,0.0000,0.2200,-0.0048,0.0088
5464,0.0284,0.0275,0.0136,0.37,0.07,0.37,0.156,0.118,-0.837,-0.224,0.2123,-0.0029,0.0051,-0.0163,0.9942,0.0000,0.0000,0.2200,-0.0045,0.0091
5474,0.0282,0.0268,0.0080,0.36,0.07,0.38,0.156,-0.022,0.674,-0.531,0.2126,-0.0026,0.0076,-0.0181,0.9947,0.0000,0.0000,0.2200,-0.0042,0.0094
5485,0.0282,0.0268,0.0080,0.36,0.07,0.38,0.157,3.023,1.335,0.031,0.2129,-0.0023,0.0061,-0.0155,0.9957,0.0000,0.0000,0.2200,-0.0039,0.0096
5495,0.0281,0.0262,0.0074,0.37,0.07,0.38,0.157,1.702,-0.032,-0.386,0.2153,-0.0025,0.0058,-0.0128,0.9964,0.0000,0.0000,0.2200,-0.0036,0.0099
5504,0.0280,0.0256,0.0070,0.38,0.08,0.37,0.157,-0.249,0.946,-0.961,0.2131,-0.0026,0.0046,-0.0126,0.9965,0.0000,0.0000,0.2200,-0.0033,0.0102
5514,0.0278,0.0249,0.0053,0.38,0.07,0.37,0.157,2.404,-0.126,-0.367,0.2133,-0.0024,0.0024,-0.0135,0.9940,0.0000,0.0000,0.2200,-0.0031,0.0104
5524,0.0353,0.0227,0.0047,0.41,0.01,0.37,0.157,-2.273,-0.160,-0.325,0.2116,-0.0071,0.0024,-0.0175,0.9984,0.0000,0.0000,0.2200,-0.0027,0.0106
5535,0.0262,0.0209,0.0043,0.44,0.07,0.37,0.157,0.172,0.899,-0.419,0.2141,0.0000,0.0061,-0.0176,1.0017,0.0000,0.0000,0.2200,-0.0025,0.0108
5545,0.0261,0.0202,0.0038,0.43,0.06,0.36,0.154,-1.275,-1.058,0.052,0.2139,-0.0026,0.0043,-0.0168,0.9992,0.0000,0.0000,0.2200,-0.0022,0.0110
5554,0.0192,0.0024,0.0037,0.56,0.10,0.36,0.154,-0.252,-0.418,-0.443,0.2123,-0.0046,0.0050,-0.0162,0.9957,0.0000,0.0000,0.2200,-0.0020,0.0111
5565,0.0268,0.0262,0.0033,0.39,0.05,0.35,0.154,-0.910,1.009,-0.936,0.2123,-0.0128,0.0064,-0.0158,0.9937,0.0000,0.0000,0.2200,-0.0017,0.0113
5574,0.0251,0.0155,-0.0055,0.45,0.06,0.35,0.154,-0.583,-0.704,-0.349,0.2126,-0.0112,0.0074,-0.0167,0.9990,0.0000,0.0000,0.2200,-0.0015,0.0115
5584,0.0187,0.0073,-0.0056,0.49,0.11,0.35,0.156,-1.336,-0.213,-1.002,0.2116,-0.0149,0.0037,-0.0163,1.0036,0.0000,0.0000,0.2200,-0.0013,0.0116
5595,0.0179,-0.0219,-0.0057,0.67,0.11,0.35,0.156,2.483,-0.122,-0.276,0.2118,-0.0152,0.0053,-0.0163,1.0010,0.0000,0.0000,0.2200,-0.0011,0.0113
5604,0.0183,-0.0167,-0.0056,0.62,0.11,0.34,0.156,-0.650,0.270,-0.539,0.2122,-0.0136,0.0067,-0.0150,1.0027,0.0000,0.0000,0.2200,-0.0009,0.0112
5614,0.0141,-0.0300,-0.0059,0.69,0.14,0.34,0.156,-0.582,-1.674,-0.470,0.2116,-0.0143,0.0071,-0.0168,1.0052,0.0000,0.0000,0.2200,-0.0008,0.0109
5625,0.0139,-0.0311,-0.0064,0.69,0.14,0.33,0.156,-0.419,-1.892,-0.208,0.2120,-0.0147,0.0054,-0.0152,1.0041,0.0000,0.0000,0.2200,-0.0007,0.0106
5634,0.0146,-0.0258,-0.0063,0.65,0.14,0.33,0.156,-2.320,-1.703,0.211,0.2124,-0.0144,0.0062,-0.0149,1.0007,0.0000,0.0000,0.2200,-0.0005,0.0103
5644,0.0119,-0.0286,-0.0060,0.66,0.15,0.32,0.156,-2.969,-1.485,-0.033,0.2125,-0.0147,0.0060,-0.0154,1.0012,0.0000,0.0000,0.2200,-0.0004,0.0100
5655,0.0124,-0.0299,-0.0058,0.66,0.17,0.32,0.156,-4.518,-1.835,0.435,0.2128,-0.0144,0.0062,-0.0180,1.0020,0.0000,0.0000,0.2200,-0.0003,0.0097
5664,0.0131,-0.0292,-0.0056,0.64,0.17,0.31,0.156,-5.314,-0.896,-0.146,0.2130,-0.0147,0.0057,-0.0140,1.0004,0.0000,0.0000,0.2200,-0.0001,0.0094
5674,0.0128,-0.0303,-0.0040,0.61,0.19,0.31,0.156,-4.208,-0.003,-0.041,0.2131,-0.0150,0.0042,-0.0142,1.0028,0.0000,0.0000,0.2200,-0.0000,0.0091
5685,0.0132,-0.0292,-0.0035,0.57,0.20,0.31,0.158,-4.822,0.553,-0.131,0.2132,-0.0154,0.0063,-0.0197,1.0018,0.0000,0.0000,0.2200,0.0001,0.0088
5694,0.0129,-0.0302,-0.0035,0.52,0.21,0.31,0.158,-5.739,0.259,0.061,0.2142,-0.0149,0.0080,-0.0168,1.0060,0.0000,0.0000,0.2200,0.0003,0.0085
5704,0.0126,-0.0311,-0.0033,0.47,0.22,0.31,0.158,-4.149,1.783,-0.487,0.2143,-0.0152,0.0053,-0.0160,1.0042,0.0000,0.0000,0.2200,0.0004,0.0082
5714,0.0122,-0.0319,0.0017,0.43,0.22,0.31,0.158,-5.463,3.072,-0.541,0.2144,-0.0155,0.0101,-0.0166,1.0044,0.0000,0.0000,0.2200,0.0005,0.0079
5724,0.0146,-0.0300,0.0019,0.37,0.20,0.31,0.158,-4.881,1.778,-0.140,0.2146,-0.0158,0.0089,-0.0147,1.0063,0.0000,0.0000,0.2200,0.0007,0.0076
5734,0.0143,-0.0306,0.0022,0.31,0.20,0.31,0.158,-3.190,2.162,-0.014,0.2151,-0.0154,0.0071,-0.0136,1.0040,0.0000,0.0000,0.2200,0.0008,0.0073
5745,0.0137,-0.0316,0.0029,0.22,0.15,0.30,0.155,-2.886,1.800,-0.165,0.2151,-0.0156,0.0051,-0.0167,1.0049,0.0000,0.0000,0.2200,0.0009,0.0070
5754,0.0137,-0.0316,0.0029,0.22,0.15,0.30,0.155,0.063,0.508,-0.379,0.2153,-0.0159,0.0058,-0.0150,1.0037,0.0000,0.0000,0.2200,0.0011,0.0067
5765,0.0147,-0.0298,0.0038,0.11,0.10,0.30,0.155,1.171,0.095,-0.509,0.2154,-0.0162,0.0043,-0.0165,1.0011,0.0000,0.0000,0.2200,0.0012,0.0064
5775,0.0141,-0.0295,-0.0001,0.11,0.10,0.30,0.155,0.897,0.144,-0.334,0.2156,-0.0165,0.0041,-0.0159,1.0023,0.0000,0.0000,0.2200,0.0014,0.0061
5785,0.0138,-0.0299,0.0009,0.08,0.07,0.29,0.157,-1.831,-0.832,-0.274,0.2157,-0.0168,0.0037,-0.0198,1.0030,0.0000,0.0000,0.2200,0.0015,0.0058
5794,0.0138,-0.0299,0.0009,0.08,0.07,0.29,0.157,-1.222,-2.305,0.076,0.2161,-0.0165,0.0047,-0.0199,1.0024,0.0000,0.0000,0.2200,0.0016,0.0055
5804,0.0136,-0.0302,0.0018,0.10,0.06,0.28,0.157,0.712,-0.877,-0.536,0.2153,-0.0164,0.0056,-0.0194,1.0012,0.0000,0.0000,0.2200,0.0018,0.0052
5814,0.0136,-0.0302,0.0038,0.10,0.06,0.28,0.157,-1.911,-0.506,-0.659,0.2154,-0.0166,0.0047,-0.0127,1.0030,0.0000,0.0000,0.2200,0.0019,0.0049
5824,0.0144,-0.0282,0.0040,0.07,0.06,0.28,0.157,-1.290,0.945,-0.393,0.2159,-0.0164,0.0053,-0.0117,1.0073,0.0000,0.0000,0.2200,0.0020,0.0046
5834,0.0111,-0.0267,0.0043,0.04,0.10,0.28,0.157,-0.142,0.227,-0.599,0.2153,-0.0213,0.0055,-0.0126,1.0035,0.0000,0.0000,0.2200,0.0022,0.0043
5845,0.0109,-0.0268,0.0046,0.05,0.12,0.27,0.158,1.705,1.163,-0.930,0.2164,-0.0194,0.0029,-0.0161,0.9986,0.0000,0.0000,0.2200,0.0023,0.0040
5854,0.0120,-0.0252,0.0049,0.02,0.11,0.27,0.158,-0.222,1.025,-0.909,0.2158,-0.0203,0.0051,-0.0179,1.0025,0.0000,0.0000,0.2200,0.0024,0.0038
5864,0.0093,-0.0410,0.0048,0.12,0.13,0.26,0.158,0.807,1.263,-1.059,0.2157,-0.0185,0.0068,-0.0190,1.0002,0.0000,0.0000,0.2200,0.0025,0.0034
5874,0.0124,-0.0334,0.0085,0.06,0.10,0.26,0.158,0.335,1.205,-1.082,0.2136,-0.0230,0.0054,-0.0148,1.0012,0.0000,0.0000,0.2200,0.0026,0.0031
5884,0.0099,-0.0352,0.0092,0.08,0.11,0.25,0.158,-1.952,-0.669,-1.084,0.2156,-0.0181,0.0064,-0.0175,1.0005,0.0000,0.0000,0.2200,0.0027,0.0027
5895,0.0092,-0.0282,0.0095,0.04,0.10,0.24,0.158,-2.115,-0.908,-1.554,0.2166,-0.0180,0.0069,-0.0201,1.0005,0.0000,0.0000,0.2200,0.0028,0.0024
5905,0.0018,-0.0425,0.0093,0.14,0.14,0.23,0.158,-2.089,-0.180,-0.934,0.2141,-0.0217,0.0050,-0.0166,0.9991,0.0000,0.0000,0.2200,0.0028,0.0020
5915,0.0081,-0.0250,0.0106,0.03,0.09,0.22,0.158,-1.918,-0.841,-0.308,0.2140,-0.0220,0.0045,-0.0116,1.0017,0.0000,0.0000,0.2200,0.0029,0.0017
5924,0.0109,-0.0237,0.0107,0.01,0.07,0.21,0.158,-2.925,-0.276,-0.670,0.2145,-0.0217,0.0068,-0.0115,0.9980,0.0000,0.0000,0.2200,0.0030,0.0015
5934,0.0020,-0.0354,0.0108,0.06,0.13,0.19,0.158,-1.847,0.429,-0.600,0.2149,-0.0197,0.0062,-0.0160,1.0000,-0.0000,0.0010,0.2200,0.0030,0.0012
5944,0.0016,-0.0352,0.0108,0.04,0.14,0.19,0.160,-2.856,0.858,-0.296,0.2145,-0.0213,0.0072,-0.0191,1.0006,-0.0000,0.0020,0.2200,0.0000,-0.0004
5954,0.0029,-0.0333,0.0109,0.00,0.13,0.18,0.160,0.546,1.395,-1.158,0.2145,-0.0216,0.0088,-0.0143,0.9950,-0.0000,0.0030,0.2200,0.0000,-0.0007
5964,0.0040,-0.0252,0.0110,-0.07,0.13,0.18,0.160,-0.825,0.893,-0.151,0.2146,-0.0219,0.0079,-0.0104,0.9912,-0.0000,0.0040,0.2200,0.0001,-0.0009
5974,0.0022,-0.0297,0.0146,-0.06,0.13,0.17,0.160,0.292,1.179,-0.593,0.2146,-0.0222,0.0062,-0.0173,0.9909,-0.0001,0.0050,0.2200,0.0001,-0.0012
5984,0.0020,-0.0296,0.0145,-0.08,0.12,0.16,0.159,-4.015,0.514,-0.723,0.2146,-0.0225,0.0050,-0.0174,0.9940,-0.0001,0.0060,0.2200,0.0001,-0.0015
5994,0.0018,-0.0295,0.0145,-0.09,0.11,0.15,0.159,-8.990,1.145,-1.003,0.2146,-0.0228,0.0053,-0.0136,0.9965,-0.0001,0.0070,0.2200,0.0001,-0.0018
6004,0.0016,-0.0293,0.0146,-0.09,0.09,0.15,0.159,-15.842,-0.311,-0.810,0.2146,-0.0230,0.0067,-0.0145,0.9950,-0.0002,0.0080,0.2200,0.0002,-0.0021
6014,0.0015,-0.0291,0.0125,-0.09,0.08,0.15,0.159,-18.600,1.319,-0.425,0.2146,-0.0233,0.0065,-0.0159,0.9952,-0.0002,0.0090,0.2200,0.0002,-0.0024
6024,0.0013,-0.0290,0.0116,-0.13,0.07,0.14,0.159,-24.397,0.389,-0.389,0.2147,-0.0226,0.0045,-0.0145,0.9989,-0.0002,0.0100,0.2200,0.0002,-0.0027
6034,0.0012,-0.0288,0.0108,-0.21,0.06,0.13,0.159,-25.558,-0.556,-0.803,0.2152,-0.0229,0.0059,-0.0142,0.9990,-0.0003,0.0110,0.2200,0.0002,-0.0030
6044,0.0011,-0.0284,0.0102,-0.36,0.07,0.12,0.157,-26.782,-0.421,-0.744,0.2146,-0.0247,0.0058,-0.0167,0.9979,-0.0004,0.0120,0.2200,0.0002,-0.0033
6054,0.0011,-0.0244,0.0099,-0.57,0.05,0.12,0.157,-27.377,-0.807,-0.022,0.2141,-0.0260,0.0029,-0.0154,0.9976,-0.0004,0.0130,0.2200,0.0002,-0.0035
6064,0.0028,-0.0236,0.0093,-0.81,0.03,0.11,0.157,-23.086,-1.593,0.905,0.2145,-0.0253,0.0015,-0.0189,0.9993,-0.0005,0.0140,0.2200,0.0003,-0.0038
6074,0.0006,-0.0275,0.0020,-1.03,0.05,0.10,0.157,-18.754,0.582,-0.382,0.2150,-0.0243,0.0061,-0.0163,1.0020,-0.0006,0.0150,0.2200,0.0003,-0.0040
6084,-0.0013,-0.0291,0.0019,-1.28,0.07,0.10,0.159,-15.552,0.879,-0.388,0.2150,-0.0245,0.0039,-0.0136,0.9986,-0.0006,0.0160,0.2200,0.0002,-0.0043
6094,0.0001,-0.0237,0.0017,-1.57,0.07,0.09,0.159,-9.882,-0.959,-0.548,0.2150,-0.0246,0.0059,-0.0101,0.9939,-0.0007,0.0170,0.2200,0.0002,-0.0046
6104,0.0016,-0.0171,0.0015,-1.83,0.07,0.10,0.159,-6.206,0.183,-0.780,0.2150,-0.0247,0.0059,-0.0141,0.9955,-0.0008,0.0180,0.2200,0.0003,-0.0047
6114,0.0015,-0.0139,0.0016,-2.02,0.07,0.10,0.159,-2.146,0.347,-0.456,0.2156,-0.0245,0.0072,-0.0169,0.9978,-0.0009,0.0190,0.2200,0.0003,-0.0049
6124,0.0013,-0.0105,0.0015,-2.18,0.06,0.09,0.159,0.472,-0.678,-0.658,0.2150,-0.0246,0.0062,-0.0207,0.9973,-0.0010,0.0200,0.2200,0.0003,-0.0050
6134,0.0012,-0.0067,0.0016,-2.28,0.07,0.09,0.159,3.048,-1.487,-0.576,0.2150,-0.0245,0.0075,-0.0192,0.9983,-0.0011,0.0210,0.2200,0.0003,-0.0050
6144,0.0028,-0.0022,0.0013,-2.35,0.06,0.08,0.159,2.276,-0.618,-0.645,0.2150,-0.0245,0.0075,-0.0189,0.9978,-0.0012,0.0220,0.2200,0.0003,-0.0051
6154,0.0007,0.0016,0.0006,-2.37,0.08,0.07,0.159,1.524,-0.590,-0.241,0.2150,-0.0243,0.0068,-0.0179,0.9955,-0.0013,0.0229,0.2200,0.0003,-0.0050
6164,0.0006,0.0057,0.0001,-2.37,0.08,0.07,0.159,-1.262,-1.484,-0.276,0.2144,-0.0246,0.0077,-0.0188,0.9986,-0.0014,0.0239,0.2200,0.0003,-0.0050
6173,0.0004,0.0097,-0.0000,-2.34,0.10,0.06,0.159,-0.409,-1.580,-0.012,0.2143,-0.0244,0.0042,-0.0160,0.9973,-0.0016,0.0249,0.2200,0.0003,-0.0049
6184,0.0003,0.0137,-0.0004,-2.31,0.11,0.06,0.162,-3.701,-1.023,-0.078,0.2131,-0.0238,0.0087,-0.0179,0.9992,-0.0017,0.0259,0.2200,0.0003,-0.0048
6194,-0.0021,0.0164,-0.0005,-2.28,0.13,0.05,0.162,-4.379,-1.266,-0.491,0.2142,-0.0215,0.0058,-0.0179,1.0013,-0.0018,0.0269,0.2200,0.0003,-0.0046
6204,-0.0023,0.0203,-0.0010,-2.28,0.14,0.05,0.162,-5.404,-1.547,-0.673,0.2153,-0.0193,0.0046,-0.0191,1.0008,-0.0020,0.0279,0.2200,0.0003,-0.0044
6214,-0.0065,0.0253,0.0050,-2.29,0.18,0.04,0.162,-0.407,-0.871,-1.009,0.2153,-0.0188,0.0038,-0.0187,1.0009,-0.0021,0.0289,0.2200,0.0002,-0.0041
6224,-0.0029,0.0362,0.0046,-2.37,0.17,0.05,0.162,-2.729,-1.077,-0.512,0.2142,-0.0198,0.0083,-0.0173,1.0015,-0.0022,0.0299,0.2200,0.0002,-0.0038
6234,0.0005,0.0462,0.0041,-2.45,0.16,0.05,0.162,0.334,-1.379,0.098,0.2142,-0.0184,0.0086,-0.0140,1.0001,-0.0024,0.0309,0.2200,0.0002,-0.0033
6244,0.0002,0.0504,0.0040,-2.50,0.18,0.04,0.158,1.301,-0.642,-0.329,0.2141,-0.0179,0.0054,-0.0194,0.9986,-0.0026,0.0319,0.2200,0.0002,-0.0028
6254,-0.0038,0.0499,0.0042,-2.48,0.21,0.03,0.158,3.952,-1.473,-0.337,0.2135,-0.0185,0.0044,-0.0188,0.9968,-0.0027,0.0329,0.2200,0.0002,-0.0023
6264,-0.0042,0.0569,0.0041,-2.52,0.23,0.02,0.158,5.524,0.253,-1.329,0.2136,-0.0181,0.0067,-0.0175,0.9964,-0.0029,0.0338,0.2200,0.0001,-0.0017
6274,-0.0046,0.0611,-0.0014,-2.52,0.24,0.02,0.158,7.085,-0.447,-0.144,0.2136,-0.0124,0.0106,-0.0234,1.0002,-0.0031,0.0348,0.2200,0.0001,-0.0011
6284,-0.0068,0.0613,-0.0013,-2.48,0.26,0.01,0.159,8.809,-0.111,0.288,0.2135,-0.0115,0.0094,-0.0213,1.0005,-0.0032,0.0358,0.2200,0.0000,-0.0005
6295,-0.0069,0.0648,-0.0014,-2.44,0.27,0.01,0.159,9.371,-1.094,-0.230,0.2134,-0.0106,0.0095,-0.0164,0.9976,-0.0034,0.0368,0.2200,-0.0000,0.0001
6304,-0.0070,0.0854,-0.0024,-2.50,0.27,0.00,0.159,10.833,-0.628,0.060,0.2118,-0.0119,0.0038,-0.0202,0.9981,-0.0036,0.0378,0.2200,-0.0001,0.0010
6314,-0.0075,0.0896,-0.0033,-2.43,0.27,0.00,0.159,11.219,-0.263,0.380,0.2113,-0.0131,0.0048,-0.0201,1.0026,-0.0038,0.0388,0.2200,-0.0002,0.0019
6325,-0.0079,0.0938,-0.0037,-2.34,0.27,0.00,0.159,11.702,-0.128,0.126,0.2103,-0.0142,0.0079,-0.0194,1.0025,-0.0040,0.0397,0.2200,-0.0003,0.0028
6334,-0.0135,0.0904,-0.0034,-2.20,0.31,-0.01,0.159,10.754,-0.903,1.152,0.2114,-0.0094,0.0057,-0.0190,0.9970,-0.0042,0.0407,0.2200,-0.0004,0.0037
6345,-0.0152,0.0872,-0.0032,-2.04,0.33,-0.01,0.153,9.968,0.224,0.209,0.2121,-0.0086,0.0058,-0.0181,0.9943,-0.0044,0.0417,0.2200,-0.0006,0.0046
6354,-0.0185,0.0842,-0.0032,-1.88,0.35,-0.01,0.153,9.471,-0.351,0.076,0.2116,-0.0091,0.0058,-0.0183,0.9942,-0.0046,0.0427,0.2200,-0.0007,0.0054
6364,-0.0148,0.1003,-0.0038,-1.85,0.33,0.01,0.153,9.291,0.118,0.084,0.2102,-0.0102,0.0038,-0.0208,0.9964,-0.0048,0.0436,0.2200,-0.0009,0.0064
6374,-0.0128,0.1027,-0.0174,-1.74,0.32,0.02,0.153,10.071,1.495,-0.144,0.2099,-0.0107,0.0060,-0.0228,0.9988,-0.0050,0.0446,0.2200,-0.0010,0.0075
6384,-0.0143,0.1006,-0.0172,-1.60,0.33,0.02,0.154,10.005,0.899,0.221,0.2115,-0.0047,0.0065,-0.0200,0.9992,-0.0053,0.0456,0.2200,-0.0012,0.0085
6394,-0.0190,0.0967,-0.0173,-1.46,0.36,0.01,0.154,8.666,0.561,0.010,0.2113,-0.0037,0.0064,-0.0193,0.9999,-0.0055,0.0466,0.2200,-0.0013,0.0094
6404,-0.0202,0.0944,-0.0177,-1.34,0.36,0.00,0.154,8.354,0.849,-0.718,0.2090,-0.0041,0.0074,-0.0207,1.0001,-0.0057,0.0475,0.2200,-0.0016,0.0104
6414,-0.0148,0.1126,-0.0225,-1.34,0.31,0.01,0.154,7.212,0.605,-0.482,0.2087,-0.0051,0.0083,-0.0203,1.0034,-0.0060,0.0485,0.2200,-0.0017,0.0115
6424,-0.0154,0.1149,-0.0228,-1.25,0.30,0.01,0.154,6.025,0.042,-0.058,0.2088,-0.0011,0.0054,-0.0180,1.0050,-0.0062,0.0495,0.2200,-0.0019,0.0127
6434,-0.0230,0.1117,-0.0227,-1.13,0.34,-0.00,0.154,6.454,0.007,-0.587,0.2098,-0.0001,0.0046,-0.0221,1.0053,-0.0065,0.0504,0.2200,-0.0021,0.0138
6444,-0.0240,0.1069,-0.0225,-1.00,0.34,-0.01,0.154,6.269,-0.216,0.482,0.2095,0.0009,0.0050,-0.0206,1.0080,-0.0067,0.0514,0.2200,-0.0023,0.0149
6453,-0.0233,0.1180,-0.0230,-0.99,0.32,-0.01,0.154,6.951,1.220,-0.251,0.2073,-0.0013,0.0041,-0.0252,1.0061,-0.0070,0.0524,0.2200,-0.0026,0.0160
6464,-0.0196,0.1192,-0.0227,-0.92,0.29,-0.00,0.154,8.028,0.992,-0.367,0.2079,0.0028,0.0058,-0.0249,1.0062,-0.0072,0.0533,0.2200,-0.0028,0.0172
6474,-0.0207,0.1201,-0.0216,-0.85,0.29,-0.01,0.154,8.388,1.383,0.746,0.2089,0.0038,0.0074,-0.0225,1.0037,-0.0075,0.0543,0.2200,-0.0030,0.0184
6484,-0.0277,0.1102,-0.0207,-0.71,0.34,-0.02,0.152,8.969,2.180,-0.315,0.2069,0.0030,0.0054,-0.0177,1.0035,-0.0078,0.0553,0.2200,-0.0032,0.0195
6493,-0.0254,0.1216,-0.0205,-0.71,0.31,-0.01,0.152,7.627,1.339,-0.020,0.2084,0.0075,0.0076,-0.0187,1.0042,-0.0081,0.0562,0.2200,-0.0035,0.0207
6504,-0.0216,0.1221,-0.0197,-0.63,0.27,-0.01,0.152,10.379,1.817,0.150,0.2085,0.0088,0.0065,-0.0219,1.0058,-0.0084,0.0572,0.2200,-0.0037,0.0220
6514,-0.0281,0.1162,-0.0210,-0.50,0.30,-0.01,0.152,8.810,1.035,0.146,0.2086,0.0085,0.0095,-0.0219,1.0061,-0.0086,0.0581,0.2200,-0.0040,0.0231
6524,-0.0227,0.1282,-0.0209,-0.49,0.23,-0.00,0.152,5.903,1.740,-0.719,0.2088,0.0124,0.0110,-0.0209,1.0087,-0.0089,0.0591,0.2200,-0.0042,0.0244
6534,-0.0218,0.1292,-0.0206,-0.41,0.21,-0.00,0.152,6.393,0.031,0.059,0.2093,0.0138,0.0084,-0.0211,1.0064,-0.0092,0.0601,0.2200,-0.0044,0.0257
6544,-0.0210,0.1245,-0.0199,-0.28,0.19,0.00,0.149,3.543,-1.185,0.746,0.2077,0.0132,0.0055,-0.0226,1.0073,-0.0095,0.0610,0.2200,-0.0046,0.0269
6554,-0.0201,0.1342,-0.0200,-0.26,0.17,0.01,0.149,3.740,-1.432,0.365,0.2077,0.0130,0.0051,-0.0207,1.0073,-0.0098,0.0620,0.2200,-0.0048,0.0283
6563,-0.0180,0.1348,-0.0193,-0.19,0.14,0.01,0.149,4.714,-1.288,0.407,0.2075,0.0143,0.0059,-0.0218,1.0063,-0.0102,0.0629,0.2200,-0.0050,0.0296
6575,-0.0231,0.1283,-0.0236,-0.09,0.17,-0.00,0.149,3.155,0.595,0.213,0.2080,0.0198,0.0047,-0.0201,1.0069,-0.0105,0.0639,0.2200,-0.0053,0.0309
6584,-0.0225,0.1235,-0.0225,-0.01,0.17,0.00,0.154,4.426,1.385,0.362,0.2078,0.0212,0.0062,-0.0212,1.0091,-0.0108,0.0648,0.2200,-0.0055,0.0322
6593,-0.0228,0.1235,-0.0218,0.02,0.19,0.01,0.154,4.148,0.437,0.523,0.2066,0.0209,0.0052,-0.0230,1.0114,-0.0111,0.0658,0.2200,-0.0057,0.0334
6603,-0.0206,0.1389,-0.0221,-0.04,0.18,0.02,0.154,4.236,-0.655,1.232,0.2067,0.0207,0.0063,-0.0244,1.0126,-0.0114,0.0667,0.2200,-0.0059,0.0348
6613,-0.0210,0.1395,-0.0118,-0.01,0.18,0.02,0.154,6.117,-0.512,0.009,0.2067,0.0242,0.0049,-0.0220,1.0126,-0.0118,0.0676,0.2200,-0.0061,0.0362
6624,-0.0246,0.1324,-0.0108,0.08,0.19,0.02,0.154,9.006,2.317,-0.450,0.2053,0.0219,0.0033,-0.0179,1.0130,-0.0121,0.0686,0.2200,-0.0064,0.0375
6633,-0.0238,0.1269,-0.0096,0.16,0.18,0.03,0.154,5.635,-0.078,0.748,0.2053,0.0246,0.0037,-0.0185,1.0091,-0.0125,0.0695,0.2200,-0.0066,0.0388
6644,-0.0230,0.1347,-0.0093,0.15,0.18,0.04,0.154,8.129,-0.815,0.969,0.2053,0.0247,0.0039,-0.0236,1.0078,-0.0128,0.0705,0.2200,-0.0068,0.0401
6653,-0.0280,0.1213,-0.0072,0.30,0.22,0.04,0.154,5.319,0.582,0.898,0.2047,0.0246,0.0057,-0.0234,1.0065,-0.0132,0.0714,0.2200,-0.0071,0.0413
6663,-0.0270,0.1260,-0.0062,0.34,0.20,0.04,0.154,5.811,1.350,0.124,0.2044,0.0257,0.0045,-0.0202,1.0093,-0.0135,0.0723,0.2200,-0.0074,0.0426
6674,-0.0263,0.1209,0.0026,0.44,0.19,0.04,0.154,5.909,1.309,0.464,0.2037,0.0257,0.0068,-0.0191,1.0083,-0.0139,0.0733,0.2200,-0.0076,0.0438
6687,-0.0282,0.1154,0.0041,0.55,0.20,0.05,0.157,5.274,0.433,0.749,0.2030,0.0268,0.0067,-0.0227,1.0083,-0.0143,0.0742,0.2200,-0.0079,0.0449
6694,-0.0285,0.1144,0.0049,0.61,0.20,0.06,0.157,3.672,1.266,1.166,0.2049,0.0381,0.0063,-0.0264,1.0078,-0.0146,0.0751,0.2200,-0.0082,0.0461
6703,-0.0303,0.1089,0.0059,0.71,0.20,0.06,0.157,2.375,2.001,0.515,0.2046,0.0378,0.0056,-0.0233,1.0077,-0.0150,0.0760,0.2200,-0.0085,0.0472
6715,-0.0322,0.1084,0.0163,0.77,0.19,0.07,0.157,1.356,1.967,1.427,0.2036,0.0376,0.0061,-0.0223,1.0075,-0.0154,0.0770,0.2200,-0.0088,0.0483
6724,-0.0242,0.1450,0.0155,0.56,0.13,0.08,0.157,-0.114,1.638,1.747,0.2047,0.0410,0.0061,-0.0199,1.0040,-0.0158,0.0779,0.2200,-0.0091,0.0497
6733,-0.0245,0.1374,0.0168,0.64,0.12,0.09,0.157,-1.446,1.506,2.194,0.2048,0.0427,0.0045,-0.0218,1.0021,-0.0162,0.0788,0.2200,-0.0093,0.0511
6744,-0.0276,0.1303,0.0179,0.70,0.12,0.10,0.155,-2.495,1.505,2.232,0.2048,0.0437,0.0046,-0.0179,1.0058,-0.0166,0.0797,0.2200,-0.0096,0.0524
6753,-0.0224,0.1373,0.0180,0.66,0.06,0.12,0.155,-1.948,1.244,2.615,0.2035,0.0429,0.0016,-0.0193,1.0048,-0.0170,0.0806,0.2200,-0.0098,0.0538
6764,-0.0214,0.1373,0.0187,0.65,0.03,0.14,0.155,-2.232,2.048,1.860,0.2033,0.0442,0.0034,-0.0196,1.0047,-0.0174,0.0816,0.2200,-0.0100,0.0551
6773,-0.0203,0.1347,0.0189,0.64,0.01,0.15,0.155,-2.073,1.149,2.489,0.2030,0.0442,0.0037,-0.0187,1.0048,-0.0178,0.0825,0.2200,-0.0102,0.0565
6783,-0.0247,0.1256,0.0198,0.68,0.02,0.18,0.152,-0.893,0.566,2.150,0.2027,0.0453,0.0040,-0.0203,1.0042,-0.0182,0.0834,0.2200,-0.0105,0.0577
6795,-0.0247,0.1244,0.0201,0.65,0.01,0.20,0.152,0.949,-1.102,3.236,0.2038,0.0528,0.0052,-0.0174,1.0061,-0.0186,0.0843,0.2200,-0.0107,0.0590
6803,-0.0250,0.1183,0.0210,0.67,-0.01,0.22,0.152,2.352,-0.402,3.100,0.2039,0.0540,0.0096,-0.0157,1.0050,-0.0190,0.0852,0.2200,-0.0110,0.0602
6813,-0.0248,0.1168,0.0128,0.65,-0.02,0.25,0.152,4.474,-2.030,2.730,0.2035,0.0544,0.0068,-0.0205,1.0025,-0.0195,0.0861,0.2200,-0.0112,0.0613
6824,-0.0196,0.1408,0.0119,0.46,-0.06,0.27,0.152,5.585,-1.592,3.021,0.2031,0.0537,0.0046,-0.0193,1.0077,-0.0199,0.0870,0.2200,-0.0114,0.0627
6833,-0.0186,0.1392,0.0124,0.48,-0.06,0.30,0.152,6.896,-2.599,2.190,0.2033,0.0570,0.0037,-0.0202,1.0064,-0.0203,0.0879,0.2200,-0.0116,0.0641
6843,-0.0194,0.1346,0.0132,0.53,-0.05,0.33,0.156,5.722,-4.578,2.559,0.2036,0.0588,0.0059,-0.0215,1.0064,-0.0208,0.0888,0.2200,-0.0118,0.0655
6853,-0.0200,0.1258,0.0145,0.63,-0.02,0.36,0.156,4.639,-4.836,2.765,0.2034,0.0601,0.0083,-0.0168,1.0036,-0.0212,0.0897,0.2200,-0.0120,0.0667
6863,-0.0182,0.1324,0.0142,0.63,-0.01,0.39,0.156,5.488,-4.190,2.270,0.2026,0.0599,0.0035,-0.0185,1.0014,-0.0217,0.0906,0.2200,-0.0122,0.0681
6873,-0.0165,0.1334,0.0165,0.68,0.00,0.41,0.156,3.230,-3.624,2.008,0.2022,0.0597,0.0009,-0.0193,1.0035,-0.0221,0.0915,0.2200,-0.0124,0.0694
6884,-0.0164,0.1323,0.0172,0.74,0.04,0.43,0.154,1.604,-2.472,3.099,0.2017,0.0595,0.0083,-0.0190,1.0033,-0.0226,0.0924,0.2200,-0.0125,0.0707
6893,-0.0191,0.1247,0.0183,0.83,0.11,0.46,0.154,3.641,-3.158,2.813,0.2020,0.0628,0.0089,-0.0191,1.0010,-0.0231,0.0932,0.2200,-0.0127,0.0720
6903,-0.0203,0.1178,0.0191,0.91,0.15,0.49,0.154,-0.822,-2.753,3.081,0.2026,0.0645,0.0040,-0.0186,1.0016,-0.0235,0.0941,0.2200,-0.0129,0.0731
6913,-0.0214,0.1106,0.0146,0.98,0.20,0.51,0.154,2.006,-2.421,2.820,0.2025,0.0647,0.0060,-0.0222,1.0012,-0.0240,0.0950,0.2200,-0.0131,0.0743
6924,-0.0199,0.1177,0.0145,0.94,0.21,0.53,0.154,-1.859,-3.178,2.880,0.2023,0.0658,0.0056,-0.0178,1.0032,-0.0245,0.0959,0.2200,-0.0133,0.0754
6933,-0.0170,0.1182,0.0147,0.95,0.22,0.56,0.154,1.548,-2.573,1.190,0.2019,0.0671,0.0023,-0.0196,1.0052,-0.0250,0.0968,0.2200,-0.0135,0.0766
6945,-0.0171,0.1127,0.0152,0.98,0.25,0.59,0.153,-2.736,-4.633,2.440,0.2004,0.0661,0.0059,-0.0159,1.0021,-0.0255,0.0976,0.2200,-0.0137,0.0777
6954,-0.0175,0.1110,0.0153,0.99,0.28,0.62,0.153,2.111,-2.665,2.065,0.2013,0.0680,0.0045,-0.0185,0.9994,-0.0259,0.0985,0.2200,-0.0138,0.0788
6964,-0.0190,0.1100,0.0153,0.97,0.31,0.65,0.153,1.039,-4.379,2.120,0.2009,0.0686,0.0048,-0.0182,1.0002,-0.0264,0.0994,0.2200,-0.0140,0.0799
6973,-0.0248,0.0992,0.0083,1.03,0.38,0.67,0.153,-0.471,-2.981,2.493,0.2008,0.0696,0.0041,-0.0177,0.9995,-0.0269,0.1002,0.2200,-0.0143,0.0809
6984,-0.0205,0.1015,0.0086,0.99,0.39,0.69,0.158,-3.705,-1.858,2.315,0.2007,0.0700,0.0052,-0.0195,0.9991,-0.0274,0.1011,0.2200,-0.0145,0.0820
6994,-0.0222,0.0981,0.0091,1.02,0.43,0.71,0.158,-6.907,-2.519,3.111,0.2000,0.0698,0.0056,-0.0186,1.0022,-0.0279,0.1020,0.2200,-0.0147,0.0829
7003,-0.0222,0.0962,0.0092,1.03,0.47,0.73,0.158,-4.103,-0.463,2.480,0.2000,0.0703,0.0077,-0.0157,1.0010,-0.0285,0.1028,0.2200,-0.0149,0.0839
7014,-0.0225,0.0923,0.0150,1.04,0.50,0.75,0.158,-5.273,-2.090,2.306,0.1997,0.0712,0.0112,-0.0190,0.9995,-0.0290,0.1037,0.2200,-0.0152,0.0848
7024,-0.0254,0.0860,0.0150,1.03,0.54,0.78,0.158,-9.039,-1.895,2.675,0.1994,0.0720,0.0103,-0.0191,1.0017,-0.0295,0.1045,0.2200,-0.0154,0.0857
7033,-0.0253,0.0828,0.0150,0.97,0.55,0.81,0.158,-5.728,-0.922,1.279,0.1983,0.0722,0.0070,-0.0179,1.0015,-0.0300,0.1054,0.2200,-0.0157,0.0865
7045,-0.0263,0.0809,0.0151,0.92,0.56,0.84,0.158,-6.174,-3.515,1.923,0.1980,0.0729,0.0067,-0.0149,1.0021,-0.0305,0.1062,0.2200,-0.0159,0.0873
7054,-0.0272,0.0793,0.0153,0.87,0.57,0.86,0.158,-4.704,-0.987,2.078,0.1979,0.0774,0.0075,-0.0182,0.9969,-0.0311,0.1071,0.2200,-0.0162,0.0881
7065,-0.0315,0.0751,0.0153,0.80,0.61,0.89,0.158,-5.538,-1.786,1.812,0.1986,0.0782,0.0095,-0.0190,0.9962,-0.0316,0.1079,0.2200,-0.0165,0.0889
7073,-0.0326,0.0738,0.0172,0.75,0.63,0.91,0.158,-3.407,-1.890,1.131,0.1982,0.0786,0.0060,-0.0189,0.9999,-0.0322,0.1088,0.2200,-0.0168,0.0896
7087,-0.0327,0.0880,0.0168,0.58,0.65,0.93,0.160,-1.843,-0.488,1.606,0.1979,0.0795,0.0043,-0.0185,0.9966,-0.0327,0.1096,0.2200,-0.0172,0.0905
7095,-0.0294,0.0867,0.0172,0.54,0.63,0.95,0.160,-0.491,-1.783,1.180,0.1978,0.0831,0.0048,-0.0167,0.9971,-0.0333,0.1104,0.2200,-0.0175,0.0913
7105,-0.0310,0.0839,0.0173,0.50,0.66,0.97,0.160,-1.507,-2.970,0.074,0.1978,0.0823,0.0057,-0.0229,0.9985,-0.0338,0.1113,0.2200,-0.0178,0.0922
7114,-0.0321,0.0831,0.0207,0.47,0.68,0.98,0.160,-4.844,0.204,0.608,0.1978,0.0849,0.0044,-0.0165,0.9979,-0.0344,0.1121,0.2200,-0.0181,0.0930
7124,-0.0322,0.0938,0.0199,0.37,0.67,0.99,0.160,-4.080,-0.913,-0.397,0.1982,0.0849,0.0046,-0.0168,0.9971,-0.0349,0.1129,0.2200,-0.0184,0.0940
7134,-0.0321,0.0862,0.0202,0.41,0.68,1.00,0.160,-6.528,-1.199,0.011,0.1971,0.0850,0.0046,-0.0173,0.9980,-0.0355,0.1138,0.2200,-0.0187,0.0948
7143,-0.0320,0.0924,0.0196,0.35,0.69,1.00,0.157,-1.056,0.421,-0.747,0.1967,0.0858,0.0064,-0.0189,0.9989,-0.0361,0.1146,0.2200,-0.0191,0.0957
7153,-0.0303,0.0881,0.0197,0.33,0.67,1.00,0.157,-3.564,-0.746,-1.159,0.1960,0.0858,0.0072,-0.0202,0.9936,-0.0366,0.1154,0.2200,-0.0194,0.0966
7164,-0.0347,0.0844,0.0197,0.30,0.71,1.00,0.157,-5.768,-0.519,-0.463,0.1946,0.0826,0.0033,-0.0173,0.9948,-0.0372,0.1162,0.2200,-0.0197,0.0975
7174,-0.0357,0.0837,0.0126,0.25,0.72,0.99,0.157,-1.803,0.046,-0.194,0.1950,0.0858,0.0039,-0.0132,0.9939,-0.0378,0.1170,0.2200,-0.0201,0.0983
7184,-0.0385,0.0800,0.0124,0.25,0.73,0.99,0.159,-5.938,1.145,-0.181,0.1947,0.0860,0.0069,-0.0120,0.9945,-0.0384,0.1178,0.2200,-0.0204,0.0991
7194,-0.0437,0.0631,0.0130,0.32,0.76,0.98,0.159,-2.237,1.198,-1.024,0.1951,0.0899,0.0044,-0.0163,0.9941,-0.0390,0.1186,0.2200,-0.0209,0.0997
7203,-0.0418,0.0732,0.0122,0.21,0.74,0.97,0.159,-0.478,2.458,-1.100,0.1955,0.0913,0.0066,-0.0168,0.9969,-0.0396,0.1194,0.2200,-0.0213,0.1005
7213,-0.0425,0.0703,0.0107,0.19,0.74,0.97,0.159,3.353,1.835,-1.938,0.1948,0.0916,0.0062,-0.0140,0.9962,-0.0402,0.1202,0.2200,-0.0217,0.1012
7223,-0.0406,0.0830,0.0098,0.06,0.69,0.96,0.159,0.469,0.401,-1.894,0.1945,0.0915,0.0041,-0.0141,0.9966,-0.0408,0.1210,0.2200,-0.0221,0.1020
7233,-0.0384,0.0853,0.0091,0.02,0.66,0.95,0.159,0.812,0.769,-2.415,0.1943,0.0914,0.0053,-0.0156,0.9930,-0.0414,0.1218,0.2200,-0.0225,0.1029
7243,-0.0407,0.0829,0.0087,0.03,0.65,0.94,0.154,0.798,1.183,-1.970,0.1937,0.0912,0.0057,-0.0195,0.9957,-0.0420,0.1226,0.2200,-0.0229,0.1037
7253,-0.0413,0.0790,0.0084,0.09,0.64,0.92,0.154,-0.635,3.315,-3.332,0.1928,0.0912,0.0076,-0.0169,0.9936,-0.0426,0.1234,0.2200,-0.0233,0.1045
7263,-0.0418,0.0753,0.0083,0.13,0.62,0.89,0.154,0.092,1.785,-2.681,0.1939,0.0946,0.0060,-0.0184,0.9939,-0.0432,0.1242,0.2200,-0.0238,0.1052
7273,-0.0435,0.0714,-0.0047,0.16,0.62,0.87,0.154,-1.403,2.083,-3.263,0.1936,0.0946,0.0058,-0.0160,0.9931,-0.0439,0.1250,0.2200,-0.0242,0.1059
7283,-0.0464,0.0680,-0.0051,0.19,0.61,0.84,0.161,-3.054,0.875,-3.852,0.1937,0.0964,0.0042,-0.0187,0.9930,-0.0445,0.1258,0.2200,-0.0247,0.1066
7293,-0.0412,0.0787,-0.0060,0.11,0.54,0.81,0.161,1.101,-0.151,-4.548,0.1936,0.0967,0.0076,-0.0179,0.9966,-0.0451,0.1265,0.2200,-0.0251,0.1074
7303,-0.0414,0.0753,-0.0063,0.13,0.51,0.78,0.161,-0.328,1.191,-4.843,0.1923,0.0964,0.0099,-0.0136,1.0010,-0.0458,0.1273,0.2200,-0.0255,0.1082
7313,-0.0407,0.0793,0.0015,0.08,0.48,0.75,0.161,0.545,-1.064,-4.095,0.1919,0.0971,0.0066,-0.0142,1.0003,-0.0464,0.1281,0.2200,-0.0259,0.1090
7323,-0.0398,0.0771,0.0010,0.09,0.46,0.70,0.161,-0.789,0.184,-4.217,0.1898,0.0963,0.0061,-0.0182,1.0013,-0.0470,0.1288,0.2200,-0.0263,0.1097
7334,-0.0442,0.0726,0.0003,0.11,0.49,0.66,0.161,-1.733,-0.095,-4.388,0.1902,0.0981,0.0072,-0.0139,0.9986,-0.0477,0.1296,0.2200,-0.0267,0.1104
7343,-0.0451,0.0724,-0.0002,0.10,0.48,0.61,0.163,-1.813,0.633,-4.551,0.1891,0.0989,0.0052,-0.0172,0.9979,-0.0483,0.1304,0.2200,-0.0272,0.1112
7354,-0.0522,0.0663,-0.0001,0.15,0.53,0.57,0.163,-1.993,0.867,-4.223,0.1885,0.0989,0.0052,-0.0166,1.0000,-0.0490,0.1311,0.2200,-0.0277,0.1118
7363,-0.0495,0.0705,-0.0001,0.10,0.50,0.53,0.163,-1.834,0.430,-4.692,0.1875,0.0989,0.0044,-0.0153,1.0007,-0.0496,0.1319,0.2200,-0.0282,0.1125
7374,-0.0526,0.0705,0.0091,0.08,0.50,0.49,0.163,-1.855,1.827,-5.448,0.1872,0.0990,0.0043,-0.0159,0.9980,-0.0503,0.1326,0.2200,-0.0287,0.1132
7383,-0.0540,0.0677,0.0092,0.08,0.50,0.44,0.160,-2.764,1.359,-4.580,0.1859,0.0991,0.0047,-0.0171,0.9965,-0.0510,0.1334,0.2200,-0.0293,0.1139
7393,-0.0566,0.0650,0.0090,0.08,0.51,0.40,0.160,-1.766,2.515,-4.622,0.1852,0.0997,0.0083,-0.0118,0.9992,-0.0516,0.1341,0.2200,-0.0298,0.1146
7403,-0.0564,0.0625,0.0090,0.08,0.50,0.35,0.160,-1.990,2.185,-4.047,0.1846,0.1012,0.0050,-0.0201,0.9973,-0.0523,0.1349,0.2200,-0.0304,0.1152
7414,-0.0602,0.0601,0.0070,0.07,0.50,0.29,0.160,-1.426,1.736,-4.040,0.1847,0.1032,0.0048,-0.0213,0.9951,-0.0530,0.1356,0.2200,-0.0310,0.1158
7423,-0.0611,0.0599,0.0070,0.04,0.48,0.25,0.160,-2.086,2.238,-4.161,0.1841,0.1050,0.0061,-0.0208,0.9934,-0.0537,0.1363,0.2200,-0.0316,0.1164
7434,-0.0619,0.0633,0.0066,0.00,0.46,0.20,0.160,0.268,1.987,-3.931,0.1835,0.1057,0.0079,-0.0149,0.9966,-0.0543,0.1371,0.2200,-0.0322,0.1170
7443,-0.0599,0.0691,0.0064,-0.06,0.42,0.16,0.162,-1.652,3.348,-4.308,0.1815,0.1021,0.0087,-0.0126,0.9972,-0.0550,0.1378,0.2200,-0.0328,0.1177
7454,-0.0606,0.0735,0.0060,-0.10,0.40,0.12,0.162,-1.204,2.953,-4.198,0.1819,0.1057,0.0036,-0.0149,0.9966,-0.0557,0.1385,0.2200,-0.0334,0.1185
7463,-0.0612,0.0736,0.0056,-0.12,0.38,0.08,0.162,-1.205,2.617,-3.408,0.1813,0.1060,0.0050,-0.0171,0.9981,-0.0564,0.1392,0.2200,-0.0340,0.1192
7474,-0.0675,0.0566,0.0079,-0.01,0.39,0.04,0.162,-1.606,2.636,-2.855,0.1796,0.1057,0.0076,-0.0183,0.9982,-0.0571,0.1399,0.2200,-0.0347,0.1198
7483,-0.0636,0.0687,0.0073,-0.11,0.33,-0.01,0.164,-1.966,2.185,-3.270,0.1790,0.1071,0.0076,-0.0188,0.9979,-0.0578,0.1407,0.2200,-0.0353,0.1204
7494,-0.0640,0.0674,0.0070,-0.11,0.31,-0.05,0.164,-1.912,1.644,-3.728,0.1787,0.1072,0.0080,-0.0164,0.9996,-0.0585,0.1414,0.2200,-0.0360,0.1211
7504,-0.0687,0.0635,0.0067,-0.10,0.32,-0.08,0.164,-0.968,0.075,-2.709,0.1780,0.1072,0.0070,-0.0165,1.0013,-0.0592,0.1421,0.2200,-0.0367,0.1218
7513,-0.0690,0.0668,0.0114,-0.12,0.29,-0.11,0.164,0.116,0.872,-2.620,0.1767,0.1062,0.0071,-0.0137,0.9986,-0.0599,0.1428,0.2200,-0.0374,0.1224
7523,-0.0679,0.0646,0.0114,-0.12,0.26,-0.14,0.164,-0.343,0.887,-2.699,0.1767,0.1072,0.0083,-0.0131,0.9977,-0.0607,0.1435,0.2200,-0.0380,0.1231
7533,-0.0683,0.0623,0.0113,-0.12,0.25,-0.18,0.164,-0.413,0.562,-2.258,0.1761,0.1075,0.0049,-0.0136,0.9972,-0.0614,0.1442,0.2200,-0.0387,0.1237
7543,-0.0714,0.0560,0.0112,-0.09,0.27,-0.20,0.163,0.143,0.665,-1.669,0.1747,0.1072,0.0072,-0.0163,0.9963,-0.0621,0.1449,0.2200,-0.0394,0.1243
7553,-0.0689,0.0580,0.0114,-0.10,0.24,-0.23,0.163,-0.523,1.311,-2.211,0.1751,0.1086,0.0047,-0.0165,0.9974,-0.0628,0.1455,0.2200,-0.0401,0.1248
7564,-0.0691,0.0573,0.0114,-0.10,0.23,-0.26,0.163,-2.002,1.407,-1.985,0.1725,0.1019,0.0035,-0.0179,0.9940,-0.0636,0.1462,0.2200,-0.0408,0.1254
7572,-0.0721,0.0539,0.0106,-0.08,0.24,-0.28,0.163,-1.738,1.635,-0.728,0.1722,0.1030,0.0052,-0.0183,0.9951,-0.0643,0.1469,0.2200,-0.0415,0.1259
7584,-0.0680,0.0572,0.0104,-0.10,0.20,-0.29,0.162,-3.547,2.910,-1.130,0.1712,0.1031,0.0052,-0.0163,0.9978,-0.0650,0.1476,0.2200,-0.0422,0.1265
7593,-0.0763,0.0289,0.0106,0.09,0.24,-0.32,0.162,-3.986,1.722,-0.515,0.1700,0.1004,0.0038,-0.0172,0.9982,-0.0658,0.1483,0.2200,-0.0430,0.1268
7603,-0.0748,0.0318,0.0103,0.04,0.21,-0.34,0.162,-5.637,2.732,-0.837,0.1700,0.1022,0.0060,-0.0187,0.9954,-0.0665,0.1489,0.2200,-0.0437,0.1271
7613,-0.0758,0.0307,0.0059,0.02,0.20,-0.35,0.162,-5.550,3.218,-0.490,0.1698,0.1034,0.0081,-0.0152,0.9992,-0.0673,0.1496,0.2200,-0.0445,0.1274
7623,-0.0784,0.0192,0.0053,0.07,0.19,-0.36,0.162,-4.463,4.334,-0.792,0.1682,0.1035,0.0106,-0.0158,0.9999,-0.0680,0.1503,0.2200,-0.0453,0.1276
7633,-0.0754,0.0253,0.0051,-0.01,0.15,-0.37,0.162,-5.420,2.233,-0.236,0.1676,0.1054,0.0058,-0.0168,0.9996,-0.0688,0.1509,0.2200,-0.0460,0.1279
7643,-0.0735,0.0289,0.0049,-0.09,0.10,-0.38,0.161,-5.771,2.419,-0.339,0.1677,0.1072,0.0082,-0.0172,0.9981,-0.0695,0.1516,0.2200,-0.0468,0.1282
7652,-0.0769,0.0285,0.0045,-0.13,0.09,-0.38,0.161,-5.616,0.746,-0.642,0.1678,0.1107,0.0036,-0.0159,1.0000,-0.0703,0.1522,0.2200,-0.0475,0.1284
7663,-0.0765,0.0349,0.0041,-0.23,0.05,-0.39,0.161,-5.625,3.391,-0.514,0.1669,0.1112,0.0061,-0.0187,0.9992,-0.0710,0.1529,0.2200,-0.0483,0.1288
7673,-0.0730,0.0411,-0.0009,-0.32,-0.00,-0.39,0.161,-4.845,2.395,-0.434,0.1653,0.1067,0.0066,-0.0197,1.0011,-0.0718,0.1535,0.2200,-0.0490,0.1292
7683,-0.0699,0.0540,-0.0011,-0.46,-0.04,-0.39,0.161,-4.678,1.982,-0.627,0.1647,0.1082,0.0031,-0.0249,0.9990,-0.0726,0.1541,0.2200,-0.0497,0.1297
7692,-0.0707,0.0545,-0.0012,-0.51,-0.05,-0.39,0.161,-4.485,2.110,0.016,0.1641,0.1113,0.0047,-0.0246,0.9989,-0.0733,0.1548,0.2200,-0.0504,0.1303
7703,-0.0742,0.0355,-0.0007,-0.43,-0.06,-0.40,0.161,-5.753,0.647,0.338,0.1634,0.1118,0.0086,-0.0206,1.0029,-0.0741,0.1554,0.2200,-0.0512,0.1306
7713,-0.0734,0.0405,-0.0039,-0.50,-0.09,-0.41,0.161,-6.180,-0.124,0.426,0.1624,0.1127,0.0094,-0.0201,1.0057,-0.0749,0.1560,0.2200,-0.0519,0.1311
7722,-0.0726,0.0522,-0.0040,-0.62,-0.12,-0.41,0.161,-2.305,-0.311,0.468,0.1624,0.1141,0.0078,-0.0210,1.0036,-0.0757,0.1567,0.2200,-0.0526,0.1316
7732,-0.0724,0.0532,-0.0040,-0.66,-0.14,-0.41,0.161,-1.739,-0.183,-0.003,0.1614,0.1142,0.0086,-0.0192,1.0005,-0.0765,0.1573,0.2200,-0.0534,0.1321
7742,-0.0733,0.0556,-0.0043,-0.73,-0.13,-0.41,0.160,3.656,-0.369,-0.702,0.1621,0.1175,0.0099,-0.0165,1.0013,-0.0773,0.1579,0.2200,-0.0541,0.1327
7753,-0.0700,0.0605,-0.0041,-0.81,-0.15,-0.40,0.160,2.543,-1.874,-0.071,0.1622,0.1195,0.0082,-0.0168,1.0037,-0.0780,0.1585,0.2200,-0.0548,0.1333
7762,-0.0710,0.0597,-0.0036,-0.82,-0.14,-0.40,0.160,1.921,-2.033,0.940,0.1618,0.1218,0.0066,-0.0146,1.0023,-0.0788,0.1591,0.2200,-0.0555,0.1339
7773,-0.0649,0.0720,-0.0067,-0.89,-0.17,-0.40,0.160,2.581,-4.523,0.923,0.1606,0.1196,0.0066,-0.0166,1.0052,-0.0796,0.1597,0.2200,-0.0562,0.1346
7782,-0.0620,0.0785,-0.0067,-0.90,-0.19,-0.41,0.159,4.875,-1.630,0.841,0.1599,0.1191,0.0074,-0.0196,1.0044,-0.0804,0.1603,0.2200,-0.0568,0.1354
7793,-0.0606,0.0860,-0.0070,-0.91,-0.18,-0.41,0.159,3.747,-3.486,0.308,0.1595,0.1193,0.0060,-0.0207,1.0031,-0.0812,0.1609,0.2200,-0.0574,0.1362
7803,-0.0625,0.0756,-0.0061,-0.80,-0.13,-0.40,0.159,5.843,-2.921,0.560,0.1592,0.1222,0.0057,-0.0175,1.0033,-0.0820,0.1615,0.2200,-0.0580,0.1370
7812,-0.0627,0.0718,-0.0091,-0.73,-0.09,-0.39,0.159,6.552,-1.494,0.857,0.1587,0.1225,0.0052,-0.0209,1.0033,-0.0829,0.1621,0.2200,-0.0586,0.1377
7822,-0.0616,0.0711,-0.0087,-0.67,-0.07,-0.38,0.159,6.525,-1.593,0.787,0.1580,0.1233,0.0073,-0.0182,1.0068,-0.0837,0.1627,0.2200,-0.0593,0.1384
7833,-0.0604,0.0811,-0.0086,-0.69,-0.06,-0.38,0.159,5.420,-1.216,1.204,0.1572,0.1235,0.0061,-0.0164,1.0064,-0.0845,0.1633,0.2200,-0.0599,0.1392
7842,-0.0594,0.0797,-0.0081,-0.60,-0.03,-0.37,0.160,6.042,-2.279,0.895,0.1579,0.1280,0.0066,-0.0171,1.0056,-0.0853,0.1638,0.2200,-0.0604,0.1400
7852,-0.0600,0.0809,-0.0078,-0.54,-0.01,-0.36,0.160,5.299,-2.514,0.997,0.1579,0.1285,0.0063,-0.0197,1.0043,-0.0861,0.1644,0.2200,-0.0610,0.1408
7863,-0.0605,0.0792,-0.0074,-0.47,0.01,-0.34,0.160,7.432,-2.238,0.286,0.1565,0.1280,0.0046,-0.0205,1.0057,-0.0869,0.1650,0.2200,-0.0617,0.1416
7873,-0.0554,0.0951,-0.0063,-0.51,-0.01,-0.33,0.160,8.288,-4.466,0.401,0.1563,0.1269,0.0067,-0.0173,1.0064,-0.0878,0.1655,0.2200,-0.0622,0.1426
7883,-0.0532,0.0940,-0.0054,-0.43,-0.01,-0.32,0.159,7.181,-3.389,0.135,0.1552,0.1267,0.0107,-0.0155,1.0057,-0.0886,0.1661,0.2200,-0.0627,0.1435
7892,-0.0566,0.0889,-0.0046,-0.33,0.03,-0.32,0.159,7.277,-4.641,0.515,0.1551,0.1297,0.0070,-0.0187,1.0030,-0.0894,0.1667,0.2200,-0.0633,0.1444
7903,-0.0575,0.0851,-0.0040,-0.23,0.07,-0.32,0.159,7.185,-4.894,0.591,0.1547,0.1308,0.0035,-0.0207,1.0053,-0.0903,0.1672,0.2200,-0.0639,0.1453
7914,-0.0597,0.0811,-0.0046,-0.12,0.12,-0.31,0.159,6.304,-4.036,-0.058,0.1541,0.1318,0.0038,-0.0184,1.0062,-0.0911,0.1678,0.2200,-0.0645,0.1461
7923,-0.0578,0.0905,-0.0043,-0.10,0.15,-0.31,0.159,5.820,-3.750,0.308,0.1530,0.1316,0.0045,-0.0196,1.0114,-0.0919,0.1683,0.2200,-0.0651,0.1470
7933,-0.0576,0.0916,-0.0037,-0.03,0.19,-0.31,0.159,4.961,-3.786,0.382,0.1512,0.1315,0.0052,-0.0214,1.0101,-0.0928,0.1688,0.2200,-0.0656,0.1479
7942,-0.0579,0.0916,-0.0034,0.03,0.24,-0.31,0.157,5.506,-3.217,0.753,0.1508,0.1322,0.0100,-0.0201,1.0044,-0.0936,0.1694,0.2200,-0.0662,0.1488
7953,-0.0605,0.0871,-0.0028,0.13,0.29,-0.31,0.157,4.412,-2.632,0.585,0.1504,0.1318,0.0097,-0.0224,1.0041,-0.0945,0.1699,0.2200,-0.0668,0.1497
7962,-0.0658,0.0827,-0.0022,0.22,0.36,-0.31,0.157,3.149,-2.218,-0.026,0.1504,0.1346,0.0068,-0.0162,1.0076,-0.0953,0.1704,0.2200,-0.0675,0.1505
7974,-0.0653,0.0821,-0.0060,0.28,0.39,-0.30,0.157,3.223,-1.838,-0.400,0.1500,0.1365,0.0061,-0.0219,1.0085,-0.0962,0.1709,0.2200,-0.0681,0.1513
7983,-0.0650,0.0763,-0.0047,0.36,0.41,-0.29,0.158,2.564,-1.686,0.167,0.1497,0.1364,0.0061,-0.0209,1.0067,-0.0970,0.1715,0.2200,-0.0688,0.1521
7993,-0.0632,0.0844,-0.0041,0.34,0.41,-0.29,0.158,2.964,-2.104,-0.356,0.1486,0.1364,0.0054,-0.0174,1.0067,-0.0979,0.1720,0.2200,-0.0694,0.1529
8002,-0.0629,0.0881,-0.0040,0.34,0.43,-0.29,0.158,2.874,-1.690,0.283,0.1483,0.1363,0.0067,-0.0178,1.0101,-0.0988,0.1725,0.2200,-0.0700,0.1538
8012,-0.0626,0.0835,-0.0031,0.40,0.44,-0.29,0.158,2.996,-1.933,0.831,0.1472,0.1363,0.0053,-0.0184,1.0100,-0.0996,0.1730,0.2200,-0.0707,0.1546
8022,-0.0650,0.0792,-0.0022,0.45,0.47,-0.29,0.158,2.857,-2.264,1.291,0.1466,0.1370,0.0058,-0.0195,1.0045,-0.1005,0.1735,0.2200,-0.0713,0.1554
8033,-0.0646,0.0747,-0.0013,0.51,0.48,-0.30,0.158,3.249,-2.324,1.191,0.1445,0.1382,0.0022,-0.0174,1.0054,-0.1014,0.1740,0.2200,-0.0720,0.1562
8042,-0.0671,0.0706,-0.0006,0.56,0.51,-0.29,0.158,1.553,-2.552,2.003,0.1445,0.1392,0.0034,-0.0230,1.0063,-0.1022,0.1745,0.2200,-0.0726,0.1569
8053,-0.0680,0.0696,0.0002,0.58,0.53,-0.28,0.158,1.961,-2.098,1.682,0.1427,0.1365,0.0061,-0.0202,1.0099,-0.1031,0.1750,0.2200,-0.0733,0.1576
8062,-0.0745,0.0710,0.0008,0.59,0.59,-0.27,0.158,1.694,-2.513,2.113,0.1420,0.1358,0.0052,-0.0208,1.0080,-0.1040,0.1754,0.2200,-0.0741,0.1583
8073,-0.0728,0.0710,0.0015,0.61,0.60,-0.26,0.158,1.252,-1.980,1.723,0.1416,0.1380,0.0032,-0.0183,1.0073,-0.1049,0.1759,0.2200,-0.0748,0.1590
8082,-0.0780,0.0557,0.0022,0.73,0.65,-0.24,0.159,1.882,-0.834,1.482,0.1396,0.1350,0.0038,-0.0166,1.0119,-0.1057,0.1764,0.2200,-0.0756,0.1596
8093,-0.0789,0.0492,0.0029,0.79,0.68,-0.22,0.159,2.397,-0.631,1.478,0.1379,0.1333,0.0080,-0.0172,1.0149,-0.1066,0.1769,0.2200,-0.0764,0.1601
8102,-0.0784,0.0551,0.0038,0.75,0.69,-0.20,0.159,1.196,-0.861,1.427,0.1382,0.1362,0.0036,-0.0177,1.0112,-0.1075,0.1773,0.2200,-0.0771,0.1606
8113,-0.0848,0.0392,0.0064,0.87,0.74,-0.19,0.159,0.557,-0.326,2.014,0.1366,0.1356,-0.0001,-0.0193,1.0092,-0.1084,0.1778,0.2200,-0.0780,0.1610
8122,-0.0896,0.0291,0.0070,0.95,0.77,-0.17,0.159,0.097,1.006,1.881,0.1366,0.1362,0.0053,-0.0167,1.0079,-0.1093,0.1782,0.2200,-0.0789,0.1613
8132,-0.0859,0.0381,0.0082,0.89,0.75,-0.16,0.159,-1.980,1.924,1.916,0.1337,0.1295,0.0079,-0.0229,1.0050,-0.1102,0.1787,0.2200,-0.0797,0.1617
8143,-0.0905,0.0322,0.0094,0.93,0.78,-0.14,0.162,-1.471,3.890,1.400,0.1324,0.1309,0.0060,-0.0211,1.0089,-0.1111,0.1791,0.2200,-0.0806,0.1620
8152,-0.0881,0.0320,0.0109,0.93,0.75,-0.12,0.162,-1.122,3.883,0.472,0.1322,0.1312,0.0059,-0.0194,1.0098,-0.1120,0.1796,0.2200,-0.0815,0.1623
8162,-0.0976,0.0012,0.0113,1.13,0.79,-0.11,0.162,-6.301,5.076,0.942,0.1300,0.1297,0.0048,-0.0164,1.0104,-0.1129,0.1800,0.2200,-0.0825,0.1623
8172,-0.0963,0.0046,0.0190,1.08,0.74,-0.09,0.162,-4.900,5.824,-0.470,0.1298,0.1312,0.0057,-0.0189,1.0055,-0.1138,0.1805,0.2200,-0.0835,0.1624
8182,-0.0987,0.0041,0.0195,1.05,0.71,-0.08,0.158,-8.243,4.324,0.181,0.1298,0.1343,0.0063,-0.0185,1.0084,-0.1147,0.1809,0.2200,-0.0845,0.1624
8192,-0.1009,-0.0040,0.0201,1.06,0.68,-0.07,0.158,-4.792,5.702,-1.688,0.1307,0.1356,0.0067,-0.0186,1.0097,-0.1156,0.1813,0.2200,-0.0855,0.1624
8202,-0.1029,0.0003,0.0211,0.96,0.64,-0.06,0.158,-7.993,3.744,-1.365,0.1297,0.1343,0.0064,-0.0158,1.0088,-0.1165,0.1817,0.2200,-0.0865,0.1624
8213,-0.0952,0.0111,0.0156,0.83,0.53,-0.07,0.158,-7.702,2.586,-2.141,0.1283,0.1336,0.0068,-0.0177,1.0073,-0.1174,0.1821,0.2200,-0.0874,0.1625
8223,-0.0931,0.0151,0.0164,0.71,0.45,-0.08,0.158,-8.488,1.129,-1.592,0.1261,0.1338,0.0074,-0.0194,1.0078,-0.1183,0.1826,0.2200,-0.0884,0.1626
8233,-0.0938,0.0076,0.0173,0.66,0.40,-0.09,0.158,-8.613,1.761,-1.105,0.1261,0.1353,0.0071,-0.0190,1.0051,-0.1192,0.1830,0.2200,-0.0893,0.1627
8242,-0.0958,0.0030,0.0182,0.62,0.38,-0.11,0.163,-5.808,0.881,-1.422,0.1251,0.1355,0.0103,-0.0189,1.0028,-0.1201,0.1834,0.2200,-0.0903,0.1627
8252,-0.1017,0.0028,0.0187,0.54,0.39,-0.12,0.163,-5.511,0.051,-1.076,0.1235,0.1329,0.0070,-0.0169,1.0024,-0.1210,0.1838,0.2200,-0.0913,0.1628
8262,-0.0981,0.0079,0.0197,0.42,0.35,-0.14,0.163,-9.443,1.370,0.210,0.1238,0.1359,0.0074,-0.0194,1.0029,-0.1220,0.1842,0.2200,-0.0923,0.1628
8272,-0.0989,0.0077,0.0252,0.33,0.34,-0.15,0.163,-5.700,2.042,-0.210,0.1222,0.1361,0.0060,-0.0174,1.0028,-0.1229,0.1845,0.2200,-0.0933,0.1629
8282,-0.1021,-0.0044,0.0257,0.35,0.34,-0.16,0.162,-5.627,1.252,-0.050,0.1213,0.1376,0.0061,-0.0200,1.0008,-0.1238,0.1849,0.2200,-0.0943,0.1629
8292,-0.0971,0.0080,0.0263,0.19,0.29,-0.17,0.162,-3.562,2.361,-0.261,0.1207,0.1377,0.0095,-0.0178,1.0040,-0.1247,0.1853,0.2200,-0.0952,0.1630
8302,-0.1003,0.0082,0.0264,0.10,0.30,-0.17,0.162,-1.850,-0.029,-0.724,0.1184,0.1353,0.0088,-0.0192,1.0034,-0.1257,0.1857,0.2200,-0.0962,0.1630
8313,-0.1004,0.0139,0.0249,-0.00,0.27,-0.17,0.162,-0.143,0.744,-0.350,0.1183,0.1362,0.0086,-0.0173,1.0019,-0.1266,0.1860,0.2200,-0.0973,0.1632
8322,-0.0993,0.0137,0.0253,-0.03,0.25,-0.17,0.162,-3.018,1.494,-1.190,0.1158,0.1363,0.0063,-0.0172,0.9961,-0.1275,0.1864,0.2200,-0.0982,0.1633
8333,-0.1051,0.0031,0.0253,0.01,0.28,-0.17,0.162,-5.482,2.858,-0.717,0.1147,0.1363,0.0073,-0.0202,0.9946,-0.1285,0.1868,0.2200,-0.0993,0.1634
8342,-0.1014,0.0068,0.0259,-0.02,0.24,-0.18,0.163,-4.465,4.233,-1.074,0.1122,0.1338,0.0061,-0.0223,0.9976,-0.1294,0.1871,0.2200,-0.1003,0.1634
8352,-0.1081,0.0068,0.0259,-0.03,0.27,-0.19,0.163,-2.872,2.277,-2.045,0.1122,0.1369,0.0073,-0.0191,0.9995,-0.1303,0.1875,0.2200,-0.1014,0.1635
8363,-0.1086,0.0068,0.0262,-0.07,0.24,-0.20,0.163,0.050,3.279,-2.713,0.1110,0.1369,0.0067,-0.0161,0.9961,-0.1313,0.1878,0.2200,-0.1025,0.1636
8372,-0.1149,-0.0037,0.0234,-0.04,0.25,-0.21,0.163,-5.190,2.341,-2.078,0.1110,0.1383,0.0045,-0.0161,0.9952,-0.1322,0.1882,0.2200,-0.1036,0.1635
8383,-0.1105,0.0091,0.0231,-0.17,0.18,-0.23,0.162,-6.367,4.149,-1.894,0.1085,0.1352,0.0106,-0.0182,0.9929,-0.1332,0.1885,0.2200,-0.1047,0.1636
8393,-0.1114,0.0091,0.0228,-0.17,0.15,-0.25,0.162,-0.292,1.036,-3.036,0.1086,0.1369,0.0093,-0.0208,0.9949,-0.1341,0.1888,0.2200,-0.1058,0.1637
8402,-0.1069,0.0148,0.0230,-0.24,0.09,-0.28,0.162,-1.497,4.377,-2.615,0.1080,0.1383,0.0066,-0.0184,0.9988,-0.1350,0.1892,0.2200,-0.1069,0.1638
8412,-0.1128,0.0020,0.0171,-0.21,0.09,-0.30,0.162,-2.430,1.456,-1.778,0.1060,0.1377,0.0047,-0.0194,0.9984,-0.1360,0.1895,0.2200,-0.1080,0.1639
