time_ms,vel_x,vel_y,vel_z,roll,pitch,yaw,range_z,gyro_x,gyro_y,gyro_z
0,0.0061,-0.0245,-0.0029,-0.05,-0.34,3.51,0.008,0.024,-0.052,-0.022
0,-0.0010,-0.0127,-0.0022,-0.15,-0.29,3.50,0.010,0.212,-0.125,-0.281
0,0.0020,-0.0021,0.0007,-0.22,-0.31,3.50,0.010,0.106,-0.136,-0.190
0,-0.0002,-0.0057,0.0007,-0.20,-0.30,3.50,0.010,-0.085,0.002,-0.091
0,0.0019,-0.0052,0.0010,-0.20,-0.31,3.50,0.010,-0.046,0.366,0.178
0,0.0010,0.0057,0.0010,-0.28,-0.31,3.49,0.007,-0.172,0.128,0.117
0,-0.0004,0.0091,0.0010,-0.31,-0.30,3.49,0.007,-0.046,-0.146,0.001
0,0.0005,-0.0048,-0.0039,-0.19,-0.30,3.48,0.007,-0.261,-0.124,0.353
0,0.0001,-0.0171,-0.0040,-0.09,-0.29,3.48,0.007,-0.026,-0.099,0.006
0,-0.0051,-0.0233,-0.0041,-0.05,-0.24,3.48,0.007,-0.441,0.031,0.201
0,0.0008,-0.0217,-0.0038,-0.06,-0.29,3.48,0.007,-0.198,0.039,-0.177
0,-0.0154,-0.0167,-0.0035,-0.11,-0.17,3.47,0.010,0.053,0.222,0.183
1,-0.0123,-0.0200,-0.0034,-0.08,-0.19,3.47,0.010,-0.378,0.107,0.369
1,-0.0066,-0.0482,-0.0001,0.14,-0.22,3.47,0.010,-0.105,0.140,0.273
1,0.0004,-0.0819,-0.0030,0.41,-0.27,3.47,0.010,0.033,0.184,-0.027
1,0.0011,-0.0884,-0.0039,0.46,-0.27,3.46,0.007,0.031,0.001,0.189
1,0.0040,-0.0801,-0.0022,0.38,-0.30,3.46,0.007,-0.069,0.076,0.120
1,0.0014,-0.0756,-0.0049,0.34,-0.28,3.46,0.007,0.038,-0.189,0.052
1,0.0035,-0.0733,-0.0043,0.31,-0.30,3.46,0.007,-0.028,0.127,-0.095
1,0.0008,-0.0669,-0.0034,0.25,-0.28,3.45,0.007,-0.347,-0.041,-0.135
1,-0.0022,-0.0719,-0.0038,0.29,-0.26,3.45,0.007,-0.111,0.001,-0.135
1,-0.0023,-0.0655,-0.0029,0.23,-0.26,3.45,0.008,0.112,0.042,0.229
1,0.0003,-0.0846,-0.0050,0.38,-0.27,3.44,0.008,0.036,0.043,-0.295
1,0.0072,-0.1394,-0.0107,0.82,-0.30,3.44,0.008,-0.154,0.109,0.145
1,0.0023,-0.1150,-0.0047,0.60,-0.27,3.44,0.008,-0.054,0.088,-0.010
1,0.0039,-0.1375,-0.0091,0.78,-0.27,3.44,0.009,0.160,-0.137,-0.233
1,0.0042,-0.1372,-0.0088,0.76,-0.27,3.43,0.009,-0.255,0.017,-0.008
2,0.0026,-0.1283,-0.0027,0.67,-0.27,3.43,0.009,0.085,-0.157,0.160
2,0.0057,-0.1224,-0.0015,0.62,-0.30,3.42,0.009,-0.246,-0.071,-0.174
2,0.0034,-0.1206,-0.0008,0.59,-0.28,3.42,0.009,-0.057,0.001,0.080
2,0.0033,-0.1218,-0.0007,0.59,-0.28,3.42,0.009,-0.104,-0.217,-0.144
2,0.0028,-0.1129,0.0015,0.50,-0.28,3.42,0.010,-0.018,-0.161,0.020
2,0.0038,-0.1248,-0.0005,0.59,-0.28,3.41,0.010,-0.249,-0.367,-0.006
2,0.0027,-0.1437,0.0007,0.73,-0.26,3.41,0.010,0.232,0.030,-0.104
2,0.0023,-0.1143,0.0072,0.47,-0.27,3.40,0.010,-0.032,-0.126,-0.111
2,0.0032,-0.1066,0.0087,0.40,-0.28,3.40,0.008,0.091,0.254,-0.083
2,0.0028,-0.0982,0.0100,0.32,-0.28,3.40,0.008,-0.128,0.046,0.339
2,0.0064,-0.0987,0.0054,0.33,-0.31,3.39,0.008,0.129,-0.111,-0.262
2,0.0051,-0.0974,0.0057,0.31,-0.30,3.39,0.008,-0.127,0.023,0.157
2,0.0009,-0.0870,0.0073,0.22,-0.27,3.39,0.008,-0.242,-0.063,0.063
2,0.0007,-0.0792,0.0084,0.15,-0.27,3.38,0.008,-0.152,0.013,0.168
3,0.0010,-0.0798,0.0084,0.15,-0.27,3.38,0.007,0.154,-0.116,-0.166
3,0.0073,-0.0865,0.0011,0.21,-0.32,3.37,0.007,0.072,-0.204,0.279
3,0.0125,-0.0992,-0.0002,0.30,-0.36,3.37,0.007,-0.116,0.164,0.198
3,0.0075,-0.1003,-0.0000,0.30,-0.32,3.37,0.007,-0.085,-0.029,0.002
3,0.0078,-0.1080,-0.0011,0.36,-0.31,3.36,0.010,0.144,-0.061,-0.357
3,0.0074,-0.1019,0.0004,0.30,-0.31,3.36,0.010,-0.067,0.094,0.328
3,0.0074,-0.1031,0.0035,0.30,-0.31,3.36,0.010,-0.176,-0.003,0.015
3,0.0117,-0.0991,0.0041,0.26,-0.35,3.35,0.010,0.127,0.041,-0.018
3,0.0072,-0.0853,0.0066,0.15,-0.32,3.35,0.010,-0.048,0.051,-0.075
3,0.0047,-0.0824,0.0072,0.12,-0.30,3.34,0.010,-0.204,-0.203,0.189
3,0.0022,-0.0799,0.0076,0.09,-0.28,3.34,0.013,-0.087,-0.143,0.092
3,0.0055,-0.0758,0.0083,0.05,-0.31,3.34,0.013,0.070,0.123,-0.254
3,0.0028,-0.0683,0.0159,-0.02,-0.29,3.34,0.013,0.192,0.098,-0.049
3,0.0028,-0.0683,0.0157,-0.02,-0.29,3.33,0.013,-0.113,0.062,0.012
3,0.0024,-0.0637,0.0162,-0.06,-0.29,3.33,0.011,0.072,0.116,-0.008
3,0.0046,-0.0635,0.0164,-0.06,-0.31,3.33,0.011,-0.436,0.005,0.044
3,0.0035,-0.0646,0.0137,-0.05,-0.30,3.32,0.011,0.185,0.161,-0.156
3,0.0028,-0.0514,0.0146,-0.16,-0.30,3.32,0.011,0.107,0.145,0.041
3,0.0042,-0.0531,0.0144,-0.15,-0.31,3.32,0.011,-0.162,-0.230,-0.415
3,0.0052,-0.0513,0.0145,-0.16,-0.31,3.31,0.011,-0.187,0.067,-0.057
3,0.0026,-0.0474,0.0148,-0.19,-0.30,3.31,0.008,0.013,0.128,-0.113
3,-0.0000,-0.0225,0.0165,-0.40,-0.29,3.30,0.008,-0.321,0.006,0.125
3,-0.0060,-0.0153,0.0062,-0.45,-0.24,3.30,0.008,-0.065,0.256,-0.129
3,-0.0004,-0.0126,0.0065,-0.47,-0.29,3.30,0.008,0.048,-0.048,0.010
4,-0.0003,-0.0336,0.0067,-0.29,-0.28,3.30,0.008,0.046,0.043,-0.068
4,0.0020,-0.0359,0.0065,-0.27,-0.30,3.29,0.008,0.037,0.178,-0.128
4,0.0030,-0.0334,-0.0004,-0.29,-0.31,3.29,0.008,-0.191,-0.099,0.244
4,-0.0029,-0.0295,-0.0001,-0.32,-0.27,3.29,0.008,0.026,0.014,0.111
4,0.0003,-0.0255,0.0002,-0.35,-0.29,3.28,0.008,-0.172,-0.341,-0.257
4,0.0002,-0.0254,0.0004,-0.35,-0.29,3.28,0.008,0.049,0.154,-0.260
4,0.0006,-0.0283,0.0002,-0.32,-0.29,3.28,0.010,0.133,0.068,-0.032
4,0.0050,-0.0205,0.0005,-0.38,-0.33,3.28,0.010,-0.030,0.022,0.097
4,0.0053,-0.0272,0.0006,-0.33,-0.33,3.27,0.010,-0.007,0.080,0.014
4,0.0001,-0.0187,0.0008,-0.40,-0.29,3.27,0.010,-0.338,-0.021,0.093
4,0.0024,-0.0184,0.0009,-0.39,-0.31,3.26,0.009,-0.225,0.083,0.073
4,-0.0011,-0.0173,0.0010,-0.40,-0.28,3.26,0.009,-0.296,-0.170,0.145
4,0.0023,-0.0160,-0.0012,-0.41,-0.31,3.26,0.009,-0.117,0.055,0.120
4,0.0032,-0.0147,-0.0010,-0.42,-0.32,3.25,0.009,-0.097,0.199,0.198
4,-0.0016,-0.0125,-0.0009,-0.44,-0.28,3.25,0.009,-0.140,0.142,0.116
4,-0.0018,-0.0076,-0.0008,-0.47,-0.28,3.25,0.009,0.215,0.225,-0.179
4,-0.0001,-0.0148,-0.0007,-0.41,-0.29,3.25,0.007,-0.068,-0.042,0.009
4,-0.0073,-0.0142,-0.0008,-0.42,-0.23,3.24,0.007,0.035,0.255,0.058
4,-0.0028,0.0158,-0.0060,-0.64,-0.28,3.24,0.007,-0.260,0.178,0.210
4,-0.0072,0.0344,-0.0067,-0.78,-0.25,3.24,0.007,-0.039,-0.230,0.222
4,-0.0069,0.0355,-0.0067,-0.78,-0.26,3.23,0.009,-0.171,-0.127,0.352
4,-0.0054,0.0359,-0.0067,-0.78,-0.27,3.23,0.009,-0.118,-0.166,0.135
4,-0.0039,0.0338,-0.0044,-0.75,-0.28,3.23,0.009,0.064,0.003,-0.293
4,-0.0052,0.0339,-0.0044,-0.74,-0.27,3.23,0.009,0.065,-0.116,-0.026
4,-0.0025,0.0305,-0.0042,-0.71,-0.29,3.23,0.009,0.250,-0.213,-0.180
4,-0.0040,0.0366,-0.0045,-0.75,-0.28,3.22,0.009,-0.009,0.005,-0.020
4,-0.0049,0.0317,-0.0040,-0.71,-0.27,3.22,0.010,-0.207,-0.082,0.215
4,-0.0062,0.0343,-0.0043,-0.72,-0.26,3.21,0.010,0.023,-0.291,-0.077
4,0.0012,-0.0082,0.0014,-0.36,-0.30,3.22,0.010,-0.192,0.066,0.107
4,0.0102,-0.0428,0.0001,-0.08,-0.35,3.22,0.010,-0.185,-0.126,0.106
4,0.0099,-0.0428,0.0001,-0.08,-0.35,3.22,0.007,-0.022,-0.142,-0.045
4,0.0080,-0.0349,0.0011,-0.15,-0.34,3.21,0.007,-0.210,-0.264,0.066
4,0.0134,-0.0348,-0.0045,-0.15,-0.38,3.21,0.007,-0.172,-0.212,0.015
5,0.0140,-0.0578,-0.0061,0.04,-0.37,3.21,0.007,0.041,-0.239,-0.184
5,0.0130,-0.0698,-0.0075,0.13,-0.36,3.21,0.007,-0.317,0.016,0.163
5,0.0114,-0.0665,-0.0069,0.10,-0.34,3.20,0.007,-0.107,0.054,0.079
5,0.0102,-0.0691,-0.0071,0.11,-0.33,3.20,0.006,-0.107,0.029,-0.263
5,0.0136,-0.0553,-0.0049,-0.00,-0.36,3.20,0.006,0.051,0.143,0.026
5,0.0143,-0.0579,-0.0097,0.02,-0.37,3.20,0.006,-0.008,0.174,-0.002
5,0.0171,-0.0784,-0.0117,0.19,-0.38,3.19,0.006,-0.075,-0.338,-0.140
5,0.0152,-0.0792,-0.0117,0.19,-0.37,3.19,0.008,-0.313,0.401,0.491
5,0.0154,-0.0720,-0.0102,0.13,-0.37,3.18,0.008,-0.126,-0.154,0.062
5,0.0155,-0.0631,-0.0060,0.05,-0.37,3.18,0.008,0.049,0.022,-0.093
5,0.0105,-0.0604,-0.0056,0.02,-0.34,3.18,0.008,-0.060,-0.080,-0.070
5,0.0158,-0.0627,-0.0057,0.04,-0.38,3.18,0.008,0.057,0.124,-0.114
5,0.0116,-0.0600,-0.0051,0.01,-0.35,3.17,0.008,-0.017,0.273,0.348
5,0.0122,-0.0568,-0.0048,-0.02,-0.35,3.17,0.011,-0.148,-0.046,0.086
5,0.0059,-0.0498,-0.0039,-0.08,-0.30,3.16,0.011,-0.017,-0.238,-0.026
5,0.0155,-0.0461,0.0046,-0.11,-0.39,3.16,0.011,0.052,0.066,0.075
5,0.0100,0.0217,0.0080,-0.67,-0.37,3.15,0.011,-0.198,0.077,-0.043
5,0.0073,0.0211,0.0082,-0.66,-0.35,3.15,0.010,-0.038,-0.202,0.060
5,0.0125,0.0197,0.0084,-0.64,-0.39,3.15,0.010,-0.068,0.029,-0.126
5,0.0098,0.0169,0.0091,-0.62,-0.36,3.14,0.010,-0.121,0.065,0.375
5,-0.0102,0.0043,0.0099,-0.52,-0.19,3.14,0.010,-0.298,-0.246,-0.075
5,-0.0122,0.0057,0.0098,-0.53,-0.18,3.13,0.010,-0.031,-0.075,0.066
5,-0.0141,0.0047,0.0099,-0.51,-0.17,3.13,0.010,-0.011,-0.125,-0.018
5,-0.0140,0.0096,0.0099,-0.55,-0.17,3.13,0.009,-0.016,0.062,0.011
5,-0.0107,0.0009,0.0068,-0.47,-0.20,3.13,0.009,-0.120,0.041,-0.179
5,-0.0105,-0.0170,0.0066,-0.32,-0.19,3.12,0.009,-0.116,0.194,0.006
5,-0.0136,-0.0171,0.0065,-0.32,-0.17,3.12,0.009,-0.233,0.081,0.018
5,-0.0099,-0.0110,0.0069,-0.37,-0.21,3.12,0.011,-0.068,-0.124,0.007
5,-0.0128,-0.0161,0.0069,-0.33,-0.19,3.12,0.011,0.160,0.026,-0.135
5,-0.0047,-0.0053,0.0091,-0.41,-0.26,3.12,0.011,-0.247,0.101,-0.153
5,-0.0119,-0.0186,0.0091,-0.30,-0.19,3.11,0.011,-0.056,0.191,0.285
5,-0.0136,-0.0003,0.0096,-0.43,-0.19,3.10,0.011,-0.298,0.195,0.032
5,-0.0044,0.0109,0.0096,-0.52,-0.27,3.10,0.011,-0.189,-0.126,-0.154
5,-0.0018,0.0110,0.0097,-0.51,-0.29,3.10,0.011,0.043,0.005,0.008
6,-0.0020,0.0131,0.0099,-0.53,-0.29,3.10,0.011,-0.199,0.134,0.058
6,-0.0050,0.0466,0.0084,-0.79,-0.28,3.10,0.011,0.015,-0.182,0.249
6,-0.0026,0.0654,0.0068,-0.94,-0.31,3.10,0.011,0.104,-0.041,-0.106
6,-0.0015,0.0655,0.0071,-0.93,-0.32,3.10,0.010,-0.196,-0.034,0.028
6,0.0029,0.0626,0.0077,-0.89,-0.35,3.10,0.010,0.088,-0.004,0.027
6,-0.0019,0.0635,0.0051,-0.89,-0.32,3.09,0.010,-0.308,-0.004,0.177
6,0.0023,0.0648,0.0052,-0.89,-0.35,3.09,0.010,0.026,0.103,-0.034
6,-0.0022,0.0612,0.0060,-0.85,-0.31,3.08,0.010,0.121,0.103,0.038
6,0.0016,0.0548,0.0067,-0.79,-0.34,3.08,0.010,0.258,-0.275,-0.074
6,0.0020,0.0496,0.0072,-0.74,-0.33,3.08,0.007,-0.044,0.204,0.109
6,-0.0049,0.0510,0.0072,-0.75,-0.28,3.07,0.007,-0.264,0.020,0.256
6,-0.0046,0.0644,-0.0034,-0.85,-0.29,3.07,0.007,-0.215,0.028,-0.181
6,-0.0045,0.0665,-0.0035,-0.85,-0.29,3.07,0.007,-0.115,0.027,-0.027
6,-0.0081,0.0717,-0.0040,-0.89,-0.26,3.06,0.009,-0.087,0.252,0.194
6,-0.0080,0.0713,-0.0039,-0.87,-0.27,3.06,0.009,-0.262,0.128,0.225
6,-0.0078,0.0709,-0.0043,-0.86,-0.27,3.05,0.009,-0.137,-0.124,-0.284
6,-0.0098,0.0681,-0.0041,-0.83,-0.25,3.05,0.009,-0.099,0.073,-0.024
6,-0.0080,0.0622,-0.0032,-0.78,-0.26,3.05,0.009,0.075,-0.114,0.069
6,-0.0052,0.0556,-0.0024,-0.71,-0.28,3.05,0.009,0.040,0.061,0.043
6,-0.0029,0.0580,-0.0025,-0.72,-0.30,3.05,0.011,0.031,-0.023,-0.059
6,-0.0058,0.0320,-0.0001,-0.51,-0.26,3.04,0.011,-0.263,0.104,0.130
6,-0.0036,-0.0047,0.0038,-0.21,-0.27,3.03,0.011,0.221,0.023,0.000
6,-0.0043,-0.0097,0.0038,-0.16,-0.26,3.03,0.011,-0.136,0.089,-0.031
6,-0.0043,-0.0098,0.0038,-0.17,-0.26,3.03,0.010,-0.005,-0.101,0.042
6,-0.0015,-0.0116,0.0036,-0.15,-0.28,3.03,0.010,0.056,0.083,0.225
6,0.0025,-0.0156,0.0027,-0.12,-0.31,3.03,0.010,-0.123,0.031,0.056
6,0.0040,-0.0461,0.0017,0.13,-0.31,3.02,0.010,-0.283,-0.190,0.223
6,0.0020,-0.0334,0.0032,0.02,-0.30,3.02,0.010,-0.189,0.011,0.023
6,0.0023,-0.0400,0.0030,0.07,-0.30,3.01,0.010,-0.200,0.165,-0.107
6,0.0019,-0.0338,0.0036,0.02,-0.29,3.01,0.014,-0.195,-0.498,0.073
6,0.0055,-0.0380,0.0034,0.05,-0.32,3.01,0.014,-0.289,-0.074,0.224
6,0.0002,-0.0516,0.0108,0.15,-0.27,3.01,0.014,0.079,0.138,0.010
6,-0.0045,-0.0471,0.0113,0.11,-0.23,3.00,0.014,-0.035,0.336,0.266
6,-0.0047,-0.0474,0.0113,0.10,-0.23,3.00,0.010,-0.186,-0.466,-0.003
6,-0.0046,-0.0218,0.0135,-0.10,-0.25,3.00,0.010,-0.240,0.162,0.141
6,-0.0068,-0.0219,0.0076,-0.10,-0.23,3.00,0.010,0.046,-0.119,0.231
7,0.0217,-0.0142,0.0081,-0.15,-0.45,3.00,0.010,0.090,0.297,-0.093
7,0.0233,-0.0195,0.0078,-0.11,-0.46,2.99,0.010,0.055,-0.322,0.081
7,0.0181,0.0119,0.0086,-0.36,-0.43,2.99,0.010,-0.073,0.143,0.184
7,0.0149,0.0115,0.0090,-0.35,-0.41,2.99,0.010,-0.232,-0.436,0.053
7,0.0132,0.0304,0.0082,-0.50,-0.40,2.98,0.010,0.001,0.079,0.168
7,0.0065,0.0287,0.0036,-0.49,-0.34,2.98,0.010,-0.052,-0.157,0.381
7,0.0053,0.0430,0.0029,-0.60,-0.34,2.98,0.010,-0.144,0.093,-0.069
7,0.0037,0.0412,0.0032,-0.58,-0.33,2.98,0.008,-0.001,0.033,0.206
7,0.0032,0.0444,0.0030,-0.60,-0.32,2.98,0.008,0.134,-0.236,0.096
7,0.0056,0.0379,-0.0041,-0.54,-0.34,2.97,0.008,-0.129,0.027,-0.021
7,0.0075,0.0227,-0.0031,-0.41,-0.35,2.97,0.008,-0.019,-0.122,-0.274
7,0.0052,0.0404,-0.0036,-0.55,-0.33,2.97,0.008,-0.144,-0.147,0.319
7,0.0038,0.0388,-0.0032,-0.53,-0.32,2.97,0.008,0.018,0.206,-0.264
7,0.0014,0.0371,-0.0029,-0.51,-0.30,2.96,0.009,-0.104,-0.283,0.343
7,0.0038,0.0335,-0.0026,-0.48,-0.32,2.96,0.009,-0.021,0.069,0.012
7,-0.0030,0.0515,-0.0056,-0.62,-0.27,2.96,0.009,0.113,0.012,-0.065
7,-0.0018,0.0290,-0.0038,-0.44,-0.26,2.96,0.009,-0.188,0.084,0.329
7,-0.0006,0.0313,-0.0037,-0.45,-0.27,2.95,0.010,-0.234,0.035,0.067
7,-0.0017,0.0290,-0.0034,-0.43,-0.27,2.95,0.010,0.102,0.144,0.318
7,0.0006,0.0270,-0.0023,-0.41,-0.28,2.95,0.010,0.127,-0.185,0.017
7,-0.0071,0.0201,-0.0020,-0.35,-0.22,2.94,0.010,-0.064,0.149,0.207
7,-0.0026,0.0278,-0.0018,-0.41,-0.26,2.94,0.010,-0.048,-0.135,0.051
7,-0.0058,0.0255,-0.0015,-0.38,-0.23,2.94,0.010,-0.046,0.026,-0.139
7,0.0003,0.0170,-0.0013,-0.31,-0.28,2.94,0.007,0.050,-0.234,-0.049
7,-0.0064,0.0126,-0.0012,-0.27,-0.22,2.94,0.007,-0.290,0.020,0.191
7,0.0067,-0.0429,-0.0071,0.18,-0.31,2.94,0.007,0.011,0.251,-0.363
7,0.0037,-0.0584,-0.0084,0.30,-0.28,2.93,0.007,-0.032,0.287,-0.259
7,0.0039,-0.0617,-0.0086,0.32,-0.28,2.93,0.007,0.007,-0.128,0.282
7,0.0058,-0.0547,-0.0073,0.25,-0.30,2.93,0.007,-0.162,-0.126,0.030
7,0.0058,-0.0554,-0.0099,0.25,-0.30,2.92,0.007,0.127,-0.046,-0.167
7,-0.0010,-0.0415,-0.0088,0.13,-0.25,2.93,0.007,0.157,-0.023,0.125
7,0.0072,-0.0379,-0.0088,0.10,-0.31,2.92,0.007,-0.279,0.015,0.192
7,0.0069,-0.0339,-0.0084,0.06,-0.31,2.92,0.007,-0.272,-0.148,0.049
7,0.0066,-0.0335,-0.0081,0.05,-0.31,2.92,0.009,0.003,0.071,-0.246
7,0.0041,-0.0377,-0.0082,0.08,-0.28,2.91,0.009,-0.247,-0.022,0.075
8,0.0052,-0.0617,-0.0062,0.27,-0.28,2.91,0.009,-0.204,0.025,0.129
8,0.0101,-0.0716,-0.0070,0.35,-0.32,2.91,0.009,-0.059,0.131,0.036
8,-0.0084,-0.0648,-0.0058,0.27,-0.18,2.91,0.009,-0.151,-0.226,-0.205
8,0.0016,-0.0729,-0.0065,0.33,-0.25,2.90,0.009,-0.149,-0.091,-0.111
8,-0.0012,-0.0626,-0.0025,0.24,-0.24,2.90,0.009,0.034,-0.089,-0.137
8,-0.0047,-0.0832,-0.0041,0.40,-0.20,2.90,0.009,-0.112,0.179,0.114
8,0.0002,-0.0790,-0.0035,0.36,-0.24,2.89,0.009,-0.293,-0.059,-0.144
8,-0.0042,-0.0804,-0.0035,0.36,-0.20,2.89,0.009,-0.049,-0.054,0.007
8,-0.0068,-0.0687,-0.0020,0.26,-0.19,2.89,0.009,0.280,-0.152,-0.035
8,0.0049,-0.0826,-0.0033,0.37,-0.28,2.88,0.009,-0.073,-0.075,0.017
8,0.0034,-0.0719,0.0001,0.28,-0.27,2.88,0.009,0.019,-0.057,0.018
8,-0.0036,-0.0699,0.0006,0.25,-0.21,2.88,0.009,-0.190,0.099,-0.026
8,-0.0026,-0.0643,0.0015,0.20,-0.22,2.88,0.010,-0.218,-0.353,0.005
8,-0.0038,-0.0636,0.0019,0.19,-0.22,2.88,0.010,-0.000,-0.168,0.135
8,-0.0013,-0.0431,0.0059,0.03,-0.25,2.87,0.010,-0.039,-0.109,-0.504
8,0.0045,-0.0462,0.0059,0.05,-0.29,2.87,0.010,-0.012,0.041,0.339
8,0.0045,-0.0541,0.0054,0.12,-0.29,2.86,0.010,-0.154,0.049,0.107
8,-0.0054,-0.0453,0.0063,0.04,-0.21,2.87,0.010,-0.047,-0.048,0.076
8,-0.0053,-0.0216,0.0077,-0.15,-0.23,2.87,0.009,-0.004,-0.162,-0.010
8,-0.0050,-0.0237,0.0076,-0.14,-0.23,2.86,0.009,-0.132,-0.003,0.008
8,-0.0051,-0.0234,0.0053,-0.14,-0.23,2.86,0.009,-0.087,0.013,0.169
8,-0.0089,-0.0189,0.0056,-0.17,-0.21,2.86,0.009,0.042,-0.027,0.109
8,-0.0061,-0.0212,0.0058,-0.16,-0.23,2.85,0.009,-0.389,0.245,0.375
8,-0.0048,-0.0201,0.0058,-0.17,-0.24,2.85,0.009,-0.283,0.184,0.173
8,-0.0069,-0.0169,0.0035,-0.19,-0.22,2.85,0.009,-0.050,0.103,-0.081
8,-0.0069,-0.0169,0.0034,-0.19,-0.22,2.85,0.009,-0.211,-0.205,0.284
8,-0.0043,-0.0156,0.0033,-0.20,-0.25,2.84,0.009,-0.143,-0.024,-0.120
8,-0.0089,-0.0113,0.0033,-0.24,-0.21,2.84,0.009,0.234,0.214,0.128
8,-0.0050,-0.0104,0.0036,-0.24,-0.24,2.84,0.006,-0.054,-0.058,-0.054
8,-0.0032,-0.0156,0.0037,-0.20,-0.25,2.83,0.006,-0.002,0.156,0.404
8,-0.0015,-0.0252,-0.0046,-0.12,-0.27,2.83,0.006,-0.214,0.076,-0.112
8,-0.0011,-0.0298,-0.0046,-0.09,-0.27,2.83,0.006,0.103,-0.116,0.322
8,0.0030,-0.0165,-0.0040,-0.20,-0.31,2.83,0.006,0.239,-0.111,0.039
8,-0.0051,0.0060,-0.0035,-0.38,-0.25,2.83,0.006,-0.015,-0.103,0.107
8,-0.0063,0.0105,-0.0079,-0.42,-0.24,2.83,0.006,-0.088,0.308,0.063
9,-0.0065,0.0109,-0.0077,-0.42,-0.24,2.82,0.006,-0.314,-0.124,-0.158
9,-0.0060,0.0023,-0.0073,-0.34,-0.24,2.82,0.006,-0.273,-0.127,0.019
9,-0.0047,0.0062,-0.0071,-0.37,-0.26,2.82,0.006,-0.312,0.257,0.247
9,-0.0094,0.0060,-0.0071,-0.37,-0.22,2.82,0.008,0.056,-0.147,-0.463
9,-0.0041,0.0026,-0.0069,-0.34,-0.26,2.81,0.008,-0.164,0.024,0.066
9,-0.0040,0.0016,-0.0043,-0.33,-0.27,2.81,0.008,0.018,-0.032,-0.126
9,-0.0054,0.0064,-0.0043,-0.37,-0.26,2.81,0.008,-0.105,-0.031,-0.122
9,-0.0064,0.0063,-0.0041,-0.37,-0.25,2.81,0.009,0.107,0.010,0.198
9,-0.0048,0.0028,-0.0038,-0.33,-0.26,2.80,0.009,-0.364,-0.017,0.343
9,-0.0085,0.0074,-0.0001,-0.37,-0.23,2.80,0.009,0.174,-0.020,-0.375
9,-0.0025,0.0077,-0.0001,-0.36,-0.28,2.79,0.009,0.070,-0.037,0.104
9,-0.0000,0.0078,-0.0001,-0.36,-0.30,2.79,0.009,-0.145,0.251,0.120
9,0.0026,0.0055,-0.0000,-0.34,-0.32,2.79,0.009,0.104,0.027,-0.093
9,-0.0036,0.0120,0.0001,-0.39,-0.27,2.79,0.007,-0.259,-0.042,-0.120
9,-0.0005,0.0012,0.0004,-0.31,-0.29,2.78,0.007,-0.158,0.279,-0.014
9,0.0005,0.0087,-0.0018,-0.36,-0.30,2.78,0.007,-0.127,-0.264,-0.080
9,-0.0043,0.0109,-0.0017,-0.37,-0.27,2.78,0.007,-0.100,-0.084,0.125
9,-0.0017,0.0097,-0.0018,-0.36,-0.29,2.77,0.006,0.047,-0.153,0.125
9,-0.0027,0.0106,-0.0020,-0.37,-0.28,2.77,0.006,-0.003,0.125,-0.075
9,-0.0028,0.0110,-0.0051,-0.37,-0.28,2.77,0.006,0.201,-0.023,-0.128
9,0.0040,-0.0037,-0.0049,-0.25,-0.32,2.77,0.006,-0.051,-0.157,-0.060
9,-0.0019,0.0110,-0.0046,-0.37,-0.28,2.76,0.006,-0.044,-0.242,-0.163
9,-0.0018,0.0119,-0.0046,-0.36,-0.28,2.76,0.006,-0.047,0.215,-0.077
9,-0.0015,0.0082,-0.0045,-0.33,-0.28,2.75,0.012,0.152,-0.012,-0.141
9,-0.0053,0.0104,-0.0045,-0.35,-0.25,2.75,0.012,-0.164,0.159,0.056
9,0.0009,0.0047,0.0081,-0.30,-0.30,2.75,0.012,0.047,0.035,-0.121
9,0.0008,0.0021,0.0083,-0.27,-0.30,2.74,0.012,0.028,0.147,-0.129
9,-0.0032,0.0101,0.0084,-0.34,-0.27,2.74,0.008,0.006,-0.081,0.199
9,0.0007,0.0066,0.0085,-0.31,-0.30,2.74,0.008,-0.234,0.029,0.155
9,-0.0054,0.0121,0.0053,-0.35,-0.26,2.73,0.008,-0.096,-0.026,0.055
9,-0.0013,0.0005,0.0054,-0.25,-0.28,2.73,0.008,-0.045,-0.047,-0.336
9,-0.0019,0.0098,0.0054,-0.33,-0.29,2.73,0.008,-0.126,0.101,-0.045
9,-0.0016,0.0074,0.0056,-0.31,-0.29,2.73,0.008,-0.204,0.074,0.250
9,0.0006,0.0099,0.0055,-0.32,-0.30,2.72,0.008,-0.215,0.274,0.080
10,-0.0007,0.0120,0.0054,-0.34,-0.29,2.72,0.008,0.008,-0.219,-0.201
10,0.0027,0.0117,0.0029,-0.33,-0.32,2.72,0.008,-0.052,-0.027,0.052
10,0.0005,0.0056,0.0031,-0.28,-0.30,2.72,0.008,0.167,-0.339,0.106
10,-0.0032,0.0089,0.0033,-0.31,-0.27,2.72,0.012,-0.025,0.043,0.006
10,-0.0031,0.0096,0.0034,-0.31,-0.27,2.71,0.012,-0.171,-0.140,0.044
10,-0.0003,0.0002,0.0103,-0.23,-0.29,2.71,0.012,-0.031,0.126,-0.185
10,-0.0003,0.0004,0.0104,-0.23,-0.29,2.71,0.012,0.030,-0.317,-0.110
10,-0.0017,0.0052,0.0104,-0.27,-0.28,2.70,0.012,0.055,-0.126,-0.140
10,-0.0019,0.0086,0.0103,-0.30,-0.28,2.70,0.012,-0.006,0.188,-0.046
10,-0.0043,0.0082,0.0105,-0.29,-0.26,2.70,0.008,0.068,-0.171,0.077
10,-0.0043,0.0093,0.0106,-0.29,-0.26,2.69,0.008,-0.312,0.116,-0.044
10,-0.0004,0.0022,0.0045,-0.23,-0.29,2.69,0.008,0.085,-0.102,-0.093
10,-0.0031,0.0078,0.0044,-0.27,-0.27,2.69,0.008,0.201,-0.027,-0.374
10,-0.0032,0.0082,0.0044,-0.28,-0.27,2.68,0.010,0.038,0.380,0.401
10,-0.0019,0.0081,0.0042,-0.27,-0.28,2.68,0.010,0.025,0.073,-0.038
10,-0.0028,0.0079,0.0049,-0.27,-0.27,2.68,0.010,-0.042,0.219,0.242
10,0.0013,0.0041,0.0051,-0.23,-0.30,2.68,0.010,0.044,-0.059,-0.123
10,-0.0014,0.0086,0.0052,-0.27,-0.29,2.67,0.010,-0.186,-0.035,0.216
10,-0.0013,0.0059,0.0054,-0.25,-0.29,2.67,0.010,-0.193,-0.010,0.305
10,-0.0023,0.0081,0.0054,-0.26,-0.28,2.67,0.011,-0.159,-0.167,0.277
10,-0.0005,-0.0028,0.0056,-0.17,-0.28,2.67,0.011,-0.510,0.142,0.354
10,0.0014,0.0072,0.0077,-0.25,-0.30,2.67,0.011,-0.110,0.292,-0.034
10,-0.0011,0.0045,0.0080,-0.23,-0.28,2.67,0.011,-0.018,-0.104,0.164
10,-0.0024,0.0080,0.0081,-0.26,-0.28,2.66,0.008,-0.094,-0.061,0.072
10,-0.0048,0.0075,0.0081,-0.25,-0.26,2.66,0.008,-0.066,0.013,0.308
10,-0.0047,0.0047,0.0021,-0.23,-0.26,2.66,0.008,0.155,-0.069,0.064
10,-0.0022,0.0072,0.0022,-0.25,-0.28,2.66,0.008,-0.097,0.044,-0.086
10,-0.0042,0.0048,0.0023,-0.23,-0.26,2.65,0.008,-0.059,0.295,0.313
10,-0.0039,0.0024,0.0024,-0.21,-0.26,2.65,0.008,-0.231,0.033,0.010
10,-0.0041,0.0082,0.0026,-0.25,-0.26,2.65,0.008,0.115,0.028,-0.048
10,-0.0001,-0.0000,-0.0000,-0.00,0.00,0.00,0.008,0.214,-0.069,-0.042
10,0.0029,-0.0050,0.0000,-0.00,0.00,0.00,0.008,-0.291,-0.130,0.020
10,0.0022,-0.0028,0.0001,-0.02,0.00,-0.00,0.008,-0.072,-0.004,-0.090
10,0.0016,-0.0032,0.0000,-0.02,0.00,0.00,0.008,-0.288,0.302,0.064
10,-0.0001,-0.0044,0.0001,-0.00,0.02,-0.00,0.008,0.020,-0.020,-0.064
10,-0.0007,-0.0121,0.0002,0.14,0.02,-0.00,0.008,-0.123,0.101,0.104
11,0.0039,-0.0118,0.0003,0.12,-0.10,-0.00,0.008,-0.027,0.105,-0.338
11,0.0004,-0.0045,0.0006,-0.07,-0.02,-0.00,0.008,-0.130,0.126,0.085
11,-0.0001,-0.0012,0.0006,-0.15,-0.02,-0.00,0.008,0.156,-0.013,0.165
11,-0.0006,-0.0011,0.0006,-0.15,-0.02,-0.01,0.012,0.036,0.136,-0.168
11,0.0006,-0.0126,0.0008,0.17,-0.07,-0.00,0.012,0.028,0.130,0.034
11,-0.0087,0.0214,0.0058,-0.79,0.18,-0.00,0.012,-0.225,-0.024,0.139
11,-0.0088,0.0386,0.0049,-1.23,0.15,-0.01,0.012,0.035,-0.257,-0.116
11,-0.0181,0.0796,0.0015,-2.31,0.39,0.00,0.011,0.056,0.010,0.157
11,-0.0154,0.0817,0.0018,-2.27,0.29,0.00,0.011,0.065,0.035,0.314
11,-0.0169,0.0506,0.0078,-1.33,0.30,-0.00,0.011,-0.004,-0.201,0.001
11,-0.0162,0.0673,0.0069,-1.72,0.26,-0.00,0.011,-0.120,0.215,0.106
11,-0.0196,0.0576,0.0078,-1.40,0.32,-0.00,0.011,-0.040,0.204,-0.167
11,-0.0168,0.0603,0.0077,-1.41,0.22,-0.00,0.011,0.126,0.014,0.147
11,-0.0161,0.0647,0.0076,-1.46,0.18,-0.00,0.008,-0.015,0.038,0.173
11,-0.0071,0.0605,0.0085,-1.31,-0.06,-0.00,0.008,-0.063,0.082,-0.000
11,-0.0028,0.0380,0.0030,-0.73,-0.17,-0.00,0.008,-0.008,-0.155,0.255
11,-0.0090,0.0169,0.0035,-0.22,-0.04,-0.00,0.008,-0.008,-0.056,-0.380
11,-0.0085,0.0559,0.0037,-1.11,-0.06,-0.00,0.009,0.126,-0.139,0.102
11,-0.0101,0.0460,0.0045,-0.85,-0.03,-0.00,0.009,-0.028,-0.346,0.144
11,-0.0114,0.0567,0.0016,-1.06,-0.01,-0.00,0.009,0.158,-0.050,-0.229
11,-0.0147,0.0570,0.0019,-1.02,0.06,-0.00,0.009,0.063,0.090,-0.423
11,-0.0140,0.0431,0.0029,-0.71,0.03,-0.00,0.009,-0.032,0.144,0.139
11,-0.0132,0.0419,0.0031,-0.66,0.00,-0.01,0.009,0.059,-0.010,-0.284
11,-0.0138,0.0430,0.0032,-0.66,0.00,-0.01,0.008,-0.054,0.122,-0.144
11,-0.0150,0.0250,0.0038,-0.29,0.01,-0.01,0.008,-0.029,-0.157,-0.226
11,-0.0038,-0.0207,-0.0021,0.57,-0.21,-0.01,0.008,-0.324,-0.000,0.122
11,-0.0137,-0.0623,-0.0056,1.32,-0.03,-0.01,0.008,-0.116,0.069,0.036
11,-0.0109,-0.0587,-0.0048,1.21,-0.09,-0.01,0.011,-0.166,-0.317,0.033
11,-0.0101,-0.0479,-0.0031,0.97,-0.11,-0.01,0.011,0.049,0.112,0.135
11,-0.0152,-0.0240,0.0030,0.52,-0.02,-0.01,0.011,-0.024,0.223,0.217
11,-0.0123,-0.0713,0.0004,1.28,-0.08,-0.00,0.011,0.112,0.240,0.070
11,-0.0098,-0.0825,-0.0006,1.42,-0.13,-0.00,0.011,-0.109,-0.204,-0.060
11,-0.0149,-0.0759,0.0006,1.27,-0.05,-0.00,0.011,-0.188,-0.012,0.021
11,-0.0103,-0.0754,0.0010,1.22,-0.13,-0.00,0.009,-0.140,-0.187,0.247
12,-0.0097,-0.0622,-0.0002,0.98,-0.14,-0.00,0.009,-0.090,-0.033,-0.346
12,0.0012,-0.0853,-0.0018,1.30,-0.32,-0.00,0.009,0.083,-0.013,0.042
12,-0.0077,-0.0462,0.0025,0.67,-0.18,-0.00,0.009,-0.242,-0.139,-0.137
12,-0.0088,-0.0405,0.0029,0.56,-0.17,-0.01,0.009,0.118,-0.100,-0.039
12,-0.0117,-0.0402,0.0033,0.54,-0.13,-0.01,0.009,0.045,0.046,0.088
12,-0.0046,-0.0449,0.0006,0.59,-0.24,-0.01,0.009,0.119,0.021,-0.091
12,-0.0045,-0.0443,0.0008,0.56,-0.24,-0.01,0.009,-0.140,-0.024,0.090
12,-0.0047,-0.0455,0.0010,0.56,-0.24,-0.01,0.009,0.028,0.003,0.012
12,-0.0045,-0.0377,0.0016,0.44,-0.25,-0.01,0.009,-0.167,-0.168,0.129
12,0.0009,-0.0340,0.0018,0.37,-0.32,-0.01,0.009,-0.095,-0.109,-0.224
12,-0.0009,-0.0306,0.0021,0.31,-0.29,-0.01,0.009,-0.241,0.138,0.237
22,-0.0043,-0.0322,0.0003,0.32,-0.25,-0.01,0.009,0.005,-0.157,0.213
32,-0.0059,-0.0255,0.0007,0.22,-0.23,-0.01,0.009,0.026,0.063,0.022
42,-0.0039,-0.0242,0.0009,0.20,-0.26,-0.01,0.009,0.021,-0.040,0.081
51,-0.0050,-0.0229,0.0010,0.17,-0.24,-0.01,0.009,-0.205,0.236,0.066
62,0.0014,-0.0261,-0.0003,0.21,-0.32,-0.01,0.009,-0.263,0.313,0.099
71,-0.0033,-0.0231,-0.0003,0.17,-0.26,-0.01,0.009,-0.230,0.121,0.197
81,-0.0122,-0.0190,-0.0003,0.11,-0.16,-0.01,0.009,-0.210,0.234,-0.223
91,-0.0055,-0.0136,-0.0001,0.04,-0.24,-0.01,0.009,-0.000,0.094,-0.117
102,-0.0037,-0.0159,-0.0000,0.06,-0.26,-0.01,0.010,0.028,-0.156,0.309
112,-0.0036,-0.0255,-0.0001,0.17,-0.27,-0.01,0.010,-0.231,-0.041,-0.062
122,-0.0007,-0.0215,0.0016,0.11,-0.31,-0.01,0.010,-0.176,0.043,0.048
132,-0.0006,-0.0305,0.0016,0.21,-0.30,-0.01,0.010,-0.022,0.034,-0.015
142,0.0011,-0.0290,0.0019,0.18,-0.32,-0.01,0.012,-0.214,0.145,-0.392
152,0.0068,-0.0220,0.0023,0.10,-0.38,-0.01,0.012,-0.373,0.113,0.074
162,0.0021,-0.0196,0.0071,0.06,-0.33,-0.01,0.012,0.301,-0.140,-0.265
172,0.0021,-0.0269,0.0069,0.14,-0.33,-0.01,0.012,-0.055,-0.059,0.039
181,0.0089,-0.0133,0.0074,-0.01,-0.40,-0.02,0.012,0.191,-0.149,-0.023
192,0.0090,-0.0135,0.0075,-0.01,-0.40,-0.02,0.012,-0.148,-0.066,0.070
202,0.0092,-0.0139,0.0075,-0.01,-0.40,-0.02,0.011,0.267,-0.165,-0.044
211,0.0118,-0.0179,0.0075,0.02,-0.42,-0.01,0.011,-0.168,-0.184,0.195
222,0.0069,-0.0201,0.0073,0.04,-0.37,-0.01,0.011,-0.025,-0.290,0.188
232,0.0124,-0.0251,0.0072,0.09,-0.42,-0.01,0.011,0.048,0.211,-0.287
242,0.0127,-0.0256,0.0072,0.09,-0.42,-0.01,0.006,-0.156,-0.029,-0.263
251,0.0089,-0.0167,0.0076,-0.01,-0.38,-0.02,0.006,-0.022,0.140,-0.093
263,0.0082,-0.0352,-0.0039,0.17,-0.37,-0.01,0.006,-0.128,0.087,0.055
272,0.0122,-0.0199,-0.0031,0.01,-0.41,-0.02,0.006,-0.089,-0.187,-0.379
282,0.0070,-0.0203,-0.0029,0.01,-0.36,-0.02,0.006,-0.168,-0.242,0.234
292,0.0070,-0.0208,-0.0027,0.01,-0.36,-0.02,0.006,-0.128,0.192,0.346
302,0.0114,-0.0212,-0.0028,0.01,-0.39,-0.02,0.006,-0.029,-0.098,-0.129
312,0.0124,-0.0261,-0.0030,0.05,-0.40,-0.02,0.006,-0.127,-0.046,-0.016
322,0.0131,-0.0051,-0.0097,-0.15,-0.40,-0.02,0.006,0.044,-0.183,0.055
332,0.0111,-0.0047,-0.0094,-0.15,-0.38,-0.02,0.006,-0.033,-0.188,0.244
341,0.0104,0.0429,-0.0097,-0.59,-0.37,-0.03,0.006,0.101,-0.229,-0.274
352,0.0113,0.0406,-0.0091,-0.56,-0.38,-0.03,0.006,-0.034,-0.137,-0.238
362,0.0036,0.0385,-0.0119,-0.54,-0.31,-0.03,0.006,-0.166,-0.042,-0.104
372,0.0129,0.0309,-0.0115,-0.46,-0.39,-0.03,0.006,0.080,0.077,-0.041
382,0.0108,0.0322,-0.0113,-0.47,-0.37,-0.03,0.006,0.010,0.112,0.335
392,0.0129,0.0321,-0.0111,-0.46,-0.39,-0.03,0.006,-0.059,-0.213,0.169
401,0.0070,0.0306,-0.0107,-0.45,-0.33,-0.03,0.007,-0.024,-0.179,-0.052
412,0.0080,0.0253,-0.0103,-0.39,-0.34,-0.02,0.007,0.084,0.156,0.013
421,0.0075,0.0226,-0.0087,-0.37,-0.33,-0.03,0.007,0.329,0.098,0.070
432,0.0070,0.0228,-0.0086,-0.37,-0.33,-0.02,0.007,-0.110,-0.124,0.013
442,0.0016,0.0268,-0.0085,-0.40,-0.28,-0.03,0.010,-0.244,-0.222,0.321
451,0.0103,0.0257,-0.0084,-0.38,-0.36,-0.02,0.010,-0.049,0.251,-0.017
462,0.0048,0.0211,-0.0004,-0.34,-0.30,-0.02,0.010,0.049,-0.107,0.281
472,0.0044,0.0102,-0.0002,-0.24,-0.30,-0.02,0.010,0.440,-0.069,-0.005
482,0.0018,0.0280,-0.0004,-0.39,-0.28,-0.02,0.010,0.041,-0.018,0.248
492,0.0006,0.0230,0.0000,-0.35,-0.27,-0.02,0.010,-0.017,0.016,-0.008
501,0.0028,0.0257,0.0000,-0.36,-0.29,-0.02,0.008,0.020,-0.075,-0.010
511,0.0062,0.0247,0.0001,-0.35,-0.32,-0.02,0.008,-0.209,-0.034,-0.226
521,0.0033,0.0150,0.0007,-0.26,-0.29,-0.02,0.008,-0.116,-0.334,-0.177
531,-0.0007,0.0166,0.0005,-0.28,-0.26,-0.02,0.008,0.056,0.089,0.061
541,0.0041,0.0123,0.0006,-0.24,-0.30,-0.02,0.010,0.156,-0.027,-0.176
551,0.0027,0.0165,0.0007,-0.27,-0.28,-0.02,0.010,0.045,-0.254,-0.012
562,0.0014,0.0122,0.0052,-0.23,-0.27,-0.02,0.010,0.197,-0.000,-0.173
571,0.0013,0.0122,0.0052,-0.23,-0.27,-0.02,0.010,-0.285,-0.208,-0.079
582,0.0012,0.0205,0.0051,-0.30,-0.27,-0.02,0.010,-0.006,0.137,-0.024
591,0.0034,0.0098,0.0053,-0.21,-0.29,-0.02,0.010,0.096,-0.098,-0.129
601,0.0034,0.0098,0.0051,-0.21,-0.29,-0.02,0.008,0.145,-0.215,-0.272
611,0.0058,0.0079,0.0050,-0.19,-0.31,-0.02,0.008,-0.177,0.089,-0.245
621,0.0069,0.0048,0.0024,-0.16,-0.32,-0.02,0.008,0.182,-0.053,-0.293
631,-0.0024,0.0135,0.0025,-0.24,-0.24,-0.02,0.008,0.061,0.138,-0.055
641,0.0053,0.0079,0.0025,-0.19,-0.30,-0.02,0.006,-0.221,0.005,0.194
651,0.0023,0.0074,0.0024,-0.18,-0.28,-0.02,0.006,0.058,-0.105,-0.358
661,-0.0029,0.0142,-0.0034,-0.24,-0.24,-0.03,0.006,-0.191,-0.185,0.128
671,0.0058,-0.0128,-0.0030,-0.02,-0.31,-0.02,0.006,0.041,-0.088,0.024
681,0.0029,-0.0087,-0.0030,-0.05,-0.29,-0.02,0.006,-0.033,-0.035,-0.327
692,0.0028,-0.0088,-0.0031,-0.05,-0.28,-0.02,0.006,0.058,-0.228,-0.126
701,-0.0000,-0.0083,-0.0030,-0.06,-0.26,-0.02,0.009,0.002,-0.049,0.023
711,-0.0065,-0.0337,-0.0001,0.15,-0.21,-0.02,0.009,-0.032,0.044,0.060
721,-0.0049,-0.0204,0.0006,0.04,-0.22,-0.02,0.009,-0.134,0.030,-0.061
731,-0.0010,-0.0349,0.0001,0.15,-0.25,-0.02,0.009,0.163,0.328,-0.167
742,-0.0140,-0.0036,0.0017,-0.10,-0.15,-0.03,0.006,-0.054,0.259,-0.027
751,-0.0159,-0.0033,0.0016,-0.10,-0.14,-0.03,0.006,-0.090,0.256,-0.315
761,-0.0138,-0.0017,-0.0038,-0.12,-0.16,-0.03,0.006,0.116,-0.021,-0.379
771,-0.0134,-0.0028,-0.0037,-0.11,-0.16,-0.03,0.006,-0.079,-0.163,0.009
781,-0.0126,-0.0063,-0.0037,-0.08,-0.17,-0.03,0.006,0.078,-0.330,-0.037
791,-0.0122,-0.0037,-0.0036,-0.10,-0.18,-0.03,0.006,-0.118,-0.042,0.233
801,-0.0104,-0.0060,-0.0035,-0.08,-0.19,-0.03,0.013,-0.211,-0.073,0.193
811,-0.0079,-0.0074,0.0102,-0.07,-0.21,-0.03,0.013,0.076,-0.088,-0.230
822,-0.0063,-0.0141,0.0102,-0.02,-0.22,-0.03,0.013,0.041,0.237,-0.030
831,-0.0108,-0.0077,0.0102,-0.08,-0.19,-0.03,0.013,0.002,0.137,-0.220
841,-0.0116,-0.0027,0.0105,-0.12,-0.18,-0.03,0.010,-0.247,0.038,-0.147
851,-0.0089,-0.0049,0.0108,-0.10,-0.21,-0.03,0.010,0.058,-0.033,-0.004
862,-0.0133,0.0000,0.0103,-0.14,-0.17,-0.04,0.010,-0.070,0.037,0.027
871,-0.0095,0.0036,0.0103,-0.17,-0.21,-0.04,0.010,-0.000,-0.138,0.161
881,-0.0102,0.0036,0.0102,-0.17,-0.21,-0.04,0.010,-0.042,0.191,-0.005
891,-0.0099,0.0012,0.0104,-0.15,-0.21,-0.03,0.010,0.234,-0.121,0.057
901,-0.0093,0.0033,0.0107,-0.17,-0.22,-0.03,0.008,-0.196,-0.030,-0.201
911,-0.0032,-0.0105,0.0109,-0.06,-0.27,-0.03,0.008,-0.022,-0.073,0.157
921,-0.0018,0.0118,0.0048,-0.24,-0.28,-0.03,0.008,-0.019,-0.096,-0.136
931,-0.0072,-0.0045,0.0052,-0.11,-0.23,-0.03,0.008,-0.127,0.102,0.304
941,-0.0080,0.0035,0.0053,-0.17,-0.22,-0.03,0.011,0.074,-0.154,0.175
951,-0.0082,0.0035,0.0052,-0.18,-0.22,-0.03,0.011,-0.208,-0.224,0.220
961,-0.0067,-0.0051,0.0076,-0.11,-0.24,-0.03,0.011,-0.168,0.238,-0.337
971,-0.0052,-0.0001,0.0079,-0.15,-0.25,-0.03,0.011,0.024,-0.186,0.137
981,-0.0076,-0.0002,0.0079,-0.15,-0.23,-0.03,0.011,-0.192,0.026,-0.129
991,-0.0074,0.0044,0.0079,-0.19,-0.24,-0.03,0.011,-0.101,0.223,0.198
1001,-0.0073,-0.0017,0.0081,-0.14,-0.24,-0.03,0.009,-0.029,-0.058,0.297
1011,-0.0069,-0.0074,0.0082,-0.09,-0.25,-0.03,0.009,-0.115,-0.231,-0.164
1021,-0.0019,-0.0072,0.0042,-0.09,-0.29,-0.03,0.009,0.166,-0.093,-0.366
1031,-0.0065,-0.0345,0.0040,0.13,-0.25,-0.03,0.009,-0.233,-0.074,0.172
1041,0.0053,-0.0653,0.0019,0.38,-0.35,-0.03,0.009,0.037,0.288,-0.014
1051,0.0016,-0.0626,0.0026,0.35,-0.31,-0.03,0.009,0.034,0.015,0.132
1061,0.0005,-0.0601,0.0010,0.32,-0.30,-0.03,0.009,-0.299,-0.106,0.038
1071,0.0028,-0.0565,0.0015,0.28,-0.32,-0.03,0.009,-0.032,-0.316,0.158
1082,0.0026,-0.0564,0.0016,0.27,-0.32,-0.03,0.009,-0.128,0.029,0.028
1091,0.0047,-0.0539,0.0019,0.24,-0.34,-0.03,0.009,-0.147,-0.072,0.069
1101,0.0034,-0.0458,0.0027,0.17,-0.32,-0.03,0.008,0.089,0.090,-0.035
1111,0.0009,-0.0311,0.0041,0.05,-0.30,-0.03,0.008,-0.226,-0.315,0.181
1121,-0.0015,-0.0044,-0.0001,-0.17,-0.28,-0.03,0.008,-0.055,0.057,0.152
1131,0.0065,-0.0098,0.0003,-0.13,-0.35,-0.03,0.008,-0.147,0.045,0.184
1141,-0.0032,-0.0094,0.0005,-0.13,-0.27,-0.03,0.008,0.114,-0.083,-0.109
1151,-0.0008,-0.0135,0.0006,-0.10,-0.29,-0.03,0.008,0.067,-0.084,0.016
1161,0.0074,-0.0199,-0.0026,-0.05,-0.35,-0.03,0.008,-0.168,-0.114,-0.300
1171,0.0095,-0.0224,-0.0026,-0.03,-0.37,-0.03,0.008,0.172,-0.009,0.186
1181,0.0078,-0.0166,-0.0025,-0.08,-0.36,-0.03,0.008,-0.159,-0.044,-0.158
1191,0.0052,-0.0182,-0.0025,-0.07,-0.33,-0.03,0.008,-0.017,-0.204,-0.137
1201,0.0051,-0.0151,-0.0024,-0.09,-0.33,-0.03,0.009,0.198,0.063,-0.346
1211,0.0015,-0.0130,-0.0022,-0.11,-0.30,-0.03,0.009,-0.057,-0.150,-0.148
1221,-0.0147,0.0208,-0.0014,-0.38,-0.17,-0.03,0.009,-0.327,-0.091,-0.037
1231,-0.0119,0.0370,-0.0023,-0.51,-0.20,-0.04,0.009,0.135,0.097,0.151
1241,-0.0068,0.0343,-0.0019,-0.48,-0.24,-0.04,0.009,-0.214,0.061,0.033
1251,-0.0109,0.0363,-0.0023,-0.49,-0.20,-0.04,0.009,0.105,0.136,0.011
1261,-0.0082,0.0293,-0.0011,-0.43,-0.23,-0.03,0.009,0.110,-0.097,-0.042
1271,-0.0090,0.0284,-0.0012,-0.42,-0.22,-0.03,0.009,0.109,0.350,0.037
1281,-0.0087,0.0307,-0.0014,-0.43,-0.23,-0.03,0.009,-0.109,0.152,-0.158
1291,-0.0088,0.0311,-0.0013,-0.43,-0.23,-0.03,0.009,-0.127,-0.136,0.400
1300,-0.0074,0.0263,-0.0008,-0.39,-0.24,-0.03,0.008,0.055,-0.051,0.021
1311,-0.0120,0.0334,-0.0011,-0.44,-0.21,-0.03,0.008,-0.064,-0.014,0.185
1321,-0.0058,0.0494,-0.0037,-0.57,-0.26,-0.03,0.008,-0.037,0.091,0.017
1331,-0.0125,0.0796,-0.0064,-0.81,-0.21,-0.03,0.008,-0.134,0.018,0.141
1341,-0.0117,0.0776,-0.0060,-0.78,-0.21,-0.03,0.012,-0.294,0.034,0.103
1351,-0.0100,0.0745,-0.0054,-0.75,-0.23,-0.02,0.012,-0.301,0.101,-0.274
1361,-0.0096,0.0762,0.0038,-0.75,-0.23,-0.02,0.012,0.054,-0.240,0.240
1370,-0.0100,0.0772,0.0039,-0.75,-0.22,-0.02,0.012,0.130,0.156,0.164
1380,-0.0074,0.0712,0.0047,-0.70,-0.25,-0.02,0.012,-0.026,0.089,-0.140
1391,-0.0094,0.0694,0.0050,-0.67,-0.23,-0.02,0.012,-0.184,-0.099,0.066
1401,-0.0089,0.0643,0.0058,-0.62,-0.24,-0.02,0.009,-0.066,0.075,0.116
1411,-0.0073,0.0968,0.0022,-0.88,-0.25,-0.02,0.009,0.029,0.135,0.113
1420,-0.0093,0.0971,0.0011,-0.87,-0.23,-0.02,0.009,-0.004,-0.124,-0.390
1431,-0.0158,0.1516,-0.0074,-1.31,-0.18,-0.02,0.009,0.177,-0.162,-0.331
1441,-0.0159,0.1536,-0.0073,-1.31,-0.18,-0.02,0.006,0.169,-0.157,-0.288
1451,-0.0150,0.1490,-0.0053,-1.25,-0.19,-0.03,0.006,0.009,-0.215,0.077
1460,-0.0129,0.1358,-0.0071,-1.13,-0.20,-0.03,0.006,-0.096,0.102,0.099
1471,-0.0135,0.1391,-0.0074,-1.14,-0.20,-0.03,0.006,-0.153,0.120,0.074
1481,-0.0154,0.1327,-0.0058,-1.08,-0.18,-0.03,0.006,0.113,-0.117,-0.619
0,-0.0147,0.1244,-0.0036,-0.99,-0.19,-0.03,0.006,0.092,0.122,0.099
10,-0.0105,0.1119,-0.0007,-0.88,-0.23,-0.03,0.010,-0.273,-0.207,-0.092
20,-0.0149,0.1138,-0.0009,-0.88,-0.19,-0.03,0.010,0.512,-0.017,0.314
30,-0.0166,0.1111,0.0028,-0.85,-0.18,-0.03,0.010,0.544,0.697,-0.022
40,-0.0090,0.0967,0.0053,-0.72,-0.24,-0.03,0.010,-0.139,0.165,-0.475
50,-0.0057,0.0935,0.0063,-0.69,-0.26,-0.02,0.006,0.376,-0.258,-1.395
60,-0.0060,0.0905,0.0077,-0.65,-0.26,-0.03,0.006,1.284,1.019,-0.325
70,-0.0051,0.0869,-0.0007,-0.61,-0.27,-0.03,0.006,-1.358,1.961,-0.867
80,-0.0187,0.0826,0.0001,-0.57,-0.17,-0.03,0.006,-0.186,1.253,-0.334
90,-0.0050,0.0845,0.0018,-0.56,-0.28,-0.03,0.006,0.341,1.644,-3.141
99,-0.0016,0.0697,0.0026,-0.43,-0.33,-0.03,0.006,-0.521,1.169,-6.461
110,-0.0032,0.0677,0.0020,-0.41,-0.32,-0.03,0.012,-0.630,3.005,-7.248
120,0.0024,0.0663,0.0097,-0.38,-0.38,-0.06,0.012,4.146,-0.946,-5.571
130,0.0043,0.0551,0.0105,-0.30,-0.41,-0.11,0.012,6.270,-2.689,-4.085
139,0.0047,0.0617,0.0109,-0.36,-0.43,-0.19,0.012,13.619,-4.968,-3.901
150,0.0052,0.0560,0.0121,-0.27,-0.42,-0.25,0.010,16.793,-12.379,-3.989
160,0.0042,0.0539,0.0153,-0.19,-0.39,-0.29,0.010,16.461,-17.307,-5.311
169,0.0039,0.0575,0.0170,-0.10,-0.34,-0.33,0.010,0.743,-22.762,-10.770
179,0.0085,0.0548,0.0175,0.09,-0.26,-0.37,0.010,-15.893,-24.523,-13.318
190,0.0156,0.0596,0.0174,0.22,-0.14,-0.42,0.010,-14.963,-32.871,-15.926
199,0.0184,0.0591,0.0214,0.26,0.06,-0.51,0.010,-0.396,-45.294,-19.866
210,0.0148,0.0582,0.0300,0.12,0.34,-0.64,0.012,10.386,-51.620,-19.662
220,0.0191,0.0769,0.0375,-0.18,0.61,-0.79,0.012,14.275,-58.903,-15.660
230,0.0147,0.0909,0.0472,-0.31,1.07,-0.98,0.012,16.104,-68.467,-12.669
240,0.0109,0.0695,0.0623,-0.04,1.59,-1.18,0.012,7.500,-68.837,-9.856
250,0.0310,0.0422,0.0807,0.33,1.97,-1.35,0.004,10.385,-59.654,-8.911
260,0.0218,0.0257,0.0983,0.63,2.69,-1.49,0.004,8.263,-49.393,-7.063
270,0.0134,-0.0007,0.0905,0.93,3.39,-1.63,0.004,3.189,-41.082,-6.010
279,0.0051,-0.0101,0.1104,1.10,4.01,-1.73,0.004,-0.957,-33.954,-6.667
289,-0.0179,-0.0348,0.1264,1.37,4.64,-1.85,0.004,-2.805,-21.785,-5.151
300,-0.0355,-0.0414,0.1434,1.46,5.12,-1.92,0.004,-6.499,-8.865,-6.425
310,-0.0249,-0.0433,0.1683,1.47,5.31,-2.00,0.000,-6.622,-1.541,-7.822
319,-0.0465,-0.0200,0.1917,1.24,5.63,-2.00,0.000,-2.938,11.361,-5.858
330,-0.0591,-0.0263,0.1724,1.21,5.74,-2.07,0.000,-7.367,35.562,-4.456
340,-0.0764,-0.0409,0.1896,1.25,5.81,-2.18,0.000,-17.731,51.174,-2.962
350,-0.0900,-0.0505,0.2072,1.29,5.72,-2.26,0.011,-19.562,58.208,-2.950
360,-0.0892,-0.0632,0.2265,1.30,5.29,-2.34,0.011,-19.984,64.958,-3.316
370,-0.1250,-0.0949,0.2160,1.41,4.99,-2.44,0.011,-22.151,74.600,-1.183
380,-0.1397,-0.0897,0.2314,1.16,4.45,-2.43,0.011,-21.774,72.582,-1.019
389,-0.1325,-0.0886,0.2498,0.93,3.68,-2.45,0.011,-22.557,70.025,1.211
400,-0.1143,-0.0844,0.2700,0.66,2.75,-2.45,0.011,-23.235,61.304,3.203
409,-0.0973,-0.0771,0.2882,0.38,1.85,-2.45,0.028,-23.759,53.117,4.059
419,-0.1061,-0.0697,0.3011,0.10,1.19,-2.41,0.028,-27.000,46.723,4.512
429,-0.1074,-0.0631,0.3060,-0.18,0.56,-2.36,0.028,-32.178,42.612,5.292
440,-0.1253,-0.0590,0.3152,-0.43,0.15,-2.30,0.028,-26.666,40.464,8.165
450,-0.1313,-0.0525,0.3241,-0.74,-0.27,-2.25,0.052,-23.911,34.904,9.882
459,-0.1248,-0.0448,0.3325,-1.10,-0.75,-2.19,0.052,-15.383,28.121,10.885
469,-0.1140,-0.0439,0.3538,-1.38,-1.24,-2.13,0.052,-9.305,24.645,11.849
480,-0.1411,-0.0292,0.3585,-1.72,-1.36,-2.00,0.052,-2.225,20.873,12.315
490,-0.1329,-0.0233,0.3645,-1.92,-1.73,-1.89,0.052,6.690,15.643,12.443
500,-0.1165,-0.0116,0.3696,-2.09,-2.08,-1.77,0.052,12.307,8.364,11.253
510,-0.1068,-0.0056,0.3731,-2.13,-2.35,-1.65,0.078,14.164,3.685,11.153
519,-0.0990,0.0055,0.3747,-2.13,-2.54,-1.53,0.078,13.888,5.348,11.180
530,-0.0968,0.0222,0.3989,-2.11,-2.63,-1.41,0.078,9.840,10.358,11.142
540,-0.0913,0.0296,0.3984,-2.00,-2.68,-1.30,0.078,7.212,18.118,11.683
549,-0.0895,0.0306,0.3979,-1.83,-2.71,-1.19,0.105,5.074,25.144,11.258
559,-0.0847,0.0326,0.3969,-1.71,-2.81,-1.08,0.105,6.958,32.499,10.618
569,-0.0748,0.0358,0.4266,-1.62,-3.03,-0.96,0.105,7.551,33.019,10.096
579,-0.0804,0.0401,0.4240,-1.57,-3.19,-0.86,0.105,10.532,31.304,10.161
589,-0.0750,0.0427,0.4216,-1.50,-3.51,-0.76,0.105,13.208,25.980,9.584
599,-0.0784,0.0461,0.4181,-1.43,-3.77,-0.68,0.105,19.664,19.219,9.675
609,-0.0668,0.0464,0.4153,-1.30,-4.13,-0.58,0.127,20.635,13.675,9.162
619,-0.0600,0.0509,0.4111,-1.17,-4.39,-0.49,0.127,26.034,7.129,8.875
630,-0.0547,0.0527,0.4268,-0.97,-4.59,-0.39,0.127,22.410,-1.181,7.592
639,-0.0450,0.0526,0.4216,-0.74,-4.74,-0.29,0.127,23.680,-5.151,7.146
650,-0.0421,0.0551,0.4154,-0.49,-4.78,-0.21,0.142,27.125,-8.958,7.001
660,-0.0321,0.0539,0.4087,-0.24,-4.79,-0.12,0.142,23.764,-12.713,6.988
669,-0.0237,0.0534,0.3997,0.02,-4.75,-0.05,0.142,21.211,-15.099,6.600
679,-0.0169,0.0507,0.3922,0.30,-4.66,0.04,0.142,17.402,-17.882,5.587
690,-0.0101,0.0467,0.3845,0.57,-4.54,0.12,0.142,14.755,-18.189,5.022
700,-0.0040,0.0274,0.3768,0.93,-4.37,0.23,0.142,11.661,-17.807,4.527
709,0.0072,0.0275,0.3688,1.10,-4.23,0.28,0.158,11.066,-19.221,3.689
719,0.0148,0.0237,0.3600,1.27,-4.05,0.33,0.158,4.766,-17.867,2.969
729,0.0168,0.0198,0.3430,1.41,-3.83,0.38,0.158,0.559,-20.057,2.154
739,0.0253,0.0190,0.3335,1.51,-3.65,0.41,0.158,-2.780,-20.001,1.508
749,0.0304,0.0196,0.3239,1.54,-3.47,0.42,0.177,-2.805,-21.033,0.823
759,0.0406,0.0117,0.3144,1.59,-3.30,0.46,0.177,-8.442,-22.208,0.810
769,0.0427,0.0120,0.3068,1.54,-3.08,0.46,0.177,-10.701,-24.490,-0.285
779,0.0528,-0.0088,0.2976,1.65,-2.91,0.52,0.177,-10.763,-25.619,-0.997
790,0.0575,-0.0117,0.2887,1.58,-2.68,0.52,0.177,-12.456,-27.124,-1.245
799,0.0644,-0.0160,0.2797,1.49,-2.45,0.52,0.177,-12.389,-29.062,-1.906
809,0.0667,-0.0181,0.2708,1.38,-2.19,0.50,0.192,-12.093,-30.884,-3.062
819,0.0724,-0.0208,0.2618,1.26,-1.93,0.48,0.192,-13.845,-32.436,-3.226
829,0.0784,-0.0243,0.2554,1.15,-1.66,0.46,0.192,-13.745,-34.564,-3.699
839,0.0827,-0.0256,0.2469,1.03,-1.37,0.42,0.192,-18.380,-32.697,-3.968
849,0.0863,-0.0285,0.2389,0.90,-1.06,0.39,0.206,-19.627,-34.768,-4.019
859,0.0904,-0.0331,0.2311,0.78,-0.75,0.36,0.206,-19.457,-30.563,-3.784
869,0.0919,-0.0322,0.2294,0.58,-0.42,0.31,0.206,-17.368,-33.915,-4.117
879,0.0966,-0.0339,0.2220,0.40,-0.10,0.26,0.206,-11.867,-30.998,-4.875
890,0.0950,-0.0372,0.2145,0.23,0.22,0.23,0.206,-14.791,-28.498,-4.484
899,0.0979,-0.0393,0.2070,0.07,0.53,0.19,0.206,-15.612,-28.132,-4.222
909,0.0973,-0.0374,0.1990,-0.09,0.86,0.14,0.215,-12.439,-25.062,-5.159
919,0.0943,-0.0402,0.1922,-0.21,1.15,0.10,0.215,-14.756,-23.293,-4.727
929,0.0962,-0.0396,0.1851,-0.37,1.41,0.06,0.215,-10.360,-21.044,-5.799
939,0.0937,-0.0381,0.1785,-0.51,1.66,0.01,0.215,-8.744,-20.040,-6.201
949,0.0931,-0.0392,0.1719,-0.63,1.88,-0.03,0.226,-8.205,-19.319,-5.833
960,0.0946,-0.0373,0.1650,-0.76,2.06,-0.09,0.226,-7.269,-14.978,-5.477
969,0.0883,-0.0344,0.1629,-0.87,2.29,-0.15,0.226,-8.909,-15.074,-6.055
979,0.0841,-0.0357,0.1561,-0.94,2.48,-0.20,0.226,-8.453,-12.113,-5.367
989,0.0844,-0.0347,0.1499,-1.01,2.61,-0.25,0.226,-7.146,-10.392,-5.183
999,0.0790,-0.0316,0.1437,-1.10,2.76,-0.31,0.226,-5.567,-10.558,-5.104
1009,0.0748,-0.0304,0.1373,-1.18,2.89,-0.36,0.219,-4.641,-9.881,-4.542
1019,0.0694,-0.0303,0.1309,-1.24,3.01,-0.41,0.219,-5.383,-7.880,-4.032
1029,0.0673,-0.0278,0.0946,-1.30,3.09,-0.45,0.219,-4.814,-6.203,-4.605
1039,0.0620,-0.0246,0.0886,-1.36,3.18,-0.50,0.219,-2.853,-2.815,-4.330
1049,0.0592,-0.0237,0.0827,-1.39,3.25,-0.54,0.235,-5.764,-2.298,-3.427
1058,0.0543,-0.0228,0.0767,-1.42,3.30,-0.59,0.235,3.742,-0.056,-4.256
1070,0.0496,-0.0198,0.0802,-1.45,3.34,-0.63,0.235,-0.890,2.333,-3.358
1078,0.0440,-0.0169,0.0746,-1.47,3.36,-0.67,0.235,-1.287,3.054,-3.702
1089,0.0410,-0.0142,0.0692,-1.45,3.35,-0.71,0.235,4.983,6.284,-3.838
1099,0.0358,-0.0115,0.0644,-1.45,3.33,-0.76,0.235,1.123,6.177,-3.035
1109,0.0312,-0.0088,0.0597,-1.45,3.30,-0.79,0.229,0.797,11.930,-2.469
1119,0.0258,-0.0063,0.0552,-1.41,3.23,-0.83,0.229,4.809,11.204,-1.857
1129,0.0234,-0.0037,0.0352,-1.41,3.15,-0.87,0.229,4.601,7.834,-2.693
1139,0.0177,-0.0014,0.0311,-1.40,3.03,-0.89,0.229,8.308,12.317,-1.400
1149,0.0127,0.0010,0.0274,-1.36,2.92,-0.92,0.243,8.608,10.912,-0.951
1159,0.0085,0.0039,0.0234,-1.30,2.84,-0.95,0.243,10.011,10.986,-1.209
1169,0.0018,0.0107,0.0385,-1.25,2.74,-0.96,0.243,9.787,12.634,-0.265
1178,-0.0001,0.0116,0.0349,-1.15,2.61,-0.98,0.243,11.625,12.988,-0.303
1189,-0.0045,0.0122,0.0314,-1.04,2.50,-0.99,0.243,11.846,14.702,-0.029
1199,-0.0085,0.0139,0.0284,-0.94,2.38,-1.00,0.243,12.959,15.359,0.034
1209,-0.0121,0.0153,0.0258,-0.82,2.25,-1.00,0.226,12.383,16.654,0.647
1219,-0.0138,0.0189,0.0236,-0.72,2.09,-1.00,0.226,10.794,15.610,0.570
1229,-0.0158,0.0190,-0.0083,-0.59,1.94,-1.00,0.226,11.081,18.817,1.101
1239,-0.0182,0.0152,-0.0110,-0.43,1.78,-1.00,0.226,11.564,19.931,1.730
1249,-0.0186,0.0170,-0.0132,-0.32,1.60,-1.00,0.231,7.360,16.583,2.656
1259,-0.0241,0.0228,-0.0153,-0.25,1.43,-0.98,0.231,10.000,16.521,2.074
1268,-0.0262,0.0228,-0.0225,-0.14,1.24,-0.97,0.231,8.003,16.877,2.256
1278,-0.0296,0.0215,-0.0244,-0.06,1.08,-0.94,0.231,6.607,15.318,2.765
1288,-0.0301,0.0214,-0.0256,0.03,0.91,-0.92,0.231,7.988,14.990,3.003
1299,-0.0302,0.0239,-0.0261,0.10,0.73,-0.89,0.231,7.357,15.026,3.577
1309,-0.0315,0.0237,-0.0267,0.18,0.59,-0.87,0.237,8.789,12.655,2.962
1318,-0.0371,0.0230,-0.0272,0.27,0.48,-0.84,0.237,5.812,15.975,4.769
1328,-0.0370,0.0223,-0.0145,0.35,0.33,-0.80,0.237,6.145,13.935,4.313
1338,-0.0376,0.0232,-0.0143,0.42,0.20,-0.77,0.237,4.039,9.944,2.803
1349,-0.0379,0.0209,-0.0143,0.50,0.03,-0.72,0.225,7.238,8.074,3.720
1358,-0.0350,0.0202,-0.0142,0.56,-0.13,-0.67,0.225,5.902,9.823,5.154
1368,-0.0353,0.0179,-0.0313,0.61,-0.22,-0.64,0.225,6.550,10.862,4.178
1379,-0.0355,0.0166,-0.0307,0.69,-0.31,-0.61,0.225,3.436,10.366,3.765
1389,-0.0326,0.0162,-0.0298,0.74,-0.43,-0.56,0.225,3.908,11.248,4.019
1399,-0.0309,0.0149,-0.0289,0.80,-0.54,-0.51,0.225,1.913,8.918,4.185
1409,-0.0292,0.0141,-0.0278,0.83,-0.64,-0.47,0.239,2.335,10.071,4.078
1419,-0.0324,0.0120,-0.0016,0.87,-0.72,-0.43,0.239,-1.626,7.578,4.168
1429,-0.0320,0.0098,-0.0001,0.89,-0.81,-0.39,0.239,-1.927,7.210,3.945
1439,-0.0306,0.0083,0.0014,0.91,-0.91,-0.35,0.239,-2.045,5.686,3.314
1449,-0.0290,0.0067,0.0032,0.90,-0.98,-0.30,0.229,0.342,5.537,2.710
1459,-0.0270,0.0051,0.0048,0.88,-1.05,-0.27,0.229,1.483,5.526,3.077
1469,-0.0251,0.0036,-0.0024,0.86,-1.11,-0.23,0.229,-0.419,1.855,2.941
1479,-0.0247,0.0019,-0.0011,0.87,-1.15,-0.20,0.229,-0.460,2.392,2.050
1489,-0.0230,-0.0014,-0.0001,0.89,-1.20,-0.17,0.229,-0.526,4.172,1.720
1499,-0.0184,-0.0028,0.0008,0.89,-1.23,-0.15,0.229,-0.724,4.338,1.174
1509,-0.0168,-0.0043,0.0019,0.89,-1.26,-0.13,0.239,-2.226,4.778,0.981
1519,-0.0146,-0.0058,0.0028,0.88,-1.30,-0.11,0.239,-8.367,2.816,0.860
1529,-0.0124,-0.0074,0.0216,0.86,-1.34,-0.10,0.239,-6.906,2.278,0.371
1538,-0.0110,-0.0079,0.0228,0.81,-1.37,-0.09,0.239,-8.036,0.678,0.363
1549,-0.0061,-0.0116,0.0238,0.75,-1.41,-0.08,0.227,-4.509,-0.136,-0.163
1559,-0.0050,-0.0112,0.0246,0.66,-1.42,-0.07,0.227,-5.740,-4.316,-0.474
1569,-0.0024,-0.0125,0.0060,0.59,-1.43,-0.07,0.227,-5.611,-3.591,0.384
1579,0.0001,-0.0135,0.0068,0.54,-1.42,-0.07,0.227,-0.135,-7.188,0.555
1588,0.0035,-0.0135,0.0076,0.49,-1.38,-0.07,0.227,-2.408,-6.277,0.575
1599,0.0065,-0.0148,0.0082,0.44,-1.32,-0.07,0.227,2.127,-10.629,-0.373
1609,0.0093,-0.0150,0.0086,0.43,-1.25,-0.07,0.240,-1.599,-8.487,-0.144
1618,0.0118,-0.0184,0.0088,0.43,-1.18,-0.06,0.240,1.427,-6.775,0.620
1628,0.0123,-0.0207,0.0257,0.46,-1.08,-0.06,0.240,-1.338,-9.136,-0.471
1638,0.0172,-0.0207,0.0262,0.45,-1.00,-0.07,0.240,-4.129,-7.058,-0.575
1648,0.0189,-0.0215,0.0266,0.45,-0.94,-0.06,0.226,-8.324,-7.104,-0.139
1658,0.0222,-0.0212,0.0270,0.43,-0.87,-0.06,0.226,-4.687,-7.456,-0.840
1668,0.0231,-0.0237,0.0052,0.39,-0.79,-0.06,0.226,-11.510,-6.864,-0.453
1679,0.0243,-0.0256,0.0053,0.32,-0.72,-0.07,0.226,-11.876,-11.908,-2.527
1688,0.0256,-0.0262,0.0054,0.26,-0.64,-0.08,0.226,-12.931,-11.860,-2.010
1698,0.0280,-0.0273,0.0057,0.15,-0.57,-0.09,0.226,-6.592,-12.268,-0.972
1708,0.0295,-0.0266,0.0061,0.02,-0.45,-0.11,0.243,-5.520,-8.689,-0.937
1719,0.0312,-0.0292,0.0063,-0.08,-0.35,-0.13,0.243,-7.076,-12.236,-2.187
1728,0.0322,-0.0293,0.0297,-0.15,-0.23,-0.14,0.243,-2.277,-10.474,-2.089
1738,0.0331,-0.0291,0.0303,-0.20,-0.12,-0.15,0.243,-5.933,-13.088,-3.167
1748,0.0327,-0.0286,0.0309,-0.26,-0.02,-0.17,0.229,-5.425,-11.033,-3.312
1759,0.0319,-0.0263,0.0313,-0.31,0.09,-0.19,0.229,-8.264,-10.761,-2.951
1768,0.0369,-0.0286,0.0115,-0.36,0.19,-0.22,0.229,-4.193,-8.319,-3.016
1779,0.0372,-0.0260,0.0113,-0.44,0.29,-0.25,0.229,-4.275,-7.581,-3.537
1788,0.0372,-0.0235,0.0111,-0.52,0.40,-0.28,0.229,-0.656,-4.212,-3.736
1798,0.0359,-0.0211,0.0112,-0.57,0.48,-0.32,0.229,-2.464,-6.615,-3.690
1808,0.0329,-0.0206,0.0112,-0.61,0.56,-0.35,0.229,0.381,-5.463,-3.090
1818,0.0317,-0.0187,-0.0037,-0.62,0.61,-0.39,0.229,2.741,-5.749,-2.689
1829,0.0286,-0.0199,-0.0037,-0.62,0.69,-0.42,0.229,2.189,-7.696,-2.815
1839,0.0287,-0.0197,-0.0038,-0.62,0.75,-0.45,0.229,0.370,-7.783,-2.503
1849,0.0274,-0.0186,-0.0039,-0.61,0.82,-0.47,0.243,-0.885,-7.673,-2.762
1859,0.0258,-0.0189,-0.0037,-0.59,0.90,-0.50,0.243,2.768,-3.621,-2.692
1868,0.0293,-0.0176,0.0196,-0.58,0.94,-0.53,0.243,-0.006,-5.466,-3.050
1878,0.0273,-0.0160,0.0198,-0.58,1.01,-0.56,0.243,0.061,1.141,-2.242
1888,0.0273,-0.0145,0.0200,-0.57,1.04,-0.58,0.243,-2.845,1.192,-2.446
1899,0.0255,-0.0135,0.0199,-0.56,1.08,-0.61,0.243,-5.196,1.960,-2.959
1908,0.0261,-0.0115,0.0200,-0.59,1.06,-0.63,0.231,-3.770,3.512,-3.189
1919,0.0239,-0.0114,0.0205,-0.62,1.04,-0.66,0.231,-2.092,4.396,-4.466
1929,0.0219,-0.0113,0.0050,-0.65,1.01,-0.69,0.231,-2.896,3.030,-4.714
1938,0.0200,-0.0110,0.0055,-0.68,0.97,-0.73,0.231,1.400,3.710,-5.321
1949,0.0183,-0.0098,0.0059,-0.71,0.93,-0.77,0.229,0.054,0.858,-4.940
1958,0.0149,-0.0100,0.0061,-0.71,0.91,-0.82,0.229,2.342,-0.303,-5.340
1969,0.0134,-0.0088,-0.0066,-0.69,0.88,-0.87,0.229,4.538,-1.408,-5.156
1978,0.0119,-0.0076,-0.0063,-0.68,0.87,-0.93,0.229,3.951,-0.871,-4.368
1988,0.0101,-0.0032,-0.0062,-0.67,0.87,-0.98,0.229,2.384,-0.598,-3.386
1999,0.0086,-0.0020,-0.0060,-0.62,0.88,-1.03,0.229,2.382,0.830,-2.613
2008,0.0071,-0.0009,-0.0056,-0.58,0.89,-1.07,0.242,2.871,1.220,-2.792
2019,0.0071,-0.0003,-0.0050,-0.55,0.89,-1.10,0.242,3.619,1.041,-2.421
2028,0.0054,0.0007,0.0178,-0.53,0.88,-1.13,0.242,1.094,3.862,-1.919
2038,0.0039,0.0030,0.0188,-0.51,0.87,-1.16,0.242,6.343,2.870,-1.874
2049,0.0024,0.0039,0.0196,-0.48,0.85,-1.18,0.234,3.779,4.834,-2.005
2058,-0.0005,0.0044,0.0204,-0.45,0.83,-1.20,0.234,4.180,4.200,-0.995
2068,-0.0019,0.0052,0.0143,-0.39,0.79,-1.22,0.234,2.867,6.940,-0.306
2078,-0.0043,0.0052,0.0149,-0.35,0.76,-1.24,0.234,1.252,7.439,0.900
2088,-0.0065,0.0050,0.0154,-0.31,0.71,-1.25,0.234,2.190,8.334,2.243
2099,-0.0082,0.0051,0.0161,-0.29,0.63,-1.25,0.234,1.000,8.680,2.240
2108,-0.0097,0.0088,0.0167,-0.29,0.56,-1.23,0.232,5.766,8.244,2.244
2118,-0.0125,0.0071,0.0172,-0.26,0.48,-1.21,0.232,7.792,7.485,2.940
2128,-0.0132,0.0075,0.0068,-0.24,0.40,-1.19,0.232,5.956,8.289,4.054
2139,-0.0120,0.0084,0.0074,-0.18,0.31,-1.16,0.232,8.719,6.185,4.057
2148,-0.0126,0.0091,0.0077,-0.10,0.23,-1.13,0.236,6.655,6.082,4.263
2158,-0.0148,0.0097,0.0078,-0.04,0.15,-1.09,0.236,5.726,6.324,4.076
2168,-0.0152,0.0081,0.0099,0.05,0.09,-1.05,0.236,4.911,5.286,4.361
2178,-0.0175,0.0066,0.0100,0.13,0.04,-1.01,0.236,2.238,5.949,4.827
2188,-0.0144,0.0071,0.0102,0.17,-0.03,-0.96,0.236,1.578,4.915,4.640
2198,-0.0148,0.0080,0.0105,0.21,-0.09,-0.91,0.236,2.081,4.102,4.930
2208,-0.0146,0.0076,0.0107,0.23,-0.14,-0.86,0.238,0.348,4.274,5.250
2218,-0.0167,0.0067,0.0108,0.24,-0.17,-0.81,0.238,-1.674,2.709,4.423
2228,-0.0167,0.0056,0.0154,0.26,-0.22,-0.76,0.238,2.626,6.958,4.571
2238,-0.0167,0.0048,0.0155,0.26,-0.27,-0.71,0.238,0.711,3.310,4.555
2248,-0.0167,0.0040,0.0156,0.27,-0.32,-0.67,0.239,1.250,4.080,5.158
2258,-0.0165,0.0032,0.0154,0.28,-0.37,-0.62,0.239,-1.903,0.567,4.805
2268,-0.0165,0.0022,0.0183,0.30,-0.41,-0.58,0.239,1.682,1.424,4.027
2278,-0.0158,0.0017,0.0180,0.30,-0.44,-0.53,0.239,3.261,2.625,3.984
2288,-0.0161,0.0011,0.0180,0.29,-0.44,-0.48,0.239,5.799,4.145,3.700
2298,-0.0162,0.0002,0.0180,0.31,-0.46,-0.44,0.239,1.749,3.430,4.218
2308,-0.0154,-0.0003,0.0178,0.36,-0.49,-0.40,0.239,3.824,3.871,4.986
2318,-0.0131,0.0001,0.0174,0.40,-0.55,-0.36,0.239,1.465,2.052,4.554
2328,-0.0130,-0.0003,0.0165,0.40,-0.59,-0.31,0.239,1.086,4.455,4.780
2338,-0.0121,-0.0010,0.0160,0.42,-0.62,-0.26,0.239,-0.517,0.054,4.200
2348,-0.0110,-0.0017,0.0154,0.44,-0.64,-0.22,0.237,0.347,-3.294,3.615
2358,-0.0099,-0.0025,0.0149,0.45,-0.65,-0.18,0.237,1.522,0.282,4.356
2368,-0.0080,-0.0049,0.0082,0.46,-0.66,-0.13,0.237,-2.719,-2.411,3.938
2378,-0.0088,-0.0053,0.0075,0.45,-0.63,-0.09,0.237,1.653,-3.399,4.246
2388,-0.0080,-0.0078,0.0066,0.46,-0.61,-0.05,0.237,-1.548,-4.141,3.317
2398,-0.0069,-0.0086,0.0062,0.47,-0.59,-0.01,0.237,0.485,-4.098,4.462
2408,-0.0059,-0.0094,0.0061,0.46,-0.55,0.03,0.238,0.351,-0.940,3.906
2418,-0.0053,-0.0134,0.0060,0.46,-0.51,0.06,0.238,2.887,-2.745,3.453
2428,-0.0045,-0.0142,0.0033,0.48,-0.47,0.10,0.238,-3.886,1.575,4.679
2438,-0.0017,-0.0149,0.0031,0.50,-0.47,0.14,0.238,-2.527,-2.413,4.948
2448,-0.0009,-0.0157,0.0026,0.50,-0.46,0.18,0.237,-4.838,-5.263,3.576
2458,0.0001,-0.0194,0.0021,0.48,-0.47,0.23,0.237,-4.031,1.498,4.726
2468,0.0009,-0.0202,-0.0020,0.45,-0.43,0.28,0.237,-0.431,-2.685,4.083
2478,0.0010,-0.0231,-0.0022,0.40,-0.39,0.31,0.237,-5.553,1.581,4.306
2488,0.0000,-0.0210,-0.0023,0.38,-0.39,0.36,0.237,0.510,0.467,3.976
2498,0.0007,-0.0216,-0.0026,0.36,-0.38,0.41,0.237,-0.950,0.311,3.649
2508,0.0017,-0.0225,-0.0027,0.32,-0.39,0.44,0.238,-3.035,0.024,3.977
2518,0.0046,-0.0283,-0.0026,0.35,-0.42,0.48,0.238,-4.798,-2.786,3.585
2528,0.0054,-0.0297,-0.0022,0.35,-0.43,0.52,0.238,-5.047,-1.612,3.830
2538,0.0057,-0.0264,-0.0021,0.28,-0.41,0.56,0.238,-6.990,-5.953,3.439
2548,0.0059,-0.0272,-0.0018,0.24,-0.39,0.59,0.241,-6.815,-6.099,3.265
2558,0.0066,-0.0276,-0.0017,0.17,-0.36,0.63,0.241,-9.942,-6.745,3.207
2567,0.0060,-0.0297,0.0050,0.11,-0.29,0.67,0.241,-10.171,-4.597,3.930
2578,0.0074,-0.0334,0.0053,0.06,-0.24,0.70,0.241,-7.374,-4.564,3.496
2588,0.0064,-0.0323,0.0056,-0.06,-0.16,0.73,0.241,-7.271,-4.181,4.009
2598,0.0078,-0.0352,0.0059,-0.13,-0.13,0.77,0.241,-6.195,-3.711,3.150
2608,0.0081,-0.0350,0.0064,-0.20,-0.09,0.80,0.240,-2.417,-1.294,2.303
2617,0.0075,-0.0341,0.0070,-0.26,-0.05,0.83,0.240,-2.555,-1.623,1.584
2627,0.0076,-0.0336,0.0087,-0.30,-0.03,0.86,0.240,-1.832,0.434,1.136
2637,0.0092,-0.0371,0.0090,-0.30,-0.03,0.88,0.240,-1.877,0.178,0.712
2647,0.0092,-0.0365,0.0091,-0.33,-0.01,0.89,0.239,-1.842,1.240,-0.010
2658,0.0092,-0.0360,0.0094,-0.34,-0.02,0.90,0.239,-2.182,-0.446,-0.596
2668,0.0090,-0.0378,0.0073,-0.34,-0.03,0.91,0.239,-4.153,-1.040,-0.629
2678,0.0090,-0.0372,0.0074,-0.36,-0.02,0.90,0.239,-3.008,-1.424,-0.902
2688,0.0089,-0.0391,0.0076,-0.36,-0.03,0.90,0.239,-3.576,-0.441,-0.541
2698,0.0105,-0.0364,0.0078,-0.40,-0.03,0.89,0.239,-3.418,-0.711,-1.651
2707,0.0081,-0.0376,0.0079,-0.43,-0.00,0.88,0.240,-5.700,-1.362,-1.842
2717,0.0095,-0.0385,0.0078,-0.46,0.00,0.87,0.240,-5.938,-1.897,-1.628
2727,0.0094,-0.0377,0.0080,-0.50,0.01,0.85,0.240,-4.557,-1.490,-1.997
2738,0.0087,-0.0381,0.0084,-0.56,0.03,0.83,0.240,-4.902,-0.613,-1.176
2748,0.0086,-0.0371,0.0086,-0.62,0.06,0.81,0.241,-7.167,0.266,-1.661
2757,0.0085,-0.0361,0.0089,-0.66,0.07,0.79,0.241,-5.819,1.333,-2.150
2768,0.0079,-0.0363,0.0106,-0.72,0.08,0.78,0.241,-3.068,0.479,-2.399
2778,0.0077,-0.0350,0.0109,-0.79,0.09,0.76,0.241,-5.172,-1.215,-2.213
2787,0.0076,-0.0337,0.0115,-0.85,0.09,0.73,0.241,-6.017,-0.226,-2.592
2798,0.0074,-0.0322,0.0121,-0.90,0.09,0.71,0.241,-4.466,3.319,-2.435
2808,0.0073,-0.0325,0.0126,-0.95,0.08,0.69,0.240,-3.372,0.176,-1.715
2818,0.0070,-0.0373,0.0132,-0.96,0.07,0.67,0.240,-1.204,-1.136,-2.252
2827,0.0069,-0.0357,0.0105,-1.00,0.06,0.64,0.240,-3.671,-0.377,-3.039
2837,0.0044,-0.0319,0.0111,-1.05,0.08,0.62,0.240,-1.812,-1.783,-1.727
2847,0.0042,-0.0301,0.0115,-1.05,0.08,0.60,0.243,-4.555,-0.492,-2.216
2858,0.0058,-0.0324,0.0117,-1.07,0.09,0.57,0.243,-3.259,-3.127,-3.105
2867,0.0056,-0.0306,0.0156,-1.09,0.09,0.55,0.243,-3.565,-4.529,-3.286
2877,0.0050,-0.0284,0.0157,-1.14,0.11,0.53,0.243,-1.751,-0.643,-1.484
2887,0.0047,-0.0265,0.0159,-1.17,0.16,0.50,0.243,-2.721,-1.347,-2.818
2898,0.0045,-0.0245,0.0160,-1.21,0.18,0.47,0.243,1.886,-1.524,-2.664
2907,0.0058,-0.0216,0.0161,-1.21,0.19,0.45,0.245,0.789,-0.000,-2.085
2918,0.0032,-0.0203,0.0161,-1.22,0.20,0.43,0.245,-0.708,1.696,-2.984
2928,0.0029,-0.0182,0.0206,-1.22,0.20,0.40,0.245,0.299,0.270,-3.512
2937,0.0043,-0.0156,0.0201,-1.21,0.19,0.37,0.245,0.714,-0.099,-3.441
2947,0.0040,-0.0136,0.0198,-1.19,0.19,0.34,0.241,0.969,-0.326,-3.553
2957,0.0014,-0.0107,0.0194,-1.20,0.20,0.31,0.241,1.657,-0.489,-3.813
2968,0.0012,-0.0106,0.0115,-1.17,0.20,0.27,0.241,2.925,0.546,-3.195
2978,0.0009,-0.0040,0.0112,-1.19,0.20,0.24,0.241,3.762,0.466,-3.577
2988,-0.0017,-0.0023,0.0109,-1.16,0.22,0.21,0.241,5.686,1.394,-3.792
2998,-0.0021,-0.0003,0.0108,-1.13,0.21,0.17,0.241,5.989,0.800,-3.486
3008,-0.0023,0.0030,0.0107,-1.10,0.20,0.14,0.245,5.476,0.912,-3.503
3017,-0.0027,0.0049,0.0108,-1.04,0.20,0.10,0.245,8.161,1.149,-3.631
3027,-0.0069,0.0055,0.0133,-0.97,0.21,0.06,0.245,7.513,1.029,-3.359
3038,-0.0073,0.0071,0.0131,-0.90,0.20,0.03,0.245,6.665,0.331,-3.149
3048,-0.0093,0.0113,0.0132,-0.84,0.20,-0.01,0.244,6.094,0.778,-3.306
3058,-0.0096,0.0129,0.0131,-0.77,0.18,-0.04,0.244,5.914,0.819,-3.418
3067,-0.0072,0.0168,0.0109,-0.72,0.16,-0.07,0.244,5.437,1.421,-3.788
3078,-0.0070,0.0185,0.0105,-0.66,0.15,-0.10,0.244,4.713,1.455,-4.082
3088,-0.0089,0.0198,0.0101,-0.60,0.15,-0.14,0.244,5.403,2.895,-3.624
3098,-0.0107,0.0190,0.0099,-0.54,0.15,-0.18,0.244,7.839,2.994,-4.824
3107,-0.0102,0.0225,0.0100,-0.50,0.12,-0.22,0.244,6.953,3.363,-4.671
3118,-0.0114,0.0276,0.0099,-0.47,0.10,-0.26,0.244,6.102,3.726,-4.968
3127,-0.0125,0.0282,0.0074,-0.40,0.06,-0.30,0.244,6.670,4.022,-4.397
3137,-0.0116,0.0246,0.0071,-0.30,0.03,-0.35,0.244,6.758,3.020,-4.576
3147,-0.0087,0.0230,0.0071,-0.22,-0.02,-0.40,0.243,5.746,2.261,-4.134
3157,-0.0079,0.0234,0.0070,-0.16,-0.05,-0.45,0.243,7.236,2.338,-4.255
3167,-0.0087,0.0292,0.0023,-0.12,-0.08,-0.49,0.243,7.490,1.494,-4.133
3177,-0.0117,0.0271,0.0018,-0.04,-0.08,-0.53,0.243,6.795,1.141,-4.901
3187,-0.0107,0.0306,0.0015,0.02,-0.11,-0.58,0.243,6.299,2.020,-4.757
3197,-0.0096,0.0302,0.0014,0.09,-0.13,-0.62,0.243,5.391,1.022,-4.379
3208,-0.0125,0.0280,0.0014,0.16,-0.13,-0.67,0.243,6.667,-0.325,-3.826
3217,-0.0123,0.0277,0.0012,0.24,-0.13,-0.71,0.243,6.214,0.922,-3.821
3227,-0.0120,0.0273,-0.0021,0.29,-0.14,-0.75,0.243,5.064,1.044,-3.904
3237,-0.0112,0.0267,-0.0024,0.35,-0.15,-0.79,0.243,4.573,1.281,-3.467
3248,-0.0109,0.0261,-0.0026,0.40,-0.17,-0.83,0.243,4.724,0.979,-3.524
3257,-0.0139,0.0259,-0.0027,0.43,-0.16,-0.87,0.243,4.834,0.575,-2.850
3267,-0.0130,0.0276,-0.0040,0.45,-0.17,-0.90,0.243,3.199,2.007,-2.979
3277,-0.0122,0.0289,-0.0040,0.48,-0.18,-0.93,0.243,1.596,2.079,-2.570
3287,-0.0119,0.0281,-0.0037,0.52,-0.19,-0.96,0.243,5.707,1.595,-3.428
3297,-0.0107,0.0274,-0.0036,0.54,-0.22,-0.98,0.243,1.662,1.618,-2.354
3307,-0.0095,0.0268,-0.0035,0.59,-0.24,-1.01,0.243,6.172,0.796,-3.357
3317,-0.0103,0.0278,-0.0033,0.61,-0.25,-1.04,0.243,2.550,1.626,-2.092
3327,-0.0111,0.0255,-0.0034,0.66,-0.26,-1.07,0.243,4.397,0.659,-2.341
3337,-0.0101,0.0245,-0.0030,0.69,-0.27,-1.10,0.243,2.724,2.459,-1.195
3348,-0.0097,0.0233,-0.0023,0.74,-0.28,-1.12,0.244,5.076,1.781,-1.870
3357,-0.0124,0.0207,-0.0018,0.78,-0.28,-1.14,0.244,0.704,1.847,-0.294
3367,-0.0093,0.0179,0.0008,0.84,-0.32,-1.16,0.244,3.632,1.883,-1.116
3377,-0.0118,0.0191,0.0012,0.84,-0.32,-1.16,0.244,2.027,1.409,-2.211
3387,-0.0105,0.0149,0.0014,0.88,-0.34,-1.17,0.244,-2.367,0.151,-0.540
3397,-0.0111,0.0142,0.0015,0.91,-0.35,-1.19,0.244,-0.836,-0.208,-0.785
3407,-0.0101,0.0100,0.0016,0.92,-0.36,-1.20,0.243,-0.659,-1.875,-1.280
3417,-0.0091,0.0104,0.0007,0.89,-0.36,-1.21,0.243,-4.373,-2.178,-0.026
3427,-0.0085,0.0089,0.0008,0.88,-0.35,-1.22,0.243,-4.154,-1.943,0.010
3437,-0.0080,0.0073,0.0009,0.85,-0.33,-1.23,0.243,-6.561,-3.918,0.148
3447,-0.0074,0.0046,0.0007,0.81,-0.31,-1.23,0.241,-6.008,-2.452,0.962
3458,-0.0069,0.0032,0.0006,0.76,-0.28,-1.23,0.241,-5.487,-2.513,1.119
3467,-0.0065,0.0019,-0.0040,0.69,-0.25,-1.22,0.241,-5.748,-2.490,1.380
3477,-0.0062,-0.0003,-0.0036,0.63,-0.22,-1.21,0.241,-3.890,-0.820,1.276
3487,-0.0058,-0.0015,-0.0030,0.56,-0.21,-1.20,0.241,-2.960,0.266,1.942
3497,-0.0056,-0.0034,-0.0028,0.51,-0.19,-1.18,0.241,-3.441,1.500,1.122
3507,-0.0052,-0.0054,-0.0025,0.48,-0.19,-1.17,0.245,-1.876,2.200,1.119
3517,-0.0049,-0.0063,0.0044,0.44,-0.20,-1.15,0.245,-4.134,2.571,1.433
3527,-0.0043,-0.0104,0.0050,0.44,-0.22,-1.14,0.245,0.379,3.109,0.385
3537,-0.0039,-0.0112,0.0054,0.41,-0.24,-1.12,0.245,-1.094,3.323,0.940
3547,-0.0049,-0.0149,0.0061,0.41,-0.27,-1.12,0.240,0.421,2.884,1.663
3557,-0.0045,-0.0156,0.0067,0.40,-0.30,-1.11,0.240,-1.913,3.853,1.579
3567,-0.0033,-0.0177,-0.0006,0.41,-0.33,-1.10,0.240,0.080,3.137,1.737
3577,-0.0033,-0.0177,-0.0006,0.41,-0.33,-1.08,0.240,-3.302,1.687,1.930
3587,-0.0040,-0.0171,0.0000,0.39,-0.36,-1.08,0.240,-5.936,0.568,2.015
3596,-0.0030,-0.0228,0.0006,0.41,-0.40,-1.06,0.240,-6.714,0.239,2.172
3607,-0.0023,-0.0235,0.0010,0.38,-0.42,-1.04,0.245,-8.222,-1.409,2.811
3617,-0.0016,-0.0242,0.0015,0.34,-0.43,-1.02,0.245,-8.546,-3.262,2.726
3627,-0.0009,-0.0248,0.0086,0.27,-0.43,-1.00,0.245,-9.926,-1.137,2.904
3637,-0.0004,-0.0274,0.0093,0.21,-0.42,-0.98,0.245,-10.290,-3.395,2.915
3647,0.0003,-0.0278,0.0100,0.15,-0.40,-0.95,0.244,-8.177,-2.087,2.880
3657,0.0026,-0.0341,0.0106,0.08,-0.39,-0.92,0.244,-8.528,-1.870,3.137
3667,0.0027,-0.0351,0.0119,-0.00,-0.37,-0.90,0.244,-8.434,-4.211,4.084
3677,0.0046,-0.0367,0.0128,-0.09,-0.35,-0.87,0.244,-6.111,-3.645,3.906
3687,0.0067,-0.0340,0.0135,-0.18,-0.33,-0.84,0.244,-6.235,-2.176,3.340
3697,0.0072,-0.0337,0.0140,-0.25,-0.30,-0.80,0.244,-9.649,-3.447,3.248
3707,0.0066,-0.0329,0.0146,-0.33,-0.26,-0.76,0.244,-4.165,-3.054,3.208
3717,0.0064,-0.0340,0.0153,-0.38,-0.22,-0.73,0.244,-9.139,-2.847,3.586
3727,0.0061,-0.0325,0.0141,-0.46,-0.19,-0.70,0.244,-6.833,-3.332,3.882
3736,0.0075,-0.0316,0.0145,-0.53,-0.17,-0.66,0.244,-7.635,-3.700,3.634
3747,0.0090,-0.0299,0.0148,-0.60,-0.15,-0.63,0.244,-6.244,-2.928,3.739
3756,0.0083,-0.0288,0.0148,-0.68,-0.12,-0.59,0.244,-8.445,-3.947,3.701
3767,0.0078,-0.0234,0.0129,-0.78,-0.08,-0.55,0.244,-6.677,-4.552,3.707
3777,0.0070,-0.0312,0.0130,-0.79,-0.04,-0.51,0.244,-6.205,-3.754,4.418
3786,0.0071,-0.0298,0.0132,-0.88,-0.01,-0.48,0.244,-4.432,-3.317,4.510
3796,0.0081,-0.0282,0.0137,-0.94,0.04,-0.44,0.244,-3.487,-3.575,4.461
3807,0.0071,-0.0303,0.0141,-0.99,0.08,-0.39,0.244,-1.870,-2.553,4.049
3817,0.0081,-0.0269,0.0144,-1.04,0.11,-0.35,0.244,-1.656,-1.965,4.414
3826,0.0079,-0.0251,0.0113,-1.08,0.14,-0.31,0.244,-0.693,-1.509,4.693
3836,0.0077,-0.0233,0.0113,-1.10,0.17,-0.26,0.244,0.752,-0.648,5.214
3846,0.0068,-0.0223,0.0110,-1.12,0.19,-0.22,0.246,0.622,0.483,4.879
3856,0.0065,-0.0204,0.0110,-1.13,0.20,-0.17,0.246,1.796,0.627,4.847
3867,0.0062,-0.0185,0.0124,-1.13,0.21,-0.12,0.246,0.202,1.532,5.476
3877,0.0058,-0.0166,0.0123,-1.12,0.21,-0.07,0.246,-1.078,0.742,5.794
3887,0.0054,-0.0147,0.0121,-1.11,0.21,-0.02,0.246,-0.040,0.947,6.126
3897,0.0051,-0.0128,0.0121,-1.11,0.20,0.04,0.246,-0.070,-0.268,5.948
3906,0.0047,-0.0109,0.0120,-1.11,0.19,0.09,0.248,0.141,-0.969,5.629
3916,0.0044,-0.0090,0.0119,-1.11,0.18,0.15,0.248,1.697,-0.226,5.510
3926,0.0040,-0.0068,0.0159,-1.10,0.18,0.21,0.248,0.975,-0.253,6.277
3938,0.0037,-0.0050,0.0159,-1.09,0.19,0.27,0.248,3.227,-0.531,5.722
3946,0.0034,-0.0031,0.0161,-1.09,0.19,0.32,0.249,2.264,-0.281,6.156
3957,0.0031,-0.0012,0.0162,-1.08,0.19,0.39,0.249,3.376,0.132,6.173
3967,0.0027,0.0007,0.0190,-1.06,0.19,0.44,0.249,8.339,1.245,5.622
3976,0.0024,0.0025,0.0192,-1.03,0.20,0.50,0.249,7.249,-0.418,5.367
3987,0.0047,0.0056,0.0194,-1.01,0.18,0.57,0.249,8.818,0.580,5.686
3997,0.0044,0.0074,0.0195,-0.95,0.17,0.62,0.249,4.927,0.273,6.007
4006,0.0061,0.0123,0.0193,-0.91,0.17,0.68,0.245,5.467,0.703,5.578
4017,0.0052,0.0146,0.0189,-0.83,0.17,0.73,0.245,7.664,1.887,5.737
4027,-0.0005,0.0146,0.0094,-0.77,0.20,0.79,0.245,3.161,-0.665,6.224
4037,0.0013,0.0146,0.0092,-0.72,0.19,0.84,0.245,4.213,0.012,5.582
4047,0.0012,0.0165,0.0087,-0.67,0.19,0.90,0.246,0.924,-0.690,5.261
4057,-0.0013,0.0182,0.0082,-0.64,0.20,0.96,0.246,9.749,3.505,5.111
4067,-0.0017,0.0192,0.0034,-0.59,0.19,1.02,0.246,6.092,2.286,4.982
4077,-0.0020,0.0235,0.0029,-0.59,0.20,1.07,0.246,6.395,0.772,5.880
4086,-0.0023,0.0245,0.0027,-0.53,0.18,1.12,0.246,10.336,4.557,4.790
4097,-0.0018,0.0249,0.0029,-0.47,0.16,1.18,0.246,3.780,1.527,4.534
4106,-0.0020,0.0257,0.0030,-0.39,0.14,1.23,0.245,9.313,0.161,4.374
4116,-0.0040,0.0276,0.0031,-0.31,0.12,1.28,0.245,7.785,3.217,4.564
4126,-0.0033,0.0300,-0.0021,-0.26,0.10,1.33,0.245,10.498,1.376,4.529
4137,-0.0035,0.0305,-0.0020,-0.17,0.07,1.37,0.245,10.538,4.091,4.079
4146,-0.0032,0.0306,-0.0022,-0.09,0.04,1.41,0.248,12.093,0.744,3.603
4157,-0.0033,0.0325,-0.0026,-0.01,0.03,1.46,0.248,10.425,-0.391,2.547
4166,-0.0030,0.0356,0.0012,0.05,0.01,1.50,0.248,7.210,1.245,2.398
4176,-0.0030,0.0355,0.0014,0.16,-0.00,1.54,0.248,5.720,2.454,2.870
4187,-0.0028,0.0343,0.0016,0.25,0.01,1.57,0.248,3.889,3.172,2.409
4196,-0.0068,0.0373,0.0017,0.31,0.02,1.59,0.248,5.246,5.583,3.774
4207,-0.0063,0.0368,0.0019,0.38,-0.01,1.62,0.248,6.546,3.316,3.127
4217,-0.0063,0.0361,0.0022,0.42,-0.03,1.64,0.248,8.987,4.009,2.423
4227,-0.0053,0.0350,0.0046,0.47,-0.09,1.68,0.248,7.619,3.207,1.361
4236,-0.0051,0.0342,0.0048,0.54,-0.12,1.71,0.248,7.918,0.281,0.789
4246,-0.0049,0.0333,0.0051,0.62,-0.16,1.74,0.245,9.853,1.159,1.543
4256,-0.0062,0.0293,0.0052,0.72,-0.18,1.75,0.245,7.839,3.299,1.838
4266,-0.0059,0.0281,-0.0005,0.79,-0.18,1.76,0.245,4.385,0.314,-0.086
4276,-0.0054,0.0306,-0.0000,0.85,-0.19,1.77,0.245,5.228,-1.338,0.941
4287,-0.0087,0.0268,0.0004,0.94,-0.18,1.79,0.245,3.564,1.702,1.367
4296,-0.0037,0.0211,0.0005,1.00,-0.21,1.80,0.245,0.436,2.804,0.409
4307,-0.0033,0.0157,0.0006,1.07,-0.20,1.80,0.245,-1.014,0.049,-1.135
4316,-0.0068,0.0211,0.0007,1.07,-0.19,1.81,0.245,-3.390,-0.248,-0.421
4326,-0.0064,0.0193,-0.0030,1.09,-0.21,1.82,0.245,-1.052,2.410,-0.217
4336,-0.0054,0.0082,-0.0031,1.13,-0.22,1.81,0.245,0.544,2.376,1.111
4346,-0.0026,0.0066,-0.0031,1.11,-0.24,1.80,0.245,0.419,0.246,-0.143
4356,-0.0039,0.0088,-0.0029,1.05,-0.24,1.80,0.245,2.365,2.781,0.368
4366,-0.0034,0.0070,-0.0046,1.05,-0.26,1.81,0.245,-5.661,-0.608,-1.394
4376,-0.0028,0.0073,-0.0046,1.04,-0.27,1.81,0.245,-4.399,1.706,0.024
4386,-0.0023,0.0055,-0.0046,1.06,-0.29,1.81,0.245,-6.150,-2.106,-1.509
4396,-0.0018,0.0037,-0.0043,1.02,-0.31,1.81,0.245,-6.738,-0.723,-0.481
4406,0.0035,-0.0010,-0.0041,0.98,-0.34,1.81,0.246,-10.602,-2.433,-1.373
4417,-0.0008,-0.0016,-0.0022,0.92,-0.31,1.79,0.246,-6.909,-3.571,-1.371
4426,0.0019,-0.0017,-0.0019,0.85,-0.31,1.78,0.246,-7.510,-3.252,-0.876
4436,0.0019,-0.0054,-0.0018,0.77,-0.29,1.78,0.246,-9.395,-2.627,-0.050
4446,0.0036,-0.0054,-0.0016,0.68,-0.26,1.76,0.246,-4.742,-3.467,-0.406
4457,0.0034,-0.0068,-0.0012,0.61,-0.22,1.75,0.246,-4.955,-1.813,-1.312
4467,0.0038,-0.0078,0.0006,0.52,-0.20,1.75,0.246,-5.612,-3.809,0.086
4476,0.0035,-0.0150,0.0012,0.50,-0.16,1.74,0.246,-5.989,-1.133,-0.113
4486,0.0035,-0.0165,0.0015,0.44,-0.14,1.73,0.246,-2.829,-3.286,-1.518
4496,0.0067,-0.0155,0.0018,0.38,-0.12,1.73,0.246,-6.607,0.018,-0.942
4506,0.0069,-0.0161,0.0022,0.32,-0.10,1.73,0.247,-2.618,-0.460,-0.652
4517,0.0071,-0.0167,0.0026,0.30,-0.08,1.72,0.247,-5.738,-1.088,-1.775
4527,0.0073,-0.0172,0.0057,0.23,-0.08,1.71,0.247,-5.531,2.669,-0.548
4536,0.0071,-0.0244,0.0062,0.24,-0.07,1.70,0.247,-7.948,0.590,0.171
4546,0.0073,-0.0248,0.0065,0.18,-0.06,1.69,0.245,-9.471,-0.522,-1.055
4556,0.0077,-0.0255,0.0065,0.12,-0.08,1.68,0.245,-7.857,-3.961,-1.560
4566,0.0078,-0.0257,0.0029,0.06,-0.09,1.68,0.245,-8.944,-3.429,-0.849
4576,0.0080,-0.0258,0.0028,-0.03,-0.09,1.67,0.245,-9.280,-5.041,-0.435
4586,0.0095,-0.0294,0.0030,-0.07,-0.07,1.66,0.245,-8.984,-5.281,-1.705
4596,0.0109,-0.0311,0.0033,-0.15,-0.05,1.65,0.245,-12.694,-3.377,-0.025
4606,0.0076,-0.0279,0.0034,-0.24,0.01,1.64,0.246,-9.724,-2.706,-1.574
4616,0.0106,-0.0330,0.0035,-0.30,0.05,1.63,0.246,-9.486,-1.912,-1.127
4626,0.0105,-0.0325,0.0038,-0.42,0.09,1.62,0.246,-7.378,-1.862,-1.724
4636,0.0096,-0.0392,0.0043,-0.46,0.13,1.61,0.246,-7.041,-1.389,-0.808
4646,0.0107,-0.0376,0.0046,-0.56,0.15,1.59,0.243,-5.962,-1.712,-0.607
4656,0.0104,-0.0366,0.0051,-0.63,0.17,1.58,0.243,-7.205,1.174,-1.028
4666,0.0095,-0.0354,-0.0016,-0.70,0.19,1.57,0.243,-4.154,-1.443,-2.487
4676,0.0083,-0.0359,-0.0015,-0.74,0.21,1.56,0.243,-9.754,-0.684,-1.663
4687,0.0079,-0.0347,-0.0017,-0.81,0.22,1.54,0.243,-6.661,-1.306,-0.981
4696,0.0050,-0.0311,-0.0016,-0.87,0.25,1.52,0.243,-7.413,-3.158,-2.101
4706,0.0083,-0.0307,-0.0011,-0.95,0.23,1.50,0.245,-5.363,-2.164,-1.241
4717,0.0078,-0.0291,-0.0003,-1.02,0.24,1.49,0.245,-6.724,-2.036,-1.500
4726,0.0069,-0.0307,0.0002,-1.07,0.27,1.48,0.245,-3.807,-1.144,-1.532
4736,0.0078,-0.0288,0.0006,-1.13,0.28,1.47,0.245,-3.489,-1.525,-1.366
4746,0.0065,-0.0268,0.0011,-1.20,0.30,1.45,0.242,-2.386,-0.970,-2.565
4756,0.0060,-0.0248,0.0016,-1.25,0.32,1.43,0.242,-1.472,0.392,-2.265
4766,0.0110,-0.0229,-0.0046,-1.29,0.31,1.42,0.242,-0.334,0.401,-2.557
4776,0.0059,-0.0193,-0.0041,-1.33,0.34,1.40,0.242,-1.118,1.623,-2.145
4786,0.0054,-0.0221,-0.0038,-1.32,0.33,1.38,0.242,1.447,0.027,-2.782
4796,0.0048,-0.0199,-0.0036,-1.32,0.32,1.36,0.242,-1.791,-0.395,-1.999
4806,0.0041,-0.0131,-0.0034,-1.36,0.31,1.34,0.246,1.417,-2.719,-1.664
4816,0.0034,-0.0124,0.0027,-1.34,0.31,1.31,0.246,2.673,-0.592,-1.452
4826,0.0028,-0.0101,0.0036,-1.35,0.31,1.29,0.246,2.494,0.561,-1.733
4836,0.0022,-0.0077,0.0044,-1.34,0.33,1.27,0.246,4.044,1.475,-1.376
4846,0.0013,-0.0037,0.0050,-1.34,0.34,1.26,0.247,3.931,1.799,-2.056
4856,0.0006,-0.0014,0.0054,-1.31,0.34,1.24,0.247,4.263,1.682,-1.710
4866,-0.0000,0.0009,0.0109,-1.27,0.33,1.22,0.247,4.754,0.983,-2.391
4876,-0.0007,0.0030,0.0111,-1.22,0.32,1.20,0.247,7.540,1.432,-2.358
4886,-0.0008,0.0058,0.0115,-1.17,0.31,1.18,0.247,6.461,2.849,-2.021
4896,-0.0008,0.0087,0.0120,-1.12,0.29,1.16,0.247,5.653,3.269,-1.664
4906,-0.0030,0.0096,0.0126,-1.05,0.28,1.13,0.245,6.432,2.349,-1.203
4916,-0.0032,0.0177,0.0132,-1.02,0.25,1.12,0.245,5.158,2.011,-0.115
4926,-0.0049,0.0175,0.0103,-0.95,0.23,1.10,0.245,9.433,4.254,-0.694
4936,-0.0084,0.0176,0.0104,-0.87,0.22,1.08,0.245,9.160,2.901,-0.221
4946,-0.0062,0.0196,0.0104,-0.82,0.18,1.08,0.247,9.008,4.198,-0.069
4957,-0.0076,0.0191,0.0105,-0.74,0.15,1.07,0.247,7.360,2.875,0.135
4966,-0.0074,0.0204,0.0121,-0.66,0.12,1.06,0.247,8.350,0.785,-0.887
4976,-0.0052,0.0229,0.0121,-0.57,0.07,1.06,0.247,11.442,1.484,-0.947
4986,-0.0048,0.0193,0.0121,-0.46,0.05,1.06,0.247,9.794,2.447,-0.957
4996,-0.0099,0.0235,0.0120,-0.39,0.06,1.05,0.247,10.293,0.987,-0.475
5006,-0.0096,0.0235,0.0121,-0.28,0.04,1.04,0.245,9.016,0.237,-1.020
5016,-0.0072,0.0307,0.0124,-0.22,0.01,1.03,0.245,8.451,2.268,-1.081
5026,-0.0070,0.0301,0.0076,-0.11,-0.00,1.02,0.245,5.296,2.917,0.294
5036,-0.0068,0.0315,0.0075,-0.03,-0.00,1.02,0.245,5.590,1.006,-1.724
5046,-0.0062,0.0312,0.0077,0.04,-0.02,1.01,0.249,6.536,3.854,-0.582
5056,-0.0056,0.0309,0.0078,0.10,-0.05,1.01,0.249,4.749,1.705,-1.147
5066,-0.0055,0.0307,0.0128,0.17,-0.07,0.99,0.249,8.434,3.473,0.251
5076,-0.0054,0.0305,0.0128,0.23,-0.10,0.99,0.249,6.030,3.091,-0.680
5085,-0.0065,0.0319,0.0131,0.28,-0.11,0.98,0.249,8.681,1.009,-0.380
5096,-0.0063,0.0315,0.0132,0.35,-0.14,0.98,0.249,6.167,0.167,-1.074
5107,-0.0052,0.0341,0.0133,0.40,-0.17,0.97,0.246,7.733,2.066,1.157
5116,-0.0049,0.0335,0.0134,0.49,-0.19,0.97,0.246,6.911,-0.036,-0.477
5126,-0.0062,0.0326,0.0085,0.55,-0.18,0.96,0.246,7.894,2.191,0.208
5136,-0.0058,0.0317,0.0085,0.61,-0.20,0.96,0.246,6.806,1.509,0.352
5146,-0.0051,0.0359,0.0087,0.66,-0.20,0.96,0.245,8.961,1.531,-0.247
5155,-0.0043,0.0357,0.0088,0.74,-0.22,0.96,0.245,5.011,0.451,0.394
5165,-0.0056,0.0358,0.0027,0.80,-0.22,0.96,0.245,3.345,-1.535,-0.708
5176,-0.0050,0.0304,0.0026,0.89,-0.23,0.96,0.245,2.571,-0.704,0.582
5185,-0.0045,0.0292,0.0028,0.93,-0.23,0.97,0.245,3.568,-0.825,1.285
5195,-0.0040,0.0276,0.0028,0.97,-0.22,0.96,0.245,5.856,-1.975,0.152
5206,-0.0016,0.0243,0.0027,1.01,-0.23,0.97,0.243,2.398,-1.816,-0.402
5216,-0.0032,0.0212,0.0029,1.05,-0.21,0.98,0.243,0.969,-0.646,-1.151
5225,-0.0031,0.0197,-0.0052,1.11,-0.19,0.98,0.243,1.432,2.407,-0.754
5236,-0.0027,0.0178,-0.0051,1.13,-0.17,0.97,0.243,-2.270,2.554,0.639
5246,-0.0004,0.0155,-0.0051,1.14,-0.17,0.97,0.247,0.550,1.094,-0.517
5255,-0.0001,0.0135,-0.0051,1.15,-0.19,0.96,0.247,1.339,2.318,0.795
5266,-0.0012,0.0111,-0.0005,1.13,-0.21,0.97,0.247,0.275,1.588,0.624
5276,-0.0008,0.0092,-0.0002,1.14,-0.23,0.96,0.247,-1.437,0.740,0.721
5286,-0.0004,0.0072,0.0000,1.15,-0.25,0.96,0.247,-4.349,-1.107,0.527
5295,0.0001,0.0053,0.0003,1.15,-0.26,0.97,0.247,-4.531,-2.424,0.397
5306,0.0006,0.0033,0.0007,1.14,-0.26,0.98,0.247,-6.681,-1.637,0.863
5316,0.0011,0.0013,0.0012,1.10,-0.26,0.98,0.247,-8.704,-3.389,1.518
5325,0.0015,-0.0006,0.0046,1.05,-0.24,0.99,0.247,-8.168,-2.800,0.906
5335,0.0037,-0.0050,0.0049,0.99,-0.23,1.00,0.247,-10.070,-1.916,1.546
5346,0.0076,-0.0070,0.0051,0.91,-0.22,1.01,0.245,-9.070,-4.739,1.413
5356,0.0072,-0.0088,0.0055,0.83,-0.19,1.01,0.245,-8.423,-4.799,-0.367
5365,0.0109,-0.0077,0.0027,0.71,-0.18,1.02,0.245,-5.429,-2.880,0.768
5376,0.0104,-0.0133,0.0034,0.64,-0.14,1.04,0.245,-5.955,-4.312,0.292
5385,0.0054,-0.0169,0.0041,0.58,-0.06,1.04,0.245,-5.315,-4.147,-0.997
5396,0.0089,-0.0179,0.0047,0.52,-0.05,1.04,0.245,-6.606,-2.731,-0.476
5406,0.0090,-0.0188,0.0052,0.46,-0.01,1.04,0.246,-4.505,-2.088,-1.246
5415,0.0083,-0.0222,0.0056,0.42,0.03,1.04,0.246,-4.447,-2.671,-2.062
5425,0.0095,-0.0230,0.0061,0.36,0.04,1.03,0.246,-6.303,-3.575,-1.235
5436,0.0094,-0.0236,0.0065,0.32,0.07,1.02,0.246,-7.467,-3.218,-1.001
5446,0.0093,-0.0242,0.0070,0.27,0.09,1.01,0.246,-8.182,-2.114,-0.864
5455,0.0104,-0.0228,0.0077,0.20,0.11,1.00,0.246,-7.503,-1.079,-1.074
5465,0.0094,-0.0232,0.0074,0.13,0.13,0.98,0.246,-7.935,-1.562,-1.715
5475,0.0087,-0.0332,0.0079,0.11,0.16,0.97,0.246,-9.322,-2.974,-1.300
5485,0.0079,-0.0326,0.0085,0.03,0.17,0.96,0.246,-8.899,-1.574,-1.736
5495,0.0092,-0.0298,0.0091,-0.08,0.17,0.94,0.246,-10.713,-1.187,-1.626
5506,0.0104,-0.0331,0.0095,-0.15,0.18,0.93,0.247,-7.366,-0.183,-1.189
5515,0.0096,-0.0320,0.0098,-0.24,0.19,0.91,0.247,-8.684,-1.503,-0.718
5525,0.0086,-0.0348,0.0111,-0.32,0.21,0.90,0.247,-9.445,-2.470,-1.618
5535,0.0078,-0.0335,0.0119,-0.39,0.21,0.89,0.247,-5.802,-1.660,-1.659
5546,0.0071,-0.0340,0.0122,-0.47,0.23,0.88,0.245,-8.600,-2.033,-2.227
5555,0.0059,-0.0325,0.0124,-0.56,0.26,0.86,0.245,-6.698,-2.921,-1.534
5566,0.0070,-0.0348,0.0075,-0.61,0.26,0.85,0.245,-5.599,-0.282,-1.482
5575,0.0058,-0.0331,0.0080,-0.69,0.29,0.82,0.245,-6.349,-3.133,-2.270
5586,0.0066,-0.0318,0.0087,-0.75,0.31,0.81,0.245,-6.089,-1.343,-0.948
5595,0.0039,-0.0317,0.0093,-0.81,0.33,0.80,0.245,-3.275,-0.364,-1.624
5605,0.0045,-0.0284,0.0096,-0.89,0.35,0.77,0.248,-6.428,0.248,-0.822
5616,0.0035,-0.0267,0.0102,-0.95,0.37,0.76,0.248,-3.035,1.053,-2.649
5626,0.0027,-0.0253,0.0134,-0.99,0.37,0.75,0.248,-6.567,3.440,-1.538
5636,0.0020,-0.0234,0.0139,-1.05,0.37,0.73,0.248,-2.525,4.487,-0.814
5645,0.0013,-0.0216,0.0142,-1.09,0.36,0.71,0.250,0.375,3.702,-2.683
5656,0.0012,-0.0197,0.0146,-1.15,0.32,0.69,0.250,-1.937,4.409,-2.056
5666,0.0012,-0.0189,0.0215,-1.17,0.28,0.68,0.250,-2.947,4.620,-1.484
5676,0.0013,-0.0179,0.0218,-1.16,0.24,0.65,0.250,0.553,6.529,-0.333
5686,0.0008,-0.0160,0.0222,-1.18,0.20,0.63,0.250,6.220,5.135,-0.740
5695,0.0005,-0.0139,0.0224,-1.21,0.15,0.62,0.250,6.190,1.854,-1.772
5706,0.0002,-0.0119,0.0225,-1.20,0.09,0.61,0.248,9.922,0.935,-1.680
5716,0.0000,-0.0099,0.0172,-1.14,0.04,0.60,0.248,6.784,0.711,-1.634
5726,-0.0021,-0.0082,0.0175,-1.08,0.04,0.58,0.248,3.802,-3.993,-1.050
5736,-0.0021,-0.0032,0.0177,-1.02,0.03,0.57,0.248,5.737,-1.029,-0.643
5745,-0.0021,-0.0015,0.0174,-0.96,0.03,0.56,0.252,3.950,-0.555,-0.741
5755,-0.0022,0.0002,0.0171,-0.92,0.06,0.55,0.252,2.408,-0.505,-0.972
5766,-0.0025,0.0033,0.0209,-0.89,0.07,0.54,0.252,2.082,-0.844,-0.144
5776,-0.0026,0.0049,0.0206,-0.87,0.09,0.53,0.252,1.152,-1.445,-1.438
5786,-0.0028,0.0063,0.0203,-0.86,0.10,0.52,0.252,2.445,1.403,-0.188
5796,0.0011,0.0071,0.0199,-0.83,0.09,0.52,0.252,3.505,2.572,0.265
5805,0.0009,0.0085,0.0196,-0.82,0.09,0.51,0.252,6.627,3.145,-0.264
5815,-0.0035,0.0092,0.0195,-0.79,0.11,0.50,0.252,6.371,3.139,-0.022
5826,-0.0032,0.0115,0.0192,-0.75,0.09,0.50,0.252,7.473,4.415,0.158
5836,-0.0034,0.0128,0.0189,-0.70,0.06,0.50,0.252,7.373,2.962,-0.885
5846,-0.0028,0.0162,0.0187,-0.64,0.02,0.50,0.252,11.218,2.649,0.060
5856,-0.0024,0.0190,0.0183,-0.57,-0.01,0.50,0.252,11.385,1.167,-0.458
5865,-0.0024,0.0200,0.0183,-0.49,-0.05,0.49,0.252,2.471,0.834,0.097
5875,-0.0001,0.0182,0.0182,-0.38,-0.08,0.49,0.252,1.321,3.124,0.113
5886,-0.0018,0.0183,0.0177,-0.27,-0.08,0.49,0.252,3.138,0.177,-0.856
5896,-0.0076,0.0181,0.0170,-0.25,-0.05,0.48,0.252,-6.093,-2.761,-0.343
5906,-0.0026,0.0196,0.0165,-0.24,-0.11,0.48,0.252,-3.372,-0.275,-0.231
5915,-0.0024,0.0231,0.0163,-0.25,-0.11,0.48,0.252,-3.931,-2.349,-0.247
5926,-0.0005,0.0257,0.0122,-0.32,-0.10,0.48,0.252,-6.414,-3.255,-0.348
5935,-0.0003,0.0263,0.0120,-0.37,-0.09,0.48,0.252,-7.249,-0.221,0.266
5946,0.0013,0.0266,0.0119,-0.42,-0.07,0.47,0.252,-4.171,-0.743,0.143
5956,0.0014,0.0274,0.0115,-0.49,-0.04,0.47,0.252,-1.761,1.163,0.729
5965,0.0014,0.0282,0.0100,-0.56,-0.04,0.48,0.252,-0.793,0.723,-0.244
5975,-0.0007,0.0290,0.0098,-0.61,-0.02,0.48,0.252,3.515,1.200,0.697
5985,0.0034,0.0293,0.0098,-0.62,-0.05,0.49,0.252,4.396,-1.513,-0.190
5996,0.0035,0.0303,0.0103,-0.63,-0.05,0.49,0.252,5.187,-1.211,-0.199
6006,0.0036,0.0314,0.0106,-0.61,-0.06,0.49,0.254,5.470,-1.554,-0.647
6016,0.0013,0.0302,0.0111,-0.55,-0.03,0.49,0.254,5.579,-1.316,0.256
6025,-0.0010,0.0311,0.0114,-0.50,-0.01,0.49,0.254,7.087,-1.455,0.419
6035,0.0009,0.0299,0.0115,-0.43,-0.01,0.48,0.254,8.098,0.995,0.986
6044,0.0009,0.0306,0.0114,-0.38,0.01,0.49,0.252,5.582,2.803,1.125
6056,0.0006,0.0329,0.0113,-0.31,0.02,0.49,0.252,4.431,2.219,1.298
6066,0.0007,0.0349,0.0083,-0.24,0.01,0.50,0.252,3.496,1.603,0.832
6076,0.0009,0.0373,0.0082,-0.20,-0.01,0.51,0.252,2.700,0.729,0.904
6086,0.0032,0.0336,0.0080,-0.13,-0.04,0.52,0.252,1.911,-0.238,0.715
6095,0.0033,0.0358,0.0079,-0.10,-0.06,0.53,0.252,1.176,-0.342,1.124
6105,0.0051,0.0382,0.0077,-0.09,-0.07,0.55,0.252,2.047,-0.554,1.576
6116,0.0052,0.0384,0.0045,-0.07,-0.07,0.55,0.252,0.691,-1.150,1.901
6126,0.0052,0.0390,0.0045,-0.06,-0.07,0.56,0.252,0.847,-1.163,1.628
6135,0.0053,0.0391,0.0046,-0.05,-0.06,0.58,0.252,1.450,-1.345,1.012
6146,0.0054,0.0391,0.0047,-0.05,-0.04,0.60,0.254,-0.281,-2.426,1.441
6156,0.0054,0.0392,0.0047,-0.04,-0.02,0.61,0.254,3.054,-2.271,0.889
6166,0.0048,0.0439,0.0048,-0.06,0.01,0.62,0.254,4.133,-4.010,1.050
6175,0.0083,0.0423,0.0051,-0.05,0.01,0.63,0.254,3.768,-4.835,1.589
6185,0.0083,0.0424,0.0057,-0.01,0.04,0.64,0.254,4.748,-3.477,1.393
6194,0.0093,0.0399,0.0063,0.05,0.07,0.66,0.254,4.736,-2.446,2.001
6204,0.0092,0.0398,0.0067,0.09,0.11,0.67,0.255,3.323,-3.118,1.987
6216,0.0080,0.0393,0.0068,0.14,0.15,0.69,0.255,2.672,-3.031,1.824
6226,0.0112,0.0408,0.0086,0.17,0.15,0.71,0.255,2.353,-2.739,2.011
6236,0.0110,0.0405,0.0087,0.21,0.18,0.73,0.255,2.173,-3.121,1.270
6245,0.0099,0.0401,0.0087,0.24,0.21,0.74,0.252,2.170,-1.282,1.227
6256,0.0095,0.0397,0.0084,0.26,0.23,0.76,0.252,-0.133,-1.725,1.604
6264,0.0082,0.0394,0.0039,0.29,0.26,0.78,0.252,1.587,-2.252,1.106
6276,0.0078,0.0389,0.0042,0.31,0.28,0.79,0.252,1.323,-2.830,1.986
6285,0.0073,0.0383,0.0043,0.32,0.30,0.80,0.252,0.211,-2.882,1.544
6296,0.0068,0.0378,0.0043,0.33,0.32,0.81,0.252,0.636,-2.881,1.868
6305,0.0078,0.0355,0.0043,0.35,0.34,0.83,0.255,0.013,-4.291,1.821
6314,0.0063,0.0355,0.0047,0.36,0.37,0.85,0.255,-1.798,0.118,1.990
6326,0.0092,0.0378,0.0063,0.34,0.38,0.87,0.255,-0.392,-0.300,1.781
6336,0.0075,0.0332,0.0064,0.37,0.41,0.89,0.255,1.831,-0.073,2.239
6345,0.0040,0.0291,0.0064,0.39,0.45,0.91,0.252,2.086,-2.043,1.620
6355,0.0010,0.0271,0.0064,0.41,0.47,0.92,0.252,-0.867,2.364,1.719
6364,0.0002,0.0264,0.0026,0.41,0.47,0.95,0.252,-0.086,1.044,1.822
6376,0.0097,0.0349,0.0027,0.38,0.41,0.96,0.252,-0.324,1.027,2.290
6385,0.0090,0.0342,0.0023,0.37,0.41,0.98,0.252,-2.010,1.819,2.400
6396,0.0083,0.0336,0.0021,0.36,0.39,1.00,0.252,-1.616,2.310,1.936
6405,0.0077,0.0329,0.0021,0.35,0.38,1.03,0.255,-1.096,0.586,1.503
6415,0.0068,0.0334,0.0023,0.33,0.37,1.05,0.255,-2.076,0.026,1.724
6426,0.0062,0.0328,0.0039,0.31,0.35,1.07,0.255,1.226,-3.146,1.364
6436,0.0102,0.0292,0.0043,0.31,0.32,1.08,0.255,-1.460,-0.725,1.171
6446,0.0071,0.0301,0.0047,0.28,0.33,1.10,0.256,-0.985,-0.354,2.764
6455,0.0066,0.0296,0.0050,0.28,0.35,1.12,0.256,0.954,-3.326,1.984
6464,0.0076,0.0283,0.0077,0.27,0.35,1.14,0.256,-0.970,-1.197,2.514
6474,0.0070,0.0278,0.0079,0.26,0.36,1.16,0.256,-0.905,-1.079,1.925
6484,0.0055,0.0236,0.0086,0.29,0.39,1.18,0.256,0.536,-1.340,1.316
6495,0.0043,0.0245,0.0090,0.27,0.41,1.21,0.256,-5.364,-1.655,2.141
6505,0.0036,0.0240,0.0090,0.27,0.42,1.23,0.255,-4.113,-1.362,2.530
6515,0.0026,0.0205,0.0089,0.27,0.43,1.24,0.255,-1.613,-1.046,1.958
6524,0.0059,0.0201,0.0071,0.22,0.43,1.27,0.255,-1.037,-3.339,1.886
6535,0.0025,0.0194,0.0072,0.19,0.45,1.29,0.255,-2.501,-1.793,2.156
6546,0.0035,0.0185,0.0074,0.18,0.46,1.31,0.252,-3.088,1.130,2.614
6556,0.0027,0.0182,0.0073,0.16,0.49,1.33,0.252,-4.111,0.444,2.608
6565,0.0020,0.0179,-0.0013,0.14,0.51,1.35,0.252,-0.687,-1.362,2.182
6575,0.0011,0.0176,-0.0017,0.11,0.50,1.38,0.252,-1.371,2.545,2.199
6585,0.0002,0.0174,-0.0018,0.09,0.50,1.40,0.252,-2.139,2.611,1.257
6595,-0.0006,0.0173,-0.0018,0.08,0.50,1.42,0.252,-0.693,1.074,1.679
6605,-0.0005,0.0121,-0.0020,0.09,0.46,1.44,0.252,-2.647,5.480,1.274
6615,-0.0013,0.0119,-0.0023,0.07,0.43,1.45,0.252,-3.101,4.007,0.833
6625,-0.0020,0.0118,-0.0051,0.05,0.41,1.47,0.252,-5.235,3.521,1.364
6634,-0.0021,0.0144,-0.0049,-0.00,0.36,1.48,0.252,-4.872,2.215,1.069
6644,-0.0045,0.0095,-0.0048,-0.01,0.35,1.49,0.257,-7.235,1.735,0.151
6655,-0.0041,0.0081,-0.0049,-0.06,0.31,1.50,0.257,-2.588,2.971,-0.043
6664,-0.0046,0.0082,0.0027,-0.12,0.30,1.51,0.257,-5.810,2.238,0.099
6674,-0.0092,0.0065,0.0030,-0.16,0.30,1.51,0.257,-1.400,-0.287,-0.147
6685,-0.0116,0.0069,0.0031,-0.19,0.30,1.51,0.257,-4.026,2.359,-0.028
6694,-0.0109,0.0054,0.0033,-0.22,0.27,1.51,0.257,-1.525,1.879,-0.237
6705,-0.0128,0.0059,0.0037,-0.24,0.26,1.50,0.255,-2.765,0.761,-0.996
6715,-0.0133,0.0063,0.0037,-0.26,0.24,1.50,0.255,-4.326,4.333,-0.631
6724,-0.0129,0.0048,0.0039,-0.28,0.22,1.50,0.255,-4.309,2.790,-0.741
6735,-0.0123,0.0036,0.0039,-0.30,0.18,1.49,0.255,-3.578,5.343,-0.848
6744,-0.0126,0.0041,0.0038,-0.34,0.15,1.48,0.252,-4.179,6.611,-0.859
6755,-0.0137,0.0051,0.0034,-0.37,0.11,1.47,0.252,-5.769,5.940,-1.658
6764,-0.0124,0.0041,-0.0014,-0.41,0.05,1.46,0.252,-5.795,4.967,-1.718
6775,-0.0125,0.0048,-0.0012,-0.46,-0.01,1.45,0.252,-3.328,2.114,-1.609
6784,-0.0155,0.0041,-0.0007,-0.51,-0.04,1.43,0.252,-6.118,5.888,-0.889
6795,-0.0154,0.0049,-0.0003,-0.55,-0.08,1.41,0.252,-1.478,4.180,-2.034
6805,-0.0153,0.0059,0.0000,-0.60,-0.11,1.40,0.252,-1.643,1.013,-2.512
6815,-0.0157,0.0074,0.0002,-0.64,-0.16,1.39,0.252,-2.391,1.562,-1.988
6825,-0.0142,0.0061,-0.0023,-0.64,-0.19,1.36,0.252,-4.242,-0.001,-2.254
6834,-0.0129,0.0054,-0.0020,-0.66,-0.22,1.34,0.252,-1.505,1.499,-2.582
6844,-0.0126,0.0065,-0.0019,-0.69,-0.22,1.32,0.250,-3.427,1.274,-2.189
6854,-0.0123,0.0077,-0.0017,-0.73,-0.23,1.30,0.250,-3.121,5.316,-3.006
6864,-0.0119,0.0089,-0.0073,-0.74,-0.24,1.27,0.250,-2.908,4.532,-2.621
6875,-0.0115,0.0102,-0.0071,-0.78,-0.28,1.25,0.250,-3.029,1.175,-2.916
6884,-0.0110,0.0115,-0.0067,-0.81,-0.33,1.22,0.250,1.523,1.111,-3.495
6894,-0.0105,0.0130,-0.0064,-0.84,-0.36,1.19,0.250,1.289,-0.935,-3.056
6904,-0.0099,0.0144,-0.0059,-0.84,-0.37,1.16,0.254,5.525,-1.749,-3.524
6914,-0.0111,0.0178,-0.0054,-0.85,-0.37,1.12,0.254,4.214,-0.862,-3.563
6924,-0.0104,0.0193,-0.0009,-0.82,-0.35,1.09,0.254,3.832,-0.645,-3.573
6935,-0.0099,0.0208,-0.0007,-0.77,-0.34,1.06,0.254,4.550,-1.620,-3.953
6944,-0.0093,0.0221,-0.0003,-0.74,-0.33,1.02,0.252,4.258,0.107,-3.494
6955,-0.0088,0.0234,0.0002,-0.69,-0.33,0.98,0.252,2.267,-2.938,-3.719
6965,-0.0111,0.0276,-0.0016,-0.66,-0.30,0.94,0.252,-1.111,2.651,-3.113
6974,-0.0101,0.0244,-0.0013,-0.61,-0.29,0.91,0.252,1.268,-2.004,-4.205
6984,-0.0096,0.0254,-0.0010,-0.60,-0.28,0.87,0.252,0.965,3.614,-3.292
6995,-0.0109,0.0279,-0.0005,-0.61,-0.28,0.83,0.252,2.075,-0.180,-3.619
7004,-0.0104,0.0290,0.0000,-0.59,-0.27,0.79,0.250,2.697,-0.153,-3.662
7014,-0.0100,0.0300,-0.0029,-0.59,-0.30,0.76,0.250,5.551,0.923,-3.467
7024,-0.0095,0.0310,-0.0022,-0.55,-0.29,0.72,0.250,3.987,1.595,-3.217
7034,-0.0088,0.0347,-0.0019,-0.52,-0.29,0.68,0.250,6.483,0.350,-3.132
7044,-0.0075,0.0356,-0.0013,-0.48,-0.30,0.65,0.252,7.788,0.259,-3.377
7054,-0.0063,0.0362,-0.0010,-0.43,-0.32,0.62,0.252,5.624,3.068,-3.133
7065,-0.0052,0.0366,0.0021,-0.37,-0.33,0.59,0.252,8.804,-0.541,-3.864
7074,-0.0022,0.0366,0.0024,-0.29,-0.34,0.56,0.252,5.973,0.202,-3.055
7084,-0.0015,0.0391,0.0026,-0.24,-0.34,0.52,0.252,4.448,-0.106,-2.537
7094,-0.0028,0.0366,0.0033,-0.16,-0.34,0.49,0.252,5.372,-3.044,-3.070
7104,-0.0000,0.0340,0.0040,-0.08,-0.34,0.46,0.250,5.274,-4.486,-2.942
7114,0.0001,0.0344,0.0046,-0.05,-0.32,0.43,0.250,4.980,-3.251,-2.675
7124,-0.0018,0.0322,0.0017,0.01,-0.29,0.40,0.250,2.653,-2.239,-1.903
7134,-0.0019,0.0321,0.0023,0.06,-0.25,0.37,0.250,4.409,-5.603,-1.784
7144,0.0004,0.0301,0.0027,0.11,-0.23,0.35,0.250,4.227,-3.408,-1.844
7154,0.0003,0.0325,0.0027,0.12,-0.20,0.33,0.250,3.038,-3.396,-1.999
7164,0.0016,0.0324,0.0006,0.17,-0.14,0.31,0.250,2.988,-3.801,-2.194
7174,0.0011,0.0324,0.0005,0.20,-0.11,0.30,0.250,1.952,-5.703,-2.099
7184,0.0027,0.0303,0.0006,0.24,-0.07,0.28,0.250,-1.885,-2.833,-1.589
7194,0.0019,0.0303,0.0010,0.27,-0.02,0.25,0.250,-0.837,-1.914,-1.245
7204,0.0030,0.0287,0.0014,0.27,0.02,0.24,0.250,-2.201,-1.497,-0.920
7214,0.0027,0.0295,0.0014,0.25,0.04,0.22,0.250,-3.496,-1.620,-0.823
7224,0.0026,0.0291,0.0002,0.23,0.05,0.21,0.250,-5.119,-3.552,-1.010
7234,0.0059,0.0282,0.0008,0.20,0.05,0.20,0.250,-0.421,-6.136,-0.266
7244,0.0058,0.0278,0.0010,0.15,0.08,0.19,0.250,-1.032,-3.839,-0.869
7254,0.0048,0.0311,0.0009,0.11,0.13,0.19,0.250,-0.155,-3.835,-0.170
7264,0.0034,0.0279,0.0002,0.11,0.19,0.18,0.250,-1.210,-3.598,-0.187
7274,0.0043,0.0267,0.0006,0.12,0.22,0.18,0.250,-1.087,-2.466,-0.514
7284,0.0039,0.0265,0.0011,0.11,0.27,0.18,0.250,0.372,-2.184,-0.325
7294,0.0047,0.0256,0.0015,0.10,0.29,0.18,0.250,2.103,-2.415,-0.179
7304,0.0037,0.0264,0.0015,0.09,0.31,0.18,0.249,-2.982,0.671,0.213
7314,0.0032,0.0263,0.0017,0.11,0.33,0.17,0.249,1.008,-0.401,-0.111
7324,0.0026,0.0261,-0.0029,0.10,0.36,0.17,0.249,1.543,-4.248,-0.525
7334,0.0020,0.0259,-0.0026,0.10,0.34,0.17,0.249,-1.864,0.293,-0.274
7344,0.0015,0.0257,-0.0028,0.11,0.36,0.17,0.252,-2.958,-3.124,0.003
7354,0.0008,0.0255,-0.0031,0.11,0.38,0.17,0.252,-3.502,-0.718,-0.415
7364,0.0001,0.0253,0.0029,0.09,0.40,0.17,0.252,0.574,-2.987,-0.162
7374,0.0013,0.0250,0.0035,0.05,0.41,0.16,0.252,-0.266,-5.553,-0.234
7384,0.0006,0.0249,0.0039,0.03,0.42,0.16,0.252,-1.310,-3.027,0.280
7395,-0.0001,0.0248,0.0038,0.04,0.47,0.16,0.252,-0.129,2.273,0.150
7404,-0.0009,0.0247,0.0038,0.03,0.51,0.16,0.255,-3.994,-0.255,-0.363
7414,0.0001,0.0242,0.0044,0.00,0.51,0.17,0.255,0.070,-2.439,0.026
7425,-0.0008,0.0242,0.0130,-0.00,0.51,0.16,0.255,-1.785,-0.581,-0.138
7434,-0.0015,0.0212,0.0133,-0.00,0.51,0.16,0.255,-2.084,1.718,0.108
7444,-0.0047,0.0205,0.0134,-0.01,0.53,0.16,0.255,-1.167,1.519,0.612
7454,-0.0057,0.0205,0.0134,-0.03,0.52,0.16,0.255,-0.747,0.259,0.475
7464,-0.0066,0.0205,0.0167,-0.03,0.49,0.16,0.255,0.337,1.676,0.065
7473,-0.0066,0.0223,0.0172,-0.05,0.48,0.17,0.255,-0.853,3.769,-0.265
7484,-0.0092,0.0215,0.0175,-0.05,0.47,0.17,0.255,-0.564,2.452,0.533
7494,-0.0113,0.0205,0.0174,-0.04,0.45,0.17,0.255,-1.933,2.604,0.192
7504,-0.0120,0.0206,0.0169,-0.05,0.41,0.17,0.255,-1.390,1.427,-0.050
7514,-0.0127,0.0207,0.0167,-0.06,0.39,0.17,0.255,-2.292,3.057,0.094
7524,-0.0134,0.0208,0.0163,-0.07,0.37,0.17,0.255,-0.836,2.079,-0.242
7534,-0.0131,0.0178,0.0162,-0.07,0.34,0.17,0.255,-2.074,1.493,-0.251
7544,-0.0137,0.0179,0.0156,-0.09,0.32,0.17,0.256,-1.328,2.836,0.869
7554,-0.0153,0.0176,0.0150,-0.10,0.30,0.17,0.256,-0.986,3.116,-0.236
7564,-0.0147,0.0198,0.0154,-0.13,0.27,0.18,0.256,-2.591,3.491,-0.157
7574,-0.0163,0.0192,0.0151,-0.13,0.25,0.18,0.256,-1.774,3.926,-0.026
7584,-0.0175,0.0189,0.0148,-0.15,0.21,0.18,0.256,-0.145,3.854,-0.272
7594,-0.0178,0.0192,0.0144,-0.17,0.18,0.18,0.256,-0.855,4.359,0.150
7604,-0.0166,0.0170,0.0138,-0.18,0.13,0.18,0.258,0.557,1.882,-0.142
7614,-0.0177,0.0168,0.0129,-0.19,0.10,0.18,0.258,-1.132,4.725,-0.322
7624,-0.0178,0.0171,0.0153,-0.19,0.06,0.18,0.258,-1.545,2.964,-0.723
7634,-0.0179,0.0175,0.0150,-0.19,0.02,0.17,0.258,-0.452,3.465,-0.776
7643,-0.0180,0.0178,0.0146,-0.20,-0.01,0.17,0.250,-1.711,2.195,-0.967
7654,-0.0190,0.0175,0.0137,-0.21,-0.04,0.16,0.250,-2.395,2.749,-1.448
7664,-0.0198,0.0150,-0.0017,-0.21,-0.07,0.15,0.250,-3.069,2.910,-1.171
7675,-0.0196,0.0154,-0.0023,-0.23,-0.09,0.14,0.250,-1.434,2.778,-1.847
7684,-0.0206,0.0155,-0.0026,-0.26,-0.11,0.13,0.250,-3.289,2.063,-1.136
7694,-0.0204,0.0159,-0.0029,-0.27,-0.14,0.11,0.250,-1.860,0.746,-1.777
7704,-0.0190,0.0137,-0.0033,-0.28,-0.16,0.09,0.255,-2.807,0.795,-2.150
7714,-0.0199,0.0143,-0.0037,-0.31,-0.16,0.08,0.255,-2.723,1.467,-2.345
7724,-0.0206,0.0146,-0.0037,-0.34,-0.18,0.06,0.255,-1.295,0.388,-2.234
7733,-0.0203,0.0151,-0.0036,-0.36,-0.18,0.04,0.255,-2.924,-0.842,-2.147
7743,-0.0167,0.0153,-0.0034,-0.37,-0.21,0.02,0.255,-2.889,-0.132,-2.111
7754,-0.0163,0.0159,-0.0035,-0.39,-0.21,-0.01,0.255,-1.069,2.921,-2.633
7763,-0.0177,0.0165,-0.0033,-0.42,-0.19,-0.03,0.255,-0.170,0.776,-2.349
7774,-0.0173,0.0172,-0.0033,-0.43,-0.21,-0.05,0.255,-1.905,2.361,-2.896
7783,-0.0179,0.0178,-0.0031,-0.45,-0.24,-0.08,0.255,-2.618,2.519,-2.529
7793,-0.0175,0.0186,-0.0030,-0.47,-0.25,-0.11,0.255,1.893,-1.317,-3.285
7804,-0.0171,0.0194,-0.0029,-0.48,-0.27,-0.13,0.254,-0.828,0.930,-3.126
7813,-0.0202,0.0195,-0.0047,-0.47,-0.25,-0.17,0.254,-3.404,-0.152,-2.616
7823,-0.0198,0.0203,-0.0046,-0.48,-0.27,-0.19,0.254,1.837,0.711,-3.201
7834,-0.0164,0.0199,-0.0041,-0.48,-0.28,-0.22,0.254,-1.611,-0.416,-2.439
7844,-0.0159,0.0207,-0.0036,-0.48,-0.29,-0.25,0.255,2.381,-1.920,-2.859
7854,-0.0154,0.0215,-0.0030,-0.46,-0.27,-0.28,0.255,-0.635,1.091,-2.310
7863,-0.0149,0.0223,-0.0013,-0.46,-0.27,-0.31,0.255,3.040,-0.119,-3.168
7874,-0.0149,0.0223,-0.0013,-0.47,-0.27,-0.33,0.255,-0.612,1.279,-2.313
7883,-0.0145,0.0231,-0.0011,-0.47,-0.27,-0.33,0.255,1.913,3.160,-3.216
7894,-0.0159,0.0243,-0.0010,-0.45,-0.26,-0.36,0.255,4.074,1.349,-2.788
7904,-0.0116,0.0240,-0.0004,-0.42,-0.28,-0.39,0.252,3.728,0.879,-2.307
7913,-0.0148,0.0279,-0.0002,-0.43,-0.29,-0.41,0.252,-2.080,2.840,-1.998
7924,-0.0143,0.0286,-0.0035,-0.39,-0.31,-0.44,0.252,0.046,2.206,-2.942
7933,-0.0138,0.0292,-0.0032,-0.35,-0.32,-0.47,0.252,-2.173,1.575,-2.468
7943,-0.0132,0.0299,-0.0025,-0.36,-0.34,-0.49,0.252,0.352,-3.766,-3.155
7954,-0.0126,0.0305,-0.0020,-0.36,-0.37,-0.52,0.252,-0.039,-0.971,-2.347
7964,-0.0120,0.0310,-0.0054,-0.37,-0.39,-0.54,0.252,-1.092,-3.458,-2.513
7974,-0.0113,0.0317,-0.0052,-0.39,-0.37,-0.57,0.252,-0.465,-2.804,-2.526
7984,-0.0107,0.0323,-0.0049,-0.38,-0.35,-0.59,0.252,3.868,-5.446,-3.055
7993,-0.0100,0.0330,-0.0042,-0.40,-0.33,-0.61,0.252,2.816,-4.321,-2.409
8003,-0.0066,0.0405,-0.0037,-0.42,-0.31,-0.64,0.249,5.968,-3.035,-2.501
8013,-0.0061,0.0412,-0.0034,-0.40,-0.26,-0.67,0.249,2.029,-0.773,-1.667
8024,-0.0035,0.0414,-0.0115,-0.37,-0.24,-0.69,0.249,6.523,-2.453,-2.363
8033,-0.0031,0.0421,-0.0105,-0.32,-0.21,-0.71,0.249,4.562,-0.315,-2.559
8043,-0.0004,0.0393,-0.0096,-0.27,-0.21,-0.73,0.255,6.325,-1.786,-2.369
8054,-0.0006,0.0416,-0.0091,-0.22,-0.18,-0.76,0.255,8.596,-2.479,-3.084
8063,0.0018,0.0413,0.0002,-0.16,-0.18,-0.78,0.255,5.946,-2.332,-2.978
8073,0.0016,0.0411,0.0011,-0.10,-0.16,-0.80,0.255,6.398,-3.568,-2.912
8083,0.0019,0.0413,0.0022,-0.03,-0.13,-0.83,0.255,3.671,-4.952,-2.658
8093,0.0041,0.0382,0.0032,0.05,-0.11,-0.86,0.255,0.650,-4.953,-2.013
8103,0.0034,0.0379,0.0041,0.11,-0.08,-0.89,0.252,0.569,-5.853,-2.665
8113,0.0025,0.0377,0.0048,0.14,-0.04,-0.91,0.252,-2.216,-5.199,-2.138
8123,0.0060,0.0376,0.0041,0.16,-0.01,-0.94,0.252,-2.554,-4.483,-2.242
8133,0.0060,0.0374,0.0048,0.18,0.04,-0.96,0.252,-2.854,-5.769,-1.960
8143,0.0091,0.0356,0.0051,0.18,0.08,-0.99,0.255,-2.012,-4.432,-1.661
8153,0.0090,0.0353,0.0055,0.16,0.13,-1.01,0.255,-1.234,-3.315,-2.142
8164,0.0117,0.0338,0.0111,0.15,0.18,-1.03,0.255,1.135,-3.670,-2.057
8173,0.0114,0.0336,0.0114,0.13,0.24,-1.05,0.255,1.267,-3.610,-1.744
8183,0.0121,0.0343,0.0115,0.12,0.27,-1.07,0.255,1.368,-2.995,-1.830
8193,0.0150,0.0324,0.0120,0.13,0.29,-1.09,0.255,0.993,-2.236,-1.000
8204,0.0145,0.0321,0.0127,0.14,0.33,-1.10,0.252,0.796,-2.637,-1.327
8213,0.0174,0.0325,0.0133,0.15,0.35,-1.12,0.252,1.205,-3.148,-0.906
8223,0.0132,0.0329,0.0085,0.16,0.39,-1.13,0.252,0.821,-3.472,-0.835
8233,0.0135,0.0310,0.0089,0.18,0.42,-1.15,0.252,0.139,-3.634,-0.577
8243,0.0127,0.0307,0.0092,0.20,0.46,-1.15,0.254,1.029,-6.045,-1.071
8253,0.0119,0.0304,0.0095,0.22,0.50,-1.16,0.254,-3.176,-5.786,-1.177
8263,0.0111,0.0300,0.0106,0.22,0.54,-1.17,0.254,-1.668,-4.330,-1.054
8273,0.0157,0.0282,0.0108,0.23,0.56,-1.18,0.254,-2.257,-7.207,-1.374
8283,0.0129,0.0294,0.0112,0.20,0.62,-1.19,0.254,-3.715,-3.063,-1.003
8294,0.0126,0.0260,0.0115,0.20,0.67,-1.20,0.254,-1.955,-5.970,-0.552
8303,0.0114,0.0257,0.0118,0.17,0.74,-1.21,0.252,-2.940,-4.424,-0.265
8313,0.0091,0.0274,0.0120,0.13,0.79,-1.22,0.252,-2.380,-1.759,-0.662
8323,0.0078,0.0271,0.0069,0.10,0.83,-1.23,0.252,-1.218,-4.023,-0.806
8333,0.0050,0.0194,0.0073,0.11,0.88,-1.24,0.252,-1.777,-0.053,-0.135
8343,0.0030,0.0212,0.0078,0.08,0.91,-1.24,0.254,-1.764,-0.944,-0.504
8353,0.0014,0.0211,0.0082,0.06,0.95,-1.25,0.254,-2.396,0.801,0.202
8363,-0.0002,0.0211,0.0087,0.05,0.96,-1.25,0.254,-1.217,-1.385,-0.161
8373,-0.0023,0.0224,0.0089,0.01,0.96,-1.26,0.254,-3.701,1.685,0.075
8383,-0.0039,0.0224,0.0090,-0.00,0.97,-1.26,0.254,-1.153,-0.519,-0.958
8393,-0.0056,0.0224,0.0089,-0.02,0.98,-1.26,0.254,-2.181,2.999,-0.082
8403,-0.0069,0.0200,0.0091,-0.04,0.97,-1.26,0.250,-4.548,4.827,-0.204
8413,-0.0086,0.0201,0.0091,-0.06,0.97,-1.27,0.250,-2.133,2.481,-0.448
8423,-0.0102,0.0202,0.0017,-0.07,0.95,-1.27,0.250,-4.700,6.102,0.322
8433,-0.0118,0.0204,0.0022,-0.11,0.91,-1.27,0.250,-0.860,3.301,-0.336
8443,-0.0121,0.0225,0.0023,-0.15,0.87,-1.27,0.252,-2.676,4.076,-0.334
8453,-0.0142,0.0227,0.0025,-0.19,0.82,-1.27,0.252,-3.551,6.769,-0.234
8463,-0.0187,0.0203,0.0025,-0.20,0.79,-1.28,0.252,-1.439,6.703,-0.099
8473,-0.0207,0.0201,0.0028,-0.23,0.75,-1.28,0.252,-0.795,7.044,-0.288
8483,-0.0223,0.0180,0.0029,-0.24,0.69,-1.28,0.252,-0.267,5.955,0.145
8494,-0.0233,0.0179,0.0031,-0.26,0.64,-1.28,0.252,1.191,5.915,0.252
8503,-0.0244,0.0178,0.0035,-0.26,0.57,-1.29,0.254,0.298,6.751,-0.181
8513,-0.0274,0.0175,0.0040,-0.26,0.52,-1.29,0.254,-1.132,6.685,-0.291
8523,-0.0283,0.0180,0.0065,-0.25,0.46,-1.29,0.254,0.051,6.535,-0.565
8533,-0.0291,0.0184,0.0071,-0.25,0.39,-1.29,0.254,-0.649,5.950,-0.629
8542,-0.0295,0.0208,0.0075,-0.27,0.33,-1.29,0.256,-1.743,5.303,-0.729
8553,-0.0298,0.0205,0.0082,-0.28,0.27,-1.30,0.256,-3.771,6.059,-0.200
8563,-0.0303,0.0211,0.0133,-0.28,0.21,-1.30,0.256,-4.296,6.927,-0.112
8573,-0.0326,0.0191,0.0137,-0.29,0.16,-1.31,0.256,-3.017,5.939,-0.648
8583,-0.0328,0.0197,0.0141,-0.33,0.10,-1.32,0.256,-3.080,6.130,-0.958
8593,-0.0369,0.0201,0.0145,-0.36,0.06,-1.32,0.256,-3.943,6.315,-0.633
8603,-0.0408,0.0207,0.0150,-0.40,0.01,-1.33,0.255,-2.286,6.848,-0.934
8613,-0.0403,0.0212,0.0153,-0.43,-0.05,-1.34,0.255,-2.943,5.068,-0.443
8623,-0.0416,0.0218,0.0144,-0.47,-0.10,-1.34,0.255,-1.051,4.499,-0.868
8633,-0.0429,0.0222,0.0148,-0.49,-0.16,-1.35,0.255,0.378,3.989,-1.383
8643,-0.0402,0.0185,0.0152,-0.49,-0.23,-1.36,0.254,0.077,4.813,-2.067
8654,-0.0374,0.0207,0.0156,-0.51,-0.29,-1.37,0.254,0.887,4.902,-1.665
8663,-0.0369,0.0215,0.0115,-0.51,-0.33,-1.39,0.254,0.130,5.701,-2.010
8673,-0.0362,0.0214,0.0119,-0.51,-0.38,-1.41,0.254,1.516,6.876,-1.675
8683,-0.0331,0.0234,0.0123,-0.51,-0.44,-1.42,0.254,0.700,7.613,-1.880
8693,-0.0340,0.0252,0.0123,-0.51,-0.49,-1.44,0.254,-2.193,6.775,-2.274
8703,-0.0332,0.0261,0.0124,-0.50,-0.55,-1.46,0.254,2.352,5.208,-2.293
8713,-0.0437,0.0258,0.0125,-0.49,-0.56,-1.48,0.254,-3.186,2.343,-2.070
8723,-0.0427,0.0266,0.0086,-0.50,-0.62,-1.50,0.254,5.194,3.841,-2.079
8733,-0.0415,0.0269,0.0087,-0.49,-0.68,-1.52,0.254,-0.634,-0.224,-2.101
8743,-0.0403,0.0269,0.0089,-0.52,-0.71,-1.54,0.254,5.215,1.416,-1.598
8753,-0.0373,0.0302,0.0094,-0.51,-0.75,-1.57,0.254,1.722,1.010,-2.172
8763,-0.0360,0.0310,0.0066,-0.50,-0.75,-1.59,0.254,2.233,0.481,-1.969
8772,-0.0375,0.0305,0.0069,-0.45,-0.74,-1.61,0.254,6.187,3.555,-1.861
8783,-0.0362,0.0312,0.0069,-0.44,-0.75,-1.63,0.254,-1.291,0.145,-2.587
8793,-0.0352,0.0328,0.0070,-0.40,-0.76,-1.65,0.254,3.843,4.667,-1.934
8802,-0.0322,0.0373,0.0073,-0.38,-0.79,-1.66,0.258,6.281,3.441,-1.775
8813,-0.0308,0.0379,0.0076,-0.38,-0.80,-1.69,0.258,6.113,4.245,-1.286
8822,-0.0294,0.0386,0.0140,-0.36,-0.84,-1.71,0.258,0.195,0.428,-1.662
8833,-0.0281,0.0406,0.0144,-0.30,-0.87,-1.72,0.258,3.360,0.428,-1.388
8843,-0.0266,0.0411,0.0148,-0.24,-0.91,-1.74,0.258,6.297,1.414,-0.818
8853,-0.0242,0.0419,0.0150,-0.23,-0.93,-1.76,0.258,2.550,0.411,-1.210
8863,-0.0216,0.0419,0.0172,-0.20,-0.92,-1.77,0.258,5.549,-0.093,-0.766
8873,-0.0200,0.0422,0.0177,-0.14,-0.93,-1.78,0.258,8.190,0.561,-0.273
8883,-0.0184,0.0424,0.0181,-0.10,-0.94,-1.79,0.258,2.204,-2.470,0.068
8893,-0.0163,0.0440,0.0179,-0.08,-0.92,-1.80,0.258,7.678,-1.509,0.271
8903,-0.0182,0.0412,0.0180,0.01,-0.90,-1.81,0.257,5.530,-5.961,-0.358
8912,-0.0165,0.0452,0.0180,0.02,-0.88,-1.82,0.257,4.017,-5.674,0.038
8922,-0.0146,0.0444,0.0148,0.09,-0.85,-1.82,0.257,4.012,-3.740,0.869
8933,-0.0132,0.0442,0.0145,0.14,-0.81,-1.82,0.257,6.375,-4.440,1.107
8943,-0.0104,0.0413,0.0144,0.21,-0.77,-1.81,0.254,7.776,-4.345,0.374
8952,-0.0096,0.0427,0.0144,0.25,-0.73,-1.81,0.254,4.585,-4.508,1.207
8962,-0.0068,0.0421,0.0043,0.31,-0.69,-1.80,0.254,4.100,-4.669,1.377
8973,-0.0044,0.0411,0.0038,0.37,-0.65,-1.79,0.254,3.183,-5.169,1.917
8983,-0.0033,0.0404,0.0031,0.41,-0.60,-1.78,0.254,7.553,-3.118,1.533
8993,-0.0010,0.0441,0.0028,0.44,-0.56,-1.77,0.254,1.685,-4.929,1.568
9003,0.0011,0.0409,0.0027,0.47,-0.51,-1.76,0.258,-0.651,-6.815,1.851
9012,0.0019,0.0401,0.0024,0.55,-0.47,-1.74,0.258,2.323,-4.469,2.520
9023,0.0017,0.0400,0.0047,0.57,-0.42,-1.73,0.258,2.441,-3.863,2.479
9033,0.0033,0.0373,0.0047,0.57,-0.35,-1.71,0.258,-6.271,-8.943,3.025
9043,0.0050,0.0346,0.0047,0.60,-0.31,-1.69,0.259,-4.938,-9.735,2.965
9052,0.0055,0.0335,0.0045,0.62,-0.27,-1.66,0.259,-1.371,-6.351,3.189
9063,0.0063,0.0319,0.0072,0.57,-0.19,-1.64,0.259,-3.483,-8.395,3.649
9073,0.0088,0.0328,0.0070,0.52,-0.11,-1.61,0.259,-2.133,-8.610,3.780
9082,0.0092,0.0309,0.0070,0.48,-0.03,-1.58,0.259,-3.330,-7.287,4.001
9092,0.0114,0.0290,0.0071,0.46,0.05,-1.54,0.259,-0.443,-5.850,3.701
9103,0.0135,0.0271,0.0071,0.46,0.12,-1.51,0.259,-0.997,-6.081,4.101
9113,0.0133,0.0263,0.0072,0.44,0.20,-1.47,0.259,-2.990,-6.051,4.623
9122,0.0134,0.0244,0.0085,0.45,0.26,-1.43,0.259,-0.172,-7.245,4.052
9133,0.0130,0.0237,0.0085,0.44,0.31,-1.39,0.259,1.460,-5.383,4.074
9142,0.0131,0.0221,0.0082,0.43,0.37,-1.35,0.260,-4.279,-6.508,4.030
9152,0.0146,0.0210,0.0077,0.44,0.42,-1.31,0.260,-4.388,-6.213,4.553
9163,0.0139,0.0202,0.0094,0.43,0.48,-1.27,0.260,-3.051,-8.266,4.398
9173,0.0130,0.0195,0.0092,0.41,0.55,-1.23,0.260,-5.047,-4.036,4.407
9182,0.0127,0.0188,0.0090,0.39,0.61,-1.18,0.260,-5.659,-4.336,4.051
9192,0.0116,0.0181,0.0088,0.37,0.68,-1.14,0.260,-5.266,-4.961,4.797
9202,0.0116,0.0175,0.0083,0.33,0.72,-1.10,0.259,-6.849,-5.543,4.602
9212,0.0089,0.0149,0.0078,0.30,0.77,-1.06,0.259,-4.602,-4.852,4.068
9223,0.0086,0.0129,0.0053,0.25,0.82,-1.01,0.259,-5.775,-2.759,3.678
9232,0.0072,0.0125,0.0051,0.18,0.88,-0.96,0.259,-7.483,-1.954,4.234
9243,0.0057,0.0123,0.0049,0.14,0.93,-0.93,0.259,-3.343,-4.485,3.581
9252,0.0034,0.0086,0.0047,0.10,0.96,-0.89,0.259,-1.286,-2.834,4.269
9262,0.0018,0.0085,0.0025,0.03,0.98,-0.85,0.259,-1.707,-2.639,3.724
9272,0.0012,0.0085,0.0022,-0.01,1.02,-0.81,0.259,-5.948,-1.059,4.063
9283,-0.0011,0.0064,0.0022,-0.01,1.05,-0.77,0.259,-7.146,2.969,4.111
9292,-0.0032,0.0049,0.0021,-0.03,1.08,-0.73,0.259,-6.423,3.756,4.078
9302,-0.0069,0.0060,0.0022,-0.09,1.10,-0.68,0.260,-6.031,3.909,3.967
9312,-0.0087,0.0062,0.0020,-0.16,1.07,-0.64,0.260,-6.211,4.126,3.630
9322,-0.0106,0.0065,0.0030,-0.22,1.03,-0.60,0.260,-6.859,4.426,3.652
9333,-0.0133,0.0077,0.0030,-0.28,0.99,-0.56,0.260,-6.422,0.943,3.054
9342,-0.0159,0.0050,0.0027,-0.33,0.96,-0.52,0.260,-3.524,-0.059,2.924
9352,-0.0175,0.0055,0.0023,-0.40,0.91,-0.49,0.260,-3.827,2.224,3.410
9362,-0.0191,0.0062,0.0021,-0.47,0.90,-0.46,0.260,-5.551,5.559,3.067
9372,-0.0206,0.0071,0.0020,-0.51,0.90,-0.43,0.260,-4.827,5.932,3.495
9382,-0.0250,0.0107,0.0019,-0.56,0.89,-0.39,0.260,-3.062,3.631,3.118
9392,-0.0287,0.0102,0.0016,-0.61,0.85,-0.36,0.260,-0.425,4.876,2.197
9402,-0.0301,0.0112,0.0013,-0.66,0.79,-0.33,0.259,-2.992,7.025,2.467
9413,-0.0317,0.0080,0.0011,-0.67,0.75,-0.30,0.259,-3.157,10.836,2.706
9422,-0.0329,0.0089,-0.0010,-0.67,0.70,-0.27,0.259,-1.187,11.371,2.109
9432,-0.0355,0.0125,-0.0008,-0.71,0.64,-0.25,0.259,-0.722,11.308,1.904
9442,-0.0375,0.0115,-0.0011,-0.73,0.54,-0.22,0.259,-1.667,11.561,1.296
9452,-0.0351,0.0145,-0.0014,-0.75,0.41,-0.20,0.259,4.032,8.673,0.688
9462,-0.0358,0.0158,-0.0027,-0.76,0.30,-0.19,0.259,-1.302,10.733,1.582
9473,-0.0432,0.0166,-0.0026,-0.77,0.22,-0.17,0.259,3.178,8.048,0.857
9483,-0.0423,0.0206,-0.0024,-0.75,0.11,-0.16,0.259,1.003,11.003,1.385
9492,-0.0471,0.0193,-0.0024,-0.74,0.03,-0.15,0.259,1.480,6.243,0.574
9502,-0.0461,0.0193,-0.0023,-0.71,-0.06,-0.14,0.257,1.100,7.221,0.805
9513,-0.0485,0.0219,-0.0022,-0.70,-0.15,-0.13,0.257,1.633,7.086,0.639
9522,-0.0481,0.0232,-0.0069,-0.69,-0.23,-0.12,0.257,1.164,4.066,0.307
9532,-0.0470,0.0253,-0.0069,-0.68,-0.30,-0.11,0.257,-1.257,6.867,0.405
9542,-0.0456,0.0255,-0.0071,-0.67,-0.36,-0.11,0.255,3.143,4.828,-0.111
9552,-0.0445,0.0274,-0.0068,-0.66,-0.41,-0.10,0.255,0.800,6.325,-0.247
9562,-0.0430,0.0297,-0.0132,-0.67,-0.48,-0.10,0.255,0.643,6.470,0.902
9573,-0.0454,0.0293,-0.0132,-0.65,-0.51,-0.10,0.255,2.102,6.352,-0.024
9582,-0.0421,0.0310,-0.0133,-0.64,-0.59,-0.10,0.255,1.711,5.529,0.011
9592,-0.0425,0.0307,-0.0130,-0.62,-0.64,-0.10,0.255,2.336,4.766,0.249
9602,-0.0414,0.0317,-0.0127,-0.59,-0.70,-0.10,0.254,3.017,4.163,-0.055
9612,-0.0418,0.0352,-0.0124,-0.59,-0.74,-0.10,0.254,1.802,3.969,-0.062
9622,-0.0420,0.0363,-0.0168,-0.56,-0.78,-0.10,0.254,3.828,3.018,-0.700
9632,-0.0423,0.0374,-0.0165,-0.54,-0.81,-0.10,0.254,3.123,2.033,0.083
9642,-0.0390,0.0403,-0.0161,-0.52,-0.86,-0.10,0.254,4.121,1.157,-0.000
9653,-0.0377,0.0393,-0.0161,-0.48,-0.89,-0.11,0.254,3.273,0.711,0.073
9662,-0.0361,0.0401,-0.0169,-0.45,-0.90,-0.10,0.254,4.244,0.376,-0.214
9673,-0.0350,0.0406,-0.0167,-0.41,-0.92,-0.11,0.254,5.894,1.075,-0.629
9682,-0.0321,0.0448,-0.0161,-0.40,-0.93,-0.11,0.254,5.010,0.792,-0.774
9692,-0.0305,0.0455,-0.0154,-0.35,-0.93,-0.11,0.254,6.609,0.893,-0.325
9702,-0.0297,0.0456,-0.0148,-0.29,-0.94,-0.11,0.257,6.739,-0.669,-0.975
9712,-0.0289,0.0454,-0.0140,-0.24,-0.94,-0.12,0.257,7.030,-1.339,-1.179
9722,-0.0281,0.0451,-0.0053,-0.17,-0.94,-0.12,0.257,6.292,-0.975,-1.323
9732,-0.0256,0.0482,-0.0045,-0.12,-0.94,-0.13,0.257,6.118,-2.152,-0.693
9742,-0.0233,0.0494,-0.0037,-0.06,-0.93,-0.14,0.255,6.040,-1.524,-1.115
9752,-0.0230,0.0487,-0.0029,0.01,-0.91,-0.16,0.255,5.231,-2.498,-1.278
9762,-0.0210,0.0479,-0.0016,0.07,-0.89,-0.17,0.255,5.413,-2.575,-1.256
9773,-0.0191,0.0470,-0.0007,0.13,-0.87,-0.18,0.255,4.123,-3.452,-1.032
9782,-0.0176,0.0468,-0.0002,0.18,-0.85,-0.19,0.255,5.017,-3.534,-1.115
9792,-0.0159,0.0476,0.0005,0.24,-0.82,-0.21,0.255,4.344,-5.072,-0.874
9802,-0.0127,0.0450,0.0016,0.29,-0.80,-0.22,0.254,3.363,-5.055,-1.071
9812,-0.0133,0.0458,0.0024,0.33,-0.75,-0.23,0.254,2.198,-5.062,-0.478
9822,-0.0123,0.0448,0.0014,0.37,-0.70,-0.24,0.254,2.186,-5.252,-0.697
9832,-0.0114,0.0438,0.0022,0.40,-0.65,-0.25,0.254,1.623,-5.864,-0.517
9842,-0.0103,0.0431,0.0028,0.43,-0.60,-0.25,0.254,1.732,-5.372,-0.097
9853,-0.0098,0.0477,0.0031,0.42,-0.54,-0.26,0.254,2.872,-5.928,-0.986
9862,-0.0088,0.0470,0.0021,0.44,-0.48,-0.27,0.254,0.238,-5.700,-0.692
9872,-0.0085,0.0461,0.0025,0.46,-0.43,-0.27,0.254,1.672,-5.472,-1.047
9882,-0.0083,0.0487,0.0029,0.47,-0.37,-0.28,0.254,0.673,-5.334,-0.648
9892,-0.0077,0.0479,0.0032,0.47,-0.31,-0.29,0.254,0.522,-4.163,-0.528
9902,-0.0058,0.0472,0.0036,0.48,-0.27,-0.30,0.248,0.638,-3.746,-0.015
9912,-0.0024,0.0447,0.0042,0.49,-0.23,-0.31,0.248,1.830,-3.280,-0.288
9922,-0.0021,0.0437,-0.0093,0.50,-0.18,-0.32,0.248,3.719,-3.324,-0.340
9932,-0.0018,0.0429,-0.0088,0.51,-0.13,-0.32,0.248,3.045,-4.461,-0.232
9942,-0.0015,0.0420,-0.0082,0.53,-0.09,-0.33,0.255,3.447,-4.687,-0.930
9952,-0.0014,0.0411,-0.0075,0.56,-0.05,-0.34,0.255,3.202,-4.195,-0.404
9962,0.0001,0.0379,0.0013,0.60,-0.01,-0.34,0.255,2.533,-4.567,-0.500
9972,0.0014,0.0389,0.0019,0.63,0.03,-0.35,0.255,2.079,-4.180,-0.349
9983,0.0013,0.0378,0.0023,0.66,0.08,-0.36,0.255,0.593,-4.554,-0.616
9992,0.0012,0.0367,0.0030,0.69,0.12,-0.37,0.255,-0.747,-4.824,0.243
10002,0.0003,0.0359,0.0038,0.71,0.16,-0.37,0.254,-1.295,-5.397,-0.086
10012,-0.0000,0.0347,0.0066,0.71,0.21,-0.37,0.254,-4.190,-6.151,-0.185
10022,0.0049,0.0323,0.0068,0.71,0.22,-0.38,0.254,-2.619,-5.743,0.021
10032,0.0012,0.0302,0.0074,0.70,0.30,-0.38,0.254,-4.770,-5.464,0.207
10041,-0.0004,0.0263,0.0079,0.68,0.37,-0.37,0.254,-3.859,-4.405,0.909
10051,-0.0041,0.0266,0.0081,0.65,0.44,-0.37,0.254,-4.162,-4.110,0.906
10062,-0.0037,0.0250,0.0088,0.61,0.49,-0.37,0.254,-4.796,-4.320,1.061
10072,-0.0015,0.0217,0.0093,0.59,0.52,-0.36,0.254,-3.588,-3.527,1.458
10082,-0.0024,0.0207,0.0098,0.54,0.57,-0.35,0.254,-4.005,-4.390,0.738
10091,-0.0001,0.0198,0.0101,0.49,0.59,-0.35,0.254,-4.889,-0.949,1.604
10102,-0.0036,0.0190,0.0105,0.45,0.64,-0.33,0.252,-2.736,-0.701,1.621
10112,-0.0047,0.0182,0.0107,0.42,0.68,-0.32,0.252,-3.143,-1.574,1.028
10121,-0.0061,0.0158,0.0057,0.38,0.70,-0.31,0.252,-3.454,-0.546,1.128
10132,-0.0089,0.0152,0.0058,0.34,0.71,-0.29,0.252,-2.962,-0.220,1.031
10142,-0.0117,0.0127,0.0057,0.31,0.72,-0.28,0.250,-3.908,0.692,1.312
10152,-0.0129,0.0122,0.0058,0.28,0.72,-0.26,0.250,-5.643,1.303,1.865
10162,-0.0141,0.0117,0.0000,0.24,0.72,-0.25,0.250,-5.137,0.517,1.979
10172,-0.0153,0.0113,0.0002,0.20,0.71,-0.24,0.250,-4.757,1.923,1.757
10182,-0.0199,0.0114,0.0000,0.15,0.72,-0.22,0.250,-4.415,1.303,2.023
10191,-0.0203,0.0095,-0.0001,0.11,0.71,-0.20,0.250,-4.851,2.045,2.097
10201,-0.0205,0.0078,0.0001,0.06,0.69,-0.18,0.254,-4.155,2.614,1.770
10212,-0.0217,0.0076,0.0004,0.01,0.67,-0.16,0.254,-4.271,3.554,2.096
10222,-0.0217,0.0043,0.0038,-0.02,0.65,-0.14,0.254,-5.312,4.524,2.059
10232,-0.0235,0.0048,0.0040,-0.06,0.63,-0.12,0.254,-4.101,4.940,2.175
10241,-0.0233,0.0033,0.0043,-0.08,0.59,-0.11,0.257,-4.063,4.026,1.655
10252,-0.0266,0.0043,0.0047,-0.14,0.56,-0.08,0.257,-4.170,4.528,1.159
10262,-0.0238,0.0052,0.0125,-0.19,0.48,-0.07,0.257,-3.236,4.927,1.234
10271,-0.0248,0.0041,0.0126,-0.22,0.43,-0.05,0.257,-3.072,4.309,0.873
10282,-0.0256,0.0052,0.0130,-0.27,0.38,-0.04,0.257,-3.380,4.447,1.525
10292,-0.0282,0.0007,0.0133,-0.29,0.34,-0.03,0.257,-3.983,4.233,0.664
10302,-0.0289,0.0072,0.0133,-0.36,0.29,-0.01,0.255,-6.227,5.004,1.149
10311,-0.0294,0.0046,0.0131,-0.38,0.24,-0.00,0.255,-5.322,4.788,1.477
10322,-0.0299,0.0019,0.0121,-0.40,0.19,0.01,0.255,-4.903,3.514,0.953
10332,-0.0304,0.0048,0.0122,-0.46,0.14,0.02,0.255,-3.324,1.492,0.805
10342,-0.0308,0.0060,0.0121,-0.51,0.10,0.03,0.254,-5.480,4.971,1.179
10351,-0.0311,0.0056,0.0116,-0.54,0.07,0.04,0.254,-2.363,4.073,1.184
10361,-0.0315,0.0068,0.0069,-0.58,0.04,0.05,0.254,-1.256,2.326,1.172
10371,-0.0319,0.0083,0.0067,-0.62,0.01,0.06,0.254,-0.517,2.430,1.397
10382,-0.0319,0.0094,0.0065,-0.65,-0.03,0.07,0.254,-1.061,3.993,0.733
10391,-0.0322,0.0105,0.0062,-0.67,-0.06,0.09,0.254,1.520,3.584,0.354
10401,-0.0360,0.0112,0.0055,-0.68,-0.07,0.10,0.254,-0.751,3.658,0.394
10411,-0.0359,0.0123,0.0021,-0.68,-0.09,0.10,0.254,0.355,4.243,0.743
10422,-0.0394,0.0112,0.0023,-0.66,-0.11,0.10,0.254,1.807,2.264,0.036
10431,-0.0393,0.0123,0.0023,-0.66,-0.14,0.11,0.254,0.094,5.064,0.427
10442,-0.0405,0.0131,0.0020,-0.65,-0.18,0.11,0.256,1.817,3.926,0.357
10452,-0.0402,0.0142,0.0019,-0.63,-0.21,0.12,0.256,-0.445,6.492,-0.013
10462,-0.0413,0.0147,0.0041,-0.62,-0.25,0.12,0.256,1.894,5.136,-0.286
10471,-0.0409,0.0158,0.0042,-0.60,-0.29,0.12,0.256,-0.997,6.363,-0.150
10482,-0.0397,0.0184,0.0041,-0.61,-0.36,0.12,0.256,0.668,6.169,-0.565
10491,-0.0387,0.0205,0.0037,-0.61,-0.42,0.12,0.256,0.861,6.131,-0.414
10501,-0.0414,0.0207,0.0038,-0.61,-0.46,0.12,0.256,1.655,5.131,-0.653
10511,-0.0403,0.0209,0.0039,-0.60,-0.51,0.11,0.256,4.511,3.962,-1.239
10521,-0.0447,0.0210,0.0049,-0.58,-0.54,0.10,0.256,4.234,3.139,-1.029
10532,-0.0437,0.0220,0.0048,-0.56,-0.59,0.10,0.256,4.852,3.694,-0.834
10542,-0.0460,0.0216,0.0048,-0.51,-0.61,0.09,0.256,4.532,4.999,-0.771
10552,-0.0426,0.0230,0.0050,-0.48,-0.67,0.08,0.256,2.935,4.139,-0.208
10561,-0.0410,0.0243,0.0053,-0.44,-0.71,0.07,0.256,4.279,3.055,-0.461
10571,-0.0414,0.0235,0.0053,-0.39,-0.76,0.06,0.256,3.790,2.790,-0.390
10581,-0.0380,0.0264,0.0054,-0.37,-0.81,0.06,0.256,3.454,2.318,-0.176
10591,-0.0348,0.0274,0.0056,-0.33,-0.85,0.06,0.256,4.563,2.134,-0.070
10602,-0.0333,0.0280,0.0055,-0.30,-0.88,0.05,0.255,4.690,0.583,-0.012
10611,-0.0303,0.0308,0.0054,-0.28,-0.91,0.05,0.255,5.018,-0.094,-0.442
10622,-0.0273,0.0315,0.0026,-0.23,-0.93,0.05,0.255,4.397,-0.445,-0.260
10632,-0.0245,0.0321,0.0027,-0.19,-0.95,0.05,0.255,2.696,-1.064,-0.456
10642,-0.0254,0.0307,0.0027,-0.14,-0.95,0.04,0.255,3.854,-1.620,-0.626
10651,-0.0248,0.0294,0.0026,-0.10,-0.94,0.04,0.255,3.186,-2.467,-0.541
10662,-0.0244,0.0281,0.0008,-0.06,-0.92,0.03,0.255,1.500,-3.239,0.020
10671,-0.0224,0.0300,0.0009,-0.03,-0.91,0.03,0.255,0.693,-2.956,0.674
10681,-0.0207,0.0302,0.0009,0.01,-0.88,0.02,0.255,-0.195,-4.196,0.400
10691,-0.0192,0.0301,0.0007,0.03,-0.84,0.02,0.255,0.029,-4.586,0.603
10701,-0.0178,0.0324,0.0005,0.03,-0.79,0.02,0.252,-0.162,-5.332,0.131
10711,-0.0165,0.0324,0.0006,0.04,-0.75,0.03,0.252,1.606,-5.853,-0.325
10721,-0.0136,0.0330,-0.0048,0.03,-0.70,0.03,0.252,2.105,-6.753,-0.728
10731,-0.0124,0.0329,-0.0048,0.04,-0.64,0.03,0.252,0.183,-5.196,-0.448
10742,-0.0097,0.0335,-0.0050,0.04,-0.60,0.02,0.254,0.885,-5.123,-0.720
10752,-0.0087,0.0334,-0.0048,0.05,-0.54,0.02,0.254,1.804,-5.222,-0.624
10762,-0.0085,0.0337,-0.0052,0.06,-0.48,0.01,0.254,2.457,-5.486,-0.971
10771,-0.0064,0.0358,-0.0051,0.06,-0.43,0.01,0.254,2.312,-4.073,-1.206
10781,-0.0057,0.0357,-0.0050,0.08,-0.38,-0.00,0.254,3.680,-3.910,-1.217
10791,-0.0036,0.0340,-0.0045,0.11,-0.34,-0.01,0.254,4.212,-3.494,-1.440
10801,-0.0017,0.0322,-0.0037,0.15,-0.31,-0.02,0.254,3.503,-4.261,-1.364
10811,-0.0011,0.0319,-0.0030,0.19,-0.27,-0.03,0.254,4.206,-5.177,-1.509
10821,-0.0013,0.0355,-0.0025,0.21,-0.22,-0.05,0.254,3.748,-5.490,-1.997
10831,-0.0009,0.0352,-0.0021,0.25,-0.18,-0.06,0.254,3.550,-6.358,-1.795
10841,0.0005,0.0328,-0.0017,0.29,-0.13,-0.08,0.252,1.871,-6.838,-2.097
10852,0.0007,0.0323,-0.0011,0.33,-0.07,-0.10,0.252,2.925,-7.490,-2.126
10861,0.0036,0.0320,-0.0026,0.36,-0.03,-0.12,0.252,0.236,-6.848,-2.149
10871,0.0023,0.0338,-0.0023,0.37,0.05,-0.14,0.252,0.914,-6.922,-2.446
10882,0.0029,0.0315,-0.0021,0.40,0.12,-0.16,0.252,0.828,-6.319,-2.164
10892,0.0027,0.0308,-0.0018,0.40,0.19,-0.18,0.252,0.593,-5.921,-1.923
10901,0.0024,0.0301,-0.0014,0.41,0.26,-0.21,0.252,0.533,-4.703,-2.058
10911,0.0027,0.0322,-0.0020,0.40,0.32,-0.23,0.252,0.769,-5.089,-1.954
10921,0.0030,0.0303,-0.0014,0.41,0.37,-0.25,0.252,2.373,-4.091,-2.272
10931,0.0024,0.0296,-0.0008,0.41,0.43,-0.27,0.252,2.100,-3.231,-1.808
10941,0.0048,0.0278,-0.0004,0.42,0.46,-0.29,0.254,1.868,-3.180,-2.376
10952,0.0071,0.0279,0.0001,0.43,0.48,-0.31,0.254,-0.520,-2.673,-2.089
10962,0.0053,0.0280,0.0023,0.44,0.52,-0.34,0.254,-1.680,-3.232,-2.435
10971,0.0044,0.0273,0.0028,0.45,0.55,-0.36,0.254,-0.403,-2.067,-2.446
10981,0.0035,0.0265,0.0033,0.45,0.57,-0.38,0.254,-0.475,-3.492,-2.284
10991,0.0025,0.0258,0.0038,0.44,0.60,-0.41,0.254,0.171,-3.545,-2.451
11001,0.0014,0.0250,0.0045,0.42,0.62,-0.43,0.254,0.440,-3.124,-2.118
11011,0.0004,0.0243,0.0052,0.41,0.66,-0.46,0.254,-1.925,-3.936,-1.703
11021,-0.0008,0.0236,0.0064,0.41,0.70,-0.48,0.254,-0.291,-3.911,-2.660
11031,-0.0004,0.0222,0.0071,0.40,0.73,-0.50,0.254,0.210,-3.552,-2.570
11041,-0.0016,0.0215,0.0074,0.40,0.76,-0.52,0.252,-2.114,-1.175,-2.370
11051,-0.0030,0.0208,0.0077,0.40,0.79,-0.55,0.252,-1.584,-0.629,-2.532
11061,-0.0043,0.0202,0.0036,0.39,0.83,-0.57,0.252,-3.506,-2.021,-2.645
11071,-0.0057,0.0195,0.0040,0.39,0.84,-0.60,0.252,1.826,0.591,-2.592
11081,-0.0072,0.0188,0.0044,0.39,0.85,-0.62,0.252,-1.245,0.784,-3.343
11091,-0.0111,0.0186,0.0047,0.35,0.88,-0.65,0.252,-6.827,-2.706,-3.575
11101,-0.0126,0.0180,0.0049,0.34,0.87,-0.68,0.256,-2.771,0.027,-3.359
11111,-0.0141,0.0175,0.0051,0.33,0.87,-0.71,0.256,-1.528,-1.331,-2.830
11122,-0.0156,0.0169,0.0109,0.29,0.88,-0.74,0.256,1.509,2.002,-2.477
11132,-0.0171,0.0164,0.0112,0.26,0.88,-0.78,0.256,-4.562,4.362,-2.202
11141,-0.0206,0.0160,0.0113,0.24,0.89,-0.80,0.255,-4.608,2.134,-3.168
11151,-0.0221,0.0156,0.0116,0.22,0.88,-0.83,0.255,-3.578,3.911,-2.819
11161,-0.0214,0.0122,0.0119,0.21,0.82,-0.85,0.255,-3.732,6.325,-1.742
11170,-0.0290,0.0130,0.0120,0.14,0.83,-0.88,0.255,0.454,5.927,-2.193
11182,-0.0305,0.0127,0.0121,0.11,0.79,-0.90,0.255,-0.655,8.775,-1.520
11191,-0.0288,0.0094,0.0126,0.12,0.71,-0.92,0.255,4.530,7.166,-2.684
11201,-0.0299,0.0092,0.0129,0.12,0.64,-0.94,0.257,2.369,8.269,-1.810
11211,-0.0309,0.0090,0.0129,0.13,0.55,-0.96,0.257,-4.130,3.638,-1.761
11221,-0.0319,0.0088,0.0158,0.18,0.48,-0.99,0.257,-8.798,5.504,-2.018
11230,-0.0297,0.0061,0.0160,0.17,0.41,-1.01,0.257,-4.256,4.518,-1.755
11240,-0.0301,0.0060,0.0157,0.13,0.34,-1.03,0.255,-6.826,4.747,-2.116
11251,-0.0362,0.0031,0.0151,0.05,0.34,-1.05,0.255,-3.165,4.228,-1.956
11261,-0.0387,0.0035,0.0109,0.01,0.29,-1.07,0.255,-3.077,7.883,-1.591
11271,-0.0462,0.0054,0.0112,-0.08,0.30,-1.09,0.255,-5.406,4.927,-1.163
11281,-0.0468,0.0056,0.0115,-0.10,0.24,-1.10,0.255,-5.744,6.787,-0.143
11291,-0.0461,0.0069,0.0118,-0.17,0.17,-1.12,0.255,-5.008,4.315,0.255
11301,-0.0430,0.0029,0.0123,-0.20,0.09,-1.13,0.254,0.250,8.829,-0.393
11311,-0.0472,0.0023,0.0057,-0.25,0.06,-1.13,0.254,-0.148,8.087,-1.382
11321,-0.0466,0.0033,0.0057,-0.28,0.01,-1.13,0.254,-3.787,6.426,-0.590
11331,-0.0429,0.0013,0.0058,-0.27,-0.10,-1.14,0.254,3.494,11.390,-0.237
11341,-0.0462,0.0026,0.0061,-0.31,-0.15,-1.15,0.252,-1.412,8.015,-0.856
11351,-0.0426,0.0011,0.0063,-0.31,-0.26,-1.15,0.252,-4.500,8.929,-1.120
11361,-0.0406,0.0011,-0.0022,-0.29,-0.37,-1.16,0.252,0.356,10.397,-0.451
11371,-0.0408,-0.0003,-0.0022,-0.29,-0.46,-1.17,0.252,-1.763,8.549,-0.364
11381,-0.0454,0.0012,-0.0020,-0.32,-0.51,-1.17,0.252,-2.139,5.425,-0.113
11391,-0.0435,0.0023,-0.0018,-0.35,-0.61,-1.18,0.252,-1.274,3.629,-0.426
11400,-0.0418,-0.0004,-0.0017,-0.36,-0.67,-1.19,0.255,-1.641,2.302,0.059
11410,-0.0442,0.0011,-0.0012,-0.40,-0.69,-1.19,0.255,-4.813,-0.199,-0.281
11420,-0.0430,0.0018,0.0011,-0.44,-0.73,-1.19,0.255,-5.443,0.471,0.931
11431,-0.0418,0.0025,0.0014,-0.46,-0.75,-1.19,0.255,1.276,-0.818,-0.203
11441,-0.0405,0.0033,0.0021,-0.48,-0.77,-1.19,0.256,-2.337,-1.128,0.001
11450,-0.0400,0.0050,0.0027,-0.52,-0.75,-1.18,0.256,-2.697,-3.909,-1.006
11460,-0.0372,0.0037,0.0064,-0.51,-0.75,-1.18,0.256,-3.997,-2.537,0.049
11470,-0.0359,0.0045,0.0069,-0.53,-0.73,-1.19,0.256,6.289,1.372,-1.005
11481,-0.0346,0.0054,0.0074,-0.57,-0.69,-1.19,0.256,4.517,0.518,-0.389
11491,-0.0334,0.0064,0.0079,-0.57,-0.68,-1.20,0.256,3.515,5.893,0.169
11500,-0.0323,0.0073,0.0085,-0.52,-0.68,-1.21,0.256,2.284,3.533,0.367
11511,-0.0382,0.0070,0.0089,-0.46,-0.67,-1.21,0.256,-1.336,-1.382,0.693
11521,-0.0370,0.0078,0.0103,-0.46,-0.70,-1.21,0.256,-3.789,0.082,0.710
11530,-0.0358,0.0085,0.0107,-0.47,-0.72,-1.20,0.256,-0.901,-2.487,0.420
11540,-0.0346,0.0093,0.0107,-0.47,-0.74,-1.19,0.254,-4.007,0.536,1.472
11551,-0.0333,0.0101,0.0112,-0.49,-0.73,-1.19,0.254,-2.026,-0.728,0.664
11561,-0.0320,0.0109,0.0071,-0.49,-0.73,-1.18,0.254,3.502,1.416,1.000
11571,-0.0316,0.0120,0.0074,-0.52,-0.74,-1.17,0.254,-2.166,-2.822,1.477
11580,-0.0303,0.0128,0.0075,-0.51,-0.73,-1.16,0.254,-2.206,-3.245,0.681
11590,-0.0300,0.0132,0.0079,-0.52,-0.72,-1.15,0.254,4.875,-2.410,0.268
11602,-0.0254,0.0133,0.0085,-0.52,-0.72,-1.14,0.255,4.547,-1.788,1.259
11610,-0.0263,0.0142,0.0089,-0.53,-0.67,-1.14,0.255,6.621,-0.389,1.606
11620,-0.0241,0.0153,0.0075,-0.46,-0.66,-1.13,0.255,5.135,-2.419,1.097
11632,-0.0230,0.0160,0.0079,-0.42,-0.62,-1.12,0.255,1.161,-5.091,0.980
11640,-0.0212,0.0180,0.0081,-0.40,-0.60,-1.10,0.256,-0.553,-6.205,0.791
11651,-0.0202,0.0186,0.0081,-0.37,-0.57,-1.09,0.256,2.988,-4.834,1.663
11661,-0.0192,0.0192,0.0089,-0.35,-0.53,-1.08,0.256,6.580,-2.079,1.694
11671,-0.0210,0.0234,0.0094,-0.33,-0.46,-1.07,0.256,0.002,-2.832,2.265
11681,-0.0202,0.0239,0.0097,-0.31,-0.41,-1.06,0.256,2.393,-3.911,1.936
11690,-0.0140,0.0226,0.0100,-0.27,-0.41,-1.03,0.256,-1.574,-6.291,1.483
11701,-0.0155,0.0220,0.0104,-0.26,-0.37,-1.01,0.255,2.783,-2.619,2.049
11710,-0.0121,0.0253,0.0109,-0.27,-0.35,-0.99,0.255,3.760,-1.096,2.454
11721,-0.0115,0.0257,0.0079,-0.24,-0.31,-0.97,0.255,-0.027,-6.512,2.003
11731,-0.0110,0.0261,0.0083,-0.23,-0.27,-0.95,0.255,0.994,-8.567,1.286
11741,-0.0056,0.0247,0.0088,-0.21,-0.27,-0.93,0.258,9.050,-3.886,1.640
11750,-0.0051,0.0251,0.0091,-0.19,-0.20,-0.91,0.258,3.881,-5.428,2.238
11761,-0.0059,0.0283,0.0131,-0.15,-0.13,-0.90,0.258,1.694,-3.672,2.761
11771,-0.0086,0.0261,0.0133,-0.08,-0.07,-0.88,0.258,8.539,-2.694,2.738
11780,-0.0017,0.0281,0.0135,-0.04,-0.08,-0.85,0.258,3.834,-6.108,2.481
11790,-0.0016,0.0282,0.0136,0.01,-0.02,-0.83,0.258,3.716,-7.318,2.891
11800,-0.0022,0.0286,0.0138,0.04,0.03,-0.80,0.257,0.257,-6.922,2.288
11810,-0.0030,0.0290,0.0139,0.07,0.09,-0.78,0.257,1.113,-6.434,3.129
11821,-0.0036,0.0286,0.0121,0.11,0.13,-0.74,0.257,2.428,-5.153,4.222
11830,-0.0039,0.0285,0.0121,0.13,0.20,-0.72,0.257,3.678,-4.229,3.421
11840,-0.0042,0.0282,0.0119,0.15,0.26,-0.68,0.260,5.150,-3.405,4.278
11850,-0.0053,0.0286,0.0118,0.19,0.31,-0.64,0.260,2.688,-7.334,3.774
11860,-0.0069,0.0248,0.0165,0.23,0.37,-0.60,0.260,1.647,-3.841,3.557
11870,-0.0060,0.0278,0.0165,0.22,0.42,-0.57,0.260,0.172,-6.153,3.882
11880,-0.0068,0.0275,0.0161,0.26,0.46,-0.53,0.260,-0.962,-7.264,3.063
11891,-0.0076,0.0270,0.0161,0.25,0.52,-0.49,0.260,-2.824,-3.575,4.499
11902,-0.0072,0.0253,0.0165,0.26,0.58,-0.46,0.252,-2.111,0.253,5.384
11911,-0.0048,0.0281,0.0166,0.24,0.62,-0.42,0.252,1.812,2.951,4.858
11920,-0.0062,0.0289,-0.0016,0.21,0.64,-0.37,0.252,-1.052,-1.366,4.445
11931,-0.0049,0.0275,-0.0018,0.21,0.61,-0.32,0.252,7.118,2.663,5.067
11940,-0.0054,0.0237,-0.0017,0.23,0.60,-0.27,0.259,4.162,1.041,4.194
11950,-0.0087,0.0223,-0.0017,0.27,0.61,-0.22,0.259,2.453,-1.466,4.256
11960,-0.0097,0.0219,0.0036,0.33,0.60,-0.18,0.259,5.027,0.005,3.919
11970,-0.0169,0.0222,0.0034,0.34,0.65,-0.14,0.259,-0.723,-4.432,3.967
11981,-0.0153,0.0196,0.0035,0.41,0.63,-0.10,0.259,-1.846,-4.728,4.275
11991,-0.0178,0.0174,0.0037,0.45,0.65,-0.06,0.259,-6.621,-0.954,4.724
12000,-0.0171,0.0223,0.0041,0.39,0.68,-0.02,0.259,0.498,-2.762,4.008
12010,-0.0182,0.0216,0.0043,0.35,0.73,0.02,0.259,-5.242,-0.124,3.699
12020,-0.0206,0.0188,0.0079,0.35,0.73,0.06,0.259,0.271,2.521,3.620
12030,-0.0219,0.0182,0.0082,0.31,0.75,0.11,0.259,-6.529,2.215,3.902
12040,-0.0223,0.0156,0.0080,0.31,0.73,0.14,0.257,-3.282,3.758,4.121
12050,-0.0236,0.0150,0.0078,0.24,0.71,0.18,0.257,-0.623,1.990,3.576
12060,-0.0255,0.0142,0.0050,0.23,0.68,0.22,0.257,-5.232,4.644,4.205
12070,-0.0270,0.0139,0.0052,0.21,0.65,0.26,0.257,0.704,4.819,3.659
12080,-0.0281,0.0135,0.0052,0.19,0.60,0.30,0.257,0.228,4.408,3.283
12090,-0.0292,0.0132,0.0053,0.16,0.56,0.34,0.257,-4.974,2.071,3.194
12100,-0.0344,0.0107,0.0055,0.14,0.53,0.37,0.258,0.380,5.521,3.595
12110,-0.0373,0.0098,0.0055,0.13,0.51,0.41,0.258,-2.677,3.189,3.115
12121,-0.0404,0.0098,0.0059,0.12,0.47,0.44,0.258,-6.341,4.586,3.670
12131,-0.0353,0.0096,0.0060,0.08,0.42,0.48,0.258,-6.518,3.937,3.357
12140,-0.0398,0.0091,0.0060,0.07,0.39,0.51,0.258,-2.256,2.190,2.851
12150,-0.0420,0.0096,0.0062,0.01,0.34,0.55,0.258,-0.832,2.746,2.431
12160,-0.0423,0.0081,0.0056,-0.02,0.31,0.58,0.258,-2.306,3.904,2.079
12170,-0.0427,0.0080,0.0054,-0.03,0.29,0.61,0.258,-4.773,5.788,2.061
12180,-0.0432,0.0061,0.0052,-0.05,0.26,0.63,0.258,-5.525,7.099,1.902
12191,-0.0436,0.0062,0.0056,-0.09,0.21,0.65,0.258,-3.787,6.095,1.635
12200,-0.0440,0.0064,0.0064,-0.15,0.14,0.67,0.257,-1.328,7.636,1.171
12210,-0.0435,0.0072,0.0033,-0.20,0.08,0.69,0.257,-1.534,9.188,1.248
12220,-0.0435,0.0075,0.0034,-0.22,0.01,0.70,0.257,-2.894,10.602,1.256
12230,-0.0407,0.0055,0.0035,-0.20,-0.01,0.70,0.257,-6.196,6.244,1.578
12240,-0.0476,0.0043,0.0034,-0.21,-0.05,0.71,0.262,-5.933,3.917,1.011
12250,-0.0502,0.0029,0.0038,-0.24,-0.13,0.73,0.262,-5.275,3.148,1.210
12260,-0.0501,0.0034,0.0126,-0.29,-0.20,0.74,0.262,-4.867,2.648,0.826
12270,-0.0511,0.0042,0.0126,-0.34,-0.26,0.75,0.262,-2.727,3.226,1.005
12280,-0.0523,0.0031,0.0127,-0.37,-0.29,0.76,0.262,-4.144,1.161,0.612
12290,-0.0518,0.0037,0.0128,-0.41,-0.32,0.77,0.262,-1.853,2.467,0.443
12300,-0.0528,0.0049,0.0130,-0.43,-0.33,0.78,0.260,-0.989,5.258,0.605
12311,-0.0523,0.0057,0.0133,-0.47,-0.35,0.78,0.260,-1.863,5.090,0.581
12320,-0.0491,0.0046,0.0128,-0.48,-0.38,0.79,0.260,-1.805,6.271,0.347
12331,-0.0484,0.0054,0.0131,-0.50,-0.43,0.80,0.260,-0.992,6.640,0.528
