time_ms,vel_x,vel_y,vel_z,roll,pitch,yaw,range_z,gyro_x,gyro_y,gyro_z
0,-0.0007,-0.0024,0.0045,-1.59,-0.09,-29.24,0.010,0.045,0.100,0.113
0,-0.0007,-0.0026,0.0044,-1.58,-0.09,-29.21,0.010,0.086,0.077,0.244
0,-0.0040,-0.0018,0.0052,-1.58,-0.06,-29.18,0.010,-0.139,0.088,0.047
0,-0.0042,-0.0020,0.0051,-1.58,-0.06,-29.15,0.010,-0.142,-0.198,-0.063
0,0.0060,-0.0050,0.0052,-1.59,-0.15,-29.13,0.010,0.089,0.103,-0.073
0,-0.0073,0.0062,0.0054,-1.62,-0.01,-29.09,0.008,-0.025,0.084,0.176
0,-0.0081,-0.0103,0.0060,-1.50,-0.07,-29.06,0.008,-0.054,0.156,-0.248
0,-0.0084,-0.0102,0.0060,-1.50,-0.07,-29.04,0.008,0.083,0.265,0.149
0,-0.0024,0.0012,0.0018,-1.60,-0.07,-29.01,0.008,0.155,-0.124,-0.128
0,-0.0022,0.0012,0.0017,-1.60,-0.07,-28.98,0.008,0.210,0.167,0.012
0,0.0027,-0.0080,0.0017,-1.56,-0.14,-28.95,0.011,-0.120,0.107,-0.001
0,0.0027,-0.0082,0.0017,-1.55,-0.14,-28.93,0.011,-0.078,0.090,0.190
1,0.0014,0.0036,0.0053,-1.63,-0.09,-28.90,0.011,0.061,-0.128,0.014
1,0.0050,0.0002,0.0054,-1.62,-0.12,-28.87,0.011,-0.112,-0.205,-0.076
1,-0.0006,0.0046,0.0055,-1.62,-0.07,-28.84,0.011,0.179,-0.105,-0.049
1,0.0005,0.0038,0.0057,-1.62,-0.08,-28.81,0.009,-0.271,-0.261,0.146
1,-0.0016,0.0022,0.0058,-1.60,-0.07,-28.78,0.009,-0.158,-0.151,-0.216
1,-0.0016,-0.0073,0.0027,-1.54,-0.11,-28.75,0.009,0.234,-0.164,0.002
1,0.0011,0.0036,0.0028,-1.62,-0.09,-28.72,0.009,-0.249,0.003,0.177
1,0.0008,0.0036,0.0026,-1.62,-0.09,-28.69,0.009,0.017,0.090,0.051
1,0.0013,-0.0082,0.0025,-1.54,-0.13,-28.67,0.008,0.125,0.324,0.049
1,-0.0044,-0.0007,0.0025,-1.57,-0.06,-28.63,0.008,-0.134,0.068,0.099
1,-0.0049,-0.0020,-0.0020,-1.56,-0.07,-28.61,0.008,0.029,0.075,-0.140
1,0.0005,0.0003,-0.0019,-1.60,-0.10,-28.58,0.008,-0.132,0.119,0.143
2,0.0040,-0.0060,-0.0016,-1.57,-0.15,-28.55,0.008,-0.167,-0.114,0.028
2,0.0027,0.0017,-0.0013,-1.62,-0.11,-28.52,0.007,-0.349,0.021,0.069
2,0.0002,-0.0023,-0.0010,-1.58,-0.11,-28.49,0.007,-0.076,-0.050,0.222
2,-0.0060,-0.0059,-0.0057,-1.53,-0.08,-28.46,0.007,-0.188,0.100,0.021
2,0.0013,0.0022,-0.0055,-1.62,-0.10,-28.43,0.007,0.108,0.069,-0.008
2,-0.0000,-0.0078,-0.0053,-1.54,-0.13,-28.40,0.007,-0.338,-0.111,0.343
2,-0.0017,0.0037,-0.0054,-1.62,-0.07,-28.37,0.009,-0.031,0.099,0.124
2,-0.0008,0.0027,-0.0053,-1.62,-0.08,-28.35,0.009,0.008,0.055,0.269
2,0.0028,-0.0100,-0.0030,-1.54,-0.15,-28.32,0.009,-0.145,0.042,0.168
2,0.0032,-0.0086,-0.0030,-1.56,-0.15,-28.29,0.009,-0.237,0.052,0.010
2,0.0043,0.0012,-0.0030,-1.63,-0.12,-28.26,0.009,-0.045,0.178,0.215
2,-0.0055,-0.0019,-0.0029,-1.57,-0.06,-28.23,0.008,0.105,0.014,-0.075
2,-0.0029,0.0031,-0.0030,-1.62,-0.07,-28.20,0.008,-0.159,-0.003,0.100
2,-0.0041,-0.0065,-0.0036,-1.55,-0.10,-28.17,0.008,-0.057,-0.081,-0.027
2,0.0001,0.0033,-0.0034,-1.63,-0.09,-28.15,0.008,-0.130,-0.146,0.118
2,0.0052,0.0003,-0.0033,-1.63,-0.14,-28.12,0.008,0.167,0.261,-0.076
2,-0.0035,0.0008,-0.0029,-1.60,-0.07,-28.09,0.009,-0.016,-0.083,-0.144
2,0.0052,-0.0050,-0.0029,-1.59,-0.15,-28.07,0.009,0.094,0.195,0.048
2,-0.0024,0.0028,-0.0012,-1.61,-0.07,-28.04,0.009,-0.013,-0.041,-0.034
3,-0.0025,-0.0051,-0.0013,-1.56,-0.10,-28.01,0.009,-0.159,0.114,0.079
3,-0.0130,0.0084,-0.0013,-1.61,0.03,-27.98,0.009,-0.257,0.068,-0.060
3,-0.0140,0.0075,-0.0011,-1.60,0.03,-27.95,0.008,-0.075,-0.145,-0.140
3,-0.0145,0.0074,-0.0008,-1.60,0.03,-27.92,0.008,0.035,-0.098,0.143
3,-0.0082,0.0106,-0.0018,-1.65,-0.01,-27.90,0.008,0.026,-0.001,0.144
3,-0.0071,0.0069,-0.0018,-1.63,-0.03,-27.87,0.008,0.091,0.099,0.064
3,-0.0129,0.0030,-0.0018,-1.58,-0.01,-27.84,0.008,-0.126,-0.089,-0.070
3,-0.0129,0.0069,-0.0018,-1.61,0.00,-27.81,0.009,0.118,-0.136,-0.236
3,-0.0141,0.0035,-0.0018,-1.58,-0.00,-27.79,0.009,0.013,-0.114,0.059
3,-0.0130,0.0045,-0.0001,-1.59,-0.01,-27.76,0.009,-0.072,-0.148,-0.074
3,-0.0033,0.0087,-0.0000,-1.65,-0.06,-27.73,0.009,0.055,-0.224,-0.285
3,-0.0084,0.0084,0.0000,-1.63,-0.03,-27.71,0.009,-0.129,0.045,0.112
3,-0.0100,0.0064,0.0002,-1.61,-0.02,-27.68,0.011,0.141,0.140,-0.099
3,-0.0101,0.0064,0.0003,-1.60,-0.02,-27.65,0.011,-0.076,-0.149,0.009
3,-0.0186,-0.0004,0.0061,-1.53,0.01,-27.62,0.011,-0.058,-0.326,0.192
3,-0.0053,-0.0040,0.0065,-1.55,-0.10,-27.60,0.011,0.249,0.083,0.036
3,-0.0070,0.0058,0.0066,-1.61,-0.05,-27.57,0.011,0.092,0.108,-0.010
3,-0.0051,0.0006,0.0068,-1.57,-0.08,-27.54,0.009,-0.091,-0.194,0.054
3,-0.0046,0.0088,0.0068,-1.63,-0.05,-27.52,0.009,-0.263,0.166,0.308
3,-0.0056,0.0090,0.0047,-1.63,-0.05,-27.49,0.009,-0.104,-0.037,0.230
3,-0.0062,0.0046,0.0047,-1.60,-0.07,-27.46,0.009,-0.215,0.149,0.170
3,-0.0072,0.0047,0.0047,-1.60,-0.06,-27.43,0.009,0.098,-0.028,-0.053
3,-0.0080,0.0050,0.0048,-1.60,-0.06,-27.40,0.009,0.250,-0.094,-0.068
3,-0.0043,-0.0023,0.0050,-1.56,-0.11,-27.38,0.009,-0.003,-0.068,-0.021
3,-0.0043,-0.0026,0.0030,-1.56,-0.11,-27.35,0.009,-0.180,-0.217,0.069
3,-0.0089,-0.0023,0.0031,-1.54,-0.08,-27.32,0.009,-0.046,0.206,0.071
3,-0.0091,-0.0023,0.0031,-1.54,-0.08,-27.30,0.009,0.110,0.264,0.050
3,-0.0056,0.0015,0.0031,-1.58,-0.09,-27.27,0.012,0.057,-0.211,0.034
3,-0.0061,-0.0007,0.0031,-1.56,-0.09,-27.24,0.012,0.132,0.158,-0.242
4,-0.0067,-0.0002,0.0083,-1.56,-0.09,-27.22,0.012,-0.122,0.263,0.206
4,-0.0027,0.0068,0.0085,-1.62,-0.09,-27.19,0.012,0.093,-0.183,-0.259
4,-0.0048,0.0023,0.0086,-1.58,-0.09,-27.16,0.012,0.093,0.117,0.055
4,-0.0048,0.0024,0.0086,-1.58,-0.09,-27.14,0.012,0.103,0.079,-0.062
4,-0.0047,0.0023,0.0086,-1.58,-0.09,-27.11,0.008,0.120,-0.152,-0.215
4,0.0013,0.0046,0.0015,-1.62,-0.13,-27.09,0.008,-0.159,-0.175,0.072
4,0.0028,0.0019,0.0015,-1.60,-0.14,-27.06,0.008,-0.204,0.287,-0.084
4,-0.0022,0.0054,0.0016,-1.61,-0.09,-27.03,0.008,0.000,-0.051,-0.184
4,-0.0080,0.0039,0.0018,-1.58,-0.05,-27.00,0.008,-0.138,0.077,-0.066
4,-0.0027,0.0025,0.0020,-1.59,-0.10,-26.98,0.008,-0.162,-0.016,0.081
4,-0.0016,0.0043,-0.0017,-1.61,-0.10,-26.95,0.008,-0.274,-0.041,0.360
4,-0.0015,-0.0068,-0.0016,-1.53,-0.14,-26.92,0.008,-0.021,-0.128,-0.165
4,0.0008,0.0028,-0.0015,-1.61,-0.12,-26.90,0.008,-0.173,0.043,-0.107
4,-0.0031,0.0003,-0.0015,-1.58,-0.10,-26.87,0.008,-0.242,0.373,0.584
4,-0.0027,-0.0015,-0.0015,-1.57,-0.11,-26.84,0.010,0.089,0.124,0.009
4,-0.0030,-0.0028,0.0008,-1.56,-0.12,-26.81,0.010,0.055,0.097,-0.323
4,0.0021,0.0170,0.0009,-1.72,-0.08,-26.79,0.010,0.044,-0.119,0.114
4,0.0051,0.0198,0.0008,-1.75,-0.09,-26.76,0.010,0.072,-0.086,0.042
4,0.0069,0.0153,0.0007,-1.72,-0.12,-26.73,0.013,0.100,0.165,-0.166
4,0.0016,0.0197,0.0005,-1.73,-0.07,-26.71,0.013,-0.118,-0.192,0.036
4,0.0022,0.0201,0.0077,-1.73,-0.07,-26.68,0.013,-0.109,-0.037,0.164
4,-0.0057,0.0114,0.0082,-1.64,-0.04,-26.65,0.013,0.098,0.185,0.102
4,0.0015,0.0096,0.0085,-1.65,-0.10,-26.63,0.013,0.042,-0.099,0.073
4,-0.0039,0.0143,0.0085,-1.66,-0.05,-26.60,0.013,-0.008,-0.041,-0.041
4,-0.0017,0.0177,0.0086,-1.69,-0.05,-26.57,0.011,-0.193,0.066,-0.093
4,0.0041,0.0073,0.0092,-1.64,-0.13,-26.55,0.011,0.001,0.253,0.297
4,0.0041,0.0146,0.0078,-1.69,-0.10,-26.52,0.011,-0.085,-0.024,0.115
4,0.0032,0.0144,0.0079,-1.68,-0.10,-26.49,0.011,-0.148,0.194,-0.120
4,0.0041,0.0132,0.0080,-1.68,-0.11,-26.46,0.013,-0.068,-0.126,-0.020
4,0.0062,0.0062,0.0082,-1.63,-0.15,-26.44,0.013,-0.245,-0.104,0.016
4,0.0033,0.0085,0.0110,-1.64,-0.12,-26.41,0.013,-0.116,0.028,0.028
4,0.0036,0.0010,0.0112,-1.59,-0.15,-26.39,0.013,0.170,0.256,-0.212
4,0.0018,0.0110,0.0113,-1.65,-0.10,-26.36,0.013,-0.066,0.145,-0.091
4,0.0056,0.0072,0.0115,-1.64,-0.14,-26.33,0.009,-0.200,-0.102,0.369
5,-0.0024,0.0119,0.0116,-1.64,-0.07,-26.31,0.009,0.205,0.049,-0.083
5,0.0003,-0.0020,0.0029,-1.55,-0.13,-26.28,0.009,-0.009,0.174,0.121
5,0.0053,0.0083,0.0031,-1.64,-0.13,-26.26,0.009,-0.024,0.012,-0.112
5,0.0053,0.0081,0.0032,-1.64,-0.13,-26.23,0.009,-0.019,-0.098,0.120
5,-0.0021,0.0009,0.0034,-1.56,-0.10,-26.20,0.012,0.047,0.164,0.066
5,0.0025,0.0075,0.0033,-1.62,-0.11,-26.18,0.012,-0.142,-0.054,0.064
5,0.0064,0.0076,0.0045,-1.64,-0.14,-26.15,0.012,0.103,0.224,-0.056
5,-0.0044,0.0062,0.0048,-1.59,-0.07,-26.13,0.012,0.105,0.370,0.266
5,-0.0037,-0.0006,0.0050,-1.54,-0.10,-26.10,0.012,-0.006,-0.093,-0.019
5,0.0014,0.0070,0.0053,-1.61,-0.11,-26.08,0.011,0.090,0.169,-0.019
5,0.0038,-0.0010,0.0056,-1.56,-0.16,-26.05,0.011,0.113,-0.028,-0.216
5,0.0006,0.0000,0.0034,-1.56,-0.13,-26.02,0.011,-0.113,-0.203,-0.008
5,-0.0012,-0.0043,0.0034,-1.52,-0.13,-26.00,0.011,-0.183,-0.112,-0.121
5,0.0029,0.0063,0.0035,-1.61,-0.12,-25.98,0.011,0.033,-0.285,0.106
5,0.0038,-0.0023,0.0037,-1.55,-0.16,-25.95,0.012,0.105,0.276,-0.259
5,0.0051,0.0006,0.0039,-1.58,-0.16,-25.93,0.012,0.103,-0.173,0.035
5,0.0065,0.0034,0.0043,-1.60,-0.15,-25.90,0.012,-0.047,-0.199,-0.126
5,0.0030,0.0171,0.0042,-1.69,-0.08,-25.88,0.012,-0.116,-0.064,0.401
5,0.0003,0.0137,0.0044,-1.65,-0.07,-25.85,0.012,-0.322,-0.242,-0.145
5,-0.0002,0.0119,0.0044,-1.64,-0.07,-25.83,0.012,-0.050,0.098,-0.075
5,-0.0002,0.0120,0.0043,-1.64,-0.07,-25.80,0.009,0.053,0.051,-0.106
5,0.0001,0.0122,-0.0029,-1.64,-0.07,-25.78,0.009,-0.023,-0.098,0.180
5,-0.0004,0.0105,-0.0027,-1.62,-0.08,-25.75,0.009,0.152,-0.154,-0.178
5,0.0016,0.0091,-0.0027,-1.62,-0.10,-25.72,0.009,-0.286,0.192,0.209
5,0.0018,0.0091,-0.0027,-1.62,-0.10,-25.70,0.009,-0.067,0.097,-0.086
5,0.0022,0.0097,-0.0027,-1.62,-0.10,-25.67,0.009,0.105,-0.127,-0.212
5,0.0030,0.0111,-0.0064,-1.63,-0.10,-25.65,0.009,0.104,0.019,-0.151
5,0.0011,0.0070,-0.0062,-1.59,-0.10,-25.62,0.009,0.208,-0.145,-0.005
5,-0.0012,0.0076,-0.0062,-1.59,-0.08,-25.60,0.009,-0.103,-0.149,-0.238
5,-0.0002,0.0067,-0.0061,-1.58,-0.09,-25.57,0.010,-0.140,0.040,-0.101
5,-0.0014,0.0070,-0.0062,-1.58,-0.08,-25.55,0.010,-0.237,0.110,0.128
5,0.0016,0.0129,-0.0063,-1.63,-0.09,-25.53,0.010,-0.105,0.044,-0.167
5,-0.0009,-0.0038,-0.0049,-1.50,-0.12,-25.50,0.010,0.046,-0.045,-0.133
5,-0.0015,0.0055,-0.0047,-1.57,-0.09,-25.48,0.010,-0.182,-0.017,0.299
5,-0.0015,0.0052,-0.0046,-1.57,-0.09,-25.45,0.011,-0.090,-0.066,0.170
6,-0.0014,0.0050,-0.0046,-1.57,-0.09,-25.43,0.011,0.174,0.062,-0.195
6,-0.0014,0.0049,-0.0018,-1.57,-0.09,-25.40,0.011,0.166,-0.118,-0.084
6,0.0035,0.0052,-0.0019,-1.58,-0.12,-25.38,0.011,0.056,-0.226,0.014
6,-0.0016,0.0040,-0.0019,-1.56,-0.09,-25.35,0.011,-0.351,0.067,0.194
6,-0.0015,0.0039,-0.0019,-1.56,-0.09,-25.33,0.007,-0.149,-0.046,-0.011
6,0.0005,0.0073,-0.0019,-1.58,-0.09,-25.30,0.007,0.271,0.088,-0.124
6,0.0035,0.0097,-0.0092,-1.62,-0.10,-25.28,0.007,-0.054,-0.043,0.053
6,0.0078,0.0055,-0.0092,-1.60,-0.14,-25.26,0.007,-0.221,-0.049,0.074
6,0.0009,0.0008,-0.0090,-1.54,-0.11,-25.23,0.007,0.133,0.089,0.135
6,-0.0013,0.0016,-0.0088,-1.54,-0.09,-25.20,0.009,-0.286,-0.120,0.243
6,-0.0013,0.0013,-0.0087,-1.54,-0.09,-25.18,0.009,-0.221,0.035,0.084
6,-0.0013,0.0009,-0.0076,-1.54,-0.09,-25.15,0.009,-0.306,0.333,-0.035
6,-0.0013,0.0035,-0.0076,-1.56,-0.08,-25.13,0.009,0.026,0.097,-0.013
6,0.0035,0.0098,-0.0078,-1.62,-0.09,-25.10,0.009,0.136,0.155,0.211
6,0.0010,0.0046,-0.0076,-1.57,-0.09,-25.08,0.011,-0.128,-0.075,0.120
6,-0.0015,-0.0004,-0.0073,-1.53,-0.10,-25.05,0.011,-0.258,-0.222,0.161
6,0.0043,-0.0034,-0.0008,-1.53,-0.15,-25.03,0.011,0.284,0.214,0.239
6,0.0008,-0.0020,-0.0005,-1.53,-0.12,-25.00,0.011,-0.206,0.032,0.110
6,-0.0013,-0.0012,-0.0003,-1.53,-0.09,-24.98,0.011,-0.182,-0.044,0.351
6,-0.0007,-0.0004,-0.0000,-1.54,-0.10,-24.95,0.010,-0.044,0.141,0.073
6,-0.0023,-0.0012,0.0003,-1.53,-0.09,-24.92,0.010,-0.098,-0.119,-0.062
6,-0.0020,-0.0002,0.0018,-1.54,-0.09,-24.90,0.010,0.069,-0.171,0.096
6,-0.0024,-0.0016,0.0020,-1.53,-0.09,-24.87,0.010,-0.212,-0.201,0.086
6,-0.0024,-0.0017,0.0021,-1.53,-0.09,-24.85,0.010,-0.187,0.197,0.178
6,-0.0025,-0.0016,0.0023,-1.53,-0.09,-24.82,0.012,-0.171,0.104,0.072
6,-0.0026,-0.0017,0.0024,-1.53,-0.09,-24.80,0.012,0.136,0.283,-0.025
6,0.0027,-0.0042,0.0076,-1.53,-0.13,-24.77,0.012,0.291,-0.160,-0.145
6,0.0027,-0.0046,0.0076,-1.53,-0.14,-24.75,0.012,0.077,0.081,-0.005
6,0.0012,-0.0040,0.0076,-1.53,-0.12,-24.72,0.012,-0.324,-0.046,0.047
6,-0.0014,-0.0027,0.0078,-1.53,-0.10,-24.70,0.007,0.341,-0.111,-0.052
6,-0.0002,-0.0002,0.0078,-1.55,-0.10,-24.68,0.007,0.090,0.181,-0.064
6,-0.0027,-0.0024,-0.0006,-1.53,-0.09,-24.65,0.007,-0.122,0.010,0.244
6,-0.0093,-0.0139,-0.0005,-1.42,-0.08,-24.63,0.007,0.232,0.051,-0.106
6,-0.0052,-0.0150,-0.0002,-1.43,-0.11,-24.60,0.007,-0.185,0.025,-0.064
6,-0.0027,-0.0125,0.0001,-1.46,-0.12,-24.58,0.007,0.168,0.054,0.053
7,-0.0032,-0.0103,0.0004,-1.47,-0.11,-24.55,0.007,-0.230,-0.127,0.143
7,-0.0047,-0.0137,-0.0050,-1.45,-0.11,-24.53,0.007,0.031,0.119,0.014
7,0.0074,0.0155,-0.0048,-1.69,-0.10,-24.51,0.007,0.089,-0.109,-0.096
7,0.0077,0.0156,-0.0047,-1.69,-0.10,-24.48,0.007,0.107,0.003,0.392
7,0.0028,0.0138,-0.0045,-1.66,-0.07,-24.46,0.011,-0.122,0.017,-0.184
7,-0.0063,0.0058,-0.0043,-1.57,-0.04,-24.43,0.011,-0.291,-0.113,0.250
7,-0.0063,0.0059,0.0013,-1.57,-0.04,-24.41,0.011,0.217,0.226,0.161
7,-0.0005,0.0077,0.0017,-1.60,-0.07,-24.39,0.011,0.318,-0.060,-0.175
7,0.0024,0.0103,0.0019,-1.63,-0.08,-24.36,0.011,-0.012,-0.004,0.101
7,-0.0025,0.0058,0.0021,-1.58,-0.07,-24.34,0.010,-0.217,-0.108,0.013
7,0.0041,0.0137,0.0020,-1.66,-0.09,-24.31,0.010,0.127,-0.144,-0.161
7,0.0004,0.0116,0.0032,-1.63,-0.07,-24.29,0.010,-0.037,0.035,-0.289
7,0.0021,0.0017,0.0034,-1.56,-0.11,-24.27,0.010,-0.271,0.018,-0.112
7,-0.0059,0.0022,0.0035,-1.54,-0.05,-24.24,0.010,0.113,-0.083,-0.165
7,0.0009,0.0100,0.0034,-1.62,-0.07,-24.22,0.010,-0.187,-0.074,0.021
7,0.0030,0.0110,0.0034,-1.63,-0.08,-24.20,0.010,0.056,0.091,0.254
7,0.0029,0.0109,0.0036,-1.63,-0.08,-24.17,0.010,-0.068,0.075,0.028
7,-0.0063,0.0000,0.0039,-1.52,-0.05,-24.14,0.010,0.172,-0.251,0.154
7,0.0034,0.0083,0.0039,-1.61,-0.10,-24.12,0.010,0.090,0.130,-0.011
7,-0.0017,0.0030,0.0041,-1.56,-0.08,-24.10,0.010,0.002,-0.209,0.044
7,-0.0004,0.0021,0.0041,-1.56,-0.09,-24.07,0.006,-0.125,0.018,-0.155
7,-0.0066,-0.0045,-0.0055,-1.49,-0.06,-24.05,0.006,0.159,-0.046,-0.133
7,-0.0083,-0.0035,-0.0055,-1.50,-0.05,-24.02,0.006,-0.254,-0.580,0.166
7,-0.0151,-0.0136,-0.0057,-1.40,-0.03,-24.00,0.006,0.203,-0.100,0.000
7,-0.0153,-0.0139,-0.0057,-1.40,-0.03,-23.97,0.007,0.057,-0.167,0.056
7,-0.0056,-0.0137,-0.0053,-1.44,-0.10,-23.95,0.007,-0.058,0.047,-0.173
7,-0.0090,-0.0040,-0.0077,-1.50,-0.04,-23.93,0.007,-0.067,0.056,-0.310
7,-0.0100,-0.0097,-0.0078,-1.45,-0.05,-23.90,0.007,-0.041,-0.062,0.113
7,-0.0073,-0.0040,-0.0078,-1.51,-0.05,-23.88,0.007,-0.007,-0.052,-0.084
7,-0.0091,-0.0083,-0.0079,-1.47,-0.06,-23.86,0.007,0.021,-0.251,-0.031
7,-0.0072,-0.0049,-0.0076,-1.50,-0.06,-23.84,0.009,0.008,0.025,-0.209
7,-0.0154,-0.0240,-0.0038,-1.34,-0.06,-23.81,0.009,-0.114,0.074,0.146
7,-0.0157,-0.0278,-0.0039,-1.31,-0.07,-23.79,0.009,0.096,-0.158,-0.198
8,-0.0136,-0.0235,-0.0037,-1.35,-0.07,-23.77,0.009,0.010,-0.065,0.146
8,-0.0123,-0.0154,-0.0032,-1.42,-0.05,-23.74,0.013,-0.189,-0.022,-0.213
8,-0.0123,-0.0158,-0.0032,-1.41,-0.05,-23.72,0.013,-0.247,0.107,0.186
8,-0.0151,-0.0112,0.0072,-1.44,-0.01,-23.70,0.013,0.118,-0.078,-0.170
8,-0.0142,-0.0160,0.0072,-1.41,-0.04,-23.67,0.013,-0.135,0.002,0.010
8,-0.0142,-0.0141,0.0074,-1.43,-0.03,-23.65,0.013,-0.076,-0.086,0.339
8,-0.0120,-0.0132,0.0076,-1.45,-0.04,-23.63,0.013,-0.120,0.211,-0.260
8,-0.0080,-0.0103,0.0078,-1.48,-0.07,-23.60,0.006,-0.072,0.231,0.023
8,-0.0092,-0.0105,-0.0022,-1.48,-0.06,-23.58,0.006,-0.034,0.004,0.246
8,-0.0179,-0.0397,-0.0026,-1.24,-0.09,-23.56,0.006,0.020,0.258,-0.005
8,-0.0189,-0.0424,-0.0026,-1.22,-0.09,-23.53,0.006,-0.153,-0.070,0.129
8,-0.0111,-0.0276,-0.0011,-1.36,-0.10,-23.51,0.008,-0.359,0.318,0.121
8,-0.0159,-0.0302,-0.0013,-1.32,-0.07,-23.49,0.008,-0.065,0.109,-0.078
8,-0.0091,-0.0317,-0.0023,-1.34,-0.13,-23.46,0.008,-0.079,-0.236,0.135
8,-0.0152,-0.0397,-0.0025,-1.26,-0.11,-23.44,0.008,-0.281,-0.248,0.369
8,-0.0219,-0.0521,-0.0033,-1.15,-0.10,-23.42,0.008,0.032,0.145,0.147
8,-0.0223,-0.0527,-0.0033,-1.15,-0.10,-23.39,0.011,-0.146,0.017,0.070
8,-0.0157,-0.0465,-0.0022,-1.23,-0.12,-23.37,0.011,0.066,0.145,0.092
8,-0.0173,-0.0501,-0.0022,-1.20,-0.12,-23.35,0.011,-0.015,-0.099,-0.041
8,-0.0209,-0.0342,0.0052,-1.31,-0.05,-23.32,0.011,-0.028,-0.314,-0.123
8,-0.0154,-0.0345,0.0052,-1.32,-0.09,-23.30,0.011,-0.293,0.114,0.124
8,-0.0170,-0.0385,0.0050,-1.29,-0.09,-23.27,0.010,-0.078,0.102,0.267
8,-0.0173,-0.0392,0.0050,-1.30,-0.09,-23.25,0.010,-0.115,0.244,0.100
8,-0.0185,-0.0421,0.0055,-1.28,-0.09,-23.23,0.010,0.012,0.060,-0.130
8,-0.0243,-0.0400,0.0056,-1.28,-0.04,-23.20,0.010,0.205,0.001,-0.334
8,-0.0173,-0.0336,0.0060,-1.35,-0.08,-23.18,0.010,-0.020,-0.181,-0.038
8,-0.0158,-0.0364,0.0060,-1.33,-0.09,-23.16,0.010,0.180,0.097,-0.023
8,-0.0129,-0.0359,0.0062,-1.35,-0.11,-23.14,0.010,-0.186,-0.032,0.152
8,-0.0116,-0.0357,0.0057,-1.36,-0.12,-23.11,0.010,0.063,-0.177,0.366
8,-0.0117,-0.0361,0.0058,-1.36,-0.12,-23.09,0.010,-0.076,0.004,0.056
8,-0.0125,-0.0308,0.0062,-1.39,-0.10,-23.06,0.010,-0.298,-0.061,0.329
8,-0.0079,-0.0205,0.0068,-1.49,-0.10,-23.04,0.010,-0.195,-0.168,-0.293
8,-0.0079,-0.0207,0.0068,-1.49,-0.10,-23.01,0.010,-0.000,0.160,-0.209
8,-0.0111,-0.0288,0.0056,-1.42,-0.10,-22.99,0.010,-0.078,-0.147,-0.116
9,-0.0067,-0.0184,0.0059,-1.51,-0.10,-22.97,0.010,-0.070,-0.165,-0.204
9,-0.0073,-0.0195,0.0057,-1.50,-0.10,-22.95,0.010,0.063,-0.015,0.114
9,-0.0065,-0.0175,0.0058,-1.51,-0.10,-22.92,0.009,0.248,-0.006,-0.209
9,-0.0094,-0.0246,0.0057,-1.46,-0.10,-22.90,0.009,0.005,0.166,0.385
9,-0.0049,-0.0140,0.0020,-1.55,-0.10,-22.88,0.009,-0.254,-0.096,-0.016
9,-0.0073,-0.0137,0.0020,-1.55,-0.08,-22.86,0.009,-0.070,-0.194,-0.038
9,-0.0074,-0.0140,0.0021,-1.55,-0.08,-22.83,0.009,0.129,0.060,-0.006
9,-0.0097,-0.0228,0.0019,-1.47,-0.09,-22.81,0.008,0.115,-0.282,-0.183
9,-0.0079,-0.0155,0.0020,-1.54,-0.08,-22.79,0.008,-0.116,-0.095,0.520
9,-0.0085,-0.0209,-0.0024,-1.49,-0.08,-22.76,0.008,-0.058,0.045,0.199
9,-0.0033,-0.0178,-0.0021,-1.53,-0.11,-22.74,0.008,-0.389,-0.001,0.133
9,-0.0013,-0.0123,-0.0017,-1.58,-0.11,-22.72,0.008,0.015,-0.053,0.128
9,-0.0062,-0.0081,-0.0016,-1.59,-0.06,-22.69,0.010,-0.082,-0.019,0.141
9,-0.0032,-0.0138,-0.0017,-1.56,-0.10,-22.67,0.010,-0.019,-0.255,0.045
9,-0.0074,-0.0113,-0.0017,-1.56,-0.06,-22.67,0.010,-0.009,0.240,0.078
9,-0.0059,-0.0139,-0.0002,-1.55,-0.08,-22.62,0.010,-0.034,0.009,0.165
9,-0.0007,-0.0076,-0.0001,-1.61,-0.10,-22.60,0.010,-0.116,0.314,-0.130
9,-0.0016,-0.0067,0.0000,-1.61,-0.09,-22.58,0.009,-0.081,-0.161,0.024
9,-0.0016,-0.0067,-0.0000,-1.61,-0.09,-22.56,0.009,0.358,0.044,0.053
9,-0.0015,-0.0069,-0.0010,-1.61,-0.09,-22.53,0.009,0.139,-0.176,-0.035
9,-0.0017,-0.0174,-0.0010,-1.53,-0.12,-22.51,0.009,0.012,-0.206,0.001
9,-0.0017,-0.0069,-0.0008,-1.61,-0.09,-22.51,0.009,-0.034,-0.328,-0.236
9,-0.0029,-0.0100,-0.0009,-1.58,-0.08,-22.49,0.006,0.138,-0.090,0.276
9,-0.0008,-0.0050,-0.0008,-1.62,-0.08,-22.47,0.006,-0.068,0.077,-0.069
9,0.0003,-0.0079,-0.0007,-1.60,-0.10,-22.44,0.006,0.119,-0.037,0.037
9,-0.0013,-0.0044,-0.0081,-1.62,-0.08,-22.40,0.006,0.008,-0.104,0.022
9,-0.0013,-0.0044,-0.0081,-1.62,-0.08,-22.40,0.006,0.036,0.022,-0.165
9,-0.0011,-0.0069,-0.0081,-1.60,-0.09,-22.38,0.011,-0.202,-0.138,0.121
9,-0.0019,-0.0088,-0.0081,-1.59,-0.09,-22.35,0.011,-0.007,0.034,0.054
9,-0.0013,-0.0041,-0.0007,-1.62,-0.08,-22.33,0.011,0.057,-0.203,-0.141
9,-0.0022,-0.0129,-0.0006,-1.55,-0.10,-22.31,0.011,0.095,-0.006,-0.333
9,-0.0057,-0.0106,-0.0006,-1.56,-0.07,-22.29,0.011,-0.106,0.043,-0.003
9,-0.0001,-0.0070,-0.0006,-1.60,-0.10,-22.26,0.008,0.056,-0.330,-0.015
10,-0.0031,-0.0040,-0.0005,-1.61,-0.07,-22.24,0.008,-0.099,-0.132,0.153
10,0.0034,-0.0011,-0.0004,-1.65,-0.10,-22.22,0.008,0.031,-0.242,0.072
10,0.0017,-0.0046,-0.0027,-1.62,-0.10,-22.20,0.008,0.091,0.387,0.132
10,0.0005,-0.0041,-0.0026,-1.62,-0.09,-22.18,0.008,0.217,-0.190,-0.289
10,-0.0046,-0.0095,-0.0027,-1.57,-0.07,-22.15,0.008,-0.050,-0.355,-0.062
10,-0.0039,-0.0078,-0.0026,-1.58,-0.07,-22.13,0.008,-0.241,0.119,0.062
10,-0.0027,-0.0052,-0.0034,-1.60,-0.07,-22.11,0.008,-0.029,0.137,-0.273
10,0.0009,-0.0026,-0.0035,-1.63,-0.09,-22.09,0.008,-0.056,0.092,0.006
10,0.0007,0.0002,-0.0035,-1.64,-0.08,-22.07,0.008,-0.156,-0.032,0.191
10,-0.0007,-0.0064,-0.0032,-1.59,-0.09,-22.02,0.009,0.147,0.064,-0.108
10,0.0006,0.0024,-0.0029,-1.66,-0.07,-22.00,0.009,0.084,-0.330,-0.112
10,0.0006,0.0025,-0.0010,-1.66,-0.07,-22.00,0.009,-0.029,0.124,-0.071
10,0.0002,-0.0024,-0.0008,-1.62,-0.07,-21.96,0.009,-0.088,-0.121,0.119
10,0.0022,-0.0032,-0.0007,-1.61,-0.09,-21.94,0.009,-0.078,0.006,0.306
10,0.0008,-0.0003,-0.0006,-1.63,-0.07,-21.92,0.011,-0.042,-0.159,0.007
10,-0.0042,-0.0069,-0.0005,-1.57,-0.05,-21.89,0.011,0.053,-0.215,-0.087
10,0.0013,-0.0024,0.0054,-1.61,-0.08,-21.87,0.011,0.119,-0.161,0.167
10,0.0003,0.0018,0.0055,-1.64,-0.06,-21.85,0.011,0.022,-0.022,-0.055
10,0.0014,0.0012,0.0054,-1.64,-0.07,-21.83,0.011,0.057,-0.030,-0.186
10,0.0014,0.0012,0.0054,-1.64,-0.07,-21.83,0.011,0.077,-0.420,-0.317
10,-0.0096,-0.0049,0.0060,-1.55,-0.01,-21.79,0.007,0.052,0.037,0.221
10,0.0012,-0.0030,0.0002,-1.60,-0.08,-21.77,0.007,-0.233,-0.230,0.059
10,0.0006,0.0020,0.0005,-1.64,-0.06,-21.75,0.007,0.174,-0.019,-0.223
10,-0.0010,-0.0023,0.0010,-1.60,-0.06,-21.72,0.007,-0.123,-0.082,0.159
10,-0.0010,-0.0023,0.0010,-1.60,-0.06,-21.72,0.009,0.043,-0.187,-0.073
10,-0.0014,-0.0008,0.0011,-1.61,-0.05,-21.68,0.009,-0.046,0.006,0.055
10,0.0011,-0.0065,0.0001,0.01,-0.00,-0.00,0.009,-0.046,0.157,-0.211
10,0.0011,-0.0065,0.0001,0.01,-0.00,-0.00,0.009,-0.060,0.053,0.193
10,0.0012,-0.0088,0.0001,0.00,-0.01,-0.00,0.009,0.089,-0.164,-0.008
10,0.0010,-0.0116,0.0001,-0.00,-0.01,-0.00,0.010,-0.220,-0.064,-0.205
10,0.0006,-0.0181,0.0001,0.01,-0.01,0.00,0.010,-0.314,0.199,-0.151
10,-0.0029,-0.0270,0.0000,0.21,0.06,0.00,0.010,-0.327,-0.226,0.260
10,-0.0029,-0.0270,0.0000,0.21,0.06,0.00,0.010,0.008,-0.179,-0.002
10,0.0032,-0.0184,0.0003,-0.15,-0.11,-0.00,0.010,-0.105,-0.330,0.100
11,0.0014,-0.0162,0.0006,-0.28,-0.05,-0.00,0.011,-0.072,-0.019,0.104
11,-0.0005,-0.0140,0.0006,-0.41,-0.00,0.00,0.011,0.253,0.207,-0.024
11,0.0011,-0.0303,0.0010,-0.02,-0.05,0.00,0.011,0.099,-0.126,-0.062
11,0.0011,-0.0303,0.0010,-0.02,-0.05,0.00,0.011,0.064,0.080,-0.146
11,0.0008,-0.0131,0.0017,-0.59,-0.05,0.00,0.011,0.017,-0.296,-0.055
11,-0.0013,-0.0157,0.0015,-0.63,0.00,-0.00,0.010,0.079,0.008,-0.069
11,-0.0032,-0.0291,0.0013,-0.32,0.05,-0.00,0.010,0.145,0.067,-0.266
11,-0.0031,-0.0093,0.0006,-0.90,0.04,0.00,0.010,-0.122,-0.218,0.363
11,-0.0031,-0.0093,0.0006,-0.90,0.04,0.00,0.010,-0.223,0.112,0.185
11,0.0008,-0.0289,0.0004,-0.42,-0.07,-0.00,0.010,-0.186,0.051,0.020
11,-0.0014,-0.0201,0.0006,-0.70,-0.01,0.00,0.009,-0.109,-0.197,0.431
11,0.0026,-0.0196,0.0005,-0.75,-0.12,0.00,0.009,0.003,0.064,0.507
11,0.0040,-0.0191,-0.0031,-0.80,-0.15,0.00,0.009,0.040,0.084,0.062
11,0.0040,-0.0205,-0.0030,-0.80,-0.15,0.01,0.009,0.054,-0.041,0.151
11,-0.0004,-0.0198,-0.0028,-0.84,-0.04,0.01,0.009,-0.228,0.025,-0.227
11,-0.0007,-0.0116,-0.0029,-1.07,-0.05,0.01,0.009,0.006,-0.057,-0.003
11,0.0011,-0.0174,-0.0029,-0.96,-0.09,0.01,0.009,0.058,0.149,0.070
11,0.0029,-0.0207,-0.0050,-0.92,-0.13,0.01,0.009,-0.223,-0.088,-0.144
11,0.0045,-0.0257,-0.0050,-0.84,-0.16,0.01,0.009,-0.065,0.120,-0.058
11,-0.0033,-0.0172,-0.0049,-1.04,0.00,0.01,0.009,0.098,0.059,-0.161
11,-0.0010,-0.0091,-0.0049,-1.23,-0.04,0.01,0.013,-0.047,-0.088,-0.143
11,-0.0065,-0.0072,-0.0049,-1.28,0.07,0.01,0.013,-0.012,-0.186,0.062
11,-0.0024,-0.0146,0.0048,-1.14,-0.02,0.01,0.013,-0.098,0.267,0.166
11,-0.0023,-0.0086,0.0049,-1.28,-0.02,0.01,0.013,-0.170,0.045,-0.043
11,-0.0022,-0.0138,0.0049,-1.19,-0.02,0.01,0.013,-0.117,-0.186,0.203
11,-0.0018,-0.0078,0.0051,-1.31,-0.03,0.01,0.008,0.087,-0.094,-0.206
11,0.0001,-0.0205,0.0051,-1.09,-0.06,0.01,0.008,-0.007,0.082,0.081
11,0.0035,-0.0306,-0.0030,-0.93,-0.12,0.01,0.008,-0.051,-0.111,0.083
11,-0.0057,0.0062,-0.0024,-1.60,0.04,0.01,0.008,-0.208,-0.139,0.256
11,-0.0054,-0.0121,-0.0017,-1.29,0.03,0.01,0.008,-0.133,0.072,-0.283
11,-0.0035,-0.0047,-0.0014,-1.42,-0.01,0.01,0.010,-0.021,-0.356,-0.207
11,-0.0035,-0.0082,-0.0014,-1.37,-0.01,0.01,0.010,-0.152,0.387,0.190
11,-0.0032,-0.0183,-0.0012,-1.22,-0.02,0.01,0.010,-0.003,-0.064,0.024
11,-0.0033,-0.0192,-0.0014,-1.21,-0.01,0.01,0.010,-0.124,0.036,0.161
12,0.0004,-0.0039,-0.0013,-1.47,-0.08,0.01,0.010,-0.111,-0.209,-0.069
12,-0.0014,-0.0040,-0.0013,-1.47,-0.05,0.01,0.010,0.050,0.271,-0.200
12,-0.0012,-0.0181,-0.0011,-1.26,-0.05,0.02,0.008,0.090,-0.437,-0.059
12,0.0005,-0.0225,-0.0056,-1.21,-0.08,0.02,0.008,-0.135,-0.070,-0.060
12,-0.0013,-0.0010,-0.0051,-1.53,-0.06,0.01,0.008,0.102,0.252,0.179
12,-0.0014,-0.0045,-0.0048,-1.49,-0.05,0.01,0.008,0.072,-0.151,-0.208
12,0.0036,-0.0043,-0.0046,-1.49,-0.12,0.01,0.010,0.010,0.018,0.078
12,-0.0001,-0.0029,-0.0046,-1.51,-0.07,0.01,0.010,-0.185,0.265,0.073
12,-0.0017,-0.0032,-0.0021,-1.52,-0.05,0.01,0.010,0.261,-0.044,-0.085
21,-0.0018,-0.0034,-0.0018,-1.51,-0.05,0.01,0.010,-0.080,-0.280,-0.024
30,-0.0019,-0.0038,-0.0017,-1.51,-0.05,0.01,0.010,0.049,0.085,0.229
40,-0.0000,-0.0039,-0.0015,-1.51,-0.08,0.02,0.010,0.048,0.025,-0.083
50,-0.0019,-0.0038,-0.0015,-1.52,-0.05,0.02,0.011,-0.059,-0.129,0.271
60,-0.0000,-0.0177,0.0024,-1.35,-0.07,0.02,0.011,0.036,0.182,0.047
70,-0.0000,-0.0013,0.0028,-1.55,-0.07,0.02,0.011,-0.075,-0.244,-0.045
80,0.0015,-0.0096,0.0029,-1.45,-0.09,0.02,0.011,-0.116,-0.207,-0.177
90,-0.0020,-0.0040,0.0027,-1.52,-0.05,0.02,0.009,0.253,0.004,-0.022
100,-0.0020,-0.0054,0.0027,-1.50,-0.05,0.02,0.009,-0.020,-0.120,-0.204
110,-0.0001,-0.0035,0.0001,-1.52,-0.07,0.02,0.009,-0.331,-0.174,0.061
120,-0.0048,-0.0113,0.0002,-1.43,-0.02,0.02,0.009,-0.072,-0.019,-0.062
130,-0.0014,-0.0131,0.0002,-1.41,-0.06,0.02,0.009,0.154,-0.231,-0.015
140,-0.0014,-0.0134,0.0002,-1.41,-0.06,0.01,0.009,0.140,-0.025,-0.239
150,0.0016,-0.0053,0.0005,-1.51,-0.10,0.02,0.011,-0.345,0.004,-0.108
160,-0.0014,-0.0083,0.0037,-1.48,-0.06,0.01,0.011,-0.194,-0.287,0.161
170,-0.0013,-0.0009,0.0038,-1.56,-0.06,0.01,0.011,-0.282,-0.135,0.137
180,-0.0026,-0.0020,0.0040,-1.55,-0.04,0.01,0.011,-0.278,0.182,0.043
190,-0.0027,-0.0022,0.0041,-1.55,-0.04,0.01,0.011,-0.058,0.053,-0.130
200,-0.0028,-0.0022,0.0042,-1.55,-0.04,0.01,0.011,-0.178,-0.121,0.146
210,-0.0011,-0.0004,0.0051,-1.57,-0.06,0.02,0.011,-0.046,-0.165,-0.063
220,0.0031,-0.0061,0.0053,-1.51,-0.10,0.02,0.011,-0.027,0.093,0.011
230,0.0031,-0.0063,0.0053,-1.51,-0.10,0.02,0.011,-0.167,-0.043,0.309
240,0.0030,-0.0046,0.0053,-1.53,-0.10,0.02,0.008,0.160,-0.410,-0.146
250,-0.0013,-0.0003,0.0053,-1.57,-0.05,0.02,0.008,-0.033,0.142,0.278
260,-0.0025,0.0051,-0.0014,-1.63,-0.04,0.02,0.008,-0.074,0.088,0.284
269,-0.0024,-0.0103,-0.0011,-1.47,-0.04,0.02,0.008,0.088,-0.016,-0.024
280,-0.0025,-0.0045,-0.0010,-1.53,-0.04,0.02,0.008,-0.166,-0.274,-0.144
290,0.0002,-0.0111,-0.0009,-1.46,-0.07,0.02,0.009,0.156,0.039,-0.025
300,-0.0012,0.0002,-0.0006,-1.58,-0.06,0.02,0.009,-0.085,-0.260,0.030
310,-0.0011,-0.0037,-0.0023,-1.54,-0.06,0.02,0.009,-0.086,0.068,0.248
320,-0.0009,-0.0021,-0.0023,-1.55,-0.06,0.02,0.009,-0.001,0.080,0.151
329,-0.0009,0.0004,-0.0023,-1.58,-0.06,0.02,0.009,-0.279,0.023,0.291
340,0.0030,0.0002,-0.0022,-1.57,-0.09,0.02,0.009,0.035,0.034,-0.184
349,0.0016,-0.0038,-0.0020,-1.54,-0.08,0.02,0.011,0.177,-0.039,0.046
360,0.0029,-0.0243,-0.0021,-1.34,-0.09,0.02,0.011,-0.172,0.240,0.158
370,0.0079,-0.0183,0.0016,-1.40,-0.14,0.02,0.011,0.131,0.353,0.482
380,-0.0016,-0.0177,0.0016,-1.41,-0.05,0.02,0.011,-0.060,0.023,0.128
390,-0.0028,-0.0222,0.0015,-1.38,-0.04,0.02,0.009,-0.056,-0.056,-0.075
400,0.0010,-0.0213,0.0016,-1.39,-0.08,0.03,0.009,-0.006,-0.264,0.247
409,-0.0017,-0.0205,-0.0007,-1.40,-0.06,0.03,0.009,0.158,-0.217,-0.117
419,-0.0006,-0.0159,-0.0004,-1.44,-0.07,0.03,0.009,0.097,0.054,-0.305
430,-0.0044,-0.0138,-0.0003,-1.46,-0.03,0.03,0.009,-0.027,-0.110,0.052
440,0.0043,-0.0131,-0.0000,-1.47,-0.11,0.03,0.012,0.010,-0.177,-0.215
449,0.0027,-0.0125,0.0002,-1.47,-0.10,0.03,0.012,-0.112,0.133,0.018
459,-0.0024,-0.0133,0.0003,-1.46,-0.05,0.03,0.012,-0.075,-0.148,-0.154
470,0.0000,-0.0141,0.0051,-1.46,-0.08,0.03,0.012,-0.030,-0.150,0.130
479,-0.0000,-0.0174,0.0052,-1.43,-0.08,0.03,0.012,-0.189,0.179,-0.091
489,0.0012,-0.0005,0.0055,-1.58,-0.08,0.03,0.012,0.151,0.030,0.052
499,0.0036,-0.0042,0.0056,-1.55,-0.10,0.03,0.012,-0.245,0.252,-0.170
510,0.0008,-0.0002,0.0079,-1.58,-0.08,0.03,0.012,-0.415,-0.183,-0.172
519,0.0057,-0.0016,0.0080,-1.57,-0.12,0.03,0.012,-0.206,0.194,0.229
530,0.0006,0.0049,0.0080,-1.63,-0.08,0.02,0.012,0.119,0.068,-0.066
540,0.0030,0.0022,0.0080,-1.60,-0.10,0.02,0.010,-0.011,0.184,0.152
550,0.0015,0.0008,0.0080,-1.59,-0.09,0.03,0.010,0.168,0.050,-0.094
559,0.0002,-0.0005,0.0037,-1.58,-0.08,0.02,0.010,-0.014,-0.271,-0.168
569,0.0001,-0.0007,0.0037,-1.58,-0.08,0.03,0.010,0.191,0.146,0.265
579,0.0002,0.0042,0.0037,-1.62,-0.08,0.02,0.010,-0.293,-0.257,0.358
589,0.0027,-0.0045,0.0038,-1.55,-0.10,0.02,0.007,0.147,0.039,-0.023
600,-0.0010,0.0003,0.0040,-1.59,-0.07,0.03,0.007,-0.088,0.159,-0.109
609,-0.0010,0.0001,-0.0058,-1.59,-0.07,0.03,0.007,0.238,-0.029,-0.241
619,0.0036,-0.0044,-0.0057,-1.55,-0.10,0.03,0.007,-0.050,-0.088,-0.011
630,0.0038,-0.0045,-0.0055,-1.55,-0.10,0.03,0.007,-0.011,-0.092,0.148
639,0.0013,-0.0009,-0.0054,-1.58,-0.08,0.03,0.009,-0.043,-0.028,-0.034
650,0.0014,-0.0033,-0.0055,-1.56,-0.08,0.03,0.009,-0.376,-0.037,-0.051
660,0.0024,0.0060,-0.0059,-1.63,-0.08,0.03,0.009,0.202,0.025,-0.208
670,0.0023,0.0058,-0.0058,-1.63,-0.08,0.03,0.009,0.115,0.093,-0.114
679,0.0019,0.0028,-0.0056,-1.61,-0.08,0.03,0.009,-0.182,-0.351,-0.129
689,0.0021,0.0027,-0.0054,-1.61,-0.08,0.03,0.013,-0.013,0.039,-0.081
700,-0.0015,-0.0022,-0.0053,-1.56,-0.05,0.03,0.013,-0.001,-0.150,-0.142
709,-0.0017,-0.0020,0.0038,-1.56,-0.05,0.03,0.013,-0.085,-0.121,0.195
719,-0.0041,-0.0010,0.0039,-1.57,-0.03,0.03,0.013,-0.267,0.085,-0.039
730,-0.0006,0.0024,0.0039,-1.60,-0.06,0.03,0.013,0.028,0.154,0.150
739,0.0017,0.0022,0.0038,-1.60,-0.08,0.03,0.009,-0.360,-0.473,0.053
749,0.0005,-0.0003,0.0037,-1.58,-0.07,0.03,0.009,-0.097,0.043,-0.007
760,0.0016,-0.0071,-0.0001,-1.52,-0.08,0.03,0.009,0.045,0.078,-0.180
769,0.0019,-0.0074,0.0003,-1.53,-0.08,0.03,0.009,0.320,0.069,0.217
780,0.0019,0.0023,0.0006,-1.61,-0.08,0.03,0.009,0.090,-0.191,0.169
789,0.0019,0.0023,0.0008,-1.61,-0.07,0.03,0.012,-0.091,0.231,0.240
799,0.0016,-0.0025,0.0010,-1.57,-0.07,0.03,0.012,-0.140,-0.140,-0.168
809,0.0014,-0.0026,0.0053,-1.56,-0.07,0.03,0.012,0.339,-0.089,-0.086
819,-0.0010,-0.0026,0.0053,-1.56,-0.05,0.03,0.012,0.039,-0.013,-0.074
829,-0.0010,-0.0061,0.0053,-1.53,-0.05,0.03,0.012,-0.127,-0.067,0.329
839,0.0001,-0.0060,0.0053,-1.53,-0.06,0.03,0.011,-0.177,0.249,0.136
849,0.0000,-0.0024,0.0054,-1.56,-0.06,0.03,0.011,0.081,-0.049,-0.271
859,0.0034,-0.0022,0.0049,-1.57,-0.09,0.03,0.011,-0.062,-0.052,-0.090
869,0.0034,-0.0024,0.0047,-1.57,-0.09,0.03,0.011,-0.206,0.166,0.297
879,-0.0003,-0.0021,0.0048,-1.57,-0.06,0.03,0.011,-0.228,0.066,0.054
889,-0.0002,-0.0022,0.0050,-1.57,-0.06,0.03,0.012,0.224,0.016,-0.122
899,-0.0014,-0.0057,0.0051,-1.54,-0.05,0.03,0.012,-0.071,0.079,0.127
909,-0.0013,0.0002,0.0067,-1.59,-0.05,0.03,0.012,-0.028,-0.327,0.023
919,-0.0013,-0.0081,0.0069,-1.52,-0.05,0.03,0.012,0.071,0.190,-0.110
930,-0.0011,-0.0042,0.0069,-1.55,-0.05,0.03,0.012,-0.039,0.075,0.032
939,-0.0010,-0.0005,0.0070,-1.58,-0.05,0.03,0.011,-0.056,-0.187,0.390
949,0.0016,0.0017,0.0070,-1.60,-0.07,0.03,0.011,0.080,-0.114,-0.142
959,0.0004,-0.0057,0.0047,-1.54,-0.06,0.03,0.011,0.011,-0.052,-0.087
969,0.0005,-0.0079,0.0047,-1.53,-0.06,0.03,0.011,-0.032,0.111,0.118
979,-0.0007,-0.0004,0.0049,-1.58,-0.05,0.03,0.011,-0.346,0.092,0.095
989,-0.0008,-0.0018,0.0050,-1.57,-0.05,0.03,0.011,-0.227,0.097,0.021
999,0.0002,-0.0056,0.0051,-1.55,-0.06,0.03,0.011,-0.148,-0.169,0.301
1009,0.0002,-0.0021,0.0033,-1.58,-0.06,0.03,0.011,-0.006,0.208,-0.123
1019,0.0003,-0.0031,0.0036,-1.57,-0.06,0.03,0.011,-0.024,0.021,0.072
1029,0.0005,-0.0032,0.0038,-1.57,-0.06,0.03,0.011,-0.083,0.010,0.232
1039,0.0005,-0.0017,0.0039,-1.58,-0.06,0.03,0.012,-0.153,0.035,0.068
1049,0.0017,-0.0051,0.0040,-1.55,-0.07,0.03,0.012,0.032,-0.056,0.242
1059,-0.0009,0.0061,0.0047,-1.64,-0.05,0.03,0.012,-0.211,0.329,0.093
1069,0.0050,0.0058,0.0047,-1.63,-0.10,0.03,0.012,-0.162,-0.291,0.055
1079,-0.0013,-0.0005,0.0048,-1.58,-0.05,0.03,0.012,0.014,-0.228,-0.100
1089,-0.0014,-0.0053,0.0048,-1.55,-0.05,0.04,0.010,-0.071,0.105,0.088
1099,-0.0037,-0.0051,0.0048,-1.55,-0.03,0.04,0.010,0.120,-0.030,-0.343
1109,0.0001,-0.0038,0.0005,-1.56,-0.06,0.04,0.010,0.007,-0.153,0.338
1119,-0.0045,-0.0062,0.0007,-1.54,-0.02,0.04,0.010,-0.040,0.009,0.131
1130,-0.0008,-0.0058,0.0009,-1.54,-0.05,0.04,0.010,0.033,-0.315,-0.042
1139,-0.0008,-0.0058,0.0009,-1.54,-0.05,0.04,0.010,-0.032,-0.143,-0.011
1149,-0.0008,-0.0009,0.0011,-1.58,-0.05,0.04,0.009,0.049,0.068,-0.096
1159,-0.0010,-0.0010,-0.0038,-1.58,-0.04,0.04,0.009,0.058,-0.012,-0.080
1169,0.0002,0.0017,-0.0039,-1.60,-0.05,0.04,0.009,-0.459,0.130,-0.143
1179,0.0002,-0.0048,-0.0039,-1.55,-0.05,0.04,0.009,-0.141,-0.153,0.195
1189,0.0003,-0.0050,-0.0036,-1.54,-0.05,0.03,0.008,-0.035,0.097,-0.126
1199,0.0004,-0.0053,-0.0036,-1.54,-0.05,0.03,0.008,0.067,-0.076,-0.076
1209,0.0005,-0.0057,-0.0081,-1.54,-0.06,0.03,0.008,-0.127,0.006,0.027
1219,0.0018,0.0057,-0.0082,-1.64,-0.07,0.03,0.008,-0.235,0.162,0.195
1229,0.0003,-0.0060,-0.0080,-1.54,-0.06,0.03,0.008,-0.069,-0.230,-0.005
1239,0.0003,0.0040,-0.0078,-1.62,-0.06,0.04,0.011,-0.067,-0.289,-0.340
1249,0.0001,-0.0056,-0.0075,-1.55,-0.06,0.04,0.011,-0.344,-0.183,0.438
1259,-0.0000,0.0011,-0.0029,-1.60,-0.06,0.04,0.011,-0.162,0.071,-0.176
1269,0.0026,-0.0084,-0.0028,-1.53,-0.08,0.04,0.011,-0.008,0.166,-0.088
1279,0.0000,-0.0067,-0.0028,-1.54,-0.05,0.04,0.011,0.038,-0.203,-0.265
1289,0.0001,-0.0026,-0.0028,-1.58,-0.05,0.04,0.007,-0.264,-0.098,-0.214
1299,0.0002,-0.0051,-0.0027,-1.56,-0.05,0.04,0.007,0.096,0.267,0.129
1309,-0.0012,-0.0001,-0.0082,-1.60,-0.04,0.04,0.007,-0.414,-0.112,0.074
1319,0.0037,-0.0014,-0.0083,-1.59,-0.08,0.04,0.007,-0.109,-0.282,0.165
1329,0.0009,-0.0014,-0.0082,-1.59,-0.06,0.04,0.007,0.135,-0.108,0.122
1339,-0.0005,0.0036,-0.0082,-1.63,-0.05,0.04,0.011,0.019,0.017,0.047
1349,0.0005,0.0032,-0.0081,-1.62,-0.06,0.04,0.011,0.008,-0.089,0.238
1359,0.0003,-0.0007,-0.0080,-1.59,-0.06,0.04,0.011,-0.214,-0.257,-0.060
1369,-0.0009,-0.0031,-0.0015,-1.57,-0.05,0.04,0.011,-0.282,-0.268,-0.203
1379,-0.0009,0.0043,-0.0015,-1.63,-0.05,0.04,0.011,-0.354,0.154,0.098
1389,-0.0008,-0.0058,-0.0013,-1.55,-0.05,0.04,0.010,-0.173,-0.034,-0.143
1399,-0.0020,-0.0055,-0.0011,-1.55,-0.04,0.04,0.010,0.029,-0.037,-0.112
1409,-0.0020,-0.0029,0.0004,-1.58,-0.04,0.04,0.010,-0.220,-0.082,0.176
1419,-0.0019,0.0031,0.0005,-1.62,-0.04,0.04,0.010,0.094,-0.269,0.023
1429,-0.0018,-0.0006,0.0006,-1.59,-0.04,0.04,0.010,0.140,-0.009,-0.068
1439,-0.0017,-0.0055,0.0008,-1.56,-0.04,0.04,0.010,-0.051,0.056,0.010
1449,-0.0018,0.0028,0.0008,-1.62,-0.04,0.04,0.012,-0.098,-0.088,-0.016
1459,0.0006,0.0028,0.0063,-1.62,-0.06,0.04,0.012,0.100,0.041,0.110
1469,-0.0006,0.0050,0.0065,-1.63,-0.05,0.04,0.012,-0.039,-0.091,0.017
1479,0.0004,-0.0032,0.0068,-1.57,-0.06,0.04,0.012,0.134,-0.076,0.113
0,0.0003,-0.0055,0.0068,-1.55,-0.06,0.04,0.012,0.102,-0.118,0.064
9,-0.0008,-0.0031,0.0070,-1.57,-0.05,0.04,0.012,-0.128,0.216,0.543
20,-0.0007,-0.0019,0.0093,-1.58,-0.05,0.05,0.012,0.178,0.153,0.043
30,-0.0008,-0.0065,0.0095,-1.54,-0.05,0.04,0.012,-0.812,-0.170,-0.524
40,-0.0008,-0.0028,0.0097,-1.57,-0.05,0.05,0.012,-1.297,-0.598,-1.062
50,-0.0006,0.0012,0.0103,-1.58,-0.05,0.05,0.012,0.398,-1.428,-1.018
59,-0.0005,0.0004,0.0102,-1.55,-0.05,0.05,0.008,1.590,-0.931,-0.962
69,0.0018,0.0018,0.0013,-1.54,-0.07,0.05,0.008,0.839,-0.491,-0.675
80,-0.0006,0.0157,0.0020,-1.63,-0.03,0.05,0.008,0.647,1.080,-1.495
90,-0.0006,0.0107,0.0016,-1.57,-0.02,0.05,0.008,1.919,-2.740,-0.305
100,-0.0029,0.0093,0.0015,-1.54,0.01,0.05,0.013,-2.121,-0.292,-1.982
109,0.0030,0.0148,0.0031,-1.56,-0.05,0.03,0.013,0.766,-2.754,-2.225
120,-0.0019,0.0167,0.0099,-1.54,0.02,0.03,0.013,-2.079,0.757,-1.190
130,-0.0018,0.0141,0.0098,-1.52,0.02,0.01,0.013,-8.102,2.156,1.764
139,0.0002,0.0180,0.0095,-1.51,0.03,-0.02,0.013,1.457,-7.068,0.182
150,0.0002,0.0246,0.0107,-1.58,0.02,-0.02,0.013,-4.116,-21.615,-0.558
160,0.0004,0.0212,0.0138,-1.60,-0.00,-0.01,0.010,-12.716,-15.589,0.592
170,0.0029,0.0281,0.0108,-1.62,0.07,-0.01,0.010,-5.421,-4.955,1.086
180,0.0005,0.0287,0.0098,-1.67,0.30,-0.01,0.010,-7.026,-17.444,4.611
190,-0.0014,0.0368,0.0108,-1.82,0.44,0.00,0.010,-0.373,-25.837,4.043
200,0.0176,0.0386,0.0158,-1.86,0.35,0.02,0.011,6.699,-29.219,6.174
209,0.0187,0.0473,0.0207,-1.95,0.52,0.06,0.011,7.106,-37.968,11.110
219,0.0153,0.0505,0.0274,-1.93,0.80,0.11,0.011,-0.435,-46.060,12.374
229,0.0156,0.0813,0.0368,-2.08,1.09,0.20,0.011,-9.062,-43.260,11.326
240,0.0121,0.0861,0.0517,-2.03,1.49,0.33,0.011,-12.095,-34.671,12.975
250,0.0094,0.1015,0.0660,-2.15,1.94,0.47,0.007,-11.228,-22.915,12.454
260,0.0029,0.1013,0.0842,-2.22,2.37,0.60,0.007,-16.359,-13.997,14.676
269,-0.0057,0.1060,0.1021,-2.34,2.71,0.74,0.007,-15.060,-14.052,9.890
279,-0.0185,0.1077,0.1059,-2.45,3.00,0.89,0.007,-12.331,-11.592,6.213
290,-0.0312,0.1118,0.1228,-2.62,3.18,1.03,0.007,-9.550,-9.031,5.741
299,-0.0473,0.1087,0.1407,-2.71,3.38,1.12,0.000,-2.921,-7.470,3.961
309,-0.0728,0.1243,0.1539,-2.92,3.63,1.20,0.000,8.199,-3.455,2.179
320,-0.0679,0.1095,0.1434,-2.86,3.63,1.24,0.000,15.963,-2.796,0.689
330,-0.1099,0.1306,0.1530,-3.00,3.94,1.30,0.000,22.192,2.492,-0.398
340,-0.1200,0.1343,0.1710,-2.89,4.00,1.31,0.000,21.433,15.424,-0.062
350,-0.0930,0.1163,0.2032,-2.53,3.75,1.29,0.005,22.319,20.511,0.079
359,-0.1018,0.1279,0.2169,-2.37,3.71,1.29,0.005,19.710,32.330,-0.955
369,-0.1236,0.1557,0.1876,-2.34,3.67,1.33,0.005,15.807,34.262,-1.633
380,-0.1310,0.1635,0.2033,-2.16,3.44,1.33,0.005,15.249,31.287,-1.670
389,-0.1503,0.1782,0.2139,-2.05,3.20,1.33,0.005,13.053,26.153,-2.441
400,-0.1529,0.1772,0.2305,-1.86,2.84,1.29,0.028,2.862,17.954,-2.122
409,-0.1224,0.1623,0.2587,-1.57,2.26,1.24,0.028,-2.930,9.266,-3.688
420,-0.1239,0.1613,0.2808,-1.42,1.99,1.20,0.028,-5.190,-0.098,-4.924
429,-0.1586,0.1794,0.2847,-1.53,2.07,1.19,0.028,-9.975,-5.839,-5.416
439,-0.1654,0.1832,0.2943,-1.57,2.03,1.15,0.028,-13.945,-1.102,-6.180
449,-0.1564,0.1773,0.3095,-1.56,1.95,1.08,0.048,-10.267,5.221,-5.098
459,-0.1601,0.1802,0.3179,-1.67,2.01,1.02,0.048,1.662,19.766,-3.345
469,-0.1676,0.1819,0.3351,-1.78,2.03,0.96,0.048,10.146,29.731,-2.355
480,-0.2004,0.2002,0.3310,-1.98,2.17,0.94,0.048,20.033,36.091,-2.318
489,-0.1975,0.1973,0.3378,-1.90,1.90,0.89,0.048,22.972,40.115,-3.064
499,-0.2002,0.2041,0.3397,-1.80,1.58,0.86,0.076,24.118,40.621,-1.888
510,-0.1893,0.1963,0.3494,-1.50,1.10,0.81,0.076,24.530,37.293,-2.348
519,-0.1968,0.2046,0.3856,-1.29,0.72,0.77,0.076,26.912,33.432,-1.888
529,-0.2024,0.2046,0.3864,-1.03,0.35,0.74,0.076,27.321,23.039,-2.026
539,-0.1959,0.2082,0.3884,-0.80,-0.07,0.72,0.076,26.975,12.160,-2.495
550,-0.1846,0.2012,0.3936,-0.46,-0.47,0.68,0.093,24.454,1.416,-2.085
559,-0.1841,0.2057,0.3925,-0.22,-0.67,0.67,0.093,22.142,-4.804,-1.750
569,-0.1779,0.1997,0.4016,0.11,-0.82,0.64,0.093,19.298,-9.860,-2.527
579,-0.1706,0.2000,0.4016,0.35,-0.87,0.62,0.093,16.851,-11.396,-2.655
589,-0.1581,0.1915,0.4029,0.63,-0.89,0.59,0.093,11.443,-8.883,-1.615
600,-0.1457,0.1822,0.4036,0.87,-0.87,0.56,0.114,6.573,-3.431,-1.085
609,-0.1479,0.1783,0.4000,1.04,-0.73,0.53,0.114,3.592,-0.048,-1.094
619,-0.1437,0.1760,0.4070,1.15,-0.69,0.51,0.114,-0.569,8.385,-1.460
629,-0.1394,0.1728,0.4025,1.21,-0.69,0.50,0.114,-2.717,11.461,-0.559
640,-0.1352,0.1670,0.3980,1.26,-0.73,0.49,0.114,-3.640,11.127,-2.277
649,-0.1274,0.1589,0.3937,1.29,-0.88,0.47,0.136,-2.555,12.200,-2.416
659,-0.1219,0.1556,0.3880,1.29,-1.02,0.45,0.136,-4.525,12.484,-2.218
669,-0.1205,0.1538,0.3834,1.26,-1.15,0.44,0.136,-1.976,10.507,-2.679
679,-0.1186,0.1518,0.3768,1.23,-1.28,0.42,0.136,-0.801,7.826,-2.370
689,-0.1107,0.1358,0.3720,1.29,-1.44,0.40,0.136,1.746,4.157,-2.451
699,-0.1021,0.1309,0.3661,1.30,-1.59,0.36,0.156,4.427,1.296,-2.286
709,-0.0969,0.1249,0.3591,1.33,-1.68,0.34,0.156,6.054,-2.899,-2.501
719,-0.0742,0.1180,0.3640,1.40,-1.87,0.29,0.156,7.112,-3.304,-1.940
729,-0.0851,0.1134,0.3564,1.46,-1.77,0.29,0.156,7.813,-6.139,-2.638
739,-0.0731,0.1056,0.3498,1.57,-1.81,0.26,0.156,7.103,-6.975,-2.374
750,-0.0458,0.0885,0.3440,1.75,-1.95,0.21,0.171,3.262,-6.957,-2.432
759,-0.0415,0.0853,0.3362,1.82,-1.90,0.18,0.171,3.561,-7.883,-1.632
769,-0.0414,0.0776,0.3203,1.92,-1.82,0.16,0.171,0.877,-7.850,-1.822
779,-0.0377,0.0708,0.3120,1.98,-1.75,0.14,0.171,-3.407,-6.629,-2.257
789,-0.0364,0.0672,0.3034,2.02,-1.66,0.12,0.171,-4.736,-4.182,-1.782
799,-0.0337,0.0640,0.2949,2.01,-1.59,0.10,0.186,-5.928,-4.774,-2.157
810,-0.0296,0.0559,0.2866,2.02,-1.54,0.08,0.186,-6.573,-4.540,-1.637
819,-0.0265,0.0492,0.2799,1.99,-1.50,0.07,0.186,-7.438,-3.708,-1.919
829,-0.0141,0.0409,0.2711,1.97,-1.53,0.03,0.186,-7.516,-3.303,-1.744
839,-0.0136,0.0381,0.2622,1.90,-1.48,0.02,0.186,-7.562,-2.962,-1.578
849,-0.0089,0.0335,0.2537,1.83,-1.47,-0.01,0.202,-5.817,-2.543,-1.799
859,-0.0044,0.0303,0.2453,1.76,-1.47,-0.03,0.202,-5.128,-3.405,-1.997
869,-0.0021,0.0326,0.2388,1.66,-1.44,-0.05,0.202,-3.671,-4.402,-1.524
879,0.0002,0.0299,0.2306,1.60,-1.41,-0.07,0.202,-2.357,-4.240,-2.237
889,0.0011,0.0270,0.2222,1.56,-1.36,-0.09,0.202,-1.440,-5.290,-2.070
899,0.0039,0.0240,0.2138,1.53,-1.31,-0.11,0.214,-2.792,-5.954,-1.782
909,0.0060,0.0216,0.2058,1.51,-1.27,-0.13,0.214,-1.678,-5.787,-1.622
919,0.0081,0.0191,0.2056,1.49,-1.22,-0.15,0.214,-3.097,-6.033,-1.718
929,0.0105,0.0164,0.1979,1.47,-1.16,-0.17,0.214,-4.435,-6.786,-2.102
940,0.0104,0.0126,0.1902,1.45,-1.09,-0.19,0.214,-4.957,-6.751,-1.928
949,0.0114,0.0078,0.1828,1.45,-1.02,-0.20,0.219,-3.466,-4.648,-1.811
959,0.0064,0.0068,0.1757,1.40,-0.92,-0.21,0.219,-5.297,-3.854,-1.130
969,0.0151,0.0038,0.1589,1.36,-0.92,-0.24,0.219,-4.960,-3.154,-1.816
979,0.0169,0.0042,0.1514,1.29,-0.88,-0.26,0.219,-5.619,-4.641,-1.679
989,0.0176,0.0001,0.1440,1.25,-0.84,-0.27,0.219,-6.599,-4.297,-1.984
999,0.0158,-0.0038,0.1370,1.21,-0.79,-0.28,0.226,-4.893,-2.064,-1.790
1009,0.0163,-0.0039,0.1303,1.14,-0.75,-0.30,0.226,-4.065,-2.828,-1.270
1019,0.0203,-0.0014,0.1214,1.06,-0.75,-0.33,0.226,-2.832,0.397,-1.543
1030,0.0208,-0.0002,0.1153,0.98,-0.73,-0.35,0.226,-4.823,-2.780,-0.826
1039,0.0200,-0.0086,0.1094,0.97,-0.69,-0.35,0.226,-6.656,-1.350,-0.630
1049,0.0182,-0.0098,0.1036,0.94,-0.66,-0.36,0.221,-1.721,1.503,-0.048
1059,0.0235,-0.0132,0.0979,0.91,-0.68,-0.37,0.221,-2.763,-2.774,-0.943
1069,0.0234,-0.0119,0.0643,0.85,-0.67,-0.38,0.221,3.088,-3.658,-0.762
1079,0.0190,-0.0127,0.0587,0.83,-0.64,-0.37,0.221,1.526,-6.714,-0.862
1089,0.0230,-0.0173,0.0537,0.84,-0.63,-0.38,0.221,4.378,-8.223,-0.928
1099,0.0230,-0.0173,0.0491,0.86,-0.58,-0.39,0.233,2.886,-9.284,-0.843
1109,0.0225,-0.0159,0.0446,0.86,-0.50,-0.40,0.233,3.688,-8.223,-0.669
1118,0.0246,0.0042,0.0463,0.75,-0.42,-0.44,0.233,3.845,-5.946,-0.419
1129,0.0275,0.0025,0.0427,0.79,-0.34,-0.45,0.233,2.806,-4.401,-0.092
1139,0.0341,-0.0252,0.0394,1.02,-0.31,-0.44,0.233,-1.728,-3.223,0.518
1149,0.0344,-0.0281,0.0356,1.05,-0.25,-0.44,0.223,-1.886,-0.856,0.293
1158,0.0348,-0.0298,0.0323,1.06,-0.21,-0.44,0.223,-3.039,-2.000,-0.350
1169,0.0334,-0.0315,0.0047,1.05,-0.18,-0.43,0.223,-2.196,0.039,-0.637
1179,0.0337,-0.0332,0.0024,1.03,-0.17,-0.44,0.223,-6.626,2.082,0.513
1189,0.0340,-0.0350,0.0000,0.99,-0.18,-0.44,0.223,-3.902,-3.428,-1.374
1199,0.0332,-0.0383,-0.0025,0.97,-0.19,-0.44,0.228,-8.509,-0.895,-1.075
1209,0.0341,-0.0379,-0.0044,0.90,-0.18,-0.45,0.228,-5.028,-0.337,-1.163
1219,0.0329,-0.0392,-0.0084,0.86,-0.15,-0.46,0.228,-3.541,-1.993,-0.941
1229,0.0331,-0.0407,-0.0099,0.79,-0.14,-0.47,0.228,-2.615,0.366,0.455
1239,0.0353,-0.0417,-0.0109,0.74,-0.15,-0.49,0.228,-5.395,0.993,-0.449
1249,0.0357,-0.0413,-0.0120,0.71,-0.13,-0.49,0.228,-3.465,2.131,-0.514
1259,0.0359,-0.0425,-0.0128,0.67,-0.15,-0.49,0.226,-2.852,2.134,-0.734
1269,0.0361,-0.0435,-0.0183,0.63,-0.17,-0.49,0.226,-1.258,2.736,-0.963
1279,0.0369,-0.0459,-0.0190,0.61,-0.19,-0.50,0.226,-2.688,0.592,-0.267
1288,0.0372,-0.0470,-0.0195,0.59,-0.20,-0.50,0.226,-2.101,0.488,0.032
1298,0.0375,-0.0480,-0.0199,0.58,-0.22,-0.51,0.229,1.069,1.411,0.373
1309,0.0379,-0.0490,-0.0203,0.56,-0.23,-0.51,0.229,-0.131,-0.525,0.404
1319,0.0369,-0.0512,-0.0149,0.55,-0.23,-0.50,0.229,0.946,-2.127,0.587
1329,0.0359,-0.0523,-0.0150,0.56,-0.22,-0.49,0.229,-0.080,-2.309,0.777
1338,0.0350,-0.0479,-0.0148,0.53,-0.20,-0.49,0.229,-1.283,-3.117,0.693
1349,0.0337,-0.0506,-0.0142,0.55,-0.17,-0.48,0.230,-2.404,-3.194,0.404
1359,0.0375,-0.0565,-0.0136,0.57,-0.17,-0.48,0.230,-0.694,-2.869,0.021
1369,0.0378,-0.0576,-0.0053,0.55,-0.14,-0.47,0.230,0.135,-2.822,0.327
1379,0.0379,-0.0578,-0.0048,0.53,-0.11,-0.47,0.230,2.417,-3.817,-0.258
1389,0.0362,-0.0583,-0.0042,0.52,-0.07,-0.46,0.230,-0.534,-0.021,0.240
1399,0.0381,-0.0571,-0.0036,0.52,-0.04,-0.46,0.230,-2.483,0.253,0.378
1408,0.0345,-0.0596,-0.0029,0.52,-0.00,-0.46,0.230,0.768,1.003,0.587
1419,0.0350,-0.0567,0.0023,0.49,0.00,-0.46,0.230,-2.669,0.531,1.288
1428,0.0350,-0.0576,0.0028,0.47,-0.01,-0.45,0.230,-6.286,0.477,2.084
1439,0.0356,-0.0564,0.0034,0.45,-0.02,-0.44,0.230,-6.433,0.115,1.297
1448,0.0344,-0.0564,0.0043,0.40,-0.02,-0.42,0.230,-0.144,-0.885,0.834
1458,0.0333,-0.0576,0.0052,0.34,-0.01,-0.41,0.230,0.544,-0.897,1.299
1468,0.0338,-0.0570,0.0086,0.29,-0.01,-0.39,0.230,-0.673,-0.606,1.544
1479,0.0342,-0.0555,0.0094,0.28,-0.00,-0.38,0.230,-4.985,0.680,2.637
1489,0.0328,-0.0574,0.0096,0.29,0.01,-0.37,0.230,-1.581,-0.064,2.107
1498,0.0328,-0.0579,0.0098,0.25,0.01,-0.35,0.229,0.608,1.457,1.754
1509,0.0368,-0.0591,0.0103,0.23,-0.01,-0.33,0.229,-3.294,0.910,2.857
1519,0.0338,-0.0588,0.0091,0.21,-0.00,-0.30,0.229,0.890,0.979,2.680
1528,0.0328,-0.0589,0.0095,0.20,-0.00,-0.28,0.229,0.471,-0.518,3.096
1538,0.0318,-0.0601,0.0096,0.20,-0.01,-0.25,0.229,-1.381,-0.427,3.268
1549,0.0325,-0.0602,0.0099,0.20,-0.01,-0.22,0.229,0.504,0.705,2.399
1559,0.0313,-0.0601,0.0104,0.19,-0.00,-0.19,0.229,0.669,0.708,3.140
1569,0.0301,-0.0616,0.0082,0.20,0.01,-0.16,0.229,2.343,2.329,2.859
1579,0.0301,-0.0620,0.0084,0.21,0.00,-0.13,0.229,1.527,3.568,3.402
1589,0.0308,-0.0620,0.0085,0.22,-0.01,-0.11,0.229,2.244,3.510,3.067
1599,0.0267,-0.0605,0.0088,0.23,-0.02,-0.07,0.231,1.252,3.170,3.480
1609,0.0267,-0.0609,0.0087,0.26,-0.05,-0.04,0.231,-0.484,1.592,3.264
1619,0.0297,-0.0595,0.0108,0.26,-0.10,-0.01,0.231,-0.950,1.966,3.407
1628,0.0299,-0.0599,0.0106,0.27,-0.13,0.02,0.231,-1.507,1.634,3.668
1639,0.0301,-0.0604,0.0103,0.26,-0.15,0.06,0.231,-2.065,0.076,3.478
1649,0.0304,-0.0608,0.0102,0.25,-0.17,0.09,0.232,-0.954,-0.224,3.754
1659,0.0307,-0.0612,0.0102,0.24,-0.18,0.13,0.232,-1.425,0.093,3.264
1669,0.0316,-0.0629,0.0128,0.24,-0.18,0.17,0.232,-2.478,-0.826,3.299
1679,0.0319,-0.0633,0.0131,0.22,-0.18,0.20,0.232,-0.960,0.013,3.826
1689,0.0348,-0.0628,0.0130,0.20,-0.19,0.23,0.232,-1.560,-2.736,2.921
1699,0.0352,-0.0632,0.0127,0.19,-0.19,0.27,0.232,-1.819,-1.622,3.377
1709,0.0340,-0.0627,0.0126,0.17,-0.17,0.30,0.232,-1.675,-1.891,2.981
1718,0.0343,-0.0630,0.0128,0.15,-0.15,0.33,0.232,-1.088,-4.055,2.784
1729,0.0346,-0.0633,0.0128,0.14,-0.13,0.36,0.232,-1.601,-3.386,2.664
1738,0.0348,-0.0635,0.0128,0.13,-0.10,0.39,0.232,-1.195,-3.716,2.612
1749,0.0347,-0.0607,0.0128,0.10,-0.06,0.42,0.232,-0.361,-1.639,2.408
1758,0.0329,-0.0621,0.0128,0.10,-0.01,0.44,0.236,-1.402,-2.597,2.155
1768,0.0330,-0.0595,0.0203,0.07,0.01,0.47,0.236,-0.795,-0.544,2.316
1779,0.0353,-0.0591,0.0202,0.05,0.02,0.49,0.236,-1.660,-1.762,2.177
1788,0.0296,-0.0586,0.0204,0.04,0.07,0.51,0.236,0.007,-0.581,2.033
1798,0.0321,-0.0600,0.0204,0.03,0.07,0.53,0.233,-0.802,1.473,2.775
1808,0.0305,-0.0594,0.0204,0.02,0.09,0.55,0.233,-1.195,-0.057,2.071
1818,0.0303,-0.0594,0.0160,0.01,0.09,0.58,0.233,-1.464,0.775,1.688
1829,0.0301,-0.0594,0.0155,-0.00,0.08,0.60,0.233,-0.855,1.672,1.759
1839,0.0300,-0.0594,0.0151,-0.01,0.07,0.62,0.233,-1.398,1.314,1.968
1848,0.0299,-0.0594,0.0149,-0.02,0.07,0.64,0.233,-1.625,-0.662,1.901
1858,0.0289,-0.0608,0.0146,-0.03,0.05,0.66,0.235,1.038,0.194,1.038
1868,0.0298,-0.0600,0.0139,-0.04,0.05,0.68,0.235,-0.305,0.298,0.776
1879,0.0304,-0.0572,0.0134,-0.06,0.05,0.69,0.235,-2.698,-0.700,0.503
1889,0.0253,-0.0551,0.0130,-0.07,0.07,0.70,0.235,-2.081,1.099,0.441
1898,0.0261,-0.0527,0.0126,-0.09,0.07,0.71,0.234,-2.074,0.046,0.676
1908,0.0268,-0.0501,0.0124,-0.13,0.06,0.72,0.234,-0.450,-0.660,0.973
1918,0.0267,-0.0498,0.0087,-0.15,0.05,0.72,0.234,-1.497,-0.763,1.576
1929,0.0275,-0.0492,0.0085,-0.17,0.06,0.73,0.234,-2.362,-1.361,1.044
1938,0.0274,-0.0489,0.0084,-0.17,0.07,0.74,0.234,-1.559,-1.345,0.983
1948,0.0273,-0.0486,0.0082,-0.18,0.08,0.75,0.234,1.318,-0.578,0.307
1958,0.0279,-0.0462,0.0082,-0.20,0.07,0.75,0.234,1.160,-1.077,0.527
1968,0.0285,-0.0457,0.0082,-0.21,0.09,0.76,0.234,2.090,-0.046,-0.090
1978,0.0272,-0.0456,0.0048,-0.21,0.10,0.77,0.234,1.448,1.534,-0.078
1988,0.0255,-0.0413,0.0042,-0.21,0.11,0.78,0.234,0.398,0.939,-0.162
1999,0.0253,-0.0409,0.0042,-0.21,0.10,0.78,0.239,-1.138,0.621,0.325
2008,0.0251,-0.0405,0.0040,-0.21,0.10,0.78,0.239,-0.943,-0.249,-0.159
2018,0.0252,-0.0406,0.0125,-0.21,0.10,0.78,0.239,-1.458,-0.806,0.119
2028,0.0282,-0.0384,0.0122,-0.22,0.07,0.78,0.239,-0.967,-0.579,0.102
2038,0.0247,-0.0360,0.0117,-0.22,0.10,0.77,0.239,-3.514,-0.550,0.639
2048,0.0247,-0.0360,0.0117,-0.22,0.10,0.77,0.232,-2.302,-1.999,0.401
2059,0.0234,-0.0359,0.0116,-0.23,0.11,0.77,0.232,-1.695,-2.244,-0.246
2068,0.0260,-0.0368,-0.0003,-0.28,0.11,0.78,0.232,-0.128,-2.072,-1.035
2078,0.0260,-0.0368,-0.0003,-0.28,0.11,0.78,0.232,-1.788,-2.669,-0.176
2088,0.0220,-0.0321,-0.0006,-0.32,0.17,0.78,0.232,1.247,0.400,-0.750
2098,0.0220,-0.0321,-0.0006,-0.32,0.17,0.78,0.236,3.640,0.272,-0.757
2108,0.0217,-0.0315,-0.0007,-0.33,0.20,0.77,0.236,1.802,-0.291,-0.930
2119,0.0214,-0.0310,0.0011,-0.33,0.21,0.77,0.236,-0.517,-0.531,-0.973
2128,0.0210,-0.0304,0.0008,-0.30,0.20,0.76,0.236,1.429,0.110,-1.201
2138,0.0207,-0.0299,0.0007,-0.27,0.21,0.75,0.236,0.214,1.675,-0.982
2148,0.0202,-0.0243,0.0014,-0.30,0.21,0.73,0.234,-1.606,1.068,-1.376
2158,0.0202,-0.0243,0.0014,-0.30,0.21,0.73,0.234,1.326,0.497,-0.809
2168,0.0233,-0.0222,-0.0014,-0.31,0.17,0.71,0.234,-0.909,0.288,-0.535
2178,0.0200,-0.0231,-0.0011,-0.29,0.18,0.70,0.234,1.163,-1.233,-1.143
2188,0.0200,-0.0231,-0.0011,-0.29,0.18,0.70,0.234,2.155,0.841,-1.349
2198,0.0197,-0.0226,-0.0010,-0.29,0.17,0.70,0.234,-0.562,-0.829,-1.387
2208,0.0152,-0.0160,-0.0005,-0.30,0.20,0.67,0.234,0.738,1.064,-1.586
2218,0.0152,-0.0160,-0.0023,-0.30,0.20,0.67,0.234,-1.273,-1.473,-1.849
2228,0.0162,-0.0145,-0.0021,-0.29,0.19,0.64,0.234,0.235,0.351,-1.719
2238,0.0162,-0.0145,-0.0021,-0.29,0.19,0.64,0.234,-0.179,-0.135,-1.543
2248,0.0159,-0.0140,-0.0016,-0.30,0.19,0.63,0.234,-1.383,-0.667,-1.772
2258,0.0127,-0.0129,-0.0010,-0.30,0.21,0.61,0.238,-0.763,-1.342,-0.897
2268,0.0140,-0.0119,0.0074,-0.31,0.21,0.59,0.238,1.492,-1.005,-1.572
2278,0.0136,-0.0113,0.0080,-0.31,0.21,0.58,0.238,0.762,-1.735,-1.784
2288,0.0133,-0.0108,0.0088,-0.31,0.22,0.57,0.238,1.744,-0.819,-1.645
2298,0.0129,-0.0103,0.0093,-0.31,0.23,0.56,0.236,1.771,-0.232,-1.608
2308,0.0094,-0.0096,0.0097,-0.31,0.27,0.54,0.236,2.215,-0.870,-2.190
2318,0.0089,-0.0090,0.0091,-0.29,0.28,0.52,0.236,0.877,-0.898,-1.805
2328,0.0091,-0.0081,0.0098,-0.26,0.29,0.48,0.236,2.901,-0.181,-1.876
2338,0.0081,-0.0054,0.0100,-0.25,0.30,0.46,0.236,1.937,-0.093,-1.954
2348,0.0081,-0.0054,0.0100,-0.25,0.30,0.46,0.237,2.706,0.997,-2.331
2358,0.0030,-0.0011,0.0100,-0.25,0.32,0.45,0.237,2.023,1.622,-2.531
2368,0.0086,-0.0030,0.0110,-0.20,0.28,0.43,0.237,1.960,2.727,-2.434
2377,0.0081,-0.0027,0.0113,-0.17,0.27,0.40,0.237,1.761,2.521,-2.846
2388,0.0014,-0.0007,0.0113,-0.16,0.29,0.38,0.237,0.682,1.875,-2.905
2398,-0.0007,-0.0007,0.0115,-0.14,0.28,0.35,0.234,-0.899,1.970,-2.504
2408,-0.0007,0.0013,0.0118,-0.14,0.25,0.33,0.234,0.595,2.585,-2.685
2418,-0.0011,0.0015,0.0045,-0.13,0.23,0.30,0.234,-0.292,-0.349,-2.131
2428,-0.0014,0.0039,0.0044,-0.15,0.18,0.25,0.234,0.634,-0.190,-2.186
2438,-0.0014,0.0039,0.0044,-0.15,0.18,0.25,0.234,-0.060,-0.777,-2.095
2448,-0.0018,0.0042,0.0046,-0.15,0.19,0.22,0.238,-0.169,-2.210,-2.213
2458,-0.0021,0.0044,0.0046,-0.15,0.19,0.20,0.238,1.217,-0.533,-1.892
2468,-0.0024,0.0047,0.0087,-0.14,0.20,0.18,0.238,1.239,0.954,-1.773
2478,-0.0027,0.0049,0.0088,-0.14,0.21,0.15,0.238,-0.464,-0.205,-1.593
2488,-0.0031,0.0092,0.0090,-0.16,0.21,0.13,0.238,1.756,-0.385,-1.771
2498,-0.0055,0.0087,0.0090,-0.15,0.23,0.12,0.237,1.213,-0.552,-1.247
2508,-0.0056,0.0108,0.0088,-0.15,0.22,0.10,0.237,2.228,-0.110,-1.704
2518,-0.0060,0.0110,0.0080,-0.14,0.23,0.08,0.237,1.712,-0.025,-1.806
2528,-0.0061,0.0127,0.0084,-0.13,0.23,0.07,0.237,3.267,2.111,-2.154
2538,-0.0065,0.0130,0.0091,-0.11,0.22,0.05,0.237,2.084,2.046,-2.216
2548,-0.0108,0.0145,0.0095,-0.10,0.24,0.03,0.237,2.570,2.589,-1.687
2558,-0.0112,0.0146,0.0098,-0.08,0.22,0.01,0.235,1.528,3.862,-1.678
2568,-0.0116,0.0148,0.0038,-0.05,0.19,-0.01,0.235,0.780,3.413,-1.470
2578,-0.0109,0.0158,0.0040,-0.03,0.17,-0.03,0.235,-0.130,3.754,-1.032
2588,-0.0112,0.0159,0.0043,-0.01,0.14,-0.04,0.235,0.905,2.003,-0.821
2598,-0.0149,0.0150,0.0045,0.01,0.13,-0.06,0.240,-1.272,0.258,-0.357
2607,-0.0151,0.0149,0.0045,0.01,0.10,-0.07,0.240,-2.095,1.327,-0.783
2618,-0.0153,0.0149,0.0118,0.01,0.07,-0.08,0.240,-0.001,-0.243,-1.259
2628,-0.0192,0.0140,0.0119,0.00,0.08,-0.09,0.240,0.408,0.487,-0.561
2638,-0.0194,0.0140,0.0121,0.01,0.07,-0.10,0.240,1.809,2.050,-1.034
2648,-0.0208,0.0137,0.0124,0.01,0.07,-0.10,0.240,1.153,0.894,-0.746
2658,-0.0245,0.0175,0.0127,-0.02,0.08,-0.11,0.238,0.154,1.259,-0.437
2667,-0.0209,0.0186,0.0113,-0.02,0.04,-0.12,0.238,0.231,1.250,-0.394
2677,-0.0221,0.0177,0.0114,-0.00,0.03,-0.12,0.238,0.470,1.813,-0.469
2688,-0.0168,0.0127,0.0113,0.03,-0.02,-0.13,0.238,2.139,1.624,-1.085
2698,-0.0178,0.0184,0.0112,0.01,-0.02,-0.13,0.234,2.308,1.392,-1.030
2707,-0.0188,0.0176,0.0111,0.03,-0.04,-0.14,0.234,-0.260,0.634,-0.192
2717,-0.0177,0.0185,0.0002,0.03,-0.06,-0.15,0.234,1.387,3.008,-0.162
2728,-0.0187,0.0212,0.0002,0.03,-0.07,-0.16,0.234,3.053,2.427,-1.252
2737,-0.0186,0.0212,0.0004,0.03,-0.07,-0.16,0.234,1.740,2.569,-0.711
2747,-0.0185,0.0211,0.0005,0.04,-0.09,-0.16,0.234,0.113,2.038,-0.088
2758,-0.0183,0.0210,0.0004,0.07,-0.12,-0.17,0.235,0.910,2.542,-0.129
2767,-0.0168,0.0240,-0.0037,0.07,-0.15,-0.17,0.235,-3.401,0.348,0.362
2777,-0.0166,0.0239,-0.0036,0.07,-0.18,-0.17,0.235,0.088,0.269,0.284
2787,-0.0163,0.0237,-0.0035,0.07,-0.21,-0.17,0.235,3.658,-1.220,-0.531
2798,-0.0150,0.0252,-0.0034,0.05,-0.23,-0.17,0.234,1.697,-1.454,-0.337
2808,-0.0146,0.0251,-0.0029,0.05,-0.24,-0.17,0.234,1.762,-2.880,-0.141
2818,-0.0160,0.0254,-0.0065,0.08,-0.21,-0.17,0.234,3.454,-2.452,-0.263
2828,-0.0174,0.0281,-0.0059,0.07,-0.19,-0.17,0.234,1.708,-0.007,0.547
2838,-0.0168,0.0223,-0.0052,0.13,-0.16,-0.18,0.234,1.163,-0.377,-0.094
2848,-0.0142,0.0227,-0.0046,0.16,-0.15,-0.18,0.234,2.314,-0.190,0.029
2857,-0.0133,0.0254,-0.0041,0.16,-0.15,-0.17,0.235,0.128,0.507,0.264
2868,-0.0187,0.0240,-0.0036,0.17,-0.11,-0.17,0.235,-1.583,0.724,1.282
2877,-0.0198,0.0224,-0.0029,0.18,-0.10,-0.17,0.235,1.141,0.674,0.605
2887,-0.0196,0.0221,-0.0023,0.18,-0.10,-0.17,0.235,-1.476,-0.654,0.603
2897,-0.0194,0.0217,-0.0015,0.19,-0.11,-0.16,0.236,2.187,-1.041,-0.367
2908,-0.0204,0.0223,-0.0006,0.18,-0.11,-0.15,0.236,0.037,-0.110,-0.118
2917,-0.0202,0.0220,0.0026,0.18,-0.11,-0.15,0.236,1.015,0.453,0.486
2927,-0.0193,0.0226,0.0032,0.19,-0.11,-0.15,0.236,1.318,1.634,0.243
2937,-0.0191,0.0222,0.0040,0.19,-0.10,-0.15,0.236,0.324,1.003,0.557
2947,-0.0189,0.0219,0.0046,0.19,-0.11,-0.14,0.241,2.017,0.648,0.230
2957,-0.0187,0.0216,0.0053,0.20,-0.12,-0.14,0.241,2.216,-0.097,0.018
2968,-0.0196,0.0199,0.0184,0.21,-0.13,-0.14,0.241,-0.166,-0.569,0.180
2978,-0.0206,0.0184,0.0192,0.24,-0.13,-0.13,0.241,0.886,0.073,-0.159
2987,-0.0167,0.0184,0.0199,0.26,-0.15,-0.13,0.241,-1.368,0.755,0.456
2997,-0.0165,0.0180,0.0206,0.26,-0.15,-0.13,0.239,-1.785,0.699,0.065
3007,-0.0175,0.0170,0.0213,0.27,-0.14,-0.13,0.239,-1.017,0.939,0.601
3017,-0.0172,0.0165,0.0221,0.26,-0.15,-0.13,0.239,-2.107,-0.226,0.638
3028,-0.0181,0.0136,0.0225,0.26,-0.15,-0.13,0.239,-0.927,0.884,0.434
3037,-0.0149,0.0147,0.0228,0.24,-0.17,-0.12,0.239,-1.895,-0.960,0.925
3047,-0.0200,0.0120,0.0228,0.24,-0.15,-0.12,0.239,1.455,0.639,0.912
3057,-0.0169,0.0113,0.0229,0.22,-0.17,-0.11,0.239,1.951,-1.352,1.030
3067,-0.0166,0.0109,0.0209,0.21,-0.16,-0.11,0.239,2.829,-0.725,1.036
3077,-0.0164,0.0105,0.0212,0.22,-0.17,-0.10,0.239,0.853,-1.042,0.262
3087,-0.0161,0.0101,0.0212,0.23,-0.16,-0.09,0.239,1.486,0.648,0.068
3097,-0.0158,0.0097,0.0211,0.26,-0.15,-0.08,0.237,0.940,0.363,0.812
3107,-0.0129,0.0087,0.0209,0.28,-0.15,-0.07,0.237,0.735,1.035,0.599
3117,-0.0127,0.0082,0.0125,0.28,-0.15,-0.07,0.237,-0.824,-0.952,0.802
3127,-0.0140,0.0072,0.0119,0.30,-0.15,-0.07,0.237,0.257,-0.183,0.530
3137,-0.0137,0.0067,0.0116,0.30,-0.16,-0.06,0.237,-1.585,-0.447,0.163
3147,-0.0134,0.0062,0.0114,0.30,-0.16,-0.05,0.242,-1.887,-0.019,0.127
3157,-0.0104,0.0054,0.0113,0.30,-0.18,-0.05,0.242,-1.456,-1.404,-0.379
3167,-0.0119,0.0049,0.0160,0.29,-0.16,-0.04,0.242,-1.959,-0.012,0.238
3177,-0.0116,0.0044,0.0159,0.27,-0.16,-0.04,0.242,-3.696,-0.257,0.044
3187,-0.0114,0.0040,0.0157,0.25,-0.15,-0.04,0.242,-2.679,1.143,0.385
3197,-0.0111,0.0035,0.0153,0.23,-0.15,-0.04,0.240,-2.471,0.498,0.008
3207,-0.0104,0.0014,0.0152,0.21,-0.15,-0.04,0.240,-3.495,-1.143,0.182
3217,-0.0101,0.0011,0.0120,0.18,-0.16,-0.04,0.240,-2.164,-1.459,-0.130
3228,-0.0115,0.0012,0.0121,0.16,-0.16,-0.04,0.240,-1.048,-1.452,-0.602
3237,-0.0066,0.0015,0.0122,0.12,-0.17,-0.04,0.240,0.706,0.193,-0.044
3247,-0.0063,0.0013,0.0120,0.11,-0.16,-0.04,0.239,-1.633,-0.065,-0.414
3257,-0.0060,-0.0010,0.0118,0.11,-0.14,-0.05,0.239,0.158,0.681,-0.075
3267,-0.0010,-0.0036,0.0117,0.12,-0.17,-0.05,0.239,0.993,-0.348,-0.438
3277,-0.0028,-0.0032,0.0062,0.11,-0.15,-0.05,0.239,-1.879,-1.058,0.834
3287,-0.0002,-0.0078,0.0060,0.13,-0.17,-0.05,0.239,0.685,-3.070,-0.217
3297,0.0001,-0.0080,0.0060,0.14,-0.16,-0.05,0.239,-1.223,-1.300,0.105
3307,0.0004,-0.0083,0.0060,0.12,-0.15,-0.05,0.239,1.476,-1.443,-0.449
3317,0.0007,-0.0085,0.0021,0.13,-0.12,-0.05,0.239,-1.488,-2.448,-0.443
3327,0.0006,-0.0103,0.0021,0.13,-0.10,-0.06,0.239,-2.348,-1.304,-0.187
3337,0.0004,-0.0126,0.0021,0.15,-0.08,-0.06,0.239,-2.221,-0.351,-0.037
3347,0.0000,-0.0142,0.0022,0.14,-0.05,-0.06,0.240,-1.654,-1.504,-0.383
3357,0.0001,-0.0144,0.0024,0.12,-0.03,-0.07,0.240,-2.097,-0.828,-0.492
3367,0.0002,-0.0146,0.0022,0.10,-0.02,-0.07,0.240,-2.183,-0.670,-0.564
3377,-0.0001,-0.0115,0.0024,0.06,-0.00,-0.07,0.240,-1.333,-1.210,-0.548
3387,-0.0002,-0.0152,0.0025,0.06,0.01,-0.08,0.240,-0.691,-0.320,-0.517
3397,-0.0003,-0.0153,0.0028,0.04,0.02,-0.08,0.241,-0.580,-0.263,-0.623
3407,-0.0003,-0.0154,0.0029,0.03,0.03,-0.09,0.241,-1.455,-0.021,-0.558
3417,-0.0003,-0.0154,0.0046,0.02,0.04,-0.10,0.241,-0.141,0.098,-0.336
3427,-0.0004,-0.0154,0.0044,0.01,0.04,-0.10,0.241,-0.781,-0.339,-0.333
3437,-0.0005,-0.0154,0.0044,-0.01,0.04,-0.11,0.241,-0.590,-0.825,-0.172
3447,-0.0005,-0.0154,0.0043,-0.01,0.04,-0.11,0.239,-1.066,-0.850,-0.249
3457,-0.0033,-0.0196,0.0042,-0.00,0.06,-0.12,0.239,-1.145,-0.514,-0.623
3467,-0.0034,-0.0196,0.0005,-0.00,0.07,-0.12,0.239,-0.331,0.654,-0.379
3477,-0.0032,-0.0172,0.0010,-0.03,0.07,-0.12,0.239,0.121,-0.914,-0.231
3487,-0.0033,-0.0172,0.0015,-0.04,0.08,-0.13,0.239,-1.165,1.197,-0.348
3497,-0.0010,-0.0199,0.0019,-0.03,0.06,-0.13,0.239,0.037,-0.077,-0.335
3508,-0.0011,-0.0199,0.0019,-0.03,0.07,-0.13,0.239,-2.619,0.399,-0.718
3517,-0.0035,-0.0166,-0.0006,-0.06,0.07,-0.14,0.239,-0.686,1.058,-0.439
3527,-0.0037,-0.0165,-0.0006,-0.06,0.07,-0.14,0.239,-0.432,-0.694,-0.969
3537,-0.0011,-0.0209,-0.0004,-0.06,0.05,-0.15,0.239,-1.084,-0.719,-0.600
3547,-0.0012,-0.0208,0.0000,-0.07,0.04,-0.15,0.239,-3.936,0.461,-0.926
3557,-0.0014,-0.0186,0.0005,-0.09,0.05,-0.16,0.241,-3.579,0.917,-0.314
3567,-0.0015,-0.0184,0.0038,-0.10,0.05,-0.17,0.241,-0.622,0.440,-0.142
3577,-0.0016,-0.0183,0.0042,-0.14,0.05,-0.18,0.241,-2.589,-0.723,-0.327
3587,-0.0014,-0.0187,0.0047,-0.17,0.04,-0.18,0.241,-1.692,-0.746,0.105
3597,-0.0015,-0.0184,0.0052,-0.18,0.04,-0.18,0.243,-1.400,-0.706,-0.333
3607,-0.0016,-0.0189,0.0055,-0.20,0.04,-0.18,0.243,1.152,-0.996,-0.988
3617,-0.0018,-0.0185,0.0112,-0.21,0.05,-0.18,0.243,0.043,0.000,-0.727
3627,-0.0018,-0.0182,0.0115,-0.22,0.06,-0.19,0.243,2.135,0.235,-0.855
3637,-0.0019,-0.0178,0.0120,-0.22,0.06,-0.19,0.243,-0.332,-0.364,-0.215
3646,-0.0020,-0.0188,0.0123,-0.21,0.06,-0.20,0.242,0.513,1.256,-0.240
3657,-0.0020,-0.0159,0.0128,-0.21,0.06,-0.21,0.242,0.202,0.989,-0.969
3667,-0.0021,-0.0155,0.0125,-0.21,0.06,-0.22,0.242,0.006,0.669,-0.514
3677,-0.0016,-0.0140,0.0126,-0.21,0.05,-0.22,0.242,0.176,0.214,-0.599
3687,-0.0017,-0.0137,0.0129,-0.21,0.04,-0.23,0.242,-0.285,-0.151,-0.193
3697,-0.0018,-0.0133,0.0132,-0.21,0.03,-0.23,0.244,0.632,0.362,-0.572
3706,-0.0018,-0.0130,0.0131,-0.21,0.02,-0.24,0.244,-1.547,0.178,-0.897
3717,-0.0019,-0.0142,0.0160,-0.20,0.02,-0.24,0.244,-1.106,0.470,-0.462
3727,-0.0019,-0.0112,0.0159,-0.21,0.02,-0.24,0.244,-1.257,0.893,-0.647
3737,-0.0018,-0.0121,0.0160,-0.22,0.02,-0.25,0.244,-1.169,0.386,0.007
3747,-0.0019,-0.0118,0.0165,-0.22,0.01,-0.26,0.244,-1.311,-0.400,-0.548
3757,-0.0019,-0.0114,0.0166,-0.23,0.01,-0.26,0.244,0.516,0.327,-0.591
3767,-0.0060,-0.0102,0.0164,-0.24,0.02,-0.27,0.244,0.090,0.948,-0.688
3777,-0.0059,-0.0133,0.0163,-0.23,0.02,-0.27,0.244,-0.438,0.532,-0.202
3787,-0.0016,-0.0105,0.0161,-0.24,-0.00,-0.28,0.244,-0.343,-0.737,-0.925
3797,-0.0016,-0.0101,0.0161,-0.25,-0.00,-0.28,0.240,0.017,-0.289,-0.793
3806,-0.0014,-0.0068,0.0160,-0.27,-0.00,-0.29,0.240,2.450,0.822,-1.747
3816,-0.0014,-0.0064,0.0045,-0.26,0.00,-0.30,0.240,0.376,2.517,-1.237
3827,-0.0014,-0.0059,0.0041,-0.26,-0.00,-0.31,0.240,0.907,1.274,-1.332
3837,-0.0014,-0.0055,0.0036,-0.24,-0.01,-0.32,0.240,0.516,1.452,-0.912
3847,-0.0051,-0.0093,0.0034,-0.21,-0.01,-0.33,0.243,0.651,-0.941,-0.830
3857,-0.0051,-0.0090,0.0032,-0.21,-0.02,-0.35,0.243,0.948,0.479,-0.980
3867,-0.0046,-0.0062,0.0029,-0.21,-0.04,-0.36,0.243,0.740,0.287,-0.965
3877,-0.0045,-0.0079,0.0028,-0.20,-0.04,-0.37,0.243,1.262,-0.449,-1.166
3887,-0.0064,-0.0074,0.0027,-0.18,-0.03,-0.38,0.243,0.086,0.720,-1.140
3897,-0.0038,-0.0070,0.0030,-0.17,-0.05,-0.39,0.244,0.330,-0.515,-1.590
3907,-0.0037,-0.0067,0.0032,-0.17,-0.05,-0.40,0.244,-0.192,0.628,-1.115
3916,-0.0037,-0.0064,0.0051,-0.16,-0.06,-0.41,0.244,-1.478,-0.997,-0.987
3926,-0.0076,-0.0056,0.0050,-0.17,-0.03,-0.43,0.244,-1.128,1.305,-0.464
3937,-0.0076,-0.0053,0.0052,-0.17,-0.04,-0.44,0.244,-2.131,-0.616,-0.561
3947,-0.0053,-0.0045,0.0053,-0.19,-0.05,-0.44,0.242,1.192,-0.897,-1.064
3956,-0.0052,-0.0042,0.0052,-0.21,-0.05,-0.45,0.242,-1.018,-0.364,-0.390
3967,-0.0051,-0.0038,0.0017,-0.23,-0.05,-0.46,0.242,-1.107,-1.296,-0.582
3978,-0.0050,-0.0034,0.0020,-0.23,-0.04,-0.47,0.242,-0.619,-0.803,-1.142
3986,-0.0050,-0.0031,0.0020,-0.24,-0.03,-0.47,0.242,0.586,-0.260,-1.020
3996,-0.0049,-0.0026,0.0021,-0.25,-0.02,-0.48,0.242,1.125,-0.495,-0.795
4007,-0.0049,-0.0022,0.0021,-0.25,-0.01,-0.49,0.242,1.486,0.525,-0.818
4017,-0.0048,-0.0018,-0.0002,-0.25,-0.01,-0.50,0.242,0.860,2.813,-0.448
4027,-0.0048,-0.0014,-0.0001,-0.24,-0.02,-0.51,0.242,0.785,1.514,-0.319
4037,-0.0045,-0.0036,0.0001,-0.22,-0.02,-0.52,0.242,0.036,1.703,-0.110
4047,-0.0044,-0.0032,0.0002,-0.21,-0.04,-0.52,0.242,-2.665,2.145,0.425
4056,-0.0044,-0.0029,0.0002,-0.21,-0.05,-0.53,0.245,0.227,0.492,-0.213
4066,-0.0043,-0.0025,0.0054,-0.21,-0.06,-0.53,0.245,0.025,-0.130,-0.340
4077,-0.0042,-0.0022,0.0056,-0.22,-0.07,-0.53,0.245,-2.009,-0.122,0.469
4087,-0.0040,-0.0018,0.0059,-0.21,-0.08,-0.53,0.245,1.523,-0.629,0.158
4096,-0.0037,0.0016,0.0065,-0.22,-0.09,-0.53,0.244,-0.714,0.132,0.539
4106,-0.0059,0.0025,0.0067,-0.24,-0.08,-0.53,0.244,-0.997,-1.142,0.218
4117,-0.0057,0.0029,0.0069,-0.23,-0.08,-0.53,0.244,-1.549,-1.398,0.327
4126,-0.0056,0.0033,0.0070,-0.24,-0.08,-0.52,0.244,-1.501,0.720,0.393
4137,-0.0055,0.0037,0.0071,-0.25,-0.07,-0.52,0.244,-1.376,0.144,0.751
4147,-0.0027,0.0043,0.0072,-0.26,-0.07,-0.52,0.247,-1.574,-0.787,0.905
4156,-0.0049,0.0048,0.0076,-0.27,-0.06,-0.51,0.247,-0.343,0.979,0.568
4166,-0.0048,0.0052,0.0139,-0.28,-0.06,-0.51,0.247,1.174,0.593,0.079
4177,-0.0047,0.0057,0.0143,-0.29,-0.05,-0.50,0.247,0.649,0.616,0.480
4187,-0.0014,0.0060,0.0145,-0.29,-0.07,-0.49,0.247,3.044,2.099,0.699
4197,-0.0013,0.0065,0.0146,-0.29,-0.08,-0.49,0.244,2.580,1.153,0.531
4207,-0.0037,0.0065,0.0147,-0.28,-0.07,-0.48,0.244,2.111,0.841,0.265
4216,-0.0000,0.0076,0.0100,-0.26,-0.11,-0.48,0.244,1.628,-0.135,-0.081
4226,0.0002,0.0081,0.0099,-0.23,-0.12,-0.47,0.244,0.519,0.881,0.616
4237,0.0004,0.0085,0.0097,-0.21,-0.14,-0.47,0.244,1.672,1.903,0.654
4247,0.0006,0.0088,0.0095,-0.19,-0.14,-0.47,0.244,1.383,1.169,0.178
4256,-0.0016,0.0085,0.0095,-0.19,-0.14,-0.46,0.242,1.708,-0.320,-0.201
4266,-0.0014,0.0088,0.0003,-0.18,-0.16,-0.46,0.242,0.944,-2.416,0.328
4277,-0.0011,0.0091,0.0003,-0.16,-0.16,-0.45,0.242,0.886,-2.887,-0.101
4287,-0.0008,0.0094,0.0001,-0.14,-0.16,-0.45,0.242,-1.445,-0.718,0.606
4297,-0.0005,0.0096,-0.0002,-0.14,-0.14,-0.45,0.245,1.083,-0.512,0.324
4307,0.0018,0.0148,-0.0003,-0.16,-0.12,-0.45,0.245,-0.967,-1.373,0.357
4317,0.0018,0.0092,0.0014,-0.15,-0.12,-0.45,0.245,-0.933,-0.653,0.552
4326,0.0017,0.0143,0.0012,-0.17,-0.11,-0.44,0.245,-1.066,-0.084,0.776
4336,0.0016,0.0114,0.0011,-0.16,-0.09,-0.44,0.245,-0.505,-0.916,0.344
4346,0.0017,0.0117,0.0011,-0.17,-0.09,-0.43,0.245,-0.069,-0.685,0.725
4356,0.0017,0.0092,0.0013,-0.17,-0.08,-0.42,0.243,-0.054,-1.282,0.566
4367,0.0017,0.0140,-0.0022,-0.19,-0.08,-0.42,0.243,1.380,1.273,0.364
4376,0.0019,0.0143,-0.0019,-0.19,-0.08,-0.41,0.243,0.898,0.055,0.088
4386,0.0041,0.0140,-0.0018,-0.18,-0.08,-0.41,0.243,2.072,-0.711,0.509
4396,0.0042,0.0143,-0.0019,-0.18,-0.08,-0.40,0.245,0.165,1.687,0.630
4407,0.0043,0.0146,-0.0019,-0.17,-0.09,-0.40,0.245,1.753,-1.565,0.701
4416,0.0045,0.0149,0.0007,-0.16,-0.08,-0.40,0.245,0.182,-0.313,0.893
4426,0.0073,0.0168,0.0008,-0.17,-0.11,-0.39,0.245,1.221,-2.882,0.315
4436,0.0075,0.0171,0.0011,-0.16,-0.09,-0.39,0.245,0.173,-0.142,1.129
4446,0.0077,0.0174,0.0017,-0.16,-0.08,-0.38,0.245,-0.596,-1.228,0.365
4456,0.0078,0.0177,0.0021,-0.16,-0.06,-0.37,0.244,-0.174,-2.173,0.674
4466,0.0079,0.0180,0.0014,-0.16,-0.04,-0.36,0.244,-0.173,-0.916,1.162
4476,0.0080,0.0182,0.0016,-0.16,-0.03,-0.36,0.244,0.064,-1.558,0.692
4486,0.0072,0.0203,0.0018,-0.17,0.00,-0.36,0.244,-0.650,0.272,0.924
4496,0.0072,0.0206,0.0020,-0.17,0.01,-0.34,0.243,-0.731,0.081,1.111
4506,0.0072,0.0209,0.0022,-0.16,0.03,-0.34,0.243,0.550,1.414,1.296
4516,0.0071,0.0212,-0.0005,-0.17,0.03,-0.33,0.243,0.264,0.762,1.617
4526,0.0071,0.0214,-0.0006,-0.17,0.03,-0.32,0.243,2.358,0.294,0.734
4536,0.0099,0.0203,-0.0005,-0.16,0.01,-0.30,0.243,0.900,-0.525,1.164
4546,0.0099,0.0206,-0.0002,-0.16,-0.00,-0.29,0.243,-0.508,-1.209,0.993
4556,0.0099,0.0209,0.0001,-0.15,-0.00,-0.28,0.245,3.107,-1.038,1.036
4566,0.0092,0.0284,0.0031,-0.17,0.01,-0.27,0.245,0.354,-1.882,0.380
4576,0.0092,0.0287,0.0035,-0.17,0.02,-0.26,0.245,1.935,-2.662,0.809
4586,0.0054,0.0205,0.0036,-0.09,0.05,-0.26,0.245,0.549,-1.385,0.080
4596,0.0104,0.0222,0.0037,-0.08,0.04,-0.25,0.244,0.869,-0.903,0.624
4606,0.0119,0.0208,0.0036,-0.06,0.05,-0.25,0.244,-0.422,0.139,0.649
4616,0.0082,0.0171,0.0025,-0.04,0.08,-0.25,0.244,-0.779,-0.420,1.097
4626,0.0073,0.0291,0.0024,-0.10,0.09,-0.24,0.244,-0.175,0.158,0.620
4636,0.0068,0.0152,0.0024,-0.04,0.10,-0.23,0.244,1.499,-0.080,0.351
4646,0.0066,0.0152,0.0024,-0.04,0.11,-0.22,0.244,-0.601,0.478,0.912
4657,0.0086,0.0221,0.0026,-0.08,0.10,-0.22,0.244,1.066,0.862,0.362
4666,0.0080,0.0257,0.0019,-0.10,0.10,-0.21,0.244,0.056,1.557,0.394
4676,0.0078,0.0259,0.0023,-0.10,0.09,-0.21,0.244,0.667,1.503,0.563
4687,0.0074,0.0198,0.0027,-0.06,0.09,-0.20,0.244,0.422,2.161,1.097
4696,0.0073,0.0199,0.0027,-0.06,0.08,-0.19,0.242,-1.672,1.425,1.568
4706,0.0071,0.0200,0.0027,-0.06,0.06,-0.19,0.242,-0.973,0.364,2.211
4716,0.0070,0.0165,-0.0025,-0.04,0.05,-0.18,0.242,-1.607,0.001,1.312
4726,0.0070,0.0182,-0.0027,-0.05,0.03,-0.16,0.242,0.985,-1.167,0.436
4736,0.0069,0.0183,-0.0031,-0.05,0.03,-0.14,0.242,1.062,-1.835,0.236
4746,0.0068,0.0202,-0.0032,-0.06,0.03,-0.13,0.243,-0.193,-0.525,1.117
4756,0.0062,0.0144,-0.0030,-0.02,0.05,-0.12,0.243,0.102,-2.291,1.031
4766,0.0056,0.0229,-0.0033,-0.06,0.07,-0.12,0.243,-0.941,-0.850,0.146
4776,0.0055,0.0230,-0.0031,-0.06,0.07,-0.11,0.243,0.521,-0.523,0.947
4786,0.0046,0.0245,-0.0031,-0.07,0.10,-0.11,0.243,-0.538,-0.089,1.263
4796,0.0044,0.0246,-0.0029,-0.08,0.11,-0.10,0.245,-1.104,0.555,1.503
4806,0.0042,0.0247,-0.0027,-0.07,0.11,-0.09,0.245,-2.738,-0.344,1.549
4816,0.0062,0.0262,0.0018,-0.08,0.10,-0.08,0.245,-0.020,0.793,0.747
4826,0.0060,0.0264,0.0020,-0.09,0.09,-0.07,0.245,0.460,-0.479,0.940
4836,0.0059,0.0265,0.0022,-0.11,0.09,-0.05,0.245,-0.297,0.261,0.956
4845,0.0057,0.0267,0.0024,-0.11,0.08,-0.04,0.245,2.433,-0.236,0.204
4856,0.0052,0.0278,0.0025,-0.10,0.09,-0.04,0.242,4.481,0.216,-0.166
4866,0.0050,0.0280,-0.0017,-0.09,0.09,-0.03,0.242,2.719,-0.246,1.199
4876,0.0071,0.0263,-0.0013,-0.05,0.08,-0.03,0.242,4.078,-0.400,1.096
4886,0.0069,0.0264,-0.0011,-0.01,0.08,-0.02,0.242,1.140,-1.040,1.166
4895,0.0064,0.0269,-0.0010,0.02,0.08,-0.01,0.244,-0.629,-0.618,1.274
4906,0.0082,0.0248,-0.0010,0.06,0.08,0.00,0.244,1.943,-2.009,0.551
4916,0.0075,0.0257,0.0011,0.07,0.08,0.01,0.244,0.382,-2.115,-0.108
4926,0.0047,0.0268,0.0015,0.06,0.10,0.02,0.244,-2.380,-0.419,0.096
4936,0.0061,0.0230,0.0017,0.08,0.11,0.03,0.244,1.267,-0.394,-0.290
4946,0.0059,0.0229,0.0019,0.08,0.13,0.03,0.242,-2.762,-0.342,-0.326
4956,0.0032,0.0244,0.0022,0.06,0.14,0.03,0.242,-1.765,0.138,0.495
4966,0.0029,0.0242,-0.0009,0.06,0.15,0.03,0.242,-3.721,-0.160,0.600
4975,0.0003,0.0236,-0.0005,0.04,0.16,0.03,0.242,-0.697,0.086,0.711
4986,0.0022,0.0228,-0.0002,0.04,0.15,0.03,0.242,-0.778,0.334,0.873
4996,0.0019,0.0228,0.0005,0.02,0.15,0.04,0.243,0.891,-0.947,0.439
5006,0.0017,0.0227,0.0008,0.00,0.14,0.04,0.243,2.714,-0.140,0.257
5015,-0.0009,0.0218,0.0012,0.01,0.16,0.05,0.243,3.999,1.227,-0.222
5026,-0.0012,0.0218,0.0015,0.02,0.16,0.06,0.243,4.807,1.318,-0.416
5036,-0.0037,0.0225,0.0017,0.04,0.17,0.06,0.243,3.919,1.116,0.555
5045,-0.0040,0.0225,0.0020,0.08,0.16,0.05,0.245,4.099,1.249,0.266
5056,-0.0016,0.0204,0.0022,0.13,0.14,0.05,0.245,-0.497,0.553,0.597
5066,-0.0018,0.0202,0.0070,0.16,0.12,0.05,0.245,-0.798,1.736,0.690
5076,-0.0064,0.0206,0.0073,0.18,0.13,0.06,0.245,-0.602,-0.331,1.296
5086,-0.0039,0.0195,0.0073,0.19,0.11,0.06,0.245,-0.151,-1.091,0.323
5095,-0.0041,0.0192,0.0074,0.19,0.09,0.07,0.243,0.260,-0.223,0.434
5105,-0.0064,0.0182,0.0076,0.19,0.10,0.08,0.243,-1.001,-1.846,-0.309
5116,-0.0066,0.0178,0.0053,0.17,0.10,0.09,0.243,0.423,-0.107,0.060
5126,-0.0067,0.0175,0.0054,0.17,0.11,0.09,0.243,-1.719,-0.414,-0.188
5136,-0.0069,0.0172,0.0057,0.15,0.12,0.09,0.243,-1.443,-0.527,0.124
5145,-0.0071,0.0170,0.0059,0.15,0.13,0.09,0.242,-0.311,-0.422,0.269
5156,-0.0046,0.0160,0.0058,0.15,0.12,0.09,0.242,-0.924,0.802,0.226
5166,-0.0048,0.0157,0.0013,0.13,0.12,0.09,0.242,0.102,1.190,0.216
5176,-0.0050,0.0155,0.0015,0.12,0.12,0.09,0.242,-1.198,1.213,0.490
5185,-0.0052,0.0153,0.0015,0.10,0.11,0.09,0.242,2.032,2.157,-0.175
5195,-0.0074,0.0144,0.0018,0.09,0.11,0.10,0.241,1.579,2.039,0.650
5206,-0.0076,0.0142,0.0022,0.10,0.10,0.10,0.241,2.276,1.426,0.521
5215,-0.0078,0.0140,-0.0023,0.14,0.08,0.10,0.241,1.923,1.511,0.635
5225,-0.0079,0.0138,-0.0023,0.15,0.07,0.10,0.241,1.873,0.298,0.857
5236,-0.0081,0.0135,-0.0025,0.17,0.06,0.11,0.241,0.719,-0.062,0.328
5246,-0.0128,0.0121,-0.0027,0.19,0.07,0.11,0.241,-0.975,0.040,0.410
5255,-0.0096,0.0108,-0.0027,0.21,0.06,0.12,0.242,-0.435,0.971,0.706
5265,-0.0118,0.0100,-0.0030,0.21,0.07,0.12,0.242,1.086,0.260,0.497
5275,-0.0119,0.0096,-0.0029,0.19,0.06,0.13,0.242,-1.434,-0.989,0.498
5285,-0.0087,0.0087,-0.0024,0.19,0.03,0.14,0.242,-1.578,-1.252,0.174
5296,-0.0108,0.0051,-0.0019,0.23,0.04,0.14,0.240,-1.026,0.495,-0.465
5305,-0.0082,0.0047,-0.0016,0.21,0.04,0.14,0.240,0.237,-0.241,0.071
5315,-0.0083,0.0044,-0.0056,0.20,0.05,0.14,0.240,-1.685,1.310,-0.434
5325,-0.0103,0.0041,-0.0053,0.19,0.06,0.14,0.240,-0.006,2.768,-0.677
5336,-0.0104,0.0037,-0.0050,0.18,0.06,0.13,0.240,-3.778,0.854,-0.263
5346,-0.0097,0.0014,-0.0047,0.16,0.04,0.13,0.240,-2.250,0.420,0.184
5355,-0.0111,0.0010,-0.0040,0.15,0.02,0.13,0.244,-0.553,0.345,-0.366
5365,-0.0105,-0.0007,0.0036,0.12,0.01,0.13,0.244,3.131,-0.116,-1.345
5376,-0.0100,-0.0028,0.0041,0.11,0.00,0.13,0.244,0.006,0.823,-0.622
5385,-0.0117,-0.0028,0.0046,0.12,0.01,0.12,0.244,-1.284,0.641,-0.712
5395,-0.0112,-0.0056,0.0051,0.15,0.01,0.11,0.243,-3.423,-0.638,-0.574
5405,-0.0112,-0.0059,0.0056,0.15,0.00,0.10,0.243,-2.416,1.541,-0.157
5415,-0.0112,-0.0061,0.0073,0.15,0.00,0.09,0.243,-0.952,0.013,0.199
5425,-0.0112,-0.0064,0.0079,0.12,-0.01,0.09,0.243,-4.099,0.544,0.079
5435,-0.0112,-0.0066,0.0081,0.10,-0.01,0.09,0.243,0.827,-0.475,-0.308
5445,-0.0107,-0.0086,0.0082,0.09,-0.01,0.09,0.243,-2.211,-0.257,0.217
5455,-0.0107,-0.0088,0.0086,0.07,-0.02,0.09,0.242,1.578,-1.401,-0.483
5466,-0.0126,-0.0086,0.0089,0.06,0.00,0.09,0.242,0.118,-1.106,-0.219
5475,-0.0120,-0.0103,0.0066,0.07,0.00,0.09,0.242,-0.128,-0.389,-0.333
5486,-0.0118,-0.0123,0.0065,0.08,0.01,0.09,0.242,-1.506,0.206,-0.191
5496,-0.0118,-0.0125,0.0063,0.06,0.02,0.08,0.242,-2.635,0.983,0.226
5506,-0.0118,-0.0126,0.0063,0.06,0.02,0.08,0.242,-2.798,0.819,0.503
5515,-0.0113,-0.0140,0.0043,0.05,0.02,0.08,0.242,-1.964,0.986,0.521
5525,-0.0150,-0.0154,0.0046,0.04,0.03,0.08,0.242,1.817,0.618,0.178
5536,-0.0120,-0.0143,0.0050,0.02,-0.00,0.08,0.242,-1.579,1.321,0.683
5546,-0.0113,-0.0154,0.0050,0.01,-0.02,0.09,0.242,-2.247,-0.127,0.069
5555,-0.0113,-0.0155,0.0052,0.02,-0.03,0.09,0.240,-1.106,0.269,-0.524
5565,-0.0127,-0.0168,-0.0012,0.01,-0.03,0.10,0.240,-1.621,-0.680,-0.139
5575,-0.0098,-0.0203,-0.0012,0.02,-0.04,0.09,0.240,-0.683,0.599,0.649
5585,-0.0097,-0.0203,-0.0013,0.01,-0.04,0.09,0.240,-0.379,0.988,0.292
5595,-0.0096,-0.0203,-0.0013,0.00,-0.04,0.09,0.243,-0.899,0.933,0.726
5605,-0.0112,-0.0218,-0.0014,0.01,-0.04,0.09,0.243,0.128,0.985,0.737
5615,-0.0084,-0.0208,0.0018,-0.01,-0.06,0.09,0.243,-3.776,-1.026,1.060
5625,-0.0077,-0.0218,0.0020,-0.01,-0.07,0.10,0.243,-0.230,-0.663,1.245
5636,-0.0076,-0.0218,0.0023,-0.02,-0.06,0.11,0.243,-1.072,-1.073,1.189
5646,-0.0095,-0.0203,0.0025,-0.05,-0.05,0.12,0.242,-1.714,-1.089,0.940
5656,-0.0071,-0.0191,0.0030,-0.07,-0.05,0.14,0.242,-2.462,-0.281,1.137
5665,-0.0111,-0.0224,0.0025,-0.06,-0.01,0.15,0.242,-2.458,0.424,1.100
5675,-0.0111,-0.0223,0.0026,-0.09,-0.00,0.16,0.242,-1.835,0.422,1.379
5685,-0.0065,-0.0208,0.0028,-0.12,-0.03,0.17,0.242,-0.848,0.869,0.498
5695,-0.0081,-0.0193,0.0031,-0.14,-0.03,0.18,0.244,-0.765,0.321,0.666
5705,-0.0081,-0.0191,0.0030,-0.16,-0.03,0.19,0.244,-0.743,0.667,0.406
5716,-0.0075,-0.0241,0.0068,-0.13,-0.04,0.20,0.244,-0.297,0.460,0.290
5725,-0.0075,-0.0239,0.0069,-0.15,-0.05,0.20,0.244,0.290,0.800,-0.103
5735,-0.0074,-0.0237,0.0071,-0.15,-0.06,0.21,0.244,-0.941,1.514,-0.110
5746,-0.0073,-0.0234,0.0075,-0.14,-0.07,0.21,0.244,-1.041,2.314,-0.200
5755,-0.0071,-0.0232,0.0076,-0.15,-0.07,0.21,0.242,-1.968,2.820,0.040
5765,-0.0064,-0.0240,0.0048,-0.15,-0.10,0.21,0.242,-1.062,2.343,-0.432
5775,-0.0099,-0.0246,0.0050,-0.16,-0.10,0.21,0.242,-1.201,1.153,-0.431
5786,-0.0066,-0.0229,0.0054,-0.20,-0.14,0.20,0.242,-2.885,-1.754,-0.176
5795,-0.0078,-0.0256,0.0058,-0.19,-0.14,0.20,0.244,-1.243,-2.464,-0.410
5805,-0.0050,-0.0240,0.0060,-0.21,-0.16,0.20,0.244,-2.343,-4.379,-0.153
5815,-0.0047,-0.0237,0.0082,-0.22,-0.14,0.20,0.244,-2.533,-3.362,-0.429
5825,-0.0044,-0.0233,0.0085,-0.24,-0.11,0.19,0.244,-1.811,-1.103,-0.382
5836,-0.0048,-0.0236,0.0089,-0.26,-0.07,0.19,0.244,-3.155,-2.375,-0.160
5845,-0.0029,-0.0216,0.0095,-0.29,-0.06,0.19,0.242,-1.249,-1.027,-0.055
5855,-0.0028,-0.0211,0.0097,-0.31,-0.04,0.18,0.242,-1.503,-0.303,0.127
5865,-0.0030,-0.0213,0.0098,-0.33,-0.03,0.18,0.242,-0.003,0.686,-0.639
5875,-0.0030,-0.0238,0.0054,-0.33,-0.02,0.18,0.242,-0.084,0.366,-0.229
5886,-0.0009,-0.0179,0.0056,-0.37,-0.03,0.18,0.242,0.673,0.824,-0.276
5895,-0.0008,-0.0172,0.0059,-0.37,-0.03,0.17,0.243,-1.982,0.510,-0.021
5905,-0.0007,-0.0166,0.0059,-0.36,-0.04,0.17,0.243,-1.627,0.526,-0.355
5915,-0.0007,-0.0160,0.0051,-0.37,-0.05,0.17,0.243,-3.075,0.722,0.011
5926,-0.0005,-0.0187,0.0049,-0.37,-0.05,0.16,0.243,-4.446,0.712,0.089
5935,-0.0002,-0.0148,0.0048,-0.41,-0.06,0.16,0.243,-3.624,-0.294,-0.259
5945,-0.0021,-0.0129,0.0048,-0.45,-0.05,0.16,0.243,-2.663,-2.386,-0.468
5955,-0.0018,-0.0129,0.0048,-0.48,-0.06,0.16,0.243,-4.333,-1.579,-0.500
5965,-0.0017,-0.0152,0.0036,-0.48,-0.05,0.15,0.243,-1.467,-2.359,-0.331
5975,-0.0016,-0.0143,0.0040,-0.51,-0.03,0.15,0.243,-3.216,-0.625,0.146
5985,0.0004,-0.0103,0.0044,-0.56,-0.02,0.15,0.243,-2.604,-0.950,-0.099
5995,-0.0000,-0.0105,0.0048,-0.58,-0.00,0.15,0.242,-1.895,-1.476,-0.178
6005,0.0056,-0.0059,0.0051,-0.63,-0.02,0.15,0.242,-0.950,-1.558,0.092
6015,0.0056,-0.0048,0.0020,-0.65,-0.01,0.15,0.242,0.219,-0.751,-0.147
6025,0.0014,-0.0090,0.0020,-0.64,0.02,0.14,0.242,0.665,-0.935,-0.181
6035,-0.0009,-0.0054,0.0023,-0.66,0.05,0.14,0.242,-0.234,0.189,-0.260
6044,-0.0010,-0.0043,0.0027,-0.66,0.05,0.14,0.245,2.094,0.656,-0.370
6054,0.0047,-0.0030,0.0031,-0.66,0.03,0.14,0.245,1.960,1.083,-0.215
6065,-0.0032,-0.0037,0.0082,-0.64,0.06,0.14,0.245,1.144,2.426,-0.386
6075,-0.0013,-0.0027,0.0088,-0.62,0.05,0.13,0.245,0.342,3.121,-0.784
6084,0.0026,0.0076,0.0091,-0.66,0.01,0.13,0.245,-0.750,2.931,-0.198
6094,0.0011,0.0028,0.0093,-0.62,-0.01,0.13,0.245,-0.747,1.810,-0.110
6105,0.0011,0.0038,0.0094,-0.63,-0.04,0.12,0.245,0.086,0.404,-0.133
6115,0.0015,0.0068,0.0111,-0.65,-0.06,0.12,0.245,-1.006,-0.785,0.202
6125,-0.0019,0.0059,0.0114,-0.64,-0.05,0.12,0.245,-1.945,-1.952,-0.349
6135,0.0020,0.0124,0.0118,-0.69,-0.07,0.12,0.245,-1.148,-2.045,-0.159
6145,0.0019,0.0078,0.0122,-0.67,-0.06,0.12,0.245,-1.669,-1.939,0.070
6154,0.0020,0.0089,0.0127,-0.68,-0.04,0.11,0.242,-0.181,-2.141,-0.166
6165,-0.0020,0.0062,0.0057,-0.68,0.00,0.11,0.242,-0.292,-1.539,0.504
6175,-0.0004,0.0073,0.0058,-0.68,0.01,0.11,0.242,0.212,-3.023,-0.321
6185,-0.0004,0.0084,0.0059,-0.68,0.03,0.12,0.242,0.390,-1.013,-0.161
6195,0.0011,0.0093,0.0062,-0.67,0.05,0.12,0.243,0.056,-1.825,0.127
6205,0.0005,0.0139,0.0063,-0.70,0.07,0.11,0.243,2.077,-0.937,-0.015
6215,0.0002,0.0200,0.0043,-0.72,0.09,0.12,0.243,-1.281,-1.058,-0.225
6225,-0.0002,0.0114,0.0046,-0.65,0.09,0.12,0.243,0.692,1.040,-0.217
6235,0.0049,0.0191,0.0051,-0.69,0.08,0.12,0.243,-1.138,0.417,0.069
6244,0.0009,0.0198,0.0055,-0.69,0.10,0.12,0.245,-0.441,1.194,-0.153
6255,0.0010,0.0207,0.0055,-0.69,0.10,0.12,0.245,-1.227,1.808,-0.555
6265,0.0043,0.0196,0.0057,-0.68,0.07,0.12,0.245,0.260,0.720,-0.689
6275,0.0042,0.0167,0.0082,-0.66,0.07,0.12,0.245,1.077,0.793,-0.838
6285,-0.0010,0.0237,0.0088,-0.70,0.07,0.11,0.245,1.633,1.192,-1.095
6294,-0.0012,0.0249,0.0091,-0.69,0.06,0.10,0.245,1.715,0.561,-0.726
6305,-0.0012,0.0249,0.0091,-0.69,0.06,0.10,0.245,0.788,0.507,-0.227
6314,0.0006,0.0262,0.0098,-0.65,0.04,0.08,0.245,-0.557,0.665,-0.465
6324,0.0006,0.0262,0.0098,-0.65,0.04,0.08,0.245,-1.650,0.416,-0.241
6335,0.0006,0.0281,0.0099,-0.64,0.03,0.07,0.245,-0.485,0.010,-0.863
6344,-0.0012,0.0283,0.0098,-0.64,0.03,0.07,0.245,-1.545,-1.117,-0.811
6356,-0.0012,0.0315,0.0098,-0.66,0.02,0.06,0.245,-2.612,-2.217,-0.750
6366,-0.0012,0.0315,0.0098,-0.66,0.02,0.06,0.245,0.112,-1.245,-0.992
6375,0.0005,0.0317,0.0091,-0.67,0.02,0.05,0.245,-0.862,-1.333,-0.782
6385,0.0037,0.0339,0.0096,-0.69,0.02,0.04,0.245,-0.101,-1.976,-2.006
6395,-0.0022,0.0369,0.0101,-0.71,0.08,0.03,0.247,1.716,-0.571,-0.978
6404,-0.0022,0.0369,0.0101,-0.71,0.08,0.03,0.247,-0.504,-0.997,-1.041
6414,0.0012,0.0386,0.0134,-0.71,0.08,0.01,0.247,0.333,-1.310,-0.116
6424,-0.0009,0.0383,0.0135,-0.69,0.10,-0.00,0.247,0.729,-0.829,-0.157
6435,0.0024,0.0398,0.0137,-0.70,0.08,-0.01,0.247,1.677,-0.608,0.019
6444,-0.0015,0.0416,0.0140,-0.69,0.12,-0.02,0.246,1.684,-1.107,-1.050
6454,-0.0000,0.0411,0.0144,-0.69,0.11,-0.02,0.246,1.164,-0.582,-0.815
6464,-0.0002,0.0423,0.0128,-0.66,0.12,-0.02,0.246,1.292,-0.709,-0.237
6474,-0.0007,0.0464,0.0128,-0.65,0.14,-0.03,0.246,2.147,0.214,-0.311
6485,-0.0027,0.0474,0.0127,-0.63,0.15,-0.04,0.246,2.002,1.661,-0.272
6494,-0.0027,0.0474,0.0127,-0.63,0.15,-0.04,0.246,1.282,1.977,0.181
6504,-0.0028,0.0481,0.0130,-0.61,0.14,-0.04,0.246,1.446,1.425,-0.338
6514,-0.0030,0.0491,0.0104,-0.58,0.13,-0.04,0.246,2.244,0.507,-0.389
6524,-0.0046,0.0519,0.0103,-0.56,0.12,-0.05,0.246,1.723,-0.413,-0.485
6534,-0.0048,0.0528,0.0104,-0.55,0.11,-0.05,0.246,1.357,1.256,0.208
6545,-0.0050,0.0538,0.0106,-0.54,0.09,-0.05,0.244,1.483,1.020,-0.136
6555,-0.0049,0.0610,0.0106,-0.54,0.08,-0.06,0.244,0.526,-1.590,0.022
6564,-0.0049,0.0610,0.0036,-0.54,0.08,-0.06,0.244,0.871,0.405,0.047
6574,-0.0047,0.0632,0.0034,-0.53,0.08,-0.06,0.244,1.523,-0.341,0.574
6585,-0.0049,0.0636,0.0033,-0.52,0.09,-0.06,0.244,-1.111,-2.817,0.216
6594,-0.0048,0.0638,0.0032,-0.52,0.08,-0.05,0.249,-0.500,-2.296,0.439
6604,-0.0049,0.0640,0.0031,-0.51,0.09,-0.05,0.249,0.899,-2.868,-0.301
6615,-0.0053,0.0665,0.0094,-0.52,0.12,-0.05,0.249,-0.857,-1.565,0.470
6624,-0.0043,0.0654,0.0094,-0.51,0.15,-0.04,0.249,-0.658,-2.325,0.143
6635,-0.0046,0.0676,0.0095,-0.53,0.18,-0.04,0.249,1.591,-1.474,0.072
6644,-0.0046,0.0676,0.0095,-0.53,0.18,-0.04,0.247,1.303,-0.312,-0.344
6654,-0.0068,0.0663,0.0098,-0.51,0.21,-0.04,0.247,0.909,-0.337,-0.252
6664,-0.0072,0.0671,0.0085,-0.51,0.22,-0.04,0.247,2.710,-0.616,0.092
6674,-0.0073,0.0689,0.0085,-0.50,0.23,-0.04,0.247,1.783,-0.187,-0.150
6685,-0.0077,0.0698,0.0085,-0.49,0.24,-0.04,0.247,2.159,-0.055,-0.088
6694,-0.0079,0.0696,0.0084,-0.46,0.24,-0.04,0.249,2.967,1.727,-0.507
6704,-0.0065,0.0701,0.0082,-0.41,0.22,-0.04,0.249,3.021,1.247,-0.745
6714,-0.0065,0.0702,0.0107,-0.41,0.22,-0.04,0.249,1.796,2.824,-0.173
6724,-0.0044,0.0764,0.0100,-0.38,0.18,-0.05,0.249,0.954,1.164,-0.155
6735,-0.0041,0.0759,0.0097,-0.35,0.16,-0.05,0.249,1.626,1.434,0.403
6744,-0.0041,0.0759,0.0097,-0.35,0.16,-0.05,0.248,2.440,1.429,-0.205
6755,-0.0075,0.0769,0.0094,-0.33,0.13,-0.05,0.248,0.413,1.339,0.734
6764,-0.0075,0.0769,0.0094,-0.33,0.13,-0.05,0.248,0.649,-0.011,0.567
6774,-0.0090,0.0744,0.0075,-0.29,0.12,-0.05,0.248,-1.203,-2.459,0.493
6784,-0.0088,0.0741,0.0076,-0.27,0.11,-0.05,0.248,0.079,-2.535,0.713
6794,-0.0104,0.0719,0.0075,-0.26,0.12,-0.05,0.248,0.664,-3.039,-0.107
6804,-0.0124,0.0736,0.0072,-0.26,0.14,-0.05,0.248,0.345,-1.591,0.287
6814,-0.0091,0.0733,0.0053,-0.26,0.14,-0.04,0.248,-1.126,-2.715,-0.314
6825,-0.0095,0.0764,0.0052,-0.26,0.16,-0.04,0.248,1.446,-0.169,-0.133
6834,-0.0079,0.0759,0.0051,-0.25,0.16,-0.04,0.248,0.392,-1.493,0.141
6844,-0.0081,0.0758,0.0051,-0.25,0.18,-0.04,0.248,1.701,0.305,-0.210
6854,-0.0083,0.0751,0.0053,-0.24,0.19,-0.04,0.245,0.298,-0.316,-0.337
6864,-0.0084,0.0762,-0.0030,-0.23,0.20,-0.03,0.245,1.313,0.638,-0.108
6874,-0.0088,0.0766,-0.0024,-0.22,0.20,-0.04,0.245,-0.810,0.692,0.287
6885,-0.0089,0.0778,-0.0022,-0.21,0.20,-0.04,0.245,2.751,2.495,-0.318
6894,-0.0092,0.0782,-0.0021,-0.20,0.20,-0.04,0.247,1.556,1.207,0.353
6904,-0.0090,0.0777,-0.0020,-0.20,0.19,-0.04,0.247,1.642,1.117,-0.093
6914,-0.0094,0.0780,-0.0022,-0.18,0.17,-0.05,0.247,0.306,0.927,0.274
6924,-0.0092,0.0790,-0.0020,-0.16,0.16,-0.04,0.247,0.391,1.230,0.384
6934,-0.0125,0.0765,-0.0017,-0.13,0.16,-0.04,0.247,0.859,0.629,0.300
6945,-0.0121,0.0775,-0.0013,-0.12,0.15,-0.04,0.247,0.733,-0.785,0.157
6954,-0.0123,0.0777,-0.0010,-0.11,0.13,-0.04,0.247,-0.712,-0.684,-0.384
6964,-0.0121,0.0839,-0.0005,-0.14,0.13,-0.04,0.247,0.426,-0.124,-0.496
6974,-0.0123,0.0841,-0.0002,-0.14,0.14,-0.03,0.247,-0.109,-0.141,-0.413
6984,-0.0103,0.0833,0.0002,-0.13,0.13,-0.03,0.247,2.009,0.134,-0.169
6994,-0.0102,0.0823,0.0003,-0.12,0.12,-0.04,0.247,2.192,0.101,-0.039
7004,-0.0101,0.0851,0.0003,-0.13,0.12,-0.04,0.247,2.634,-0.296,0.101
7014,-0.0103,0.0853,0.0006,-0.12,0.12,-0.05,0.247,2.032,0.074,0.373
7025,-0.0105,0.0855,0.0008,-0.10,0.13,-0.05,0.247,0.155,-0.136,0.616
7034,-0.0123,0.0859,0.0012,-0.08,0.14,-0.04,0.247,0.674,-0.077,0.226
7044,-0.0120,0.0862,0.0016,-0.06,0.14,-0.04,0.247,0.568,-0.591,-0.479
7054,-0.0101,0.0851,0.0020,-0.04,0.12,-0.03,0.248,-0.116,-1.034,-0.592
7064,-0.0118,0.0820,0.0046,-0.01,0.13,-0.03,0.248,-0.602,-0.405,-0.239
7074,-0.0117,0.0809,0.0048,-0.00,0.14,-0.04,0.248,0.413,-0.108,-0.477
7084,-0.0117,0.0799,0.0052,0.00,0.15,-0.04,0.248,0.352,0.871,-0.018
7094,-0.0098,0.0843,0.0055,-0.02,0.14,-0.04,0.247,1.158,1.119,0.017
7104,-0.0079,0.0796,0.0058,0.01,0.12,-0.05,0.247,1.522,-0.314,0.328
7115,-0.0078,0.0786,0.0044,0.01,0.11,-0.05,0.247,2.403,-0.483,0.054
7124,-0.0110,0.0775,0.0046,0.03,0.13,-0.05,0.247,1.253,-1.032,0.290
7135,-0.0092,0.0764,0.0050,0.06,0.12,-0.05,0.247,1.234,-1.142,0.321
7144,-0.0092,0.0751,0.0054,0.08,0.12,-0.04,0.247,0.383,-1.206,0.890
7154,-0.0109,0.0740,0.0055,0.10,0.14,-0.04,0.247,1.504,-1.061,0.155
7164,-0.0112,0.0738,0.0057,0.12,0.15,-0.04,0.247,0.438,-0.488,0.432
7174,-0.0130,0.0727,0.0041,0.13,0.17,-0.03,0.247,-0.542,1.024,0.521
7184,-0.0130,0.0732,0.0038,0.14,0.19,-0.03,0.247,-1.433,0.279,0.568
7194,-0.0111,0.0688,0.0038,0.17,0.18,-0.02,0.247,-1.628,0.264,0.832
7204,-0.0110,0.0645,0.0040,0.19,0.16,-0.02,0.247,-1.484,-0.006,0.267
7214,-0.0112,0.0642,0.0026,0.17,0.16,-0.01,0.247,-1.393,-0.457,0.177
7224,-0.0146,0.0690,0.0026,0.13,0.17,-0.00,0.247,-1.172,0.886,0.436
7234,-0.0126,0.0666,0.0027,0.12,0.16,0.00,0.247,-0.676,1.143,0.232
7244,-0.0143,0.0644,0.0030,0.12,0.17,0.00,0.247,0.034,1.898,0.699
7254,-0.0123,0.0570,0.0033,0.15,0.15,0.01,0.246,-0.821,0.133,0.936
7264,-0.0154,0.0651,-0.0001,0.09,0.16,0.01,0.246,0.430,-0.198,0.318
7274,-0.0167,0.0663,0.0002,0.07,0.15,0.02,0.246,0.443,-0.823,0.067
7284,-0.0170,0.0661,0.0002,0.06,0.15,0.03,0.246,1.207,-0.733,-0.288
7294,-0.0167,0.0655,0.0002,0.06,0.15,0.03,0.247,0.025,-1.881,-0.061
7304,-0.0169,0.0654,0.0003,0.06,0.16,0.03,0.247,0.528,-1.347,-0.159
7314,-0.0172,0.0653,0.0005,0.07,0.17,0.03,0.247,-0.361,-0.419,-0.479
7324,-0.0172,0.0683,0.0004,0.05,0.19,0.04,0.247,-1.190,-0.860,0.023
7334,-0.0190,0.0658,0.0004,0.06,0.21,0.04,0.247,-0.107,-0.999,0.496
7344,-0.0193,0.0657,0.0006,0.06,0.22,0.03,0.250,-0.901,-0.714,0.493
7354,-0.0197,0.0656,0.0011,0.05,0.23,0.03,0.250,0.203,-0.414,0.638
7364,-0.0234,0.0651,0.0082,0.05,0.26,0.03,0.250,1.424,-0.902,0.239
7374,-0.0231,0.0647,0.0085,0.04,0.26,0.04,0.250,1.963,-0.896,-0.334
7384,-0.0236,0.0646,0.0089,0.05,0.27,0.04,0.250,-0.136,0.443,-0.326
7393,-0.0252,0.0658,0.0093,0.05,0.28,0.05,0.247,0.819,2.365,0.027
7403,-0.0257,0.0657,0.0095,0.07,0.29,0.05,0.247,0.613,1.099,0.657
7413,-0.0232,0.0612,0.0062,0.09,0.27,0.04,0.247,0.638,2.539,0.204
7423,-0.0244,0.0644,0.0065,0.08,0.25,0.04,0.247,-0.274,1.865,0.012
7433,-0.0238,0.0600,0.0064,0.11,0.23,0.05,0.247,0.471,1.758,-0.069
7443,-0.0242,0.0598,0.0062,0.11,0.21,0.05,0.248,-0.183,1.465,0.286
7454,-0.0253,0.0574,0.0061,0.12,0.20,0.05,0.248,0.034,2.349,0.426
7463,-0.0263,0.0607,0.0054,0.10,0.18,0.05,0.248,-0.301,0.783,0.059
7474,-0.0266,0.0605,0.0055,0.10,0.17,0.06,0.248,-0.962,1.000,0.121
7483,-0.0256,0.0562,0.0056,0.12,0.14,0.06,0.248,-1.638,0.299,0.373
7493,-0.0258,0.0560,0.0057,0.12,0.13,0.06,0.249,-0.606,0.896,0.577
7504,-0.0260,0.0558,0.0055,0.12,0.12,0.06,0.249,-0.163,-0.741,0.541
7514,-0.0263,0.0556,0.0068,0.11,0.12,0.06,0.249,-1.009,-2.331,0.401
7524,-0.0315,0.0615,0.0068,0.07,0.14,0.07,0.249,-1.746,-1.093,0.310
7533,-0.0317,0.0614,0.0069,0.07,0.15,0.07,0.249,-1.339,-1.801,0.404
7544,-0.0331,0.0590,0.0069,0.07,0.17,0.08,0.249,-2.458,-0.711,0.459
7554,-0.0303,0.0568,0.0072,0.06,0.17,0.08,0.249,-1.675,-0.661,0.432
7563,-0.0317,0.0568,0.0074,0.05,0.19,0.09,0.249,0.065,0.186,0.275
7573,-0.0320,0.0567,0.0078,0.03,0.20,0.09,0.249,0.126,0.226,1.211
7583,-0.0332,0.0566,0.0079,0.02,0.21,0.09,0.249,0.368,1.222,0.616
7594,-0.0335,0.0566,0.0080,0.02,0.20,0.10,0.248,0.927,1.839,0.969
7604,-0.0339,0.0566,0.0080,0.01,0.20,0.11,0.248,1.387,1.661,1.070
7614,-0.0326,0.0583,0.0050,0.00,0.19,0.12,0.248,1.835,2.411,0.559
7623,-0.0354,0.0558,0.0050,0.02,0.19,0.13,0.248,1.174,1.491,0.280
7634,-0.0361,0.0533,0.0050,0.05,0.17,0.14,0.248,0.799,1.965,-0.019
7644,-0.0364,0.0532,0.0050,0.06,0.16,0.14,0.248,-0.860,0.883,0.271
7654,-0.0367,0.0531,0.0047,0.07,0.14,0.15,0.248,1.036,0.924,0.110
7664,-0.0393,0.0527,0.0021,0.08,0.14,0.15,0.248,-0.373,-0.790,0.812
7674,-0.0399,0.0504,0.0021,0.10,0.12,0.15,0.248,-1.374,-0.031,1.162
7684,-0.0389,0.0482,0.0021,0.12,0.11,0.15,0.248,-1.658,-0.227,0.844
7693,-0.0391,0.0480,0.0021,0.12,0.11,0.16,0.246,-1.820,-0.171,1.291
7704,-0.0393,0.0478,0.0020,0.11,0.11,0.17,0.246,-1.577,-0.124,1.243
7714,-0.0394,0.0475,-0.0044,0.10,0.11,0.18,0.246,-2.257,0.549,1.170
7724,-0.0396,0.0474,-0.0047,0.09,0.11,0.19,0.246,-1.249,0.839,0.851
7734,-0.0424,0.0456,-0.0049,0.09,0.12,0.20,0.246,-1.191,0.570,0.879
7744,-0.0494,0.0482,-0.0050,0.05,0.16,0.22,0.252,-2.309,1.150,1.333
7753,-0.0497,0.0481,-0.0053,0.04,0.15,0.23,0.252,-2.586,1.364,1.114
7763,-0.0500,0.0481,0.0052,0.03,0.14,0.24,0.252,-0.198,2.440,1.292
7774,-0.0502,0.0481,0.0051,0.00,0.13,0.25,0.252,0.345,2.212,1.032
7784,-0.0544,0.0424,0.0054,0.01,0.15,0.26,0.252,-0.740,1.384,1.252
7793,-0.0547,0.0424,0.0057,-0.00,0.12,0.27,0.245,-1.323,1.221,0.549
7804,-0.0549,0.0424,0.0060,0.00,0.10,0.28,0.245,-1.754,1.815,0.773
7813,-0.0546,0.0427,-0.0039,-0.00,0.09,0.29,0.245,-2.587,0.948,0.919
7824,-0.0547,0.0427,-0.0037,-0.01,0.08,0.30,0.245,-2.068,0.032,0.639
7833,-0.0548,0.0427,-0.0037,-0.03,0.06,0.31,0.245,-1.342,0.548,0.197
7844,-0.0549,0.0428,-0.0035,-0.05,0.04,0.31,0.247,-0.363,1.005,-0.020
7853,-0.0550,0.0429,-0.0033,-0.07,0.04,0.32,0.247,0.491,0.648,-0.102
7863,-0.0551,0.0430,-0.0042,-0.09,0.04,0.32,0.247,0.016,0.730,0.744
7874,-0.0552,0.0431,-0.0041,-0.10,0.03,0.32,0.247,-0.339,0.428,0.787
7883,-0.0523,0.0435,-0.0040,-0.09,0.00,0.32,0.247,0.786,1.214,0.071
7893,-0.0523,0.0437,-0.0037,-0.10,-0.00,0.33,0.248,0.182,1.715,-0.092
7903,-0.0523,0.0439,-0.0034,-0.10,-0.01,0.34,0.248,1.347,1.683,-0.447
7914,-0.0520,0.0417,-0.0012,-0.09,-0.02,0.34,0.248,2.174,2.058,-0.375
7924,-0.0519,0.0418,-0.0009,-0.09,-0.03,0.34,0.248,0.034,2.056,-0.235
7933,-0.0489,0.0421,-0.0005,-0.08,-0.06,0.34,0.248,-0.281,1.915,-0.150
7943,-0.0488,0.0422,-0.0001,-0.06,-0.08,0.33,0.245,0.527,1.385,-0.123
7954,-0.0487,0.0423,0.0002,-0.06,-0.10,0.33,0.245,0.604,1.056,-0.409
7964,-0.0483,0.0401,-0.0050,-0.05,-0.12,0.33,0.245,0.488,0.309,-1.089
7973,-0.0481,0.0402,-0.0048,-0.04,-0.14,0.33,0.245,0.927,0.055,-0.799
7984,-0.0507,0.0433,-0.0047,-0.05,-0.14,0.32,0.245,-0.602,0.500,-0.925
7993,-0.0504,0.0434,-0.0045,-0.05,-0.14,0.31,0.246,-2.258,0.987,-1.255
8003,-0.0502,0.0435,-0.0042,-0.04,-0.14,0.31,0.246,-2.681,0.684,-0.301
8013,-0.0392,0.0388,-0.0043,-0.02,-0.21,0.30,0.246,-3.585,-0.087,-0.245
8024,-0.0599,0.0398,-0.0041,-0.05,-0.10,0.29,0.246,-0.239,-1.094,-0.759
8033,-0.0598,0.0399,-0.0038,-0.07,-0.11,0.28,0.246,-0.219,-0.714,-1.048
8044,-0.0596,0.0400,-0.0034,-0.10,-0.11,0.28,0.247,0.285,0.013,-1.694
8054,-0.0618,0.0381,-0.0026,-0.10,-0.09,0.28,0.247,-1.706,0.435,-1.165
8063,-0.0617,0.0383,0.0004,-0.11,-0.08,0.26,0.247,1.805,1.526,-0.930
8073,-0.0615,0.0385,0.0009,-0.11,-0.08,0.25,0.247,-0.360,2.262,-0.558
8084,-0.0614,0.0387,0.0014,-0.12,-0.08,0.24,0.247,0.262,3.038,-0.679
8093,-0.0631,0.0364,0.0018,-0.10,-0.09,0.23,0.248,2.502,2.078,-1.183
8103,-0.0618,0.0347,0.0023,-0.09,-0.11,0.22,0.248,1.056,1.510,-1.471
8114,-0.0616,0.0349,0.0063,-0.09,-0.14,0.22,0.248,0.292,2.838,-1.130
8123,-0.0577,0.0354,0.0069,-0.08,-0.18,0.21,0.248,-0.230,2.677,-0.948
8133,-0.0574,0.0355,0.0072,-0.07,-0.20,0.19,0.248,0.399,2.548,-0.954
8144,-0.0561,0.0338,0.0075,-0.06,-0.23,0.18,0.249,0.129,1.305,-1.131
8153,-0.0523,0.0349,0.0079,-0.07,-0.27,0.17,0.249,-2.518,0.484,-0.861
8163,-0.0519,0.0350,0.0116,-0.06,-0.30,0.16,0.249,-0.880,1.149,-1.396
8173,-0.0514,0.0351,0.0118,-0.06,-0.31,0.15,0.249,-0.989,0.626,-1.200
8183,-0.0508,0.0352,0.0120,-0.08,-0.32,0.14,0.249,-0.862,-0.172,-0.615
8193,-0.0503,0.0354,0.0121,-0.09,-0.33,0.12,0.246,-1.072,0.810,-0.640
8203,-0.0497,0.0355,0.0120,-0.10,-0.34,0.11,0.246,-1.450,0.033,-0.697
8213,-0.0491,0.0357,0.0056,-0.11,-0.34,0.11,0.246,-0.308,0.116,-0.816
8223,-0.0485,0.0358,0.0056,-0.12,-0.34,0.10,0.246,0.807,-0.258,-1.015
8234,-0.0480,0.0360,0.0053,-0.12,-0.34,0.09,0.246,1.130,-0.292,-0.825
8243,-0.0446,0.0371,0.0051,-0.12,-0.36,0.08,0.246,0.882,0.117,-1.320
8253,-0.0440,0.0373,0.0050,-0.12,-0.35,0.07,0.248,1.065,0.305,-0.980
8264,-0.0467,0.0353,0.0055,-0.10,-0.33,0.07,0.248,-0.047,0.780,-0.377
8274,-0.0407,0.0332,0.0056,-0.08,-0.36,0.05,0.248,0.357,0.645,-1.144
8283,-0.0378,0.0341,0.0056,-0.07,-0.38,0.04,0.248,0.392,0.711,-1.033
8294,-0.0377,0.0325,0.0057,-0.07,-0.38,0.04,0.248,-0.423,0.399,-1.372
8303,-0.0370,0.0326,0.0059,-0.07,-0.39,0.03,0.248,0.026,0.050,-0.980
8314,-0.0317,0.0310,0.0056,-0.06,-0.43,0.02,0.248,-0.840,0.216,-0.993
8324,-0.0309,0.0311,0.0055,-0.06,-0.43,0.00,0.248,-1.611,-0.649,-1.290
8333,-0.0313,0.0297,0.0055,-0.06,-0.43,-0.01,0.248,-1.995,-1.449,-1.388
8344,-0.0265,0.0285,0.0058,-0.07,-0.45,-0.02,0.246,-1.771,-1.487,-1.796
8353,-0.0271,0.0276,0.0061,-0.08,-0.43,-0.03,0.246,-2.307,-2.046,-1.499
8363,-0.0263,0.0277,0.0009,-0.10,-0.42,-0.04,0.246,-1.799,-1.717,-1.457
8373,-0.0256,0.0278,0.0006,-0.12,-0.40,-0.06,0.246,-0.752,-1.520,-0.907
8383,-0.0249,0.0280,0.0005,-0.13,-0.38,-0.08,0.246,-0.768,-2.535,-0.667
8393,-0.0234,0.0299,0.0005,-0.16,-0.37,-0.09,0.248,0.400,-1.725,-1.210
8403,-0.0228,0.0302,0.0006,-0.16,-0.35,-0.10,0.248,1.071,-1.755,-1.905
8413,-0.0191,0.0290,0.0018,-0.15,-0.35,-0.11,0.248,-0.072,-0.896,-1.478
8423,-0.0155,0.0278,0.0022,-0.14,-0.34,-0.12,0.248,0.752,-0.080,-1.674
8434,-0.0149,0.0280,0.0028,-0.13,-0.33,-0.14,0.248,-0.884,0.459,-1.002
8443,-0.0143,0.0283,0.0028,-0.13,-0.32,-0.15,0.243,-0.428,-0.005,-1.466
8453,-0.0105,0.0269,0.0028,-0.12,-0.33,-0.17,0.243,-1.724,0.472,-0.574
8463,-0.0099,0.0271,-0.0078,-0.13,-0.33,-0.18,0.243,-1.747,-0.318,-1.065
8473,-0.0093,0.0273,-0.0076,-0.14,-0.34,-0.19,0.243,-1.734,-1.932,-0.627
8483,-0.0087,0.0276,-0.0073,-0.17,-0.34,-0.20,0.243,-5.366,-2.591,0.465
8493,-0.0081,0.0278,-0.0071,-0.20,-0.33,-0.21,0.248,0.674,-3.475,-1.286
8503,-0.0075,0.0282,-0.0070,-0.22,-0.32,-0.21,0.248,0.867,-3.695,-1.357
8513,-0.0070,0.0286,-0.0011,-0.26,-0.29,-0.21,0.248,-2.529,-3.854,-0.783
8524,-0.0065,0.0290,-0.0008,-0.27,-0.26,-0.22,0.248,-0.528,-3.116,-0.470
8534,-0.0008,0.0274,-0.0004,-0.26,-0.25,-0.24,0.248,3.639,-2.864,-0.790
8543,-0.0004,0.0278,0.0004,-0.27,-0.21,-0.24,0.248,2.030,-1.437,-0.324
8553,-0.0000,0.0283,0.0014,-0.27,-0.18,-0.25,0.248,1.147,-1.191,-0.495
8563,0.0003,0.0288,0.0058,-0.24,-0.15,-0.25,0.248,0.457,-1.611,-0.671
8573,0.0032,0.0268,0.0063,-0.21,-0.15,-0.26,0.248,0.124,-1.617,-0.933
8583,0.0030,0.0280,0.0070,-0.19,-0.14,-0.27,0.248,-1.134,-1.346,-0.827
8593,0.0055,0.0266,0.0075,-0.16,-0.13,-0.27,0.246,-1.466,-1.463,-1.024
8603,0.0051,0.0311,0.0076,-0.18,-0.11,-0.29,0.246,0.246,-0.693,-1.651
8613,0.0101,0.0246,0.0046,-0.16,-0.12,-0.30,0.246,-1.496,-0.565,-1.702
8623,0.0148,0.0290,0.0048,-0.19,-0.13,-0.31,0.246,-0.411,-1.118,-1.236
8633,0.0151,0.0294,0.0052,-0.21,-0.13,-0.32,0.246,-3.819,-1.916,-0.781
8643,0.0067,0.0264,0.0055,-0.22,-0.07,-0.33,0.246,-1.648,-2.150,-0.404
8653,0.0064,0.0280,0.0055,-0.23,-0.06,-0.34,0.246,2.217,-2.020,-0.895
8663,0.0130,0.0280,0.0031,-0.27,-0.08,-0.35,0.246,-3.459,-2.627,-0.264
8673,0.0132,0.0285,0.0036,-0.28,-0.06,-0.35,0.246,3.135,-2.789,-1.593
8683,0.0097,0.0224,0.0040,-0.23,-0.01,-0.36,0.246,-1.221,-3.088,-0.296
8693,0.0134,0.0248,0.0043,-0.26,-0.01,-0.37,0.248,-1.299,-2.144,0.060
8704,0.0123,0.0259,0.0043,-0.25,0.03,-0.38,0.248,-2.193,-2.025,0.088
8713,0.0122,0.0263,0.0068,-0.25,0.06,-0.38,0.248,-2.247,-2.085,-0.196
8723,0.0135,0.0256,0.0066,-0.25,0.08,-0.39,0.248,0.083,-2.398,-0.423
8732,0.0134,0.0260,0.0069,-0.25,0.10,-0.39,0.248,0.138,-1.863,0.590
8743,0.0122,0.0280,0.0072,-0.27,0.13,-0.39,0.248,0.091,-2.935,0.072
8753,0.0110,0.0297,0.0074,-0.28,0.15,-0.40,0.248,1.771,-3.005,-0.269
8764,0.0165,0.0286,0.0083,-0.27,0.15,-0.39,0.248,0.252,-2.677,-0.107
8773,0.0173,0.0281,0.0087,-0.27,0.17,-0.39,0.248,0.903,-1.897,-0.079
8783,0.0136,0.0272,0.0092,-0.27,0.22,-0.39,0.248,1.488,-2.312,-0.357
8793,0.0143,0.0264,0.0097,-0.27,0.23,-0.39,0.246,-0.615,-1.661,-0.065
8803,0.0150,0.0277,0.0099,-0.27,0.25,-0.39,0.246,-0.983,-0.651,0.052
8814,0.0096,0.0328,0.0052,-0.28,0.29,-0.39,0.246,-0.707,0.806,-0.506
8822,0.0105,0.0302,0.0052,-0.27,0.29,-0.39,0.246,-2.685,-0.431,-0.120
8833,0.0095,0.0315,0.0051,-0.27,0.30,-0.39,0.246,2.466,-0.926,-0.564
8843,0.0090,0.0320,0.0049,-0.27,0.29,-0.40,0.249,-3.744,-1.752,-0.248
8854,0.0120,0.0335,0.0049,-0.28,0.28,-0.40,0.249,1.633,-1.422,-1.185
8863,0.0129,0.0324,0.0083,-0.26,0.27,-0.41,0.249,-3.782,-1.069,0.185
8872,0.0124,0.0329,0.0086,-0.28,0.29,-0.41,0.249,0.871,-1.329,-0.825
8882,0.0112,0.0339,0.0086,-0.28,0.30,-0.42,0.249,0.366,-1.005,0.318
8893,0.0100,0.0316,0.0088,-0.28,0.32,-0.42,0.249,-0.516,-1.263,-0.108
8902,0.0089,0.0328,0.0092,-0.28,0.33,-0.42,0.249,4.012,0.057,-0.771
8912,0.0059,0.0357,0.0105,-0.28,0.36,-0.42,0.249,-1.987,-0.419,0.468
8924,0.0068,0.0351,0.0108,-0.28,0.36,-0.42,0.249,4.497,-0.634,-0.015
8934,0.0041,0.0337,0.0111,-0.25,0.37,-0.43,0.249,0.064,-1.224,-0.013
8943,0.0035,0.0341,0.0113,-0.25,0.38,-0.42,0.249,1.935,-0.939,0.364
8953,0.0025,0.0344,0.0113,-0.21,0.38,-0.43,0.249,-0.483,-0.318,0.620
8963,0.0053,0.0336,0.0105,-0.20,0.38,-0.43,0.249,-1.629,-0.405,0.553
8972,0.0046,0.0339,0.0106,-0.18,0.39,-0.42,0.249,-1.496,-0.153,0.029
8982,0.0040,0.0343,0.0105,-0.17,0.40,-0.42,0.249,-0.636,-0.074,-0.306
8993,0.0030,0.0355,0.0104,-0.18,0.41,-0.42,0.246,-1.746,-0.181,0.505
9003,0.0022,0.0366,0.0102,-0.19,0.41,-0.42,0.246,-2.372,-0.336,-0.094
9013,0.0015,0.0369,0.0019,-0.19,0.41,-0.42,0.246,1.589,0.176,-0.351
9022,0.0008,0.0372,0.0017,-0.20,0.40,-0.42,0.246,-4.285,-0.449,0.463
9032,0.0001,0.0375,0.0012,-0.21,0.40,-0.42,0.246,0.322,0.220,0.350
9042,-0.0005,0.0379,0.0009,-0.22,0.39,-0.42,0.248,0.167,-1.216,0.687
9054,-0.0012,0.0383,0.0009,-0.25,0.39,-0.41,0.248,2.020,-2.233,1.040
9063,-0.0019,0.0387,0.0005,-0.25,0.39,-0.40,0.248,1.994,-1.414,0.346
9073,-0.0026,0.0462,0.0006,-0.28,0.41,-0.40,0.248,3.882,-0.811,0.066
9082,-0.0037,0.0421,0.0007,-0.22,0.43,-0.39,0.248,0.949,-0.719,0.516
9092,-0.0045,0.0425,0.0008,-0.21,0.45,-0.39,0.248,-0.304,-0.781,1.246
9103,-0.0051,0.0427,0.0010,-0.19,0.45,-0.38,0.248,0.354,0.076,1.113
9113,-0.0057,0.0453,0.0006,-0.20,0.46,-0.37,0.248,3.615,0.059,0.823
9122,-0.0063,0.0456,0.0008,-0.19,0.46,-0.37,0.248,-1.136,0.913,1.958
9132,-0.0071,0.0459,0.0009,-0.19,0.46,-0.35,0.248,5.699,1.296,1.335
9143,-0.0079,0.0462,0.0013,-0.17,0.46,-0.34,0.249,-1.589,0.310,2.402
9152,-0.0082,0.0468,0.0017,-0.16,0.45,-0.33,0.249,4.000,-0.602,1.605
9162,-0.0063,0.0441,0.0039,-0.10,0.43,-0.31,0.249,1.203,0.392,1.877
9172,-0.0070,0.0443,0.0039,-0.10,0.42,-0.29,0.249,0.938,0.286,1.714
9184,-0.0075,0.0484,0.0040,-0.10,0.42,-0.27,0.249,1.614,0.195,1.438
9193,-0.0082,0.0485,0.0042,-0.08,0.42,-0.25,0.245,-1.285,-0.991,1.920
9203,-0.0085,0.0486,0.0045,-0.08,0.41,-0.23,0.245,-1.462,-0.279,1.630
9212,-0.0092,0.0486,-0.0031,-0.08,0.41,-0.22,0.245,0.663,-1.228,1.826
9223,-0.0099,0.0488,-0.0030,-0.09,0.42,-0.20,0.245,-1.585,-1.206,1.712
9233,-0.0125,0.0494,-0.0030,-0.11,0.43,-0.18,0.245,-2.180,-1.386,2.108
9242,-0.0132,0.0496,-0.0029,-0.11,0.44,-0.17,0.249,3.446,-2.457,0.891
9253,-0.0140,0.0498,-0.0022,-0.12,0.46,-0.15,0.249,1.334,-1.448,1.312
9263,-0.0148,0.0500,0.0028,-0.13,0.47,-0.13,0.249,0.714,-0.824,1.679
9272,-0.0155,0.0497,0.0034,-0.11,0.49,-0.12,0.249,2.890,-0.550,0.923
9282,-0.0159,0.0519,0.0040,-0.11,0.50,-0.11,0.249,1.315,-0.858,0.715
9292,-0.0167,0.0521,0.0044,-0.10,0.51,-0.09,0.247,1.174,0.051,0.998
9302,-0.0193,0.0516,0.0047,-0.07,0.52,-0.08,0.247,1.652,0.121,0.826
9312,-0.0202,0.0517,0.0025,-0.06,0.52,-0.07,0.247,2.598,-0.387,1.228
9322,-0.0211,0.0518,0.0025,-0.05,0.52,-0.06,0.247,2.348,-1.472,1.411
9332,-0.0210,0.0517,0.0027,-0.03,0.52,-0.05,0.247,2.244,-0.463,0.950
9343,-0.0233,0.0514,0.0031,-0.01,0.54,-0.04,0.252,0.553,0.274,1.534
9352,-0.0235,0.0509,0.0035,0.01,0.55,-0.02,0.252,1.391,-0.174,1.080
9362,-0.0235,0.0528,0.0038,0.01,0.55,-0.01,0.252,0.471,0.059,1.639
9373,-0.0235,0.0548,0.0160,0.02,0.55,0.00,0.252,0.725,0.573,1.785
9383,-0.0257,0.0523,0.0159,0.04,0.56,0.01,0.252,2.325,1.425,1.385
9392,-0.0266,0.0522,0.0159,0.05,0.56,0.03,0.246,1.465,1.877,1.133
9403,-0.0264,0.0520,0.0157,0.06,0.54,0.04,0.246,1.284,1.732,0.839
9412,-0.0258,0.0514,0.0054,0.08,0.52,0.06,0.246,2.845,2.472,1.021
9423,-0.0267,0.0512,0.0055,0.09,0.50,0.07,0.246,1.314,1.010,1.730
9433,-0.0283,0.0508,0.0053,0.11,0.49,0.08,0.246,0.788,1.880,1.575
9442,-0.0292,0.0506,0.0050,0.13,0.47,0.09,0.249,0.210,1.330,1.237
9452,-0.0307,0.0502,0.0045,0.14,0.46,0.10,0.249,0.392,1.076,1.210
9462,-0.0319,0.0498,0.0039,0.15,0.44,0.12,0.249,2.397,1.967,1.150
9472,-0.0311,0.0495,0.0037,0.16,0.41,0.13,0.249,0.347,-0.907,1.590
9482,-0.0325,0.0471,0.0036,0.17,0.40,0.14,0.249,0.634,-1.090,0.921
9492,-0.0332,0.0468,0.0036,0.18,0.40,0.16,0.250,1.106,-0.205,0.850
9502,-0.0338,0.0465,0.0034,0.19,0.41,0.17,0.250,0.882,-0.123,1.353
9512,-0.0346,0.0462,0.0050,0.19,0.42,0.18,0.250,-0.589,0.160,1.119
9522,-0.0339,0.0483,0.0051,0.18,0.42,0.19,0.250,0.860,1.026,0.932
9532,-0.0354,0.0460,0.0050,0.19,0.42,0.21,0.250,0.062,0.340,1.782
9542,-0.0361,0.0457,0.0051,0.19,0.42,0.22,0.250,1.919,0.510,1.040
9552,-0.0373,0.0433,0.0053,0.20,0.42,0.23,0.250,0.306,0.810,1.420
9562,-0.0343,0.0433,0.0081,0.21,0.39,0.24,0.250,-0.373,0.770,1.369
9572,-0.0377,0.0410,0.0081,0.23,0.40,0.25,0.250,0.297,1.587,1.206
9582,-0.0389,0.0410,0.0079,0.23,0.39,0.27,0.250,-0.066,1.464,0.485
9592,-0.0379,0.0451,0.0076,0.20,0.38,0.28,0.252,-0.418,0.356,0.813
9602,-0.0386,0.0448,0.0070,0.21,0.37,0.29,0.252,0.193,1.018,0.684
9612,-0.0392,0.0444,0.0093,0.21,0.36,0.29,0.252,0.930,-0.098,1.078
9622,-0.0424,0.0424,0.0089,0.22,0.37,0.30,0.252,0.788,-0.707,0.948
9632,-0.0433,0.0403,0.0088,0.22,0.37,0.31,0.252,1.256,-2.156,1.550
9642,-0.0422,0.0401,0.0088,0.23,0.36,0.32,0.252,1.563,-1.428,0.925
9651,-0.0433,0.0381,0.0086,0.25,0.37,0.33,0.247,0.686,-0.832,0.887
9662,-0.0426,0.0379,-0.0025,0.26,0.38,0.35,0.247,-0.402,-1.205,0.283
9672,-0.0419,0.0378,-0.0027,0.26,0.39,0.35,0.247,-1.530,-0.616,0.656
9682,-0.0426,0.0374,-0.0031,0.26,0.41,0.36,0.247,-1.535,-1.434,1.078
9691,-0.0433,0.0369,-0.0035,0.26,0.42,0.36,0.252,-0.448,-0.806,1.234
9702,-0.0440,0.0365,-0.0037,0.25,0.42,0.37,0.252,-0.205,0.614,0.893
9712,-0.0448,0.0361,0.0013,0.25,0.43,0.38,0.252,-2.104,-0.107,1.376
9722,-0.0460,0.0364,0.0010,0.24,0.43,0.40,0.252,0.117,0.167,1.743
9731,-0.0468,0.0360,0.0011,0.24,0.43,0.41,0.252,-0.294,0.893,1.128
9741,-0.0475,0.0356,0.0013,0.23,0.43,0.42,0.250,-0.365,0.264,1.487
9752,-0.0484,0.0337,0.0014,0.23,0.43,0.44,0.250,0.209,2.564,0.974
9762,-0.0512,0.0319,0.0023,0.24,0.43,0.45,0.250,1.091,1.707,0.346
9772,-0.0520,0.0315,0.0022,0.23,0.42,0.46,0.250,1.013,2.492,0.703
9782,-0.0501,0.0319,0.0019,0.23,0.39,0.47,0.250,2.210,1.531,0.307
9792,-0.0508,0.0314,0.0019,0.24,0.36,0.48,0.252,1.121,1.205,0.304
9802,-0.0577,0.0316,0.0017,0.26,0.37,0.48,0.252,0.453,1.423,0.777
9812,-0.0583,0.0312,0.0040,0.27,0.36,0.48,0.252,-1.882,1.057,0.796
9822,-0.0651,0.0291,0.0039,0.29,0.38,0.49,0.252,-1.925,1.892,0.972
9832,-0.0657,0.0285,0.0038,0.29,0.37,0.50,0.252,-1.947,1.141,1.059
9842,-0.0701,0.0271,0.0036,0.28,0.37,0.50,0.249,-3.121,-1.068,0.280
9852,-0.0707,0.0266,0.0037,0.26,0.36,0.51,0.249,-2.666,1.098,0.916
9862,-0.0703,0.0254,-0.0021,0.23,0.36,0.52,0.249,-0.586,0.914,0.262
9872,-0.0709,0.0250,-0.0020,0.20,0.36,0.53,0.249,-2.073,0.348,0.612
9882,-0.0682,0.0218,-0.0020,0.20,0.33,0.53,0.249,-0.428,1.394,0.887
9891,-0.0657,0.0228,-0.0021,0.18,0.31,0.54,0.249,0.153,0.737,0.953
9902,-0.0662,0.0225,-0.0022,0.17,0.30,0.55,0.249,-0.697,0.408,0.925
9912,-0.0636,0.0235,-0.0052,0.16,0.27,0.55,0.249,0.553,-0.153,0.731
9922,-0.0608,0.0235,-0.0052,0.15,0.25,0.56,0.249,0.527,-0.837,0.579
9932,-0.0612,0.0232,-0.0053,0.16,0.25,0.57,0.249,3.063,2.557,0.421
9942,-0.0633,0.0196,-0.0053,0.19,0.26,0.58,0.246,0.919,1.588,0.676
9952,-0.0634,0.0182,-0.0053,0.20,0.25,0.58,0.246,-1.681,1.513,0.826
9962,-0.0627,0.0187,-0.0133,0.21,0.24,0.58,0.246,-0.833,0.942,0.984
9972,-0.0624,0.0175,-0.0132,0.21,0.22,0.59,0.246,0.703,2.478,0.552
9982,-0.0681,0.0166,-0.0131,0.20,0.23,0.60,0.246,-0.444,1.370,0.562
9992,-0.0677,0.0156,-0.0130,0.20,0.22,0.61,0.246,-0.769,2.596,0.962
10002,-0.0680,0.0153,-0.0129,0.20,0.20,0.62,0.246,1.228,2.519,0.616
10012,-0.0655,0.0165,-0.0160,0.19,0.18,0.62,0.246,0.916,2.398,0.915
10021,-0.0707,0.0157,-0.0159,0.18,0.19,0.63,0.246,0.795,2.106,1.193
10032,-0.0710,0.0154,-0.0155,0.18,0.16,0.64,0.246,1.381,1.524,1.598
10042,-0.0713,0.0150,-0.0151,0.19,0.14,0.65,0.246,0.212,0.171,0.980
10052,-0.0683,0.0119,-0.0145,0.21,0.10,0.66,0.248,-1.848,0.942,0.348
10062,-0.0695,0.0108,-0.0092,0.21,0.09,0.67,0.248,-0.119,2.021,0.395
10072,-0.0696,0.0104,-0.0089,0.21,0.07,0.68,0.248,-2.275,-1.212,0.499
10082,-0.0669,0.0121,-0.0085,0.20,0.05,0.68,0.248,-4.146,-0.034,0.316
10092,-0.0670,0.0117,-0.0081,0.17,0.05,0.69,0.245,-0.831,-0.142,1.118
10102,-0.0624,0.0132,-0.0074,0.15,0.02,0.69,0.245,-2.942,-0.145,0.759
10111,-0.0620,0.0132,-0.0099,0.12,0.02,0.70,0.245,0.153,-1.712,0.608
10122,-0.0620,0.0130,-0.0092,0.11,0.02,0.71,0.245,0.834,-2.101,-0.027
10132,-0.0618,0.0128,-0.0082,0.08,0.04,0.71,0.245,1.028,-1.671,0.493
10142,-0.0637,0.0121,-0.0076,0.08,0.07,0.72,0.245,0.619,0.163,0.005
10152,-0.0596,0.0093,-0.0068,0.11,0.06,0.72,0.245,-3.564,-0.295,-0.488
10162,-0.0695,0.0084,-0.0072,0.12,0.12,0.72,0.245,-4.445,-2.178,0.173
10172,-0.0697,0.0082,-0.0065,0.10,0.13,0.72,0.245,-3.630,-1.667,0.193
10182,-0.0692,0.0083,-0.0061,0.05,0.14,0.72,0.245,-0.813,-0.688,-0.747
10192,-0.0731,0.0085,-0.0058,0.00,0.19,0.72,0.245,3.004,-0.301,-0.474
10202,-0.0734,0.0085,-0.0051,-0.02,0.20,0.72,0.245,2.437,0.480,-0.709
10211,-0.0738,0.0085,-0.0042,0.00,0.20,0.71,0.245,2.603,1.877,-0.740
10222,-0.0741,0.0085,-0.0034,0.03,0.21,0.70,0.245,-2.258,0.936,-0.490
10231,-0.0714,0.0099,-0.0026,0.05,0.18,0.70,0.245,-0.919,-0.011,-0.599
10242,-0.0717,0.0098,-0.0018,0.06,0.16,0.69,0.246,1.463,1.695,-0.901
10252,-0.0710,0.0097,-0.0011,0.03,0.16,0.68,0.246,-1.404,2.079,-1.103
10262,-0.0704,0.0093,0.0022,0.04,0.15,0.68,0.246,-3.578,0.003,-0.849
10272,-0.0707,0.0092,0.0030,0.05,0.13,0.67,0.246,-1.503,2.644,-0.684
10282,-0.0709,0.0091,0.0036,0.01,0.12,0.66,0.246,-2.331,-0.624,-0.487
10292,-0.0711,0.0091,0.0042,-0.00,0.10,0.65,0.245,-1.872,0.801,-0.682
10302,-0.0856,0.0070,0.0046,-0.03,0.18,0.65,0.245,-0.006,-1.287,-0.702
10312,-0.0859,0.0070,0.0040,-0.04,0.17,0.64,0.245,2.222,0.124,-0.608
10321,-0.0862,0.0071,0.0047,-0.05,0.18,0.64,0.245,-1.230,-0.809,-0.784
10332,-0.0943,0.0063,0.0050,-0.02,0.23,0.63,0.245,2.082,0.651,-0.340
10342,-0.0904,0.0034,0.0057,0.01,0.20,0.62,0.245,1.671,2.712,-0.220
10351,-0.0908,0.0034,0.0062,0.00,0.21,0.61,0.245,1.402,0.705,-0.329
10362,-0.0911,0.0034,0.0052,0.03,0.19,0.61,0.245,1.069,3.308,-0.464
10372,-0.0914,0.0033,0.0056,0.02,0.17,0.61,0.245,1.357,2.921,-0.329
10381,-0.0917,0.0033,0.0059,0.05,0.15,0.60,0.245,-2.009,2.340,-0.169
10392,-0.0895,0.0078,0.0063,0.02,0.11,0.60,0.244,-1.630,3.014,0.394
10402,-0.0897,0.0078,0.0067,0.03,0.07,0.59,0.244,-1.105,4.561,0.033
10412,-0.0898,0.0077,0.0036,0.02,0.04,0.60,0.244,-1.052,5.179,0.583
10421,-0.0898,0.0077,0.0038,0.02,-0.00,0.60,0.244,-0.472,2.915,0.218
10431,-0.0847,0.0103,0.0041,-0.01,-0.07,0.60,0.244,-2.524,1.343,-0.774
10442,-0.0846,0.0103,0.0041,-0.03,-0.10,0.61,0.245,-2.446,2.549,-0.453
10451,-0.0797,0.0124,0.0042,-0.06,-0.15,0.60,0.245,-0.676,1.289,-0.545
10462,-0.0973,0.0048,0.0037,-0.04,-0.08,0.60,0.245,-1.288,-0.509,-0.002
10472,-0.1018,0.0027,0.0036,-0.05,-0.06,0.60,0.245,-3.215,-0.685,-0.688
10481,-0.0921,0.0076,0.0039,-0.10,-0.11,0.59,0.245,1.879,1.237,-0.670
10491,-0.0923,0.0075,0.0042,-0.11,-0.12,0.58,0.243,-0.559,-0.551,-0.882
10501,-0.0921,0.0077,0.0046,-0.10,-0.11,0.58,0.243,1.317,1.450,-0.138
10511,-0.0875,0.0049,0.0002,-0.09,-0.14,0.57,0.243,2.664,0.890,-0.553
10521,-0.0857,0.0048,0.0005,-0.07,-0.16,0.57,0.243,-1.851,0.538,-0.483
10531,-0.0815,0.0068,0.0008,-0.08,-0.18,0.56,0.243,1.821,2.295,-0.545
10541,-0.0812,0.0070,0.0011,-0.07,-0.19,0.56,0.243,0.077,0.828,-0.803
10552,-0.0809,0.0071,0.0014,-0.06,-0.20,0.55,0.243,-0.969,1.276,-0.957
10562,-0.0786,0.0066,-0.0016,-0.06,-0.22,0.55,0.243,1.500,2.016,-0.606
10572,-0.0782,0.0067,-0.0013,-0.06,-0.24,0.54,0.243,-1.899,0.889,-0.662
10581,-0.0741,0.0113,-0.0012,-0.09,-0.26,0.53,0.243,-3.188,-1.294,-0.135
10591,-0.0736,0.0115,-0.0012,-0.11,-0.27,0.52,0.242,-2.324,0.474,-0.583
10601,-0.0695,0.0090,-0.0011,-0.11,-0.30,0.52,0.242,1.616,-0.080,-0.474
10611,-0.0689,0.0092,-0.0046,-0.11,-0.30,0.52,0.242,-0.397,-1.116,-1.012
10621,-0.0689,0.0092,-0.0046,-0.11,-0.30,0.52,0.242,4.040,0.647,-0.781
10631,-0.0653,0.0135,-0.0043,-0.14,-0.32,0.51,0.242,-1.113,-1.334,-0.898
10641,-0.0665,0.0085,-0.0040,-0.11,-0.30,0.50,0.243,2.692,0.703,-0.783
10652,-0.0607,0.0121,-0.0037,-0.11,-0.33,0.49,0.243,-0.767,-1.985,-0.378
10661,-0.0751,0.0076,-0.0022,-0.06,-0.23,0.48,0.243,0.209,-0.802,-0.351
10671,-0.0751,0.0076,-0.0022,-0.06,-0.23,0.48,0.243,0.515,-2.183,-0.738
10681,-0.0717,0.0095,-0.0019,-0.07,-0.24,0.47,0.243,2.266,-0.070,-1.200
10691,-0.0662,0.0094,-0.0014,-0.06,-0.26,0.46,0.245,-2.054,-0.322,-1.314
10702,-0.0675,0.0089,-0.0008,-0.06,-0.23,0.46,0.245,1.154,0.679,-0.432
10711,-0.0618,0.0083,0.0049,-0.04,-0.25,0.44,0.245,-1.971,0.370,-0.928
10721,-0.0618,0.0083,0.0049,-0.04,-0.25,0.44,0.245,-0.429,-1.548,-0.587
10731,-0.0671,0.0076,0.0053,-0.04,-0.21,0.42,0.245,1.111,-0.807,-0.478
10741,-0.0557,0.0141,0.0057,-0.07,-0.28,0.41,0.244,1.939,1.482,-0.290
10751,-0.0552,0.0142,0.0063,-0.09,-0.27,0.41,0.244,-1.600,0.972,-0.621
10761,-0.0548,0.0144,0.0066,-0.08,-0.26,0.40,0.244,1.874,0.377,0.303
10771,-0.0543,0.0145,0.0069,-0.07,-0.27,0.40,0.244,-1.478,1.132,0.001
10781,-0.0450,0.0190,0.0073,-0.09,-0.33,0.40,0.244,1.419,-0.942,0.114
10791,-0.0488,0.0134,0.0077,-0.07,-0.30,0.40,0.244,1.586,-0.041,-0.422
10801,-0.0420,0.0175,0.0083,-0.09,-0.35,0.40,0.244,0.179,-2.104,-0.441
10811,-0.0437,0.0144,0.0078,-0.07,-0.32,0.40,0.244,1.972,-0.728,-0.331
10821,-0.0432,0.0146,0.0080,-0.05,-0.33,0.39,0.244,-3.044,-2.538,-0.064
10831,-0.0382,0.0181,0.0086,-0.05,-0.32,0.39,0.244,0.489,-1.849,0.070
10841,-0.0382,0.0181,0.0086,-0.05,-0.32,0.39,0.245,-2.426,-1.040,-0.049
10851,-0.0387,0.0158,0.0088,-0.05,-0.30,0.38,0.245,-0.233,-2.514,0.173
10862,-0.0352,0.0172,0.0099,-0.07,-0.30,0.38,0.245,1.499,-0.635,0.187
10871,-0.0352,0.0145,0.0102,-0.07,-0.28,0.38,0.245,0.394,-1.553,0.073
10881,-0.0320,0.0159,0.0106,-0.05,-0.28,0.38,0.245,-4.010,-3.322,-0.271
10891,-0.0320,0.0159,0.0106,-0.05,-0.28,0.38,0.249,2.554,-1.667,-0.043
10901,-0.0316,0.0160,0.0106,-0.07,-0.26,0.38,0.249,-0.862,-2.424,-0.554
10911,-0.0318,0.0152,0.0193,-0.07,-0.21,0.38,0.249,0.376,-3.705,-0.171
10921,-0.0318,0.0152,0.0193,-0.07,-0.21,0.38,0.249,-0.473,-2.647,-0.212
10931,-0.0315,0.0153,0.0196,-0.08,-0.19,0.38,0.249,2.611,-2.032,-0.533
10941,-0.0311,0.0155,0.0199,-0.08,-0.15,0.37,0.248,-1.655,-2.754,-0.307
10951,-0.0302,0.0173,0.0200,-0.07,-0.13,0.37,0.248,0.004,-3.105,-0.574
10961,-0.0300,0.0175,0.0205,-0.08,-0.10,0.37,0.248,2.521,-2.336,-1.195
10971,-0.0290,0.0193,0.0206,-0.07,-0.06,0.36,0.248,-2.224,-2.792,-0.088
10981,-0.0290,0.0193,0.0206,-0.07,-0.06,0.36,0.248,-4.350,-3.711,-0.295
10991,-0.0289,0.0194,0.0204,-0.07,-0.03,0.35,0.245,-0.146,-3.103,-0.463
11001,-0.0288,0.0195,0.0200,-0.09,-0.00,0.35,0.245,-4.043,-2.377,-0.807
11011,-0.0288,0.0197,0.0111,-0.11,0.03,0.34,0.245,0.687,0.004,-0.284
11021,-0.0288,0.0199,0.0109,-0.13,0.06,0.33,0.245,-2.091,-1.091,-1.176
11031,-0.0289,0.0201,0.0107,-0.14,0.08,0.32,0.245,-0.391,-0.808,-0.817
11041,-0.0291,0.0203,0.0104,-0.14,0.09,0.32,0.245,0.931,1.890,-0.992
11051,-0.0292,0.0206,0.0102,-0.16,0.09,0.31,0.248,1.076,0.750,-0.748
11061,-0.0294,0.0208,0.0101,-0.15,0.09,0.30,0.248,0.408,0.452,-0.625
11071,-0.0278,0.0225,0.0102,-0.16,0.08,0.29,0.248,1.551,0.808,-0.787
11081,-0.0280,0.0228,0.0099,-0.16,0.08,0.28,0.248,1.084,1.478,-0.316
11091,-0.0252,0.0254,0.0096,-0.17,0.06,0.27,0.246,1.618,0.027,-0.755
11101,-0.0238,0.0267,0.0095,-0.16,0.03,0.27,0.246,1.378,-0.161,-0.377
11111,-0.0237,0.0266,0.0042,-0.16,0.03,0.27,0.246,2.143,-1.195,0.046
11121,-0.0238,0.0269,0.0042,-0.15,0.03,0.27,0.246,3.303,-1.097,-0.293
11131,-0.0228,0.0281,0.0043,-0.14,0.03,0.26,0.246,1.825,-3.662,-0.671
11141,-0.0220,0.0291,0.0043,-0.13,0.04,0.26,0.245,2.524,-3.034,-0.683
11151,-0.0221,0.0294,0.0044,-0.10,0.05,0.26,0.245,1.820,-3.844,-0.558
11161,-0.0221,0.0295,-0.0013,-0.09,0.09,0.25,0.245,-0.690,-3.234,-0.057
11171,-0.0217,0.0300,-0.0011,-0.08,0.12,0.24,0.245,1.925,-0.963,-0.086
11181,-0.0217,0.0331,-0.0011,-0.06,0.15,0.24,0.245,0.710,-0.929,-0.312
11191,-0.0220,0.0332,-0.0010,-0.05,0.18,0.23,0.247,-0.324,-0.850,-0.335
11201,-0.0223,0.0333,-0.0010,-0.03,0.19,0.23,0.247,2.654,-0.064,0.024
11211,-0.0216,0.0337,0.0003,-0.03,0.21,0.23,0.247,-0.565,-1.120,-0.450
11221,-0.0331,0.0299,0.0003,0.00,0.28,0.23,0.247,2.215,0.850,-0.642
11231,-0.0230,0.0351,0.0002,-0.02,0.23,0.22,0.247,-2.536,-0.679,0.140
11241,-0.0227,0.0315,0.0004,-0.00,0.23,0.22,0.245,1.284,-1.176,-0.458
11251,-0.0198,0.0322,0.0007,0.01,0.22,0.22,0.245,2.732,0.603,-0.438
11261,-0.0304,0.0312,-0.0030,0.00,0.28,0.21,0.245,-0.296,-0.796,-0.297
11271,-0.0192,0.0297,-0.0026,0.01,0.23,0.21,0.245,0.095,0.271,-0.902
11281,-0.0208,0.0303,-0.0022,0.03,0.24,0.20,0.245,0.777,-0.964,-1.045
11290,-0.0212,0.0303,-0.0017,0.02,0.24,0.20,0.248,-2.316,-1.360,-0.478
11301,-0.0216,0.0302,-0.0013,0.03,0.24,0.20,0.248,2.097,-2.419,-0.732
11310,-0.0256,0.0308,0.0037,0.02,0.27,0.19,0.248,-2.356,-1.473,-0.837
11320,-0.0261,0.0308,0.0039,0.02,0.28,0.18,0.248,2.094,-2.246,-1.023
11331,-0.0280,0.0291,0.0043,0.04,0.31,0.17,0.248,0.335,-0.092,-1.055
11340,-0.0285,0.0290,0.0047,0.04,0.32,0.16,0.248,0.362,-2.155,-0.759
11351,-0.0304,0.0272,0.0052,0.05,0.35,0.15,0.247,0.167,-1.053,-0.972
11361,-0.0298,0.0281,0.0057,0.06,0.34,0.14,0.247,2.275,-1.111,-0.817
11371,-0.0295,0.0288,0.0058,0.07,0.36,0.13,0.247,0.217,-0.816,-0.988
11380,-0.0301,0.0287,0.0058,0.07,0.37,0.12,0.247,-0.598,-0.034,-1.066
11390,-0.0307,0.0286,0.0059,0.08,0.39,0.11,0.245,-0.858,0.062,-0.801
11401,-0.0303,0.0315,0.0060,0.07,0.39,0.10,0.245,2.535,-0.272,-0.967
11411,-0.0309,0.0314,0.0014,0.08,0.39,0.09,0.245,3.205,0.116,-1.271
11420,-0.0316,0.0312,0.0017,0.08,0.39,0.08,0.245,0.737,-0.350,-1.303
11430,-0.0309,0.0315,0.0021,0.09,0.39,0.07,0.245,-0.667,-0.540,-0.652
11440,-0.0316,0.0314,0.0022,0.11,0.39,0.06,0.244,-0.222,0.756,-0.971
11451,-0.0332,0.0341,0.0024,0.11,0.39,0.05,0.244,1.282,1.781,-0.596
11460,-0.0339,0.0339,0.0024,0.12,0.39,0.04,0.244,3.262,1.451,-1.014
11470,-0.0329,0.0367,-0.0029,0.11,0.37,0.03,0.244,2.509,2.006,-1.247
11480,-0.0318,0.0370,-0.0028,0.13,0.35,0.02,0.244,2.557,2.511,-1.174
11490,-0.0396,0.0347,-0.0027,0.17,0.37,0.01,0.246,0.981,2.657,-0.973
11500,-0.0402,0.0344,-0.0024,0.20,0.36,-0.00,0.246,0.976,1.376,-0.827
11510,-0.0409,0.0343,-0.0005,0.22,0.34,-0.01,0.246,-0.088,1.481,-0.647
11520,-0.0393,0.0346,-0.0001,0.23,0.31,-0.02,0.246,-0.863,0.635,-0.790
11530,-0.0399,0.0341,0.0004,0.25,0.28,-0.03,0.246,1.018,2.596,-0.804
11540,-0.0385,0.0343,0.0008,0.25,0.26,-0.04,0.246,-0.297,1.181,-0.871
11552,-0.0389,0.0339,0.0010,0.26,0.24,-0.05,0.245,1.187,2.103,-0.499
11560,-0.0373,0.0364,-0.0002,0.25,0.21,-0.06,0.245,-0.178,2.522,-0.603
11571,-0.0376,0.0360,0.0001,0.25,0.20,-0.06,0.245,0.185,2.651,-1.002
11580,-0.0380,0.0356,0.0003,0.26,0.19,-0.07,0.245,0.146,1.545,-0.592
11590,-0.0362,0.0382,0.0005,0.24,0.15,-0.07,0.246,1.534,1.741,-0.877
11600,-0.0367,0.0360,0.0007,0.26,0.13,-0.08,0.246,1.746,1.333,-1.036
11610,-0.0350,0.0382,0.0024,0.25,0.10,-0.09,0.246,1.713,1.233,-0.929
11621,-0.0376,0.0338,0.0027,0.28,0.09,-0.10,0.246,0.248,0.860,-0.788
11631,-0.0378,0.0333,0.0033,0.29,0.09,-0.11,0.246,-0.868,-0.887,-0.943
11641,-0.0448,0.0313,0.0037,0.30,0.12,-0.11,0.246,0.873,-1.690,-1.000
11650,-0.0432,0.0317,0.0038,0.30,0.10,-0.12,0.247,0.510,-1.923,-1.084
11660,-0.0460,0.0298,0.0069,0.31,0.12,-0.13,0.247,0.340,-2.000,-1.301
11670,-0.0487,0.0299,0.0074,0.31,0.15,-0.14,0.247,0.167,-0.722,-1.363
11680,-0.0534,0.0268,0.0075,0.33,0.19,-0.15,0.247,0.096,0.106,-1.320
11690,-0.0538,0.0262,0.0078,0.33,0.21,-0.16,0.245,1.127,1.967,-1.642
11700,-0.0521,0.0284,0.0083,0.32,0.21,-0.18,0.245,0.588,2.352,-1.249
11710,-0.0522,0.0286,0.0049,0.32,0.20,-0.19,0.245,1.542,3.097,-2.098
11720,-0.0502,0.0249,0.0053,0.34,0.17,-0.21,0.245,0.220,2.877,-1.876
11730,-0.0483,0.0253,0.0055,0.34,0.14,-0.22,0.245,1.621,3.682,-2.439
11740,-0.0486,0.0247,0.0055,0.35,0.11,-0.24,0.248,0.740,3.514,-1.526
11750,-0.0463,0.0267,0.0058,0.35,0.06,-0.26,0.248,-0.297,4.534,-1.202
11760,-0.0465,0.0261,0.0101,0.36,0.03,-0.28,0.248,0.545,4.002,-0.996
11770,-0.0465,0.0255,0.0102,0.37,-0.01,-0.30,0.248,-0.950,1.940,-1.686
11780,-0.0465,0.0249,0.0102,0.38,-0.06,-0.32,0.248,-0.692,1.017,-1.448
11790,-0.0464,0.0242,0.0104,0.39,-0.10,-0.33,0.248,-0.301,0.080,-1.406
11800,-0.0440,0.0248,0.0108,0.38,-0.13,-0.34,0.248,0.380,-1.817,-1.499
11810,-0.0419,0.0255,0.0119,0.38,-0.15,-0.36,0.248,1.431,-2.203,-1.230
11820,-0.0581,0.0222,0.0118,0.39,-0.06,-0.37,0.248,-0.331,-2.438,-1.270
11830,-0.0639,0.0187,0.0120,0.39,-0.01,-0.38,0.248,-1.002,-2.316,-1.452
11840,-0.0560,0.0191,0.0124,0.39,-0.04,-0.39,0.248,-1.835,-1.112,-1.056
11850,-0.0560,0.0184,0.0128,0.38,-0.02,-0.40,0.247,-1.491,-0.183,-0.954
11860,-0.0620,0.0173,0.0101,0.37,0.04,-0.41,0.247,0.148,0.848,-1.586
11870,-0.0621,0.0167,0.0102,0.37,0.05,-0.43,0.247,-1.126,-0.099,-1.595
11880,-0.0622,0.0161,0.0102,0.35,0.06,-0.44,0.247,0.153,0.686,-1.550
11890,-0.0623,0.0155,0.0101,0.33,0.06,-0.45,0.246,-1.555,-0.649,-1.715
11901,-0.0624,0.0149,0.0098,0.31,0.06,-0.46,0.246,-0.971,1.891,-1.359
11910,-0.0625,0.0144,0.0048,0.31,0.05,-0.48,0.246,-0.850,1.658,-1.279
11920,-0.0621,0.0135,0.0047,0.29,0.06,-0.49,0.246,-1.259,1.773,-0.749
11930,-0.0622,0.0131,0.0045,0.29,0.05,-0.51,0.246,-0.981,2.545,-0.435
11940,-0.0623,0.0126,0.0045,0.28,0.03,-0.52,0.246,4.989,1.540,-1.556
11950,-0.0623,0.0121,0.0044,0.27,0.01,-0.53,0.246,0.018,1.561,-1.167
11960,-0.0589,0.0135,0.0044,0.26,-0.03,-0.54,0.246,0.276,3.199,-1.336
11970,-0.0605,0.0115,0.0011,0.31,-0.04,-0.56,0.246,2.686,1.924,-2.168
11980,-0.0757,0.0036,0.0011,0.36,0.02,-0.57,0.246,2.376,0.949,-1.666
11990,-0.0719,0.0051,0.0012,0.37,-0.02,-0.58,0.245,3.793,0.592,-1.660
12000,-0.0749,0.0040,0.0013,0.40,-0.02,-0.60,0.245,-0.026,0.850,-0.953
12010,-0.0738,0.0029,-0.0029,0.42,-0.04,-0.62,0.245,-2.884,1.260,-0.578
12020,-0.0737,0.0022,-0.0029,0.45,-0.05,-0.63,0.245,-0.939,0.405,-1.288
12030,-0.0736,0.0014,-0.0031,0.45,-0.06,-0.64,0.245,-3.970,0.925,-0.307
12040,-0.0735,0.0007,-0.0030,0.43,-0.07,-0.65,0.246,1.350,1.042,-1.235
12050,-0.0701,0.0025,-0.0025,0.41,-0.09,-0.67,0.246,-3.296,1.285,-0.407
12060,-0.0700,0.0018,-0.0026,0.38,-0.10,-0.67,0.246,-3.291,1.012,-0.216
12070,-0.0687,0.0020,-0.0025,0.39,-0.12,-0.68,0.246,-0.322,0.469,-1.166
12080,-0.0685,0.0013,-0.0021,0.36,-0.13,-0.69,0.246,-6.743,2.159,-0.125
12090,-0.0683,0.0007,-0.0019,0.33,-0.14,-0.69,0.245,-2.500,2.262,-0.317
12100,-0.0681,0.0001,-0.0018,0.33,-0.15,-0.70,0.245,-3.760,2.176,-0.402
12110,-0.0641,-0.0017,-0.0036,0.28,-0.19,-0.71,0.245,1.029,1.291,-1.072
12120,-0.0638,-0.0022,-0.0037,0.25,-0.21,-0.71,0.245,-1.528,0.674,-0.039
12130,-0.0634,-0.0026,-0.0036,0.21,-0.23,-0.71,0.245,5.287,-0.092,-0.456
12140,-0.0630,-0.0030,-0.0035,0.22,-0.24,-0.72,0.248,0.767,-0.235,-0.080
12150,-0.0647,-0.0072,-0.0030,0.25,-0.24,-0.72,0.248,-2.742,-0.565,0.268
12160,-0.0643,-0.0077,0.0033,0.29,-0.24,-0.73,0.248,-1.478,0.661,0.382
12170,-0.0683,-0.0076,0.0036,0.31,-0.21,-0.73,0.248,5.450,-0.785,-0.843
12180,-0.0623,-0.0073,0.0041,0.28,-0.24,-0.73,0.248,5.943,0.179,-1.417
12190,-0.0584,-0.0059,0.0046,0.26,-0.27,-0.73,0.247,-1.537,1.574,0.288
12199,-0.0579,-0.0063,0.0050,0.30,-0.26,-0.74,0.247,4.822,1.973,-1.371
12209,-0.0633,-0.0135,0.0060,0.39,-0.23,-0.75,0.247,0.829,1.250,-1.183
12220,-0.0629,-0.0142,0.0062,0.39,-0.24,-0.75,0.247,-5.853,1.882,0.524
12230,-0.0505,-0.0124,0.0066,0.42,-0.32,-0.76,0.247,-0.404,1.221,-0.751
12240,-0.0499,-0.0131,0.0068,0.42,-0.34,-0.77,0.246,-3.396,-0.083,-0.379
12250,-0.0552,-0.0158,0.0068,0.38,-0.32,-0.76,0.246,-5.125,0.163,-0.327
12260,-0.0546,-0.0165,0.0044,0.37,-0.33,-0.77,0.246,-8.126,-0.534,0.256
12270,-0.0397,-0.0165,0.0044,0.34,-0.41,-0.78,0.246,-5.144,-0.181,-0.137
