time_ms,vel_x,vel_y,vel_z,roll,pitch,yaw,range_z,gyro_x,gyro_y,gyro_z,ekf_x,ekf_y,acc_x,acc_y,acc_z,ref_x,ref_y,ref_z,est_x,est_y
0,-0.0585,0.0926,0.0080,-0.15,0.00,-0.02,0.015,-0.202,0.087,0.058,-0.0583,0.0851,-0.0024,0.0035,0.9995,0.0000,0.0000,0.2200,0.0000,0.0000
10,-0.0589,0.0929,0.0080,-0.15,0.00,-0.03,0.015,-0.188,-0.064,-0.282,-0.0589,0.0861,-0.0025,0.0031,0.9976,0.0000,0.0000,0.2200,0.0000,0.0000
20,-0.0595,0.0938,0.0044,-0.15,0.00,-0.02,0.015,-0.038,-0.118,-0.335,-0.0595,0.0870,-0.0018,0.0044,0.9992,0.0000,0.0000,0.2200,0.0000,0.0000
30,-0.0597,0.0941,0.0043,-0.15,0.00,-0.03,0.015,-0.774,-0.246,0.044,-0.0601,0.0880,-0.0046,0.0022,0.9985,0.0000,0.0000,0.2200,0.0000,0.0000
40,-0.0598,0.0946,0.0042,-0.15,0.00,-0.03,0.012,0.071,0.076,0.601,-0.0612,0.0899,-0.0189,-0.0169,0.9953,0.0000,0.0000,0.2200,0.0000,0.0000
50,-0.0599,0.0952,0.0040,-0.15,0.00,-0.03,0.012,-0.262,0.083,1.687,-0.0619,0.0908,0.0024,0.0007,1.0014,0.0000,0.0000,0.2200,0.0000,0.0000
60,-0.0602,0.0958,0.0039,-0.15,0.00,-0.03,0.012,-0.656,0.233,3.667,-0.0625,0.0918,-0.0165,-0.0020,0.9981,0.0000,0.0000,0.2200,0.0000,0.0000
69,-0.0608,0.0971,-0.0054,-0.16,0.00,-0.03,0.012,-0.227,-0.327,-1.956,-0.0631,0.0928,-0.0115,-0.0026,0.9984,0.0000,0.0000,0.2200,0.0000,0.0000
80,-0.0608,0.0973,-0.0055,-0.16,0.00,-0.03,0.012,-0.403,-0.547,-0.803,-0.0637,0.0938,-0.0005,-0.0165,0.9915,0.0000,0.0000,0.2200,0.0000,0.0000
90,-0.0608,0.0976,-0.0057,-0.15,0.00,-0.03,0.012,0.618,-0.017,-2.356,-0.0644,0.0948,-0.0157,-0.0193,0.9905,0.0000,0.0000,0.2200,0.0000,0.0000
100,-0.0608,0.0978,-0.0057,-0.15,0.01,-0.03,0.013,0.190,0.469,-2.166,-0.0651,0.0961,-0.0087,-0.0086,1.0144,0.0000,0.0000,0.2200,0.0000,0.0000
110,-0.0608,0.0981,-0.0058,-0.16,0.01,-0.04,0.013,2.270,-0.391,-7.420,-0.0657,0.0971,0.0093,-0.0090,0.9945,0.0000,0.0000,0.2200,0.0000,0.0000
119,-0.0610,0.0987,-0.0080,-0.16,0.01,-0.05,0.013,3.178,0.348,-13.855,-0.0663,0.0981,-0.0032,-0.0102,1.0476,0.0000,0.0000,0.2200,0.0000,0.0000
130,-0.0610,0.0989,-0.0079,-0.16,0.02,-0.07,0.013,-2.259,-5.610,-7.337,-0.0670,0.0991,0.0076,0.0128,0.9445,0.0000,0.0000,0.2200,0.0000,0.0000
140,-0.0611,0.0992,-0.0081,-0.17,0.01,-0.11,0.013,-17.025,5.709,-7.894,-0.0676,0.1001,-0.0075,-0.0045,0.9141,0.0000,0.0000,0.2200,0.0000,0.0000
150,-0.0611,0.0995,-0.0079,-0.15,0.02,-0.21,0.013,6.043,-0.300,-8.959,-0.0682,0.1011,0.0028,-0.0372,1.1227,0.0000,0.0000,0.2200,0.0000,0.0000
160,-0.0611,0.0998,-0.0063,-0.16,-0.02,-0.32,0.013,21.364,-2.142,-8.226,-0.0688,0.1021,0.0039,-0.0114,1.0038,0.0000,0.0000,0.2200,0.0000,0.0000
169,-0.0611,0.1001,-0.0040,-0.14,-0.03,-0.39,0.013,-17.879,-10.193,-7.178,-0.0688,0.1021,0.0094,-0.0102,0.9798,0.0000,0.0000,0.2200,0.0000,0.0000
180,-0.0611,0.1003,-0.0054,-0.30,0.01,-0.47,0.013,-2.599,0.991,-7.792,-0.0694,0.1032,0.0240,-0.0151,0.9956,0.0000,0.0000,0.2200,0.0000,0.0000
189,-0.0611,0.1008,-0.0155,-0.23,0.05,-0.55,0.013,0.405,1.205,-6.351,-0.0700,0.1042,0.0118,0.0024,1.0712,0.0000,0.0000,0.2200,0.0000,0.0000
199,-0.0612,0.1012,-0.0083,-0.22,0.03,-0.63,0.013,-19.060,-5.784,-4.304,-0.0706,0.1051,0.0241,-0.0203,1.0614,0.0000,0.0000,0.2200,0.0000,0.0000
209,-0.0612,0.1016,-0.0042,-0.29,0.09,-0.71,0.013,-5.498,1.040,-1.108,-0.0712,0.1062,0.0180,-0.0303,1.0733,0.0000,0.0000,0.2200,0.0000,0.0000
221,-0.0613,0.1021,-0.0063,-0.33,0.09,-0.79,0.013,-25.780,-9.631,-1.678,-0.0719,0.1072,0.0062,-0.0147,1.1448,0.0000,0.0000,0.2200,0.0000,0.0000
230,-0.0615,0.1026,-0.0064,-0.37,0.08,-0.84,0.013,-35.380,-17.740,-2.941,-0.0725,0.1082,0.0141,-0.0077,1.1389,0.0000,0.0000,0.2200,0.0000,0.0000
241,-0.0616,0.1033,-0.0001,-0.49,0.08,-0.87,0.014,-20.035,-15.775,-1.317,-0.0730,0.1090,0.0206,-0.0070,1.1407,0.0000,0.0000,0.2200,0.0000,0.0000
250,-0.0618,0.1042,0.0060,-0.64,0.13,-0.87,0.014,-15.399,-38.500,0.989,-0.0736,0.1101,0.0090,-0.0102,1.1439,0.0000,0.0000,0.2200,0.0000,0.0000
260,-0.0620,0.1054,0.0127,-0.95,0.26,-0.89,0.014,-12.533,-49.449,2.608,-0.0742,0.1112,0.0235,-0.0171,1.1727,0.0000,0.0000,0.2200,0.0000,0.0000
270,-0.0624,0.1071,0.0277,-1.25,0.41,-0.92,0.014,-15.630,-39.102,4.404,-0.0749,0.1123,0.0162,-0.0152,1.1598,0.0000,0.0000,0.2200,0.0000,0.0000
279,-0.0632,0.1096,0.0417,-1.41,0.68,-0.92,0.014,-25.028,-25.123,2.436,-0.0755,0.1134,0.0063,-0.0074,1.1677,0.0000,0.0000,0.2200,0.0000,0.0000
290,-0.0646,0.1124,0.0552,-1.55,1.13,-0.88,0.014,-39.062,-16.701,2.233,-0.0762,0.1146,0.0164,-0.0105,1.1594,0.0000,0.0000,0.2200,0.0000,0.0000
300,-0.0669,0.1155,0.0691,-1.70,1.59,-0.83,0.013,-23.184,-16.666,1.377,-0.0775,0.1171,0.0216,-0.0130,1.1558,0.0000,0.0000,0.2200,0.0000,0.0000
310,-0.0701,0.1190,0.0853,-1.88,1.91,-0.79,0.013,6.191,-16.105,-1.846,-0.0783,0.1184,0.0095,-0.0155,1.1492,0.0000,0.0000,0.2200,0.0000,0.0000
319,-0.0745,0.1241,0.0928,-2.22,2.12,-0.76,0.013,20.500,-19.139,-1.115,-0.0791,0.1197,0.0027,-0.0332,1.1479,0.0000,0.0000,0.2200,0.0000,0.0000
329,-0.0787,0.1287,0.1089,-2.56,2.27,-0.74,0.013,23.919,-17.839,-2.197,0.3367,-0.0481,0.0037,-0.0318,1.1518,0.0000,0.0000,0.2200,0.0000,0.0000
340,-0.0832,0.1339,0.1244,-2.66,2.43,-0.73,0.001,21.954,-11.160,-0.833,0.2175,0.0002,0.0051,-0.0237,1.1593,0.0000,0.0000,0.2200,0.0000,0.0000
350,0.2834,-0.0120,0.1334,-2.13,1.64,-0.76,0.001,19.809,-1.196,-1.937,0.2339,-0.0675,-0.0017,-0.0145,1.1549,0.0000,0.0000,0.2200,0.0000,0.0000
361,0.1775,0.0417,0.1568,-2.03,2.09,-0.77,0.001,14.761,5.058,-1.964,0.1613,-0.0998,-0.0024,-0.0138,1.1458,0.0000,0.0000,0.2200,0.0000,0.0000
370,0.1802,-0.0214,0.1282,-1.63,2.23,-0.78,0.001,7.074,16.823,-1.910,0.1731,-0.1135,-0.0002,-0.0194,1.1346,0.0000,0.0000,0.2200,0.0000,0.0000
380,0.1086,-0.0471,0.1443,-1.34,2.47,-0.80,0.001,-0.145,20.266,-1.967,0.1783,-0.0941,0.0018,-0.0165,1.1321,0.0000,0.0000,0.2200,0.0000,0.0000
389,0.1136,-0.0566,0.1589,-1.12,2.43,-0.81,0.001,-6.563,21.892,-2.321,0.1928,-0.1244,0.0008,-0.0190,1.1143,0.0000,0.0000,0.2200,0.0000,0.0000
399,0.1126,-0.0357,0.1750,-1.07,2.31,-0.83,0.010,-8.343,20.880,-2.095,0.1835,-0.1038,0.0055,-0.0222,1.1135,0.0000,0.0000,0.2200,0.0000,0.0000
410,0.1210,-0.0622,0.1878,-0.94,2.09,-0.86,0.010,-7.761,17.238,-0.776,0.1134,-0.1532,0.0017,-0.0202,1.1006,0.0000,0.0000,0.2200,0.0000,0.0000
419,0.1081,-0.0397,0.1739,-1.04,1.88,-0.88,0.010,-8.488,14.209,-2.265,0.1248,-0.1335,0.0044,-0.0154,1.0841,0.0000,0.0000,0.2200,0.0000,0.0000
430,0.0319,-0.0873,0.1880,-0.94,1.91,-0.93,0.010,-6.304,9.409,-1.763,0.0973,-0.1583,0.0079,-0.0118,1.0814,0.0000,0.0000,0.2200,0.0000,0.0000
439,0.0395,-0.0631,0.2017,-1.10,1.67,-0.94,0.025,-3.609,-0.336,-2.145,0.1201,-0.1503,0.0043,-0.0146,1.0737,0.0000,0.0000,0.2200,0.0000,0.0000
449,0.0061,-0.0883,0.2110,-1.08,1.62,-0.97,0.025,-2.192,-6.670,-2.161,0.0993,-0.1409,-0.0006,-0.0200,1.0712,0.0000,0.0000,0.2200,0.0000,0.0000
460,0.0293,-0.0751,0.2233,-1.20,1.39,-0.98,0.025,-2.959,-8.651,-1.416,0.1074,-0.1446,0.0021,-0.0193,1.0681,0.0000,0.0000,0.2200,0.0000,0.0000
470,0.0010,-0.0611,0.2312,-1.30,1.44,-1.00,0.025,-4.906,-3.059,-0.631,0.0952,-0.1368,0.0063,-0.0189,1.0564,0.0000,0.0000,0.2200,0.0000,0.0000
479,0.0089,-0.0619,0.2392,-1.32,1.42,-1.02,0.025,-3.367,-0.105,-0.866,0.1025,-0.1377,0.0010,-0.0179,1.0462,0.0000,0.0000,0.2200,0.0000,0.0000
489,-0.0109,-0.0484,0.2470,-1.39,1.59,-1.04,0.025,-3.287,2.501,1.333,0.1025,-0.1348,0.0063,-0.0245,1.0315,0.0000,0.0000,0.2200,0.0000,0.0000
500,-0.0026,-0.0461,0.2551,-1.43,1.60,-1.04,0.043,-1.287,4.488,0.449,0.1059,-0.1125,0.0084,-0.0182,1.0200,0.0000,0.0000,0.2200,0.0000,0.0000
510,-0.0054,-0.0378,0.2620,-1.49,1.62,-1.05,0.043,-0.718,6.836,1.622,0.1039,-0.1138,0.0024,-0.0150,1.0101,0.0000,0.0000,0.2200,0.0000,0.0000
519,-0.0024,0.0076,0.2738,-1.75,1.58,-1.02,0.043,3.635,9.788,3.327,0.0967,-0.1260,-0.0004,-0.0160,1.0004,0.0000,0.0000,0.2200,0.0000,0.0000
530,-0.0093,0.0080,0.2787,-1.75,1.57,-1.02,0.043,7.782,12.544,3.494,0.0949,-0.1262,0.0033,-0.0156,1.0028,0.0000,0.0000,0.2200,0.0000,0.0000
540,-0.0286,-0.0176,0.2828,-1.60,1.61,-1.04,0.064,5.260,12.765,4.158,0.0919,-0.1289,0.0041,-0.0173,1.0032,0.0000,0.0000,0.2200,0.0000,0.0000
550,-0.0355,-0.0151,0.2847,-1.59,1.55,-1.02,0.064,0.679,11.442,4.315,0.0911,-0.1280,0.0054,-0.0133,0.9975,0.0000,0.0000,0.2200,0.0000,0.0000
559,-0.0484,-0.0171,0.2852,-1.50,1.49,-1.00,0.064,-2.319,6.296,3.260,0.0881,-0.1302,0.0080,-0.0180,0.9902,0.0000,0.0000,0.2200,0.0000,0.0000
570,-0.0524,-0.0110,0.3090,-1.46,1.37,-0.96,0.064,-4.236,-0.258,3.036,0.0873,-0.1302,0.0077,-0.0192,0.9812,0.0000,0.0000,0.2200,0.0000,0.0000
579,-0.0654,-0.0178,0.3084,-1.36,1.32,-0.94,0.064,-6.319,-3.098,3.936,0.0867,-0.1304,0.0051,-0.0185,0.9704,0.0000,0.0000,0.2200,0.0000,0.0000
589,-0.0687,-0.0147,0.3086,-1.37,1.24,-0.91,0.064,-3.933,-1.265,4.099,0.0852,-0.1296,0.0011,-0.0183,0.9653,0.0000,0.0000,0.2200,0.0000,0.0000
599,-0.0697,-0.0130,0.3086,-1.41,1.20,-0.87,0.074,-1.902,5.952,4.123,0.0844,-0.1301,-0.0030,-0.0194,0.9545,0.0000,0.0000,0.2200,0.0000,0.0000
609,-0.0806,0.0004,0.3068,-1.54,1.29,-0.83,0.074,4.213,12.265,2.962,0.0834,-0.1302,0.0001,-0.0151,0.9449,0.0000,0.0000,0.2200,0.0000,0.0000
619,-0.0869,-0.0136,0.3011,-1.47,1.35,-0.81,0.074,8.279,14.415,5.442,0.0828,-0.1304,0.0041,-0.0175,0.9444,0.0000,0.0000,0.2200,0.0000,0.0000
629,-0.0856,-0.0085,0.2987,-1.53,1.29,-0.77,0.074,13.807,20.114,6.322,0.0817,-0.1306,0.0086,-0.0200,0.9411,0.0000,0.0000,0.2200,0.0000,0.0000
639,-0.0939,-0.0033,0.2947,-1.56,1.24,-0.74,0.095,17.070,18.521,4.902,0.0798,-0.1311,0.0070,-0.0159,0.9422,0.0000,0.0000,0.2200,0.0000,0.0000
649,-0.0938,0.0009,0.2907,-1.50,1.09,-0.69,0.095,17.112,17.778,4.601,0.0788,-0.1322,0.0064,-0.0173,0.9412,0.0000,0.0000,0.2200,0.0000,0.0000
659,-0.0908,0.0056,0.2860,-1.38,0.88,-0.63,0.095,15.416,14.857,4.469,0.0779,-0.1328,0.0067,-0.0129,0.9408,0.0000,0.0000,0.2200,0.0000,0.0000
670,-0.0935,0.0161,0.2981,-1.29,0.69,-0.58,0.095,12.965,10.256,4.688,0.0759,-0.1326,0.0059,-0.0230,0.9311,0.0000,0.0000,0.2200,0.0000,0.0000
679,-0.0947,0.0220,0.2922,-1.15,0.51,-0.53,0.095,6.304,5.360,5.045,0.0759,-0.1318,0.0085,-0.0219,0.9304,0.0000,0.0000,0.2200,0.0000,0.0000
689,-0.0910,0.0239,0.2870,-0.99,0.31,-0.48,0.095,2.508,1.640,4.926,0.0734,-0.1334,0.0043,-0.0177,0.9352,0.0000,0.0000,0.2200,0.0000,0.0000
699,-0.0950,0.0233,0.2809,-0.84,0.21,-0.44,0.106,-2.853,1.332,4.276,0.0721,-0.1380,0.0047,-0.0210,0.9357,0.0000,0.0000,0.2200,-0.0009,0.0002
709,-0.0897,0.0313,0.2756,-0.80,0.07,-0.39,0.106,-2.885,1.903,5.679,0.0705,-0.1368,0.0035,-0.0164,0.9343,0.0000,0.0000,0.2200,-0.0018,0.0005
719,-0.0882,0.0493,0.2656,-0.90,0.03,-0.32,0.106,-7.314,2.099,2.992,0.0697,-0.1363,0.0047,-0.0140,0.9378,0.0000,0.0000,0.2200,-0.0027,0.0010
729,-0.0861,0.0486,0.2590,-0.89,-0.01,-0.28,0.106,-5.419,5.153,3.250,0.0688,-0.1378,0.0036,-0.0143,0.9347,0.0000,0.0000,0.2200,-0.0036,0.0015
739,-0.0860,0.0500,0.2527,-0.91,-0.02,-0.23,0.124,-3.738,8.467,3.050,0.0657,-0.1372,0.0053,-0.0194,0.9321,0.0000,0.0000,0.2200,-0.0044,0.0020
749,-0.0859,0.0569,0.2460,-1.00,-0.04,-0.18,0.124,-1.972,10.129,3.175,0.0640,-0.1391,0.0053,-0.0166,0.9342,0.0000,0.0000,0.2200,-0.0053,0.0026
759,-0.0812,0.0588,0.2399,-1.08,-0.13,-0.15,0.124,4.466,11.518,2.550,0.0615,-0.1365,0.0029,-0.0172,0.9351,0.0000,0.0000,0.2200,-0.0061,0.0032
770,-0.0798,0.0676,0.2486,-1.19,-0.23,-0.11,0.124,5.463,12.651,3.130,0.0626,-0.1351,0.0035,-0.0178,0.9380,0.0000,0.0000,0.2200,-0.0069,0.0039
779,-0.0751,0.0647,0.2428,-1.16,-0.36,-0.08,0.124,11.650,11.959,2.917,0.0622,-0.1318,0.0032,-0.0177,0.9306,0.0000,0.0000,0.2200,-0.0077,0.0045
789,-0.0790,0.0647,0.2361,-1.13,-0.43,-0.06,0.124,14.390,10.018,3.434,0.0596,-0.1435,0.0089,-0.0177,0.9229,0.0000,0.0000,0.2200,-0.0085,0.0052
799,-0.0793,0.0601,0.2300,-1.03,-0.54,-0.03,0.136,16.096,7.487,2.190,0.0580,-0.1424,0.0112,-0.0188,0.9175,0.0000,0.0000,0.2200,-0.0093,0.0058
809,-0.0742,0.0904,0.2217,-1.20,-0.71,0.00,0.136,16.251,5.657,1.845,0.0567,-0.1393,0.0077,-0.0236,0.9211,0.0000,0.0000,0.2200,-0.0100,0.0067
819,-0.0717,0.0922,0.2210,-1.06,-0.83,0.03,0.136,17.429,1.307,1.223,0.0545,-0.1415,0.0039,-0.0202,0.9191,0.0000,0.0000,0.2200,-0.0107,0.0076
829,-0.0691,0.0892,0.2147,-0.87,-0.93,0.06,0.136,17.202,-0.462,2.009,0.0532,-0.1408,0.0037,-0.0214,0.9205,0.0000,0.0000,0.2200,-0.0114,0.0085
839,-0.0645,0.0976,0.2068,-0.76,-1.02,0.09,0.152,14.617,0.013,2.966,0.0527,-0.1373,0.0028,-0.0156,0.9238,0.0000,0.0000,0.2200,-0.0120,0.0094
849,-0.0613,0.0993,0.1987,-0.59,-1.08,0.11,0.152,11.583,-1.021,2.340,0.0512,-0.1418,0.0020,-0.0186,0.9213,0.0000,0.0000,0.2200,-0.0127,0.0104
859,-0.0606,0.0952,0.1912,-0.39,-1.09,0.14,0.152,7.962,-1.340,2.153,0.0494,-0.1385,0.0085,-0.0141,0.9219,0.0000,0.0000,0.2200,-0.0133,0.0114
869,-0.0577,0.1090,0.2014,-0.35,-1.10,0.15,0.152,6.371,-3.652,1.330,0.0486,-0.1393,0.0044,-0.0146,0.9223,0.0000,0.0000,0.2200,-0.0138,0.0125
879,-0.0531,0.1047,0.1941,-0.17,-1.12,0.18,0.152,4.558,-1.931,0.691,0.0481,-0.1383,0.0048,-0.0259,0.9223,0.0000,0.0000,0.2200,-0.0144,0.0135
889,-0.0507,0.1092,0.1863,-0.10,-1.10,0.19,0.152,2.534,-1.070,1.251,0.0479,-0.1373,0.0013,-0.0147,0.9245,0.0000,0.0000,0.2200,-0.0149,0.0146
899,-0.0490,0.1094,0.1786,-0.02,-1.08,0.21,0.151,0.993,-1.631,0.841,0.0469,-0.1351,0.0029,-0.0141,0.9260,0.0000,0.0000,0.2200,-0.0154,0.0157
909,-0.0481,0.1097,0.1709,0.02,-1.05,0.22,0.151,1.896,-1.253,1.429,0.0465,-0.1340,0.0005,-0.0141,0.9254,0.0000,0.0000,0.2200,-0.0159,0.0168
919,-0.0446,0.1059,0.1483,0.08,-1.04,0.23,0.151,5.626,-1.947,0.277,0.0465,-0.1312,0.0049,-0.0183,0.9243,0.0000,0.0000,0.2200,-0.0163,0.0179
929,-0.0429,0.1058,0.1406,0.10,-1.02,0.24,0.151,4.364,-0.555,1.712,0.0460,-0.1302,0.0028,-0.0140,0.9251,0.0000,0.0000,0.2200,-0.0167,0.0189
939,-0.0422,0.1016,0.1335,0.17,-1.00,0.25,0.159,5.287,-0.674,0.285,0.0450,-0.1280,0.0047,-0.0070,0.9246,0.0000,0.0000,0.2200,-0.0171,0.0199
949,-0.0406,0.1014,0.1261,0.20,-0.99,0.26,0.159,5.664,0.938,1.420,0.0415,-0.1387,0.0045,-0.0160,0.9266,0.0000,0.0000,0.2200,-0.0176,0.0210
959,-0.0375,0.0982,0.1191,0.28,-0.99,0.27,0.159,7.469,-0.169,1.178,0.0407,-0.1362,0.0043,-0.0175,0.9317,0.0000,0.0000,0.2200,-0.0179,0.0219
969,-0.0285,0.1253,0.1078,0.08,-1.05,0.26,0.159,7.265,0.586,0.934,0.0400,-0.1338,0.0022,-0.0212,0.9367,0.0000,0.0000,0.2200,-0.0182,0.0232
979,-0.0257,0.1224,0.1007,0.17,-1.06,0.27,0.159,6.745,1.341,0.964,0.0399,-0.1306,0.0035,-0.0178,0.9375,0.0000,0.0000,0.2200,-0.0185,0.0244
989,-0.0230,0.1193,0.0935,0.26,-1.07,0.29,0.159,7.389,0.934,1.759,0.0383,-0.1284,0.0036,-0.0121,0.9379,0.0000,0.0000,0.2200,-0.0187,0.0256
999,-0.0215,0.1139,0.0865,0.38,-1.08,0.30,0.168,7.721,0.934,1.099,0.0384,-0.1254,0.0066,-0.0158,0.9332,0.0000,0.0000,0.2200,-0.0189,0.0267
1009,-0.0163,0.1108,0.0799,0.47,-1.12,0.31,0.168,7.473,0.946,1.101,0.0385,-0.1221,0.0065,-0.0183,0.9357,0.0000,0.0000,0.2200,-0.0191,0.0279
1019,-0.0150,0.1056,0.0799,0.58,-1.13,0.33,0.168,7.472,-0.713,0.920,0.0377,-0.1218,0.0047,-0.0129,0.9427,0.0000,0.0000,0.2200,-0.0192,0.0289
1029,-0.0138,0.0990,0.0740,0.70,-1.14,0.35,0.168,6.301,-2.529,0.776,0.0380,-0.1169,0.0009,-0.0118,0.9444,0.0000,0.0000,0.2200,-0.0194,0.0299
1039,-0.0103,0.0997,0.0678,0.76,-1.16,0.36,0.168,6.799,-2.499,1.263,0.0369,-0.1162,0.0011,-0.0135,0.9481,0.0000,0.0000,0.2200,-0.0195,0.0309
1049,-0.0093,0.0881,0.0618,0.93,-1.16,0.38,0.168,1.465,-2.294,1.715,0.0370,-0.1131,0.0021,-0.0167,0.9482,0.0000,0.0000,0.2200,-0.0196,0.0318
1059,-0.0048,0.0869,0.0555,0.99,-1.17,0.39,0.168,3.404,-3.548,0.015,0.0357,-0.1151,0.0061,-0.0153,0.9520,0.0000,0.0000,0.2200,-0.0196,0.0326
1069,-0.0032,0.0791,0.0470,1.08,-1.15,0.41,0.168,-0.309,-1.678,1.697,0.0354,-0.1132,0.0026,-0.0177,0.9528,0.0000,0.0000,0.2200,-0.0196,0.0334
1080,0.0021,0.0854,0.0413,1.06,-1.14,0.40,0.168,5.233,-4.829,-0.241,0.0352,-0.1109,-0.0008,-0.0167,0.9516,0.0000,0.0000,0.2200,-0.0196,0.0343
1089,0.0048,0.0807,0.0361,1.12,-1.12,0.42,0.168,4.236,-4.859,-1.338,0.0352,-0.1083,-0.0020,-0.0170,0.9558,0.0000,0.0000,0.2200,-0.0196,0.0351
1099,0.0076,0.0746,0.0312,1.16,-1.10,0.43,0.172,4.600,-6.225,-0.711,0.0348,-0.1105,-0.0011,-0.0207,0.9552,0.0000,0.0000,0.2200,-0.0195,0.0358
1109,0.0096,0.0670,0.0264,1.23,-1.07,0.45,0.172,1.554,-3.739,-0.211,0.0349,-0.1098,0.0034,-0.0159,0.9577,0.0000,0.0000,0.2200,-0.0194,0.0365
1119,0.0130,0.0738,0.0238,1.21,-1.03,0.42,0.172,-1.679,-3.722,-0.070,0.0341,-0.1082,0.0020,-0.0154,0.9591,0.0000,0.0000,0.2200,-0.0193,0.0373
1129,0.0147,0.0718,0.0190,1.25,-0.97,0.41,0.172,-5.671,-0.065,-0.125,0.0343,-0.1069,-0.0005,-0.0098,0.9612,0.0000,0.0000,0.2200,-0.0191,0.0380
1139,0.0193,0.0673,0.0145,1.31,-0.95,0.41,0.175,-7.348,-2.225,-1.740,0.0348,-0.1055,-0.0011,-0.0107,0.9672,0.0000,0.0000,0.2200,-0.0189,0.0386
1149,0.0212,0.0631,0.0102,1.31,-0.91,0.41,0.175,-3.099,-3.614,-1.832,0.0350,-0.1041,-0.0006,-0.0070,0.9735,0.0000,0.0000,0.2200,-0.0187,0.0393
1159,0.0218,0.0582,0.0060,1.29,-0.89,0.41,0.175,-6.710,-3.454,0.421,0.0348,-0.1012,0.0016,-0.0030,0.9698,0.0000,0.0000,0.2200,-0.0185,0.0399
1169,0.0236,0.0534,0.0082,1.24,-0.88,0.41,0.175,-4.533,3.379,-0.751,0.0351,-0.1005,0.0042,-0.0092,0.9710,0.0000,0.0000,0.2200,-0.0183,0.0404
1180,0.0266,0.0431,0.0044,1.26,-0.86,0.39,0.175,-4.506,-0.802,-1.900,0.0345,-0.1014,0.0059,-0.0144,0.9754,0.0000,0.0000,0.2200,-0.0180,0.0408
1189,0.0279,0.0401,0.0010,1.23,-0.84,0.39,0.175,-3.068,-0.903,-1.336,0.0352,-0.1003,0.0013,-0.0126,0.9740,0.0000,0.0000,0.2200,-0.0177,0.0412
1199,0.0326,0.0427,-0.0018,1.15,-0.86,0.38,0.173,-3.026,-3.364,0.252,0.0356,-0.0989,0.0015,-0.0099,0.9792,0.0000,0.0000,0.2200,-0.0174,0.0417
1209,0.0327,0.0383,-0.0046,1.11,-0.87,0.37,0.173,4.071,-1.727,-0.979,0.0357,-0.0987,-0.0002,-0.0113,0.9772,0.0000,0.0000,0.2200,-0.0171,0.0420
1219,0.0339,0.0325,-0.0083,1.11,-0.86,0.36,0.173,4.269,-1.531,-1.581,0.0358,-0.0980,0.0018,-0.0132,0.9758,0.0000,0.0000,0.2200,-0.0167,0.0424
1229,0.0364,0.0310,-0.0112,1.09,-0.83,0.35,0.173,2.679,-1.870,-1.453,0.0360,-0.1000,-0.0010,-0.0129,0.9783,0.0000,0.0000,0.2200,-0.0164,0.0427
1239,0.0391,0.0278,-0.0137,1.11,-0.81,0.34,0.175,1.696,-4.865,-1.110,0.0363,-0.0990,-0.0004,-0.0121,0.9841,0.0000,0.0000,0.2200,-0.0160,0.0429
1249,0.0413,0.0352,-0.0159,1.06,-0.82,0.32,0.175,3.004,-3.448,-1.117,0.0369,-0.0960,0.0039,-0.0124,0.9852,0.0000,0.0000,0.2200,-0.0156,0.0433
1259,0.0434,0.0304,-0.0181,1.12,-0.81,0.31,0.175,1.744,-5.686,-1.020,0.0369,-0.0959,0.0039,-0.0142,0.9834,0.0000,0.0000,0.2200,-0.0151,0.0436
1269,0.0441,0.0166,-0.0155,1.25,-0.76,0.30,0.175,-0.222,-3.838,-0.791,0.0371,-0.0951,0.0021,-0.0107,0.9867,0.0000,0.0000,0.2200,-0.0147,0.0438
1278,0.0474,0.0150,-0.0177,1.27,-0.73,0.29,0.175,-2.318,-5.722,-0.440,0.0384,-0.0938,0.0004,-0.0111,0.9899,0.0000,0.0000,0.2200,-0.0142,0.0439
1289,0.0502,0.0097,-0.0195,1.31,-0.71,0.28,0.175,-2.354,-3.864,-0.226,0.0385,-0.0942,0.0036,-0.0148,0.9884,0.0000,0.0000,0.2200,-0.0137,0.0440
1298,0.0478,0.0015,-0.0211,1.36,-0.62,0.27,0.175,-3.928,-2.599,0.357,0.0393,-0.0946,0.0015,-0.0151,0.9861,0.0000,0.0000,0.2200,-0.0132,0.0440
1309,0.0507,0.0010,-0.0228,1.34,-0.59,0.26,0.175,-5.099,-2.284,0.646,0.0390,-0.0952,0.0005,-0.0118,0.9874,0.0000,0.0000,0.2200,-0.0127,0.0440
1319,0.0507,0.0006,-0.0181,1.30,-0.55,0.26,0.175,-5.030,-2.119,0.167,0.0400,-0.0941,0.0009,-0.0103,0.9863,0.0000,0.0000,0.2200,-0.0122,0.0440
1329,0.0562,0.0017,-0.0192,1.24,-0.56,0.26,0.175,-3.865,-1.892,0.113,0.0405,-0.0934,0.0019,-0.0111,0.9890,0.0000,0.0000,0.2200,-0.0117,0.0441
1339,0.0547,-0.0066,-0.0204,1.24,-0.51,0.27,0.174,-3.755,-2.734,0.537,0.0415,-0.0931,0.0017,-0.0138,0.9912,0.0000,0.0000,0.2200,-0.0111,0.0440
1348,0.0560,-0.0133,-0.0218,1.22,-0.50,0.27,0.174,-2.785,-2.991,0.310,0.0422,-0.0924,0.0020,-0.0109,0.9920,0.0000,0.0000,0.2200,-0.0106,0.0439
1359,0.0544,-0.0184,-0.0231,1.20,-0.46,0.28,0.174,-2.644,-3.455,1.026,0.0425,-0.0929,0.0054,-0.0102,0.9900,0.0000,0.0000,0.2200,-0.0100,0.0437
1368,0.0542,-0.0261,-0.0218,1.20,-0.42,0.29,0.174,-0.745,-3.151,0.929,0.0427,-0.0947,0.0058,-0.0087,0.9895,0.0000,0.0000,0.2200,-0.0095,0.0434
1379,0.0567,-0.0267,-0.0229,1.16,-0.41,0.29,0.174,-0.816,-3.814,0.885,0.0435,-0.0943,0.0012,-0.0072,0.9889,0.0000,0.0000,0.2200,-0.0089,0.0432
1388,0.0601,-0.0178,-0.0236,1.06,-0.40,0.28,0.174,-0.838,-4.872,0.885,0.0441,-0.0933,0.0030,-0.0129,0.9903,0.0000,0.0000,0.2200,-0.0083,0.0430
1399,0.0595,-0.0241,-0.0245,1.07,-0.35,0.30,0.173,-0.491,-4.895,0.972,0.0450,-0.0924,0.0001,-0.0119,0.9910,0.0000,0.0000,0.2200,-0.0077,0.0427
1408,0.0601,-0.0357,-0.0256,1.13,-0.32,0.31,0.173,-0.593,-4.912,1.071,0.0459,-0.0922,0.0000,-0.0108,0.9892,0.0000,0.0000,0.2200,-0.0071,0.0424
1419,0.0581,-0.0482,-0.0240,1.20,-0.25,0.33,0.173,-0.043,-4.136,1.831,0.0466,-0.0916,0.0021,-0.0081,0.9934,0.0000,0.0000,0.2200,-0.0065,0.0419
1428,0.0559,-0.0563,-0.0253,1.24,-0.19,0.35,0.173,-0.330,-4.684,1.792,0.0472,-0.0918,-0.0010,-0.0092,0.9981,0.0000,0.0000,0.2200,-0.0060,0.0413
1439,0.0550,-0.0684,-0.0267,1.30,-0.13,0.37,0.168,-1.309,-2.871,2.781,0.0475,-0.0929,-0.0009,-0.0079,0.9948,0.0000,0.0000,0.2200,-0.0054,0.0406
1448,0.0554,-0.0758,-0.0279,1.34,-0.09,0.39,0.168,-3.190,-3.515,1.998,0.0478,-0.0947,0.0055,-0.0150,0.9927,0.0000,0.0000,0.2200,-0.0049,0.0399
1459,0.0571,-0.0734,-0.0287,1.30,-0.06,0.41,0.168,-5.601,-2.812,2.932,0.0484,-0.0950,0.0058,-0.0120,0.9933,0.0000,0.0000,0.2200,-0.0043,0.0392
1469,0.0598,-0.0643,-0.0356,1.20,-0.05,0.42,0.168,-4.062,-2.272,2.853,0.0492,-0.0956,0.0013,-0.0079,0.9977,0.0000,0.0000,0.2200,-0.0037,0.0385
1478,0.0600,-0.0701,-0.0360,1.21,-0.01,0.44,0.168,-3.025,-1.763,2.869,0.0497,-0.0959,0.0008,-0.0109,0.9956,0.0000,0.0000,0.2200,-0.0031,0.0378
1490,0.0575,-0.0742,-0.0366,1.18,0.04,0.47,0.168,-6.040,-2.113,3.613,0.0503,-0.0970,-0.0003,-0.0066,0.9972,0.0000,0.0000,0.2200,-0.0025,0.0371
1498,0.0590,-0.0822,-0.0377,1.18,0.05,0.50,0.168,-7.967,0.412,4.218,0.0510,-0.0954,0.0033,-0.0113,0.9976,0.0000,0.0000,0.2200,-0.0019,0.0362
1509,0.0592,-0.0804,-0.0381,1.11,0.07,0.53,0.168,-8.738,-0.187,3.765,0.0516,-0.0963,0.0030,-0.0121,1.0000,0.0000,0.0000,0.2200,-0.0013,0.0354
1518,0.0585,-0.1179,-0.0393,1.32,0.10,0.58,0.168,-8.018,-1.467,3.520,0.0521,-0.0975,0.0035,-0.0134,0.9994,0.0000,0.0000,0.2200,-0.0007,0.0343
1529,0.0575,-0.1253,-0.0400,1.28,0.10,0.62,0.168,-8.564,-1.474,4.133,0.0526,-0.0991,0.0048,-0.0139,1.0007,0.0000,0.0000,0.2200,-0.0002,0.0330
1538,0.0593,-0.1282,-0.0404,1.20,0.09,0.66,0.162,-6.974,-1.282,4.236,0.0532,-0.1008,0.0052,-0.0142,0.9994,0.0000,0.0000,0.2200,0.0004,0.0317
1548,0.0593,-0.1242,-0.0401,1.08,0.10,0.69,0.162,-6.122,-1.020,3.881,0.0537,-0.1019,0.0075,-0.0113,0.9998,0.0000,0.0000,0.2200,0.0010,0.0305
1559,0.0593,-0.1133,-0.0390,0.90,0.11,0.73,0.162,-7.528,-0.513,3.930,0.0543,-0.1031,0.0043,-0.0067,1.0054,0.0000,0.0000,0.2200,0.0016,0.0294
1568,0.0620,-0.1159,-0.0480,0.84,0.10,0.76,0.162,-7.220,-1.279,3.852,0.0548,-0.1044,0.0036,-0.0073,1.0016,0.0000,0.0000,0.2200,0.0022,0.0282
1579,0.0619,-0.1173,-0.0480,0.78,0.11,0.80,0.162,-6.996,-1.863,4.001,0.0554,-0.1056,0.0006,-0.0119,1.0038,0.0000,0.0000,0.2200,0.0028,0.0270
1590,0.0648,-0.1143,-0.0478,0.68,0.10,0.84,0.162,-7.226,-1.591,3.937,0.0561,-0.1067,0.0039,-0.0074,1.0033,0.0000,0.0000,0.2200,0.0035,0.0259
1598,0.0647,-0.1140,-0.0477,0.60,0.11,0.88,0.163,-6.823,-2.448,3.649,0.0568,-0.1077,0.0049,-0.0088,1.0045,0.0000,0.0000,0.2200,0.0041,0.0247
1609,0.0616,-0.1151,-0.0472,0.54,0.14,0.92,0.163,-6.333,-2.442,3.393,0.0574,-0.1090,0.0019,-0.0032,1.0042,0.0000,0.0000,0.2200,0.0048,0.0236
1619,0.0618,-0.1300,-0.0448,0.57,0.16,0.96,0.163,-6.301,-2.373,3.372,0.0580,-0.1103,0.0055,-0.0043,1.0075,0.0000,0.0000,0.2200,0.0054,0.0223
1628,0.0616,-0.1289,-0.0443,0.49,0.18,1.00,0.163,-5.425,-2.358,3.443,0.0586,-0.1116,0.0020,-0.0088,1.0055,0.0000,0.0000,0.2200,0.0060,0.0210
1639,0.0639,-0.1207,-0.0435,0.37,0.19,1.03,0.159,-4.785,-2.136,2.899,0.0592,-0.1128,0.0025,-0.0116,1.0076,0.0000,0.0000,0.2200,0.0066,0.0198
1648,0.0609,-0.1281,-0.0434,0.35,0.23,1.07,0.159,-4.287,-2.148,2.992,0.0598,-0.1141,0.0020,-0.0121,1.0091,0.0000,0.0000,0.2200,0.0072,0.0185
1658,0.0606,-0.1296,-0.0430,0.29,0.26,1.10,0.159,-3.890,-1.464,3.374,0.0604,-0.1151,0.0002,-0.0148,1.0074,0.0000,0.0000,0.2200,0.0078,0.0172
1669,0.0602,-0.1252,-0.0451,0.21,0.28,1.13,0.159,-4.339,-2.243,3.206,0.0610,-0.1163,-0.0009,-0.0130,1.0052,0.0000,0.0000,0.2200,0.0085,0.0160
1678,0.0609,-0.1098,-0.0437,0.05,0.29,1.16,0.159,-4.111,-2.118,3.612,0.0617,-0.1176,0.0010,-0.0129,1.0102,0.0000,0.0000,0.2200,0.0091,0.0149
1689,0.0606,-0.1103,-0.0430,0.01,0.31,1.19,0.159,-3.845,-1.559,3.000,0.0623,-0.1191,0.0042,-0.0076,1.0085,0.0000,0.0000,0.2200,0.0097,0.0138
1698,0.0602,-0.1148,-0.0423,-0.01,0.33,1.23,0.156,-2.183,-2.043,2.110,0.0629,-0.1207,0.0010,-0.0103,1.0047,0.0000,0.0000,0.2200,0.0103,0.0126
1709,0.0602,-0.1303,-0.0426,0.05,0.35,1.26,0.156,-1.328,-2.957,2.182,0.0636,-0.1223,0.0007,-0.0101,1.0072,0.0000,0.0000,0.2200,0.0109,0.0113
1718,0.0585,-0.1410,-0.0455,0.09,0.37,1.29,0.156,-3.388,-2.948,2.647,0.0641,-0.1236,0.0015,-0.0105,1.0099,0.0000,0.0000,0.2200,0.0115,0.0099
1729,0.0596,-0.1471,-0.0450,0.10,0.37,1.32,0.156,-4.306,-1.836,2.983,0.0647,-0.1244,0.0051,-0.0083,1.0107,0.0000,0.0000,0.2200,0.0120,0.0084
1738,0.0563,-0.1434,-0.0438,0.06,0.42,1.34,0.154,-4.913,-0.778,2.792,0.0652,-0.1260,0.0052,-0.0086,1.0082,0.0000,0.0000,0.2200,0.0126,0.0070
1748,0.0582,-0.1286,-0.0420,-0.08,0.42,1.37,0.154,-2.741,-1.703,1.781,0.0658,-0.1277,-0.0009,-0.0088,1.0092,0.0000,0.0000,0.2200,0.0132,0.0057
1758,0.0551,-0.1349,-0.0417,-0.07,0.46,1.39,0.154,-5.007,0.047,2.664,0.0664,-0.1287,-0.0006,-0.0077,1.0105,0.0000,0.0000,0.2200,0.0137,0.0044
1768,0.0549,-0.1422,-0.0433,-0.06,0.47,1.41,0.154,-1.431,-0.965,2.367,0.0669,-0.1301,0.0044,-0.0097,1.0123,0.0000,0.0000,0.2200,0.0143,0.0029
1778,0.0557,-0.1340,-0.0417,-0.15,0.47,1.44,0.154,-2.105,-0.822,2.366,0.0673,-0.1295,0.0048,-0.0075,1.0136,0.0000,0.0000,0.2200,0.0149,0.0016
1788,0.0541,-0.1357,-0.0410,-0.18,0.49,1.46,0.154,-5.952,-0.182,1.949,0.0679,-0.1304,0.0031,-0.0079,1.0121,0.0000,0.0000,0.2200,0.0154,0.0002
1799,0.0529,-0.1021,-0.0374,-0.44,0.49,1.49,0.156,-4.611,-2.524,0.397,0.0683,-0.1314,0.0044,-0.0135,1.0102,0.0000,0.0000,0.2200,0.0159,-0.0008
1808,0.0525,-0.0993,-0.0363,-0.48,0.49,1.52,0.156,-2.262,-1.781,1.843,0.0690,-0.1326,0.0027,-0.0095,1.0128,0.0000,0.0000,0.2200,0.0164,-0.0018
1818,0.0510,-0.0979,-0.0282,-0.54,0.50,1.54,0.156,-7.200,-0.830,1.681,0.0694,-0.1331,-0.0001,-0.0113,1.0126,0.0000,0.0000,0.2200,0.0170,-0.0027
1828,0.0519,-0.1005,-0.0271,-0.56,0.51,1.54,0.156,-4.857,-0.835,0.670,0.0700,-0.1361,0.0028,-0.0114,1.0110,0.0000,0.0000,0.2200,0.0175,-0.0038
1838,0.0500,-0.0922,-0.0256,-0.64,0.53,1.56,0.153,-4.188,-0.956,1.178,0.0704,-0.1369,0.0045,-0.0094,1.0080,0.0000,0.0000,0.2200,0.0180,-0.0047
1848,0.0491,-0.1182,-0.0258,-0.51,0.54,1.57,0.153,-4.013,-1.549,1.333,0.0711,-0.1377,0.0038,-0.0117,1.0094,0.0000,0.0000,0.2200,0.0185,-0.0059
1858,0.0474,-0.1132,-0.0242,-0.60,0.56,1.58,0.153,-2.974,-1.614,0.487,0.0716,-0.1388,0.0043,-0.0090,1.0101,0.0000,0.0000,0.2200,0.0189,-0.0070
1869,0.0498,-0.1083,-0.0224,-0.68,0.55,1.59,0.153,-1.355,-1.539,-0.413,0.0720,-0.1397,0.0040,-0.0109,1.0100,0.0000,0.0000,0.2200,0.0194,-0.0081
1878,0.0488,-0.1072,-0.0214,-0.71,0.55,1.60,0.153,1.737,-1.744,-0.131,0.0726,-0.1401,0.0001,-0.0156,1.0093,0.0000,0.0000,0.2200,0.0199,-0.0091
1888,0.0470,-0.1039,-0.0205,-0.76,0.57,1.61,0.153,3.298,-1.892,1.003,0.0731,-0.1418,0.0043,-0.0135,1.0119,0.0000,0.0000,0.2200,0.0204,-0.0102
1899,0.0477,-0.0953,-0.0192,-0.82,0.57,1.61,0.155,3.961,-1.772,0.466,0.0735,-0.1428,0.0043,-0.0113,1.0118,0.0000,0.0000,0.2200,0.0209,-0.0111
1908,0.0461,-0.1023,-0.0186,-0.74,0.60,1.60,0.155,3.788,-0.645,1.637,0.0742,-0.1425,0.0052,-0.0084,1.0110,0.0000,0.0000,0.2200,0.0213,-0.0122
1918,0.0444,-0.1014,-0.0107,-0.72,0.62,1.61,0.155,0.928,1.242,0.895,0.0747,-0.1431,0.0061,-0.0154,1.0060,0.0000,0.0000,0.2200,0.0218,-0.0132
1928,0.0465,-0.0869,-0.0091,-0.77,0.61,1.62,0.155,2.327,0.456,0.692,0.0751,-0.1448,0.0032,-0.0143,1.0116,0.0000,0.0000,0.2200,0.0222,-0.0140
1938,0.0462,-0.0822,-0.0078,-0.75,0.61,1.63,0.153,-0.165,2.148,1.048,0.0753,-0.1454,0.0038,-0.0127,1.0100,0.0000,0.0000,0.2200,0.0227,-0.0149
1948,0.0437,-0.0896,-0.0070,-0.68,0.61,1.64,0.153,-0.398,2.139,2.354,0.0757,-0.1455,0.0025,-0.0131,1.0056,0.0000,0.0000,0.2200,0.0231,-0.0158
1959,0.0410,-0.0862,-0.0059,-0.67,0.61,1.65,0.153,0.798,2.422,2.036,0.0763,-0.1459,0.0038,-0.0123,1.0042,0.0000,0.0000,0.2200,0.0236,-0.0166
1968,0.0396,-0.0778,-0.0044,-0.72,0.59,1.66,0.153,-0.775,1.781,1.496,0.0766,-0.1468,0.0017,-0.0126,1.0057,0.0000,0.0000,0.2200,0.0239,-0.0174
1978,0.0412,-0.0731,-0.0032,-0.74,0.56,1.68,0.153,0.739,0.258,0.735,0.0772,-0.1464,-0.0002,-0.0161,1.0039,0.0000,0.0000,0.2200,0.0244,-0.0181
1988,0.0389,-0.0740,-0.0024,-0.72,0.54,1.70,0.153,0.886,0.061,0.370,0.0775,-0.1484,0.0045,-0.0133,1.0060,0.0000,0.0000,0.2200,0.0247,-0.0189
1999,0.0403,-0.0629,-0.0015,-0.81,0.51,1.72,0.154,1.493,0.433,1.029,0.0779,-0.1495,0.0032,-0.0132,1.0029,0.0000,0.0000,0.2200,0.0252,-0.0195
2008,0.0383,-0.0733,-0.0015,-0.73,0.51,1.72,0.154,-0.458,-1.034,2.393,0.0781,-0.1502,0.0024,-0.0175,1.0054,0.0000,0.0000,0.2200,0.0255,-0.0202
2018,0.0373,-0.0746,0.0017,-0.71,0.50,1.72,0.154,3.618,-1.612,0.309,0.0789,-0.1500,0.0050,-0.0161,1.0017,0.0000,0.0000,0.2200,0.0259,-0.0210
2028,0.0349,-0.0732,0.0021,-0.70,0.51,1.74,0.154,1.846,-1.424,0.262,0.0790,-0.1505,0.0047,-0.0130,0.9996,0.0000,0.0000,0.2200,0.0263,-0.0217
2039,0.0376,-0.0649,0.0028,-0.74,0.50,1.76,0.151,0.148,-1.717,-0.052,0.0793,-0.1510,0.0049,-0.0138,1.0017,0.0000,0.0000,0.2200,0.0266,-0.0224
2047,0.0351,-0.0628,0.0032,-0.73,0.52,1.76,0.151,-0.617,-2.383,0.703,0.0796,-0.1517,0.0077,-0.0117,1.0032,0.0000,0.0000,0.2200,0.0270,-0.0230
2058,0.0339,-0.0606,0.0037,-0.71,0.54,1.77,0.151,3.502,-2.735,0.648,0.0802,-0.1516,0.0070,-0.0162,1.0032,0.0000,0.0000,0.2200,0.0273,-0.0236
2068,0.0326,-0.0595,-0.0015,-0.70,0.55,1.77,0.151,0.464,-2.161,0.754,0.0804,-0.1520,0.0045,-0.0134,1.0039,0.0000,0.0000,0.2200,0.0277,-0.0242
2078,0.0338,-0.0534,-0.0014,-0.73,0.56,1.78,0.151,0.793,-0.765,0.323,0.0812,-0.1523,0.0052,-0.0109,1.0007,0.0000,0.0000,0.2200,0.0280,-0.0247
2088,0.0313,-0.0516,-0.0011,-0.71,0.60,1.78,0.151,1.282,0.627,0.643,0.0813,-0.1532,0.0048,-0.0118,0.9987,0.0000,0.0000,0.2200,0.0283,-0.0252
2098,0.0340,-0.0484,-0.0009,-0.71,0.60,1.80,0.152,2.820,-0.502,-0.159,0.0818,-0.1529,0.0039,-0.0146,0.9977,0.0000,0.0000,0.2200,0.0286,-0.0257
2108,0.0316,-0.0506,-0.0006,-0.67,0.62,1.80,0.152,1.965,1.486,-0.706,0.0821,-0.1533,0.0080,-0.0158,0.9982,0.0000,0.0000,0.2200,0.0290,-0.0262
2118,0.0319,-0.0435,-0.0011,-0.70,0.61,1.81,0.152,3.008,0.559,-0.769,0.0828,-0.1531,0.0042,-0.0183,0.9968,0.0000,0.0000,0.2200,0.0293,-0.0267
2128,0.0308,-0.0423,-0.0010,-0.69,0.61,1.81,0.152,3.110,1.235,-0.910,0.0830,-0.1535,0.0063,-0.0179,0.9964,0.0000,0.0000,0.2200,0.0296,-0.0271
2138,0.0325,-0.0368,-0.0011,-0.70,0.57,1.81,0.152,1.370,0.362,-1.419,0.0832,-0.1546,0.0101,-0.0092,1.0033,0.0000,0.0000,0.2200,0.0299,-0.0275
2148,0.0304,-0.0357,-0.0012,-0.67,0.57,1.81,0.152,-0.239,0.065,-1.186,0.0834,-0.1568,0.0045,-0.0096,1.0029,0.0000,0.0000,0.2200,0.0302,-0.0278
2158,0.0286,-0.0401,-0.0015,-0.61,0.56,1.80,0.152,0.569,-0.195,-1.958,0.0837,-0.1572,0.0029,-0.0134,1.0024,0.0000,0.0000,0.2200,0.0305,-0.0282
2168,0.0269,-0.0509,-0.0024,-0.52,0.56,1.78,0.152,0.728,-1.013,-1.170,0.0842,-0.1576,0.0070,-0.0152,1.0030,0.0000,0.0000,0.2200,0.0308,-0.0287
2178,0.0262,-0.0493,-0.0027,-0.51,0.56,1.77,0.152,-1.298,-0.870,-0.731,0.0843,-0.1582,0.0040,-0.0169,0.9992,0.0000,0.0000,0.2200,0.0310,-0.0292
2188,0.0267,-0.0477,-0.0024,-0.51,0.55,1.75,0.152,0.066,-0.454,-1.645,0.0844,-0.1587,0.0020,-0.0151,1.0021,0.0000,0.0000,0.2200,0.0313,-0.0297
2198,0.0247,-0.0475,-0.0021,-0.50,0.57,1.74,0.151,-2.585,-0.568,-1.318,0.0846,-0.1592,0.0029,-0.0150,1.0035,0.0000,0.0000,0.2200,0.0315,-0.0302
2208,0.0227,-0.0473,-0.0019,-0.51,0.58,1.73,0.151,-0.636,0.562,-2.074,0.0848,-0.1593,0.0048,-0.0106,1.0016,0.0000,0.0000,0.2200,0.0318,-0.0306
2218,0.0216,-0.0464,-0.0038,-0.51,0.59,1.71,0.151,-1.328,-0.162,-1.602,0.0853,-0.1581,0.0022,-0.0099,1.0053,0.0000,0.0000,0.2200,0.0320,-0.0311
2228,0.0209,-0.0437,-0.0038,-0.53,0.59,1.70,0.151,1.200,-0.094,-1.793,0.0853,-0.1638,0.0038,-0.0183,1.0046,0.0000,0.0000,0.2200,0.0322,-0.0315
2238,0.0215,-0.0328,-0.0033,-0.60,0.58,1.69,0.152,-0.983,0.768,-1.872,0.0855,-0.1645,0.0072,-0.0132,1.0059,0.0000,0.0000,0.2200,0.0324,-0.0319
2247,0.0190,-0.0640,-0.0037,-0.38,0.60,1.65,0.152,2.778,-0.082,-2.049,0.0856,-0.1648,0.0071,-0.0126,1.0057,0.0000,0.0000,0.2200,0.0326,-0.0325
2258,0.0180,-0.0634,-0.0034,-0.37,0.61,1.63,0.152,-0.341,0.304,-2.295,0.0858,-0.1646,0.0072,-0.0083,1.0016,0.0000,0.0000,0.2200,0.0328,-0.0331
2268,0.0162,-0.0612,-0.0015,-0.38,0.61,1.61,0.152,1.570,0.414,-3.379,0.0861,-0.1647,0.0052,-0.0088,1.0010,0.0000,0.0000,0.2200,0.0329,-0.0338
2277,0.0158,-0.0555,-0.0008,-0.40,0.60,1.59,0.152,-1.475,0.099,-2.772,0.0859,-0.1653,0.0040,-0.0140,1.0001,0.0000,0.0000,0.2200,0.0331,-0.0343
2288,0.0154,-0.0524,-0.0001,-0.41,0.59,1.57,0.152,-0.064,0.448,-2.516,0.0864,-0.1654,0.0009,-0.0170,0.9987,0.0000,0.0000,0.2200,0.0333,-0.0348
2298,0.0125,-0.0523,0.0004,-0.40,0.61,1.54,0.149,-3.355,0.026,-2.360,0.0867,-0.1655,0.0079,-0.0178,1.0010,0.0000,0.0000,0.2200,0.0334,-0.0354
2309,0.0137,-0.0492,0.0006,-0.43,0.59,1.51,0.149,-1.318,0.044,-2.576,0.0867,-0.1653,0.0041,-0.0168,0.9990,0.0000,0.0000,0.2200,0.0335,-0.0358
2318,0.0136,-0.0461,-0.0051,-0.45,0.58,1.49,0.149,-2.718,1.254,-3.064,0.0870,-0.1656,0.0019,-0.0078,1.0026,0.0000,0.0000,0.2200,0.0337,-0.0363
2328,0.0120,-0.0418,-0.0051,-0.50,0.58,1.46,0.149,-4.222,1.583,-2.901,0.0871,-0.1660,0.0063,-0.0111,1.0058,0.0000,0.0000,0.2200,0.0338,-0.0367
2338,0.0119,-0.0403,-0.0051,-0.52,0.57,1.44,0.150,-2.660,1.646,-2.734,0.0872,-0.1667,0.0039,-0.0156,1.0054,0.0000,0.0000,0.2200,0.0339,-0.0371
2348,0.0109,-0.0394,-0.0051,-0.55,0.56,1.41,0.150,0.999,0.264,-2.525,0.0874,-0.1698,0.0032,-0.0159,1.0055,0.0000,0.0000,0.2200,0.0340,-0.0375
2358,0.0099,-0.0403,-0.0052,-0.58,0.54,1.38,0.150,-0.029,-0.168,-1.756,0.0874,-0.1697,0.0031,-0.0131,1.0057,0.0000,0.0000,0.2200,0.0341,-0.0379
2367,0.0091,-0.0538,-0.0058,-0.51,0.53,1.34,0.150,-0.863,0.555,-2.472,0.0877,-0.1697,0.0093,-0.0128,1.0063,0.0000,0.0000,0.2200,0.0342,-0.0385
2378,0.0079,-0.0494,-0.0052,-0.54,0.52,1.32,0.150,-0.285,0.076,-2.654,0.0874,-0.1698,0.0100,-0.0103,1.0054,0.0000,0.0000,0.2200,0.0343,-0.0390
2387,0.0080,-0.0461,-0.0046,-0.56,0.51,1.30,0.150,0.060,0.152,-2.537,0.0875,-0.1702,0.0048,-0.0084,1.0057,0.0000,0.0000,0.2200,0.0343,-0.0394
2398,0.0054,-0.0432,-0.0041,-0.58,0.52,1.28,0.151,0.524,0.599,-2.836,0.0875,-0.1713,0.0061,-0.0086,1.0053,0.0000,0.0000,0.2200,0.0344,-0.0398
2410,0.0043,-0.0417,-0.0035,-0.58,0.52,1.25,0.151,0.950,1.186,-2.506,0.0879,-0.1732,0.0036,-0.0087,1.0049,0.0000,0.0000,0.2200,0.0344,-0.0403
2418,0.0034,-0.0443,-0.0006,-0.55,0.52,1.22,0.151,1.593,1.615,-2.457,0.0879,-0.1738,0.0016,-0.0116,1.0042,0.0000,0.0000,0.2200,0.0345,-0.0407
2428,0.0040,-0.0511,-0.0003,-0.49,0.50,1.19,0.151,0.725,2.063,-2.235,0.0877,-0.1739,0.0039,-0.0129,0.9993,0.0000,0.0000,0.2200,0.0345,-0.0412
2437,0.0032,-0.0508,0.0002,-0.48,0.49,1.16,0.149,1.235,0.762,-2.219,0.0877,-0.1743,0.0060,-0.0123,1.0067,0.0000,0.0000,0.2200,0.0346,-0.0417
2448,0.0011,-0.0480,0.0008,-0.48,0.48,1.14,0.149,0.448,0.007,-2.130,0.0880,-0.1744,0.0055,-0.0152,1.0048,0.0000,0.0000,0.2200,0.0346,-0.0422
2457,0.0004,-0.0465,0.0013,-0.47,0.47,1.12,0.149,-0.227,-0.295,-2.792,0.0880,-0.1748,0.0041,-0.0172,1.0031,0.0000,0.0000,0.2200,0.0346,-0.0427
2468,0.0010,-0.0439,-0.0014,-0.47,0.45,1.09,0.149,-0.735,0.551,-3.045,0.0880,-0.1752,0.0052,-0.0148,1.0040,0.0000,0.0000,0.2200,0.0346,-0.0431
2477,0.0001,-0.0425,-0.0013,-0.46,0.45,1.07,0.149,-2.297,1.037,-2.760,0.0880,-0.1756,0.0027,-0.0126,1.0021,0.0000,0.0000,0.2200,0.0346,-0.0435
2488,-0.0007,-0.0417,-0.0007,-0.46,0.45,1.04,0.149,-5.187,2.513,-2.815,0.0877,-0.1755,0.0036,-0.0089,1.0016,0.0000,0.0000,0.2200,0.0346,-0.0440
2498,-0.0015,-0.0410,-0.0003,-0.47,0.45,1.01,0.149,-4.674,2.209,-2.972,0.0881,-0.1775,0.0074,-0.0092,1.0022,0.0000,0.0000,0.2200,0.0346,-0.0444
2508,-0.0035,-0.0379,0.0001,-0.51,0.44,0.98,0.149,-4.049,1.637,-2.672,0.0882,-0.1783,0.0061,-0.0063,1.0057,0.0000,0.0000,0.2200,0.0345,-0.0447
2518,-0.0022,-0.0446,-0.0014,-0.51,0.41,0.95,0.149,-2.016,2.134,-2.074,0.0882,-0.1779,0.0075,-0.0105,1.0073,0.0000,0.0000,0.2200,0.0345,-0.0452
2528,-0.0025,-0.0455,-0.0012,-0.54,0.39,0.92,0.149,-1.757,1.808,-2.265,0.0885,-0.1782,0.0094,-0.0114,1.0051,0.0000,0.0000,0.2200,0.0345,-0.0456
2537,-0.0029,-0.0407,-0.0009,-0.61,0.37,0.89,0.151,0.555,0.480,-2.158,0.0883,-0.1782,0.0067,-0.0179,1.0039,0.0000,0.0000,0.2200,0.0344,-0.0460
2548,-0.0018,-0.0389,-0.0006,-0.63,0.34,0.87,0.151,0.633,1.138,-2.974,0.0883,-0.1794,0.0053,-0.0153,1.0066,0.0000,0.0000,0.2200,0.0344,-0.0464
2557,-0.0029,-0.0372,-0.0005,-0.64,0.35,0.85,0.151,0.248,-0.546,-2.905,0.0883,-0.1777,0.0043,-0.0116,1.0063,0.0000,0.0000,0.2200,0.0344,-0.0468
2568,-0.0032,-0.0399,0.0037,-0.63,0.33,0.85,0.151,2.049,-1.215,-2.993,0.0883,-0.1788,0.0057,-0.0073,1.0079,0.0000,0.0000,0.2200,0.0344,-0.0472
2578,-0.0037,-0.0292,0.0044,-0.70,0.32,0.83,0.151,-1.724,-1.385,-2.599,0.0882,-0.1792,0.0049,-0.0085,1.0041,0.0000,0.0000,0.2200,0.0343,-0.0475
2587,-0.0041,-0.0322,0.0049,-0.66,0.31,0.80,0.151,2.178,-1.102,-2.983,0.0882,-0.1794,0.0072,-0.0068,1.0064,0.0000,0.0000,0.2200,0.0343,-0.0478
2598,-0.0046,-0.0311,0.0054,-0.65,0.31,0.77,0.152,-1.890,-0.666,-2.784,0.0881,-0.1797,0.0071,-0.0140,1.0060,0.0000,0.0000,0.2200,0.0342,-0.0481
2607,-0.0052,-0.0300,0.0060,-0.64,0.33,0.74,0.152,-3.031,0.310,-3.055,0.0881,-0.1793,0.0060,-0.0144,1.0066,0.0000,0.0000,0.2200,0.0342,-0.0484
2618,-0.0058,-0.0289,0.0105,-0.65,0.34,0.71,0.152,-1.486,1.395,-3.049,0.0880,-0.1795,0.0058,-0.0120,1.0047,0.0000,0.0000,0.2200,0.0341,-0.0487
2627,-0.0061,-0.0246,0.0111,-0.66,0.34,0.69,0.152,-0.639,0.163,-2.829,0.0880,-0.1798,0.0052,-0.0129,1.0029,0.0000,0.0000,0.2200,0.0341,-0.0490
2638,-0.0067,-0.0235,0.0115,-0.68,0.35,0.66,0.151,0.110,1.696,-3.478,0.0881,-0.1805,0.0078,-0.0114,1.0049,0.0000,0.0000,0.2200,0.0340,-0.0492
2648,-0.0069,-0.0227,0.0121,-0.71,0.35,0.63,0.151,1.372,0.306,-2.366,0.0878,-0.1812,0.0047,-0.0156,1.0039,0.0000,0.0000,0.2200,0.0339,-0.0494
2657,-0.0070,-0.0233,0.0128,-0.71,0.33,0.60,0.151,1.332,1.602,-3.094,0.0881,-0.1771,0.0042,-0.0151,1.0032,0.0000,0.0000,0.2200,0.0339,-0.0497
2668,-0.0086,-0.0243,0.0120,-0.70,0.34,0.57,0.151,1.939,0.776,-2.747,0.0882,-0.1798,0.0018,-0.0149,1.0010,0.0000,0.0000,0.2200,0.0338,-0.0499
2677,-0.0074,-0.0045,0.0124,-0.82,0.31,0.55,0.151,0.277,1.407,-2.720,0.0881,-0.1762,0.0063,-0.0138,1.0023,0.0000,0.0000,0.2200,0.0337,-0.0500
2688,-0.0072,-0.0148,0.0129,-0.73,0.30,0.52,0.151,0.832,-0.461,-2.800,0.0882,-0.1806,0.0093,-0.0165,1.0005,0.0000,0.0000,0.2200,0.0336,-0.0501
2697,-0.0075,0.0027,0.0133,-0.83,0.28,0.49,0.149,-1.665,0.139,-2.576,0.0876,-0.1809,0.0078,-0.0151,0.9969,0.0000,0.0000,0.2200,0.0336,-0.0501
2708,-0.0073,-0.0148,0.0138,-0.68,0.27,0.46,0.149,2.826,-0.883,-3.099,0.0879,-0.1782,0.0076,-0.0157,0.9980,0.0000,0.0000,0.2200,0.0335,-0.0502
2719,-0.0102,-0.0144,0.0072,-0.66,0.27,0.43,0.149,0.273,-1.155,-2.950,0.0879,-0.1799,0.0065,-0.0120,0.9990,0.0000,0.0000,0.2200,0.0334,-0.0504
2728,-0.0088,-0.0014,0.0074,-0.74,0.26,0.41,0.149,0.502,-0.423,-3.141,0.0879,-0.1796,0.0039,-0.0140,0.9983,0.0000,0.0000,0.2200,0.0333,-0.0504
2737,-0.0089,-0.0073,0.0076,-0.69,0.25,0.38,0.151,-2.820,-0.971,-2.568,0.0879,-0.1799,0.0054,-0.0096,1.0002,0.0000,0.0000,0.2200,0.0332,-0.0505
2748,-0.0091,-0.0046,0.0076,-0.68,0.26,0.35,0.151,-1.527,-0.263,-2.844,0.0878,-0.1799,0.0067,-0.0063,1.0007,0.0000,0.0000,0.2200,0.0331,-0.0505
2758,-0.0092,-0.0046,0.0072,-0.66,0.27,0.32,0.151,1.327,-0.395,-3.927,0.0878,-0.1789,0.0048,-0.0107,1.0020,0.0000,0.0000,0.2200,0.0330,-0.0505
2767,-0.0096,-0.0035,0.0067,-0.66,0.27,0.29,0.151,-1.614,-0.179,-2.951,0.0878,-0.1792,0.0044,-0.0143,1.0019,0.0000,0.0000,0.2200,0.0329,-0.0506
2778,-0.0096,0.0022,0.0065,-0.72,0.28,0.26,0.151,1.089,-0.372,-2.794,0.0878,-0.1798,0.0054,-0.0148,1.0035,0.0000,0.0000,0.2200,0.0328,-0.0506
2787,-0.0097,0.0017,0.0064,-0.72,0.27,0.24,0.151,1.512,0.393,-2.634,0.0878,-0.1804,0.0049,-0.0137,1.0015,0.0000,0.0000,0.2200,0.0327,-0.0505
2797,-0.0097,0.0003,0.0065,-0.70,0.27,0.20,0.153,2.112,0.859,-3.050,0.0874,-0.1787,0.0072,-0.0087,1.0009,0.0000,0.0000,0.2200,0.0326,-0.0505
2808,-0.0102,0.0001,0.0068,-0.70,0.27,0.14,0.153,-0.283,0.080,-2.663,0.0874,-0.1778,0.0073,-0.0083,1.0002,0.0000,0.0000,0.2200,0.0325,-0.0505
2819,-0.0113,0.0071,0.0101,-0.75,0.28,0.14,0.153,2.290,-0.017,-3.390,0.0874,-0.1785,0.0068,-0.0124,1.0006,0.0000,0.0000,0.2200,0.0324,-0.0505
2828,-0.0117,0.0133,0.0107,-0.76,0.28,0.08,0.153,2.209,0.817,-3.832,0.0871,-0.1811,0.0062,-0.0131,0.9980,0.0000,0.0000,0.2200,0.0323,-0.0503
2838,-0.0112,0.0099,0.0108,-0.73,0.27,0.08,0.156,1.438,0.183,-4.178,0.0871,-0.1801,0.0047,-0.0175,0.9992,0.0000,0.0000,0.2200,0.0322,-0.0502
2847,-0.0129,0.0009,0.0110,-0.63,0.28,0.01,0.156,1.265,0.966,-4.784,0.0871,-0.1759,0.0054,-0.0135,1.0005,0.0000,0.0000,0.2200,0.0321,-0.0502
2857,-0.0123,0.0047,0.0110,-0.66,0.28,0.01,0.156,0.884,1.689,-4.012,0.0871,-0.1793,0.0042,-0.0136,1.0014,0.0000,0.0000,0.2200,0.0319,-0.0502
2868,-0.0128,0.0243,0.0182,-0.75,0.27,-0.06,0.156,2.902,0.970,-3.637,0.0871,-0.1758,0.0046,-0.0170,1.0002,0.0000,0.0000,0.2200,0.0318,-0.0499
2877,-0.0126,0.0106,0.0184,-0.63,0.26,-0.11,0.156,2.423,1.366,-4.413,0.0865,-0.1794,0.0111,-0.0186,0.9979,0.0000,0.0000,0.2200,0.0317,-0.0498
2887,-0.0124,0.0260,0.0181,-0.71,0.24,-0.15,0.156,1.561,1.426,-3.239,0.0856,-0.1891,0.0086,-0.0175,0.9968,0.0000,0.0000,0.2200,0.0316,-0.0496
2897,-0.0148,0.0109,0.0185,-0.57,0.25,-0.19,0.154,3.008,-0.589,-4.035,0.0854,-0.1894,0.0076,-0.0155,0.9987,0.0000,0.0000,0.2200,0.0314,-0.0495
2907,-0.0187,-0.0294,0.0186,-0.25,0.26,-0.24,0.154,-0.971,-0.427,-5.390,0.0847,-0.1901,0.0038,-0.0138,0.9978,0.0000,0.0000,0.2200,0.0312,-0.0498
2918,-0.0191,-0.0290,0.0162,-0.23,0.24,-0.28,0.154,1.802,-1.132,-4.298,0.0853,-0.1901,0.0058,-0.0133,0.9969,0.0000,0.0000,0.2200,0.0310,-0.0500
2928,-0.0215,-0.0301,0.0159,-0.20,0.26,-0.32,0.154,1.527,-0.733,-3.908,0.0853,-0.1908,0.0104,-0.0152,0.9979,0.0000,0.0000,0.2200,0.0308,-0.0503
2937,-0.0181,-0.0290,0.0160,-0.21,0.24,-0.32,0.155,-1.655,-1.996,-3.911,0.0850,-0.1909,0.0077,-0.0194,0.9958,0.0000,0.0000,0.2200,0.0306,-0.0506
2947,-0.0179,-0.0303,0.0157,-0.21,0.24,-0.41,0.155,-0.425,0.419,-4.377,0.0846,-0.1895,0.0062,-0.0169,0.9979,0.0000,0.0000,0.2200,0.0305,-0.0509
2958,-0.0189,-0.0289,0.0155,-0.20,0.26,-0.41,0.155,-3.522,-0.297,-3.859,0.0846,-0.1898,0.0042,-0.0124,0.9995,0.0000,0.0000,0.2200,0.0303,-0.0512
2967,-0.0199,-0.0218,0.0145,-0.23,0.27,-0.45,0.155,-3.441,0.184,-3.713,0.0846,-0.1910,0.0063,-0.0164,0.9969,0.0000,0.0000,0.2200,0.0301,-0.0514
2977,-0.0196,-0.0218,0.0142,-0.24,0.28,-0.49,0.155,-4.757,1.214,-3.586,0.0840,-0.1912,0.0074,-0.0125,0.9974,0.0000,0.0000,0.2200,0.0299,-0.0517
2987,-0.0192,-0.0254,0.0139,-0.22,0.28,-0.53,0.155,-5.195,1.799,-4.650,0.0840,-0.1884,0.0072,-0.0134,0.9984,0.0000,0.0000,0.2200,0.0297,-0.0519
2997,-0.0215,-0.0248,0.0135,-0.25,0.29,-0.58,0.159,-8.164,1.995,-4.649,0.0844,-0.1840,0.0078,-0.0128,0.9995,0.0000,0.0000,0.2200,0.0295,-0.0522
3007,-0.0210,-0.0122,0.0135,-0.38,0.28,-0.61,0.159,-5.904,2.455,-4.059,0.0841,-0.1812,0.0091,-0.0083,0.9981,0.0000,0.0000,0.2200,0.0293,-0.0523
3017,-0.0191,0.0066,0.0202,-0.55,0.25,-0.64,0.159,-6.556,1.764,-3.419,0.0839,-0.1809,0.0049,-0.0130,0.9967,0.0000,0.0000,0.2200,0.0291,-0.0522
3028,-0.0196,0.0186,0.0198,-0.69,0.24,-0.69,0.159,-3.434,1.326,-3.808,0.0839,-0.1817,0.0054,-0.0116,0.9954,0.0000,0.0000,0.2200,0.0289,-0.0520
3037,-0.0202,0.0198,0.0196,-0.78,0.22,-0.73,0.154,-1.621,2.106,-3.525,0.0840,-0.1807,0.0056,-0.0101,0.9970,0.0000,0.0000,0.2200,0.0287,-0.0518
3047,-0.0196,0.0172,0.0195,-0.82,0.19,-0.76,0.154,1.777,1.783,-3.636,0.0837,-0.1807,0.0033,-0.0109,0.9985,0.0000,0.0000,0.2200,0.0285,-0.0517
3057,-0.0189,0.0219,0.0194,-0.91,0.17,-0.80,0.154,1.688,0.911,-3.056,0.0834,-0.1807,0.0041,-0.0115,0.9976,0.0000,0.0000,0.2200,0.0283,-0.0514
3068,-0.0195,0.0226,0.0097,-0.93,0.15,-0.84,0.154,4.031,0.431,-2.831,0.0835,-0.1811,0.0036,-0.0127,0.9940,0.0000,0.0000,0.2200,0.0281,-0.0512
3077,-0.0201,0.0231,0.0094,-0.94,0.14,-0.87,0.154,4.827,0.765,-3.004,0.0835,-0.1809,0.0095,-0.0150,1.0000,0.0000,0.0000,0.2200,0.0279,-0.0510
3087,-0.0193,0.0221,0.0090,-0.91,0.12,-0.91,0.154,5.477,-0.257,-3.109,0.0828,-0.1819,0.0074,-0.0150,0.9994,0.0000,0.0000,0.2200,0.0277,-0.0508
3097,-0.0187,0.0236,0.0088,-0.89,0.11,-0.94,0.155,5.143,-0.392,-2.803,0.0828,-0.1834,0.0047,-0.0135,0.9960,0.0000,0.0000,0.2200,0.0275,-0.0505
3107,-0.0207,0.0198,0.0088,-0.81,0.11,-0.97,0.155,5.079,0.023,-3.143,0.0828,-0.1819,0.0064,-0.0144,0.9952,0.0000,0.0000,0.2200,0.0273,-0.0503
3118,-0.0201,0.0145,0.0042,-0.71,0.10,-1.00,0.155,5.542,-0.914,-3.523,0.0825,-0.1804,0.0057,-0.0125,0.9971,0.0000,0.0000,0.2200,0.0271,-0.0502
3127,-0.0193,0.0209,0.0038,-0.69,0.10,-1.03,0.155,5.249,-0.852,-2.623,0.0825,-0.1821,0.0061,-0.0167,0.9958,0.0000,0.0000,0.2200,0.0269,-0.0500
3137,-0.0198,0.0271,0.0036,-0.67,0.10,-1.05,0.154,1.519,0.205,-2.410,0.0822,-0.1816,0.0061,-0.0161,0.9964,0.0000,0.0000,0.2200,0.0267,-0.0497
3147,-0.0194,0.0204,0.0037,-0.56,0.10,-1.08,0.154,-0.515,-0.006,-2.433,0.0821,-0.1833,0.0037,-0.0136,0.9980,0.0000,0.0000,0.2200,0.0265,-0.0495
3157,-0.0202,0.0227,0.0033,-0.52,0.11,-1.11,0.154,-0.275,0.251,-2.889,0.0819,-0.1831,0.0045,-0.0130,1.0010,0.0000,0.0000,0.2200,0.0263,-0.0493
3167,-0.0196,0.0159,-0.0022,-0.43,0.11,-1.13,0.154,0.972,-0.049,-2.614,0.0820,-0.1814,0.0059,-0.0124,0.9991,0.0000,0.0000,0.2200,0.0261,-0.0491
3177,-0.0198,0.0166,-0.0025,-0.42,0.11,-1.16,0.154,-0.533,0.842,-1.554,0.0813,-0.1824,0.0069,-0.0201,1.0026,0.0000,0.0000,0.2200,0.0259,-0.0490
3188,-0.0189,0.0234,-0.0030,-0.46,0.10,-1.18,0.154,-3.005,1.221,-2.505,0.0810,-0.1821,0.0092,-0.0165,1.0055,0.0000,0.0000,0.2200,0.0257,-0.0487
3197,-0.0211,0.0194,-0.0033,-0.43,0.11,-1.22,0.154,-0.409,-0.560,-2.751,0.0810,-0.1810,0.0075,-0.0170,1.0029,0.0000,0.0000,0.2200,0.0255,-0.0485
3207,-0.0217,0.0205,-0.0034,-0.43,0.11,-1.24,0.154,-0.360,0.207,-1.505,0.0811,-0.1807,0.0062,-0.0129,1.0026,0.0000,0.0000,0.2200,0.0253,-0.0483
3217,-0.0206,0.0245,-0.0060,-0.45,0.10,-1.26,0.154,-0.374,0.628,-1.496,0.0811,-0.1817,0.0081,-0.0130,1.0048,0.0000,0.0000,0.2200,0.0251,-0.0481
3228,-0.0198,0.0257,-0.0060,-0.47,0.08,-1.28,0.154,-1.348,-0.567,-2.098,0.0811,-0.1808,0.0092,-0.0150,1.0031,0.0000,0.0000,0.2200,0.0249,-0.0478
3237,-0.0192,0.0212,-0.0056,-0.44,0.08,-1.31,0.156,2.382,-0.979,-1.512,0.0811,-0.1820,0.0096,-0.0162,1.0044,0.0000,0.0000,0.2200,0.0247,-0.0476
3247,-0.0183,0.0250,-0.0051,-0.46,0.07,-1.33,0.156,-2.338,0.004,-1.230,0.0804,-0.1807,0.0074,-0.0149,1.0061,0.0000,0.0000,0.2200,0.0245,-0.0474
3257,-0.0179,0.0197,-0.0048,-0.42,0.06,-1.34,0.156,0.225,-2.954,-2.657,0.0802,-0.1804,0.0072,-0.0139,1.0086,0.0000,0.0000,0.2200,0.0244,-0.0472
3267,-0.0199,0.0249,-0.0012,-0.46,0.08,-1.36,0.156,2.477,-1.152,-1.452,0.0802,-0.1797,0.0076,-0.0168,1.0100,0.0000,0.0000,0.2200,0.0242,-0.0469
3277,-0.0200,0.0257,-0.0007,-0.46,0.09,-1.38,0.156,-0.763,-1.374,-2.408,0.0805,-0.1805,0.0104,-0.0189,1.0076,0.0000,0.0000,0.2200,0.0240,-0.0467
3288,-0.0195,0.0282,-0.0005,-0.48,0.09,-1.39,0.156,3.623,-1.866,-1.949,0.0801,-0.1805,0.0072,-0.0184,1.0041,0.0000,0.0000,0.2200,0.0238,-0.0464
3297,-0.0176,0.0246,0.0002,-0.45,0.10,-1.42,0.157,0.447,-0.832,-0.686,0.0797,-0.1809,0.0048,-0.0183,1.0004,0.0000,0.0000,0.2200,0.0236,-0.0461
3307,-0.0184,0.0245,0.0008,-0.42,0.11,-1.43,0.157,2.102,-0.822,-2.808,0.0794,-0.1807,0.0041,-0.0164,1.0002,0.0000,0.0000,0.2200,0.0234,-0.0459
3317,-0.0194,0.0225,0.0060,-0.41,0.13,-1.45,0.157,1.386,0.237,-0.839,0.0797,-0.1807,0.0025,-0.0166,0.9998,0.0000,0.0000,0.2200,0.0232,-0.0457
3327,-0.0203,0.0233,0.0068,-0.38,0.14,-1.47,0.157,0.124,-1.073,-1.897,0.0790,-0.1807,0.0084,-0.0149,1.0025,0.0000,0.0000,0.2200,0.0230,-0.0454
3337,-0.0184,0.0231,0.0075,-0.36,0.14,-1.48,0.155,0.941,-1.335,-2.353,0.0790,-0.1811,0.0043,-0.0131,1.0036,0.0000,0.0000,0.2200,0.0228,-0.0452
3347,-0.0206,0.0226,0.0079,-0.33,0.16,-1.51,0.155,-0.306,-0.272,-0.338,0.0788,-0.1809,0.0050,-0.0151,1.0037,0.0000,0.0000,0.2200,0.0226,-0.0450
3357,-0.0200,0.0207,0.0078,-0.30,0.16,-1.52,0.155,-2.162,-0.938,-2.294,0.0788,-0.1813,0.0043,-0.0182,1.0045,0.0000,0.0000,0.2200,0.0224,-0.0448
3367,-0.0202,0.0212,0.0050,-0.29,0.16,-1.54,0.155,-0.232,-1.240,-2.668,0.0785,-0.1813,0.0076,-0.0159,1.0101,0.0000,0.0000,0.2200,0.0222,-0.0445
3377,-0.0197,0.0192,0.0051,-0.27,0.16,-1.56,0.155,-1.047,-1.225,-1.650,0.0785,-0.1798,0.0047,-0.0126,1.0071,0.0000,0.0000,0.2200,0.0220,-0.0444
3387,-0.0205,0.0190,0.0054,-0.27,0.16,-1.57,0.155,-1.993,-0.866,-1.529,0.0783,-0.1796,0.0035,-0.0153,1.0027,0.0000,0.0000,0.2200,0.0218,-0.0442
3397,-0.0198,0.0244,0.0057,-0.32,0.17,-1.59,0.154,-1.525,-1.027,-1.583,0.0776,-0.1795,0.0041,-0.0176,1.0024,0.0000,0.0000,0.2200,0.0216,-0.0439
3407,-0.0201,0.0250,0.0061,-0.33,0.18,-1.61,0.154,-2.124,-0.610,-0.995,0.0776,-0.1788,0.0052,-0.0167,0.9997,0.0000,0.0000,0.2200,0.0214,-0.0437
3417,-0.0223,0.0247,0.0023,-0.34,0.20,-1.62,0.154,-1.252,-1.902,-1.595,0.0776,-0.1792,0.0041,-0.0205,0.9969,0.0000,0.0000,0.2200,0.0212,-0.0434
3427,-0.0216,0.0272,0.0032,-0.38,0.20,-1.64,0.154,-0.772,-1.233,-1.717,0.0780,-0.1791,0.0067,-0.0165,1.0014,0.0000,0.0000,0.2200,0.0210,-0.0432
3437,-0.0212,0.0253,0.0037,-0.37,0.21,-1.65,0.155,-1.921,-0.925,-0.829,0.0772,-0.1798,0.0070,-0.0156,1.0026,0.0000,0.0000,0.2200,0.0208,-0.0429
3447,-0.0193,0.0251,0.0040,-0.38,0.20,-1.66,0.155,0.185,-1.180,-0.914,0.0772,-0.1788,0.0067,-0.0166,1.0040,0.0000,0.0000,0.2200,0.0206,-0.0426
3457,-0.0217,0.0221,0.0042,-0.37,0.23,-1.68,0.155,0.636,-0.368,-0.789,0.0769,-0.1788,0.0033,-0.0169,1.0023,0.0000,0.0000,0.2200,0.0203,-0.0424
3467,-0.0212,0.0260,0.0031,-0.40,0.23,-1.69,0.155,2.571,0.437,-0.827,0.0769,-0.1796,0.0038,-0.0129,1.0056,0.0000,0.0000,0.2200,0.0201,-0.0422
3477,-0.0222,0.0253,0.0031,-0.40,0.25,-1.70,0.155,1.991,0.798,-1.374,0.0769,-0.1808,0.0075,-0.0148,1.0018,0.0000,0.0000,0.2200,0.0199,-0.0419
3487,-0.0217,0.0221,0.0033,-0.37,0.25,-1.71,0.155,1.549,1.142,-0.834,0.0766,-0.1804,0.0095,-0.0151,1.0031,0.0000,0.0000,0.2200,0.0197,-0.0417
3497,-0.0211,0.0174,0.0037,-0.32,0.24,-1.72,0.158,1.752,0.905,-0.691,0.0764,-0.1802,0.0085,-0.0192,1.0047,0.0000,0.0000,0.2200,0.0195,-0.0415
3507,-0.0218,0.0185,0.0040,-0.31,0.24,-1.73,0.158,2.173,0.708,-1.177,0.0761,-0.1800,0.0066,-0.0167,1.0046,0.0000,0.0000,0.2200,0.0193,-0.0413
3517,-0.0223,0.0191,0.0101,-0.30,0.23,-1.74,0.158,0.998,0.411,-0.507,0.0762,-0.1793,0.0090,-0.0143,1.0036,0.0000,0.0000,0.2200,0.0190,-0.0411
3527,-0.0226,0.0197,0.0105,-0.29,0.21,-1.75,0.158,0.558,0.283,-0.775,0.0752,-0.1786,0.0069,-0.0142,1.0002,0.0000,0.0000,0.2200,0.0188,-0.0409
3537,-0.0218,0.0220,0.0107,-0.29,0.19,-1.75,0.158,-0.112,-0.303,-0.604,0.0752,-0.1789,0.0045,-0.0145,0.9999,0.0000,0.0000,0.2200,0.0186,-0.0407
3547,-0.0252,0.0246,0.0110,-0.29,0.21,-1.77,0.158,-0.640,-0.381,-0.771,0.0750,-0.1787,0.0068,-0.0173,1.0016,0.0000,0.0000,0.2200,0.0183,-0.0405
3556,-0.0244,0.0227,0.0115,-0.27,0.19,-1.77,0.158,-0.304,-0.929,-0.467,0.0750,-0.1794,0.0100,-0.0206,1.0012,0.0000,0.0000,0.2200,0.0181,-0.0403
3567,-0.0247,0.0232,0.0142,-0.26,0.19,-1.78,0.158,-0.840,-1.102,-0.569,0.0750,-0.1783,0.0066,-0.0194,1.0018,0.0000,0.0000,0.2200,0.0179,-0.0400
3577,-0.0240,0.0199,0.0144,-0.24,0.19,-1.78,0.158,-0.402,-0.746,-0.236,0.0746,-0.1805,0.0071,-0.0150,0.9976,0.0000,0.0000,0.2200,0.0176,-0.0398
3587,-0.0232,0.0240,0.0144,-0.27,0.18,-1.79,0.158,-0.449,-0.755,0.139,0.0747,-0.1782,0.0079,-0.0088,0.9978,0.0000,0.0000,0.2200,0.0174,-0.0396
3597,-0.0243,0.0151,0.0145,-0.22,0.19,-1.79,0.155,-0.773,-0.349,0.405,0.0736,-0.1782,0.0090,-0.0105,1.0007,0.0000,0.0000,0.2200,0.0171,-0.0394
3607,-0.0233,0.0234,0.0146,-0.28,0.20,-1.80,0.155,-0.843,0.196,0.307,0.0740,-0.1786,0.0043,-0.0104,0.9987,0.0000,0.0000,0.2200,0.0169,-0.0392
3616,-0.0269,0.0230,0.0078,-0.28,0.23,-1.80,0.155,0.652,0.083,1.077,0.0748,-0.1765,0.0051,-0.0131,0.9989,0.0000,0.0000,0.2200,0.0166,-0.0390
3627,-0.0248,0.0211,0.0078,-0.26,0.22,-1.80,0.155,1.220,0.455,1.133,0.0740,-0.1795,0.0068,-0.0142,0.9983,0.0000,0.0000,0.2200,0.0164,-0.0388
3636,-0.0211,0.0289,0.0075,-0.32,0.20,-1.79,0.159,1.150,1.318,0.818,0.0729,-0.1787,0.0069,-0.0137,0.9974,0.0000,0.0000,0.2200,0.0162,-0.0385
3647,-0.0236,0.0170,0.0077,-0.24,0.22,-1.79,0.159,1.162,1.452,1.025,0.0726,-0.1795,0.0073,-0.0154,0.9983,0.0000,0.0000,0.2200,0.0159,-0.0383
3656,-0.0270,0.0195,0.0076,-0.24,0.24,-1.78,0.159,1.091,1.863,1.118,0.0727,-0.1792,0.0035,-0.0167,1.0016,0.0000,0.0000,0.2200,0.0157,-0.0381
3667,-0.0276,0.0163,0.0113,-0.21,0.23,-1.77,0.159,0.935,2.224,1.160,0.0721,-0.1781,0.0082,-0.0140,0.9973,0.0000,0.0000,0.2200,0.0154,-0.0379
3677,-0.0266,0.0172,0.0113,-0.20,0.21,-1.76,0.159,0.657,2.409,1.377,0.0718,-0.1785,0.0093,-0.0152,0.9956,0.0000,0.0000,0.2200,0.0151,-0.0378
3687,-0.0282,0.0210,0.0110,-0.21,0.20,-1.75,0.159,0.452,2.398,1.298,0.0715,-0.1785,0.0080,-0.0132,0.9993,0.0000,0.0000,0.2200,0.0148,-0.0376
3696,-0.0285,0.0191,0.0108,-0.19,0.18,-1.74,0.157,-0.490,2.227,1.944,0.0713,-0.1778,0.0054,-0.0136,0.9974,0.0000,0.0000,0.2200,0.0146,-0.0374
3707,-0.0287,0.0186,0.0109,-0.18,0.16,-1.72,0.157,-0.417,2.023,1.727,0.0714,-0.1786,0.0041,-0.0157,0.9968,0.0000,0.0000,0.2200,0.0143,-0.0372
3716,-0.0287,0.0209,0.0070,-0.19,0.14,-1.71,0.157,-0.732,2.131,2.090,0.0714,-0.1793,0.0062,-0.0171,0.9961,0.0000,0.0000,0.2200,0.0140,-0.0370
3727,-0.0276,0.0176,0.0066,-0.17,0.10,-1.70,0.157,-0.680,1.914,1.866,0.0716,-0.1778,0.0076,-0.0159,0.9989,0.0000,0.0000,0.2200,0.0137,-0.0368
3737,-0.0265,0.0146,0.0064,-0.15,0.07,-1.68,0.157,-0.243,2.225,1.511,0.0716,-0.1789,0.0085,-0.0153,0.9988,0.0000,0.0000,0.2200,0.0134,-0.0367
3746,-0.0251,0.0197,0.0063,-0.19,0.04,-1.66,0.157,0.324,0.783,1.597,0.0710,-0.1778,0.0085,-0.0156,0.9947,0.0000,0.0000,0.2200,0.0132,-0.0365
3757,-0.0241,0.0153,0.0060,-0.17,0.01,-1.64,0.157,-1.189,0.641,2.155,0.0714,-0.1778,0.0079,-0.0166,0.9945,0.0000,0.0000,0.2200,0.0130,-0.0363
3766,-0.0255,0.0191,0.0030,-0.20,0.01,-1.62,0.157,-0.378,0.474,1.952,0.0714,-0.1782,0.0067,-0.0167,0.9956,0.0000,0.0000,0.2200,0.0127,-0.0361
3777,-0.0230,0.0187,0.0029,-0.20,-0.03,-1.61,0.157,-1.010,1.111,2.232,0.0708,-0.1788,0.0051,-0.0135,0.9943,0.0000,0.0000,0.2200,0.0125,-0.0359
3786,-0.0220,0.0169,0.0028,-0.19,-0.04,-1.59,0.157,-0.513,1.153,1.896,0.0705,-0.1760,0.0041,-0.0101,0.9939,0.0000,0.0000,0.2200,0.0123,-0.0358
3797,-0.0237,0.0141,0.0024,-0.17,-0.04,-1.57,0.158,-1.167,1.587,2.416,0.0696,-0.1753,0.0038,-0.0141,0.9973,0.0000,0.0000,0.2200,0.0120,-0.0356
3806,-0.0235,0.0245,0.0018,-0.25,-0.04,-1.55,0.158,-0.473,1.269,2.763,0.0700,-0.1731,0.0066,-0.0135,0.9975,0.0000,0.0000,0.2200,0.0118,-0.0354
3817,-0.0262,0.0267,0.0017,-0.27,-0.03,-1.53,0.158,0.093,0.545,2.208,0.0698,-0.1728,0.0063,-0.0124,0.9927,0.0000,0.0000,0.2200,0.0115,-0.0351
3826,-0.0235,0.0340,0.0011,-0.33,-0.07,-1.51,0.158,-0.913,0.536,2.364,0.0698,-0.1732,0.0055,-0.0134,0.9975,0.0000,0.0000,0.2200,0.0113,-0.0348
3837,-0.0233,0.0345,0.0005,-0.34,-0.08,-1.48,0.157,-0.865,0.230,2.419,0.0699,-0.1736,0.0072,-0.0146,0.9967,0.0000,0.0000,0.2200,0.0110,-0.0344
3846,-0.0221,0.0323,0.0001,-0.32,-0.10,-1.46,0.157,-0.674,0.245,2.561,0.0695,-0.1729,0.0043,-0.0161,0.9956,0.0000,0.0000,0.2200,0.0108,-0.0341
3857,-0.0211,0.0302,0.0000,-0.30,-0.11,-1.43,0.157,0.306,0.329,2.176,0.0692,-0.1722,0.0057,-0.0140,0.9934,0.0000,0.0000,0.2200,0.0106,-0.0338
3866,-0.0213,0.0322,-0.0026,-0.32,-0.11,-1.41,0.157,0.183,0.096,2.736,0.0693,-0.1715,0.0049,-0.0177,0.9932,0.0000,0.0000,0.2200,0.0104,-0.0335
3876,-0.0214,0.0341,-0.0031,-0.33,-0.11,-1.39,0.157,1.169,0.118,2.719,0.0692,-0.1748,0.0096,-0.0186,0.9937,0.0000,0.0000,0.2200,0.0102,-0.0331
3887,-0.0203,0.0359,-0.0034,-0.34,-0.12,-1.37,0.157,0.067,0.039,2.747,0.0686,-0.1719,0.0106,-0.0166,0.9962,0.0000,0.0000,0.2200,0.0100,-0.0328
3896,-0.0195,0.0230,-0.0035,-0.24,-0.13,-1.34,0.158,0.128,-0.439,2.516,0.0690,-0.1716,0.0048,-0.0146,0.9981,0.0000,0.0000,0.2200,0.0098,-0.0325
3907,-0.0209,0.0330,-0.0043,-0.31,-0.12,-1.31,0.158,0.333,-1.379,1.979,0.0686,-0.1731,0.0061,-0.0137,0.9992,0.0000,0.0000,0.2200,0.0096,-0.0322
3916,-0.0185,0.0334,-0.0035,-0.30,-0.13,-1.28,0.158,0.551,-0.733,2.111,0.0685,-0.1770,0.0060,-0.0156,0.9990,0.0000,0.0000,0.2200,0.0094,-0.0319
3926,-0.0191,0.0273,-0.0040,-0.25,-0.13,-1.26,0.158,1.135,-0.577,2.336,0.0686,-0.1713,0.0070,-0.0197,0.9988,0.0000,0.0000,0.2200,0.0092,-0.0316
3936,-0.0185,0.0121,-0.0043,-0.13,-0.12,-1.23,0.157,0.705,-0.013,2.360,0.0686,-0.1711,0.0044,-0.0173,0.9992,0.0000,0.0000,0.2200,0.0090,-0.0315
3946,-0.0173,0.0328,-0.0046,-0.28,-0.12,-1.21,0.157,1.575,-0.264,2.321,0.0683,-0.1715,0.0057,-0.0140,1.0002,0.0000,0.0000,0.2200,0.0088,-0.0312
3956,-0.0164,0.0331,-0.0047,-0.27,-0.11,-1.19,0.157,0.711,0.399,2.413,0.0683,-0.1722,0.0052,-0.0155,0.9992,0.0000,0.0000,0.2200,0.0087,-0.0308
3967,-0.0169,0.0308,-0.0058,-0.24,-0.10,-1.16,0.157,-0.270,0.045,2.371,0.0683,-0.1726,0.0084,-0.0156,1.0016,0.0000,0.0000,0.2200,0.0085,-0.0305
3976,-0.0160,0.0272,-0.0058,-0.20,-0.10,-1.14,0.157,0.216,-0.218,2.096,0.0684,-0.1684,0.0089,-0.0201,1.0066,0.0000,0.0000,0.2200,0.0084,-0.0302
3986,-0.0152,0.0250,-0.0059,-0.17,-0.11,-1.11,0.157,-0.151,0.075,1.797,0.0684,-0.1678,0.0086,-0.0153,1.0028,0.0000,0.0000,0.2200,0.0082,-0.0300
3996,-0.0141,0.0400,-0.0060,-0.27,-0.12,-1.09,0.159,-1.301,1.244,1.914,0.0677,-0.1670,0.0074,-0.0104,1.0015,0.0000,0.0000,0.2200,0.0081,-0.0296
4006,-0.0133,0.0414,-0.0061,-0.27,-0.12,-1.07,0.159,0.909,0.487,2.051,0.0677,-0.1677,0.0084,-0.0127,1.0007,0.0000,0.0000,0.2200,0.0079,-0.0292
4017,-0.0152,0.0432,-0.0015,-0.28,-0.11,-1.05,0.159,1.298,0.155,2.219,0.0676,-0.1673,0.0042,-0.0128,0.9992,0.0000,0.0000,0.2200,0.0078,-0.0287
4026,-0.0144,0.0394,-0.0009,-0.26,-0.11,-1.03,0.159,1.226,0.343,2.631,0.0674,-0.1669,0.0062,-0.0177,1.0019,0.0000,0.0000,0.2200,0.0076,-0.0284
4037,-0.0142,0.0399,-0.0004,-0.27,-0.12,-1.01,0.157,0.622,-0.270,2.710,0.0675,-0.1663,0.0080,-0.0193,1.0003,0.0000,0.0000,0.2200,0.0075,-0.0280
4048,-0.0140,0.0403,-0.0002,-0.26,-0.12,-0.99,0.157,1.607,-1.160,2.622,0.0675,-0.1623,0.0087,-0.0112,1.0006,0.0000,0.0000,0.2200,0.0074,-0.0276
4056,-0.0132,0.0417,-0.0002,-0.26,-0.12,-0.96,0.157,1.585,-1.164,2.646,0.0668,-0.1631,0.0060,-0.0125,1.0004,0.0000,0.0000,0.2200,0.0072,-0.0271
4067,-0.0122,0.0556,-0.0023,-0.34,-0.13,-0.94,0.157,1.528,-0.398,2.650,0.0666,-0.1626,0.0053,-0.0163,1.0038,0.0000,0.0000,0.2200,0.0071,-0.0266
4076,-0.0144,0.0508,-0.0021,-0.28,-0.11,-0.92,0.157,2.677,-0.687,2.427,0.0666,-0.1620,0.0072,-0.0163,1.0014,0.0000,0.0000,0.2200,0.0070,-0.0261
4087,-0.0142,0.0512,-0.0020,-0.27,-0.11,-0.89,0.157,1.028,-0.795,2.693,0.0667,-0.1602,0.0080,-0.0163,1.0024,0.0000,0.0000,0.2200,0.0068,-0.0256
4096,-0.0134,0.0522,-0.0019,-0.25,-0.10,-0.87,0.159,0.038,-0.457,2.358,0.0667,-0.1600,0.0057,-0.0156,0.9984,0.0000,0.0000,0.2200,0.0067,-0.0250
4106,-0.0126,0.0572,-0.0020,-0.27,-0.09,-0.85,0.159,-1.197,-0.987,2.727,0.0667,-0.1605,0.0065,-0.0147,1.0007,0.0000,0.0000,0.2200,0.0066,-0.0245
4116,-0.0119,0.0566,0.0021,-0.25,-0.09,-0.82,0.159,0.726,0.157,2.891,0.0668,-0.1602,0.0075,-0.0142,0.9993,0.0000,0.0000,0.2200,0.0064,-0.0239
4126,-0.0112,0.0529,0.0025,-0.21,-0.09,-0.79,0.159,1.339,0.311,2.829,0.0668,-0.1591,0.0086,-0.0148,1.0004,0.0000,0.0000,0.2200,0.0063,-0.0234
4137,-0.0105,0.0523,0.0027,-0.20,-0.09,-0.77,0.159,0.153,-0.213,2.950,0.0664,-0.1581,0.0085,-0.0122,1.0021,0.0000,0.0000,0.2200,0.0062,-0.0228
4146,-0.0100,0.0546,0.0027,-0.21,-0.09,-0.74,0.159,2.520,0.605,2.397,0.0664,-0.1572,0.0051,-0.0137,1.0010,0.0000,0.0000,0.2200,0.0061,-0.0223
4156,-0.0108,0.0566,0.0025,-0.22,-0.08,-0.71,0.159,2.008,0.155,2.796,0.0664,-0.1562,0.0052,-0.0166,1.0019,0.0000,0.0000,0.2200,0.0060,-0.0217
4167,-0.0102,0.0586,0.0043,-0.22,-0.08,-0.69,0.159,1.892,-0.466,2.342,0.0665,-0.1534,0.0062,-0.0142,1.0010,0.0000,0.0000,0.2200,0.0059,-0.0211
4176,-0.0097,0.0604,0.0043,-0.21,-0.09,-0.66,0.159,2.767,-1.843,2.139,0.0664,-0.1553,0.0082,-0.0151,1.0008,0.0000,0.0000,0.2200,0.0058,-0.0205
4186,-0.0090,0.0689,0.0042,-0.25,-0.09,-0.64,0.159,3.228,-1.474,2.180,0.0664,-0.1552,0.0105,-0.0141,1.0001,0.0000,0.0000,0.2200,0.0057,-0.0199
4196,-0.0086,0.0594,0.0047,-0.16,-0.09,-0.61,0.158,2.727,-1.020,2.102,0.0661,-0.1546,0.0047,-0.0139,1.0004,0.0000,0.0000,0.2200,0.0056,-0.0193
4206,-0.0082,0.0581,0.0049,-0.13,-0.08,-0.59,0.158,2.877,-0.219,2.630,0.0660,-0.1551,0.0041,-0.0158,0.9961,0.0000,0.0000,0.2200,0.0055,-0.0187
4216,-0.0092,0.0583,0.0032,-0.10,-0.06,-0.57,0.158,3.304,0.041,1.863,0.0660,-0.1538,0.0057,-0.0204,0.9964,0.0000,0.0000,0.2200,0.0055,-0.0181
4227,-0.0088,0.0544,0.0035,-0.03,-0.05,-0.54,0.158,2.570,-0.622,2.256,0.0660,-0.1543,0.0070,-0.0176,0.9990,0.0000,0.0000,0.2200,0.0054,-0.0176
4236,-0.0084,0.0573,0.0034,-0.03,-0.05,-0.52,0.157,2.550,-0.515,2.897,0.0660,-0.1537,0.0068,-0.0151,0.9985,0.0000,0.0000,0.2200,0.0053,-0.0170
4247,-0.0080,0.0534,0.0035,0.03,-0.05,-0.50,0.157,2.799,-0.774,3.206,0.0660,-0.1514,0.0061,-0.0136,0.9980,0.0000,0.0000,0.2200,0.0052,-0.0164
4257,-0.0077,0.0536,0.0033,0.06,-0.05,-0.48,0.157,1.507,-1.231,2.759,0.0660,-0.1512,0.0082,-0.0121,1.0006,0.0000,0.0000,0.2200,0.0051,-0.0159
4267,-0.0073,0.0602,-0.0007,0.04,-0.04,-0.46,0.157,1.855,-1.491,2.585,0.0663,-0.1502,0.0084,-0.0166,0.9974,0.0000,0.0000,0.2200,0.0051,-0.0153
4276,-0.0071,0.0586,-0.0008,0.08,-0.03,-0.43,0.157,1.703,-0.938,2.576,0.0660,-0.1510,0.0105,-0.0161,0.9992,0.0000,0.0000,0.2200,0.0050,-0.0147
4286,-0.0054,0.0598,-0.0009,0.10,-0.03,-0.40,0.157,1.389,-0.422,3.090,0.0656,-0.1512,0.0111,-0.0146,0.9991,0.0000,0.0000,0.2200,0.0049,-0.0141
4296,-0.0066,0.0543,-0.0009,0.15,-0.02,-0.38,0.158,1.474,0.015,3.159,0.0656,-0.1498,0.0087,-0.0149,0.9997,0.0000,0.0000,0.2200,0.0049,-0.0136
4306,-0.0078,0.0516,-0.0008,0.18,0.00,-0.35,0.158,-0.355,-0.523,3.021,0.0663,-0.1503,0.0016,-0.0127,0.9981,0.0000,0.0000,0.2200,0.0048,-0.0131
4316,-0.0075,0.0543,-0.0010,0.18,0.01,-0.33,0.158,-0.940,-0.312,2.692,0.0663,-0.1494,0.0036,-0.0143,0.9972,0.0000,0.0000,0.2200,0.0047,-0.0125
4326,-0.0046,0.0502,-0.0010,0.22,-0.01,-0.30,0.158,2.679,0.005,1.707,0.0659,-0.1483,0.0053,-0.0163,0.9999,0.0000,0.0000,0.2200,0.0047,-0.0120
4336,-0.0044,0.0515,-0.0011,0.22,-0.00,-0.28,0.157,0.825,0.121,2.020,0.0656,-0.1512,0.0048,-0.0156,0.9998,0.0000,0.0000,0.2200,0.0046,-0.0115
4346,-0.0056,0.0531,-0.0012,0.22,0.01,-0.25,0.157,0.923,-1.261,0.870,0.0656,-0.1471,0.0068,-0.0158,1.0040,0.0000,0.0000,0.2200,0.0046,-0.0110
4356,-0.0067,0.0401,-0.0009,0.31,0.02,-0.22,0.157,2.675,-0.010,2.158,0.0656,-0.1469,0.0026,-0.0101,1.0028,0.0000,0.0000,0.2200,0.0045,-0.0106
4365,-0.0065,0.0534,-0.0034,0.23,0.01,-0.20,0.157,-0.066,-1.991,0.200,0.0652,-0.1465,0.0064,-0.0133,0.9999,0.0000,0.0000,0.2200,0.0044,-0.0100
4376,-0.0062,0.0534,-0.0035,0.24,0.02,-0.19,0.157,0.569,0.890,1.295,0.0652,-0.1465,0.0080,-0.0143,0.9999,0.0000,0.0000,0.2200,0.0044,-0.0095
4386,-0.0074,0.0507,-0.0035,0.27,0.03,-0.17,0.157,0.514,-0.785,0.385,0.0655,-0.1461,0.0049,-0.0134,1.0017,0.0000,0.0000,0.2200,0.0043,-0.0090
4396,-0.0075,0.0502,-0.0032,0.28,0.05,-0.16,0.158,-3.669,-0.008,1.148,0.0655,-0.1461,0.0057,-0.0144,1.0036,0.0000,0.0000,0.2200,0.0042,-0.0085
4406,-0.0058,0.0475,-0.0028,0.29,0.04,-0.16,0.158,0.929,-1.552,0.103,0.0655,-0.1449,0.0099,-0.0168,1.0052,0.0000,0.0000,0.2200,0.0042,-0.0080
4416,-0.0059,0.0470,-0.0014,0.31,0.04,-0.14,0.158,1.435,0.392,1.968,0.0655,-0.1449,0.0072,-0.0174,1.0043,0.0000,0.0000,0.2200,0.0041,-0.0076
4426,-0.0056,0.0475,-0.0015,0.29,0.04,-0.14,0.158,-3.002,-1.550,0.109,0.0654,-0.1440,0.0051,-0.0144,1.0027,0.0000,0.0000,0.2200,0.0041,-0.0071
4436,-0.0057,0.0470,-0.0013,0.28,0.04,-0.13,0.156,-0.515,-1.258,1.152,0.0649,-0.1431,0.0068,-0.0129,1.0035,0.0000,0.0000,0.2200,0.0040,-0.0066
4446,-0.0058,0.0465,-0.0011,0.28,0.04,-0.12,0.156,-0.417,-0.978,1.652,0.0649,-0.1420,0.0069,-0.0205,1.0071,0.0000,0.0000,0.2200,0.0039,-0.0061
4457,-0.0072,0.0475,-0.0007,0.28,0.07,-0.11,0.156,-2.482,-0.101,1.773,0.0653,-0.1421,0.0082,-0.0176,1.0059,0.0000,0.0000,0.2200,0.0039,-0.0057
4466,-0.0071,0.0494,-0.0036,0.23,0.08,-0.10,0.156,-2.288,-1.391,0.592,0.0649,-0.1422,0.0052,-0.0154,1.0052,0.0000,0.0000,0.2200,0.0038,-0.0052
4476,-0.0056,0.0468,-0.0033,0.24,0.08,-0.09,0.156,1.026,-0.587,1.089,0.0649,-0.1410,0.0038,-0.0137,1.0041,0.0000,0.0000,0.2200,0.0037,-0.0047
4486,-0.0071,0.0444,-0.0030,0.25,0.10,-0.08,0.156,0.974,0.890,1.699,0.0650,-0.1412,0.0037,-0.0143,1.0028,0.0000,0.0000,0.2200,0.0037,-0.0043
4496,-0.0070,0.0466,-0.0025,0.22,0.11,-0.06,0.158,2.496,0.909,0.667,0.0642,-0.1406,0.0033,-0.0140,1.0010,0.0000,0.0000,0.2200,0.0036,-0.0038
4506,-0.0069,0.0457,-0.0018,0.20,0.11,-0.05,0.158,2.883,-0.210,1.130,0.0646,-0.1415,0.0047,-0.0104,1.0031,0.0000,0.0000,0.2200,0.0035,-0.0033
4516,-0.0096,0.0460,0.0015,0.20,0.13,-0.04,0.158,-0.346,-0.326,2.047,0.0643,-0.1408,0.0059,-0.0120,1.0019,0.0000,0.0000,0.2200,0.0034,-0.0029
4526,-0.0079,0.0405,0.0020,0.26,0.11,-0.03,0.158,1.348,-1.482,0.097,0.0642,-0.1404,0.0042,-0.0133,0.9996,0.0000,0.0000,0.2200,0.0034,-0.0025
4536,-0.0091,0.0409,0.0023,0.28,0.12,-0.01,0.160,-0.684,0.965,2.209,0.0642,-0.1397,0.0053,-0.0170,1.0018,0.0000,0.0000,0.2200,0.0033,-0.0021
4546,-0.0093,0.0404,0.0025,0.29,0.12,-0.00,0.160,1.437,-1.248,0.857,0.0642,-0.1365,0.0034,-0.0148,1.0025,0.0000,0.0000,0.2200,0.0032,-0.0017
4556,-0.0092,0.0411,0.0027,0.30,0.12,0.02,0.160,-0.761,1.278,1.605,0.0642,-0.1358,0.0019,-0.0157,1.0020,0.0000,0.0000,0.2200,0.0031,-0.0012
4566,-0.0089,0.0515,0.0083,0.22,0.12,0.02,0.160,2.066,-1.269,0.478,0.0643,-0.1362,0.0054,-0.0130,1.0013,0.0000,0.0000,0.2200,0.0030,-0.0007
4576,-0.0088,0.0517,0.0083,0.23,0.12,0.04,0.160,-1.299,0.787,1.204,0.0643,-0.1348,0.0048,-0.0144,0.9983,0.0000,0.0000,0.2200,0.0029,-0.0002
4586,-0.0085,0.0477,0.0085,0.26,0.12,0.05,0.160,0.575,-0.233,0.272,0.0636,-0.1349,0.0038,-0.0170,0.9999,0.0000,0.0000,0.2200,0.0028,0.0003
4595,-0.0084,0.0508,0.0087,0.24,0.12,0.06,0.158,-1.214,0.933,1.113,0.0636,-0.1345,0.0034,-0.0174,0.9987,0.0000,0.0000,0.2200,0.0027,0.0008
4606,-0.0110,0.0483,0.0090,0.26,0.14,0.07,0.158,-0.521,1.344,-0.289,0.0636,-0.1357,0.0035,-0.0136,1.0023,0.0000,0.0000,0.2200,0.0026,0.0013
4616,-0.0107,0.0473,0.0070,0.25,0.13,0.09,0.158,-1.238,1.483,0.751,0.0636,-0.1347,0.0026,-0.0139,0.9975,0.0000,0.0000,0.2200,0.0025,0.0017
4626,-0.0105,0.0406,0.0070,0.29,0.13,0.09,0.158,1.377,2.180,0.229,0.0637,-0.1343,0.0029,-0.0184,0.9967,0.0000,0.0000,0.2200,0.0024,0.0021
4636,-0.0102,0.0425,0.0069,0.27,0.12,0.09,0.158,1.799,2.346,0.412,0.0636,-0.1339,0.0040,-0.0127,1.0003,0.0000,0.0000,0.2200,0.0023,0.0026
4646,-0.0098,0.0417,0.0067,0.27,0.11,0.09,0.158,0.707,2.076,0.418,0.0629,-0.1307,0.0050,-0.0139,1.0004,0.0000,0.0000,0.2200,0.0022,0.0030
4656,-0.0100,0.0412,0.0069,0.28,0.09,0.10,0.158,1.301,2.243,-0.352,0.0633,-0.1309,0.0055,-0.0159,1.0005,0.0000,0.0000,0.2200,0.0021,0.0034
4666,-0.0123,0.0513,0.0048,0.21,0.08,0.10,0.158,-0.291,1.892,-0.207,0.0634,-0.1299,0.0039,-0.0192,0.9985,0.0000,0.0000,0.2200,0.0020,0.0039
4676,-0.0104,0.0486,0.0045,0.24,0.05,0.10,0.158,2.373,1.631,-1.525,0.0631,-0.1307,0.0049,-0.0140,0.9990,0.0000,0.0000,0.2200,0.0019,0.0044
4687,-0.0097,0.0499,0.0045,0.24,0.03,0.09,0.158,1.114,1.457,-0.571,0.0624,-0.1297,0.0060,-0.0143,0.9983,0.0000,0.0000,0.2200,0.0018,0.0049
4696,-0.0106,0.0446,0.0046,0.30,0.01,0.09,0.161,1.342,1.193,-0.682,0.0628,-0.1290,0.0080,-0.0157,0.9985,0.0000,0.0000,0.2200,0.0017,0.0053
4706,-0.0127,0.0461,0.0047,0.29,0.01,0.09,0.161,0.707,0.376,-0.594,0.0627,-0.1286,0.0057,-0.0142,0.9963,0.0000,0.0000,0.2200,0.0016,0.0058
4716,-0.0107,0.0464,0.0096,0.31,-0.02,0.08,0.161,1.989,1.970,-0.624,0.0628,-0.1294,0.0033,-0.0153,0.9987,0.0000,0.0000,0.2200,0.0014,0.0063
4726,-0.0106,0.0459,0.0096,0.33,-0.03,0.08,0.161,2.358,1.937,-0.281,0.0624,-0.1280,0.0030,-0.0181,0.9953,0.0000,0.0000,0.2200,0.0013,0.0067
4736,-0.0101,0.0405,0.0095,0.38,-0.05,0.07,0.162,2.716,1.266,-0.043,0.0623,-0.1275,0.0026,-0.0188,0.9940,0.0000,0.0000,0.2200,0.0012,0.0071
4745,-0.0108,0.0436,0.0092,0.37,-0.05,0.07,0.162,1.791,0.831,0.234,0.0616,-0.1284,0.0034,-0.0180,0.9988,0.0000,0.0000,0.2200,0.0011,0.0076
4756,-0.0107,0.0430,0.0089,0.39,-0.07,0.06,0.162,0.273,1.777,0.182,0.0621,-0.1285,0.0089,-0.0104,0.9993,0.0000,0.0000,0.2200,0.0010,0.0080
4766,-0.0129,0.0374,0.0128,0.44,-0.06,0.06,0.162,1.314,2.278,0.562,0.0613,-0.1286,0.0074,-0.0129,1.0020,0.0000,0.0000,0.2200,0.0009,0.0084
4775,-0.0106,0.0347,0.0124,0.48,-0.09,0.06,0.162,1.928,1.441,0.112,0.0610,-0.1365,0.0068,-0.0145,0.9975,0.0000,0.0000,0.2200,0.0008,0.0087
4786,-0.0127,0.0324,0.0119,0.51,-0.09,0.06,0.162,1.759,1.201,0.966,0.0607,-0.1354,0.0053,-0.0158,0.9936,0.0000,0.0000,0.2200,0.0007,0.0090
4795,-0.0132,0.0004,0.0119,0.73,-0.10,0.06,0.159,0.756,1.797,0.485,0.0608,-0.1362,0.0054,-0.0159,0.9929,0.0000,0.0000,0.2200,0.0005,0.0090
4806,-0.0137,0.0033,0.0119,0.71,-0.11,0.06,0.159,0.930,1.032,-0.324,0.0605,-0.1362,0.0055,-0.0088,0.9948,0.0000,0.0000,0.2200,0.0004,0.0091
4816,-0.0129,-0.0009,0.0060,0.74,-0.13,0.07,0.159,0.789,0.617,-1.015,0.0603,-0.1362,0.0062,-0.0133,0.9935,0.0000,0.0000,0.2200,0.0003,0.0091
4826,-0.0134,-0.0022,0.0058,0.76,-0.15,0.08,0.159,0.439,1.312,-0.478,0.0604,-0.1355,0.0029,-0.0139,0.9939,0.0000,0.0000,0.2200,0.0001,0.0090
4836,-0.0131,-0.0035,0.0053,0.77,-0.16,0.08,0.160,-1.080,0.396,-0.325,0.0605,-0.1358,0.0029,-0.0142,0.9972,0.0000,0.0000,0.2200,-0.0000,0.0090
4846,-0.0120,-0.0018,0.0046,0.76,-0.18,0.07,0.160,-1.612,0.358,-0.572,0.0609,-0.1350,0.0057,-0.0118,0.9944,0.0000,0.0000,0.2200,-0.0001,0.0090
4856,-0.0110,-0.0043,0.0040,0.78,-0.20,0.07,0.160,-3.600,0.730,-0.371,0.0605,-0.1349,0.0054,-0.0088,0.9957,0.0000,0.0000,0.2200,-0.0002,0.0089
4867,-0.0087,-0.0023,0.0018,0.75,-0.22,0.06,0.160,-4.017,0.077,-0.230,0.0604,-0.1349,0.0050,-0.0139,0.9980,0.0000,0.0000,0.2200,-0.0003,0.0089
4876,-0.0093,-0.0031,0.0012,0.73,-0.22,0.06,0.160,-4.097,-0.493,-0.047,0.0603,-0.1350,0.0049,-0.0128,0.9976,0.0000,0.0000,0.2200,-0.0004,0.0089
4885,-0.0090,-0.0043,0.0009,0.70,-0.23,0.06,0.160,-4.569,0.295,-0.459,0.0595,-0.1356,0.0081,-0.0144,0.9983,0.0000,0.0000,0.2200,-0.0005,0.0088
4896,-0.0086,-0.0055,0.0004,0.66,-0.23,0.05,0.161,-4.314,-0.640,-0.359,0.0594,-0.1357,0.0046,-0.0127,0.9966,0.0000,0.0000,0.2200,-0.0006,0.0088
4906,-0.0109,-0.0090,-0.0001,0.63,-0.21,0.05,0.161,-4.843,-0.014,-0.132,0.0595,-0.1351,0.0043,-0.0141,0.9972,0.0000,0.0000,0.2200,-0.0007,0.0087
4916,-0.0105,-0.0101,0.0009,0.59,-0.22,0.05,0.161,-3.813,-0.908,-0.067,0.0594,-0.1352,0.0047,-0.0092,0.9966,0.0000,0.0000,0.2200,-0.0008,0.0086
4925,-0.0096,-0.0083,0.0007,0.53,-0.22,0.04,0.161,-3.926,-1.268,0.233,0.0594,-0.1355,0.0058,-0.0117,0.9979,0.0000,0.0000,0.2200,-0.0009,0.0085
4936,-0.0092,-0.0092,0.0005,0.49,-0.22,0.04,0.160,-2.892,-0.980,0.196,0.0603,-0.1346,0.0056,-0.0146,0.9975,0.0000,0.0000,0.2200,-0.0010,0.0084
4945,-0.0084,-0.0107,0.0002,0.45,-0.22,0.04,0.160,0.102,-0.883,-0.811,0.0602,-0.1286,0.0066,-0.0133,0.9978,0.0000,0.0000,0.2200,-0.0011,0.0083
4956,-0.0046,-0.0077,-0.0000,0.39,-0.24,0.04,0.160,0.143,-1.091,-0.434,0.0602,-0.1282,0.0030,-0.0133,1.0001,0.0000,0.0000,0.2200,-0.0011,0.0082
4966,-0.0042,0.0140,-0.0020,0.22,-0.23,0.03,0.160,-1.301,-1.672,-0.146,0.0602,-0.1286,0.0070,-0.0173,0.9997,0.0000,0.0000,0.2200,-0.0012,0.0084
4975,-0.0038,0.0146,-0.0023,0.21,-0.22,0.03,0.160,-0.535,-0.690,-0.859,0.0601,-0.1285,0.0074,-0.0155,1.0011,0.0000,0.0000,0.2200,-0.0012,0.0085
4986,-0.0033,0.0121,-0.0025,0.22,-0.21,0.03,0.160,-0.453,-0.436,-0.361,0.0601,-0.1284,0.0079,-0.0116,0.9990,0.0000,0.0000,0.2200,-0.0012,0.0086
4995,-0.0030,0.0117,-0.0027,0.21,-0.19,0.02,0.158,0.230,-1.536,0.016,0.0601,-0.1289,0.0047,-0.0141,0.9986,0.0000,0.0000,0.2200,-0.0013,0.0088
5006,-0.0027,0.0113,-0.0028,0.21,-0.19,0.02,0.158,-0.433,-1.091,-0.522,0.0600,-0.1294,0.0008,-0.0107,1.0003,0.0000,0.0000,0.2200,-0.0013,0.0089
5016,-0.0024,0.0089,-0.0081,0.23,-0.18,0.01,0.158,-0.025,-0.874,-0.147,0.0604,-0.1298,0.0031,-0.0152,1.0000,0.0000,0.0000,0.2200,-0.0013,0.0090
5026,-0.0021,0.0064,-0.0080,0.24,-0.17,0.01,0.158,1.858,-0.548,-0.688,0.0604,-0.1276,0.0069,-0.0177,1.0013,0.0000,0.0000,0.2200,-0.0013,0.0090
5035,-0.0004,0.0043,-0.0081,0.26,-0.17,0.01,0.158,0.351,-0.693,-0.510,0.0604,-0.1275,0.0065,-0.0172,1.0026,0.0000,0.0000,0.2200,-0.0013,0.0091
5046,-0.0003,0.0114,-0.0082,0.20,-0.16,0.00,0.158,0.056,-1.073,-0.966,0.0599,-0.1276,0.0072,-0.0121,1.0028,0.0000,0.0000,0.2200,-0.0013,0.0092
5055,-0.0000,0.0110,-0.0082,0.21,-0.15,-0.00,0.158,2.735,-0.684,-0.598,0.0603,-0.1294,0.0073,-0.0167,1.0019,0.0000,0.0000,0.2200,-0.0013,0.0093
5066,-0.0014,0.0100,-0.0102,0.22,-0.13,-0.01,0.158,3.429,-0.801,-0.053,0.0603,-0.1294,0.0059,-0.0161,1.0028,0.0000,0.0000,0.2200,-0.0014,0.0094
5075,0.0003,0.0027,-0.0101,0.28,-0.14,-0.02,0.158,2.579,-0.843,-0.056,0.0603,-0.1286,0.0062,-0.0174,1.0026,0.0000,0.0000,0.2200,-0.0014,0.0094
5086,0.0006,0.0022,-0.0098,0.29,-0.13,-0.02,0.158,1.056,-0.540,-0.211,0.0602,-0.1291,0.0077,-0.0172,1.0033,0.0000,0.0000,0.2200,-0.0013,0.0094
5095,0.0006,0.0046,-0.0095,0.29,-0.12,-0.03,0.159,0.564,0.640,0.199,0.0603,-0.1291,0.0065,-0.0158,1.0015,0.0000,0.0000,0.2200,-0.0013,0.0095
5105,0.0007,0.0021,-0.0093,0.31,-0.12,-0.03,0.159,-0.656,0.251,-0.239,0.0603,-0.1287,0.0049,-0.0105,1.0022,0.0000,0.0000,0.2200,-0.0013,0.0095
5115,0.0010,0.0015,-0.0068,0.32,-0.11,-0.03,0.159,-0.574,1.110,-0.146,0.0607,-0.1296,0.0101,-0.0157,1.0020,0.0000,0.0000,0.2200,-0.0013,0.0095
5125,0.0011,0.0024,-0.0065,0.32,-0.11,-0.03,0.159,0.268,0.155,0.499,0.0607,-0.1300,0.0102,-0.0157,1.0063,0.0000,0.0000,0.2200,-0.0013,0.0096
5136,0.0028,-0.0015,-0.0061,0.35,-0.13,-0.03,0.161,-1.938,0.709,1.173,0.0607,-0.1300,0.0071,-0.0119,1.0057,0.0000,0.0000,0.2200,-0.0013,0.0095
5145,0.0029,-0.0034,-0.0060,0.37,-0.13,-0.03,0.161,-3.936,-1.148,0.280,0.0607,-0.1292,0.0055,-0.0135,1.0026,0.0000,0.0000,0.2200,-0.0013,0.0095
5155,0.0032,-0.0040,-0.0058,0.37,-0.13,-0.03,0.161,-1.349,-0.143,0.340,0.0608,-0.1292,0.0050,-0.0141,1.0025,0.0000,0.0000,0.2200,-0.0012,0.0095
5166,0.0033,-0.0014,0.0004,0.33,-0.12,-0.02,0.161,-2.717,0.366,0.130,0.0607,-0.1301,0.0057,-0.0123,1.0062,0.0000,0.0000,0.2200,-0.0012,0.0094
5177,0.0035,-0.0019,0.0009,0.31,-0.12,-0.02,0.161,-0.247,-2.682,-0.604,0.0608,-0.1301,0.0074,-0.0096,1.0065,0.0000,0.0000,0.2200,-0.0012,0.0094
5185,0.0034,-0.0055,0.0014,0.32,-0.11,-0.02,0.161,2.779,-1.311,0.077,0.0608,-0.1302,0.0061,-0.0126,0.9996,0.0000,0.0000,0.2200,-0.0011,0.0094
5195,0.0036,-0.0061,0.0017,0.32,-0.10,-0.02,0.160,-0.680,-0.438,0.343,0.0608,-0.1303,0.0075,-0.0120,1.0005,0.0000,0.0000,0.2200,-0.0011,0.0093
5205,0.0037,-0.0066,0.0020,0.30,-0.09,-0.02,0.160,0.175,-1.671,-0.004,0.0609,-0.1303,0.0070,-0.0143,0.9997,0.0000,0.0000,0.2200,-0.0010,0.0092
5215,0.0039,-0.0072,0.0040,0.29,-0.08,-0.01,0.160,0.958,0.239,-0.505,0.0614,-0.1304,0.0061,-0.0137,0.9986,0.0000,0.0000,0.2200,-0.0010,0.0092
5225,0.0040,-0.0077,0.0045,0.29,-0.07,-0.01,0.160,0.935,-0.787,-0.313,0.0603,-0.1401,0.0074,-0.0107,1.0033,0.0000,0.0000,0.2200,-0.0010,0.0091
5236,0.0057,-0.0080,0.0046,0.27,-0.07,-0.01,0.158,0.604,-0.890,0.817,0.0603,-0.1393,0.0061,-0.0118,1.0025,0.0000,0.0000,0.2200,-0.0009,0.0090
5245,0.0020,-0.0421,0.0043,0.51,-0.05,-0.01,0.158,-3.236,0.802,0.799,0.0604,-0.1397,0.0072,-0.0166,1.0016,0.0000,0.0000,0.2200,-0.0009,0.0086
5255,0.0021,-0.0386,0.0044,0.48,-0.05,-0.01,0.158,-2.166,0.150,0.099,0.0614,-0.1394,0.0062,-0.0134,1.0024,0.0000,0.0000,0.2200,-0.0009,0.0082
5266,0.0022,-0.0394,0.0004,0.47,-0.05,-0.00,0.158,-1.159,-0.362,0.712,0.0608,-0.1396,0.0074,-0.0138,1.0006,0.0000,0.0000,0.2200,-0.0008,0.0078
5276,0.0057,-0.0378,0.0007,0.44,-0.07,-0.00,0.158,-3.640,-0.283,0.307,0.0608,-0.1400,0.0063,-0.0118,0.9986,0.0000,0.0000,0.2200,-0.0008,0.0074
5286,0.0036,-0.0381,0.0010,0.43,-0.06,0.00,0.158,-0.153,-0.611,0.355,0.0602,-0.1407,0.0051,-0.0156,0.9995,0.0000,0.0000,0.2200,-0.0008,0.0071
5296,0.0037,-0.0388,0.0011,0.41,-0.06,0.01,0.160,-3.871,-1.103,-0.973,0.0606,-0.1405,0.0093,-0.0145,1.0033,0.0000,0.0000,0.2200,-0.0007,0.0067
5305,0.0017,-0.0407,0.0013,0.40,-0.04,0.01,0.160,-1.603,-1.549,0.860,0.0611,-0.1396,0.0064,-0.0129,1.0009,0.0000,0.0000,0.2200,-0.0007,0.0063
5315,0.0030,-0.0391,0.0033,0.38,-0.04,0.01,0.160,-4.301,-1.217,0.602,0.0610,-0.1397,0.0062,-0.0105,0.9985,0.0000,0.0000,0.2200,-0.0007,0.0059
5325,0.0045,-0.0354,0.0033,0.33,-0.03,0.00,0.160,-4.450,-0.508,1.282,0.0609,-0.1380,0.0044,-0.0107,1.0003,0.0000,0.0000,0.2200,-0.0006,0.0055
5336,0.0041,-0.0353,0.0033,0.29,-0.02,0.01,0.162,-5.372,-0.027,1.362,0.0608,-0.1383,0.0052,-0.0127,1.0028,0.0000,0.0000,0.2200,-0.0006,0.0052
5345,0.0037,-0.0286,0.0037,0.21,-0.00,0.01,0.162,-5.351,0.381,1.002,0.0608,-0.1386,0.0036,-0.0132,1.0019,0.0000,0.0000,0.2200,-0.0005,0.0049
5355,0.0033,-0.0289,0.0039,0.17,0.01,0.02,0.162,-4.715,0.222,0.517,0.0616,-0.1356,0.0025,-0.0109,1.0025,0.0000,0.0000,0.2200,-0.0005,0.0046
5365,0.0030,-0.0293,0.0087,0.14,0.01,0.03,0.162,-4.819,-0.603,0.222,0.0617,-0.1358,0.0008,-0.0102,1.0006,0.0000,0.0000,0.2200,-0.0005,0.0043
5375,0.0058,-0.0185,0.0088,0.03,0.00,0.03,0.162,-2.493,0.572,-0.020,0.0612,-0.1390,0.0062,-0.0096,1.0003,0.0000,0.0000,0.2200,-0.0004,0.0041
5385,0.0058,-0.0186,0.0091,-0.00,0.01,0.03,0.162,-0.683,0.135,0.265,0.0617,-0.1355,0.0041,-0.0102,1.0005,0.0000,0.0000,0.2200,-0.0004,0.0039
5395,0.0039,-0.0286,0.0093,0.03,0.02,0.04,0.160,-2.009,0.675,0.574,0.0608,-0.1391,0.0084,-0.0128,0.9975,0.0000,0.0000,0.2200,-0.0003,0.0036
5405,0.0053,-0.0160,0.0097,-0.07,0.01,0.04,0.160,0.149,1.575,0.324,0.0608,-0.1399,0.0054,-0.0109,0.9966,0.0000,0.0000,0.2200,-0.0003,0.0035
5415,0.0021,-0.0276,0.0069,-0.01,0.03,0.04,0.160,0.997,-0.196,-0.229,0.0608,-0.1402,0.0077,-0.0135,1.0001,0.0000,0.0000,0.2200,-0.0003,0.0032
5425,0.0020,-0.0294,0.0069,0.00,0.02,0.05,0.160,1.760,1.192,0.462,0.0613,-0.1392,0.0053,-0.0148,0.9993,0.0000,0.0000,0.2200,-0.0002,0.0029
5435,0.0020,-0.0294,0.0069,0.01,0.01,0.05,0.161,0.184,1.046,0.774,0.0609,-0.1396,0.0022,-0.0110,0.9988,0.0000,0.0000,0.2200,-0.0002,0.0026
5445,0.0036,-0.0248,0.0067,-0.02,-0.01,0.06,0.161,1.324,0.638,-0.293,0.0609,-0.1423,0.0060,-0.0114,0.9971,0.0000,0.0000,0.2200,-0.0002,0.0024
5455,0.0020,-0.0254,0.0064,-0.01,-0.02,0.06,0.161,1.920,-0.273,0.678,0.0618,-0.1355,0.0066,-0.0114,1.0025,0.0000,0.0000,0.2200,-0.0002,0.0021
5465,0.0020,-0.0337,0.0064,0.05,-0.03,0.06,0.161,-1.987,-0.374,-0.851,0.0618,-0.1443,0.0055,-0.0140,1.0021,0.0000,0.0000,0.2200,-0.0001,0.0018
5475,0.0052,-0.0096,0.0067,-0.09,-0.05,0.06,0.161,-0.100,1.090,0.791,0.0618,-0.1446,0.0025,-0.0131,1.0011,0.0000,0.0000,0.2200,-0.0001,0.0017
5485,0.0050,-0.0391,0.0065,0.11,-0.06,0.07,0.161,1.529,-1.181,-1.352,0.0613,-0.1440,0.0040,-0.0155,0.9986,0.0000,0.0000,0.2200,-0.0000,0.0013
5495,0.0049,-0.0388,0.0063,0.12,-0.05,0.06,0.154,-3.832,0.360,-0.156,0.0609,-0.1425,0.0057,-0.0149,1.0010,0.0000,0.0000,0.2200,0.0000,0.0009
5505,0.0033,-0.0358,0.0066,0.08,-0.05,0.07,0.154,-1.750,-0.994,0.120,0.0608,-0.1444,0.0073,-0.0153,1.0035,0.0000,0.0000,0.2200,0.0000,0.0005
5515,0.0017,-0.0294,-0.0099,0.04,-0.03,0.06,0.154,-2.146,-0.103,0.516,0.0608,-0.1438,0.0105,-0.0143,1.0017,0.0000,0.0000,0.2200,0.0001,0.0002
5525,0.0016,-0.0352,-0.0098,0.06,-0.03,0.06,0.154,-3.158,-1.447,-0.529,0.0612,-0.1446,0.0086,-0.0177,1.0022,0.0000,0.0000,0.2200,0.0001,-0.0001
5535,0.0014,-0.0320,-0.0099,0.02,-0.02,0.06,0.159,-2.099,-0.805,0.750,0.0612,-0.1449,0.0024,-0.0173,1.0024,0.0000,0.0000,0.2200,0.0001,-0.0004
5545,0.0028,-0.0334,-0.0099,-0.00,-0.03,0.06,0.159,-5.417,-0.169,-0.030,0.0612,-0.1439,0.0066,-0.0121,1.0048,0.0000,0.0000,0.2200,0.0001,-0.0008
5555,0.0029,-0.0334,-0.0095,-0.02,-0.02,0.06,0.159,-0.949,1.097,0.554,0.0616,-0.1446,0.0042,-0.0113,1.0038,0.0000,0.0000,0.2200,0.0001,-0.0011
5565,0.0026,-0.0290,-0.0069,-0.08,-0.02,0.06,0.159,1.245,-2.175,0.044,0.0616,-0.1449,0.0025,-0.0130,1.0072,0.0000,0.0000,0.2200,0.0002,-0.0014
5575,0.0040,-0.0300,-0.0067,-0.09,-0.02,0.06,0.159,-1.320,1.125,-0.332,0.0620,-0.1453,0.0012,-0.0132,1.0077,0.0000,0.0000,0.2200,0.0002,-0.0017
5585,0.0040,-0.0298,-0.0064,-0.11,-0.02,0.06,0.159,-1.477,0.149,0.467,0.0603,-0.1456,0.0028,-0.0142,1.0059,0.0000,0.0000,0.2200,0.0003,-0.0020
5595,0.0052,-0.0301,-0.0060,-0.11,-0.02,0.07,0.158,-0.322,2.345,0.885,0.0607,-0.1451,0.0055,-0.0161,1.0060,0.0000,0.0000,0.2200,0.0003,-0.0023
5605,-0.0009,-0.0300,-0.0056,-0.11,0.02,0.06,0.158,-1.360,-0.582,-1.215,0.0617,-0.1449,0.0043,-0.0177,1.0033,0.0000,0.0000,0.2200,0.0003,-0.0026
5615,0.0007,-0.0269,-0.0047,-0.13,0.01,0.07,0.158,-3.209,0.006,0.252,0.0617,-0.1444,0.0048,-0.0161,1.0039,0.0000,0.0000,0.2200,0.0003,-0.0029
5625,0.0040,-0.0249,-0.0040,-0.14,-0.03,0.07,0.158,3.816,-2.113,-0.406,0.0616,-0.1447,0.0050,-0.0158,1.0027,0.0000,0.0000,0.2200,0.0003,-0.0031
5635,0.0038,-0.0222,-0.0034,-0.20,-0.04,0.07,0.160,-0.509,-1.345,0.405,0.0620,-0.1447,0.0072,-0.0164,1.0044,0.0000,0.0000,0.2200,0.0004,-0.0033
5646,0.0036,-0.0220,-0.0028,-0.21,-0.04,0.07,0.160,-2.117,-0.151,1.379,0.0620,-0.1450,0.0069,-0.0156,1.0059,0.0000,0.0000,0.2200,0.0004,-0.0035
5655,0.0048,-0.0211,-0.0025,-0.21,-0.03,0.07,0.160,-6.370,0.076,-0.379,0.0620,-0.1452,0.0045,-0.0154,1.0055,0.0000,0.0000,0.2200,0.0005,-0.0038
5665,0.0048,-0.0207,0.0025,-0.20,-0.02,0.07,0.160,-1.720,-0.970,-1.610,0.0616,-0.1450,0.0059,-0.0126,1.0085,0.0000,0.0000,0.2200,0.0005,-0.0040
5675,0.0046,-0.0206,0.0028,-0.20,-0.00,0.08,0.160,-0.521,-2.438,-0.649,0.0619,-0.1449,0.0042,-0.0163,1.0049,0.0000,0.0000,0.2200,0.0006,-0.0042
5685,0.0029,-0.0188,0.0032,-0.25,0.01,0.08,0.160,-4.730,-0.315,-0.081,0.0618,-0.1444,0.0010,-0.0143,1.0053,0.0000,0.0000,0.2200,0.0006,-0.0044
5695,0.0041,-0.0171,0.0037,-0.29,0.01,0.06,0.159,1.263,-1.136,0.122,0.0619,-0.1445,0.0026,-0.0122,1.0026,0.0000,0.0000,0.2200,0.0006,-0.0045
5705,0.0036,-0.0144,0.0043,-0.33,0.03,0.06,0.159,-2.302,0.853,1.394,0.0614,-0.1482,0.0020,-0.0097,1.0039,0.0000,0.0000,0.2200,0.0007,-0.0047
5715,0.0035,-0.0138,0.0052,-0.36,0.04,0.05,0.159,-0.218,1.305,-0.320,0.0618,-0.1478,0.0050,-0.0153,1.0056,0.0000,0.0000,0.2200,0.0007,-0.0048
5725,0.0017,-0.0259,0.0057,-0.29,0.07,0.06,0.159,2.378,2.937,1.236,0.0619,-0.1482,0.0049,-0.0151,1.0047,0.0000,0.0000,0.2200,0.0007,-0.0051
5735,0.0030,-0.0231,0.0063,-0.32,0.06,0.07,0.157,2.976,0.951,0.702,0.0611,-0.1511,0.0060,-0.0135,1.0059,0.0000,0.0000,0.2200,0.0007,-0.0053
5745,0.0030,-0.0232,0.0065,-0.31,0.05,0.07,0.157,3.062,0.723,0.296,0.0616,-0.1492,0.0031,-0.0130,1.0030,0.0000,0.0000,0.2200,0.0008,-0.0055
5755,0.0001,-0.0323,0.0067,-0.22,0.04,0.07,0.157,1.763,1.527,0.348,0.0616,-0.1495,0.0062,-0.0093,1.0029,0.0000,0.0000,0.2200,0.0008,-0.0059
5765,0.0016,-0.0239,0.0026,-0.24,0.02,0.08,0.157,0.297,1.665,-0.900,0.0616,-0.1486,0.0068,-0.0086,1.0037,0.0000,0.0000,0.2200,0.0008,-0.0061
5775,0.0015,-0.0235,0.0031,-0.20,0.01,0.09,0.157,0.844,0.153,-1.129,0.0616,-0.1487,0.0016,-0.0167,1.0043,0.0000,0.0000,0.2200,0.0008,-0.0063
5785,0.0015,-0.0190,0.0037,-0.21,-0.01,0.09,0.157,-0.465,1.420,0.524,0.0612,-0.1487,0.0028,-0.0159,1.0046,0.0000,0.0000,0.2200,0.0008,-0.0065
5795,0.0015,-0.0186,0.0040,-0.21,-0.02,0.08,0.161,-2.556,0.880,0.271,0.0612,-0.1489,0.0025,-0.0134,1.0001,0.0000,0.0000,0.2200,0.0008,-0.0067
5805,0.0001,-0.0176,0.0043,-0.20,-0.01,0.07,0.161,-1.719,0.379,-0.537,0.0612,-0.1491,0.0028,-0.0170,1.0008,0.0000,0.0000,0.2200,0.0008,-0.0069
5815,0.0001,-0.0173,0.0104,-0.20,-0.02,0.07,0.161,-3.103,-0.487,-0.158,0.0617,-0.1489,0.0072,-0.0165,1.0030,0.0000,0.0000,0.2200,0.0008,-0.0071
5825,0.0001,-0.0169,0.0109,-0.22,-0.04,0.07,0.161,-5.520,0.943,0.379,0.0616,-0.1492,0.0078,-0.0124,1.0050,-0.0000,0.0010,0.2200,0.0008,-0.0072
5835,0.0018,-0.0154,0.0113,-0.24,-0.05,0.07,0.159,0.258,0.416,0.147,0.0616,-0.1503,0.0067,-0.0104,1.0001,-0.0000,0.0020,0.2200,0.0000,-0.0002
5845,0.0018,-0.0154,0.0113,-0.27,-0.05,0.07,0.159,-3.480,-0.922,0.316,0.0612,-0.1486,0.0060,-0.0165,1.0008,-0.0000,0.0030,0.2200,0.0000,-0.0003
5855,0.0018,-0.0184,0.0113,-0.29,-0.06,0.07,0.159,2.065,-0.735,0.467,0.0612,-0.1501,0.0047,-0.0196,0.9997,-0.0000,0.0040,0.2200,0.0001,-0.0005
5865,0.0003,-0.0110,0.0095,-0.34,-0.05,0.07,0.159,-1.957,-0.069,0.496,0.0616,-0.1493,0.0063,-0.0189,0.9981,-0.0001,0.0050,0.2200,0.0001,-0.0006
5875,0.0002,-0.0155,0.0098,-0.33,-0.04,0.07,0.159,-3.276,0.458,0.285,0.0616,-0.1496,0.0068,-0.0173,0.9994,-0.0001,0.0060,0.2200,0.0001,-0.0008
5885,0.0018,-0.0114,0.0099,-0.36,-0.05,0.08,0.159,-6.945,0.584,0.791,0.0616,-0.1498,0.0065,-0.0161,1.0017,-0.0001,0.0070,0.2200,0.0001,-0.0009
5895,0.0018,-0.0115,0.0100,-0.38,-0.05,0.08,0.163,-10.553,0.531,0.288,0.0616,-0.1499,0.0066,-0.0184,0.9972,-0.0002,0.0080,0.2200,0.0001,-0.0010
5905,0.0018,-0.0113,0.0100,-0.40,-0.05,0.09,0.163,-15.225,-0.034,0.723,0.0612,-0.1478,0.0044,-0.0136,0.9975,-0.0002,0.0090,0.2200,0.0001,-0.0011
5915,0.0019,-0.0106,0.0161,-0.46,-0.05,0.09,0.163,-18.594,-1.000,-0.733,0.0616,-0.1489,0.0036,-0.0087,1.0005,-0.0002,0.0100,0.2200,0.0001,-0.0012
5925,0.0004,-0.0018,0.0161,-0.61,-0.05,0.09,0.163,-19.652,-1.304,-0.493,0.0617,-0.1489,0.0025,-0.0116,1.0003,-0.0003,0.0110,0.2200,0.0001,-0.0012
5935,0.0020,-0.0045,0.0162,-0.73,-0.06,0.10,0.161,-19.796,-0.355,0.563,0.0616,-0.1486,0.0083,-0.0123,1.0008,-0.0004,0.0120,0.2200,0.0002,-0.0013
5945,0.0021,-0.0033,0.0159,-0.91,-0.05,0.09,0.161,-19.655,-0.412,0.502,0.0612,-0.1488,0.0057,-0.0113,1.0000,-0.0004,0.0130,0.2200,0.0002,-0.0013
5955,0.0020,-0.0005,0.0156,-1.12,-0.04,0.09,0.161,-19.146,-0.808,0.609,0.0616,-0.1483,0.0055,-0.0123,1.0005,-0.0005,0.0140,0.2200,0.0002,-0.0013
5965,0.0005,0.0007,0.0134,-1.32,-0.03,0.09,0.161,-12.718,0.325,0.227,0.0615,-0.1482,0.0037,-0.0112,1.0025,-0.0006,0.0150,0.2200,0.0002,-0.0013
5974,0.0019,0.0048,0.0134,-1.52,-0.04,0.09,0.161,-9.353,-3.089,-0.016,0.0615,-0.1498,0.0048,-0.0118,0.9995,-0.0006,0.0160,0.2200,0.0002,-0.0013
5985,0.0016,0.0074,0.0134,-1.69,-0.03,0.09,0.161,-5.279,-2.709,0.347,0.0614,-0.1491,0.0078,-0.0156,1.0007,-0.0007,0.0170,0.2200,0.0002,-0.0012
5995,0.0016,0.0042,0.0136,-1.77,-0.02,0.09,0.164,-3.878,-3.432,0.489,0.0613,-0.1494,0.0047,-0.0163,0.9976,-0.0008,0.0180,0.2200,0.0003,-0.0011
6005,0.0013,0.0095,0.0135,-1.90,0.00,0.10,0.164,-2.375,-4.527,0.231,0.0616,-0.1505,0.0031,-0.0154,0.9971,-0.0009,0.0190,0.2200,0.0003,-0.0010
6014,0.0008,0.0116,0.0171,-1.96,0.03,0.10,0.164,-0.264,-3.654,0.362,0.0616,-0.1503,0.0017,-0.0135,0.9931,-0.0010,0.0200,0.2200,0.0003,-0.0009
6025,0.0019,0.0104,0.0171,-1.98,0.05,0.11,0.164,1.572,-3.340,-0.065,0.0619,-0.1496,0.0040,-0.0162,0.9952,-0.0011,0.0210,0.2200,0.0003,-0.0008
6034,0.0018,0.0138,0.0171,-2.01,0.09,0.11,0.162,0.941,-2.854,0.505,0.0620,-0.1494,0.0032,-0.0138,0.9962,-0.0012,0.0220,0.2200,0.0003,-0.0007
6045,0.0026,0.0194,0.0168,-2.02,0.11,0.12,0.162,1.026,-1.853,-0.227,0.0618,-0.1508,0.0039,-0.0171,0.9954,-0.0013,0.0229,0.2200,0.0003,-0.0005
6054,0.0024,0.0229,0.0164,-2.01,0.14,0.12,0.162,-0.505,-1.064,-0.568,0.0618,-0.1505,0.0033,-0.0175,0.9942,-0.0014,0.0239,0.2200,0.0004,-0.0003
6065,0.0017,0.0202,0.0120,-1.96,0.18,0.13,0.162,-1.447,-0.965,-0.886,0.0617,-0.1486,0.0056,-0.0162,0.9965,-0.0016,0.0249,0.2200,0.0004,-0.0001
6074,0.0010,0.0238,0.0115,-1.94,0.21,0.12,0.162,-0.511,-0.043,-1.145,0.0617,-0.1494,0.0082,-0.0211,0.9960,-0.0017,0.0259,0.2200,0.0004,0.0002
6085,0.0005,0.0333,0.0108,-1.98,0.22,0.12,0.162,-1.089,0.523,-0.929,0.0617,-0.1491,0.0040,-0.0156,0.9976,-0.0018,0.0269,0.2200,0.0004,0.0005
6094,0.0000,0.0322,0.0105,-1.95,0.24,0.11,0.168,-0.942,0.349,-1.548,0.0617,-0.1483,0.0083,-0.0161,0.9974,-0.0020,0.0279,0.2200,0.0004,0.0008
6105,-0.0004,0.0355,0.0099,-1.95,0.24,0.10,0.168,-0.689,-0.593,-1.365,0.0617,-0.1487,0.0077,-0.0176,0.9984,-0.0021,0.0289,0.2200,0.0004,0.0012
6115,-0.0008,0.0405,0.0191,-1.96,0.24,0.09,0.168,1.309,-0.478,-1.889,0.0617,-0.1482,0.0035,-0.0189,0.9968,-0.0022,0.0299,0.2200,0.0004,0.0016
6124,-0.0011,0.0409,0.0188,-1.95,0.24,0.08,0.168,0.633,-1.241,-1.336,0.0617,-0.1463,0.0031,-0.0163,0.9954,-0.0024,0.0309,0.2200,0.0004,0.0020
6135,-0.0015,0.0442,0.0184,-1.97,0.24,0.07,0.165,0.939,-0.990,-1.395,0.0617,-0.1475,0.0069,-0.0159,1.0009,-0.0026,0.0319,0.2200,0.0004,0.0024
6145,-0.0018,0.0530,0.0179,-2.00,0.24,0.06,0.165,0.783,-0.978,-1.084,0.0617,-0.1449,0.0086,-0.0149,0.9993,-0.0027,0.0329,0.2200,0.0003,0.0030
6155,-0.0022,0.0499,0.0180,-1.96,0.25,0.05,0.165,2.663,-1.205,-0.818,0.0621,-0.1435,0.0070,-0.0173,1.0001,-0.0029,0.0338,0.2200,0.0003,0.0035
6165,-0.0026,0.0610,0.0142,-2.01,0.25,0.04,0.165,3.346,-1.225,-1.114,0.0620,-0.1444,0.0037,-0.0186,0.9966,-0.0031,0.0348,0.2200,0.0003,0.0041
6175,-0.0016,0.0673,0.0137,-2.02,0.25,0.03,0.165,3.791,-0.783,-1.288,0.0620,-0.1438,0.0066,-0.0173,0.9981,-0.0032,0.0358,0.2200,0.0003,0.0048
6185,-0.0020,0.0647,0.0140,-1.96,0.27,0.02,0.165,3.874,-1.219,-0.368,0.0620,-0.1417,0.0076,-0.0168,0.9987,-0.0034,0.0368,0.2200,0.0003,0.0054
6195,-0.0024,0.0681,0.0139,-1.93,0.27,0.01,0.167,4.832,-0.944,-0.781,0.0620,-0.1415,0.0087,-0.0183,0.9976,-0.0036,0.0378,0.2200,0.0002,0.0061
6205,-0.0029,0.0765,0.0135,-1.92,0.28,0.00,0.167,5.293,-0.782,-1.009,0.0624,-0.1425,0.0107,-0.0181,0.9997,-0.0038,0.0388,0.2200,0.0002,0.0069
6215,-0.0034,0.0775,0.0144,-1.87,0.30,-0.01,0.167,5.121,-0.275,-0.781,0.0620,-0.1401,0.0070,-0.0195,0.9981,-0.0040,0.0397,0.2200,0.0002,0.0076
6225,-0.0023,0.0740,0.0145,-1.78,0.29,-0.01,0.167,7.143,-0.502,-0.917,0.0620,-0.1423,0.0048,-0.0176,0.9963,-0.0042,0.0407,0.2200,0.0001,0.0084
6234,-0.0042,0.0833,0.0140,-1.77,0.31,-0.02,0.163,6.127,-0.606,-0.805,0.0616,-0.1416,0.0049,-0.0177,0.9960,-0.0044,0.0417,0.2200,0.0001,0.0092
6245,-0.0046,0.0750,0.0144,-1.64,0.31,-0.03,0.163,6.707,0.092,-0.245,0.0616,-0.1361,0.0051,-0.0177,0.9953,-0.0046,0.0427,0.2200,0.0001,0.0099
6254,-0.0063,0.0782,0.0143,-1.58,0.32,-0.04,0.163,7.626,-0.295,-0.228,0.0616,-0.1357,0.0055,-0.0229,0.9943,-0.0048,0.0436,0.2200,-0.0000,0.0107
6264,-0.0066,0.0975,0.0035,-1.63,0.33,-0.05,0.163,6.518,-0.617,-0.300,0.0616,-0.1353,0.0058,-0.0227,0.9964,-0.0050,0.0446,0.2200,-0.0001,0.0117
6274,-0.0068,0.0982,0.0032,-1.54,0.33,-0.05,0.163,7.173,-0.290,0.114,0.0615,-0.1343,0.0067,-0.0216,0.9981,-0.0053,0.0456,0.2200,-0.0001,0.0127
6285,-0.0072,0.0987,0.0029,-1.46,0.33,-0.06,0.163,6.133,0.360,0.618,0.0611,-0.1308,0.0069,-0.0223,0.9993,-0.0055,0.0466,0.2200,-0.0002,0.0137
6294,-0.0077,0.1012,0.0023,-1.40,0.33,-0.06,0.163,5.670,-0.461,-0.319,0.0607,-0.1306,0.0061,-0.0210,0.9952,-0.0057,0.0475,0.2200,-0.0003,0.0147
6304,-0.0094,0.1127,0.0011,-1.40,0.34,-0.06,0.163,5.200,-1.795,0.169,0.0606,-0.1294,0.0084,-0.0208,0.9949,-0.0060,0.0485,0.2200,-0.0004,0.0158
6314,-0.0111,0.1118,-0.0049,-1.31,0.35,-0.06,0.163,6.340,-0.479,0.010,0.0606,-0.1294,0.0072,-0.0199,0.9980,-0.0062,0.0495,0.2200,-0.0005,0.0169
6324,-0.0117,0.1140,-0.0050,-1.25,0.36,-0.07,0.163,5.584,-1.157,-0.644,0.0602,-0.1294,0.0014,-0.0170,0.9965,-0.0065,0.0504,0.2200,-0.0006,0.0181
6334,-0.0120,0.1120,-0.0050,-1.15,0.38,-0.07,0.163,6.421,-0.859,-1.600,0.0602,-0.1290,-0.0006,-0.0177,0.9990,-0.0067,0.0514,0.2200,-0.0007,0.0192
6344,-0.0136,0.1099,-0.0053,-1.06,0.39,-0.07,0.163,6.808,-0.791,-1.229,0.0602,-0.1258,0.0022,-0.0188,0.9987,-0.0070,0.0524,0.2200,-0.0009,0.0203
6355,-0.0138,0.1090,-0.0055,-0.98,0.40,-0.07,0.163,7.747,-0.963,-0.636,0.0602,-0.1235,0.0037,-0.0162,1.0014,-0.0072,0.0533,0.2200,-0.0010,0.0214
6364,-0.0140,0.1181,-0.0091,-0.96,0.41,-0.08,0.163,9.057,-0.095,-0.694,0.0602,-0.1215,0.0052,-0.0201,0.9995,-0.0075,0.0543,0.2200,-0.0011,0.0226
6374,-0.0140,0.1241,-0.0096,-0.92,0.41,-0.09,0.163,8.309,0.332,-0.704,0.0601,-0.1203,0.0060,-0.0207,1.0007,-0.0078,0.0553,0.2200,-0.0013,0.0238
6384,-0.0141,0.1282,-0.0098,-0.86,0.41,-0.09,0.163,7.419,1.410,-0.977,0.0593,-0.1192,0.0029,-0.0216,1.0002,-0.0081,0.0562,0.2200,-0.0014,0.0251
6394,-0.0148,0.1296,-0.0099,-0.78,0.41,-0.10,0.166,8.624,0.844,-1.650,0.0594,-0.1164,0.0034,-0.0173,1.0004,-0.0084,0.0572,0.2200,-0.0016,0.0264
6404,-0.0178,0.1301,-0.0097,-0.70,0.42,-0.11,0.166,8.590,1.650,-0.360,0.0594,-0.1187,0.0049,-0.0170,1.0013,-0.0086,0.0581,0.2200,-0.0018,0.0277
6414,-0.0176,0.1367,-0.0039,-0.65,0.40,-0.12,0.166,7.918,1.787,-1.177,0.0583,-0.1196,0.0048,-0.0202,1.0021,-0.0089,0.0591,0.2200,-0.0019,0.0290
6424,-0.0175,0.1240,-0.0030,-0.46,0.39,-0.13,0.166,7.972,1.853,-0.116,0.0581,-0.1184,0.0095,-0.0169,1.0037,-0.0092,0.0601,0.2200,-0.0021,0.0303
6434,-0.0216,0.1169,-0.0026,-0.33,0.40,-0.14,0.167,7.821,1.051,-1.764,0.0579,-0.1171,0.0092,-0.0190,1.0004,-0.0095,0.0610,0.2200,-0.0023,0.0315
6445,-0.0223,0.1175,-0.0026,-0.25,0.38,-0.15,0.167,6.220,0.352,-1.883,0.0580,-0.1046,0.0064,-0.0213,1.0028,-0.0098,0.0620,0.2200,-0.0025,0.0326
6454,-0.0229,0.1179,-0.0025,-0.17,0.36,-0.16,0.167,6.582,0.680,-0.247,0.0576,-0.1039,0.0055,-0.0190,1.0028,-0.0102,0.0629,0.2200,-0.0028,0.0338
6464,-0.0223,0.1603,0.0020,-0.37,0.34,-0.16,0.167,6.477,-0.172,-0.963,0.0577,-0.1028,0.0051,-0.0170,1.0018,-0.0105,0.0639,0.2200,-0.0030,0.0354
6475,-0.0234,0.1577,0.0025,-0.29,0.34,-0.17,0.167,8.195,0.933,-0.036,0.0577,-0.1000,0.0106,-0.0170,1.0001,-0.0108,0.0648,0.2200,-0.0032,0.0370
6484,-0.0229,0.1564,0.0027,-0.22,0.33,-0.17,0.167,6.042,1.182,-0.124,0.0574,-0.0994,0.0083,-0.0160,1.0001,-0.0111,0.0658,0.2200,-0.0035,0.0386
6495,-0.0224,0.1611,0.0027,-0.18,0.33,-0.18,0.165,6.444,0.288,-1.180,0.0575,-0.0987,0.0060,-0.0193,0.9993,-0.0114,0.0667,0.2200,-0.0037,0.0402
6505,-0.0233,0.1579,0.0033,-0.08,0.32,-0.18,0.165,5.635,1.038,-0.132,0.0572,-0.0972,0.0058,-0.0195,0.9985,-0.0118,0.0676,0.2200,-0.0039,0.0417
6515,-0.0222,0.1547,0.0025,-0.06,0.31,-0.18,0.165,6.148,0.751,-0.566,0.0560,-0.0936,0.0066,-0.0178,0.9996,-0.0121,0.0686,0.2200,-0.0041,0.0433
6524,-0.0232,0.1548,0.0027,0.07,0.30,-0.19,0.165,7.043,-0.161,-0.054,0.0561,-0.0929,0.0056,-0.0159,1.0010,-0.0125,0.0695,0.2200,-0.0044,0.0448
6535,-0.0267,0.1621,0.0021,0.02,0.32,-0.19,0.164,7.494,-0.115,-0.332,0.0562,-0.0927,0.0047,-0.0158,0.9992,-0.0128,0.0705,0.2200,-0.0046,0.0465
6544,-0.0261,0.1587,0.0023,0.10,0.31,-0.19,0.164,9.017,0.374,-0.569,0.0554,-0.0900,0.0063,-0.0161,0.9999,-0.0132,0.0714,0.2200,-0.0049,0.0480
6554,-0.0254,0.1538,0.0026,0.19,0.29,-0.20,0.164,9.808,-0.455,-0.754,0.0555,-0.0890,0.0073,-0.0207,1.0003,-0.0135,0.0723,0.2200,-0.0051,0.0496
6564,-0.0277,0.1574,-0.0009,0.24,0.31,-0.20,0.164,9.374,-0.284,-0.110,0.0555,-0.0892,0.0074,-0.0209,1.0021,-0.0139,0.0733,0.2200,-0.0054,0.0512
6574,-0.0269,0.1550,-0.0008,0.33,0.30,-0.20,0.164,9.963,-0.015,0.365,0.0552,-0.0882,0.0040,-0.0180,0.9995,-0.0143,0.0742,0.2200,-0.0057,0.0527
6584,-0.0263,0.1481,-0.0003,0.46,0.29,-0.21,0.164,9.611,0.969,0.103,0.0548,-0.0860,0.0096,-0.0140,1.0012,-0.0146,0.0751,0.2200,-0.0060,0.0542
6594,-0.0271,0.1457,-0.0004,0.57,0.29,-0.22,0.164,9.322,0.701,-0.593,0.0549,-0.0842,0.0076,-0.0175,0.9986,-0.0150,0.0760,0.2200,-0.0062,0.0556
6604,-0.0278,0.1475,-0.0005,0.65,0.30,-0.22,0.164,8.641,0.480,-0.527,0.0546,-0.0854,0.0073,-0.0195,0.9974,-0.0154,0.0770,0.2200,-0.0065,0.0571
6614,-0.0270,0.1477,-0.0023,0.74,0.28,-0.21,0.164,8.328,0.477,0.313,0.0539,-0.0863,0.0070,-0.0167,0.9949,-0.0158,0.0779,0.2200,-0.0068,0.0586
6625,-0.0276,0.1367,-0.0017,0.90,0.27,-0.21,0.164,6.753,0.399,1.090,0.0540,-0.0828,0.0051,-0.0166,0.9974,-0.0162,0.0788,0.2200,-0.0071,0.0600
6634,-0.0296,0.1273,-0.0013,1.04,0.28,-0.22,0.165,4.105,0.761,1.203,0.0536,-0.0824,0.0055,-0.0152,0.9990,-0.0166,0.0797,0.2200,-0.0073,0.0612
6644,-0.0288,0.1335,-0.0017,1.07,0.26,-0.22,0.165,0.943,0.710,-0.108,0.0537,-0.0800,0.0060,-0.0151,1.0003,-0.0170,0.0806,0.2200,-0.0076,0.0626
6654,-0.0294,0.1283,-0.0017,1.17,0.26,-0.22,0.165,1.768,0.041,0.291,0.0537,-0.0813,0.0071,-0.0153,1.0013,-0.0174,0.0816,0.2200,-0.0079,0.0639
6664,-0.0286,0.1305,-0.0011,1.20,0.24,-0.21,0.165,-1.983,0.619,0.954,0.0526,-0.0815,0.0063,-0.0158,1.0004,-0.0178,0.0825,0.2200,-0.0082,0.0652
6674,-0.0278,0.1191,-0.0011,1.31,0.23,-0.21,0.165,-0.206,-2.117,-0.212,0.0523,-0.0816,0.0059,-0.0129,1.0016,-0.0182,0.0834,0.2200,-0.0085,0.0664
6684,-0.0312,0.1121,-0.0012,1.35,0.24,-0.21,0.165,-3.346,-1.470,1.331,0.0522,-0.0797,0.0063,-0.0109,1.0034,-0.0186,0.0843,0.2200,-0.0088,0.0675
6694,-0.0317,0.1056,-0.0012,1.39,0.24,-0.20,0.164,-3.495,-1.522,0.216,0.0522,-0.0768,0.0088,-0.0126,1.0029,-0.0190,0.0852,0.2200,-0.0091,0.0685
6704,-0.0310,0.1062,-0.0012,1.36,0.24,-0.20,0.164,-4.303,-1.516,0.521,0.0518,-0.0769,0.0089,-0.0144,0.9998,-0.0195,0.0861,0.2200,-0.0094,0.0696
6714,-0.0303,0.1107,-0.0029,1.30,0.25,-0.19,0.164,-4.055,-1.980,0.911,0.0515,-0.0768,0.0075,-0.0149,1.0005,-0.0199,0.0870,0.2200,-0.0097,0.0707
6724,-0.0310,0.1044,-0.0027,1.30,0.26,-0.18,0.164,-5.150,-1.946,1.421,0.0514,-0.0761,0.0066,-0.0112,0.9996,-0.0203,0.0879,0.2200,-0.0100,0.0717
6734,-0.0318,0.0986,-0.0024,1.30,0.28,-0.18,0.164,-3.958,-1.936,2.022,0.0510,-0.0761,0.0042,-0.0098,1.0018,-0.0208,0.0888,0.2200,-0.0104,0.0727
6744,-0.0312,0.0957,-0.0021,1.27,0.29,-0.17,0.164,-4.389,-1.504,1.471,0.0507,-0.0752,0.0042,-0.0128,1.0002,-0.0212,0.0897,0.2200,-0.0107,0.0737
6754,-0.0325,0.0880,-0.0019,1.22,0.33,-0.15,0.164,-6.300,-1.023,1.289,0.0503,-0.0752,0.0025,-0.0168,1.0042,-0.0217,0.0906,0.2200,-0.0110,0.0746
6764,-0.0325,0.0880,-0.0026,1.22,0.33,-0.15,0.164,-5.821,-1.255,1.218,0.0503,-0.0714,0.0043,-0.0157,1.0055,-0.0221,0.0915,0.2200,-0.0113,0.0754
6774,-0.0340,0.0808,-0.0025,1.15,0.37,-0.13,0.164,-6.170,-1.176,1.396,0.0499,-0.0698,0.0097,-0.0139,1.0036,-0.0226,0.0924,0.2200,-0.0117,0.0763
6784,-0.0328,0.0919,-0.0029,1.08,0.36,-0.13,0.164,-5.633,-0.820,1.114,0.0499,-0.0691,0.0072,-0.0146,1.0078,-0.0231,0.0932,0.2200,-0.0120,0.0772
6794,-0.0343,0.0907,-0.0027,0.95,0.39,-0.11,0.161,-4.831,-0.429,1.361,0.0499,-0.0684,0.0075,-0.0139,1.0057,-0.0235,0.0941,0.2200,-0.0123,0.0781
6804,-0.0330,0.0902,-0.0027,0.95,0.39,-0.11,0.161,-6.178,0.213,0.992,0.0495,-0.0683,0.0076,-0.0139,1.0021,-0.0240,0.0950,0.2200,-0.0127,0.0790
6814,-0.0330,0.0864,-0.0084,0.86,0.40,-0.09,0.161,-5.255,0.297,0.191,0.0492,-0.0675,0.0052,-0.0163,1.0033,-0.0245,0.0959,0.2200,-0.0130,0.0798
6824,-0.0331,0.0832,-0.0083,0.88,0.40,-0.09,0.161,-3.751,-0.695,0.722,0.0485,-0.0682,0.0079,-0.0154,1.0037,-0.0250,0.0968,0.2200,-0.0133,0.0807
6834,-0.0339,0.0815,-0.0077,0.84,0.40,-0.08,0.162,-5.918,0.989,1.586,0.0482,-0.0681,0.0122,-0.0134,1.0041,-0.0255,0.0976,0.2200,-0.0137,0.0815
6844,-0.0358,0.0744,-0.0068,0.83,0.41,-0.08,0.162,-5.218,-0.093,-0.059,0.0475,-0.0738,0.0093,-0.0144,1.0054,-0.0259,0.0985,0.2200,-0.0140,0.0822
6854,-0.0364,0.0705,-0.0064,0.79,0.40,-0.07,0.162,-5.434,0.661,2.561,0.0472,-0.0706,0.0050,-0.0141,1.0063,-0.0264,0.0994,0.2200,-0.0144,0.0829
6864,-0.0384,0.0452,-0.0066,0.91,0.42,-0.07,0.162,-6.818,-1.435,0.947,0.0469,-0.0702,0.0066,-0.0164,1.0040,-0.0269,0.1002,0.2200,-0.0148,0.0834
6874,-0.0387,0.0541,-0.0064,0.78,0.41,-0.05,0.162,-7.126,0.965,1.891,0.0461,-0.0700,0.0074,-0.0133,1.0072,-0.0274,0.1011,0.2200,-0.0152,0.0839
6884,-0.0391,0.0525,-0.0061,0.71,0.41,-0.05,0.162,-6.980,-1.125,2.417,0.0465,-0.0676,0.0059,-0.0102,1.0070,-0.0279,0.1020,0.2200,-0.0156,0.0845
6894,-0.0410,0.0499,-0.0056,0.67,0.41,-0.03,0.165,-5.598,-1.086,0.600,0.0454,-0.0675,0.0087,-0.0150,1.0051,-0.0285,0.1028,0.2200,-0.0160,0.0850
6904,-0.0386,0.0561,-0.0052,0.56,0.40,-0.02,0.165,-4.955,-0.754,-0.487,0.0461,-0.0681,0.0058,-0.0151,1.0002,-0.0290,0.1037,0.2200,-0.0163,0.0855
6916,-0.0420,0.0534,0.0021,0.50,0.42,0.01,0.165,-5.908,-1.237,-0.467,0.0447,-0.0698,0.0061,-0.0123,1.0027,-0.0295,0.1045,0.2200,-0.0168,0.0861
6924,-0.0385,0.0482,0.0028,0.47,0.40,0.02,0.165,-8.927,-0.586,0.597,0.0442,-0.0694,0.0060,-0.0172,1.0039,-0.0300,0.1054,0.2200,-0.0172,0.0865
6934,-0.0432,0.0394,0.0037,0.48,0.44,0.03,0.164,-8.219,-0.057,2.028,0.0435,-0.0688,0.0029,-0.0175,1.0020,-0.0305,0.1062,0.2200,-0.0176,0.0869
6944,-0.0440,0.0386,0.0042,0.42,0.45,0.02,0.164,-11.863,-0.652,1.555,0.0436,-0.0683,0.0037,-0.0133,0.9998,-0.0311,0.1071,0.2200,-0.0180,0.0873
6954,-0.0457,0.0387,0.0045,0.35,0.47,0.02,0.164,-7.744,1.072,1.854,0.0428,-0.0639,0.0056,-0.0104,1.0058,-0.0316,0.1079,0.2200,-0.0185,0.0877
6964,-0.0446,0.0388,0.0058,0.25,0.46,0.03,0.164,-12.384,0.829,0.218,0.0429,-0.0632,0.0092,-0.0141,1.0043,-0.0322,0.1088,0.2200,-0.0189,0.0881
6974,-0.0462,0.0533,0.0058,0.07,0.47,0.05,0.164,-5.602,-0.110,1.106,0.0426,-0.0622,0.0088,-0.0127,1.0059,-0.0327,0.1096,0.2200,-0.0194,0.0886
6984,-0.0451,0.0535,0.0061,-0.05,0.45,0.07,0.164,-9.163,0.903,1.610,0.0427,-0.0613,0.0054,-0.0167,1.0045,-0.0333,0.1104,0.2200,-0.0198,0.0892
6994,-0.0452,0.0553,0.0061,-0.15,0.44,0.08,0.163,-6.942,0.899,0.809,0.0427,-0.0603,0.0043,-0.0155,1.0035,-0.0338,0.1113,0.2200,-0.0203,0.0897
7004,-0.0440,0.0572,0.0063,-0.27,0.42,0.09,0.163,-5.478,1.192,0.798,0.0417,-0.0606,0.0066,-0.0149,1.0008,-0.0344,0.1121,0.2200,-0.0207,0.0903
7014,-0.0430,0.0588,0.0046,-0.35,0.40,0.09,0.163,-5.588,0.756,0.642,0.0407,-0.0673,0.0098,-0.0150,0.9981,-0.0349,0.1129,0.2200,-0.0212,0.0909
7024,-0.0459,0.0564,0.0052,-0.42,0.41,0.11,0.163,-4.176,0.668,0.513,0.0402,-0.0670,0.0075,-0.0149,0.9998,-0.0355,0.1138,0.2200,-0.0216,0.0914
7034,-0.0487,0.0297,0.0067,-0.29,0.42,0.11,0.161,-3.549,0.844,1.261,0.0397,-0.0667,0.0075,-0.0137,1.0050,-0.0361,0.1146,0.2200,-0.0221,0.0917
7044,-0.0494,0.0302,0.0071,-0.34,0.41,0.12,0.161,-3.675,1.099,1.869,0.0386,-0.0662,0.0069,-0.0179,1.0021,-0.0366,0.1154,0.2200,-0.0226,0.0920
7054,-0.0501,0.0308,0.0073,-0.40,0.40,0.13,0.161,-2.549,2.283,1.201,0.0379,-0.0697,0.0042,-0.0204,1.0001,-0.0372,0.1162,0.2200,-0.0231,0.0923
7063,-0.0528,0.0321,0.0004,-0.45,0.41,0.14,0.161,-1.454,0.811,0.241,0.0381,-0.0662,0.0041,-0.0182,0.9975,-0.0378,0.1170,0.2200,-0.0236,0.0927
7074,-0.0540,0.0186,0.0005,-0.39,0.40,0.15,0.161,-2.938,1.749,0.418,0.0374,-0.0689,0.0093,-0.0155,1.0000,-0.0384,0.1178,0.2200,-0.0242,0.0929
7084,-0.0521,0.0316,0.0007,-0.51,0.37,0.16,0.161,-0.358,1.709,0.205,0.0368,-0.0661,0.0090,-0.0132,1.0022,-0.0390,0.1186,0.2200,-0.0247,0.0932
7094,-0.0533,0.0214,0.0014,-0.45,0.36,0.17,0.166,-0.105,2.111,0.456,0.0368,-0.0650,0.0076,-0.0152,1.0011,-0.0396,0.1194,0.2200,-0.0252,0.0934
7103,-0.0543,0.0315,0.0013,-0.54,0.35,0.18,0.166,0.171,2.518,0.827,0.0362,-0.0650,0.0047,-0.0161,0.9969,-0.0402,0.1202,0.2200,-0.0258,0.0937
7114,-0.0527,0.0353,0.0081,-0.58,0.32,0.18,0.166,-4.255,1.413,1.577,0.0352,-0.0657,0.0085,-0.0162,0.9978,-0.0408,0.1210,0.2200,-0.0263,0.0940
7125,-0.0536,0.0350,0.0079,-0.57,0.30,0.18,0.166,-6.638,1.813,0.943,0.0346,-0.0645,0.0089,-0.0140,0.9999,-0.0414,0.1218,0.2200,-0.0268,0.0944
7133,-0.0557,0.0319,0.0082,-0.55,0.30,0.19,0.162,-6.195,1.811,0.623,0.0340,-0.0641,0.0065,-0.0135,1.0038,-0.0420,0.1226,0.2200,-0.0274,0.0947
7144,-0.0565,0.0362,0.0082,-0.59,0.27,0.20,0.162,-6.243,1.800,0.473,0.0341,-0.0593,0.0088,-0.0145,1.0011,-0.0426,0.1234,0.2200,-0.0280,0.0951
7154,-0.0569,0.0372,0.0081,-0.63,0.25,0.22,0.162,-6.958,1.659,0.285,0.0343,-0.0600,0.0125,-0.0158,1.0019,-0.0432,0.1242,0.2200,-0.0285,0.0955
7164,-0.0546,0.0546,0.0019,-0.80,0.22,0.23,0.162,-1.481,0.517,0.649,0.0336,-0.0568,0.0088,-0.0170,1.0051,-0.0439,0.1250,0.2200,-0.0291,0.0960
7174,-0.0525,0.0515,0.0020,-0.84,0.18,0.23,0.162,-1.883,0.868,-0.229,0.0337,-0.0542,0.0095,-0.0209,1.0049,-0.0445,0.1258,0.2200,-0.0296,0.0965
7184,-0.0533,0.0628,0.0018,-0.97,0.16,0.24,0.162,-1.162,2.517,1.787,0.0334,-0.0527,0.0097,-0.0165,1.0029,-0.0451,0.1265,0.2200,-0.0301,0.0971
7194,-0.0514,0.0718,0.0018,-1.08,0.13,0.25,0.164,0.778,1.086,0.719,0.0331,-0.0490,0.0057,-0.0153,1.0041,-0.0458,0.1273,0.2200,-0.0306,0.0979
7204,-0.0507,0.0764,0.0017,-1.12,0.12,0.25,0.164,0.669,0.170,-0.191,0.0324,-0.0479,0.0069,-0.0191,1.0047,-0.0464,0.1281,0.2200,-0.0311,0.0986
7214,-0.0500,0.0891,0.0027,-1.21,0.10,0.25,0.164,1.772,0.375,1.246,0.0324,-0.0487,0.0064,-0.0165,1.0005,-0.0470,0.1288,0.2200,-0.0316,0.0995
7224,-0.0509,0.0915,0.0032,-1.22,0.08,0.27,0.164,7.795,0.087,0.928,0.0317,-0.0422,0.0089,-0.0182,1.0009,-0.0477,0.1296,0.2200,-0.0322,0.1004
7234,-0.0489,0.0870,0.0041,-1.16,0.05,0.27,0.165,6.030,-2.303,0.396,0.0314,-0.0407,0.0100,-0.0179,1.0043,-0.0483,0.1304,0.2200,-0.0326,0.1013
7244,-0.0499,0.1101,0.0029,-1.30,0.06,0.28,0.165,7.759,-0.810,1.581,0.0313,-0.0377,0.0058,-0.0171,1.0063,-0.0490,0.1311,0.2200,-0.0331,0.1024
7254,-0.0493,0.1138,0.0032,-1.28,0.05,0.29,0.165,5.683,-0.274,1.174,0.0310,-0.0373,0.0034,-0.0160,1.0026,-0.0496,0.1319,0.2200,-0.0336,0.1035
7263,-0.0478,0.1231,0.0061,-1.25,0.04,0.30,0.165,6.203,-2.273,-0.592,0.0309,-0.0338,0.0047,-0.0145,1.0024,-0.0503,0.1326,0.2200,-0.0341,0.1048
7274,-0.0474,0.1220,0.0063,-1.17,0.06,0.30,0.165,8.027,-2.385,0.213,0.0302,-0.0331,0.0081,-0.0146,1.0028,-0.0510,0.1334,0.2200,-0.0346,0.1060
7284,-0.0458,0.1322,0.0060,-1.15,0.05,0.32,0.165,7.823,-3.323,0.506,0.0301,-0.0330,0.0053,-0.0132,1.0036,-0.0516,0.1341,0.2200,-0.0351,0.1073
7294,-0.0471,0.1320,0.0067,-1.08,0.07,0.33,0.164,7.369,-3.704,0.065,0.0300,-0.0312,0.0070,-0.0157,1.0050,-0.0523,0.1349,0.2200,-0.0355,0.1086
7304,-0.0456,0.1289,0.0077,-0.98,0.08,0.32,0.164,10.878,-2.206,1.228,0.0289,-0.0329,0.0078,-0.0147,1.0023,-0.0530,0.1356,0.2200,-0.0360,0.1099
7314,-0.0444,0.1326,0.0065,-0.91,0.09,0.33,0.164,11.095,-2.553,-0.277,0.0288,-0.0288,0.0081,-0.0173,1.0039,-0.0537,0.1363,0.2200,-0.0364,0.1112
7325,-0.0472,0.1225,0.0075,-0.76,0.15,0.33,0.164,14.474,-0.655,1.819,0.0287,-0.0295,0.0079,-0.0152,1.0047,-0.0543,0.1371,0.2200,-0.0369,0.1125
7333,-0.0461,0.1349,0.0071,-0.76,0.17,0.34,0.165,14.952,-1.950,0.769,0.0280,-0.0290,0.0083,-0.0178,1.0055,-0.0550,0.1378,0.2200,-0.0374,0.1138
7344,-0.0448,0.1282,0.0082,-0.58,0.19,0.34,0.165,16.197,-1.688,0.634,0.0283,-0.0273,0.0048,-0.0224,1.0043,-0.0557,0.1385,0.2200,-0.0378,0.1151
7354,-0.0461,0.1263,0.0088,-0.45,0.22,0.34,0.165,13.790,-1.755,1.275,0.0268,-0.0292,0.0088,-0.0215,1.0022,-0.0564,0.1392,0.2200,-0.0383,0.1164
7364,-0.0438,0.1285,0.0094,-0.31,0.21,0.36,0.165,11.054,-1.404,0.321,0.0258,-0.0329,0.0094,-0.0185,1.0024,-0.0571,0.1399,0.2200,-0.0387,0.1177
7374,-0.0478,0.1171,0.0104,-0.07,0.26,0.37,0.165,10.386,-1.299,0.329,0.0250,-0.0308,0.0056,-0.0184,1.0020,-0.0578,0.1407,0.2200,-0.0392,0.1188
7383,-0.0504,0.0990,0.0117,0.21,0.29,0.37,0.165,8.720,0.562,0.849,0.0250,-0.0308,0.0058,-0.0148,0.9997,-0.0585,0.1414,0.2200,-0.0397,0.1198
7394,-0.0519,0.1027,0.0120,0.32,0.31,0.38,0.163,5.327,-1.165,1.406,0.0249,-0.0263,0.0051,-0.0174,1.0006,-0.0592,0.1421,0.2200,-0.0402,0.1208
7404,-0.0506,0.0983,0.0125,0.46,0.32,0.39,0.163,3.436,-0.811,1.308,0.0242,-0.0251,0.0072,-0.0159,1.0013,-0.0599,0.1428,0.2200,-0.0407,0.1218
7413,-0.0494,0.1109,0.0065,0.47,0.32,0.40,0.163,3.237,-1.231,0.147,0.0242,-0.0238,0.0048,-0.0126,1.0029,-0.0607,0.1435,0.2200,-0.0412,0.1229
7424,-0.0508,0.1105,0.0067,0.56,0.33,0.40,0.163,3.003,-1.055,1.023,0.0245,-0.0212,0.0056,-0.0127,1.0015,-0.0614,0.1442,0.2200,-0.0417,0.1240
7433,-0.0495,0.1102,0.0067,0.61,0.33,0.41,0.164,2.191,-2.113,-0.339,0.0244,-0.0191,0.0065,-0.0155,1.0016,-0.0621,0.1449,0.2200,-0.0422,0.1251
7444,-0.0471,0.1152,0.0066,0.61,0.32,0.42,0.164,2.079,-2.783,0.554,0.0244,-0.0176,0.0095,-0.0139,1.0064,-0.0628,0.1455,0.2200,-0.0427,0.1263
7454,-0.0460,0.1175,0.0064,0.62,0.32,0.43,0.164,2.062,-1.384,1.913,0.0232,-0.0194,0.0061,-0.0155,1.0048,-0.0636,0.1462,0.2200,-0.0431,0.1275
7464,-0.0450,0.1180,0.0051,0.62,0.33,0.43,0.164,-2.897,-3.245,0.496,0.0235,-0.0163,0.0083,-0.0163,1.0036,-0.0643,0.1469,0.2200,-0.0436,0.1286
7473,-0.0480,0.1056,0.0058,0.73,0.37,0.43,0.164,2.537,-3.755,-0.751,0.0230,-0.0163,0.0081,-0.0179,1.0033,-0.0650,0.1476,0.2200,-0.0441,0.1297
7484,-0.0458,0.1120,0.0056,0.70,0.38,0.44,0.164,3.371,-2.782,-0.064,0.0226,-0.0158,0.0075,-0.0154,1.0001,-0.0658,0.1483,0.2200,-0.0445,0.1308
7493,-0.0464,0.1066,0.0062,0.74,0.40,0.46,0.167,3.693,-0.329,1.340,0.0215,-0.0220,0.0096,-0.0148,1.0026,-0.0665,0.1489,0.2200,-0.0450,0.1319
7504,-0.0470,0.1035,0.0069,0.74,0.43,0.46,0.167,-0.483,0.410,1.149,0.0209,-0.0211,0.0106,-0.0125,1.0038,-0.0673,0.1496,0.2200,-0.0455,0.1329
7513,-0.0499,0.0749,0.0129,0.97,0.48,0.45,0.167,1.661,-0.754,-0.114,0.0208,-0.0214,0.0125,-0.0137,1.0023,-0.0680,0.1503,0.2200,-0.0460,0.1337
7523,-0.0514,0.0738,0.0133,1.01,0.50,0.45,0.167,-2.033,0.926,0.904,0.0202,-0.0212,0.0097,-0.0148,1.0013,-0.0688,0.1509,0.2200,-0.0465,0.1344
7533,-0.0503,0.0681,0.0135,1.08,0.49,0.46,0.167,2.735,-0.668,0.041,0.0196,-0.0206,0.0079,-0.0168,0.9999,-0.0695,0.1516,0.2200,-0.0470,0.1351
7544,-0.0518,0.0647,0.0136,1.09,0.50,0.47,0.167,-0.404,-1.307,-0.358,0.0179,-0.0217,0.0045,-0.0174,1.0018,-0.0703,0.1522,0.2200,-0.0475,0.1357
7553,-0.0526,0.0628,0.0139,1.11,0.50,0.47,0.167,1.057,-0.740,-0.233,0.0174,-0.0206,0.0082,-0.0158,1.0031,-0.0710,0.1529,0.2200,-0.0480,0.1364
7563,-0.0581,0.0542,0.0150,1.14,0.53,0.48,0.167,-0.442,-0.857,0.638,0.0167,-0.0196,0.0099,-0.0151,0.9997,-0.0718,0.1535,0.2200,-0.0486,0.1369
7573,-0.0584,0.0544,0.0152,1.14,0.53,0.48,0.167,-3.982,-1.264,0.481,0.0166,-0.0174,0.0062,-0.0168,0.9981,-0.0726,0.1541,0.2200,-0.0492,0.1375
7584,-0.0599,0.0546,0.0151,1.12,0.55,0.48,0.167,-4.910,-3.016,-0.136,0.0155,-0.0155,0.0095,-0.0164,0.9961,-0.0733,0.1548,0.2200,-0.0498,0.1380
7594,-0.0586,0.0588,0.0152,1.07,0.55,0.48,0.165,-7.071,0.404,0.727,0.0158,-0.0130,0.0105,-0.0189,0.9974,-0.0741,0.1554,0.2200,-0.0504,0.1386
7603,-0.0613,0.0619,0.0153,1.02,0.57,0.49,0.165,-6.224,-0.352,0.352,0.0154,-0.0107,0.0129,-0.0209,0.9996,-0.0749,0.1560,0.2200,-0.0510,0.1392
7613,-0.0587,0.0674,0.0098,0.91,0.56,0.49,0.165,-5.012,-1.692,0.606,0.0148,-0.0100,0.0109,-0.0164,0.9976,-0.0757,0.1567,0.2200,-0.0516,0.1399
7623,-0.0589,0.0722,0.0095,0.82,0.56,0.49,0.165,-8.478,-0.260,1.301,0.0134,-0.0099,0.0061,-0.0136,0.9996,-0.0765,0.1573,0.2200,-0.0522,0.1406
7633,-0.0598,0.0708,0.0091,0.75,0.57,0.50,0.165,-6.206,0.547,0.760,0.0124,-0.0152,0.0053,-0.0122,1.0030,-0.0773,0.1579,0.2200,-0.0528,0.1413
7644,-0.0640,0.0673,0.0088,0.70,0.60,0.50,0.165,-6.535,0.746,0.641,0.0124,-0.0110,0.0062,-0.0169,1.0023,-0.0780,0.1585,0.2200,-0.0534,0.1420
7653,-0.0665,0.0430,0.0095,0.81,0.62,0.51,0.165,-6.739,3.039,-0.114,0.0113,-0.0102,0.0057,-0.0166,1.0028,-0.0788,0.1591,0.2200,-0.0541,0.1424
7664,-0.0648,0.0562,0.0051,0.64,0.60,0.52,0.165,-7.778,3.128,0.354,0.0107,-0.0097,0.0084,-0.0163,1.0027,-0.0796,0.1597,0.2200,-0.0547,0.1430
7674,-0.0673,0.0562,0.0048,0.56,0.61,0.53,0.165,-7.767,1.929,0.062,0.0105,-0.0092,0.0102,-0.0170,0.9992,-0.0804,0.1603,0.2200,-0.0554,0.1435
7683,-0.0680,0.0550,0.0050,0.49,0.60,0.53,0.165,-5.903,2.156,0.352,0.0102,-0.0075,0.0101,-0.0133,1.0007,-0.0812,0.1609,0.2200,-0.0561,0.1441
7693,-0.0673,0.0541,0.0053,0.43,0.56,0.53,0.166,-3.638,2.068,0.598,0.0096,-0.0074,0.0068,-0.0126,1.0035,-0.0820,0.1615,0.2200,-0.0567,0.1446
7704,-0.0667,0.0575,0.0054,0.33,0.52,0.53,0.166,-0.793,0.677,0.062,0.0079,-0.0106,0.0060,-0.0119,1.0037,-0.0829,0.1621,0.2200,-0.0574,0.1452
7713,-0.0674,0.0552,0.0047,0.27,0.50,0.54,0.166,2.674,-0.433,0.182,0.0079,-0.0085,0.0102,-0.0104,1.0035,-0.0837,0.1627,0.2200,-0.0581,0.1458
7723,-0.0720,0.0405,0.0050,0.32,0.50,0.54,0.166,2.056,0.505,1.153,0.0076,-0.0075,0.0137,-0.0112,1.0045,-0.0845,0.1633,0.2200,-0.0588,0.1462
7735,-0.0701,0.0466,0.0049,0.25,0.47,0.55,0.165,1.470,1.566,0.236,0.0072,-0.0075,0.0096,-0.0159,0.9999,-0.0853,0.1638,0.2200,-0.0595,0.1466
7743,-0.0694,0.0479,0.0051,0.24,0.45,0.55,0.165,0.318,-2.140,-0.360,0.0055,-0.0075,0.0111,-0.0186,0.9988,-0.0861,0.1644,0.2200,-0.0602,0.1471
7754,-0.0689,0.0459,0.0056,0.28,0.44,0.55,0.165,-1.733,1.372,0.338,0.0048,-0.0075,0.0088,-0.0143,1.0011,-0.0869,0.1650,0.2200,-0.0609,0.1476
7764,-0.0734,0.0436,0.0026,0.30,0.47,0.56,0.165,-2.501,-0.050,0.564,0.0048,-0.0061,0.0086,-0.0168,1.0018,-0.0878,0.1655,0.2200,-0.0616,0.1480
7773,-0.0742,0.0414,0.0030,0.31,0.46,0.56,0.165,-3.654,-0.399,0.159,0.0038,-0.0067,0.0088,-0.0177,1.0022,-0.0886,0.1661,0.2200,-0.0624,0.1484
7783,-0.0719,0.0448,0.0032,0.27,0.45,0.56,0.165,-4.766,-1.540,0.321,0.0030,-0.0063,0.0071,-0.0134,1.0013,-0.0894,0.1667,0.2200,-0.0631,0.1489
7793,-0.0739,0.0405,0.0032,0.28,0.45,0.56,0.165,-3.001,1.056,1.172,0.0016,-0.0063,0.0056,-0.0135,1.0007,-0.0903,0.1672,0.2200,-0.0638,0.1493
7803,-0.0747,0.0400,0.0032,0.24,0.45,0.57,0.165,-4.272,0.849,0.930,0.0009,-0.0062,0.0069,-0.0128,0.9980,-0.0911,0.1678,0.2200,-0.0646,0.1497
7813,-0.0780,0.0382,0.0007,0.21,0.47,0.58,0.165,-4.178,0.319,0.342,-0.0001,-0.0072,0.0105,-0.0135,0.9979,-0.0919,0.1683,0.2200,-0.0653,0.1500
7823,-0.0784,0.0367,0.0009,0.19,0.47,0.59,0.165,-5.981,0.997,-0.032,-0.0003,-0.0071,0.0098,-0.0149,1.0022,-0.0928,0.1688,0.2200,-0.0661,0.1504
7833,-0.0799,0.0313,0.0012,0.19,0.48,0.59,0.166,-4.367,1.543,0.476,-0.0010,-0.0058,0.0089,-0.0172,1.0020,-0.0936,0.1694,0.2200,-0.0669,0.1507
7843,-0.0787,0.0301,0.0014,0.15,0.46,0.59,0.166,-4.181,2.427,0.688,-0.0017,-0.0057,0.0115,-0.0149,1.0045,-0.0945,0.1699,0.2200,-0.0677,0.1510
7853,-0.0790,0.0334,0.0013,0.09,0.44,0.60,0.166,-2.071,1.511,0.296,-0.0030,-0.0062,0.0077,-0.0181,1.0030,-0.0953,0.1704,0.2200,-0.0685,0.1514
7863,-0.0792,0.0326,0.0018,0.04,0.42,0.60,0.166,-2.783,0.893,-0.216,-0.0038,-0.0059,0.0081,-0.0182,1.0017,-0.0962,0.1709,0.2200,-0.0693,0.1517
7873,-0.0819,0.0292,0.0018,0.01,0.42,0.60,0.166,-4.210,0.945,0.264,-0.0044,-0.0058,0.0103,-0.0190,1.0015,-0.0970,0.1715,0.2200,-0.0701,0.1520
7883,-0.0826,0.0292,0.0021,-0.04,0.39,0.61,0.166,-4.613,1.226,-0.525,-0.0059,-0.0050,0.0096,-0.0154,1.0040,-0.0979,0.1720,0.2200,-0.0709,0.1523
7893,-0.0825,0.0286,0.0024,-0.07,0.38,0.60,0.167,-2.451,1.331,-0.532,-0.0062,-0.0034,0.0064,-0.0121,1.0036,-0.0988,0.1725,0.2200,-0.0718,0.1526
7903,-0.0853,0.0308,0.0026,-0.12,0.38,0.60,0.167,-1.928,0.696,-0.382,-0.0072,-0.0034,0.0072,-0.0119,1.0023,-0.0996,0.1730,0.2200,-0.0726,0.1529
7913,-0.0839,0.0358,0.0052,-0.20,0.36,0.61,0.167,-2.565,0.609,-0.568,-0.0079,-0.0034,0.0063,-0.0123,1.0029,-0.1005,0.1735,0.2200,-0.0735,0.1532
7923,-0.0852,0.0346,0.0053,-0.23,0.35,0.60,0.167,-0.517,-0.479,-0.882,-0.0081,-0.0037,0.0093,-0.0150,1.0033,-0.1014,0.1740,0.2200,-0.0743,0.1536
7933,-0.0851,0.0337,0.0057,-0.23,0.34,0.60,0.167,-2.083,-0.205,-0.909,-0.0088,-0.0037,0.0080,-0.0126,1.0020,-0.1022,0.1745,0.2200,-0.0752,0.1539
7944,-0.0835,0.0318,0.0062,-0.22,0.32,0.59,0.167,-2.112,1.459,0.263,-0.0095,-0.0030,0.0101,-0.0175,1.0048,-0.1031,0.1750,0.2200,-0.0760,0.1542
7953,-0.0834,0.0310,0.0065,-0.24,0.31,0.58,0.167,-0.046,2.492,0.378,-0.0112,-0.0030,0.0100,-0.0148,1.0055,-0.1040,0.1754,0.2200,-0.0768,0.1545
7963,-0.0834,0.0329,0.0075,-0.26,0.31,0.58,0.167,0.129,2.360,-0.025,-0.0115,-0.0026,0.0099,-0.0149,1.0047,-0.1049,0.1759,0.2200,-0.0777,0.1549
7973,-0.0872,0.0321,0.0076,-0.26,0.33,0.58,0.167,-1.941,1.348,-0.252,-0.0121,-0.0011,0.0097,-0.0169,1.0036,-0.1057,0.1764,0.2200,-0.0785,0.1552
7983,-0.0854,0.0329,0.0079,-0.27,0.29,0.58,0.167,-0.551,2.716,0.340,-0.0124,-0.0010,0.0089,-0.0149,1.0021,-0.1066,0.1769,0.2200,-0.0794,0.1555
7993,-0.0851,0.0376,0.0082,-0.31,0.26,0.58,0.167,-0.296,1.495,0.078,-0.0137,-0.0029,0.0095,-0.0108,1.0031,-0.1075,0.1773,0.2200,-0.0802,0.1559
8003,-0.0834,0.0368,0.0088,-0.31,0.22,0.58,0.167,2.437,2.668,-0.399,-0.0140,-0.0010,0.0083,-0.0124,0.9995,-0.1084,0.1778,0.2200,-0.0811,0.1563
8013,-0.0855,0.0292,0.0087,-0.27,0.22,0.58,0.167,-2.849,2.074,0.235,-0.0146,-0.0025,0.0139,-0.0099,1.0015,-0.1093,0.1782,0.2200,-0.0819,0.1565
8023,-0.0839,0.0355,0.0091,-0.31,0.18,0.58,0.167,1.214,1.100,-0.919,-0.0160,-0.0014,0.0139,-0.0143,1.0024,-0.1102,0.1787,0.2200,-0.0828,0.1569
8033,-0.0833,0.0290,0.0095,-0.28,0.16,0.58,0.169,-2.244,2.944,-0.280,-0.0169,-0.0011,0.0116,-0.0149,1.0016,-0.1111,0.1791,0.2200,-0.0836,0.1572
8043,-0.0856,0.0325,0.0096,-0.29,0.15,0.58,0.169,1.079,1.357,-0.644,-0.0187,0.0012,0.0116,-0.0160,1.0036,-0.1120,0.1796,0.2200,-0.0845,0.1575
8053,-0.0858,0.0330,0.0099,-0.30,0.13,0.58,0.169,0.995,0.259,-1.223,-0.0186,-0.0003,0.0125,-0.0141,0.9998,-0.1129,0.1800,0.2200,-0.0853,0.1578
8063,-0.0896,0.0408,0.0126,-0.36,0.14,0.57,0.169,-0.434,-1.365,-0.562,-0.0196,-0.0005,0.0112,-0.0173,0.9979,-0.1138,0.1805,0.2200,-0.0862,0.1583
8073,-0.0861,0.0341,0.0133,-0.33,0.10,0.57,0.169,2.161,-1.483,-0.253,-0.0196,-0.0009,0.0085,-0.0159,1.0008,-0.1147,0.1809,0.2200,-0.0871,0.1586
8083,-0.0870,0.0329,0.0134,-0.31,0.10,0.56,0.169,-0.508,0.264,-0.610,-0.0210,0.0009,0.0096,-0.0163,1.0014,-0.1156,0.1813,0.2200,-0.0879,0.1589
8093,-0.0837,0.0307,0.0140,-0.28,0.07,0.55,0.169,-0.118,-1.423,-0.887,-0.0221,0.0009,0.0088,-0.0171,1.0005,-0.1165,0.1817,0.2200,-0.0888,0.1592
8103,-0.0862,0.0367,0.0139,-0.31,0.10,0.54,0.169,0.285,-1.122,-1.020,-0.0229,0.0023,0.0059,-0.0180,0.9980,-0.1174,0.1821,0.2200,-0.0896,0.1596
8113,-0.0873,0.0356,0.0138,-0.29,0.11,0.54,0.169,0.604,0.072,-1.296,-0.0236,0.0026,0.0110,-0.0179,0.9972,-0.1183,0.1826,0.2200,-0.0905,0.1600
8123,-0.0869,0.0398,0.0138,-0.31,0.12,0.53,0.169,2.376,-1.912,-0.231,-0.0243,0.0025,0.0095,-0.0159,0.9932,-0.1192,0.1830,0.2200,-0.0914,0.1604
8133,-0.0867,0.0402,0.0140,-0.30,0.13,0.52,0.170,0.471,-0.534,-1.333,-0.0250,-0.0004,0.0133,-0.0145,0.9966,-0.1201,0.1834,0.2200,-0.0922,0.1608
8145,-0.0863,0.0387,0.0141,-0.28,0.13,0.51,0.170,-0.504,0.267,-1.193,-0.0258,0.0028,0.0131,-0.0191,0.9986,-0.1210,0.1838,0.2200,-0.0931,0.1611
8153,-0.0859,0.0270,0.0143,-0.17,0.13,0.50,0.170,1.438,1.541,-1.517,-0.0265,0.0057,0.0124,-0.0154,0.9978,-0.1220,0.1842,0.2200,-0.0940,0.1614
8163,-0.0857,0.0381,0.0149,-0.24,0.14,0.49,0.170,0.703,0.290,-0.491,-0.0272,0.0056,0.0141,-0.0173,0.9978,-0.1229,0.1845,0.2200,-0.0948,0.1618
8173,-0.0853,0.0477,0.0142,-0.30,0.14,0.48,0.170,0.827,0.054,-1.777,-0.0279,0.0056,0.0110,-0.0166,0.9935,-0.1238,0.1849,0.2200,-0.0957,0.1623
8183,-0.0850,0.0462,0.0138,-0.28,0.12,0.47,0.170,2.728,-0.511,-2.661,-0.0293,0.0070,0.0094,-0.0150,0.9959,-0.1247,0.1853,0.2200,-0.0965,0.1627
8193,-0.0846,0.0449,0.0137,-0.25,0.12,0.45,0.172,0.248,0.721,-0.541,-0.0301,0.0069,0.0076,-0.0112,0.9959,-0.1257,0.1857,0.2200,-0.0974,0.1632
8203,-0.0868,0.0487,0.0134,-0.28,0.13,0.44,0.172,1.480,0.589,-2.002,-0.0304,0.0076,0.0101,-0.0148,0.9963,-0.1266,0.1860,0.2200,-0.0982,0.1637
8213,-0.0867,0.0471,0.0165,-0.25,0.12,0.42,0.172,3.468,-0.964,-1.681,-0.0307,0.0076,0.0088,-0.0157,0.9961,-0.1275,0.1864,0.2200,-0.0991,0.1641
8223,-0.0849,0.0485,0.0161,-0.23,0.11,0.40,0.172,2.614,-1.472,-0.492,-0.0322,0.0078,0.0058,-0.0125,0.9929,-0.1285,0.1868,0.2200,-0.1000,0.1646
8233,-0.0833,0.0468,0.0157,-0.21,0.09,0.39,0.171,4.923,-0.903,-0.832,-0.0333,0.0080,0.0051,-0.0109,0.9946,-0.1294,0.1871,0.2200,-0.1008,0.1651
8245,-0.0858,0.0461,0.0153,-0.18,0.11,0.37,0.171,1.332,-1.556,-1.257,-0.0333,0.0089,0.0050,-0.0178,0.9984,-0.1303,0.1875,0.2200,-0.1017,0.1656
8253,-0.0869,0.0458,0.0149,-0.14,0.13,0.36,0.171,2.967,-1.503,-1.650,-0.0341,0.0086,0.0092,-0.0184,0.9976,-0.1313,0.1878,0.2200,-0.1025,0.1660
8263,-0.0840,0.0476,0.0129,-0.12,0.12,0.35,0.171,5.542,-1.272,-0.363,-0.0349,0.0090,0.0060,-0.0173,0.9981,-0.1322,0.1882,0.2200,-0.1034,0.1665
8272,-0.0839,0.0447,0.0124,-0.05,0.13,0.35,0.171,3.055,-2.486,-2.018,-0.0364,0.0089,0.0075,-0.0186,0.9991,-0.1332,0.1885,0.2200,-0.1042,0.1669
8283,-0.0841,0.0448,0.0117,-0.04,0.14,0.33,0.171,3.270,-1.107,-0.512,-0.0365,0.0095,0.0092,-0.0173,0.9983,-0.1341,0.1888,0.2200,-0.1050,0.1674
8293,-0.0867,0.0427,0.0114,0.03,0.17,0.32,0.172,1.231,0.256,0.002,-0.0387,0.0094,0.0115,-0.0148,0.9949,-0.1350,0.1892,0.2200,-0.1059,0.1678
8302,-0.0841,0.0434,0.0113,0.06,0.17,0.31,0.172,3.807,0.044,-1.489,-0.0386,0.0104,0.0092,-0.0157,0.9930,-0.1360,0.1895,0.2200,-0.1067,0.1682
8313,-0.0893,0.0413,0.0103,0.10,0.23,0.30,0.172,4.130,0.361,-2.102,-0.0398,0.0110,0.0106,-0.0189,0.9914,-0.1369,0.1898,0.2200,-0.1076,0.1687
8323,-0.0862,0.0433,0.0103,0.11,0.21,0.30,0.172,5.711,0.529,-1.288,-0.0396,0.0105,0.0138,-0.0188,0.9912,-0.1379,0.1901,0.2200,-0.1085,0.1691
8333,-0.0873,0.0437,0.0102,0.13,0.20,0.29,0.175,4.461,1.170,-0.621,-0.0416,0.0115,0.0130,-0.0154,0.9919,-0.1388,0.1904,0.2200,-0.1094,0.1695
8343,-0.0871,0.0413,0.0099,0.19,0.19,0.28,0.175,4.161,0.834,-1.152,-0.0414,0.0123,0.0126,-0.0183,0.9936,-0.1398,0.1907,0.2200,-0.1102,0.1699
8353,-0.0881,0.0415,0.0092,0.24,0.19,0.26,0.175,0.049,0.308,-2.047,-0.0430,0.0135,0.0068,-0.0144,0.9963,-0.1407,0.1910,0.2200,-0.1111,0.1704
8362,-0.0879,0.0445,0.0135,0.27,0.18,0.25,0.175,-0.168,-0.696,-2.275,-0.0432,0.0127,0.0100,-0.0127,0.9962,-0.1417,0.1913,0.2200,-0.1120,0.1708
8373,-0.0876,0.0449,0.0127,0.31,0.16,0.23,0.175,-0.058,-0.433,-0.525,-0.0445,0.0142,0.0104,-0.0140,0.9936,-0.1427,0.1916,0.2200,-0.1129,0.1712
8382,-0.0885,0.0416,0.0119,0.34,0.16,0.22,0.175,-1.051,-2.075,-1.010,-0.0451,0.0134,0.0088,-0.0173,0.9955,-0.1436,0.1919,0.2200,-0.1138,0.1717
8393,-0.0869,0.0433,0.0112,0.32,0.15,0.20,0.177,0.977,-0.261,-1.381,-0.0464,0.0138,0.0083,-0.0195,0.9949,-0.1446,0.1922,0.2200,-0.1146,0.1721
