time_ms,vel_x,vel_y,vel_z,roll,pitch,yaw,range_z,gyro_x,gyro_y,gyro_z,ekf_x,ekf_y
0,0.0021,-0.0123,0.0040,-1.57,2.52,-91.57,0.010,-0.169,0.775,0.071,-4.4368,4.6472
0,0.0066,-0.0171,0.0040,-1.61,2.48,-91.49,0.010,-0.133,0.424,-0.118,-4.4368,4.6470
0,0.0066,-0.0122,0.0043,-1.61,2.52,-91.41,0.010,-0.069,0.163,-0.220,-4.4379,4.6471
0,0.0019,-0.0120,0.0045,-1.57,2.52,-91.33,0.010,-0.152,0.283,-0.010,-4.4360,4.6462
0,0.0020,-0.0127,0.0047,-1.57,2.51,-91.25,0.010,-0.110,0.154,-0.010,-4.4366,4.6472
0,-0.0040,-0.0125,0.0049,-1.53,2.51,-91.16,0.010,-0.159,0.299,0.189,-4.4368,4.6473
0,0.0072,-0.0175,0.0032,-1.62,2.48,-91.08,0.010,-0.187,0.175,0.180,-4.4368,4.6470
0,0.0037,-0.0111,0.0036,-1.59,2.53,-91.00,0.010,-0.101,0.353,0.374,-4.4351,4.6470
0,0.0027,-0.0112,0.0039,-1.58,2.52,-90.92,0.010,0.011,0.165,-0.145,-4.4364,4.6468
0,0.0030,-0.0126,0.0041,-1.58,2.52,-90.84,0.010,-0.163,0.353,0.102,-4.4366,4.6470
0,0.0126,-0.0129,0.0029,-1.66,2.52,-90.75,0.010,-0.218,0.380,-0.163,-4.4366,4.6475
0,0.0051,-0.0139,0.0035,-1.60,2.51,-90.67,0.010,-0.285,0.152,-0.050,-4.4366,4.6474
1,0.0039,-0.0126,0.0038,-1.59,2.52,-90.59,0.010,-0.298,0.355,0.071,-4.4350,4.6469
1,0.0037,-0.0101,0.0041,-1.59,2.54,-90.51,0.013,0.001,0.489,-0.007,-4.4354,4.6461
1,0.0039,-0.0108,0.0044,-1.59,2.54,-90.43,0.013,-0.300,0.060,-0.160,-4.4365,4.6468
1,0.0127,-0.0133,0.0046,-1.66,2.52,-90.35,0.013,-0.083,0.519,0.028,-4.4359,4.6474
1,0.0101,-0.0180,0.0100,-1.64,2.48,-90.27,0.013,-0.299,-0.032,-0.090,-4.4365,4.6472
1,0.0038,-0.0138,0.0103,-1.59,2.51,-90.19,0.013,-0.204,0.500,0.002,-4.4367,4.6472
1,0.0076,-0.0100,0.0107,-1.62,2.54,-90.11,0.010,-0.230,0.271,-0.089,-4.4350,4.6470
1,0.0038,-0.0113,0.0114,-1.59,2.53,-90.03,0.010,-0.076,0.127,0.084,-4.4365,4.6470
1,0.0026,-0.0114,0.0069,-1.58,2.53,-89.95,0.010,-0.383,0.423,0.326,-4.4365,4.6465
1,0.0127,-0.0124,0.0072,-1.66,2.52,-89.86,0.010,-0.052,0.261,-0.073,-4.4365,4.6464
1,0.0040,-0.0125,0.0077,-1.59,2.52,-89.79,0.010,-0.159,0.251,0.050,-4.4349,4.6468
1,0.0040,-0.0149,0.0078,-1.59,2.50,-89.70,0.010,0.101,0.170,-0.317,-4.4347,4.6459
2,0.0122,-0.0123,0.0081,-1.66,2.52,-89.62,0.010,-0.299,0.277,-0.160,-4.4365,4.6468
2,0.0129,-0.0170,0.0086,-1.67,2.48,-89.54,0.010,0.084,0.131,-0.184,-4.4356,4.6468
2,0.0028,-0.0121,0.0056,-1.59,2.52,-89.46,0.010,-0.301,0.276,-0.002,-4.4365,4.6468
2,0.0078,-0.0120,0.0059,-1.62,2.52,-89.38,0.010,-0.171,0.108,-0.101,-4.4359,4.6472
2,0.0031,-0.0121,0.0064,-1.59,2.52,-89.31,0.008,-0.412,0.003,0.118,-4.4384,4.6465
2,0.0105,-0.0121,0.0068,-1.64,2.52,-89.23,0.008,-0.219,-0.176,-0.233,-4.4384,4.6469
2,0.0068,-0.0112,-0.0002,-1.61,2.53,-89.15,0.008,-0.089,0.231,-0.028,-4.4396,4.6472
2,-0.0067,-0.0148,0.0001,-1.50,2.50,-89.07,0.008,-0.258,0.056,0.050,-4.4436,4.6494
2,-0.0059,-0.0123,0.0004,-1.51,2.53,-88.99,0.008,-0.332,0.279,-0.013,-4.4428,4.6494
2,-0.0123,-0.0101,0.0007,-1.46,2.55,-88.91,0.011,-0.126,0.420,-0.082,-4.4427,4.6486
2,-0.0336,0.0020,0.0007,-1.30,2.65,-88.83,0.011,-0.275,0.340,-0.158,-4.4427,4.6490
2,-0.0274,0.0015,0.0015,-1.35,2.64,-88.75,0.011,-0.107,0.329,0.265,-4.4442,4.6494
2,-0.0258,-0.0037,0.0042,-1.37,2.60,-88.67,0.011,-0.232,0.057,-0.387,-4.4438,4.6492
2,-0.0245,-0.0020,0.0046,-1.38,2.61,-88.59,0.011,-0.224,0.281,0.482,-4.4430,4.6492
3,-0.0311,-0.0003,0.0048,-1.33,2.62,-88.51,0.009,-0.232,0.217,-0.303,-4.4434,4.6486
3,-0.0271,-0.0017,0.0055,-1.37,2.61,-88.43,0.009,-0.187,0.256,0.258,-4.4434,4.6496
3,-0.0212,-0.0020,0.0022,-1.42,2.61,-88.35,0.009,-0.179,0.338,0.207,-4.4434,4.6494
3,-0.0222,-0.0057,0.0023,-1.41,2.57,-88.27,0.009,-0.465,0.339,0.024,-4.4436,4.6494
3,-0.0212,-0.0002,0.0025,-1.43,2.62,-88.19,0.009,-0.151,-0.083,0.046,-4.4446,4.6485
3,-0.0200,-0.0018,0.0029,-1.44,2.60,-88.11,0.011,-0.218,0.303,0.176,-4.4435,4.6486
3,-0.0200,-0.0024,0.0032,-1.44,2.59,-88.03,0.011,-0.166,0.302,0.090,-4.4436,4.6492
3,-0.0247,-0.0078,0.0033,-1.41,2.55,-87.95,0.011,-0.043,0.362,0.084,-4.4438,4.6492
3,-0.0172,-0.0077,0.0056,-1.47,2.55,-87.87,0.011,-0.031,0.189,0.067,-4.4432,4.6492
3,-0.0162,-0.0042,0.0059,-1.48,2.58,-87.79,0.011,-0.161,0.231,0.300,-4.4444,4.6485
3,-0.0164,-0.0045,0.0062,-1.48,2.57,-87.71,0.012,-0.023,0.195,-0.042,-4.4437,4.6486
3,-0.0119,-0.0046,0.0068,-1.52,2.56,-87.63,0.012,-0.105,0.389,-0.069,-4.4431,4.6492
3,-0.0179,-0.0085,0.0096,-1.47,2.53,-87.55,0.012,-0.301,0.253,-0.027,-4.4433,4.6492
3,-0.0132,-0.0087,0.0099,-1.51,2.53,-87.47,0.012,-0.182,0.443,-0.316,-4.4429,4.6492
3,-0.0088,-0.0055,0.0103,-1.55,2.55,-87.39,0.012,-0.434,0.473,0.104,-4.4429,4.6486
3,-0.0091,-0.0060,0.0105,-1.55,2.55,-87.31,0.009,0.068,0.272,-0.016,-4.4439,4.6485
4,-0.0060,-0.0062,0.0107,-1.57,2.55,-87.24,0.009,-0.139,-0.049,-0.186,-4.4436,4.6492
4,-0.0051,-0.0098,0.0108,-1.58,2.51,-87.16,0.009,-0.177,0.206,-0.095,-4.4431,4.6492
4,-0.0103,-0.0105,0.0048,-1.54,2.51,-87.08,0.009,-0.043,0.068,0.189,-4.4431,4.6490
4,-0.0074,-0.0072,0.0051,-1.57,2.54,-87.00,0.009,-0.106,0.580,0.191,-4.4434,4.6496
4,-0.0044,-0.0074,0.0054,-1.59,2.53,-86.92,0.010,-0.216,0.144,0.057,-4.4436,4.6491
4,-0.0037,-0.0086,0.0055,-1.59,2.52,-86.84,0.010,-0.190,0.033,-0.287,-4.4436,4.6490
4,-0.0044,-0.0057,0.0035,-1.59,2.55,-86.76,0.010,-0.394,0.092,0.058,-4.4444,4.6488
4,-0.0048,-0.0085,0.0036,-1.58,2.52,-86.68,0.010,-0.161,0.452,-0.264,-4.4432,4.6491
4,-0.0043,-0.0090,0.0040,-1.59,2.52,-86.61,0.010,-0.339,0.580,-0.102,-4.4448,4.6483
4,-0.0087,-0.0105,0.0043,-1.55,2.51,-86.53,0.007,-0.235,-0.076,-0.072,-4.4436,4.6484
4,-0.0006,-0.0091,0.0045,-1.62,2.52,-86.45,0.007,-0.111,0.436,-0.305,-4.4438,4.6488
4,-0.0097,-0.0136,0.0050,-1.55,2.49,-86.37,0.007,-0.332,0.330,-0.134,-4.4430,4.6490
5,-0.0016,-0.0132,-0.0033,-1.61,2.49,-86.29,0.007,-0.114,0.121,0.090,-4.4430,4.6489
5,-0.0024,-0.0109,-0.0031,-1.60,2.51,-86.22,0.007,-0.214,0.393,0.095,-4.4429,4.6488
5,0.0027,-0.0095,-0.0029,-1.64,2.51,-86.14,0.012,-0.367,0.326,0.244,-4.4429,4.6491
5,0.0030,-0.0102,-0.0025,-1.65,2.51,-86.06,0.012,-0.090,0.119,0.208,-4.4447,4.6485
5,0.0032,-0.0088,0.0045,-1.65,2.52,-85.98,0.012,-0.304,0.494,0.209,-4.4446,4.6489
5,-0.0063,-0.0120,0.0049,-1.57,2.50,-85.90,0.012,-0.084,0.092,-0.314,-4.4436,4.6494
5,0.0041,-0.0100,0.0052,-1.66,2.51,-85.82,0.012,-0.233,0.203,0.023,-4.4431,4.6488
5,-0.0052,-0.0109,0.0056,-1.58,2.50,-85.75,0.009,0.037,0.179,-0.032,-4.4429,4.6486
5,0.0014,-0.0081,0.0060,-1.63,2.52,-85.67,0.009,-0.231,0.116,0.261,-4.4444,4.6487
5,0.0044,-0.0116,0.0063,-1.65,2.49,-85.59,0.009,-0.048,0.413,-0.070,-4.4444,4.6489
5,0.0058,-0.0128,0.0029,-1.66,2.48,-85.51,0.009,-0.334,0.202,0.006,-4.4431,4.6488
5,-0.0022,-0.0123,0.0033,-1.60,2.50,-85.43,0.009,-0.009,0.269,0.079,-4.4431,4.6490
5,-0.0018,-0.0112,0.0037,-1.60,2.50,-85.36,0.012,-0.235,0.290,0.093,-4.4431,4.6488
6,0.0058,-0.0118,0.0041,-1.66,2.50,-85.28,0.012,-0.072,0.421,0.220,-4.4429,4.6490
6,0.0060,-0.0104,0.0087,-1.66,2.51,-85.20,0.012,-0.263,0.039,-0.527,-4.4439,4.6490
6,0.0062,-0.0115,0.0090,-1.66,2.50,-85.13,0.012,-0.283,0.076,-0.070,-4.4439,4.6492
6,0.0072,-0.0102,0.0093,-1.67,2.51,-85.05,0.012,-0.122,0.584,0.001,-4.4447,4.6485
6,0.0015,-0.0107,0.0096,-1.63,2.51,-84.97,0.012,-0.402,-0.028,-0.064,-4.4436,4.6484
6,0.0018,-0.0093,0.0099,-1.63,2.52,-84.89,0.012,0.095,0.192,0.163,-4.4431,4.6488
6,-0.0022,-0.0132,0.0102,-1.60,2.49,-84.82,0.012,-0.079,0.235,-0.257,-4.4437,4.6494
6,0.0044,-0.0136,0.0121,-1.65,2.48,-84.74,0.012,-0.282,0.442,0.293,-4.4439,4.6488
6,0.0080,-0.0108,0.0125,-1.67,2.50,-84.66,0.012,-0.246,0.199,-0.173,-4.4439,4.6490
6,0.0044,-0.0079,0.0130,-1.65,2.52,-84.59,0.009,-0.256,0.295,0.334,-4.4445,4.6483
6,0.0038,-0.0117,0.0132,-1.64,2.49,-84.51,0.009,-0.403,0.467,-0.024,-4.4429,4.6486
6,0.0038,-0.0108,0.0066,-1.64,2.50,-84.43,0.009,-0.095,0.142,0.222,-4.4429,4.6492
6,0.0011,-0.0143,0.0069,-1.61,2.48,-84.36,0.009,-0.081,0.406,-0.266,-4.4428,4.6491
6,0.0105,-0.0120,0.0072,-1.69,2.49,-84.28,0.009,-0.371,-0.072,0.189,-4.4378,4.6486
7,0.0102,-0.0087,0.0078,-1.69,2.51,-84.20,0.013,-0.235,0.193,-0.259,-4.4380,4.6484
7,0.0106,-0.0094,0.0083,-1.69,2.51,-84.13,0.013,-0.002,0.266,-0.276,-4.4358,4.6497
7,0.0382,-0.0126,0.0077,-1.91,2.46,-84.05,0.013,-0.345,0.140,0.056,-4.4358,4.6501
7,0.0358,-0.0134,0.0120,-1.88,2.45,-83.97,0.013,-0.290,0.219,0.140,-4.4349,4.6500
7,0.0471,-0.0057,0.0118,-1.98,2.50,-83.89,0.013,-0.324,-0.012,-0.253,-4.4364,4.6501
7,0.0454,-0.0036,0.0124,-1.96,2.52,-83.82,0.009,-0.281,0.383,-0.120,-4.4365,4.6498
7,0.0487,-0.0047,0.0127,-1.98,2.51,-83.74,0.009,-0.322,0.554,0.267,-4.4350,4.6500
7,0.0383,-0.0049,0.0066,-1.89,2.52,-83.67,0.009,-0.242,0.140,-0.046,-4.4348,4.6502
7,0.0370,-0.0064,0.0070,-1.88,2.51,-83.59,0.009,0.012,0.167,-0.059,-4.4354,4.6499
7,0.0439,-0.0056,0.0068,-1.93,2.51,-83.51,0.009,-0.015,0.470,0.224,-4.4363,4.6488
7,0.0435,-0.0045,0.0070,-1.92,2.51,-83.44,0.011,-0.008,0.034,-0.226,-4.4367,4.6502
7,0.0387,-0.0065,0.0078,-1.88,2.51,-83.36,0.011,-0.263,0.425,0.280,-4.4356,4.6499
7,0.0320,-0.0137,0.0085,-1.82,2.46,-83.29,0.011,-0.097,0.051,-0.019,-4.4358,4.6498
7,0.0287,-0.0055,0.0071,-1.80,2.52,-83.21,0.011,-0.228,0.328,0.004,-4.4364,4.6498
7,0.0338,-0.0074,0.0073,-1.83,2.50,-83.14,0.011,-0.148,0.300,-0.143,-4.4360,4.6500
7,0.0315,-0.0074,0.0077,-1.81,2.50,-83.06,0.009,-0.183,0.394,-0.003,-4.4359,4.6498
7,0.0270,-0.0079,0.0082,-1.77,2.50,-82.99,0.009,-0.196,0.223,0.091,-4.4356,4.6497
7,0.0282,-0.0068,0.0023,-1.78,2.51,-82.91,0.009,0.030,0.244,-0.170,-4.4354,4.6500
7,0.0287,-0.0080,0.0026,-1.78,2.50,-82.84,0.009,-0.273,0.389,-0.246,-4.4347,4.6498
7,0.0282,-0.0063,0.0027,-1.78,2.52,-82.84,0.009,-0.060,0.279,0.134,-4.4348,4.6493
7,0.0307,-0.0071,0.0028,-1.80,2.51,-82.76,0.006,-0.255,0.437,-0.028,-4.4355,4.6490
7,0.0205,-0.0072,0.0038,-1.72,2.52,-82.69,0.006,-0.362,0.184,-0.015,-4.4367,4.6492
7,0.0304,-0.0105,0.0037,-1.79,2.48,-82.61,0.006,-0.014,0.231,-0.093,-4.4361,4.6495
8,0.0255,-0.0126,-0.0075,-1.75,2.47,-82.53,0.006,-0.370,0.180,-0.251,-4.4358,4.6497
8,0.0178,-0.0112,-0.0066,-1.69,2.49,-82.46,0.006,-0.287,0.574,-0.014,-4.4363,4.6496
8,0.0207,-0.0096,-0.0061,-1.71,2.50,-82.38,0.011,-0.297,0.351,0.265,-4.4369,4.6496
8,0.0223,-0.0084,-0.0058,-1.72,2.51,-82.31,0.011,-0.166,0.120,0.162,-4.4357,4.6499
8,0.0186,-0.0088,-0.0001,-1.69,2.51,-82.24,0.011,0.013,0.248,-0.146,-4.4355,4.6499
8,0.0149,-0.0093,0.0001,-1.66,2.51,-82.16,0.011,-0.290,0.010,0.123,-4.4361,4.6499
8,0.0213,-0.0074,0.0001,-1.71,2.51,-82.09,0.011,-0.111,0.057,0.029,-4.4367,4.6488
8,0.0164,-0.0081,0.0007,-1.67,2.51,-82.01,0.008,-0.463,0.326,0.214,-4.4366,4.6476
8,0.0182,-0.0078,0.0009,-1.68,2.51,-81.94,0.008,-0.219,0.522,0.133,-4.4367,4.6497
8,0.0141,-0.0141,0.0015,-1.64,2.47,-81.86,0.008,-0.165,-0.121,0.060,-4.4359,4.6499
8,0.0146,-0.0209,-0.0019,-1.64,2.42,-81.78,0.008,-0.393,0.165,0.281,-4.4357,4.6499
8,0.0137,-0.0082,-0.0012,-1.64,2.52,-81.71,0.008,-0.208,0.531,-0.034,-4.4347,4.6490
8,0.0177,-0.0078,-0.0009,-1.68,2.52,-81.64,0.009,-0.035,0.544,0.015,-4.4355,4.6489
8,0.0183,-0.0078,-0.0005,-1.68,2.51,-81.56,0.009,-0.480,0.370,-0.162,-4.4350,4.6495
8,0.0230,-0.0128,-0.0003,-1.71,2.47,-81.48,0.009,-0.410,0.142,0.508,-4.4358,4.6498
8,0.0179,-0.0135,0.0002,-1.67,2.47,-81.41,0.009,-0.098,0.288,-0.326,-4.4364,4.6497
8,0.0201,-0.0098,0.0005,-1.69,2.49,-81.34,0.009,-0.445,0.055,0.059,-4.4347,4.6492
8,0.0149,-0.0083,0.0009,-1.65,2.51,-81.26,0.011,-0.266,0.120,0.201,-4.4352,4.6489
8,0.0114,-0.0090,0.0011,-1.62,2.51,-81.19,0.011,-0.090,0.089,-0.271,-4.4355,4.6495
8,0.0207,-0.0122,0.0011,-1.69,2.48,-81.11,0.011,-0.309,0.141,0.323,-4.4357,4.6498
8,0.0172,-0.0136,0.0062,-1.66,2.47,-81.04,0.011,-0.414,0.240,0.245,-4.4363,4.6497
8,0.0152,-0.0102,0.0067,-1.65,2.50,-80.96,0.011,-0.260,0.237,0.097,-4.4362,4.6496
8,0.0135,-0.0080,0.0069,-1.63,2.52,-80.89,0.012,-0.136,-0.067,0.404,-4.4358,4.6497
8,0.0099,-0.0087,0.0073,-1.60,2.52,-80.81,0.012,-0.487,0.568,0.151,-4.4353,4.6498
8,0.0105,-0.0090,0.0112,-1.61,2.51,-80.74,0.012,-0.199,0.268,0.031,-4.4352,4.6497
8,0.0127,-0.0087,0.0112,-1.63,2.51,-80.67,0.012,-0.212,0.131,-0.013,-4.4345,4.6496
8,0.0150,-0.0083,0.0113,-1.64,2.52,-80.59,0.012,-0.018,0.204,-0.001,-4.4352,4.6484
8,0.0157,-0.0090,0.0116,-1.65,2.51,-80.52,0.009,-0.148,0.179,0.078,-4.4363,4.6495
8,0.0192,-0.0097,0.0118,-1.67,2.50,-80.44,0.009,-0.155,0.163,-0.084,-4.4350,4.6495
8,0.0150,-0.0164,0.0120,-1.63,2.45,-80.36,0.009,-0.276,0.365,-0.192,-4.4350,4.6493
9,0.0085,-0.0099,0.0064,-1.59,2.51,-80.29,0.009,-0.184,0.220,-0.033,-4.4362,4.6491
9,0.0160,-0.0096,0.0066,-1.64,2.50,-80.22,0.009,-0.192,0.365,-0.196,-4.4346,4.6498
9,0.0158,-0.0106,0.0068,-1.64,2.50,-80.15,0.011,-0.349,0.069,-0.043,-4.4381,4.6490
9,0.0081,-0.0116,0.0072,-1.58,2.50,-80.07,0.011,-0.133,0.236,0.088,-4.4400,4.6487
9,0.0171,-0.0073,0.0077,-1.65,2.52,-80.00,0.011,-0.350,0.318,-0.080,-4.4375,4.6491
9,-0.0034,-0.0120,0.0087,-1.49,2.50,-79.92,0.011,0.084,0.236,-0.002,-4.4375,4.6490
9,-0.0135,-0.0137,0.0091,-1.41,2.50,-79.85,0.011,-0.128,0.253,-0.201,-4.4354,4.6493
9,0.0014,-0.0110,0.0100,-1.53,2.51,-79.78,0.007,-0.149,0.538,0.214,-4.4358,4.6492
9,0.0041,-0.0117,0.0103,-1.55,2.50,-79.71,0.007,-0.059,0.485,-0.248,-4.4396,4.6489
9,0.0133,-0.0101,0.0104,-1.63,2.50,-79.63,0.007,-0.439,0.251,0.322,-4.4390,4.6488
9,0.0103,-0.0109,-0.0000,-1.61,2.50,-79.56,0.007,-0.525,0.312,0.085,-4.4391,4.6494
9,-0.0108,-0.0126,0.0007,-1.44,2.52,-79.49,0.007,-0.054,0.178,0.125,-4.4390,4.6492
9,-0.0064,-0.0131,0.0010,-1.47,2.50,-79.42,0.009,-0.209,0.272,-0.142,-4.4393,4.6483
9,-0.0066,-0.0095,0.0013,-1.48,2.53,-79.34,0.009,-0.332,0.309,-0.060,-4.4398,4.6488
9,-0.0059,-0.0108,-0.0000,-1.49,2.53,-79.27,0.009,-0.138,0.268,0.015,-4.4394,4.6489
9,-0.0068,-0.0158,0.0002,-1.47,2.49,-79.19,0.009,-0.262,0.231,-0.063,-4.4394,4.6491
9,-0.0091,-0.0125,0.0007,-1.46,2.52,-79.12,0.009,-0.241,0.549,0.092,-4.4388,4.6492
9,-0.0061,-0.0119,0.0011,-1.49,2.52,-79.05,0.013,-0.317,0.308,0.223,-4.4352,4.6477
9,-0.0057,-0.0107,0.0015,-1.50,2.53,-78.97,0.013,-0.102,0.315,-0.144,-4.4336,4.6493
9,-0.0018,-0.0102,0.0018,-1.53,2.53,-78.90,0.013,-0.206,0.486,0.227,-4.4342,4.6492
9,0.0187,-0.0187,0.0097,-1.68,2.42,-78.83,0.013,-0.131,0.389,0.007,-4.4336,4.6493
9,0.0270,-0.0098,0.0095,-1.76,2.48,-78.76,0.013,-0.318,0.324,-0.046,-4.4342,4.6492
9,0.0230,-0.0104,0.0100,-1.72,2.48,-78.68,0.007,-0.022,0.005,0.022,-4.4340,4.6473
9,0.0255,-0.0098,0.0102,-1.74,2.48,-78.61,0.007,-0.035,0.628,0.062,-4.4376,4.6484
9,0.0211,-0.0107,0.0013,-1.71,2.48,-78.54,0.007,-0.234,0.068,-0.099,-4.4378,4.6484
9,0.0214,-0.0207,0.0014,-1.69,2.40,-78.46,0.007,-0.451,0.451,0.036,-4.4380,4.6483
9,0.0014,-0.0141,0.0025,-1.54,2.49,-78.39,0.007,-0.015,0.102,-0.108,-4.4386,4.6474
9,0.0005,-0.0141,0.0028,-1.53,2.49,-78.32,0.008,-0.090,0.155,0.069,-4.4354,4.6486
9,-0.0003,-0.0141,0.0030,-1.53,2.49,-78.25,0.008,0.130,0.431,-0.067,-4.4335,4.6474
10,-0.0035,-0.0191,0.0032,-1.50,2.45,-78.17,0.008,-0.076,0.262,-0.125,-4.4337,4.6487
10,0.0147,-0.0117,-0.0008,-1.66,2.48,-78.10,0.008,-0.024,0.282,0.187,-4.4338,4.6473
10,0.0251,-0.0186,-0.0008,-1.73,2.41,-78.03,0.008,-0.244,0.210,-0.130,-4.4343,4.6476
10,0.0229,-0.0108,-0.0002,-1.72,2.48,-77.96,0.012,-0.216,0.287,-0.185,-4.4345,4.6478
10,0.0218,-0.0190,0.0001,-1.69,2.42,-77.89,0.012,-0.338,0.031,-0.159,-4.4343,4.6486
10,0.0189,-0.0169,0.0066,-1.67,2.44,-77.82,0.012,-0.044,0.303,-0.080,-4.4336,4.6486
10,0.0171,-0.0159,0.0070,-1.65,2.46,-77.75,0.012,-0.311,0.375,0.198,-4.4316,4.6486
10,0.0179,-0.0110,0.0071,-1.67,2.50,-77.68,0.012,-0.110,0.285,-0.150,-4.4308,4.6480
10,0.0210,-0.0114,0.0070,-1.69,2.49,-77.60,0.012,-0.245,0.249,-0.021,-4.4303,4.6477
10,0.0317,-0.0110,0.0068,-1.78,2.47,-77.53,0.012,-0.153,0.548,0.130,-4.4299,4.6475
10,0.0349,-0.0144,0.0068,-1.79,2.44,-77.46,0.012,-0.270,0.415,-0.077,-4.4322,4.6480
10,0.0367,-0.0158,0.0102,-1.80,2.42,-77.39,0.012,-0.121,0.082,-0.175,-4.4319,4.6479
10,0.0256,-0.0121,0.0113,-1.71,2.47,-77.32,0.012,-0.106,0.171,-0.155,-4.4311,4.6481
10,0.0240,-0.0134,0.0117,-1.70,2.46,-77.25,0.006,-0.356,-0.129,-0.059,-4.4309,4.6479
10,0.0278,-0.0123,0.0118,-1.73,2.47,-77.18,0.006,-0.139,0.051,0.096,-4.4313,4.6486
10,0.0281,-0.0133,-0.0003,-1.73,2.46,-77.11,0.006,-0.491,0.290,0.276,-4.4311,4.6485
10,0.0270,-0.0119,0.0000,-1.72,2.48,-77.04,0.006,0.043,0.245,-0.031,-4.4315,4.6482
10,0.0257,-0.0094,0.0003,-1.71,2.50,-76.97,0.006,-0.281,0.081,0.115,-4.4312,4.6481
10,0.0212,-0.0102,0.0009,-1.67,2.50,-76.89,0.009,-0.366,0.091,-0.133,-4.4319,4.6472
10,0.0233,-0.0120,0.0011,-1.69,2.49,-76.82,0.009,-0.078,0.431,-0.005,-4.4317,4.6471
10,0.0193,-0.0137,0.0015,-1.65,2.48,-76.75,0.009,-0.111,0.091,-0.117,-4.4320,4.6483
10,0.0195,-0.0170,0.0002,-1.65,2.45,-76.68,0.009,0.109,0.231,-0.179,-4.4320,4.6481
10,0.0174,-0.0100,0.0007,-1.64,2.51,-76.60,0.009,-0.465,0.049,0.076,-4.4309,4.6484
10,0.0170,-0.0112,0.0010,-1.64,2.50,-76.53,0.010,-0.032,0.073,-0.212,-4.4311,4.6483
10,0.0221,-0.0099,0.0011,-1.68,2.51,-76.46,0.010,-0.269,0.296,-0.031,-4.4309,4.6482
10,0.0205,-0.0102,0.0027,-1.66,2.51,-76.39,0.010,-0.235,0.327,0.378,-4.4310,4.6485
10,0.0210,-0.0108,0.0030,-1.67,2.51,-76.32,0.010,-0.186,-0.105,-0.238,-4.4308,4.6485
10,0.0216,-0.0111,0.0034,-1.67,2.50,-76.25,0.010,-0.203,0.146,0.013,-4.4305,4.6475
10,0.0205,-0.0098,0.0036,-1.66,2.51,-76.18,0.008,-0.235,0.441,-0.087,-4.4301,4.6473
10,0.0209,-0.0094,0.0038,-1.67,2.52,-76.11,0.008,-0.250,0.314,-0.021,-4.4300,4.6478
11,0.0217,-0.0154,0.0042,-1.66,2.47,-76.04,0.008,-0.291,0.441,0.295,-4.4315,4.6475
11,0.0235,-0.0159,0.0002,-1.68,2.47,-75.97,0.008,-0.442,0.523,-0.263,-4.4307,4.6477
11,0.0232,-0.0129,0.0006,-1.68,2.49,-75.90,0.008,-0.260,0.297,0.095,-4.4317,4.6481
11,0.0141,-0.0148,0.0010,-1.60,2.49,-75.83,0.009,-0.291,0.277,0.029,-4.4315,4.6473
11,0.0182,-0.0132,0.0011,-1.64,2.49,-75.75,0.009,-0.255,0.252,0.391,-4.4316,4.6477
11,0.0120,-0.0105,0.0013,-1.60,2.53,-75.68,0.009,-0.285,0.195,0.235,-4.4302,4.6483
11,0.0129,-0.0150,0.0016,-1.60,2.49,-75.61,0.009,-0.252,0.289,-0.019,-4.4311,4.6485
11,0.0120,-0.0123,0.0019,-1.60,2.51,-75.54,0.009,-0.164,0.469,0.144,-4.4308,4.6473
11,0.0194,-0.0091,0.0022,-1.66,2.52,-75.47,0.012,-0.272,0.246,0.016,-4.4297,4.6476
11,0.0138,-0.0082,0.0028,-1.62,2.54,-75.40,0.012,-0.249,0.224,-0.192,-4.4310,4.6481
11,0.0153,-0.0148,0.0032,-1.62,2.48,-75.33,0.012,-0.266,0.452,0.103,-4.4308,4.6480
11,0.0206,-0.0128,0.0097,-1.66,2.48,-75.26,0.012,0.002,-0.058,0.004,-4.4300,4.6483
11,0.0133,-0.0096,0.0102,-1.61,2.52,-75.19,0.012,-0.259,0.295,0.123,-4.4304,4.6480
11,0.0134,-0.0102,0.0104,-1.61,2.52,-75.12,0.009,-0.117,-0.084,-0.111,-4.4322,4.6470
11,0.0176,-0.0091,0.0106,-1.65,2.52,-75.05,0.009,-0.152,-0.081,0.047,-4.4317,4.6478
11,0.0150,-0.0110,0.0073,-1.62,2.51,-74.98,0.009,-0.156,0.527,-0.051,-4.4307,4.6481
11,0.0049,-0.0159,0.0078,-1.53,2.50,-74.91,0.009,-0.017,0.225,-0.092,-4.4318,4.6479
11,0.0075,-0.0111,0.0081,-1.56,2.53,-74.84,0.009,-0.628,0.209,0.220,-4.4285,4.6485
11,0.0131,-0.0095,0.0083,-1.61,2.53,-74.77,0.008,-0.306,0.097,0.158,-4.4330,4.6473
11,0.0071,-0.0110,0.0087,-1.56,2.53,-74.70,0.008,-0.248,0.251,0.266,-4.4318,4.6478
11,0.0241,-0.0073,0.0086,-1.70,2.52,-74.63,0.008,-0.264,0.327,0.110,-4.4319,4.6483
11,-0.0004,-0.0142,0.0037,-1.50,2.52,-74.56,0.008,-0.380,0.254,-0.184,-4.4302,4.6485
11,0.0062,-0.0111,0.0042,-1.56,2.53,-74.49,0.008,-0.145,0.309,-0.230,-4.4308,4.6483
11,0.0056,-0.0088,0.0043,-1.56,2.55,-74.42,0.008,-0.236,0.161,-0.163,-4.4307,4.6482
11,0.0150,-0.0075,0.0045,-1.64,2.54,-74.35,0.008,-0.056,0.491,0.039,-4.4308,4.6479
11,0.0112,-0.0086,0.0010,-1.61,2.54,-74.28,0.008,-0.163,0.236,0.059,-4.4307,4.6478
11,0.0116,-0.0089,0.0012,-1.61,2.54,-74.22,0.008,-0.188,0.428,-0.047,-4.4306,4.6481
11,0.0107,-0.0103,0.0013,-1.60,2.53,-74.15,0.008,-0.309,0.377,-0.138,-4.4294,4.6475
11,0.0112,-0.0109,0.0014,-1.60,2.52,-74.08,0.008,-0.018,0.325,-0.043,-4.4287,4.6484
11,0.0119,-0.0092,0.0016,-1.61,2.53,-74.01,0.008,-0.148,0.049,-0.210,-4.4305,4.6479
12,0.0179,-0.0128,0.0016,-1.65,2.49,-73.94,0.008,-0.113,0.248,-0.148,-4.4297,4.6482
12,0.0210,-0.0077,-0.0010,-1.68,2.52,-73.87,0.008,-0.303,0.343,0.263,-4.4295,4.6481
12,0.0107,-0.0107,-0.0003,-1.60,2.52,-73.80,0.008,-0.104,0.216,0.039,-4.4302,4.6479
12,0.0152,-0.0094,0.0001,-1.63,2.52,-73.74,0.008,-0.262,0.388,-0.121,-4.4316,4.6478
12,0.0112,-0.0105,0.0005,-1.60,2.52,-73.67,0.008,-0.010,0.290,-0.082,-4.4309,4.6477
12,0.0039,-0.0124,-0.0006,-1.54,2.52,-73.60,0.008,-0.301,0.246,0.036,-4.4307,4.6476
12,0.0075,-0.0111,-0.0002,-1.57,2.52,-73.53,0.008,0.011,0.329,-0.055,-4.4317,4.6479
12,0.0088,-0.0118,-0.0001,-1.58,2.51,-73.46,0.008,-0.087,0.455,-0.062,-4.4316,4.6474
12,0.0045,-0.0105,0.0002,-1.55,2.53,-73.39,0.009,-0.083,0.116,-0.091,-4.4316,4.6473
12,0.0034,-0.0109,0.0005,-1.54,2.53,-73.33,0.009,-0.152,0.067,-0.072,-4.4300,4.6478
12,0.0041,-0.0131,0.0008,-1.54,2.52,-73.26,0.009,0.070,0.526,0.157,-4.4309,4.6483
12,0.0044,-0.0137,0.0024,-1.54,2.51,-73.19,0.009,-0.239,0.296,0.166,-4.4305,4.6477
12,0.0128,-0.0112,0.0027,-1.61,2.51,-73.12,0.009,-0.157,-0.003,0.224,-4.4316,4.6476
12,0.0079,-0.0087,0.0031,-1.58,2.54,-73.06,0.010,-0.165,0.259,0.015,-4.4305,4.6480
12,0.0099,-0.0119,0.0034,-1.59,2.51,-72.99,0.010,-0.345,0.156,0.194,-4.4307,4.6484
12,0.0037,-0.0124,0.0061,-1.54,2.53,-72.92,0.010,0.064,0.387,-0.429,-4.4315,4.6481
12,0.0096,-0.0106,0.0064,-1.59,2.53,-72.85,0.010,-0.056,0.377,-0.162,-4.4311,4.6483
12,0.0091,-0.0082,0.0067,-1.59,2.55,-72.78,0.010,-0.165,0.336,0.287,-4.4294,4.6474
12,0.0048,-0.0096,0.0071,-1.55,2.55,-72.71,0.008,-0.158,0.200,-0.058,-4.4292,4.6475
12,0.0072,-0.0088,0.0074,-1.57,2.55,-72.65,0.008,-0.006,0.164,-0.084,-4.4298,4.6484
12,0.0159,-0.0133,0.0076,-1.63,2.49,-72.58,0.008,-0.265,0.269,0.523,-4.4308,4.6481
12,0.0165,-0.0128,0.0041,-1.63,2.49,-72.51,0.008,-0.423,0.197,0.216,-4.4313,4.6475
12,0.0131,-0.0075,0.0045,-1.62,2.54,-72.44,0.008,-0.363,0.259,0.164,-4.4311,4.6476
12,0.0072,-0.0094,0.0052,-1.57,2.54,-72.38,0.007,-0.199,0.291,-0.155,-4.4348,4.6464
12,0.0045,-0.0125,0.0059,-1.54,2.52,-72.31,0.007,-0.459,0.419,0.280,-4.4361,4.6471
12,0.0056,-0.0122,0.0015,-1.56,2.52,-72.24,0.007,-0.398,0.182,0.230,-4.4363,4.6469
12,-0.0137,-0.0184,0.0017,-1.40,2.52,-72.17,0.007,0.149,0.313,-0.008,-4.4365,4.6468
12,-0.0198,-0.0144,0.0018,-1.36,2.57,-72.11,0.007,-0.193,0.184,0.089,-4.4344,4.6467
12,-0.0196,-0.0150,0.0018,-1.36,2.56,-72.04,0.009,-0.220,0.088,-0.343,-4.4354,4.6460
13,-0.0195,-0.0155,0.0017,-1.37,2.56,-71.97,0.009,-0.161,0.208,0.124,-4.4345,4.6470
13,-0.0076,-0.0154,0.0024,-1.46,2.53,-71.90,0.009,-0.124,0.103,0.058,-4.4353,4.6472
13,-0.0120,-0.0194,0.0035,-1.42,2.51,-71.84,0.009,-0.202,0.289,-0.066,-4.4363,4.6469
13,-0.0065,-0.0136,0.0039,-1.48,2.54,-71.77,0.009,-0.477,0.281,0.350,-4.4353,4.6466
13,-0.0101,-0.0122,0.0042,-1.46,2.56,-71.70,0.008,-0.184,0.232,-0.269,-4.4342,4.6462
13,-0.0149,-0.0138,0.0042,-1.42,2.56,-71.63,0.008,-0.087,0.211,-0.018,-4.4363,4.6469
13,-0.0081,-0.0153,0.0024,-1.47,2.53,-71.57,0.008,-0.168,0.500,-0.040,-4.4365,4.6469
13,-0.0017,-0.0168,0.0027,-1.52,2.50,-71.50,0.008,-0.231,0.374,0.246,-4.4366,4.6467
13,-0.0126,-0.0127,0.0033,-1.45,2.56,-71.43,0.008,-0.560,0.117,0.163,-4.4344,4.6467
13,-0.0128,-0.0129,0.0037,-1.45,2.55,-71.36,0.010,-0.052,0.515,-0.140,-4.4375,4.6458
13,-0.0125,-0.0135,0.0042,-1.45,2.55,-71.30,0.010,-0.173,0.379,0.290,-4.4345,4.6470
13,0.0007,-0.0133,0.0049,-1.55,2.52,-71.23,0.010,-0.208,0.325,0.176,-4.4342,4.6471
13,-0.0159,-0.0188,0.0082,-1.42,2.52,-71.16,0.010,-0.078,0.341,0.154,-4.4363,4.6469
13,0.0015,-0.0114,0.0090,-1.56,2.52,-71.10,0.010,-0.352,0.151,-0.046,-4.4346,4.6468
13,0.0029,-0.0108,0.0095,-1.58,2.52,-71.03,0.011,0.112,0.155,0.329,-4.4363,4.6470
13,-0.0083,-0.0118,0.0099,-1.50,2.54,-70.96,0.011,-0.142,0.125,-0.066,-4.4364,4.6468
13,0.0020,-0.0121,0.0127,-1.57,2.51,-70.89,0.011,-0.024,0.192,0.007,-4.4328,4.6466
13,-0.0068,-0.0112,0.0131,-1.51,2.54,-70.83,0.011,-0.312,0.188,0.066,-4.4343,4.6467
13,0.0123,-0.0124,0.0135,-1.65,2.48,-70.76,0.011,-0.268,0.450,-0.028,-4.4342,4.6466
13,0.0067,-0.0142,0.0140,-1.60,2.49,-70.69,0.011,-0.279,0.077,-0.158,-4.4340,4.6466
13,0.0050,-0.0122,0.0144,-1.59,2.51,-70.63,0.011,-0.274,0.314,0.152,-4.4343,4.6475
13,0.0122,-0.0106,0.0145,-1.65,2.50,-70.56,0.011,-0.059,-0.083,0.161,-4.4343,4.6470
13,0.0066,-0.0123,0.0144,-1.60,2.50,-70.50,0.011,-0.137,0.171,-0.157,-4.4308,4.6480
13,0.0050,-0.0078,0.0146,-1.60,2.54,-70.43,0.011,0.111,0.248,-0.201,-4.4306,4.6480
13,0.0046,-0.0103,0.0149,-1.60,2.52,-70.36,0.010,0.007,0.214,-0.070,-4.4311,4.6468
13,0.0236,-0.0047,0.0148,-1.75,2.51,-70.30,0.010,-0.352,0.364,-0.132,-4.4303,4.6478
13,0.0242,-0.0051,0.0115,-1.76,2.50,-70.23,0.010,-0.125,0.024,-0.430,-4.4305,4.6478
13,0.0207,-0.0115,0.0123,-1.71,2.47,-70.17,0.010,-0.467,0.477,0.009,-4.4305,4.6476
13,0.0245,-0.0059,0.0125,-1.75,2.50,-70.10,0.010,-0.320,0.302,0.020,-4.4301,4.6473
14,0.0227,-0.0061,0.0129,-1.73,2.50,-70.03,0.010,-0.178,0.432,0.035,-4.4384,4.6443
14,0.0227,-0.0072,0.0134,-1.73,2.49,-69.97,0.010,-0.302,0.079,0.020,-4.4391,4.6449
14,0.0240,-0.0091,0.0136,-1.73,2.47,-69.90,0.010,-0.491,0.301,-0.103,-4.4400,4.6451
14,-0.0204,-0.0251,0.0110,-1.35,2.47,-69.84,0.010,-0.394,0.288,0.248,-4.4399,4.6449
14,-0.0228,-0.0208,0.0115,-1.35,2.51,-69.77,0.010,-0.256,0.399,-0.179,-4.4393,4.6451
14,-0.0265,-0.0198,0.0117,-1.32,2.53,-69.71,0.010,-0.323,0.228,0.042,-4.4378,4.6447
14,-0.0246,-0.0205,0.0120,-1.34,2.52,-69.64,0.010,-0.131,0.501,-0.128,-4.4397,4.6449
14,-0.0200,-0.0189,0.0088,-1.39,2.52,-69.58,0.010,0.078,0.139,0.026,0.0000,0.0000
14,-0.0106,-0.0206,0.0094,-1.46,2.48,-69.51,0.010,-0.457,0.337,-0.037,0.0000,-0.0000
14,-0.0198,-0.0191,0.0097,-1.40,2.52,-69.45,0.010,-0.170,0.466,0.061,0.0001,0.0000
14,0.0012,-0.0011,0.0000,0.00,0.00,0.00,0.010,-0.188,0.134,-0.072,0.0001,-0.0002
14,0.0051,-0.0030,0.0001,-0.00,-0.00,0.00,0.010,-0.113,0.243,0.314,0.0002,-0.0003
14,0.0118,-0.0020,0.0000,-0.04,-0.02,0.00,0.010,-0.282,0.201,-0.248,0.0003,-0.0005
14,0.0102,-0.0106,0.0000,0.06,0.06,0.00,0.010,-0.551,0.159,0.139,0.0003,-0.0007
14,0.0131,-0.0137,0.0001,0.07,0.10,0.00,0.010,-0.271,0.268,0.135,0.0011,-0.0002
14,0.0181,-0.0179,0.0000,0.10,0.09,0.00,0.008,-0.310,0.388,0.281,0.0011,-0.0006
14,0.0189,-0.0195,0.0001,0.07,0.19,0.00,0.008,0.001,0.180,0.066,0.0007,-0.0010
14,0.0345,-0.0083,-0.0009,-0.31,-0.10,0.00,0.008,-0.424,0.452,-0.121,0.0009,-0.0012
14,0.0328,-0.0166,-0.0005,-0.13,0.09,0.00,0.008,-0.103,0.315,-0.088,0.0010,-0.0014
14,0.0261,-0.0220,-0.0000,-0.04,0.43,0.00,0.008,-0.178,0.455,0.143,0.0018,-0.0003
14,0.0282,-0.0240,0.0003,-0.05,0.49,0.00,0.008,-0.435,0.202,-0.077,0.0022,-0.0004
14,0.0299,-0.0258,0.0007,-0.07,0.57,0.00,0.008,-0.090,0.510,0.130,0.0015,-0.0018
14,0.0401,-0.0091,0.0012,-0.63,0.40,0.01,0.008,-0.037,-0.021,-0.023,0.0019,-0.0021
14,0.0442,-0.0103,-0.0002,-0.63,0.39,0.01,0.008,-0.358,0.225,0.137,0.0021,-0.0021
14,0.0342,-0.0280,0.0005,-0.17,0.79,0.00,0.008,0.018,0.239,0.303,0.0016,-0.0021
14,0.0379,-0.0302,0.0009,-0.17,0.79,0.00,0.006,-0.220,0.405,-0.379,0.0021,-0.0021
14,0.0395,-0.0291,0.0012,-0.27,0.85,0.00,0.006,-0.259,-0.067,0.207,0.0025,-0.0024
14,0.0320,-0.0277,-0.0040,-0.36,1.13,0.01,0.006,-0.315,0.359,-0.059,0.0023,-0.0024
14,0.0381,-0.0262,-0.0036,-0.44,1.05,0.01,0.006,-0.167,0.070,-0.043,0.0026,-0.0026
14,0.0413,-0.0278,-0.0034,-0.44,1.05,0.01,0.006,-0.264,0.618,0.270,0.0051,-0.0000
14,0.0372,-0.0264,-0.0028,-0.52,1.23,0.01,0.011,-0.302,0.382,-0.091,0.0058,-0.0000
15,0.0400,-0.0280,-0.0026,-0.52,1.22,0.01,0.011,-0.366,0.353,-0.003,0.0026,-0.0038
15,0.0626,-0.0013,-0.0028,-1.18,0.76,0.02,0.011,-0.108,0.171,-0.060,0.0029,-0.0041
15,0.0517,-0.0041,0.0062,-1.14,1.09,0.02,0.011,-0.455,0.285,0.218,0.0024,-0.0021
15,0.0349,-0.0365,0.0070,-0.44,1.52,0.01,0.011,-0.252,0.385,0.139,0.0027,-0.0023
15,0.0332,-0.0270,0.0077,-0.68,1.61,0.02,0.010,0.022,0.294,-0.148,0.0026,-0.0033
15,0.0317,-0.0186,0.0084,-0.88,1.68,0.02,0.010,0.118,0.083,-0.097,0.0022,-0.0027
15,0.0339,-0.0195,0.0096,-0.88,1.68,0.02,0.010,-0.157,0.067,-0.144,0.0024,-0.0026
15,0.0320,-0.0272,0.0100,-0.74,1.75,0.02,0.010,-0.093,0.609,0.133,0.0027,-0.0028
15,0.0281,-0.0208,0.0105,-0.89,1.86,0.02,0.010,-0.294,0.176,-0.125,0.0030,-0.0030
15,0.0289,-0.0193,0.0110,-0.93,1.88,0.02,0.009,-0.206,0.005,0.002,0.0050,-0.0029
15,0.0305,-0.0200,0.0111,-0.93,1.87,0.02,0.009,-0.402,0.733,0.193,0.0029,-0.0015
15,0.0321,-0.0208,0.0112,-0.93,1.87,0.02,0.009,-0.351,-0.163,0.138,0.0027,-0.0027
15,0.0468,-0.0189,0.0078,-0.98,1.63,0.02,0.009,0.110,0.371,-0.384,0.0026,-0.0032
15,0.0300,-0.0084,0.0087,-1.18,1.96,0.03,0.009,-0.185,0.430,-0.071,0.0031,-0.0025
15,0.0282,-0.0167,0.0092,-1.05,2.01,0.02,0.012,0.004,0.468,-0.085,0.0033,-0.0024
15,0.0266,-0.0199,0.0097,-1.01,2.06,0.02,0.012,-0.147,0.536,0.290,0.0020,-0.0027
15,0.0293,-0.0146,0.0140,-1.11,2.03,0.02,0.012,-0.199,0.344,-0.143,0.0016,-0.0020
15,0.0296,-0.0138,0.0142,-1.14,2.04,0.02,0.012,-0.278,0.383,0.213,0.0015,-0.0014
15,0.0203,-0.0149,0.0144,-1.13,2.21,0.02,0.012,-0.216,0.105,-0.032,0.0042,0.0003
15,0.0177,-0.0101,0.0145,-1.22,2.26,0.03,0.008,-0.081,0.484,0.117,0.0019,-0.0019
15,0.0171,-0.0057,0.0147,-1.29,2.28,0.03,0.008,-0.349,-0.014,-0.032,0.0016,-0.0019
15,0.0346,0.0056,0.0151,-1.46,2.03,0.04,0.008,-0.327,0.064,0.028,0.0015,-0.0027
15,0.0187,-0.0091,0.0075,-1.24,2.28,0.02,0.008,-0.382,-0.118,0.058,0.0015,-0.0013
15,0.0162,-0.0087,0.0078,-1.26,2.32,0.02,0.008,-0.334,0.206,-0.109,0.0019,-0.0018
15,0.0158,-0.0133,0.0080,-1.19,2.34,0.02,0.008,-0.341,0.304,0.150,0.0016,-0.0005
15,0.0156,-0.0041,0.0083,-1.33,2.35,0.03,0.008,0.201,0.109,-0.120,0.0024,-0.0018
15,0.0188,-0.0072,0.0027,-1.29,2.32,0.03,0.008,-0.125,0.218,0.188,0.0015,-0.0017
15,0.0167,0.0012,0.0028,-1.41,2.36,0.03,0.008,-0.509,0.113,0.088,0.0012,-0.0017
15,0.0210,-0.0069,0.0032,-1.31,2.31,0.03,0.008,-0.395,0.024,0.181,0.0012,-0.0004
21,0.0157,-0.0065,0.0036,-1.31,2.39,0.03,0.007,-0.084,0.437,0.312,0.0034,0.0008
31,0.0139,-0.0061,0.0039,-1.32,2.42,0.03,0.007,0.038,0.118,-0.240,0.0011,-0.0014
41,0.0136,0.0019,0.0041,-1.43,2.43,0.04,0.007,-0.121,0.033,-0.107,0.0013,-0.0015
51,0.0271,0.0093,-0.0015,-1.53,2.26,0.05,0.007,-0.185,0.338,0.159,0.0018,-0.0017
61,0.0124,-0.0049,-0.0005,-1.35,2.45,0.03,0.007,0.169,0.149,-0.048,0.0014,-0.0023
71,0.0132,-0.0049,-0.0001,-1.35,2.45,0.03,0.011,-0.275,0.585,0.009,0.0014,-0.0014
81,0.0163,-0.0064,0.0004,-1.33,2.42,0.03,0.011,-0.229,0.294,0.026,0.0011,-0.0014
91,0.0142,-0.0094,0.0060,-1.30,2.45,0.03,0.011,-0.277,0.314,0.175,0.0016,-0.0014
102,0.0140,-0.0039,0.0065,-1.36,2.45,0.03,0.011,-0.173,0.164,-0.102,0.0005,-0.0016
111,0.0121,-0.0035,0.0068,-1.37,2.48,0.03,0.011,-0.298,0.077,0.227,0.0033,0.0010
121,0.0150,-0.0033,0.0072,-1.37,2.45,0.03,0.008,-0.286,-0.034,0.131,0.0013,-0.0016
131,0.0090,-0.0047,0.0075,-1.36,2.52,0.03,0.008,0.020,0.276,-0.007,0.0010,-0.0016
141,0.0253,0.0103,0.0079,-1.53,2.34,0.05,0.008,-0.181,0.348,-0.168,0.0010,-0.0016
151,0.0127,-0.0048,0.0040,-1.36,2.49,0.03,0.008,-0.007,0.318,-0.350,0.0010,-0.0008
161,0.0111,-0.0045,0.0042,-1.37,2.51,0.03,0.008,-0.532,0.030,0.176,0.0012,-0.0013
172,0.0110,0.0002,0.0043,-1.42,2.51,0.03,0.010,-0.220,0.293,0.027,0.0009,-0.0008
181,0.0126,-0.0023,0.0048,-1.39,2.50,0.03,0.010,-0.325,0.353,0.282,0.0006,-0.0015
191,0.0111,0.0008,0.0063,-1.42,2.52,0.03,0.010,-0.077,0.436,0.108,0.0006,-0.0018
201,0.0096,-0.0033,0.0064,-1.38,2.54,0.03,0.010,-0.086,0.373,0.277,0.0013,-0.0015
211,0.0096,-0.0045,0.0067,-1.37,2.54,0.02,0.010,-0.274,0.219,-0.556,0.0013,-0.0015
221,0.0123,-0.0030,0.0070,-1.39,2.51,0.03,0.010,-0.351,0.078,0.268,0.0027,-0.0015
231,0.0134,-0.0028,0.0075,-1.38,2.51,0.03,0.010,0.030,0.463,0.100,0.0010,-0.0012
241,0.0132,-0.0027,0.0080,-1.39,2.51,0.03,0.010,-0.239,0.122,0.215,0.0005,-0.0015
251,0.0207,-0.0026,0.0080,-1.39,2.43,0.03,0.010,-0.131,0.211,0.288,0.0007,-0.0015
261,0.0112,-0.0012,0.0085,-1.41,2.54,0.03,0.010,-0.069,0.442,-0.069,0.0012,-0.0014
271,0.0085,-0.0022,0.0088,-1.39,2.57,0.03,0.009,-0.105,0.473,0.101,0.0010,-0.0005
281,0.0097,-0.0020,0.0090,-1.40,2.55,0.03,0.009,-0.265,0.325,0.291,0.0009,-0.0010
291,0.0122,-0.0018,0.0059,-1.40,2.53,0.03,0.009,-0.141,0.405,-0.027,0.0012,-0.0014
301,0.0108,0.0034,0.0062,-1.45,2.54,0.04,0.009,-0.027,0.335,-0.003,0.0007,-0.0007
311,0.0106,0.0009,0.0064,-1.43,2.55,0.03,0.009,-0.101,0.209,0.078,0.0008,-0.0007
321,0.0118,-0.0016,0.0066,-1.40,2.53,0.03,0.009,-0.337,0.259,-0.042,0.0013,-0.0015
332,0.0092,0.0022,0.0068,-1.44,2.56,0.03,0.009,-0.310,0.270,0.128,0.0008,-0.0014
341,0.0100,0.0023,0.0071,-1.44,2.56,0.03,0.009,-0.102,0.043,-0.261,0.0005,0.0002
351,0.0126,-0.0016,0.0049,-1.40,2.53,0.03,0.009,-0.301,0.234,0.192,0.0007,-0.0005
361,0.0097,-0.0014,0.0052,-1.40,2.56,0.03,0.009,-0.116,0.561,0.008,0.0007,-0.0000
371,0.0083,0.0077,0.0054,-1.49,2.57,0.04,0.006,-0.340,0.276,0.280,0.0019,-0.0001
380,0.0095,0.0035,0.0060,-1.45,2.56,0.03,0.006,-0.210,0.568,0.117,0.0015,-0.0015
391,0.0098,0.0058,-0.0025,-1.48,2.56,0.03,0.006,-0.227,0.314,-0.143,0.0007,-0.0012
401,0.0161,0.0056,-0.0022,-1.47,2.50,0.04,0.006,0.038,0.064,-0.092,0.0010,-0.0012
411,0.0132,-0.0021,-0.0018,-1.40,2.53,0.03,0.006,-0.202,0.204,-0.157,0.0028,0.0009
421,0.0092,-0.0010,-0.0015,-1.42,2.57,0.03,0.008,-0.348,0.112,-0.005,0.0009,-0.0014
431,0.0105,-0.0010,-0.0014,-1.42,2.55,0.03,0.008,0.068,0.384,-0.113,0.0007,-0.0019
441,0.0204,0.0101,-0.0013,-1.52,2.46,0.04,0.008,-0.308,0.144,-0.035,0.0007,-0.0017
450,0.0100,-0.0026,-0.0011,-1.40,2.56,0.03,0.008,-0.177,0.209,0.082,0.0009,-0.0014
461,0.0087,-0.0049,-0.0008,-1.38,2.57,0.03,0.008,-0.382,0.493,-0.033,0.0009,-0.0019
471,0.0089,-0.0034,-0.0006,-1.39,2.57,0.03,0.012,-0.138,0.353,-0.175,0.0011,-0.0016
481,0.0102,-0.0022,-0.0004,-1.41,2.56,0.03,0.012,-0.279,0.168,-0.084,0.0006,-0.0007
491,0.0100,-0.0043,0.0082,-1.39,2.56,0.02,0.012,-0.061,0.278,-0.040,0.0006,-0.0011
501,0.0112,-0.0030,0.0082,-1.40,2.55,0.02,0.012,0.107,0.373,0.098,0.0004,-0.0011
510,0.0085,0.0021,0.0083,-1.45,2.57,0.03,0.012,-0.333,0.141,0.111,0.0024,0.0009
521,0.0086,-0.0005,0.0085,-1.43,2.57,0.02,0.011,-0.381,-0.170,-0.106,0.0017,0.0007
531,0.0075,-0.0005,0.0085,-1.43,2.58,0.02,0.011,-0.191,-0.072,-0.052,0.0006,0.0045
541,0.0187,0.0108,0.0086,-1.52,2.48,0.04,0.011,-0.154,0.322,0.069,0.0005,0.0049
551,0.0146,0.0092,0.0110,-1.51,2.52,0.04,0.011,-0.225,0.314,0.009,0.0005,0.0053
561,0.0081,0.0295,0.0109,-1.68,2.58,0.05,0.011,-0.067,-0.101,0.072,0.0005,0.0053
571,0.0082,0.0307,0.0112,-1.69,2.58,0.05,0.012,-0.107,0.151,-0.235,0.0006,0.0057
581,0.0081,0.0318,0.0112,-1.69,2.57,0.05,0.012,-0.217,0.136,-0.047,0.0004,0.0052
591,0.0086,0.0323,0.0135,-1.69,2.56,0.05,0.012,0.033,0.279,0.111,0.0003,0.0049
600,0.0073,0.0282,0.0142,-1.65,2.58,0.04,0.012,-0.095,0.306,-0.079,0.0002,0.0042
611,0.0072,0.0255,0.0148,-1.62,2.58,0.04,0.012,-0.258,0.267,0.046,0.0015,0.0057
621,0.0072,0.0194,0.0153,-1.57,2.58,0.03,0.009,-0.285,0.172,-0.067,0.0016,0.0009
631,0.0072,0.0211,0.0155,-1.58,2.57,0.03,0.009,-0.101,0.305,-0.101,0.0007,0.0009
641,0.0145,0.0286,0.0152,-1.64,2.51,0.04,0.009,-0.449,0.089,0.183,0.0005,0.0011
651,0.0144,0.0007,0.0090,-1.41,2.51,0.01,0.009,-0.125,0.120,0.363,0.0009,0.0011
661,0.0093,0.0006,0.0095,-1.40,2.56,0.01,0.009,-0.156,0.379,0.151,0.0005,0.0007
671,0.0081,0.0019,0.0099,-1.42,2.56,0.01,0.009,-0.115,0.286,0.051,0.0014,0.0007
681,0.0105,0.0020,0.0104,-1.42,2.55,0.02,0.009,-0.474,0.183,0.274,0.0016,0.0001
691,0.0083,-0.0006,0.0050,-1.40,2.57,0.01,0.009,-0.689,0.271,0.245,0.0011,0.0015
701,0.0130,-0.0006,0.0054,-1.40,2.52,0.02,0.009,-0.059,0.095,-0.062,0.0005,0.0005
710,0.0141,-0.0041,0.0057,-1.37,2.51,0.01,0.009,-0.251,0.182,-0.005,0.0014,0.0007
721,0.0115,0.0042,0.0061,-1.44,2.54,0.02,0.008,-0.208,0.324,-0.376,0.0014,0.0009
731,0.0080,-0.0016,0.0067,-1.40,2.56,0.02,0.008,0.024,0.124,0.146,0.0016,0.0011
740,0.0129,-0.0002,0.0072,-1.40,2.52,0.02,0.008,-0.095,0.404,-0.037,0.0012,0.0007
751,0.0130,0.0009,0.0015,-1.42,2.53,0.02,0.008,-0.174,0.232,0.078,0.0008,0.0019
761,0.0142,0.0021,0.0019,-1.42,2.52,0.01,0.008,-0.155,0.377,-0.153,0.0008,0.0017
771,0.0119,-0.0003,0.0022,-1.40,2.54,0.01,0.007,0.011,0.171,-0.046,0.0016,0.0017
781,0.0095,0.0066,0.0026,-1.46,2.56,0.02,0.007,-0.040,0.328,-0.049,0.0008,0.0040
791,0.0097,0.0052,-0.0032,-1.45,2.56,0.02,0.007,-0.277,0.273,0.077,0.0009,0.0042
800,0.0144,0.0051,-0.0031,-1.45,2.52,0.01,0.007,-0.265,0.089,-0.032,0.0009,0.0050
810,0.0098,0.0175,-0.0030,-1.55,2.56,0.02,0.007,-0.243,0.395,0.001,0.0018,0.0052
821,0.0103,0.0178,-0.0029,-1.55,2.55,0.02,0.009,-0.126,0.379,-0.200,0.0013,0.0033
831,0.0103,0.0219,-0.0029,-1.58,2.55,0.02,0.009,-0.357,0.286,-0.054,0.0009,0.0041
841,0.0150,0.0222,-0.0027,-1.58,2.51,0.03,0.009,-0.345,0.330,0.413,0.0010,0.0043
850,0.0124,0.0103,-0.0010,-1.49,2.53,0.02,0.009,-0.275,0.409,0.121,0.0010,0.0052
861,0.0102,0.0145,-0.0007,-1.52,2.55,0.02,0.009,-0.208,0.528,-0.008,0.0011,0.0054
871,0.0109,0.0146,-0.0004,-1.52,2.55,0.02,0.010,-0.054,0.398,0.020,0.0018,0.0047
881,0.0111,0.0187,-0.0002,-1.56,2.55,0.02,0.010,0.007,0.035,-0.531,0.0008,0.0044
891,0.0117,0.0189,0.0028,-1.56,2.54,0.02,0.010,-0.150,0.284,0.076,0.0008,0.0053
901,0.0154,0.0140,0.0032,-1.52,2.51,0.02,0.010,-0.272,0.307,-0.360,0.0010,0.0044
911,0.0098,0.0123,0.0037,-1.50,2.55,0.02,0.010,-0.368,0.113,-0.022,0.0015,0.0051
921,0.0096,0.0169,0.0039,-1.54,2.56,0.02,0.009,-0.239,0.198,0.089,0.0017,0.0055
931,0.0110,0.0110,0.0045,-1.49,2.55,0.01,0.009,-0.118,0.409,-0.221,0.0017,0.0014
941,0.0136,0.0143,0.0047,-1.51,2.53,0.01,0.009,-0.335,0.589,-0.043,0.0017,0.0021
950,0.0147,0.0162,0.0039,-1.53,2.52,0.02,0.009,-0.374,0.332,0.134,0.0019,0.0021
961,0.0145,-0.0076,0.0047,-1.34,2.52,0.00,0.009,0.002,0.539,-0.129,0.0017,0.0021
970,0.0141,-0.0034,0.0050,-1.38,2.52,0.00,0.010,-0.243,0.357,0.254,0.0010,0.0004
981,0.0152,-0.0034,0.0053,-1.38,2.51,0.00,0.010,-0.211,0.075,0.043,0.0011,0.0003
991,0.0137,-0.0032,0.0065,-1.38,2.53,0.00,0.010,-0.271,0.504,0.027,0.0018,0.0033
1000,0.0099,-0.0130,0.0068,-1.30,2.56,-0.00,0.010,-0.538,0.329,-0.098,0.0011,0.0001
1010,0.0136,0.0033,0.0073,-1.43,2.53,0.01,0.010,-0.330,-0.157,0.030,0.0013,0.0001
1020,0.0099,-0.0138,0.0077,-1.30,2.55,-0.00,0.008,-0.071,0.212,0.087,0.0027,0.0033
1030,0.0110,-0.0130,0.0079,-1.31,2.54,-0.00,0.008,-0.343,0.514,-0.059,0.0016,0.0022
1040,0.0181,0.0043,0.0085,-1.45,2.49,0.01,0.008,-0.241,0.207,-0.113,0.0010,0.0003
1050,0.0190,-0.0021,0.0036,-1.40,2.48,0.00,0.008,-0.229,0.198,0.105,0.0005,0.0013
1060,0.0127,-0.0022,0.0038,-1.40,2.53,0.00,0.008,0.018,0.530,-0.161,0.0012,0.0022
1070,0.0091,-0.0129,0.0042,-1.32,2.56,-0.00,0.008,-0.062,-0.139,0.112,0.0016,0.0032
1080,0.0068,-0.0066,0.0046,-1.37,2.58,0.00,0.008,-0.197,0.196,0.274,0.0010,0.0001
1091,0.0105,-0.0017,0.0010,-1.41,2.55,0.00,0.008,-0.217,0.418,-0.209,0.0011,-0.0001
1100,0.0128,0.0045,0.0012,-1.46,2.53,0.00,0.008,-0.139,0.186,-0.214,0.0011,0.0055
1110,0.0093,-0.0129,0.0017,-1.32,2.56,-0.00,0.008,-0.058,0.196,-0.112,0.0017,0.0055
1120,0.0099,-0.0130,0.0020,-1.32,2.55,-0.00,0.007,-0.195,0.383,0.229,0.0015,0.0000
1131,0.0099,0.0178,0.0028,-1.57,2.55,0.01,0.007,-0.333,0.077,0.210,0.0013,-0.0010
1140,0.0136,0.0170,0.0030,-1.56,2.52,0.01,0.007,0.009,0.255,0.018,0.0013,-0.0021
1150,0.0125,-0.0133,-0.0007,-1.32,2.53,-0.00,0.007,-0.342,0.342,0.082,0.0009,-0.0025
1160,0.0112,-0.0187,-0.0004,-1.28,2.54,-0.01,0.007,-0.215,0.376,-0.080,0.0013,-0.0021
1171,0.0112,-0.0238,-0.0001,-1.24,2.54,-0.01,0.009,-0.226,0.329,-0.335,0.0015,-0.0023
1181,0.0089,-0.0249,0.0002,-1.23,2.56,-0.01,0.009,-0.318,0.265,0.227,0.0011,-0.0023
1190,0.0113,-0.0213,0.0022,-1.26,2.54,-0.01,0.009,-0.032,0.162,-0.090,0.0011,-0.0021
1200,0.0125,-0.0217,0.0026,-1.26,2.54,-0.01,0.009,-0.214,0.153,-0.236,0.0010,-0.0025
1210,0.0102,-0.0207,0.0027,-1.27,2.55,-0.01,0.009,-0.098,0.387,0.111,0.0023,-0.0008
1220,0.0103,-0.0186,0.0030,-1.29,2.55,-0.01,0.008,-0.130,0.468,-0.486,0.0023,-0.0006
1230,0.0102,-0.0202,0.0033,-1.28,2.55,-0.01,0.008,-0.417,0.042,0.224,0.0011,-0.0027
1241,0.0172,-0.0100,0.0039,-1.37,2.50,-0.00,0.008,-0.269,0.175,-0.054,0.0008,-0.0020
1251,0.0170,-0.0084,0.0022,-1.38,2.50,-0.00,0.008,-0.161,0.163,0.003,0.0011,-0.0024
1260,0.0099,-0.0195,0.0025,-1.29,2.56,-0.01,0.008,-0.363,0.018,-0.092,0.0004,-0.0012
1269,0.0089,-0.0152,0.0028,-1.33,2.57,-0.01,0.010,-0.201,0.144,-0.105,0.0019,-0.0012
1280,0.0103,-0.0171,0.0029,-1.32,2.56,-0.01,0.010,-0.275,0.432,-0.005,0.0010,-0.0026
1290,0.0067,-0.0094,0.0061,-1.38,2.59,-0.01,0.010,-0.269,0.161,-0.004,0.0008,-0.0026
1300,0.0150,-0.0091,0.0064,-1.39,2.52,-0.01,0.010,-0.225,0.059,0.203,0.0012,-0.0020
1311,0.0104,-0.0168,0.0068,-1.33,2.56,-0.01,0.010,-0.249,0.233,-0.287,0.0018,-0.0007
1320,0.0092,-0.0159,0.0071,-1.34,2.57,-0.01,0.010,-0.300,0.315,0.384,0.0022,-0.0007
1330,0.0116,-0.0117,0.0074,-1.37,2.55,-0.01,0.010,-0.481,0.277,0.201,0.0014,0.0007
1340,0.0150,-0.0043,0.0077,-1.43,2.52,-0.01,0.010,-0.034,0.456,-0.228,0.0014,0.0015
1351,0.0172,-0.0039,0.0091,-1.44,2.51,-0.01,0.010,-0.282,0.142,0.303,0.0010,0.0009
1360,0.0122,0.0044,0.0094,-1.51,2.55,-0.00,0.010,-0.356,0.310,0.094,0.0012,-0.0023
1370,0.0122,0.0088,0.0094,-1.54,2.54,-0.00,0.009,-0.191,0.266,0.331,0.0014,-0.0025
1381,0.0099,0.0047,0.0098,-1.51,2.56,-0.00,0.009,-0.330,-0.078,0.116,0.0011,-0.0025
1390,0.0113,-0.0142,0.0074,-1.36,2.55,-0.01,0.009,-0.271,0.156,-0.078,0.0012,-0.0026
1400,0.0118,-0.0143,0.0078,-1.36,2.54,-0.01,0.009,-0.142,0.215,0.081,0.0014,-0.0026
1410,0.0103,-0.0136,0.0081,-1.37,2.56,-0.01,0.009,-0.060,0.283,-0.129,0.0016,-0.0027
1420,0.0110,-0.0138,0.0084,-1.37,2.55,-0.01,0.009,-0.019,0.487,-0.008,0.0019,-0.0050
1431,0.0122,-0.0132,0.0087,-1.38,2.55,-0.01,0.009,-0.054,0.036,-0.168,0.0020,-0.0053
1440,0.0147,-0.0277,0.0088,-1.27,2.53,-0.01,0.009,-0.059,0.436,-0.168,0.0011,-0.0031
1450,0.0146,-0.0251,0.0066,-1.29,2.53,-0.01,0.009,-0.036,0.030,-0.049,0.0012,-0.0006
1460,0.0093,-0.0128,0.0074,-1.39,2.57,-0.01,0.009,0.037,0.260,-0.248,0.0012,0.0001
1470,0.0107,0.0051,0.0077,-1.53,2.56,-0.00,0.009,-0.089,0.224,-0.177,0.0014,0.0001
1480,0.0108,0.0013,0.0080,-1.50,2.56,-0.01,0.009,-0.262,0.287,0.099,0.0008,-0.0008
0,0.0108,0.0050,0.0057,-1.53,2.56,-0.01,0.009,-0.034,0.122,-0.270,0.0010,-0.0008
10,0.0118,0.0050,0.0060,-1.53,2.56,-0.01,0.009,-0.315,0.268,0.426,0.0010,-0.0001
19,0.0080,0.0002,0.0065,-1.49,2.58,-0.01,0.009,-0.443,0.370,-0.355,0.0010,-0.0008
29,0.0092,0.0004,0.0067,-1.49,2.57,-0.01,0.010,-0.797,1.105,0.137,0.0018,-0.0010
39,0.0092,0.0040,0.0069,-1.52,2.57,-0.01,0.010,0.285,0.162,0.754,0.0016,0.0001
49,0.0092,0.0005,0.0075,-1.50,2.57,-0.01,0.010,-1.886,1.167,1.035,0.0006,-0.0010
59,0.0139,-0.0005,0.0078,-1.49,2.53,-0.01,0.010,-1.322,1.635,0.233,0.0006,-0.0009
69,0.0076,0.0079,0.0075,-1.54,2.54,-0.01,0.010,0.717,0.831,0.596,0.0012,-0.0003
79,-0.0029,0.0044,0.0081,-1.50,2.59,-0.00,0.010,0.017,-0.260,0.001,0.0024,-0.0005
89,-0.0074,0.0070,0.0088,-1.52,2.58,-0.00,0.010,-2.891,1.588,-0.190,0.0013,0.0010
99,-0.0077,0.0128,0.0071,-1.55,2.54,-0.00,0.010,-0.452,2.393,-0.963,0.0007,-0.0000
108,-0.0055,0.0137,0.0075,-1.54,2.48,0.00,0.010,-0.075,-2.119,-1.879,0.0007,-0.0005
119,-0.0154,0.0241,0.0076,-1.61,2.52,0.00,0.010,0.700,-4.854,-0.900,0.0022,0.0018
128,-0.0223,0.0196,0.0075,-1.57,2.52,-0.01,0.008,1.805,-4.271,-0.406,0.0007,0.0097
139,-0.0255,0.0188,0.0088,-1.54,2.52,-0.02,0.008,-4.799,-5.311,0.893,-0.0004,0.0105
149,-0.0205,0.0334,0.0100,-1.63,2.48,-0.03,0.008,-14.413,-2.522,1.891,-0.0015,0.0131
159,-0.0321,0.0775,0.0042,-1.96,2.59,-0.02,0.008,-12.973,-2.015,4.278,-0.0017,0.0133
168,-0.0412,0.0815,0.0061,-1.97,2.68,-0.02,0.008,-15.765,-0.108,5.145,-0.0043,0.0148
179,-0.0496,0.0944,0.0044,-2.18,2.75,0.00,0.013,-8.057,7.785,4.493,-0.0048,0.0163
189,-0.0529,0.0941,0.0064,-2.27,2.76,0.03,0.013,-7.586,4.044,2.608,-0.0129,0.0167
199,-0.0695,0.1019,0.0159,-2.44,2.88,0.08,0.013,-19.001,-7.566,0.327,-0.0194,0.0173
209,-0.0736,0.1085,0.0214,-2.57,2.81,0.13,0.013,-30.323,-10.954,1.876,-0.0218,0.0178
219,-0.1193,0.1097,0.0244,-2.60,3.08,0.15,0.013,-18.927,-9.159,1.298,-0.0231,0.0180
229,-0.1546,0.1121,0.0287,-2.74,3.35,0.16,0.014,-6.862,-12.311,-2.535,-0.0277,0.0203
239,-0.1665,0.1144,0.0426,-3.01,3.50,0.17,0.014,-1.707,-9.738,-3.185,-0.0333,0.0175
249,-0.1714,0.1155,0.0622,-3.21,3.58,0.20,0.014,5.572,-4.659,-2.282,-0.0357,0.0181
259,-0.1954,0.1286,0.0826,-3.36,3.82,0.19,0.014,18.549,-8.995,-3.239,-0.0374,0.0190
269,-0.2236,0.1126,0.0985,-3.21,4.09,0.14,0.014,25.157,-0.848,-2.067,-0.0410,0.0217
279,-0.2331,0.1162,0.1163,-3.17,4.17,0.11,0.000,21.698,3.984,-1.987,-0.0427,0.0224
289,-0.2395,0.1217,0.1388,-3.00,4.23,0.09,0.000,29.087,7.714,-0.664,-0.0496,0.0260
299,-0.2483,0.1325,0.1228,-2.82,4.30,0.06,0.000,31.791,15.878,-0.339,-0.0531,0.0268
309,-0.2597,0.1394,0.1390,-2.59,4.30,0.04,0.000,26.774,21.312,-1.144,-0.0594,0.0292
319,-0.2938,0.1584,0.1452,-2.43,4.43,0.02,0.000,29.332,29.080,-2.839,-0.0630,0.0300
329,-0.3065,0.1585,0.1633,-2.08,4.32,0.01,0.000,19.459,27.895,-3.797,-0.0670,0.0310
339,-0.3348,0.1679,0.1677,-1.84,4.29,-0.01,0.000,13.858,31.488,-3.885,-0.0704,0.0319
349,-0.3448,0.1664,0.1842,-1.50,4.03,-0.05,0.000,7.855,34.346,-3.664,-0.0740,0.0335
359,-0.3583,0.1677,0.1625,-1.28,3.82,-0.10,0.000,1.319,37.614,-1.976,-0.0801,0.0352
369,-0.3648,0.1656,0.1809,-1.08,3.51,-0.15,0.000,0.872,44.424,-1.923,-0.0852,0.0353
379,-0.3854,0.1677,0.1893,-1.00,3.29,-0.20,0.021,-4.719,44.563,-0.483,-0.0904,0.0376
389,-0.3815,0.1623,0.1933,-0.92,2.89,-0.24,0.021,-1.328,39.708,-0.880,-0.0923,0.0372
399,-0.4044,0.1642,0.2176,-0.91,3.01,-0.25,0.021,-0.852,32.959,-2.629,-0.0960,0.0392
409,-0.4038,0.1578,0.2365,-0.84,2.53,-0.28,0.021,6.065,29.818,-1.493,-0.0987,0.0407
418,-0.4021,0.1560,0.2547,-0.85,2.03,-0.29,0.021,5.747,31.358,-0.875,-0.1012,0.0416
429,-0.4036,0.1599,0.2691,-0.88,1.60,-0.31,0.040,10.577,35.030,-0.426,-0.1037,0.0428
438,-0.3989,0.1610,0.2862,-0.89,1.19,-0.33,0.040,9.785,37.916,-0.376,-0.1075,0.0437
449,-0.3922,0.1585,0.3046,-0.80,0.81,-0.36,0.040,15.313,35.832,0.654,-0.1097,0.0439
459,-0.3838,0.1571,0.3320,-0.72,0.41,-0.37,0.040,13.565,36.990,3.618,-0.1125,0.0450
469,-0.3847,0.1546,0.3419,-0.59,0.08,-0.38,0.040,11.227,28.630,5.259,-0.1135,0.0454
479,-0.3750,0.1476,0.3564,-0.42,-0.38,-0.40,0.066,9.491,25.288,4.806,-0.1174,0.0527
489,-0.3684,0.1461,0.3672,-0.29,-0.79,-0.39,0.066,5.924,21.994,4.670,-0.1184,0.0532
499,-0.3588,0.1438,0.4053,-0.12,-1.25,-0.36,0.066,10.105,21.094,4.544,-0.1198,0.0537
509,-0.3477,0.1728,0.4090,-0.22,-1.62,-0.33,0.066,13.173,20.023,5.157,-0.1229,0.0553
519,-0.3310,0.1659,0.4198,-0.06,-2.00,-0.28,0.066,17.613,19.174,4.148,-0.1231,0.0577
529,-0.3161,0.1597,0.4284,0.05,-2.32,-0.23,0.093,21.808,15.856,7.638,-0.1245,0.0579
539,-0.2950,0.1499,0.4398,0.20,-2.67,-0.17,0.093,23.017,14.653,8.905,-0.1265,0.0583
549,-0.2921,0.1641,0.4378,0.21,-2.85,-0.14,0.093,23.406,15.782,7.766,-0.1267,0.0588
558,-0.2770,0.1552,0.4582,0.44,-3.15,-0.08,0.093,20.326,14.231,7.663,-0.1274,0.0586
569,-0.2674,0.1478,0.4610,0.72,-3.34,-0.00,0.093,19.960,14.341,6.310,-0.1250,0.0569
578,-0.2478,0.1415,0.4656,0.98,-3.60,0.09,0.117,15.429,13.146,6.579,-0.1257,0.0570
589,-0.2322,0.1314,0.4675,1.30,-3.82,0.18,0.117,8.748,8.725,6.280,-0.1257,0.0568
599,-0.2035,0.1147,0.4843,1.63,-4.15,0.29,0.117,4.075,3.062,6.430,-0.1259,0.0572
609,-0.1856,0.1043,0.4811,1.89,-4.38,0.38,0.117,-1.717,-1.461,5.978,-0.1274,0.0581
619,-0.1690,0.0947,0.4761,2.11,-4.59,0.47,0.117,-6.990,-6.936,5.778,-0.1281,0.0571
629,-0.1536,0.0888,0.4698,2.24,-4.74,0.53,0.133,-11.357,-11.528,5.249,-0.1274,0.0573
638,-0.1465,0.0816,0.4625,2.33,-4.78,0.61,0.133,-8.945,-17.621,3.468,-0.1281,0.0579
649,-0.1351,0.0722,0.4553,2.39,-4.80,0.69,0.133,-16.739,-18.806,3.782,-0.1244,0.0577
659,-0.1188,0.0668,0.4280,2.35,-4.81,0.74,0.133,-16.724,-19.458,3.508,-0.1244,0.0576
668,-0.1088,0.0634,0.4194,2.25,-4.72,0.78,0.133,-13.847,-19.499,3.006,-0.1244,0.0577
679,-0.0775,0.0560,0.4113,2.17,-4.74,0.79,0.150,-12.604,-18.428,3.385,-0.1245,0.0577
689,-0.0665,0.0492,0.4011,2.04,-4.58,0.84,0.150,-7.976,-13.523,3.077,-0.1250,0.0580
699,-0.0556,0.0440,0.3813,1.90,-4.41,0.87,0.150,-3.839,-11.235,3.049,-0.1255,0.0582
708,-0.0480,0.0396,0.3704,1.77,-4.22,0.90,0.150,-3.552,-9.305,2.090,-0.1258,0.0586
718,-0.0415,0.0370,0.3594,1.64,-4.04,0.93,0.150,1.349,-7.121,2.382,-0.1259,0.0580
728,-0.0351,0.0334,0.3475,1.55,-3.86,0.97,0.161,0.481,-2.236,1.130,-0.1250,0.0578
739,-0.0292,0.0312,0.3365,1.49,-3.73,1.00,0.161,4.028,-0.952,0.773,-0.1250,0.0580
749,-0.0227,0.0246,0.3258,1.48,-3.64,1.04,0.161,4.332,0.956,0.255,-0.1254,0.0582
759,-0.0124,0.0210,0.2856,1.51,-3.61,1.05,0.161,5.963,1.091,-0.500,-0.1233,0.0569
769,-0.0063,0.0187,0.2755,1.52,-3.58,1.07,0.161,3.207,1.174,-0.988,-0.1232,0.0582
779,-0.0024,0.0164,0.2652,1.56,-3.54,1.08,0.181,3.808,0.038,-1.729,-0.1230,0.0583
789,0.0124,0.0077,0.2550,1.64,-3.61,1.10,0.181,-0.903,0.898,-2.217,-0.1221,0.0570
799,0.0180,0.0110,0.2493,1.66,-3.63,1.07,0.181,-1.198,-1.315,-2.480,-0.1217,0.0570
808,0.0257,0.0036,0.2392,1.73,-3.66,1.08,0.181,-6.364,-1.413,-2.520,-0.1205,0.0568
819,0.0321,-0.0002,0.2291,1.77,-3.67,1.07,0.181,-2.898,-5.839,-3.455,-0.1188,0.0561
829,0.0423,-0.0028,0.2190,1.76,-3.71,1.04,0.190,-6.176,-7.575,-2.269,-0.1175,0.0562
838,0.0470,-0.0059,0.2091,1.74,-3.70,1.02,0.190,-4.425,-7.433,-3.044,-0.1161,0.0555
848,0.0577,-0.0112,0.1987,1.71,-3.72,1.00,0.190,-8.120,-7.846,-3.178,-0.1151,0.0556
859,0.0665,-0.0129,0.1823,1.66,-3.70,0.95,0.190,-9.642,-7.785,-3.121,-0.1131,0.0546
869,0.0754,-0.0178,0.1723,1.64,-3.64,0.93,0.190,-5.930,-9.769,-4.028,-0.1124,0.0544
878,0.0817,-0.0191,0.1627,1.57,-3.58,0.89,0.196,-4.395,-12.301,-4.172,-0.1107,0.0536
888,0.0923,-0.0244,0.1536,1.50,-3.54,0.86,0.196,-7.641,-14.439,-4.075,-0.1096,0.0531
899,0.0965,-0.0264,0.1410,1.40,-3.46,0.83,0.196,-3.454,-10.299,-4.634,-0.1077,0.0531
908,0.1051,-0.0308,0.1329,1.35,-3.39,0.79,0.196,-6.198,-8.132,-4.737,-0.1072,0.0519
919,0.1109,-0.0337,0.1250,1.31,-3.27,0.75,0.196,-0.159,-8.041,-5.153,-0.1038,0.0513
929,0.1188,-0.0345,0.1171,1.24,-3.15,0.70,0.199,0.653,-8.482,-4.608,-0.1030,0.0500
938,0.1211,-0.0394,0.1096,1.22,-3.01,0.67,0.199,-7.050,-9.277,-5.011,-0.1007,0.0501
948,0.1343,-0.0423,0.1017,1.17,-2.99,0.60,0.199,-3.354,-7.674,-4.898,-0.0989,0.0498
958,0.1373,-0.0474,0.0834,1.18,-2.90,0.57,0.199,-2.599,-6.136,-3.926,-0.0968,0.0485
968,0.1454,-0.0472,0.0770,1.16,-2.84,0.51,0.199,-3.194,-7.296,-3.501,-0.0959,0.0481
978,0.1512,-0.0484,0.0710,1.09,-2.77,0.45,0.204,-1.694,-6.654,-4.511,-0.0941,0.0477
988,0.1579,-0.0532,0.0650,1.06,-2.72,0.42,0.204,-1.131,-7.956,-4.415,-0.0917,0.0463
998,0.1595,-0.0543,0.0582,1.02,-2.63,0.38,0.204,-6.127,-10.896,-4.060,-0.0906,0.0462
1008,0.1645,-0.0553,0.0529,0.99,-2.56,0.34,0.204,-3.475,-10.183,-4.002,-0.0878,0.0441
1018,0.1717,-0.0600,0.0479,0.98,-2.51,0.30,0.204,0.176,-10.066,-4.935,-0.0857,0.0443
1027,0.1735,-0.0596,0.0437,0.96,-2.43,0.25,0.207,0.994,-13.544,-4.866,-0.0829,0.0434
1038,0.1812,-0.0667,0.0390,0.97,-2.36,0.23,0.207,-9.450,-10.612,-3.026,-0.0822,0.0422
1049,0.1859,-0.0650,0.0351,0.93,-2.26,0.17,0.207,-5.726,-13.983,-3.228,-0.0791,0.0418
1058,0.1928,-0.0674,0.0310,0.91,-2.18,0.12,0.207,-4.760,-8.859,-2.818,-0.0772,0.0413
1068,0.1922,-0.0709,0.0275,0.94,-2.03,0.09,0.207,-4.652,-7.578,-2.442,-0.0746,0.0401
1079,0.1997,-0.0711,0.0242,0.85,-1.95,0.04,0.200,1.306,-8.678,-3.258,-0.0737,0.0387
1089,0.2024,-0.0720,0.0217,0.78,-1.82,0.01,0.200,0.279,-8.238,-3.668,-0.0711,0.0382
1099,0.2062,-0.0744,0.0024,0.73,-1.74,-0.02,0.200,-4.103,-4.781,-2.389,-0.0691,0.0382
1108,0.2070,-0.0785,0.0001,0.73,-1.65,-0.04,0.200,-6.779,-6.240,-3.446,-0.0670,0.0374
1118,0.2114,-0.0786,-0.0020,0.71,-1.57,-0.07,0.200,-6.122,-4.731,-2.905,-0.0654,0.0365
1128,0.2134,-0.0773,-0.0035,0.68,-1.47,-0.12,0.199,-6.569,-4.330,-2.559,-0.0636,0.0359
1138,0.2164,-0.0791,-0.0051,0.65,-1.42,-0.15,0.199,-4.797,-4.636,-3.077,-0.0619,0.0350
1149,0.2158,-0.0797,-0.0064,0.57,-1.34,-0.18,0.199,-7.156,-5.925,-1.611,-0.0597,0.0341
1158,0.2204,-0.0850,-0.0207,0.55,-1.32,-0.19,0.199,-4.002,-6.757,-1.822,-0.0569,0.0325
1168,0.2177,-0.0814,-0.0208,0.46,-1.24,-0.23,0.199,-1.161,-7.961,-1.770,-0.0547,0.0316
1178,0.2201,-0.0828,-0.0211,0.42,-1.19,-0.26,0.203,-1.094,-9.150,-1.700,-0.0524,0.0325
1189,0.2237,-0.0858,-0.0217,0.36,-1.14,-0.27,0.203,1.573,-6.278,-1.615,-0.0501,0.0317
1198,0.2216,-0.0834,-0.0178,0.30,-1.05,-0.29,0.203,-1.215,-9.238,-1.358,-0.0496,0.0291
1209,0.2274,-0.0811,-0.0178,0.26,-1.00,-0.32,0.203,2.877,-7.197,-0.940,-0.0457,0.0292
1218,0.2237,-0.0872,-0.0166,0.28,-0.88,-0.31,0.203,0.370,-7.404,-1.058,-0.0447,0.0291
1228,0.2304,-0.0848,-0.0159,0.28,-0.85,-0.34,0.202,-0.165,-8.055,-1.266,-0.0411,0.0268
1238,0.2275,-0.0828,-0.0144,0.25,-0.74,-0.36,0.202,-1.654,-7.493,-0.746,-0.0403,0.0260
1248,0.2327,-0.0876,-0.0139,0.31,-0.69,-0.36,0.202,0.327,-4.769,-0.264,-0.0380,0.0253
1258,0.2294,-0.0880,-0.0102,0.32,-0.58,-0.37,0.202,1.555,-6.102,-0.664,-0.0353,0.0252
1268,0.2315,-0.0882,-0.0089,0.31,-0.51,-0.38,0.202,-0.967,-7.169,-0.582,-0.0344,0.0236
1278,0.2310,-0.0886,-0.0072,0.29,-0.42,-0.38,0.200,-2.839,-6.631,-0.365,-0.0309,0.0228
1288,0.2330,-0.0864,-0.0057,0.27,-0.37,-0.40,0.200,2.228,-4.325,-0.472,-0.0299,0.0237
1298,0.2290,-0.0894,-0.0068,0.30,-0.28,-0.39,0.200,0.666,-5.073,-0.173,-0.0262,0.0219
1308,0.2334,-0.0894,-0.0055,0.29,-0.23,-0.40,0.200,1.158,-2.405,0.041,-0.0247,0.0219
1318,0.2298,-0.0844,-0.0038,0.22,-0.15,-0.41,0.200,-1.303,-5.369,-0.098,-0.0224,0.0198
1328,0.2342,-0.0877,-0.0030,0.25,-0.13,-0.42,0.200,2.441,-2.890,-0.496,-0.0209,0.0199
1338,0.2319,-0.0854,-0.0010,0.24,-0.07,-0.42,0.200,2.782,-2.601,0.131,-0.0185,0.0184
1348,0.2320,-0.0897,0.0000,0.28,-0.04,-0.42,0.200,-0.197,-4.220,0.396,-0.0175,0.0176
1358,0.2294,-0.0873,0.0002,0.25,0.03,-0.42,0.200,1.206,-4.132,-1.445,-0.0161,0.0167
1368,0.2297,-0.0895,0.0016,0.28,0.06,-0.42,0.200,-0.629,-3.466,-0.919,-0.0142,0.0159
1379,0.2256,-0.0897,0.0031,0.31,0.11,-0.41,0.202,0.966,-1.551,-0.409,-0.0130,0.0150
1388,0.2230,-0.0903,0.0042,0.32,0.17,-0.41,0.202,0.008,-2.934,-0.258,-0.0101,0.0142
1399,0.2219,-0.0905,0.0084,0.32,0.22,-0.42,0.202,-0.368,-3.034,-0.870,-0.0090,0.0143
1408,0.2182,-0.0910,0.0096,0.31,0.27,-0.42,0.202,-2.444,-2.055,-0.544,-0.0075,0.0135
1418,0.2198,-0.0913,0.0103,0.32,0.27,-0.43,0.202,3.590,-2.628,-0.883,-0.0064,0.0126
1428,0.2158,-0.0887,0.0115,0.29,0.33,-0.43,0.204,-0.929,-1.506,-0.576,-0.0029,0.0107
1438,0.2134,-0.0888,0.0126,0.28,0.37,-0.44,0.204,0.075,-4.476,-1.589,-0.0018,0.0103
1448,0.2097,-0.0895,0.0140,0.27,0.41,-0.44,0.204,-0.136,-3.310,-1.171,0.0010,0.0086
1458,0.2132,-0.0927,0.0192,0.31,0.41,-0.45,0.204,-3.963,-4.347,-0.601,0.0016,0.0106
1468,0.2093,-0.0917,0.0203,0.30,0.45,-0.46,0.204,0.204,-2.874,-0.236,0.0040,0.0069
1478,0.2107,-0.0947,0.0208,0.32,0.48,-0.47,0.204,-3.346,-3.737,-0.575,0.0051,0.0066
1488,0.2054,-0.0865,0.0222,0.25,0.54,-0.48,0.204,1.560,-1.841,-0.913,0.0067,0.0066
1498,0.2056,-0.0951,0.0232,0.28,0.57,-0.49,0.204,-0.627,-2.364,-0.443,0.0079,0.0067
1508,0.2018,-0.0936,0.0239,0.27,0.62,-0.49,0.204,0.654,-1.660,-0.876,0.0095,0.0048
1517,0.1993,-0.0913,0.0242,0.23,0.66,-0.49,0.204,1.440,-1.084,-0.369,0.0111,0.0044
1528,0.1958,-0.0888,0.0247,0.22,0.70,-0.50,0.207,2.472,-1.425,-0.703,0.0133,0.0043
1538,0.1936,-0.0920,0.0250,0.24,0.72,-0.51,0.207,1.909,-1.643,-0.868,0.0140,0.0051
1548,0.1916,-0.0911,0.0255,0.24,0.74,-0.51,0.207,0.985,-1.734,-0.303,0.0163,0.0022
1558,0.1910,-0.0890,0.0297,0.25,0.75,-0.52,0.207,1.393,-1.532,-0.616,0.0175,0.0022
1568,0.1862,-0.0843,0.0306,0.24,0.78,-0.52,0.207,0.253,-1.118,-1.058,0.0183,0.0036
1578,0.1854,-0.0905,0.0308,0.32,0.79,-0.53,0.207,-1.087,-1.325,-0.682,0.0199,0.0013
1588,0.1821,-0.0885,0.0312,0.32,0.81,-0.54,0.207,1.392,-1.326,-1.579,0.0202,0.0037
1598,0.1775,-0.0820,0.0308,0.28,0.85,-0.55,0.207,-1.126,-0.963,-0.630,0.0219,-0.0009
1608,0.1758,-0.0868,0.0309,0.31,0.86,-0.55,0.207,-2.658,-1.238,-0.430,0.0236,-0.0018
1618,0.1700,-0.0776,0.0315,0.24,0.90,-0.56,0.207,-2.748,-0.387,-0.442,0.0243,-0.0015
1628,0.1683,-0.0894,0.0311,0.32,0.92,-0.57,0.207,-1.093,1.218,-0.141,0.0269,-0.0013
1638,0.1640,-0.0867,0.0314,0.29,0.95,-0.58,0.207,3.727,1.127,-1.143,0.0278,-0.0028
1648,0.1654,-0.0841,0.0316,0.24,0.94,-0.58,0.207,1.945,1.442,-0.813,0.0294,-0.0037
1658,0.1612,-0.0816,0.0269,0.20,0.96,-0.59,0.207,-1.481,1.274,0.583,0.0302,-0.0047
1668,0.1600,-0.0866,0.0269,0.23,0.94,-0.59,0.207,1.614,1.771,-0.648,0.0305,-0.0023
1678,0.1563,-0.0874,0.0270,0.27,0.95,-0.60,0.210,0.905,3.049,-0.504,0.0319,-0.0041
1688,0.1540,-0.0820,0.0271,0.24,0.94,-0.61,0.210,-1.716,1.568,-0.330,0.0328,-0.0026
1698,0.1492,-0.0788,0.0284,0.22,0.95,-0.60,0.210,-1.869,1.857,-0.314,0.0341,-0.0053
1708,0.1473,-0.0823,0.0282,0.25,0.93,-0.61,0.210,2.558,1.730,-1.552,0.0350,-0.0086
1717,0.1441,-0.0758,0.0285,0.20,0.91,-0.61,0.210,-3.670,1.428,0.021,0.0364,-0.0084
1728,0.1422,-0.0818,0.0285,0.22,0.90,-0.62,0.211,0.265,1.388,-0.549,0.0368,-0.0108
1738,0.1391,-0.0895,0.0283,0.26,0.89,-0.62,0.211,-4.729,1.105,0.436,0.0372,-0.0110
1747,0.1376,-0.0867,0.0284,0.25,0.87,-0.63,0.211,-1.671,0.304,0.404,0.0381,-0.0109
1758,0.1332,-0.0913,0.0275,0.25,0.87,-0.63,0.211,-0.308,1.357,-0.336,0.0400,-0.0109
1768,0.1291,-0.0898,0.0275,0.23,0.87,-0.64,0.211,-1.497,1.900,0.601,0.0400,-0.0103
1777,0.1265,-0.0873,0.0276,0.18,0.86,-0.63,0.209,1.454,2.476,-0.458,0.0405,-0.0060
1788,0.1268,-0.0850,0.0272,0.15,0.84,-0.63,0.209,-1.013,0.901,0.167,0.0416,-0.0067
1798,0.1216,-0.0808,0.0201,0.11,0.84,-0.62,0.209,-0.951,3.087,-0.169,0.0431,-0.0116
1808,0.1182,-0.0663,0.0203,0.01,0.84,-0.61,0.209,-0.667,3.653,-0.176,0.0441,-0.0114
1818,0.1167,-0.0663,0.0202,0.01,0.81,-0.61,0.209,-1.435,4.863,-0.006,0.0442,-0.0098
1827,0.1161,-0.0786,0.0199,0.09,0.79,-0.62,0.211,-4.139,3.365,1.069,0.0446,-0.0096
1838,0.1144,-0.0760,0.0196,0.06,0.76,-0.62,0.211,2.385,2.511,-0.440,0.0451,-0.0130
1848,0.1101,-0.0692,0.0194,0.00,0.74,-0.62,0.211,-1.860,0.717,0.161,0.0460,-0.0128
1857,0.1070,-0.0665,0.0161,-0.03,0.71,-0.62,0.211,2.295,1.342,-0.504,0.0460,-0.0114
1868,0.1040,-0.0744,0.0155,-0.00,0.69,-0.62,0.211,-0.696,-1.279,0.091,0.0469,-0.0128
1877,0.1024,-0.0718,0.0155,-0.01,0.67,-0.61,0.212,1.899,-0.105,0.124,0.0477,-0.0158
1888,0.0984,-0.0655,0.0157,-0.07,0.68,-0.61,0.212,2.309,0.098,0.029,0.0477,-0.0113
1898,0.0968,-0.0676,0.0146,-0.04,0.66,-0.61,0.212,-0.264,-1.058,0.775,0.0480,-0.0102
1907,0.0955,-0.0741,0.0139,-0.00,0.67,-0.62,0.212,-2.450,-1.670,1.321,0.0493,-0.0131
1918,0.0914,-0.0591,0.0140,-0.10,0.69,-0.60,0.212,0.558,-2.509,0.002,0.0501,-0.0130
1928,0.0886,-0.0541,0.0137,-0.11,0.71,-0.59,0.205,-4.198,-2.341,1.109,0.0508,-0.0126
1938,0.0885,-0.0605,0.0135,-0.07,0.71,-0.59,0.205,-0.767,-0.511,0.694,0.0506,-0.0130
1948,0.0871,-0.0583,0.0133,-0.11,0.74,-0.58,0.205,-3.710,-0.847,2.140,0.0515,-0.0148
1958,0.0853,-0.0554,-0.0054,-0.13,0.76,-0.57,0.205,-2.198,-0.782,2.341,0.0523,-0.0153
1967,0.0811,-0.0547,-0.0054,-0.17,0.80,-0.56,0.205,-2.849,-0.210,2.732,0.0542,-0.0213
1977,0.0798,-0.0579,-0.0051,-0.16,0.81,-0.55,0.210,-0.236,-0.381,2.206,0.0540,-0.0217
1987,0.0785,-0.0576,-0.0051,-0.19,0.82,-0.53,0.210,-0.817,1.308,3.074,0.0545,-0.0211
1997,0.0800,-0.0729,-0.0043,-0.11,0.81,-0.52,0.210,0.172,0.409,2.396,0.0544,-0.0200
2007,0.0759,-0.0717,-0.0041,-0.13,0.83,-0.49,0.210,-0.597,-0.091,3.233,0.0548,-0.0204
2018,0.0736,-0.0675,-0.0036,-0.15,0.84,-0.47,0.210,0.072,0.337,2.705,0.0557,-0.0233
2028,0.0698,-0.0619,-0.0029,-0.18,0.84,-0.44,0.209,-0.864,1.529,2.685,0.0557,-0.0161
2037,0.0674,-0.0610,-0.0024,-0.18,0.84,-0.41,0.209,-1.044,0.838,2.616,0.0556,-0.0180
2047,0.0667,-0.0675,-0.0020,-0.15,0.84,-0.38,0.209,-1.251,0.269,2.541,0.0565,-0.0228
2057,0.0633,-0.0442,-0.0022,-0.30,0.84,-0.33,0.209,-1.842,0.156,2.841,0.0574,-0.0287
2067,0.0599,-0.0478,-0.0015,-0.28,0.84,-0.31,0.209,-1.281,0.172,2.364,0.0580,-0.0295
2078,0.0594,-0.0601,-0.0010,-0.21,0.83,-0.30,0.210,-1.517,0.698,2.100,0.0584,-0.0293
2087,0.0588,-0.0751,-0.0009,-0.13,0.81,-0.29,0.210,-1.072,0.852,3.220,0.0583,-0.0306
2097,0.0570,-0.0723,0.0016,-0.16,0.81,-0.26,0.210,-1.099,-0.547,2.472,0.0589,-0.0314
2107,0.0538,-0.0738,0.0024,-0.16,0.82,-0.24,0.210,-1.522,-0.944,2.117,0.0587,-0.0295
2117,0.0524,-0.0735,0.0032,-0.17,0.81,-0.21,0.210,-0.761,0.593,2.259,0.0597,-0.0352
2128,0.0510,-0.0732,0.0041,-0.19,0.81,-0.18,0.206,-3.690,1.083,2.639,0.0602,-0.0369
2138,0.0477,-0.0653,0.0051,-0.25,0.82,-0.15,0.206,-3.047,0.492,2.636,0.0606,-0.0372
2147,0.0478,-0.0794,0.0054,-0.17,0.81,-0.14,0.206,-3.580,0.927,2.519,0.0606,-0.0384
2158,0.0464,-0.0819,-0.0026,-0.17,0.81,-0.12,0.206,-4.483,-0.036,2.033,0.0610,-0.0392
2168,0.0450,-0.0799,-0.0016,-0.21,0.80,-0.09,0.206,-3.756,0.278,1.508,0.0609,-0.0383
2178,0.0421,-0.0809,-0.0009,-0.24,0.81,-0.07,0.209,-2.756,-0.291,0.804,0.0613,-0.0401
2187,0.0407,-0.0805,-0.0004,-0.27,0.81,-0.05,0.209,-3.984,0.095,1.188,0.0613,-0.0408
2198,0.0379,-0.0751,0.0022,-0.34,0.81,-0.02,0.209,-3.658,0.767,1.255,0.0613,-0.0443
2208,0.0367,-0.0776,0.0025,-0.35,0.80,-0.01,0.209,-2.137,1.196,0.971,0.0616,-0.0451
2217,0.0342,-0.0767,0.0033,-0.38,0.80,0.00,0.209,-2.673,0.528,0.743,0.0621,-0.0486
2227,0.0318,-0.0837,0.0041,-0.37,0.79,0.00,0.204,-3.346,0.037,0.569,0.0624,-0.0494
2237,0.0304,-0.0830,0.0050,-0.40,0.78,0.02,0.204,-3.837,0.365,0.819,0.0626,-0.0503
2248,0.0297,-0.0899,0.0061,-0.38,0.76,0.02,0.204,-1.956,1.315,0.339,0.0629,-0.0512
2258,0.0283,-0.0891,-0.0031,-0.40,0.75,0.03,0.204,-1.888,2.064,1.145,0.0623,-0.0513
2268,0.0270,-0.0884,-0.0018,-0.43,0.75,0.03,0.204,-2.119,1.149,0.912,0.0623,-0.0539
2278,0.0257,-0.0877,-0.0007,-0.46,0.73,0.04,0.207,-1.876,1.731,0.995,0.0611,-0.0541
2288,0.0220,-0.0848,0.0004,-0.49,0.74,0.05,0.207,-2.459,0.539,1.562,0.0611,-0.0543
2297,0.0201,-0.0889,0.0020,-0.48,0.72,0.05,0.207,-1.939,-0.328,0.821,0.0617,-0.0550
2307,0.0150,-0.0860,0.0031,-0.51,0.73,0.06,0.207,-0.791,0.159,0.583,0.0610,-0.0553
2317,0.0133,-0.0833,0.0042,-0.54,0.72,0.07,0.207,-2.218,0.082,0.651,0.0610,-0.0554
2327,0.0133,-0.0822,0.0053,-0.56,0.71,0.08,0.211,-4.038,0.045,1.073,0.0610,-0.0585
2337,0.0099,-0.0795,0.0067,-0.59,0.72,0.10,0.211,-3.132,0.321,1.104,0.0610,-0.0564
2347,0.0083,-0.0768,0.0082,-0.62,0.73,0.10,0.211,-3.089,0.235,1.248,0.0610,-0.0595
2358,0.0068,-0.0822,0.0182,-0.61,0.73,0.10,0.211,-2.797,-0.535,0.993,0.0610,-0.0619
2368,0.0053,-0.0729,0.0195,-0.70,0.73,0.12,0.211,-2.504,-0.044,0.700,0.0610,-0.0627
2378,0.0040,-0.0782,0.0206,-0.69,0.73,0.13,0.212,-1.723,0.944,0.803,0.0611,-0.0635
2388,0.0026,-0.0817,0.0217,-0.69,0.72,0.13,0.212,-3.174,0.692,1.624,0.0610,-0.0643
2397,0.0013,-0.0806,0.0279,-0.71,0.72,0.14,0.212,-2.541,1.116,1.718,0.0610,-0.0651
2407,0.0001,-0.0793,0.0292,-0.74,0.72,0.15,0.212,-1.960,0.809,1.525,0.0587,-0.0642
2417,-0.0011,-0.0781,0.0301,-0.77,0.72,0.16,0.212,-2.903,0.175,1.488,0.0605,-0.0703
2428,-0.0025,-0.0766,0.0309,-0.80,0.70,0.18,0.212,-2.374,0.096,1.127,0.0600,-0.0711
2437,-0.0103,-0.0703,0.0317,-0.86,0.73,0.19,0.212,-2.323,0.902,1.092,0.0601,-0.0713
2447,-0.0059,-0.0843,0.0321,-0.78,0.69,0.20,0.212,-1.392,1.080,1.401,0.0601,-0.0721
2457,-0.0085,-0.0828,0.0327,-0.81,0.70,0.21,0.212,-2.342,2.336,1.341,0.0600,-0.0729
2467,-0.0092,-0.0796,0.0333,-0.85,0.69,0.23,0.212,-4.415,1.457,1.077,0.0601,-0.0747
2477,-0.0099,-0.0783,0.0337,-0.88,0.68,0.24,0.216,-4.106,2.578,1.071,0.0586,-0.0726
2487,-0.0111,-0.0768,0.0339,-0.90,0.67,0.25,0.216,-4.951,0.607,1.646,0.0584,-0.0732
2497,-0.0116,-0.0783,0.0393,-0.92,0.65,0.26,0.216,-3.220,0.615,0.898,0.0582,-0.0739
2507,-0.0169,-0.0684,0.0398,-1.01,0.66,0.28,0.216,-2.014,-1.092,-0.570,0.0583,-0.0796
2517,-0.0180,-0.0667,0.0401,-1.04,0.63,0.29,0.216,-3.449,-1.026,0.546,0.0583,-0.0798
2528,-0.0183,-0.0788,0.0400,-1.00,0.62,0.29,0.214,-1.399,1.597,0.314,0.0581,-0.0807
2537,-0.0188,-0.0756,0.0401,-1.04,0.62,0.30,0.214,-3.063,-0.090,-0.460,0.0570,-0.0803
2548,-0.0209,-0.0722,0.0402,-1.08,0.63,0.30,0.214,-4.295,0.156,-0.253,0.0565,-0.0800
2558,-0.0210,-0.0725,0.0340,-1.10,0.63,0.30,0.214,-6.623,1.653,0.076,0.0561,-0.0794
2567,-0.0245,-0.0675,0.0340,-1.15,0.63,0.30,0.214,-2.140,2.678,-0.665,0.0563,-0.0814
2577,-0.0263,-0.0627,0.0342,-1.19,0.64,0.30,0.220,-3.724,2.407,0.142,0.0559,-0.0823
2587,-0.0279,-0.0575,0.0338,-1.26,0.63,0.30,0.220,-2.485,3.753,-0.629,0.0556,-0.0804
2597,-0.0276,-0.0594,0.0393,-1.28,0.61,0.29,0.220,-1.664,2.709,-0.586,0.0547,-0.0830
2607,-0.0289,-0.0579,0.0388,-1.31,0.58,0.29,0.220,-3.014,1.647,-0.521,0.0543,-0.0835
2616,-0.0300,-0.0488,0.0387,-1.38,0.55,0.29,0.220,-2.936,2.512,-1.240,0.0545,-0.0883
2627,-0.0326,-0.0523,0.0385,-1.37,0.53,0.27,0.222,-2.818,1.563,-1.558,0.0547,-0.0926
2637,-0.0335,-0.0500,0.0381,-1.39,0.51,0.27,0.222,-2.753,1.560,-1.645,0.0548,-0.0945
2647,-0.0329,-0.0598,0.0375,-1.33,0.48,0.25,0.222,-2.667,0.047,-1.572,0.0549,-0.0948
2657,-0.0323,-0.0677,0.0406,-1.29,0.44,0.23,0.222,-2.884,-0.027,-1.125,0.0549,-0.0995
2667,-0.0318,-0.0692,0.0403,-1.28,0.42,0.21,0.222,-3.356,-0.038,-1.519,0.0545,-0.1004
2677,-0.0314,-0.0658,0.0400,-1.32,0.41,0.20,0.220,-4.223,-1.147,-2.081,0.0545,-0.1034
2687,-0.0311,-0.0749,0.0394,-1.28,0.40,0.18,0.220,-2.551,0.185,-2.462,0.0535,-0.1004
2697,-0.0321,-0.0731,0.0326,-1.31,0.41,0.17,0.220,-4.338,0.277,-2.288,0.0536,-0.1018
2707,-0.0319,-0.0773,0.0323,-1.30,0.41,0.14,0.220,-6.300,0.501,-2.077,0.0531,-0.1015
2717,-0.0345,-0.0646,0.0323,-1.42,0.43,0.13,0.220,-6.192,0.752,-2.956,0.0527,-0.1011
2727,-0.0340,-0.0642,0.0321,-1.44,0.42,0.10,0.220,-8.334,0.418,-2.197,0.0506,-0.0980
2737,-0.0351,-0.0591,0.0318,-1.51,0.41,0.09,0.220,-6.476,-0.183,-2.223,0.0502,-0.0983
2747,-0.0361,-0.0539,0.0315,-1.59,0.41,0.06,0.220,-4.967,0.297,-2.580,0.0508,-0.1008
2757,-0.0415,-0.0410,0.0239,-1.71,0.44,0.03,0.220,-3.766,-1.024,-2.724,0.0492,-0.1017
2768,-0.0423,-0.0381,0.0236,-1.78,0.44,0.01,0.220,-3.015,-0.257,-2.759,0.0493,-0.1053
2777,-0.0401,-0.0408,0.0232,-1.81,0.42,-0.01,0.220,-0.977,1.030,-2.185,0.0494,-0.1068
2787,-0.0442,-0.0391,0.0225,-1.84,0.44,-0.04,0.220,-2.224,1.845,-2.391,0.0496,-0.1083
2797,-0.0434,-0.0452,0.0155,-1.82,0.44,-0.07,0.220,-2.034,0.803,-1.601,0.0487,-0.1076
2807,-0.0426,-0.0450,0.0153,-1.83,0.43,-0.09,0.220,-2.274,2.108,-1.404,0.0478,-0.1031
2817,-0.0416,-0.0448,0.0148,-1.83,0.41,-0.12,0.220,-0.858,2.024,-1.313,0.0469,-0.1026
2827,-0.0438,-0.0385,0.0143,-1.87,0.40,-0.14,0.224,1.376,1.319,-1.592,0.0453,-0.1026
2837,-0.0458,-0.0217,0.0141,-1.97,0.40,-0.15,0.224,1.299,0.923,-1.749,0.0459,-0.1053
2847,-0.0477,-0.0161,0.0142,-2.00,0.39,-0.17,0.224,0.296,1.243,-0.894,0.0454,-0.1054
2857,-0.0513,-0.0119,0.0174,-2.01,0.39,-0.19,0.224,-0.073,1.568,-1.487,0.0439,-0.1071
2867,-0.0487,-0.0159,0.0177,-1.95,0.37,-0.20,0.224,-0.461,2.679,-1.444,0.0425,-0.1032
2877,-0.0493,-0.0125,0.0180,-1.95,0.36,-0.22,0.222,-0.141,2.375,-1.624,0.0422,-0.1043
2887,-0.0528,-0.0136,0.0180,-1.92,0.36,-0.23,0.222,-0.442,2.811,-0.757,0.0416,-0.1043
2897,-0.0559,0.0011,0.0131,-1.99,0.36,-0.24,0.222,0.256,1.674,-0.985,0.0402,-0.1048
2907,-0.0559,0.0013,0.0133,-1.97,0.33,-0.26,0.222,1.074,1.983,-0.476,0.0402,-0.1048
2917,-0.0564,0.0047,0.0134,-1.97,0.31,-0.27,0.222,1.765,0.909,-1.218,0.0404,-0.1054
2927,-0.0595,0.0063,0.0135,-1.97,0.31,-0.29,0.224,1.929,1.053,-0.464,0.0389,-0.1055
2937,-0.0577,0.0078,0.0141,-1.96,0.28,-0.29,0.224,1.991,1.186,-1.046,0.0385,-0.0974
2947,-0.0608,0.0106,0.0146,-1.95,0.28,-0.30,0.224,2.479,2.647,-0.568,0.0378,-0.1060
2957,-0.0605,0.0366,0.0149,-2.07,0.26,-0.30,0.224,2.278,2.978,-0.049,0.0378,-0.1060
2966,-0.0589,0.0151,0.0158,-1.90,0.24,-0.31,0.224,2.151,2.172,0.750,0.0364,-0.1061
2977,-0.0600,0.0175,0.0160,-1.88,0.22,-0.33,0.223,3.767,2.174,0.377,0.0341,-0.1081
2987,-0.0626,0.0197,0.0163,-1.86,0.21,-0.33,0.223,3.535,3.297,0.134,0.0341,-0.1081
2996,-0.0636,0.0218,0.0125,-1.83,0.18,-0.33,0.223,2.702,2.810,-0.521,0.0339,-0.1067
3007,-0.0661,0.0191,0.0125,-1.76,0.17,-0.33,0.223,1.592,1.684,-0.534,0.0332,-0.1075
3017,-0.0652,0.0256,0.0127,-1.75,0.13,-0.33,0.223,0.835,0.700,0.377,0.0323,-0.1055
3027,-0.0629,0.0197,0.0133,-1.67,0.09,-0.33,0.221,-0.439,0.123,-0.055,0.0304,-0.1046
3037,-0.0638,0.0278,0.0137,-1.68,0.07,-0.33,0.221,-0.728,1.499,-0.170,0.0305,-0.1089
3047,-0.0646,0.0356,0.0143,-1.70,0.06,-0.33,0.221,-1.290,0.866,-0.521,0.0306,-0.1073
3057,-0.0684,0.0401,0.0067,-1.71,0.07,-0.33,0.221,-2.331,0.925,0.002,0.0287,-0.1057
3067,-0.0662,0.0295,0.0075,-1.63,0.05,-0.33,0.221,-0.500,0.352,-0.112,0.0280,-0.1053
3076,-0.0640,0.0360,0.0080,-1.66,0.03,-0.33,0.224,-0.777,-0.245,0.439,0.0265,-0.1069
3087,-0.0679,0.0425,0.0081,-1.70,0.04,-0.34,0.224,-0.903,-0.207,0.571,0.0261,-0.1021
3097,-0.0679,0.0454,0.0093,-1.72,0.04,-0.34,0.224,0.114,-1.006,0.153,0.0254,-0.1015
3107,-0.0704,0.0423,0.0096,-1.69,0.05,-0.34,0.224,1.384,-1.121,0.715,0.0243,-0.1017
3117,-0.0695,0.0577,0.0102,-1.78,0.04,-0.33,0.224,2.703,0.103,1.021,0.0239,-0.1008
3127,-0.0696,0.0608,0.0111,-1.78,0.04,-0.33,0.223,1.653,1.451,1.819,0.0219,-0.0978
3136,-0.0706,0.0616,0.0116,-1.76,0.06,-0.33,0.223,1.973,0.054,1.664,0.0215,-0.0986
3147,-0.0699,0.0653,0.0119,-1.74,0.07,-0.32,0.223,2.430,1.624,2.158,0.0206,-0.0983
3156,-0.0737,0.0750,0.0093,-1.76,0.09,-0.31,0.223,1.471,1.425,2.284,0.0208,-0.0990
3166,-0.0729,0.0736,0.0099,-1.72,0.07,-0.30,0.223,3.331,1.347,1.946,0.0199,-0.0955
3177,-0.0735,0.0753,0.0104,-1.68,0.07,-0.28,0.220,3.565,-0.044,1.102,0.0195,-0.0959
3187,-0.0710,0.0739,0.0109,-1.64,0.04,-0.26,0.220,2.963,0.930,1.350,0.0186,-0.0930
3197,-0.0715,0.0843,0.0019,-1.67,0.03,-0.23,0.220,4.500,1.623,1.451,0.0177,-0.0933
3206,-0.0706,0.0839,0.0025,-1.62,0.01,-0.22,0.220,3.611,1.903,2.035,0.0168,-0.0942
3216,-0.0711,0.0925,0.0028,-1.62,0.01,-0.20,0.220,4.013,1.380,1.952,0.0165,-0.0950
3226,-0.0717,0.0916,0.0033,-1.56,-0.00,-0.19,0.220,3.800,1.754,1.954,0.0167,-0.1024
3236,-0.0722,0.0891,0.0039,-1.48,-0.01,-0.17,0.220,5.202,1.285,1.596,0.0163,-0.0979
3246,-0.0712,0.0866,0.0046,-1.41,-0.03,-0.15,0.220,3.564,1.608,1.972,0.0154,-0.0972
3256,-0.0684,0.0654,-0.0002,-1.22,-0.06,-0.13,0.220,2.866,1.490,0.991,0.0150,-0.0963
3266,-0.0674,0.0784,-0.0000,-1.26,-0.08,-0.11,0.220,3.472,2.438,1.385,0.0141,-0.0955
3277,-0.0679,0.0805,0.0003,-1.21,-0.10,-0.09,0.220,2.306,1.880,1.497,0.0138,-0.0958
3287,-0.0667,0.0827,0.0009,-1.17,-0.12,-0.08,0.220,0.964,3.204,1.520,0.0132,-0.0950
3296,-0.0671,0.0844,-0.0020,-1.14,-0.14,-0.06,0.220,0.720,3.252,0.727,0.0118,-0.0941
3306,-0.0658,0.0830,-0.0014,-1.09,-0.17,-0.05,0.220,0.490,2.753,0.664,0.0105,-0.0911
3317,-0.0655,0.0849,-0.0008,-1.07,-0.20,-0.03,0.220,-0.662,2.369,-0.319,0.0096,-0.0902
3326,-0.0672,0.0868,-0.0001,-1.06,-0.22,-0.02,0.221,-0.586,1.575,-0.549,0.0089,-0.0892
3336,-0.0689,0.0949,0.0007,-1.09,-0.23,-0.02,0.221,-0.615,1.230,-0.667,0.0075,-0.0883
3347,-0.0689,0.0967,0.0017,-1.09,-0.26,-0.02,0.221,-0.324,1.178,-0.605,0.0075,-0.0883
3356,-0.0685,0.0986,0.0027,-1.09,-0.28,-0.02,0.221,-0.805,2.037,-0.235,0.0077,-0.0879
3366,-0.0701,0.1003,0.0034,-1.10,-0.29,-0.03,0.221,-0.319,0.701,-0.083,0.0074,-0.0881
3376,-0.0671,0.1003,0.0043,-1.10,-0.31,-0.03,0.221,-1.930,-0.302,0.963,0.0046,-0.0806
3387,-0.0656,0.0988,0.0054,-1.08,-0.33,-0.04,0.221,0.689,-0.138,0.191,0.0054,-0.0809
3397,-0.0650,0.1007,0.0059,-1.09,-0.35,-0.04,0.221,0.245,-1.370,-0.028,0.0049,-0.0811
3407,-0.0686,0.1185,0.0061,-1.20,-0.32,-0.04,0.221,2.408,-1.504,0.001,0.0039,-0.0814
3416,-0.0657,0.1196,0.0069,-1.20,-0.33,-0.03,0.221,4.986,-1.435,-0.478,0.0029,-0.0787
3426,-0.0646,0.1175,0.0078,-1.17,-0.33,-0.03,0.225,3.900,-0.846,0.295,0.0019,-0.0768
3436,-0.0652,0.1152,0.0088,-1.13,-0.31,-0.03,0.225,4.838,-0.474,-0.383,0.0019,-0.0746
3446,-0.0657,0.1220,0.0093,-1.13,-0.29,-0.04,0.225,4.728,0.379,0.097,0.0010,-0.0744
3456,-0.0663,0.1258,0.0182,-1.09,-0.27,-0.04,0.225,4.258,0.739,0.507,-0.0000,-0.0732
3466,-0.0637,0.1306,0.0191,-1.07,-0.28,-0.04,0.225,3.927,1.056,0.577,-0.0007,-0.0719
3476,-0.0642,0.1291,0.0200,-1.00,-0.27,-0.04,0.223,3.107,1.230,0.470,-0.0032,-0.0651
3486,-0.0646,0.1306,0.0207,-0.95,-0.27,-0.04,0.223,3.650,1.709,-0.610,-0.0020,-0.0654
3496,-0.0642,0.1321,0.0192,-0.90,-0.27,-0.03,0.223,2.012,1.170,0.793,-0.0029,-0.0657
3506,-0.0692,0.1504,0.0188,-0.96,-0.24,-0.04,0.223,2.018,0.780,0.623,-0.0034,-0.0649
3516,-0.0633,0.1466,0.0193,-0.90,-0.28,-0.04,0.223,3.544,-0.262,0.453,-0.0044,-0.0611
3526,-0.0637,0.1430,0.0199,-0.84,-0.29,-0.03,0.222,-0.237,-0.642,1.501,-0.0058,-0.0593
3536,-0.0626,0.1424,0.0204,-0.80,-0.30,-0.03,0.222,4.714,0.043,0.425,-0.0065,-0.0578
3546,-0.0632,0.1511,0.0206,-0.82,-0.30,-0.02,0.222,2.412,0.980,1.252,-0.0074,-0.0571
3556,-0.0652,0.1533,0.0156,-0.80,-0.29,-0.02,0.222,5.463,1.050,0.603,-0.0078,-0.0564
3566,-0.0647,0.1547,0.0159,-0.78,-0.29,-0.01,0.222,5.109,2.372,0.567,-0.0087,-0.0532
3576,-0.0650,0.1534,0.0158,-0.71,-0.29,-0.00,0.223,2.712,2.297,0.860,-0.0090,-0.0525
3586,-0.0638,0.1521,0.0158,-0.66,-0.30,0.01,0.223,0.994,2.840,1.103,-0.0093,-0.0512
3596,-0.0639,0.1582,0.0129,-0.64,-0.31,0.01,0.223,3.321,2.978,0.030,-0.0106,-0.0499
3606,-0.0624,0.1567,0.0127,-0.59,-0.34,0.02,0.223,6.953,2.625,-0.041,-0.0110,-0.0504
3616,-0.0608,0.1570,0.0126,-0.58,-0.37,0.03,0.223,2.730,2.315,-0.243,-0.0108,-0.0472
3627,-0.0624,0.1571,0.0126,-0.56,-0.38,0.04,0.226,0.839,2.472,0.155,-0.0116,-0.0458
3637,-0.0609,0.1519,0.0130,-0.46,-0.42,0.04,0.226,2.622,3.875,-0.113,-0.0119,-0.0445
3647,-0.0578,0.1578,0.0130,-0.43,-0.46,0.03,0.226,0.832,2.173,0.030,-0.0128,-0.0422
3656,-0.0578,0.1579,0.0168,-0.41,-0.49,0.03,0.226,-0.463,0.081,-0.829,-0.0134,-0.0406
3667,-0.0561,0.1578,0.0167,-0.41,-0.52,0.04,0.226,1.757,1.812,-0.592,-0.0143,-0.0383
3676,-0.0562,0.1609,0.0162,-0.41,-0.54,0.03,0.224,3.319,-0.049,-1.620,-0.0143,-0.0371
3687,-0.0553,0.1616,0.0158,-0.42,-0.55,0.03,0.224,2.544,0.322,-0.871,-0.0158,-0.0367
3697,-0.0553,0.1640,0.0115,-0.40,-0.56,0.02,0.224,7.049,-0.138,-1.706,-0.0158,-0.0361
3706,-0.0525,0.1637,0.0115,-0.38,-0.58,0.01,0.224,3.593,0.009,-1.246,-0.0167,-0.0365
3716,-0.0545,0.1600,0.0114,-0.32,-0.56,-0.00,0.224,2.629,0.470,-1.825,-0.0172,-0.0331
3727,-0.0517,0.1575,0.0112,-0.26,-0.57,-0.01,0.227,1.887,-0.516,-1.719,-0.0172,-0.0322
3736,-0.0521,0.1522,0.0108,-0.18,-0.56,-0.02,0.227,0.399,0.243,-1.676,-0.0182,-0.0315
3747,-0.0510,0.1580,0.0100,-0.19,-0.55,-0.04,0.227,3.220,-0.874,-3.142,-0.0187,-0.0299
3756,-0.0485,0.1562,0.0128,-0.15,-0.56,-0.06,0.227,0.003,-0.413,-2.126,-0.0187,-0.0286
3767,-0.0491,0.1541,0.0127,-0.11,-0.54,-0.08,0.227,2.421,0.051,-3.333,-0.0197,-0.0283
3776,-0.0467,0.1534,0.0127,-0.09,-0.54,-0.10,0.230,3.477,1.003,-2.268,-0.0197,-0.0290
3786,-0.0474,0.1501,0.0126,-0.04,-0.54,-0.12,0.230,-0.009,1.447,-2.510,-0.0206,-0.0241
3797,-0.0450,0.1436,0.0195,0.01,-0.55,-0.15,0.230,0.876,0.611,-3.341,-0.0205,-0.0227
3806,-0.0454,0.1538,0.0189,-0.04,-0.55,-0.18,0.230,0.557,1.244,-3.645,-0.0214,-0.0229
3816,-0.0428,0.1535,0.0185,-0.02,-0.57,-0.20,0.230,2.459,2.604,-3.680,-0.0223,-0.0206
3826,-0.0434,0.1546,0.0183,-0.03,-0.57,-0.24,0.230,1.631,0.603,-3.485,-0.0227,-0.0187
3836,-0.0424,0.1482,0.0183,0.02,-0.58,-0.26,0.230,2.115,4.077,-3.717,-0.0235,-0.0174
3847,-0.0427,0.1508,0.0181,0.02,-0.59,-0.30,0.230,3.217,3.539,-3.547,-0.0234,-0.0156
3856,-0.0417,0.1518,0.0198,0.04,-0.60,-0.34,0.230,-0.010,3.357,-2.847,-0.0242,-0.0132
3866,-0.0419,0.1512,0.0194,0.06,-0.62,-0.37,0.230,1.334,-0.749,-3.287,-0.0247,-0.0113
3876,-0.0390,0.1520,0.0190,0.08,-0.67,-0.41,0.226,0.645,1.094,-2.799,-0.0256,-0.0110
3885,-0.0392,0.1545,0.0185,0.08,-0.70,-0.44,0.226,2.447,-2.524,-3.089,-0.0260,-0.0095
3896,-0.0383,0.1550,0.0081,0.08,-0.70,-0.47,0.226,3.286,-0.530,-3.678,-0.0270,-0.0086
3906,-0.0387,0.1514,0.0074,0.12,-0.69,-0.50,0.226,2.293,-1.570,-3.976,-0.0275,-0.0089
3916,-0.0375,0.1512,0.0067,0.13,-0.70,-0.53,0.226,3.766,0.038,-3.564,-0.0275,-0.0051
3926,-0.0382,0.1489,0.0062,0.17,-0.67,-0.56,0.224,3.729,1.094,-3.399,-0.0279,-0.0035
3936,-0.0376,0.1434,0.0061,0.23,-0.65,-0.60,0.224,2.560,-0.507,-3.541,-0.0279,-0.0042
3946,-0.0352,0.1501,0.0054,0.22,-0.66,-0.64,0.224,2.279,-2.472,-3.480,-0.0285,-0.0019
3956,-0.0342,0.1502,-0.0057,0.25,-0.67,-0.67,0.224,3.551,-0.789,-3.974,-0.0290,-0.0011
3966,-0.0320,0.1430,-0.0059,0.32,-0.67,-0.70,0.224,4.514,1.513,-3.809,-0.0299,-0.0003
3976,-0.0317,0.1451,-0.0062,0.33,-0.64,-0.74,0.226,3.680,2.052,-3.747,-0.0298,0.0014
3986,-0.0312,0.1424,-0.0065,0.37,-0.63,-0.77,0.226,4.283,1.874,-4.237,-0.0306,0.0032
3996,-0.0320,0.1397,-0.0082,0.43,-0.62,-0.81,0.226,4.897,2.987,-3.254,-0.0304,0.0040
4006,-0.0295,0.1400,-0.0085,0.46,-0.66,-0.84,0.226,3.614,3.556,-3.279,-0.0318,0.0057
4016,-0.0300,0.1403,-0.0085,0.48,-0.68,-0.88,0.226,4.717,0.473,-3.673,-0.0322,0.0050
4026,-0.0274,0.1376,-0.0084,0.52,-0.71,-0.91,0.228,6.740,1.590,-4.174,-0.0326,0.0052
4036,-0.0294,0.1377,-0.0080,0.57,-0.72,-0.95,0.228,2.173,2.469,-3.612,-0.0325,0.0075
4046,-0.0286,0.1303,-0.0072,0.64,-0.74,-0.98,0.228,5.899,2.269,-3.738,-0.0323,0.0101
4056,-0.0278,0.1258,-0.0023,0.73,-0.75,-1.01,0.228,-0.172,1.694,-3.028,-0.0328,0.0101
4066,-0.0252,0.1278,-0.0017,0.74,-0.78,-1.05,0.228,1.173,1.974,-2.830,-0.0337,0.0110
4076,-0.0226,0.1306,-0.0011,0.77,-0.81,-1.10,0.223,4.002,1.962,-3.449,-0.0342,0.0108
4086,-0.0220,0.1250,-0.0005,0.82,-0.81,-1.13,0.223,1.992,0.779,-2.899,-0.0352,0.0097
4096,-0.0228,0.1223,-0.0082,0.83,-0.81,-1.15,0.223,-1.595,0.738,-2.473,-0.0351,0.0126
4106,-0.0220,0.1166,-0.0079,0.88,-0.83,-1.18,0.223,-3.265,0.882,-1.721,-0.0355,0.0146
4116,-0.0230,0.1080,-0.0071,0.95,-0.83,-1.21,0.223,-6.508,2.231,-0.482,-0.0357,0.0159
4126,-0.0206,0.1120,-0.0066,0.91,-0.84,-1.24,0.224,-5.516,0.435,-0.637,-0.0357,0.0185
4136,-0.0198,0.1131,-0.0060,0.86,-0.84,-1.26,0.224,-4.047,1.326,0.065,-0.0366,0.0175
4146,-0.0184,0.1116,-0.0055,0.80,-0.85,-1.26,0.224,-3.007,-0.154,0.219,-0.0371,0.0176
4156,-0.0161,0.1148,-0.0068,0.73,-0.86,-1.28,0.224,-0.067,-0.310,0.409,-0.0376,0.0191
4166,-0.0171,0.1069,-0.0059,0.74,-0.86,-1.28,0.224,1.006,0.067,0.657,-0.0378,0.0201
4177,-0.0166,0.1026,-0.0051,0.72,-0.85,-1.27,0.224,3.077,-2.694,0.685,-0.0379,0.0210
4186,-0.0162,0.1027,-0.0044,0.70,-0.84,-1.27,0.224,4.325,-0.488,0.697,-0.0380,0.0220
4196,-0.0148,0.1014,-0.0043,0.70,-0.85,-1.26,0.224,4.381,0.186,1.227,-0.0385,0.0212
4205,-0.0131,0.0997,-0.0035,0.71,-0.83,-1.25,0.224,6.363,-0.026,1.322,-0.0390,0.0220
4216,-0.0129,0.0930,-0.0024,0.78,-0.82,-1.24,0.224,6.502,-0.646,0.976,-0.0390,0.0205
4226,-0.0127,0.0911,-0.0015,0.81,-0.80,-1.23,0.221,0.641,2.008,2.036,-0.0390,0.0243
4235,-0.0110,0.0826,-0.0006,0.91,-0.81,-1.21,0.221,4.327,1.887,0.778,-0.0388,0.0262
4246,-0.0090,0.0901,-0.0001,0.90,-0.82,-1.20,0.221,4.482,1.860,1.427,-0.0393,0.0259
4256,-0.0070,0.0915,-0.0066,0.92,-0.83,-1.18,0.221,0.750,2.063,1.906,-0.0397,0.0284
4266,-0.0056,0.0899,-0.0060,0.94,-0.85,-1.17,0.221,-2.405,1.493,2.108,-0.0406,0.0274
4276,-0.0055,0.0845,-0.0053,1.01,-0.85,-1.15,0.222,-6.742,2.027,2.483,-0.0405,0.0291
4286,-0.0050,0.0877,-0.0051,1.00,-0.87,-1.14,0.222,-6.266,4.100,2.705,-0.0404,0.0288
4296,-0.0064,0.0801,-0.0061,1.03,-0.87,-1.11,0.222,-4.013,2.946,2.739,-0.0408,0.0279
4306,-0.0044,0.0811,-0.0059,0.96,-0.89,-1.09,0.222,-4.927,0.734,3.674,-0.0408,0.0286
4315,-0.0022,0.0759,-0.0053,0.91,-0.93,-1.06,0.222,-1.640,2.359,3.842,-0.0412,0.0296
4326,-0.0017,0.0692,-0.0043,0.91,-0.96,-1.03,0.227,-4.588,0.428,4.545,-0.0416,0.0298
4336,-0.0001,0.0676,-0.0034,0.86,-0.97,-0.99,0.227,-0.664,-2.606,3.603,-0.0417,0.0303
4346,0.0004,0.0672,-0.0025,0.83,-0.99,-0.95,0.227,1.002,-3.994,3.874,-0.0418,0.0328
4356,0.0007,0.0641,0.0097,0.80,-0.98,-0.91,0.227,0.160,-4.238,4.075,-0.0419,0.0338
4366,0.0021,0.0622,0.0108,0.79,-0.97,-0.87,0.227,1.805,-3.170,4.530,-0.0421,0.0352
4376,0.0035,0.0667,0.0117,0.75,-0.93,-0.83,0.223,2.878,-2.534,4.681,-0.0420,0.0358
4386,0.0046,0.0663,0.0125,0.74,-0.90,-0.79,0.223,6.032,-3.268,3.658,-0.0420,0.0365
4396,0.0054,0.0672,0.0096,0.75,-0.85,-0.76,0.223,3.315,0.217,4.026,-0.0419,0.0372
4405,0.0069,0.0658,0.0103,0.78,-0.83,-0.71,0.223,1.574,0.799,4.416,-0.0424,0.0370
4415,0.0083,0.0645,0.0106,0.83,-0.80,-0.67,0.223,2.657,2.198,4.637,-0.0423,0.0374
4426,0.0096,0.0631,0.0111,0.86,-0.79,-0.63,0.223,2.161,2.914,4.615,-0.0421,0.0421
4435,0.0091,0.0592,0.0117,0.91,-0.78,-0.59,0.223,0.225,3.102,5.225,-0.0420,0.0428
4446,0.0106,0.0568,0.0123,0.93,-0.80,-0.54,0.223,-0.621,2.108,5.327,-0.0425,0.0427
4456,0.0122,0.0680,0.0094,0.86,-0.82,-0.50,0.223,-0.186,3.236,5.405,-0.0423,0.0434
4466,0.0136,0.0665,0.0097,0.86,-0.85,-0.45,0.223,-3.128,2.564,5.539,-0.0422,0.0457
4476,0.0132,0.0628,0.0103,0.87,-0.87,-0.40,0.225,-0.350,1.068,5.406,-0.0422,0.0450
4486,0.0147,0.0613,0.0107,0.86,-0.90,-0.34,0.225,0.771,-0.156,4.931,-0.0422,0.0454
4495,0.0163,0.0650,0.0125,0.81,-0.92,-0.29,0.225,0.898,-0.268,5.645,-0.0423,0.0459
4505,0.0173,0.0594,0.0130,0.83,-0.92,-0.23,0.225,-0.975,-1.875,5.310,-0.0429,0.0459
4516,0.0184,0.0575,0.0134,0.82,-0.93,-0.18,0.225,0.886,-0.209,5.410,-0.0428,0.0465
4525,0.0193,0.0558,0.0137,0.81,-0.93,-0.12,0.226,1.245,-1.864,5.668,-0.0426,0.0470
4536,0.0184,0.0527,0.0141,0.81,-0.90,-0.06,0.226,0.280,-2.160,5.939,-0.0423,0.0475
4546,0.0199,0.0513,0.0143,0.82,-0.90,-0.01,0.226,2.500,-1.154,6.119,-0.0421,0.0480
4555,0.0216,0.0498,0.0158,0.83,-0.89,0.05,0.226,1.870,-2.161,5.533,-0.0419,0.0485
4565,0.0232,0.0484,0.0159,0.84,-0.87,0.11,0.226,2.044,-0.633,5.112,-0.0416,0.0490
4576,0.0246,0.0469,0.0159,0.86,-0.85,0.17,0.222,2.265,-0.017,5.151,-0.0414,0.0494
4586,0.0261,0.0455,0.0160,0.88,-0.84,0.23,0.222,2.749,-0.003,5.125,-0.0416,0.0511
4595,0.0274,0.0440,0.0067,0.90,-0.83,0.28,0.222,1.106,0.283,5.639,-0.0417,0.0516
4606,0.0289,0.0425,0.0068,0.93,-0.82,0.33,0.222,0.266,1.044,5.790,-0.0414,0.0520
4616,0.0289,0.0447,0.0068,0.92,-0.81,0.38,0.222,0.802,1.037,5.745,-0.0411,0.0524
4625,0.0291,0.0430,0.0071,0.94,-0.81,0.44,0.224,0.635,3.157,5.935,-0.0412,0.0500
4635,0.0305,0.0414,0.0074,0.94,-0.81,0.50,0.224,-1.336,0.685,5.701,-0.0412,0.0512
4645,0.0293,0.0334,0.0074,0.99,-0.81,0.50,0.224,0.498,0.768,5.587,-0.0413,0.0518
4655,0.0299,0.0342,0.0053,0.98,-0.81,0.56,0.224,-0.569,0.619,5.993,-0.0410,0.0521
4665,0.0301,0.0334,0.0054,0.98,-0.82,0.62,0.224,-0.771,-0.712,5.773,-0.0411,0.0498
4675,0.0315,0.0317,0.0059,0.98,-0.83,0.67,0.223,-0.522,-0.930,5.723,-0.0408,0.0500
4685,0.0318,0.0228,0.0063,1.03,-0.84,0.73,0.223,-0.948,-2.165,4.803,-0.0404,0.0507
4695,0.0332,0.0211,0.0026,1.02,-0.84,0.79,0.223,0.907,0.683,4.541,-0.0400,0.0509
4706,0.0346,0.0194,0.0030,1.02,-0.84,0.85,0.223,-2.821,-1.634,5.186,-0.0396,0.0511
4715,0.0362,0.0192,0.0034,1.00,-0.83,0.90,0.223,0.205,-1.635,5.289,-0.0400,0.0503
4726,0.0377,0.0175,0.0036,1.00,-0.81,0.95,0.227,1.689,-0.010,4.453,-0.0387,0.0509
4736,0.0391,0.0158,0.0038,1.00,-0.80,1.00,0.227,-2.432,-0.280,4.631,-0.0390,0.0503
4746,0.0383,0.0115,0.0042,0.99,-0.78,1.05,0.227,-3.105,-0.378,4.699,-0.0399,0.0497
4755,0.0421,0.0112,0.0108,0.97,-0.77,1.10,0.227,-1.704,0.545,4.283,-0.0394,0.0498
4766,0.0417,0.0075,0.0113,0.99,-0.76,1.15,0.227,-0.124,-0.616,3.946,-0.0397,0.0491
4775,0.0392,0.0039,0.0119,0.99,-0.73,1.20,0.224,-3.353,-2.204,4.551,-0.0393,0.0491
4785,0.0408,0.0025,0.0127,0.96,-0.73,1.24,0.224,-5.536,-2.331,4.806,-0.0390,0.0494
4795,0.0401,-0.0011,0.0090,0.95,-0.72,1.29,0.224,2.044,-0.608,3.091,-0.0392,0.0479
4805,0.0414,-0.0027,0.0091,0.95,-0.71,1.33,0.224,-3.424,-3.544,2.377,-0.0389,0.0439
4815,0.0424,-0.0034,0.0094,0.92,-0.69,1.38,0.224,1.639,-0.113,2.356,-0.0392,0.0481
4825,0.0419,-0.0090,0.0098,0.91,-0.66,1.42,0.222,-2.032,-2.902,2.644,-0.0395,0.0441
4835,0.0429,-0.0210,0.0102,0.97,-0.65,1.46,0.222,-1.627,-1.572,1.207,-0.0385,0.0458
4845,0.0419,-0.0107,0.0108,0.88,-0.61,1.48,0.222,4.170,-0.240,1.348,-0.0380,0.0456
4855,0.0410,-0.0226,0.0025,0.95,-0.59,1.51,0.222,0.069,-0.490,0.940,-0.0376,0.0454
4866,0.0437,-0.0191,0.0029,0.90,-0.57,1.53,0.222,-0.250,1.637,1.146,-0.0378,0.0462
4875,0.0447,-0.0206,0.0031,0.88,-0.55,1.55,0.222,-2.376,0.860,0.910,-0.0379,0.0437
4885,0.0457,-0.0221,0.0033,0.91,-0.55,1.57,0.222,-8.601,-0.763,1.162,-0.0375,0.0434
4895,0.0448,-0.0207,-0.0011,0.91,-0.53,1.58,0.222,-3.819,-0.480,0.560,-0.0370,0.0431
4905,0.0443,-0.0286,-0.0011,0.94,-0.53,1.59,0.222,-6.102,-2.373,0.070,-0.0360,0.0436
4915,0.0453,-0.0302,-0.0010,0.92,-0.55,1.60,0.222,-5.384,-0.989,-0.232,-0.0355,0.0407
4926,0.0462,-0.0317,-0.0009,0.85,-0.55,1.61,0.224,-6.308,-1.837,-0.199,-0.0360,0.0420
4935,0.0488,-0.0307,-0.0007,0.79,-0.55,1.62,0.224,-3.136,-2.312,-0.324,-0.0356,0.0423
4945,0.0496,-0.0392,-0.0007,0.78,-0.53,1.62,0.224,-0.496,-1.262,-0.187,-0.0358,0.0398
4955,0.0481,-0.0359,0.0014,0.68,-0.50,1.62,0.224,-1.518,-0.961,-0.499,-0.0362,0.0408
4965,0.0487,-0.0352,0.0021,0.62,-0.48,1.62,0.224,-1.790,-1.281,-0.716,-0.0358,0.0410
4975,0.0476,-0.0421,0.0027,0.62,-0.46,1.62,0.224,3.597,0.084,-1.199,-0.0352,0.0390
4985,0.0461,-0.0393,0.0033,0.58,-0.43,1.62,0.224,-1.703,-0.646,-0.703,-0.0348,0.0392
4995,0.0467,-0.0387,0.0044,0.55,-0.40,1.61,0.224,1.334,0.647,-1.234,-0.0343,0.0393
5005,0.0477,-0.0439,0.0045,0.57,-0.39,1.60,0.224,-1.098,0.612,-1.066,-0.0345,0.0369
5015,0.0481,-0.0430,0.0051,0.58,-0.39,1.59,0.224,1.542,2.251,-1.437,-0.0352,0.0370
5025,0.0490,-0.0426,0.0056,0.57,-0.39,1.58,0.225,2.839,1.730,-1.356,-0.0347,0.0365
5035,0.0479,-0.0489,0.0060,0.62,-0.38,1.57,0.225,0.728,2.942,-1.714,-0.0341,0.0368
5045,0.0453,-0.0483,0.0063,0.60,-0.36,1.56,0.225,-0.884,3.130,-1.529,-0.0341,0.0363
5055,0.0460,-0.0493,0.0086,0.61,-0.38,1.55,0.225,-4.742,0.301,-2.208,-0.0336,0.0367
5065,0.0470,-0.0484,0.0089,0.62,-0.40,1.54,0.225,-2.194,-0.765,-2.328,-0.0332,0.0371
5075,0.0464,-0.0493,0.0089,0.63,-0.41,1.53,0.219,-1.616,-0.051,-2.039,-0.0335,0.0349
5085,0.0473,-0.0480,0.0089,0.62,-0.44,1.51,0.219,-1.938,0.378,-2.628,-0.0331,0.0371
5095,0.0476,-0.0465,-0.0037,0.57,-0.45,1.49,0.219,-5.735,-1.299,-2.763,-0.0326,0.0367
5105,0.0467,-0.0522,-0.0034,0.56,-0.43,1.47,0.219,-4.376,0.878,-1.827,-0.0321,0.0362
5114,0.0473,-0.0458,-0.0030,0.50,-0.43,1.45,0.219,-1.569,-1.188,-2.115,-0.0322,0.0319
5125,0.0481,-0.0466,-0.0026,0.48,-0.43,1.42,0.224,-3.235,-0.534,-2.374,-0.0324,0.0303
5135,0.0488,-0.0474,-0.0022,0.42,-0.43,1.40,0.224,2.131,0.285,-2.416,-0.0319,0.0305
5145,0.0479,-0.0585,-0.0021,0.43,-0.42,1.38,0.224,-0.295,0.722,-2.396,-0.0321,0.0289
5155,0.0469,-0.0618,0.0020,0.43,-0.41,1.36,0.224,1.468,-1.100,-2.722,-0.0316,0.0295
5165,0.0477,-0.0605,0.0023,0.39,-0.40,1.34,0.224,-0.686,-0.858,-2.506,-0.0318,0.0292
5175,0.0466,-0.0639,0.0030,0.41,-0.39,1.32,0.222,0.407,0.304,-2.549,-0.0314,0.0286
5185,0.0473,-0.0610,0.0038,0.39,-0.39,1.29,0.222,3.099,1.444,-2.352,-0.0315,0.0280
5195,0.0461,-0.0609,0.0017,0.41,-0.38,1.27,0.222,3.095,1.107,-2.056,-0.0315,0.0275
5205,0.0467,-0.0616,0.0021,0.40,-0.37,1.24,0.222,0.598,0.169,-2.092,-0.0310,0.0276
5215,0.0459,-0.0621,0.0024,0.40,-0.36,1.22,0.222,-1.582,-0.353,-1.686,-0.0306,0.0270
5225,0.0450,-0.0626,0.0030,0.42,-0.37,1.20,0.219,-2.140,-0.990,-1.910,-0.0302,0.0264
5235,0.0458,-0.0612,0.0034,0.44,-0.38,1.18,0.219,-1.614,0.134,-2.486,-0.0297,0.0268
5245,0.0465,-0.0620,0.0037,0.45,-0.39,1.15,0.219,-4.079,-1.208,-2.081,-0.0300,0.0260
5255,0.0470,-0.0626,-0.0048,0.44,-0.38,1.14,0.219,-6.674,-0.457,-2.619,-0.0302,0.0252
5265,0.0476,-0.0606,-0.0043,0.40,-0.37,1.12,0.219,-4.288,0.500,-3.005,-0.0303,0.0245
5275,0.0463,-0.0619,-0.0038,0.39,-0.36,1.10,0.221,-4.921,-1.410,-3.255,-0.0299,0.0225
5285,0.0451,-0.0629,-0.0033,0.36,-0.34,1.08,0.221,-3.678,1.076,-2.776,-0.0300,0.0198
5295,0.0440,-0.0638,-0.0029,0.31,-0.32,1.05,0.221,-2.497,-1.782,-3.165,-0.0296,0.0191
5305,0.0446,-0.0681,-0.0021,0.28,-0.32,1.02,0.221,-0.838,-0.213,-3.193,-0.0291,0.0194
5314,0.0437,-0.0739,-0.0015,0.27,-0.31,0.99,0.221,1.380,0.065,-3.039,-0.0292,0.0190
5324,0.0442,-0.0744,-0.0008,0.23,-0.31,0.96,0.220,-1.173,1.639,-2.920,-0.0287,0.0194
5335,0.0448,-0.0720,0.0002,0.19,-0.30,0.93,0.220,3.953,2.879,-2.940,-0.0287,0.0182
5345,0.0437,-0.0713,0.0012,0.18,-0.29,0.90,0.220,3.145,1.467,-2.860,-0.0293,0.0182
5355,0.0443,-0.0687,-0.0001,0.16,-0.28,0.87,0.220,-0.461,0.892,-3.087,-0.0288,0.0184
5365,0.0437,-0.0703,0.0009,0.16,-0.29,0.84,0.220,-3.605,-2.706,-3.566,-0.0290,0.0164
5375,0.0412,-0.0684,0.0017,0.18,-0.30,0.81,0.219,-3.207,-0.511,-3.057,-0.0286,0.0157
5385,0.0421,-0.0663,0.0023,0.20,-0.32,0.78,0.219,1.787,0.790,-3.544,-0.0281,0.0147
5394,0.0408,-0.0703,-0.0008,0.22,-0.32,0.75,0.219,-0.615,-0.941,-3.470,-0.0276,0.0139
5405,0.0414,-0.0707,-0.0002,0.19,-0.30,0.72,0.219,-3.975,-1.072,-3.411,-0.0284,0.0135
5414,0.0421,-0.0719,0.0006,0.15,-0.28,0.69,0.219,-2.015,-0.359,-3.783,-0.0280,0.0127
5425,0.0410,-0.0729,0.0016,0.16,-0.28,0.65,0.217,-2.359,0.278,-3.917,-0.0287,0.0124
5435,0.0398,-0.0717,0.0023,0.15,-0.26,0.62,0.217,0.436,0.736,-3.607,-0.0284,0.0117
5444,0.0386,-0.0723,0.0030,0.11,-0.23,0.58,0.217,-2.486,0.748,-3.924,-0.0280,0.0110
5455,0.0375,-0.0711,-0.0032,0.08,-0.22,0.54,0.217,-0.556,2.209,-3.287,-0.0276,0.0102
5465,0.0379,-0.0713,-0.0021,0.06,-0.22,0.51,0.217,4.334,2.675,-3.720,-0.0276,0.0097
5475,0.0383,-0.0714,-0.0010,0.06,-0.23,0.47,0.218,1.887,2.909,-3.777,-0.0272,0.0090
5485,0.0387,-0.0715,-0.0002,0.04,-0.24,0.43,0.218,1.379,1.495,-4.646,-0.0268,0.0083
5494,0.0380,-0.0709,-0.0011,0.04,-0.25,0.39,0.218,-1.445,0.304,-4.634,-0.0264,0.0076
5504,0.0384,-0.0710,-0.0003,0.07,-0.28,0.36,0.218,-2.752,0.666,-4.611,-0.0260,0.0069
5514,0.0389,-0.0711,0.0006,0.09,-0.30,0.32,0.218,-0.595,1.052,-5.081,-0.0262,0.0031
5524,0.0394,-0.0713,0.0016,0.10,-0.31,0.27,0.219,-0.365,-0.196,-4.527,-0.0258,0.0023
5535,0.0400,-0.0714,0.0026,0.09,-0.32,0.23,0.219,-1.847,1.532,-4.456,-0.0259,0.0050
5545,0.0389,-0.0803,0.0032,0.11,-0.32,0.18,0.219,0.943,-0.051,-5.320,-0.0255,0.0053
5555,0.0395,-0.0805,0.0050,0.09,-0.33,0.13,0.219,5.397,-0.326,-4.954,-0.0257,0.0026
5565,0.0386,-0.0707,0.0058,0.02,-0.33,0.09,0.219,2.680,0.862,-4.087,-0.0253,0.0019
5575,0.0394,-0.0679,0.0066,-0.01,-0.35,0.04,0.220,0.886,1.440,-3.549,-0.0254,0.0002
5585,0.0382,-0.0735,0.0073,0.03,-0.34,-0.01,0.220,2.436,1.375,-3.657,-0.0250,-0.0006
5595,0.0388,-0.0736,0.0101,0.07,-0.34,-0.05,0.220,-1.363,2.631,-3.152,-0.0252,-0.0015
5605,0.0379,-0.0765,0.0104,0.11,-0.34,-0.09,0.220,0.089,0.724,-3.648,-0.0254,-0.0032
5614,0.0385,-0.0767,0.0110,0.11,-0.35,-0.13,0.220,-2.843,0.371,-2.828,-0.0255,-0.0033
5624,0.0377,-0.0773,0.0118,0.12,-0.35,-0.16,0.222,-3.129,2.265,-3.363,-0.0251,-0.0041
5635,0.0366,-0.0801,0.0128,0.12,-0.36,-0.20,0.222,-1.138,0.466,-4.156,-0.0247,-0.0049
5645,0.0359,-0.0783,0.0136,0.10,-0.35,-0.23,0.222,-3.274,2.628,-3.034,-0.0244,-0.0057
5655,0.0366,-0.0785,0.0185,0.06,-0.36,-0.26,0.222,-3.991,0.389,-2.785,-0.0245,-0.0080
5665,0.0372,-0.0787,0.0191,0.03,-0.37,-0.30,0.222,-3.478,0.477,-2.421,-0.0247,-0.0051
5675,0.0378,-0.0787,0.0197,0.00,-0.37,-0.34,0.218,-0.679,-0.124,-2.545,-0.0243,-0.0045
5685,0.0369,-0.0829,0.0200,-0.01,-0.38,-0.37,0.218,2.587,-0.827,-4.061,-0.0245,-0.0057
5695,0.0359,-0.0725,0.0126,-0.10,-0.37,-0.40,0.218,0.995,0.787,-3.456,-0.0247,-0.0061
5704,0.0369,-0.0689,0.0129,-0.16,-0.38,-0.43,0.218,-0.921,2.235,-3.010,-0.0243,-0.0068
5715,0.0358,-0.0701,0.0133,-0.16,-0.37,-0.45,0.218,0.622,2.347,-3.046,-0.0244,-0.0080
5725,0.0350,-0.0688,0.0135,-0.15,-0.35,-0.49,0.220,2.526,1.216,-3.397,-0.0241,-0.0086
5735,0.0356,-0.0685,0.0140,-0.15,-0.35,-0.53,0.220,2.128,1.526,-3.678,-0.0242,-0.0097
5744,0.0350,-0.0697,0.0146,-0.13,-0.35,-0.56,0.220,1.000,1.353,-2.704,-0.0243,-0.0108
5754,0.0355,-0.0694,0.0126,-0.12,-0.37,-0.59,0.220,-1.688,2.143,-2.510,-0.0237,-0.0104
5764,0.0349,-0.0704,0.0130,-0.09,-0.38,-0.62,0.220,2.528,-1.465,-3.419,-0.0239,-0.0082
5774,0.0344,-0.0711,0.0132,-0.08,-0.40,-0.66,0.225,-1.007,0.361,-2.341,-0.0240,-0.0099
5785,0.0357,-0.0680,0.0134,-0.09,-0.41,-0.69,0.225,-1.090,1.641,-2.806,-0.0241,-0.0122
5794,0.0350,-0.0601,0.0215,-0.14,-0.42,-0.71,0.225,0.776,-1.404,-3.469,-0.0243,-0.0101
5804,0.0345,-0.0626,0.0219,-0.12,-0.40,-0.74,0.225,-0.864,0.095,-3.083,-0.0244,-0.0117
5814,0.0338,-0.0672,0.0221,-0.09,-0.40,-0.77,0.225,-2.727,1.212,-2.632,-0.0238,-0.0113
5824,0.0330,-0.0593,0.0224,-0.14,-0.40,-0.80,0.221,0.847,-0.782,-2.645,-0.0234,-0.0118
5835,0.0326,-0.0618,0.0225,-0.13,-0.39,-0.83,0.221,-1.274,0.435,-1.225,-0.0230,-0.0124
5844,0.0338,-0.0589,0.0226,-0.15,-0.39,-0.86,0.221,-1.535,1.340,-1.520,-0.0227,-0.0129
5854,0.0348,-0.0582,0.0155,-0.17,-0.40,-0.89,0.221,-0.539,2.076,-1.393,-0.0223,-0.0135
5864,0.0355,-0.0579,0.0154,-0.17,-0.39,-0.92,0.221,-0.086,1.373,-1.402,-0.0219,-0.0141
5875,0.0362,-0.0577,0.0156,-0.18,-0.40,-0.93,0.221,0.831,1.759,-1.548,-0.0221,-0.0146
5884,0.0369,-0.0574,0.0158,-0.18,-0.40,-0.95,0.221,0.357,1.541,-1.542,-0.0217,-0.0152
5894,0.0375,-0.0570,0.0108,-0.18,-0.42,-0.97,0.221,1.043,2.497,-1.589,-0.0213,-0.0157
5904,0.0367,-0.0566,0.0106,-0.17,-0.42,-0.98,0.221,-1.076,2.157,-1.418,-0.0207,-0.0155
5914,0.0375,-0.0563,0.0106,-0.15,-0.43,-1.00,0.221,-0.102,1.387,-1.230,-0.0208,-0.0159
5924,0.0389,-0.0539,0.0105,-0.16,-0.45,-1.01,0.225,0.392,1.151,-1.264,-0.0208,-0.0155
5934,0.0383,-0.0532,0.0101,-0.15,-0.46,-1.03,0.225,0.840,-1.637,-1.657,-0.0204,-0.0160
5945,0.0376,-0.0546,0.0103,-0.14,-0.47,-1.05,0.225,-0.468,-1.576,-1.120,-0.0206,-0.0145
5955,0.0390,-0.0502,0.0152,-0.17,-0.49,-1.06,0.225,-4.028,-1.295,-0.483,-0.0209,-0.0147
5964,0.0381,-0.0445,0.0154,-0.20,-0.48,-1.07,0.225,-0.726,-2.586,-0.538,-0.0213,-0.0199
5974,0.0389,-0.0442,0.0157,-0.20,-0.46,-1.09,0.225,-0.435,-2.972,-0.493,-0.0210,-0.0196
5985,0.0378,-0.0433,0.0159,-0.22,-0.43,-1.10,0.225,-0.237,-1.394,-0.297,-0.0212,-0.0200
5994,0.0363,-0.0560,0.0167,-0.17,-0.40,-1.11,0.225,-0.424,-1.362,-0.051,-0.0208,-0.0217
6005,0.0369,-0.0535,0.0169,-0.19,-0.38,-1.11,0.225,-0.834,-0.591,1.155,-0.0203,-0.0221
6014,0.0359,-0.0528,0.0169,-0.21,-0.35,-1.12,0.225,-2.912,-2.081,1.164,-0.0206,-0.0224
6024,0.0366,-0.0557,0.0170,-0.21,-0.33,-1.12,0.226,0.695,-4.700,0.319,-0.0203,-0.0223
6034,0.0375,-0.0548,0.0169,-0.22,-0.32,-1.11,0.226,-2.043,-5.151,1.121,-0.0200,-0.0202
6044,0.0364,-0.0538,0.0167,-0.24,-0.30,-1.11,0.226,-1.880,-5.256,0.627,-0.0204,-0.0205
6054,0.0366,-0.0516,0.0171,-0.27,-0.28,-1.09,0.226,-1.092,-5.938,0.230,-0.0202,-0.0216
6065,0.0369,-0.0438,0.0172,-0.32,-0.24,-1.09,0.226,-0.894,-5.354,1.421,-0.0189,-0.0214
6074,0.0351,-0.0431,0.0171,-0.33,-0.18,-1.08,0.223,-1.895,-5.031,1.618,-0.0193,-0.0236
6084,0.0350,-0.0443,0.0169,-0.34,-0.12,-1.07,0.223,-2.261,-5.329,1.937,-0.0191,-0.0233
6094,0.0380,-0.0420,0.0093,-0.37,-0.08,-1.07,0.223,-3.470,-4.520,1.793,-0.0187,-0.0213
6105,0.0359,-0.0462,0.0092,-0.35,-0.00,-1.06,0.223,-3.661,-3.542,1.861,-0.0184,-0.0217
6113,0.0356,-0.0438,0.0090,-0.38,0.05,-1.04,0.223,-2.558,-2.497,1.452,-0.0192,-0.0249
6124,0.0354,-0.0363,0.0088,-0.45,0.10,-1.02,0.222,-2.529,-1.895,1.782,-0.0172,-0.0247
6135,0.0351,-0.0355,0.0088,-0.48,0.15,-1.00,0.222,-2.196,-1.263,1.520,-0.0173,-0.0256
6144,0.0316,-0.0427,0.0088,-0.46,0.20,-0.99,0.222,-2.470,-0.478,1.240,-0.0175,-0.0265
6154,0.0363,-0.0402,0.0008,-0.50,0.19,-0.97,0.222,-2.251,0.409,1.750,-0.0169,-0.0264
6165,0.0345,-0.0408,0.0008,-0.52,0.22,-0.95,0.222,-1.195,0.456,2.270,-0.0170,-0.0268
6174,0.0328,-0.0413,0.0010,-0.53,0.24,-0.94,0.224,-1.377,1.523,2.567,-0.0170,-0.0262
6184,0.0329,-0.0388,0.0013,-0.56,0.24,-0.93,0.224,-0.007,1.044,2.180,-0.0164,-0.0288
6195,0.0315,-0.0380,0.0012,-0.58,0.24,-0.91,0.224,0.233,-0.687,2.043,-0.0165,-0.0277
6205,0.0303,-0.0340,0.0011,-0.61,0.24,-0.88,0.224,-1.059,-0.490,2.104,-0.0166,-0.0292
6214,0.0305,-0.0397,0.0009,-0.58,0.22,-0.86,0.224,-1.414,-1.367,2.553,-0.0156,-0.0281
6224,0.0292,-0.0342,0.0010,-0.61,0.22,-0.84,0.222,-0.491,-2.583,2.431,-0.0154,-0.0284
6234,0.0276,-0.0367,0.0014,-0.59,0.23,-0.81,0.222,-2.639,-1.473,2.324,-0.0155,-0.0304
6243,0.0292,-0.0313,0.0021,-0.63,0.23,-0.79,0.222,-3.743,-1.951,1.957,-0.0152,-0.0307
6254,0.0288,-0.0302,-0.0024,-0.64,0.25,-0.76,0.222,-3.036,-3.615,1.802,-0.0150,-0.0311
6264,0.0271,-0.0341,-0.0021,-0.62,0.27,-0.74,0.222,-2.610,-3.978,2.398,-0.0152,-0.0315
6274,0.0267,-0.0330,-0.0018,-0.65,0.29,-0.72,0.224,-1.956,-3.004,2.770,-0.0154,-0.0285
6284,0.0261,-0.0318,-0.0014,-0.69,0.31,-0.69,0.224,-2.710,-1.990,1.814,-0.0150,-0.0323
6294,0.0241,-0.0309,0.0008,-0.72,0.35,-0.67,0.224,-4.126,-0.715,1.659,-0.0145,-0.0321
6304,0.0223,-0.0198,0.0013,-0.80,0.40,-0.65,0.224,-2.679,-0.776,1.341,-0.0146,-0.0330
6314,0.0221,-0.0291,0.0019,-0.76,0.43,-0.62,0.224,-2.139,-0.774,1.554,-0.0152,-0.0335
6324,0.0222,-0.0263,0.0026,-0.79,0.44,-0.60,0.226,-1.508,1.226,1.785,-0.0150,-0.0337
6334,0.0206,-0.0271,0.0035,-0.82,0.45,-0.59,0.226,-2.787,1.683,1.574,-0.0149,-0.0339
6344,0.0173,-0.0261,0.0042,-0.84,0.48,-0.58,0.226,-2.674,1.539,1.859,-0.0147,-0.0342
6354,0.0165,-0.0246,0.0102,-0.86,0.48,-0.56,0.226,-2.403,1.777,1.827,-0.0146,-0.0344
6364,0.0157,-0.0231,0.0106,-0.88,0.47,-0.54,0.226,-1.321,0.285,1.516,-0.0146,-0.0366
6373,0.0149,-0.0216,0.0111,-0.91,0.46,-0.52,0.225,-2.210,1.066,1.336,-0.0140,-0.0352
6384,0.0138,-0.0259,0.0116,-0.90,0.44,-0.51,0.225,-2.372,0.965,1.120,-0.0146,-0.0345
6394,0.0144,-0.0197,0.0117,-0.96,0.42,-0.49,0.225,-2.583,0.198,1.152,-0.0146,-0.0361
6404,0.0137,-0.0181,0.0118,-0.97,0.41,-0.47,0.225,-2.014,0.024,1.214,-0.0140,-0.0360
6415,0.0109,-0.0137,0.0119,-1.01,0.42,-0.46,0.225,-2.799,-0.186,0.857,-0.0146,-0.0364
6424,0.0098,-0.0163,0.0122,-1.01,0.41,-0.45,0.225,-3.267,-0.330,1.014,-0.0145,-0.0366
6434,0.0105,-0.0138,0.0125,-1.04,0.39,-0.43,0.225,-2.010,-1.260,0.832,-0.0145,-0.0367
6444,0.0078,-0.0129,0.0124,-1.05,0.40,-0.42,0.225,-2.422,-1.392,0.844,-0.0144,-0.0368
6454,0.0071,-0.0111,0.0107,-1.08,0.41,-0.41,0.225,-2.455,-1.578,0.802,-0.0145,-0.0360
6464,0.0064,-0.0093,0.0112,-1.11,0.41,-0.40,0.225,-1.747,-1.750,0.967,-0.0146,-0.0365
6474,0.0057,-0.0074,0.0116,-1.13,0.43,-0.40,0.223,-1.281,-0.272,1.103,-0.0146,-0.0365
6484,0.0046,-0.0030,0.0119,-1.17,0.44,-0.38,0.223,-2.567,0.050,1.271,-0.0152,-0.0364
6494,0.0034,-0.0024,0.0059,-1.18,0.46,-0.38,0.223,-1.196,0.245,1.289,-0.0152,-0.0364
6504,0.0027,-0.0004,0.0057,-1.20,0.48,-0.37,0.223,-1.515,0.574,1.950,-0.0152,-0.0363
6514,-0.0000,0.0020,0.0056,-1.22,0.49,-0.36,0.223,-1.377,0.061,1.210,-0.0158,-0.0376
6524,-0.0009,0.0041,0.0060,-1.24,0.49,-0.34,0.223,-0.708,0.032,1.539,-0.0159,-0.0376
6533,-0.0017,0.0062,0.0062,-1.25,0.48,-0.33,0.223,0.099,0.268,0.954,-0.0159,-0.0375
6544,-0.0044,0.0044,0.0064,-1.24,0.49,-0.32,0.223,-1.075,-0.168,1.291,-0.0166,-0.0361
6554,-0.0052,0.0065,0.0018,-1.25,0.49,-0.31,0.223,-1.108,-1.046,1.611,-0.0167,-0.0360
6564,-0.0060,0.0087,0.0022,-1.26,0.49,-0.29,0.223,-1.661,-0.581,0.996,-0.0168,-0.0358
6574,-0.0084,0.0146,0.0025,-1.28,0.49,-0.28,0.222,-2.378,-0.826,1.212,-0.0175,-0.0365
6584,-0.0093,0.0168,0.0025,-1.30,0.50,-0.27,0.222,-2.142,-1.072,1.474,-0.0175,-0.0358
6593,-0.0101,0.0189,-0.0023,-1.31,0.51,-0.25,0.222,-1.319,-1.087,1.510,-0.0175,-0.0351
6604,-0.0128,0.0185,-0.0022,-1.31,0.52,-0.24,0.222,-1.247,-1.159,1.706,-0.0177,-0.0349
6614,-0.0134,0.0222,-0.0019,-1.34,0.53,-0.23,0.222,-2.235,-1.946,1.116,-0.0178,-0.0346
6624,-0.0139,0.0258,-0.0014,-1.38,0.54,-0.21,0.224,-2.563,-0.690,1.363,-0.0192,-0.0339
6633,-0.0148,0.0282,-0.0008,-1.40,0.55,-0.20,0.224,-2.067,-0.011,1.216,-0.0191,-0.0333
6643,-0.0158,0.0306,-0.0005,-1.42,0.57,-0.18,0.224,-2.127,-0.960,1.525,-0.0193,-0.0329
6654,-0.0203,0.0340,0.0015,-1.44,0.60,-0.17,0.224,-1.661,-1.552,1.603,-0.0207,-0.0330
6663,-0.0205,0.0373,0.0021,-1.47,0.61,-0.16,0.224,-0.810,0.164,1.592,-0.0213,-0.0318
6674,-0.0215,0.0398,0.0025,-1.49,0.61,-0.15,0.221,1.040,0.136,1.356,-0.0216,-0.0314
6684,-0.0259,0.0409,0.0031,-1.51,0.64,-0.14,0.221,0.443,0.703,1.062,-0.0214,-0.0287
6693,-0.0278,0.0456,-0.0021,-1.53,0.65,-0.12,0.221,1.171,1.392,1.370,-0.0212,-0.0314
6703,-0.0289,0.0483,-0.0016,-1.54,0.66,-0.11,0.221,0.557,1.427,1.212,-0.0216,-0.0317
6714,-0.0288,0.0570,-0.0012,-1.56,0.65,-0.09,0.221,0.798,3.440,1.288,-0.0234,-0.0314
6724,-0.0283,0.0507,-0.0002,-1.50,0.63,-0.08,0.221,-0.027,2.380,0.956,-0.0237,-0.0318
6734,-0.0300,0.0507,0.0005,-1.48,0.62,-0.07,0.221,-0.110,2.817,1.353,-0.0234,-0.0307
6744,-0.0351,0.0527,0.0010,-1.47,0.63,-0.07,0.221,-1.495,1.649,1.375,-0.0244,-0.0309
6754,-0.0361,0.0527,-0.0023,-1.44,0.60,-0.06,0.221,-1.515,1.158,1.101,-0.0255,-0.0311
6764,-0.0351,0.0568,-0.0019,-1.45,0.56,-0.05,0.221,0.851,1.146,0.235,-0.0253,-0.0308
6774,-0.0380,0.0570,-0.0015,-1.45,0.54,-0.04,0.220,-2.468,1.878,1.334,-0.0256,-0.0302
6783,-0.0409,0.0573,-0.0008,-1.45,0.54,-0.02,0.220,-2.257,0.908,1.429,-0.0260,-0.0290
6793,-0.0399,0.0590,-0.0042,-1.45,0.52,-0.01,0.220,-2.378,0.292,1.774,-0.0265,-0.0284
6803,-0.0408,0.0631,-0.0037,-1.46,0.51,-0.01,0.220,-3.820,0.984,2.026,-0.0269,-0.0260
6814,-0.0417,0.0656,-0.0031,-1.49,0.49,0.01,0.220,-0.810,1.252,1.412,-0.0279,-0.0270
6824,-0.0445,0.0713,-0.0024,-1.53,0.49,0.02,0.220,0.411,0.340,1.738,-0.0290,-0.0273
6834,-0.0434,0.0753,-0.0017,-1.56,0.47,0.04,0.220,-0.454,0.494,2.139,-0.0294,-0.0264
6843,-0.0459,0.0732,-0.0012,-1.56,0.47,0.06,0.220,0.395,0.741,2.064,-0.0304,-0.0267
6853,-0.0483,0.0729,-0.0026,-1.56,0.47,0.07,0.220,0.139,0.312,1.890,-0.0309,-0.0263
6863,-0.0489,0.0762,-0.0016,-1.56,0.46,0.09,0.220,-0.413,0.554,1.539,-0.0313,-0.0241
6874,-0.0512,0.0759,-0.0008,-1.55,0.47,0.11,0.222,-1.497,0.888,1.988,-0.0317,-0.0243
6884,-0.0518,0.0773,-0.0003,-1.53,0.46,0.12,0.222,-2.369,0.366,2.130,-0.0322,-0.0234
6893,-0.0523,0.0840,0.0033,-1.56,0.46,0.15,0.222,-1.799,0.030,1.973,-0.0333,-0.0230
6903,-0.0527,0.0837,0.0038,-1.55,0.44,0.16,0.222,-2.354,-0.679,1.759,-0.0337,-0.0238
6914,-0.0535,0.0864,0.0042,-1.57,0.44,0.18,0.222,-1.637,-0.537,1.090,-0.0342,-0.0233
6923,-0.0557,0.0878,0.0047,-1.59,0.44,0.20,0.223,-2.349,-0.059,1.350,-0.0352,-0.0222
6934,-0.0562,0.0860,0.0056,-1.58,0.44,0.22,0.223,-0.429,0.705,1.068,-0.0358,-0.0213
6943,-0.0567,0.0874,0.0064,-1.59,0.45,0.23,0.223,-1.838,0.754,1.655,-0.0368,-0.0179
6953,-0.0588,0.0907,0.0104,-1.62,0.46,0.24,0.223,-0.462,1.552,0.632,-0.0372,-0.0158
6963,-0.0596,0.0935,0.0109,-1.64,0.46,0.26,0.223,-0.757,2.008,0.866,-0.0375,-0.0149
6973,-0.0615,0.1033,0.0114,-1.69,0.46,0.27,0.219,-0.701,1.402,0.628,-0.0383,-0.0154
6983,-0.0616,0.1091,0.0121,-1.72,0.45,0.29,0.219,-0.246,1.451,0.383,-0.0392,-0.0157
6993,-0.0614,0.1111,0.0049,-1.73,0.43,0.30,0.219,1.645,1.322,-0.273,-0.0399,-0.0146
7003,-0.0629,0.1101,0.0054,-1.71,0.42,0.30,0.219,1.194,1.498,0.412,-0.0408,-0.0144
7013,-0.0644,0.1090,0.0061,-1.69,0.40,0.30,0.219,1.346,1.771,0.848,-0.0405,-0.0106
7023,-0.0651,0.1119,0.0069,-1.69,0.39,0.30,0.222,0.068,1.465,0.766,-0.0409,-0.0080
7034,-0.0666,0.1122,0.0072,-1.66,0.38,0.30,0.222,-0.163,1.692,0.630,-0.0412,-0.0084
7043,-0.0646,0.1224,0.0070,-1.70,0.35,0.31,0.222,0.851,0.937,0.705,-0.0422,-0.0088
7053,-0.0644,0.1292,0.0082,-1.71,0.32,0.32,0.222,0.954,0.657,-0.203,-0.0425,-0.0069
7063,-0.0641,0.1274,0.0085,-1.68,0.30,0.32,0.222,1.384,0.666,-0.051,-0.0435,-0.0061
7074,-0.0654,0.1255,0.0090,-1.65,0.29,0.33,0.222,2.050,0.312,-0.254,-0.0439,-0.0048
7083,-0.0651,0.1301,0.0096,-1.65,0.28,0.34,0.222,1.582,1.112,0.021,-0.0448,-0.0025
7093,-0.0665,0.1313,0.0099,-1.62,0.28,0.33,0.222,2.002,1.199,0.158,-0.0452,-0.0017
7103,-0.0662,0.1340,0.0103,-1.61,0.27,0.33,0.222,2.451,0.772,0.437,-0.0462,0.0002
7113,-0.0675,0.1397,0.0105,-1.61,0.27,0.33,0.222,1.496,1.635,0.396,-0.0466,-0.0001
7123,-0.0671,0.1405,0.0110,-1.58,0.25,0.33,0.225,1.375,0.885,-0.046,-0.0470,0.0018
7134,-0.0683,0.1446,0.0113,-1.57,0.25,0.33,0.225,3.046,-0.054,-0.199,-0.0479,0.0035
7144,-0.0678,0.1420,0.0116,-1.52,0.23,0.34,0.225,3.357,0.069,-0.252,-0.0486,0.0051
7153,-0.0674,0.1460,0.0171,-1.51,0.21,0.34,0.225,1.980,0.746,0.213,-0.0496,0.0058
7164,-0.0686,0.1494,0.0174,-1.49,0.20,0.34,0.225,1.385,0.888,0.278,-0.0505,0.0071
7174,-0.0690,0.1520,0.0177,-1.46,0.20,0.34,0.227,2.005,2.136,-0.014,-0.0509,0.0080
7183,-0.0701,0.1521,0.0181,-1.41,0.20,0.33,0.227,1.435,1.723,-0.325,-0.0518,0.0103
7193,-0.0713,0.1540,0.0240,-1.39,0.20,0.33,0.227,1.812,1.445,-0.214,-0.0518,0.0103
7204,-0.0707,0.1541,0.0242,-1.36,0.18,0.34,0.227,2.078,0.033,-0.698,-0.0540,0.0143
7213,-0.0715,0.1589,0.0246,-1.36,0.17,0.33,0.227,2.335,0.336,-0.735,-0.0550,0.0162
7223,-0.0740,0.1635,0.0248,-1.37,0.17,0.33,0.225,2.812,-0.855,-1.026,-0.0550,0.0161
7233,-0.0743,0.1658,0.0249,-1.35,0.16,0.33,0.225,3.819,-0.437,-1.106,-0.0559,0.0185
7243,-0.0753,0.1686,0.0248,-1.33,0.16,0.32,0.225,2.804,-0.591,-0.491,-0.0563,0.0202
7253,-0.0731,0.1677,0.0206,-1.29,0.15,0.32,0.225,3.431,0.963,-0.522,-0.0573,0.0210
7263,-0.0741,0.1700,0.0202,-1.25,0.14,0.31,0.225,2.334,-0.067,-0.941,-0.0577,0.0207
7273,-0.0735,0.1722,0.0201,-1.22,0.14,0.30,0.229,-1.046,-1.031,-0.779,-0.0598,0.0207
7283,-0.0743,0.1713,0.0201,-1.18,0.14,0.29,0.229,1.892,-0.208,-1.341,-0.0597,0.0215
7294,-0.0738,0.1676,0.0244,-1.11,0.14,0.28,0.229,1.818,-0.442,-1.445,-0.0597,0.0215
7303,-0.0779,0.1640,0.0242,-1.05,0.16,0.27,0.229,2.302,-0.156,-1.554,-0.0606,0.0276
7313,-0.0756,0.1633,0.0242,-1.04,0.14,0.26,0.229,2.724,1.114,-1.308,-0.0615,0.0294
7323,-0.0749,0.1732,0.0235,-1.08,0.13,0.25,0.226,1.737,2.419,-0.945,-0.0618,0.0291
7333,-0.0741,0.1753,0.0229,-1.07,0.12,0.24,0.226,0.647,-0.520,-0.736,-0.0628,0.0290
7343,-0.0748,0.1772,0.0226,-1.05,0.12,0.22,0.226,1.998,1.608,-0.214,-0.0627,0.0328
7353,-0.0738,0.1727,0.0154,-1.00,0.12,0.21,0.226,2.239,-0.630,-1.025,-0.0637,0.0346
7363,-0.0748,0.1686,0.0151,-0.95,0.11,0.20,0.226,0.688,-0.926,-0.586,-0.0647,0.0354
7373,-0.0725,0.1766,0.0141,-0.98,0.09,0.19,0.223,2.960,1.271,-0.886,-0.0645,0.0369
7383,-0.0734,0.1784,0.0133,-0.96,0.08,0.19,0.223,2.812,2.404,-1.093,-0.0654,0.0372
7393,-0.0741,0.1764,0.0006,-0.92,0.09,0.18,0.223,1.507,0.737,-0.733,-0.0658,0.0390
7404,-0.0717,0.1779,0.0005,-0.91,0.07,0.18,0.223,3.817,0.484,-0.059,-0.0658,0.0390
7413,-0.0722,0.1750,0.0004,-0.86,0.06,0.17,0.223,1.578,0.191,0.067,-0.0668,0.0436
7423,-0.0716,0.1766,-0.0000,-0.84,0.06,0.16,0.224,2.732,0.125,-0.200,-0.0677,0.0481
7433,-0.0723,0.1809,-0.0008,-0.83,0.05,0.15,0.224,0.601,0.337,0.080,-0.0677,0.0485
7443,-0.0702,0.1823,-0.0014,-0.80,0.04,0.15,0.224,1.202,-2.254,0.543,-0.0692,0.0503
7453,-0.0709,0.1922,-0.0072,-0.84,0.04,0.15,0.224,3.424,-1.462,-0.400,-0.0701,0.0506
7463,-0.0687,0.1889,-0.0071,-0.80,0.03,0.15,0.224,2.493,-1.390,-0.109,-0.0701,0.0548
7473,-0.0713,0.1899,-0.0075,-0.79,0.05,0.15,0.221,1.504,-0.871,0.072,-0.0706,0.0554
7483,-0.0721,0.1863,-0.0077,-0.74,0.07,0.16,0.221,1.653,-0.195,1.003,-0.0720,0.0562
7493,-0.0699,0.1942,-0.0167,-0.76,0.07,0.16,0.221,2.013,0.489,1.091,-0.0729,0.0556
7503,-0.0694,0.1920,-0.0163,-0.72,0.08,0.16,0.221,2.404,-0.231,1.014,-0.0729,0.0593
7513,-0.0719,0.1897,-0.0158,-0.69,0.09,0.16,0.221,1.469,-0.773,1.252,-0.0729,0.0611
7523,-0.0727,0.1831,-0.0151,-0.62,0.10,0.17,0.219,2.443,-0.607,0.554,-0.0748,0.0617
7534,-0.0705,0.1900,-0.0152,-0.64,0.08,0.18,0.219,0.480,-0.891,1.224,-0.0754,0.0622
7543,-0.0685,0.1906,-0.0148,-0.62,0.07,0.20,0.219,1.312,-1.012,0.913,-0.0759,0.0636
7553,-0.0724,0.1876,-0.0220,-0.58,0.10,0.21,0.219,0.093,-1.714,0.594,-0.0764,0.0658
7563,-0.0718,0.1839,-0.0208,-0.53,0.11,0.22,0.219,-0.985,-1.377,0.083,-0.0774,0.0681
7573,-0.0714,0.1832,-0.0199,-0.52,0.12,0.23,0.220,0.487,-2.087,0.372,-0.0775,0.0699
7583,-0.0710,0.1854,-0.0191,-0.51,0.14,0.24,0.220,1.775,-2.184,0.569,-0.0785,0.0698
7593,-0.0723,0.1877,-0.0190,-0.52,0.16,0.24,0.220,-1.101,-1.740,1.253,-0.0795,0.0712
7603,-0.0705,0.1883,-0.0183,-0.52,0.16,0.25,0.220,0.089,-2.993,0.097,-0.0795,0.0712
7613,-0.0716,0.1828,-0.0169,-0.48,0.19,0.25,0.220,0.884,-2.517,0.112,-0.0807,0.0753
7623,-0.0729,0.1822,-0.0160,-0.46,0.22,0.26,0.220,1.704,0.449,0.507,-0.0816,0.0752
7633,-0.0728,0.1814,-0.0153,-0.45,0.24,0.26,0.220,0.153,-0.597,-0.047,-0.0826,0.0761
7643,-0.0727,0.1851,-0.0145,-0.47,0.26,0.27,0.220,1.055,-1.061,1.123,-0.0826,0.0761
7653,-0.0739,0.1797,-0.0116,-0.42,0.29,0.27,0.220,-0.857,0.510,0.922,-0.0835,0.0783
7663,-0.0751,0.1774,-0.0105,-0.39,0.31,0.27,0.220,-0.560,-0.332,-0.370,-0.0842,0.0802
7673,-0.0763,0.1795,-0.0096,-0.41,0.31,0.28,0.220,0.998,-0.458,0.930,-0.0855,0.0820
7683,-0.0773,0.1819,-0.0087,-0.42,0.33,0.28,0.220,-0.334,1.602,1.379,-0.0864,0.0812
7693,-0.0770,0.1814,-0.0054,-0.42,0.33,0.29,0.220,0.112,0.969,0.893,-0.0873,0.0852
7703,-0.0795,0.1820,-0.0043,-0.43,0.34,0.29,0.220,0.827,-0.487,1.101,-0.0878,0.0861
7713,-0.0803,0.1739,-0.0027,-0.38,0.34,0.30,0.220,-0.916,2.223,1.118,-0.0891,0.0880
7723,-0.0813,0.1821,-0.0021,-0.43,0.35,0.31,0.221,0.257,0.583,0.417,-0.0900,0.0895
7733,-0.0809,0.1799,-0.0010,-0.42,0.34,0.32,0.221,0.629,0.124,1.771,-0.0913,0.0891
7743,-0.0831,0.1809,-0.0002,-0.44,0.34,0.33,0.221,-0.264,1.706,1.868,-0.0913,0.0922
7753,-0.0840,0.1804,0.0044,-0.43,0.33,0.34,0.221,0.590,1.813,0.951,-0.0926,0.0948
7763,-0.0862,0.1739,0.0056,-0.39,0.33,0.36,0.221,1.596,0.163,0.561,-0.0935,0.0957
7773,-0.0839,0.1791,0.0067,-0.43,0.31,0.37,0.231,0.348,1.330,1.743,-0.0950,0.0983
7783,-0.0860,0.1828,0.0077,-0.44,0.31,0.38,0.231,1.216,0.143,0.518,-0.0960,0.1010
7793,-0.0872,0.1814,0.0321,-0.39,0.31,0.39,0.231,1.962,-0.173,1.668,-0.0964,0.1020
7803,-0.0892,0.1837,0.0327,-0.40,0.30,0.40,0.231,-0.215,1.230,1.374,-0.0970,0.1034
7813,-0.0900,0.1871,0.0332,-0.40,0.30,0.41,0.231,0.914,-0.828,0.431,-0.0984,0.1057
7823,-0.0891,0.1848,0.0342,-0.38,0.29,0.42,0.221,-0.193,-0.590,0.433,-0.0997,0.1082
7833,-0.0884,0.1842,0.0350,-0.36,0.29,0.44,0.221,0.615,-0.315,0.445,-0.1003,0.1092
7843,-0.0908,0.1861,0.0355,-0.35,0.30,0.45,0.221,0.317,-1.169,0.859,-0.1017,0.1114
7853,-0.0927,0.1891,0.0238,-0.37,0.31,0.46,0.221,0.309,-1.041,0.595,-0.1018,0.1133
7862,-0.0920,0.1867,0.0243,-0.34,0.30,0.46,0.221,3.439,-0.062,-0.090,-0.1036,0.1142
7873,-0.0941,0.1885,0.0240,-0.34,0.32,0.47,0.233,0.871,0.198,0.781,-0.1043,0.1155
7882,-0.0920,0.1890,0.0239,-0.34,0.32,0.47,0.233,1.606,-0.245,0.995,-0.1056,0.1182
7893,-0.0959,0.1871,0.0404,-0.31,0.35,0.48,0.233,4.247,2.295,1.031,-0.1061,0.1203
7903,-0.0951,0.1849,0.0404,-0.27,0.34,0.48,0.233,2.446,1.299,1.081,-0.1079,0.1217
7913,-0.0972,0.1880,0.0401,-0.26,0.34,0.49,0.233,2.312,0.847,0.462,-0.1084,0.1227
7923,-0.0961,0.1894,0.0400,-0.24,0.32,0.50,0.223,6.435,3.405,0.222,-0.1104,0.1250
7933,-0.0993,0.1882,0.0400,-0.20,0.32,0.51,0.223,4.670,0.970,-0.232,-0.1108,0.1263
7943,-0.0982,0.1855,0.0397,-0.15,0.30,0.51,0.223,6.120,1.246,-0.357,-0.1126,0.1280
7953,-0.1023,0.1873,0.0225,-0.13,0.31,0.52,0.223,0.046,0.925,0.878,-0.1131,0.1299
7963,-0.1010,0.1856,0.0220,-0.07,0.27,0.52,0.223,2.854,2.395,0.033,-0.1141,0.1323
7973,-0.1039,0.1851,0.0210,-0.02,0.28,0.52,0.233,-0.350,-0.020,1.195,-0.1151,0.1336
7983,-0.1025,0.1854,0.0201,0.00,0.25,0.52,0.233,0.336,0.364,1.089,-0.1164,0.1350
7993,-0.1028,0.1871,0.0289,0.01,0.24,0.52,0.233,1.786,0.811,0.653,-0.1170,0.1369
8002,-0.1029,0.1843,0.0280,0.03,0.23,0.53,0.233,2.542,0.816,0.192,-0.1179,0.1395
8013,-0.1044,0.1830,0.0272,0.04,0.23,0.54,0.233,1.291,1.835,0.175,-0.1188,0.1405
8023,-0.1031,0.1830,0.0263,0.05,0.22,0.55,0.222,4.856,2.817,0.073,-0.1200,0.1411
8033,-0.1032,0.1856,0.0253,0.06,0.20,0.55,0.222,4.797,4.067,0.108,-0.1210,0.1429
8043,-0.1031,0.1826,0.0251,0.09,0.19,0.56,0.222,4.793,2.828,0.098,-0.1214,0.1455
8052,-0.1039,0.1783,0.0025,0.14,0.18,0.56,0.222,3.246,1.302,-0.004,-0.1223,0.1459
8062,-0.1020,0.1807,0.0015,0.17,0.13,0.56,0.222,7.067,2.262,-1.166,-0.1236,0.1485
8073,-0.1017,0.1756,0.0007,0.27,0.09,0.55,0.235,5.995,2.759,-1.702,-0.1246,0.1494
8083,-0.1029,0.1780,-0.0004,0.29,0.07,0.56,0.235,4.195,0.849,-0.451,-0.1255,0.1524
8093,-0.1029,0.1747,0.0153,0.35,0.06,0.55,0.235,5.526,2.155,-0.493,-0.1264,0.1537
8102,-0.1026,0.1782,0.0144,0.39,0.03,0.54,0.235,4.642,3.751,-0.631,-0.1280,0.1553
8113,-0.1023,0.1759,0.0138,0.44,0.00,0.53,0.235,-0.764,0.049,-0.151,-0.1290,0.1572
8122,-0.1062,0.1749,0.0130,0.49,0.00,0.53,0.218,1.327,0.725,-1.267,-0.1297,0.1575
8133,-0.1039,0.1740,0.0125,0.54,-0.05,0.52,0.218,1.607,-0.369,-0.982,-0.1310,0.1596
8142,-0.1036,0.1735,0.0121,0.56,-0.07,0.52,0.218,-0.258,-1.419,-0.594,-0.1320,0.1602
8152,-0.1024,0.1675,-0.0186,0.58,-0.07,0.51,0.218,2.019,0.155,-1.581,-0.1334,0.1628
8163,-0.1035,0.1683,-0.0193,0.59,-0.08,0.51,0.218,-0.373,-2.918,-1.591,-0.1340,0.1638
8173,-0.1032,0.1635,-0.0195,0.60,-0.06,0.50,0.219,-1.026,-1.376,-0.871,-0.1358,0.1647
8182,-0.1043,0.1658,-0.0198,0.60,-0.06,0.49,0.219,0.398,-0.485,-0.760,-0.1363,0.1661
8192,-0.1024,0.1620,-0.0332,0.61,-0.05,0.48,0.219,1.178,-0.912,-0.314,-0.1372,0.1671
8203,-0.1052,0.1589,-0.0335,0.62,-0.02,0.47,0.219,0.464,-1.711,-0.874,-0.1387,0.1697
8213,-0.1032,0.1570,-0.0332,0.62,-0.03,0.46,0.219,1.150,-1.991,-1.403,-0.1397,0.1706
8222,-0.1029,0.1539,-0.0326,0.64,-0.02,0.45,0.216,0.303,-1.083,-1.341,-0.1419,0.1714
8232,-0.1043,0.1566,-0.0323,0.62,0.01,0.44,0.216,0.403,-1.008,-1.112,-0.1424,0.1728
8242,-0.1042,0.1532,-0.0316,0.65,0.02,0.44,0.216,0.031,-0.810,-0.774,-0.1438,0.1750
8253,-0.1082,0.1495,-0.0414,0.68,0.06,0.43,0.216,-0.096,-2.344,-1.365,-0.1444,0.1755
8262,-0.1064,0.1479,-0.0409,0.68,0.06,0.41,0.216,-0.795,-1.682,-0.968,-0.1462,0.1769
8272,-0.1076,0.1492,-0.0403,0.67,0.07,0.41,0.216,-2.857,-2.154,-1.716,-0.1472,0.1783
8283,-0.1059,0.1447,-0.0392,0.68,0.08,0.40,0.216,1.407,0.485,-0.872,-0.1481,0.1797
8293,-0.1087,0.1432,-0.0401,0.68,0.11,0.39,0.216,-0.379,0.975,-1.068,-0.1480,0.1802
8303,-0.1085,0.1422,-0.0388,0.66,0.12,0.37,0.216,-5.745,-1.283,-0.512,-0.1507,0.1817
8313,-0.1080,0.1407,-0.0373,0.66,0.13,0.36,0.216,0.125,-1.685,-1.118,-0.1517,0.1826
8323,-0.1044,0.1365,-0.0354,0.69,0.10,0.35,0.212,-6.399,-0.521,-0.603,-0.1539,0.1845
8332,-0.1102,0.1359,-0.0339,0.64,0.14,0.34,0.212,-1.342,1.690,-0.553,-0.1550,0.1859
8342,-0.1099,0.1331,-0.0320,0.63,0.14,0.33,0.212,1.169,4.457,0.088,-0.1567,0.1877
8353,-0.1140,0.1340,-0.0359,0.59,0.18,0.33,0.212,0.776,1.567,-0.091,-0.1575,0.1881
8363,-0.1144,0.1329,-0.0338,0.55,0.17,0.33,0.212,4.163,2.484,0.255,-0.1592,0.1892
8373,-0.1164,0.1336,-0.0318,0.53,0.16,0.32,0.214,4.423,1.514,-0.505,-0.1600,0.1904
8383,-0.1155,0.1294,-0.0298,0.56,0.13,0.32,0.214,6.064,1.971,-0.770,-0.1617,0.1910
8392,-0.1176,0.1281,-0.0234,0.60,0.10,0.33,0.214,3.513,-0.020,-1.550,-0.1622,0.1910
8402,-0.1165,0.1268,-0.0215,0.63,0.08,0.32,0.214,5.709,-0.451,-1.313,-0.1640,0.1908
8412,-0.1184,0.1231,-0.0192,0.73,0.06,0.32,0.214,1.812,0.938,-0.337,-0.1654,0.1952
8422,-0.1158,0.1172,-0.0170,0.79,0.04,0.30,0.214,0.475,-2.351,-0.256,-0.1668,0.1957
8432,-0.1180,0.1109,-0.0148,0.87,0.05,0.29,0.214,-1.115,0.225,-0.074,-0.1682,0.1970
8442,-0.1188,0.1208,-0.0130,0.82,0.07,0.28,0.214,-1.476,-1.458,0.465,-0.1691,0.1975
8452,-0.1197,0.1168,-0.0061,0.85,0.07,0.29,0.214,-1.677,0.168,0.353,-0.1704,0.1980
8462,-0.1204,0.1159,-0.0044,0.85,0.09,0.28,0.214,-4.100,0.923,1.325,-0.1722,0.1999
8472,-0.1196,0.1121,-0.0027,0.85,0.09,0.29,0.210,-0.111,1.323,1.175,-0.1730,0.2016
8482,-0.1200,0.1085,-0.0010,0.84,0.09,0.29,0.210,1.197,2.876,1.248,-0.1742,0.2012
8492,-0.1220,0.1097,-0.0053,0.80,0.10,0.30,0.210,-0.003,3.522,1.913,-0.1754,0.2022
8502,-0.1209,0.1105,-0.0038,0.78,0.08,0.31,0.210,0.374,2.878,1.876,-0.1766,0.2026
8512,-0.1210,0.1037,-0.0020,0.81,0.06,0.32,0.210,4.378,1.589,2.001,-0.1764,0.2031
8523,-0.1210,0.1002,-0.0001,0.82,0.03,0.34,0.213,2.779,2.021,2.001,-0.1791,0.2036
8532,-0.1166,0.0969,0.0021,0.85,-0.03,0.35,0.213,1.716,2.351,1.278,-0.1808,0.2035
8543,-0.1228,0.0929,0.0035,0.89,-0.01,0.38,0.213,2.235,1.677,1.982,-0.1816,0.2039
8552,-0.1214,0.0925,0.0085,0.89,-0.05,0.40,0.213,2.115,3.201,1.590,-0.1837,0.2047
8562,-0.1228,0.0875,0.0101,0.93,-0.06,0.42,0.213,3.614,0.776,2.390,-0.1841,0.2063
8572,-0.1213,0.0841,0.0117,0.97,-0.09,0.44,0.213,1.728,0.477,1.590,-0.1867,0.2067
8582,-0.1241,0.0822,0.0130,0.98,-0.10,0.45,0.213,-1.018,2.680,2.604,-0.1875,0.2067
8593,-0.1211,0.0832,0.0152,0.99,-0.14,0.48,0.213,-1.187,1.556,2.253,-0.1900,0.2072
8601,-0.1256,0.0799,0.0164,1.02,-0.11,0.50,0.213,0.023,1.921,2.548,-0.1909,0.2089
8612,-0.1238,0.0754,0.0178,1.03,-0.14,0.52,0.213,-1.090,0.747,3.055,-0.1926,0.2086
8622,-0.1280,0.0726,0.0189,1.04,-0.14,0.55,0.218,-1.224,0.773,2.973,-0.1936,0.2095
8632,-0.1263,0.0743,0.0202,1.02,-0.17,0.57,0.218,-3.113,2.329,2.021,-0.1940,0.2096
8642,-0.1276,0.0688,0.0213,1.04,-0.16,0.60,0.218,-2.349,4.502,2.795,-0.1965,0.2114
8653,-0.1263,0.0679,0.0320,1.03,-0.18,0.63,0.218,-0.429,3.529,3.077,-0.1973,0.2112
8662,-0.1230,0.0641,0.0332,1.03,-0.21,0.65,0.218,-0.118,-0.148,2.786,-0.1991,0.2116
8672,-0.1269,0.0663,0.0340,0.98,-0.23,0.68,0.214,-2.675,0.445,1.960,-0.1999,0.2117
8682,-0.1249,0.0613,0.0349,0.98,-0.27,0.71,0.214,1.573,0.853,1.769,-0.2017,0.2121
8692,-0.1260,0.0591,0.0299,0.97,-0.26,0.74,0.214,-2.944,0.976,2.492,-0.2026,0.2123
8702,-0.1244,0.0556,0.0308,0.97,-0.26,0.76,0.214,-0.273,2.248,1.649,-0.2043,0.2136
8712,-0.1255,0.0535,0.0316,0.95,-0.26,0.78,0.214,-2.194,0.625,2.256,-0.2053,0.2144
8722,-0.1239,0.0506,0.0322,0.94,-0.28,0.80,0.214,0.588,1.766,1.781,-0.2073,0.2140
8733,-0.1251,0.0516,0.0326,0.93,-0.27,0.82,0.214,3.110,3.991,2.080,-0.2086,0.2143
8742,-0.1235,0.0511,0.0329,0.91,-0.29,0.84,0.214,3.184,4.334,1.410,-0.2103,0.2138
8752,-0.1259,0.0463,0.0250,0.93,-0.29,0.87,0.214,-4.861,2.346,2.499,-0.2107,0.2144
8762,-0.1253,0.0443,0.0251,0.96,-0.31,0.89,0.214,-0.430,3.279,2.296,-0.2132,0.2161
8771,-0.1261,0.0394,0.0251,1.01,-0.34,0.91,0.214,1.615,4.779,1.751,-0.2148,0.2161
8782,-0.1227,0.0382,0.0250,1.00,-0.39,0.93,0.214,2.508,4.783,2.858,-0.2164,0.2160
8792,-0.1263,0.0410,0.0180,0.95,-0.39,0.97,0.214,2.663,6.177,2.673,-0.2171,0.2160
8802,-0.1268,0.0379,0.0177,0.98,-0.43,0.99,0.214,2.970,3.777,2.835,-0.2192,0.2176
8812,-0.1270,0.0346,0.0179,1.00,-0.48,1.02,0.214,1.830,2.766,2.295,-0.2196,0.2158
8822,-0.1244,0.0316,0.0182,1.03,-0.54,1.04,0.217,-2.646,1.067,2.033,-0.2217,0.2171
8832,-0.1262,0.0342,0.0181,1.04,-0.57,1.08,0.217,1.393,-0.780,3.051,-0.2232,0.2171
8842,-0.1222,0.0252,0.0183,1.12,-0.62,1.10,0.217,2.026,-0.408,2.917,-0.2237,0.2171
8852,-0.1240,0.0266,0.0186,1.10,-0.64,1.13,0.217,-3.463,-0.726,3.860,-0.2251,0.2180
8862,-0.1233,0.0238,0.0188,1.09,-0.62,1.15,0.217,-1.575,0.497,2.543,-0.2264,0.2189
8872,-0.1197,0.0211,0.0190,1.10,-0.62,1.18,0.220,-2.445,0.351,2.621,-0.2282,0.2185
8882,-0.1192,0.0217,0.0190,1.07,-0.61,1.21,0.220,-0.091,-1.707,1.860,-0.2292,0.2186
8892,-0.1187,0.0220,0.0238,1.04,-0.61,1.24,0.220,-4.757,-3.249,1.820,-0.2306,0.2187
8902,-0.1196,0.0182,0.0236,1.03,-0.60,1.27,0.220,-3.170,-0.017,2.758,-0.2312,0.2193
8912,-0.1177,0.0160,0.0238,1.01,-0.59,1.29,0.220,-1.603,0.415,2.085,-0.2323,0.2194
8922,-0.1176,0.0140,0.0241,0.99,-0.55,1.31,0.214,-0.035,1.093,2.383,-0.2341,0.2184
8932,-0.1144,0.0139,0.0243,0.94,-0.57,1.33,0.214,1.636,4.672,3.131,-0.2353,0.2185
8942,-0.1180,0.0148,0.0241,0.93,-0.54,1.33,0.214,2.468,3.932,1.340,-0.2370,0.2204
8952,-0.1156,0.0085,0.0099,0.96,-0.55,1.35,0.214,-0.438,3.978,1.104,-0.2386,0.2195
8962,-0.1177,0.0121,0.0099,0.93,-0.55,1.38,0.214,2.222,4.775,1.466,-0.2394,0.2195
8972,-0.1156,0.0113,0.0101,0.94,-0.60,1.40,0.224,2.320,2.194,2.553,-0.2416,0.2185
8982,-0.1160,0.0065,0.0102,0.98,-0.61,1.42,0.224,1.834,2.205,1.648,-0.2424,0.2176
8992,-0.1138,0.0043,0.0237,0.99,-0.67,1.44,0.224,-0.245,3.990,1.854,-0.2445,0.2184
9002,-0.1159,-0.0007,0.0237,1.03,-0.70,1.46,0.224,-0.300,1.727,1.494,-0.2454,0.2183
9012,-0.1136,-0.0053,0.0241,1.07,-0.73,1.48,0.224,-1.591,2.217,1.457,-0.2466,0.2183
9022,-0.1155,-0.0043,0.0242,1.07,-0.74,1.50,0.219,-2.610,0.255,1.807,-0.2484,0.2188
9032,-0.1132,-0.0060,0.0246,1.07,-0.78,1.52,0.219,-1.920,1.053,2.514,-0.2501,0.2201
9041,-0.1122,-0.0076,0.0250,1.07,-0.80,1.54,0.219,-1.435,2.338,1.019,-0.2513,0.2200
9052,-0.1130,-0.0075,0.0189,1.06,-0.81,1.56,0.219,-1.581,-0.221,1.546,-0.2522,0.2183
9062,-0.1138,-0.0047,0.0190,1.00,-0.79,1.57,0.219,-3.508,3.112,2.609,-0.2543,0.2184
9071,-0.1124,-0.0064,0.0190,0.98,-0.80,1.60,0.221,-1.094,-0.265,1.628,-0.2547,0.2184
9082,-0.1102,-0.0134,0.0190,1.00,-0.82,1.62,0.221,-3.174,-0.066,2.090,-0.2566,0.2180
9092,-0.1122,-0.0144,0.0181,0.97,-0.80,1.63,0.221,-1.763,-1.277,1.949,-0.2571,0.2177
9102,-0.1086,-0.0155,0.0177,0.94,-0.84,1.66,0.221,-2.703,1.374,2.082,-0.2580,0.2177
9112,-0.1095,-0.0178,0.0176,0.93,-0.84,1.68,0.221,-1.475,-0.929,0.379,-0.2598,0.2182
9121,-0.1062,-0.0199,0.0177,0.91,-0.84,1.70,0.219,-0.860,1.821,1.262,-0.2611,0.2169
9132,-0.1042,-0.0206,0.0175,0.89,-0.83,1.71,0.219,-0.015,0.255,0.289,-0.2615,0.2169
9142,-0.1054,-0.0198,0.0168,0.85,-0.82,1.74,0.219,-0.020,-0.194,1.045,-0.2634,0.2172
9152,-0.1046,-0.0249,0.0091,0.85,-0.81,1.75,0.219,0.846,-0.233,0.694,-0.2643,0.2172
9162,-0.1013,-0.0253,0.0091,0.84,-0.84,1.76,0.219,0.907,0.344,-0.014,-0.2651,0.2153
9172,-0.1025,-0.0247,0.0086,0.82,-0.83,1.76,0.221,1.021,0.561,0.449,-0.2665,0.2153
9182,-0.1007,-0.0254,0.0081,0.83,-0.83,1.77,0.221,0.737,0.435,-0.566,-0.2679,0.2157
9192,-0.0988,-0.0321,0.0076,0.86,-0.83,1.78,0.221,-1.270,-2.768,-0.701,-0.2684,0.2161
9202,-0.0986,-0.0326,0.0077,0.87,-0.82,1.79,0.221,-2.043,-1.790,-0.681,-0.2694,0.2158
9212,-0.0985,-0.0316,0.0075,0.86,-0.81,1.79,0.221,-0.542,0.307,-1.029,-0.2707,0.2153
9221,-0.0957,-0.0305,0.0073,0.84,-0.83,1.78,0.222,2.199,2.167,-1.069,-0.2720,0.2164
9232,-0.0971,-0.0322,0.0071,0.83,-0.80,1.78,0.222,1.619,2.356,-1.341,-0.2733,0.2163
9241,-0.0940,-0.0339,0.0072,0.82,-0.79,1.77,0.222,2.267,2.787,-1.966,-0.2746,0.2153
9251,-0.0940,-0.0302,0.0084,0.78,-0.78,1.76,0.222,1.458,3.701,-1.387,-0.2750,0.2152
9262,-0.0938,-0.0310,0.0086,0.79,-0.79,1.75,0.222,0.883,2.421,-2.384,-0.2754,0.2147
9271,-0.0935,-0.0345,0.0086,0.82,-0.80,1.74,0.221,0.517,-0.581,-2.980,-0.2777,0.2163
9282,-0.0903,-0.0350,0.0089,0.82,-0.84,1.72,0.221,-0.723,-0.386,-2.457,-0.2782,0.2163
9292,-0.0868,-0.0370,0.0071,0.85,-0.88,1.70,0.221,-2.059,-1.475,-2.725,-0.2796,0.2155
