time_ms,vel_x,vel_y,vel_z,roll,pitch,yaw,range_z,gyro_x,gyro_y,gyro_z
0,-0.0006,-0.0307,-0.0003,0.49,-0.09,-36.56,0.010,0.150,-0.206,-0.069
0,0.0165,-0.0064,0.0038,0.25,-0.08,-36.53,0.010,0.103,0.048,0.128
0,0.0329,0.0016,0.0029,0.13,-0.15,-36.50,0.010,-0.283,-0.306,0.290
0,0.0361,0.0056,0.0028,0.09,-0.15,-36.46,0.010,0.057,0.291,-0.088
0,0.0321,0.0020,0.0033,0.14,-0.14,-36.42,0.010,-0.082,-0.156,-0.186
0,0.0273,-0.0009,0.0051,0.18,-0.11,-36.38,0.010,0.024,0.008,0.153
0,0.0316,0.0067,0.0049,0.12,-0.11,-36.35,0.010,-0.079,0.115,0.303
0,0.0268,-0.0019,0.0055,0.20,-0.11,-36.31,0.010,-0.039,-0.124,0.130
0,0.0301,0.0065,0.0055,0.13,-0.10,-36.28,0.012,-0.093,0.178,0.119
0,0.0253,0.0034,0.0060,0.18,-0.08,-36.24,0.012,-0.073,0.175,0.101
0,0.0161,0.0040,0.0064,0.22,-0.02,-36.20,0.012,-0.091,-0.152,-0.033
0,0.0195,-0.0153,0.0109,0.34,-0.13,-36.16,0.012,0.029,-0.146,-0.084
0,0.0131,-0.0171,0.0111,0.38,-0.09,-36.13,0.012,-0.075,0.057,-0.060
0,-0.0067,-0.0426,0.0104,0.64,-0.08,-36.09,0.010,0.020,-0.174,0.056
1,-0.0052,-0.0444,0.0102,0.64,-0.10,-36.05,0.010,-0.200,-0.005,0.130
1,0.0023,-0.0362,0.0082,0.55,-0.11,-36.02,0.010,-0.118,0.219,-0.121
1,-0.0038,-0.0411,0.0079,0.61,-0.09,-35.98,0.010,-0.021,-0.035,0.219
1,-0.0061,-0.0332,0.0084,0.57,-0.04,-35.95,0.010,0.079,0.141,-0.194
1,-0.0055,-0.0333,0.0085,0.57,-0.04,-35.91,0.011,0.078,-0.004,-0.080
1,-0.0055,-0.0336,0.0085,0.57,-0.04,-35.87,0.011,-0.068,-0.078,0.074
1,-0.0004,-0.0354,0.0086,0.56,-0.08,-35.84,0.011,0.095,0.071,0.130
1,0.0148,-0.0127,0.0087,0.34,-0.07,-35.81,0.011,0.078,0.093,-0.085
1,0.0152,-0.0025,0.0089,0.27,-0.02,-35.78,0.011,0.008,-0.052,0.225
1,0.0121,-0.0034,0.0091,0.29,-0.01,-35.74,0.011,-0.027,0.035,0.145
1,0.0019,-0.0164,0.0096,0.43,-0.00,-35.70,0.011,-0.213,-0.041,-0.092
1,0.0046,-0.0116,0.0081,0.38,0.00,-35.67,0.011,0.150,0.073,-0.002
1,0.0117,-0.0004,0.0083,0.28,0.01,-35.63,0.011,-0.021,-0.113,0.065
1,0.0091,0.0013,0.0083,0.28,0.03,-35.60,0.011,0.229,0.050,-0.176
1,0.0340,0.0210,0.0077,0.04,-0.04,-35.57,0.011,0.111,0.169,0.079
2,0.0360,0.0252,0.0076,0.01,-0.03,-35.54,0.011,-0.285,-0.149,-0.105
2,0.0375,0.0223,0.0059,0.03,-0.05,-35.50,0.011,0.124,0.268,0.083
2,0.0307,0.0122,0.0067,0.13,-0.06,-35.46,0.011,-0.198,-0.259,0.175
2,0.0295,0.0221,0.0066,0.08,-0.00,-35.43,0.011,-0.133,-0.117,0.107
2,0.0297,0.0232,0.0066,0.08,-0.00,-35.40,0.013,-0.305,0.111,0.238
2,0.0300,0.0237,0.0065,0.08,-0.00,-35.36,0.013,0.235,0.279,-0.136
2,0.0229,0.0150,0.0096,0.17,0.01,-35.32,0.013,0.090,0.058,0.378
2,0.0239,0.0175,0.0097,0.16,0.01,-35.29,0.013,-0.022,-0.093,0.111
2,0.0205,0.0198,0.0099,0.16,0.04,-35.26,0.013,-0.057,0.151,0.076
2,0.0250,0.0198,0.0097,0.14,0.02,-35.22,0.010,0.038,-0.231,-0.227
2,0.0231,0.0196,0.0098,0.16,0.03,-35.18,0.010,0.120,0.000,-0.247
2,0.0226,0.0197,0.0099,0.16,0.03,-35.15,0.010,-0.179,0.006,0.014
2,0.0292,0.0135,0.0027,0.17,-0.04,-35.11,0.010,0.057,0.043,-0.067
2,0.0222,0.0172,0.0031,0.18,0.02,-35.08,0.010,-0.124,0.252,0.058
2,0.0171,0.0127,0.0035,0.24,0.03,-35.04,0.010,-0.116,-0.221,0.055
3,0.0169,0.0134,0.0034,0.24,0.03,-35.01,0.010,-0.036,-0.186,-0.187
3,0.0142,0.0101,-0.0007,0.27,0.03,-34.98,0.010,-0.284,-0.159,0.010
3,0.0195,0.0157,-0.0008,0.22,0.03,-34.94,0.010,0.008,0.148,-0.062
3,0.0166,0.0124,-0.0007,0.25,0.03,-34.91,0.010,0.093,0.357,-0.002
3,0.0173,0.0141,-0.0005,0.24,0.04,-34.87,0.010,-0.111,0.095,0.283
3,0.0173,0.0146,-0.0004,0.24,0.04,-34.84,0.010,-0.101,-0.084,0.132
3,0.0179,0.0062,-0.0002,0.29,-0.01,-34.80,0.010,-0.057,0.125,0.109
3,-0.0088,-0.0192,-0.0024,0.58,0.05,-34.77,0.010,0.172,0.095,-0.032
3,-0.0140,-0.0243,-0.0030,0.64,0.06,-34.74,0.010,0.120,-0.226,-0.114
3,-0.0166,-0.0280,-0.0031,0.67,0.06,-34.70,0.009,-0.127,0.173,0.242
3,-0.0142,-0.0281,-0.0026,0.65,0.04,-34.67,0.009,-0.067,0.121,-0.047
3,-0.0080,-0.0184,-0.0053,0.56,0.04,-34.63,0.009,0.101,-0.026,-0.032
3,-0.0071,-0.0205,-0.0054,0.57,0.03,-34.60,0.009,0.117,0.094,0.300
3,-0.0144,-0.0223,-0.0057,0.61,0.06,-34.56,0.009,-0.091,0.053,-0.211
3,-0.0146,-0.0225,-0.0056,0.61,0.07,-34.53,0.008,-0.044,-0.236,0.164
3,-0.0146,-0.0226,-0.0054,0.61,0.07,-34.49,0.008,0.083,-0.096,-0.023
3,-0.0050,-0.0148,-0.0047,0.51,0.04,-34.46,0.008,-0.218,-0.265,0.019
3,-0.0068,-0.0167,-0.0087,0.53,0.04,-34.43,0.008,-0.073,-0.083,-0.274
3,-0.0118,-0.0152,-0.0087,0.54,0.08,-34.39,0.008,-0.108,-0.142,-0.161
3,-0.0119,-0.0153,-0.0085,0.54,0.08,-34.36,0.010,0.194,0.282,-0.117
3,-0.0050,-0.0159,-0.0083,0.51,0.04,-34.33,0.010,0.001,0.117,-0.148
3,-0.0110,-0.0197,-0.0056,0.56,0.06,-34.29,0.010,-0.095,0.035,0.100
3,-0.0073,-0.0076,-0.0054,0.47,0.09,-34.26,0.010,-0.070,0.121,0.029
3,-0.0072,-0.0075,-0.0057,0.46,0.08,-34.22,0.010,0.102,-0.104,0.181
4,-0.0114,-0.0162,-0.0060,0.54,0.07,-34.19,0.010,0.021,-0.343,0.011
4,-0.0080,-0.0112,-0.0058,0.49,0.07,-34.16,0.010,-0.192,-0.205,0.199
4,-0.0097,-0.0274,-0.0059,0.60,0.02,-34.12,0.010,-0.243,0.260,-0.084
4,-0.0265,-0.0204,-0.0033,0.62,0.16,-34.09,0.010,0.098,-0.108,0.236
4,-0.0212,-0.0178,-0.0028,0.58,0.13,-34.05,0.010,0.000,0.241,0.265
4,-0.0293,-0.0212,-0.0030,0.63,0.17,-34.02,0.011,-0.041,-0.008,-0.138
4,-0.0195,0.0015,-0.0017,0.44,0.20,-33.98,0.011,-0.037,0.167,-0.091
4,-0.0185,-0.0030,0.0018,0.47,0.17,-33.95,0.011,-0.019,0.070,-0.227
4,-0.0137,0.0051,0.0019,0.39,0.17,-33.91,0.011,0.079,0.173,-0.042
4,-0.0148,0.0047,0.0020,0.40,0.17,-33.88,0.011,0.179,-0.079,-0.089
4,-0.0181,-0.0014,0.0022,0.45,0.17,-33.85,0.008,-0.005,-0.086,0.100
4,-0.0182,-0.0015,0.0024,0.45,0.16,-33.81,0.008,-0.117,-0.041,-0.265
4,-0.0230,-0.0143,0.0023,0.56,0.14,-33.78,0.008,0.173,0.032,0.106
4,-0.0210,-0.0098,-0.0029,0.52,0.14,-33.75,0.008,-0.089,0.053,-0.011
4,-0.0189,-0.0054,-0.0027,0.48,0.15,-33.71,0.008,0.050,0.008,0.128
4,-0.0154,0.0053,-0.0023,0.40,0.17,-33.68,0.009,-0.106,0.062,-0.258
4,-0.0154,0.0055,-0.0021,0.40,0.17,-33.65,0.009,-0.054,-0.032,0.065
4,-0.0146,0.0006,-0.0025,0.42,0.14,-33.61,0.009,0.318,-0.043,-0.008
4,0.0059,0.0236,-0.0025,0.19,0.11,-33.58,0.009,-0.189,0.074,0.020
4,-0.0210,0.0254,-0.0021,0.29,0.29,-33.55,0.009,0.119,0.259,0.265
4,-0.0226,0.0204,-0.0016,0.34,0.28,-33.51,0.009,0.009,0.076,0.054
4,-0.0213,0.0311,-0.0018,0.26,0.31,-33.48,0.009,-0.022,-0.007,-0.004
4,-0.0156,0.0062,0.0004,0.40,0.16,-33.45,0.009,-0.082,-0.124,-0.074
4,-0.0177,0.0124,-0.0007,0.37,0.20,-33.41,0.009,-0.040,-0.221,-0.284
4,-0.0139,0.0187,-0.0008,0.31,0.20,-33.38,0.009,-0.149,-0.193,0.100
4,-0.0160,0.0199,-0.0009,0.32,0.22,-33.35,0.011,0.217,-0.050,-0.242
4,-0.0127,0.0232,-0.0009,0.28,0.21,-33.31,0.011,0.165,-0.019,-0.224
4,-0.0123,0.0180,0.0033,0.31,0.18,-33.28,0.011,0.034,0.060,0.032
4,-0.0137,0.0100,0.0036,0.37,0.15,-33.25,0.011,-0.209,-0.116,0.070
4,-0.0174,0.0138,0.0035,0.37,0.19,-33.22,0.011,0.139,-0.018,-0.093
4,-0.0175,0.0140,0.0036,0.37,0.19,-33.19,0.010,-0.358,0.205,0.307
4,-0.0176,0.0139,0.0036,0.37,0.19,-33.16,0.010,-0.073,-0.171,-0.169
4,-0.0031,0.0190,0.0041,0.27,0.11,-33.12,0.010,-0.089,-0.033,-0.050
4,0.0042,0.0293,0.0035,0.17,0.11,-33.08,0.010,-0.145,-0.173,-0.203
5,-0.0148,0.0059,0.0046,0.41,0.13,-33.06,0.010,0.082,0.312,0.128
5,-0.0154,0.0036,0.0047,0.43,0.12,-33.03,0.009,-0.072,0.101,0.322
5,-0.0126,0.0065,0.0050,0.40,0.12,-32.99,0.009,0.084,0.313,-0.119
5,-0.0107,0.0083,0.0019,0.38,0.11,-32.96,0.009,-0.174,-0.290,-0.319
5,0.0019,0.0267,0.0021,0.20,0.10,-32.92,0.009,0.293,-0.151,-0.230
5,-0.0045,0.0352,0.0018,0.17,0.18,-32.89,0.009,0.098,0.258,0.013
5,-0.0021,0.0241,0.0024,0.24,0.11,-32.86,0.010,0.075,-0.281,-0.067
5,0.0008,0.0296,0.0023,0.19,0.12,-32.83,0.010,-0.069,0.087,-0.185
5,-0.0036,0.0102,0.0029,0.34,0.06,-32.80,0.010,-0.129,0.007,0.274
5,-0.0166,-0.0106,0.0028,0.54,0.06,-32.77,0.010,0.123,-0.210,-0.052
5,-0.0408,-0.0382,0.0010,0.82,0.10,-32.75,0.010,-0.040,0.108,0.187
5,-0.0370,-0.0337,0.0017,0.77,0.09,-32.71,0.009,0.087,0.445,0.017
5,-0.0338,-0.0319,0.0020,0.74,0.08,-32.68,0.009,-0.066,0.251,-0.020
5,-0.0340,-0.0324,-0.0005,0.74,0.08,-32.65,0.009,-0.132,0.002,0.396
5,-0.0461,-0.0665,-0.0031,1.00,0.01,-32.62,0.009,0.071,0.154,-0.421
5,-0.0466,-0.0673,-0.0030,1.00,0.01,-32.59,0.009,-0.079,0.246,0.262
5,-0.0475,-0.0696,-0.0031,1.01,0.01,-32.55,0.008,-0.018,0.142,-0.099
5,-0.0471,-0.0652,-0.0022,0.97,0.03,-32.52,0.008,0.092,0.120,0.045
5,-0.0385,-0.0642,-0.0047,0.92,-0.02,-32.49,0.008,-0.180,-0.018,0.314
5,-0.0455,-0.0865,-0.0070,1.09,-0.07,-32.46,0.008,0.004,0.049,0.054
5,-0.0608,-0.1100,-0.0112,1.31,-0.07,-32.46,0.008,0.041,0.010,-0.125
5,-0.0584,-0.1033,-0.0091,1.24,-0.06,-32.43,0.012,-0.004,0.333,0.015
5,-0.0536,-0.0955,-0.0067,1.16,-0.05,-32.39,0.012,-0.045,-0.009,0.177
5,-0.0547,-0.0992,0.0013,1.17,-0.06,-32.36,0.012,0.289,-0.049,-0.251
5,-0.0495,-0.0950,0.0023,1.11,-0.08,-32.33,0.012,0.111,0.035,-0.022
5,-0.0449,-0.0918,0.0032,1.06,-0.09,-32.30,0.012,-0.159,-0.165,0.230
5,-0.0491,-0.0848,0.0039,1.02,-0.03,-32.26,0.009,-0.069,-0.202,0.117
5,-0.0413,-0.0746,0.0062,0.92,-0.03,-32.23,0.009,0.087,0.100,0.196
5,-0.0337,-0.0731,0.0071,0.87,-0.08,-32.21,0.009,0.046,-0.028,-0.336
5,-0.0378,-0.0790,0.0023,0.92,-0.07,-32.17,0.009,0.125,0.041,-0.163
5,-0.0384,-0.0685,0.0034,0.85,-0.02,-32.14,0.009,0.068,0.071,0.229
5,-0.0376,-0.0607,0.0044,0.79,0.01,-32.10,0.011,0.225,-0.013,-0.282
5,-0.0357,-0.0621,0.0045,0.78,-0.01,-32.07,0.011,-0.242,0.257,0.454
6,-0.0256,-0.0632,0.0063,0.74,-0.08,-32.05,0.011,-0.060,-0.042,0.191
6,-0.0226,-0.0535,0.0072,0.66,-0.06,-32.02,0.011,-0.118,0.070,0.149
6,-0.0248,-0.0500,0.0077,0.64,-0.03,-31.98,0.011,0.096,-0.024,0.078
6,-0.0289,-0.0561,0.0073,0.70,-0.03,-31.95,0.011,-0.067,-0.115,0.044
6,-0.0227,-0.0459,0.0086,0.59,-0.02,-31.92,0.011,-0.079,0.218,-0.130
6,-0.0073,-0.0165,0.0112,0.32,-0.00,-31.89,0.011,0.074,-0.025,-0.031
6,-0.0166,-0.0183,0.0100,0.38,0.05,-31.85,0.011,-0.117,0.142,0.407
6,-0.0198,-0.0108,0.0100,0.34,0.10,-31.82,0.011,-0.033,-0.098,-0.036
6,-0.0240,-0.0293,0.0100,0.48,0.05,-31.79,0.009,-0.089,-0.220,0.099
6,-0.0255,-0.0301,0.0100,0.49,0.06,-31.75,0.009,0.149,-0.026,-0.043
6,-0.0247,-0.0292,0.0041,0.48,0.06,-31.72,0.009,-0.356,0.062,0.108
6,-0.0236,-0.0235,0.0042,0.44,0.07,-31.69,0.009,-0.059,0.070,0.056
6,-0.0226,-0.0247,0.0044,0.44,0.06,-31.66,0.009,0.135,0.213,-0.055
6,-0.0183,-0.0226,0.0048,0.41,0.04,-31.63,0.006,-0.168,0.214,-0.021
6,-0.0166,-0.0246,0.0050,0.41,0.02,-31.57,0.006,-0.016,0.173,0.162
6,-0.0249,-0.0425,0.0041,0.57,0.00,-31.57,0.006,0.032,0.141,0.035
6,-0.0416,-0.0720,-0.0096,0.84,-0.01,-31.50,0.006,-0.211,-0.014,0.206
6,-0.0228,-0.0731,-0.0085,0.77,-0.14,-31.51,0.006,0.148,0.145,-0.128
6,-0.0204,-0.0723,-0.0080,0.74,-0.15,-31.45,0.010,-0.094,0.059,-0.107
6,-0.0164,-0.0701,-0.0076,0.71,-0.17,-31.45,0.010,0.054,-0.199,0.120
6,-0.0207,-0.0629,-0.0038,0.67,-0.11,-31.38,0.010,-0.033,0.259,-0.054
6,-0.0254,-0.0691,-0.0045,0.73,-0.10,-31.38,0.010,-0.069,0.191,0.035
6,-0.0288,-0.0734,-0.0052,0.77,-0.09,-31.35,0.010,-0.031,0.170,0.139
6,-0.0119,-0.0513,-0.0016,0.55,-0.11,-31.32,0.010,0.046,-0.280,-0.024
6,-0.0189,-0.0613,-0.0025,0.64,-0.11,-31.29,0.010,-0.056,0.051,0.197
6,-0.0099,-0.0430,0.0002,0.48,-0.09,-31.26,0.010,0.288,-0.130,0.205
6,0.0226,-0.0239,0.0023,0.22,-0.23,-31.24,0.010,0.362,0.016,-0.404
6,0.0182,-0.0244,0.0028,0.25,-0.20,-31.21,0.010,0.070,-0.144,-0.221
6,0.0266,-0.0083,0.0030,0.10,-0.18,-31.19,0.012,0.151,0.255,0.309
6,0.0215,-0.0170,0.0036,0.19,-0.18,-31.15,0.012,-0.142,-0.140,-0.096
6,0.0200,-0.0156,0.0080,0.19,-0.16,-31.12,0.012,-0.220,0.329,0.154
6,0.0267,-0.0071,0.0079,0.11,-0.17,-31.10,0.012,-0.096,0.165,0.207
6,0.0205,-0.0084,0.0085,0.15,-0.13,-31.06,0.012,0.020,0.029,0.067
7,0.0193,-0.0085,0.0086,0.16,-0.12,-31.03,0.007,0.010,0.017,0.042
7,0.0202,-0.0099,0.0086,0.17,-0.13,-31.00,0.007,-0.204,0.203,0.003
7,0.0232,-0.0033,0.0085,0.11,-0.12,-30.97,0.007,-0.034,0.175,0.147
7,0.0383,0.0087,-0.0015,-0.02,-0.17,-30.94,0.007,-0.150,0.152,-0.039
7,0.0362,0.0156,-0.0012,-0.06,-0.12,-30.92,0.007,0.028,-0.058,-0.294
7,0.0465,0.0435,-0.0030,-0.29,-0.08,-30.90,0.006,0.015,0.093,0.106
7,0.0443,0.0373,-0.0017,-0.23,-0.09,-30.87,0.006,-0.095,0.194,-0.298
7,0.0469,0.0438,-0.0091,-0.27,-0.08,-30.84,0.006,0.094,0.252,0.186
7,0.0460,0.0418,-0.0087,-0.25,-0.08,-30.81,0.006,0.019,0.264,0.037
7,0.0425,0.0353,-0.0077,-0.17,-0.08,-30.77,0.006,-0.233,0.451,0.089
7,0.0374,0.0326,-0.0071,-0.12,-0.06,-30.74,0.007,-0.221,-0.329,0.210
7,0.0380,0.0334,-0.0071,-0.12,-0.06,-30.71,0.007,0.261,0.063,-0.011
7,0.0692,0.0466,-0.0102,-0.34,-0.23,-30.67,0.007,0.172,0.154,-0.042
7,0.0737,0.0459,-0.0109,-0.34,-0.26,-30.64,0.007,0.224,0.204,0.093
7,0.0622,0.0522,-0.0099,-0.33,-0.15,-30.62,0.007,-0.175,0.151,0.091
7,0.0677,0.0641,-0.0114,-0.42,-0.14,-30.59,0.009,0.097,0.028,-0.142
7,0.0671,0.0657,-0.0113,-0.42,-0.13,-30.57,0.009,0.056,0.114,0.208
7,0.0654,0.0603,-0.0050,-0.36,-0.14,-30.53,0.009,-0.113,-0.080,-0.062
7,0.0624,0.0621,-0.0046,-0.35,-0.11,-30.50,0.009,0.128,0.136,0.052
7,0.0575,0.0559,-0.0031,-0.27,-0.10,-30.47,0.009,0.084,-0.140,-0.041
7,0.0539,0.0519,-0.0023,-0.21,-0.09,-30.44,0.010,0.121,-0.252,-0.004
7,0.0513,0.0474,-0.0017,-0.16,-0.09,-30.41,0.010,0.062,-0.273,0.079
7,0.0541,0.0519,-0.0023,-0.20,-0.09,-30.38,0.010,-0.077,0.052,0.059
7,0.0584,0.0541,0.0018,-0.22,-0.11,-30.35,0.010,-0.195,0.110,0.081
7,0.0482,0.0501,0.0031,-0.14,-0.05,-30.32,0.010,-0.155,0.064,-0.118
7,0.0436,0.0393,0.0044,-0.04,-0.06,-30.29,0.008,-0.024,-0.130,0.013
7,0.0384,0.0437,0.0045,-0.04,-0.01,-30.27,0.008,-0.169,-0.153,0.211
7,0.0407,0.0448,0.0017,-0.05,-0.02,-30.24,0.008,-0.206,-0.305,0.203
7,0.0411,0.0457,0.0018,-0.05,-0.02,-30.21,0.008,0.039,-0.056,0.092
7,0.0350,0.0368,0.0027,0.05,-0.02,-30.17,0.008,-0.033,-0.236,-0.038
7,0.0352,0.0384,0.0025,0.04,-0.02,-30.14,0.010,0.148,-0.190,-0.250
7,0.0347,0.0361,0.0027,0.07,-0.02,-30.11,0.010,0.041,0.193,-0.138
7,0.0243,0.0191,0.0042,0.23,-0.02,-30.08,0.010,0.112,-0.063,-0.161
8,0.0085,-0.0023,0.0067,0.44,0.01,-30.05,0.010,-0.146,0.162,0.255
8,-0.0044,0.0120,0.0070,0.40,0.15,-30.04,0.010,-0.084,-0.168,0.166
8,-0.0009,0.0150,0.0071,0.37,0.14,-30.01,0.007,-0.007,0.252,-0.204
8,-0.0039,0.0092,0.0071,0.42,0.13,-29.98,0.007,0.129,-0.171,0.041
8,-0.0032,0.0124,0.0002,0.39,0.14,-29.95,0.007,0.003,0.190,0.115
8,-0.0202,-0.0244,0.0003,0.71,0.11,-29.92,0.007,-0.088,-0.091,0.150
8,-0.0223,-0.0284,0.0000,0.74,0.10,-29.89,0.007,0.243,0.018,-0.120
8,-0.0183,-0.0288,0.0004,0.72,0.07,-29.85,0.006,-0.091,0.295,0.075
8,-0.0193,-0.0210,0.0008,0.67,0.11,-29.83,0.006,0.296,-0.006,-0.098
8,-0.0184,-0.0268,-0.0056,0.70,0.08,-29.79,0.006,-0.162,-0.111,0.164
8,-0.0505,-0.0739,-0.0094,1.15,0.12,-29.77,0.006,-0.200,0.219,0.079
8,-0.0384,-0.1014,-0.0123,1.28,-0.08,-29.73,0.006,-0.244,0.153,-0.015
8,-0.0401,-0.1005,-0.0117,1.27,-0.06,-29.71,0.011,0.105,0.142,-0.201
8,-0.0387,-0.0921,-0.0092,1.19,-0.04,-29.68,0.011,0.173,0.221,-0.004
8,-0.0321,-0.0865,0.0023,1.11,-0.06,-29.65,0.011,0.020,0.038,-0.139
8,-0.0308,-0.0920,0.0018,1.13,-0.09,-29.62,0.011,-0.158,-0.113,0.208
8,-0.0344,-0.0788,0.0038,1.04,-0.01,-29.59,0.011,0.094,0.219,-0.173
8,-0.0329,-0.0820,0.0035,1.05,-0.03,-29.56,0.008,-0.073,-0.147,0.179
8,-0.0276,-0.0743,0.0052,0.96,-0.04,-29.53,0.008,0.015,0.020,0.125
8,-0.0205,-0.0679,0.0065,0.88,-0.06,-29.50,0.008,0.002,-0.027,0.131
8,-0.0307,-0.0712,0.0027,0.94,0.00,-29.47,0.008,-0.082,0.055,0.316
8,-0.0236,-0.0625,0.0040,0.84,-0.01,-29.44,0.008,-0.266,0.169,-0.047
8,-0.0238,-0.0632,0.0041,0.84,-0.01,-29.41,0.013,0.040,0.153,-0.248
8,-0.0251,-0.0697,0.0037,0.88,-0.02,-29.38,0.013,0.005,0.138,-0.131
8,-0.0250,-0.0639,0.0130,0.83,-0.00,-29.35,0.013,-0.280,-0.207,0.141
8,-0.0149,-0.0592,0.0140,0.75,-0.06,-29.33,0.013,-0.068,0.097,0.260
8,-0.0177,-0.0557,0.0145,0.73,-0.02,-29.29,0.013,-0.086,0.004,0.368
8,-0.0223,-0.0485,0.0150,0.70,0.04,-29.26,0.008,0.258,-0.197,-0.256
8,-0.0151,-0.0468,0.0154,0.65,-0.00,-29.23,0.008,-0.104,-0.079,0.079
8,-0.0108,-0.0426,0.0159,0.60,-0.02,-29.20,0.008,0.300,0.087,0.133
8,-0.0171,-0.0478,0.0074,0.67,0.01,-29.17,0.008,-0.124,0.123,0.470
8,-0.0125,-0.0063,0.0100,0.35,0.14,-29.13,0.008,-0.043,0.226,-0.024
8,-0.0145,-0.0176,0.0103,0.44,0.11,-29.11,0.011,0.027,0.261,0.335
8,0.0004,0.0039,0.0106,0.22,0.09,-29.07,0.011,0.242,0.019,-0.229
9,0.0028,0.0080,0.0101,0.19,0.09,-29.05,0.011,0.138,-0.110,-0.099
9,0.0030,0.0086,0.0100,0.19,0.08,-29.02,0.011,-0.374,-0.265,0.053
9,0.0044,0.0134,0.0099,0.15,0.09,-28.99,0.011,0.204,0.169,-0.168
9,0.0027,0.0099,0.0101,0.19,0.09,-28.96,0.009,-0.145,-0.251,-0.101
9,0.0052,0.0124,0.0099,0.16,0.08,-28.93,0.009,0.206,0.119,0.138
9,0.0015,-0.0036,0.0106,0.30,0.04,-28.91,0.009,0.111,0.043,-0.144
9,0.0017,0.0023,0.0049,0.26,0.06,-28.88,0.009,0.085,0.129,-0.123
9,0.0017,0.0053,0.0048,0.24,0.07,-28.85,0.009,-0.171,0.237,0.391
9,-0.0003,0.0067,0.0049,0.25,0.09,-28.82,0.010,0.076,-0.079,-0.488
9,0.0056,0.0073,0.0048,0.22,0.05,-28.80,0.010,-0.023,0.145,-0.101
9,0.0057,0.0123,0.0031,0.19,0.06,-28.77,0.010,-0.420,-0.188,0.193
9,-0.0005,0.0059,0.0034,0.26,0.08,-28.74,0.010,0.152,0.163,-0.152
9,-0.0003,0.0062,0.0034,0.26,0.08,-28.71,0.010,0.089,-0.191,-0.225
9,0.0046,0.0148,0.0034,0.18,0.08,-28.68,0.007,0.046,-0.278,-0.033
9,0.0074,0.0071,0.0036,0.23,0.03,-28.65,0.007,0.048,0.233,0.060
9,0.0065,0.0061,-0.0046,0.24,0.03,-28.63,0.007,0.150,-0.133,-0.269
9,0.0214,0.0410,-0.0049,-0.06,0.06,-28.59,0.007,0.033,0.088,0.116
9,0.0267,0.0426,-0.0053,-0.08,0.03,-28.56,0.007,-0.096,0.092,0.005
9,0.0205,0.0584,-0.0064,-0.16,0.13,-28.53,0.009,-0.001,0.176,-0.269
9,0.0177,0.0572,-0.0060,-0.13,0.15,-28.51,0.009,0.150,-0.110,-0.025
9,0.0175,0.0560,-0.0051,-0.11,0.15,-28.48,0.009,-0.102,0.148,0.132
9,0.0195,0.0590,-0.0057,-0.13,0.14,-28.45,0.009,0.066,-0.161,0.030
9,0.0183,0.0557,-0.0052,-0.10,0.13,-28.43,0.009,0.031,-0.043,0.026
9,0.0155,0.0493,-0.0043,-0.03,0.13,-28.40,0.009,-0.151,0.195,0.208
9,0.0166,0.0503,-0.0042,-0.03,0.13,-28.37,0.009,-0.011,0.124,0.239
9,0.0161,0.0610,-0.0051,-0.10,0.17,-28.34,0.009,-0.146,-0.172,0.126
9,0.0136,0.0557,-0.0036,-0.05,0.16,-28.31,0.009,-0.110,-0.082,-0.121
9,0.0123,0.0592,-0.0038,-0.06,0.18,-28.29,0.009,-0.363,0.090,0.069
9,0.0100,0.0513,-0.0029,0.01,0.17,-28.26,0.011,-0.217,-0.066,0.333
9,0.0079,0.0411,-0.0020,0.10,0.14,-28.23,0.011,0.110,-0.239,-0.073
9,0.0115,0.0464,0.0023,0.05,0.13,-28.20,0.011,-0.059,-0.010,0.039
9,0.0151,0.0524,0.0020,-0.00,0.13,-28.17,0.011,-0.080,0.065,-0.195
9,0.0288,0.0819,-0.0007,-0.26,0.14,-28.13,0.011,0.025,-0.192,-0.135
9,0.0290,0.0714,0.0011,-0.18,0.10,-28.11,0.010,-0.162,0.240,-0.011
10,0.0255,0.0760,0.0006,-0.19,0.14,-28.08,0.010,-0.172,0.239,-0.078
10,0.0325,0.0762,0.0003,-0.21,0.09,-28.05,0.010,-0.122,0.032,-0.113
10,0.0254,0.0646,0.0027,-0.09,0.09,-28.03,0.010,0.133,0.061,-0.075
10,0.0378,0.0848,0.0002,-0.28,0.08,-27.99,0.010,0.107,0.025,0.085
10,0.0316,0.0750,0.0023,-0.18,0.08,-27.97,0.008,0.308,0.129,0.016
10,0.0342,0.0789,0.0020,-0.20,0.08,-27.94,0.008,0.223,0.010,-0.166
10,0.0246,0.0696,-0.0008,-0.09,0.11,-27.92,0.008,0.131,0.069,0.036
10,0.0351,0.0792,-0.0020,-0.19,0.07,-27.89,0.008,0.404,0.268,-0.141
10,0.0258,0.0613,0.0007,-0.02,0.07,-27.86,0.008,-0.019,-0.023,-0.142
10,0.0115,0.0456,0.0025,0.15,0.11,-27.85,0.011,-0.178,0.210,-0.081
10,0.0152,0.0465,0.0025,0.14,0.09,-27.82,0.011,-0.153,0.277,-0.112
10,0.0121,0.0398,0.0032,0.21,0.08,-27.79,0.011,0.155,0.058,-0.011
10,0.0136,0.0422,0.0056,0.19,0.08,-27.76,0.011,0.052,0.108,0.058
10,0.0120,0.0408,0.0060,0.21,0.08,-27.74,0.011,0.018,-0.037,-0.263
10,0.0123,0.0384,0.0063,0.22,0.07,-27.71,0.010,0.012,0.395,0.090
10,0.0096,0.0377,0.0064,0.24,0.09,-27.68,0.010,0.117,-0.142,-0.382
10,0.0081,0.0365,0.0046,0.26,0.09,-27.66,0.010,-0.312,-0.157,0.242
10,0.0180,0.0448,0.0041,0.16,0.05,-27.63,0.010,-0.346,0.067,0.415
10,0.0227,0.0654,0.0030,0.01,0.09,-27.60,0.010,0.400,-0.035,-0.311
10,0.0187,0.0591,0.0038,0.07,0.09,-27.57,0.008,0.091,0.158,0.012
10,0.0190,0.0585,0.0040,0.08,0.09,-27.54,0.008,-0.035,0.097,0.036
10,0.0137,0.0423,-0.0007,0.21,0.07,-27.52,0.008,0.263,-0.086,-0.117
10,0.0107,0.0364,-0.0003,0.26,0.06,-27.49,0.008,0.281,0.357,0.207
10,0.0134,0.0511,-0.0007,0.16,0.09,-27.46,0.008,-0.242,0.075,0.067
10,0.0114,0.0444,0.0002,0.21,0.08,-27.44,0.008,-0.160,0.142,0.014
10,0.0158,0.0375,0.0007,0.25,0.02,-27.41,0.008,-0.256,-0.111,0.373
10,0.0157,0.0544,-0.0041,0.13,0.08,-27.38,0.008,0.243,-0.109,-0.272
10,0.0168,0.0509,-0.0040,0.15,0.06,-27.35,0.008,-0.021,0.116,0.104
10,0.0110,0.0488,-0.0035,0.19,0.09,-27.32,0.008,0.157,0.146,0.116
10,0.0115,0.0488,-0.0033,0.20,0.09,-27.30,0.011,-0.195,-0.146,0.029
10,0.0104,0.0458,-0.0028,0.22,0.08,-27.27,0.011,-0.095,-0.036,0.074
10,0.0138,0.0417,-0.0024,0.24,0.04,-27.24,0.011,-0.198,-0.044,0.011
10,0.0162,0.0436,0.0022,0.22,0.03,-27.21,0.011,0.287,0.041,-0.094
11,0.0098,0.0432,0.0024,0.25,0.07,-27.19,0.011,-0.185,0.040,0.155
11,-0.0001,-0.0031,0.0000,-0.00,0.00,-0.00,0.006,0.038,-0.073,-0.199
11,0.0010,-0.0021,-0.0001,0.00,-0.00,-0.00,0.006,0.164,0.052,0.152
11,0.0030,0.0023,-0.0002,-0.02,-0.02,-0.00,0.006,-0.068,-0.074,0.048
11,0.0050,0.0030,-0.0001,-0.02,-0.05,-0.00,0.006,-0.215,0.118,0.433
11,-0.0011,-0.0010,-0.0000,0.07,0.06,-0.00,0.006,0.092,-0.178,0.053
11,-0.0012,-0.0003,0.0001,0.07,0.06,-0.00,0.007,0.169,-0.100,-0.003
11,-0.0013,0.0043,0.0002,-0.03,0.06,0.00,0.007,-0.294,0.276,0.057
11,0.0156,-0.0008,0.0003,0.12,-0.38,0.00,0.007,0.023,-0.063,0.013
11,0.0048,0.0281,0.0007,-0.63,-0.07,-0.00,0.007,0.085,0.237,-0.177
11,0.0045,0.0607,-0.0009,-1.47,-0.06,-0.00,0.007,-0.411,0.071,0.240
11,0.0010,0.0624,-0.0008,-1.43,0.04,-0.00,0.009,0.103,0.044,0.018
11,0.0043,0.0606,-0.0005,-1.29,-0.05,-0.00,0.009,0.040,-0.161,-0.055
11,0.0042,0.0638,0.0026,-1.29,-0.04,-0.00,0.009,-0.043,-0.025,0.108
11,0.0021,0.0558,0.0033,-0.99,0.02,-0.00,0.009,-0.089,0.316,-0.063
11,0.0038,0.0532,0.0035,-0.85,-0.03,-0.00,0.009,0.080,-0.319,-0.149
11,0.0054,0.0505,0.0038,-0.72,-0.07,0.00,0.007,-0.158,-0.023,0.080
11,0.0053,0.0535,0.0037,-0.75,-0.06,0.00,0.007,0.039,0.124,0.225
11,0.0107,0.0229,0.0054,0.10,-0.20,0.00,0.007,-0.030,-0.138,-0.158
11,0.0099,0.0471,0.0032,-0.50,-0.17,0.00,0.007,0.246,-0.123,-0.077
11,0.0031,0.0402,0.0037,-0.29,0.00,0.00,0.007,-0.297,0.001,-0.088
11,0.0027,0.0356,0.0039,-0.14,0.01,0.00,0.010,0.115,-0.067,-0.118
11,0.0044,0.0330,0.0041,-0.06,-0.03,0.00,0.010,0.039,-0.118,0.048
11,0.0020,0.0389,0.0091,-0.17,0.03,0.00,0.010,-0.084,-0.090,-0.358
11,0.0018,0.0197,0.0095,0.28,0.03,0.00,0.010,0.079,0.188,0.373
11,-0.0085,0.0261,0.0094,0.14,0.26,-0.00,0.010,-0.404,-0.144,0.400
11,0.0078,0.0242,0.0097,0.20,-0.11,-0.00,0.009,0.048,0.069,-0.146
11,0.0072,0.0204,0.0096,0.29,-0.09,0.00,0.009,0.004,0.083,-0.116
11,0.0068,0.0131,0.0088,0.45,-0.08,0.00,0.009,-0.429,0.205,0.066
11,0.0045,0.0479,0.0088,-0.23,-0.02,0.00,0.009,0.109,0.384,0.285
11,0.0062,0.1079,0.0047,-1.37,-0.05,0.00,0.009,-0.134,-0.202,0.341
11,0.0075,0.1029,0.0059,-1.21,-0.08,0.00,0.006,0.078,0.074,-0.178
11,0.0076,0.1058,0.0057,-1.21,-0.08,0.00,0.006,-0.060,-0.087,0.161
11,0.0070,0.0874,-0.0005,-0.82,-0.07,0.00,0.006,0.043,0.166,-0.339
12,0.0065,0.0851,0.0000,-0.74,-0.06,0.00,0.006,0.057,0.218,-0.028
12,0.0062,0.0771,0.0010,-0.57,-0.04,0.00,0.006,0.185,-0.107,-0.148
12,0.0017,0.0755,0.0013,-0.51,0.03,0.00,0.009,-0.018,0.110,-0.070
12,0.0053,0.0646,0.0025,-0.29,-0.03,0.00,0.009,0.024,0.220,-0.247
12,0.0105,0.0602,0.0031,-0.20,-0.11,0.00,0.009,0.220,-0.062,-0.270
12,-0.0032,0.0266,0.0054,0.37,0.11,0.00,0.009,-0.270,-0.262,-0.185
12,-0.0031,0.0607,0.0058,-0.17,0.10,0.00,0.009,-0.304,0.040,0.042
12,-0.0101,0.0585,0.0059,-0.11,0.21,-0.00,0.012,0.238,-0.086,0.156
12,0.0028,0.0599,0.0061,-0.12,0.01,-0.00,0.012,0.250,0.108,-0.195
12,0.0043,0.0529,0.0126,0.01,-0.01,-0.00,0.012,0.078,0.293,-0.096
12,0.0041,0.0817,0.0116,-0.41,-0.01,-0.00,0.012,0.031,0.288,-0.226
12,-0.0061,0.0883,0.0113,-0.48,0.14,0.00,0.012,0.061,-0.027,-0.113
12,-0.0009,0.0828,0.0122,-0.38,0.06,0.00,0.005,0.069,0.095,-0.031
12,-0.0025,0.0778,0.0129,-0.28,0.08,-0.00,0.005,-0.041,-0.002,0.025
12,0.0189,0.0469,0.0155,0.16,-0.21,-0.00,0.005,-0.016,0.153,0.024
12,0.0210,0.0808,-0.0000,-0.30,-0.24,-0.00,0.005,-0.022,-0.176,0.163
12,0.0184,0.0650,0.0014,-0.07,-0.20,-0.00,0.005,-0.031,0.092,0.170
21,0.0174,0.0830,0.0006,-0.29,-0.18,-0.00,0.009,-0.206,0.279,0.163
31,0.0179,0.0858,0.0006,-0.31,-0.18,-0.00,0.009,-0.115,0.147,-0.038
40,0.0168,0.0869,0.0010,-0.31,-0.17,-0.00,0.009,0.035,0.081,0.201
51,0.0189,0.0985,0.0002,-0.44,-0.19,-0.00,0.009,0.075,0.113,0.018
60,0.0165,0.0870,0.0019,-0.28,-0.16,-0.00,0.009,0.054,-0.154,-0.058
71,0.0171,0.0760,0.0031,-0.13,-0.16,0.00,0.007,0.056,0.002,0.080
81,0.0161,0.0761,0.0034,-0.11,-0.15,0.00,0.007,-0.021,0.373,0.247
91,0.0212,0.0730,0.0037,-0.07,-0.20,0.00,0.007,0.113,0.189,-0.051
100,0.0189,0.0684,-0.0010,-0.01,-0.17,0.00,0.007,-0.059,0.126,0.270
111,0.0066,0.0287,0.0013,0.48,-0.02,0.01,0.007,-0.086,-0.155,0.098
121,0.0065,0.0308,0.0014,0.45,-0.01,0.01,0.009,0.041,0.057,-0.010
130,0.0049,0.0187,0.0014,0.59,0.01,0.01,0.009,0.104,0.133,-0.273
141,0.0059,0.0189,0.0022,0.58,-0.00,0.01,0.009,-0.121,0.057,0.013
151,0.0056,0.0260,0.0022,0.50,-0.00,0.01,0.009,0.035,-0.040,-0.444
160,0.0053,0.0215,0.0024,0.55,0.00,0.01,0.009,0.132,-0.053,0.101
170,0.0035,0.0240,0.0025,0.52,0.02,0.01,0.010,-0.082,-0.319,-0.096
181,0.0036,0.0237,0.0024,0.52,0.02,0.01,0.010,-0.166,0.139,0.196
191,0.0034,0.0087,0.0026,0.68,0.02,0.01,0.010,-0.075,-0.211,-0.178
201,0.0090,0.0077,0.0051,0.69,-0.03,0.01,0.010,0.178,0.008,-0.530
211,0.0015,0.0111,0.0053,0.64,0.05,0.01,0.010,0.055,-0.087,-0.213
221,0.0026,0.0170,0.0055,0.58,0.03,0.01,0.010,-0.321,0.373,0.339
231,0.0023,0.0054,0.0057,0.69,0.04,0.01,0.010,-0.042,-0.052,0.076
240,0.0007,0.0075,0.0066,0.67,0.05,0.01,0.010,-0.006,-0.312,0.061
251,0.0063,-0.0200,0.0064,0.94,-0.00,0.01,0.010,-0.062,0.159,0.012
261,0.0019,-0.0375,0.0057,1.10,0.04,0.01,0.010,0.030,-0.077,0.209
271,0.0003,-0.0363,0.0059,1.07,0.06,0.01,0.007,0.108,0.039,-0.486
281,0.0016,-0.0362,0.0061,1.06,0.05,0.01,0.007,-0.170,0.242,0.020
291,0.0018,-0.0307,-0.0005,1.00,0.05,0.01,0.007,0.214,-0.253,-0.145
300,0.0148,-0.0336,-0.0006,1.02,-0.08,-0.00,0.007,0.056,-0.136,0.072
310,-0.0031,-0.0337,-0.0000,1.01,0.09,0.01,0.007,-0.009,0.280,0.038
321,-0.0019,-0.0285,0.0004,0.95,0.08,0.01,0.007,-0.039,-0.335,-0.006
331,-0.0020,-0.0303,0.0002,0.96,0.08,0.01,0.007,0.111,-0.198,-0.135
341,0.0005,-0.0305,-0.0038,0.95,0.05,0.00,0.007,0.034,-0.048,0.145
350,0.0029,-0.0307,-0.0037,0.94,0.03,0.00,0.007,0.057,-0.133,-0.040
360,0.0027,-0.0245,-0.0035,0.88,0.03,0.00,0.007,0.245,-0.153,-0.067
370,0.0012,-0.0162,-0.0032,0.79,0.05,0.00,0.009,0.326,-0.020,0.031
380,0.0011,-0.0208,-0.0034,0.83,0.05,0.00,0.009,-0.048,0.257,0.293
390,0.0047,-0.0027,-0.0031,0.66,0.02,0.00,0.009,-0.014,0.061,-0.138
401,0.0008,0.0069,-0.0012,0.57,0.06,0.00,0.009,0.124,0.044,-0.085
410,0.0007,0.0068,-0.0012,0.57,0.05,0.00,0.009,0.035,-0.093,-0.175
420,0.0031,0.0358,-0.0020,0.30,0.03,0.00,0.009,-0.076,-0.086,0.057
430,0.0068,0.0404,-0.0022,0.26,-0.00,0.00,0.009,-0.097,0.117,-0.235
440,0.0038,0.0381,-0.0004,0.28,0.02,0.00,0.009,0.064,0.064,-0.179
450,0.0048,0.0589,-0.0016,0.10,0.02,0.00,0.009,-0.060,-0.061,-0.124
460,0.0020,0.0610,-0.0016,0.08,0.04,0.01,0.009,-0.144,0.093,0.402
470,0.0031,0.0467,0.0001,0.22,0.03,0.00,0.007,-0.191,0.316,0.273
481,0.0015,0.0444,0.0005,0.24,0.04,0.00,0.007,0.071,-0.097,0.009
490,0.0053,0.1016,-0.0046,-0.26,0.01,0.00,0.007,-0.098,-0.202,0.146
500,0.0041,0.1043,-0.0065,-0.27,0.02,0.01,0.007,-0.130,-0.262,0.432
510,0.0027,0.1129,-0.0077,-0.34,0.03,0.01,0.007,0.165,0.016,-0.311
520,0.0013,0.1126,-0.0074,-0.32,0.05,0.01,0.009,0.085,0.089,-0.109
530,0.0047,0.1088,-0.0064,-0.28,0.02,0.01,0.009,0.080,-0.032,-0.135
540,0.0021,0.1041,-0.0016,-0.22,0.04,0.01,0.009,0.059,0.145,0.011
550,0.0008,0.0992,-0.0009,-0.17,0.05,0.01,0.009,0.102,0.112,-0.286
560,0.0019,0.0922,0.0001,-0.10,0.04,0.01,0.009,0.148,0.095,-0.076
570,-0.0006,0.0890,0.0007,-0.06,0.07,0.01,0.010,-0.232,0.170,0.218
580,0.0017,0.0848,0.0015,-0.01,0.04,0.00,0.010,0.070,-0.103,-0.156
590,0.0015,0.0795,0.0023,0.04,0.04,0.00,0.010,0.001,-0.009,-0.013
600,0.0062,0.0689,0.0064,0.14,0.00,0.00,0.010,0.068,0.120,-0.293
610,0.0025,0.0715,0.0063,0.12,0.04,0.00,0.010,-0.007,0.192,0.020
620,-0.0002,0.0678,0.0066,0.16,0.06,0.00,0.011,0.395,-0.008,-0.482
630,0.0034,0.0668,0.0070,0.17,0.03,-0.00,0.011,-0.046,-0.049,0.052
640,0.0032,0.0650,0.0102,0.19,0.03,-0.00,0.011,0.137,0.173,-0.022
650,0.0017,0.0618,0.0106,0.22,0.04,-0.00,0.011,0.108,0.025,0.273
660,0.0003,0.0526,0.0113,0.30,0.05,-0.01,0.011,-0.069,0.087,0.007
670,-0.0021,0.0558,0.0113,0.28,0.07,-0.01,0.010,0.255,-0.057,0.103
680,-0.0007,0.0526,0.0117,0.31,0.06,-0.00,0.010,-0.050,0.119,-0.268
690,0.0018,0.0460,0.0122,0.36,0.04,-0.01,0.010,-0.123,0.293,0.001
700,0.0030,0.0300,0.0105,0.49,0.03,-0.01,0.010,-0.085,-0.081,0.101
710,0.0052,0.0402,0.0104,0.41,0.01,-0.01,0.010,0.028,0.252,-0.125
720,0.0016,0.0382,0.0107,0.43,0.04,-0.01,0.007,-0.136,0.054,-0.233
730,-0.0009,0.0398,0.0110,0.41,0.06,-0.01,0.007,0.120,-0.190,0.137
740,0.0038,0.0398,0.0023,0.41,0.02,-0.01,0.007,0.011,-0.128,-0.007
750,-0.0035,0.0376,0.0024,0.43,0.08,-0.01,0.007,0.098,0.147,0.206
760,0.0003,0.0354,0.0026,0.45,0.05,-0.01,0.007,-0.021,0.123,-0.168
770,0.0005,0.0289,0.0031,0.50,0.05,-0.01,0.007,-0.227,0.190,0.029
780,0.0006,0.0308,0.0032,0.48,0.05,-0.01,0.007,-0.083,-0.058,0.040
790,-0.0006,0.0256,0.0036,0.53,0.06,-0.01,0.007,0.071,0.037,-0.130
800,0.0052,0.0215,-0.0027,0.56,0.01,-0.01,0.007,0.207,-0.243,-0.186
810,-0.0008,0.0259,-0.0026,0.52,0.06,-0.01,0.007,-0.240,-0.054,0.241
820,-0.0008,0.0258,-0.0026,0.52,0.06,-0.01,0.007,0.055,0.036,-0.159
830,0.0029,0.0243,-0.0025,0.53,0.03,-0.01,0.007,0.077,-0.169,-0.258
840,0.0030,0.0242,-0.0056,0.53,0.03,-0.01,0.007,-0.123,-0.269,-0.070
850,0.0029,0.0137,-0.0054,0.61,0.03,-0.01,0.007,-0.189,0.108,-0.133
860,-0.0010,0.0215,-0.0055,0.55,0.07,-0.01,0.007,-0.049,0.083,-0.034
870,-0.0023,0.0200,-0.0056,0.56,0.08,-0.01,0.012,0.301,-0.311,-0.345
880,-0.0007,0.0137,-0.0054,0.61,0.06,-0.01,0.012,0.258,-0.025,-0.032
890,0.0032,0.0311,-0.0057,0.46,0.03,-0.01,0.012,-0.169,0.232,0.401
900,0.0079,0.0246,0.0047,0.52,-0.00,-0.02,0.012,0.064,0.046,-0.040
910,0.0076,0.0208,0.0047,0.55,0.00,-0.02,0.012,-0.001,0.130,0.260
920,0.0060,-0.0104,0.0056,0.80,0.01,-0.02,0.010,0.012,-0.054,-0.068
930,0.0056,-0.0115,0.0057,0.80,0.01,-0.02,0.010,0.008,0.103,0.105
939,0.0029,-0.0162,0.0061,0.83,0.03,-0.02,0.010,0.087,-0.075,-0.221
950,0.0075,-0.0159,0.0061,0.83,-0.00,-0.02,0.010,0.184,0.116,-0.170
959,0.0025,-0.0122,0.0062,0.79,0.04,-0.02,0.010,0.014,-0.177,-0.026
969,0.0001,-0.0111,0.0062,0.77,0.06,-0.02,0.013,-0.270,0.138,0.252
980,0.0048,-0.0111,0.0063,0.77,0.02,-0.02,0.013,-0.004,0.058,0.270
990,0.0081,-0.0003,0.0067,0.68,-0.01,-0.02,0.013,0.224,-0.014,-0.154
1000,0.0064,0.0262,0.0128,0.46,0.01,-0.02,0.013,0.092,-0.218,-0.117
1010,0.0014,0.0641,0.0109,0.15,0.05,-0.02,0.013,0.019,-0.056,-0.111
1020,0.0070,0.0609,0.0112,0.18,0.00,-0.02,0.008,0.264,0.054,0.027
1029,-0.0039,0.0498,0.0126,0.27,0.09,-0.02,0.008,0.064,0.041,-0.035
1039,0.0068,0.0484,0.0043,0.29,0.00,-0.02,0.008,0.054,-0.098,0.092
1049,0.0030,0.0551,0.0039,0.23,0.03,-0.02,0.008,-0.109,0.115,-0.040
1059,0.0017,0.0523,0.0041,0.26,0.05,-0.02,0.008,-0.037,-0.097,-0.023
1070,0.0041,0.0451,0.0046,0.32,0.03,-0.02,0.011,0.246,0.180,-0.227
1080,0.0027,0.0474,0.0045,0.30,0.04,-0.02,0.011,0.141,-0.149,-0.226
1089,0.0001,0.0448,0.0048,0.32,0.06,-0.02,0.011,-0.177,0.181,0.099
1100,0.0003,0.0214,0.0064,0.51,0.06,-0.02,0.011,0.121,0.072,-0.289
1110,0.0016,0.0177,0.0064,0.54,0.05,-0.02,0.011,-0.044,0.281,0.212
1119,0.0015,0.0069,0.0067,0.62,0.05,-0.02,0.010,0.100,-0.009,-0.278
1129,0.0003,0.0048,0.0067,0.63,0.06,-0.02,0.010,-0.067,0.024,-0.030
1139,-0.0032,-0.0075,0.0036,0.72,0.08,-0.02,0.010,-0.157,0.280,0.157
1150,0.0015,-0.0180,0.0034,0.80,0.04,-0.02,0.010,-0.100,0.360,0.017
1159,-0.0011,-0.0569,0.0015,1.10,0.06,-0.03,0.010,-0.054,0.088,-0.152
1169,-0.0010,-0.0477,0.0028,1.02,0.06,-0.02,0.009,-0.205,0.291,0.258
1179,0.0004,-0.0506,0.0027,1.03,0.05,-0.02,0.009,0.326,-0.172,-0.205
1190,0.0074,-0.0478,0.0034,1.00,-0.01,-0.03,0.009,-0.196,-0.090,0.060
1199,-0.0020,-0.0437,-0.0004,0.96,0.07,-0.02,0.009,0.219,-0.022,-0.314
1209,-0.0008,-0.0456,-0.0006,0.97,0.06,-0.02,0.009,0.012,0.042,0.126
1219,-0.0008,-0.0465,-0.0006,0.97,0.06,-0.02,0.009,0.233,-0.014,-0.038
1230,0.0016,-0.0494,-0.0007,0.99,0.04,-0.02,0.009,-0.035,-0.249,-0.163
1240,0.0016,-0.0500,-0.0029,0.99,0.04,-0.02,0.009,-0.027,0.146,0.184
1249,0.0002,-0.0503,-0.0028,0.98,0.05,-0.02,0.009,0.154,-0.154,-0.249
1259,0.0002,-0.0371,-0.0017,0.87,0.05,-0.02,0.009,-0.147,0.121,0.198
1269,-0.0011,-0.0345,-0.0015,0.84,0.06,-0.02,0.012,0.105,0.012,0.074
1280,-0.0022,-0.0393,-0.0018,0.87,0.07,-0.02,0.012,0.004,-0.026,-0.090
1290,0.0123,-0.0245,-0.0010,0.75,-0.05,-0.02,0.012,0.170,-0.180,-0.116
1299,0.0021,-0.0478,0.0033,0.93,0.04,-0.02,0.012,0.052,-0.153,-0.108
1310,0.0246,-0.0303,0.0041,0.78,-0.14,-0.03,0.012,-0.053,0.157,-0.202
1320,0.0259,-0.0316,0.0040,0.79,-0.15,-0.03,0.010,-0.046,0.172,-0.272
1330,0.0258,-0.0328,0.0040,0.79,-0.15,-0.03,0.010,0.130,0.180,0.119
1340,0.0222,-0.0386,0.0017,0.83,-0.12,-0.03,0.010,-0.190,0.186,0.140
1350,0.0258,-0.0372,0.0018,0.81,-0.15,-0.03,0.010,0.263,0.368,0.084
1359,0.0152,-0.0205,0.0033,0.67,-0.06,-0.03,0.010,-0.161,-0.066,-0.425
1370,0.0204,-0.0371,0.0030,0.80,-0.11,-0.03,0.008,0.097,-0.064,0.133
1379,0.0175,-0.0264,0.0040,0.71,-0.08,-0.03,0.008,-0.117,0.014,0.095
1389,0.0169,-0.0231,0.0042,0.68,-0.07,-0.03,0.008,0.191,-0.229,0.060
1400,0.0265,-0.0451,-0.0036,0.85,-0.15,-0.03,0.008,-0.305,-0.162,0.015
1410,0.0149,-0.0434,-0.0029,0.83,-0.05,-0.03,0.008,0.109,-0.015,0.299
1419,0.0210,-0.0667,-0.0047,1.02,-0.10,-0.03,0.011,-0.052,0.300,0.084
1429,0.0199,-0.0627,-0.0040,0.98,-0.09,-0.03,0.011,0.225,-0.073,-0.151
1439,0.0201,-0.0568,-0.0002,0.92,-0.09,-0.03,0.011,0.178,0.060,0.036
1450,0.0203,-0.0819,-0.0022,1.11,-0.09,-0.03,0.011,0.044,0.038,-0.065
1460,0.0250,-0.1151,-0.0066,1.37,-0.12,-0.03,0.011,-0.086,0.212,-0.019
1470,0.0251,-0.1070,-0.0045,1.29,-0.12,-0.03,0.008,0.270,0.084,-0.178
1480,0.0230,-0.1026,-0.0030,1.24,-0.10,-0.03,0.008,-0.111,0.021,0.144
0,0.0276,-0.0960,-0.0015,1.18,-0.14,-0.03,0.008,0.093,-0.054,-0.208
9,0.0287,-0.0974,-0.0055,1.18,-0.15,-0.03,0.008,0.221,0.029,-0.093
19,0.0228,-0.0899,-0.0039,1.11,-0.10,-0.03,0.008,-0.116,-0.475,0.001
29,0.0204,-0.0896,-0.0037,1.10,-0.08,-0.03,0.009,-0.205,-1.049,-0.155
39,0.0181,-0.0857,-0.0030,1.06,-0.06,-0.03,0.009,-0.323,-0.296,0.420
49,0.0183,-0.0873,-0.0029,1.06,-0.05,-0.03,0.009,0.013,-0.425,-1.037
59,0.0160,-0.1171,-0.0056,1.27,-0.03,-0.02,0.009,-2.193,-2.218,-0.514
69,0.0115,-0.1451,-0.0104,1.46,0.02,-0.02,0.009,-2.523,-2.203,-0.774
80,0.0096,-0.1339,-0.0056,1.34,0.05,-0.02,0.009,-0.259,-1.708,-1.279
89,0.0064,-0.1331,-0.0043,1.30,0.10,-0.01,0.009,-2.738,-2.952,-1.500
99,0.0069,-0.1234,-0.0021,1.19,0.12,-0.02,0.009,-0.033,-8.995,-3.053
109,0.0108,-0.1471,-0.0055,1.35,0.10,-0.03,0.009,-2.585,-10.089,-3.858
120,0.0165,-0.1467,-0.0036,1.31,0.11,-0.05,0.009,3.034,-14.709,-5.850
130,0.0133,-0.1758,-0.0087,1.51,0.21,-0.09,0.008,-5.180,-18.198,-9.392
139,0.0136,-0.1609,-0.0019,1.37,0.32,-0.14,0.008,1.404,-22.913,-7.786
149,0.0083,-0.1613,-0.0011,1.34,0.52,-0.21,0.008,-7.452,-23.168,-5.475
159,0.0063,-0.1580,0.0040,1.26,0.71,-0.30,0.008,-18.323,-14.435,1.097
169,0.0044,-0.1518,0.0098,1.18,0.98,-0.37,0.008,-37.096,-2.319,3.736
179,-0.0007,-0.1413,0.0159,0.96,1.20,-0.41,0.009,-47.134,-3.255,0.336
189,-0.0028,-0.1302,0.0213,0.61,1.30,-0.38,0.009,-65.660,2.287,-1.322
199,-0.0039,-0.1162,0.0307,0.10,1.30,-0.35,0.009,-80.947,-3.285,-0.038
209,-0.0157,-0.1248,0.0353,-0.37,1.40,-0.35,0.009,-95.976,-1.574,4.860
219,-0.0197,-0.1353,0.0445,-1.00,1.40,-0.36,0.009,-103.797,-14.704,11.446
229,-0.0217,-0.1234,0.0581,-1.95,1.42,-0.34,0.008,-97.946,-18.871,13.893
239,-0.0340,-0.1494,0.0684,-2.70,1.56,-0.28,0.008,-85.583,-21.192,13.811
249,-0.0401,-0.1317,0.0777,-3.81,1.75,-0.14,0.008,-62.899,-30.436,11.798
259,-0.0786,-0.1361,0.0895,-4.68,2.21,0.01,0.008,-30.133,-43.702,11.436
269,-0.0878,-0.1163,0.1062,-5.54,2.47,0.17,0.008,4.507,-50.029,11.460
279,-0.1016,-0.0981,0.1194,-6.13,2.88,0.32,0.000,16.981,-54.313,11.318
289,-0.1109,-0.0834,0.1310,-6.34,3.36,0.49,0.000,24.055,-42.979,13.119
299,-0.1316,-0.0320,0.1382,-6.57,3.98,0.70,0.000,27.134,-18.493,8.079
309,-0.1350,-0.0072,0.1183,-6.47,4.45,0.90,0.000,39.360,3.328,7.926
319,-0.1544,0.0005,0.1290,-6.19,4.86,1.03,0.000,40.332,28.884,7.077
329,-0.1636,0.0183,0.1416,-5.94,4.96,1.12,0.002,37.589,52.483,7.184
339,-0.1761,0.0518,0.1512,-5.70,4.84,1.22,0.002,32.980,77.350,7.504
349,-0.1762,0.0743,0.1465,-5.40,4.39,1.30,0.002,23.854,94.039,8.746
359,-0.2023,0.1153,0.1530,-5.28,3.91,1.34,0.002,17.360,98.154,11.809
369,-0.2025,0.1341,0.1696,-5.06,2.99,1.38,0.002,24.857,101.095,10.584
379,-0.2203,0.1609,0.1770,-4.98,2.12,1.39,0.016,33.789,95.470,9.967
390,-0.2217,0.1778,0.1910,-4.83,1.09,1.44,0.016,46.002,91.335,9.320
399,-0.2367,0.2101,0.1926,-4.75,0.19,1.47,0.016,50.994,88.002,8.266
409,-0.2315,0.2243,0.2156,-4.42,-0.81,1.54,0.016,52.279,80.929,7.770
419,-0.2423,0.2525,0.2214,-4.10,-1.62,1.55,0.016,59.610,71.588,7.366
429,-0.2326,0.2606,0.2361,-3.57,-2.53,1.60,0.037,66.694,61.931,6.454
439,-0.2197,0.2749,0.2467,-3.08,-3.38,1.67,0.037,71.151,48.255,6.139
450,-0.2066,0.2786,0.2939,-2.33,-4.20,1.75,0.037,75.803,35.897,4.848
459,-0.2094,0.2957,0.2989,-1.76,-4.69,1.76,0.037,80.742,32.194,4.556
469,-0.1894,0.2890,0.3132,-0.94,-5.22,1.85,0.037,82.361,31.558,3.388
479,-0.1762,0.2907,0.3220,-0.15,-5.58,1.90,0.055,77.977,29.771,3.655
489,-0.1576,0.2813,0.3333,0.76,-5.97,1.99,0.055,80.725,25.324,3.711
499,-0.1463,0.2851,0.3543,1.55,-6.29,2.03,0.055,83.949,19.962,4.551
509,-0.1244,0.2725,0.3612,2.44,-6.65,2.13,0.055,80.597,14.040,5.199
519,-0.1179,0.2764,0.3606,2.41,-6.70,2.15,0.055,74.055,11.438,5.796
529,-0.0895,0.2544,0.3696,4.19,-7.12,2.29,0.083,66.704,8.893,5.498
539,-0.0859,0.2553,0.3695,4.19,-7.15,2.30,0.083,57.522,4.846,2.731
550,-0.0692,0.2420,0.4082,5.07,-7.30,2.42,0.083,47.534,-2.412,5.638
559,-0.0513,0.2390,0.4072,5.76,-7.44,2.47,0.083,36.751,-10.203,4.668
569,-0.0330,0.2185,0.4081,6.50,-7.53,2.57,0.083,28.519,-21.115,4.120
579,-0.0106,0.2058,0.4065,7.04,-7.62,2.63,0.110,19.713,-29.354,4.127
588,0.0040,0.1834,0.4053,7.57,-7.56,2.72,0.110,14.905,-37.406,4.137
599,0.0238,0.1611,0.4023,7.99,-7.45,2.78,0.110,8.435,-43.962,4.131
609,0.0386,0.1470,0.4259,8.27,-7.21,2.81,0.110,2.938,-49.032,4.758
618,0.0497,0.1264,0.4225,8.50,-6.86,2.84,0.110,-3.401,-53.267,5.517
629,0.0679,0.1023,0.4175,8.71,-6.50,2.86,0.137,-8.734,-56.093,5.859
638,0.0774,0.0820,0.4120,8.81,-6.01,2.88,0.137,-15.032,-58.069,6.476
649,0.0835,0.0714,0.4426,8.79,-5.45,2.86,0.137,-21.876,-60.016,6.247
659,0.0720,0.0490,0.4369,8.79,-4.73,2.92,0.137,-28.023,-58.896,6.004
668,0.0877,0.0304,0.4302,8.69,-4.21,2.90,0.137,-33.025,-59.572,5.989
678,0.0827,0.0149,0.4242,8.53,-3.52,2.92,0.146,-37.827,-58.319,6.014
689,0.0813,0.0018,0.4179,8.28,-2.86,2.92,0.146,-42.321,-54.960,5.245
699,0.0791,-0.0186,0.4109,8.02,-2.20,2.96,0.146,-48.448,-51.106,5.881
709,0.0864,-0.0376,0.3895,7.72,-1.63,2.95,0.146,-47.291,-47.742,5.289
719,0.0877,-0.0483,0.3828,7.31,-1.05,2.93,0.146,-51.069,-42.849,4.107
728,0.0883,-0.0602,0.3756,6.86,-0.50,2.93,0.158,-54.173,-39.334,3.452
738,0.0933,-0.0776,0.3680,6.43,-0.03,2.95,0.158,-55.576,-35.360,2.455
749,0.0944,-0.0856,0.3474,5.91,0.42,2.93,0.158,-56.276,-30.566,2.256
759,0.0947,-0.1013,0.3396,5.43,0.84,2.95,0.158,-59.922,-28.095,2.169
769,0.0922,-0.1070,0.3320,4.86,1.22,2.94,0.158,-59.878,-24.659,1.483
778,0.0908,-0.1193,0.3237,4.33,1.55,2.95,0.175,-60.005,-22.691,1.031
789,0.0868,-0.1243,0.3159,3.74,1.87,2.96,0.175,-59.907,-21.518,0.594
799,0.0933,-0.1363,0.3015,3.19,2.06,2.93,0.175,-61.995,-19.383,1.047
809,0.0918,-0.1409,0.2937,2.59,2.29,2.92,0.175,-61.562,-19.687,0.557
819,0.0867,-0.1528,0.2773,1.42,2.71,2.93,0.175,-61.947,-21.603,0.589
829,0.0883,-0.1478,0.2775,1.38,2.69,2.91,0.190,-60.257,-19.505,0.487
839,0.0920,-0.1563,0.2610,0.17,3.00,2.88,0.190,-59.184,-18.741,-0.183
849,0.0875,-0.1521,0.2589,0.14,3.04,2.89,0.190,-59.011,-18.455,-0.301
859,0.0874,-0.1621,0.2417,-1.00,3.38,2.87,0.190,-56.415,-17.934,-0.759
868,0.0833,-0.1580,0.2417,-1.03,3.41,2.88,0.190,-52.546,-16.848,-1.181
879,0.0747,-0.1555,0.2250,-2.19,3.75,2.88,0.199,-52.103,-16.378,-1.663
889,0.0750,-0.1505,0.2249,-2.23,3.75,2.87,0.199,-50.501,-14.426,-1.641
898,0.0712,-0.1503,0.2079,-2.81,3.92,2.86,0.199,-46.475,-13.834,-2.311
909,0.0667,-0.1440,0.1998,-3.36,4.07,2.85,0.199,-41.044,-12.023,-2.285
919,0.0580,-0.1361,0.1920,-3.89,4.24,2.85,0.199,-37.153,-9.984,-2.190
929,0.0538,-0.1342,0.1850,-4.33,4.36,2.83,0.211,-31.444,-8.492,-1.899
939,0.0483,-0.1248,0.1778,-4.78,4.48,2.81,0.211,-25.540,-4.317,-2.358
949,0.0410,-0.1206,0.1716,-5.15,4.60,2.79,0.211,-22.393,-2.419,-1.910
959,0.0347,-0.1110,0.1647,-5.51,4.68,2.78,0.211,-21.609,-0.294,-1.742
969,0.0288,-0.1016,0.1579,-5.80,4.73,2.76,0.211,-13.802,2.130,-1.683
978,0.0232,-0.0956,0.1512,-6.02,4.76,2.74,0.213,-11.325,4.458,-1.767
989,0.0190,-0.0874,0.1447,-6.23,4.74,2.71,0.213,-7.489,6.201,-1.152
998,0.0129,-0.0775,0.1381,-6.40,4.72,2.70,0.213,-0.284,8.249,-1.251
1009,0.0100,-0.0721,0.1190,-6.49,4.66,2.67,0.213,3.094,10.868,-1.665
1018,0.0047,-0.0616,0.1124,-6.57,4.59,2.64,0.213,3.969,11.657,-1.712
1028,-0.0001,-0.0531,0.1062,-6.61,4.49,2.62,0.225,4.372,12.908,-0.219
1039,-0.0057,-0.0417,0.1003,-6.61,4.38,2.59,0.225,8.986,14.259,-1.021
1048,-0.0110,-0.0327,0.1020,-6.56,4.25,2.56,0.225,9.066,14.993,-0.966
1058,-0.0157,-0.0218,0.0967,-6.52,4.12,2.54,0.225,11.374,14.826,-0.586
1068,-0.0200,-0.0115,0.0917,-6.46,3.96,2.52,0.225,10.588,14.685,-0.416
1079,-0.0248,-0.0053,0.0872,-6.35,3.81,2.49,0.217,14.737,15.540,-0.087
1089,-0.0282,0.0038,0.0823,-6.25,3.65,2.47,0.217,13.165,14.664,0.410
1099,-0.0290,0.0163,0.0771,-6.16,3.46,2.46,0.217,17.816,14.775,0.753
1109,-0.0327,0.0245,0.0488,-6.03,3.30,2.44,0.217,19.507,15.706,0.749
1119,-0.0324,0.0322,0.0445,-5.87,3.11,2.43,0.217,20.203,15.621,1.423
1128,-0.0343,0.0425,0.0402,-5.71,2.94,2.43,0.229,25.542,16.368,1.036
1138,-0.0358,0.0535,0.0360,-5.54,2.76,2.43,0.229,27.465,16.760,0.591
1149,-0.0397,0.0591,0.0403,-5.31,2.59,2.42,0.229,29.585,17.623,0.579
1159,-0.0416,0.0685,0.0371,-5.07,2.41,2.42,0.229,32.349,17.129,0.940
1169,-0.0459,0.0768,0.0340,-4.81,2.24,2.41,0.229,35.565,17.275,1.095
1179,-0.0458,0.0897,0.0313,-4.55,2.04,2.42,0.219,36.439,17.764,0.538
1189,-0.0464,0.0962,0.0288,-4.23,1.84,2.42,0.219,38.333,17.284,0.746
1198,-0.0468,0.1057,0.0262,-3.90,1.65,2.43,0.219,38.886,16.588,1.227
1209,-0.0454,0.1088,0.0032,-3.53,1.45,2.43,0.219,41.502,16.980,0.591
1218,-0.0449,0.1152,0.0015,-3.16,1.26,2.44,0.219,42.144,16.611,1.563
1228,-0.0440,0.1167,0.0003,-2.75,1.06,2.44,0.228,41.464,16.246,1.617
1238,-0.0446,0.1279,-0.0008,-2.41,0.88,2.46,0.228,39.578,14.620,2.281
1248,-0.0433,0.1266,0.0057,-1.96,0.69,2.46,0.228,39.771,13.872,1.683
1258,-0.0419,0.1350,0.0046,-1.58,0.51,2.49,0.228,40.039,12.247,1.968
1269,-0.0414,0.1358,0.0035,-1.15,0.34,2.50,0.228,38.451,11.178,1.820
1278,-0.0355,0.1390,0.0027,-0.75,0.15,2.54,0.218,34.787,8.789,2.228
1289,-0.0334,0.1370,0.0021,-0.33,0.01,2.56,0.218,33.808,6.745,2.447
1298,-0.0316,0.1429,0.0017,0.03,-0.12,2.59,0.218,32.550,5.738,2.833
1308,-0.0316,0.1388,-0.0171,0.43,-0.22,2.60,0.218,31.018,3.570,2.589
1318,-0.0293,0.1313,-0.0170,0.82,-0.31,2.62,0.218,29.032,1.950,3.015
1328,-0.0263,0.1363,-0.0170,1.11,-0.39,2.66,0.224,29.165,1.362,2.853
1339,-0.0244,0.1322,-0.0171,1.45,-0.44,2.69,0.224,27.969,1.153,2.701
1348,-0.0214,0.1296,-0.0130,1.75,-0.48,2.72,0.224,26.488,0.137,2.500
1358,-0.0154,0.1236,-0.0130,2.06,-0.53,2.76,0.224,26.227,0.155,3.325
1368,-0.0170,0.1243,-0.0123,2.33,-0.52,2.79,0.224,25.022,-0.000,2.115
1379,-0.0168,0.1162,-0.0112,2.63,-0.52,2.81,0.215,23.911,-0.758,1.591
1388,-0.0182,0.1122,-0.0099,2.90,-0.51,2.83,0.215,18.313,-0.448,2.556
1398,-0.0095,0.1056,-0.0085,3.16,-0.56,2.86,0.215,16.441,-2.300,1.932
1408,-0.0051,0.1011,-0.0233,3.39,-0.57,2.89,0.215,15.386,-1.737,0.412
1418,-0.0039,0.0929,-0.0220,3.62,-0.56,2.91,0.215,13.424,-3.257,-0.187
1428,-0.0001,0.0878,-0.0207,3.79,-0.56,2.93,0.224,8.500,-3.046,2.435
1438,0.0024,0.0798,-0.0192,3.97,-0.54,2.94,0.224,11.547,-5.508,0.275
1448,0.0102,0.0741,-0.0042,4.11,-0.56,2.95,0.224,5.870,-6.353,0.371
1458,0.0064,0.0649,-0.0025,4.22,-0.50,2.96,0.224,0.297,-6.318,1.242
1468,0.0168,0.0550,-0.0007,4.35,-0.51,2.97,0.224,-2.301,-7.825,1.194
1478,0.0181,0.0468,0.0010,4.43,-0.45,2.97,0.214,-0.364,-9.188,-1.124
1488,0.0178,0.0408,0.0027,4.46,-0.37,2.98,0.214,-8.986,-10.337,-3.057
1498,0.0188,0.0331,0.0046,4.43,-0.30,2.98,0.214,-5.469,-10.653,-0.723
1509,0.0198,0.0255,-0.0079,4.42,-0.22,2.98,0.214,-10.494,-10.867,-1.197
1518,0.0206,0.0177,-0.0056,4.39,-0.12,2.94,0.214,-11.752,-13.476,-2.479
1528,0.0332,0.0093,-0.0038,4.31,-0.10,2.92,0.224,-10.093,-12.434,-2.164
1538,0.0266,-0.0003,-0.0018,4.26,0.06,2.89,0.224,-15.612,-12.980,-0.949
1548,0.0366,-0.0057,0.0144,4.15,0.13,2.86,0.224,-12.422,-13.286,-1.410
1558,0.0341,-0.0174,0.0160,4.07,0.28,2.83,0.224,-16.691,-13.120,-2.293
1568,0.0357,-0.0217,0.0179,3.93,0.40,2.80,0.224,-15.818,-13.281,-2.411
1578,0.0326,-0.0308,0.0199,3.81,0.55,2.78,0.213,-18.541,-12.471,-2.619
1588,0.0277,-0.0373,0.0220,3.67,0.70,2.75,0.213,-20.833,-12.606,-2.725
1598,0.0261,-0.0509,0.0237,3.56,0.84,2.72,0.213,-21.943,-12.408,-2.826
1608,0.0225,-0.0553,0.0073,3.37,0.99,2.70,0.213,-22.649,-9.937,-3.325
1618,0.0294,-0.0590,0.0084,3.16,1.05,2.66,0.213,-23.678,-10.043,-3.233
1628,0.0254,-0.0657,0.0092,2.96,1.19,2.62,0.218,-25.929,-8.854,-3.733
1638,0.0234,-0.0747,0.0102,2.75,1.31,2.58,0.218,-29.188,-6.837,-3.722
1647,0.0192,-0.0755,0.0114,2.49,1.42,2.55,0.218,-30.143,-6.570,-4.134
1658,0.0185,-0.0814,0.0129,2.25,1.50,2.51,0.218,-31.094,-4.274,-4.308
1667,0.0176,-0.0852,0.0144,1.94,1.57,2.47,0.218,-30.830,-4.648,-4.993
1678,0.0138,-0.0911,0.0159,1.67,1.64,2.42,0.222,-29.825,-3.669,-5.102
1688,0.0057,-0.0933,0.0173,1.36,1.72,2.39,0.222,-33.364,-2.363,-5.626
1697,0.0054,-0.0991,0.0185,1.08,1.75,2.34,0.222,-30.474,-2.878,-5.500
1708,0.0020,-0.1002,0.0263,0.77,1.79,2.28,0.222,-30.053,-0.494,-6.485
1718,-0.0025,-0.1063,0.0274,0.48,1.83,2.23,0.222,-32.102,-0.135,-6.947
1728,-0.0058,-0.1059,0.0290,0.16,1.85,2.18,0.225,-31.384,-1.277,-7.413
1738,-0.0087,-0.1050,0.0304,-0.15,1.87,2.11,0.225,-27.785,2.474,-8.089
1748,-0.0131,-0.1052,0.0390,-0.46,1.88,2.05,0.225,-24.969,2.261,-7.755
1758,-0.0177,-0.1048,0.0398,-0.80,1.89,1.97,0.225,-22.914,3.556,-7.977
1768,-0.0198,-0.1056,0.0405,-1.08,1.88,1.89,0.225,-23.663,3.877,-7.558
1778,-0.0178,-0.1019,0.0415,-1.34,1.82,1.81,0.228,-22.403,6.188,-8.306
1788,-0.0212,-0.1053,0.0424,-1.54,1.79,1.73,0.228,-22.161,8.477,-8.091
1798,-0.0234,-0.0996,0.0499,-1.79,1.75,1.65,0.228,-23.526,8.055,-8.391
1808,-0.0293,-0.0966,0.0508,-2.02,1.71,1.57,0.228,-20.084,11.457,-8.934
1818,-0.0333,-0.0905,0.0513,-2.25,1.64,1.49,0.228,-20.255,10.692,-8.761
1828,-0.0341,-0.0868,0.0515,-2.49,1.56,1.40,0.237,-18.093,9.764,-8.293
1838,-0.0345,-0.0833,0.0519,-2.69,1.44,1.31,0.237,-15.742,10.666,-8.652
1848,-0.0351,-0.0812,0.0707,-2.86,1.33,1.21,0.237,-14.277,10.753,-8.575
1857,-0.0352,-0.0731,0.0714,-3.06,1.21,1.12,0.237,-11.554,11.663,-8.844
1868,-0.0393,-0.0680,0.0720,-3.23,1.12,1.03,0.237,-9.178,10.250,-8.212
1878,-0.0413,-0.0624,0.0725,-3.37,1.01,0.93,0.235,-8.305,10.732,-8.014
1887,-0.0405,-0.0592,0.0725,-3.47,0.89,0.84,0.235,-5.467,9.592,-8.246
1898,-0.0439,-0.0561,0.0723,-3.55,0.80,0.75,0.235,-0.470,10.045,-8.340
1908,-0.0456,-0.0503,0.0699,-3.63,0.70,0.66,0.235,-0.745,9.230,-8.771
1918,-0.0468,-0.0441,0.0698,-3.68,0.61,0.57,0.235,0.068,7.720,-7.489
1927,-0.0484,-0.0363,0.0698,-3.72,0.52,0.49,0.239,4.750,8.405,-7.829
1938,-0.0482,-0.0320,0.0692,-3.72,0.43,0.40,0.239,7.093,8.417,-7.541
1948,-0.0489,-0.0257,0.0683,-3.71,0.36,0.31,0.239,4.876,8.155,-7.599
1958,-0.0496,-0.0194,0.0672,-3.68,0.28,0.23,0.239,3.832,8.684,-7.321
1967,-0.0490,-0.0134,0.0662,-3.61,0.19,0.15,0.239,5.723,10.815,-7.846
1977,-0.0468,-0.0057,0.0655,-3.56,0.10,0.07,0.239,4.697,10.007,-6.512
1987,-0.0459,0.0001,0.0648,-3.52,0.01,-0.01,0.239,7.509,9.755,-6.116
1998,-0.0477,0.0054,0.0637,-3.46,-0.08,-0.09,0.239,9.734,9.632,-5.641
2008,-0.0508,0.0135,0.0551,-3.42,-0.15,-0.17,0.239,13.267,11.256,-6.084
2018,-0.0493,0.0195,0.0536,-3.36,-0.25,-0.24,0.239,14.875,10.545,-6.759
2027,-0.0506,0.0249,0.0524,-3.27,-0.34,-0.31,0.243,15.988,9.582,-5.648
2037,-0.0471,0.0310,0.0513,-3.15,-0.46,-0.37,0.243,18.415,10.660,-5.635
2048,-0.0435,0.0367,0.0492,-3.00,-0.58,-0.44,0.243,20.344,8.772,-4.281
2058,-0.0429,0.0417,0.0481,-2.85,-0.67,-0.50,0.243,20.312,7.718,-4.275
2068,-0.0391,0.0475,0.0468,-2.67,-0.79,-0.56,0.243,18.470,7.702,-4.278
2077,-0.0369,0.0541,0.0455,-2.49,-0.89,-0.61,0.244,20.826,7.283,-5.093
2087,-0.0332,0.0571,0.0441,-2.29,-0.98,-0.65,0.244,21.101,6.369,-4.314
2098,-0.0370,0.0631,0.0432,-2.11,-1.02,-0.71,0.244,21.535,5.001,-4.374
2108,-0.0331,0.0649,0.0388,-1.91,-1.11,-0.75,0.244,25.851,3.152,-4.355
2117,-0.0294,0.0695,0.0379,-1.72,-1.18,-0.80,0.244,25.347,1.167,-3.651
2127,-0.0259,0.0721,0.0369,-1.49,-1.24,-0.84,0.244,22.964,0.425,-3.240
2137,-0.0226,0.0768,0.0355,-1.27,-1.29,-0.88,0.244,21.379,-0.141,-3.622
2147,-0.0196,0.0746,0.0280,-1.00,-1.31,-0.92,0.244,20.081,-1.942,-3.963
2157,-0.0166,0.0772,0.0271,-0.77,-1.32,-0.95,0.244,23.057,-3.272,-3.481
2167,-0.0139,0.0825,0.0260,-0.58,-1.32,-0.99,0.244,21.731,-2.691,-3.710
2178,-0.0114,0.0815,0.0252,-0.35,-1.31,-1.03,0.246,23.302,-3.082,-4.701
2187,-0.0077,0.0827,0.0245,-0.14,-1.29,-1.06,0.246,24.137,-5.219,-3.520
2198,-0.0056,0.0837,0.0237,0.07,-1.27,-1.10,0.246,21.753,-6.237,-3.905
2208,-0.0051,0.0871,0.0207,0.27,-1.23,-1.14,0.246,15.253,-6.202,-3.489
2217,-0.0036,0.0840,0.0199,0.52,-1.18,-1.18,0.246,16.506,-5.969,-3.516
2227,-0.0024,0.0839,0.0192,0.74,-1.12,-1.22,0.245,15.532,-7.751,-3.365
2237,-0.0011,0.0843,0.0187,0.92,-1.05,-1.26,0.245,16.724,-6.815,-3.798
2247,-0.0000,0.0855,0.0126,1.07,-0.99,-1.30,0.245,16.351,-8.283,-3.472
2257,0.0006,0.0839,0.0120,1.24,-0.92,-1.34,0.245,14.004,-8.211,-2.538
2267,0.0057,0.0817,0.0114,1.39,-0.87,-1.37,0.245,13.162,-9.091,-2.703
2277,0.0059,0.0778,0.0109,1.55,-0.78,-1.41,0.245,15.181,-10.142,-2.644
2288,0.0074,0.0771,0.0107,1.69,-0.70,-1.44,0.245,16.200,-10.087,-2.252
2297,0.0071,0.0733,0.0062,1.82,-0.60,-1.47,0.245,14.152,-11.042,-2.537
2307,0.0067,0.0721,0.0062,1.95,-0.49,-1.50,0.245,13.874,-10.390,-2.666
2317,0.0134,0.0660,0.0059,2.12,-0.43,-1.52,0.245,13.123,-9.174,-3.049
2327,0.0124,0.0635,0.0051,2.27,-0.32,-1.55,0.245,9.905,-10.854,-2.279
2337,0.0111,0.0591,0.0044,2.40,-0.21,-1.59,0.245,10.472,-8.587,-2.792
2347,0.0055,0.0576,0.0009,2.51,-0.07,-1.62,0.245,6.134,-9.450,-2.245
2358,0.0099,0.0505,0.0008,2.65,0.00,-1.65,0.245,7.563,-7.965,-3.290
2367,0.0085,0.0460,0.0007,2.74,0.10,-1.68,0.245,2.990,-6.585,-2.236
2377,0.0070,0.0424,0.0004,2.82,0.20,-1.71,0.248,2.176,-6.132,-1.218
2388,0.0111,0.0353,0.0002,2.90,0.24,-1.74,0.248,0.812,-5.907,-1.640
2397,0.0095,0.0319,-0.0002,2.93,0.32,-1.77,0.248,-0.364,-5.901,-1.452
2407,0.0094,0.0287,0.0046,2.96,0.38,-1.79,0.248,-2.346,-4.249,-1.057
2417,0.0076,0.0244,0.0046,2.97,0.44,-1.81,0.248,-4.491,-3.409,-0.324
2427,0.0067,0.0193,0.0048,2.96,0.49,-1.83,0.248,-6.341,-2.383,-0.113
2437,0.0050,0.0156,0.0046,2.93,0.55,-1.84,0.248,-8.270,-2.053,0.401
2447,0.0039,0.0106,0.0064,2.88,0.59,-1.85,0.248,-8.802,-1.128,-0.698
2457,0.0027,0.0057,0.0059,2.81,0.62,-1.85,0.248,-9.797,-1.077,-0.113
2467,0.0015,0.0009,0.0057,2.73,0.64,-1.85,0.248,-10.073,-0.603,-0.072
2477,0.0001,-0.0042,0.0061,2.64,0.65,-1.86,0.252,-8.746,-0.950,0.353
2487,-0.0012,-0.0087,0.0062,2.54,0.66,-1.86,0.252,-9.624,-0.735,1.126
2497,-0.0025,-0.0130,0.0060,2.44,0.67,-1.86,0.252,-8.994,-0.786,1.241
2507,-0.0022,-0.0174,0.0149,2.36,0.67,-1.86,0.252,-10.583,-0.696,0.637
2517,-0.0035,-0.0211,0.0149,2.26,0.68,-1.85,0.252,-12.660,0.294,1.082
2527,-0.0048,-0.0246,0.0150,2.16,0.68,-1.84,0.250,-9.187,2.125,0.042
2537,-0.0061,-0.0293,0.0152,2.06,0.69,-1.83,0.250,-14.127,3.485,0.380
2547,-0.0075,-0.0331,0.0149,1.94,0.69,-1.83,0.250,-16.477,3.341,1.632
2557,-0.0083,-0.0373,0.0148,1.82,0.67,-1.82,0.250,-15.368,2.907,1.458
2567,-0.0096,-0.0403,0.0144,1.68,0.64,-1.82,0.250,-17.154,3.110,1.598
2577,-0.0099,-0.0411,0.0139,1.52,0.60,-1.80,0.249,-16.798,3.114,1.335
2587,-0.0103,-0.0452,0.0134,1.37,0.56,-1.79,0.249,-15.781,3.152,0.563
2597,-0.0105,-0.0453,0.0135,1.19,0.52,-1.78,0.249,-15.209,2.633,0.094
2607,-0.0108,-0.0484,0.0092,1.03,0.48,-1.77,0.249,-16.847,2.771,0.068
2618,-0.0117,-0.0503,0.0085,0.86,0.44,-1.76,0.249,-16.937,1.981,0.384
2627,-0.0135,-0.0512,0.0077,0.69,0.42,-1.75,0.248,-16.096,0.735,0.896
2637,-0.0135,-0.0517,0.0068,0.53,0.39,-1.75,0.248,-15.376,0.534,0.219
2647,-0.0134,-0.0535,0.0005,0.37,0.38,-1.75,0.248,-14.257,1.287,-0.150
2657,-0.0153,-0.0551,0.0003,0.22,0.37,-1.74,0.248,-15.721,1.519,-0.344
2667,-0.0102,-0.0549,0.0002,0.07,0.33,-1.75,0.248,-16.578,1.566,0.532
2677,-0.0108,-0.0550,-0.0001,-0.08,0.31,-1.75,0.250,-15.146,2.701,0.535
2687,-0.0125,-0.0540,-0.0005,-0.25,0.31,-1.75,0.250,-15.360,4.248,-0.190
2697,-0.0124,-0.0528,-0.0009,-0.42,0.29,-1.75,0.250,-13.936,3.214,0.370
2706,-0.0156,-0.0532,0.0004,-0.57,0.28,-1.74,0.250,-13.939,3.742,0.044
2717,-0.0218,-0.0498,0.0006,-0.73,0.27,-1.74,0.250,-13.295,3.119,0.529
2727,-0.0210,-0.0467,0.0008,-0.89,0.23,-1.74,0.252,-10.986,2.234,0.937
2737,-0.0202,-0.0451,0.0006,-1.02,0.19,-1.74,0.252,-10.629,3.368,0.218
2747,-0.0194,-0.0435,0.0056,-1.15,0.15,-1.73,0.252,-8.764,2.505,0.909
2757,-0.0196,-0.0415,0.0055,-1.27,0.12,-1.72,0.252,-8.460,4.171,0.222
2767,-0.0134,-0.0384,0.0057,-1.38,0.05,-1.73,0.252,-5.430,3.532,0.814
2777,-0.0177,-0.0352,0.0060,-1.47,0.05,-1.72,0.256,-5.527,4.415,-0.402
2787,-0.0166,-0.0320,0.0059,-1.56,0.00,-1.72,0.256,-4.688,3.868,0.805
2797,-0.0206,-0.0291,0.0057,-1.62,-0.01,-1.71,0.256,-4.620,4.395,-0.383
2807,-0.0210,-0.0246,0.0167,-1.68,-0.05,-1.71,0.256,-3.574,4.124,-0.242
2817,-0.0208,-0.0217,0.0165,-1.73,-0.09,-1.71,0.256,-3.315,3.070,-0.300
2827,-0.0206,-0.0188,0.0166,-1.77,-0.13,-1.71,0.250,-0.864,3.403,-0.466
2837,-0.0207,-0.0146,0.0164,-1.81,-0.17,-1.72,0.250,1.218,3.888,-0.984
2847,-0.0209,-0.0104,0.0101,-1.85,-0.19,-1.72,0.250,1.720,4.391,-1.271
2857,-0.0227,-0.0067,0.0096,-1.86,-0.22,-1.73,0.250,2.794,3.473,-1.203
2867,-0.0174,-0.0018,0.0090,-1.87,-0.28,-1.74,0.250,5.070,3.039,-1.791
2877,-0.0168,0.0013,0.0087,-1.85,-0.32,-1.75,0.250,6.535,2.680,-1.396
2887,-0.0151,0.0058,0.0083,-1.83,-0.36,-1.76,0.250,8.364,1.980,-1.597
2897,-0.0134,0.0097,0.0075,-1.78,-0.40,-1.78,0.250,10.449,3.303,-2.056
2907,-0.0117,0.0148,0.0019,-1.73,-0.43,-1.80,0.250,12.092,2.937,-2.238
2917,-0.0101,0.0178,0.0017,-1.65,-0.45,-1.82,0.250,12.625,3.407,-2.060
2927,-0.0085,0.0202,0.0012,-1.54,-0.48,-1.84,0.250,15.890,3.880,-2.049
2937,-0.0085,0.0239,0.0008,-1.43,-0.51,-1.86,0.250,15.641,2.565,-1.205
2946,-0.0049,0.0287,-0.0024,-1.32,-0.56,-1.88,0.250,18.459,4.040,-2.408
2956,-0.0100,0.0279,-0.0027,-1.15,-0.56,-1.91,0.250,18.643,3.364,-1.154
2967,-0.0081,0.0367,-0.0029,-1.03,-0.59,-1.92,0.250,19.077,3.037,-1.263
2977,-0.0078,0.0381,-0.0027,-0.86,-0.63,-1.94,0.250,19.804,1.927,-1.064
2987,-0.0060,0.0408,-0.0022,-0.70,-0.66,-1.96,0.250,18.337,0.925,0.040
2997,-0.0043,0.0413,-0.0021,-0.52,-0.68,-1.97,0.250,18.064,0.979,-0.707
3006,-0.0043,0.0430,-0.0058,-0.34,-0.69,-1.98,0.250,16.528,0.271,-0.052
3017,-0.0011,0.0429,-0.0055,-0.15,-0.71,-1.98,0.250,17.878,-0.946,0.762
3027,0.0005,0.0491,-0.0051,-0.01,-0.72,-1.99,0.248,15.132,-2.205,1.218
3037,0.0001,0.0487,-0.0046,0.16,-0.70,-1.99,0.248,13.639,-1.379,1.801
3047,0.0012,0.0476,-0.0102,0.33,-0.70,-1.98,0.248,13.800,-2.395,2.303
3057,0.0022,0.0483,-0.0098,0.49,-0.67,-1.97,0.248,11.556,-2.273,2.479
3067,0.0033,0.0539,-0.0096,0.58,-0.65,-1.96,0.248,10.743,-3.100,2.513
3077,0.0056,0.0509,-0.0090,0.72,-0.64,-1.93,0.247,11.718,-3.652,2.280
3087,0.0047,0.0513,-0.0082,0.83,-0.60,-1.91,0.247,10.542,-4.079,2.875
3097,0.0051,0.0484,-0.0123,0.96,-0.57,-1.89,0.247,11.891,-3.630,2.579
3107,0.0070,0.0501,-0.0116,1.05,-0.53,-1.87,0.247,10.784,-3.262,3.072
3117,0.0079,0.0483,-0.0106,1.14,-0.49,-1.84,0.247,10.132,-4.246,3.076
3127,0.0146,0.0462,-0.0095,1.25,-0.49,-1.81,0.247,8.925,-5.702,3.327
3137,0.0112,0.0479,-0.0084,1.33,-0.42,-1.78,0.247,10.464,-4.533,3.984
3147,0.0109,0.0460,-0.0090,1.42,-0.37,-1.75,0.247,5.336,-5.310,3.777
3157,0.0088,0.0442,-0.0082,1.51,-0.30,-1.72,0.247,5.670,-5.699,3.496
3167,0.0084,0.0422,-0.0073,1.61,-0.26,-1.68,0.247,8.192,-4.706,3.381
3176,0.0079,0.0407,-0.0062,1.66,-0.20,-1.64,0.246,9.222,-4.638,3.812
3187,0.0087,0.0373,-0.0052,1.71,-0.14,-1.61,0.246,4.835,-5.739,3.700
3197,0.0064,0.0338,-0.0041,1.79,-0.08,-1.57,0.246,4.297,-4.376,3.758
3207,0.0056,0.0300,-0.0058,1.88,-0.04,-1.54,0.246,5.188,-3.146,3.590
3217,0.0047,0.0284,-0.0054,1.93,0.03,-1.50,0.246,-0.651,-3.055,4.464
3226,0.0046,0.0251,-0.0044,1.97,0.07,-1.47,0.252,2.609,-1.790,3.977
3237,0.0120,0.0233,-0.0032,2.01,0.06,-1.43,0.252,-2.009,-1.222,3.661
3247,0.0119,0.0197,0.0098,2.01,0.09,-1.39,0.252,-0.540,-0.094,3.517
3257,0.0117,0.0163,0.0105,2.03,0.11,-1.35,0.252,-1.628,0.427,2.675
3266,0.0110,0.0142,0.0113,2.01,0.12,-1.32,0.252,-1.131,0.802,2.708
3276,0.0120,0.0104,0.0123,2.01,0.11,-1.28,0.249,-3.862,-0.005,2.625
3287,0.0080,0.0069,0.0134,1.99,0.13,-1.25,0.249,-1.779,0.748,2.100
3297,0.0077,0.0035,0.0144,1.98,0.13,-1.23,0.249,-2.803,0.041,2.043
3307,0.0088,0.0005,0.0148,1.94,0.12,-1.20,0.249,-3.844,-1.044,1.693
3316,0.0086,-0.0028,0.0156,1.92,0.12,-1.18,0.249,-8.270,-2.560,1.952
3326,0.0083,-0.0061,0.0162,1.89,0.12,-1.16,0.250,-9.212,-2.966,1.998
3337,0.0075,-0.0104,0.0170,1.85,0.13,-1.14,0.250,-10.681,-3.509,1.832
3347,0.0065,-0.0138,0.0180,1.78,0.16,-1.13,0.250,-9.784,-2.600,1.295
3357,0.0037,-0.0185,0.0183,1.70,0.21,-1.11,0.250,-9.235,-2.243,1.355
3367,0.0044,-0.0193,0.0183,1.58,0.23,-1.09,0.250,-10.166,-1.657,1.391
3377,0.0017,-0.0217,0.0184,1.49,0.27,-1.08,0.248,-10.367,-1.431,1.818
3386,0.0025,-0.0239,0.0189,1.39,0.29,-1.06,0.248,-11.163,-1.211,2.380
3396,0.0020,-0.0262,0.0195,1.29,0.30,-1.05,0.248,-10.384,0.609,1.725
3407,0.0010,-0.0329,0.0132,1.22,0.32,-1.03,0.248,-13.082,0.799,2.314
3417,0.0005,-0.0350,0.0134,1.10,0.33,-1.01,0.248,-10.525,1.173,2.589
3427,-0.0001,-0.0377,0.0136,1.00,0.32,-0.99,0.249,-11.337,1.536,2.330
3436,-0.0007,-0.0394,0.0139,0.87,0.32,-0.97,0.249,-10.162,1.422,2.432
3447,-0.0011,-0.0433,0.0117,0.77,0.30,-0.94,0.249,-9.446,0.749,2.244
3456,-0.0032,-0.0451,0.0117,0.66,0.30,-0.91,0.249,-11.444,-0.288,2.247
3466,-0.0035,-0.0467,0.0118,0.56,0.29,-0.89,0.249,-9.326,0.617,2.608
3477,-0.0040,-0.0477,0.0116,0.45,0.28,-0.86,0.249,-11.752,1.479,2.096
3487,-0.0045,-0.0486,0.0114,0.34,0.28,-0.84,0.249,-14.221,1.304,2.259
3497,-0.0029,-0.0497,0.0114,0.25,0.26,-0.82,0.249,-11.078,1.114,2.180
3506,-0.0048,-0.0522,0.0079,0.15,0.26,-0.79,0.249,-13.206,2.424,1.923
3517,-0.0053,-0.0524,0.0078,0.03,0.25,-0.77,0.249,-13.690,2.027,1.114
3527,-0.0054,-0.0527,0.0076,-0.09,0.24,-0.75,0.245,-11.726,1.908,1.196
3537,-0.0071,-0.0524,0.0073,-0.22,0.23,-0.73,0.245,-11.218,2.590,1.341
3546,-0.0049,-0.0499,-0.0040,-0.36,0.19,-0.72,0.245,-11.072,3.172,1.092
3556,-0.0085,-0.0475,-0.0040,-0.50,0.19,-0.71,0.245,-12.979,2.224,0.631
3566,-0.0081,-0.0486,-0.0037,-0.60,0.16,-0.70,0.245,-11.745,2.332,0.194
3576,-0.0058,-0.0443,-0.0034,-0.73,0.11,-0.69,0.250,-11.684,2.616,0.549
3587,-0.0126,-0.0448,-0.0033,-0.85,0.12,-0.68,0.250,-10.470,2.528,0.389
3596,-0.0120,-0.0419,0.0015,-0.97,0.09,-0.68,0.250,-10.776,1.128,0.806
3606,-0.0079,-0.0406,0.0018,-1.08,0.04,-0.68,0.250,-8.986,0.704,0.890
3616,-0.0056,-0.0393,0.0022,-1.18,0.00,-0.67,0.250,-6.739,0.037,1.031
3627,-0.0121,-0.0344,0.0025,-1.29,0.03,-0.66,0.249,-7.979,0.238,0.853
3636,-0.0100,-0.0333,0.0030,-1.37,0.01,-0.65,0.249,-6.206,1.085,0.827
3646,-0.0097,-0.0306,0.0037,-1.44,0.01,-0.64,0.249,-4.009,0.978,0.643
3657,-0.0144,-0.0277,0.0042,-1.52,0.03,-0.64,0.249,-3.391,1.621,0.434
3666,-0.0002,-0.0235,0.0051,-1.58,-0.06,-0.63,0.249,-1.461,1.954,-0.090
3676,-0.0065,-0.0244,0.0060,-1.60,-0.04,-0.63,0.252,-0.702,1.492,0.330
3686,-0.0064,-0.0217,0.0068,-1.63,-0.05,-0.62,0.252,-0.030,2.535,-0.266
3697,-0.0063,-0.0188,0.0073,-1.65,-0.07,-0.62,0.252,-0.081,2.372,-0.282
3707,-0.0061,-0.0160,0.0161,-1.66,-0.09,-0.62,0.252,0.442,1.615,-0.078
3717,-0.0059,-0.0132,0.0165,-1.66,-0.12,-0.62,0.252,-0.111,0.616,-0.060
3726,-0.0125,-0.0097,0.0172,-1.66,-0.10,-0.62,0.254,3.242,-0.200,0.804
3737,-0.0123,-0.0068,0.0177,-1.65,-0.11,-0.63,0.254,1.207,0.434,-0.245
3746,-0.0097,-0.0038,0.0231,-1.64,-0.13,-0.63,0.254,2.370,0.832,-0.590
3756,-0.0110,-0.0013,0.0232,-1.61,-0.12,-0.62,0.254,4.265,2.017,-0.208
3766,-0.0102,0.0031,0.0235,-1.60,-0.13,-0.63,0.254,5.461,1.985,0.322
3776,-0.0095,0.0072,0.0240,-1.58,-0.14,-0.63,0.255,7.765,3.146,-0.045
3787,-0.0092,0.0099,0.0244,-1.53,-0.16,-0.63,0.255,6.610,3.212,-0.900
3796,-0.0101,0.0113,0.0244,-1.45,-0.18,-0.63,0.255,8.977,3.964,-0.838
3806,-0.0089,0.0141,0.0264,-1.38,-0.21,-0.64,0.255,9.181,4.360,-1.118
3816,-0.0077,0.0168,0.0260,-1.31,-0.24,-0.64,0.255,6.714,3.456,-1.483
3826,-0.0064,0.0207,0.0262,-1.23,-0.29,-0.65,0.256,7.321,0.907,-0.454
3836,-0.0068,0.0208,0.0263,-1.13,-0.33,-0.66,0.256,10.763,0.988,-0.630
3846,-0.0054,0.0246,0.0273,-1.07,-0.36,-0.68,0.256,8.214,0.754,-0.743
3857,-0.0062,0.0280,0.0271,-1.01,-0.36,-0.68,0.256,9.149,0.254,-0.211
3866,-0.0035,0.0290,0.0267,-0.90,-0.38,-0.69,0.256,11.729,0.187,-0.213
3876,-0.0026,0.0302,0.0266,-0.81,-0.39,-0.70,0.256,13.342,0.547,0.256
3886,-0.0018,0.0326,0.0263,-0.72,-0.39,-0.70,0.256,12.805,0.047,0.432
3896,-0.0010,0.0340,0.0261,-0.59,-0.39,-0.70,0.256,12.856,0.461,0.425
3906,0.0000,0.0424,0.0230,-0.49,-0.40,-0.70,0.256,14.580,-1.020,0.419
3916,-0.0010,0.0417,0.0226,-0.35,-0.39,-0.70,0.256,12.089,-0.860,0.110
3926,-0.0002,0.0424,0.0218,-0.22,-0.39,-0.69,0.256,11.894,-1.093,-0.378
3935,0.0003,0.0411,0.0213,-0.07,-0.38,-0.69,0.256,10.795,-2.215,0.036
3946,0.0009,0.0449,0.0171,0.03,-0.37,-0.69,0.256,8.527,-2.443,-0.205
3956,0.0048,0.0433,0.0165,0.15,-0.38,-0.69,0.256,10.029,-2.594,-0.707
3966,0.0033,0.0470,0.0157,0.23,-0.34,-0.69,0.256,7.171,-2.561,-0.012
3976,0.0038,0.0466,0.0150,0.31,-0.32,-0.70,0.257,11.090,-2.536,0.048
3986,0.0039,0.0502,0.0147,0.38,-0.28,-0.70,0.257,10.930,-4.003,0.063
3996,0.0038,0.0486,0.0127,0.46,-0.26,-0.70,0.257,11.529,-2.013,-0.419
4006,0.0037,0.0463,0.0130,0.57,-0.22,-0.70,0.257,11.912,-1.452,0.273
4016,0.0018,0.0440,0.0131,0.69,-0.17,-0.70,0.257,12.289,-2.690,0.354
4026,0.0016,0.0415,0.0130,0.81,-0.15,-0.70,0.259,10.998,-1.388,0.033
4036,-0.0035,0.0406,0.0131,0.92,-0.09,-0.70,0.259,9.232,-2.085,-0.286
4046,-0.0033,0.0390,0.0153,1.03,-0.07,-0.70,0.259,9.024,-2.074,-0.160
4056,0.0037,0.0428,0.0153,1.11,-0.09,-0.70,0.259,7.320,-1.597,0.106
4066,0.0035,0.0415,0.0152,1.21,-0.07,-0.70,0.259,6.533,-1.569,0.529
4076,0.0033,0.0401,0.0151,1.30,-0.06,-0.70,0.262,5.851,-1.686,0.969
4086,0.0034,0.0379,0.0148,1.38,-0.04,-0.70,0.262,4.465,-2.144,1.086
4096,0.0034,0.0355,0.0147,1.44,-0.03,-0.69,0.262,1.037,-2.082,-0.163
4106,0.0034,0.0331,0.0210,1.48,-0.00,-0.68,0.262,3.212,-1.624,-0.565
4115,0.0030,0.0305,0.0208,1.52,0.02,-0.68,0.262,1.656,-1.680,-1.232
4126,0.0026,0.0285,0.0206,1.53,0.04,-0.68,0.262,-0.641,-2.965,-1.271
4136,0.0025,0.0259,0.0202,1.56,0.06,-0.69,0.262,0.031,-2.820,-1.110
4146,-0.0034,0.0278,0.0212,1.53,0.11,-0.70,0.262,1.007,-2.354,-1.478
4156,0.0069,0.0242,0.0208,1.53,0.07,-0.71,0.262,2.177,-1.323,-1.701
4166,-0.0047,0.0209,0.0205,1.54,0.17,-0.73,0.262,2.894,-0.590,-1.720
4175,-0.0017,0.0173,0.0202,1.56,0.17,-0.74,0.261,-0.296,0.228,-1.673
4186,-0.0004,0.0138,0.0196,1.59,0.17,-0.76,0.261,0.604,0.476,-1.514
4195,-0.0008,0.0119,0.0189,1.61,0.17,-0.78,0.261,-0.361,1.209,-1.848
4205,0.0007,0.0089,0.0145,1.60,0.16,-0.79,0.261,-2.649,1.407,-1.459
4218,-0.0013,0.0057,0.0140,1.61,0.16,-0.81,0.261,-2.358,1.126,-1.370
4226,-0.0083,0.0030,0.0132,1.60,0.19,-0.82,0.259,-2.547,0.782,-1.496
4236,-0.0031,0.0006,0.0121,1.56,0.14,-0.84,0.259,-5.583,-0.505,-1.326
4246,-0.0065,-0.0015,0.0033,1.52,0.16,-0.85,0.259,-6.360,0.163,-1.157
4255,-0.0031,-0.0072,0.0021,1.51,0.13,-0.86,0.259,-4.384,1.073,-1.023
4267,-0.0033,-0.0105,0.0010,1.46,0.13,-0.88,0.259,-8.928,-0.249,-0.423
4277,-0.0036,-0.0129,0.0004,1.40,0.13,-0.89,0.262,-8.683,-0.186,-0.282
4286,-0.0036,-0.0159,-0.0002,1.34,0.11,-0.90,0.262,-4.047,0.825,-0.363
4296,-0.0038,-0.0180,-0.0013,1.25,0.12,-0.90,0.262,-4.899,1.212,-0.435
4306,-0.0040,-0.0218,-0.0003,1.18,0.11,-0.90,0.262,-8.561,0.279,-0.414
4316,-0.0040,-0.0242,-0.0007,1.13,0.11,-0.90,0.262,-10.501,-0.478,-0.223
4326,-0.0042,-0.0261,-0.0013,1.06,0.10,-0.91,0.257,-11.302,-1.258,0.184
4336,-0.0043,-0.0276,-0.0019,0.97,0.11,-0.91,0.257,-7.809,-0.551,0.521
4346,-0.0080,-0.0283,-0.0123,0.85,0.14,-0.91,0.257,-10.363,-1.511,0.216
4356,-0.0013,-0.0343,-0.0128,0.77,0.11,-0.91,0.257,-11.280,-0.744,0.685
4366,-0.0032,-0.0334,-0.0131,0.67,0.13,-0.91,0.257,-11.553,-0.214,-0.085
4376,-0.0035,-0.0345,-0.0134,0.56,0.14,-0.90,0.259,-11.737,1.657,-0.983
4386,-0.0036,-0.0345,-0.0138,0.46,0.14,-0.90,0.259,-14.873,1.787,-0.063
4396,-0.0039,-0.0395,-0.0142,0.36,0.14,-0.90,0.259,-14.656,1.879,0.604
4406,-0.0037,-0.0389,-0.0144,0.24,0.12,-0.91,0.259,-11.915,0.738,0.070
4415,-0.0035,-0.0377,-0.0141,0.09,0.10,-0.90,0.259,-12.077,2.327,-0.281
4425,-0.0033,-0.0397,-0.0138,-0.04,0.08,-0.90,0.254,-11.740,2.439,0.119
4436,-0.0033,-0.0402,-0.0139,-0.16,0.07,-0.90,0.254,-10.991,2.585,-0.060
4446,-0.0046,-0.0370,-0.0234,-0.28,0.05,-0.90,0.254,-9.889,2.406,-1.173
4456,-0.0043,-0.0388,-0.0230,-0.38,0.02,-0.90,0.254,-10.579,1.466,-1.042
4465,-0.0055,-0.0370,-0.0223,-0.50,0.01,-0.90,0.254,-11.032,0.760,-1.211
4476,-0.0119,-0.0369,-0.0216,-0.59,0.02,-0.91,0.256,-10.494,0.037,-0.751
4485,-0.0119,-0.0359,-0.0210,-0.70,0.01,-0.92,0.256,-8.200,0.109,-1.169
4496,-0.0115,-0.0388,-0.0202,-0.78,0.00,-0.93,0.256,-8.772,-0.537,-0.400
4506,-0.0115,-0.0375,-0.0177,-0.88,0.00,-0.94,0.256,-6.794,0.357,-0.837
4516,-0.0111,-0.0353,-0.0165,-0.96,0.00,-0.95,0.256,-5.285,0.711,-0.830
4526,-0.0108,-0.0330,-0.0156,-1.04,0.01,-0.96,0.256,-5.546,1.866,-0.410
4536,-0.0087,-0.0327,-0.0146,-1.10,-0.01,-0.96,0.256,-5.012,3.144,0.117
4546,-0.0086,-0.0308,-0.0112,-1.16,-0.02,-0.97,0.256,-5.751,3.631,0.379
4556,-0.0010,-0.0307,-0.0102,-1.20,-0.08,-0.97,0.256,-4.880,4.038,0.526
4565,-0.0056,-0.0285,-0.0090,-1.25,-0.09,-0.97,0.256,-5.901,3.974,1.409
4575,-0.0054,-0.0263,-0.0079,-1.31,-0.12,-0.97,0.250,-4.200,2.843,1.505
4585,-0.0062,-0.0242,-0.0068,-1.36,-0.16,-0.96,0.250,-2.375,1.848,1.779
4596,-0.0051,-0.0220,-0.0056,-1.41,-0.19,-0.95,0.250,-1.695,0.654,2.133
4606,-0.0059,-0.0181,-0.0133,-1.46,-0.21,-0.93,0.250,-0.539,-0.214,2.282
4615,-0.0086,-0.0146,-0.0124,-1.48,-0.21,-0.91,0.250,-2.167,-1.488,2.718
4626,-0.0061,-0.0114,-0.0115,-1.50,-0.22,-0.89,0.255,-1.353,-1.691,3.288
4635,-0.0057,-0.0088,-0.0106,-1.51,-0.22,-0.87,0.255,-0.444,-2.472,3.289
4645,-0.0053,-0.0062,-0.0049,-1.52,-0.20,-0.84,0.255,-0.729,-2.955,3.513
4655,-0.0049,-0.0036,-0.0040,-1.52,-0.18,-0.81,0.255,-0.049,-1.903,4.057
4665,-0.0045,-0.0010,-0.0031,-1.53,-0.16,-0.77,0.255,2.224,-0.629,4.434
4676,-0.0064,0.0019,-0.0020,-1.53,-0.13,-0.73,0.254,5.328,1.092,4.497
4685,-0.0081,0.0064,-0.0011,-1.53,-0.10,-0.69,0.254,5.515,-0.208,5.073
4695,-0.0079,0.0091,0.0011,-1.50,-0.11,-0.65,0.254,6.721,-0.135,5.002
4706,-0.0072,0.0143,0.0020,-1.46,-0.12,-0.61,0.254,8.646,0.824,5.280
4715,-0.0070,0.0168,0.0026,-1.41,-0.12,-0.55,0.254,11.109,1.302,5.435
4725,-0.0065,0.0195,0.0035,-1.34,-0.12,-0.50,0.254,9.810,2.019,5.761
4735,-0.0078,0.0236,0.0040,-1.26,-0.13,-0.45,0.254,11.073,2.250,5.450
4745,-0.0076,0.0258,0.0048,-1.15,-0.14,-0.40,0.254,5.849,1.398,6.080
4756,-0.0067,0.0291,0.0053,-1.05,-0.17,-0.34,0.254,6.225,3.126,6.629
4765,-0.0057,0.0319,0.0058,-0.95,-0.19,-0.29,0.254,7.798,0.711,6.834
4776,-0.0049,0.0336,0.0061,-0.89,-0.22,-0.22,0.254,9.251,1.967,6.028
4786,-0.0038,0.0367,0.0064,-0.83,-0.25,-0.15,0.254,12.020,0.226,5.700
4796,-0.0032,0.0393,0.0063,-0.75,-0.26,-0.08,0.254,14.462,-0.689,5.983
4805,-0.0023,0.0433,0.0064,-0.66,-0.28,-0.03,0.254,16.438,-0.359,5.727
4816,-0.0018,0.0445,0.0065,-0.53,-0.28,0.03,0.254,15.453,-0.944,5.247
4825,-0.0014,0.0510,0.0063,-0.41,-0.27,0.09,0.256,16.172,-1.425,4.769
4835,0.0005,0.0503,0.0063,-0.41,-0.28,0.09,0.256,16.930,-0.829,5.577
4845,0.0008,0.0524,0.0099,-0.25,-0.27,0.15,0.256,16.658,0.204,4.987
4855,0.0010,0.0503,0.0101,-0.08,-0.26,0.20,0.256,16.239,-0.241,5.427
4865,0.0013,0.0481,0.0102,0.09,-0.25,0.25,0.256,16.546,-0.939,5.163
4875,0.0016,0.0492,0.0100,0.24,-0.24,0.31,0.260,14.724,-0.638,5.187
4885,0.0020,0.0518,0.0100,0.39,-0.24,0.36,0.260,15.464,-0.560,5.033
4895,0.0021,0.0540,0.0102,0.54,-0.24,0.41,0.260,13.433,-1.144,5.327
4905,0.0025,0.0532,0.0203,0.70,-0.23,0.47,0.260,15.034,-1.655,4.415
4915,0.0065,0.0513,0.0202,0.86,-0.24,0.52,0.260,8.416,-0.285,4.639
4925,0.0048,0.0534,0.0198,1.01,-0.23,0.57,0.258,13.303,1.226,3.094
4935,0.0048,0.0515,0.0196,1.15,-0.22,0.61,0.258,5.770,-0.654,3.746
4945,0.0051,0.0501,0.0187,1.27,-0.21,0.66,0.258,10.013,-0.402,2.853
4956,0.0052,0.0479,0.0185,1.37,-0.22,0.70,0.258,11.050,-0.364,2.246
4965,0.0054,0.0467,0.0185,1.46,-0.21,0.73,0.258,9.475,-1.683,2.216
4975,0.0055,0.0432,0.0184,1.54,-0.21,0.76,0.263,8.628,-1.278,2.086
4986,0.0073,0.0394,0.0182,1.63,-0.21,0.79,0.263,13.349,0.233,1.264
4995,0.0003,0.0388,0.0176,1.72,-0.15,0.81,0.263,10.853,-1.790,1.519
5005,0.0005,0.0353,0.0253,1.83,-0.13,0.83,0.263,9.803,-1.257,0.666
5015,0.0041,0.0293,0.0247,1.94,-0.15,0.84,0.263,9.171,-2.015,0.423
5025,0.0056,0.0287,0.0245,2.07,-0.15,0.86,0.263,2.346,-1.820,1.399
5035,0.0055,0.0280,0.0241,2.15,-0.13,0.87,0.263,4.938,-1.938,0.444
5045,0.0058,0.0244,0.0257,2.24,-0.11,0.87,0.263,-0.719,-1.301,0.155
5055,0.0061,0.0206,0.0248,2.31,-0.10,0.88,0.263,-1.677,-2.486,-0.217
5065,0.0058,0.0171,0.0236,2.34,-0.08,0.89,0.263,-2.172,-0.257,-0.407
5075,0.0060,0.0131,0.0228,2.38,-0.07,0.89,0.258,-7.293,-0.386,-0.399
5085,0.0057,0.0107,0.0221,2.34,-0.05,0.89,0.258,-10.132,-0.778,-1.319
5095,0.0058,0.0067,0.0214,2.33,-0.04,0.89,0.258,-5.590,-0.202,-1.946
5105,0.0074,0.0022,0.0077,2.29,-0.05,0.88,0.258,-9.285,-0.295,-0.715
5115,0.0054,-0.0001,0.0068,2.19,-0.03,0.87,0.258,-2.676,-0.460,-0.754
5125,0.0056,-0.0074,0.0046,2.05,-0.03,0.84,0.260,-2.514,-1.086,-2.178
5135,0.0053,-0.0075,0.0046,2.05,-0.03,0.84,0.260,-4.227,-0.752,-2.189
5145,0.0052,-0.0170,0.0002,1.94,-0.01,0.81,0.260,-6.700,-0.180,-1.912
5155,0.0103,-0.0178,0.0002,1.95,-0.04,0.81,0.260,-6.261,-0.857,-2.920
5165,0.0046,-0.0233,-0.0008,1.86,0.01,0.78,0.260,-4.300,-0.440,-2.190
5175,0.0046,-0.0233,-0.0008,1.86,0.01,0.78,0.263,-7.915,1.553,-2.842
5186,0.0044,-0.0313,-0.0018,1.76,0.01,0.72,0.263,-9.361,-0.242,-2.983
5195,0.0005,-0.0295,-0.0018,1.75,0.03,0.72,0.263,-10.616,0.329,-2.946
5205,0.0025,-0.0368,0.0025,1.59,0.02,0.67,0.263,-12.346,-0.918,-2.127
5215,0.0025,-0.0368,0.0025,1.59,0.02,0.67,0.263,-13.032,-1.318,-3.528
5225,0.0025,-0.0404,0.0025,1.48,0.02,0.65,0.260,-11.978,-1.963,-2.739
5235,-0.0014,-0.0432,0.0021,1.36,0.04,0.62,0.260,-13.359,-1.636,-2.901
5245,0.0003,-0.0492,-0.0026,1.26,0.04,0.59,0.260,-15.224,-0.407,-3.325
5255,-0.0001,-0.0514,-0.0034,1.14,0.06,0.56,0.260,-13.157,0.298,-3.852
5265,-0.0003,-0.0548,-0.0038,1.02,0.08,0.53,0.260,-13.997,1.113,-3.804
5275,0.0013,-0.0542,-0.0041,0.86,0.08,0.50,0.256,-10.798,1.055,-3.402
5285,0.0012,-0.0537,-0.0042,0.70,0.08,0.46,0.256,-10.398,1.869,-2.736
5294,-0.0006,-0.0564,-0.0041,0.57,0.09,0.43,0.256,-9.940,2.647,-3.596
5305,-0.0005,-0.0572,-0.0154,0.45,0.08,0.39,0.256,-11.383,2.096,-3.071
5315,0.0014,-0.0581,-0.0155,0.35,0.05,0.36,0.256,-11.331,2.286,-3.146
5325,-0.0001,-0.0588,-0.0153,0.25,0.04,0.33,0.254,-11.938,2.856,-3.463
5335,0.0002,-0.0574,-0.0152,0.14,0.01,0.29,0.254,-12.341,2.891,-3.079
5345,0.0005,-0.0591,-0.0247,0.03,-0.01,0.26,0.254,-10.969,3.012,-3.526
5354,-0.0008,-0.0588,-0.0250,-0.08,-0.03,0.22,0.254,-11.092,2.848,-3.087
5365,-0.0008,-0.0587,-0.0252,-0.21,-0.06,0.19,0.254,-12.392,0.777,-3.031
5375,-0.0003,-0.0600,-0.0250,-0.33,-0.09,0.16,0.252,-10.467,0.954,-2.757
5385,-0.0033,-0.0593,-0.0243,-0.45,-0.10,0.13,0.252,-8.313,0.206,-3.794
5395,-0.0029,-0.0617,-0.0240,-0.55,-0.11,0.10,0.252,-9.917,-1.451,-2.712
5405,-0.0025,-0.0590,-0.0284,-0.68,-0.12,0.07,0.252,-9.434,-1.436,-2.638
5415,-0.0022,-0.0600,-0.0279,-0.76,-0.12,0.04,0.252,-8.060,-1.370,-3.096
5425,-0.0020,-0.0587,-0.0269,-0.84,-0.12,0.01,0.252,-9.924,-2.914,-3.009
5435,-0.0019,-0.0575,-0.0258,-0.94,-0.09,-0.02,0.252,-10.571,-1.999,-2.736
5445,-0.0018,-0.0558,-0.0268,-1.03,-0.08,-0.05,0.252,-9.160,-1.021,-2.729
5455,-0.0020,-0.0560,-0.0257,-1.11,-0.05,-0.08,0.252,-6.859,-0.944,-3.206
5465,-0.0019,-0.0541,-0.0246,-1.21,-0.03,-0.11,0.252,-8.598,-0.983,-2.563
5475,-0.0020,-0.0543,-0.0233,-1.29,-0.01,-0.14,0.249,-7.981,-0.151,-3.165
5484,-0.0020,-0.0520,-0.0222,-1.37,0.01,-0.16,0.249,-7.014,-0.113,-2.922
5495,-0.0021,-0.0521,-0.0214,-1.43,0.01,-0.19,0.249,-8.784,-1.091,-2.279
5505,-0.0021,-0.0504,-0.0257,-1.51,0.01,-0.22,0.249,-7.219,-1.151,-2.398
5515,-0.0020,-0.0468,-0.0246,-1.58,0.02,-0.25,0.249,-5.405,0.394,-2.059
5525,-0.0022,-0.0430,-0.0233,-1.67,0.02,-0.28,0.250,-4.057,-1.325,-2.454
5534,-0.0022,-0.0401,-0.0220,-1.75,0.04,-0.30,0.250,-3.871,-0.710,-2.211
5545,-0.0059,-0.0367,-0.0191,-1.81,0.06,-0.32,0.250,-1.301,1.390,-2.300
5555,-0.0040,-0.0318,-0.0181,-1.89,0.06,-0.35,0.250,-0.542,0.814,-2.775
5564,-0.0041,-0.0286,-0.0166,-1.92,0.06,-0.37,0.250,0.973,-0.853,-3.167
5575,-0.0039,-0.0260,-0.0154,-1.94,0.06,-0.39,0.248,1.652,0.083,-2.595
5585,-0.0040,-0.0226,-0.0143,-1.95,0.05,-0.42,0.248,3.360,1.765,-3.578
5595,-0.0040,-0.0192,-0.0132,-1.95,0.06,-0.45,0.248,4.438,0.374,-3.337
5604,-0.0041,-0.0159,-0.0134,-1.94,0.06,-0.48,0.248,4.175,0.767,-3.295
5615,-0.0058,-0.0105,-0.0120,-1.92,0.05,-0.51,0.248,5.235,2.525,-3.119
5625,-0.0058,-0.0072,-0.0107,-1.89,0.05,-0.54,0.250,6.857,1.994,-4.098
5635,-0.0116,-0.0004,-0.0097,-1.87,0.07,-0.58,0.250,4.761,0.354,-3.493
5645,-0.0117,0.0032,-0.0036,-1.82,0.06,-0.62,0.250,6.182,0.600,-3.496
5655,-0.0108,0.0069,-0.0022,-1.76,0.05,-0.65,0.250,7.694,0.520,-3.752
5664,-0.0103,0.0108,-0.0009,-1.70,0.03,-0.69,0.250,7.427,1.420,-3.604
5674,-0.0097,0.0140,0.0001,-1.64,0.02,-0.73,0.246,7.868,1.082,-2.625
5685,-0.0112,0.0189,0.0011,-1.58,0.02,-0.76,0.246,7.845,0.926,-2.640
5695,-0.0112,0.0215,-0.0039,-1.50,0.01,-0.80,0.246,7.468,1.231,-2.795
5704,-0.0145,0.0259,-0.0029,-1.44,0.03,-0.83,0.246,10.072,3.132,-2.634
5714,-0.0137,0.0300,-0.0021,-1.37,0.01,-0.86,0.246,10.812,2.341,-3.551
5725,-0.0110,0.0319,-0.0014,-1.29,-0.02,-0.89,0.247,10.050,2.340,-3.492
5734,-0.0099,0.0370,-0.0006,-1.22,-0.04,-0.91,0.247,10.809,1.917,-2.590
5745,-0.0098,0.0391,-0.0006,-1.12,-0.06,-0.94,0.247,9.971,2.904,-3.406
5754,-0.0145,0.0496,0.0002,-1.07,-0.05,-0.98,0.247,12.690,2.225,-3.106
5764,-0.0135,0.0516,0.0007,-0.96,-0.07,-1.01,0.247,12.894,1.845,-2.851
5775,-0.0125,0.0534,0.0013,-0.87,-0.10,-1.05,0.250,13.537,1.955,-1.813
5785,-0.0114,0.0528,0.0020,-0.73,-0.12,-1.08,0.250,15.371,1.642,-2.444
5794,-0.0122,0.0594,0.0027,-0.64,-0.13,-1.10,0.250,16.234,1.051,-1.725
5804,-0.0150,0.0564,0.0094,-0.48,-0.14,-1.13,0.250,17.030,1.197,-1.764
5814,-0.0121,0.0618,0.0098,-0.37,-0.17,-1.15,0.250,18.954,2.121,-1.917
5824,-0.0076,0.0613,0.0106,-0.20,-0.20,-1.17,0.250,17.633,1.725,-1.836
5835,-0.0103,0.0605,0.0113,-0.02,-0.20,-1.18,0.250,18.141,2.304,-1.530
5845,-0.0127,0.0611,0.0162,0.16,-0.20,-1.20,0.250,18.823,2.808,-1.271
5854,-0.0081,0.0649,0.0165,0.32,-0.25,-1.22,0.250,15.951,1.858,-0.998
5865,-0.0054,0.0630,0.0168,0.51,-0.29,-1.24,0.250,15.133,3.446,-1.616
5875,-0.0059,0.0643,0.0176,0.68,-0.31,-1.25,0.252,13.267,2.391,-1.941
5884,-0.0054,0.0631,0.0182,0.84,-0.33,-1.27,0.252,11.856,3.755,-1.808
5894,-0.0042,0.0609,0.0183,1.00,-0.36,-1.28,0.252,11.649,3.002,-2.141
5905,-0.0099,0.0641,0.0237,1.11,-0.35,-1.31,0.252,9.674,1.895,-1.812
5915,-0.0085,0.0618,0.0242,1.23,-0.38,-1.32,0.252,9.666,0.874,-1.641
5924,-0.0071,0.0594,0.0248,1.34,-0.41,-1.34,0.254,8.463,0.413,-2.013
5934,-0.0077,0.0572,0.0251,1.44,-0.43,-1.36,0.254,9.920,0.151,-1.950
5945,-0.0066,0.0533,0.0275,1.55,-0.45,-1.38,0.254,7.782,-1.341,-1.699
5954,-0.0056,0.0493,0.0276,1.65,-0.45,-1.39,0.254,8.187,-0.286,-2.278
5964,-0.0096,0.0504,0.0276,1.72,-0.43,-1.42,0.254,8.125,0.217,-2.508
5974,-0.0089,0.0474,0.0277,1.81,-0.43,-1.43,0.255,6.098,-1.038,-2.379
5984,-0.0079,0.0468,0.0277,1.87,-0.43,-1.45,0.255,4.353,-1.949,-1.673
5994,-0.0070,0.0426,0.0276,1.95,-0.42,-1.48,0.255,6.849,-0.096,-2.155
6004,-0.0046,0.0388,0.0280,2.01,-0.43,-1.50,0.255,3.443,-1.814,-1.167
6014,-0.0040,0.0386,0.0280,2.05,-0.42,-1.52,0.255,3.900,-2.514,-2.191
6025,-0.0032,0.0364,0.0276,2.09,-0.41,-1.54,0.259,1.333,-1.838,-1.462
6034,-0.0026,0.0328,0.0268,2.15,-0.40,-1.56,0.259,2.169,-1.516,-1.653
6045,-0.0020,0.0291,0.0325,2.19,-0.38,-1.58,0.259,2.138,-0.767,-1.468
6055,0.0018,0.0260,0.0322,2.22,-0.38,-1.59,0.259,1.103,-0.385,-2.107
6064,0.0022,0.0224,0.0317,2.23,-0.36,-1.61,0.259,-0.302,-0.706,-1.565
6074,-0.0062,0.0197,0.0309,2.25,-0.30,-1.63,0.259,-1.347,1.255,-2.111
6084,-0.0057,0.0158,0.0301,2.26,-0.30,-1.64,0.259,-0.686,2.020,-3.077
6094,-0.0054,0.0120,0.0294,2.26,-0.29,-1.66,0.259,-2.267,-0.268,-3.006
6104,-0.0045,0.0097,0.0284,2.23,-0.30,-1.68,0.259,-2.101,-1.523,-2.477
6114,-0.0042,0.0059,0.0272,2.22,-0.32,-1.70,0.259,-6.783,-2.045,-2.394
6124,-0.0037,0.0021,0.0258,2.21,-0.32,-1.73,0.256,-7.866,-1.550,-2.105
6134,-0.0053,-0.0012,0.0246,2.20,-0.30,-1.76,0.256,-4.854,0.407,-3.121
6144,-0.0051,-0.0054,0.0134,2.14,-0.28,-1.78,0.256,-8.060,0.817,-3.030
6154,-0.0048,-0.0094,0.0120,2.07,-0.27,-1.80,0.256,-10.668,0.352,-3.179
6164,-0.0042,-0.0134,0.0107,2.01,-0.27,-1.83,0.256,-12.562,-0.942,-2.318
6174,-0.0037,-0.0172,0.0097,1.93,-0.27,-1.86,0.257,-10.807,0.718,-2.165
6184,-0.0031,-0.0201,0.0087,1.84,-0.28,-1.89,0.257,-9.522,0.648,-2.518
6194,-0.0029,-0.0280,0.0080,1.76,-0.28,-1.92,0.257,-8.491,0.644,-2.306
6204,-0.0026,-0.0309,0.0025,1.66,-0.29,-1.94,0.257,-11.380,-0.503,-1.926
6214,-0.0038,-0.0331,0.0017,1.56,-0.28,-1.96,0.257,-9.546,0.848,-2.207
6224,-0.0014,-0.0352,0.0008,1.47,-0.30,-1.98,0.254,-11.601,0.660,-2.786
6234,-0.0046,-0.0383,-0.0001,1.37,-0.28,-2.00,0.254,-13.757,0.704,-2.729
6244,-0.0042,-0.0404,-0.0106,1.28,-0.29,-2.03,0.254,-12.455,0.387,-2.463
6254,-0.0037,-0.0488,-0.0115,1.19,-0.30,-2.05,0.254,-12.235,-0.104,-3.330
6264,-0.0033,-0.0508,-0.0122,1.08,-0.31,-2.08,0.254,-16.688,0.065,-2.414
6274,-0.0009,-0.0527,-0.0128,0.96,-0.33,-2.11,0.255,-14.667,0.095,-3.028
6284,-0.0004,-0.0543,-0.0133,0.83,-0.33,-2.14,0.255,-17.400,-1.360,-3.309
6294,-0.0001,-0.0607,-0.0139,0.69,-0.33,-2.17,0.255,-18.811,-1.691,-3.059
6304,0.0003,-0.0631,-0.0160,0.55,-0.33,-2.20,0.255,-18.183,-1.991,-3.072
6314,0.0008,-0.0640,-0.0159,0.40,-0.32,-2.23,0.255,-16.219,-0.772,-3.206
6324,0.0009,-0.0652,-0.0158,0.23,-0.31,-2.26,0.250,-14.462,-1.504,-3.810
6334,-0.0008,-0.0621,-0.0159,0.04,-0.27,-2.29,0.250,-18.093,-1.057,-3.162
6344,-0.0007,-0.0664,-0.0261,-0.09,-0.26,-2.32,0.250,-17.520,-0.957,-3.126
6354,-0.0005,-0.0653,-0.0258,-0.25,-0.25,-2.36,0.250,-18.350,-0.573,-2.735
6364,-0.0003,-0.0652,-0.0260,-0.41,-0.24,-2.39,0.250,-15.350,-0.718,-2.717
6374,-0.0017,-0.0594,-0.0259,-0.61,-0.22,-2.42,0.248,-11.865,-0.392,-3.080
6384,-0.0016,-0.0609,-0.0256,-0.77,-0.21,-2.45,0.248,-12.558,-0.889,-2.509
6394,-0.0012,-0.0587,-0.0249,-0.92,-0.20,-2.48,0.248,-12.715,-0.780,-2.542
6404,-0.0011,-0.0603,-0.0317,-1.04,-0.20,-2.50,0.248,-9.945,-0.867,-2.823
6414,-0.0008,-0.0563,-0.0310,-1.19,-0.19,-2.53,0.248,-9.217,-0.503,-2.777
6424,-0.0005,-0.0540,-0.0304,-1.31,-0.19,-2.56,0.244,-8.514,-0.346,-2.839
6434,-0.0003,-0.0520,-0.0298,-1.42,-0.18,-2.58,0.244,-5.411,-0.740,-3.124
6444,-0.0001,-0.0500,-0.0388,-1.52,-0.17,-2.61,0.244,-5.500,-0.320,-2.853
6454,0.0003,-0.0474,-0.0378,-1.60,-0.17,-2.64,0.244,-5.509,-0.230,-2.290
6464,0.0008,-0.0446,-0.0366,-1.67,-0.16,-2.67,0.244,-3.225,0.454,-2.485
6474,0.0010,-0.0413,-0.0356,-1.72,-0.15,-2.70,0.247,-2.206,0.274,-2.661
6484,0.0013,-0.0378,-0.0345,-1.77,-0.15,-2.72,0.247,-3.042,0.019,-2.453
6494,0.0017,-0.0349,-0.0332,-1.81,-0.15,-2.75,0.247,-2.115,0.996,-1.942
6504,0.0020,-0.0321,-0.0271,-1.84,-0.16,-2.77,0.247,-1.288,0.828,-1.949
6514,0.0024,-0.0289,-0.0255,-1.86,-0.15,-2.80,0.247,-1.662,0.912,-1.503
6524,0.0029,-0.0253,-0.0234,-1.89,-0.16,-2.82,0.245,-0.710,0.371,-1.502
6534,0.0034,-0.0220,-0.0217,-1.91,-0.17,-2.84,0.245,1.778,0.344,-2.518
6544,0.0058,-0.0178,-0.0190,-1.92,-0.19,-2.86,0.245,1.767,1.186,-2.166
6554,0.0063,-0.0145,-0.0173,-1.93,-0.19,-2.88,0.245,2.921,-0.445,-2.472
6564,0.0046,-0.0110,-0.0156,-1.92,-0.18,-2.90,0.245,0.871,0.566,-1.165
6574,-0.0009,-0.0071,-0.0141,-1.90,-0.16,-2.92,0.244,5.307,-2.096,-1.040
6584,0.0072,-0.0044,-0.0125,-1.88,-0.20,-2.94,0.244,4.013,-1.108,-0.988
6594,0.0056,-0.0011,-0.0105,-1.86,-0.19,-2.96,0.244,9.049,-2.365,-0.931
6604,0.0075,0.0029,-0.0086,-1.82,-0.19,-2.97,0.244,5.737,-3.148,-0.338
6614,0.0058,0.0093,-0.0069,-1.77,-0.16,-2.98,0.244,4.930,-3.383,-0.367
6624,0.0062,0.0123,-0.0052,-1.71,-0.14,-2.99,0.247,7.540,-3.241,-0.559
6634,0.0041,0.0176,-0.0035,-1.66,-0.10,-2.99,0.247,9.493,-2.776,-0.630
6644,0.0045,0.0206,0.0059,-1.59,-0.07,-3.00,0.247,12.484,-1.987,-0.138
6654,0.0043,0.0270,0.0075,-1.52,-0.03,-3.01,0.247,13.745,-1.229,0.383
6663,0.0057,0.0271,0.0089,-1.41,-0.01,-3.01,0.247,11.437,0.235,0.327
6674,0.0053,0.0288,0.0102,-1.29,0.02,-3.01,0.246,13.767,0.291,0.973
6684,0.0051,0.0315,0.0113,-1.17,0.03,-3.01,0.246,14.789,1.419,0.922
6694,0.0053,0.0378,0.0124,-1.07,0.03,-3.01,0.246,18.158,2.479,1.198
6704,0.0070,0.0382,0.0146,-0.92,0.02,-3.00,0.246,12.549,1.141,2.631
6713,0.0127,0.0431,0.0154,-0.80,-0.02,-2.98,0.246,16.286,1.805,2.601
6724,0.0074,0.0406,0.0162,-0.61,-0.02,-2.97,0.245,14.890,2.047,3.288
6734,0.0077,0.0473,0.0170,-0.50,-0.03,-2.95,0.245,15.352,1.994,3.261
6744,0.0079,0.0475,0.0144,-0.35,-0.05,-2.93,0.245,12.788,-0.084,3.638
6754,0.0079,0.0461,0.0150,-0.18,-0.07,-2.90,0.245,14.791,0.230,3.623
6764,0.0066,0.0479,0.0154,-0.05,-0.07,-2.87,0.245,13.082,-1.429,4.075
6774,0.0066,0.0479,0.0160,0.09,-0.08,-2.83,0.248,10.314,-2.278,4.599
6784,0.0083,0.0491,0.0166,0.23,-0.09,-2.79,0.248,11.613,-3.065,4.487
6794,0.0080,0.0469,0.0170,0.37,-0.07,-2.75,0.248,16.896,-1.541,4.678
6804,0.0078,0.0517,0.0206,0.45,-0.05,-2.71,0.248,9.985,-1.296,6.022
6813,0.0072,0.0493,0.0212,0.58,-0.02,-2.66,0.248,8.594,-2.581,6.195
6823,0.0068,0.0477,0.0217,0.74,0.00,-2.62,0.250,11.954,-1.334,5.575
6834,0.0063,0.0452,0.0216,0.86,0.02,-2.56,0.250,11.237,-1.439,5.723
6844,0.0059,0.0477,0.0252,0.93,0.05,-2.50,0.250,14.476,-0.928,5.880
6853,0.0054,0.0445,0.0253,1.05,0.07,-2.44,0.250,10.603,-0.237,6.163
6863,0.0034,0.0464,0.0255,1.15,0.10,-2.39,0.250,11.661,-0.339,6.297
6874,0.0045,0.0409,0.0254,1.30,0.10,-2.33,0.257,13.286,1.142,6.543
6884,0.0042,0.0423,0.0255,1.40,0.11,-2.27,0.257,11.819,2.396,6.344
6894,0.0039,0.0399,0.0257,1.52,0.11,-2.21,0.257,6.798,1.183,6.806
6903,0.0038,0.0392,0.0402,1.64,0.11,-2.14,0.257,7.189,3.297,7.257
6913,0.0038,0.0352,0.0397,1.77,0.09,-2.08,0.257,2.918,2.262,7.217
6924,0.0036,0.0334,0.0393,1.83,0.07,-2.01,0.256,3.467,3.639,6.550
6933,0.0085,0.0281,0.0389,1.91,0.02,-1.93,0.256,-0.789,1.989,7.210
6943,0.0069,0.0264,0.0406,1.94,0.00,-1.86,0.256,1.775,2.095,6.805
6954,0.0087,0.0218,0.0401,1.99,-0.04,-1.79,0.256,-0.326,1.862,7.104
6964,0.0087,0.0184,0.0392,1.99,-0.07,-1.72,0.256,-0.658,0.754,6.897
6973,0.0087,0.0150,0.0384,2.00,-0.08,-1.65,0.254,-0.211,1.125,6.973
6984,0.0087,0.0116,0.0378,2.01,-0.10,-1.58,0.254,-4.363,0.334,6.644
6994,0.0104,0.0078,0.0293,1.99,-0.12,-1.51,0.254,-0.965,-0.576,6.725
7004,0.0103,0.0059,0.0286,1.98,-0.12,-1.44,0.254,-5.900,-1.888,6.656
7014,0.0033,0.0015,0.0279,1.96,-0.08,-1.37,0.254,-4.804,-2.963,6.561
7023,0.0033,-0.0019,0.0272,1.94,-0.07,-1.30,0.257,-1.453,-0.994,6.138
7033,0.0083,-0.0079,0.0261,1.90,-0.08,-1.24,0.257,-5.046,-1.165,6.303
7043,0.0083,-0.0111,0.0239,1.85,-0.05,-1.17,0.257,-11.127,-0.490,6.317
7053,0.0079,-0.0156,0.0228,1.83,-0.04,-1.12,0.257,-11.138,-2.728,6.341
7063,0.0079,-0.0187,0.0219,1.78,-0.02,-1.06,0.257,-13.646,-0.956,6.319
7073,0.0003,-0.0247,0.0210,1.69,0.03,-0.99,0.258,-8.706,1.257,5.507
7083,0.0034,-0.0249,0.0201,1.55,0.03,-0.93,0.258,-14.528,0.277,5.611
7093,0.0049,-0.0268,0.0194,1.42,0.04,-0.87,0.258,-12.435,0.754,5.751
7103,0.0066,-0.0304,0.0182,1.33,0.02,-0.81,0.258,-6.899,3.359,4.522
7113,0.0064,-0.0332,0.0175,1.20,0.01,-0.76,0.258,-11.290,3.020,5.082
7123,0.0081,-0.0361,0.0163,1.08,-0.01,-0.70,0.255,-15.171,0.332,4.485
7133,0.0083,-0.0392,0.0153,1.01,-0.04,-0.66,0.255,-15.176,2.979,3.942
7143,0.0033,-0.0413,0.0056,0.90,-0.04,-0.60,0.255,-12.669,2.100,3.483
7153,0.0032,-0.0409,0.0047,0.74,-0.04,-0.56,0.255,-10.968,1.065,3.880
7164,0.0070,-0.0438,0.0040,0.60,-0.09,-0.52,0.255,-14.489,-0.136,3.608
7173,0.0038,-0.0416,0.0034,0.44,-0.09,-0.48,0.257,-12.135,-0.318,3.399
7183,-0.0063,-0.0461,0.0029,0.35,-0.04,-0.43,0.257,-13.567,-0.655,3.054
7193,0.0024,-0.0466,0.0025,0.20,-0.09,-0.40,0.257,-10.979,0.901,2.767
7203,0.0024,-0.0487,0.0009,0.09,-0.09,-0.37,0.257,-11.121,0.462,2.298
7213,0.0025,-0.0471,0.0004,-0.05,-0.09,-0.34,0.257,-15.340,0.531,2.116
7223,0.0026,-0.0473,-0.0003,-0.17,-0.09,-0.31,0.252,-10.228,0.114,2.001
7233,0.0027,-0.0457,-0.0005,-0.29,-0.09,-0.29,0.252,-11.782,1.765,1.986
7243,0.0029,-0.0448,-0.0115,-0.43,-0.10,-0.27,0.252,-11.120,1.229,1.458
7253,0.0047,-0.0477,-0.0117,-0.52,-0.12,-0.25,0.252,-12.097,1.318,0.939
7263,-0.0000,-0.0488,-0.0118,-0.63,-0.11,-0.22,0.252,-9.387,1.720,0.638
7273,0.0069,-0.0497,-0.0118,-0.73,-0.16,-0.21,0.252,-9.636,2.174,0.696
7283,0.0072,-0.0485,-0.0114,-0.84,-0.18,-0.20,0.252,-8.980,0.728,1.282
7293,0.0058,-0.0441,-0.0110,-0.96,-0.18,-0.19,0.252,-7.135,-0.154,0.474
7303,0.0079,-0.0465,-0.0139,-1.04,-0.21,-0.19,0.252,-6.211,-2.281,1.213
7313,0.0065,-0.0436,-0.0135,-1.14,-0.22,-0.17,0.252,-8.264,-2.137,0.642
7323,0.0065,-0.0458,-0.0128,-1.19,-0.21,-0.17,0.252,-5.703,-1.909,-0.537
7333,0.0064,-0.0431,-0.0122,-1.26,-0.19,-0.15,0.252,-4.202,-3.320,0.283
7343,0.0062,-0.0433,-0.0147,-1.33,-0.17,-0.14,0.252,-6.668,-2.518,-0.121
7353,0.0077,-0.0387,-0.0141,-1.41,-0.16,-0.15,0.252,-4.700,-2.610,-0.598
7363,0.0057,-0.0362,-0.0133,-1.48,-0.12,-0.14,0.252,-3.590,-1.745,-0.264
7373,0.0070,-0.0333,-0.0124,-1.55,-0.10,-0.14,0.250,-5.592,-1.477,-0.686
7384,0.0072,-0.0303,-0.0115,-1.60,-0.07,-0.15,0.250,-5.039,-0.953,-0.632
7393,0.0073,-0.0276,-0.0107,-1.65,-0.05,-0.15,0.250,-6.323,-1.566,-0.086
7404,0.0074,-0.0247,-0.0121,-1.69,-0.04,-0.15,0.250,-2.096,-1.440,-1.032
7413,0.0052,-0.0255,-0.0110,-1.71,-0.01,-0.16,0.250,-0.052,-1.241,-0.368
7423,0.0049,-0.0226,-0.0100,-1.77,0.00,-0.16,0.248,0.950,-1.815,-0.472
7434,0.0049,-0.0196,-0.0092,-1.79,0.02,-0.17,0.248,2.117,-0.901,-0.647
7443,0.0048,-0.0165,-0.0150,-1.79,0.03,-0.17,0.248,1.936,-0.798,-1.018
7453,0.0100,-0.0131,-0.0139,-1.79,0.02,-0.18,0.248,1.746,-0.386,-1.799
7463,0.0038,-0.0138,-0.0127,-1.74,0.07,-0.18,0.248,2.561,-0.065,-1.665
7473,0.0053,-0.0088,-0.0117,-1.73,0.07,-0.19,0.248,2.868,-0.302,-0.470
7483,0.0032,-0.0060,-0.0108,-1.70,0.09,-0.21,0.248,0.875,0.489,-0.526
7493,0.0031,-0.0031,-0.0099,-1.67,0.09,-0.23,0.248,1.955,0.600,-0.603
7503,0.0029,-0.0002,-0.0112,-1.65,0.09,-0.23,0.248,1.033,-0.505,-0.137
7513,0.0085,0.0025,-0.0097,-1.65,0.05,-0.23,0.248,8.853,0.220,-0.414
7523,0.0044,0.0047,-0.0083,-1.61,0.07,-0.24,0.248,4.254,-0.102,-0.042
7533,0.0022,0.0091,-0.0072,-1.60,0.09,-0.25,0.248,7.047,-1.141,-0.889
7543,0.0020,0.0121,-0.0065,-1.53,0.09,-0.25,0.248,6.943,-1.653,-0.619
7553,0.0073,0.0152,-0.0054,-1.48,0.06,-0.25,0.248,7.972,-1.333,-0.812
7563,0.0049,0.0180,-0.0041,-1.40,0.08,-0.26,0.248,9.302,-1.914,-1.646
7573,0.0048,0.0204,-0.0027,-1.34,0.10,-0.27,0.247,13.281,-1.874,-1.411
7583,-0.0013,0.0225,-0.0015,-1.26,0.15,-0.28,0.247,10.269,-1.432,-0.529
7593,-0.0018,0.0242,-0.0002,-1.16,0.16,-0.29,0.247,13.299,0.238,-0.575
7603,-0.0020,0.0262,-0.0011,-1.04,0.18,-0.30,0.247,8.395,0.477,-0.991
7613,-0.0006,0.0310,-0.0001,-0.95,0.19,-0.31,0.247,11.489,1.058,-1.868
7623,-0.0008,0.0331,0.0010,-0.82,0.19,-0.32,0.250,11.561,1.005,-1.202
7633,0.0008,0.0358,0.0021,-0.74,0.17,-0.33,0.250,9.858,1.185,-0.943
7643,0.0007,0.0377,0.0103,-0.63,0.16,-0.34,0.250,11.415,1.013,-1.159
7653,0.0004,0.0388,0.0113,-0.52,0.15,-0.36,0.250,12.005,2.783,-1.069
7663,-0.0015,0.0387,0.0123,-0.41,0.14,-0.37,0.250,3.655,0.846,-0.552
7673,-0.0015,0.0381,0.0136,-0.29,0.13,-0.38,0.252,5.800,0.859,-0.147
7683,-0.0031,0.0409,0.0148,-0.19,0.11,-0.39,0.252,5.372,1.106,0.168
7693,-0.0013,0.0447,0.0158,-0.17,0.09,-0.39,0.252,8.551,0.716,-0.588
7703,-0.0012,0.0463,0.0244,-0.12,0.08,-0.39,0.252,12.330,1.109,-0.608
7713,-0.0012,0.0476,0.0255,-0.07,0.07,-0.39,0.252,13.300,2.066,-0.356
7723,-0.0046,0.0500,0.0268,0.01,0.08,-0.40,0.252,14.687,0.912,-0.740
7733,-0.0027,0.0465,0.0279,0.15,0.06,-0.41,0.252,13.452,1.882,-0.387
7743,-0.0025,0.0462,0.0307,0.28,0.04,-0.42,0.252,15.088,2.199,-0.458
7753,0.0011,0.0455,0.0315,0.43,0.01,-0.42,0.252,13.522,2.271,-0.714
7763,0.0013,0.0464,0.0318,0.56,-0.01,-0.43,0.252,13.846,2.183,-0.050
7772,-0.0069,0.0453,0.0320,0.72,0.03,-0.44,0.258,9.987,2.043,-0.077
7783,-0.0065,0.0442,0.0323,0.86,0.01,-0.44,0.258,9.561,1.575,-0.466
7793,-0.0076,0.0444,0.0324,0.98,-0.01,-0.44,0.258,7.336,2.056,0.095
7803,-0.0038,0.0400,0.0407,1.09,-0.05,-0.44,0.258,6.037,2.457,0.000
7813,-0.0034,0.0388,0.0407,1.18,-0.06,-0.44,0.258,3.875,2.036,-0.176
7823,-0.0029,0.0361,0.0406,1.26,-0.09,-0.44,0.258,4.724,1.480,0.178
7833,-0.0039,0.0336,0.0403,1.33,-0.10,-0.44,0.258,4.592,2.007,0.222
7843,-0.0083,0.0331,0.0407,1.36,-0.10,-0.44,0.258,3.520,2.445,0.006
7853,-0.0044,0.0290,0.0405,1.41,-0.14,-0.44,0.258,2.769,2.734,0.163
7863,-0.0037,0.0316,0.0402,1.43,-0.16,-0.43,0.258,2.393,2.647,0.419
7873,-0.0030,0.0293,0.0397,1.46,-0.18,-0.43,0.257,2.624,2.572,0.010
7883,-0.0027,0.0268,0.0391,1.49,-0.21,-0.43,0.257,0.691,2.315,0.225
7893,-0.0019,0.0247,0.0311,1.52,-0.24,-0.42,0.257,0.787,2.178,0.222
7903,-0.0011,0.0243,0.0304,1.53,-0.26,-0.42,0.257,0.842,2.376,0.033
7914,-0.0020,0.0208,0.0297,1.55,-0.28,-0.42,0.257,0.120,1.593,0.250
7923,-0.0044,0.0175,0.0288,1.56,-0.29,-0.42,0.263,-0.277,1.080,0.074
7933,-0.0019,0.0142,0.0281,1.57,-0.32,-0.42,0.263,-0.568,0.305,-0.023
7943,-0.0010,0.0126,0.0341,1.56,-0.33,-0.41,0.263,-1.182,-0.126,0.222
7953,-0.0005,0.0100,0.0330,1.55,-0.34,-0.41,0.263,-2.425,-0.043,0.457
7963,0.0001,0.0074,0.0320,1.54,-0.35,-0.41,0.263,-2.665,-0.844,0.427
7973,0.0007,0.0047,0.0313,1.53,-0.34,-0.41,0.260,-3.118,-0.812,0.283
7983,-0.0022,0.0023,0.0308,1.50,-0.32,-0.40,0.260,-3.165,-0.437,0.619
7993,-0.0000,0.0000,0.0300,1.47,-0.32,-0.40,0.260,-4.654,-0.916,0.812
8003,0.0004,-0.0037,0.0220,1.45,-0.32,-0.39,0.260,-4.839,-0.852,0.566
8012,-0.0009,-0.0072,0.0214,1.42,-0.30,-0.39,0.260,-6.530,-0.720,1.234
8023,-0.0004,-0.0096,0.0204,1.37,-0.29,-0.38,0.266,-7.707,-0.964,1.594
8033,0.0001,-0.0119,0.0196,1.32,-0.28,-0.37,0.266,-8.293,-0.346,1.488
8043,0.0004,-0.0165,0.0257,1.27,-0.28,-0.36,0.266,-9.034,-0.314,2.582
8053,0.0009,-0.0187,0.0248,1.20,-0.27,-0.34,0.266,-9.508,0.159,2.505
8063,0.0012,-0.0225,0.0241,1.12,-0.26,-0.33,0.266,-10.356,-0.564,2.385
8073,0.0016,-0.0259,0.0234,1.04,-0.26,-0.30,0.259,-11.405,-0.495,1.731
8083,0.0055,-0.0272,0.0224,0.94,-0.28,-0.28,0.259,-10.248,-0.656,2.422
8093,0.0058,-0.0282,0.0217,0.84,-0.28,-0.25,0.259,-9.739,0.859,2.491
8102,0.0062,-0.0294,0.0065,0.72,-0.27,-0.23,0.259,-11.531,-0.299,2.599
8113,0.0046,-0.0317,0.0056,0.62,-0.26,-0.21,0.259,-10.815,-0.444,3.053
8123,0.0031,-0.0320,0.0046,0.52,-0.25,-0.18,0.258,-10.569,-2.080,2.925
8133,0.0034,-0.0337,0.0037,0.41,-0.25,-0.16,0.258,-11.707,-2.196,2.820
8143,0.0036,-0.0351,-0.0071,0.29,-0.24,-0.13,0.258,-11.339,-2.867,3.122
8153,0.0053,-0.0364,-0.0077,0.19,-0.23,-0.10,0.258,-10.417,-2.597,3.136
8162,0.0123,-0.0338,-0.0082,0.06,-0.24,-0.07,0.258,-6.756,-1.718,1.835
8173,-0.0005,-0.0347,-0.0084,-0.04,-0.14,-0.03,0.261,-10.576,-2.464,3.110
8183,0.0063,-0.0354,-0.0085,-0.13,-0.15,-0.01,0.261,-8.763,-2.364,2.697
8192,0.0062,-0.0365,-0.0084,-0.19,-0.14,0.01,0.261,-10.190,-2.901,2.334
8203,0.0058,-0.0369,-0.0072,-0.29,-0.11,0.04,0.261,-9.134,-4.027,2.624
8213,0.0055,-0.0357,-0.0072,-0.38,-0.09,0.07,0.261,-8.842,-2.677,2.798
8222,0.0102,-0.0324,-0.0070,-0.49,-0.09,0.09,0.262,-7.321,-2.987,2.649
8232,0.0095,-0.0327,-0.0070,-0.58,-0.05,0.12,0.262,-7.111,-2.372,2.428
8243,0.0089,-0.0310,-0.0036,-0.67,-0.02,0.15,0.262,-8.458,-1.746,1.872
8252,0.0099,-0.0278,-0.0035,-0.76,0.00,0.18,0.262,-5.961,-0.757,2.054
8263,0.0099,-0.0265,-0.0031,-0.83,0.03,0.20,0.262,-6.264,-1.585,2.439
8273,0.0093,-0.0282,-0.0029,-0.90,0.05,0.22,0.261,-7.998,-1.612,2.043
8283,0.0088,-0.0267,-0.0029,-0.96,0.06,0.24,0.261,-3.403,-0.299,1.547
8292,0.0065,-0.0284,-0.0023,-1.00,0.09,0.27,0.261,-3.951,-2.578,2.071
8302,0.0063,-0.0267,-0.0020,-1.08,0.10,0.29,0.261,-0.290,0.170,1.805
8312,0.0129,-0.0235,-0.0017,-1.12,0.07,0.30,0.261,-1.100,-2.794,1.730
8322,0.0068,-0.0203,-0.0016,-1.17,0.12,0.33,0.265,1.461,-1.686,1.607
8332,0.0064,-0.0211,-0.0015,-1.15,0.13,0.34,0.265,-0.994,-2.733,2.382
8342,0.0107,-0.0166,0.0078,-1.17,0.13,0.36,0.265,-2.389,-2.637,1.635
8352,0.0082,-0.0142,0.0083,-1.16,0.16,0.38,0.265,-2.775,-2.398,1.883
8362,0.0079,-0.0122,0.0085,-1.18,0.19,0.40,0.265,-0.070,-2.045,0.843
8372,0.0086,-0.0095,0.0089,-1.20,0.21,0.42,0.261,2.352,-1.639,1.516
8382,0.0082,-0.0074,0.0094,-1.22,0.23,0.44,0.261,2.670,-2.095,1.903
8393,0.0054,-0.0070,0.0098,-1.21,0.27,0.45,0.261,0.846,-0.703,1.765
8402,0.0063,-0.0050,0.0054,-1.18,0.28,0.47,0.261,-2.764,-1.362,1.549
8413,0.0053,-0.0015,0.0053,-1.17,0.30,0.49,0.261,-1.395,-1.364,1.515
8422,0.0047,0.0005,0.0050,-1.17,0.30,0.50,0.262,3.870,-1.371,1.338
8432,0.0056,0.0048,0.0048,-1.21,0.31,0.52,0.262,4.101,-0.188,1.877
8442,0.0051,0.0068,0.0040,-1.21,0.32,0.54,0.262,5.491,0.496,2.273
8452,0.0045,0.0089,0.0040,-1.17,0.33,0.55,0.262,3.597,-0.515,1.879
8462,0.0037,0.0137,0.0038,-1.14,0.33,0.57,0.262,5.191,0.445,2.292
8473,0.0031,0.0156,0.0036,-1.09,0.33,0.59,0.262,10.226,2.001,2.349
8482,0.0023,0.0202,0.0031,-1.07,0.33,0.61,0.262,11.645,2.401,1.553
8492,0.0017,0.0220,0.0029,-1.00,0.32,0.64,0.262,6.996,0.907,2.474
8502,0.0014,0.0231,0.0016,-0.89,0.30,0.66,0.262,6.878,0.344,2.016
8513,-0.0046,0.0239,0.0012,-0.78,0.31,0.67,0.262,7.517,-0.214,2.366
8523,-0.0049,0.0252,0.0010,-0.71,0.30,0.70,0.261,6.859,-0.519,1.622
8532,-0.0054,0.0264,0.0010,-0.65,0.30,0.72,0.261,10.375,2.254,2.299
8542,-0.0020,0.0311,-0.0019,-0.59,0.28,0.74,0.261,11.641,0.795,2.629
8552,-0.0025,0.0338,-0.0020,-0.53,0.28,0.76,0.261,10.435,2.392,2.825
8562,-0.0006,0.0317,-0.0024,-0.40,0.25,0.79,0.261,14.017,3.933,2.966
8573,-0.0009,0.0333,-0.0028,-0.29,0.24,0.82,0.263,11.602,3.470,2.108
8582,-0.0028,0.0383,-0.0030,-0.21,0.22,0.85,0.263,8.674,3.955,2.024
8592,-0.0032,0.0386,-0.0031,-0.07,0.18,0.87,0.263,8.985,3.323,2.429
8602,-0.0028,0.0394,0.0001,0.04,0.15,0.90,0.263,6.876,3.665,2.243
8613,-0.0062,0.0422,0.0000,0.12,0.12,0.92,0.263,8.361,1.856,2.449
8622,-0.0064,0.0420,0.0002,0.21,0.08,0.94,0.262,11.252,3.183,2.362
8632,-0.0115,0.0427,0.0003,0.27,0.07,0.96,0.262,10.748,2.954,2.407
8642,-0.0109,0.0432,-0.0001,0.37,0.05,0.99,0.262,10.420,2.297,1.360
8652,-0.0110,0.0425,-0.0004,0.47,0.02,1.01,0.262,7.953,0.401,2.020
8662,-0.0102,0.0424,-0.0004,0.57,-0.00,1.03,0.262,7.243,2.013,1.693
8672,-0.0094,0.0420,-0.0003,0.68,-0.02,1.05,0.266,9.194,0.935,1.510
8682,-0.0090,0.0419,-0.0002,0.75,-0.03,1.07,0.266,7.756,1.398,1.328
8692,-0.0084,0.0417,0.0088,0.83,-0.04,1.09,0.266,7.244,2.621,1.327
8702,-0.0134,0.0392,0.0090,0.91,-0.03,1.11,0.266,8.099,3.783,0.984
8712,-0.0090,0.0387,0.0090,0.99,-0.07,1.12,0.266,5.760,2.497,1.417
8722,-0.0082,0.0364,0.0090,1.06,-0.09,1.14,0.264,11.249,3.726,0.891
8731,-0.0071,0.0338,0.0090,1.15,-0.12,1.15,0.264,7.435,2.001,1.199
8742,-0.0068,0.0318,0.0088,1.23,-0.16,1.16,0.264,11.619,4.857,0.105
8752,-0.0113,0.0324,0.0089,1.31,-0.16,1.17,0.264,6.667,4.563,0.544
8761,-0.0110,0.0302,0.0087,1.39,-0.19,1.18,0.264,3.286,4.742,0.722
8771,-0.0095,0.0269,0.0084,1.50,-0.24,1.18,0.263,1.326,2.707,1.047
8782,-0.0090,0.0243,0.0081,1.56,-0.29,1.19,0.263,1.516,3.185,0.103
8792,-0.0085,0.0217,0.0079,1.59,-0.33,1.20,0.263,-1.264,3.068,0.459
8802,-0.0071,0.0201,0.0041,1.59,-0.36,1.21,0.263,1.351,1.991,-0.678
8812,-0.0065,0.0174,0.0039,1.60,-0.39,1.22,0.263,-5.000,-0.858,0.250
8822,-0.0051,0.0161,0.0034,1.59,-0.42,1.22,0.263,-4.287,-0.526,-0.263
8832,-0.0043,0.0134,0.0030,1.58,-0.43,1.21,0.263,1.688,-0.457,-0.822
8842,-0.0036,0.0091,0.0004,1.54,-0.43,1.21,0.263,0.017,-0.466,-0.368
8852,-0.0028,0.0065,0.0001,1.52,-0.42,1.21,0.263,-1.973,-1.257,-1.027
8862,-0.0020,0.0039,-0.0003,1.52,-0.41,1.20,0.263,-0.194,-0.410,-0.829
8872,-0.0011,-0.0011,-0.0008,1.53,-0.40,1.20,0.256,-5.627,-0.670,-0.491
8882,-0.0004,-0.0037,-0.0010,1.51,-0.39,1.19,0.256,-3.240,-0.913,-1.510
8892,0.0003,-0.0063,-0.0010,1.50,-0.38,1.18,0.256,-3.390,-1.108,-1.297
8902,0.0010,-0.0086,-0.0183,1.45,-0.37,1.17,0.256,-8.251,-1.683,-0.585
8912,0.0017,-0.0111,-0.0184,1.42,-0.37,1.16,0.256,-9.349,-2.068,-0.867
8922,0.0021,-0.0170,-0.0186,1.39,-0.35,1.15,0.261,-9.532,-1.884,-1.216
8932,0.0028,-0.0194,-0.0188,1.31,-0.34,1.14,0.261,-8.715,-2.227,-1.247
8942,0.0029,-0.0236,-0.0159,1.23,-0.32,1.13,0.261,-8.540,-1.656,-1.502
8952,0.0035,-0.0257,-0.0160,1.13,-0.30,1.12,0.261,-9.704,-3.146,-1.523
8962,0.0036,-0.0294,-0.0158,1.04,-0.28,1.10,0.261,-10.873,-3.288,-1.480
8972,0.0037,-0.0329,-0.0154,0.96,-0.25,1.09,0.261,-12.130,-3.597,-1.458
8982,0.0034,-0.0336,-0.0150,0.85,-0.22,1.07,0.261,-11.142,-2.146,-1.795
8992,0.0031,-0.0382,-0.0147,0.77,-0.18,1.06,0.261,-11.021,-0.640,-1.633
9002,0.0027,-0.0380,-0.0100,0.65,-0.15,1.04,0.261,-11.436,-1.317,-1.805
9012,0.0025,-0.0378,-0.0091,0.53,-0.13,1.02,0.261,-12.882,-1.637,-1.249
9022,0.0027,-0.0387,-0.0084,0.41,-0.11,1.01,0.259,-13.691,-2.775,-2.039
9031,0.0027,-0.0422,-0.0079,0.30,-0.10,0.99,0.259,-13.935,-3.448,-1.595
9042,0.0024,-0.0407,-0.0088,0.15,-0.08,0.98,0.259,-12.627,-2.523,-1.322
9052,0.0021,-0.0474,-0.0084,0.05,-0.04,0.96,0.259,-13.287,-2.494,-1.691
9062,0.0022,-0.0475,-0.0079,-0.09,-0.02,0.95,0.259,-11.465,-2.620,-1.815
9072,0.0017,-0.0474,-0.0074,-0.22,0.01,0.93,0.258,-11.495,-2.215,-1.562
9082,0.0032,-0.0470,-0.0067,-0.35,0.03,0.92,0.258,-10.526,-0.928,-1.546
9092,0.0047,-0.0488,-0.0062,-0.45,0.05,0.90,0.258,-10.055,-0.840,-2.417
9102,0.0041,-0.0462,-0.0079,-0.57,0.07,0.88,0.258,-10.415,-0.086,-2.438
9112,0.0040,-0.0453,-0.0075,-0.67,0.07,0.86,0.258,-8.514,-0.165,-1.849
9122,0.0036,-0.0448,-0.0068,-0.77,0.08,0.84,0.260,-8.795,1.184,-2.575
9132,0.0013,-0.0441,-0.0061,-0.87,0.09,0.82,0.260,-10.152,0.204,-2.721
9142,-0.0051,-0.0396,-0.0018,-0.97,0.13,0.80,0.260,-8.682,-0.479,-2.329
9152,0.0010,-0.0388,-0.0013,-1.04,0.08,0.77,0.260,-7.347,-0.655,-3.311
9162,0.0009,-0.0399,-0.0007,-1.12,0.08,0.74,0.260,-6.307,-0.599,-2.828
9172,0.0006,-0.0371,-0.0001,-1.20,0.09,0.72,0.252,-6.656,-0.669,-3.637
9181,0.0003,-0.0344,0.0005,-1.29,0.10,0.69,0.252,-5.397,-0.677,-3.743
9192,0.0020,-0.0357,0.0011,-1.33,0.09,0.66,0.252,-5.234,-1.046,-3.369
9201,0.0018,-0.0333,-0.0119,-1.40,0.10,0.62,0.252,-2.570,-0.933,-2.839
9212,0.0016,-0.0309,-0.0114,-1.46,0.11,0.59,0.252,-4.273,-0.102,-3.362
9222,0.0014,-0.0284,-0.0111,-1.52,0.12,0.56,0.252,-4.265,0.003,-3.135
9232,0.0011,-0.0258,-0.0109,-1.57,0.12,0.53,0.252,-0.969,0.552,-3.264
9242,0.0009,-0.0231,-0.0166,-1.60,0.13,0.50,0.252,-1.505,0.170,-3.503
9252,0.0006,-0.0233,-0.0162,-1.62,0.13,0.46,0.252,1.058,-0.652,-2.926
9262,0.0004,-0.0205,-0.0158,-1.64,0.13,0.44,0.252,3.809,0.069,-3.460
9271,0.0001,-0.0177,-0.0152,-1.65,0.13,0.40,0.254,0.844,0.232,-2.919
9281,-0.0001,-0.0148,-0.0143,-1.63,0.14,0.37,0.254,-0.682,0.899,-3.210
9292,-0.0004,-0.0120,-0.0133,-1.62,0.14,0.34,0.254,1.082,0.801,-3.070
9302,-0.0006,-0.0092,-0.0120,-1.62,0.14,0.31,0.254,3.476,0.079,-3.286
9312,-0.0007,-0.0036,-0.0112,-1.65,0.14,0.28,0.254,1.655,-1.080,-3.377
9321,-0.0010,-0.0007,-0.0106,-1.63,0.13,0.25,0.252,2.624,-1.357,-2.955
9331,-0.0012,0.0021,-0.0099,-1.58,0.14,0.22,0.252,2.606,-1.567,-2.675
9342,-0.0041,0.0042,-0.0122,-1.54,0.17,0.19,0.252,1.346,-0.395,-2.428
9352,-0.0044,0.0069,-0.0115,-1.51,0.18,0.16,0.252,5.091,0.757,-3.490
9362,-0.0048,0.0138,-0.0107,-1.52,0.19,0.14,0.252,4.605,0.733,-2.252
9372,-0.0050,0.0204,-0.0096,-1.53,0.19,0.11,0.250,9.621,0.776,-2.446
9381,-0.0049,0.0233,-0.0083,-1.47,0.19,0.08,0.250,6.444,1.650,-1.977
9392,-0.0026,0.0261,-0.0069,-1.40,0.16,0.06,0.250,11.460,1.496,-1.767
9402,-0.0029,0.0285,-0.0084,-1.32,0.15,0.03,0.250,8.129,2.445,-1.857
9412,-0.0027,0.0351,-0.0074,-1.24,0.13,0.02,0.250,14.802,1.999,-1.850
9422,-0.0047,0.0358,-0.0064,-1.13,0.13,0.00,0.252,9.389,2.438,-2.120
9432,-0.0065,0.0390,-0.0052,-1.03,0.11,-0.02,0.252,15.405,1.596,-1.769
9441,-0.0038,0.0386,-0.0005,-0.88,0.08,-0.03,0.252,14.792,1.508,-1.232
9451,-0.0033,0.0453,0.0004,-0.78,0.05,-0.05,0.252,15.060,0.824,-2.183
9461,-0.0030,0.0443,0.0014,-0.63,0.03,-0.07,0.252,12.748,0.448,-1.833
9471,-0.0026,0.0494,0.0026,-0.48,0.01,-0.09,0.252,16.946,0.789,-2.730
9481,0.0057,0.0470,0.0026,-0.47,-0.03,-0.08,0.252,18.895,-0.215,-2.575
9492,0.0017,0.0525,0.0046,-0.22,-0.02,-0.13,0.252,17.633,0.145,-3.009
9502,0.0017,0.0525,0.0066,-0.22,-0.02,-0.13,0.252,10.537,-0.784,-2.025
9512,0.0016,0.0559,0.0081,0.13,-0.02,-0.19,0.252,8.392,-1.280,-1.969
9521,0.0017,0.0549,0.0082,0.13,-0.02,-0.19,0.250,10.720,-0.876,-2.358
9531,0.0015,0.0584,0.0095,0.34,-0.01,-0.24,0.250,13.934,-0.889,-2.972
9542,-0.0007,0.0607,0.0057,0.33,0.00,-0.24,0.250,12.021,-1.698,-2.311
9552,-0.0008,0.0579,0.0068,0.44,0.02,-0.26,0.250,11.327,-1.642,-2.009
9561,-0.0008,0.0572,0.0078,0.56,0.02,-0.28,0.250,14.931,-1.520,-2.258
9572,-0.0011,0.0599,0.0086,0.67,0.04,-0.31,0.255,14.091,-0.994,-2.458
9582,-0.0012,0.0588,0.0092,0.79,0.05,-0.33,0.255,10.893,-1.972,-2.166
9592,-0.0014,0.0627,0.0151,0.90,0.07,-0.36,0.255,12.748,-1.760,-2.040
9602,-0.0016,0.0605,0.0156,1.05,0.08,-0.38,0.255,13.168,1.328,-1.841
9612,-0.0020,0.0606,0.0161,1.16,0.09,-0.41,0.255,9.633,0.046,-2.331
9622,-0.0004,0.0544,0.0166,1.29,0.10,-0.43,0.259,6.107,1.710,-0.736
9631,-0.0006,0.0521,0.0170,1.43,0.10,-0.45,0.259,7.561,2.812,-0.751
9641,-0.0007,0.0540,0.0279,1.52,0.10,-0.47,0.259,9.098,2.002,-1.610
9651,-0.0009,0.0514,0.0282,1.61,0.08,-0.48,0.259,6.503,2.120,-0.895
9662,-0.0025,0.0514,0.0285,1.66,0.07,-0.49,0.259,7.200,2.239,-0.663
9672,-0.0079,0.0452,0.0290,1.76,0.08,-0.51,0.258,12.217,1.385,-1.580
9681,-0.0017,0.0474,0.0294,1.83,0.02,-0.52,0.258,10.474,0.293,-1.293
9691,0.0005,0.0416,0.0295,1.90,-0.02,-0.52,0.258,4.986,0.033,-0.942
9701,0.0007,0.0407,0.0304,1.98,-0.04,-0.53,0.258,5.824,0.649,-0.884
9711,0.0007,0.0373,0.0305,2.09,-0.05,-0.55,0.258,5.218,0.242,-0.873
9722,0.0007,0.0334,0.0305,2.17,-0.05,-0.56,0.256,2.240,0.775,-0.627
9731,0.0008,0.0296,0.0304,2.23,-0.05,-0.57,0.256,0.165,1.438,-1.340
9741,0.0008,0.0259,0.0227,2.27,-0.05,-0.57,0.256,1.598,0.721,-1.578
9751,0.0010,0.0227,0.0223,2.31,-0.06,-0.58,0.256,-2.595,0.397,-0.858
9761,-0.0007,0.0182,0.0221,2.33,-0.06,-0.59,0.256,-0.376,-0.394,-1.554
9771,-0.0006,0.0142,0.0221,2.33,-0.07,-0.60,0.261,-3.173,0.051,-1.037
9781,-0.0005,0.0102,0.0218,2.33,-0.08,-0.61,0.261,-3.796,-0.926,-1.255
9792,-0.0004,0.0063,0.0214,2.31,-0.07,-0.62,0.261,-3.492,-0.269,-1.359
9801,-0.0004,0.0023,0.0254,2.30,-0.07,-0.64,0.261,-6.619,-0.681,-0.680
9811,-0.0003,-0.0017,0.0253,2.25,-0.07,-0.65,0.261,-5.584,-0.319,-1.338
9821,-0.0002,-0.0055,0.0250,2.22,-0.06,-0.66,0.259,-9.704,-0.492,-0.385
9831,-0.0002,-0.0093,0.0245,2.16,-0.06,-0.67,0.259,-6.099,-0.248,-1.015
9841,-0.0001,-0.0135,0.0196,2.11,-0.06,-0.68,0.259,-10.397,0.289,-0.635
9851,-0.0046,-0.0191,0.0194,2.04,-0.03,-0.69,0.259,-10.008,-0.465,-1.082
9861,-0.0066,-0.0227,0.0189,1.97,-0.02,-0.70,0.259,-9.747,0.110,-1.374
9871,-0.0064,-0.0294,0.0183,1.90,-0.02,-0.71,0.259,-12.161,0.952,-1.164
9882,-0.0062,-0.0318,0.0179,1.80,-0.02,-0.72,0.259,-15.294,1.577,-0.023
9892,-0.0060,-0.0359,0.0177,1.71,-0.02,-0.73,0.259,-16.009,0.910,0.153
9902,-0.0035,-0.0372,0.0125,1.59,-0.03,-0.74,0.259,-14.606,1.240,-0.225
9911,-0.0051,-0.0378,0.0119,1.44,-0.04,-0.75,0.259,-12.959,1.546,-0.269
9921,-0.0048,-0.0420,0.0115,1.29,-0.05,-0.75,0.262,-12.129,1.163,-0.492
9931,-0.0063,-0.0422,0.0113,1.13,-0.05,-0.75,0.262,-11.533,1.416,-0.760
9942,-0.0058,-0.0463,0.0133,1.00,-0.07,-0.75,0.262,-10.475,0.853,-0.689
9951,-0.0054,-0.0501,0.0130,0.89,-0.08,-0.75,0.262,-11.520,0.962,-0.187
9962,-0.0049,-0.0518,0.0132,0.77,-0.10,-0.76,0.262,-13.772,1.197,-0.376
9971,-0.0044,-0.0515,0.0135,0.65,-0.11,-0.76,0.262,-16.255,0.954,0.217
9981,-0.0040,-0.0564,0.0133,0.56,-0.12,-0.77,0.262,-15.245,2.177,0.229
9991,-0.0035,-0.0570,0.0131,0.42,-0.13,-0.77,0.262,-17.121,1.849,0.868
10001,-0.0030,-0.0569,0.0131,0.27,-0.14,-0.77,0.262,-21.232,2.461,1.841
10011,-0.0024,-0.0603,0.0130,0.13,-0.16,-0.76,0.262,-14.946,1.984,1.699
10021,-0.0017,-0.0595,0.0127,-0.04,-0.18,-0.76,0.259,-17.391,1.592,1.991
10031,-0.0046,-0.0578,0.0124,-0.25,-0.18,-0.74,0.259,-15.374,0.399,2.088
10041,-0.0022,-0.0567,0.0040,-0.43,-0.22,-0.72,0.259,-12.123,-0.247,1.568
10051,-0.0016,-0.0588,0.0040,-0.59,-0.23,-0.71,0.259,-10.708,-0.091,1.393
10061,0.0007,-0.0570,0.0039,-0.74,-0.25,-0.69,0.259,-12.701,-0.616,2.702
10071,0.0011,-0.0557,0.0040,-0.88,-0.26,-0.67,0.260,-9.146,-1.246,2.407
10082,-0.0039,-0.0545,0.0041,-1.00,-0.23,-0.65,0.260,-8.853,-0.760,3.109
10091,0.0000,-0.0547,0.0041,-1.10,-0.24,-0.63,0.260,-7.839,-1.974,2.609
10101,0.0038,-0.0513,0.0013,-1.20,-0.26,-0.61,0.260,-10.493,-1.547,3.035
10111,0.0022,-0.0484,0.0016,-1.31,-0.24,-0.58,0.260,-9.596,-0.877,3.151
10121,0.0022,-0.0467,0.0019,-1.38,-0.22,-0.56,0.259,-6.228,-0.530,2.609
10131,0.0026,-0.0444,0.0021,-1.48,-0.20,-0.53,0.259,-3.876,-1.091,1.643
10141,0.0028,-0.0426,-0.0018,-1.58,-0.19,-0.50,0.259,-5.666,-1.179,2.422
10151,0.0028,-0.0448,-0.0016,-1.64,-0.18,-0.47,0.259,-7.593,-1.597,3.137
10161,0.0028,-0.0416,-0.0012,-1.68,-0.17,-0.45,0.259,-7.359,-1.311,3.222
10171,0.0028,-0.0419,-0.0009,-1.71,-0.16,-0.42,0.260,-5.362,0.284,3.072
10181,0.0031,-0.0389,-0.0005,-1.77,-0.14,-0.39,0.260,-0.332,-0.476,2.435
10191,0.0048,-0.0335,-0.0001,-1.85,-0.14,-0.36,0.260,0.491,-1.375,3.068
10201,0.0051,-0.0304,0.0003,-1.92,-0.13,-0.33,0.260,1.712,-1.091,2.591
10211,0.0053,-0.0271,0.0007,-1.93,-0.14,-0.31,0.260,1.680,-2.440,2.758
10221,0.0056,-0.0237,0.0012,-1.94,-0.12,-0.28,0.260,-2.549,-2.368,3.295
10231,0.0058,-0.0204,0.0018,-1.93,-0.11,-0.25,0.260,1.905,-3.311,2.896
10241,0.0060,-0.0171,0.0020,-1.92,-0.09,-0.22,0.260,2.886,-1.911,3.314
10251,0.0062,-0.0138,0.0023,-1.93,-0.07,-0.19,0.260,-1.325,-3.312,3.252
10261,0.0063,-0.0105,0.0026,-1.92,-0.05,-0.16,0.260,4.287,-2.258,2.217
10271,0.0064,-0.0072,0.0030,-1.89,-0.02,-0.13,0.261,2.506,-2.034,3.424
10281,0.0077,-0.0036,0.0037,-1.90,-0.00,-0.09,0.261,8.279,-0.429,3.452
10291,0.0091,0.0011,0.0041,-1.88,0.02,-0.06,0.261,4.564,-0.694,3.641
10301,0.0042,0.0057,0.0064,-1.86,0.07,-0.03,0.261,7.639,-0.473,3.439
10311,0.0080,0.0134,0.0071,-1.81,0.06,0.00,0.261,6.607,1.001,3.733
10321,0.0094,0.0151,0.0077,-1.76,0.06,0.04,0.262,7.425,-1.168,2.630
10331,0.0029,0.0160,0.0079,-1.68,0.10,0.07,0.262,11.778,-0.094,2.670
10341,0.0047,0.0212,0.0106,-1.61,0.08,0.11,0.262,12.343,-1.576,2.763
10351,0.0042,0.0258,0.0107,-1.55,0.09,0.13,0.262,8.435,-2.001,3.248
10361,0.0039,0.0276,0.0107,-1.45,0.09,0.16,0.262,13.281,-2.174,2.207
10371,0.0052,0.0326,0.0106,-1.36,0.09,0.19,0.256,12.498,-2.819,3.131
10381,0.0008,0.0322,0.0106,-1.25,0.13,0.22,0.256,16.010,-0.543,2.429
10391,0.0020,0.0404,0.0106,-1.16,0.14,0.25,0.256,15.413,-1.867,2.991
10401,-0.0007,0.0442,-0.0025,-1.04,0.18,0.28,0.256,13.449,-0.945,2.174
10411,0.0026,0.0458,-0.0026,-0.90,0.17,0.31,0.256,14.485,0.078,2.730
10420,0.0038,0.0449,-0.0023,-0.75,0.18,0.34,0.260,14.071,1.286,1.848
10431,0.0050,0.0518,-0.0022,-0.61,0.18,0.37,0.260,13.005,1.013,2.370
10441,0.0045,0.0544,-0.0008,-0.47,0.19,0.39,0.260,11.654,1.175,1.774
10451,0.0041,0.0604,-0.0009,-0.36,0.18,0.41,0.260,15.824,1.136,1.588
10461,0.0038,0.0610,-0.0009,-0.25,0.18,0.44,0.260,12.357,0.574,1.590
10471,0.0017,0.0594,-0.0008,-0.10,0.17,0.45,0.262,14.827,1.183,1.933
10481,0.0015,0.0622,-0.0009,0.02,0.16,0.47,0.262,11.426,0.095,1.233
10491,0.0012,0.0618,-0.0009,0.15,0.15,0.49,0.262,17.421,-0.189,1.001
10501,0.0011,0.0662,0.0045,0.27,0.14,0.51,0.262,14.952,-1.237,0.321
10511,0.0007,0.0636,0.0047,0.42,0.13,0.52,0.262,17.387,1.322,0.680
10521,0.0005,0.0635,0.0048,0.57,0.14,0.53,0.262,14.320,-0.263,1.058
10531,0.0000,0.0653,0.0049,0.71,0.14,0.54,0.262,14.311,1.173,0.699
10541,0.0000,0.0627,0.0075,0.88,0.14,0.54,0.262,16.049,2.114,0.945
10551,-0.0002,0.0603,0.0072,1.04,0.13,0.55,0.262,15.768,1.363,1.109
10561,-0.0004,0.0647,0.0069,1.16,0.12,0.56,0.262,14.664,0.922,0.935
10571,-0.0006,0.0627,0.0067,1.33,0.11,0.57,0.258,13.557,0.908,0.596
10580,0.0029,0.0597,0.0069,1.49,0.07,0.58,0.258,12.349,0.209,0.370
10591,0.0010,0.0584,0.0066,1.64,0.08,0.58,0.258,12.051,-0.051,0.774
10601,-0.0009,0.0605,-0.0017,1.75,0.09,0.59,0.258,9.903,-0.138,0.524
10611,-0.0010,0.0554,-0.0017,1.89,0.09,0.59,0.258,8.850,-0.479,0.174
10621,-0.0012,0.0557,-0.0016,1.99,0.09,0.60,0.258,6.519,-0.435,1.061
10630,0.0021,0.0509,-0.0019,2.11,0.07,0.61,0.258,4.361,-0.607,0.392
10641,0.0002,0.0478,-0.0065,2.19,0.08,0.61,0.258,7.340,0.810,0.070
10651,0.0034,0.0450,-0.0068,2.27,0.06,0.62,0.258,2.264,-0.221,0.318
10661,-0.0003,0.0425,-0.0069,2.33,0.08,0.62,0.258,6.495,0.745,-0.482
10671,0.0031,0.0379,-0.0070,2.40,0.06,0.62,0.259,2.647,-1.153,-0.391
10680,-0.0004,0.0323,-0.0069,2.46,0.08,0.62,0.259,3.081,-0.004,0.037
10690,-0.0020,0.0296,-0.0066,2.51,0.08,0.62,0.259,3.811,-1.134,-0.774
10701,-0.0088,0.0238,-0.0058,2.54,0.12,0.61,0.259,2.625,-0.779,-0.698
10711,-0.0055,0.0199,-0.0056,2.58,0.10,0.61,0.259,-3.103,-2.341,0.045
10720,-0.0088,0.0145,-0.0056,2.63,0.12,0.60,0.260,0.038,-0.938,-0.539
10730,-0.0089,0.0107,-0.0054,2.64,0.13,0.60,0.260,-2.320,0.409,-0.217
10741,-0.0107,0.0062,-0.0023,2.63,0.16,0.60,0.260,-7.297,1.098,-0.683
10751,-0.0110,0.0017,-0.0023,2.63,0.17,0.59,0.260,-10.371,0.065,0.041
10761,-0.0112,-0.0029,-0.0018,2.62,0.17,0.59,0.260,-11.627,1.134,0.068
10770,-0.0110,-0.0080,-0.0013,2.56,0.16,0.58,0.260,-10.988,3.165,-0.210
10780,-0.0112,-0.0124,-0.0011,2.46,0.16,0.58,0.260,-7.586,4.039,-1.230
10790,-0.0109,-0.0180,-0.0008,2.37,0.15,0.57,0.260,-14.884,4.503,-0.072
10801,-0.0068,-0.0197,0.0016,2.25,0.10,0.57,0.260,-8.348,4.447,-1.002
10811,-0.0095,-0.0218,0.0019,2.15,0.07,0.56,0.260,-10.902,4.662,-0.139
10820,-0.0104,-0.0243,0.0023,2.02,0.03,0.56,0.257,-9.530,4.656,-1.467
10831,-0.0094,-0.0309,0.0027,1.93,-0.02,0.55,0.257,-15.976,3.860,-0.729
10840,-0.0084,-0.0332,-0.0028,1.83,-0.06,0.55,0.257,-20.280,2.059,-0.697
10850,-0.0073,-0.0376,-0.0028,1.72,-0.11,0.54,0.257,-18.932,3.192,-1.184
10861,-0.0063,-0.0403,-0.0027,1.58,-0.15,0.53,0.257,-13.811,2.793,-2.072
10871,-0.0060,-0.0430,-0.0022,1.38,-0.18,0.53,0.260,-13.004,1.356,-0.505
10880,-0.0085,-0.0500,-0.0017,1.22,-0.19,0.52,0.260,-9.032,0.729,-2.471
10891,-0.0109,-0.0539,0.0025,1.07,-0.20,0.51,0.260,-10.026,-0.291,-2.378
10901,-0.0100,-0.0538,0.0032,0.93,-0.22,0.50,0.260,-15.955,-0.267,-1.711
10911,-0.0096,-0.0554,0.0037,0.83,-0.23,0.48,0.260,-17.653,-0.426,-1.061
10921,-0.0071,-0.0588,0.0042,0.74,-0.24,0.45,0.260,-19.809,0.073,-0.742
10930,-0.0135,-0.0610,0.0045,0.61,-0.20,0.44,0.260,-21.696,0.326,-1.079
10940,-0.0092,-0.0627,0.0067,0.43,-0.22,0.43,0.260,-16.154,1.054,-1.614
10950,-0.0085,-0.0620,0.0072,0.24,-0.23,0.42,0.260,-11.101,0.521,-2.072
10961,-0.0077,-0.0625,0.0076,0.03,-0.23,0.41,0.260,-13.408,2.385,-1.526
10970,-0.0051,-0.0602,0.0081,-0.16,-0.26,0.39,0.262,-14.240,2.763,-1.777
10980,-0.0043,-0.0614,0.0085,-0.26,-0.27,0.37,0.262,-13.319,2.957,-1.489
10990,-0.0101,-0.0606,0.0088,-0.40,-0.26,0.36,0.262,-14.350,3.100,-1.450
11001,-0.0072,-0.0628,0.0137,-0.52,-0.30,0.34,0.262,-16.872,1.133,-1.142
11010,-0.0060,-0.0598,0.0140,-0.67,-0.33,0.32,0.262,-18.591,1.435,-0.929
11020,-0.0049,-0.0613,0.0143,-0.79,-0.37,0.30,0.262,-14.896,0.917,-1.997
11031,-0.0043,-0.0599,0.0148,-0.95,-0.38,0.29,0.262,-15.400,-0.041,-1.767
11040,-0.0033,-0.0604,0.0163,-1.12,-0.40,0.28,0.262,-11.616,-1.451,-1.692
11049,-0.0024,-0.0580,0.0167,-1.28,-0.41,0.26,0.262,-10.056,-0.655,-2.594
11060,-0.0016,-0.0554,0.0169,-1.43,-0.41,0.24,0.262,-11.897,-2.322,-1.991
11069,0.0038,-0.0513,0.0171,-1.55,-0.43,0.22,0.263,-3.053,-2.764,-2.871
11081,0.0010,-0.0474,0.0174,-1.67,-0.40,0.20,0.263,-7.915,-2.808,-2.100
11090,-0.0003,-0.0464,0.0179,-1.77,-0.37,0.18,0.263,-6.062,-2.940,-1.952
11100,0.0003,-0.0434,0.0192,-1.81,-0.34,0.15,0.263,0.173,-1.502,-2.723
11110,0.0039,-0.0412,0.0193,-1.88,-0.33,0.13,0.263,-1.395,-2.666,-3.790
11120,0.0023,-0.0359,0.0194,-1.96,-0.29,0.11,0.264,-1.397,-1.713,-3.126
11130,0.0028,-0.0325,0.0199,-1.96,-0.27,0.08,0.264,-3.554,-1.215,-2.640
11140,0.0032,-0.0292,0.0208,-1.97,-0.25,0.04,0.264,-0.613,-1.887,-3.100
11150,0.0036,-0.0258,0.0210,-1.98,-0.23,0.01,0.264,3.574,-2.824,-3.550
11160,0.0040,-0.0224,0.0213,-2.02,-0.21,-0.02,0.264,2.935,-2.451,-3.708
11170,0.0044,-0.0189,0.0214,-2.04,-0.19,-0.05,0.262,2.653,-2.414,-4.262
11180,0.0061,-0.0154,0.0215,-2.01,-0.17,-0.08,0.262,0.920,-2.209,-3.838
11190,0.0064,-0.0119,0.0216,-1.99,-0.14,-0.12,0.262,-0.402,-1.704,-3.432
11200,0.0021,-0.0085,0.0152,-1.96,-0.09,-0.16,0.262,4.978,-1.037,-4.797
11210,0.0095,0.0008,0.0150,-1.99,-0.10,-0.20,0.262,3.056,-2.911,-2.504
11220,0.0053,0.0042,0.0150,-1.99,-0.06,-0.23,0.259,7.037,-1.665,-4.700
11230,0.0069,0.0066,0.0152,-1.95,-0.05,-0.27,0.259,5.702,-2.577,-3.255
11240,0.0045,0.0129,0.0033,-1.93,-0.01,-0.30,0.259,9.474,-2.560,-3.250
11250,0.0041,0.0164,0.0032,-1.87,0.01,-0.35,0.259,12.262,-2.262,-4.621
11260,0.0036,0.0219,0.0033,-1.81,0.04,-0.38,0.259,12.761,-1.807,-4.685
11270,0.0030,0.0248,0.0033,-1.72,0.06,-0.42,0.262,15.971,-2.081,-4.470
11280,0.0061,0.0251,0.0034,-1.60,0.06,-0.45,0.262,15.956,-1.417,-4.069
11291,0.0055,0.0287,0.0036,-1.48,0.08,-0.50,0.262,17.594,-0.427,-4.228
11300,0.0014,0.0370,0.0032,-1.38,0.13,-0.54,0.262,16.647,-0.307,-3.659
11310,0.0063,0.0376,0.0035,-1.23,0.12,-0.58,0.262,14.467,0.668,-2.281
11320,0.0022,0.0395,0.0039,-1.07,0.15,-0.62,0.263,14.528,1.622,-2.911
11330,0.0019,0.0412,0.0041,-0.92,0.15,-0.65,0.263,15.004,1.387,-3.101
11340,0.0018,0.0465,0.0056,-0.79,0.15,-0.68,0.263,14.596,0.758,-2.963
11350,0.0034,0.0442,0.0059,-0.63,0.12,-0.70,0.263,14.595,0.944,-2.529
11360,-0.0001,0.0503,0.0062,-0.51,0.12,-0.74,0.263,13.672,0.016,-3.488
11370,-0.0003,0.0512,0.0063,-0.36,0.11,-0.77,0.266,15.590,0.394,-3.849
11380,0.0016,0.0604,0.0065,-0.27,0.09,-0.80,0.266,14.903,-1.132,-2.969
11390,0.0014,0.0604,0.0073,-0.13,0.09,-0.83,0.266,14.783,-0.650,-1.926
11400,0.0012,0.0582,0.0148,0.03,0.09,-0.87,0.266,16.602,-0.515,-3.169
11411,-0.0009,0.0560,0.0149,0.20,0.11,-0.90,0.266,13.590,1.183,-2.390
11420,0.0040,0.0584,0.0150,0.33,0.09,-0.92,0.260,15.247,0.811,-2.453
11430,0.0038,0.0623,0.0153,0.47,0.10,-0.95,0.260,15.862,2.310,-1.927
11439,0.0019,0.0609,0.0047,0.61,0.10,-0.98,0.260,16.868,0.861,-3.082
11450,0.0002,0.0591,0.0049,0.77,0.10,-1.00,0.260,14.254,2.005,-2.493
11459,0.0003,0.0604,0.0051,0.91,0.08,-1.02,0.260,13.817,2.149,-1.958
11470,0.0003,0.0581,0.0051,1.07,0.07,-1.05,0.261,13.760,2.289,-1.737
11480,-0.0031,0.0542,0.0055,1.23,0.07,-1.08,0.261,13.509,1.413,-1.498
11489,-0.0012,0.0550,0.0059,1.34,0.05,-1.10,0.261,14.054,-0.009,-1.830
11500,0.0008,0.0523,0.0014,1.49,0.02,-1.11,0.261,12.618,1.832,-1.503
11510,0.0010,0.0512,0.0017,1.62,0.00,-1.13,0.261,8.234,-1.208,-1.406
11519,0.0026,0.0466,0.0019,1.77,-0.01,-1.14,0.263,10.838,-0.359,-2.747
11530,0.0060,0.0453,0.0021,1.89,-0.05,-1.16,0.263,8.091,2.298,-2.327
11540,0.0009,0.0463,0.0038,1.96,-0.01,-1.17,0.263,5.220,-0.219,-1.699
11550,0.0008,0.0429,0.0039,2.06,-0.01,-1.20,0.263,4.386,1.264,-1.578
11560,0.0012,0.0436,0.0042,2.12,-0.03,-1.22,0.263,3.040,-0.305,-0.465
11570,0.0029,0.0396,0.0046,2.18,-0.04,-1.24,0.262,1.495,1.101,-0.404
11580,0.0011,0.0340,0.0050,2.23,-0.05,-1.26,0.262,0.737,-0.010,-1.832
11589,0.0011,0.0301,0.0054,2.27,-0.04,-1.26,0.262,-0.659,-0.866,0.018
11599,0.0012,0.0267,0.0038,2.29,-0.05,-1.27,0.262,-1.728,-0.808,-0.836
11610,0.0012,0.0228,0.0041,2.31,-0.05,-1.29,0.262,0.601,-1.123,-1.287
11620,-0.0007,0.0181,0.0045,2.32,-0.03,-1.29,0.260,2.888,-0.866,-1.030
11630,-0.0008,0.0142,0.0047,2.32,-0.03,-1.30,0.260,1.021,0.994,0.612
11640,-0.0028,0.0097,-0.0009,2.32,-0.01,-1.31,0.260,0.314,0.088,-1.010
11649,-0.0011,0.0066,-0.0005,2.33,-0.01,-1.32,0.260,-1.329,0.907,-0.248
11660,-0.0012,0.0022,-0.0002,2.35,-0.02,-1.32,0.260,-5.142,0.355,1.071
11670,-0.0013,-0.0018,0.0001,2.35,-0.02,-1.32,0.265,-3.934,0.419,0.252
11679,-0.0013,-0.0059,0.0002,2.33,-0.03,-1.33,0.265,-9.830,-0.064,0.922
11690,-0.0031,-0.0088,0.0003,2.27,-0.02,-1.32,0.265,-5.942,1.401,1.003
11699,-0.0031,-0.0128,0.0082,2.24,-0.03,-1.31,0.265,-11.045,1.280,1.021
11710,-0.0032,-0.0167,0.0085,2.16,-0.03,-1.31,0.265,-10.286,-0.177,1.093
11719,-0.0049,-0.0207,0.0087,2.09,-0.03,-1.29,0.263,-11.114,1.436,2.131
11730,-0.0065,-0.0260,0.0091,1.98,-0.03,-1.28,0.263,-12.556,1.885,2.634
11740,-0.0063,-0.0306,0.0089,1.89,-0.04,-1.27,0.263,-12.788,1.528,2.163
11749,-0.0079,-0.0328,0.0092,1.77,-0.04,-1.25,0.263,-15.075,0.498,2.220
11760,-0.0074,-0.0366,0.0093,1.65,-0.05,-1.23,0.263,-15.232,1.219,2.087
11770,-0.0030,-0.0418,0.0095,1.54,-0.09,-1.21,0.262,-14.680,1.672,2.540
11780,-0.0046,-0.0405,0.0099,1.37,-0.09,-1.18,0.262,-16.595,0.943,2.839
11790,-0.0060,-0.0445,0.0059,1.23,-0.10,-1.16,0.262,-15.012,2.570,3.013
11800,-0.0055,-0.0520,0.0059,1.11,-0.12,-1.13,0.262,-15.975,1.565,2.884
11810,-0.0050,-0.0514,0.0061,0.94,-0.13,-1.10,0.262,-14.539,2.466,2.497
11820,-0.0024,-0.0509,0.0061,0.78,-0.17,-1.07,0.267,-15.736,2.643,2.294
11829,-0.0019,-0.0536,0.0061,0.64,-0.19,-1.04,0.267,-15.715,2.456,1.878
11840,-0.0030,-0.0544,0.0142,0.49,-0.20,-1.02,0.267,-15.058,1.328,2.512
11849,-0.0023,-0.0546,0.0142,0.33,-0.22,-0.99,0.267,-14.253,1.120,2.983
11860,-0.0015,-0.0545,0.0143,0.16,-0.25,-0.97,0.267,-14.586,0.279,3.603
11870,0.0009,-0.0543,0.0142,0.00,-0.27,-0.94,0.264,-14.748,0.634,3.518
11880,-0.0004,-0.0610,0.0140,-0.11,-0.27,-0.91,0.264,-13.276,0.603,3.399
11890,-0.0016,-0.0584,0.0142,-0.28,-0.27,-0.87,0.264,-12.832,0.852,3.083
11899,-0.0010,-0.0558,0.0108,-0.43,-0.28,-0.84,0.264,-12.058,0.290,3.101
11909,-0.0004,-0.0548,0.0109,-0.57,-0.29,-0.80,0.264,-11.257,-0.779,3.141
11920,0.0002,-0.0520,0.0111,-0.71,-0.30,-0.77,0.266,-10.605,-1.001,4.123
11929,0.0007,-0.0543,0.0112,-0.82,-0.30,-0.74,0.266,-9.058,-2.052,4.472
11939,0.0028,-0.0548,0.0127,-0.92,-0.31,-0.71,0.266,-9.157,-1.613,4.925
11949,0.0014,-0.0534,0.0128,-1.03,-0.29,-0.67,0.266,-9.649,-1.631,4.560
11960,0.0015,-0.0539,0.0131,-1.10,-0.27,-0.62,0.266,-7.285,-1.780,3.562
11969,0.0017,-0.0508,0.0131,-1.20,-0.25,-0.58,0.266,-6.997,-1.746,4.768
11979,0.0022,-0.0487,0.0127,-1.28,-0.23,-0.53,0.266,-5.225,-1.538,3.788
11989,0.0023,-0.0457,0.0127,-1.37,-0.21,-0.49,0.266,-5.933,-1.326,3.544
12000,-0.0010,-0.0409,0.0122,-1.46,-0.18,-0.44,0.266,-7.926,-1.933,5.776
12009,0.0041,-0.0414,0.0123,-1.51,-0.19,-0.40,0.266,-7.725,-2.277,4.128
12019,0.0045,-0.0388,0.0123,-1.58,-0.18,-0.36,0.268,-5.503,-1.271,3.908
12030,0.0044,-0.0373,0.0124,-1.64,-0.16,-0.31,0.268,-6.417,-1.567,4.135
12039,0.0025,-0.0338,0.0149,-1.71,-0.12,-0.26,0.268,-1.571,0.205,4.325
12049,0.0042,-0.0327,0.0149,-1.76,-0.12,-0.22,0.268,-2.557,-1.049,4.252
12059,0.0074,-0.0277,0.0149,-1.83,-0.13,-0.18,0.268,-2.414,-0.680,5.002
12069,0.0057,-0.0235,0.0148,-1.86,-0.11,-0.13,0.269,0.254,-0.112,5.489
12079,0.0059,-0.0203,0.0147,-1.88,-0.11,-0.09,0.269,3.720,-0.755,3.234
12089,0.0061,-0.0171,0.0147,-1.90,-0.10,-0.04,0.269,2.492,-0.720,4.105
12099,0.0061,-0.0152,0.0167,-1.89,-0.10,0.01,0.269,4.378,-0.599,4.337
12109,0.0062,-0.0119,0.0165,-1.85,-0.10,0.05,0.269,6.288,-0.839,5.268
12119,0.0064,-0.0088,0.0163,-1.83,-0.09,0.09,0.266,3.732,-0.385,5.306
12129,0.0063,-0.0042,0.0162,-1.79,-0.08,0.13,0.266,2.640,-1.177,4.744
12139,0.0061,-0.0002,0.0093,-1.73,-0.07,0.18,0.266,6.548,-1.508,3.903
12149,0.0042,0.0022,0.0089,-1.69,-0.06,0.23,0.266,3.906,-0.692,4.929
12159,0.0039,0.0082,0.0082,-1.68,-0.05,0.28,0.266,7.174,-1.640,3.924
12169,0.0036,0.0118,0.0077,-1.61,-0.04,0.32,0.269,9.083,-0.476,5.228
12179,0.0037,0.0146,0.0071,-1.57,-0.03,0.37,0.269,7.324,-1.212,4.997
12189,0.0033,0.0192,0.0068,-1.51,-0.01,0.41,0.269,9.913,-0.592,4.416
12199,0.0032,0.0217,0.0080,-1.43,-0.01,0.46,0.269,9.207,-0.474,4.864
12209,0.0028,0.0240,0.0074,-1.35,0.00,0.51,0.269,11.298,0.845,4.690
12219,0.0044,0.0278,0.0069,-1.26,-0.00,0.56,0.272,10.634,2.072,4.674
12229,0.0041,0.0348,0.0067,-1.20,-0.00,0.61,0.272,11.909,1.775,5.092
12239,0.0059,0.0340,0.0132,-1.07,-0.02,0.66,0.272,15.538,0.207,3.975
12249,0.0060,0.0367,0.0130,-0.95,-0.03,0.70,0.272,12.928,-0.536,4.335
