time_ms,vel_x,vel_y,vel_z,roll,pitch,yaw,range_z,gyro_x,gyro_y,gyro_z
0,-0.0026,0.0028,0.0030,0.53,0.07,-0.31,0.014,-0.231,0.186,0.423
0,-0.0012,-0.0008,0.0031,0.56,0.06,-0.31,0.014,-0.276,0.266,-0.001
0,-0.0013,0.0018,0.0032,0.54,0.06,-0.31,0.014,0.099,-0.221,0.005
0,-0.0024,0.0018,0.0034,0.53,0.07,-0.30,0.014,-0.323,0.076,0.049
0,-0.0033,0.0042,0.0034,0.51,0.08,-0.30,0.014,0.134,-0.318,-0.027
0,0.0041,0.0003,0.0036,0.54,0.02,-0.30,0.014,-0.260,0.056,0.150
0,0.0041,-0.0008,0.0055,0.55,0.02,-0.30,0.014,-0.101,0.010,0.064
0,-0.0020,-0.0007,0.0056,0.55,0.07,-0.30,0.014,-0.006,-0.163,-0.097
0,-0.0019,-0.0016,0.0056,0.56,0.07,-0.30,0.011,-0.162,0.136,0.104
0,-0.0006,-0.0013,0.0056,0.55,0.06,-0.30,0.011,-0.219,-0.149,-0.172
0,-0.0018,0.0048,-0.0005,0.51,0.07,-0.30,0.011,-0.444,0.092,0.195
0,0.0071,0.0022,-0.0006,0.52,-0.00,-0.30,0.011,0.139,0.128,0.119
0,0.0019,0.0081,-0.0008,0.48,0.03,-0.30,0.011,-0.201,-0.101,0.061
0,-0.0027,0.0081,-0.0011,0.48,0.07,-0.30,0.011,-0.085,0.275,0.091
1,-0.0026,0.0057,-0.0013,0.50,0.07,-0.30,0.011,0.232,-0.160,-0.358
1,0.0022,-0.0002,-0.0012,0.55,0.03,-0.29,0.011,-0.389,0.243,0.118
1,0.0033,0.0001,-0.0048,0.54,0.02,-0.29,0.011,-0.116,-0.018,-0.242
1,-0.0026,0.0048,-0.0047,0.51,0.07,-0.30,0.011,-0.217,0.235,0.172
1,-0.0028,0.0052,-0.0047,0.50,0.07,-0.29,0.013,-0.257,0.064,0.183
1,-0.0028,0.0003,-0.0047,0.54,0.07,-0.30,0.013,0.044,-0.071,0.133
1,-0.0014,0.0003,-0.0023,0.54,0.05,-0.29,0.013,-0.038,-0.157,0.014
1,-0.0025,-0.0007,-0.0023,0.55,0.06,-0.29,0.013,-0.110,-0.314,0.051
1,-0.0024,0.0042,-0.0023,0.51,0.06,-0.29,0.013,-0.115,-0.249,-0.103
1,-0.0024,0.0017,-0.0022,0.53,0.06,-0.29,0.013,-0.214,0.205,-0.068
1,-0.0068,0.0112,-0.0021,0.45,0.10,-0.29,0.014,-0.069,0.352,0.056
1,-0.0029,0.0108,-0.0020,0.45,0.07,-0.29,0.014,-0.301,0.090,-0.093
1,0.0065,-0.0001,0.0024,0.54,-0.01,-0.29,0.014,-0.010,-0.097,0.008
1,-0.0021,0.0001,0.0025,0.54,0.06,-0.29,0.014,-0.142,0.345,0.332
1,0.0003,0.0002,0.0024,0.54,0.04,-0.29,0.013,0.071,0.032,-0.134
2,-0.0020,0.0048,0.0023,0.50,0.06,-0.29,0.013,-0.160,-0.127,0.075
2,-0.0019,-0.0009,0.0020,0.54,0.06,-0.29,0.013,-0.072,0.185,-0.190
2,-0.0018,-0.0006,0.0021,0.54,0.06,-0.29,0.013,0.121,-0.073,0.027
2,0.0021,-0.0002,0.0021,0.54,0.03,-0.28,0.013,-0.142,0.083,-0.047
2,-0.0151,0.0012,0.0022,0.53,0.17,-0.29,0.013,-0.015,-0.191,-0.025
2,-0.0131,0.0051,0.0022,0.50,0.15,-0.29,0.011,-0.094,0.087,-0.181
2,-0.0184,0.0063,0.0021,0.49,0.19,-0.29,0.011,-0.044,0.083,0.063
2,-0.0004,0.0058,-0.0025,0.49,0.05,-0.29,0.011,-0.260,-0.017,-0.128
2,-0.0124,0.0019,-0.0024,0.53,0.14,-0.29,0.011,-0.071,-0.052,-0.133
2,-0.0106,0.0019,-0.0021,0.52,0.13,-0.28,0.010,-0.332,0.085,-0.010
2,-0.0102,0.0043,-0.0020,0.51,0.12,-0.28,0.010,-0.020,0.091,-0.066
2,-0.0098,0.0020,-0.0066,0.52,0.12,-0.28,0.010,0.150,0.127,-0.341
2,-0.0154,0.0045,-0.0066,0.50,0.16,-0.28,0.010,-0.231,-0.247,-0.052
2,-0.0148,0.0020,-0.0067,0.53,0.15,-0.28,0.010,-0.178,-0.033,0.289
2,-0.0084,0.0006,-0.0067,0.53,0.10,-0.28,0.010,-0.233,-0.098,-0.012
2,-0.0085,0.0007,-0.0067,0.53,0.10,-0.28,0.010,-0.184,0.029,0.086
3,-0.0043,0.0019,-0.0067,0.52,0.07,-0.28,0.010,-0.302,0.096,-0.021
3,-0.0041,0.0056,-0.0090,0.49,0.07,-0.28,0.010,-0.127,0.084,-0.269
3,-0.0076,0.0017,-0.0090,0.52,0.09,-0.28,0.010,0.097,0.007,-0.371
3,-0.0082,0.0016,-0.0091,0.51,0.10,-0.28,0.012,0.065,-0.034,-0.023
3,-0.0065,0.0018,-0.0091,0.51,0.08,-0.28,0.012,-0.246,0.166,0.012
3,-0.0026,0.0019,-0.0052,0.52,0.05,-0.28,0.012,-0.173,-0.334,-0.046
3,0.0140,-0.0077,-0.0052,0.59,-0.08,-0.28,0.012,0.022,0.066,0.021
3,0.0099,-0.0096,-0.0051,0.60,-0.04,-0.28,0.012,-0.115,0.190,-0.004
3,0.0083,-0.0009,-0.0049,0.53,-0.03,-0.28,0.012,-0.008,-0.101,0.033
3,0.0083,-0.0007,-0.0047,0.53,-0.03,-0.28,0.012,-0.292,0.152,0.198
3,0.0152,-0.0127,-0.0048,0.62,-0.08,-0.28,0.012,0.063,0.078,0.038
3,0.0183,-0.0035,-0.0016,0.55,-0.11,-0.28,0.012,-0.113,-0.061,0.235
3,0.0080,0.0003,-0.0011,0.52,-0.02,-0.28,0.012,-0.214,0.124,0.247
3,0.0161,0.0003,-0.0011,0.52,-0.08,-0.27,0.014,-0.213,0.096,-0.026
3,0.0167,-0.0078,-0.0013,0.58,-0.09,-0.27,0.014,-0.194,-0.225,0.060
3,0.0138,-0.0073,0.0047,0.57,-0.06,-0.27,0.014,0.218,0.159,0.104
3,0.0144,-0.0021,0.0047,0.53,-0.06,-0.27,0.014,0.126,-0.146,-0.054
3,0.0151,-0.0017,0.0046,0.53,-0.06,-0.27,0.014,-0.064,0.193,-0.149
3,0.0051,0.0021,0.0048,0.50,0.02,-0.27,0.014,0.057,0.289,0.300
3,0.0094,0.0008,0.0050,0.51,-0.02,-0.27,0.016,0.317,0.190,-0.264
3,0.0101,0.0019,0.0051,0.50,-0.03,-0.27,0.016,-0.011,0.195,0.125
4,0.0087,-0.0085,0.0125,0.58,-0.01,-0.26,0.016,0.102,-0.153,-0.246
4,0.0143,0.0013,0.0126,0.51,-0.06,-0.27,0.016,-0.041,0.239,-0.103
4,0.0254,0.0048,0.0123,0.48,-0.14,-0.26,0.013,-0.164,-0.006,-0.183
4,0.0255,0.0036,0.0122,0.49,-0.14,-0.26,0.013,0.052,-0.124,0.201
4,0.0290,0.0069,0.0088,0.46,-0.17,-0.26,0.013,0.137,0.167,-0.044
4,0.0242,0.0007,0.0089,0.51,-0.13,-0.26,0.013,-0.116,-0.112,-0.257
4,0.0219,0.0009,0.0089,0.51,-0.11,-0.26,0.013,-0.085,0.226,-0.363
4,0.0222,0.0011,0.0089,0.50,-0.11,-0.26,0.013,-0.070,0.314,0.012
4,0.0212,0.0104,0.0090,0.43,-0.10,-0.27,0.014,-0.242,-0.222,-0.118
4,0.0190,-0.0002,0.0093,0.51,-0.08,-0.26,0.014,-0.107,0.244,0.011
4,0.0168,0.0000,0.0079,0.51,-0.06,-0.26,0.014,-0.022,-0.162,0.194
4,0.0206,0.0050,0.0079,0.47,-0.09,-0.26,0.014,-0.345,-0.325,-0.040
4,0.0174,0.0063,0.0080,0.46,-0.06,-0.26,0.012,-0.143,0.117,0.277
4,0.0189,0.0076,0.0079,0.46,-0.07,-0.26,0.012,0.026,-0.067,0.085
4,0.0095,0.0042,0.0023,0.49,-0.00,-0.26,0.012,-0.032,0.565,-0.085
4,0.0172,0.0052,0.0023,0.48,-0.06,-0.26,0.012,0.087,-0.262,-0.241
4,0.0175,0.0073,0.0022,0.46,-0.06,-0.26,0.012,-0.144,-0.174,0.243
4,0.0134,0.0013,0.0025,0.51,-0.03,-0.26,0.012,0.024,-0.054,-0.258
4,0.0128,0.0095,0.0028,0.45,-0.02,-0.26,0.013,-0.053,0.095,0.117
4,0.0155,0.0036,0.0010,0.50,-0.04,-0.26,0.013,-0.238,-0.151,-0.007
4,0.0150,0.0025,0.0009,0.51,-0.04,-0.26,0.013,-0.005,-0.097,0.042
4,0.0133,0.0093,0.0006,0.45,-0.02,-0.26,0.013,-0.007,-0.084,0.048
4,0.0138,0.0067,0.0004,0.47,-0.03,-0.26,0.015,-0.129,0.010,-0.060
4,0.0039,0.0067,0.0006,0.48,0.05,-0.26,0.015,-0.197,-0.098,0.061
4,0.0082,0.0010,0.0039,0.52,0.02,-0.26,0.015,0.290,0.009,-0.085
4,0.0056,0.0001,0.0039,0.53,0.04,-0.26,0.015,-0.166,0.096,0.301
4,0.0065,0.0048,0.0037,0.49,0.03,-0.26,0.015,-0.002,-0.004,-0.360
4,0.0084,0.0059,0.0037,0.49,0.02,-0.26,0.015,-0.288,0.059,-0.113
4,0.0084,0.0061,0.0039,0.48,0.02,-0.26,0.015,-0.339,0.159,0.171
4,0.0114,0.0070,0.0038,0.48,-0.01,-0.26,0.015,0.160,-0.270,-0.140
4,0.0060,-0.0003,0.0054,0.53,0.03,-0.26,0.015,0.107,-0.002,0.176
5,0.0060,-0.0002,0.0054,0.53,0.03,-0.26,0.015,0.170,0.013,-0.021
5,0.0032,-0.0003,0.0055,0.53,0.06,-0.26,0.012,0.043,0.073,-0.067
5,0.0031,-0.0002,0.0055,0.53,0.06,-0.26,0.012,-0.057,-0.039,-0.148
5,0.0042,-0.0000,-0.0007,0.53,0.05,-0.26,0.012,0.043,-0.144,0.293
5,0.0054,0.0052,-0.0007,0.49,0.04,-0.26,0.012,-0.049,0.243,-0.497
5,0.0054,0.0053,-0.0006,0.49,0.04,-0.26,0.012,-0.108,-0.106,0.183
5,0.0050,0.0104,-0.0005,0.45,0.04,-0.26,0.012,-0.259,0.343,0.006
5,0.0034,0.0012,-0.0003,0.52,0.06,-0.26,0.013,-0.246,-0.014,-0.057
5,-0.0007,0.0026,-0.0003,0.51,0.09,-0.26,0.013,-0.054,0.075,0.149
5,0.0006,0.0012,-0.0020,0.52,0.08,-0.26,0.013,0.173,-0.008,0.069
5,0.0055,0.0011,-0.0020,0.52,0.04,-0.26,0.013,0.095,0.219,-0.643
5,0.0090,0.0075,-0.0022,0.47,0.01,-0.26,0.011,-0.052,-0.057,0.184
5,0.0061,0.0098,-0.0021,0.46,0.04,-0.26,0.011,-0.312,-0.064,0.046
5,0.0046,0.0010,-0.0067,0.53,0.05,-0.26,0.011,0.012,0.293,0.023
5,0.0008,0.0010,-0.0065,0.53,0.08,-0.26,0.011,0.022,0.165,-0.013
5,0.0044,0.0046,-0.0065,0.50,0.05,-0.26,0.011,-0.383,-0.091,0.194
5,0.0041,0.0007,-0.0064,0.53,0.05,-0.26,0.011,-0.132,-0.371,-0.216
5,0.0025,0.0010,-0.0066,0.52,0.06,-0.25,0.017,0.395,-0.095,-0.068
5,0.0071,0.0010,-0.0066,0.52,0.02,-0.25,0.017,-0.143,-0.057,0.004
5,-0.0026,0.0012,0.0046,0.52,0.10,-0.25,0.017,-0.286,0.159,-0.200
5,0.0011,0.0046,0.0046,0.50,0.07,-0.25,0.017,-0.251,-0.139,0.149
5,0.0044,0.0091,0.0046,0.46,0.05,-0.25,0.012,0.032,0.076,-0.230
5,0.0065,0.0063,0.0047,0.48,0.03,-0.25,0.012,-0.209,0.094,-0.150
5,0.0061,0.0053,-0.0002,0.49,0.03,-0.25,0.012,0.014,-0.001,-0.164
5,0.0021,0.0004,-0.0001,0.53,0.06,-0.25,0.012,-0.087,0.226,0.055
5,0.0020,0.0090,0.0001,0.46,0.06,-0.25,0.012,-0.010,-0.128,-0.006
5,0.0020,0.0101,0.0001,0.46,0.06,-0.25,0.012,0.047,-0.175,-0.015
5,0.0007,0.0053,0.0003,0.50,0.07,-0.25,0.012,-0.288,0.439,0.020
5,0.0007,0.0005,-0.0032,0.54,0.07,-0.25,0.012,-0.306,-0.007,0.459
5,0.0018,0.0051,-0.0032,0.50,0.06,-0.25,0.012,-0.216,-0.269,-0.008
5,0.0005,0.0004,-0.0030,0.53,0.07,-0.24,0.012,-0.008,-0.139,0.229
5,0.0040,0.0029,-0.0028,0.51,0.04,-0.24,0.015,-0.254,0.112,0.064
5,0.0003,0.0005,-0.0027,0.53,0.07,-0.24,0.015,0.017,-0.112,-0.140
6,0.0002,0.0041,0.0022,0.50,0.07,-0.24,0.015,-0.030,0.013,-0.214
6,0.0057,0.0007,0.0020,0.53,0.03,-0.24,0.015,-0.138,0.202,-0.150
6,0.0054,0.0042,0.0020,0.50,0.03,-0.24,0.015,-0.013,-0.139,0.158
6,0.0042,0.0040,0.0020,0.50,0.04,-0.24,0.015,-0.008,-0.162,0.221
6,0.0007,0.0050,0.0021,0.49,0.07,-0.24,0.011,-0.170,0.131,-0.212
6,-0.0006,-0.0008,0.0022,0.54,0.08,-0.24,0.011,0.164,0.202,-0.212
6,-0.0005,-0.0007,-0.0045,0.54,0.08,-0.24,0.011,-0.155,0.136,0.313
6,-0.0005,-0.0006,-0.0046,0.54,0.08,-0.24,0.011,0.075,0.292,0.109
6,0.0018,0.0094,-0.0046,0.46,0.06,-0.24,0.012,-0.294,-0.056,0.199
6,0.0018,0.0006,-0.0046,0.53,0.06,-0.24,0.012,0.031,0.085,-0.174
6,0.0006,0.0042,-0.0055,0.50,0.07,-0.24,0.012,0.007,0.203,0.184
6,-0.0008,0.0042,-0.0053,0.50,0.08,-0.24,0.012,0.034,-0.163,0.067
6,-0.0009,0.0043,-0.0052,0.50,0.08,-0.23,0.012,-0.056,-0.003,-0.265
6,0.0029,0.0067,-0.0051,0.48,0.05,-0.23,0.012,-0.133,0.218,0.062
6,-0.0010,0.0052,-0.0053,0.49,0.08,-0.23,0.012,-0.174,-0.295,-0.112
6,-0.0010,0.0088,-0.0054,0.46,0.08,-0.23,0.012,-0.253,0.040,0.055
6,-0.0056,-0.0001,-0.0053,0.53,0.12,-0.23,0.012,-0.179,0.267,0.062
6,-0.0018,0.0000,-0.0055,0.53,0.09,-0.23,0.012,-0.057,0.135,-0.428
6,0.0006,0.0001,-0.0056,0.53,0.07,-0.23,0.011,-0.235,-0.249,0.234
6,0.0007,0.0050,-0.0056,0.49,0.07,-0.23,0.011,0.055,-0.053,0.161
6,0.0008,0.0052,-0.0073,0.49,0.07,-0.24,0.011,0.179,-0.055,-0.107
6,0.0044,0.0014,-0.0073,0.52,0.04,-0.24,0.011,-0.007,0.045,-0.051
6,0.0041,0.0064,-0.0073,0.48,0.04,-0.23,0.011,-0.140,-0.252,-0.006
6,-0.0024,0.0001,-0.0071,0.53,0.09,-0.23,0.011,0.087,0.133,-0.164
6,-0.0013,0.0061,-0.0071,0.48,0.08,-0.23,0.015,-0.335,0.011,-0.117
6,0.0035,-0.0001,-0.0071,0.53,0.04,-0.23,0.015,-0.119,0.118,0.234
6,-0.0002,0.0024,0.0012,0.51,0.07,-0.23,0.015,-0.340,-0.028,0.027
6,-0.0001,0.0000,0.0010,0.53,0.07,-0.24,0.015,0.071,0.003,0.089
6,-0.0035,0.0003,0.0010,0.53,0.10,-0.23,0.013,-0.335,-0.022,0.132
6,0.0025,0.0076,0.0010,0.47,0.05,-0.23,0.013,0.211,-0.098,0.001
6,0.0001,0.0004,0.0017,0.53,0.07,-0.23,0.013,-0.170,0.294,0.198
6,-0.0010,0.0005,0.0019,0.53,0.08,-0.23,0.013,-0.359,0.302,0.006
6,-0.0008,0.0052,0.0020,0.49,0.08,-0.23,0.013,-0.099,-0.351,-0.183
6,0.0040,0.0075,0.0020,0.47,0.04,-0.23,0.013,-0.309,-0.220,0.066
7,0.0039,0.0077,0.0018,0.47,0.04,-0.23,0.012,0.090,0.099,-0.031
7,0.0035,-0.0152,-0.0004,0.65,0.04,-0.23,0.012,0.029,-0.167,0.218
7,0.0032,-0.0193,-0.0007,0.67,0.04,-0.23,0.012,0.025,-0.026,0.007
7,0.0043,-0.0081,-0.0003,0.59,0.03,-0.23,0.012,0.059,-0.249,0.007
7,0.0044,-0.0078,-0.0004,0.59,0.04,-0.23,0.014,0.041,-0.058,0.065
7,0.0054,-0.0073,-0.0006,0.58,0.03,-0.23,0.014,0.198,0.187,-0.080
7,0.0075,-0.0071,0.0023,0.58,0.01,-0.23,0.014,0.062,0.288,0.092
7,0.0033,-0.0067,0.0022,0.57,0.04,-0.23,0.014,-0.119,-0.014,-0.142
7,-0.0031,-0.0113,0.0021,0.61,0.09,-0.23,0.014,0.331,-0.090,-0.085
7,-0.0032,-0.0130,0.0021,0.62,0.09,-0.23,0.014,-0.176,0.018,-0.050
7,0.0041,-0.0039,0.0025,0.55,0.03,-0.23,0.012,0.116,-0.113,-0.402
7,0.0064,-0.0107,0.0023,0.61,0.01,-0.23,0.012,-0.375,-0.003,0.272
7,0.0049,-0.0051,-0.0008,0.56,0.03,-0.23,0.012,0.016,-0.022,0.085
7,0.0056,-0.0036,-0.0009,0.55,0.02,-0.23,0.012,0.192,0.157,0.018
7,-0.0007,-0.0033,-0.0009,0.54,0.07,-0.23,0.012,-0.037,-0.035,0.064
7,0.0026,-0.0032,-0.0009,0.54,0.04,-0.23,0.012,-0.108,0.018,0.098
7,0.0023,-0.0031,-0.0025,0.54,0.04,-0.23,0.012,-0.273,-0.480,-0.203
7,0.0058,-0.0066,-0.0024,0.57,0.01,-0.23,0.012,0.212,0.148,0.135
7,0.0059,-0.0065,-0.0024,0.57,0.01,-0.23,0.012,-0.229,-0.060,-0.136
7,0.0007,-0.0033,-0.0025,0.54,0.05,-0.23,0.012,-0.022,0.124,0.106
7,0.0019,-0.0016,-0.0026,0.53,0.04,-0.23,0.012,-0.191,-0.023,0.063
7,-0.0054,-0.0063,-0.0026,0.56,0.10,-0.23,0.012,-0.113,0.012,-0.249
7,-0.0013,-0.0109,-0.0032,0.60,0.07,-0.23,0.012,-0.404,0.006,0.351
7,-0.0013,-0.0016,-0.0028,0.52,0.07,-0.23,0.012,-0.195,-0.054,0.175
7,0.0000,-0.0001,-0.0029,0.51,0.06,-0.23,0.014,-0.029,0.051,-0.279
7,0.0000,-0.0024,-0.0030,0.53,0.05,-0.23,0.014,0.069,0.120,-0.093
7,0.0025,-0.0009,0.0013,0.51,0.04,-0.23,0.014,-0.257,0.225,0.136
7,0.0048,-0.0007,0.0012,0.51,0.02,-0.23,0.014,-0.250,0.058,-0.090
7,0.0022,0.0008,0.0011,0.50,0.04,-0.23,0.014,0.014,0.071,-0.085
7,-0.0015,0.0010,0.0009,0.50,0.07,-0.22,0.014,-0.020,-0.358,0.001
7,0.0021,0.0011,0.0009,0.50,0.04,-0.23,0.010,0.015,0.116,-0.132
7,0.0023,0.0011,0.0009,0.50,0.04,-0.23,0.010,-0.274,-0.116,-0.011
7,-0.0014,0.0014,-0.0055,0.50,0.07,-0.23,0.010,0.165,-0.146,-0.008
8,-0.0048,0.0018,-0.0056,0.50,0.10,-0.23,0.010,-0.100,-0.293,0.098
8,0.0001,0.0019,-0.0055,0.49,0.06,-0.23,0.013,-0.127,0.048,-0.209
8,0.0012,0.0019,-0.0054,0.49,0.05,-0.22,0.013,-0.080,-0.198,0.031
8,0.0045,0.0020,-0.0018,0.49,0.02,-0.22,0.013,-0.255,-0.023,0.219
8,-0.0054,-0.0027,-0.0018,0.53,0.10,-0.23,0.013,-0.082,-0.042,-0.257
8,0.0005,0.0023,-0.0019,0.49,0.05,-0.22,0.013,0.019,0.024,-0.199
8,0.0003,0.0013,-0.0020,0.50,0.05,-0.22,0.013,-0.284,-0.058,-0.023
8,0.0024,0.0027,-0.0021,0.49,0.04,-0.22,0.012,-0.291,-0.014,0.112
8,-0.0062,-0.0044,-0.0020,0.54,0.10,-0.23,0.012,-0.141,0.063,0.217
8,-0.0058,-0.0030,-0.0022,0.53,0.10,-0.23,0.012,0.037,-0.083,-0.208
8,0.0015,0.0020,-0.0021,0.49,0.04,-0.22,0.012,-0.132,0.063,-0.076
8,-0.0056,0.0009,-0.0021,0.50,0.10,-0.22,0.013,0.219,-0.186,0.182
8,-0.0018,0.0034,-0.0021,0.48,0.07,-0.22,0.013,0.141,-0.015,-0.143
8,-0.0006,0.0032,0.0002,0.48,0.06,-0.22,0.013,-0.279,0.019,0.029
8,0.0005,-0.0062,0.0002,0.55,0.05,-0.22,0.013,-0.058,-0.078,-0.323
8,0.0037,0.0023,0.0003,0.48,0.03,-0.22,0.013,-0.163,-0.090,-0.054
8,0.0025,0.0036,0.0003,0.47,0.04,-0.22,0.013,-0.085,0.042,0.158
8,0.0003,0.0038,0.0002,0.47,0.06,-0.22,0.014,0.028,0.026,-0.311
8,-0.0043,-0.0031,0.0002,0.52,0.09,-0.23,0.014,-0.143,-0.043,-0.054
8,0.0041,0.0039,0.0038,0.46,0.02,-0.22,0.014,-0.110,-0.187,0.268
8,-0.0005,0.0038,0.0038,0.47,0.06,-0.22,0.014,0.034,-0.094,0.136
8,0.0020,0.0038,0.0037,0.47,0.04,-0.22,0.016,0.100,-0.241,-0.004
8,0.0021,0.0039,0.0035,0.47,0.04,-0.22,0.016,0.103,-0.231,-0.251
8,0.0021,0.0040,0.0096,0.47,0.04,-0.22,0.016,-0.115,-0.292,0.089
8,-0.0018,0.0040,0.0098,0.47,0.08,-0.22,0.016,0.053,-0.003,0.028
8,-0.0053,0.0015,0.0099,0.49,0.10,-0.22,0.016,-0.345,-0.173,0.265
8,0.0023,0.0028,0.0101,0.48,0.05,-0.22,0.016,-0.093,-0.111,-0.006
8,0.0008,0.0019,0.0101,0.49,0.06,-0.22,0.014,0.199,0.137,-0.022
8,0.0041,0.0011,0.0102,0.50,0.03,-0.22,0.014,-0.382,0.132,0.039
8,0.0041,0.0013,0.0081,0.49,0.03,-0.22,0.014,-0.013,0.042,0.039
8,0.0003,0.0039,0.0080,0.47,0.06,-0.22,0.014,-0.098,0.039,-0.190
8,0.0016,0.0038,0.0077,0.47,0.05,-0.22,0.015,0.035,0.156,-0.330
8,-0.0060,0.0037,0.0076,0.47,0.11,-0.22,0.015,-0.286,0.041,0.394
8,0.0041,-0.0013,0.0077,0.51,0.03,-0.22,0.015,-0.285,0.284,0.101
9,-0.0059,-0.0036,0.0077,0.53,0.11,-0.22,0.015,-0.017,-0.084,0.049
9,0.0038,0.0016,0.0077,0.49,0.03,-0.22,0.015,-0.174,-0.046,0.227
9,-0.0002,0.0056,0.0077,0.46,0.06,-0.22,0.015,0.017,-0.189,-0.375
9,-0.0003,0.0021,0.0079,0.49,0.06,-0.22,0.011,-0.092,-0.018,0.016
9,0.0009,0.0023,0.0080,0.48,0.05,-0.22,0.011,-0.246,-0.078,-0.157
9,-0.0002,0.0048,-0.0016,0.47,0.06,-0.22,0.011,0.019,0.273,-0.064
9,0.0011,0.0047,-0.0017,0.47,0.05,-0.22,0.011,-0.155,0.021,0.138
9,-0.0003,-0.0012,-0.0017,0.52,0.06,-0.22,0.011,0.071,0.073,0.003
9,-0.0025,0.0049,-0.0019,0.47,0.08,-0.22,0.011,0.181,0.127,-0.095
9,0.0046,0.0061,-0.0076,0.46,0.02,-0.22,0.011,-0.056,-0.068,0.135
9,-0.0027,-0.0035,-0.0078,0.54,0.08,-0.22,0.011,-0.096,-0.194,-0.179
9,-0.0025,0.0049,-0.0078,0.47,0.08,-0.22,0.011,-0.238,0.016,0.367
9,0.0012,0.0048,-0.0077,0.48,0.05,-0.22,0.011,0.238,0.129,-0.155
9,-0.0057,0.0059,-0.0078,0.47,0.10,-0.22,0.013,0.060,-0.065,-0.172
9,-0.0055,-0.0047,-0.0076,0.56,0.10,-0.22,0.013,-0.101,-0.228,-0.256
9,0.0017,0.0046,-0.0055,0.48,0.04,-0.22,0.013,0.228,0.097,-0.082
9,0.0006,0.0046,-0.0055,0.49,0.05,-0.22,0.013,-0.057,-0.283,0.058
9,-0.0029,0.0058,-0.0056,0.48,0.08,-0.22,0.016,0.112,0.064,0.026
9,-0.0015,0.0055,-0.0055,0.48,0.07,-0.22,0.016,-0.007,0.081,0.082
9,-0.0003,0.0030,0.0028,0.50,0.06,-0.22,0.016,0.013,0.028,0.016
9,-0.0002,0.0054,0.0029,0.48,0.06,-0.22,0.016,-0.306,0.199,0.009
9,-0.0000,0.0054,0.0028,0.48,0.06,-0.22,0.016,-0.045,-0.315,0.026
9,0.0001,0.0055,0.0025,0.48,0.06,-0.22,0.016,-0.213,-0.075,-0.213
9,-0.0011,0.0054,0.0025,0.48,0.07,-0.22,0.012,-0.136,0.060,0.063
9,0.0066,0.0052,-0.0019,0.48,0.01,-0.22,0.012,-0.055,-0.300,-0.185
9,0.0013,0.0050,-0.0019,0.48,0.05,-0.22,0.012,-0.060,0.033,-0.009
9,-0.0036,-0.0027,-0.0019,0.54,0.09,-0.22,0.012,0.129,0.038,-0.148
9,0.0016,0.0036,-0.0018,0.49,0.05,-0.22,0.008,-0.317,-0.166,0.334
9,-0.0009,0.0048,-0.0019,0.48,0.07,-0.22,0.008,-0.025,-0.015,-0.221
9,0.0003,0.0049,-0.0135,0.48,0.06,-0.22,0.008,-0.126,-0.074,0.386
9,-0.0033,-0.0010,-0.0134,0.53,0.09,-0.22,0.008,-0.322,0.119,0.036
9,-0.0031,0.0039,-0.0135,0.49,0.09,-0.22,0.008,-0.148,-0.013,0.150
9,0.0017,0.0037,-0.0137,0.49,0.05,-0.22,0.008,0.024,-0.059,-0.103
10,0.0018,0.0038,-0.0138,0.49,0.05,-0.22,0.014,0.033,-0.128,0.132
10,0.0030,-0.0048,-0.0138,0.56,0.04,-0.22,0.014,-0.135,-0.243,0.056
10,-0.0009,-0.0031,-0.0055,0.54,0.07,-0.22,0.014,-0.216,-0.235,0.013
10,0.0003,0.0045,-0.0054,0.49,0.06,-0.22,0.014,-0.229,-0.067,0.159
10,0.0029,0.0057,-0.0054,0.48,0.04,-0.22,0.012,0.217,0.009,-0.155
10,0.0033,0.0058,-0.0054,0.48,0.05,-0.22,0.012,0.025,-0.153,-0.064
10,0.0033,0.0058,-0.0045,0.48,0.05,-0.22,0.012,-0.081,0.031,-0.072
10,0.0016,0.0030,-0.0043,0.50,0.06,-0.22,0.012,-0.000,-0.038,0.319
10,0.0014,0.0043,-0.0045,0.49,0.06,-0.22,0.012,-0.140,0.215,0.023
10,0.0012,0.0045,-0.0045,0.49,0.06,-0.22,0.012,-0.239,-0.238,-0.019
10,0.0065,0.0057,-0.0045,0.48,0.02,-0.21,0.012,-0.239,0.082,-0.131
10,0.0060,-0.0038,-0.0044,0.55,0.02,-0.21,0.012,-0.097,-0.513,0.151
10,-0.0023,0.0004,-0.0033,0.52,0.09,-0.22,0.012,0.175,-0.053,0.124
10,-0.0021,0.0043,-0.0033,0.48,0.09,-0.22,0.012,0.104,-0.163,-0.117
10,-0.0007,0.0042,-0.0031,0.49,0.08,-0.22,0.013,-0.011,0.091,-0.090
10,-0.0009,0.0042,-0.0030,0.49,0.08,-0.22,0.013,0.007,-0.198,0.077
10,-0.0022,0.0067,-0.0001,0.47,0.09,-0.22,0.013,-0.199,-0.037,0.206
10,-0.0058,0.0015,-0.0001,0.51,0.12,-0.22,0.013,0.141,-0.199,-0.282
10,0.0048,0.0015,0.0001,0.51,0.03,-0.22,0.013,-0.283,0.148,0.236
10,0.0007,0.0055,-0.0000,0.48,0.07,-0.22,0.013,-0.015,-0.019,0.238
10,0.0004,0.0066,-0.0003,0.47,0.07,-0.22,0.011,-0.250,0.010,0.049
10,0.0051,-0.0011,-0.0006,0.53,0.03,-0.22,0.011,-0.122,-0.064,-0.073
10,0.0047,-0.0034,-0.0034,0.55,0.03,-0.21,0.011,0.053,-0.137,-0.216
10,0.0020,0.0056,-0.0031,0.48,0.05,-0.21,0.011,-0.004,0.020,0.014
10,-0.0005,0.0030,-0.0031,0.50,0.07,-0.21,0.011,-0.195,0.007,0.214
10,0.0032,0.0041,-0.0033,0.49,0.04,-0.21,0.011,-0.009,0.126,-0.102
10,0.0005,0.0053,-0.0046,0.48,0.06,-0.21,0.011,0.143,0.339,0.027
10,0.0002,0.0055,-0.0047,0.48,0.06,-0.21,0.011,0.061,0.113,-0.083
10,-0.0026,0.0056,-0.0046,0.48,0.08,-0.21,0.011,-0.086,-0.081,-0.080
10,-0.0026,0.0059,-0.0045,0.48,0.08,-0.21,0.011,-0.044,-0.028,-0.078
10,-0.0026,0.0062,-0.0048,0.48,0.08,-0.21,0.011,0.169,-0.032,-0.157
10,-0.0010,-0.0052,-0.0051,0.56,0.07,-0.21,0.011,0.074,-0.115,0.049
10,0.0033,0.0021,-0.0050,0.51,0.04,-0.21,0.011,-0.381,-0.008,0.489
11,-0.0075,0.0009,-0.0049,0.52,0.12,-0.21,0.011,-0.033,0.370,-0.193
11,0.0037,0.0051,-0.0048,0.49,0.04,-0.21,0.015,0.073,-0.116,0.089
11,-0.0017,0.0051,-0.0047,0.49,0.08,-0.21,0.015,-0.245,0.189,0.126
11,-0.0015,0.0063,0.0048,0.48,0.08,-0.21,0.015,0.211,-0.236,-0.063
11,-0.0066,0.0062,0.0048,0.48,0.12,-0.21,0.015,-0.198,0.164,0.245
11,0.0000,0.0000,0.0000,0.00,0.00,0.00,0.015,-0.232,-0.091,0.117
11,0.0002,0.0021,0.0000,0.00,0.00,-0.00,0.015,-0.041,-0.041,-0.110
11,0.0048,0.0039,-0.0001,-0.00,-0.02,0.00,0.010,0.304,-0.054,0.314
11,0.0032,0.0054,0.0000,-0.01,-0.01,0.00,0.010,-0.167,0.061,-0.188
11,0.0077,0.0011,0.0000,0.06,-0.08,0.00,0.010,-0.001,0.062,0.227
11,0.0015,0.0044,-0.0002,0.02,0.05,0.00,0.010,0.015,0.048,0.331
11,0.0041,0.0051,-0.0003,0.02,-0.01,-0.00,0.010,-0.386,-0.261,-0.060
11,0.0042,0.0062,-0.0002,0.02,-0.01,0.00,0.010,0.066,0.067,0.095
11,0.0085,0.0053,-0.0002,0.07,-0.11,0.00,0.010,0.143,-0.165,-0.109
11,0.0081,0.0027,-0.0002,0.16,-0.09,0.00,0.010,0.210,0.007,-0.174
11,0.0062,0.0082,-0.0003,0.03,-0.03,0.00,0.010,-0.232,-0.197,-0.153
11,0.0026,0.0085,-0.0005,0.05,0.08,0.00,0.010,0.032,-0.120,-0.284
11,0.0024,0.0105,-0.0008,0.02,0.08,0.00,0.010,-0.037,0.005,0.506
11,0.0094,0.0071,-0.0009,0.14,-0.11,0.00,0.010,-0.030,-0.020,-0.019
11,0.0089,0.0111,-0.0010,0.06,-0.09,-0.00,0.010,0.038,-0.078,-0.124
11,0.0045,0.0110,-0.0011,0.08,0.04,0.00,0.010,0.042,0.034,-0.243
11,-0.0017,0.0109,-0.0011,0.11,0.20,0.00,0.010,-0.219,0.182,-0.017
11,0.0039,0.0106,-0.0012,0.14,0.05,-0.00,0.010,-0.170,-0.313,0.162
11,-0.0105,0.0103,-0.0012,0.16,0.41,-0.00,0.010,-0.220,0.024,-0.396
11,-0.0101,0.0041,-0.0011,0.34,0.38,-0.00,0.010,-0.099,-0.019,0.062
11,0.0022,0.0083,-0.0010,0.25,0.06,-0.00,0.010,-0.008,-0.098,-0.106
11,-0.0064,0.0100,-0.0009,0.22,0.26,-0.00,0.010,-0.055,-0.197,0.197
11,0.0017,0.0097,-0.0008,0.24,0.06,-0.00,0.013,-0.078,0.066,0.293
11,0.0055,0.0094,-0.0009,0.26,-0.03,-0.01,0.013,-0.230,-0.122,0.242
11,-0.0029,0.0050,0.0066,0.37,0.17,-0.01,0.013,0.033,-0.081,0.072
11,-0.0047,0.0048,0.0067,0.38,0.20,-0.00,0.013,-0.215,0.318,0.247
11,-0.0003,0.0066,0.0069,0.34,0.11,-0.00,0.012,0.125,0.009,-0.028
11,-0.0004,0.0070,0.0070,0.34,0.11,-0.00,0.012,0.226,0.172,0.069
12,0.0015,0.0067,0.0081,0.35,0.06,-0.00,0.012,-0.002,-0.007,0.099
12,0.0014,0.0070,0.0080,0.36,0.06,-0.00,0.012,0.043,-0.010,0.111
12,-0.0101,0.0044,0.0079,0.42,0.28,-0.00,0.012,-0.187,-0.082,0.055
12,0.0058,0.0088,0.0080,0.34,-0.03,-0.00,0.012,-0.208,-0.090,0.018
12,-0.0034,0.0084,0.0082,0.36,0.14,-0.01,0.012,-0.016,0.080,-0.024
12,-0.0033,-0.0004,0.0082,0.52,0.14,-0.01,0.012,-0.175,-0.265,-0.111
12,-0.0030,0.0060,0.0074,0.41,0.13,-0.00,0.012,-0.155,-0.064,-0.027
12,0.0012,0.0057,0.0072,0.42,0.06,-0.01,0.012,0.101,-0.015,-0.111
12,-0.0031,0.0073,0.0071,0.39,0.13,-0.01,0.011,-0.203,-0.009,0.215
12,-0.0032,0.0075,0.0073,0.39,0.13,-0.01,0.011,0.032,0.156,-0.039
12,-0.0032,0.0078,0.0036,0.39,0.13,-0.01,0.011,0.098,-0.006,-0.006
12,0.0104,-0.0148,0.0033,0.75,-0.09,-0.01,0.011,-0.091,-0.028,0.046
12,0.0096,0.0058,0.0036,0.43,-0.07,-0.01,0.011,-0.212,0.214,0.376
12,-0.0057,0.0056,0.0037,0.44,0.16,-0.01,0.011,-0.027,-0.230,0.130
12,-0.0013,0.0075,0.0036,0.42,0.09,-0.01,0.012,-0.131,-0.077,-0.085
12,0.0007,0.0071,0.0034,0.43,0.06,-0.01,0.012,0.184,0.262,0.042
12,0.0044,-0.0026,0.0035,0.57,0.01,-0.01,0.012,-0.234,-0.122,0.224
12,0.0006,-0.0077,0.0033,0.65,0.07,-0.01,0.012,-0.130,-0.035,0.101
12,0.0009,0.0071,0.0033,0.44,0.07,-0.01,0.012,-0.084,-0.462,-0.111
12,-0.0026,0.0067,0.0032,0.44,0.12,-0.01,0.012,-0.164,0.090,0.426
12,-0.0025,0.0030,0.0027,0.49,0.12,-0.00,0.012,-0.157,-0.131,0.039
12,0.0042,-0.0005,0.0028,0.54,0.03,-0.00,0.012,-0.220,0.032,0.098
12,0.0021,0.0045,0.0028,0.47,0.05,-0.00,0.012,-0.194,-0.274,-0.028
21,0.0003,0.0042,0.0030,0.47,0.08,-0.00,0.012,-0.105,0.294,-0.086
31,-0.0029,0.0056,0.0030,0.46,0.12,-0.00,0.014,-0.004,-0.131,-0.150
41,0.0019,0.0054,0.0030,0.46,0.06,-0.00,0.014,-0.274,-0.012,-0.092
51,-0.0013,-0.0088,0.0066,0.64,0.10,-0.00,0.014,-0.136,0.047,0.110
62,-0.0014,0.0042,0.0067,0.48,0.10,-0.00,0.014,-0.119,-0.061,-0.029
72,-0.0029,0.0042,0.0068,0.48,0.11,-0.00,0.013,0.124,0.295,-0.099
82,-0.0072,0.0012,0.0069,0.52,0.17,0.00,0.013,-0.083,-0.175,-0.119
91,-0.0083,0.0043,0.0063,0.48,0.18,0.00,0.013,-0.216,-0.046,-0.015
101,-0.0020,0.0041,0.0064,0.48,0.10,0.00,0.013,0.001,-0.052,0.090
112,-0.0035,0.0056,0.0065,0.47,0.12,0.00,0.013,0.160,0.086,-0.306
121,-0.0038,0.0058,0.0066,0.46,0.12,-0.00,0.013,-0.448,0.078,0.172
131,-0.0006,0.0055,0.0067,0.47,0.08,-0.00,0.009,0.098,0.262,0.024
141,-0.0006,0.0058,0.0066,0.47,0.08,-0.00,0.009,-0.066,0.110,0.090
151,-0.0005,0.0011,-0.0040,0.52,0.08,-0.00,0.009,-0.153,0.169,0.125
161,-0.0003,0.0044,-0.0042,0.49,0.08,-0.00,0.009,-0.266,-0.218,0.351
171,-0.0017,0.0044,-0.0043,0.49,0.09,0.00,0.012,-0.289,0.030,0.271
181,0.0016,0.0044,-0.0043,0.49,0.06,0.00,0.012,-0.221,-0.281,0.205
191,-0.0029,0.0044,-0.0031,0.49,0.11,0.00,0.012,-0.113,-0.137,0.168
201,0.0000,-0.0002,-0.0030,0.54,0.07,0.00,0.012,0.056,-0.091,-0.136
211,-0.0000,0.0042,-0.0029,0.49,0.08,0.00,0.012,-0.163,0.106,0.051
222,0.0011,0.0041,-0.0027,0.49,0.06,0.01,0.012,-0.168,-0.038,0.201
232,-0.0033,0.0054,-0.0027,0.48,0.11,0.01,0.014,-0.090,-0.212,-0.372
241,-0.0003,0.0054,-0.0027,0.48,0.08,0.00,0.014,-0.326,-0.004,0.500
251,-0.0059,-0.0029,0.0028,0.57,0.13,0.01,0.014,-0.205,-0.041,-0.027
261,-0.0001,0.0045,0.0029,0.49,0.07,0.00,0.014,-0.166,-0.260,0.016
272,0.0040,0.0019,0.0028,0.52,0.03,0.01,0.011,-0.004,0.015,-0.082
281,0.0037,0.0035,0.0027,0.50,0.04,0.01,0.011,-0.124,-0.081,0.111
291,-0.0048,0.0064,-0.0010,0.48,0.12,0.01,0.011,-0.105,-0.095,0.128
301,-0.0072,0.0034,-0.0008,0.51,0.14,0.01,0.011,-0.205,0.010,0.248
311,-0.0027,0.0048,-0.0007,0.50,0.10,0.01,0.011,-0.041,-0.111,-0.078
321,0.0042,0.0048,-0.0007,0.50,0.04,0.01,0.011,0.038,-0.151,0.087
331,-0.0053,0.0008,-0.0006,0.54,0.13,0.01,0.011,-0.129,-0.116,0.006
342,0.0043,0.0036,-0.0004,0.51,0.04,0.01,0.011,0.078,-0.117,-0.318
351,0.0043,0.0038,-0.0028,0.51,0.04,0.01,0.011,-0.104,-0.097,-0.204
361,0.0001,0.0009,-0.0028,0.54,0.08,0.01,0.011,-0.045,-0.079,-0.141
372,0.0014,0.0049,-0.0028,0.50,0.07,0.00,0.012,-0.083,-0.035,0.132
381,-0.0066,0.0032,-0.0027,0.51,0.14,0.01,0.012,-0.260,-0.108,0.060
391,0.0006,0.0044,-0.0015,0.50,0.08,0.00,0.012,-0.176,-0.002,0.152
401,0.0006,0.0046,-0.0013,0.50,0.08,0.00,0.012,0.129,0.140,-0.127
411,0.0006,0.0049,-0.0013,0.50,0.08,0.00,0.012,-0.028,0.070,0.071
421,0.0048,0.0048,-0.0014,0.50,0.04,0.00,0.012,-0.152,-0.247,-0.137
431,-0.0054,0.0076,-0.0012,0.48,0.13,0.00,0.009,-0.066,0.356,-0.309
441,-0.0065,-0.0037,-0.0009,0.58,0.14,0.00,0.009,-0.142,0.036,-0.261
451,0.0047,0.0024,-0.0069,0.53,0.04,0.00,0.009,0.089,0.129,-0.208
461,0.0031,0.0064,-0.0068,0.49,0.05,-0.00,0.009,0.034,-0.111,-0.180
471,0.0042,0.0034,-0.0069,0.52,0.04,-0.00,0.013,-0.062,-0.075,0.327
481,-0.0026,0.0045,-0.0069,0.51,0.11,-0.00,0.013,-0.081,-0.035,0.176
492,-0.0011,0.0039,-0.0010,0.51,0.09,-0.00,0.013,0.113,0.065,-0.062
501,-0.0011,0.0040,-0.0011,0.51,0.10,-0.00,0.013,-0.090,0.082,-0.100
511,-0.0013,0.0042,-0.0013,0.51,0.10,-0.00,0.013,-0.219,-0.296,0.151
521,0.0001,-0.0062,-0.0013,0.60,0.08,-0.00,0.013,0.140,0.069,-0.014
531,0.0042,0.0009,-0.0012,0.53,0.05,-0.00,0.014,-0.321,-0.110,0.107
541,-0.0072,-0.0004,-0.0012,0.54,0.15,0.00,0.014,0.129,0.131,-0.008
551,0.0012,0.0039,0.0051,0.51,0.07,0.00,0.014,0.097,0.011,0.095
561,0.0014,0.0042,0.0053,0.50,0.07,0.00,0.014,-0.198,0.031,0.200
571,0.0044,0.0015,0.0055,0.53,0.04,0.00,0.011,-0.093,-0.288,0.335
581,0.0056,0.0058,0.0054,0.49,0.03,0.00,0.011,-0.202,0.178,0.072
591,-0.0030,0.0058,0.0020,0.50,0.11,0.00,0.011,-0.115,0.066,0.195
601,-0.0031,0.0059,0.0018,0.50,0.11,0.00,0.011,0.025,0.078,0.110
611,-0.0002,0.0059,0.0018,0.50,0.08,0.00,0.011,-0.041,0.063,0.211
620,-0.0004,0.0016,0.0017,0.53,0.08,0.00,0.011,-0.222,-0.120,0.413
631,0.0009,0.0046,0.0015,0.51,0.07,0.00,0.012,-0.092,-0.035,-0.072
641,-0.0019,-0.0049,0.0016,0.59,0.10,0.01,0.012,-0.129,-0.246,0.151
651,0.0035,-0.0018,0.0011,0.56,0.05,0.01,0.012,-0.065,0.246,0.163
661,0.0019,0.0049,0.0011,0.51,0.06,0.01,0.012,-0.119,-0.038,0.145
671,-0.0021,0.0046,0.0012,0.51,0.10,0.01,0.013,-0.065,0.148,0.208
681,-0.0021,0.0047,0.0011,0.51,0.09,0.01,0.013,-0.020,0.067,0.058
691,-0.0047,0.0046,0.0028,0.51,0.11,0.01,0.013,-0.058,0.039,0.180
701,-0.0018,0.0048,0.0029,0.51,0.09,0.01,0.013,-0.114,-0.070,0.144
711,-0.0017,0.0050,0.0031,0.50,0.09,0.01,0.013,-0.206,0.122,0.057
721,0.0012,0.0048,0.0032,0.51,0.07,0.02,0.013,0.112,-0.044,-0.115
731,0.0012,0.0047,0.0033,0.50,0.07,0.02,0.012,-0.258,-0.114,-0.124
741,0.0010,0.0047,0.0018,0.50,0.07,0.02,0.012,-0.134,0.001,0.217
751,0.0007,-0.0063,0.0019,0.59,0.07,0.02,0.012,0.258,-0.050,-0.457
761,-0.0069,0.0045,0.0021,0.50,0.13,0.02,0.012,0.015,-0.234,0.322
771,-0.0092,-0.0028,0.0021,0.56,0.15,0.02,0.009,0.012,-0.319,-0.194
781,0.0012,0.0046,0.0022,0.50,0.06,0.01,0.009,-0.094,-0.125,-0.268
791,-0.0099,0.0059,-0.0057,0.49,0.15,0.01,0.009,-0.244,-0.015,0.076
801,-0.0040,-0.0054,-0.0057,0.58,0.10,0.01,0.009,0.032,0.165,-0.082
811,-0.0053,-0.0050,-0.0059,0.58,0.11,0.01,0.009,-0.155,0.213,0.265
821,-0.0063,0.0044,-0.0060,0.50,0.12,0.01,0.009,0.090,0.109,-0.178
831,-0.0023,0.0055,-0.0061,0.49,0.09,0.01,0.010,-0.524,0.050,0.312
841,0.0029,0.0016,-0.0061,0.53,0.04,0.01,0.010,-0.284,-0.124,0.102
851,-0.0023,-0.0047,-0.0083,0.58,0.08,0.01,0.010,-0.172,-0.045,0.148
861,0.0005,0.0043,-0.0083,0.50,0.06,0.01,0.010,0.038,-0.275,0.004
870,-0.0008,0.0044,-0.0082,0.50,0.07,0.02,0.010,0.071,-0.077,-0.144
881,-0.0080,0.0043,-0.0082,0.50,0.13,0.02,0.010,-0.043,-0.345,-0.347
891,-0.0077,-0.0019,-0.0087,0.55,0.13,0.02,0.010,0.276,0.063,0.118
901,-0.0014,-0.0040,-0.0089,0.57,0.07,0.02,0.010,-0.134,-0.006,0.048
911,-0.0014,0.0001,-0.0090,0.54,0.08,0.02,0.010,-0.118,0.174,0.070
921,-0.0001,0.0050,-0.0089,0.50,0.07,0.02,0.010,-0.325,-0.379,-0.249
930,-0.0075,0.0120,-0.0090,0.44,0.12,0.02,0.011,-0.159,-0.107,0.201
940,-0.0025,0.0056,-0.0089,0.49,0.08,0.02,0.011,-0.135,-0.046,0.399
951,-0.0023,0.0019,-0.0057,0.52,0.08,0.02,0.011,-0.125,-0.018,0.217
961,-0.0058,0.0020,-0.0057,0.52,0.11,0.02,0.011,-0.320,-0.176,0.136
971,0.0025,0.0034,-0.0056,0.51,0.04,0.02,0.008,0.033,0.333,0.326
981,0.0023,0.0045,-0.0056,0.50,0.04,0.02,0.008,-0.103,-0.193,0.358
990,0.0023,0.0047,-0.0097,0.50,0.04,0.02,0.008,0.011,0.052,-0.047
1001,0.0021,0.0034,-0.0097,0.51,0.05,0.02,0.008,-0.217,-0.276,0.031
1011,-0.0043,0.0046,-0.0098,0.50,0.09,0.02,0.008,-0.043,-0.087,0.044
1021,-0.0028,0.0046,-0.0098,0.50,0.08,0.02,0.008,-0.397,-0.086,0.140
1032,-0.0038,0.0046,-0.0096,0.50,0.09,0.02,0.009,0.019,-0.164,-0.040
1041,0.0024,-0.0017,-0.0093,0.55,0.04,0.02,0.009,-0.126,-0.163,0.088
1050,0.0024,-0.0004,-0.0084,0.54,0.04,0.02,0.009,-0.147,0.110,0.213
1060,-0.0002,0.0058,-0.0085,0.49,0.07,0.02,0.009,-0.128,-0.029,-0.094
1071,-0.0002,0.0059,-0.0085,0.49,0.06,0.02,0.010,-0.022,-0.020,-0.244
1081,-0.0077,0.0046,-0.0085,0.50,0.13,0.02,0.010,-0.005,0.151,0.002
1090,-0.0037,0.0059,-0.0053,0.49,0.09,0.02,0.010,0.139,-0.472,-0.237
1101,-0.0074,-0.0002,-0.0053,0.54,0.12,0.02,0.010,0.111,0.007,-0.422
1111,-0.0070,0.0012,-0.0052,0.53,0.12,0.02,0.010,0.074,-0.204,-0.113
1121,-0.0030,0.0050,-0.0052,0.50,0.09,0.02,0.010,-0.048,0.061,-0.042
1130,-0.0029,0.0053,-0.0053,0.50,0.09,0.02,0.013,-0.057,-0.126,-0.166
1140,-0.0017,0.0054,-0.0051,0.50,0.08,0.02,0.013,-0.339,0.147,0.122
1151,-0.0070,-0.0011,0.0047,0.56,0.12,0.02,0.013,-0.133,0.019,0.157
1161,-0.0041,0.0056,0.0048,0.50,0.10,0.02,0.013,0.039,-0.015,-0.238
1172,-0.0001,0.0044,0.0049,0.51,0.06,0.02,0.014,0.194,0.027,-0.202
1181,-0.0026,0.0056,0.0049,0.50,0.08,0.02,0.014,-0.337,-0.049,0.265
1190,0.0025,0.0055,0.0118,0.51,0.04,0.02,0.014,-0.225,-0.009,0.230
1201,0.0013,0.0030,0.0118,0.53,0.05,0.02,0.014,-0.087,-0.066,-0.036
1211,0.0000,0.0054,0.0117,0.51,0.06,0.02,0.014,0.034,0.201,-0.185
1220,-0.0050,0.0017,0.0118,0.54,0.10,0.02,0.014,-0.044,-0.030,0.255
1230,0.0013,0.0065,0.0120,0.50,0.05,0.02,0.011,-0.387,0.006,0.004
1241,-0.0058,0.0016,0.0122,0.54,0.11,0.02,0.011,-0.024,-0.102,-0.164
1250,0.0064,0.0052,0.0079,0.51,0.01,0.02,0.011,0.015,0.217,0.040
1260,0.0002,0.0054,0.0076,0.51,0.06,0.02,0.011,-0.195,0.017,0.455
1271,0.0013,0.0054,0.0075,0.51,0.05,0.02,0.011,0.315,0.002,-0.118
1280,-0.0023,0.0053,0.0074,0.51,0.08,0.02,0.011,-0.088,0.261,0.267
1291,-0.0024,0.0062,0.0041,0.50,0.08,0.02,0.011,-0.267,-0.155,0.126
1300,-0.0024,0.0064,0.0040,0.50,0.08,0.02,0.011,0.061,-0.014,-0.333
1310,-0.0022,-0.0035,0.0041,0.58,0.08,0.02,0.011,-0.325,0.230,0.120
1321,-0.0009,0.0026,0.0043,0.53,0.07,0.02,0.011,0.169,0.207,0.217
1330,0.0038,0.0024,0.0042,0.53,0.03,0.02,0.008,-0.091,-0.321,0.105
1340,-0.0023,-0.0037,0.0044,0.57,0.08,0.02,0.008,-0.299,0.223,-0.176
1351,0.0001,0.0046,-0.0050,0.50,0.06,0.02,0.008,-0.024,0.278,0.340
1361,-0.0010,0.0044,-0.0052,0.50,0.07,0.02,0.008,-0.191,0.042,-0.043
1370,-0.0009,0.0045,-0.0052,0.50,0.06,0.03,0.012,-0.186,0.163,-0.072
1380,-0.0021,0.0043,-0.0052,0.50,0.07,0.03,0.012,-0.118,0.060,-0.102
1390,-0.0020,0.0030,-0.0012,0.51,0.07,0.03,0.012,0.022,0.198,0.185
1400,0.0007,-0.0055,-0.0012,0.58,0.05,0.03,0.012,0.022,0.106,0.061
1410,0.0007,0.0057,-0.0012,0.49,0.05,0.03,0.012,-0.050,-0.111,-0.214
1420,0.0019,0.0055,-0.0012,0.49,0.04,0.03,0.012,-0.108,-0.110,-0.388
1431,0.0042,0.0053,-0.0013,0.49,0.02,0.03,0.010,0.042,0.212,-0.063
1440,0.0041,-0.0033,-0.0013,0.56,0.03,0.03,0.010,-0.035,-0.505,-0.087
1450,0.0028,-0.0054,-0.0033,0.57,0.04,0.03,0.010,0.016,-0.233,-0.090
1460,0.0015,0.0044,-0.0033,0.49,0.05,0.03,0.010,0.034,0.002,0.049
1471,-0.0022,0.0044,-0.0033,0.49,0.08,0.03,0.014,0.030,-0.120,-0.033
1480,-0.0023,0.0046,-0.0033,0.49,0.08,0.03,0.014,0.013,0.096,-0.076
0,0.0039,0.0033,0.0044,0.50,0.03,0.02,0.014,0.052,0.113,-0.389
9,0.0041,0.0036,0.0045,0.50,0.03,0.03,0.014,0.376,0.035,0.244
19,0.0001,0.0048,0.0045,0.49,0.06,0.02,0.014,0.053,0.050,-0.016
29,0.0039,0.0034,0.0046,0.50,0.03,0.02,0.014,-1.593,-0.038,-0.152
39,0.0040,0.0037,0.0049,0.51,0.03,0.02,0.011,-0.394,-0.013,-1.070
49,-0.0006,0.0012,0.0057,0.52,0.06,0.03,0.011,-1.421,-0.567,-0.636
59,-0.0059,-0.0023,0.0029,0.53,0.10,0.03,0.011,-2.661,-0.346,-0.445
69,0.0046,0.0035,0.0036,0.46,0.01,0.03,0.011,-1.603,0.291,-0.640
79,0.0041,0.0016,0.0048,0.44,0.03,0.03,0.014,-2.547,1.316,-1.288
89,0.0038,0.0024,0.0033,0.40,0.03,0.03,0.014,-4.936,-4.432,-2.569
99,-0.0016,0.0029,0.0082,0.38,0.06,0.03,0.014,-0.925,1.578,-5.864
109,-0.0004,-0.0052,0.0102,0.40,0.07,0.01,0.014,0.720,-1.001,-10.477
118,0.0018,-0.0051,0.0100,0.36,0.07,-0.03,0.014,-3.092,-1.687,-14.885
129,-0.0033,-0.0091,0.0084,0.39,0.10,-0.11,0.014,4.204,-3.772,-10.648
139,0.0078,-0.0238,0.0069,0.48,0.02,-0.24,0.013,-6.097,-7.624,-13.898
149,-0.0026,-0.0282,0.0070,0.52,0.12,-0.37,0.013,-5.223,-4.863,-18.423
158,0.0005,-0.0408,0.0081,0.59,0.14,-0.48,0.013,-6.396,-13.284,-14.834
169,-0.0006,-0.0449,0.0102,0.56,0.21,-0.65,0.013,-10.424,-14.908,-10.097
179,0.0065,-0.0617,0.0109,0.63,0.24,-0.83,0.012,-18.426,-17.848,-12.499
188,-0.0021,-0.0667,0.0158,0.57,0.46,-0.94,0.012,-41.375,-26.482,-9.896
198,-0.0104,-0.0837,0.0207,0.56,0.66,-1.06,0.012,-55.767,-28.659,-11.035
209,-0.0088,-0.0948,0.0300,0.33,0.86,-1.17,0.012,-71.189,-34.248,-11.712
219,-0.0124,-0.1213,0.0402,0.04,1.15,-1.28,0.012,-67.887,-32.568,-12.884
228,-0.0175,-0.1267,0.0565,-0.56,1.49,-1.39,0.012,-70.906,-28.716,-10.452
238,-0.0227,-0.1470,0.0704,-1.08,1.85,-1.52,0.011,-69.562,-29.977,-6.914
249,-0.0415,-0.1485,0.0864,-1.75,2.27,-1.62,0.011,-56.942,-36.722,-8.398
258,-0.0371,-0.1649,0.0986,-2.29,2.49,-1.70,0.011,-42.443,-44.546,-7.088
268,-0.0378,-0.1582,0.1179,-2.94,2.79,-1.76,0.011,-40.773,-47.145,-4.291
278,-0.0432,-0.1515,0.1348,-3.43,3.20,-1.82,0.000,-39.554,-39.370,-2.044
289,-0.0534,-0.1370,0.1522,-3.90,3.71,-1.84,0.000,-36.873,-23.266,-1.154
299,-0.0490,-0.1231,0.1364,-4.33,4.05,-1.83,0.000,-33.797,-3.258,-1.127
309,-0.0648,-0.1003,0.1528,-4.80,4.43,-1.80,0.000,-18.577,9.901,-0.298
318,-0.0933,-0.0944,0.1656,-5.13,4.71,-1.83,0.000,-10.437,30.473,1.291
329,-0.0935,-0.0841,0.1838,-5.40,4.60,-1.83,0.000,2.717,45.589,-0.506
339,-0.0838,-0.0726,0.2038,-5.53,4.24,-1.82,0.005,15.059,60.090,0.536
348,-0.0536,-0.0910,0.2095,-5.39,3.99,-1.80,0.005,15.125,74.475,0.169
359,-0.0617,-0.0458,0.2041,-5.50,3.03,-1.84,0.005,15.936,76.918,0.070
369,-0.0757,-0.0128,0.2166,-5.50,2.42,-1.87,0.005,15.617,76.826,0.722
378,-0.0568,0.0070,0.2314,-5.42,1.48,-1.87,0.027,13.526,67.440,0.924
388,-0.0372,0.0433,0.2427,-5.47,0.55,-1.84,0.027,10.159,57.103,2.409
399,-0.0704,0.0745,0.2613,-5.46,0.09,-1.95,0.027,11.831,41.266,3.710
410,-0.0699,0.0892,0.2735,-5.37,-0.59,-1.99,0.027,16.859,29.833,5.244
419,-0.0879,0.1019,0.2710,-5.46,-0.45,-2.03,0.027,22.958,12.744,7.176
428,-0.0836,0.1233,0.2907,-5.22,-1.28,-2.02,0.027,37.127,-2.178,7.430
438,-0.0834,0.1105,0.2938,-5.12,-1.28,-2.04,0.043,47.451,-10.247,10.050
449,-0.1009,0.1524,0.3021,-4.78,-1.34,-1.98,0.043,59.636,-17.460,10.351
459,-0.1055,0.1632,0.3067,-4.86,-1.30,-1.99,0.043,64.421,-18.449,10.265
469,-0.0999,0.1817,0.3192,-3.89,-1.10,-1.77,0.043,65.183,-16.383,10.962
479,-0.0999,0.1845,0.3185,-3.91,-1.10,-1.77,0.072,67.665,-12.044,10.950
488,-0.0968,0.2083,0.3288,-2.72,-0.75,-1.54,0.072,65.650,-3.328,11.635
498,-0.0981,0.2144,0.3688,-2.74,-0.75,-1.53,0.072,66.628,6.008,11.742
509,-0.0969,0.2285,0.3729,-2.06,-0.60,-1.40,0.072,63.992,13.926,12.397
519,-0.0962,0.2224,0.3793,-1.32,-0.54,-1.29,0.072,60.335,21.427,14.129
528,-0.0886,0.2199,0.3842,-0.61,-0.62,-1.15,0.072,64.068,26.619,13.500
538,-0.0878,0.2142,0.3874,0.08,-0.73,-1.03,0.093,63.083,30.985,13.668
548,-0.0878,0.2267,0.4143,0.62,-0.90,-0.89,0.093,60.474,32.397,13.335
559,-0.0802,0.2177,0.4160,1.30,-1.19,-0.74,0.093,59.063,31.316,11.950
569,-0.0769,0.2140,0.4158,1.95,-1.50,-0.59,0.093,58.098,29.140,11.130
579,-0.0674,0.2034,0.4168,2.62,-1.87,-0.43,0.121,55.836,26.957,9.414
589,-0.0638,0.1976,0.4159,3.24,-2.19,-0.28,0.121,51.054,23.403,9.268
598,-0.0588,0.1940,0.4463,3.84,-2.50,-0.15,0.121,48.263,18.399,8.523
608,-0.0533,0.1910,0.4434,4.37,-2.77,-0.03,0.121,43.349,16.301,7.631
618,-0.0460,0.1788,0.4404,4.94,-3.03,0.09,0.121,36.342,8.383,6.821
628,-0.0372,0.1648,0.4366,5.48,-3.26,0.21,0.121,28.722,3.967,6.229
638,-0.0287,0.1610,0.4315,5.89,-3.43,0.30,0.139,22.175,-1.642,4.852
648,-0.0220,0.1478,0.4260,6.31,-3.54,0.39,0.139,15.541,-5.994,4.626
659,-0.0170,0.1393,0.4297,6.62,-3.58,0.45,0.139,11.444,-9.750,4.381
668,-0.0084,0.1254,0.4231,6.89,-3.59,0.51,0.139,6.567,-13.214,4.219
678,-0.0024,0.1178,0.4162,7.04,-3.54,0.54,0.165,1.202,-16.551,3.278
688,0.0023,0.1033,0.4088,7.18,-3.43,0.58,0.165,-1.731,-19.727,2.728
698,0.0068,0.0972,0.4181,7.23,-3.30,0.60,0.165,-3.010,-20.579,1.949
708,0.0122,0.0858,0.4103,7.25,-3.13,0.61,0.165,-4.286,-22.212,0.857
719,0.0204,0.0721,0.4022,7.26,-2.96,0.62,0.165,-4.894,-23.668,0.961
728,0.0252,0.0607,0.3942,7.23,-2.76,0.61,0.165,-7.082,-22.816,-0.189
738,0.0295,0.0510,0.3862,7.18,-2.54,0.59,0.173,-7.527,-23.444,-0.996
748,0.0336,0.0397,0.3780,7.13,-2.31,0.58,0.173,-6.946,-22.587,-1.468
758,0.0415,0.0269,0.3533,7.07,-2.12,0.54,0.173,-10.974,-21.446,-1.925
768,0.0383,0.0149,0.3451,7.00,-1.84,0.52,0.173,-11.669,-18.672,-1.821
779,0.0413,0.0039,0.3362,6.93,-1.62,0.48,0.187,-16.546,-17.784,-2.124
788,0.0483,-0.0097,0.3266,6.85,-1.45,0.44,0.187,-19.621,-17.719,-2.286
798,0.0506,-0.0213,0.3009,6.75,-1.26,0.39,0.187,-24.778,-15.656,-2.754
808,0.0527,-0.0318,0.2914,6.60,-1.08,0.35,0.187,-30.633,-17.006,-3.458
818,0.0494,-0.0399,0.2823,6.39,-0.87,0.32,0.187,-33.338,-18.154,-4.667
828,0.0411,-0.0596,0.2731,6.23,-0.63,0.34,0.187,-39.715,-16.461,-4.340
838,0.0354,-0.0666,0.2643,5.91,-0.42,0.31,0.198,-40.784,-19.783,-4.869
848,0.0432,-0.0789,0.2556,5.61,-0.30,0.22,0.198,-43.387,-19.000,-5.290
858,0.0415,-0.0854,0.2252,5.22,-0.11,0.17,0.198,-45.602,-18.382,-5.312
868,0.0433,-0.0966,0.2168,4.84,0.05,0.10,0.198,-47.273,-17.891,-5.556
878,0.0425,-0.1034,0.2087,4.40,0.24,0.04,0.205,-48.657,-15.900,-5.517
888,0.0416,-0.1147,0.2006,3.98,0.42,-0.02,0.205,-49.312,-13.510,-5.278
898,0.0412,-0.1183,0.1789,3.50,0.60,-0.09,0.205,-48.583,-12.614,-4.821
908,0.0377,-0.1253,0.1710,3.03,0.78,-0.14,0.205,-49.646,-11.376,-4.554
918,0.0421,-0.1315,0.1635,2.55,0.88,-0.22,0.205,-47.636,-10.924,-4.493
928,0.0395,-0.1401,0.1562,2.09,1.01,-0.26,0.205,-45.783,-7.431,-4.352
938,0.0346,-0.1397,0.1496,1.57,1.16,-0.31,0.209,-44.031,-6.825,-3.723
948,0.0308,-0.1469,0.1434,1.12,1.28,-0.34,0.209,-42.029,-6.277,-3.873
958,0.0314,-0.1460,0.1203,0.65,1.34,-0.40,0.209,-41.664,-5.471,-3.186
969,0.0277,-0.1435,0.1146,0.18,1.43,-0.44,0.209,-39.960,-5.468,-2.720
979,0.0300,-0.1502,0.1093,-0.20,1.46,-0.48,0.230,-39.882,-3.998,-2.138
988,0.0298,-0.1453,0.1043,-0.65,1.50,-0.53,0.230,-36.257,-2.742,-2.198
998,0.0252,-0.1515,0.1234,-1.01,1.57,-0.54,0.230,-35.404,-1.531,-2.035
1008,0.0214,-0.1480,0.1185,-1.42,1.62,-0.56,0.230,-32.953,0.695,-1.796
1018,0.0227,-0.1514,0.1140,-1.75,1.63,-0.59,0.230,-32.497,-0.625,-1.827
1028,0.0194,-0.1446,0.1098,-2.14,1.65,-0.61,0.230,-33.219,3.064,-0.591
1038,0.0185,-0.1462,0.1059,-2.45,1.64,-0.64,0.224,-31.410,2.362,-0.607
1048,0.0166,-0.1401,0.1022,-2.79,1.64,-0.66,0.224,-31.156,1.524,-1.055
1058,0.0174,-0.1376,0.0863,-3.09,1.60,-0.68,0.224,-30.328,-1.158,-0.529
1068,0.0146,-0.1306,0.0827,-3.43,1.57,-0.69,0.224,-27.068,0.850,0.863
1078,0.0129,-0.1271,0.0790,-3.73,1.55,-0.70,0.239,-23.896,0.608,0.319
1088,0.0102,-0.1171,0.0752,-4.06,1.56,-0.70,0.239,-21.434,1.265,0.707
1098,0.0088,-0.1113,0.0894,-4.33,1.54,-0.70,0.239,-17.822,0.699,-0.243
1108,0.0061,-0.1040,0.0861,-4.58,1.52,-0.70,0.239,-15.871,1.732,0.760
1118,0.0086,-0.1003,0.0831,-4.77,1.49,-0.70,0.239,-12.079,2.245,0.383
1128,0.0063,-0.0891,0.0806,-4.99,1.47,-0.70,0.239,-8.298,2.941,0.296
1138,0.0054,-0.0807,0.0779,-5.16,1.44,-0.70,0.235,-5.200,3.499,-0.045
1148,0.0033,-0.0714,0.0752,-5.30,1.41,-0.70,0.235,-3.034,4.038,0.026
1158,0.0014,-0.0649,0.0648,-5.38,1.38,-0.69,0.235,-1.371,4.749,1.008
1168,0.0008,-0.0563,0.0623,-5.44,1.34,-0.70,0.235,2.636,5.375,0.788
1178,-0.0010,-0.0494,0.0600,-5.46,1.30,-0.70,0.237,4.703,4.697,0.605
1188,-0.0012,-0.0404,0.0577,-5.47,1.24,-0.70,0.237,8.284,4.991,1.279
1198,-0.0012,-0.0308,0.0489,-5.45,1.18,-0.70,0.237,9.389,4.305,1.712
1208,-0.0031,-0.0216,0.0471,-5.41,1.13,-0.70,0.237,11.372,5.722,1.440
1218,-0.0049,-0.0125,0.0454,-5.33,1.08,-0.69,0.237,13.533,6.639,1.601
1228,-0.0045,-0.0044,0.0438,-5.24,1.02,-0.68,0.237,15.424,6.451,1.695
1238,-0.0061,0.0045,0.0425,-5.13,0.96,-0.67,0.241,18.390,4.042,1.304
1248,-0.0052,0.0139,0.0409,-5.00,0.89,-0.66,0.241,18.529,8.358,1.858
1259,-0.0056,0.0242,0.0393,-4.85,0.82,-0.64,0.241,21.044,3.527,1.466
1268,-0.0061,0.0324,0.0380,-4.68,0.77,-0.63,0.241,20.201,6.596,2.324
1278,-0.0065,0.0389,0.0366,-4.47,0.68,-0.62,0.244,24.633,4.714,2.137
1288,-0.0067,0.0472,0.0351,-4.25,0.64,-0.61,0.244,24.971,5.333,2.409
1298,-0.0067,0.0532,0.0361,-4.05,0.57,-0.59,0.244,25.010,7.635,2.296
1308,-0.0069,0.0614,0.0349,-3.82,0.51,-0.57,0.244,26.683,6.314,2.051
1318,-0.0068,0.0658,0.0338,-3.56,0.45,-0.55,0.244,29.570,4.499,2.071
1327,-0.0065,0.0725,0.0325,-3.32,0.37,-0.53,0.244,32.451,5.124,2.220
1338,-0.0061,0.0755,0.0319,-3.04,0.30,-0.51,0.245,29.671,6.403,1.522
1348,-0.0058,0.0878,0.0310,-2.80,0.25,-0.49,0.245,30.580,6.366,1.766
1358,-0.0053,0.0917,0.0300,-2.47,0.19,-0.47,0.245,31.153,5.276,1.229
1368,-0.0047,0.0956,0.0292,-2.17,0.12,-0.45,0.245,29.454,4.872,0.891
1377,-0.0038,0.0971,0.0289,-1.85,0.05,-0.44,0.245,29.731,3.591,-0.190
1388,-0.0030,0.1009,0.0282,-1.55,-0.01,-0.43,0.245,29.495,1.695,-0.492
1398,-0.0021,0.1023,0.0240,-1.24,-0.06,-0.42,0.245,30.860,0.717,-0.980
1408,-0.0013,0.1034,0.0232,-0.93,-0.11,-0.42,0.245,32.018,-1.041,-1.656
1418,0.0008,0.1085,0.0227,-0.65,-0.15,-0.42,0.245,33.350,-1.356,-1.819
1428,-0.0017,0.1058,0.0226,-0.32,-0.15,-0.44,0.245,33.799,-1.117,-2.347
1438,0.0002,0.1113,0.0223,-0.05,-0.17,-0.45,0.243,31.440,-4.238,-2.744
1448,0.0003,0.1082,0.0127,0.29,-0.16,-0.46,0.243,32.405,-1.676,-2.906
1458,0.0002,0.1093,0.0121,0.60,-0.15,-0.49,0.243,29.640,-3.926,-3.057
1468,-0.0000,0.1071,0.0113,0.94,-0.10,-0.52,0.243,27.363,-3.062,-3.403
1478,-0.0002,0.1089,0.0106,1.24,-0.07,-0.55,0.245,26.553,-0.654,-3.777
1488,0.0023,0.1027,0.0099,1.57,-0.05,-0.58,0.245,26.130,-1.859,-3.268
1498,0.0021,0.1026,0.0074,1.84,-0.02,-0.61,0.245,21.418,-1.420,-3.125
1508,0.0020,0.0976,0.0068,2.12,-0.01,-0.65,0.245,20.918,1.328,-2.992
1518,0.0018,0.0971,0.0065,2.36,0.00,-0.68,0.245,19.611,0.203,-3.161
1528,0.0015,0.0906,0.0065,2.60,0.02,-0.72,0.245,16.963,-2.777,-3.123
1538,0.0016,0.0868,0.0064,2.81,0.01,-0.75,0.244,15.338,1.577,-3.673
1547,0.0014,0.0816,0.0064,3.01,0.01,-0.78,0.244,17.388,-0.648,-3.989
1558,0.0026,0.0768,0.0023,3.18,0.02,-0.81,0.244,11.560,-0.354,-3.327
1567,0.0026,0.0701,0.0023,3.34,0.01,-0.84,0.244,7.155,1.003,-3.253
1578,0.0023,0.0619,0.0024,3.53,0.01,-0.88,0.248,6.550,2.367,-3.242
1587,0.0022,0.0604,0.0028,3.63,0.01,-0.92,0.248,3.311,3.477,-3.381
1598,0.0021,0.0542,0.0095,3.71,-0.00,-0.95,0.248,0.610,4.977,-3.580
1608,0.0007,0.0469,0.0100,3.78,-0.02,-0.98,0.248,0.457,2.613,-2.608
1617,0.0011,0.0401,0.0107,3.83,-0.05,-1.01,0.248,-3.019,0.675,-2.373
1627,0.0011,0.0335,0.0114,3.85,-0.10,-1.04,0.248,-4.683,0.113,-2.141
1638,0.0032,0.0274,0.0121,3.84,-0.15,-1.07,0.248,-5.308,-1.795,-2.147
1647,0.0033,0.0208,0.0124,3.83,-0.16,-1.09,0.248,-8.330,-3.864,-2.183
1657,0.0034,0.0142,0.0152,3.78,-0.17,-1.12,0.248,-6.857,-3.541,-2.285
1667,0.0016,0.0050,0.0158,3.74,-0.14,-1.14,0.248,-9.707,-3.965,-1.927
1678,0.0017,-0.0015,0.0162,3.66,-0.11,-1.16,0.247,-10.063,-7.328,-1.718
1688,0.0029,-0.0098,0.0166,3.60,-0.08,-1.18,0.247,-8.904,-7.548,-0.709
1698,0.0088,-0.0141,0.0146,3.50,-0.08,-1.21,0.247,-14.017,-1.879,-0.649
1708,0.0076,-0.0212,0.0151,3.40,-0.00,-1.23,0.247,-14.733,-4.998,-0.223
1718,0.0079,-0.0272,0.0157,3.29,0.08,-1.25,0.247,-15.279,-2.762,0.192
1729,0.0085,-0.0364,0.0159,3.18,0.10,-1.25,0.247,-15.534,-3.667,0.794
1739,0.0072,-0.0451,0.0162,3.05,0.16,-1.26,0.249,-21.715,-1.312,1.210
1749,0.0062,-0.0546,0.0164,2.93,0.20,-1.26,0.249,-16.463,-1.718,1.255
1758,0.0057,-0.0597,0.0178,2.76,0.23,-1.25,0.249,-21.614,-2.829,1.694
1769,0.0047,-0.0664,0.0180,2.57,0.25,-1.24,0.249,-17.807,-0.963,1.183
1778,0.0024,-0.0658,0.0183,2.37,0.27,-1.23,0.250,-18.693,-2.761,1.381
1788,0.0012,-0.0717,0.0183,2.17,0.30,-1.21,0.250,-22.567,-2.378,2.171
1798,0.0053,-0.0788,0.0214,2.01,0.29,-1.21,0.250,-26.841,-1.853,3.009
1808,0.0044,-0.0803,0.0212,1.80,0.31,-1.20,0.250,-26.848,-0.711,3.622
1817,0.0033,-0.0876,0.0211,1.61,0.33,-1.17,0.250,-29.719,0.158,4.037
1827,0.0006,-0.0870,0.0212,1.33,0.35,-1.14,0.250,-28.560,-1.117,4.595
1837,-0.0002,-0.0959,0.0208,1.10,0.36,-1.11,0.252,-25.155,0.445,5.141
1847,0.0006,-0.0941,0.0245,0.80,0.36,-1.07,0.252,-22.684,-1.221,5.200
1858,-0.0005,-0.1000,0.0241,0.54,0.37,-1.02,0.252,-25.925,-3.170,6.076
1868,-0.0011,-0.1024,0.0241,0.29,0.38,-0.97,0.252,-26.451,-3.944,6.381
1877,-0.0018,-0.0980,0.0238,0.02,0.39,-0.92,0.255,-24.396,-2.630,6.242
1887,0.0002,-0.1011,0.0234,-0.23,0.40,-0.86,0.255,-28.258,-2.715,7.134
1897,-0.0009,-0.1039,0.0274,-0.47,0.44,-0.80,0.255,-27.147,-2.793,7.482
1907,-0.0005,-0.0997,0.0269,-0.75,0.46,-0.74,0.255,-27.487,-2.240,7.733
1917,-0.0015,-0.1032,0.0267,-0.99,0.49,-0.67,0.255,-26.494,-1.748,8.117
1927,-0.0027,-0.1030,0.0264,-1.24,0.51,-0.59,0.255,-25.986,-1.457,8.261
1938,-0.0038,-0.0976,0.0259,-1.53,0.54,-0.51,0.258,-22.699,-0.438,9.220
1947,-0.0065,-0.0966,0.0253,-1.78,0.56,-0.43,0.258,-19.966,-0.656,9.256
1957,-0.0046,-0.1002,0.0310,-1.99,0.56,-0.35,0.258,-19.973,-0.332,9.838
1967,-0.0072,-0.0924,0.0305,-2.25,0.58,-0.25,0.258,-17.846,-0.276,10.438
1977,-0.0083,-0.0910,0.0297,-2.44,0.59,-0.16,0.260,-13.921,0.782,10.507
1987,-0.0077,-0.0881,0.0290,-2.62,0.58,-0.06,0.260,-15.378,-0.630,10.897
1997,-0.0086,-0.0821,0.0330,-2.81,0.58,0.04,0.260,-9.142,0.459,10.753
2007,-0.0093,-0.0791,0.0324,-2.94,0.57,0.14,0.260,-12.248,0.164,10.938
2017,-0.0103,-0.0741,0.0319,-3.09,0.57,0.25,0.260,-8.244,0.902,9.608
2027,-0.0110,-0.0716,0.0312,-3.17,0.56,0.35,0.260,-6.410,2.778,10.498
2037,-0.0115,-0.0656,0.0301,-3.29,0.55,0.46,0.258,-4.753,3.021,10.144
2047,-0.0121,-0.0634,0.0293,-3.36,0.53,0.56,0.258,-2.170,1.474,10.078
2057,-0.0130,-0.0577,0.0231,-3.43,0.50,0.66,0.258,-0.445,3.551,10.929
2067,-0.0129,-0.0544,0.0221,-3.46,0.46,0.76,0.258,-0.816,0.360,9.832
2077,-0.0138,-0.0485,0.0212,-3.49,0.43,0.86,0.262,-4.998,0.704,9.299
2087,-0.0155,-0.0428,0.0203,-3.50,0.38,0.97,0.262,-3.006,3.664,10.448
2097,-0.0157,-0.0369,0.0227,-3.51,0.37,1.07,0.262,-0.892,3.561,10.530
2107,-0.0164,-0.0309,0.0216,-3.55,0.35,1.16,0.262,1.806,1.546,9.472
2117,-0.0194,-0.0236,0.0207,-3.59,0.33,1.26,0.262,7.479,0.770,10.338
2127,-0.0201,-0.0175,0.0200,-3.59,0.28,1.36,0.262,5.718,4.191,10.611
2137,-0.0208,-0.0108,0.0187,-3.57,0.26,1.47,0.261,9.801,2.087,10.243
2147,-0.0214,-0.0048,0.0177,-3.50,0.24,1.57,0.261,9.743,1.869,9.486
2157,-0.0226,0.0004,0.0144,-3.44,0.20,1.68,0.261,10.287,3.047,9.005
2167,-0.0235,0.0065,0.0135,-3.35,0.17,1.78,0.261,11.501,4.681,8.595
2177,-0.0228,0.0139,0.0125,-3.27,0.12,1.87,0.263,14.188,6.015,8.695
2187,-0.0220,0.0189,0.0114,-3.16,0.07,1.97,0.263,15.817,4.830,8.056
2198,-0.0223,0.0243,0.0121,-3.03,0.01,2.05,0.263,15.838,6.932,7.927
2207,-0.0244,0.0301,0.0115,-2.90,-0.04,2.14,0.263,16.998,4.973,7.471
2217,-0.0230,0.0369,0.0106,-2.75,-0.10,2.22,0.263,17.252,7.053,6.457
2227,-0.0231,0.0398,0.0098,-2.58,-0.17,2.29,0.263,18.218,3.761,6.246
2237,-0.0283,0.0401,0.0089,-2.39,-0.20,2.36,0.259,18.491,4.979,5.924
2247,-0.0286,0.0526,0.0081,-2.27,-0.26,2.43,0.259,18.614,3.609,5.288
2257,-0.0269,0.0587,-0.0017,-2.10,-0.31,2.49,0.259,19.359,1.328,5.873
2268,-0.0284,0.0593,-0.0025,-1.90,-0.35,2.54,0.259,20.097,1.533,5.762
2277,-0.0285,0.0648,-0.0033,-1.72,-0.39,2.60,0.256,20.244,1.595,5.099
2287,-0.0271,0.0681,-0.0039,-1.53,-0.41,2.65,0.256,20.609,2.812,4.717
2297,-0.0255,0.0721,-0.0165,-1.34,-0.43,2.71,0.256,20.227,4.780,4.132
2307,-0.0256,0.0743,-0.0173,-1.14,-0.45,2.76,0.256,20.818,3.889,3.694
2317,-0.0240,0.0796,-0.0180,-0.96,-0.48,2.81,0.256,21.172,7.714,3.296
2327,-0.0217,0.0776,-0.0185,-0.73,-0.53,2.85,0.256,22.983,6.915,2.414
2337,-0.0195,0.0835,-0.0188,-0.55,-0.59,2.89,0.257,22.525,7.428,1.714
2347,-0.0186,0.0838,-0.0189,-0.33,-0.67,2.92,0.257,22.211,8.101,1.205
2357,-0.0179,0.0866,-0.0217,-0.11,-0.74,2.94,0.257,21.840,7.179,0.956
2367,-0.0169,0.0825,-0.0218,0.14,-0.81,2.96,0.257,21.631,4.630,0.258
2377,-0.0163,0.0900,-0.0220,0.32,-0.87,2.97,0.254,21.257,2.106,-0.156
2387,-0.0150,0.0836,-0.0221,0.57,-0.94,2.98,0.254,20.747,1.687,-0.510
2397,-0.0126,0.0853,-0.0280,0.77,-0.99,2.99,0.254,18.193,1.174,-0.954
2407,-0.0153,0.0849,-0.0282,0.98,-0.99,2.98,0.254,18.808,-1.775,-1.387
2418,-0.0097,0.0812,-0.0281,1.20,-1.02,2.99,0.254,17.920,-2.236,-1.625
2427,-0.0045,0.0826,-0.0279,1.37,-1.05,2.98,0.254,15.717,-3.861,-2.095
2437,-0.0042,0.0767,-0.0273,1.58,-1.03,2.96,0.256,12.795,-2.889,-1.879
2448,-0.0027,0.0776,-0.0266,1.73,-1.01,2.95,0.256,12.541,-4.856,-2.789
2457,0.0005,0.0735,-0.0221,1.90,-0.98,2.93,0.256,11.843,-5.043,-2.519
2467,0.0018,0.0729,-0.0213,2.01,-0.95,2.90,0.256,9.882,-4.264,-2.916
2477,0.0031,0.0672,-0.0203,2.15,-0.91,2.88,0.252,8.340,-5.818,-3.547
2487,0.0040,0.0665,-0.0193,2.24,-0.86,2.85,0.252,7.008,-6.352,-3.444
2497,0.0056,0.0627,-0.0204,2.34,-0.83,2.82,0.252,5.266,-7.003,-4.116
2507,0.0062,0.0606,-0.0195,2.41,-0.77,2.78,0.252,3.954,-5.597,-4.124
2517,0.0083,0.0554,-0.0186,2.49,-0.72,2.74,0.252,3.321,-4.929,-3.885
2526,0.0132,0.0523,-0.0177,2.53,-0.68,2.70,0.252,2.644,-6.240,-4.957
2537,0.0116,0.0459,-0.0168,2.58,-0.60,2.65,0.255,1.342,-6.670,-4.354
2547,0.0116,0.0430,-0.0159,2.61,-0.54,2.61,0.255,0.749,-4.617,-4.083
2556,0.0116,0.0386,-0.0099,2.62,-0.48,2.56,0.255,-1.245,-7.356,-4.544
2567,0.0129,0.0327,-0.0090,2.65,-0.42,2.51,0.255,-2.310,-7.010,-4.736
2577,0.0145,0.0269,-0.0080,2.65,-0.36,2.47,0.250,-2.699,-4.635,-4.763
2586,0.0153,0.0223,-0.0069,2.64,-0.30,2.41,0.250,-2.169,-7.543,-5.783
2597,0.0175,0.0211,-0.0128,2.59,-0.24,2.36,0.250,-7.235,-6.588,-4.556
2607,0.0184,0.0163,-0.0120,2.57,-0.19,2.31,0.250,-5.567,-5.193,-4.734
2616,0.0176,0.0103,-0.0112,2.54,-0.11,2.25,0.250,-5.980,-6.534,-6.124
2627,0.0180,0.0060,-0.0105,2.48,-0.06,2.20,0.250,-9.024,-7.239,-5.649
2637,0.0182,0.0017,-0.0099,2.43,-0.00,2.15,0.250,-7.096,-4.851,-5.812
2647,0.0188,-0.0051,-0.0092,2.38,0.06,2.09,0.250,-9.214,-7.478,-5.222
2657,0.0170,-0.0095,-0.0090,2.29,0.14,2.03,0.250,-9.898,-5.780,-5.160
2667,0.0169,-0.0134,-0.0082,2.22,0.19,1.97,0.250,-12.175,-5.164,-5.677
2676,0.0188,-0.0206,-0.0078,2.14,0.24,1.92,0.250,-12.487,-5.678,-5.806
2687,0.0185,-0.0220,-0.0072,2.03,0.30,1.86,0.250,-13.217,-5.807,-5.916
2697,0.0148,-0.0284,-0.0060,1.94,0.38,1.81,0.250,-17.808,-5.216,-5.103
2706,0.0148,-0.0328,-0.0054,1.82,0.43,1.75,0.250,-18.156,0.388,-4.392
2717,0.0111,-0.0330,-0.0047,1.68,0.50,1.70,0.250,-14.003,-5.427,-4.197
2727,0.0109,-0.0377,-0.0040,1.52,0.54,1.65,0.250,-18.674,0.192,-4.422
2736,0.0079,-0.0432,-0.0031,1.36,0.56,1.61,0.254,-15.184,-6.311,-3.527
2746,0.0064,-0.0455,0.0059,1.20,0.61,1.57,0.254,-18.517,1.264,-2.760
2757,0.0049,-0.0474,0.0070,1.03,0.62,1.52,0.254,-16.169,-1.341,-4.966
2766,0.0034,-0.0470,0.0076,0.86,0.66,1.48,0.254,-17.714,-2.729,-3.368
2776,0.0022,-0.0510,0.0080,0.69,0.66,1.45,0.254,-17.848,-0.692,-3.675
2787,0.0009,-0.0517,0.0086,0.53,0.67,1.41,0.254,-15.877,0.183,-3.345
2797,-0.0038,-0.0552,0.0125,0.36,0.71,1.37,0.254,-12.423,1.353,-3.697
2806,-0.0049,-0.0566,0.0129,0.18,0.72,1.34,0.254,-14.685,0.218,-3.864
2816,-0.0058,-0.0549,0.0132,0.02,0.71,1.30,0.254,-21.319,4.168,-2.166
2826,-0.0068,-0.0563,0.0134,-0.10,0.71,1.26,0.254,-16.194,4.941,-0.995
2837,-0.0073,-0.0554,0.0136,-0.26,0.69,1.23,0.255,-19.061,6.617,-2.503
2846,-0.0072,-0.0587,0.0138,-0.43,0.63,1.21,0.255,-13.499,3.969,-1.922
2856,-0.0078,-0.0555,0.0168,-0.62,0.58,1.20,0.255,-13.129,6.608,-1.909
2867,-0.0075,-0.0568,0.0170,-0.78,0.51,1.17,0.255,-11.566,4.224,-2.952
2876,-0.0091,-0.0551,0.0171,-0.93,0.46,1.15,0.255,-10.490,6.933,-2.012
2886,-0.0106,-0.0521,0.0172,-1.05,0.41,1.13,0.255,-7.589,2.287,-2.677
2896,-0.0134,-0.0501,0.0168,-1.17,0.37,1.10,0.255,-8.759,1.957,-2.836
2907,-0.0143,-0.0518,0.0168,-1.25,0.31,1.08,0.255,-11.371,2.910,-2.588
2916,-0.0148,-0.0496,0.0167,-1.33,0.29,1.05,0.255,-15.029,6.370,-1.557
2926,-0.0144,-0.0511,0.0164,-1.40,0.26,1.02,0.255,-9.309,6.287,-0.891
2937,-0.0154,-0.0470,0.0162,-1.53,0.22,1.00,0.259,-8.060,4.301,-2.657
2946,-0.0176,-0.0410,0.0162,-1.70,0.16,0.98,0.259,-7.561,5.740,-1.977
2956,-0.0171,-0.0392,0.0230,-1.77,0.10,0.97,0.259,-7.336,2.245,-2.536
2966,-0.0174,-0.0361,0.0229,-1.86,0.06,0.94,0.259,-6.036,2.312,-0.971
2977,-0.0178,-0.0361,0.0227,-1.91,0.02,0.92,0.256,-5.091,3.671,-0.675
2987,-0.0199,-0.0307,0.0224,-1.99,-0.01,0.90,0.256,0.021,3.485,-1.562
2996,-0.0204,-0.0250,0.0178,-2.08,-0.05,0.89,0.256,-1.293,3.904,-0.846
3006,-0.0193,-0.0284,0.0170,-2.08,-0.10,0.87,0.256,0.436,3.901,-0.999
3016,-0.0192,-0.0248,0.0163,-2.10,-0.14,0.86,0.256,1.764,4.774,-1.390
3026,-0.0190,-0.0213,0.0158,-2.11,-0.18,0.85,0.256,2.157,3.966,-0.830
3036,-0.0209,-0.0185,0.0155,-2.11,-0.21,0.84,0.259,2.824,3.190,-0.836
3047,-0.0206,-0.0149,0.0146,-2.10,-0.26,0.83,0.259,5.831,2.328,-1.096
3056,-0.0221,-0.0095,0.0152,-2.08,-0.29,0.82,0.259,4.857,5.421,0.143
3066,-0.0217,-0.0059,0.0146,-2.05,-0.34,0.81,0.259,3.796,6.302,-0.396
3077,-0.0212,-0.0025,0.0140,-2.00,-0.38,0.80,0.258,5.068,2.742,-1.109
3086,-0.0211,0.0019,0.0129,-1.96,-0.42,0.79,0.258,6.363,3.998,-0.222
3096,-0.0189,0.0063,0.0095,-1.92,-0.49,0.79,0.258,4.282,4.549,-1.104
3106,-0.0186,0.0089,0.0087,-1.87,-0.52,0.78,0.258,5.743,1.217,-1.076
3117,-0.0168,0.0142,0.0079,-1.82,-0.56,0.77,0.258,7.183,3.038,-0.288
3126,-0.0180,0.0178,0.0069,-1.77,-0.60,0.76,0.258,6.485,6.666,-0.118
3136,-0.0170,0.0208,0.0063,-1.72,-0.63,0.75,0.259,6.732,2.422,-0.631
3147,-0.0191,0.0237,0.0059,-1.65,-0.63,0.74,0.259,10.528,1.389,-1.148
3156,-0.0167,0.0298,0.0049,-1.59,-0.69,0.74,0.259,12.852,2.261,-0.607
3167,-0.0124,0.0301,0.0043,-1.49,-0.74,0.74,0.259,12.103,2.259,-0.083
3176,-0.0106,0.0373,0.0036,-1.41,-0.77,0.73,0.255,13.555,3.463,-1.026
3187,-0.0087,0.0385,0.0031,-1.29,-0.79,0.72,0.255,13.188,-0.852,-1.186
3196,-0.0072,0.0405,-0.0067,-1.15,-0.80,0.71,0.255,17.909,1.567,-0.389
3206,-0.0052,0.0426,-0.0076,-1.01,-0.83,0.71,0.255,14.392,-0.706,-2.028
3217,-0.0016,0.0445,-0.0084,-0.88,-0.85,0.70,0.255,13.463,2.705,-0.990
3226,-0.0002,0.0473,-0.0090,-0.72,-0.86,0.69,0.255,15.346,1.617,-1.168
3236,0.0013,0.0465,-0.0096,-0.56,-0.86,0.67,0.256,13.627,-2.503,-0.697
3246,-0.0006,0.0527,-0.0102,-0.46,-0.86,0.66,0.256,16.687,-2.564,-0.173
3256,0.0011,0.0531,-0.0130,-0.31,-0.87,0.65,0.256,16.492,-2.667,-0.065
3266,0.0020,0.0565,-0.0132,-0.18,-0.84,0.64,0.256,11.303,-4.591,-0.294
3276,0.0027,0.0543,-0.0134,0.00,-0.80,0.64,0.257,14.387,-3.672,-0.378
3286,0.0040,0.0574,-0.0134,0.13,-0.79,0.64,0.257,15.261,-5.274,-0.121
3296,0.0059,0.0552,-0.0114,0.28,-0.74,0.63,0.257,13.430,-6.401,-0.156
3306,0.0063,0.0561,-0.0116,0.41,-0.68,0.63,0.257,9.666,-3.671,-0.422
3316,0.0084,0.0555,-0.0116,0.54,-0.64,0.63,0.257,10.628,-3.058,0.199
3326,0.0102,0.0544,-0.0112,0.66,-0.59,0.63,0.257,14.476,-4.095,-0.898
3337,0.0103,0.0531,-0.0105,0.78,-0.55,0.62,0.255,11.431,-1.988,-0.319
3346,0.0139,0.0521,-0.0100,0.89,-0.54,0.62,0.255,11.262,-2.593,-0.253
3356,0.0154,0.0506,-0.0117,1.02,-0.50,0.61,0.255,12.985,-4.570,-1.073
3366,0.0169,0.0490,-0.0114,1.13,-0.46,0.60,0.255,11.753,-1.065,-0.863
3376,0.0171,0.0475,-0.0109,1.24,-0.44,0.60,0.252,9.950,-5.561,-0.937
3387,0.0170,0.0458,-0.0105,1.35,-0.41,0.59,0.252,7.977,-4.690,-1.536
3397,0.0186,0.0420,-0.0167,1.47,-0.39,0.57,0.252,8.214,-2.222,-1.718
3406,0.0196,0.0420,-0.0163,1.54,-0.34,0.56,0.252,5.595,-2.755,-0.854
3416,0.0202,0.0394,-0.0160,1.62,-0.29,0.55,0.252,6.367,-4.469,-1.777
3427,0.0246,0.0374,-0.0159,1.71,-0.29,0.53,0.252,3.567,-5.867,-1.351
3436,0.0257,0.0340,-0.0153,1.77,-0.26,0.51,0.247,2.041,-6.134,-1.495
3446,0.0246,0.0307,-0.0147,1.83,-0.20,0.50,0.247,3.420,-6.473,-2.616
3457,0.0249,0.0263,-0.0273,1.86,-0.14,0.48,0.247,1.693,-6.842,-1.957
3466,0.0233,0.0252,-0.0268,1.88,-0.06,0.46,0.247,3.476,-7.166,-2.520
3476,0.0218,0.0189,-0.0263,1.93,0.01,0.43,0.252,-0.303,-8.521,-2.957
3486,0.0236,0.0165,-0.0257,1.94,0.06,0.41,0.252,-4.771,-8.171,-1.428
3496,0.0315,0.0122,-0.0195,1.98,0.09,0.38,0.252,-5.185,-8.653,-2.074
3507,0.0314,0.0088,-0.0189,1.97,0.18,0.35,0.252,-7.170,-8.209,-2.162
3516,0.0323,0.0058,-0.0181,1.91,0.25,0.34,0.252,-8.585,-7.831,-2.112
3527,0.0327,0.0031,-0.0171,1.86,0.34,0.31,0.252,-7.527,-7.324,-2.548
3536,0.0317,0.0007,-0.0163,1.80,0.42,0.29,0.254,-3.176,-9.025,-3.720
3546,0.0306,-0.0049,-0.0046,1.74,0.50,0.27,0.254,-7.097,-5.333,-3.986
3556,0.0312,-0.0084,-0.0038,1.67,0.56,0.23,0.254,-5.708,-4.605,-2.966
3567,0.0281,-0.0121,-0.0032,1.64,0.65,0.20,0.254,-10.690,-6.172,-3.920
3576,0.0236,-0.0154,-0.0026,1.58,0.73,0.16,0.250,-8.100,-7.568,-3.285
3586,0.0223,-0.0182,-0.0020,1.51,0.78,0.12,0.250,-7.979,-5.655,-4.339
3596,0.0227,-0.0256,-0.0016,1.44,0.83,0.09,0.250,-9.182,-1.721,-4.358
3607,0.0279,-0.0295,-0.0010,1.37,0.86,0.05,0.250,-12.593,2.255,-3.830
3617,0.0265,-0.0330,-0.0009,1.29,0.91,0.00,0.250,-11.090,1.019,-3.089
3626,0.0258,-0.0361,-0.0004,1.19,0.91,-0.04,0.250,-9.350,1.898,-2.817
3636,0.0238,-0.0384,0.0004,1.06,0.88,-0.07,0.252,-10.589,1.180,-2.788
3646,0.0223,-0.0402,0.0011,0.95,0.87,-0.10,0.252,-13.531,-0.028,-3.599
3656,0.0220,-0.0460,0.0039,0.88,0.85,-0.13,0.252,-13.258,-3.827,-4.925
3667,0.0182,-0.0443,0.0045,0.75,0.86,-0.16,0.252,-13.232,-4.686,-4.647
3676,0.0158,-0.0457,0.0049,0.62,0.88,-0.20,0.254,-15.409,-1.018,-2.966
3686,0.0165,-0.0484,0.0050,0.49,0.91,-0.25,0.254,-13.746,-3.274,-3.418
3696,0.0124,-0.0490,0.0105,0.34,0.95,-0.29,0.254,-14.415,-0.903,-3.681
3707,0.0102,-0.0513,0.0110,0.22,0.97,-0.32,0.254,-15.573,-2.430,-3.694
3716,0.0077,-0.0498,0.0113,0.07,1.01,-0.36,0.254,-16.729,-1.213,-3.200
3726,0.0055,-0.0495,0.0116,-0.08,1.02,-0.39,0.254,-13.793,0.301,-3.341
3736,0.0034,-0.0475,0.0119,-0.23,1.04,-0.42,0.250,-13.400,1.419,-3.868
3746,0.0047,-0.0532,0.0123,-0.35,1.03,-0.46,0.250,-14.566,3.049,-3.513
3756,0.0030,-0.0505,0.0073,-0.50,1.02,-0.49,0.250,-13.493,3.650,-3.733
3766,0.0012,-0.0527,0.0072,-0.61,1.01,-0.53,0.250,-12.296,5.200,-4.216
3776,-0.0001,-0.0515,0.0072,-0.75,0.98,-0.57,0.252,-12.032,6.104,-3.810
3786,-0.0012,-0.0532,0.0071,-0.86,0.93,-0.61,0.252,-11.723,6.676,-2.703
3796,-0.0028,-0.0517,0.0057,-0.99,0.87,-0.65,0.252,-10.485,6.763,-2.925
3806,-0.0049,-0.0533,0.0057,-1.08,0.81,-0.69,0.252,-9.461,6.019,-3.000
3816,-0.0069,-0.0498,0.0058,-1.20,0.75,-0.72,0.252,-8.942,6.338,-3.324
3827,-0.0071,-0.0497,0.0058,-1.29,0.68,-0.75,0.252,-7.616,5.988,-2.944
3836,-0.0071,-0.0463,0.0058,-1.39,0.61,-0.78,0.254,-7.229,4.841,-3.157
3846,-0.0087,-0.0430,0.0060,-1.47,0.55,-0.82,0.254,-6.715,4.393,-2.834
3856,-0.0103,-0.0379,0.0093,-1.56,0.50,-0.85,0.254,-7.403,4.516,-2.590
3866,-0.0118,-0.0363,0.0093,-1.63,0.46,-0.88,0.254,-6.652,4.123,-2.360
3876,-0.0133,-0.0343,0.0090,-1.70,0.42,-0.91,0.255,-6.108,4.574,-2.555
3885,-0.0129,-0.0278,0.0089,-1.78,0.37,-0.94,0.255,-5.363,4.326,-1.992
3896,-0.0142,-0.0293,0.0117,-1.83,0.33,-0.96,0.255,-4.270,4.580,-2.259
3905,-0.0169,-0.0261,0.0116,-1.89,0.30,-0.99,0.255,-2.585,5.520,-2.207
3916,-0.0178,-0.0230,0.0113,-1.94,0.25,-1.01,0.255,-1.306,6.021,-1.265
3926,-0.0182,-0.0197,0.0114,-1.97,0.20,-1.03,0.255,1.756,5.728,-1.535
3936,-0.0185,-0.0163,0.0114,-2.00,0.15,-1.05,0.256,3.597,5.864,-1.380
3946,-0.0206,-0.0122,0.0115,-2.01,0.10,-1.07,0.256,3.914,5.779,-1.091
3956,-0.0226,-0.0085,0.0144,-1.99,0.05,-1.09,0.256,6.187,5.327,-1.013
3966,-0.0226,-0.0051,0.0147,-1.95,-0.00,-1.10,0.256,6.896,5.569,-1.140
3976,-0.0262,-0.0022,0.0149,-1.90,-0.04,-1.12,0.255,7.279,5.428,-1.334
3987,-0.0245,0.0020,0.0148,-1.85,-0.10,-1.13,0.255,7.871,6.407,-0.404
3996,-0.0228,0.0026,0.0125,-1.77,-0.16,-1.15,0.255,8.009,6.330,-0.199
4006,-0.0243,0.0047,0.0125,-1.70,-0.21,-1.16,0.255,7.313,6.274,-0.488
4017,-0.0239,0.0076,0.0123,-1.63,-0.27,-1.17,0.255,8.155,6.688,0.005
4026,-0.0217,0.0108,0.0119,-1.57,-0.34,-1.17,0.255,7.446,5.974,-0.257
4036,-0.0211,0.0187,0.0115,-1.52,-0.40,-1.18,0.255,7.186,5.470,-0.309
4046,-0.0204,0.0213,0.0112,-1.44,-0.46,-1.18,0.255,6.914,4.690,0.377
4055,-0.0199,0.0217,0.0079,-1.35,-0.51,-1.19,0.255,6.896,4.867,-0.009
4065,-0.0226,0.0271,0.0076,-1.28,-0.54,-1.19,0.255,8.768,3.742,-0.013
4075,-0.0201,0.0303,0.0072,-1.20,-0.60,-1.18,0.255,9.122,4.025,0.661
4086,-0.0193,0.0333,0.0069,-1.11,-0.65,-1.18,0.255,10.422,3.400,1.307
4096,-0.0182,0.0351,0.0046,-1.01,-0.69,-1.18,0.255,11.620,2.058,1.478
4106,-0.0141,0.0339,0.0047,-0.89,-0.74,-1.17,0.255,11.215,2.461,1.492
4117,-0.0120,0.0345,0.0049,-0.78,-0.77,-1.16,0.255,13.045,1.640,1.474
4126,-0.0116,0.0348,0.0051,-0.66,-0.79,-1.15,0.255,11.988,0.838,1.605
4135,-0.0102,0.0359,0.0051,-0.54,-0.81,-1.13,0.252,12.255,0.758,2.196
4147,-0.0117,0.0409,0.0052,-0.44,-0.81,-1.12,0.252,13.121,-0.811,2.576
4157,-0.0081,0.0401,-0.0038,-0.31,-0.82,-1.10,0.252,11.808,-2.271,2.514
4165,-0.0062,0.0444,-0.0036,-0.21,-0.83,-1.07,0.252,11.426,-2.230,2.657
4175,-0.0047,0.0469,-0.0036,-0.10,-0.82,-1.05,0.254,12.555,-2.875,3.174
4186,-0.0016,0.0473,-0.0038,0.02,-0.80,-1.02,0.254,11.881,-3.477,3.681
4197,-0.0003,0.0472,-0.0041,0.14,-0.78,-0.99,0.254,10.929,-3.857,3.873
4206,0.0007,0.0490,-0.0041,0.24,-0.75,-0.96,0.254,10.400,-3.267,3.939
4216,0.0013,0.0472,-0.0039,0.36,-0.71,-0.92,0.254,10.276,-3.521,4.133
4226,0.0019,0.0472,-0.0037,0.45,-0.68,-0.89,0.254,10.192,-3.125,4.190
4236,0.0024,0.0468,-0.0034,0.55,-0.64,-0.85,0.254,9.424,-3.018,4.283
4246,0.0045,0.0461,-0.0031,0.64,-0.60,-0.82,0.254,9.746,-2.649,4.148
4256,0.0046,0.0439,-0.0025,0.75,-0.55,-0.78,0.254,9.601,-4.359,3.430
4266,0.0048,0.0449,-0.0023,0.83,-0.50,-0.74,0.254,12.559,-5.630,3.634
4276,0.0084,0.0422,-0.0022,0.95,-0.48,-0.70,0.255,8.643,-4.517,3.570
4287,0.0102,0.0381,-0.0020,1.06,-0.45,-0.66,0.255,8.501,-2.605,5.487
4296,0.0099,0.0351,0.0008,1.17,-0.38,-0.62,0.255,9.830,-5.425,4.151
4306,0.0131,0.0324,0.0009,1.26,-0.36,-0.58,0.255,6.838,-4.450,5.453
4315,0.0144,0.0280,0.0007,1.37,-0.33,-0.53,0.255,2.622,-3.123,5.670
4326,0.0137,0.0268,0.0005,1.45,-0.27,-0.48,0.255,-0.957,-2.854,4.079
4335,0.0142,0.0243,0.0005,1.50,-0.23,-0.43,0.252,2.303,-6.361,3.172
4347,0.0172,0.0241,0.0005,1.49,-0.22,-0.38,0.252,1.428,-8.226,4.066
4356,0.0175,0.0215,-0.0024,1.49,-0.17,-0.35,0.252,1.056,-6.335,3.975
4366,0.0196,0.0178,-0.0023,1.52,-0.10,-0.32,0.252,-0.286,-3.942,4.772
4375,0.0198,0.0152,-0.0023,1.54,-0.04,-0.27,0.252,0.649,-3.445,5.140
4386,0.0198,0.0116,-0.0024,1.55,0.03,-0.23,0.252,-6.737,-5.239,4.257
4396,0.0202,0.0104,-0.0039,1.54,0.07,-0.18,0.252,-0.398,-7.100,3.839
4405,0.0201,0.0078,-0.0037,1.49,0.10,-0.13,0.252,-4.554,-7.066,3.348
4415,0.0180,0.0040,-0.0034,1.47,0.18,-0.09,0.252,-6.242,-4.537,4.751
4426,0.0162,-0.0004,-0.0030,1.45,0.25,-0.06,0.252,-6.226,-8.083,3.882
4435,0.0213,-0.0041,-0.0027,1.41,0.28,-0.02,0.252,-4.301,-3.493,3.566
4445,0.0211,-0.0068,-0.0031,1.33,0.35,0.01,0.252,-3.354,-4.572,2.973
4455,0.0187,-0.0100,-0.0032,1.29,0.42,0.05,0.252,-6.400,-3.571,2.892
4466,0.0179,-0.0122,-0.0031,1.25,0.46,0.08,0.252,-7.846,-4.893,2.466
4475,0.0169,-0.0188,-0.0031,1.23,0.49,0.11,0.256,-10.315,-4.604,2.544
4485,0.0186,-0.0173,-0.0031,1.22,0.48,0.11,0.256,-10.830,-1.167,3.083
4496,0.0200,-0.0212,0.0036,1.16,0.51,0.14,0.256,-12.146,-0.663,3.801
4505,0.0192,-0.0232,0.0035,1.07,0.55,0.17,0.256,-12.441,-3.956,3.346
4515,0.0172,-0.0244,0.0032,0.97,0.59,0.20,0.256,-9.739,-4.194,3.361
4526,0.0170,-0.0267,0.0033,0.86,0.61,0.24,0.256,-14.540,-0.893,2.958
4535,0.0146,-0.0272,0.0037,0.72,0.65,0.27,0.252,-6.910,-6.292,3.070
4545,0.0218,-0.0344,0.0041,0.65,0.65,0.29,0.252,-12.039,0.732,3.218
4555,0.0194,-0.0343,0.0011,0.51,0.66,0.33,0.252,-10.220,-3.639,3.535
4565,0.0173,-0.0345,0.0014,0.41,0.72,0.36,0.252,-8.874,-3.180,3.707
4575,0.0155,-0.0358,0.0013,0.31,0.73,0.39,0.254,-7.271,-3.556,3.275
4585,0.0132,-0.0373,0.0010,0.20,0.76,0.42,0.254,-9.719,-1.117,3.511
4595,0.0128,-0.0383,0.0011,0.11,0.79,0.46,0.254,-9.552,-1.003,3.677
4605,0.0110,-0.0396,0.0010,0.03,0.83,0.49,0.254,-9.442,-2.316,3.651
4615,0.0091,-0.0405,0.0009,-0.06,0.84,0.53,0.254,-11.259,-2.842,3.404
4625,0.0073,-0.0395,0.0010,-0.15,0.85,0.57,0.254,-9.064,-0.895,2.169
4635,0.0068,-0.0399,0.0013,-0.25,0.86,0.60,0.257,-9.613,-3.718,2.425
4645,0.0047,-0.0384,0.0015,-0.37,0.90,0.64,0.257,-8.457,1.246,1.705
4655,0.0027,-0.0374,0.0085,-0.47,0.92,0.66,0.257,-11.968,-0.077,2.734
4665,0.0040,-0.0389,0.0087,-0.54,0.93,0.69,0.257,-13.996,0.387,2.539
4675,0.0007,-0.0356,0.0087,-0.65,0.95,0.71,0.257,-10.415,2.535,1.362
4685,-0.0010,-0.0369,0.0086,-0.74,0.95,0.73,0.257,-11.331,3.338,3.174
4695,-0.0024,-0.0345,0.0113,-0.87,0.96,0.76,0.257,-7.975,2.540,3.282
4705,-0.0039,-0.0323,0.0112,-0.99,0.93,0.78,0.257,-5.195,5.401,2.288
4715,-0.0071,-0.0288,0.0106,-1.17,0.88,0.84,0.257,-8.268,4.897,3.929
4725,-0.0065,-0.0301,0.0106,-1.17,0.88,0.84,0.257,-2.443,6.889,2.626
4735,-0.0087,-0.0274,0.0099,-1.30,0.80,0.89,0.256,-1.476,4.858,2.776
4745,-0.0076,-0.0288,0.0099,-1.29,0.79,0.89,0.256,-1.703,8.784,3.711
4755,-0.0109,-0.0232,0.0074,-1.37,0.68,0.95,0.256,1.418,8.446,2.290
4765,-0.0098,-0.0272,0.0074,-1.34,0.68,0.95,0.256,2.221,8.761,2.558
4775,-0.0122,-0.0219,0.0065,-1.35,0.52,1.00,0.256,0.823,7.254,3.085
4785,-0.0140,-0.0181,0.0064,-1.37,0.53,1.00,0.256,2.821,4.432,2.186
4795,-0.0140,-0.0182,0.0041,-1.31,0.36,1.05,0.256,2.520,6.409,2.432
4805,-0.0160,-0.0178,0.0041,-1.31,0.37,1.05,0.256,1.419,3.018,2.595
4815,-0.0161,-0.0100,0.0031,-1.30,0.25,1.10,0.256,1.618,5.293,2.353
4825,-0.0165,-0.0078,0.0023,-1.29,0.20,1.13,0.256,1.800,6.208,1.866
4835,-0.0177,-0.0057,0.0020,-1.27,0.16,1.15,0.255,1.429,7.173,2.028
4845,-0.0183,-0.0053,-0.0020,-1.24,0.11,1.16,0.255,0.558,4.998,1.596
4855,-0.0188,-0.0015,-0.0023,-1.24,0.04,1.18,0.255,0.816,3.502,1.447
4865,-0.0175,0.0022,-0.0028,-1.25,-0.03,1.19,0.255,2.830,3.394,1.492
4875,-0.0175,0.0043,-0.0034,-1.24,-0.06,1.21,0.257,3.390,4.657,1.267
4885,-0.0175,0.0064,-0.0040,-1.21,-0.09,1.22,0.257,5.293,6.463,1.381
4895,-0.0180,0.0078,-0.0016,-1.17,-0.13,1.23,0.257,6.743,3.734,1.152
4905,-0.0215,0.0090,-0.0017,-1.12,-0.17,1.24,0.257,5.878,5.233,2.268
4915,-0.0215,0.0090,-0.0017,-1.12,-0.17,1.24,0.257,10.175,5.774,0.767
4925,-0.0238,0.0129,-0.0020,-1.08,-0.21,1.25,0.257,9.891,4.994,0.931
4935,-0.0217,0.0150,-0.0021,-1.01,-0.25,1.27,0.254,10.026,5.022,0.428
4945,-0.0216,0.0165,-0.0020,-0.93,-0.31,1.28,0.254,9.235,5.185,0.538
4955,-0.0197,0.0178,-0.0070,-0.83,-0.38,1.29,0.254,8.287,5.842,0.399
4965,-0.0195,0.0206,-0.0070,-0.74,-0.43,1.30,0.254,6.586,3.860,-0.157
4975,-0.0188,0.0219,-0.0074,-0.65,-0.48,1.30,0.254,6.154,0.334,0.096
4985,-0.0183,0.0211,-0.0079,-0.55,-0.53,1.31,0.254,6.193,0.432,-0.304
4995,-0.0166,0.0221,-0.0102,-0.48,-0.58,1.31,0.254,5.182,2.609,-0.683
5005,-0.0187,0.0263,-0.0103,-0.44,-0.57,1.31,0.254,5.444,1.655,-0.826
5015,-0.0170,0.0270,-0.0104,-0.37,-0.57,1.30,0.254,3.170,0.513,-0.577
5025,-0.0152,0.0295,-0.0105,-0.33,-0.60,1.30,0.254,3.692,-0.035,-0.143
5035,-0.0142,0.0301,-0.0105,-0.28,-0.62,1.29,0.250,7.509,1.928,-1.274
5045,-0.0125,0.0342,-0.0101,-0.26,-0.63,1.29,0.250,7.631,2.040,-0.974
5055,-0.0111,0.0346,-0.0162,-0.21,-0.64,1.28,0.250,5.577,-0.444,-0.642
5065,-0.0097,0.0381,-0.0161,-0.17,-0.65,1.27,0.250,9.082,-0.988,-2.049
5074,-0.0086,0.0385,-0.0160,-0.11,-0.67,1.26,0.250,6.734,0.349,-1.300
5085,-0.0074,0.0387,-0.0158,-0.04,-0.67,1.25,0.250,10.186,-0.262,-1.795
5095,-0.0082,0.0379,-0.0197,0.04,-0.66,1.23,0.250,11.381,-0.347,-2.403
5104,-0.0069,0.0374,-0.0195,0.12,-0.65,1.21,0.250,7.738,0.299,-1.117
5115,-0.0059,0.0380,-0.0194,0.20,-0.65,1.20,0.250,7.293,-0.365,-1.063
5125,-0.0049,0.0367,-0.0190,0.31,-0.64,1.18,0.250,5.996,-1.901,-1.049
5134,-0.0039,0.0394,-0.0184,0.37,-0.64,1.16,0.250,6.048,-4.057,-1.090
5145,-0.0031,0.0381,-0.0178,0.44,-0.63,1.15,0.250,6.749,-3.775,-1.331
5155,-0.0007,0.0387,-0.0172,0.50,-0.61,1.14,0.250,8.814,-3.102,-1.641
5164,0.0004,0.0379,-0.0163,0.56,-0.58,1.13,0.250,9.509,-4.873,-2.267
5175,0.0008,0.0380,-0.0156,0.62,-0.54,1.12,0.252,6.114,-3.322,-0.962
5185,0.0011,0.0378,-0.0149,0.71,-0.50,1.10,0.252,7.779,-3.919,-1.823
5194,0.0031,0.0359,-0.0089,0.81,-0.46,1.08,0.252,7.461,-4.900,-1.489
5205,0.0033,0.0341,-0.0084,0.88,-0.43,1.07,0.252,5.801,-4.814,-1.201
5214,0.0032,0.0338,-0.0077,0.94,-0.39,1.05,0.252,3.218,-4.677,-1.339
5225,0.0083,0.0320,-0.0069,1.03,-0.37,1.03,0.252,2.467,-3.910,-1.503
5234,0.0080,0.0301,-0.0059,1.08,-0.32,1.02,0.250,2.684,-3.474,-0.843
5244,0.0094,0.0270,-0.0048,1.14,-0.28,1.01,0.250,2.222,-4.135,-0.856
5255,0.0107,0.0238,-0.0041,1.17,-0.24,1.00,0.250,2.396,-3.488,-1.187
5265,0.0119,0.0208,-0.0032,1.20,-0.20,0.98,0.250,1.785,-2.526,-0.921
5274,0.0123,0.0188,-0.0025,1.22,-0.16,0.98,0.252,0.729,-4.053,-1.147
5285,0.0133,0.0177,-0.0021,1.24,-0.13,0.96,0.252,2.753,-3.880,-1.087
5294,0.0144,0.0146,0.0030,1.25,-0.10,0.95,0.252,-0.486,-4.486,-0.931
5305,0.0137,0.0136,0.0036,1.26,-0.06,0.94,0.252,1.028,-5.707,-0.191
5315,0.0138,0.0115,0.0042,1.28,-0.02,0.93,0.252,-1.808,-5.192,-0.112
5324,0.0128,0.0074,0.0047,1.30,0.03,0.91,0.252,-1.855,-5.801,-0.488
5335,0.0128,0.0052,0.0050,1.30,0.08,0.91,0.249,-2.249,-4.963,-0.099
5345,0.0134,0.0031,0.0012,1.29,0.13,0.91,0.249,-4.008,-5.448,-0.028
5355,0.0189,0.0014,0.0018,1.28,0.15,0.90,0.249,-4.409,-5.841,-0.057
5365,0.0172,-0.0021,0.0021,1.26,0.22,0.90,0.249,-4.775,-5.360,0.185
5375,0.0168,-0.0043,0.0024,1.22,0.28,0.90,0.254,-6.115,-4.119,0.198
5385,0.0169,-0.0073,0.0027,1.18,0.33,0.89,0.254,-5.249,-4.386,0.190
5394,0.0164,-0.0094,0.0113,1.14,0.38,0.89,0.254,-6.449,-4.352,0.199
5404,0.0198,-0.0118,0.0113,1.08,0.41,0.89,0.254,-5.555,-4.901,-0.164
5414,0.0192,-0.0137,0.0115,1.02,0.45,0.89,0.254,-7.234,-4.103,-0.034
5425,0.0169,-0.0175,0.0119,0.97,0.51,0.89,0.254,-7.715,-4.718,-0.573
5435,0.0165,-0.0193,0.0124,0.91,0.56,0.89,0.254,-8.067,-3.902,-0.432
5444,0.0161,-0.0226,0.0126,0.85,0.61,0.89,0.254,-7.897,-2.841,-0.238
5454,0.0158,-0.0239,0.0164,0.77,0.65,0.88,0.254,-8.717,-3.217,-0.396
5464,0.0147,-0.0252,0.0167,0.69,0.69,0.87,0.254,-9.425,-3.444,-0.079
5475,0.0125,-0.0315,0.0169,0.64,0.73,0.87,0.252,-10.304,-3.298,0.292
5484,0.0103,-0.0355,0.0171,0.57,0.77,0.87,0.252,-10.276,-2.691,-0.395
5494,0.0090,-0.0364,0.0152,0.47,0.81,0.87,0.252,-9.900,-2.769,0.308
5505,0.0070,-0.0417,0.0154,0.40,0.84,0.87,0.252,-9.453,-2.963,0.486
5514,0.0068,-0.0412,0.0152,0.29,0.87,0.86,0.252,-10.291,-1.589,1.099
5524,0.0053,-0.0417,0.0150,0.19,0.89,0.86,0.252,-10.364,-1.939,1.086
5535,0.0033,-0.0409,0.0149,0.08,0.92,0.87,0.250,-11.683,-1.148,1.119
5544,0.0013,-0.0399,0.0146,-0.02,0.95,0.88,0.250,-11.205,-0.316,1.183
5555,-0.0003,-0.0422,0.0072,-0.11,0.97,0.89,0.250,-11.859,0.633,0.967
5565,-0.0037,-0.0405,0.0070,-0.24,0.99,0.90,0.250,-12.485,1.524,2.031
5575,-0.0051,-0.0442,0.0070,-0.33,0.99,0.91,0.254,-12.098,2.204,1.611
5585,-0.0066,-0.0421,0.0071,-0.46,0.98,0.92,0.254,-10.450,1.826,0.947
5595,-0.0078,-0.0435,0.0087,-0.56,0.97,0.93,0.254,-9.418,2.340,1.612
5604,-0.0091,-0.0412,0.0085,-0.70,0.95,0.95,0.254,-9.786,2.828,1.399
5615,-0.0118,-0.0390,0.0085,-0.81,0.94,0.96,0.254,-9.166,4.406,1.740
5625,-0.0108,-0.0365,0.0087,-0.92,0.90,0.97,0.254,-8.587,5.161,1.185
5634,-0.0114,-0.0358,0.0090,-1.02,0.87,0.99,0.252,-8.003,5.427,1.372
5644,-0.0136,-0.0350,0.0093,-1.11,0.83,1.01,0.252,-6.404,5.751,1.378
5655,-0.0191,-0.0327,0.0049,-1.20,0.81,1.02,0.252,-6.680,6.262,2.049
5664,-0.0191,-0.0320,0.0051,-1.27,0.75,1.03,0.252,-4.833,6.095,1.627
5674,-0.0226,-0.0282,0.0052,-1.35,0.72,1.05,0.254,-2.123,5.636,1.931
5685,-0.0224,-0.0258,0.0055,-1.40,0.65,1.07,0.254,-1.676,6.140,1.643
5695,-0.0221,-0.0236,0.0067,-1.45,0.59,1.08,0.254,-2.773,8.978,1.447
5704,-0.0247,-0.0200,0.0067,-1.49,0.54,1.10,0.254,0.096,6.226,1.420
5714,-0.0257,-0.0185,0.0069,-1.51,0.48,1.11,0.254,-0.275,8.205,1.443
5724,-0.0263,-0.0151,0.0070,-1.53,0.40,1.12,0.254,-2.079,9.332,1.682
5735,-0.0267,-0.0119,0.0069,-1.53,0.33,1.14,0.255,1.741,7.065,1.466
5745,-0.0271,-0.0122,0.0068,-1.53,0.25,1.15,0.255,-0.059,7.951,1.324
5754,-0.0277,-0.0096,0.0091,-1.53,0.16,1.16,0.255,1.592,7.944,1.450
5765,-0.0293,-0.0069,0.0093,-1.53,0.09,1.18,0.255,3.691,7.293,1.333
5774,-0.0295,-0.0042,0.0093,-1.53,0.01,1.19,0.256,3.465,9.152,0.866
5784,-0.0291,-0.0017,0.0094,-1.51,-0.07,1.20,0.256,8.828,6.356,0.555
5795,-0.0287,0.0018,0.0119,-1.47,-0.15,1.21,0.256,6.797,8.389,0.695
5804,-0.0348,0.0035,0.0117,-1.43,-0.20,1.22,0.256,5.011,6.341,0.927
5814,-0.0345,0.0059,0.0114,-1.35,-0.26,1.22,0.256,8.432,6.564,1.611
5824,-0.0341,0.0083,0.0111,-1.29,-0.34,1.23,0.256,8.631,6.925,1.505
5835,-0.0351,0.0092,0.0111,-1.23,-0.40,1.23,0.254,8.111,4.859,1.185
5845,-0.0376,0.0148,0.0114,-1.17,-0.45,1.25,0.254,5.035,5.753,1.528
5854,-0.0368,0.0168,0.0073,-1.08,-0.52,1.26,0.254,7.564,6.833,0.876
5864,-0.0378,0.0223,0.0069,-1.02,-0.56,1.27,0.254,5.142,6.485,0.546
5874,-0.0369,0.0241,0.0064,-0.97,-0.61,1.29,0.250,5.478,7.664,0.951
5884,-0.0394,0.0274,0.0064,-0.91,-0.66,1.29,0.250,5.487,6.867,1.123
5894,-0.0357,0.0307,-0.0034,-0.86,-0.74,1.30,0.250,4.384,8.790,1.219
5904,-0.0322,0.0321,-0.0033,-0.81,-0.83,1.31,0.250,6.677,8.478,1.108
5914,-0.0288,0.0337,-0.0034,-0.76,-0.91,1.32,0.250,10.537,6.542,1.473
5924,-0.0303,0.0330,-0.0036,-0.70,-0.98,1.33,0.250,10.806,7.569,0.883
5935,-0.0286,0.0342,-0.0034,-0.63,-1.06,1.34,0.254,13.068,7.103,1.402
5944,-0.0320,0.0343,-0.0029,-0.53,-1.10,1.35,0.254,15.512,4.639,1.211
5954,-0.0279,0.0342,-0.0013,-0.42,-1.18,1.36,0.254,17.125,5.274,0.553
5964,-0.0243,0.0337,-0.0014,-0.28,-1.26,1.38,0.254,16.094,1.969,0.191
5974,-0.0208,0.0364,-0.0015,-0.15,-1.31,1.39,0.257,13.993,1.699,-0.066
5984,-0.0171,0.0350,-0.0012,0.02,-1.37,1.40,0.257,11.815,-0.209,0.453
5994,-0.0140,0.0352,0.0065,0.18,-1.39,1.40,0.257,10.030,-0.090,-0.397
6005,-0.0143,0.0371,0.0064,0.30,-1.39,1.40,0.257,7.877,-1.348,-0.314
6015,-0.0080,0.0359,0.0065,0.42,-1.42,1.40,0.257,6.595,-2.634,-0.022
6024,-0.0056,0.0342,0.0067,0.52,-1.42,1.40,0.257,5.691,-2.975,0.020
6034,-0.0048,0.0362,0.0070,0.60,-1.40,1.40,0.254,4.103,-1.777,0.098
6044,-0.0025,0.0349,0.0071,0.67,-1.38,1.39,0.254,2.352,-5.424,-0.418
6054,-0.0006,0.0369,0.0042,0.71,-1.35,1.39,0.254,3.226,-2.345,-0.446
6064,0.0017,0.0358,0.0039,0.75,-1.33,1.39,0.254,8.018,-5.396,-0.431
6074,0.0049,0.0331,0.0040,0.80,-1.29,1.39,0.255,5.353,-6.965,-0.525
6084,0.0072,0.0318,0.0044,0.83,-1.26,1.38,0.255,3.131,-5.071,-1.268
6095,0.0101,0.0283,0.0050,0.91,-1.22,1.38,0.255,3.385,-8.356,-1.636
6104,0.0142,0.0270,0.0056,0.96,-1.16,1.37,0.255,6.056,-8.332,-1.738
6113,0.0149,0.0276,0.0060,0.98,-1.10,1.36,0.255,9.145,-5.795,-1.813
6124,0.0167,0.0245,0.0064,1.02,-1.02,1.34,0.255,6.771,-6.431,-2.037
6134,0.0186,0.0210,0.0069,1.09,-0.93,1.33,0.252,4.048,-6.082,-2.174
6144,0.0223,0.0190,0.0022,1.18,-0.88,1.31,0.252,1.752,-5.615,-2.294
6154,0.0220,0.0174,0.0024,1.25,-0.82,1.28,0.252,0.755,-7.287,-2.526
6164,0.0234,0.0153,0.0024,1.30,-0.75,1.25,0.252,0.755,-6.487,-1.894
6174,0.0247,0.0126,0.0023,1.32,-0.69,1.23,0.254,-1.875,-9.119,-2.269
6184,0.0293,0.0118,0.0025,1.33,-0.64,1.20,0.254,-2.193,-7.293,-2.530
6194,0.0316,0.0094,0.0014,1.33,-0.58,1.18,0.254,-1.592,-7.450,-2.523
6204,0.0326,0.0072,0.0014,1.31,-0.49,1.15,0.254,-4.566,-11.475,-2.467
6214,0.0349,0.0049,0.0014,1.29,-0.42,1.12,0.254,-4.042,-9.370,-3.258
6224,0.0366,0.0015,0.0016,1.28,-0.35,1.10,0.254,-5.503,-10.579,-3.691
6234,0.0372,-0.0007,0.0021,1.23,-0.24,1.07,0.257,-5.492,-8.920,-3.868
6244,0.0402,-0.0054,0.0023,1.21,-0.16,1.03,0.257,-9.519,-13.131,-4.125
6254,0.0396,-0.0066,0.0084,1.15,-0.05,0.99,0.257,-3.768,-8.941,-3.506
6264,0.0397,-0.0085,0.0083,1.10,0.05,0.95,0.257,-4.518,-10.495,-2.913
6274,0.0364,-0.0126,0.0085,1.02,0.19,0.91,0.255,-6.530,-9.979,-3.337
6284,0.0388,-0.0133,0.0087,0.97,0.27,0.87,0.255,-9.188,-11.399,-3.579
6293,0.0425,-0.0153,0.0069,0.93,0.35,0.84,0.255,-5.665,-8.625,-3.109
6304,0.0393,-0.0190,0.0067,0.87,0.46,0.81,0.255,-6.504,-9.544,-3.531
6314,0.0373,-0.0208,0.0068,0.80,0.58,0.77,0.255,-7.895,-6.779,-3.537
6324,0.0393,-0.0241,0.0070,0.75,0.65,0.74,0.255,-10.003,-7.994,-3.976
6334,0.0354,-0.0267,0.0069,0.70,0.76,0.70,0.257,-9.418,-5.546,-3.854
6343,0.0356,-0.0260,0.0069,0.60,0.83,0.66,0.257,-10.966,-4.929,-4.228
6354,0.0352,-0.0283,0.0092,0.52,0.89,0.63,0.257,-10.769,-5.120,-4.347
6364,0.0301,-0.0271,0.0090,0.42,0.98,0.59,0.257,-10.485,-4.036,-4.588
6374,0.0270,-0.0286,0.0088,0.32,1.04,0.54,0.256,-10.237,-2.349,-4.445
6384,0.0253,-0.0292,0.0085,0.21,1.08,0.50,0.256,-9.622,-2.725,-4.175
6394,0.0222,-0.0337,0.0064,0.13,1.12,0.45,0.256,-8.034,-2.484,-4.657
6404,0.0192,-0.0346,0.0062,0.02,1.16,0.41,0.256,-6.354,-2.032,-4.999
6414,0.0163,-0.0373,0.0060,-0.07,1.19,0.36,0.256,-6.815,-0.847,-5.054
6424,0.0143,-0.0372,0.0057,-0.16,1.22,0.32,0.256,-7.207,0.097,-4.769
6434,0.0122,-0.0369,0.0053,-0.23,1.24,0.27,0.257,-7.809,1.735,-4.507
6444,0.0113,-0.0340,0.0052,-0.33,1.25,0.22,0.257,-8.213,2.650,-4.567
6454,0.0106,-0.0364,0.0059,-0.39,1.24,0.17,0.257,-8.847,3.517,-4.400
6464,0.0084,-0.0350,0.0058,-0.47,1.23,0.12,0.257,-10.075,4.726,-3.641
6474,0.0066,-0.0354,0.0054,-0.54,1.20,0.07,0.256,-9.297,4.917,-3.899
6483,0.0043,-0.0343,0.0049,-0.64,1.16,0.03,0.256,-8.437,6.018,-4.724
6494,-0.0006,-0.0378,0.0022,-0.70,1.13,-0.01,0.256,-10.092,5.171,-4.304
6503,-0.0026,-0.0366,0.0020,-0.80,1.08,-0.05,0.256,-9.087,4.928,-4.054
6513,-0.0035,-0.0398,0.0017,-0.87,1.02,-0.10,0.256,-8.066,4.270,-3.981
6523,-0.0062,-0.0356,0.0016,-0.98,0.98,-0.14,0.256,-6.428,4.600,-4.013
6534,-0.0070,-0.0350,0.0015,-1.07,0.93,-0.18,0.257,-7.227,4.774,-3.299
6544,-0.0086,-0.0331,0.0016,-1.15,0.88,-0.22,0.257,-7.710,4.208,-2.847
6554,-0.0091,-0.0325,0.0020,-1.22,0.83,-0.26,0.257,-6.740,5.793,-3.355
6564,-0.0113,-0.0265,0.0017,-1.31,0.79,-0.30,0.257,-6.440,6.027,-3.313
6574,-0.0151,-0.0240,0.0018,-1.38,0.76,-0.33,0.256,-5.851,7.114,-2.541
6584,-0.0164,-0.0217,0.0020,-1.45,0.70,-0.36,0.256,-5.224,6.715,-2.482
6595,-0.0160,-0.0193,-0.0002,-1.51,0.63,-0.40,0.256,-1.539,6.397,-2.693
6604,-0.0191,-0.0207,-0.0003,-1.54,0.58,-0.43,0.256,-3.331,7.168,-1.672
6613,-0.0184,-0.0112,-0.0003,-1.63,0.50,-0.46,0.256,-0.451,7.790,-1.920
6623,-0.0177,-0.0131,-0.0005,-1.63,0.43,-0.49,0.256,1.617,8.191,-2.097
6633,-0.0203,-0.0133,-0.0007,-1.63,0.37,-0.51,0.257,0.843,8.615,-1.243
6643,-0.0209,-0.0105,-0.0008,-1.64,0.30,-0.53,0.257,3.225,7.917,-1.673
6653,-0.0212,-0.0077,0.0002,-1.62,0.21,-0.56,0.257,1.862,7.868,-0.833
6664,-0.0213,-0.0050,0.0001,-1.61,0.13,-0.57,0.257,4.402,6.283,-1.450
6674,-0.0214,0.0029,0.0002,-1.60,0.04,-0.59,0.256,3.918,6.234,-0.235
6684,-0.0214,0.0052,0.0007,-1.58,-0.03,-0.60,0.256,4.461,5.630,-0.412
6694,-0.0233,0.0053,-0.0008,-1.52,-0.08,-0.62,0.256,5.788,4.944,-0.696
6704,-0.0231,0.0079,-0.0010,-1.48,-0.14,-0.62,0.256,5.519,5.039,-0.751
6713,-0.0212,0.0113,-0.0012,-1.44,-0.21,-0.63,0.256,5.176,5.416,-0.644
6724,-0.0247,0.0128,-0.0011,-1.38,-0.24,-0.64,0.256,4.616,4.340,-0.210
6733,-0.0227,0.0158,-0.0009,-1.33,-0.30,-0.64,0.261,6.080,4.262,-0.298
6743,-0.0226,0.0186,-0.0004,-1.29,-0.34,-0.65,0.261,7.376,3.845,-0.638
6753,-0.0220,0.0209,0.0102,-1.23,-0.39,-0.66,0.261,8.730,3.754,-0.028
6763,-0.0199,0.0288,0.0103,-1.21,-0.44,-0.66,0.261,7.774,3.461,-0.165
6773,-0.0160,0.0289,0.0101,-1.13,-0.50,-0.66,0.256,8.261,3.625,0.247
6783,-0.0159,0.0323,0.0101,-1.06,-0.53,-0.66,0.256,10.244,3.755,-0.450
6794,-0.0139,0.0388,0.0037,-1.01,-0.57,-0.66,0.256,9.581,3.514,-0.015
6803,-0.0129,0.0405,0.0036,-0.93,-0.61,-0.66,0.256,10.176,3.804,0.299
6813,-0.0124,0.0464,0.0036,-0.86,-0.65,-0.66,0.256,11.990,2.300,-0.199
6824,-0.0113,0.0479,0.0037,-0.76,-0.69,-0.66,0.256,11.839,0.820,0.714
6833,-0.0101,0.0492,0.0040,-0.66,-0.72,-0.65,0.252,12.973,0.438,0.614
6843,-0.0081,0.0502,0.0043,-0.55,-0.75,-0.65,0.252,13.446,-1.186,0.462
6854,-0.0064,0.0564,-0.0062,-0.45,-0.76,-0.65,0.252,13.618,-1.393,0.690
6863,-0.0051,0.0571,-0.0063,-0.32,-0.76,-0.64,0.252,14.299,-2.391,0.280
6873,-0.0038,0.0608,-0.0065,-0.19,-0.75,-0.64,0.256,13.726,-3.206,0.794
6883,-0.0025,0.0612,-0.0066,-0.05,-0.73,-0.64,0.256,13.326,-3.359,0.969
6893,-0.0015,0.0644,-0.0056,0.08,-0.70,-0.64,0.256,12.385,-3.429,0.683
6903,0.0013,0.0596,-0.0055,0.26,-0.68,-0.63,0.256,12.683,-3.261,0.655
6914,0.0019,0.0623,-0.0052,0.39,-0.65,-0.62,0.256,15.823,-3.695,0.267
6923,0.0005,0.0589,-0.0051,0.54,-0.60,-0.62,0.256,13.861,-4.385,-0.046
6933,0.0026,0.0613,-0.0050,0.66,-0.56,-0.62,0.254,16.483,-2.541,-0.519
6944,0.0066,0.0591,-0.0046,0.83,-0.54,-0.61,0.254,15.458,-3.360,-0.602
6953,0.0065,0.0589,-0.0072,0.97,-0.49,-0.62,0.254,14.189,-2.740,-0.292
6963,0.0048,0.0531,-0.0069,1.14,-0.45,-0.62,0.254,10.532,-3.533,-0.737
6973,0.0049,0.0544,-0.0068,1.26,-0.41,-0.63,0.256,10.092,-3.519,-1.090
6984,0.0067,0.0464,-0.0067,1.43,-0.38,-0.64,0.256,9.058,-3.469,-1.006
6993,0.0103,0.0424,-0.0035,1.55,-0.37,-0.64,0.256,6.760,-3.311,-1.037
7003,0.0102,0.0438,-0.0036,1.63,-0.34,-0.65,0.256,7.320,-3.114,-1.579
7014,0.0117,0.0382,-0.0036,1.73,-0.32,-0.67,0.256,5.257,-1.464,-1.217
7023,0.0114,0.0364,-0.0034,1.80,-0.28,-0.68,0.256,3.276,-1.700,-1.281
7033,0.0109,0.0329,-0.0030,1.87,-0.25,-0.69,0.259,3.366,-3.815,-1.902
7043,0.0139,0.0296,-0.0029,1.92,-0.25,-0.71,0.259,0.770,-3.994,-1.018
7053,0.0136,0.0266,0.0066,1.96,-0.22,-0.72,0.259,1.979,-4.851,-2.663
7063,0.0130,0.0253,0.0068,1.98,-0.18,-0.74,0.259,-0.839,-5.167,-1.814
7073,0.0123,0.0175,0.0070,2.02,-0.14,-0.76,0.260,-0.573,-4.539,-2.992
7083,0.0114,0.0151,0.0071,2.03,-0.08,-0.78,0.260,-2.131,-5.789,-2.721
7093,0.0171,0.0108,0.0139,2.04,-0.06,-0.81,0.260,-4.453,-4.178,-3.101
7103,0.0159,0.0057,0.0140,2.03,-0.01,-0.84,0.260,-3.582,-5.457,-3.769
7113,0.0159,0.0022,0.0140,2.01,0.04,-0.87,0.260,-7.411,-4.369,-3.156
7123,0.0180,0.0026,0.0141,1.94,0.07,-0.91,0.260,-5.727,-3.892,-4.079
7133,0.0165,-0.0052,0.0140,1.93,0.13,-0.95,0.255,-5.597,-3.946,-4.492
7143,0.0169,-0.0074,0.0138,1.85,0.17,-0.98,0.255,-9.681,-2.849,-3.536
7154,0.0165,-0.0104,0.0050,1.80,0.21,-1.03,0.255,-6.811,-3.419,-4.197
7163,0.0115,-0.0156,0.0047,1.75,0.27,-1.07,0.255,-10.579,-2.986,-3.928
7173,0.0136,-0.0187,0.0046,1.67,0.29,-1.11,0.254,-11.588,-2.327,-4.054
7183,0.0122,-0.0230,0.0046,1.60,0.32,-1.15,0.254,-10.279,-2.426,-4.923
7193,0.0127,-0.0249,-0.0033,1.48,0.33,-1.20,0.254,-11.789,-1.082,-3.366
7203,0.0166,-0.0270,-0.0034,1.36,0.33,-1.24,0.254,-8.773,-3.583,-3.793
7213,0.0115,-0.0268,-0.0034,1.25,0.38,-1.28,0.254,-11.397,-3.800,-4.482
7223,0.0102,-0.0298,-0.0034,1.14,0.40,-1.32,0.254,-10.214,-1.719,-2.502
7233,0.0139,-0.0328,-0.0037,1.04,0.40,-1.36,0.254,-15.019,-1.106,-3.802
7243,0.0120,-0.0353,-0.0038,0.93,0.44,-1.40,0.254,-11.716,-3.809,-3.110
7253,0.0123,-0.0376,-0.0078,0.83,0.45,-1.43,0.254,-11.240,-2.050,-2.769
7263,0.0106,-0.0393,-0.0078,0.69,0.47,-1.47,0.254,-13.058,-2.194,-3.109
7274,0.0089,-0.0410,-0.0079,0.57,0.50,-1.50,0.255,-12.677,-1.203,-3.272
7283,0.0091,-0.0407,-0.0079,0.45,0.52,-1.53,0.255,-13.799,-0.773,-2.732
7293,0.0075,-0.0466,-0.0075,0.34,0.54,-1.55,0.255,-12.777,-0.222,-2.611
7303,0.0062,-0.0471,-0.0074,0.21,0.55,-1.59,0.255,-12.945,0.477,-2.781
7313,0.0049,-0.0491,-0.0071,0.09,0.56,-1.61,0.255,-12.871,1.368,-2.975
7324,0.0038,-0.0492,-0.0067,-0.05,0.56,-1.65,0.255,-12.420,1.429,-2.838
7333,0.0028,-0.0474,-0.0064,-0.19,0.55,-1.67,0.254,-12.589,1.922,-2.682
7343,0.0018,-0.0504,-0.0064,-0.29,0.54,-1.70,0.254,-12.572,1.746,-2.210
7353,0.0010,-0.0500,-0.0071,-0.42,0.53,-1.73,0.254,-12.947,-0.251,-2.718
7363,0.0003,-0.0509,-0.0068,-0.53,0.50,-1.76,0.254,-13.466,1.669,-2.863
7373,-0.0005,-0.0532,-0.0066,-0.64,0.49,-1.79,0.258,-9.892,0.884,-2.184
7383,-0.0013,-0.0521,-0.0065,-0.77,0.49,-1.81,0.258,-11.323,2.087,-2.720
7393,-0.0034,-0.0508,0.0019,-0.89,0.48,-1.84,0.258,-8.236,2.551,-1.633
7403,-0.0042,-0.0492,0.0019,-0.99,0.47,-1.86,0.258,-8.197,1.307,-2.486
7413,-0.0026,-0.0444,0.0024,-1.12,0.43,-1.89,0.258,-10.612,3.081,-1.989
7423,-0.0048,-0.0451,0.0029,-1.18,0.42,-1.91,0.258,-8.115,3.634,-1.019
7433,-0.0052,-0.0437,0.0032,-1.27,0.41,-1.93,0.255,-8.908,2.833,-2.211
7443,-0.0053,-0.0454,0.0017,-1.35,0.36,-1.96,0.255,-7.478,1.437,-1.951
7453,-0.0053,-0.0423,0.0016,-1.43,0.33,-1.97,0.255,-5.339,2.810,-0.730
7463,-0.0050,-0.0423,0.0016,-1.50,0.30,-1.99,0.255,-3.534,3.039,-0.510
7473,-0.0049,-0.0390,0.0017,-1.57,0.27,-2.00,0.255,-3.482,3.765,-0.747
7483,-0.0064,-0.0344,0.0018,-1.63,0.25,-2.02,0.255,-2.512,1.667,-1.778
7493,-0.0067,-0.0316,0.0011,-1.66,0.23,-2.03,0.255,-0.133,2.729,-0.825
7503,-0.0070,-0.0287,0.0014,-1.68,0.20,-2.04,0.255,0.201,0.843,-1.181
7513,-0.0064,-0.0263,0.0020,-1.70,0.18,-2.05,0.255,-1.669,3.178,-1.035
7523,-0.0066,-0.0234,0.0022,-1.70,0.14,-2.06,0.255,-2.112,5.889,0.462
7533,-0.0084,-0.0194,0.0024,-1.72,0.15,-2.07,0.258,0.298,-0.161,-0.235
7543,-0.0086,-0.0164,0.0028,-1.74,0.12,-2.08,0.258,0.107,4.799,0.334
7553,-0.0058,-0.0131,0.0092,-1.75,0.06,-2.08,0.258,2.416,1.943,0.019
7563,-0.0109,-0.0094,0.0094,-1.75,0.08,-2.08,0.258,3.763,2.153,0.159
7573,-0.0066,-0.0066,0.0098,-1.74,0.02,-2.08,0.259,4.142,3.968,-0.216
7583,-0.0065,-0.0036,0.0101,-1.71,-0.00,-2.08,0.259,5.564,0.816,-0.755
7593,-0.0064,-0.0006,0.0149,-1.67,-0.01,-2.08,0.259,7.118,1.062,0.027
7603,-0.0071,0.0014,0.0154,-1.62,-0.06,-2.08,0.259,7.956,5.244,0.770
7613,-0.0064,0.0053,0.0159,-1.57,-0.07,-2.08,0.259,9.228,5.695,1.592
7623,-0.0062,0.0080,0.0160,-1.51,-0.10,-2.08,0.259,8.048,1.617,1.047
7633,-0.0067,0.0130,0.0158,-1.45,-0.15,-2.08,0.257,10.673,0.290,0.409
7643,-0.0057,0.0154,0.0155,-1.36,-0.19,-2.07,0.257,11.036,-1.629,1.216
7653,-0.0031,0.0156,0.0113,-1.26,-0.21,-2.06,0.257,11.475,0.127,1.454
7663,-0.0021,0.0212,0.0108,-1.17,-0.22,-2.05,0.257,10.698,1.635,1.431
7673,-0.0035,0.0264,0.0102,-1.09,-0.21,-2.04,0.256,10.773,0.659,1.229
7683,-0.0030,0.0283,0.0099,-0.98,-0.20,-2.03,0.256,10.172,0.273,1.517
7693,-0.0007,0.0289,0.0045,-0.87,-0.21,-2.01,0.256,10.789,1.643,1.031
7702,-0.0001,0.0294,0.0041,-0.76,-0.22,-2.00,0.256,12.075,-2.091,1.412
7713,0.0004,0.0352,0.0035,-0.67,-0.22,-1.99,0.256,12.015,-0.745,1.518
7723,0.0028,0.0368,0.0032,-0.56,-0.23,-1.97,0.256,12.629,4.116,2.343
7733,0.0035,0.0418,0.0031,-0.45,-0.23,-1.96,0.257,12.333,-1.518,0.913
7743,0.0018,0.0378,0.0026,-0.31,-0.22,-1.94,0.257,10.790,-1.492,1.119
7753,0.0026,0.0423,0.0006,-0.21,-0.24,-1.92,0.257,10.096,-0.096,2.777
7763,0.0030,0.0426,0.0003,-0.09,-0.23,-1.91,0.257,13.365,-4.445,2.118
7773,0.0034,0.0434,-0.0002,0.01,-0.22,-1.89,0.256,11.168,-4.417,1.792
7782,0.0039,0.0438,-0.0005,0.13,-0.22,-1.86,0.256,14.188,-1.862,2.849
7792,0.0036,0.0438,-0.0034,0.25,-0.18,-1.85,0.256,13.380,-7.883,1.374
7802,0.0039,0.0434,-0.0036,0.37,-0.15,-1.83,0.256,13.760,-0.132,1.970
7813,0.0036,0.0463,-0.0040,0.49,-0.11,-1.80,0.256,13.854,-1.483,2.431
7824,0.0027,0.0455,-0.0043,0.63,-0.04,-1.79,0.256,12.403,-1.973,2.681
7833,0.0028,0.0443,-0.0044,0.77,-0.04,-1.77,0.260,10.112,0.767,2.792
7843,0.0023,0.0431,-0.0043,0.90,-0.01,-1.75,0.260,8.900,-2.414,1.274
7853,0.0023,0.0401,0.0036,1.03,-0.01,-1.72,0.260,9.595,-5.126,2.108
7863,0.0038,0.0409,0.0034,1.11,-0.01,-1.70,0.260,8.173,-2.749,2.328
7873,0.0032,0.0382,0.0033,1.20,0.03,-1.68,0.254,8.246,-5.366,2.088
7883,0.0025,0.0370,0.0034,1.29,0.07,-1.66,0.254,4.605,-3.952,1.809
7893,0.0085,0.0322,-0.0053,1.39,0.07,-1.64,0.254,3.787,0.212,2.622
7903,0.0040,0.0348,-0.0050,1.44,0.14,-1.62,0.254,4.957,-1.002,2.760
7913,0.0037,0.0323,-0.0047,1.48,0.18,-1.60,0.254,2.625,-0.298,2.384
7923,0.0050,0.0297,-0.0046,1.53,0.17,-1.57,0.254,3.227,1.817,2.491
7933,-0.0008,0.0293,-0.0044,1.56,0.21,-1.55,0.255,2.963,1.363,2.691
7943,0.0005,0.0251,-0.0071,1.60,0.20,-1.53,0.255,4.245,2.940,3.286
7953,0.0022,0.0245,-0.0070,1.61,0.17,-1.50,0.255,1.565,0.229,3.035
7963,0.0037,0.0204,-0.0069,1.66,0.14,-1.47,0.255,2.494,-0.572,2.912
7973,0.0033,0.0175,-0.0066,1.69,0.12,-1.43,0.256,2.437,-3.066,2.983
7983,0.0009,0.0138,-0.0065,1.72,0.14,-1.40,0.256,0.803,0.005,2.412
7993,0.0006,0.0109,-0.0051,1.73,0.16,-1.38,0.256,0.358,-0.389,3.064
8003,0.0003,0.0079,-0.0047,1.75,0.18,-1.34,0.256,-2.421,-3.896,2.369
8013,0.0017,0.0042,-0.0044,1.77,0.16,-1.32,0.256,-4.106,-0.976,2.698
8023,0.0026,0.0010,-0.0039,1.77,0.18,-1.29,0.256,-3.003,-2.406,3.770
8032,0.0023,-0.0021,-0.0038,1.74,0.22,-1.26,0.252,-5.600,-1.732,3.015
8043,0.0018,-0.0051,-0.0033,1.70,0.23,-1.23,0.252,-5.426,-1.247,3.438
8053,0.0014,-0.0079,-0.0104,1.66,0.25,-1.20,0.252,-6.195,-2.940,2.894
8062,0.0044,-0.0137,-0.0100,1.63,0.25,-1.17,0.252,-6.783,0.245,2.957
8072,0.0056,-0.0149,-0.0095,1.55,0.25,-1.14,0.252,-7.580,-2.660,3.532
8083,0.0025,-0.0179,-0.0091,1.49,0.29,-1.10,0.252,-10.047,-1.644,3.052
8092,0.0035,-0.0203,-0.0119,1.41,0.30,-1.07,0.252,-9.580,-0.860,3.350
8102,0.0029,-0.0226,-0.0115,1.33,0.31,-1.04,0.252,-9.817,-1.852,3.752
8112,0.0018,-0.0284,-0.0108,1.25,0.34,-1.01,0.252,-9.864,-1.932,3.990
8122,0.0005,-0.0318,-0.0100,1.17,0.36,-0.97,0.252,-9.747,-2.912,3.265
8132,0.0031,-0.0346,-0.0095,1.07,0.37,-0.94,0.252,-10.912,-3.111,2.982
8142,0.0020,-0.0354,-0.0086,0.95,0.40,-0.91,0.252,-12.556,0.153,3.306
8153,0.0010,-0.0379,-0.0060,0.85,0.42,-0.87,0.252,-10.652,0.213,3.581
8163,0.0035,-0.0401,-0.0052,0.75,0.42,-0.84,0.252,-11.805,-1.202,2.684
8173,0.0042,-0.0436,-0.0042,0.64,0.42,-0.82,0.250,-11.203,0.094,2.438
8183,0.0035,-0.0435,-0.0036,0.53,0.42,-0.79,0.250,-10.620,-0.082,2.543
8193,0.0024,-0.0484,-0.0060,0.44,0.42,-0.76,0.250,-11.353,-0.099,2.256
8203,0.0016,-0.0493,-0.0054,0.32,0.43,-0.72,0.250,-11.817,-0.081,2.152
8213,0.0025,-0.0482,-0.0047,0.20,0.42,-0.70,0.250,-12.579,0.632,2.236
8223,0.0017,-0.0468,-0.0038,0.07,0.41,-0.67,0.250,-13.820,0.632,3.101
8232,0.0011,-0.0487,-0.0029,-0.05,0.40,-0.65,0.256,-13.258,-0.359,2.914
8243,-0.0014,-0.0520,-0.0020,-0.16,0.41,-0.62,0.256,-13.159,-1.509,3.022
8253,-0.0020,-0.0516,0.0090,-0.29,0.41,-0.59,0.256,-12.665,-1.403,3.494
8262,-0.0028,-0.0492,0.0100,-0.44,0.42,-0.56,0.256,-12.797,-0.927,3.447
8272,-0.0019,-0.0501,0.0109,-0.56,0.42,-0.53,0.252,-10.511,-0.860,2.684
8283,-0.0027,-0.0472,0.0118,-0.70,0.44,-0.50,0.252,-9.273,-0.868,2.292
8292,-0.0035,-0.0443,0.0108,-0.83,0.45,-0.48,0.252,-12.252,0.768,2.489
8302,-0.0040,-0.0448,0.0115,-0.93,0.45,-0.45,0.252,-9.022,2.047,2.997
8313,-0.0047,-0.0455,0.0123,-1.02,0.44,-0.42,0.252,-5.946,1.083,2.351
8322,-0.0054,-0.0443,0.0129,-1.11,0.44,-0.40,0.252,-8.822,1.442,2.154
8332,-0.0061,-0.0424,0.0133,-1.21,0.43,-0.37,0.257,-5.244,2.194,0.554
8342,-0.0064,-0.0448,0.0202,-1.26,0.40,-0.35,0.257,-7.612,4.315,2.904
8352,-0.0070,-0.0427,0.0206,-1.32,0.38,-0.33,0.257,-4.158,1.351,0.802
8362,-0.0073,-0.0398,0.0208,-1.39,0.36,-0.32,0.257,-5.489,2.593,0.679
8372,-0.0088,-0.0349,0.0211,-1.47,0.33,-0.29,0.258,-6.006,3.228,2.483
8383,-0.0087,-0.0325,0.0216,-1.51,0.31,-0.28,0.258,-2.925,1.208,0.951
8393,-0.0071,-0.0281,0.0255,-1.58,0.27,-0.27,0.258,-1.933,1.038,0.333
8402,-0.0070,-0.0269,0.0256,-1.63,0.25,-0.25,0.258,-0.676,1.994,0.834
8412,-0.0086,-0.0214,0.0256,-1.66,0.24,-0.24,0.258,-2.518,0.359,0.362
8422,-0.0088,-0.0227,0.0259,-1.64,0.23,-0.24,0.258,0.225,3.230,1.193
8432,-0.0084,-0.0256,0.0264,-1.63,0.20,-0.23,0.256,-1.350,2.296,0.071
8442,-0.0088,-0.0228,0.0266,-1.64,0.19,-0.23,0.256,-0.104,-2.031,-0.419
8452,-0.0083,-0.0209,0.0210,-1.64,0.16,-0.22,0.256,-0.140,0.042,-0.267
8463,-0.0085,-0.0181,0.0212,-1.66,0.15,-0.22,0.256,-0.837,4.539,2.042
8472,-0.0088,-0.0152,0.0210,-1.66,0.16,-0.23,0.259,0.956,0.891,0.615
8482,-0.0090,-0.0124,0.0207,-1.66,0.14,-0.22,0.259,1.031,0.370,-0.366
8492,-0.0093,-0.0096,0.0220,-1.65,0.11,-0.21,0.259,3.974,4.605,0.280
8503,-0.0088,-0.0086,0.0217,-1.62,0.10,-0.21,0.259,6.753,5.296,0.678
8512,-0.0099,-0.0001,0.0215,-1.64,0.07,-0.21,0.259,6.919,1.926,-0.104
8522,-0.0091,0.0001,0.0212,-1.57,0.02,-0.21,0.259,5.017,-1.907,-1.657
8532,-0.0091,0.0028,0.0210,-1.50,-0.03,-0.20,0.257,1.636,-2.245,-0.062
8542,-0.0087,0.0060,0.0210,-1.44,-0.03,-0.21,0.257,5.476,3.368,-0.203
8552,-0.0106,0.0112,0.0142,-1.42,0.01,-0.22,0.257,3.984,1.829,0.099
8562,-0.0106,0.0136,0.0139,-1.39,0.01,-0.22,0.257,5.257,3.949,0.476
8572,-0.0097,0.0164,0.0136,-1.33,-0.02,-0.22,0.262,8.427,-0.687,-0.851
8582,-0.0109,0.0176,0.0132,-1.29,-0.04,-0.22,0.262,6.977,-1.271,-1.613
8592,-0.0100,0.0200,0.0189,-1.21,-0.06,-0.22,0.262,9.442,0.286,-0.552
8603,-0.0098,0.0239,0.0186,-1.15,-0.04,-0.23,0.262,7.495,-2.559,-0.810
8612,-0.0094,0.0220,0.0185,-1.05,-0.05,-0.25,0.262,10.259,1.170,-0.915
8622,-0.0075,0.0234,0.0187,-0.95,-0.03,-0.26,0.262,13.467,-1.648,-1.548
8632,-0.0071,0.0267,0.0188,-0.88,-0.04,-0.26,0.262,12.666,-0.043,-0.797
8642,-0.0084,0.0331,0.0185,-0.78,-0.04,-0.27,0.262,12.913,1.714,-1.506
8652,-0.0102,0.0350,0.0194,-0.66,-0.02,-0.29,0.262,11.032,4.124,-1.536
8662,-0.0100,0.0385,0.0191,-0.56,-0.01,-0.30,0.262,10.909,2.698,-1.394
8673,-0.0077,0.0381,0.0188,-0.43,-0.05,-0.32,0.261,9.381,3.033,-1.249
8682,-0.0069,0.0376,0.0185,-0.31,-0.08,-0.34,0.261,11.106,1.011,-2.475
8692,-0.0064,0.0405,0.0151,-0.22,-0.10,-0.35,0.261,11.004,3.907,-1.744
8702,-0.0072,0.0432,0.0147,-0.13,-0.11,-0.37,0.261,7.547,0.928,-0.776
8712,-0.0069,0.0385,0.0147,0.02,-0.12,-0.39,0.261,8.641,1.309,-1.027
8722,-0.0060,0.0460,0.0144,0.07,-0.14,-0.40,0.261,9.354,1.482,-1.468
8732,-0.0037,0.0432,0.0142,0.17,-0.17,-0.41,0.264,9.597,-0.451,-1.365
8742,-0.0033,0.0436,0.0141,0.26,-0.18,-0.43,0.264,11.118,0.649,-1.906
8752,-0.0027,0.0422,0.0169,0.35,-0.19,-0.44,0.264,11.019,-0.598,-1.666
8762,-0.0023,0.0416,0.0167,0.45,-0.19,-0.45,0.264,11.978,1.292,-2.475
8772,-0.0033,0.0449,0.0163,0.54,-0.20,-0.47,0.263,13.455,0.220,-3.084
8782,-0.0030,0.0427,0.0160,0.66,-0.20,-0.49,0.263,12.635,-0.781,-3.600
8792,-0.0027,0.0402,0.0137,0.79,-0.19,-0.52,0.263,7.671,-0.914,-1.778
8802,-0.0023,0.0460,0.0132,0.88,-0.19,-0.55,0.263,7.133,-0.919,-1.194
8812,-0.0019,0.0451,0.0127,0.97,-0.18,-0.58,0.263,6.028,-0.240,-1.952
8822,-0.0016,0.0434,0.0124,1.04,-0.17,-0.59,0.263,5.600,-1.204,-2.053
8831,0.0003,0.0409,0.0121,1.11,-0.18,-0.60,0.264,5.161,-0.765,-2.512
8842,-0.0012,0.0385,0.0118,1.17,-0.16,-0.63,0.264,7.268,-2.120,-3.891
8852,-0.0010,0.0380,0.0110,1.22,-0.16,-0.65,0.264,5.259,-1.446,-2.774
8862,-0.0008,0.0356,0.0111,1.28,-0.14,-0.68,0.264,2.519,-1.261,-1.908
8872,0.0010,0.0330,0.0111,1.35,-0.14,-0.72,0.267,2.990,0.674,-2.475
8882,0.0010,0.0308,0.0110,1.38,-0.12,-0.74,0.267,4.579,-0.094,-3.132
8892,0.0011,0.0288,0.0161,1.41,-0.12,-0.76,0.267,2.476,0.363,-2.686
8902,0.0012,0.0265,0.0160,1.45,-0.12,-0.80,0.267,1.330,0.388,-1.943
8911,0.0014,0.0246,0.0158,1.47,-0.12,-0.82,0.267,1.475,-0.182,-2.455
8921,0.0015,0.0220,0.0159,1.50,-0.12,-0.85,0.267,1.292,-0.081,-2.730
8932,0.0017,0.0195,0.0159,1.51,-0.13,-0.87,0.259,-1.966,0.288,-1.716
8941,0.0019,0.0180,0.0160,1.51,-0.13,-0.90,0.259,-1.166,-0.593,-2.576
8952,0.0019,0.0167,-0.0013,1.50,-0.13,-0.92,0.259,-1.787,0.295,-2.150
8962,0.0021,0.0141,-0.0011,1.49,-0.12,-0.94,0.259,-1.585,-0.490,-2.078
8972,0.0022,0.0098,-0.0011,1.48,-0.13,-0.96,0.263,-1.985,-1.157,-1.806
8982,0.0024,0.0073,-0.0014,1.45,-0.13,-0.98,0.263,-1.710,-0.916,-1.332
8991,0.0004,0.0048,-0.0018,1.43,-0.10,-0.99,0.263,-2.868,-0.926,-1.183
9001,0.0006,0.0023,-0.0016,1.41,-0.09,-1.00,0.263,-4.918,-1.638,-1.237
9012,0.0007,-0.0001,-0.0014,1.39,-0.08,-1.02,0.263,-3.890,-0.590,-1.477
9022,0.0007,-0.0038,-0.0012,1.35,-0.07,-1.03,0.263,-4.548,-1.817,-0.986
9032,0.0007,-0.0061,-0.0009,1.31,-0.06,-1.04,0.264,-5.636,-0.631,-0.905
9041,0.0025,-0.0133,0.0013,1.29,-0.06,-1.05,0.264,-6.295,-0.308,-0.930
9052,0.0026,-0.0155,0.0015,1.24,-0.05,-1.06,0.264,-7.930,-0.165,-1.613
9062,0.0026,-0.0179,0.0017,1.18,-0.04,-1.07,0.264,-7.771,1.092,-0.853
9072,0.0023,-0.0201,0.0017,1.19,-0.04,-1.07,0.265,-7.518,0.673,-0.699
9082,0.0024,-0.0241,0.0026,1.04,-0.04,-1.09,0.265,-9.351,0.746,-0.216
9092,0.0024,-0.0241,0.0056,1.04,-0.04,-1.09,0.265,-9.870,0.895,-0.499
9102,0.0024,-0.0314,0.0063,0.90,-0.06,-1.11,0.265,-10.829,0.179,-0.163
9111,0.0024,-0.0306,0.0063,0.90,-0.06,-1.11,0.265,-11.572,0.447,-0.307
9121,0.0026,-0.0347,0.0073,0.71,-0.07,-1.11,0.265,-11.183,0.149,-0.497
9132,0.0045,-0.0375,0.0072,0.72,-0.08,-1.11,0.264,-11.341,-0.645,-0.192
9142,0.0047,-0.0403,0.0069,0.50,-0.09,-1.12,0.264,-11.957,-2.137,-0.373
9151,0.0043,-0.0409,0.0069,0.50,-0.09,-1.12,0.264,-11.577,-2.391,-0.331
9162,0.0044,-0.0410,0.0075,0.25,-0.07,-1.12,0.264,-12.417,-1.615,-0.262
9172,0.0040,-0.0399,0.0080,0.12,-0.04,-1.13,0.263,-12.806,-0.520,-0.235
9181,0.0036,-0.0423,0.0083,0.00,-0.02,-1.13,0.263,-12.822,-1.779,-0.456
9192,0.0034,-0.0406,0.0049,-0.14,-0.01,-1.14,0.263,-12.373,-1.377,-0.163
9202,0.0032,-0.0409,0.0050,-0.26,-0.00,-1.14,0.263,-11.671,0.460,0.098
9212,0.0029,-0.0410,0.0054,-0.38,0.01,-1.14,0.263,-11.635,-0.096,0.098
9222,0.0026,-0.0387,0.0057,-0.51,0.02,-1.14,0.263,-10.280,0.303,-0.076
9232,0.0025,-0.0419,0.0059,-0.61,0.02,-1.14,0.263,-9.695,0.756,0.189
9242,0.0025,-0.0394,0.0032,-0.73,0.01,-1.14,0.263,-10.052,0.886,0.426
9251,0.0025,-0.0382,0.0035,-0.84,-0.00,-1.14,0.263,-8.797,1.181,0.025
9262,0.0025,-0.0373,0.0035,-0.84,-0.00,-1.14,0.263,-5.555,1.682,0.566
9272,0.0005,-0.0408,0.0037,-0.91,0.00,-1.13,0.265,-5.674,1.400,0.139
9281,0.0005,-0.0392,0.0037,-0.99,-0.00,-1.13,0.265,-5.097,1.007,0.421
9291,0.0007,-0.0372,0.0062,-1.05,-0.01,-1.13,0.265,-5.369,0.065,0.173
9301,0.0007,-0.0407,0.0065,-1.08,-0.02,-1.12,0.265,-4.349,1.503,0.248
9312,0.0008,-0.0388,0.0066,-1.13,-0.03,-1.12,0.265,-5.773,-0.021,0.394
9322,0.0009,-0.0369,0.0069,-1.17,-0.04,-1.12,0.265,-5.023,1.042,0.027
9332,0.0010,-0.0367,0.0071,-1.21,-0.05,-1.12,0.270,-6.107,0.694,-0.323
9342,0.0012,-0.0363,0.0072,-1.26,-0.06,-1.11,0.270,-5.333,1.022,-0.247
9352,0.0014,-0.0340,0.0196,-1.31,-0.06,-1.11,0.270,-5.832,1.201,-0.024
9361,-0.0002,-0.0316,0.0196,-1.37,-0.06,-1.12,0.270,-5.889,1.017,-0.028
9372,0.0020,-0.0273,0.0196,-1.43,-0.08,-1.12,0.264,-5.067,0.819,0.308
9382,0.0023,-0.0287,0.0196,-1.47,-0.10,-1.12,0.264,-3.752,-0.400,0.376
9392,0.0025,-0.0263,0.0115,-1.52,-0.11,-1.12,0.264,-4.011,-0.175,1.220
9401,0.0028,-0.0237,0.0112,-1.58,-0.12,-1.12,0.264,-3.323,0.079,1.116
9412,0.0026,-0.0214,0.0109,-1.62,-0.11,-1.11,0.264,-4.170,-0.028,1.702
9421,0.0028,-0.0187,0.0107,-1.67,-0.10,-1.10,0.264,-1.790,1.188,1.788
9431,0.0030,-0.0127,0.0103,-1.73,-0.10,-1.09,0.269,0.028,0.484,1.836
9442,0.0031,-0.0146,0.0100,-1.73,-0.10,-1.07,0.269,2.564,-0.239,1.794
9451,0.0033,-0.0116,0.0144,-1.75,-0.11,-1.05,0.269,4.017,-1.311,1.476
9462,0.0036,-0.0086,0.0141,-1.76,-0.11,-1.04,0.269,3.500,-0.790,1.664
9471,0.0016,-0.0036,0.0138,-1.76,-0.10,-1.02,0.268,4.608,-0.651,1.280
9481,0.0035,0.0008,0.0135,-1.74,-0.10,-1.00,0.268,7.033,-0.708,1.020
9492,0.0037,0.0037,0.0125,-1.69,-0.09,-0.99,0.268,7.635,-0.214,1.688
9502,0.0039,0.0066,0.0123,-1.64,-0.08,-0.97,0.268,7.428,0.019,1.992
9512,0.0058,0.0099,0.0119,-1.57,-0.08,-0.96,0.268,6.571,-0.749,1.444
9522,0.0055,0.0146,0.0115,-1.50,-0.07,-0.94,0.268,5.995,-0.459,1.811
9531,0.0056,0.0172,0.0111,-1.43,-0.06,-0.92,0.267,6.904,-0.510,1.845
9541,0.0054,0.0194,0.0105,-1.35,-0.05,-0.90,0.267,9.012,0.113,1.903
9551,0.0054,0.0217,0.0055,-1.27,-0.04,-0.89,0.267,9.625,0.464,2.228
9561,0.0034,0.0299,0.0051,-1.23,-0.02,-0.87,0.267,10.345,0.555,1.977
9571,0.0035,0.0320,0.0046,-1.14,-0.03,-0.85,0.267,9.182,0.695,1.711
9582,0.0034,0.0334,0.0037,-1.06,-0.04,-0.83,0.267,8.299,-0.110,2.091
9591,0.0034,0.0362,0.0003,-0.97,-0.04,-0.81,0.267,8.412,0.258,2.351
9601,0.0055,0.0385,-0.0002,-0.89,-0.06,-0.79,0.267,9.854,-0.440,1.697
9611,0.0056,0.0400,-0.0004,-0.79,-0.06,-0.77,0.267,12.106,-0.017,2.291
9621,0.0076,0.0400,-0.0005,-0.68,-0.07,-0.75,0.267,14.773,-0.315,2.273
9631,0.0074,0.0397,-0.0009,-0.57,-0.06,-0.73,0.269,14.959,-1.630,2.007
9641,0.0052,0.0432,-0.0012,-0.46,-0.05,-0.71,0.269,13.859,-1.902,2.336
9651,0.0051,0.0441,0.0014,-0.33,-0.04,-0.69,0.269,13.325,-1.419,2.348
9661,0.0048,0.0426,0.0015,-0.17,-0.03,-0.66,0.269,12.414,-0.596,2.879
9671,0.0047,0.0466,0.0010,-0.05,-0.01,-0.64,0.266,12.523,-0.701,2.011
9681,0.0047,0.0467,0.0005,0.10,-0.00,-0.62,0.266,10.244,-2.737,1.723
9691,0.0044,0.0461,-0.0050,0.24,0.01,-0.59,0.266,12.227,-2.981,2.566
9701,0.0042,0.0437,-0.0054,0.39,0.03,-0.57,0.266,10.277,-0.585,3.127
9711,0.0038,0.0454,-0.0057,0.50,0.05,-0.55,0.266,8.491,0.036,2.948
9721,0.0037,0.0446,-0.0059,0.61,0.07,-0.52,0.266,6.660,-1.667,2.324
9732,0.0030,0.0422,-0.0060,0.72,0.09,-0.49,0.267,8.787,-0.256,3.237
9741,0.0028,0.0438,-0.0061,0.79,0.10,-0.47,0.267,6.502,-0.517,3.281
9751,0.0047,0.0437,-0.0064,0.86,0.10,-0.44,0.267,8.330,-2.284,3.151
9762,0.0039,0.0434,-0.0064,0.94,0.10,-0.41,0.267,7.274,-0.057,3.358
9771,0.0056,0.0449,-0.0064,0.99,0.10,-0.38,0.265,7.576,-1.717,4.283
9781,0.0067,0.0407,-0.0066,1.08,0.10,-0.34,0.265,5.412,-1.892,3.616
9791,0.0046,0.0383,-0.0105,1.15,0.12,-0.31,0.265,5.278,0.577,4.072
9801,0.0044,0.0363,-0.0105,1.22,0.13,-0.27,0.265,6.885,0.945,4.289
9811,0.0039,0.0341,-0.0103,1.29,0.16,-0.23,0.265,6.512,0.333,3.922
9821,0.0036,0.0319,-0.0102,1.34,0.15,-0.20,0.265,4.611,-3.516,3.346
9831,0.0034,0.0296,-0.0101,1.41,0.14,-0.15,0.268,6.174,-0.363,4.517
9841,0.0031,0.0271,-0.0097,1.48,0.13,-0.11,0.268,1.228,-1.537,3.272
9851,0.0021,0.0267,-0.0040,1.52,0.16,-0.08,0.268,1.828,-0.207,4.113
9861,0.0018,0.0241,-0.0039,1.58,0.18,-0.04,0.268,0.636,-3.977,2.910
9871,0.0015,0.0214,-0.0039,1.60,0.19,-0.00,0.270,-1.184,-0.486,3.375
9881,0.0012,0.0187,-0.0039,1.62,0.20,0.04,0.270,-2.796,-3.880,2.797
9891,0.0009,0.0158,0.0043,1.63,0.23,0.07,0.270,-2.376,-3.029,3.807
9901,0.0002,0.0110,0.0043,1.63,0.24,0.10,0.270,-2.991,-2.022,3.576
9911,0.0011,0.0064,0.0045,1.61,0.27,0.13,0.270,-3.660,-2.756,2.657
9921,0.0007,0.0037,0.0048,1.59,0.30,0.16,0.270,-5.187,-1.586,0.987
9931,-0.0000,-0.0005,0.0050,1.57,0.32,0.19,0.266,-3.793,3.445,2.599
9941,-0.0005,-0.0032,0.0051,1.53,0.34,0.22,0.266,-7.045,3.528,2.011
9952,-0.0012,-0.0060,0.0006,1.47,0.35,0.24,0.266,-4.509,1.053,2.373
9961,-0.0017,-0.0121,0.0003,1.44,0.33,0.26,0.266,-5.422,3.362,1.314
9971,-0.0022,-0.0145,-0.0000,1.39,0.31,0.28,0.263,-5.666,5.023,2.957
9981,-0.0046,-0.0194,-0.0002,1.36,0.30,0.30,0.263,-6.800,3.849,2.611
9991,-0.0041,-0.0219,-0.0098,1.30,0.27,0.32,0.263,-9.736,0.378,1.548
10001,-0.0078,-0.0245,-0.0101,1.24,0.24,0.35,0.263,-8.275,-0.548,2.328
10011,-0.0071,-0.0328,-0.0102,1.22,0.20,0.38,0.263,-9.842,0.060,1.568
10021,-0.0075,-0.0349,-0.0103,1.13,0.18,0.39,0.263,-13.779,-1.383,0.818
10031,-0.0078,-0.0369,-0.0102,1.04,0.19,0.41,0.269,-14.735,-1.550,1.216
10041,-0.0077,-0.0416,-0.0099,0.95,0.19,0.43,0.269,-14.638,-0.293,0.250
10051,-0.0125,-0.0438,-0.0005,0.82,0.22,0.45,0.269,-13.728,1.238,1.562
10061,-0.0126,-0.0450,-0.0001,0.68,0.24,0.45,0.269,-13.402,0.252,1.192
10071,-0.0099,-0.0499,0.0002,0.55,0.23,0.46,0.266,-15.030,1.496,-0.102
10081,-0.0102,-0.0509,0.0005,0.40,0.21,0.47,0.266,-15.989,5.500,1.615
10091,-0.0104,-0.0575,-0.0005,0.29,0.20,0.49,0.266,-15.641,0.847,0.704
10101,-0.0121,-0.0551,-0.0001,0.12,0.20,0.50,0.266,-16.362,3.248,0.448
10111,-0.0131,-0.0589,0.0000,-0.02,0.16,0.51,0.266,-15.252,6.504,1.488
10121,-0.0147,-0.0542,0.0004,-0.20,0.15,0.53,0.266,-15.490,1.682,0.918
10131,-0.0139,-0.0610,0.0008,-0.33,0.11,0.53,0.265,-15.159,4.155,0.592
10141,-0.0148,-0.0596,-0.0017,-0.48,0.06,0.54,0.265,-14.271,2.306,0.371
10151,-0.0159,-0.0619,-0.0010,-0.62,0.04,0.56,0.265,-16.055,5.832,1.149
10161,-0.0160,-0.0608,-0.0004,-0.78,0.00,0.56,0.265,-16.087,3.256,0.519
10171,-0.0190,-0.0548,-0.0003,-0.95,-0.01,0.57,0.267,-15.315,2.268,0.725
10181,-0.0190,-0.0532,-0.0001,-1.11,-0.06,0.58,0.267,-13.428,1.974,0.907
10191,-0.0214,-0.0608,0.0028,-1.20,-0.07,0.58,0.267,-12.726,3.091,1.017
10201,-0.0198,-0.0618,0.0026,-1.34,-0.11,0.59,0.267,-11.385,1.792,0.614
10211,-0.0186,-0.0588,0.0026,-1.48,-0.14,0.59,0.267,-11.209,3.182,-0.126
10221,-0.0174,-0.0561,0.0029,-1.61,-0.17,0.60,0.267,-9.741,4.491,-0.616
10231,-0.0182,-0.0534,0.0031,-1.73,-0.19,0.60,0.265,-9.639,3.557,-0.021
10241,-0.0191,-0.0469,0.0030,-1.87,-0.21,0.60,0.265,-9.215,3.364,-0.302
10251,-0.0213,-0.0481,-0.0002,-1.94,-0.23,0.60,0.265,-7.412,3.274,-0.801
10261,-0.0210,-0.0448,-0.0002,-2.04,-0.26,0.59,0.265,-6.474,2.632,-1.016
10271,-0.0205,-0.0413,-0.0002,-2.13,-0.30,0.59,0.264,-7.494,4.071,-0.776
10281,-0.0205,-0.0367,-0.0002,-2.20,-0.34,0.58,0.264,-6.368,4.092,-0.394
10291,-0.0188,-0.0324,-0.0042,-2.28,-0.37,0.58,0.264,-5.024,4.623,-0.766
10301,-0.0226,-0.0341,-0.0042,-2.32,-0.39,0.57,0.264,-4.116,3.993,-0.365
10311,-0.0206,-0.0300,-0.0041,-2.38,-0.43,0.56,0.264,-2.071,4.424,-0.845
10321,-0.0202,-0.0240,-0.0042,-2.45,-0.48,0.55,0.264,-0.392,4.524,-0.311
10331,-0.0180,-0.0203,-0.0042,-2.49,-0.53,0.55,0.265,-0.138,4.179,0.016
10341,-0.0175,-0.0189,-0.0041,-2.49,-0.57,0.54,0.265,1.584,4.912,-0.613
10351,-0.0166,-0.0147,-0.0035,-2.49,-0.61,0.54,0.265,1.996,3.421,-0.389
10360,-0.0182,-0.0082,-0.0033,-2.50,-0.63,0.53,0.265,1.945,2.817,-0.058
10370,-0.0160,-0.0021,-0.0032,-2.50,-0.67,0.53,0.266,4.158,0.344,-0.505
10381,-0.0140,0.0037,-0.0030,-2.48,-0.70,0.52,0.266,6.011,-0.408,-0.010
10391,-0.0128,0.0080,-0.0001,-2.46,-0.71,0.52,0.266,8.088,-1.916,-0.468
10400,-0.0129,0.0147,-0.0000,-2.42,-0.72,0.51,0.266,9.606,-1.479,-0.482
10410,-0.0117,0.0189,0.0001,-2.35,-0.72,0.51,0.266,11.026,-0.724,-0.004
10421,-0.0101,0.0247,0.0003,-2.28,-0.72,0.51,0.266,11.943,-0.443,-0.040
10431,-0.0089,0.0286,0.0006,-2.19,-0.72,0.51,0.267,13.836,-0.298,0.126
10441,-0.0096,0.0336,0.0008,-2.10,-0.71,0.51,0.267,14.331,-0.945,0.547
10451,-0.0084,0.0380,0.0049,-1.99,-0.71,0.51,0.267,14.251,-0.296,0.907
10460,-0.0052,0.0458,0.0051,-1.89,-0.72,0.52,0.267,14.913,-1.740,0.869
10471,-0.0042,0.0471,0.0055,-1.74,-0.71,0.53,0.265,16.024,-0.054,0.584
10481,-0.0032,0.0479,0.0057,-1.59,-0.70,0.54,0.265,16.364,0.432,1.524
10491,-0.0022,0.0506,0.0031,-1.44,-0.69,0.55,0.265,18.227,0.556,0.849
10500,-0.0011,0.0523,0.0031,-1.29,-0.70,0.55,0.265,17.236,-0.293,0.750
10511,0.0000,0.0539,0.0030,-1.13,-0.70,0.56,0.265,19.434,-2.519,0.872
10521,0.0011,0.0547,0.0031,-0.95,-0.70,0.57,0.265,17.715,-0.686,0.870
10531,0.0023,0.0563,0.0030,-0.77,-0.69,0.58,0.265,20.964,-1.705,0.544
10540,0.0027,0.0679,0.0008,-0.63,-0.67,0.58,0.265,19.689,-3.328,1.715
10550,0.0018,0.0729,0.0010,-0.48,-0.64,0.58,0.265,17.745,-3.190,1.689
10560,0.0043,0.0700,0.0011,-0.25,-0.64,0.59,0.265,17.503,-2.938,1.465
10570,0.0046,0.0725,0.0007,-0.07,-0.60,0.61,0.265,15.576,-2.670,1.639
10581,0.0068,0.0713,0.0006,0.12,-0.58,0.62,0.265,14.031,-2.773,1.313
10591,0.0069,0.0751,-0.0008,0.27,-0.54,0.64,0.265,12.676,-2.759,0.776
10600,0.0072,0.0754,-0.0010,0.43,-0.51,0.65,0.265,16.036,-4.402,-0.786
10611,0.0076,0.0721,-0.0009,0.58,-0.48,0.67,0.265,15.115,-2.889,1.243
10621,0.0077,0.0685,-0.0005,0.73,-0.45,0.67,0.265,19.413,-2.437,-0.163
10631,0.0079,0.0698,-0.0003,0.87,-0.41,0.67,0.265,18.360,-1.369,0.772
10640,0.0095,0.0705,-0.0001,1.01,-0.39,0.67,0.265,17.052,-1.805,-0.698
10651,0.0092,0.0708,-0.0005,1.19,-0.35,0.67,0.265,15.785,-6.799,-1.836
10661,0.0098,0.0688,-0.0004,1.37,-0.33,0.68,0.265,15.157,-2.667,-1.030
10670,0.0094,0.0688,-0.0005,1.53,-0.29,0.67,0.263,12.460,-4.295,-1.596
10680,0.0124,0.0633,-0.0008,1.71,-0.25,0.66,0.263,12.079,-4.166,-1.053
10691,0.0155,0.0583,-0.0057,1.87,-0.24,0.65,0.263,8.244,-1.113,0.768
10700,0.0128,0.0602,-0.0059,1.96,-0.18,0.63,0.263,5.072,-2.172,-1.076
10710,0.0140,0.0552,-0.0060,2.09,-0.14,0.62,0.263,4.742,-1.408,-0.355
10721,0.0137,0.0541,-0.0059,2.16,-0.13,0.62,0.263,4.493,1.123,-0.115
10730,0.0130,0.0496,-0.0058,2.21,-0.11,0.61,0.260,3.067,-1.929,-1.079
10740,0.0133,0.0458,-0.0057,2.26,-0.09,0.60,0.260,3.230,-0.034,-0.552
10750,0.0130,0.0416,-0.0142,2.31,-0.09,0.60,0.260,2.667,-4.673,-1.153
10760,0.0132,0.0377,-0.0140,2.34,-0.07,0.59,0.260,1.638,-1.561,-0.662
10771,0.0145,0.0338,-0.0138,2.37,-0.06,0.58,0.260,1.898,-3.594,-1.072
10781,0.0172,0.0282,-0.0136,2.41,-0.05,0.56,0.260,0.130,-3.939,-2.015
10791,0.0173,0.0241,-0.0167,2.43,-0.03,0.56,0.260,0.193,-1.768,-1.238
10800,0.0166,0.0207,-0.0164,2.44,0.01,0.54,0.260,-0.591,-2.889,-1.198
10810,0.0154,0.0175,-0.0160,2.44,0.05,0.53,0.260,-2.800,-3.710,-1.016
10820,0.0161,0.0130,-0.0156,2.44,0.08,0.51,0.260,-4.797,-3.366,-1.141
10831,0.0150,0.0064,-0.0151,2.44,0.12,0.50,0.261,-7.486,-1.220,-1.269
10840,0.0173,0.0007,-0.0145,2.42,0.15,0.48,0.261,-7.776,-2.071,-1.100
10851,0.0171,-0.0035,-0.0119,2.37,0.18,0.47,0.261,-10.980,-2.390,-0.935
10860,0.0157,-0.0079,-0.0113,2.30,0.22,0.46,0.261,-9.603,-2.779,-1.646
10870,0.0146,-0.0122,-0.0109,2.22,0.25,0.44,0.262,-11.368,-2.798,-2.178
10880,0.0142,-0.0160,-0.0100,2.12,0.27,0.43,0.262,-10.706,1.066,-1.927
10890,0.0170,-0.0232,-0.0047,2.04,0.27,0.41,0.262,-13.870,-3.669,-3.021
10900,0.0152,-0.0278,-0.0041,1.93,0.30,0.39,0.262,-12.940,1.185,-1.972
10911,0.0144,-0.0355,-0.0036,1.85,0.31,0.37,0.262,-13.408,-1.557,-2.868
10920,0.0139,-0.0387,-0.0026,1.71,0.33,0.34,0.262,-12.890,-0.674,-1.304
10931,0.0128,-0.0402,-0.0016,1.58,0.33,0.32,0.262,-15.046,0.379,-1.316
10940,0.0115,-0.0451,0.0022,1.46,0.35,0.29,0.262,-16.646,-2.388,-2.464
10950,0.0105,-0.0513,0.0028,1.34,0.36,0.28,0.262,-18.293,-4.300,-2.067
10960,0.0099,-0.0536,0.0034,1.19,0.36,0.26,0.262,-18.404,-1.522,-1.467
10971,0.0084,-0.0603,0.0041,1.05,0.39,0.24,0.263,-18.044,-4.110,-1.534
10980,0.0086,-0.0609,0.0050,0.87,0.43,0.22,0.263,-18.869,-0.634,-1.000
10991,0.0074,-0.0614,0.0093,0.68,0.45,0.20,0.263,-19.046,-2.277,-1.332
11000,0.0060,-0.0631,0.0099,0.50,0.48,0.19,0.263,-18.946,-2.846,-1.680
11010,0.0066,-0.0646,0.0105,0.32,0.48,0.17,0.263,-19.872,-0.782,-1.117
11020,0.0057,-0.0673,0.0107,0.14,0.50,0.16,0.263,-19.190,0.131,-1.526
11030,0.0044,-0.0693,0.0110,-0.05,0.52,0.15,0.262,-20.059,-0.066,-0.993
11040,0.0033,-0.0675,0.0117,-0.26,0.53,0.14,0.262,-19.456,0.036,-0.997
11050,0.0022,-0.0690,0.0111,-0.44,0.53,0.12,0.262,-17.462,0.394,-1.495
11060,0.0013,-0.0682,0.0117,-0.64,0.53,0.11,0.262,-16.056,0.930,-1.400
11070,0.0005,-0.0728,0.0122,-0.80,0.52,0.10,0.262,-14.493,0.864,-1.174
11080,-0.0020,-0.0718,0.0126,-0.98,0.52,0.08,0.262,-14.560,2.328,-0.971
11090,-0.0027,-0.0672,0.0109,-1.15,0.51,0.07,0.262,-14.216,2.774,-0.753
11100,-0.0033,-0.0644,0.0113,-1.30,0.50,0.06,0.262,-13.207,3.286,-1.141
11110,-0.0037,-0.0631,0.0117,-1.45,0.48,0.05,0.262,-13.235,3.003,-0.483
11120,-0.0040,-0.0515,0.0121,-1.64,0.45,0.04,0.262,-11.697,3.583,-0.895
11130,-0.0042,-0.0587,0.0125,-1.72,0.41,0.03,0.264,-9.682,4.097,-0.272
11140,-0.0077,-0.0589,0.0124,-1.83,0.40,0.02,0.264,-9.647,2.909,-0.228
11150,-0.0077,-0.0540,0.0143,-1.96,0.36,0.02,0.264,-7.474,3.521,0.005
11160,-0.0075,-0.0493,0.0143,-2.07,0.31,0.01,0.264,-4.964,4.331,-0.229
11171,-0.0090,-0.0429,0.0146,-2.18,0.29,0.01,0.260,-4.814,2.971,-0.522
11180,-0.0103,-0.0418,0.0150,-2.25,0.25,0.01,0.260,-3.553,3.937,-0.151
11190,-0.0107,-0.0379,0.0060,-2.30,0.21,0.00,0.260,-1.191,3.408,0.079
11200,-0.0120,-0.0340,0.0061,-2.34,0.18,-0.00,0.260,-0.469,3.751,-0.123
11210,-0.0131,-0.0303,0.0061,-2.37,0.15,-0.00,0.260,-0.492,5.193,0.494
11220,-0.0133,-0.0262,0.0059,-2.39,0.11,-0.01,0.260,1.556,5.843,-0.266
11230,-0.0142,-0.0230,0.0057,-2.39,0.07,-0.01,0.265,2.508,6.594,0.320
11241,-0.0167,-0.0200,0.0055,-2.38,0.04,-0.01,0.265,3.088,7.271,0.450
11250,-0.0173,-0.0189,0.0104,-2.35,-0.00,-0.02,0.265,3.327,6.885,-0.234
11260,-0.0173,-0.0148,0.0105,-2.33,-0.06,-0.02,0.265,5.119,3.785,-0.827
11270,-0.0194,-0.0105,0.0107,-2.30,-0.12,-0.02,0.264,5.536,5.294,0.205
11280,-0.0192,-0.0065,0.0109,-2.26,-0.18,-0.03,0.264,4.432,4.813,-0.843
11290,-0.0175,-0.0015,0.0104,-2.21,-0.23,-0.03,0.264,5.385,3.513,-1.133
11300,-0.0195,0.0015,0.0103,-2.16,-0.26,-0.04,0.264,7.002,4.232,-0.788
11310,-0.0176,0.0061,0.0100,-2.11,-0.32,-0.04,0.264,6.744,5.735,-0.966
11320,-0.0158,0.0123,0.0097,-2.07,-0.37,-0.05,0.264,7.910,4.719,-0.806
11330,-0.0159,0.0164,0.0097,-2.01,-0.41,-0.07,0.268,9.686,3.812,-0.661
11340,-0.0159,0.0181,0.0096,-1.93,-0.45,-0.08,0.268,11.003,2.966,-1.121
11350,-0.0176,0.0215,0.0167,-1.85,-0.48,-0.10,0.268,11.654,3.683,-1.023
11360,-0.0158,0.0244,0.0164,-1.76,-0.52,-0.10,0.268,13.242,3.853,-0.895
11370,-0.0139,0.0285,0.0162,-1.66,-0.56,-0.11,0.262,14.326,2.856,-0.874
11380,-0.0119,0.0321,0.0162,-1.54,-0.60,-0.12,0.262,16.243,2.007,-0.718
11390,-0.0135,0.0385,0.0050,-1.43,-0.62,-0.13,0.262,16.184,1.578,-0.393
11400,-0.0125,0.0409,0.0044,-1.30,-0.64,-0.15,0.262,16.342,2.441,-0.533
11410,-0.0108,0.0469,0.0039,-1.18,-0.66,-0.15,0.262,15.048,2.887,-0.236
11420,-0.0108,0.0470,0.0034,-1.03,-0.67,-0.16,0.262,13.315,1.463,-0.125
11430,-0.0094,0.0466,0.0029,-0.86,-0.69,-0.17,0.267,13.606,0.898,-0.637
11440,-0.0078,0.0491,0.0024,-0.71,-0.70,-0.17,0.267,16.961,1.717,-0.096
11450,-0.0062,0.0484,0.0065,-0.55,-0.71,-0.17,0.267,15.247,1.923,-0.282
11459,-0.0065,0.0547,0.0062,-0.44,-0.71,-0.18,0.267,13.546,-1.000,-0.635
11469,-0.0052,0.0584,0.0061,-0.30,-0.71,-0.19,0.267,18.093,-2.035,-0.915
11480,-0.0040,0.0589,0.0060,-0.14,-0.72,-0.19,0.267,13.984,-3.020,-1.017
11490,-0.0025,0.0568,0.0078,0.02,-0.71,-0.20,0.267,15.388,-3.348,-0.860
11500,-0.0015,0.0545,0.0079,0.20,-0.70,-0.20,0.267,16.355,-2.756,-0.583
11509,-0.0001,0.0552,0.0077,0.35,-0.68,-0.21,0.267,16.120,-1.299,-0.877
11520,0.0009,0.0596,0.0075,0.47,-0.66,-0.22,0.267,11.802,-3.587,-1.644
11530,0.0020,0.0587,0.0073,0.62,-0.64,-0.22,0.267,15.817,-2.490,-0.723
11540,0.0028,0.0621,0.0071,0.75,-0.63,-0.23,0.267,10.199,-3.532,-1.651
11550,0.0036,0.0587,0.0074,0.89,-0.60,-0.25,0.267,14.524,-2.876,-1.191
11560,0.0046,0.0571,0.0070,1.04,-0.58,-0.25,0.267,7.137,-1.063,-1.057
11570,0.0052,0.0573,0.0071,1.14,-0.55,-0.26,0.267,12.270,-3.509,-0.794
11579,0.0091,0.0553,0.0071,1.26,-0.54,-0.27,0.267,9.435,-2.398,-1.198
11589,0.0100,0.0531,0.0065,1.36,-0.53,-0.29,0.267,9.815,-3.826,-1.188
11599,0.0099,0.0549,0.0066,1.44,-0.49,-0.30,0.267,10.901,-1.607,-1.731
11610,0.0101,0.0524,0.0070,1.54,-0.47,-0.31,0.267,7.180,-5.661,-1.544
11620,0.0099,0.0504,0.0073,1.64,-0.43,-0.32,0.267,5.616,-4.253,-1.126
11630,0.0106,0.0476,0.0072,1.75,-0.40,-0.34,0.263,10.390,-5.208,-0.598
11640,0.0102,0.0459,0.0072,1.80,-0.34,-0.36,0.263,6.599,-7.315,-0.618
11650,0.0116,0.0402,-0.0027,1.89,-0.31,-0.37,0.263,2.954,-5.562,-0.646
11660,0.0122,0.0370,-0.0028,1.98,-0.25,-0.38,0.263,7.460,-4.762,-1.141
11670,0.0147,0.0353,-0.0027,2.03,-0.20,-0.39,0.266,0.933,-5.600,-1.407
11680,0.0157,0.0336,-0.0027,2.06,-0.15,-0.40,0.266,6.120,-2.200,-0.357
11690,0.0160,0.0298,-0.0019,2.12,-0.09,-0.41,0.266,-0.020,-3.416,-0.653
11700,0.0148,0.0230,-0.0019,2.16,-0.04,-0.42,0.266,2.321,-2.001,-0.232
11710,0.0157,0.0178,-0.0018,2.22,-0.01,-0.43,0.266,-2.228,-3.678,-0.348
11720,0.0157,0.0139,-0.0015,2.22,0.02,-0.43,0.266,-1.582,-1.513,-0.454
11729,0.0147,0.0112,-0.0010,2.23,0.05,-0.44,0.265,-2.986,-3.635,-0.042
11740,0.0175,0.0019,-0.0004,2.24,0.05,-0.44,0.265,-7.784,-3.723,-0.650
11750,0.0174,-0.0020,-0.0013,2.23,0.07,-0.44,0.265,-3.627,-2.917,-0.012
11760,0.0182,-0.0051,-0.0010,2.19,0.10,-0.44,0.265,-10.835,-3.931,-0.132
11769,0.0180,-0.0088,-0.0005,2.12,0.13,-0.45,0.265,-7.226,-2.302,0.432
11779,0.0166,-0.0155,0.0000,2.09,0.17,-0.45,0.265,-12.949,-2.745,0.066
11789,0.0153,-0.0206,-0.0003,1.99,0.21,-0.45,0.265,-9.202,-3.972,0.178
11799,0.0159,-0.0223,-0.0003,1.91,0.23,-0.45,0.265,-12.152,-2.644,0.186
11810,0.0162,-0.0305,-0.0003,1.82,0.26,-0.45,0.265,-16.483,-3.711,0.186
11820,0.0124,-0.0328,-0.0000,1.71,0.33,-0.45,0.265,-15.098,-3.781,-0.004
11829,0.0125,-0.0385,0.0002,1.61,0.37,-0.45,0.266,-15.792,-3.529,-0.078
11839,0.0119,-0.0413,0.0026,1.45,0.41,-0.45,0.266,-16.338,-2.635,0.280
11850,0.0159,-0.0492,0.0031,1.33,0.41,-0.45,0.266,-16.517,-2.914,0.198
11859,0.0144,-0.0528,0.0037,1.18,0.44,-0.45,0.266,-15.380,-2.690,0.822
11869,0.0127,-0.0521,0.0043,1.00,0.47,-0.45,0.267,-15.661,-2.107,0.356
11880,0.0110,-0.0566,0.0046,0.84,0.50,-0.44,0.267,-16.044,-0.766,0.136
11890,0.0112,-0.0627,0.0077,0.70,0.51,-0.44,0.267,-17.155,-0.602,0.343
11899,0.0096,-0.0626,0.0082,0.52,0.54,-0.44,0.267,-17.924,0.342,0.525
11910,0.0097,-0.0639,0.0086,0.34,0.55,-0.43,0.267,-19.772,0.108,0.513
11919,0.0081,-0.0669,0.0091,0.17,0.56,-0.43,0.267,-19.715,-0.957,0.776
11929,0.0068,-0.0661,0.0094,-0.01,0.57,-0.42,0.267,-17.794,-0.990,0.719
11940,0.0057,-0.0704,0.0097,-0.16,0.57,-0.42,0.267,-16.402,0.549,0.700
11949,0.0027,-0.0683,0.0107,-0.37,0.58,-0.41,0.267,-18.658,0.121,0.919
11960,0.0015,-0.0659,0.0109,-0.57,0.59,-0.40,0.267,-18.341,0.810,0.719
11970,0.0003,-0.0637,0.0113,-0.76,0.59,-0.39,0.270,-18.295,-1.207,0.806
11980,-0.0008,-0.0682,0.0119,-0.91,0.59,-0.38,0.270,-15.282,1.028,1.392
11990,0.0000,-0.0677,0.0184,-1.07,0.58,-0.37,0.270,-15.574,0.391,1.125
11999,-0.0026,-0.0699,0.0186,-1.21,0.59,-0.36,0.270,-14.277,2.599,1.725
12009,-0.0036,-0.0679,0.0191,-1.36,0.58,-0.35,0.270,-13.387,2.895,1.257
12020,-0.0043,-0.0682,0.0195,-1.49,0.57,-0.34,0.270,-12.233,4.294,1.386
12029,-0.0053,-0.0656,0.0196,-1.62,0.54,-0.32,0.266,-13.164,2.901,1.133
12040,-0.0073,-0.0697,0.0198,-1.70,0.52,-0.31,0.266,-8.391,3.240,1.436
12050,-0.0092,-0.0647,0.0119,-1.82,0.49,-0.30,0.266,-12.149,4.574,1.073
12059,-0.0091,-0.0630,0.0119,-1.93,0.45,-0.29,0.266,-8.884,3.811,1.271
12069,-0.0092,-0.0579,0.0119,-2.05,0.41,-0.27,0.266,-13.043,3.710,0.599
12079,-0.0106,-0.0562,0.0116,-2.14,0.37,-0.27,0.266,-8.535,4.669,1.675
12089,-0.0121,-0.0511,0.0063,-2.25,0.34,-0.25,0.266,-8.993,4.100,1.579
12100,-0.0133,-0.0456,0.0061,-2.38,0.30,-0.25,0.266,-8.968,3.023,1.117
12109,-0.0129,-0.0421,0.0061,-2.47,0.25,-0.23,0.266,-6.884,2.139,1.987
12119,-0.0124,-0.0373,0.0061,-2.55,0.21,-0.22,0.266,-4.389,2.953,1.609
12130,-0.0135,-0.0336,0.0062,-2.63,0.18,-0.20,0.271,-2.345,3.208,1.820
12139,-0.0146,-0.0305,0.0061,-2.68,0.15,-0.19,0.271,-0.344,1.957,1.549
12149,-0.0157,-0.0257,0.0134,-2.73,0.12,-0.18,0.271,2.166,3.145,2.027
12160,-0.0148,-0.0214,0.0136,-2.74,0.07,-0.16,0.271,5.023,2.615,2.396
12169,-0.0159,-0.0175,0.0138,-2.75,0.05,-0.14,0.270,-1.418,2.378,1.994
12179,-0.0160,-0.0127,0.0139,-2.73,0.01,-0.13,0.270,2.879,5.275,2.243
12189,-0.0160,-0.0080,0.0147,-2.70,-0.01,-0.10,0.270,-3.043,3.978,3.141
12199,-0.0166,-0.0045,0.0147,-2.71,-0.05,-0.08,0.270,-5.795,4.678,2.291
12210,-0.0165,0.0001,0.0147,-2.68,-0.09,-0.06,0.270,-3.364,1.575,2.646
12219,-0.0174,0.0054,0.0145,-2.73,-0.11,-0.04,0.270,-0.228,2.857,2.404
12229,-0.0173,0.0100,0.0143,-2.77,-0.15,-0.01,0.266,-0.262,4.282,2.545
12239,-0.0195,0.0152,0.0033,-2.81,-0.17,0.01,0.266,-0.933,3.438,3.124
12249,-0.0200,0.0199,0.0033,-2.84,-0.21,0.03,0.266,2.151,3.266,2.829
12259,-0.0196,0.0247,0.0033,-2.85,-0.25,0.06,0.266,5.126,2.602,3.187
12269,-0.0192,0.0296,0.0030,-2.85,-0.28,0.08,0.271,6.757,2.287,2.992
12279,-0.0187,0.0345,0.0026,-2.83,-0.31,0.11,0.271,7.901,2.775,3.007
12289,-0.0173,0.0394,0.0072,-2.78,-0.33,0.14,0.271,9.732,2.834,3.142
12299,-0.0179,0.0417,0.0070,-2.70,-0.34,0.17,0.271,11.494,2.115,2.751
12309,-0.0123,0.0472,0.0069,-2.61,-0.40,0.20,0.271,11.387,3.295,3.235
12320,-0.0109,0.0542,0.0070,-2.53,-0.43,0.23,0.271,14.042,3.617,2.863
12329,-0.0131,0.0553,0.0073,-2.41,-0.45,0.26,0.271,13.674,5.091,3.455
12339,-0.0151,0.0572,0.0076,-2.26,-0.46,0.28,0.271,15.416,3.534,2.430
