time_ms,vel_x,vel_y,vel_z,roll,pitch,yaw,range_z,gyro_x,gyro_y,gyro_z
0,0.0082,-0.0020,-0.0026,-0.86,1.56,-68.34,0.005,0.231,-0.404,-0.068
0,0.0213,-0.0002,-0.0030,-0.96,1.54,-68.28,0.005,-0.022,-0.053,0.160
0,0.0243,0.0015,-0.0032,-0.99,1.55,-68.22,0.005,0.108,-0.339,0.200
0,0.0242,0.0018,-0.0033,-0.99,1.55,-68.15,0.005,0.178,0.003,0.321
0,0.0132,0.0023,-0.0028,-0.90,1.58,-68.09,0.005,0.450,-0.344,-0.139
0,0.0147,-0.0008,-0.0105,-0.91,1.55,-68.02,0.005,0.315,-0.092,-0.114
0,0.0159,0.0003,-0.0106,-0.92,1.56,-67.95,0.005,0.253,-0.608,0.037
0,0.0161,-0.0030,-0.0105,-0.91,1.53,-67.89,0.008,0.475,-0.380,-0.436
0,0.0146,-0.0016,-0.0104,-0.90,1.54,-67.83,0.008,0.193,0.071,0.021
0,0.0229,0.0010,-0.0070,-0.97,1.54,-67.76,0.008,0.166,-0.236,-0.111
0,0.0226,0.0014,-0.0068,-0.96,1.54,-67.70,0.008,0.475,-0.141,-0.077
0,0.0155,-0.0036,-0.0063,-0.89,1.52,-67.64,0.008,0.081,-0.189,-0.173
0,0.0157,-0.0002,-0.0063,-0.90,1.54,-67.58,0.010,0.237,-0.363,-0.459
1,0.0089,0.0013,-0.0060,-0.86,1.58,-67.51,0.010,0.078,-0.523,0.065
1,0.0159,-0.0019,-0.0057,-0.90,1.53,-67.45,0.010,0.272,-0.295,-0.054
1,0.0222,-0.0036,0.0018,-0.93,1.50,-67.39,0.010,0.271,-0.277,0.195
1,0.0128,0.0009,0.0021,-0.88,1.57,-67.32,0.010,0.318,-0.374,-0.290
1,0.0056,0.0008,0.0022,-0.82,1.59,-67.26,0.005,0.166,-0.164,0.139
1,0.0092,-0.0026,0.0022,-0.84,1.55,-67.26,0.005,0.380,-0.366,-0.082
1,0.0030,0.0020,-0.0043,-0.81,1.61,-67.14,0.005,0.106,-0.430,-0.103
1,0.0110,0.0004,-0.0043,-0.87,1.57,-67.13,0.005,0.063,-0.167,-0.126
1,0.0084,0.0009,-0.0046,-0.85,1.58,-67.01,0.005,0.489,-0.290,-0.074
1,0.0017,0.0008,-0.0045,-0.80,1.60,-67.01,0.010,0.094,-0.239,-0.252
1,0.0045,0.0021,-0.0043,-0.82,1.61,-66.89,0.010,0.258,-0.089,-0.197
1,0.0027,-0.0062,-0.0042,-0.78,1.55,-66.89,0.010,0.099,-0.532,0.088
1,0.0120,-0.0026,0.0033,-0.86,1.55,-66.76,0.010,0.215,-0.043,0.187
1,0.0046,0.0012,0.0035,-0.81,1.60,-66.70,0.010,0.205,-0.172,-0.165
1,0.0051,0.0019,0.0036,-0.82,1.60,-66.64,0.009,0.158,-0.547,0.035
2,-0.0018,0.0018,0.0038,-0.77,1.62,-66.57,0.009,0.047,-0.303,-0.099
2,-0.0021,0.0022,0.0053,-0.77,1.62,-66.51,0.009,0.195,-0.206,-0.282
2,-0.0239,-0.0164,0.0055,-0.56,1.55,-66.45,0.009,0.273,-0.183,0.154
2,-0.0383,-0.0154,0.0050,-0.46,1.60,-66.39,0.009,0.334,-0.373,-0.467
2,-0.0339,-0.0120,0.0054,-0.51,1.61,-66.33,0.007,0.130,-0.140,-0.077
2,-0.0360,-0.0128,0.0052,-0.50,1.61,-66.27,0.007,0.183,-0.534,-0.099
2,-0.0358,-0.0154,0.0007,-0.49,1.59,-66.21,0.007,-0.019,-0.465,-0.073
2,-0.0337,-0.0223,0.0008,-0.49,1.54,-66.14,0.007,0.183,-0.491,-0.120
2,-0.0287,-0.0156,0.0014,-0.55,1.57,-66.08,0.007,0.100,-0.333,0.310
2,-0.0293,-0.0116,0.0017,-0.56,1.60,-66.02,0.005,0.300,-0.584,0.163
2,-0.0255,-0.0074,0.0019,-0.60,1.62,-66.02,0.005,0.072,-0.378,-0.195
2,-0.0275,-0.0061,-0.0051,-0.60,1.64,-65.96,0.005,0.394,-0.509,0.178
2,-0.0109,-0.0065,-0.0044,-0.72,1.58,-65.89,0.005,0.007,-0.214,0.103
2,-0.0158,-0.0085,-0.0044,-0.68,1.59,-65.83,0.005,0.266,-0.152,-0.068
2,-0.0122,-0.0153,-0.0042,-0.68,1.52,-65.77,0.006,0.461,-0.340,0.085
2,-0.0233,-0.0035,-0.0041,-0.64,1.65,-65.70,0.006,0.195,-0.237,0.048
2,0.0010,-0.0000,-0.0034,-0.83,1.59,-65.64,0.006,0.228,-0.197,-0.154
3,-0.0060,-0.0043,-0.0057,-0.77,1.58,-65.58,0.006,0.027,-0.369,0.163
3,0.0046,-0.0029,-0.0056,-0.85,1.56,-65.52,0.006,0.268,-0.314,-0.092
3,0.0048,0.0012,-0.0057,-0.87,1.59,-65.46,0.010,0.026,-0.369,0.223
3,0.0077,-0.0010,-0.0057,-0.88,1.56,-65.39,0.010,0.154,-0.324,-0.246
3,0.0075,0.0008,0.0020,-0.88,1.57,-65.33,0.010,0.194,-0.086,0.155
3,-0.0045,-0.0117,0.0021,-0.75,1.52,-65.27,0.010,0.264,-0.489,-0.018
3,0.0020,0.0015,0.0022,-0.84,1.60,-65.21,0.010,0.385,-0.138,0.072
3,0.0063,-0.0002,0.0022,-0.87,1.57,-65.15,0.010,0.313,-0.368,-0.189
3,0.0068,0.0004,0.0023,-0.87,1.58,-65.08,0.010,0.259,-0.211,-0.234
3,-0.0011,-0.0214,0.0027,-0.74,1.44,-65.03,0.010,0.296,-0.303,0.089
3,-0.0069,-0.0216,0.0071,-0.69,1.46,-64.97,0.010,0.364,-0.094,-0.122
3,0.0178,-0.0362,0.0069,-0.83,1.27,-64.91,0.010,0.316,-0.198,0.018
3,0.0141,-0.0370,0.0070,-0.80,1.28,-64.85,0.009,0.363,-0.478,-0.172
3,0.0128,-0.0345,0.0073,-0.80,1.31,-64.78,0.009,-0.101,-0.265,0.117
3,0.0127,-0.0339,0.0068,-0.79,1.31,-64.72,0.009,0.131,-0.302,0.094
3,0.0227,-0.0260,0.0071,-0.89,1.34,-64.66,0.009,0.236,-0.347,0.160
3,0.0256,-0.0226,0.0069,-0.92,1.36,-64.60,0.009,0.307,-0.079,0.076
3,0.0176,-0.0260,0.0071,-0.85,1.37,-64.54,0.008,0.423,-0.342,-0.273
3,0.0243,-0.0199,0.0071,-0.92,1.39,-64.48,0.008,0.279,-0.422,-0.325
3,0.0271,-0.0146,0.0070,-0.96,1.42,-64.42,0.008,0.136,-0.455,0.174
4,0.0062,-0.0257,0.0042,-0.76,1.41,-64.35,0.008,0.157,-0.095,-0.086
4,0.0209,-0.0173,0.0044,-0.90,1.43,-64.30,0.008,0.220,-0.506,0.028
4,0.0095,-0.0213,0.0047,-0.80,1.44,-64.24,0.005,0.343,-0.312,0.030
4,0.0163,-0.0129,0.0048,-0.88,1.48,-64.18,0.005,0.520,-0.197,0.075
4,0.0106,-0.0132,-0.0048,-0.84,1.50,-64.12,0.005,0.118,-0.173,0.159
4,-0.0050,-0.0235,-0.0047,-0.69,1.48,-64.05,0.005,0.360,-0.026,-0.089
4,-0.0053,-0.0236,-0.0047,-0.69,1.48,-63.99,0.005,0.085,-0.492,-0.097
4,-0.0068,-0.0190,-0.0046,-0.69,1.52,-63.93,0.005,0.212,-0.231,-0.175
4,-0.0191,-0.0173,-0.0049,-0.61,1.57,-63.87,0.005,0.057,-0.427,-0.156
4,-0.0160,-0.0219,-0.0102,-0.62,1.53,-63.81,0.005,0.339,-0.701,0.011
4,-0.0161,-0.0224,-0.0101,-0.62,1.53,-63.75,0.005,0.397,-0.116,0.164
4,-0.0243,-0.0173,-0.0102,-0.58,1.59,-63.69,0.005,-0.033,-0.661,0.051
4,-0.0003,-0.0099,-0.0088,-0.78,1.56,-63.63,0.012,0.370,-0.615,-0.242
4,-0.0062,-0.0108,-0.0087,-0.73,1.58,-63.57,0.012,0.171,-0.081,0.057
4,-0.0056,-0.0111,0.0048,-0.73,1.58,-63.51,0.012,0.322,-0.620,-0.302
4,-0.0155,-0.0169,0.0046,-0.64,1.58,-63.45,0.012,0.086,-0.134,-0.005
4,0.0015,-0.0104,0.0052,-0.79,1.56,-63.39,0.012,0.452,-0.278,-0.133
4,-0.0060,-0.0056,0.0053,-0.75,1.62,-63.33,0.012,0.078,-0.449,0.064
4,0.0115,-0.0042,0.0054,-0.88,1.57,-63.27,0.010,0.358,-0.304,-0.248
4,0.0096,0.0007,0.0053,-0.88,1.61,-63.21,0.010,0.387,-0.418,0.029
4,-0.0090,0.0265,0.0073,-0.84,1.87,-63.15,0.010,0.103,-0.258,0.055
4,-0.0069,0.0317,0.0069,-0.87,1.89,-63.09,0.010,0.045,-0.151,0.047
4,-0.0162,0.0259,0.0072,-0.78,1.88,-63.03,0.009,0.356,-0.453,-0.277
4,-0.0131,0.0265,0.0075,-0.81,1.87,-62.97,0.009,0.156,-0.454,-0.116
4,-0.0150,0.0245,0.0059,-0.79,1.86,-62.91,0.009,-0.034,-0.260,0.039
4,-0.0108,0.0257,0.0061,-0.83,1.85,-62.85,0.009,0.395,-0.134,-0.111
4,0.0134,0.0272,0.0064,-1.01,1.76,-62.79,0.009,0.163,-0.476,-0.060
4,0.0091,0.0259,0.0068,-0.97,1.76,-62.73,0.006,0.514,-0.123,-0.241
4,0.0103,0.0259,0.0070,-0.98,1.76,-62.67,0.006,0.362,-0.289,-0.061
4,-0.0044,0.0177,0.0079,-0.84,1.75,-62.61,0.006,0.354,0.017,0.262
4,-0.0047,0.0176,-0.0010,-0.83,1.75,-62.56,0.006,0.225,-0.246,-0.292
4,-0.0056,0.0180,-0.0008,-0.83,1.75,-62.50,0.006,-0.081,-0.449,-0.019
4,-0.0042,0.0117,-0.0003,-0.81,1.69,-62.44,0.009,0.252,-0.128,-0.043
5,0.0035,0.0115,-0.0002,-0.87,1.66,-62.37,0.009,0.262,-0.499,0.049
5,-0.0062,0.0287,0.0008,-0.86,1.82,-62.32,0.009,0.251,-0.075,0.069
5,-0.0090,0.0181,0.0014,-0.80,1.75,-62.26,0.009,0.139,-0.621,-0.192
5,-0.0027,0.0182,0.0016,-0.85,1.72,-62.20,0.009,0.395,-0.278,-0.204
5,0.0120,0.0216,0.0015,-0.96,1.69,-62.13,0.008,0.170,-0.328,-0.524
5,0.0118,0.0223,0.0018,-0.96,1.69,-62.08,0.008,0.229,-0.232,0.065
5,0.0206,0.0187,0.0021,-1.01,1.63,-62.01,0.008,0.266,-0.610,-0.068
5,0.0184,0.0199,0.0007,-0.99,1.65,-61.96,0.008,0.283,-0.422,-0.207
5,0.0085,0.0182,0.0011,-0.91,1.67,-61.90,0.008,0.366,-0.392,0.135
5,0.0064,0.0153,0.0014,-0.88,1.66,-61.84,0.006,0.231,0.101,0.007
5,0.0062,0.0163,0.0016,-0.88,1.66,-61.78,0.006,0.459,-0.310,-0.211
5,0.0040,0.0183,-0.0041,-0.87,1.69,-61.72,0.006,0.046,-0.572,-0.098
5,0.0045,0.0156,-0.0041,-0.87,1.66,-61.66,0.006,0.326,-0.436,0.118
5,0.0018,0.0139,-0.0040,-0.84,1.66,-61.61,0.006,0.333,-0.424,-0.047
5,0.0096,0.0177,-0.0043,-0.91,1.66,-61.55,0.008,0.251,-0.437,-0.225
5,0.0019,0.0132,-0.0039,-0.83,1.65,-61.49,0.008,0.377,-0.370,0.136
5,-0.0078,0.0077,-0.0036,-0.75,1.65,-61.44,0.008,0.110,-0.156,0.021
5,-0.0077,-0.0000,-0.0020,-0.72,1.59,-61.38,0.008,0.188,-0.531,-0.014
5,0.0018,0.0092,-0.0018,-0.82,1.62,-61.32,0.008,0.253,-0.258,-0.205
5,0.0015,0.0092,-0.0019,-0.82,1.62,-61.26,0.008,0.327,-0.305,0.069
5,-0.0026,0.0026,-0.0019,-0.77,1.59,-61.20,0.008,0.387,-0.384,0.183
5,0.0049,0.0111,-0.0010,-0.85,1.62,-61.14,0.008,0.394,-0.229,-0.017
5,0.0071,-0.0018,-0.0006,-0.81,1.52,-61.08,0.008,0.469,-0.449,-0.186
5,0.0017,0.0092,-0.0006,-0.82,1.62,-61.03,0.008,0.259,-0.178,-0.263
5,-0.0009,0.0102,-0.0005,-0.80,1.64,-60.97,0.007,0.318,-0.350,0.316
5,-0.0000,0.0076,-0.0003,-0.80,1.62,-60.91,0.007,0.471,-0.156,-0.192
5,0.0035,0.0054,-0.0002,-0.81,1.59,-60.85,0.007,0.346,-0.328,-0.077
5,-0.0090,0.0024,-0.0019,-0.71,1.61,-60.80,0.007,0.096,0.022,0.225
5,0.0036,0.0055,-0.0017,-0.81,1.58,-60.74,0.007,0.289,-0.132,0.002
5,0.0040,0.0058,-0.0017,-0.82,1.58,-60.68,0.006,0.140,-0.299,-0.067
5,-0.0030,0.0032,-0.0015,-0.76,1.59,-60.62,0.006,0.381,-0.530,-0.154
5,-0.0038,0.0039,-0.0047,-0.76,1.60,-60.57,0.006,0.252,-0.754,-0.002
5,0.0082,0.0052,-0.0043,-0.85,1.56,-60.51,0.006,0.189,-0.349,-0.279
5,0.0019,0.0031,-0.0042,-0.79,1.57,-60.45,0.006,0.191,-0.523,0.088
5,-0.0035,0.0025,-0.0044,-0.75,1.60,-60.40,0.007,0.212,-0.163,0.203
5,-0.0049,0.0043,-0.0044,-0.75,1.61,-60.34,0.007,0.374,-0.381,-0.196
6,-0.0073,0.0080,-0.0044,-0.75,1.65,-60.28,0.007,0.304,-0.497,-0.053
6,-0.0180,-0.0075,-0.0035,-0.61,1.58,-60.22,0.007,0.249,-0.061,-0.295
6,-0.0131,-0.0061,-0.0031,-0.65,1.57,-60.17,0.007,0.518,-0.216,-0.035
6,-0.0229,-0.0181,-0.0035,-0.54,1.53,-60.11,0.008,0.550,-0.240,-0.455
6,-0.0165,-0.0140,-0.0032,-0.60,1.53,-60.05,0.008,-0.016,-0.373,0.177
6,0.0103,-0.0006,0.0004,-0.85,1.52,-59.99,0.008,0.301,-0.137,-0.209
6,0.0039,-0.0064,0.0006,-0.78,1.50,-59.94,0.008,0.022,-0.237,-0.014
6,0.0089,0.0022,0.0005,-0.85,1.54,-59.88,0.008,0.264,-0.487,0.118
6,0.0046,0.0038,0.0004,-0.83,1.57,-59.82,0.008,0.431,-0.439,-0.453
6,0.0031,0.0030,0.0005,-0.81,1.57,-59.77,0.008,0.002,-0.235,0.075
6,-0.0076,-0.0043,0.0007,-0.71,1.57,-59.71,0.008,-0.068,-0.379,-0.133
6,0.0088,0.0004,0.0019,-0.85,1.53,-59.66,0.008,0.167,-0.407,0.211
6,0.0069,0.0023,0.0019,-0.84,1.56,-59.60,0.008,0.239,-0.472,0.145
6,0.0058,0.0033,0.0018,-0.84,1.57,-59.54,0.011,0.025,-0.181,0.063
6,0.0012,0.0036,0.0020,-0.81,1.59,-59.48,0.011,0.204,-0.317,-0.013
6,0.0007,0.0038,0.0089,-0.81,1.59,-59.43,0.011,0.069,-0.379,-0.134
6,-0.0051,-0.0011,0.0091,-0.75,1.58,-59.37,0.011,0.409,-0.241,0.148
6,0.0035,0.0026,0.0092,-0.82,1.57,-59.31,0.011,0.043,-0.604,0.047
6,-0.0041,-0.0018,0.0094,-0.75,1.58,-59.26,0.010,0.255,-0.388,0.178
6,-0.0028,0.0020,0.0096,-0.78,1.60,-59.20,0.010,0.430,-0.144,-0.010
6,-0.0013,-0.0010,0.0098,-0.78,1.57,-59.14,0.010,0.218,-0.448,-0.116
6,-0.0084,-0.0008,0.0106,-0.73,1.60,-59.09,0.010,0.153,-0.570,-0.289
6,-0.0068,-0.0012,0.0107,-0.74,1.59,-59.03,0.010,0.265,-0.267,-0.011
6,-0.0040,0.0006,0.0107,-0.77,1.59,-58.97,0.009,0.275,-0.181,-0.149
6,-0.0047,0.0015,0.0105,-0.77,1.60,-58.92,0.009,0.113,-0.387,-0.141
6,0.0013,0.0052,0.0076,-0.83,1.60,-58.86,0.009,0.490,-0.342,0.099
6,-0.0014,0.0021,0.0080,-0.80,1.59,-58.80,0.009,0.500,-0.661,-0.179
6,-0.0028,0.0015,0.0081,-0.78,1.59,-58.75,0.009,0.137,-0.075,0.016
6,-0.0037,-0.0001,0.0079,-0.77,1.58,-58.69,0.007,0.286,-0.624,-0.418
6,-0.0003,0.0050,0.0080,-0.82,1.60,-58.64,0.007,-0.113,-0.404,0.087
6,-0.0010,0.0030,0.0010,-0.81,1.59,-58.58,0.007,0.171,-0.167,0.022
6,-0.0185,-0.0199,0.0010,-0.59,1.51,-58.53,0.007,0.186,-0.395,-0.046
6,-0.0321,-0.0092,0.0009,-0.55,1.64,-58.47,0.007,0.162,-0.235,-0.200
6,-0.0151,-0.0043,0.0023,-0.69,1.60,-58.41,0.010,0.040,-0.527,0.164
6,0.0063,0.0085,0.0028,-0.89,1.60,-58.36,0.010,0.328,-0.271,-0.061
7,0.0061,0.0084,0.0046,-0.88,1.60,-58.31,0.010,0.144,-0.580,0.053
7,-0.0029,0.0057,0.0050,-0.81,1.62,-58.25,0.010,0.107,-0.277,0.351
7,0.0052,0.0079,0.0050,-0.87,1.60,-58.19,0.010,0.408,-0.246,0.179
7,0.0052,0.0070,0.0052,-0.87,1.59,-58.14,0.005,0.279,-0.268,0.285
7,0.0008,0.0058,0.0053,-0.83,1.60,-58.08,0.005,0.313,-0.018,0.024
7,-0.0021,0.0068,0.0053,-0.82,1.62,-58.02,0.005,0.455,-0.245,-0.050
7,-0.0172,-0.0045,-0.0053,-0.67,1.61,-57.97,0.005,0.107,-0.611,-0.063
7,0.0039,0.0060,-0.0047,-0.86,1.59,-57.91,0.005,0.203,-0.529,-0.272
7,0.0074,0.0083,-0.0047,-0.89,1.59,-57.86,0.008,0.217,-0.257,0.078
7,0.0073,0.0084,-0.0046,-0.89,1.59,-57.80,0.008,0.234,-0.341,-0.137
7,0.0020,-0.0004,-0.0037,-0.81,1.55,-57.75,0.008,0.267,-0.257,0.177
7,0.0089,0.0058,-0.0038,-0.88,1.56,-57.69,0.008,0.367,-0.421,-0.055
7,-0.0016,0.0035,-0.0035,-0.80,1.59,-57.64,0.008,0.363,-0.427,-0.115
7,-0.0021,0.0036,-0.0033,-0.80,1.59,-57.58,0.010,0.217,-0.188,0.086
7,-0.0025,0.0037,-0.0035,-0.80,1.59,-57.53,0.010,0.426,-0.474,-0.033
7,0.0164,0.0095,-0.0035,-0.95,1.55,-57.47,0.010,-0.006,-0.414,0.319
7,0.0373,0.0247,0.0006,-1.15,1.56,-57.42,0.010,0.209,-0.361,-0.145
7,0.0408,0.0241,0.0004,-1.16,1.55,-57.37,0.010,0.179,-0.277,0.179
7,0.0253,0.0246,0.0013,-1.06,1.62,-57.31,0.006,0.278,-0.447,-0.085
7,0.0288,0.0205,0.0013,-1.06,1.58,-57.26,0.006,0.397,-0.204,-0.012
7,0.0098,0.0390,-0.0048,-1.01,1.79,-57.20,0.006,-0.007,-0.236,-0.034
7,0.0038,0.0222,-0.0039,-0.90,1.70,-57.15,0.006,0.174,-0.422,-0.093
7,0.0009,0.0223,-0.0039,-0.88,1.71,-57.09,0.006,0.385,-0.262,-0.319
7,-0.0240,0.0124,-0.0039,-0.67,1.75,-57.04,0.009,0.190,0.066,-0.069
7,-0.0249,0.0122,-0.0039,-0.67,1.75,-56.99,0.009,0.348,-0.222,0.114
7,-0.0270,0.0029,-0.0038,-0.61,1.70,-56.93,0.009,0.014,-0.325,-0.099
7,-0.0207,0.0079,-0.0004,-0.68,1.70,-56.88,0.009,0.468,-0.218,0.020
7,-0.0252,0.0086,-0.0005,-0.65,1.72,-56.82,0.009,0.160,-0.396,0.267
7,-0.0271,0.0078,-0.0005,-0.64,1.72,-56.77,0.013,-0.001,-0.406,-0.228
7,-0.0207,0.0097,-0.0000,-0.69,1.70,-56.72,0.013,0.264,-0.372,0.095
7,-0.0213,0.0101,0.0105,-0.69,1.71,-56.66,0.013,0.465,-0.110,-0.371
7,-0.0259,0.0106,0.0103,-0.66,1.73,-56.61,0.013,0.219,-0.638,0.369
7,-0.0255,0.0083,0.0105,-0.66,1.71,-56.55,0.013,-0.080,-0.252,-0.170
7,-0.0251,0.0059,0.0108,-0.65,1.69,-56.50,0.010,0.245,-0.181,-0.163
7,-0.0257,0.0059,0.0111,-0.65,1.69,-56.44,0.010,0.334,-0.276,-0.058
8,-0.0210,0.0096,0.0095,-0.70,1.69,-56.39,0.010,0.491,-0.348,-0.507
8,-0.0323,-0.0034,0.0095,-0.58,1.66,-56.34,0.010,-0.235,-0.130,0.174
8,-0.0196,0.0026,0.0102,-0.68,1.64,-56.28,0.010,0.416,-0.389,-0.126
8,-0.0165,0.0053,0.0103,-0.72,1.65,-56.23,0.010,0.048,-0.417,0.170
8,-0.0173,0.0069,0.0105,-0.72,1.66,-56.18,0.010,0.271,-0.393,0.087
8,-0.0192,0.0034,0.0083,-0.70,1.65,-56.12,0.010,0.352,-0.400,-0.290
8,-0.0285,0.0069,0.0082,-0.66,1.71,-56.07,0.010,0.044,-0.249,0.012
8,-0.0146,0.0050,0.0090,-0.74,1.63,-56.01,0.010,0.019,-0.139,0.221
8,-0.0149,0.0058,0.0090,-0.73,1.64,-55.96,0.010,0.184,-0.129,0.045
8,-0.0133,0.0036,0.0091,-0.74,1.61,-55.91,0.009,0.241,-0.202,0.265
8,-0.0213,0.0008,0.0091,-0.67,1.63,-55.85,0.009,0.324,-0.125,-0.014
8,-0.0085,0.0016,0.0046,-0.76,1.58,-55.80,0.009,0.210,-0.161,0.200
8,-0.0216,-0.0003,0.0044,-0.67,1.62,-55.74,0.009,0.313,-0.229,-0.009
8,-0.0170,0.0023,0.0046,-0.71,1.62,-55.69,0.011,0.255,-0.346,0.184
8,-0.0194,0.0002,0.0046,-0.69,1.61,-55.64,0.011,0.174,-0.321,0.018
8,-0.0200,0.0002,0.0056,-0.69,1.61,-55.58,0.011,0.146,-0.160,0.172
8,-0.0126,-0.0010,0.0058,-0.73,1.57,-55.53,0.011,0.103,-0.192,-0.208
8,-0.0177,-0.0020,0.0059,-0.69,1.59,-55.48,0.011,0.015,-0.617,-0.168
8,-0.0132,0.0007,0.0061,-0.74,1.58,-55.42,0.008,0.172,-0.383,-0.022
8,-0.0162,-0.0031,0.0060,-0.70,1.57,-55.37,0.008,0.531,-0.213,0.049
8,-0.0318,-0.0028,0.0055,-0.60,1.64,-55.31,0.008,0.178,-0.269,-0.186
8,-0.0235,-0.0022,-0.0006,-0.66,1.61,-55.26,0.008,0.305,-0.310,-0.116
8,-0.0146,0.0010,-0.0002,-0.73,1.59,-55.21,0.008,0.440,-0.414,0.190
8,-0.0091,0.0060,-0.0000,-0.79,1.60,-55.16,0.010,0.112,-0.552,-0.237
8,-0.0041,0.0091,0.0002,-0.84,1.59,-55.11,0.010,0.425,0.027,-0.149
8,-0.0049,0.0097,0.0006,-0.83,1.59,-55.05,0.010,0.293,-0.464,-0.063
8,-0.0113,0.0080,0.0007,-0.79,1.61,-55.00,0.010,0.110,-0.299,0.037
8,-0.0118,0.0080,0.0008,-0.78,1.61,-54.95,0.010,0.182,-0.461,0.052
8,-0.0108,0.0065,0.0010,-0.78,1.60,-54.90,0.010,0.273,-0.215,0.036
8,-0.0112,0.0065,0.0009,-0.78,1.60,-54.85,0.008,0.295,-0.486,-0.052
8,-0.0225,0.0029,0.0008,-0.69,1.63,-54.79,0.008,-0.059,-0.401,0.133
8,-0.0176,0.0056,-0.0033,-0.74,1.62,-54.74,0.008,0.350,-0.146,0.068
8,-0.0536,-0.0207,-0.0040,-0.38,1.61,-54.68,0.008,0.242,-0.466,-0.030
8,-0.0546,-0.0211,-0.0039,-0.38,1.61,-54.63,0.010,0.134,0.076,0.208
9,-0.0532,-0.0209,-0.0036,-0.39,1.61,-54.58,0.010,0.342,-0.208,-0.148
9,-0.0550,-0.0229,-0.0019,-0.38,1.60,-54.53,0.010,0.333,0.076,0.349
9,-0.0446,-0.0178,-0.0010,-0.48,1.59,-54.48,0.010,0.036,-0.346,0.066
9,-0.0457,-0.0194,-0.0010,-0.47,1.58,-54.43,0.010,0.154,-0.327,-0.263
9,-0.0464,-0.0199,-0.0010,-0.46,1.58,-54.37,0.010,0.252,-0.439,0.118
9,-0.0454,-0.0150,-0.0007,-0.50,1.61,-54.32,0.010,0.050,-0.506,-0.037
9,-0.0445,-0.0150,0.0006,-0.51,1.60,-54.27,0.010,0.120,-0.024,0.149
9,-0.0269,-0.0047,0.0019,-0.67,1.59,-54.22,0.010,0.272,-0.323,0.216
9,-0.0402,-0.0150,0.0016,-0.54,1.58,-54.16,0.010,0.085,-0.019,-0.154
9,-0.0406,-0.0153,0.0016,-0.54,1.58,-54.11,0.010,0.208,-0.199,-0.143
9,-0.0363,-0.0178,0.0020,-0.56,1.55,-54.06,0.010,0.139,-0.213,0.136
9,-0.0385,-0.0115,0.0022,-0.57,1.60,-54.00,0.010,-0.033,-0.358,-0.112
9,-0.0320,-0.0178,0.0025,-0.59,1.53,-53.96,0.010,0.565,-0.258,-0.248
9,-0.0314,-0.0095,0.0027,-0.63,1.58,-53.90,0.010,0.042,-0.261,0.214
9,-0.0326,-0.0125,0.0026,-0.62,1.57,-53.85,0.008,0.265,-0.317,0.087
9,-0.0300,-0.0095,0.0028,-0.65,1.57,-53.80,0.008,0.462,-0.487,0.189
9,-0.0303,-0.0089,0.0030,-0.65,1.58,-53.75,0.008,-0.076,-0.591,0.079
9,-0.0182,-0.0101,-0.0015,-0.72,1.51,-53.70,0.008,0.099,-0.313,-0.178
9,-0.0186,-0.0059,-0.0012,-0.73,1.54,-53.65,0.008,0.052,-0.330,0.107
9,-0.0241,-0.0074,-0.0010,-0.69,1.56,-53.59,0.005,0.152,-0.306,0.203
9,-0.0164,-0.0081,-0.0006,-0.74,1.52,-53.55,0.005,0.347,-0.439,0.060
9,-0.0268,-0.0091,-0.0106,-0.67,1.57,-53.49,0.005,0.357,-0.049,-0.300
9,-0.0239,-0.0074,-0.0106,-0.70,1.57,-53.44,0.005,0.312,-0.140,-0.143
9,-0.0212,-0.0116,-0.0106,-0.70,1.53,-53.39,0.005,0.105,-0.422,0.060
9,-0.0210,-0.0104,-0.0105,-0.71,1.54,-53.34,0.005,0.439,-0.150,0.036
9,-0.0163,-0.0116,-0.0102,-0.73,1.51,-53.29,0.008,0.303,-0.033,0.065
9,-0.0164,-0.0160,-0.0103,-0.71,1.48,-53.24,0.008,0.104,-0.360,0.071
9,-0.0465,-0.0250,-0.0088,-0.48,1.57,-53.18,0.008,0.179,-0.234,0.054
9,-0.0269,-0.0308,-0.0074,-0.58,1.44,-53.13,0.008,0.454,-0.358,-0.363
9,-0.0279,-0.0327,-0.0073,-0.57,1.43,-53.08,0.010,-0.069,-0.184,0.462
9,-0.0208,-0.0240,-0.0064,-0.66,1.46,-53.03,0.010,0.167,0.086,0.053
9,-0.0186,-0.0289,-0.0009,-0.65,1.42,-52.98,0.010,0.336,-0.112,-0.093
9,-0.0278,-0.0280,-0.0010,-0.60,1.47,-52.93,0.010,0.296,-0.593,-0.004
10,-0.0282,-0.0285,-0.0008,-0.60,1.47,-52.87,0.010,0.292,-0.371,-0.326
10,-0.0187,-0.0282,-0.0002,-0.66,1.43,-52.83,0.009,0.055,-0.044,0.135
10,-0.0248,-0.0263,-0.0003,-0.64,1.47,-52.78,0.009,0.300,-0.531,-0.043
10,-0.0257,-0.0268,-0.0003,-0.64,1.47,-52.73,0.009,0.123,-0.178,0.066
10,-0.0198,-0.0221,0.0015,-0.70,1.48,-52.68,0.009,0.136,-0.068,0.275
10,-0.0161,-0.0171,0.0019,-0.75,1.49,-52.63,0.009,0.229,-0.308,-0.152
10,-0.0186,-0.0200,0.0019,-0.72,1.48,-52.58,0.008,0.125,-0.191,-0.270
10,-0.0189,-0.0197,0.0020,-0.72,1.48,-52.52,0.008,0.274,-0.118,-0.366
10,-0.0134,-0.0152,0.0005,-0.77,1.49,-52.47,0.008,0.239,-0.454,-0.024
10,-0.0130,-0.0102,0.0006,-0.80,1.52,-52.42,0.008,-0.160,-0.252,0.254
10,-0.0119,-0.0198,0.0008,-0.76,1.45,-52.37,0.008,0.401,-0.123,-0.088
10,-0.0135,-0.0161,0.0010,-0.76,1.49,-52.32,0.008,0.272,-0.085,-0.176
10,-0.0159,-0.0118,0.0011,-0.77,1.53,-52.27,0.010,0.408,-0.086,-0.146
10,-0.0058,-0.0140,0.0015,-0.83,1.46,-52.22,0.010,0.107,-0.329,0.295
10,-0.0059,-0.0139,0.0049,-0.82,1.46,-52.17,0.010,-0.004,-0.087,0.084
10,-0.0094,-0.0083,0.0048,-0.83,1.51,-52.12,0.010,0.297,-0.460,0.037
10,-0.0099,-0.0070,0.0048,-0.83,1.52,-52.07,0.008,-0.134,-0.226,-0.120
10,-0.0129,-0.0124,0.0048,-0.79,1.50,-52.02,0.008,0.219,-0.283,0.072
10,-0.0081,-0.0115,0.0019,-0.82,1.49,-51.97,0.008,0.121,-0.402,-0.000
10,-0.0385,-0.0115,0.0016,-0.64,1.63,-51.91,0.008,0.140,-0.198,-0.305
10,-0.0347,-0.0138,0.0020,-0.65,1.60,-51.87,0.008,0.046,-0.355,-0.084
10,-0.0309,-0.0143,0.0024,-0.67,1.58,-51.82,0.007,-0.040,-0.448,0.037
10,-0.0210,-0.0067,0.0031,-0.77,1.57,-51.77,0.007,0.407,-0.339,-0.044
10,-0.0228,-0.0086,-0.0021,-0.75,1.57,-51.72,0.007,0.355,-0.350,-0.154
10,-0.0411,-0.0142,-0.0026,-0.61,1.63,-51.67,0.007,0.436,-0.413,-0.323
10,-0.0359,-0.0198,-0.0022,-0.62,1.57,-51.62,0.007,0.207,-0.269,-0.239
10,-0.0153,-0.0051,-0.0006,-0.82,1.56,-51.57,0.008,0.115,-0.194,-0.029
10,-0.0157,-0.0051,-0.0006,-0.82,1.56,-51.52,0.008,0.364,-0.099,-0.186
10,-0.0212,-0.0049,-0.0013,-0.78,1.59,-51.47,0.008,0.277,0.070,0.049
10,-0.0150,-0.0112,-0.0008,-0.79,1.52,-51.43,0.008,0.193,-0.184,0.123
10,-0.0129,-0.0048,-0.0006,-0.83,1.55,-51.38,0.008,0.124,-0.259,-0.152
10,0.0000,0.0000,0.0000,0.00,0.00,0.00,0.008,0.182,-0.252,0.027
10,0.0062,-0.0027,-0.0000,0.00,0.00,0.00,0.006,0.101,-0.262,-0.028
10,0.0095,-0.0042,-0.0000,0.00,0.00,-0.00,0.006,0.057,-0.033,-0.168
10,0.0127,-0.0302,-0.0002,0.27,0.01,0.00,0.006,0.179,-0.385,-0.142
11,0.0086,-0.0293,-0.0002,0.22,0.11,-0.00,0.006,0.141,0.031,0.246
11,0.0092,-0.0112,-0.0000,-0.16,0.15,-0.00,0.011,0.265,-0.236,-0.171
11,0.0122,-0.0134,-0.0001,-0.14,0.14,-0.00,0.011,0.281,-0.286,0.144
11,0.0071,-0.0167,0.0020,-0.10,0.32,-0.00,0.011,0.346,-0.301,0.049
11,0.0183,-0.0071,0.0020,-0.38,0.08,-0.00,0.011,0.052,-0.230,0.235
11,0.0176,-0.0149,0.0021,-0.19,0.16,-0.00,0.011,0.277,-0.197,-0.072
11,0.0185,-0.0199,0.0020,-0.09,0.20,-0.00,0.011,0.151,-0.335,0.266
11,0.0193,-0.0215,0.0020,-0.08,0.25,-0.00,0.006,-0.008,-0.120,-0.086
11,0.0131,-0.0213,0.0022,-0.13,0.48,-0.00,0.006,0.239,-0.334,0.231
11,0.0242,-0.0383,-0.0025,0.32,0.22,-0.00,0.006,0.416,-0.140,0.174
11,0.0209,-0.0280,-0.0019,-0.02,0.38,-0.00,0.006,0.218,-0.236,0.082
11,0.0190,-0.0268,-0.0019,-0.09,0.49,-0.00,0.008,0.290,-0.340,-0.156
11,0.0168,-0.0087,-0.0016,-0.61,0.59,0.00,0.008,0.064,-0.294,0.104
11,0.0126,-0.0067,-0.0013,-0.68,0.74,0.00,0.008,0.267,-0.351,0.226
11,-0.0305,0.0089,-0.0022,-1.09,1.89,0.02,0.008,0.294,-0.036,-0.027
11,-0.0312,0.0090,-0.0020,-1.09,1.89,0.02,0.008,-0.058,-0.367,0.037
11,-0.0243,0.0040,-0.0013,-0.96,1.70,0.01,0.008,0.303,-0.227,-0.021
11,-0.0307,0.0014,-0.0017,-0.89,1.85,0.01,0.008,0.409,-0.455,-0.287
11,-0.0196,0.0012,-0.0009,-0.88,1.58,0.01,0.008,0.116,-0.249,0.126
11,-0.0351,-0.0441,-0.0017,0.15,1.93,-0.02,0.008,0.204,-0.369,0.002
11,-0.0348,-0.0331,-0.0009,-0.13,1.90,-0.01,0.008,0.791,-0.404,-0.344
11,-0.0357,-0.0347,-0.0009,-0.13,1.90,-0.01,0.008,0.223,-0.354,-0.029
11,-0.0394,-0.0050,0.0004,-0.79,1.96,0.01,0.008,0.269,-0.336,0.071
11,-0.0450,-0.0047,-0.0001,-0.79,2.06,0.01,0.008,0.204,-0.182,-0.190
11,-0.0325,0.0064,0.0005,-1.01,1.80,0.02,0.008,0.319,-0.099,0.042
11,-0.0381,0.0014,0.0004,-0.91,1.90,0.01,0.008,0.208,-0.131,0.062
11,-0.0349,-0.0052,0.0005,-0.78,1.83,0.01,0.009,-0.091,-0.264,0.361
11,-0.0275,-0.0110,0.0009,-0.67,1.69,0.00,0.009,0.569,-0.541,-0.372
11,-0.0003,-0.0451,0.0011,-0.06,1.19,-0.01,0.009,0.073,-0.136,0.075
11,-0.0059,-0.1041,-0.0011,0.96,1.30,-0.04,0.009,0.506,-0.036,0.146
11,-0.0130,-0.1093,-0.0014,1.00,1.43,-0.05,0.009,0.440,-0.081,-0.166
11,-0.0119,-0.0967,0.0012,0.72,1.41,-0.04,0.013,0.135,-0.603,-0.046
11,-0.0052,-0.0929,0.0024,0.61,1.30,-0.04,0.013,0.292,-0.540,-0.167
11,-0.0071,-0.0861,0.0137,0.46,1.33,-0.03,0.013,0.093,-0.057,0.043
11,-0.0101,-0.0955,0.0132,0.57,1.38,-0.03,0.013,-0.022,-0.442,0.179
11,-0.0021,-0.0770,0.0155,0.24,1.26,-0.03,0.013,0.139,-0.298,0.103
12,-0.0052,-0.0707,0.0164,0.11,1.31,-0.02,0.009,0.050,0.125,-0.012
12,-0.0062,-0.0751,0.0163,0.16,1.33,-0.02,0.009,0.017,-0.727,-0.066
12,-0.0106,-0.0709,0.0170,0.06,1.41,-0.02,0.009,0.297,-0.177,0.025
12,-0.0076,-0.1004,0.0086,0.48,1.37,-0.03,0.009,0.250,-0.225,0.079
12,-0.0001,-0.0865,0.0104,0.24,1.27,-0.02,0.009,0.295,-0.382,-0.267
12,-0.0297,-0.0817,0.0111,0.14,1.70,-0.02,0.008,-0.097,-0.206,0.267
12,-0.0301,-0.0836,0.0111,0.15,1.70,-0.02,0.008,0.205,-0.302,-0.205
12,-0.0381,-0.0832,0.0039,0.12,1.81,-0.01,0.008,0.319,-0.144,-0.135
12,-0.0338,-0.0453,0.0065,-0.43,1.74,0.01,0.008,0.265,-0.466,0.209
12,-0.0366,-0.0013,0.0067,-1.04,1.78,0.03,0.008,0.258,-0.267,-0.141
12,-0.0390,-0.0012,0.0068,-1.03,1.80,0.03,0.010,-0.059,-0.313,-0.021
22,-0.0332,-0.0011,0.0070,-1.03,1.72,0.03,0.010,0.352,-0.385,0.063
32,-0.0327,0.0009,0.0070,-1.05,1.71,0.03,0.010,0.256,-0.698,-0.267
42,-0.0228,-0.0367,0.0070,-0.56,1.58,0.01,0.010,0.353,-0.338,-0.070
52,-0.0151,-0.0204,0.0075,-0.77,1.48,0.02,0.010,0.016,-0.114,0.005
62,-0.0189,0.0210,0.0073,-1.29,1.53,0.04,0.009,0.541,-0.250,0.044
72,-0.0178,0.0141,0.0079,-1.19,1.51,0.03,0.009,0.346,-0.348,-0.012
82,-0.0166,0.0123,0.0037,-1.15,1.50,0.03,0.009,0.110,-0.434,0.030
92,-0.0187,0.0074,0.0041,-1.08,1.52,0.03,0.009,-0.010,-0.665,-0.109
102,-0.0161,0.0191,0.0039,-1.21,1.49,0.04,0.009,0.074,-0.545,0.244
112,-0.0150,0.0141,0.0043,-1.14,1.48,0.03,0.008,0.518,-0.711,-0.277
122,-0.0151,0.0145,0.0044,-1.14,1.48,0.03,0.008,0.240,-0.537,-0.151
132,-0.0124,0.0062,0.0048,-1.04,1.46,0.03,0.008,0.188,-0.266,-0.147
142,-0.0097,-0.0106,-0.0009,-0.84,1.43,0.02,0.008,0.402,-0.325,-0.023
152,0.0271,-0.0339,-0.0011,-0.57,1.03,0.02,0.008,-0.013,-0.236,0.002
162,0.0320,-0.0319,-0.0012,-0.59,0.99,0.02,0.004,0.334,-0.329,0.199
172,0.0247,-0.0360,-0.0010,-0.55,1.08,0.02,0.004,0.232,-0.063,-0.055
182,0.0254,-0.0240,-0.0119,-0.69,1.08,0.02,0.004,0.071,-0.501,-0.138
192,0.0230,-0.0430,-0.0121,-0.49,1.12,0.02,0.004,0.314,-0.520,-0.003
202,0.0151,-0.0537,-0.0124,-0.38,1.21,0.01,0.004,0.093,-0.458,0.082
212,0.0201,-0.0385,-0.0111,-0.55,1.16,0.01,0.010,0.411,-0.315,-0.065
222,0.0151,-0.0355,-0.0106,-0.59,1.22,0.02,0.010,0.100,-0.067,0.119
232,0.0214,-0.0435,-0.0110,-0.51,1.17,0.01,0.010,0.427,-0.072,-0.170
242,0.0190,-0.0469,-0.0037,-0.48,1.20,0.01,0.010,0.092,-0.372,-0.100
251,0.0140,-0.0571,-0.0041,-0.39,1.25,0.01,0.010,0.303,-0.505,0.015
262,0.0121,-0.0626,-0.0042,-0.34,1.27,0.01,0.010,0.263,0.021,0.083
272,0.0145,-0.0486,-0.0024,-0.48,1.26,0.01,0.010,0.080,-0.270,-0.288
282,0.0137,-0.0450,0.0020,-0.52,1.27,0.01,0.010,0.214,-0.128,0.101
292,0.0132,-0.0296,0.0028,-0.68,1.28,0.02,0.010,0.425,-0.370,-0.196
302,-0.0285,-0.0255,0.0030,-0.72,1.68,0.01,0.010,0.024,-0.216,0.155
312,-0.0271,-0.0282,0.0029,-0.69,1.67,0.01,0.010,0.480,-0.102,-0.366
322,-0.0220,-0.0179,0.0035,-0.79,1.61,0.01,0.010,-0.040,-0.378,0.172
332,-0.0185,-0.0160,0.0038,-0.81,1.58,0.01,0.010,0.302,-0.456,0.091
342,-0.0292,-0.0346,0.0048,-0.64,1.68,0.01,0.010,0.186,-0.031,0.128
352,-0.0238,-0.0203,0.0057,-0.77,1.63,0.01,0.010,0.231,-0.404,0.113
362,-0.0202,-0.0232,0.0059,-0.75,1.59,0.01,0.008,0.132,-0.348,0.077
372,-0.0194,-0.0184,0.0062,-0.79,1.58,0.02,0.008,0.264,-0.037,-0.138
382,-0.0183,-0.0225,0.0020,-0.75,1.58,0.02,0.008,0.355,0.146,-0.141
392,-0.0201,-0.0103,0.0024,-0.87,1.59,0.02,0.008,0.263,-0.292,0.080
402,-0.0191,-0.0199,0.0025,-0.78,1.58,0.02,0.008,0.331,-0.383,0.063
412,-0.0158,-0.0104,0.0029,-0.86,1.55,0.02,0.010,0.068,-0.650,0.325
422,-0.0164,-0.0147,0.0031,-0.82,1.55,0.02,0.010,0.606,-0.280,-0.187
432,-0.0106,-0.0202,0.0033,-0.77,1.50,0.02,0.010,0.150,-0.462,0.123
442,-0.0105,-0.0204,0.0045,-0.77,1.50,0.02,0.010,0.157,-0.098,-0.127
452,-0.0126,-0.0168,0.0045,-0.80,1.52,0.02,0.010,0.147,-0.356,0.017
462,-0.0134,-0.0136,0.0045,-0.83,1.53,0.02,0.005,0.276,0.038,0.053
471,-0.0127,-0.0171,0.0045,-0.80,1.52,0.02,0.005,0.237,-0.076,0.254
482,-0.0124,-0.0176,-0.0058,-0.80,1.52,0.02,0.005,0.143,-0.179,-0.069
492,-0.0124,-0.0180,-0.0059,-0.79,1.52,0.03,0.005,0.410,-0.406,0.180
502,-0.0116,-0.0157,-0.0058,-0.81,1.51,0.03,0.005,0.016,-0.147,0.032
512,-0.0115,-0.0161,-0.0058,-0.81,1.51,0.03,0.008,0.173,-0.227,-0.127
522,-0.0122,-0.0124,-0.0058,-0.84,1.52,0.03,0.008,0.354,-0.383,-0.234
531,-0.0170,-0.0284,-0.0063,-0.70,1.57,0.02,0.008,-0.040,-0.407,-0.059
541,-0.0187,-0.0352,-0.0056,-0.64,1.58,0.02,0.008,0.245,-0.452,-0.247
552,-0.0124,-0.0006,-0.0039,-0.94,1.53,0.03,0.008,0.486,-0.180,-0.277
562,-0.0118,0.0021,-0.0038,-0.96,1.52,0.03,0.009,0.051,-0.165,0.119
572,-0.0125,-0.0179,-0.0036,-0.78,1.53,0.02,0.009,0.271,-0.215,0.061
582,-0.0105,0.0029,-0.0008,-0.96,1.51,0.03,0.009,-0.044,-0.262,0.018
592,-0.0126,0.0172,-0.0010,-1.07,1.53,0.03,0.009,0.102,-0.302,-0.101
601,-0.0107,0.0150,-0.0007,-1.05,1.51,0.03,0.009,0.218,-0.442,-0.167
612,-0.0102,0.0156,-0.0005,-1.05,1.51,0.03,0.009,0.088,-0.392,-0.217
621,-0.0110,0.0136,-0.0002,-1.03,1.52,0.03,0.008,0.061,-0.486,-0.023
631,-0.0094,0.0155,-0.0000,-1.04,1.51,0.03,0.008,0.261,0.088,-0.182
641,-0.0065,0.0173,-0.0006,-1.05,1.48,0.03,0.008,0.336,-0.624,-0.319
651,-0.0059,0.0152,-0.0003,-1.03,1.48,0.03,0.008,0.336,-0.401,-0.025
662,-0.0092,0.0120,-0.0002,-1.00,1.51,0.03,0.005,0.070,-0.149,-0.163
672,-0.0112,0.0136,-0.0002,-1.01,1.53,0.03,0.005,0.351,-0.172,0.005
682,-0.0093,0.0151,-0.0066,-1.02,1.52,0.03,0.005,0.142,-0.243,-0.068
691,-0.0088,0.0078,-0.0064,-0.96,1.51,0.02,0.005,0.214,-0.412,-0.162
701,-0.0089,0.0078,-0.0065,-0.95,1.51,0.02,0.005,0.290,-0.436,-0.263
712,-0.0085,0.0100,-0.0064,-0.97,1.51,0.03,0.007,0.049,-0.375,0.176
722,-0.0093,0.0096,-0.0061,-0.96,1.52,0.02,0.007,0.040,-0.251,0.117
732,-0.0089,0.0407,-0.0054,-1.21,1.52,0.03,0.007,0.452,-0.104,-0.022
741,-0.0061,0.0451,-0.0055,-1.23,1.49,0.03,0.007,0.051,-0.263,0.315
752,-0.0008,0.0825,-0.0083,-1.53,1.45,0.04,0.007,0.043,-0.349,-0.022
761,0.0006,0.0846,-0.0083,-1.53,1.44,0.05,0.009,-0.012,-0.138,0.331
771,-0.0007,0.0806,-0.0073,-1.49,1.45,0.04,0.009,0.089,-0.423,0.304
781,0.0066,0.0772,-0.0001,-1.45,1.39,0.05,0.009,0.300,-0.343,0.090
791,0.0064,0.0680,0.0012,-1.36,1.40,0.04,0.009,0.335,-0.489,-0.012
802,0.0014,0.0696,0.0013,-1.37,1.44,0.04,0.009,0.335,-0.226,-0.436
811,0.0012,0.0627,0.0021,-1.30,1.45,0.04,0.007,0.309,-0.389,-0.135
821,-0.0002,0.0597,0.0025,-1.27,1.46,0.04,0.007,0.269,0.156,-0.098
832,0.0068,0.0591,0.0028,-1.25,1.40,0.04,0.007,0.206,-0.137,0.001
842,0.0069,0.0595,0.0010,-1.25,1.40,0.04,0.007,0.301,-0.137,-0.300
852,-0.0021,0.0540,0.0017,-1.19,1.48,0.03,0.007,0.266,-0.257,-0.061
861,0.0041,0.0562,0.0017,-1.20,1.43,0.03,0.009,0.277,-0.153,0.279
871,0.0042,0.0566,0.0016,-1.20,1.43,0.03,0.009,0.465,-0.264,-0.037
881,0.0066,0.0512,0.0050,-1.15,1.41,0.03,0.009,0.436,-0.424,0.111
891,0.0063,0.0395,0.0059,-1.05,1.41,0.03,0.009,0.229,-0.083,0.210
901,-0.0052,0.0474,0.0057,-1.10,1.51,0.03,0.009,0.710,-0.003,-0.212
911,-0.0013,0.0498,0.0057,-1.12,1.48,0.03,0.008,0.247,-0.560,-0.019
921,-0.0013,0.0433,0.0062,-1.06,1.48,0.03,0.008,0.179,-0.076,0.328
931,-0.0001,0.0335,0.0068,-0.97,1.47,0.02,0.008,0.168,-0.090,-0.013
941,-0.0100,0.0096,0.0057,-0.78,1.55,0.01,0.008,0.619,-0.200,-0.199
951,-0.0159,0.0089,0.0058,-0.77,1.60,0.01,0.008,0.144,-0.107,0.027
962,-0.0131,0.0093,0.0059,-0.77,1.57,0.01,0.010,0.317,-0.656,-0.280
972,-0.0054,0.0323,0.0062,-0.96,1.51,0.02,0.010,0.146,-0.373,0.004
981,-0.0028,0.0306,0.0087,-0.94,1.49,0.02,0.010,0.358,-0.269,0.049
991,-0.0029,0.0307,0.0088,-0.94,1.49,0.02,0.010,0.065,-0.481,-0.022
1002,-0.0028,0.0313,0.0087,-0.94,1.49,0.02,0.010,0.032,-0.265,0.281
1011,-0.0026,0.0280,0.0090,-0.91,1.49,0.02,0.010,0.333,-0.320,-0.183
1022,-0.0037,0.0264,0.0091,-0.89,1.50,0.02,0.010,0.183,-0.134,-0.138
1031,-0.0013,0.0040,0.0100,-0.71,1.48,0.02,0.010,-0.120,-0.274,0.225
1042,-0.0001,0.0037,0.0100,-0.71,1.47,0.02,0.010,0.325,-0.083,-0.162
1051,0.0048,0.0210,0.0099,-0.85,1.44,0.02,0.010,0.312,-0.115,0.069
1061,0.0045,0.0150,0.0101,-0.80,1.44,0.02,0.013,0.260,-0.451,0.158
1071,0.0048,0.0170,0.0105,-0.81,1.44,0.02,0.013,0.411,-0.074,0.135
1081,0.0019,0.0133,0.0160,-0.78,1.47,0.02,0.013,-0.105,-0.314,0.628
1091,0.0028,0.0124,0.0160,-0.77,1.46,0.02,0.013,0.133,-0.509,-0.063
1101,0.0025,0.0138,0.0160,-0.78,1.46,0.02,0.013,0.362,-0.114,0.466
1112,0.0036,0.0091,0.0162,-0.75,1.46,0.03,0.013,0.284,-0.187,0.045
1121,0.0057,0.0081,0.0164,-0.74,1.44,0.03,0.011,0.358,-0.234,-0.003
1132,-0.0281,-0.0060,0.0133,-0.63,1.71,0.02,0.011,0.088,-0.093,-0.075
1141,-0.0080,-0.0119,0.0145,-0.59,1.55,0.02,0.011,0.194,-0.080,-0.067
1151,-0.0029,-0.0118,0.0148,-0.59,1.51,0.02,0.011,0.282,-0.401,-0.015
1161,-0.0086,-0.0152,0.0148,-0.56,1.55,0.02,0.009,0.079,-0.213,-0.042
1171,-0.0024,-0.0104,0.0152,-0.60,1.50,0.02,0.009,0.128,-0.252,0.113
1181,-0.0021,-0.0094,0.0074,-0.61,1.51,0.03,0.009,0.197,-0.278,-0.149
1191,-0.0181,-0.0158,0.0071,-0.56,1.63,0.02,0.009,0.154,-0.271,-0.065
1201,-0.0038,-0.0054,0.0080,-0.65,1.52,0.02,0.009,-0.034,-0.473,0.137
1211,0.0180,0.0239,0.0083,-0.89,1.34,0.03,0.009,0.086,-0.140,-0.242
1221,0.0173,0.0214,0.0085,-0.86,1.35,0.03,0.009,0.255,-0.238,-0.287
1231,0.0214,0.0199,0.0020,-0.85,1.33,0.03,0.009,0.097,-0.250,-0.027
1241,0.0225,0.0222,0.0019,-0.87,1.32,0.03,0.009,0.507,-0.151,-0.166
1251,0.0147,0.0229,0.0022,-0.87,1.39,0.03,0.009,0.297,0.066,0.278
1261,0.0139,0.0170,0.0026,-0.83,1.39,0.03,0.010,-0.228,-0.408,0.153
1271,0.0139,0.0167,0.0027,-0.82,1.39,0.03,0.010,0.100,-0.379,-0.373
1281,0.0156,0.0167,0.0009,-0.82,1.38,0.03,0.010,0.204,-0.342,-0.246
1291,0.0172,0.0202,0.0008,-0.85,1.37,0.03,0.010,0.330,-0.391,-0.058
1301,0.0105,0.0142,0.0011,-0.79,1.43,0.03,0.010,0.284,-0.310,-0.072
1311,0.0111,0.0131,0.0011,-0.79,1.43,0.03,0.013,0.046,-0.591,0.030
1321,0.0072,0.0118,0.0012,-0.78,1.46,0.03,0.013,0.276,-0.561,-0.223
1331,0.0127,-0.0031,0.0014,-0.66,1.42,0.02,0.013,0.131,-0.115,-0.117
1341,0.0127,-0.0035,0.0068,-0.65,1.42,0.02,0.013,0.157,-0.364,0.035
1351,0.0243,-0.0013,0.0066,-0.67,1.33,0.02,0.013,0.425,-0.411,-0.185
1361,0.0172,0.0043,0.0070,-0.72,1.40,0.02,0.010,0.347,-0.268,0.051
1371,0.0115,0.0036,0.0071,-0.71,1.44,0.02,0.010,0.371,-0.392,0.159
1381,0.0145,-0.0006,0.0029,-0.68,1.42,0.02,0.010,0.085,-0.404,-0.235
1391,0.0080,-0.0045,0.0031,-0.65,1.48,0.02,0.010,0.217,-0.161,-0.210
1401,-0.0137,-0.0342,0.0028,-0.40,1.66,0.02,0.010,0.212,-0.095,-0.042
1412,-0.0146,-0.0346,0.0028,-0.41,1.66,0.02,0.013,0.286,-0.240,0.031
1421,-0.0166,-0.0383,0.0027,-0.38,1.68,0.02,0.013,0.201,-0.258,-0.003
1431,-0.0184,-0.0428,0.0024,-0.35,1.69,0.02,0.013,0.088,0.025,0.285
1441,-0.0003,-0.0369,0.0074,-0.41,1.54,0.02,0.013,-0.117,-0.097,0.062
1451,-0.0144,-0.0312,0.0078,-0.46,1.66,0.02,0.013,0.135,-0.296,0.465
1461,-0.0129,-0.0337,0.0079,-0.44,1.64,0.02,0.010,0.058,-0.495,0.151
1471,-0.0136,-0.0233,0.0089,-0.53,1.64,0.02,0.010,0.115,-0.404,-0.303
1481,-0.0163,-0.0259,0.0034,-0.51,1.67,0.02,0.010,0.477,-0.499,0.201
0,-0.0032,-0.0376,0.0037,-0.42,1.56,0.02,0.010,0.162,-0.610,-0.328
10,-0.0067,-0.0432,0.0034,-0.38,1.59,0.02,0.010,0.752,0.024,-0.036
20,-0.0055,-0.0442,0.0034,-0.38,1.58,0.02,0.010,0.371,-0.408,-0.248
30,-0.0090,-0.0416,0.0036,-0.40,1.61,0.02,0.010,0.785,-1.193,-0.010
40,-0.0041,-0.0423,0.0035,-0.39,1.55,0.02,0.010,0.428,-1.189,-0.068
50,-0.0028,-0.0345,-0.0003,-0.43,1.52,0.02,0.010,0.721,-0.703,-0.242
60,-0.0063,-0.0319,-0.0000,-0.44,1.54,0.01,0.010,0.196,-1.622,-0.065
69,-0.0089,-0.0312,-0.0006,-0.44,1.54,0.01,0.010,-0.649,-0.792,-0.105
80,-0.0157,-0.0237,-0.0006,-0.49,1.58,0.02,0.010,0.593,-0.146,0.627
90,-0.0222,-0.0252,-0.0026,-0.47,1.61,0.02,0.010,0.082,-0.606,-0.373
100,-0.0176,-0.0181,-0.0028,-0.51,1.56,0.01,0.010,1.850,-0.674,-0.063
110,-0.0204,-0.0317,-0.0031,-0.40,1.57,0.01,0.010,-2.577,4.873,-0.069
120,-0.0219,-0.0209,-0.0016,-0.48,1.57,0.01,0.010,-8.358,8.426,-3.743
129,-0.0233,-0.0049,-0.0014,-0.59,1.56,0.01,0.008,-17.131,15.557,-2.090
139,-0.0251,-0.0067,-0.0021,-0.58,1.54,0.02,0.008,-11.064,11.814,3.014
150,-0.0201,-0.0240,-0.0098,-0.51,1.42,-0.02,0.008,-5.768,2.374,8.374
160,-0.0210,-0.0156,-0.0091,-0.72,1.27,-0.04,0.008,1.663,-8.359,5.859
169,-0.0152,0.0116,-0.0068,-1.07,1.06,-0.03,0.009,4.971,-7.479,4.481
180,-0.0174,0.0130,-0.0065,-1.14,1.00,0.04,0.009,-1.089,-8.517,4.743
190,-0.0223,0.0150,-0.0085,-1.15,1.07,0.11,0.009,-9.137,-10.985,4.895
200,-0.0291,0.0156,-0.0081,-1.11,1.19,0.16,0.009,-9.780,-15.075,6.910
210,-0.0237,0.0170,-0.0060,-1.08,1.20,0.21,0.009,-12.875,-23.986,4.950
220,-0.0278,0.0189,-0.0019,-1.15,1.33,0.26,0.010,-13.567,-27.028,3.117
230,-0.0226,0.0381,0.0063,-1.38,1.39,0.33,0.010,-14.011,-18.687,2.899
239,-0.0234,0.0367,0.0193,-1.48,1.59,0.39,0.010,-10.271,-13.542,1.398
250,0.0034,0.0614,0.0359,-1.81,1.62,0.44,0.010,-12.609,-12.796,-3.255
260,-0.0074,0.0799,0.0500,-2.08,1.91,0.48,0.010,-9.346,-11.164,-4.474
270,-0.0110,0.0906,0.0657,-2.28,2.06,0.51,0.002,7.573,-5.058,-7.171
280,-0.0136,0.0982,0.0834,-2.41,2.18,0.50,0.002,20.844,-11.845,-6.538
290,-0.0153,0.1118,0.0786,-2.59,2.28,0.46,0.002,22.653,-11.141,-7.393
300,-0.0130,0.1156,0.0974,-2.56,2.29,0.40,0.002,19.691,-4.915,-6.016
309,-0.0260,0.1828,0.1026,-2.90,2.46,0.35,0.002,15.454,7.281,-6.722
319,-0.0297,0.1990,0.1186,-2.76,2.57,0.30,0.000,8.785,15.065,-6.787
330,-0.0434,0.2283,0.1260,-2.75,2.73,0.25,0.000,6.407,17.692,-6.261
339,-0.0620,0.2293,0.1450,-2.54,2.80,0.18,0.000,8.511,15.420,-7.726
350,-0.0746,0.2427,0.1404,-2.50,2.73,0.10,0.000,11.796,18.924,-7.648
360,-0.0974,0.2398,0.1571,-2.36,2.69,0.01,0.000,9.570,16.657,-8.754
370,-0.1200,0.2416,0.1709,-2.26,2.67,-0.08,0.009,13.290,18.870,-9.294
380,-0.1309,0.2390,0.1885,-2.09,2.54,-0.18,0.009,5.725,22.007,-7.517
390,-0.1504,0.2456,0.1910,-2.01,2.50,-0.27,0.009,10.731,28.405,-7.795
399,-0.1615,0.2411,0.2066,-1.83,2.37,-0.38,0.009,11.765,29.216,-6.622
410,-0.1880,0.2438,0.2149,-1.73,2.34,-0.49,0.009,15.297,30.962,-5.831
420,-0.1926,0.2385,0.2315,-1.55,2.07,-0.59,0.009,17.051,29.082,-5.746
430,-0.2081,0.2383,0.2411,-1.41,1.86,-0.68,0.027,19.684,25.815,-5.621
440,-0.2126,0.2341,0.2554,-1.21,1.57,-0.75,0.027,20.113,22.254,-4.575
450,-0.2268,0.2355,0.2759,-1.03,1.35,-0.83,0.027,14.572,16.702,-3.016
460,-0.2274,0.2289,0.2885,-0.78,1.07,-0.89,0.027,22.288,14.213,-2.384
469,-0.2319,0.2287,0.2957,-0.56,0.85,-0.94,0.052,14.556,12.739,-1.147
480,-0.2286,0.2217,0.3067,-0.35,0.62,-0.98,0.052,6.909,15.817,-0.264
490,-0.2380,0.2256,0.3405,-0.16,0.53,-1.00,0.052,-0.191,17.930,1.754
499,-0.2314,0.2180,0.3496,0.07,0.34,-1.02,0.052,-7.270,19.448,3.294
510,-0.2361,0.2109,0.3545,0.22,0.22,-1.03,0.052,-9.095,13.169,3.639
520,-0.2310,0.2027,0.3626,0.30,-0.01,-1.01,0.077,-10.438,13.099,4.987
530,-0.2223,0.1943,0.3712,0.32,-0.27,-0.98,0.077,-11.080,8.307,5.447
539,-0.2141,0.2061,0.4035,0.15,-0.50,-0.94,0.077,-7.393,9.686,6.801
549,-0.2058,0.1965,0.4094,0.12,-0.70,-0.90,0.077,-3.097,8.308,7.239
560,-0.1978,0.1912,0.4140,0.06,-0.85,-0.84,0.077,2.916,1.610,7.447
570,-0.1948,0.1823,0.4175,0.04,-0.95,-0.77,0.105,4.722,-5.055,7.383
579,-0.1870,0.1769,0.4205,0.05,-1.10,-0.70,0.105,3.105,-10.309,7.883
589,-0.1797,0.1731,0.4519,0.10,-1.18,-0.62,0.105,3.058,-13.746,8.279
599,-0.1809,0.1651,0.4501,0.19,-1.13,-0.54,0.105,5.085,-17.484,9.101
609,-0.1732,0.1585,0.4488,0.28,-1.09,-0.46,0.105,3.479,-16.794,8.470
620,-0.1643,0.1577,0.4469,0.32,-1.01,-0.38,0.120,1.819,-15.050,9.667
630,-0.1570,0.1529,0.4458,0.40,-0.88,-0.29,0.120,1.304,-11.424,10.756
639,-0.1513,0.1453,0.4442,0.50,-0.73,-0.20,0.120,5.242,-6.252,10.199
649,-0.1471,0.1393,0.4378,0.56,-0.59,-0.10,0.120,5.627,-0.804,9.688
659,-0.1423,0.1356,0.4324,0.60,-0.49,0.00,0.120,3.178,5.038,10.300
670,-0.1369,0.1304,0.4260,0.68,-0.45,0.11,0.139,3.373,10.105,9.059
679,-0.1227,0.1155,0.4212,0.82,-0.54,0.22,0.139,6.770,12.642,8.793
689,-0.1164,0.1111,0.4050,0.89,-0.61,0.32,0.139,2.757,14.040,8.116
700,-0.1155,0.1098,0.3963,0.92,-0.69,0.41,0.139,3.671,14.407,8.316
709,-0.1085,0.1051,0.3883,0.99,-0.86,0.50,0.139,2.191,12.278,7.629
719,-0.1055,0.1010,0.3795,1.05,-1.00,0.59,0.154,3.925,8.781,6.913
729,-0.1003,0.0959,0.3703,1.11,-1.17,0.68,0.154,4.659,4.700,6.010
739,-0.0954,0.0930,0.3613,1.14,-1.32,0.76,0.154,5.420,1.153,4.937
749,-0.0887,0.0880,0.3382,1.20,-1.45,0.83,0.154,2.789,-2.926,3.978
759,-0.0783,0.0753,0.3300,1.33,-1.57,0.91,0.154,3.758,-5.994,3.471
769,-0.0744,0.0705,0.3204,1.40,-1.60,0.97,0.177,-0.309,-8.911,3.028
779,-0.0719,0.0684,0.3100,1.44,-1.58,1.01,0.177,-0.306,-8.909,1.714
789,-0.0694,0.0663,0.3041,1.48,-1.53,1.05,0.177,-3.296,-12.393,1.340
799,-0.0677,0.0610,0.2941,1.51,-1.44,1.09,0.177,-4.274,-8.560,0.564
809,-0.0641,0.0560,0.2844,1.53,-1.36,1.11,0.177,-5.613,-9.678,-0.348
820,-0.0599,0.0501,0.2749,1.52,-1.26,1.12,0.184,-6.326,-11.286,-1.404
829,-0.0507,0.0478,0.2658,1.49,-1.22,1.11,0.184,-6.231,-9.985,-2.360
839,-0.0554,0.0466,0.2566,1.42,-1.08,1.12,0.184,-5.991,-5.517,-3.268
850,-0.0526,0.0317,0.2361,1.45,-0.98,1.13,0.184,-8.736,-5.048,-3.209
860,-0.0484,0.0354,0.2271,1.34,-0.90,1.09,0.184,-5.551,-2.120,-4.255
869,-0.0463,0.0372,0.2175,1.25,-0.84,1.05,0.196,-4.796,-0.180,-4.425
879,-0.0449,0.0307,0.2080,1.21,-0.79,1.02,0.196,-4.576,1.771,-4.945
889,-0.0447,0.0294,0.1935,1.13,-0.75,0.98,0.196,-6.351,2.427,-5.266
899,-0.0412,0.0262,0.1848,1.09,-0.76,0.94,0.196,0.307,3.127,-6.571
909,-0.0400,0.0245,0.1763,1.04,-0.77,0.89,0.196,-1.082,3.559,-6.753
919,-0.0388,0.0229,0.1679,0.98,-0.78,0.84,0.204,-3.838,1.122,-6.098
929,-0.0350,0.0196,0.1596,0.98,-0.83,0.77,0.204,-0.232,0.885,-6.992
939,-0.0300,0.0165,0.1469,0.98,-0.89,0.70,0.204,-0.882,-0.822,-6.490
949,-0.0286,0.0149,0.1389,0.96,-0.91,0.64,0.204,2.251,-1.574,-6.559
959,-0.0263,0.0108,0.1314,0.97,-0.93,0.57,0.204,3.804,-2.342,-6.220
969,-0.0229,0.0090,0.1245,0.96,-0.93,0.50,0.211,3.245,0.597,-4.547
979,-0.0173,0.0069,0.1181,0.99,-0.95,0.43,0.211,4.579,2.076,-3.332
989,-0.0157,0.0054,0.1104,1.04,-0.94,0.37,0.211,1.448,2.185,-2.633
999,-0.0097,0.0032,0.1041,1.09,-0.97,0.31,0.211,0.088,2.615,-2.067
1009,-0.0052,0.0034,0.0977,1.12,-1.02,0.27,0.211,-3.009,4.260,-1.004
1019,-0.0018,-0.0061,0.0911,1.19,-1.05,0.25,0.217,-3.536,3.491,-0.231
1029,0.0015,-0.0079,0.0852,1.19,-1.09,0.23,0.217,-5.073,2.175,0.197
1039,0.0074,-0.0093,0.0796,1.17,-1.16,0.21,0.217,-4.970,0.506,0.853
1049,0.0093,-0.0112,0.0763,1.13,-1.19,0.21,0.217,-7.012,-1.866,1.846
1059,0.0126,-0.0124,0.0707,1.09,-1.22,0.21,0.217,-7.631,-4.004,0.879
1069,0.0146,-0.0162,0.0652,1.06,-1.24,0.22,0.221,-3.194,-5.956,-0.182
1080,0.0166,-0.0179,0.0602,1.01,-1.23,0.24,0.221,-4.858,-7.833,0.145
1089,0.0202,-0.0208,0.0580,0.97,-1.22,0.24,0.221,-3.875,-9.772,-0.164
1099,0.0263,-0.0225,0.0536,0.92,-1.19,0.24,0.221,-1.212,-9.750,-0.027
1109,0.0283,-0.0240,0.0492,0.87,-1.11,0.24,0.221,-1.673,-10.065,0.887
1119,0.0309,-0.0243,0.0451,0.83,-1.03,0.23,0.221,-1.165,-9.994,1.275
1129,0.0387,-0.0260,0.0411,0.82,-0.98,0.23,0.222,0.150,-8.965,1.128
1139,0.0408,-0.0265,0.0374,0.80,-0.88,0.23,0.222,0.989,-8.257,1.381
1149,0.0427,-0.0283,0.0322,0.80,-0.78,0.24,0.222,3.570,-3.153,0.622
1159,0.0444,-0.0287,0.0288,0.79,-0.69,0.25,0.222,3.772,-1.461,0.701
1169,0.0517,-0.0307,0.0254,0.80,-0.64,0.25,0.218,7.379,1.724,0.087
1179,0.0551,-0.0316,0.0221,0.83,-0.62,0.25,0.218,6.244,5.554,-1.054
1189,0.0556,-0.0336,0.0065,0.86,-0.60,0.26,0.218,7.029,7.795,0.718
1199,0.0566,-0.0350,0.0038,0.92,-0.62,0.27,0.218,6.010,9.258,0.562
1210,0.0610,-0.0363,0.0011,0.98,-0.69,0.25,0.218,10.394,11.125,-0.354
1219,0.0643,-0.0376,-0.0010,1.06,-0.78,0.25,0.218,7.534,9.994,-0.080
1229,0.0656,-0.0394,-0.0026,1.13,-0.87,0.26,0.218,6.310,8.030,-0.073
1239,0.0724,-0.0413,-0.0040,1.23,-1.02,0.25,0.218,2.908,2.702,0.387
1248,0.0775,-0.0429,-0.0125,1.30,-1.14,0.25,0.218,-2.096,-0.946,1.536
1260,0.0793,-0.0444,-0.0136,1.37,-1.22,0.25,0.218,-3.282,-1.017,2.476
1269,0.0820,-0.0499,-0.0150,1.42,-1.26,0.26,0.216,-6.075,-3.805,4.281
1279,0.0842,-0.0523,-0.0159,1.41,-1.25,0.28,0.216,-7.636,-5.284,4.804
1288,0.0878,-0.0539,-0.0236,1.37,-1.25,0.30,0.216,-7.122,-4.463,5.577
1298,0.0926,-0.0551,-0.0243,1.32,-1.23,0.33,0.216,-8.584,-4.709,6.997
1309,0.0939,-0.0541,-0.0251,1.23,-1.18,0.37,0.216,-9.757,-5.599,7.762
1320,0.0982,-0.0562,-0.0257,1.16,-1.15,0.42,0.217,-7.043,-5.506,7.845
1329,0.0992,-0.0566,-0.0256,1.07,-1.09,0.49,0.217,-6.247,-4.900,8.327
1339,0.1016,-0.0599,-0.0247,0.99,-1.04,0.56,0.217,-5.765,-3.885,8.983
1349,0.1023,-0.0586,-0.0247,0.89,-0.98,0.64,0.217,-5.437,-5.110,10.296
1360,0.1092,-0.0650,-0.0251,0.86,-0.96,0.72,0.217,-3.939,-5.678,11.037
1369,0.1113,-0.0635,-0.0251,0.77,-0.91,0.81,0.211,-0.924,-3.870,11.228
1379,0.1133,-0.0684,-0.0252,0.75,-0.86,0.92,0.211,1.265,-3.443,11.676
1389,0.1144,-0.0663,-0.0354,0.70,-0.81,1.02,0.211,-2.683,-3.422,12.539
1399,0.1176,-0.0682,-0.0354,0.69,-0.77,1.13,0.211,-3.664,-8.735,12.205
1409,0.1189,-0.0686,-0.0352,0.71,-0.74,1.25,0.211,-0.401,-5.465,9.960
1419,0.1169,-0.0685,-0.0347,0.68,-0.68,1.37,0.211,-2.709,-6.776,9.892
1428,0.1208,-0.0686,-0.0345,0.65,-0.61,1.48,0.212,-6.248,-6.965,10.744
1439,0.1230,-0.0683,-0.0347,0.64,-0.57,1.58,0.212,-9.353,-4.974,10.132
1450,0.1219,-0.0711,-0.0345,0.63,-0.49,1.69,0.212,-8.832,-5.657,8.954
1459,0.1269,-0.0684,-0.0344,0.55,-0.44,1.79,0.212,-7.835,-6.401,10.152
1469,0.1258,-0.0688,-0.0338,0.47,-0.39,1.89,0.211,-6.937,-1.991,9.267
1479,0.1292,-0.0707,-0.0334,0.40,-0.36,1.98,0.211,-2.563,-2.956,9.254
1489,0.1278,-0.0726,-0.0312,0.35,-0.29,2.08,0.211,-0.792,-2.108,9.045
1500,0.1311,-0.0710,-0.0308,0.27,-0.28,2.17,0.211,-1.725,-1.951,9.002
1509,0.1282,-0.0699,-0.0299,0.23,-0.23,2.26,0.211,-3.311,-2.444,8.753
1519,0.1285,-0.0688,-0.0289,0.20,-0.21,2.35,0.211,-3.417,-2.775,8.330
1529,0.1289,-0.0665,-0.0279,0.16,-0.19,2.44,0.209,-3.499,-3.164,7.930
1538,0.1261,-0.0659,-0.0270,0.13,-0.15,2.53,0.209,-2.983,-3.220,7.488
1549,0.1278,-0.0662,-0.0268,0.11,-0.14,2.61,0.209,-2.760,-2.082,7.290
1559,0.1263,-0.0666,-0.0257,0.09,-0.11,2.69,0.209,-2.937,-3.309,6.904
1568,0.1263,-0.0639,-0.0247,0.05,-0.08,2.76,0.202,0.996,-2.693,5.135
1578,0.1263,-0.0614,-0.0239,0.02,-0.06,2.83,0.202,0.941,-0.781,4.625
1589,0.1287,-0.0599,-0.0365,-0.00,-0.06,2.89,0.202,-0.593,-2.353,3.851
1599,0.1242,-0.0611,-0.0361,0.02,-0.01,2.94,0.202,1.901,-0.034,2.796
1608,0.1243,-0.0604,-0.0352,0.02,0.00,2.99,0.202,0.427,-1.803,2.743
1618,0.1271,-0.0593,-0.0340,0.01,0.01,3.03,0.202,-3.025,-3.856,2.140
1629,0.1286,-0.0601,-0.0327,0.02,0.02,3.05,0.204,-1.236,-3.292,0.537
1639,0.1270,-0.0595,-0.0318,0.01,0.05,3.08,0.204,0.630,-3.613,0.295
1650,0.1236,-0.0573,-0.0299,-0.02,0.10,3.10,0.204,-1.295,-3.514,-0.516
1659,0.1232,-0.0577,-0.0284,-0.04,0.13,3.11,0.204,-3.362,-4.798,-0.738
1668,0.1228,-0.0556,-0.0272,-0.05,0.16,3.11,0.210,-0.666,-3.038,-2.177
1678,0.1235,-0.0529,-0.0261,-0.08,0.19,3.10,0.210,-5.260,-5.086,-1.903
1689,0.1249,-0.0536,-0.0085,-0.10,0.23,3.09,0.210,-6.585,-5.204,-2.115
1699,0.1228,-0.0512,-0.0074,-0.13,0.28,3.08,0.210,-4.236,-3.603,-3.093
1708,0.1205,-0.0515,-0.0063,-0.17,0.33,3.06,0.210,-2.098,-1.476,-3.062
1720,0.1210,-0.0499,-0.0053,-0.24,0.37,3.03,0.205,-0.959,-0.387,-4.306
1729,0.1216,-0.0471,-0.0044,-0.29,0.40,3.00,0.205,-2.677,-3.080,-4.524
1738,0.1194,-0.0447,-0.0036,-0.32,0.43,2.96,0.205,0.463,0.061,-5.052
1748,0.1174,-0.0452,-0.0035,-0.32,0.45,2.92,0.205,4.633,-2.057,-4.968
1758,0.1152,-0.0442,-0.0029,-0.34,0.48,2.88,0.205,0.236,-1.702,-4.970
1769,0.1120,-0.0438,-0.0023,-0.34,0.50,2.83,0.204,2.184,-1.636,-5.570
1779,0.1188,-0.0418,-0.0026,-0.30,0.47,2.77,0.204,2.001,-1.108,-6.829
1789,0.1148,-0.0398,-0.0049,-0.30,0.50,2.73,0.204,0.095,-3.909,-5.648
1798,0.1157,-0.0379,-0.0046,-0.29,0.51,2.67,0.204,-3.875,-2.419,-6.532
1809,0.1121,-0.0350,-0.0044,-0.28,0.54,2.60,0.204,-2.594,-1.142,-6.829
1819,0.1112,-0.0346,-0.0046,-0.27,0.58,2.54,0.204,-2.539,-0.898,-7.115
1828,0.1134,-0.0325,-0.0048,-0.32,0.58,2.48,0.202,1.031,-3.768,-6.715
1838,0.1138,-0.0287,-0.0103,-0.35,0.58,2.41,0.202,0.283,-1.460,-7.585
1848,0.1116,-0.0270,-0.0102,-0.38,0.60,2.34,0.202,0.756,-2.665,-6.662
1859,0.1093,-0.0271,-0.0103,-0.36,0.65,2.27,0.202,2.493,0.759,-6.274
1868,0.1074,-0.0255,-0.0104,-0.36,0.67,2.20,0.201,0.181,-2.931,-5.312
1878,0.1093,-0.0225,-0.0105,-0.37,0.67,2.13,0.201,1.998,-1.152,-5.137
1888,0.1081,-0.0219,-0.0146,-0.35,0.68,2.07,0.201,0.991,-2.005,-5.259
1898,0.1102,-0.0204,-0.0147,-0.36,0.68,2.02,0.201,-3.165,-1.231,-6.219
1909,0.1062,-0.0191,-0.0147,-0.35,0.71,1.96,0.201,0.548,-0.521,-5.275
1918,0.1040,-0.0180,-0.0147,-0.35,0.74,1.91,0.206,2.407,-2.757,-6.335
1928,0.1035,-0.0180,-0.0146,-0.36,0.75,1.85,0.206,-0.462,-2.508,-7.727
1938,0.1013,-0.0166,-0.0144,-0.36,0.76,1.79,0.206,-2.205,-4.028,-5.841
1949,0.1004,-0.0125,-0.0037,-0.37,0.78,1.73,0.206,-0.772,-1.166,-6.735
1958,0.0984,-0.0129,-0.0037,-0.37,0.81,1.66,0.206,-1.586,-3.035,-6.816
1968,0.0973,-0.0101,-0.0035,-0.40,0.85,1.59,0.201,1.227,-2.316,-6.560
1978,0.0939,-0.0106,-0.0034,-0.40,0.88,1.53,0.201,0.318,-3.521,-6.676
1988,0.0943,-0.0064,-0.0080,-0.43,0.90,1.46,0.201,-1.105,-3.618,-6.340
1998,0.0907,-0.0043,-0.0083,-0.42,0.95,1.39,0.201,3.584,-1.850,-6.265
2008,0.0912,-0.0047,-0.0084,-0.41,0.97,1.33,0.201,1.421,-3.266,-6.524
2018,0.0875,-0.0037,-0.0081,-0.43,1.01,1.26,0.201,4.059,-1.290,-5.890
2029,0.0867,-0.0017,-0.0080,-0.41,1.03,1.20,0.206,4.433,-1.547,-6.565
2038,0.0849,-0.0011,-0.0080,-0.39,1.06,1.14,0.206,2.516,-1.886,-6.808
2048,0.0815,-0.0009,0.0012,-0.34,1.09,1.08,0.206,1.184,-3.225,-7.136
2058,0.0824,0.0038,0.0010,-0.33,1.09,1.02,0.206,1.031,-1.788,-6.252
2068,0.0834,0.0053,0.0008,-0.31,1.09,0.95,0.204,2.838,0.973,-6.562
2079,0.0812,0.0055,0.0006,-0.29,1.12,0.88,0.204,-2.678,-1.757,-6.698
2088,0.0789,0.0071,0.0012,-0.28,1.14,0.81,0.204,2.076,-0.958,-6.824
2098,0.0758,0.0073,0.0010,-0.27,1.15,0.74,0.204,1.765,-0.501,-6.358
2108,0.0738,0.0077,0.0009,-0.28,1.16,0.67,0.204,2.116,-2.890,-6.902
2118,0.0722,0.0075,0.0006,-0.26,1.17,0.60,0.204,-1.164,-3.871,-6.648
2128,0.0706,0.0120,0.0001,-0.28,1.18,0.54,0.202,-0.671,-2.119,-6.705
2138,0.0718,0.0132,-0.0006,-0.27,1.18,0.47,0.202,1.157,-1.801,-7.447
2148,0.0698,0.0130,-0.0051,-0.27,1.21,0.40,0.202,1.271,-1.543,-7.858
2158,0.0664,0.0145,-0.0050,-0.27,1.23,0.33,0.202,2.799,-2.552,-7.475
2168,0.0617,0.0172,-0.0051,-0.27,1.27,0.26,0.202,1.766,-2.271,-6.559
2178,0.0600,0.0183,-0.0055,-0.25,1.29,0.18,0.202,4.511,-0.117,-7.875
2188,0.0586,0.0179,-0.0077,-0.23,1.30,0.10,0.202,1.493,-0.964,-7.163
2198,0.0570,0.0189,-0.0082,-0.22,1.33,0.03,0.202,1.624,-1.619,-6.099
2208,0.0527,0.0197,-0.0085,-0.19,1.35,-0.05,0.202,2.139,-0.790,-6.641
2218,0.0498,0.0239,-0.0089,-0.20,1.36,-0.11,0.201,5.807,1.472,-6.946
2229,0.0470,0.0233,-0.0091,-0.19,1.38,-0.18,0.201,1.366,-0.765,-5.800
2238,0.0459,0.0254,-0.0115,-0.18,1.38,-0.24,0.201,4.435,0.743,-6.453
2248,0.0481,0.0270,-0.0116,-0.14,1.34,-0.31,0.201,1.394,-0.157,-5.834
2258,0.0455,0.0276,-0.0120,-0.10,1.34,-0.37,0.201,2.643,-0.926,-5.452
2268,0.0417,0.0277,-0.0125,-0.06,1.34,-0.43,0.201,3.052,-0.780,-5.861
2278,0.0394,0.0295,-0.0130,-0.05,1.34,-0.49,0.201,0.110,0.199,-4.693
2288,0.0357,0.0300,-0.0134,-0.03,1.36,-0.54,0.201,0.716,-1.829,-4.342
2298,0.0363,0.0318,-0.0135,-0.03,1.35,-0.59,0.201,1.139,-1.900,-4.267
2308,0.0326,0.0324,-0.0132,-0.04,1.37,-0.64,0.201,2.539,-2.526,-3.898
2318,0.0303,0.0325,-0.0129,-0.03,1.39,-0.68,0.199,3.619,-0.654,-4.112
2328,0.0266,0.0326,-0.0126,-0.01,1.42,-0.73,0.199,2.774,-0.741,-3.672
2338,0.0276,0.0384,-0.0124,-0.02,1.42,-0.76,0.199,3.039,-0.117,-3.084
2348,0.0255,0.0398,-0.0151,0.00,1.43,-0.80,0.199,3.424,-0.647,-2.643
2358,0.0236,0.0395,-0.0149,0.03,1.43,-0.84,0.199,3.190,-0.705,-2.710
2368,0.0203,0.0407,-0.0148,0.05,1.44,-0.87,0.196,3.127,-0.537,-3.320
2378,0.0178,0.0406,-0.0145,0.09,1.45,-0.89,0.196,1.569,-0.233,-2.957
2388,0.0147,0.0416,-0.0208,0.11,1.45,-0.92,0.196,1.530,-0.529,-3.067
2398,0.0132,0.0443,-0.0204,0.12,1.46,-0.95,0.196,3.017,-0.012,-2.652
2408,0.0117,0.0467,-0.0196,0.13,1.45,-0.98,0.196,2.915,-0.065,-2.457
2418,0.0088,0.0476,-0.0192,0.14,1.46,-1.01,0.195,2.368,-0.674,-2.385
2428,0.0091,0.0468,-0.0189,0.17,1.44,-1.03,0.195,3.414,0.426,-1.808
2437,0.0063,0.0490,-0.0187,0.19,1.44,-1.05,0.195,4.189,1.130,-1.731
2447,0.0039,0.0486,-0.0217,0.22,1.44,-1.07,0.195,4.924,0.906,-1.678
2458,0.0014,0.0492,-0.0207,0.24,1.44,-1.09,0.195,3.759,1.300,-1.485
2468,-0.0027,0.0466,-0.0200,0.29,1.44,-1.11,0.201,3.132,0.677,-1.031
2477,-0.0051,0.0461,-0.0194,0.34,1.44,-1.13,0.201,2.646,1.039,-1.012
2487,-0.0056,0.0577,-0.0064,0.29,1.41,-1.13,0.201,1.426,-0.609,-0.532
2499,-0.0081,0.0573,-0.0059,0.32,1.41,-1.14,0.201,2.496,0.222,-0.030
2508,-0.0102,0.0606,-0.0051,0.33,1.40,-1.14,0.201,2.241,0.096,-0.133
2518,-0.0127,0.0601,-0.0041,0.35,1.40,-1.15,0.201,-0.277,-0.287,0.260
2528,-0.0145,0.0601,-0.0033,0.37,1.40,-1.15,0.200,1.089,-0.095,0.286
2537,-0.0163,0.0602,-0.0025,0.39,1.40,-1.15,0.200,-1.149,-0.525,0.659
2547,-0.0182,0.0604,0.0048,0.40,1.40,-1.15,0.200,0.279,-1.436,0.580
2557,-0.0216,0.0590,0.0054,0.41,1.41,-1.15,0.200,0.589,-0.836,0.495
2568,-0.0215,0.0608,0.0057,0.39,1.40,-1.14,0.201,2.238,0.930,0.556
2578,-0.0232,0.0609,0.0059,0.39,1.41,-1.13,0.201,1.487,0.004,1.079
2588,-0.0248,0.0628,0.0111,0.37,1.41,-1.13,0.201,3.166,0.756,1.103
2597,-0.0246,0.0596,0.0116,0.40,1.39,-1.13,0.201,2.813,0.710,2.209
2607,-0.0270,0.0589,0.0121,0.41,1.38,-1.11,0.201,4.966,2.064,2.539
2618,-0.0314,0.0588,0.0124,0.43,1.39,-1.10,0.199,1.931,1.378,2.855
2629,-0.0323,0.0585,0.0127,0.45,1.37,-1.07,0.199,1.043,0.529,2.699
2637,-0.0378,0.0599,0.0096,0.48,1.37,-1.05,0.199,3.987,1.833,1.400
2648,-0.0401,0.0591,0.0097,0.52,1.36,-1.02,0.199,1.061,1.081,2.547
2658,-0.0409,0.0592,0.0097,0.53,1.34,-1.00,0.199,0.137,1.901,2.557
2668,-0.0429,0.0603,0.0099,0.56,1.32,-0.98,0.200,3.184,1.411,1.231
2678,-0.0452,0.0594,0.0095,0.57,1.31,-0.95,0.200,2.460,2.492,2.158
2687,-0.0486,0.0593,0.0089,0.57,1.30,-0.93,0.200,1.964,1.773,2.035
2698,-0.0486,0.0605,0.0088,0.58,1.26,-0.91,0.200,1.362,2.242,1.903
2708,-0.0518,0.0570,0.0086,0.62,1.25,-0.89,0.200,0.712,2.131,2.248
2717,-0.0517,0.0556,0.0086,0.62,1.22,-0.87,0.200,-2.261,-0.536,2.974
2727,-0.0517,0.0540,0.0084,0.63,1.19,-0.85,0.199,-0.945,-0.417,1.923
2738,-0.0548,0.0589,0.0080,0.59,1.19,-0.82,0.199,0.008,2.442,1.743
2748,-0.0567,0.0578,0.0039,0.58,1.19,-0.79,0.199,0.429,0.579,1.971
2758,-0.0598,0.0594,0.0038,0.57,1.19,-0.77,0.199,1.197,0.850,1.757
2767,-0.0626,0.0565,0.0037,0.57,1.18,-0.76,0.197,-0.424,-0.594,1.523
2778,-0.0622,0.0568,0.0034,0.55,1.17,-0.73,0.197,-2.907,0.550,2.677
2788,-0.0630,0.0583,-0.0038,0.54,1.16,-0.72,0.197,-1.308,-0.319,2.041
2798,-0.0641,0.0568,-0.0043,0.54,1.16,-0.70,0.197,-1.069,0.891,2.039
2808,-0.0661,0.0559,-0.0046,0.51,1.16,-0.67,0.197,-0.466,1.128,2.815
2817,-0.0671,0.0530,-0.0048,0.51,1.15,-0.65,0.197,1.918,3.357,2.692
2827,-0.0679,0.0535,-0.0049,0.49,1.13,-0.63,0.197,6.682,3.202,2.358
2838,-0.0699,0.0526,-0.0048,0.49,1.12,-0.60,0.197,5.965,4.030,2.794
2847,-0.0750,0.0510,-0.0082,0.52,1.10,-0.57,0.197,6.384,2.736,2.532
2857,-0.0767,0.0471,-0.0078,0.62,1.07,-0.55,0.197,3.097,-1.201,3.276
2867,-0.0798,0.0467,-0.0078,0.68,1.04,-0.52,0.197,4.843,3.349,3.785
2877,-0.0816,0.0455,-0.0080,0.72,1.02,-0.50,0.197,2.538,2.052,2.884
2888,-0.0833,0.0484,-0.0097,0.75,1.01,-0.46,0.197,-1.564,3.117,3.060
2897,-0.0845,0.0448,-0.0101,0.80,0.97,-0.42,0.197,1.024,3.654,3.149
2908,-0.0858,0.0415,-0.0099,0.82,0.95,-0.40,0.197,2.379,1.887,3.691
2917,-0.0835,0.0418,-0.0095,0.81,0.89,-0.37,0.197,0.547,-0.159,1.930
2927,-0.0845,0.0388,-0.0094,0.82,0.86,-0.33,0.202,-0.693,4.405,3.807
2937,-0.0841,0.0372,-0.0089,0.84,0.84,-0.30,0.202,-0.736,-0.730,2.841
2947,-0.0922,0.0359,0.0033,0.84,0.86,-0.27,0.202,1.189,4.031,3.093
2957,-0.0913,0.0331,0.0037,0.84,0.83,-0.23,0.202,-0.145,0.167,3.500
2967,-0.0940,0.0305,0.0041,0.85,0.83,-0.21,0.199,3.964,1.898,2.215
2977,-0.0914,0.0292,0.0047,0.86,0.77,-0.18,0.199,-3.630,3.155,2.547
2987,-0.0910,0.0298,0.0050,0.86,0.77,-0.15,0.199,1.596,4.704,3.999
2997,-0.0917,0.0299,0.0055,0.87,0.75,-0.12,0.199,1.229,-0.025,2.723
3008,-0.0922,0.0278,0.0057,0.83,0.71,-0.09,0.199,2.066,3.292,2.467
3017,-0.0940,0.0248,0.0057,0.88,0.67,-0.06,0.201,2.955,3.729,1.507
3027,-0.0947,0.0223,0.0059,0.89,0.66,-0.03,0.201,-1.164,1.953,1.792
3037,-0.0949,0.0226,0.0059,0.91,0.62,-0.01,0.201,-1.414,2.759,1.883
3048,-0.0937,0.0214,0.0091,0.92,0.57,0.01,0.201,-1.785,5.110,2.528
3057,-0.0956,0.0206,0.0092,0.92,0.55,0.02,0.201,1.639,3.562,3.483
3067,-0.0942,0.0200,0.0093,0.89,0.51,0.05,0.196,2.094,1.428,3.055
3077,-0.0955,0.0179,0.0092,0.88,0.46,0.07,0.196,3.929,1.263,2.555
3087,-0.0920,0.0171,-0.0007,0.89,0.40,0.11,0.196,4.192,2.450,2.698
3097,-0.0937,0.0147,-0.0009,0.92,0.40,0.14,0.196,5.957,3.592,3.560
3107,-0.0938,0.0135,-0.0013,0.96,0.38,0.16,0.196,0.956,6.614,3.576
3117,-0.0952,0.0107,-0.0014,1.02,0.36,0.19,0.196,-3.653,3.272,2.890
3128,-0.0958,0.0090,-0.0017,1.06,0.32,0.23,0.198,-1.878,3.042,2.658
3138,-0.0952,0.0084,-0.0035,1.05,0.26,0.27,0.198,-3.668,1.034,2.469
3147,-0.0947,0.0052,-0.0037,1.03,0.23,0.29,0.198,-3.566,3.671,2.440
3157,-0.0926,0.0036,-0.0037,1.00,0.18,0.31,0.198,1.697,2.119,2.718
3167,-0.0909,0.0023,-0.0037,0.95,0.15,0.34,0.200,-0.811,0.416,2.192
3177,-0.0919,0.0007,-0.0038,0.95,0.12,0.36,0.200,-4.835,-0.540,1.663
3187,-0.0922,-0.0010,0.0000,0.95,0.10,0.39,0.200,-5.004,0.954,1.788
3197,-0.0935,-0.0007,0.0001,0.91,0.10,0.41,0.200,0.075,1.072,2.237
3207,-0.0947,-0.0034,0.0001,0.88,0.10,0.43,0.200,0.498,-0.564,1.686
3217,-0.0928,-0.0043,0.0004,0.85,0.08,0.45,0.197,0.410,0.811,1.399
3227,-0.0924,-0.0052,0.0006,0.83,0.07,0.47,0.197,1.072,-1.080,1.300
3237,-0.0924,-0.0049,0.0007,0.82,0.08,0.49,0.197,1.115,-0.012,0.276
3248,-0.0924,-0.0062,-0.0039,0.81,0.08,0.50,0.197,2.016,0.220,1.496
3257,-0.0907,-0.0089,-0.0041,0.82,0.08,0.51,0.197,1.267,-1.439,0.542
3267,-0.0909,-0.0103,-0.0042,0.83,0.09,0.52,0.194,0.304,1.222,0.303
3278,-0.0876,-0.0097,-0.0040,0.82,0.07,0.52,0.194,1.877,0.373,0.279
3287,-0.0875,-0.0124,-0.0129,0.83,0.07,0.53,0.194,0.122,1.267,-0.965
3297,-0.0874,-0.0117,-0.0132,0.82,0.08,0.52,0.194,-0.995,2.417,-0.157
3307,-0.0875,-0.0131,-0.0131,0.82,0.07,0.53,0.194,0.247,0.865,-0.781
3318,-0.0858,-0.0108,-0.0127,0.80,0.05,0.52,0.197,-0.545,2.445,-1.601
3328,-0.0869,-0.0163,-0.0129,0.81,0.03,0.52,0.197,-2.580,2.651,-1.255
3337,-0.0883,-0.0171,-0.0131,0.81,0.02,0.51,0.197,-3.448,2.544,-1.065
3347,-0.0895,-0.0193,-0.0098,0.81,0.00,0.50,0.197,-1.029,0.443,-0.698
3357,-0.0895,-0.0207,-0.0096,0.79,-0.02,0.49,0.197,-2.236,0.847,-1.826
3367,-0.0854,-0.0223,-0.0093,0.77,-0.07,0.47,0.191,-2.775,1.447,-1.278
3377,-0.0817,-0.0241,-0.0094,0.76,-0.11,0.46,0.191,-1.757,-0.115,-2.174
3387,-0.0797,-0.0242,-0.0196,0.74,-0.13,0.44,0.191,-1.129,1.336,-1.903
3398,-0.0808,-0.0257,-0.0189,0.71,-0.14,0.42,0.191,1.420,-1.515,-2.428
3407,-0.0773,-0.0273,-0.0185,0.70,-0.16,0.41,0.191,0.141,0.936,-1.694
3417,-0.0770,-0.0285,-0.0186,0.69,-0.16,0.39,0.194,0.282,-1.869,-1.591
3427,-0.0768,-0.0297,-0.0180,0.70,-0.15,0.37,0.194,-1.890,-0.121,-2.330
3437,-0.0765,-0.0296,-0.0171,0.69,-0.15,0.35,0.194,1.137,-0.726,-0.972
3447,-0.0767,-0.0297,-0.0140,0.68,-0.14,0.33,0.194,0.258,-0.695,-2.753
3457,-0.0718,-0.0294,-0.0133,0.67,-0.16,0.31,0.194,1.273,-0.705,-1.168
3467,-0.0701,-0.0294,-0.0125,0.66,-0.17,0.29,0.195,-2.474,0.282,-1.643
3477,-0.0689,-0.0294,-0.0118,0.66,-0.15,0.27,0.195,-1.257,-1.550,-1.957
3487,-0.0675,-0.0326,-0.0068,0.67,-0.17,0.26,0.195,0.729,-0.546,-1.914
3496,-0.0677,-0.0338,-0.0062,0.65,-0.17,0.23,0.195,-0.336,1.024,-2.221
3507,-0.0675,-0.0349,-0.0052,0.66,-0.15,0.21,0.195,-0.578,-0.474,-3.775
3517,-0.0672,-0.0360,-0.0046,0.67,-0.16,0.19,0.196,0.050,0.075,-1.754
3527,-0.0669,-0.0372,-0.0042,0.67,-0.17,0.17,0.196,-0.753,2.499,-2.247
3537,-0.0654,-0.0368,-0.0035,0.66,-0.17,0.13,0.196,-3.478,3.014,-2.396
3547,-0.0622,-0.0401,0.0035,0.67,-0.20,0.12,0.196,-2.971,1.680,-2.665
3557,-0.0622,-0.0412,0.0041,0.65,-0.23,0.09,0.196,-0.187,0.250,-2.468
3567,-0.0618,-0.0423,0.0043,0.62,-0.26,0.07,0.197,-5.100,-2.720,-3.777
3577,-0.0586,-0.0425,0.0045,0.58,-0.28,0.04,0.197,-4.094,-0.462,-3.334
3587,-0.0582,-0.0436,0.0100,0.58,-0.27,0.01,0.197,0.148,-0.420,-4.921
3596,-0.0553,-0.0460,0.0103,0.56,-0.29,-0.03,0.197,-1.095,0.244,-4.047
3607,-0.0548,-0.0469,0.0104,0.55,-0.27,-0.07,0.197,-1.757,-2.948,-4.576
3617,-0.0521,-0.0471,0.0105,0.52,-0.28,-0.11,0.192,-0.372,-0.644,-3.958
3627,-0.0494,-0.0475,0.0108,0.50,-0.28,-0.15,0.192,-2.748,-0.340,-3.933
3636,-0.0469,-0.0477,0.0109,0.48,-0.29,-0.19,0.192,-0.773,0.367,-3.363
3647,-0.0461,-0.0478,0.0010,0.46,-0.28,-0.23,0.192,-0.237,0.493,-4.395
3657,-0.0436,-0.0517,0.0012,0.47,-0.30,-0.27,0.192,-0.438,0.237,-4.055
3666,-0.0431,-0.0525,0.0012,0.48,-0.30,-0.31,0.195,-4.616,-1.122,-3.271
3676,-0.0409,-0.0540,0.0010,0.46,-0.31,-0.35,0.195,-3.086,0.594,-4.266
3687,-0.0403,-0.0548,0.0023,0.44,-0.31,-0.39,0.195,-6.105,-0.088,-4.477
3697,-0.0382,-0.0543,0.0026,0.39,-0.31,-0.42,0.195,0.563,1.100,-4.075
3706,-0.0359,-0.0555,0.0027,0.35,-0.33,-0.47,0.195,2.189,0.546,-3.325
3717,-0.0339,-0.0548,0.0029,0.31,-0.34,-0.51,0.193,4.072,0.781,-4.110
3727,-0.0334,-0.0532,0.0034,0.31,-0.35,-0.55,0.193,-1.658,-2.737,-3.237
3737,-0.0297,-0.0519,0.0041,0.32,-0.37,-0.58,0.193,1.468,-2.778,-2.389
3746,-0.0277,-0.0523,0.0004,0.33,-0.38,-0.62,0.193,-2.711,-3.224,-2.390
3757,-0.0248,-0.0505,0.0006,0.32,-0.36,-0.65,0.193,-7.079,-4.649,-2.130
3767,-0.0237,-0.0507,0.0008,0.32,-0.33,-0.67,0.194,-2.166,-1.383,-2.604
3777,-0.0227,-0.0519,0.0009,0.26,-0.29,-0.69,0.194,4.346,0.390,-2.828
3786,-0.0222,-0.0523,0.0008,0.21,-0.26,-0.72,0.194,4.769,-1.030,-3.100
3797,-0.0210,-0.0571,0.0013,0.25,-0.26,-0.74,0.194,3.162,1.850,-3.399
3806,-0.0197,-0.0576,0.0019,0.30,-0.26,-0.77,0.194,-0.919,0.961,-3.886
3817,-0.0191,-0.0575,0.0019,0.30,-0.26,-0.77,0.193,-1.314,0.188,-3.103
3826,-0.0155,-0.0566,0.0028,0.33,-0.29,-0.84,0.193,-4.159,0.149,-2.763
3837,-0.0133,-0.0559,0.0028,0.33,-0.31,-0.84,0.193,2.648,2.351,-2.852
3847,-0.0116,-0.0563,0.0008,0.30,-0.32,-0.90,0.193,-4.659,-0.651,-2.771
3857,-0.0112,-0.0550,0.0008,0.29,-0.32,-0.90,0.193,-0.132,1.282,-2.055
3866,-0.0094,-0.0557,0.0015,0.26,-0.34,-0.96,0.197,-1.180,-2.644,-2.402
3877,-0.0094,-0.0557,0.0015,0.26,-0.34,-0.96,0.197,-3.447,-2.429,-2.298
3886,-0.0079,-0.0559,0.0091,0.24,-0.33,-1.01,0.197,1.079,-0.755,-1.893
3896,-0.0046,-0.0539,0.0092,0.23,-0.35,-1.02,0.197,-0.432,-3.538,-1.276
3907,-0.0037,-0.0537,0.0101,0.21,-0.32,-1.06,0.197,-1.261,-2.819,-1.775
3917,-0.0032,-0.0540,0.0107,0.18,-0.29,-1.08,0.195,1.174,-4.278,-1.376
3927,-0.0030,-0.0555,0.0113,0.18,-0.26,-1.09,0.195,2.598,-1.270,-1.223
3937,-0.0014,-0.0567,0.0119,0.18,-0.22,-1.11,0.195,0.033,-3.902,-0.661
3947,-0.0010,-0.0570,0.0109,0.19,-0.19,-1.11,0.195,-1.345,-3.157,-1.055
3957,0.0007,-0.0552,0.0113,0.18,-0.16,-1.13,0.195,-1.018,-0.972,-0.585
3966,0.0010,-0.0555,0.0118,0.17,-0.14,-1.14,0.197,3.156,-0.968,-0.770
3977,0.0074,-0.0553,0.0121,0.17,-0.15,-1.14,0.197,-1.578,-0.746,-0.726
3987,0.0073,-0.0515,0.0151,0.15,-0.14,-1.15,0.197,1.861,2.246,-1.036
3997,0.0086,-0.0548,0.0155,0.17,-0.14,-1.15,0.197,-2.069,-0.908,-0.314
4006,0.0098,-0.0561,0.0154,0.20,-0.16,-1.17,0.197,0.750,0.533,-1.081
4016,0.0100,-0.0565,0.0157,0.20,-0.16,-1.17,0.197,-2.264,0.469,-0.267
4026,0.0115,-0.0545,0.0158,0.18,-0.17,-1.17,0.192,-3.678,-1.081,-0.422
4037,0.0128,-0.0526,0.0158,0.17,-0.18,-1.19,0.192,-0.693,-0.240,-0.187
4047,0.0131,-0.0527,0.0033,0.15,-0.18,-1.19,0.192,-3.950,-2.142,0.228
4056,0.0134,-0.0529,0.0034,0.15,-0.19,-1.20,0.192,-0.597,-1.806,-0.191
4066,0.0137,-0.0532,0.0033,0.12,-0.18,-1.20,0.198,-2.327,-1.634,0.277
4077,0.0130,-0.0540,0.0031,0.10,-0.17,-1.20,0.198,-4.597,-4.450,0.139
4087,0.0159,-0.0536,0.0095,0.07,-0.17,-1.20,0.198,1.309,-0.253,0.845
4096,0.0161,-0.0537,0.0095,0.05,-0.15,-1.19,0.198,-0.081,-2.133,0.172
4106,0.0151,-0.0531,0.0096,0.02,-0.11,-1.19,0.198,-5.572,-3.470,2.077
4116,0.0214,-0.0524,0.0100,0.02,-0.13,-1.18,0.196,0.550,-1.442,1.803
4127,0.0216,-0.0525,0.0103,0.01,-0.11,-1.18,0.196,-4.620,-2.739,2.308
4136,0.0222,-0.0497,0.0106,-0.02,-0.10,-1.17,0.196,2.105,1.141,1.420
4146,0.0228,-0.0473,0.0089,-0.04,-0.08,-1.15,0.196,-3.814,-1.863,2.266
4157,0.0235,-0.0447,0.0093,-0.10,-0.05,-1.13,0.196,-4.481,-0.564,2.741
4167,0.0261,-0.0429,0.0096,-0.12,-0.07,-1.12,0.196,-2.722,-0.870,1.607
4177,0.0263,-0.0427,0.0097,-0.13,-0.07,-1.10,0.196,-0.030,-2.088,1.704
4186,0.0269,-0.0398,0.0079,-0.17,-0.06,-1.08,0.196,-0.949,-1.243,2.176
4197,0.0274,-0.0395,0.0082,-0.22,-0.05,-1.05,0.196,-0.462,-0.782,2.189
4207,0.0278,-0.0374,0.0085,-0.23,-0.04,-1.04,0.196,4.029,1.437,1.603
4217,0.0282,-0.0354,0.0086,-0.25,-0.03,-1.02,0.200,5.666,1.015,1.624
4227,0.0287,-0.0336,0.0088,-0.26,-0.02,-1.00,0.200,0.529,1.167,1.401
4236,0.0288,-0.0331,0.0088,-0.25,-0.02,-0.98,0.200,2.358,0.330,2.023
4246,0.0296,-0.0321,0.0155,-0.19,-0.04,-0.96,0.200,-3.806,-1.386,3.130
4256,0.0296,-0.0318,0.0158,-0.16,-0.05,-0.95,0.200,-1.939,-0.030,3.661
4266,0.0297,-0.0315,0.0159,-0.15,-0.05,-0.93,0.196,-5.052,-2.101,2.982
4277,0.0336,-0.0275,0.0158,-0.18,-0.08,-0.90,0.196,-2.145,-2.436,2.734
4286,0.0337,-0.0272,0.0093,-0.20,-0.07,-0.87,0.196,5.520,-0.190,1.978
4296,0.0356,-0.0267,0.0094,-0.25,-0.07,-0.83,0.196,3.104,-1.706,2.587
4306,0.0340,-0.0234,0.0095,-0.30,-0.04,-0.81,0.196,5.700,-2.639,2.616
4316,0.0342,-0.0209,0.0095,-0.28,-0.04,-0.78,0.196,2.273,-1.045,3.534
4326,0.0359,-0.0183,0.0094,-0.25,-0.03,-0.76,0.203,3.400,-0.030,2.300
4336,0.0359,-0.0181,0.0095,-0.22,-0.00,-0.73,0.203,3.075,1.023,1.765
4346,0.0396,-0.0143,0.0206,-0.19,-0.01,-0.71,0.203,-3.957,-0.616,2.007
4356,0.0364,-0.0139,0.0208,-0.16,0.01,-0.68,0.203,-0.290,-0.152,1.967
4366,0.0384,-0.0134,0.0208,-0.13,-0.01,-0.66,0.197,1.105,0.845,1.367
4377,0.0384,-0.0132,0.0207,-0.13,-0.01,-0.64,0.197,-4.141,0.706,1.202
4386,0.0383,-0.0125,0.0113,-0.15,-0.00,-0.62,0.197,-3.608,-1.223,1.317
4396,0.0383,-0.0122,0.0112,-0.14,0.00,-0.61,0.197,-0.407,0.865,1.837
4407,0.0383,-0.0120,0.0111,-0.16,-0.01,-0.60,0.197,-2.292,-0.177,1.251
4417,0.0383,-0.0117,0.0112,-0.21,0.00,-0.58,0.198,-3.959,-2.780,1.306
4427,0.0423,-0.0073,0.0110,-0.24,-0.03,-0.57,0.198,-3.417,-1.858,1.488
4436,0.0458,-0.0064,0.0060,-0.24,-0.06,-0.56,0.198,-0.909,-2.492,1.025
4446,0.0459,-0.0060,0.0060,-0.27,-0.04,-0.55,0.198,0.727,-1.282,1.264
4456,0.0455,-0.0051,0.0061,-0.30,-0.02,-0.54,0.198,4.516,-0.484,0.871
4466,0.0432,-0.0028,0.0059,-0.32,0.01,-0.53,0.199,6.758,0.010,0.543
4476,0.0428,-0.0023,0.0061,-0.30,0.03,-0.52,0.199,5.939,1.516,1.001
4486,0.0407,-0.0005,0.0053,-0.28,0.06,-0.50,0.199,6.453,0.687,1.214
4496,0.0459,0.0006,0.0053,-0.23,0.03,-0.50,0.199,3.226,0.224,1.397
4506,0.0441,0.0039,0.0051,-0.18,0.03,-0.49,0.199,1.704,0.602,0.537
4516,0.0460,0.0032,0.0049,-0.13,0.01,-0.48,0.197,5.187,1.857,0.213
4526,0.0444,0.0060,0.0050,-0.12,0.01,-0.46,0.197,0.600,-1.069,1.235
4536,0.0441,0.0058,0.0055,-0.09,-0.00,-0.45,0.197,-0.795,-2.777,1.044
4546,0.0442,0.0052,0.0001,-0.05,-0.00,-0.45,0.197,-2.643,-2.677,0.934
4556,0.0425,0.0080,0.0006,-0.06,0.01,-0.45,0.197,1.135,-1.420,0.499
4566,0.0425,0.0081,0.0007,-0.06,0.02,-0.44,0.200,-2.307,-3.067,0.197
4576,0.0438,0.0097,0.0007,-0.08,0.02,-0.43,0.200,2.522,-2.201,0.222
4586,0.0418,0.0128,0.0041,-0.10,0.05,-0.42,0.200,-4.991,-3.767,1.052
4596,0.0446,0.0142,0.0044,-0.13,0.06,-0.42,0.200,-1.325,-4.568,-0.556
4607,0.0458,0.0153,0.0047,-0.13,0.08,-0.41,0.200,-1.850,-2.881,0.742
4616,0.0450,0.0153,0.0048,-0.16,0.10,-0.41,0.203,4.550,-1.971,0.729
4626,0.0456,0.0186,0.0049,-0.19,0.14,-0.41,0.203,5.399,0.080,0.686
4636,0.0454,0.0189,0.0055,-0.23,0.18,-0.40,0.203,2.998,-1.886,0.547
4646,0.0447,0.0211,0.0141,-0.22,0.20,-0.39,0.203,4.736,-2.914,-0.375
4656,0.0459,0.0201,0.0142,-0.15,0.20,-0.39,0.203,7.239,-0.835,0.079
4666,0.0435,0.0210,0.0144,-0.12,0.22,-0.38,0.199,3.270,-1.076,-0.392
4676,0.0443,0.0213,0.0150,-0.10,0.24,-0.37,0.199,2.006,0.131,0.091
4686,0.0422,0.0243,0.0097,-0.05,0.27,-0.38,0.199,3.299,1.847,-0.107
4697,0.0462,0.0245,0.0096,0.01,0.24,-0.38,0.199,3.571,1.800,-0.404
4706,0.0441,0.0279,0.0098,0.02,0.26,-0.38,0.199,-0.802,1.066,-0.328
4717,0.0438,0.0266,0.0101,0.07,0.25,-0.38,0.198,-0.145,1.098,-0.098
4726,0.0434,0.0265,0.0104,0.09,0.24,-0.38,0.198,-1.938,-0.472,0.396
4736,0.0463,0.0285,0.0105,0.07,0.21,-0.39,0.198,1.149,0.091,-0.110
4746,0.0444,0.0304,0.0042,0.05,0.21,-0.39,0.198,0.420,-1.551,-0.226
4756,0.0455,0.0293,0.0046,0.04,0.20,-0.39,0.198,0.732,-0.754,-0.274
4767,0.0452,0.0309,0.0048,0.03,0.20,-0.39,0.198,1.626,-0.591,-0.467
4776,0.0447,0.0310,0.0048,0.03,0.20,-0.39,0.198,0.407,-1.354,-0.246
4786,0.0456,0.0313,0.0004,0.02,0.20,-0.39,0.198,-1.871,-1.540,-0.312
4796,0.0435,0.0316,0.0002,0.02,0.23,-0.39,0.198,1.598,1.103,-0.182
4806,0.0415,0.0335,0.0003,0.00,0.25,-0.40,0.198,1.602,-1.601,-0.650
4816,0.0424,0.0341,0.0006,-0.01,0.25,-0.40,0.197,-2.373,-1.845,0.656
4826,0.0420,0.0344,0.0008,-0.01,0.26,-0.40,0.197,4.012,0.108,-0.022
4836,0.0415,0.0326,0.0011,-0.01,0.27,-0.40,0.197,0.746,0.094,-0.752
4846,0.0392,0.0331,-0.0035,-0.00,0.29,-0.40,0.197,5.656,0.200,-0.405
4856,0.0388,0.0360,-0.0031,0.00,0.30,-0.40,0.197,2.352,-1.827,0.173
4866,0.0383,0.0363,-0.0027,0.03,0.29,-0.40,0.202,-1.839,-0.579,1.248
4876,0.0395,0.0388,-0.0025,0.04,0.30,-0.41,0.202,4.911,-0.072,-0.043
4885,0.0391,0.0388,0.0064,0.06,0.31,-0.40,0.202,2.533,0.389,-0.272
4896,0.0399,0.0387,0.0069,0.08,0.30,-0.40,0.202,1.379,-1.268,0.392
4906,0.0380,0.0382,0.0076,0.12,0.31,-0.40,0.202,-0.297,-0.377,0.868
4916,0.0362,0.0396,0.0083,0.14,0.32,-0.39,0.200,5.545,-1.624,-0.203
4926,0.0356,0.0394,0.0090,0.14,0.33,-0.39,0.200,-0.442,-2.549,-0.013
4936,0.0334,0.0426,0.0099,0.15,0.34,-0.39,0.200,2.632,-2.028,0.096
4946,0.0362,0.0479,0.0104,0.13,0.35,-0.38,0.200,0.697,-0.911,0.096
4956,0.0355,0.0460,0.0108,0.15,0.36,-0.38,0.200,1.492,0.970,0.403
4965,0.0351,0.0466,0.0114,0.15,0.39,-0.38,0.201,-0.878,-1.520,0.364
4976,0.0374,0.0478,0.0118,0.17,0.37,-0.38,0.201,-2.728,-1.076,-0.045
4986,0.0369,0.0460,0.0131,0.18,0.38,-0.38,0.201,-0.860,-1.367,0.821
4996,0.0348,0.0455,0.0133,0.17,0.40,-0.37,0.201,0.918,1.302,0.573
5006,0.0341,0.0452,0.0135,0.17,0.41,-0.37,0.201,-0.890,-1.490,0.291
5016,0.0321,0.0446,0.0140,0.15,0.44,-0.37,0.202,0.804,0.041,-0.379
5027,0.0349,0.0486,0.0143,0.14,0.41,-0.36,0.202,0.087,-2.317,-1.121
5036,0.0329,0.0493,0.0146,0.13,0.42,-0.36,0.202,5.343,1.891,-1.135
5045,0.0295,0.0472,0.0160,0.17,0.43,-0.37,0.202,5.133,1.001,-1.320
5056,0.0336,0.0494,0.0162,0.15,0.41,-0.38,0.202,2.699,-0.213,-1.387
5066,0.0319,0.0500,0.0162,0.19,0.41,-0.39,0.207,2.043,-0.731,-0.174
5076,0.0302,0.0505,0.0161,0.22,0.41,-0.40,0.207,5.104,0.565,-0.859
5085,0.0313,0.0496,0.0263,0.26,0.40,-0.41,0.207,2.350,-1.502,-0.948
5096,0.0310,0.0470,0.0266,0.30,0.40,-0.42,0.207,1.731,-1.899,-1.043
5106,0.0303,0.0465,0.0267,0.34,0.40,-0.42,0.207,1.669,-1.415,-1.273
5116,0.0313,0.0515,0.0269,0.33,0.40,-0.43,0.206,0.497,-0.689,-1.249
5126,0.0308,0.0504,0.0272,0.35,0.42,-0.44,0.206,-0.085,-1.526,-1.727
5136,0.0289,0.0493,0.0272,0.37,0.44,-0.45,0.206,-0.710,-2.535,-1.393
5146,0.0270,0.0483,0.0276,0.38,0.46,-0.47,0.206,0.043,-1.099,-1.888
5157,0.0262,0.0477,0.0274,0.38,0.47,-0.48,0.206,-1.377,-1.382,-1.195
5166,0.0273,0.0500,0.0273,0.36,0.48,-0.50,0.195,-0.892,-2.317,-1.685
5175,0.0265,0.0494,0.0271,0.36,0.49,-0.51,0.195,-0.062,-2.239,-1.853
5185,0.0244,0.0531,-0.0004,0.32,0.52,-0.53,0.195,-0.473,-1.426,-1.278
5195,0.0225,0.0522,-0.0012,0.32,0.54,-0.55,0.195,1.287,-2.075,-1.906
5206,0.0236,0.0497,-0.0016,0.33,0.55,-0.56,0.195,1.086,-1.861,-1.245
5216,0.0232,0.0488,-0.0020,0.33,0.57,-0.58,0.210,0.078,-1.326,-1.366
5226,0.0223,0.0483,-0.0024,0.34,0.59,-0.60,0.210,0.994,-2.061,-2.113
5235,0.0218,0.0490,-0.0028,0.34,0.60,-0.61,0.210,2.044,-0.749,-1.491
5245,0.0214,0.0483,0.0148,0.34,0.62,-0.62,0.210,1.855,-1.057,-1.114
5256,0.0193,0.0473,0.0145,0.37,0.64,-0.64,0.210,2.957,-0.452,-1.777
5266,0.0174,0.0479,0.0142,0.39,0.66,-0.66,0.197,3.763,-0.077,-1.282
5276,0.0155,0.0482,0.0143,0.40,0.67,-0.68,0.197,2.854,-0.609,-1.541
5286,0.0144,0.0475,-0.0061,0.44,0.68,-0.69,0.197,2.853,-0.076,-1.538
5295,0.0143,0.0509,-0.0064,0.46,0.67,-0.71,0.197,2.620,-0.761,-1.066
5306,0.0126,0.0493,-0.0067,0.49,0.68,-0.72,0.197,-0.728,-0.035,-0.344
5316,0.0158,0.0495,-0.0066,0.52,0.65,-0.74,0.197,2.735,0.332,-1.822
5325,0.0124,0.0464,-0.0065,0.55,0.68,-0.75,0.196,-0.238,-1.415,-0.521
5335,0.0107,0.0453,-0.0067,0.56,0.68,-0.76,0.196,2.785,-1.117,-1.583
5345,0.0092,0.0438,-0.0203,0.58,0.68,-0.78,0.196,2.553,-0.854,-1.998
5356,0.0090,0.0442,-0.0199,0.58,0.69,-0.79,0.196,2.309,-0.417,-1.900
5365,0.0090,0.0458,-0.0192,0.58,0.70,-0.80,0.192,2.695,-0.953,-1.890
5376,0.0074,0.0444,-0.0186,0.61,0.70,-0.82,0.192,-0.662,-2.262,-0.771
5386,0.0059,0.0444,-0.0327,0.63,0.71,-0.84,0.192,0.912,-2.656,-1.317
5396,0.0058,0.0431,-0.0320,0.65,0.71,-0.86,0.192,-0.760,-3.126,-0.785
5406,0.0040,0.0421,-0.0309,0.65,0.73,-0.87,0.192,0.233,-2.188,-0.799
5415,0.0027,0.0410,-0.0297,0.65,0.76,-0.88,0.192,1.455,-2.317,-0.836
5426,0.0011,0.0430,-0.0284,0.62,0.79,-0.89,0.193,-2.381,-3.607,-0.676
5435,0.0010,0.0404,-0.0269,0.62,0.81,-0.90,0.193,0.620,-1.543,-0.523
5446,-0.0004,0.0393,-0.0281,0.62,0.83,-0.91,0.193,0.405,-2.315,-1.123
5455,-0.0006,0.0366,-0.0262,0.63,0.85,-0.92,0.193,2.001,0.128,-0.645
5466,-0.0021,0.0356,-0.0245,0.64,0.87,-0.92,0.199,1.904,-1.237,-0.673
5476,-0.0037,0.0343,-0.0229,0.64,0.89,-0.93,0.199,-0.310,-0.197,-0.064
5485,-0.0054,0.0333,-0.0068,0.66,0.90,-0.94,0.199,1.856,-0.761,-0.665
5495,-0.0070,0.0321,-0.0049,0.67,0.91,-0.95,0.199,2.151,1.442,-0.570
5505,-0.0086,0.0310,-0.0028,0.67,0.91,-0.95,0.199,-1.686,-0.732,-0.709
5515,-0.0080,0.0351,-0.0007,0.64,0.90,-0.95,0.202,1.104,2.409,-0.305
5525,-0.0095,0.0340,0.0013,0.67,0.89,-0.96,0.202,2.083,2.446,-0.084
5535,-0.0108,0.0331,0.0036,0.66,0.89,-0.97,0.202,0.247,1.564,0.076
5545,-0.0118,0.0325,0.0204,0.66,0.87,-0.97,0.202,1.856,1.351,0.542
5556,-0.0133,0.0313,0.0218,0.67,0.85,-0.97,0.202,1.538,1.000,0.356
5565,-0.0140,0.0270,0.0234,0.68,0.84,-0.97,0.196,1.786,1.154,0.140
5575,-0.0164,0.0280,0.0249,0.68,0.83,-0.96,0.196,1.207,1.112,0.423
5585,-0.0170,0.0292,0.0195,0.68,0.82,-0.96,0.196,1.109,1.694,0.755
5595,-0.0184,0.0280,0.0207,0.70,0.81,-0.96,0.196,0.632,1.999,1.106
5605,-0.0189,0.0272,0.0216,0.71,0.79,-0.95,0.196,1.045,0.650,0.730
5615,-0.0192,0.0300,0.0227,0.70,0.76,-0.95,0.196,2.356,1.730,0.249
5625,-0.0206,0.0288,0.0238,0.71,0.75,-0.94,0.204,0.111,0.925,0.958
5635,-0.0245,0.0263,0.0245,0.74,0.75,-0.93,0.204,-0.811,1.397,1.104
5645,-0.0260,0.0250,0.0363,0.76,0.74,-0.93,0.204,1.617,0.779,0.742
5655,-0.0273,0.0237,0.0371,0.76,0.73,-0.92,0.204,0.164,-0.518,1.347
5665,-0.0286,0.0225,0.0380,0.75,0.72,-0.91,0.198,-1.011,0.900,1.208
5675,-0.0284,0.0217,0.0385,0.76,0.70,-0.90,0.198,0.910,0.723,0.998
5685,-0.0303,0.0196,0.0280,0.76,0.70,-0.89,0.198,4.032,3.142,-0.131
5695,-0.0319,0.0176,0.0285,0.75,0.70,-0.87,0.198,-2.249,2.241,1.834
5705,-0.0331,0.0163,0.0286,0.76,0.69,-0.86,0.198,1.318,3.766,0.762
5715,-0.0343,0.0150,0.0283,0.79,0.67,-0.86,0.208,-3.261,3.090,1.618
5725,-0.0355,0.0137,0.0283,0.78,0.64,-0.84,0.208,-1.933,1.854,1.489
5736,-0.0385,0.0136,0.0415,0.78,0.61,-0.83,0.208,2.831,3.786,0.884
5745,-0.0395,0.0123,0.0412,0.75,0.58,-0.82,0.208,-0.136,2.056,1.407
5755,-0.0364,0.0123,0.0410,0.73,0.54,-0.80,0.208,-1.040,2.810,1.343
5765,-0.0369,0.0105,0.0408,0.75,0.50,-0.79,0.209,-1.793,2.246,1.258
5775,-0.0395,0.0067,0.0408,0.76,0.49,-0.78,0.209,-3.665,-1.184,1.522
5785,-0.0404,0.0054,0.0459,0.76,0.46,-0.76,0.209,-0.380,0.963,1.085
5795,-0.0412,0.0041,0.0455,0.76,0.44,-0.75,0.209,-0.936,0.919,1.221
5805,-0.0421,0.0028,0.0451,0.74,0.44,-0.74,0.209,-0.547,-0.594,1.425
5815,-0.0465,0.0018,0.0445,0.74,0.45,-0.73,0.210,0.693,0.789,0.801
5825,-0.0473,0.0005,0.0439,0.73,0.43,-0.72,0.210,0.589,3.140,1.504
5835,-0.0481,-0.0007,0.0435,0.73,0.43,-0.71,0.210,-1.749,-0.191,1.987
5845,-0.0486,-0.0016,0.0429,0.73,0.42,-0.70,0.210,-1.117,1.067,0.748
5855,-0.0488,-0.0029,0.0418,0.73,0.40,-0.68,0.210,-3.273,1.514,1.532
5865,-0.0495,-0.0041,0.0406,0.72,0.39,-0.67,0.216,-2.554,1.703,1.692
5876,-0.0502,-0.0053,0.0396,0.71,0.38,-0.65,0.216,0.122,1.989,1.341
5886,-0.0523,-0.0058,0.0475,0.68,0.38,-0.64,0.216,-0.303,3.303,1.739
5895,-0.0529,-0.0070,0.0465,0.66,0.35,-0.62,0.216,-2.458,0.768,2.274
5905,-0.0535,-0.0081,0.0453,0.66,0.32,-0.61,0.216,-1.747,2.437,1.974
5915,-0.0541,-0.0092,0.0444,0.65,0.30,-0.59,0.216,-1.867,3.004,1.985
5925,-0.0560,-0.0116,0.0434,0.64,0.29,-0.57,0.216,1.612,2.512,1.273
5935,-0.0557,-0.0119,0.0425,0.62,0.26,-0.55,0.216,-0.880,1.566,1.660
5945,-0.0550,-0.0122,0.0417,0.60,0.23,-0.53,0.216,-3.672,3.177,1.944
5955,-0.0554,-0.0132,0.0407,0.61,0.20,-0.52,0.216,-5.455,3.952,2.607
5965,-0.0558,-0.0142,0.0395,0.61,0.19,-0.50,0.213,-7.177,3.716,2.435
5975,-0.0571,-0.0202,0.0379,0.60,0.16,-0.49,0.213,-9.848,4.935,2.322
5985,-0.0572,-0.0212,0.0255,0.55,0.12,-0.46,0.213,-8.500,4.835,2.656
5995,-0.0562,-0.0198,0.0237,0.45,0.07,-0.43,0.213,-7.874,1.851,2.854
6005,-0.0564,-0.0206,0.0222,0.36,0.02,-0.41,0.213,-8.942,2.170,3.106
6015,-0.0564,-0.0212,0.0203,0.27,-0.02,-0.38,0.216,-8.145,2.833,3.416
6025,-0.0564,-0.0217,0.0185,0.19,-0.04,-0.35,0.216,-5.999,1.676,2.192
6035,-0.0529,-0.0238,0.0171,0.11,-0.09,-0.32,0.216,-5.814,3.133,3.106
6045,-0.0561,-0.0258,0.0138,0.05,-0.09,-0.29,0.216,-3.606,2.827,3.092
6055,-0.0559,-0.0259,0.0128,-0.01,-0.12,-0.27,0.216,-2.167,3.405,3.932
6065,-0.0557,-0.0258,0.0116,-0.07,-0.14,-0.24,0.215,-1.152,2.228,4.358
6075,-0.0567,-0.0260,0.0104,-0.10,-0.16,-0.20,0.215,-1.497,1.548,4.002
6085,-0.0532,-0.0262,0.0046,-0.13,-0.21,-0.17,0.215,-2.196,1.573,3.889
6095,-0.0543,-0.0244,0.0037,-0.15,-0.23,-0.12,0.215,0.037,2.517,3.506
6105,-0.0539,-0.0242,0.0024,-0.16,-0.24,-0.08,0.215,0.248,1.864,4.050
6115,-0.0535,-0.0239,0.0015,-0.18,-0.26,-0.04,0.218,-0.689,1.342,4.143
6125,-0.0530,-0.0236,0.0008,-0.19,-0.28,-0.01,0.218,-1.320,1.875,3.669
6135,-0.0495,-0.0198,0.0035,-0.21,-0.31,0.03,0.218,-1.592,1.914,3.260
6145,-0.0484,-0.0182,0.0024,-0.23,-0.33,0.07,0.218,-2.442,1.702,3.663
6155,-0.0478,-0.0178,0.0016,-0.24,-0.35,0.11,0.218,-1.991,1.292,3.618
6165,-0.0445,-0.0184,0.0011,-0.25,-0.39,0.14,0.216,-3.461,0.810,3.933
6175,-0.0439,-0.0180,0.0007,-0.27,-0.41,0.18,0.216,-4.443,0.870,4.013
6185,-0.0432,-0.0176,-0.0026,-0.29,-0.42,0.21,0.216,-4.863,0.932,4.168
6195,-0.0424,-0.0153,-0.0035,-0.33,-0.43,0.25,0.216,-4.324,1.158,4.075
6205,-0.0372,-0.0110,-0.0039,-0.39,-0.46,0.29,0.216,-2.346,0.008,3.847
6215,-0.0364,-0.0104,-0.0044,-0.44,-0.47,0.33,0.218,-2.762,-0.606,4.148
6225,-0.0356,-0.0096,-0.0047,-0.48,-0.48,0.37,0.218,-2.476,-1.946,4.153
6235,-0.0348,-0.0088,-0.0047,-0.50,-0.48,0.41,0.218,-2.442,-1.167,3.777
6245,-0.0340,-0.0079,-0.0012,-0.52,-0.47,0.45,0.218,1.091,-1.062,3.469
6255,-0.0332,-0.0070,-0.0014,-0.54,-0.46,0.50,0.218,-0.038,-0.567,3.716
6265,-0.0281,-0.0060,-0.0017,-0.55,-0.48,0.53,0.219,0.352,-0.103,3.424
6275,-0.0258,-0.0025,-0.0019,-0.56,-0.49,0.57,0.219,-1.600,0.522,2.976
6285,-0.0250,-0.0015,0.0022,-0.56,-0.49,0.61,0.219,-1.051,1.577,3.240
6295,-0.0226,0.0039,0.0022,-0.58,-0.50,0.64,0.219,-1.335,1.357,3.141
6305,-0.0182,0.0046,0.0018,-0.58,-0.53,0.67,0.219,-0.932,0.862,2.956
6314,-0.0139,0.0078,0.0017,-0.59,-0.57,0.70,0.219,-0.941,-0.209,2.148
6325,-0.0130,0.0089,0.0017,-0.59,-0.58,0.74,0.216,-0.377,0.074,1.613
6335,-0.0120,0.0099,0.0015,-0.59,-0.59,0.76,0.216,-0.123,-1.048,1.368
6345,-0.0106,0.0131,-0.0030,-0.61,-0.59,0.79,0.216,0.685,-1.573,1.758
6354,-0.0068,0.0135,-0.0030,-0.60,-0.61,0.81,0.216,0.170,-1.305,1.819
6365,-0.0034,0.0137,-0.0031,-0.60,-0.61,0.82,0.219,0.693,-0.530,1.498
6374,-0.0024,0.0148,-0.0033,-0.60,-0.60,0.84,0.219,-0.296,-1.804,1.136
6384,0.0004,0.0221,0.0001,-0.64,-0.58,0.86,0.219,-1.129,-1.753,1.355
6394,0.0032,0.0245,-0.0007,-0.65,-0.58,0.87,0.219,-0.328,-1.194,1.170
6404,0.0034,0.0268,-0.0011,-0.66,-0.56,0.89,0.219,1.468,-1.757,1.196
6414,0.0059,0.0272,-0.0016,-0.66,-0.55,0.90,0.217,-0.017,-1.424,0.794
6425,0.0101,0.0335,-0.0021,-0.69,-0.55,0.91,0.217,0.766,-1.976,0.932
6435,0.0144,0.0352,-0.0027,-0.69,-0.55,0.92,0.217,0.874,-2.170,0.769
6444,0.0145,0.0369,-0.0047,-0.69,-0.54,0.93,0.217,0.636,-3.030,0.754
6454,0.0144,0.0423,-0.0049,-0.72,-0.51,0.94,0.217,0.226,-2.563,0.051
6464,0.0183,0.0414,-0.0055,-0.71,-0.50,0.95,0.215,-0.544,-3.861,-0.445
6474,0.0198,0.0424,-0.0062,-0.70,-0.47,0.96,0.215,0.101,-2.706,0.026
6484,0.0214,0.0414,-0.0112,-0.68,-0.45,0.96,0.215,2.284,-1.668,0.196
6494,0.0244,0.0462,-0.0112,-0.70,-0.44,0.96,0.215,2.273,-3.451,-0.154
6504,0.0251,0.0474,-0.0112,-0.69,-0.41,0.96,0.215,-0.469,-1.882,-0.445
6514,0.0283,0.0484,-0.0115,-0.68,-0.40,0.97,0.217,1.019,-2.153,-0.414
6525,0.0274,0.0505,-0.0119,-0.66,-0.36,0.97,0.217,2.662,-0.744,-0.274
6535,0.0301,0.0571,-0.0090,-0.69,-0.35,0.96,0.217,-0.913,-2.990,-1.243
6544,0.0329,0.0556,-0.0091,-0.66,-0.34,0.96,0.217,-1.782,-0.979,-1.360
6554,0.0338,0.0613,-0.0093,-0.66,-0.34,0.96,0.217,3.616,-1.657,-1.520
6565,0.0347,0.0599,-0.0097,-0.65,-0.32,0.95,0.215,1.105,-1.085,-1.072
6575,0.0354,0.0607,-0.0100,-0.65,-0.31,0.94,0.215,2.649,-1.605,-1.050
6585,0.0361,0.0588,-0.0117,-0.61,-0.29,0.93,0.215,-0.032,-2.827,-0.595
6595,0.0347,0.0629,-0.0118,-0.63,-0.26,0.92,0.215,2.175,-1.984,-0.681
6604,0.0368,0.0668,-0.0123,-0.64,-0.25,0.91,0.215,0.208,-2.762,-0.639
6614,0.0388,0.0700,-0.0125,-0.64,-0.23,0.90,0.215,0.404,-2.743,-1.007
6624,0.0390,0.0700,-0.0125,-0.62,-0.21,0.89,0.217,4.278,-1.364,0.018
6634,0.0407,0.0752,-0.0122,-0.64,-0.19,0.88,0.217,-0.752,-3.385,-0.512
6644,0.0411,0.0764,-0.0067,-0.62,-0.16,0.87,0.217,4.349,-1.585,-1.122
6655,0.0429,0.0745,-0.0062,-0.57,-0.16,0.87,0.217,3.758,-1.406,-0.890
6664,0.0411,0.0742,-0.0061,-0.56,-0.11,0.87,0.215,1.872,-3.379,-0.414
6674,0.0428,0.0767,-0.0062,-0.53,-0.11,0.86,0.215,0.927,-3.127,-0.572
6685,0.0443,0.0781,-0.0075,-0.51,-0.09,0.85,0.215,-0.970,-4.288,-0.689
6694,0.0489,0.0822,-0.0077,-0.51,-0.09,0.85,0.215,0.429,-4.037,-0.973
6704,0.0498,0.0869,-0.0077,-0.54,-0.07,0.84,0.215,2.972,-3.243,-0.583
6714,0.0476,0.0881,-0.0075,-0.55,-0.01,0.83,0.215,3.441,-3.050,-0.774
6724,0.0485,0.0857,-0.0076,-0.52,0.02,0.82,0.212,2.765,-3.407,-0.535
6735,0.0485,0.0866,-0.0078,-0.48,0.05,0.82,0.212,4.322,-2.313,-0.186
6745,0.0510,0.0933,-0.0142,-0.47,0.06,0.81,0.212,0.524,-1.859,-0.963
6754,0.0518,0.0952,-0.0144,-0.45,0.08,0.81,0.212,-2.249,-2.968,0.072
6764,0.0542,0.0955,-0.0145,-0.42,0.09,0.81,0.213,0.640,-2.342,-0.658
6774,0.0516,0.0960,-0.0147,-0.42,0.13,0.80,0.213,-0.041,-4.184,0.302
6785,0.0538,0.0967,-0.0149,-0.45,0.15,0.81,0.213,-1.257,-3.560,0.091
6794,0.0535,0.0975,-0.0151,-0.44,0.18,0.80,0.213,0.718,-3.258,-0.163
6805,0.0521,0.1046,-0.0156,-0.48,0.22,0.80,0.213,1.245,-0.856,0.352
6814,0.0527,0.1047,-0.0157,-0.47,0.25,0.80,0.213,3.728,0.214,0.558
6825,0.0546,0.1049,-0.0160,-0.45,0.27,0.80,0.210,1.388,-0.629,0.734
6835,0.0519,0.1068,-0.0158,-0.46,0.29,0.80,0.210,1.790,-0.811,0.878
6844,0.0525,0.1047,-0.0202,-0.42,0.29,0.81,0.210,2.605,-0.566,-0.099
6854,0.0520,0.1054,-0.0202,-0.40,0.30,0.82,0.210,4.057,-1.795,1.027
6864,0.0542,0.1185,-0.0207,-0.45,0.29,0.83,0.209,3.733,1.681,0.406
6874,0.0533,0.1210,-0.0208,-0.42,0.29,0.83,0.209,3.552,-0.115,1.593
6884,0.0527,0.1216,-0.0233,-0.40,0.30,0.83,0.209,1.789,-1.643,0.346
6894,0.0536,0.1188,-0.0232,-0.34,0.29,0.84,0.209,1.083,-2.285,0.059
6904,0.0531,0.1193,-0.0231,-0.31,0.30,0.86,0.209,1.267,-1.622,0.293
6915,0.0520,0.1147,-0.0224,-0.26,0.33,0.86,0.207,-0.272,-1.142,1.151
6924,0.0506,0.1204,-0.0221,-0.28,0.36,0.87,0.207,-0.320,-1.734,1.313
6934,0.0528,0.1228,-0.0217,-0.28,0.36,0.87,0.207,1.051,-1.516,0.391
6944,0.0501,0.1216,-0.0246,-0.26,0.37,0.88,0.207,0.725,-1.476,0.529
6955,0.0523,0.1224,-0.0240,-0.25,0.36,0.89,0.207,0.616,-3.017,0.642
6964,0.0495,0.1196,-0.0233,-0.22,0.39,0.90,0.207,3.284,-3.329,1.383
6975,0.0515,0.1235,-0.0230,-0.23,0.39,0.91,0.207,1.402,-3.157,2.634
6984,0.0484,0.1271,-0.0222,-0.23,0.43,0.91,0.207,2.845,0.799,2.678
6995,0.0485,0.1304,-0.0217,-0.22,0.45,0.93,0.207,3.706,-0.870,1.597
7004,0.0472,0.1255,-0.0206,-0.16,0.48,0.95,0.207,3.233,0.063,1.697
7014,0.0464,0.1258,-0.0199,-0.14,0.48,0.98,0.204,1.867,-0.541,1.779
7024,0.0453,0.1206,-0.0193,-0.08,0.49,0.99,0.204,3.371,-0.107,1.375
7034,0.0473,0.1353,-0.0234,-0.13,0.48,1.01,0.204,2.157,0.413,1.711
7044,0.0431,0.1234,-0.0221,-0.03,0.50,1.03,0.204,1.996,-0.958,1.600
7054,0.0451,0.1316,-0.0214,-0.06,0.49,1.05,0.204,2.264,-2.483,2.441
7064,0.0441,0.1279,-0.0207,-0.02,0.49,1.07,0.208,2.182,-0.227,2.071
7074,0.0416,0.1243,-0.0203,0.03,0.51,1.08,0.208,-0.844,-2.092,1.564
7084,0.0433,0.1343,-0.0114,-0.02,0.52,1.11,0.208,1.921,-2.814,1.744
7094,0.0421,0.1370,-0.0110,-0.03,0.53,1.13,0.208,4.720,-0.376,1.130
7104,0.0412,0.1370,-0.0105,-0.02,0.55,1.15,0.208,2.375,-1.516,0.779
7114,0.0400,0.1316,-0.0096,0.04,0.57,1.16,0.206,1.498,-0.210,1.009
7124,0.0390,0.1315,-0.0086,0.07,0.58,1.17,0.206,-0.459,-2.157,0.336
7134,0.0381,0.1274,-0.0073,0.12,0.59,1.18,0.206,3.175,-1.288,-0.475
7144,0.0431,0.1452,-0.0048,0.02,0.56,1.19,0.206,3.867,-0.068,-0.016
7154,0.0422,0.1451,-0.0041,0.02,0.58,1.19,0.206,1.997,-0.840,0.314
7164,0.0411,0.1389,-0.0034,0.09,0.58,1.19,0.202,0.199,-0.173,0.264
7174,0.0401,0.1387,-0.0027,0.12,0.58,1.19,0.202,3.533,0.539,0.119
7184,0.0374,0.1344,-0.0088,0.15,0.60,1.19,0.202,0.274,-1.260,0.668
7194,0.0363,0.1341,-0.0084,0.16,0.60,1.19,0.202,1.151,0.862,0.451
7204,0.0403,0.1525,-0.0088,0.07,0.57,1.19,0.202,3.291,-0.405,0.388
7214,0.0393,0.1524,-0.0081,0.07,0.58,1.20,0.202,2.821,0.330,0.104
7224,0.0383,0.1522,-0.0072,0.10,0.58,1.20,0.202,5.464,0.205,0.171
7234,0.0392,0.1470,-0.0063,0.15,0.58,1.20,0.202,2.046,-1.209,-0.375
7244,0.0382,0.1466,-0.0089,0.20,0.57,1.20,0.202,4.165,-0.309,-1.104
7254,0.0372,0.1463,-0.0083,0.24,0.57,1.20,0.202,5.060,0.293,-0.424
7264,0.0363,0.1458,-0.0075,0.27,0.58,1.20,0.200,2.214,-2.766,0.087
7274,0.0372,0.1576,-0.0072,0.24,0.57,1.19,0.200,1.698,-2.264,-0.577
7284,0.0381,0.1589,-0.0119,0.27,0.56,1.19,0.200,-0.017,-1.844,-0.851
7294,0.0371,0.1583,-0.0115,0.29,0.59,1.18,0.200,4.691,-0.135,-1.027
7304,0.0361,0.1578,-0.0107,0.30,0.62,1.18,0.200,2.891,-1.074,-0.884
7314,0.0370,0.1496,-0.0097,0.36,0.62,1.17,0.205,4.477,0.922,-1.104
7324,0.0360,0.1490,-0.0091,0.39,0.62,1.16,0.205,-0.223,-1.180,0.209
7334,0.0367,0.1630,-0.0091,0.34,0.62,1.15,0.205,3.012,-0.067,-0.908
7343,0.0378,0.1641,0.0014,0.36,0.60,1.15,0.205,3.774,-0.485,-0.716
7354,0.0367,0.1635,0.0024,0.37,0.61,1.14,0.205,0.560,-0.361,-0.935
7364,0.0357,0.1628,0.0029,0.40,0.61,1.13,0.201,2.283,-1.076,-1.064
7374,0.0347,0.1621,0.0034,0.42,0.62,1.13,0.201,3.550,0.018,-1.568
7384,0.0356,0.1742,0.0002,0.36,0.61,1.12,0.201,2.979,-0.874,-0.352
7394,0.0324,0.1667,0.0013,0.42,0.63,1.11,0.201,4.387,-2.309,-0.842
7404,0.0316,0.1655,0.0023,0.45,0.64,1.09,0.201,4.602,-0.882,-1.377
7414,0.0305,0.1647,0.0030,0.48,0.65,1.09,0.203,5.295,-0.845,-0.658
7424,0.0297,0.1550,0.0042,0.57,0.67,1.07,0.203,4.849,0.621,-1.245
7434,0.0291,0.1455,0.0072,0.68,0.67,1.06,0.203,4.630,-1.008,-1.427
7444,0.0263,0.1387,0.0082,0.75,0.69,1.05,0.203,1.336,-2.174,-1.100
7454,0.0251,0.1374,0.0091,0.80,0.69,1.03,0.203,4.604,-0.158,-1.749
7464,0.0262,0.1467,0.0091,0.78,0.69,1.02,0.204,4.877,0.511,-1.522
7474,0.0236,0.1422,0.0095,0.82,0.71,1.01,0.204,1.764,-0.710,-1.269
7484,0.0250,0.1395,0.0122,0.87,0.70,0.99,0.204,2.765,0.279,-0.995
7494,0.0238,0.1379,0.0128,0.92,0.70,0.98,0.204,-1.382,-0.922,-1.124
7504,0.0226,0.1363,0.0134,0.94,0.69,0.97,0.204,1.971,0.926,-2.414
7514,0.0202,0.1301,0.0140,0.98,0.71,0.96,0.204,-0.296,-0.443,-1.457
7524,0.0190,0.1284,0.0145,0.98,0.71,0.94,0.197,-4.806,-2.413,-1.381
7534,0.0178,0.1267,0.0146,1.00,0.70,0.92,0.197,-0.761,-0.124,-2.576
7543,0.0167,0.1247,-0.0025,0.98,0.72,0.91,0.197,-0.840,-1.737,-1.635
7554,0.0155,0.1230,-0.0028,0.95,0.73,0.89,0.197,-1.807,0.093,-1.463
7564,0.0195,0.1370,-0.0031,0.85,0.71,0.87,0.203,-2.023,-0.867,-2.403
7573,0.0183,0.1355,-0.0027,0.83,0.72,0.85,0.203,-0.863,0.253,-2.526
7584,0.0206,0.1359,0.0024,0.81,0.70,0.83,0.203,2.409,2.061,-2.076
7594,0.0194,0.1345,0.0029,0.80,0.70,0.81,0.203,2.141,1.045,-1.635
7603,0.0183,0.1331,0.0035,0.80,0.68,0.78,0.203,2.590,-0.303,-2.237
7614,0.0171,0.1317,0.0045,0.82,0.66,0.76,0.204,1.924,-0.792,-2.338
7624,0.0151,0.1250,0.0056,0.88,0.66,0.74,0.204,2.696,-2.295,-2.271
7634,0.0140,0.1235,0.0064,0.90,0.67,0.72,0.204,2.166,-3.009,-2.634
7643,0.0128,0.1219,0.0119,0.93,0.68,0.69,0.204,3.192,-2.692,-2.554
7654,0.0117,0.1203,0.0128,0.95,0.70,0.67,0.204,2.711,-2.991,-2.548
7663,0.0044,0.1111,0.0139,1.02,0.77,0.64,0.203,1.574,-4.408,-2.898
7673,0.0046,0.1027,0.0148,1.09,0.79,0.61,0.203,2.511,-3.375,-2.911
7683,0.0136,0.1153,0.0139,1.03,0.76,0.59,0.203,1.378,-3.681,-2.908
7694,0.0063,0.1072,0.0144,1.08,0.84,0.56,0.203,-0.887,-2.357,-3.060
7704,0.0104,0.1103,0.0149,1.07,0.83,0.53,0.203,0.874,-2.450,-2.535
7713,0.0089,0.1083,0.0154,1.07,0.87,0.50,0.203,-1.110,-0.567,-2.787
7723,0.0074,0.1064,0.0158,1.07,0.89,0.47,0.205,-0.008,-1.489,-3.414
7733,0.0059,0.1046,0.0162,1.07,0.91,0.45,0.205,1.274,1.174,-2.148
7744,0.0043,0.1027,0.0187,1.07,0.91,0.42,0.205,0.336,1.049,-3.334
7753,0.0027,0.1009,0.0189,1.08,0.93,0.39,0.205,-2.978,-0.614,-3.778
7763,0.0012,0.0990,0.0191,1.09,0.91,0.36,0.210,-0.575,-1.185,-3.614
7774,-0.0004,0.0971,0.0194,1.08,0.90,0.33,0.210,1.265,-2.142,-3.600
7784,-0.0022,0.0923,0.0295,1.10,0.92,0.29,0.210,1.762,-0.349,-2.072
7794,-0.0038,0.0904,0.0295,1.09,0.93,0.25,0.210,2.087,-2.037,-2.586
7803,-0.0053,0.0886,0.0296,1.10,0.95,0.22,0.210,-0.563,-3.551,-2.796
7813,-0.0070,0.0867,0.0298,1.13,0.95,0.20,0.209,1.605,-4.337,-2.054
7823,-0.0113,0.0790,0.0299,1.19,1.00,0.17,0.209,0.662,-2.468,-2.002
7833,-0.0105,0.0750,0.0298,1.21,1.01,0.14,0.209,0.208,-0.473,-2.487
7844,-0.0123,0.0729,0.0297,1.22,1.05,0.12,0.209,1.993,1.917,-2.311
7854,-0.0139,0.0786,0.0291,1.21,1.07,0.10,0.209,-0.585,0.567,-2.821
7863,-0.0053,0.0937,0.0287,1.12,1.01,0.08,0.208,3.514,0.063,-2.672
7874,-0.0070,0.0918,0.0282,1.13,1.00,0.06,0.208,-3.039,-2.634,-2.328
7884,-0.0087,0.0899,0.0229,1.14,0.99,0.04,0.208,2.141,-0.409,-2.236
7893,-0.0126,0.0827,0.0225,1.17,1.01,0.01,0.208,-0.305,1.426,-1.824
7904,-0.0141,0.0818,0.0219,1.13,1.02,-0.01,0.208,-1.140,0.478,-2.057
7913,-0.0152,0.0730,0.0215,1.17,1.02,-0.03,0.209,2.509,1.289,-1.314
7923,-0.0169,0.0710,0.0211,1.18,1.01,-0.05,0.209,2.889,2.874,-1.245
7933,-0.0186,0.0690,0.0207,1.19,1.01,-0.07,0.209,2.715,-1.636,-1.209
7943,-0.0203,0.0670,0.0166,1.20,0.99,-0.08,0.209,0.218,0.602,-1.696
7953,-0.0254,0.0601,0.0162,1.28,1.00,-0.10,0.209,3.986,1.666,-1.292
7964,-0.0271,0.0579,0.0157,1.29,1.01,-0.11,0.209,5.849,2.047,-2.517
7974,-0.0272,0.0645,0.0152,1.26,0.99,-0.13,0.209,3.735,3.246,-1.179
7984,-0.0294,0.0482,0.0114,1.39,0.98,-0.15,0.209,1.051,0.106,-2.019
7994,-0.0310,0.0458,0.0110,1.44,0.95,-0.17,0.209,-1.959,-3.768,-2.071
8004,-0.0328,0.0402,0.0104,1.49,0.93,-0.18,0.209,-2.868,-1.164,-1.417
8014,-0.0344,0.0377,0.0095,1.47,0.95,-0.20,0.212,-0.972,1.077,-2.225
8024,-0.0360,0.0352,0.0092,1.45,0.97,-0.23,0.212,-5.086,-2.287,-2.553
8033,-0.0377,0.0327,0.0092,1.42,0.99,-0.24,0.212,2.041,1.869,-1.870
8043,-0.0396,0.0258,0.0123,1.44,0.99,-0.27,0.212,-1.309,-1.934,-1.800
8053,-0.0413,0.0234,0.0118,1.41,0.99,-0.29,0.212,-2.367,0.150,-1.668
8064,-0.0428,0.0192,0.0115,1.44,0.98,-0.30,0.208,3.134,2.388,-1.808
8073,-0.0444,0.0167,0.0111,1.42,0.99,-0.32,0.208,0.468,1.445,-1.377
8083,-0.0460,0.0143,0.0030,1.42,0.98,-0.33,0.208,1.363,1.963,-0.604
8093,-0.0520,0.0030,0.0024,1.49,0.99,-0.35,0.208,1.597,0.365,-1.194
8103,-0.0504,0.0048,0.0021,1.48,0.95,-0.36,0.208,-0.640,1.458,-1.710
8114,-0.0521,0.0023,0.0017,1.50,0.93,-0.37,0.213,-4.351,2.327,-1.290
8124,-0.0532,-0.0005,0.0014,1.50,0.92,-0.38,0.213,-6.409,3.346,0.112
8134,-0.0497,-0.0030,0.0072,1.47,0.87,-0.40,0.213,-3.466,-0.896,-1.612
8144,-0.0490,-0.0019,0.0072,1.46,0.87,-0.40,0.213,-10.943,-1.377,-0.427
8153,-0.0519,-0.0068,0.0072,1.35,0.82,-0.41,0.213,-4.811,-0.984,-0.264
8164,-0.0519,-0.0068,0.0072,1.35,0.82,-0.41,0.211,-0.303,0.389,-0.652
8173,-0.0640,-0.0293,0.0062,1.31,0.90,-0.43,0.211,-3.446,-1.017,1.007
8183,-0.0633,-0.0266,0.0047,1.29,0.90,-0.43,0.211,1.111,0.046,-0.390
8193,-0.0664,-0.0309,0.0050,1.21,0.92,-0.43,0.211,1.254,0.619,0.063
8204,-0.0655,-0.0292,0.0051,1.20,0.91,-0.43,0.211,0.232,-0.818,-1.010
8213,-0.0655,-0.0363,0.0051,1.21,0.91,-0.44,0.213,5.219,0.287,-0.443
8223,-0.0622,-0.0330,0.0052,1.19,0.89,-0.44,0.213,-0.047,-0.924,0.565
8233,-0.0686,-0.0418,0.0078,1.27,0.91,-0.45,0.213,2.185,0.014,-0.435
8243,-0.0672,-0.0446,0.0077,1.29,0.90,-0.45,0.213,0.346,1.753,0.246
8253,-0.0680,-0.0447,0.0075,1.29,0.91,-0.45,0.213,0.250,2.414,0.334
8264,-0.0696,-0.0469,0.0073,1.31,0.90,-0.45,0.212,-3.028,3.608,0.687
8274,-0.0711,-0.0491,0.0069,1.31,0.88,-0.45,0.212,-2.370,0.316,0.089
8284,-0.0726,-0.0513,0.0050,1.29,0.86,-0.44,0.212,-4.630,1.869,0.678
8294,-0.0721,-0.0527,0.0049,1.25,0.82,-0.44,0.212,-8.555,-0.849,0.309
8303,-0.0735,-0.0548,0.0049,1.22,0.81,-0.43,0.212,-8.956,2.108,-0.639
8314,-0.0734,-0.0531,0.0048,1.12,0.80,-0.43,0.212,-7.744,1.759,0.096
8324,-0.0748,-0.0550,0.0047,1.02,0.80,-0.43,0.214,-9.702,1.903,0.493
8334,-0.0852,-0.0742,0.0075,1.04,0.82,-0.43,0.214,-8.454,-0.213,-0.498
8343,-0.0866,-0.0795,0.0074,0.97,0.81,-0.44,0.214,-7.186,0.869,2.179
8353,-0.0817,-0.0619,0.0078,0.79,0.77,-0.43,0.214,0.002,-1.123,-0.265
8363,-0.0841,-0.0722,0.0075,0.85,0.78,-0.43,0.213,0.824,-0.319,0.507
8373,-0.0854,-0.0736,0.0075,0.79,0.78,-0.42,0.213,3.444,0.132,0.872
8383,-0.0830,-0.0731,0.0063,0.76,0.75,-0.42,0.213,1.091,0.356,0.713
8393,-0.0826,-0.0728,0.0062,0.74,0.75,-0.42,0.213,-1.429,0.838,1.317
8404,-0.0823,-0.0712,0.0059,0.73,0.74,-0.41,0.213,2.901,2.109,0.152
8413,-0.0835,-0.0724,0.0057,0.74,0.74,-0.40,0.215,1.257,2.367,1.045
8423,-0.0825,-0.0706,0.0054,0.73,0.73,-0.40,0.215,3.330,2.543,2.755
8433,-0.0818,-0.0687,0.0051,0.74,0.69,-0.39,0.215,1.152,2.266,1.901
8444,-0.0827,-0.0677,0.0080,0.73,0.67,-0.38,0.215,-1.894,2.126,1.637
8453,-0.0839,-0.0738,0.0077,0.79,0.63,-0.36,0.215,-0.674,3.181,2.061
8463,-0.0810,-0.0652,0.0073,0.75,0.59,-0.34,0.211,-2.301,4.111,2.454
8473,-0.0858,-0.0795,0.0064,0.84,0.59,-0.32,0.211,-6.431,0.405,1.355
8483,-0.0843,-0.0773,-0.0015,0.80,0.55,-0.31,0.211,-5.564,1.406,2.366
8494,-0.0832,-0.0698,-0.0017,0.73,0.50,-0.28,0.211,-11.040,0.955,1.020
8503,-0.0840,-0.0710,-0.0020,0.68,0.48,-0.26,0.211,-8.948,-0.557,0.915
8513,-0.0849,-0.0825,-0.0026,0.68,0.47,-0.24,0.211,-9.392,0.209,1.431
8523,-0.0839,-0.0807,-0.0028,0.57,0.45,-0.23,0.212,-6.132,1.160,1.978
8533,-0.0831,-0.0771,-0.0027,0.46,0.44,-0.22,0.212,-2.239,-0.006,2.020
8543,-0.0874,-0.0890,-0.0051,0.45,0.46,-0.20,0.212,-0.095,0.343,1.628
8553,-0.0861,-0.0873,-0.0051,0.37,0.45,-0.19,0.212,0.393,-1.546,2.023
8563,-0.0834,-0.0775,-0.0048,0.27,0.42,-0.17,0.209,0.948,0.994,2.686
8573,-0.0841,-0.0780,-0.0044,0.25,0.41,-0.15,0.209,2.342,-0.283,2.148
8583,-0.0883,-0.0890,-0.0116,0.31,0.44,-0.13,0.209,1.496,0.035,2.998
8593,-0.0891,-0.0896,-0.0114,0.32,0.44,-0.11,0.209,2.322,1.551,2.870
8603,-0.0880,-0.0869,-0.0109,0.32,0.42,-0.08,0.209,0.803,0.308,1.863
8613,-0.0869,-0.0841,-0.0104,0.31,0.41,-0.06,0.211,-1.015,0.417,2.210
8623,-0.0876,-0.0846,-0.0102,0.32,0.40,-0.03,0.211,-1.771,0.935,1.830
8633,-0.0900,-0.0818,-0.0100,0.32,0.40,-0.00,0.211,-3.181,1.303,1.841
8643,-0.0887,-0.0790,-0.0084,0.31,0.38,0.02,0.211,-2.500,2.174,2.359
8653,-0.0891,-0.0778,-0.0080,0.30,0.37,0.04,0.211,-3.556,0.367,2.055
8663,-0.0877,-0.0750,-0.0076,0.25,0.35,0.06,0.208,-5.324,-0.491,1.793
8672,-0.0863,-0.0655,-0.0073,0.16,0.32,0.08,0.208,-4.046,0.614,1.219
8683,-0.0850,-0.0675,-0.0121,0.14,0.29,0.10,0.208,-3.756,1.446,1.205
8693,-0.0838,-0.0677,-0.0114,0.09,0.29,0.12,0.208,-1.777,0.049,1.167
8703,-0.0811,-0.0562,-0.0106,-0.03,0.27,0.14,0.208,-1.794,-0.133,1.469
8713,-0.0848,-0.0618,-0.0102,-0.04,0.28,0.15,0.210,-1.119,-2.523,0.952
8723,-0.0820,-0.0608,-0.0095,-0.08,0.25,0.16,0.210,-1.731,-1.676,1.329
8733,-0.0810,-0.0615,-0.0086,-0.09,0.24,0.17,0.210,-0.168,-1.625,0.832
8742,-0.0803,-0.0589,-0.0056,-0.12,0.25,0.18,0.210,0.537,0.153,0.784
8753,-0.0764,-0.0515,-0.0049,-0.17,0.24,0.19,0.210,1.005,0.242,0.432
8763,-0.0774,-0.0525,-0.0043,-0.17,0.26,0.20,0.209,2.182,0.132,0.280
8773,-0.0765,-0.0520,-0.0036,-0.17,0.27,0.21,0.209,0.201,-1.726,0.404
8783,-0.0695,-0.0375,-0.0032,-0.25,0.21,0.22,0.209,1.296,-0.032,0.204
8793,-0.0736,-0.0422,-0.0029,-0.20,0.24,0.22,0.209,1.162,0.546,-0.223
8803,-0.0777,-0.0468,-0.0024,-0.17,0.27,0.23,0.209,-0.777,-0.370,0.259
8813,-0.0782,-0.0465,-0.0019,-0.15,0.28,0.23,0.209,-1.373,0.438,0.230
8823,-0.0774,-0.0382,-0.0015,-0.19,0.27,0.23,0.209,-0.866,-0.840,-0.867
8833,-0.0768,-0.0363,-0.0010,-0.20,0.26,0.23,0.209,-2.632,-0.992,-0.235
8843,-0.0804,-0.0471,-0.0006,-0.15,0.29,0.23,0.209,-1.433,0.026,-0.774
8853,-0.0782,-0.0386,-0.0001,-0.20,0.26,0.23,0.209,-1.148,-0.758,-1.342
8863,-0.0787,-0.0382,0.0004,-0.22,0.28,0.22,0.207,0.289,2.158,-1.233
8872,-0.0792,-0.0379,0.0009,-0.24,0.28,0.22,0.207,-0.697,-1.205,-1.049
8883,-0.0795,-0.0374,-0.0032,-0.25,0.28,0.20,0.207,0.146,0.628,-0.649
8892,-0.0834,-0.0356,-0.0025,-0.27,0.29,0.19,0.207,0.327,0.024,-1.197
8902,-0.0825,-0.0335,-0.0023,-0.28,0.28,0.18,0.207,0.427,1.125,-1.355
8913,-0.0798,-0.0269,-0.0022,-0.32,0.26,0.17,0.207,-0.128,0.302,-1.299
8923,-0.0787,-0.0237,-0.0017,-0.34,0.25,0.16,0.209,0.852,1.662,-1.325
8932,-0.0825,-0.0273,-0.0014,-0.31,0.26,0.15,0.209,0.020,0.352,-0.556
8943,-0.0832,-0.0208,0.0013,-0.34,0.25,0.14,0.209,0.376,0.035,-1.153
8953,-0.0804,-0.0180,0.0017,-0.35,0.22,0.12,0.209,-0.330,0.079,-0.863
8962,-0.0809,-0.0169,0.0019,-0.35,0.22,0.12,0.207,-1.006,0.824,-0.930
8973,-0.0798,-0.0157,0.0026,-0.35,0.21,0.11,0.207,0.483,0.614,-1.309
8982,-0.0787,-0.0145,0.0000,-0.35,0.20,0.10,0.207,1.407,0.807,-0.575
8993,-0.0791,-0.0134,0.0005,-0.36,0.20,0.09,0.207,0.687,1.257,-0.607
9003,-0.0780,-0.0125,0.0010,-0.35,0.18,0.08,0.207,1.381,0.824,-0.793
9013,-0.0753,-0.0101,0.0016,-0.35,0.15,0.07,0.209,1.079,0.728,-1.087
9022,-0.0773,-0.0093,0.0020,-0.34,0.15,0.06,0.209,0.223,1.068,-0.672
9032,-0.0778,-0.0085,0.0025,-0.33,0.14,0.05,0.209,0.108,0.854,-0.892
9042,-0.0767,-0.0061,0.0053,-0.33,0.12,0.04,0.209,-0.133,0.845,-1.216
9052,-0.0739,-0.0007,0.0060,-0.36,0.09,0.03,0.209,-0.471,0.136,-1.473
9063,-0.0728,0.0013,0.0066,-0.36,0.07,0.03,0.211,-0.575,0.565,-1.493
9072,-0.0763,0.0017,0.0067,-0.35,0.09,0.01,0.211,1.330,-0.348,-1.539
9082,-0.0738,0.0005,0.0118,-0.32,0.07,-0.00,0.211,1.493,-0.646,-1.835
9093,-0.0742,0.0040,0.0122,-0.33,0.06,-0.02,0.211,4.644,-0.005,-1.272
9102,-0.0743,0.0046,0.0127,-0.31,0.06,-0.03,0.211,-1.557,0.467,-1.447
9112,-0.0736,0.0049,0.0131,-0.29,0.06,-0.05,0.211,1.391,0.298,-1.477
9122,-0.0737,0.0054,0.0135,-0.26,0.06,-0.06,0.211,1.589,2.372,-1.678
9132,-0.0742,0.0198,0.0150,-0.35,0.06,-0.08,0.211,1.153,2.335,-1.016
9143,-0.0716,0.0276,0.0151,-0.38,0.04,-0.10,0.211,2.323,0.960,-1.147
9152,-0.0719,0.0269,0.0153,-0.37,0.03,-0.12,0.211,1.284,0.591,-1.324
9162,-0.0706,0.0264,0.0155,-0.34,-0.00,-0.13,0.208,0.809,-0.044,-1.803
9173,-0.0696,0.0273,0.0160,-0.33,-0.02,-0.15,0.208,0.354,0.233,-1.178
9182,-0.0684,0.0267,0.0089,-0.30,-0.03,-0.16,0.208,-0.011,-0.721,-1.858
9193,-0.0675,0.0261,0.0088,-0.28,-0.03,-0.17,0.208,-1.953,0.111,-1.857
9202,-0.0665,0.0255,0.0089,-0.26,-0.05,-0.18,0.208,1.902,0.494,-2.213
9212,-0.0671,0.0266,0.0089,-0.25,-0.05,-0.20,0.208,0.343,-0.783,-2.041
9222,-0.0617,0.0321,0.0088,-0.29,-0.09,-0.21,0.208,-1.815,-0.973,-2.264
9233,-0.0671,0.0267,0.0084,-0.24,-0.06,-0.23,0.208,-0.416,-0.350,-1.810
9242,-0.0632,0.0368,0.0026,-0.29,-0.08,-0.25,0.208,-1.969,-3.227,-2.403
9252,-0.0610,0.0423,0.0027,-0.34,-0.08,-0.27,0.208,-5.346,-2.587,-2.153
9262,-0.0605,0.0417,0.0029,-0.34,-0.08,-0.29,0.215,-6.044,-2.210,-3.005
9272,-0.0617,0.0411,0.0027,-0.35,-0.04,-0.32,0.215,-3.091,-1.458,-2.837
9282,-0.0601,0.0427,0.0149,-0.40,-0.02,-0.34,0.215,-0.137,-1.831,-2.584
9292,-0.0597,0.0422,0.0146,-0.46,-0.00,-0.37,0.215,1.403,-2.299,-2.429
9302,-0.0592,0.0417,0.0144,-0.48,0.01,-0.39,0.215,-0.115,-1.045,-2.801
9312,-0.0603,0.0409,0.0146,-0.47,0.03,-0.42,0.211,4.115,-0.580,-2.248
9322,-0.0604,0.0417,0.0144,-0.46,0.04,-0.44,0.211,2.339,1.015,-1.546
9332,-0.0604,0.0425,0.0144,-0.44,0.06,-0.47,0.211,7.719,1.710,-1.405
9342,-0.0583,0.0553,0.0109,-0.48,0.05,-0.50,0.211,3.357,1.387,-1.528
9352,-0.0577,0.0553,0.0107,-0.45,0.04,-0.51,0.211,1.499,0.555,-2.746
9363,-0.0556,0.0594,0.0102,-0.41,0.01,-0.53,0.211,4.672,-0.253,-3.413
9372,-0.0549,0.0577,0.0102,-0.35,-0.01,-0.54,0.211,2.068,-0.137,-2.861
9382,-0.0559,0.0559,0.0069,-0.32,-0.01,-0.56,0.211,3.922,-0.336,-2.032
9392,-0.0540,0.0553,0.0068,-0.27,-0.02,-0.59,0.211,1.854,1.295,-2.055
9402,-0.0520,0.0675,0.0066,-0.31,-0.03,-0.62,0.211,-3.470,-0.788,-3.194
9412,-0.0517,0.0666,0.0067,-0.28,-0.03,-0.64,0.211,1.078,0.349,-3.375
9422,-0.0497,0.0707,0.0068,-0.28,-0.05,-0.66,0.211,0.386,1.059,-3.580
9432,-0.0495,0.0705,0.0069,-0.31,-0.05,-0.69,0.211,-1.750,-2.626,-4.258
9442,-0.0494,0.0710,0.0041,-0.30,-0.05,-0.73,0.211,3.229,-0.893,-2.574
9452,-0.0506,0.0692,0.0041,-0.28,-0.04,-0.76,0.211,-2.498,-3.490,-3.703
9462,-0.0505,0.0674,0.0045,-0.29,-0.02,-0.81,0.210,3.777,-1.120,-2.659
9472,-0.0519,0.0652,0.0042,-0.25,-0.01,-0.84,0.210,0.282,0.256,-3.388
9482,-0.0487,0.0787,-0.0004,-0.35,0.00,-0.87,0.210,-2.126,-3.222,-3.592
9492,-0.0441,0.0836,-0.0004,-0.35,-0.01,-0.90,0.210,-2.498,-1.846,-3.192
9503,-0.0441,0.0814,-0.0005,-0.32,0.00,-0.94,0.210,-0.012,-1.078,-3.322
9512,-0.0459,0.0795,-0.0006,-0.32,0.04,-0.97,0.207,-1.486,-0.257,-2.191
9522,-0.0459,0.0800,-0.0004,-0.34,0.05,-1.00,0.207,4.686,1.272,-4.038
9532,-0.0441,0.0931,-0.0006,-0.42,0.05,-1.04,0.207,1.431,1.412,-2.466
9542,-0.0423,0.0981,-0.0091,-0.45,0.04,-1.07,0.207,4.152,1.250,-2.771
9552,-0.0437,0.0948,-0.0088,-0.39,0.04,-1.10,0.207,9.401,0.447,-2.132
9562,-0.0403,0.0981,-0.0085,-0.38,0.01,-1.13,0.210,5.600,0.444,-2.091
9572,-0.0400,0.1070,-0.0086,-0.41,-0.00,-1.16,0.210,9.085,-2.743,-1.689
9582,-0.0386,0.1041,-0.0059,-0.31,-0.02,-1.18,0.210,3.912,-3.022,-2.256
9592,-0.0402,0.1019,-0.0057,-0.21,-0.01,-1.20,0.210,7.724,-1.782,-1.789
9602,-0.0422,0.0974,-0.0053,-0.11,0.02,-1.22,0.210,7.272,-2.017,-1.250
9612,-0.0423,0.0976,-0.0046,-0.05,0.05,-1.24,0.210,6.310,-6.281,-2.169
9622,-0.0423,0.0976,-0.0043,0.01,0.08,-1.25,0.213,-2.299,-1.489,0.105
9632,-0.0424,0.1162,-0.0046,-0.03,0.09,-1.27,0.213,-1.831,-2.849,-1.655
9642,-0.0434,0.1129,0.0049,0.05,0.15,-1.29,0.213,0.354,-2.033,0.108
9652,-0.0437,0.1129,0.0054,0.05,0.18,-1.30,0.213,0.348,-1.336,1.890
9662,-0.0443,0.1105,0.0060,0.05,0.21,-1.31,0.210,1.012,-0.803,1.421
9672,-0.0481,0.1063,0.0064,0.07,0.25,-1.31,0.210,0.829,1.014,1.408
9682,-0.0485,0.1062,0.0041,0.07,0.26,-1.29,0.210,-2.329,2.997,2.561
9692,-0.0450,0.1170,0.0039,0.02,0.25,-1.28,0.210,-0.942,3.420,2.508
9702,-0.0434,0.1191,0.0044,0.01,0.23,-1.26,0.210,6.527,3.430,2.931
9712,-0.0415,0.1164,0.0051,0.01,0.19,-1.24,0.210,6.035,3.576,3.240
9722,-0.0447,0.1120,0.0053,0.04,0.16,-1.21,0.210,0.734,0.249,4.466
9732,-0.0409,0.1232,0.0050,0.02,0.10,-1.18,0.210,7.629,1.892,3.271
9742,-0.0406,0.1257,0.0035,0.06,0.07,-1.15,0.210,2.890,1.661,4.319
9752,-0.0407,0.1256,0.0039,0.08,0.06,-1.11,0.210,4.103,-0.809,5.247
9762,-0.0423,0.1216,0.0043,0.16,0.05,-1.07,0.209,2.819,-2.312,4.720
9772,-0.0437,0.1161,0.0047,0.23,0.05,-1.03,0.209,0.743,-1.291,6.027
9782,-0.0421,0.1253,0.0010,0.22,0.04,-0.98,0.209,0.460,0.017,5.587
9792,-0.0407,0.1276,0.0013,0.23,0.05,-0.94,0.209,1.071,-1.160,5.474
9802,-0.0408,0.1272,0.0015,0.26,0.06,-0.88,0.209,3.135,0.388,6.566
9812,-0.0410,0.1221,0.0022,0.31,0.06,-0.82,0.208,2.382,1.052,5.744
9822,-0.0447,0.1168,0.0030,0.36,0.09,-0.77,0.208,2.361,2.508,6.679
9832,-0.0413,0.1276,0.0030,0.31,0.07,-0.71,0.208,1.784,3.227,6.780
9841,-0.0380,0.1300,-0.0014,0.31,0.05,-0.64,0.208,1.628,2.615,6.665
9852,-0.0380,0.1245,-0.0008,0.37,0.02,-0.58,0.208,0.995,1.629,7.148
9862,-0.0363,0.1237,-0.0003,0.39,-0.01,-0.51,0.211,0.369,1.429,7.009
9872,-0.0411,0.1169,0.0003,0.45,-0.00,-0.44,0.211,-1.145,-0.759,6.226
9882,-0.0361,0.1275,0.0040,0.39,-0.06,-0.37,0.211,0.405,1.580,6.355
9891,-0.0344,0.1301,0.0041,0.38,-0.08,-0.30,0.211,0.585,-1.695,6.324
9902,-0.0393,0.1124,0.0052,0.49,-0.05,-0.24,0.211,-0.194,-1.602,6.689
9913,-0.0376,0.1213,0.0053,0.43,-0.07,-0.18,0.206,0.497,-1.576,6.752
9922,-0.0375,0.1206,0.0054,0.45,-0.06,-0.11,0.206,4.033,0.248,6.542
9932,-0.0329,0.1312,0.0052,0.38,-0.06,-0.05,0.206,1.978,-2.218,6.606
9942,-0.0316,0.1333,-0.0036,0.37,-0.06,0.02,0.206,0.854,-4.005,6.520
9951,-0.0321,0.1273,-0.0033,0.44,-0.05,0.09,0.206,0.034,-2.527,6.970
9962,-0.0296,0.1232,-0.0035,0.48,-0.05,0.16,0.215,3.639,-0.493,6.815
9972,-0.0305,0.1224,-0.0035,0.49,-0.00,0.22,0.215,3.587,3.172,6.944
9982,-0.0345,0.1143,0.0115,0.54,0.05,0.29,0.215,5.247,3.064,6.250
9991,-0.0304,0.1274,0.0114,0.48,0.03,0.36,0.215,1.506,0.922,7.167
10002,-0.0305,0.1266,0.0116,0.51,0.00,0.43,0.215,4.466,1.604,6.750
10012,-0.0354,0.1206,0.0117,0.59,0.00,0.49,0.213,3.236,0.379,6.425
10023,-0.0293,0.1213,0.0115,0.60,-0.05,0.56,0.213,2.649,0.361,6.348
10031,-0.0296,0.1280,0.0143,0.59,-0.06,0.63,0.213,2.545,-0.796,6.288
10042,-0.0269,0.1285,0.0142,0.62,-0.09,0.70,0.213,0.475,-0.612,6.398
10051,-0.0268,0.1274,0.0140,0.64,-0.09,0.76,0.213,1.098,-1.425,6.954
10062,-0.0291,0.1229,0.0135,0.68,-0.07,0.83,0.213,3.270,-2.180,6.512
10072,-0.0289,0.1218,0.0130,0.69,-0.06,0.90,0.213,2.565,-3.023,6.216
10082,-0.0329,0.1157,0.0134,0.74,-0.01,0.96,0.213,2.465,-1.670,6.305
10092,-0.0274,0.1277,0.0130,0.69,-0.02,1.02,0.213,1.710,-1.833,6.600
10102,-0.0266,0.1231,0.0128,0.74,0.00,1.09,0.213,2.538,-1.368,6.369
10111,-0.0259,0.1219,0.0122,0.76,0.02,1.15,0.210,2.100,-1.182,5.956
10122,-0.0253,0.1173,0.0122,0.80,0.03,1.21,0.210,0.774,-2.152,5.304
10132,-0.0279,0.1114,0.0125,0.86,0.06,1.28,0.210,0.213,-1.727,4.663
10142,-0.0279,0.1098,0.0045,0.88,0.08,1.33,0.210,0.999,-1.621,4.082
10151,-0.0289,0.1039,0.0043,0.92,0.11,1.39,0.210,1.379,-0.998,3.739
10162,-0.0236,0.1148,0.0034,0.84,0.09,1.43,0.209,2.819,-2.212,2.937
10172,-0.0216,0.1154,0.0029,0.84,0.09,1.47,0.209,2.122,-1.741,1.892
10182,-0.0224,0.1093,-0.0043,0.88,0.11,1.51,0.209,1.851,-0.847,2.401
10191,-0.0221,0.1068,-0.0046,0.91,0.12,1.54,0.209,0.881,-1.927,1.697
10201,-0.0233,0.1011,-0.0049,0.96,0.14,1.56,0.209,1.840,-1.691,1.276
10212,-0.0260,0.0941,-0.0054,1.00,0.17,1.59,0.209,0.301,-1.711,1.430
10222,-0.0263,0.0924,-0.0057,1.01,0.19,1.61,0.209,1.747,-1.660,1.055
10232,-0.0266,0.0906,-0.0056,1.03,0.21,1.62,0.209,1.822,-1.775,-0.116
10242,-0.0216,0.1037,-0.0094,0.94,0.20,1.62,0.209,1.540,-0.781,-0.175
10251,-0.0219,0.1021,-0.0095,0.96,0.21,1.63,0.209,1.463,-1.178,-0.134
10262,-0.0217,0.1029,-0.0102,0.96,0.22,1.63,0.210,1.451,-0.057,-0.994
10272,-0.0220,0.1013,-0.0106,0.98,0.23,1.63,0.210,0.631,0.830,-0.751
10282,-0.0215,0.0971,-0.0095,1.01,0.23,1.63,0.210,1.705,-0.221,-1.580
10292,-0.0210,0.0930,-0.0096,1.04,0.22,1.62,0.210,0.547,0.659,-1.999
10302,-0.0206,0.0925,-0.0096,1.04,0.21,1.61,0.210,-0.482,-1.068,-1.462
10311,-0.0249,0.0816,-0.0094,1.11,0.24,1.60,0.210,-2.443,-0.512,-1.275
10321,-0.0212,0.0916,-0.0096,1.04,0.21,1.58,0.208,0.914,0.765,-1.736
10331,-0.0208,0.0898,-0.0097,1.04,0.21,1.56,0.208,-0.355,-0.813,-1.649
10341,-0.0189,0.0879,-0.0123,1.02,0.20,1.54,0.208,2.088,0.879,-1.661
10351,-0.0192,0.0862,-0.0120,1.02,0.20,1.53,0.208,-0.293,-0.826,-2.582
10361,-0.0206,0.0810,-0.0119,1.04,0.22,1.51,0.210,2.034,-3.091,-2.736
10371,-0.0209,0.0792,-0.0121,1.06,0.21,1.49,0.210,-0.077,-2.821,-2.587
10382,-0.0240,0.0777,-0.0081,1.06,0.24,1.47,0.210,0.294,-2.068,-2.364
10392,-0.0256,0.0725,-0.0075,1.09,0.27,1.44,0.210,1.839,-2.004,-3.191
10402,-0.0270,0.0659,-0.0073,1.12,0.30,1.42,0.210,2.816,-0.749,-3.254
10411,-0.0275,0.0640,-0.0076,1.12,0.32,1.39,0.210,1.415,0.538,-2.952
10422,-0.0280,0.0620,-0.0076,1.14,0.34,1.36,0.208,0.507,0.685,-3.137
10432,-0.0285,0.0601,-0.0076,1.16,0.34,1.33,0.208,0.243,0.448,-3.651
10442,-0.0226,0.0759,-0.0088,1.06,0.29,1.29,0.208,-2.078,-1.337,-3.712
10452,-0.0221,0.0781,-0.0087,1.04,0.28,1.26,0.208,-0.348,1.040,-4.175
10462,-0.0199,0.0732,-0.0086,1.06,0.26,1.22,0.209,-0.967,-0.987,-3.724
10471,-0.0233,0.0704,-0.0086,1.04,0.29,1.19,0.209,-0.943,0.110,-3.460
10481,-0.0238,0.0686,-0.0059,1.04,0.28,1.15,0.209,1.780,1.857,-4.147
10491,-0.0242,0.0668,-0.0057,1.04,0.28,1.11,0.209,1.430,1.748,-3.263
10501,-0.0255,0.0622,-0.0052,1.05,0.28,1.07,0.209,2.022,1.515,-3.429
10511,-0.0265,0.0576,-0.0047,1.07,0.27,1.04,0.209,3.487,2.223,-3.664
10522,-0.0274,0.0531,-0.0040,1.09,0.26,1.00,0.209,3.751,2.007,-3.928
10532,-0.0279,0.0512,-0.0012,1.11,0.24,0.97,0.209,4.394,1.502,-4.796
10541,-0.0286,0.0466,-0.0010,1.16,0.23,0.93,0.209,2.771,-0.717,-4.549
10551,-0.0290,0.0446,-0.0011,1.20,0.20,0.89,0.209,2.088,2.693,-3.826
10561,-0.0316,0.0418,-0.0011,1.25,0.20,0.85,0.207,2.196,1.294,-4.066
10571,-0.0325,0.0377,-0.0009,1.28,0.20,0.80,0.207,2.925,0.347,-4.227
10582,-0.0345,0.0315,-0.0037,1.33,0.19,0.76,0.207,-0.383,-0.354,-3.754
10591,-0.0331,0.0294,-0.0037,1.36,0.16,0.72,0.207,1.056,2.324,-4.281
10601,-0.0336,0.0256,-0.0040,1.39,0.15,0.68,0.207,-1.694,-1.050,-3.850
10611,-0.0324,0.0204,-0.0040,1.41,0.14,0.64,0.207,0.426,2.196,-3.921
10621,-0.0362,0.0169,-0.0038,1.43,0.15,0.60,0.207,-1.428,-0.583,-3.394
10632,-0.0368,0.0142,-0.0036,1.41,0.15,0.56,0.207,-1.825,0.202,-3.654
10642,-0.0354,0.0129,-0.0049,1.41,0.12,0.52,0.207,-0.481,0.884,-3.616
10652,-0.0326,0.0136,-0.0046,1.38,0.11,0.48,0.207,-0.962,-1.099,-4.091
10661,-0.0315,0.0128,-0.0044,1.34,0.10,0.45,0.203,-0.873,0.141,-3.071
10671,-0.0320,0.0100,-0.0046,1.33,0.09,0.41,0.203,1.084,-0.310,-3.827
10681,-0.0292,0.0076,-0.0136,1.33,0.08,0.37,0.203,1.062,-2.017,-3.473
10691,-0.0300,0.0051,-0.0131,1.32,0.08,0.34,0.203,-0.109,-1.056,-3.127
10701,-0.0301,0.0028,-0.0128,1.33,0.09,0.30,0.203,1.403,-1.203,-3.464
10712,-0.0302,0.0005,-0.0128,1.34,0.10,0.26,0.204,0.028,-2.206,-3.074
10721,-0.0310,-0.0017,-0.0125,1.33,0.11,0.23,0.204,0.276,-1.315,-2.568
10731,-0.0319,-0.0022,-0.0118,1.33,0.13,0.20,0.204,0.201,-2.915,-2.220
10741,-0.0360,-0.0400,-0.0130,1.55,0.17,0.17,0.204,-0.698,-0.781,-2.474
10751,-0.0351,-0.0363,-0.0124,1.52,0.18,0.15,0.204,-1.770,-0.019,-2.024
10761,-0.0343,-0.0441,-0.0122,1.56,0.20,0.12,0.206,-1.116,0.008,-1.597
10771,-0.0347,-0.0468,-0.0116,1.55,0.20,0.10,0.206,-2.608,-0.229,-1.450
10781,-0.0354,-0.0442,-0.0069,1.50,0.20,0.07,0.206,-2.464,-0.821,-1.398
10791,-0.0310,-0.0413,-0.0064,1.45,0.17,0.05,0.206,-6.030,-0.376,-0.627
10801,-0.0335,-0.0485,-0.0059,1.45,0.19,0.04,0.206,-3.856,-1.008,-1.396
10811,-0.0326,-0.0471,-0.0053,1.39,0.19,0.02,0.206,-2.340,-1.059,-0.856
10821,-0.0329,-0.0495,-0.0046,1.34,0.19,0.02,0.205,-3.466,-1.622,-0.354
10831,-0.0332,-0.0518,-0.0038,1.30,0.20,0.00,0.205,-3.336,-2.585,-0.229
10841,-0.0325,-0.0533,-0.0019,1.26,0.20,-0.00,0.205,-2.333,-2.260,-0.613
10851,-0.0328,-0.0555,-0.0013,1.23,0.21,-0.01,0.205,-1.041,-2.297,-0.730
10861,-0.0357,-0.0638,-0.0008,1.24,0.25,-0.01,0.204,-3.898,-3.177,-0.257
10871,-0.0314,-0.0541,0.0001,1.14,0.24,-0.02,0.204,-2.206,-3.450,0.011
10881,-0.0309,-0.0501,-0.0007,1.09,0.26,-0.03,0.204,-1.457,-2.029,0.356
10891,-0.0322,-0.0598,-0.0002,1.11,0.29,-0.03,0.204,-2.298,-1.198,-0.211
10901,-0.0233,-0.0435,0.0006,0.98,0.26,-0.04,0.204,-2.719,-0.539,-0.664
10911,-0.0264,-0.0569,0.0008,1.04,0.30,-0.03,0.203,-2.491,-0.529,-0.838
10921,-0.0276,-0.0595,0.0013,1.02,0.31,-0.04,0.203,-1.929,0.749,-1.088
10931,-0.0238,-0.0400,-0.0014,0.87,0.29,-0.05,0.203,-2.277,1.602,-0.970
10941,-0.0217,-0.0396,-0.0008,0.83,0.27,-0.06,0.203,-3.055,-0.199,-0.786
10951,-0.0222,-0.0410,-0.0007,0.81,0.27,-0.07,0.203,-2.756,2.298,-0.871
10961,-0.0227,-0.0424,-0.0006,0.78,0.26,-0.08,0.204,-3.183,0.053,-1.554
10971,-0.0231,-0.0437,-0.0005,0.75,0.26,-0.09,0.204,-1.683,0.781,-1.303
10981,-0.0235,-0.0450,-0.0000,0.73,0.24,-0.10,0.204,1.138,2.669,-1.335
10991,-0.0320,-0.0621,0.0001,0.80,0.29,-0.11,0.204,0.973,1.586,-0.598
11001,-0.0218,-0.0424,0.0010,0.65,0.21,-0.13,0.204,0.764,-0.931,-0.905
11011,-0.0222,-0.0435,0.0018,0.65,0.19,-0.14,0.206,1.496,-1.830,-0.879
11021,-0.0225,-0.0447,0.0022,0.66,0.18,-0.14,0.206,1.466,-1.905,-1.473
11031,-0.0228,-0.0458,0.0029,0.67,0.19,-0.15,0.206,1.351,-2.521,-1.386
11041,-0.0264,-0.0590,0.0083,0.77,0.23,-0.16,0.206,2.194,-0.667,-1.273
11051,-0.0220,-0.0466,0.0092,0.71,0.22,-0.18,0.206,1.436,-2.840,-1.898
11061,-0.0224,-0.0478,0.0096,0.72,0.25,-0.19,0.206,2.394,-1.522,-2.289
11071,-0.0228,-0.0491,0.0103,0.74,0.26,-0.21,0.206,2.459,0.186,-2.632
11081,-0.0225,-0.0464,0.0126,0.74,0.28,-0.23,0.206,0.231,-0.596,-2.658
11091,-0.0281,-0.0672,0.0126,0.88,0.32,-0.25,0.206,-1.522,0.500,-1.907
11101,-0.0274,-0.0756,0.0126,0.94,0.31,-0.28,0.206,-0.230,0.737,-2.181
11111,-0.0269,-0.0591,0.0136,0.83,0.31,-0.30,0.206,-1.942,0.768,-2.091
11121,-0.0339,-0.0797,0.0135,0.93,0.35,-0.32,0.204,-1.745,1.279,-2.493
11131,-0.0348,-0.0778,0.0139,0.90,0.34,-0.34,0.204,-1.580,1.030,-2.518
11141,-0.0338,-0.0791,0.0086,0.88,0.33,-0.36,0.204,-1.499,1.895,-2.295
11151,-0.0327,-0.0788,0.0086,0.85,0.30,-0.39,0.204,-2.707,0.074,-2.555
11160,-0.0370,-0.0838,0.0085,0.86,0.31,-0.41,0.205,-3.499,1.812,-1.471
11171,-0.0375,-0.0853,0.0083,0.84,0.29,-0.44,0.205,-4.564,0.753,-1.602
11181,-0.0381,-0.0827,0.0070,0.79,0.29,-0.46,0.205,-3.906,0.346,-2.240
11191,-0.0353,-0.0817,0.0073,0.73,0.26,-0.48,0.205,-3.757,-0.238,-1.490
11200,-0.0357,-0.0831,0.0074,0.68,0.25,-0.49,0.205,-2.284,1.812,-1.699
11211,-0.0362,-0.0843,0.0076,0.64,0.24,-0.51,0.205,-3.414,-1.376,-0.845
11221,-0.0366,-0.0854,0.0078,0.61,0.24,-0.53,0.205,-1.989,-0.147,-1.025
11231,-0.0391,-0.1012,0.0079,0.67,0.24,-0.54,0.205,-2.127,-0.671,-0.483
11241,-0.0362,-0.0991,0.0068,0.61,0.24,-0.55,0.205,-3.250,-1.330,-0.488
11251,-0.0351,-0.0937,0.0071,0.56,0.23,-0.56,0.205,-1.214,-0.558,-0.656
11261,-0.0397,-0.0976,0.0071,0.55,0.27,-0.56,0.206,-3.077,-1.934,-1.231
11271,-0.0333,-0.0922,0.0076,0.48,0.24,-0.57,0.206,-3.160,-2.243,-0.966
11281,-0.0324,-0.0854,0.0081,0.42,0.24,-0.57,0.206,-2.827,-1.098,-0.541
11291,-0.0336,-0.0873,0.0079,0.40,0.27,-0.58,0.206,-2.537,-1.975,-0.878
11301,-0.0330,-0.0859,0.0080,0.36,0.28,-0.59,0.206,-3.266,-1.778,-0.699
11311,-0.0270,-0.0656,0.0086,0.21,0.25,-0.60,0.208,-2.697,-1.556,-1.611
11321,-0.0274,-0.0659,0.0089,0.18,0.27,-0.61,0.208,-1.655,-0.191,-1.725
11331,-0.0396,-0.0983,0.0122,0.34,0.35,-0.62,0.208,-0.993,0.791,-0.880
11340,-0.0402,-0.0989,0.0126,0.31,0.37,-0.63,0.208,-1.046,-3.847,-1.421
11351,-0.0391,-0.0967,0.0133,0.27,0.36,-0.65,0.208,-0.488,-3.034,-1.714
11361,-0.0379,-0.0948,0.0134,0.25,0.34,-0.66,0.207,-1.299,-0.087,-1.328
11371,-0.0376,-0.0931,0.0132,0.23,0.36,-0.68,0.207,1.957,-1.645,-2.308
11381,-0.0382,-0.0934,0.0117,0.23,0.39,-0.69,0.207,0.891,0.244,-2.682
11391,-0.0391,-0.0880,0.0119,0.19,0.40,-0.71,0.207,-0.545,0.205,-2.469
11401,-0.0419,-0.0920,0.0119,0.23,0.42,-0.73,0.207,-0.321,-0.692,-3.330
11411,-0.0377,-0.0870,0.0119,0.20,0.41,-0.76,0.204,-2.177,0.022,-2.211
11421,-0.0367,-0.0821,0.0119,0.16,0.40,-0.78,0.204,-3.217,-1.978,-3.161
11431,-0.0396,-0.0840,0.0117,0.16,0.42,-0.81,0.204,-2.112,-0.718,-2.978
11441,-0.0402,-0.0840,0.0018,0.14,0.43,-0.84,0.204,-2.544,1.436,-2.350
11450,-0.0409,-0.0843,0.0018,0.12,0.44,-0.87,0.204,-0.629,1.164,-2.605
11461,-0.0363,-0.0734,0.0024,0.02,0.41,-0.89,0.208,-3.577,0.032,-1.964
11471,-0.0355,-0.0718,0.0027,-0.01,0.40,-0.92,0.208,0.241,-0.398,-3.860
11480,-0.0442,-0.1155,0.0054,0.24,0.44,-0.95,0.208,-2.550,-2.007,-3.292
11491,-0.0433,-0.1125,0.0056,0.20,0.43,-0.98,0.208,0.692,-0.560,-4.413
11501,-0.0459,-0.1082,0.0062,0.16,0.45,-1.01,0.208,-0.862,-0.690,-3.875
11511,-0.0467,-0.1084,0.0068,0.14,0.47,-1.05,0.209,-1.719,-1.282,-3.087
11520,-0.0475,-0.1086,0.0073,0.15,0.48,-1.10,0.209,-1.801,0.116,-2.643
11531,-0.0465,-0.1060,0.0081,0.12,0.48,-1.13,0.209,0.797,1.893,-3.080
11541,-0.0491,-0.1016,0.0124,0.08,0.50,-1.16,0.209,0.305,3.217,-2.877
11551,-0.0500,-0.1017,0.0128,0.07,0.49,-1.19,0.209,-1.765,1.413,-3.708
11560,-0.0509,-0.1018,0.0131,0.08,0.47,-1.22,0.207,-3.408,-0.160,-2.945
11570,-0.0517,-0.1020,0.0135,0.07,0.44,-1.25,0.207,-3.758,1.461,-1.697
11581,-0.0524,-0.1020,0.0104,0.05,0.43,-1.29,0.207,-8.273,0.500,-0.822
11590,-0.0570,-0.1161,0.0104,0.10,0.45,-1.32,0.207,-3.670,1.358,-2.053
11601,-0.0551,-0.1143,0.0108,0.04,0.42,-1.33,0.207,-4.089,-1.152,-1.849
11611,-0.0552,-0.1081,0.0116,-0.07,0.41,-1.34,0.208,-3.286,-2.076,-2.092
11621,-0.0591,-0.1101,0.0122,-0.10,0.42,-1.36,0.208,-0.466,-0.131,-1.928
11631,-0.0598,-0.1099,0.0127,-0.13,0.44,-1.38,0.208,-2.748,-1.821,-0.466
11640,-0.0606,-0.1096,0.0117,-0.17,0.46,-1.40,0.208,2.247,0.714,-1.777
11650,-0.0613,-0.1093,0.0123,-0.18,0.46,-1.41,0.208,0.346,-0.035,-1.825
11661,-0.0622,-0.1089,0.0128,-0.20,0.47,-1.42,0.210,-0.668,2.275,-1.137
11671,-0.0618,-0.1038,0.0134,-0.21,0.46,-1.43,0.210,-0.807,1.100,-1.146
11680,-0.0626,-0.1034,0.0160,-0.21,0.45,-1.45,0.210,-0.988,0.944,-1.714
11690,-0.0684,-0.1101,0.0160,-0.17,0.46,-1.47,0.210,1.607,4.066,-1.009
11700,-0.0704,-0.1162,0.0161,-0.15,0.46,-1.48,0.210,-0.340,1.234,-0.636
11710,-0.0718,-0.1086,0.0167,-0.20,0.45,-1.49,0.209,-3.736,0.064,-0.644
11720,-0.0686,-0.1017,0.0176,-0.23,0.39,-1.50,0.209,-1.729,2.375,-1.886
11730,-0.0702,-0.1078,0.0176,-0.21,0.38,-1.51,0.209,-2.635,4.090,-1.045
11740,-0.0654,-0.0849,0.0156,-0.39,0.35,-1.51,0.209,-1.962,0.757,-0.462
11750,-0.0668,-0.0970,0.0158,-0.32,0.32,-1.53,0.209,-1.561,0.493,-1.401
11761,-0.0673,-0.0964,0.0160,-0.33,0.28,-1.54,0.209,-2.864,2.144,-0.881
11771,-0.0678,-0.0959,0.0162,-0.37,0.28,-1.54,0.209,-5.541,1.548,-0.589
11781,-0.0670,-0.0909,0.0136,-0.41,0.27,-1.56,0.209,0.514,0.410,-1.008
11791,-0.0675,-0.0901,0.0140,-0.43,0.25,-1.56,0.209,-3.689,0.024,-1.726
11801,-0.0679,-0.0894,0.0142,-0.47,0.24,-1.57,0.209,-2.426,-1.189,-0.288
11810,-0.0754,-0.0859,0.0147,-0.51,0.29,-1.58,0.210,-2.989,-1.862,-0.429
11820,-0.0788,-0.1005,0.0149,-0.45,0.30,-1.60,0.210,3.138,-0.530,-1.723
11830,-0.0777,-0.0872,0.0141,-0.53,0.31,-1.60,0.210,-4.718,-1.115,-0.229
11840,-0.0750,-0.0856,0.0146,-0.56,0.30,-1.60,0.210,-1.291,0.860,-0.900
11850,-0.0722,-0.0794,0.0152,-0.58,0.28,-1.61,0.210,-2.333,-0.755,0.075
11861,-0.0718,-0.0759,0.0155,-0.64,0.29,-1.62,0.213,3.574,1.909,-0.321
11870,-0.0691,-0.0700,0.0158,-0.67,0.27,-1.62,0.213,-3.196,0.012,0.087
11881,-0.0725,-0.0800,0.0203,-0.62,0.28,-1.63,0.213,-1.251,2.390,0.410
11890,-0.0689,-0.0389,0.0212,-0.85,0.25,-1.62,0.213,4.580,2.552,-0.291
11900,-0.0663,-0.0321,0.0216,-0.91,0.22,-1.62,0.213,1.394,0.270,-1.318
11911,-0.0666,-0.0305,0.0217,-0.89,0.21,-1.62,0.210,-2.004,-0.237,-1.013
11920,-0.0640,-0.0245,0.0220,-0.89,0.18,-1.62,0.210,-1.893,0.859,-0.585
11930,-0.0613,-0.0201,0.0222,-0.92,0.15,-1.62,0.210,-0.603,1.311,-0.393
11940,-0.0662,-0.0330,0.0150,-0.85,0.17,-1.64,0.210,0.702,0.051,-0.527
11950,-0.0609,0.0043,0.0151,-1.07,0.13,-1.63,0.210,1.933,-1.478,-0.611
11960,-0.0603,0.0059,0.0152,-1.07,0.12,-1.63,0.215,3.010,-1.226,-0.530
11970,-0.0580,0.0156,0.0153,-1.10,0.11,-1.64,0.215,3.853,-2.025,-0.078
11980,-0.0582,0.0174,0.0209,-1.07,0.12,-1.64,0.215,7.989,-2.095,-0.077
11990,-0.0584,0.0193,0.0211,-1.04,0.14,-1.65,0.215,9.568,-3.135,0.300
12000,-0.0601,0.0215,0.0211,-0.99,0.17,-1.65,0.215,9.565,1.214,-0.764
12010,-0.0603,0.0232,0.0212,-0.90,0.18,-1.65,0.216,10.049,-0.140,-0.530
12021,-0.0602,0.0222,0.0217,-0.77,0.19,-1.65,0.216,4.680,1.952,0.499
12030,-0.0605,0.0235,0.0220,-0.68,0.18,-1.65,0.216,2.900,1.171,0.523
12040,-0.0601,0.0224,0.0250,-0.60,0.17,-1.65,0.216,-2.819,-2.114,1.450
12050,-0.0604,0.0235,0.0248,-0.56,0.15,-1.65,0.216,-1.391,0.136,0.757
12060,-0.0606,0.0244,0.0244,-0.55,0.16,-1.64,0.217,-0.641,-1.472,0.037
12071,-0.0608,0.0254,0.0243,-0.57,0.17,-1.63,0.217,3.551,0.401,0.043
12080,-0.0605,0.0260,0.0259,-0.60,0.18,-1.62,0.217,-0.183,-1.049,0.603
12090,-0.0608,0.0270,0.0255,-0.59,0.19,-1.62,0.217,-0.224,0.642,0.451
12100,-0.0623,0.0265,0.0250,-0.57,0.20,-1.62,0.217,5.859,0.359,-0.329
12111,-0.0626,0.0275,0.0249,-0.56,0.20,-1.61,0.214,3.937,-0.017,-0.986
12120,-0.0630,0.0285,0.0248,-0.54,0.19,-1.61,0.214,1.459,-0.327,-0.391
12130,-0.0602,0.0312,0.0247,-0.50,0.17,-1.62,0.214,1.502,-0.142,0.558
12140,-0.0636,0.0281,0.0150,-0.44,0.18,-1.62,0.214,0.806,0.862,1.050
12150,-0.0593,0.0271,0.0146,-0.42,0.15,-1.61,0.214,2.084,1.035,0.424
12160,-0.0588,0.0282,0.0142,-0.40,0.15,-1.61,0.214,2.763,1.023,0.203
12170,-0.0644,0.0184,0.0138,-0.33,0.18,-1.61,0.214,3.554,0.474,-0.065
12180,-0.0646,0.0190,0.0073,-0.30,0.17,-1.60,0.214,2.654,1.253,0.065
12190,-0.0618,0.0239,0.0070,-0.30,0.15,-1.60,0.214,2.555,0.438,0.808
12200,-0.0589,0.0306,0.0069,-0.31,0.12,-1.60,0.214,0.811,0.323,1.250
12210,-0.0566,0.0256,0.0070,-0.25,0.10,-1.59,0.216,-2.038,-1.826,2.149
12220,-0.0543,0.0283,0.0070,-0.24,0.08,-1.58,0.216,-6.357,-3.437,1.923
12230,-0.0542,0.0275,0.0072,-0.24,0.09,-1.56,0.216,-4.312,-2.876,1.641
12240,-0.0584,0.0110,0.0066,-0.17,0.13,-1.55,0.216,-0.501,-2.372,0.199
12250,-0.0509,0.0278,0.0066,-0.31,0.12,-1.52,0.216,1.959,0.126,1.056
12260,-0.0511,0.0283,0.0065,-0.33,0.14,-1.51,0.217,1.414,-0.495,1.624
12270,-0.0534,0.0282,0.0062,-0.33,0.18,-1.50,0.217,-3.016,-0.990,2.128
12279,-0.0537,0.0288,0.0075,-0.32,0.18,-1.49,0.217,-3.774,-1.742,1.670
12290,-0.0540,0.0293,0.0077,-0.34,0.19,-1.48,0.217,2.293,-0.454,2.431
12300,-0.0543,0.0299,0.0081,-0.36,0.20,-1.45,0.217,-3.041,-0.361,1.678
12310,-0.0546,0.0305,0.0083,-0.37,0.22,-1.44,0.221,4.475,1.267,1.288
12320,-0.0550,0.0312,0.0083,-0.37,0.21,-1.41,0.221,-0.836,-1.121,2.228
12330,-0.0553,0.0318,0.0082,-0.36,0.21,-1.40,0.221,1.865,1.908,1.696
12340,-0.0524,0.0540,0.0172,-0.48,0.19,-1.38,0.221,6.008,0.248,1.024
