time_ms,vel_x,vel_y,vel_z,roll,pitch,yaw,range_z,gyro_x,gyro_y,gyro_z,ekf_x,ekf_y,acc_x,acc_y,acc_z,ref_x,ref_y,ref_z,est_x,est_y
0,-0.0071,-0.0023,-0.0033,0.23,-1.31,-0.02,0.009,-0.153,0.075,0.171,0.0045,-0.0201,-0.0271,0.0061,1.0012,0.0000,0.0000,0.3000,0.0000,0.0000
10,-0.0046,0.0071,-0.0030,0.16,-1.33,-0.02,0.009,-0.369,-0.221,0.127,0.0045,-0.0190,-0.0248,0.0074,1.0007,0.0000,0.0000,0.3000,0.0000,0.0000
20,-0.0079,0.0102,0.0019,0.14,-1.30,-0.02,0.009,-0.134,-0.035,0.151,0.0041,-0.0184,-0.0248,0.0049,1.0069,0.0000,0.0000,0.3000,0.0000,0.0000
30,-0.0031,-0.0028,0.0022,0.24,-1.34,-0.02,0.009,-0.963,0.377,-0.160,0.0043,-0.0201,-0.0174,-0.0017,1.0003,0.0000,0.0000,0.3000,0.0000,0.0000
40,-0.0033,0.0034,0.0022,0.19,-1.34,-0.02,0.009,-0.174,0.393,0.408,0.0043,-0.0199,-0.0232,0.0012,0.9992,0.0000,0.0000,0.3000,0.0000,0.0000
50,-0.0057,0.0069,0.0023,0.16,-1.32,-0.02,0.009,0.816,2.146,-0.039,0.0045,-0.0176,-0.0262,-0.0036,1.0029,0.0000,0.0000,0.3000,0.0000,0.0000
60,-0.0044,-0.0022,0.0026,0.23,-1.33,-0.02,0.009,0.279,0.860,-0.405,0.0041,-0.0178,-0.0321,0.0131,1.0187,0.0000,0.0000,0.3000,0.0000,0.0000
70,-0.0043,-0.0008,0.0059,0.22,-1.33,-0.02,0.009,-0.305,0.814,-0.833,0.0047,-0.0194,-0.0179,-0.0105,0.9845,0.0000,0.0000,0.3000,0.0000,0.0000
80,-0.0026,0.0115,0.0061,0.12,-1.35,-0.02,0.009,0.216,-1.292,0.094,0.0047,-0.0188,-0.0294,-0.0103,0.9864,0.0000,0.0000,0.3000,0.0000,0.0000
90,-0.0024,0.0097,0.0059,0.13,-1.33,-0.02,0.009,0.065,1.800,-0.567,0.0047,-0.0192,-0.0272,-0.0015,1.0178,0.0000,0.0000,0.3000,0.0000,0.0000
101,0.0035,-0.0002,0.0064,0.21,-1.38,-0.02,0.009,-0.387,0.584,0.647,0.0039,-0.0184,-0.0250,-0.0084,1.0000,0.0000,0.0000,0.3000,0.0000,0.0000
110,0.0057,0.0030,0.0076,0.18,-1.37,-0.02,0.009,0.455,1.572,-1.124,0.0046,-0.0186,-0.0319,-0.0078,0.9902,0.0000,0.0000,0.3000,0.0000,0.0000
120,0.0079,0.0003,0.0068,0.20,-1.39,-0.02,0.009,0.422,2.259,0.485,0.0046,-0.0194,-0.0225,-0.0048,1.0345,0.0000,0.0000,0.3000,0.0000,0.0000
130,0.0053,0.0045,0.0058,0.16,-1.36,-0.02,0.009,-0.667,3.474,1.919,0.0048,-0.0193,-0.0165,-0.0262,1.0344,0.0000,0.0000,0.3000,0.0000,0.0000
140,0.0111,0.0028,0.0069,0.18,-1.41,-0.02,0.009,-2.621,5.113,0.349,0.0051,-0.0160,-0.0300,0.0004,0.9973,0.0000,0.0000,0.3000,0.0000,0.0000
149,0.0130,-0.0022,0.0067,0.22,-1.42,-0.03,0.008,-9.805,6.681,0.664,0.0058,-0.0182,-0.0096,0.0053,1.0002,0.0000,0.0000,0.3000,0.0000,0.0000
160,0.0165,-0.0022,0.0064,0.19,-1.45,-0.01,0.008,-6.501,9.916,2.329,0.0060,-0.0164,-0.0078,-0.0159,0.9922,0.0000,0.0000,0.3000,0.0000,0.0000
170,0.0196,0.0161,0.0069,0.03,-1.50,-0.00,0.008,-4.958,0.944,3.899,0.0063,-0.0161,-0.0055,-0.0238,1.0423,0.0000,0.0000,0.3000,0.0000,0.0000
180,0.0253,0.0030,0.0098,0.07,-1.59,0.00,0.008,-9.910,1.586,6.526,0.0065,-0.0154,-0.0071,-0.0231,1.0698,0.0000,0.0000,0.3000,0.0000,0.0000
190,0.0277,0.0130,0.0097,-0.09,-1.70,0.01,0.006,-14.950,-4.398,7.946,0.0119,-0.0194,-0.0072,-0.0111,1.0816,0.0000,0.0000,0.3000,0.0000,0.0000
201,0.0305,0.0141,0.0094,-0.14,-1.73,0.04,0.006,-22.995,-4.071,4.904,0.0128,-0.0183,0.0106,-0.0162,1.0992,0.0000,0.0000,0.3000,0.0000,0.0000
210,0.0330,0.0177,0.0088,-0.24,-1.73,0.10,0.006,-29.184,-10.589,3.571,0.0172,-0.0197,0.0189,-0.0168,1.1035,0.0000,0.0000,0.3000,0.0000,0.0000
220,0.0657,-0.0063,0.0051,-0.18,-1.95,0.18,0.006,-40.049,-20.717,1.986,0.0202,-0.0203,0.0055,-0.0102,1.1106,0.0000,0.0000,0.3000,0.0000,0.0000
230,0.0710,0.0010,0.0116,-0.44,-1.93,0.25,0.006,-50.530,-25.626,0.221,0.0208,-0.0195,-0.0017,-0.0139,1.1249,0.0000,0.0000,0.3000,0.0000,0.0000
239,0.0957,-0.0063,0.0171,-0.62,-2.02,0.29,0.006,-55.861,-34.455,1.136,0.0223,-0.0144,0.0169,-0.0256,1.1379,0.0000,0.0000,0.3000,0.0000,0.0000
250,0.1113,-0.0081,0.0244,-0.96,-1.96,0.32,0.011,-58.785,-42.787,-1.049,0.0276,-0.0195,0.0156,-0.0174,1.1480,0.0000,0.0000,0.3000,0.0000,0.0000
259,0.1122,-0.0012,0.0350,-1.47,-1.69,0.32,0.011,-48.412,-55.909,-4.142,0.0279,-0.0212,0.0083,-0.0225,1.1458,0.0000,0.0000,0.3000,0.0000,0.0000
269,0.1183,0.0314,0.0510,-2.24,-1.42,0.33,0.011,-38.766,-70.267,-4.436,0.0251,-0.0254,0.0095,-0.0178,1.1406,0.0000,0.0000,0.3000,0.0000,0.0000
279,0.1446,0.0046,0.0627,-2.59,-1.22,0.36,0.011,-24.210,-70.354,-3.223,0.0249,-0.0260,0.0120,-0.0178,1.1522,0.0000,0.0000,0.3000,0.0000,0.0000
289,0.1400,0.0000,0.0782,-3.04,-0.65,0.36,0.000,-13.424,-68.055,-0.520,0.0251,-0.0281,0.0099,-0.0148,1.1474,0.0000,0.0000,0.3000,0.0000,0.0000
299,0.1167,-0.0182,0.0991,-3.27,0.19,0.34,0.000,-1.211,-58.073,-2.073,0.0273,-0.0280,0.0110,-0.0168,1.1443,0.0000,0.0000,0.3000,0.0000,0.0000
309,0.1082,-0.0143,0.1143,-3.54,0.98,0.35,0.000,18.976,-39.431,-0.146,0.0316,-0.0263,0.0103,-0.0230,1.1681,0.0000,0.0000,0.3000,0.0000,0.0000
319,0.1020,-0.0183,0.0986,-3.63,1.69,0.38,0.000,33.467,-30.389,0.924,0.0371,-0.0256,0.0068,-0.0214,1.1681,0.0000,0.0000,0.3000,0.0000,0.0000
329,0.1048,-0.0090,0.1128,-3.70,2.26,0.41,0.000,35.377,-17.219,0.621,0.0380,-0.0237,0.0068,-0.0312,1.1558,0.0000,0.0000,0.3000,0.0000,0.0000
339,0.1439,0.0128,0.1225,-3.69,2.37,0.48,0.000,39.531,-6.389,-0.290,0.0384,-0.0213,0.0198,-0.0290,1.1556,0.0000,0.0000,0.3000,0.0000,0.0000
349,0.1391,0.0199,0.1366,-3.39,2.70,0.51,0.000,50.276,-12.016,1.992,0.0397,-0.0184,0.0133,-0.0280,1.1504,0.0000,0.0000,0.3000,0.0000,0.0000
359,0.1302,0.0364,0.1524,-3.12,2.94,0.53,0.000,39.828,-11.898,0.362,0.0395,-0.0158,0.0029,-0.0337,1.1494,0.0000,0.0000,0.3000,0.0000,0.0000
369,0.1156,0.0535,0.1335,-2.84,3.10,0.53,0.000,19.252,-5.738,1.145,0.0410,-0.0138,-0.0042,-0.0302,1.1388,0.0000,0.0000,0.3000,0.0000,0.0000
379,0.1143,0.0737,0.1469,-2.47,3.15,0.58,0.000,-0.107,0.313,1.402,0.0398,-0.0131,0.0015,-0.0286,1.1371,0.0000,0.0000,0.3000,0.0000,0.0000
389,0.1000,0.0896,0.1612,-2.12,3.32,0.59,0.011,-16.497,8.431,1.321,0.0404,-0.0130,0.0071,-0.0276,1.1442,0.0000,0.0000,0.3000,0.0000,0.0000
400,0.0964,0.0998,0.1747,-1.90,3.39,0.62,0.011,-23.269,14.202,1.725,0.0458,-0.0131,0.0172,-0.0198,1.1344,0.0000,0.0000,0.3000,0.0000,0.0000
409,0.0765,0.1019,0.1902,-1.83,3.51,0.61,0.011,-29.790,23.811,3.059,0.0490,-0.0096,0.0113,-0.0181,1.1356,0.0000,0.0000,0.3000,0.0000,0.0000
419,0.0694,0.1003,0.1966,-1.91,3.44,0.61,0.011,-26.818,21.958,3.435,0.0494,-0.0085,0.0071,-0.0198,1.1232,0.0000,0.0000,0.3000,0.0000,0.0000
429,0.0894,0.0977,0.2097,-2.07,3.10,0.65,0.011,-27.644,23.587,4.355,0.0511,-0.0083,0.0085,-0.0180,1.1125,0.0000,0.0000,0.3000,0.0000,0.0000
439,0.0966,0.1169,0.2203,-2.47,2.78,0.73,0.011,-18.412,18.000,3.036,0.0516,-0.0117,0.0109,-0.0168,1.1007,0.0000,0.0000,0.3000,0.0000,0.0000
449,0.0875,0.1210,0.2339,-2.76,2.58,0.75,0.027,-8.035,8.753,2.260,0.0506,-0.0107,0.0117,-0.0159,1.0925,0.0000,0.0000,0.3000,0.0000,0.0000
459,0.0874,0.1208,0.2473,-3.00,2.30,0.76,0.027,3.067,0.412,2.862,0.0558,-0.0070,0.0145,-0.0169,1.0743,0.0000,0.0000,0.3000,0.0000,0.0000
469,0.0805,0.0997,0.2649,-3.00,2.11,0.71,0.027,15.335,-3.408,2.373,0.0550,-0.0064,0.0125,-0.0174,1.0676,0.0000,0.0000,0.3000,0.0000,0.0000
479,0.0659,0.1055,0.2764,-3.12,2.07,0.70,0.027,27.663,-7.005,2.611,0.0592,-0.0038,0.0147,-0.0233,1.0580,0.0000,0.0000,0.3000,0.0000,0.0000
489,0.0882,0.1268,0.2814,-3.25,1.83,0.82,0.048,36.289,-8.784,3.440,0.0582,-0.0056,0.0084,-0.0208,1.0446,0.0000,0.0000,0.3000,0.0000,0.0000
499,0.0746,0.1292,0.2921,-3.11,1.92,0.81,0.048,39.148,-3.935,4.105,0.0560,-0.0049,0.0032,-0.0231,1.0340,0.0000,0.0000,0.3000,0.0000,0.0000
510,0.0913,0.1430,0.2948,-2.94,1.81,0.90,0.048,38.560,0.963,2.113,0.0546,-0.0034,0.0048,-0.0233,1.0250,0.0000,0.0000,0.3000,0.0000,0.0000
519,0.0759,0.1289,0.3275,-2.44,2.00,0.85,0.048,34.232,4.258,0.556,0.0530,-0.0050,0.0037,-0.0241,1.0211,0.0000,0.0000,0.3000,0.0000,0.0000
530,0.0547,0.1298,0.3351,-2.04,2.19,0.85,0.048,25.374,12.452,0.043,0.0518,-0.0048,0.0063,-0.0276,1.0203,0.0000,0.0000,0.3000,0.0000,0.0000
539,0.0394,0.1344,0.3399,-1.65,2.28,0.85,0.048,14.235,16.826,-0.478,0.0507,-0.0053,0.0085,-0.0228,1.0183,0.0000,0.0000,0.3000,0.0000,0.0000
550,0.0235,0.1205,0.3462,-1.17,2.33,0.79,0.077,4.331,18.479,-0.102,0.0476,-0.0030,0.0103,-0.0264,1.0151,0.0000,0.0000,0.3000,0.0000,0.0000
559,0.0111,0.1164,0.3495,-0.84,2.29,0.75,0.077,1.503,15.884,0.889,0.0465,-0.0032,0.0098,-0.0251,1.0041,0.0000,0.0000,0.3000,0.0000,0.0000
570,0.0003,0.1116,0.3819,-0.57,2.16,0.71,0.077,-0.908,8.520,2.055,0.0464,0.0001,0.0096,-0.0226,0.9940,0.0000,0.0000,0.3000,0.0000,0.0000
581,-0.0232,0.1146,0.3836,-0.52,2.12,0.68,0.077,-3.747,3.032,2.807,0.0462,0.0006,0.0086,-0.0224,0.9834,0.0000,0.0000,0.3000,0.0000,0.0000
589,-0.0318,0.1075,0.3859,-0.44,1.99,0.65,0.100,-1.950,-1.690,2.279,0.0461,0.0044,0.0093,-0.0169,0.9765,0.0000,0.0000,0.3000,0.0000,0.0000
599,-0.0343,0.1215,0.3858,-0.54,1.88,0.71,0.100,-0.606,1.651,2.651,0.0455,0.0046,0.0061,-0.0184,0.9733,0.0000,0.0000,0.3000,0.0000,0.0000
609,-0.0369,0.1181,0.3866,-0.54,1.83,0.72,0.100,2.262,-0.450,2.169,0.0452,0.0057,0.0080,-0.0204,0.9696,0.0000,0.0000,0.3000,0.0000,0.0000
620,-0.0389,0.1325,0.4168,-0.66,1.81,0.79,0.100,5.378,2.606,1.820,0.0446,0.0069,0.0082,-0.0206,0.9593,0.0000,0.0000,0.3000,0.0000,0.0000
629,-0.0432,0.1273,0.4158,-0.62,1.82,0.80,0.100,8.241,6.430,1.931,0.0436,0.0070,0.0105,-0.0216,0.9491,0.0000,0.0000,0.3000,0.0000,0.0000
640,-0.0458,0.1269,0.4137,-0.59,1.82,0.82,0.100,9.047,10.145,2.239,0.0431,0.0088,0.0102,-0.0202,0.9428,0.0000,0.0000,0.3000,0.0000,0.0000
649,-0.0493,0.1279,0.4109,-0.56,1.80,0.84,0.111,11.615,15.644,1.946,0.0414,0.0097,0.0098,-0.0204,0.9386,0.0000,0.0000,0.3000,-0.0005,0.0013
659,-0.0557,0.1218,0.4087,-0.43,1.77,0.83,0.111,13.640,16.355,0.812,0.0401,0.0109,0.0069,-0.0198,0.9407,0.0000,0.0000,0.3000,-0.0011,0.0025
669,-0.0579,0.1246,0.3926,-0.36,1.68,0.86,0.111,12.231,15.828,1.328,0.0400,0.0114,0.0047,-0.0189,0.9339,0.0000,0.0000,0.3000,-0.0016,0.0037
679,-0.0674,0.1249,0.3872,-0.25,1.60,0.87,0.111,12.839,16.196,0.822,0.0381,0.0135,0.0116,-0.0228,0.9244,0.0000,0.0000,0.3000,-0.0023,0.0050
689,-0.0736,0.1251,0.3812,-0.12,1.46,0.88,0.137,12.871,17.158,-0.160,0.0373,0.0143,0.0089,-0.0228,0.9244,0.0000,0.0000,0.3000,-0.0030,0.0062
699,-0.0793,0.1260,0.3749,-0.00,1.33,0.89,0.137,11.560,15.316,-0.154,0.0354,0.0161,0.0089,-0.0237,0.9221,0.0000,0.0000,0.3000,-0.0038,0.0075
709,-0.0815,0.1260,0.3689,0.13,1.17,0.90,0.137,8.788,13.950,-0.013,0.0342,0.0164,0.0125,-0.0223,0.9212,0.0000,0.0000,0.3000,-0.0046,0.0088
719,-0.0829,0.1225,0.3804,0.30,0.99,0.90,0.137,7.802,12.284,-0.028,0.0325,0.0181,0.0153,-0.0220,0.9201,0.0000,0.0000,0.3000,-0.0055,0.0100
729,-0.0905,0.1253,0.3724,0.39,0.87,0.90,0.137,6.768,8.483,-0.576,0.0316,0.0187,0.0118,-0.0183,0.9193,0.0000,0.0000,0.3000,-0.0064,0.0112
739,-0.0974,0.1223,0.3647,0.51,0.77,0.89,0.137,5.177,8.302,-0.656,0.0295,0.0199,0.0049,-0.0174,0.9184,0.0000,0.0000,0.3000,-0.0074,0.0125
749,-0.0987,0.1215,0.3570,0.59,0.65,0.89,0.148,3.198,9.415,-0.522,0.0290,0.0201,0.0090,-0.0211,0.9176,0.0000,0.0000,0.3000,-0.0083,0.0137
760,-0.0996,0.1169,0.3496,0.69,0.54,0.88,0.148,3.837,6.977,-1.911,0.0283,0.0214,0.0095,-0.0201,0.9097,0.0000,0.0000,0.3000,-0.0093,0.0148
769,-0.1056,0.1154,0.3277,0.74,0.50,0.88,0.148,2.596,6.359,-1.672,0.0264,0.0229,0.0100,-0.0207,0.9080,0.0000,0.0000,0.3000,-0.0104,0.0160
779,-0.1045,0.1102,0.3202,0.80,0.40,0.87,0.148,0.053,10.666,-1.559,0.0259,0.0243,0.0114,-0.0220,0.9091,0.0000,0.0000,0.3000,-0.0114,0.0171
789,-0.1034,0.1101,0.3121,0.83,0.31,0.85,0.167,0.898,9.749,-3.166,0.0247,0.0248,0.0121,-0.0244,0.9075,0.0000,0.0000,0.3000,-0.0125,0.0182
799,-0.1080,0.1109,0.3034,0.83,0.26,0.84,0.167,0.267,10.397,-2.500,0.0240,0.0256,0.0088,-0.0204,0.9085,0.0000,0.0000,0.3000,-0.0136,0.0193
809,-0.1058,0.1109,0.2945,0.83,0.15,0.84,0.167,0.944,10.241,-1.105,0.0237,0.0267,0.0081,-0.0160,0.9117,0.0000,0.0000,0.3000,-0.0146,0.0204
819,-0.1064,0.1066,0.2924,0.87,0.06,0.80,0.167,3.746,6.929,-0.639,0.0222,0.0271,0.0101,-0.0125,0.9151,0.0000,0.0000,0.3000,-0.0157,0.0215
829,-0.1047,0.1040,0.2837,0.89,-0.06,0.78,0.167,5.024,6.349,-1.663,0.0211,0.0264,0.0096,-0.0162,0.9110,0.0000,0.0000,0.3000,-0.0167,0.0225
839,-0.1009,0.1025,0.2748,0.90,-0.20,0.76,0.167,3.592,7.962,-2.854,0.0197,0.0279,0.0099,-0.0183,0.9114,0.0000,0.0000,0.3000,-0.0177,0.0236
849,-0.1029,0.0980,0.2661,0.95,-0.26,0.76,0.178,1.852,10.705,-2.121,0.0191,0.0288,0.0100,-0.0169,0.9086,0.0000,0.0000,0.3000,-0.0188,0.0245
859,-0.1030,0.0886,0.2579,1.05,-0.32,0.73,0.178,4.061,10.081,-1.128,0.0182,0.0291,0.0110,-0.0196,0.9117,0.0000,0.0000,0.3000,-0.0198,0.0254
869,-0.1038,0.0896,0.2409,1.07,-0.38,0.71,0.178,4.651,6.433,-2.087,0.0168,0.0303,0.0126,-0.0195,0.9112,0.0000,0.0000,0.3000,-0.0208,0.0263
879,-0.1016,0.0882,0.2321,1.10,-0.49,0.69,0.178,2.617,5.889,-2.267,0.0156,0.0305,0.0131,-0.0216,0.9107,0.0000,0.0000,0.3000,-0.0218,0.0272
889,-0.1002,0.0839,0.2235,1.15,-0.60,0.68,0.190,3.203,6.353,-2.760,0.0151,0.0321,0.0121,-0.0236,0.9156,0.0000,0.0000,0.3000,-0.0228,0.0280
899,-0.1011,0.0834,0.2145,1.18,-0.65,0.67,0.190,2.562,8.726,-2.737,0.0135,0.0326,0.0088,-0.0206,0.9153,0.0000,0.0000,0.3000,-0.0239,0.0289
910,-0.1008,0.0788,0.2059,1.24,-0.71,0.64,0.190,0.765,8.035,-1.745,0.0120,0.0331,0.0081,-0.0186,0.9196,0.0000,0.0000,0.3000,-0.0249,0.0297
921,-0.0976,0.0805,0.1990,1.24,-0.79,0.62,0.190,-1.863,11.418,-1.741,0.0110,0.0339,0.0104,-0.0158,0.9186,0.0000,0.0000,0.3000,-0.0258,0.0305
929,-0.0993,0.0773,0.1903,1.27,-0.85,0.60,0.190,0.230,7.061,-2.672,0.0097,0.0349,0.0125,-0.0177,0.9179,0.0000,0.0000,0.3000,-0.0268,0.0312
939,-0.0998,0.0741,0.1819,1.29,-0.91,0.58,0.190,-2.491,7.666,-2.821,0.0087,0.0357,0.0099,-0.0168,0.9182,0.0000,0.0000,0.3000,-0.0278,0.0320
950,-0.0984,0.0721,0.1737,1.28,-1.02,0.56,0.193,-2.196,7.857,-2.385,0.0087,0.0362,0.0092,-0.0164,0.9192,0.0000,0.0000,0.3000,-0.0288,0.0327
959,-0.0985,0.0715,0.1658,1.26,-1.10,0.54,0.193,-1.796,5.868,-1.376,0.0066,0.0371,0.0094,-0.0182,0.9230,0.0000,0.0000,0.3000,-0.0298,0.0334
969,-0.0961,0.0697,0.1411,1.24,-1.19,0.52,0.193,-1.009,0.678,-1.506,0.0061,0.0370,0.0098,-0.0158,0.9308,0.0000,0.0000,0.3000,-0.0308,0.0341
979,-0.0909,0.0667,0.1323,1.23,-1.29,0.49,0.193,0.027,1.403,-2.079,0.0050,0.0373,0.0114,-0.0182,0.9335,0.0000,0.0000,0.3000,-0.0317,0.0348
989,-0.0934,0.0651,0.1241,1.22,-1.32,0.48,0.199,0.092,0.284,-2.626,0.0048,0.0377,0.0093,-0.0163,0.9393,0.0000,0.0000,0.3000,-0.0326,0.0354
999,-0.0893,0.0604,0.1164,1.23,-1.36,0.46,0.199,2.879,2.160,-2.327,0.0037,0.0393,0.0087,-0.0176,0.9354,0.0000,0.0000,0.3000,-0.0335,0.0360
1009,-0.0879,0.0569,0.1090,1.23,-1.37,0.44,0.199,2.999,0.989,-1.837,0.0031,0.0394,0.0076,-0.0180,0.9338,0.0000,0.0000,0.3000,-0.0344,0.0366
1019,-0.0829,0.0543,0.0952,1.24,-1.40,0.41,0.199,1.868,0.549,-1.385,0.0025,0.0398,0.0106,-0.0207,0.9376,0.0000,0.0000,0.3000,-0.0352,0.0371
1030,-0.0819,0.0565,0.0887,1.23,-1.41,0.40,0.199,0.793,-0.714,-0.756,0.0018,0.0403,0.0075,-0.0204,0.9388,0.0000,0.0000,0.3000,-0.0360,0.0377
1039,-0.0787,0.0526,0.0826,1.27,-1.41,0.38,0.199,1.236,0.451,-1.020,-0.0003,0.0419,0.0067,-0.0180,0.9452,0.0000,0.0000,0.3000,-0.0368,0.0382
1050,-0.0755,0.0499,0.0762,1.30,-1.41,0.36,0.210,1.259,2.134,-1.240,-0.0011,0.0424,0.0083,-0.0174,0.9495,0.0000,0.0000,0.3000,-0.0376,0.0387
1059,-0.0732,0.0478,0.0698,1.32,-1.40,0.35,0.210,-1.182,1.398,-1.550,-0.0019,0.0415,0.0107,-0.0170,0.9508,0.0000,0.0000,0.3000,-0.0383,0.0392
1069,-0.0762,0.0502,0.0741,1.30,-1.37,0.35,0.210,-1.198,1.702,-1.542,-0.0026,0.0419,0.0097,-0.0155,0.9525,0.0000,0.0000,0.3000,-0.0391,0.0397
1079,-0.0740,0.0481,0.0683,1.31,-1.38,0.33,0.210,-1.672,1.633,-1.434,-0.0037,0.0424,0.0099,-0.0198,0.9513,0.0000,0.0000,0.3000,-0.0398,0.0402
1088,-0.0717,0.0408,0.0630,1.34,-1.40,0.32,0.211,-1.599,2.774,-1.110,-0.0045,0.0449,0.0095,-0.0158,0.9571,0.0000,0.0000,0.3000,-0.0405,0.0406
1098,-0.0695,0.0386,0.0580,1.33,-1.41,0.31,0.211,-2.667,1.819,-0.691,-0.0046,0.0447,0.0072,-0.0158,0.9616,0.0000,0.0000,0.3000,-0.0412,0.0410
1109,-0.0688,0.0367,0.0532,1.31,-1.42,0.29,0.211,0.042,0.116,-1.915,-0.0054,0.0448,0.0084,-0.0139,0.9641,0.0000,0.0000,0.3000,-0.0419,0.0414
1119,-0.0668,0.0426,0.0494,1.24,-1.44,0.28,0.211,-2.311,0.893,-1.221,-0.0055,0.0456,0.0076,-0.0132,0.9647,0.0000,0.0000,0.3000,-0.0426,0.0418
1129,-0.0622,0.0381,0.0449,1.24,-1.47,0.27,0.211,-0.842,0.205,-0.548,-0.0061,0.0460,0.0111,-0.0142,0.9664,0.0000,0.0000,0.3000,-0.0432,0.0422
1139,-0.0585,0.0368,0.0408,1.23,-1.49,0.25,0.211,1.266,-1.290,-0.568,-0.0066,0.0463,0.0111,-0.0140,0.9648,0.0000,0.0000,0.3000,-0.0438,0.0425
1148,-0.0561,0.0348,0.0370,1.21,-1.50,0.24,0.213,1.120,-1.443,-0.301,-0.0072,0.0467,0.0032,-0.0172,0.9653,0.0000,0.0000,0.3000,-0.0443,0.0429
1159,-0.0536,0.0328,0.0333,1.19,-1.50,0.23,0.213,-0.534,-3.537,0.396,-0.0077,0.0470,0.0073,-0.0149,0.9662,0.0000,0.0000,0.3000,-0.0449,0.0432
1169,-0.0511,0.0308,0.0301,1.20,-1.48,0.23,0.213,0.909,-0.444,0.406,-0.0082,0.0471,0.0055,-0.0182,0.9678,0.0000,0.0000,0.3000,-0.0454,0.0435
1178,-0.0487,0.0292,0.0268,1.21,-1.46,0.23,0.213,0.892,-0.009,-0.340,-0.0074,0.0471,0.0099,-0.0155,0.9713,0.0000,0.0000,0.3000,-0.0459,0.0438
1189,-0.0463,0.0272,0.0233,1.21,-1.43,0.23,0.214,1.111,-1.505,-0.340,-0.0078,0.0473,0.0109,-0.0173,0.9729,0.0000,0.0000,0.3000,-0.0463,0.0441
1198,-0.0441,0.0244,0.0199,1.21,-1.42,0.23,0.214,-0.043,-0.468,0.370,-0.0087,0.0472,0.0113,-0.0186,0.9765,0.0000,0.0000,0.3000,-0.0468,0.0443
1209,-0.0375,0.0215,0.0166,1.23,-1.45,0.23,0.214,-3.650,-3.129,0.735,-0.0083,0.0478,0.0077,-0.0149,0.9764,0.0000,0.0000,0.3000,-0.0471,0.0445
1219,-0.0350,0.0195,0.0131,1.24,-1.44,0.22,0.214,-0.296,0.017,-0.151,-0.0084,0.0473,0.0095,-0.0134,0.9800,0.0000,0.0000,0.3000,-0.0475,0.0447
1229,-0.0345,0.0165,0.0103,1.25,-1.42,0.23,0.214,-4.569,-3.922,0.395,-0.0086,0.0475,0.0063,-0.0149,0.9769,0.0000,0.0000,0.3000,-0.0478,0.0449
1239,-0.0295,0.0156,0.0078,1.21,-1.42,0.23,0.214,-1.327,-2.029,-0.182,-0.0079,0.0481,0.0055,-0.0201,0.9809,0.0000,0.0000,0.3000,-0.0481,0.0451
1249,-0.0263,0.0116,0.0055,1.22,-1.42,0.23,0.218,1.416,-4.230,-0.029,-0.0079,0.0489,0.0077,-0.0193,0.9814,0.0000,0.0000,0.3000,-0.0484,0.0452
1259,-0.0239,0.0096,0.0032,1.18,-1.39,0.23,0.218,-3.923,-4.556,0.743,-0.0077,0.0485,0.0081,-0.0130,0.9825,0.0000,0.0000,0.3000,-0.0486,0.0453
1269,-0.0183,0.0092,0.0086,1.15,-1.38,0.23,0.218,1.706,-1.379,0.072,-0.0074,0.0486,0.0066,-0.0168,0.9848,0.0000,0.0000,0.3000,-0.0488,0.0454
1279,-0.0156,0.0099,0.0064,1.15,-1.35,0.23,0.218,-0.116,-1.446,0.421,-0.0075,0.0486,0.0088,-0.0129,0.9859,0.0000,0.0000,0.3000,-0.0490,0.0455
1289,-0.0118,0.0062,0.0045,1.13,-1.32,0.23,0.210,-2.119,-2.641,-0.008,-0.0066,0.0477,0.0027,-0.0130,0.9858,0.0000,0.0000,0.3000,-0.0491,0.0455
1299,-0.0082,0.0043,0.0027,1.13,-1.30,0.23,0.210,-1.959,-1.662,0.536,-0.0062,0.0478,0.0011,-0.0190,0.9842,0.0000,0.0000,0.3000,-0.0492,0.0456
1309,-0.0060,0.0024,0.0010,1.12,-1.28,0.23,0.210,-0.924,-1.838,0.054,-0.0053,0.0479,0.0052,-0.0196,0.9846,0.0000,0.0000,0.3000,-0.0492,0.0456
1319,-0.0009,-0.0024,-0.0142,1.13,-1.27,0.23,0.210,-1.245,-1.828,0.071,-0.0053,0.0478,0.0055,-0.0150,0.9862,0.0000,0.0000,0.3000,-0.0493,0.0456
1330,0.0004,-0.0021,-0.0142,1.13,-1.28,0.23,0.210,-1.419,-2.223,0.049,-0.0043,0.0469,0.0050,-0.0155,0.9870,0.0000,0.0000,0.3000,-0.0492,0.0455
1338,0.0074,-0.0056,-0.0170,1.10,-1.25,0.23,0.210,-1.088,-2.521,0.594,-0.0045,0.0475,0.0098,-0.0144,0.9914,0.0000,0.0000,0.3000,-0.0492,0.0455
1349,0.0074,-0.0056,-0.0170,1.10,-1.25,0.23,0.207,-1.150,-2.668,0.764,-0.0036,0.0476,0.0058,-0.0186,0.9926,0.0000,0.0000,0.3000,-0.0491,0.0454
1359,0.0121,-0.0102,-0.0187,1.11,-1.25,0.23,0.207,-0.917,-3.945,0.490,-0.0027,0.0451,0.0055,-0.0198,0.9910,0.0000,0.0000,0.3000,-0.0490,0.0453
1368,0.0132,-0.0097,-0.0330,1.08,-1.23,0.23,0.207,-0.821,-3.848,-0.040,-0.0018,0.0431,0.0036,-0.0173,0.9923,0.0000,0.0000,0.3000,-0.0488,0.0452
1379,0.0176,-0.0110,-0.0344,1.06,-1.22,0.23,0.207,-1.809,-3.522,0.444,-0.0010,0.0432,0.0025,-0.0170,0.9938,0.0000,0.0000,0.3000,-0.0487,0.0451
1388,0.0217,-0.0201,-0.0356,1.10,-1.20,0.24,0.208,-1.626,-2.933,1.307,-0.0008,0.0455,0.0037,-0.0177,0.9978,0.0000,0.0000,0.3000,-0.0485,0.0449
1399,0.0259,-0.0275,-0.0366,1.13,-1.18,0.25,0.208,-1.412,-3.790,0.546,-0.0004,0.0452,0.0090,-0.0179,0.9992,0.0000,0.0000,0.3000,-0.0482,0.0446
1408,0.0296,-0.0281,-0.0375,1.11,-1.16,0.25,0.208,-0.829,-5.425,1.806,0.0027,0.0454,0.0089,-0.0137,1.0021,0.0000,0.0000,0.3000,-0.0479,0.0444
1419,0.0333,-0.0241,-0.0403,1.04,-1.08,0.26,0.208,-1.796,-3.697,1.180,0.0032,0.0452,0.0041,-0.0148,1.0019,0.0000,0.0000,0.3000,-0.0476,0.0441
1429,0.0333,-0.0241,-0.0403,1.04,-1.08,0.26,0.208,-1.977,-3.144,0.667,0.0039,0.0449,0.0029,-0.0149,1.0018,0.0000,0.0000,0.3000,-0.0472,0.0439
1439,0.0454,-0.0262,-0.0411,1.00,-1.05,0.28,0.208,-4.176,-3.542,1.325,0.0047,0.0457,0.0051,-0.0154,1.0059,0.0000,0.0000,0.3000,-0.0468,0.0436
1449,0.0454,-0.0262,-0.0411,1.00,-1.05,0.28,0.205,-2.117,-3.586,1.543,0.0043,0.0432,0.0069,-0.0146,1.0075,0.0000,0.0000,0.3000,-0.0463,0.0434
1458,0.0481,-0.0280,-0.0411,0.99,-1.00,0.29,0.205,-1.818,-2.347,2.214,0.0056,0.0429,0.0048,-0.0151,1.0062,0.0000,0.0000,0.3000,-0.0458,0.0431
1469,0.0506,-0.0264,-0.0438,0.94,-0.97,0.29,0.205,-4.173,-0.898,2.461,0.0053,0.0426,0.0043,-0.0152,1.0053,0.0000,0.0000,0.3000,-0.0453,0.0428
1479,0.0496,-0.0347,-0.0437,0.95,-0.92,0.31,0.205,-3.159,-2.365,1.575,0.0085,0.0419,0.0042,-0.0093,1.0040,0.0000,0.0000,0.3000,-0.0448,0.0425
1488,0.0535,-0.0360,-0.0435,0.92,-0.89,0.32,0.206,-3.912,-1.535,2.775,0.0093,0.0422,0.0040,-0.0103,1.0059,0.0000,0.0000,0.3000,-0.0443,0.0421
1499,0.0526,-0.0374,-0.0428,0.89,-0.84,0.35,0.206,-2.242,-4.853,2.159,0.0100,0.0418,0.0027,-0.0123,1.0104,0.0000,0.0000,0.3000,-0.0438,0.0417
1509,0.0617,-0.0400,-0.0423,0.86,-0.88,0.36,0.206,-0.837,-3.909,1.509,0.0113,0.0421,0.0047,-0.0165,1.0140,0.0000,0.0000,0.3000,-0.0432,0.0413
1519,0.0638,-0.0394,-0.0361,0.81,-0.86,0.38,0.206,-1.838,-4.498,1.698,0.0126,0.0400,0.0057,-0.0134,1.0140,0.0000,0.0000,0.3000,-0.0425,0.0409
1528,0.0653,-0.0408,-0.0356,0.78,-0.85,0.40,0.206,-1.200,-4.920,0.879,0.0127,0.0391,0.0062,-0.0124,1.0112,0.0000,0.0000,0.3000,-0.0419,0.0405
1539,0.0687,-0.0401,-0.0352,0.74,-0.82,0.42,0.206,-1.296,-5.179,0.964,0.0128,0.0371,0.0058,-0.0114,1.0122,0.0000,0.0000,0.3000,-0.0412,0.0401
1549,0.0717,-0.0460,-0.0346,0.76,-0.79,0.43,0.205,0.560,-5.276,0.996,0.0157,0.0373,0.0047,-0.0132,1.0126,0.0000,0.0000,0.3000,-0.0405,0.0397
1558,0.0713,-0.0485,-0.0334,0.75,-0.73,0.45,0.205,-2.335,-3.314,1.828,0.0175,0.0375,0.0043,-0.0117,1.0115,0.0000,0.0000,0.3000,-0.0398,0.0392
1568,0.0711,-0.0543,-0.0273,0.76,-0.68,0.46,0.205,0.427,-4.902,0.798,0.0175,0.0372,0.0016,-0.0086,1.0104,0.0000,0.0000,0.3000,-0.0390,0.0386
1579,0.0782,-0.0532,-0.0261,0.74,-0.67,0.47,0.205,-1.344,-4.485,0.757,0.0181,0.0374,0.0023,-0.0083,1.0124,0.0000,0.0000,0.3000,-0.0383,0.0381
1589,0.0811,-0.0532,-0.0237,0.71,-0.58,0.49,0.204,-1.198,-3.329,0.584,0.0199,0.0376,-0.0009,-0.0140,1.0113,0.0000,0.0000,0.3000,-0.0375,0.0376
1598,0.0814,-0.0523,-0.0224,0.69,-0.52,0.50,0.204,-1.322,-3.955,0.560,0.0217,0.0351,0.0043,-0.0184,1.0076,0.0000,0.0000,0.3000,-0.0366,0.0371
1608,0.0849,-0.0514,-0.0214,0.67,-0.49,0.50,0.204,-3.445,-5.411,0.563,0.0226,0.0345,0.0076,-0.0138,1.0126,0.0000,0.0000,0.3000,-0.0358,0.0365
1619,0.0885,-0.0580,-0.0173,0.69,-0.47,0.51,0.204,-2.695,-3.847,0.439,0.0243,0.0349,0.0051,-0.0123,1.0151,0.0000,0.0000,0.3000,-0.0349,0.0360
1629,0.0885,-0.0580,-0.0173,0.69,-0.47,0.51,0.204,-1.739,-3.425,0.105,0.0249,0.0347,0.0038,-0.0125,1.0132,0.0000,0.0000,0.3000,-0.0340,0.0354
1638,0.0894,-0.0592,-0.0161,0.68,-0.43,0.51,0.204,-2.530,-2.323,0.988,0.0279,0.0322,0.0064,-0.0128,1.0071,0.0000,0.0000,0.3000,-0.0331,0.0348
1648,0.0924,-0.0577,-0.0152,0.63,-0.39,0.52,0.203,-2.630,-0.997,-0.237,0.0289,0.0315,0.0042,-0.0155,1.0073,0.0000,0.0000,0.3000,-0.0322,0.0342
1659,0.0985,-0.0641,-0.0132,0.61,-0.35,0.52,0.203,-3.805,-4.263,0.479,0.0299,0.0309,0.0040,-0.0136,1.0098,0.0000,0.0000,0.3000,-0.0312,0.0336
1669,0.0985,-0.0641,-0.0117,0.61,-0.35,0.52,0.203,-0.116,-2.519,-0.830,0.0317,0.0300,0.0037,-0.0097,1.0074,0.0000,0.0000,0.3000,-0.0302,0.0329
1679,0.0992,-0.0652,-0.0103,0.58,-0.33,0.53,0.203,-3.056,-4.823,0.571,0.0335,0.0304,0.0022,-0.0161,1.0028,0.0000,0.0000,0.3000,-0.0292,0.0323
1688,0.1026,-0.0676,-0.0088,0.52,-0.28,0.53,0.201,-0.007,-4.244,-0.535,0.0353,0.0278,0.0054,-0.0189,1.0067,0.0000,0.0000,0.3000,-0.0282,0.0316
1699,0.1051,-0.0657,-0.0080,0.50,-0.27,0.53,0.201,-1.753,-4.186,0.295,0.0363,0.0271,0.0014,-0.0153,1.0083,0.0000,0.0000,0.3000,-0.0272,0.0309
1709,0.1075,-0.0719,-0.0074,0.51,-0.24,0.53,0.201,0.755,-5.703,-0.516,0.0368,0.0275,0.0017,-0.0106,1.0103,0.0000,0.0000,0.3000,-0.0261,0.0302
1719,0.1074,-0.0719,-0.0097,0.51,-0.24,0.53,0.201,-1.811,-6.785,1.084,0.0366,0.0280,0.0008,-0.0131,1.0071,0.0000,0.0000,0.3000,-0.0250,0.0295
1729,0.1064,-0.0704,-0.0086,0.48,-0.14,0.54,0.201,0.069,-5.901,-0.457,0.0402,0.0272,0.0008,-0.0132,1.0105,0.0000,0.0000,0.3000,-0.0239,0.0288
1740,0.1035,-0.0681,-0.0077,0.45,-0.07,0.54,0.201,-1.242,-7.457,-0.345,0.0412,0.0277,0.0022,-0.0159,1.0097,0.0000,0.0000,0.3000,-0.0229,0.0281
1748,0.1035,-0.0681,-0.0077,0.45,-0.07,0.54,0.202,-0.658,-4.202,-1.411,0.0430,0.0244,0.0026,-0.0180,1.0066,0.0000,0.0000,0.3000,-0.0219,0.0274
1759,0.1104,-0.0667,-0.0061,0.40,-0.00,0.53,0.202,-0.400,-3.884,-1.047,0.0441,0.0237,0.0043,-0.0163,1.0040,0.0000,0.0000,0.3000,-0.0208,0.0268
1769,0.1122,-0.0744,-0.0038,0.43,0.05,0.53,0.202,-0.849,-6.178,-0.893,0.0446,0.0242,0.0052,-0.0153,1.0061,0.0000,0.0000,0.3000,-0.0197,0.0260
1778,0.1122,-0.0744,-0.0038,0.43,0.05,0.53,0.202,-2.393,-4.384,-2.170,0.0464,0.0234,0.0026,-0.0100,1.0064,0.0000,0.0000,0.3000,-0.0185,0.0253
1789,0.1102,-0.0725,-0.0017,0.39,0.15,0.51,0.203,-2.419,-3.563,-0.337,0.0476,0.0225,0.0024,-0.0108,1.0071,0.0000,0.0000,0.3000,-0.0174,0.0246
1799,0.1119,-0.0731,-0.0013,0.37,0.19,0.50,0.203,-3.916,-1.303,-2.347,0.0488,0.0231,0.0011,-0.0196,1.0046,0.0000,0.0000,0.3000,-0.0163,0.0238
1809,0.1119,-0.0731,-0.0013,0.37,0.19,0.50,0.203,-1.156,-5.647,-1.338,0.0493,0.0217,0.0004,-0.0155,1.0042,0.0000,0.0000,0.3000,-0.0152,0.0231
1819,0.1114,-0.0712,0.0033,0.30,0.27,0.48,0.203,-3.097,-2.129,-1.426,0.0493,0.0210,0.0019,-0.0134,1.0072,0.0000,0.0000,0.3000,-0.0141,0.0224
1829,0.1091,-0.0735,0.0040,0.28,0.30,0.46,0.203,-3.266,-2.642,-2.251,0.0500,0.0215,0.0040,-0.0128,1.0069,0.0000,0.0000,0.3000,-0.0130,0.0216
1840,0.1056,-0.0738,0.0047,0.26,0.37,0.44,0.203,-3.498,-1.552,-2.157,0.0525,0.0190,0.0080,-0.0111,1.0052,0.0000,0.0000,0.3000,-0.0119,0.0209
1849,0.1056,-0.0738,0.0047,0.26,0.37,0.44,0.203,-1.850,-1.319,-2.577,0.0544,0.0194,0.0048,-0.0115,1.0009,0.0000,0.0000,0.3000,-0.0109,0.0202
1858,0.1074,-0.0763,0.0055,0.21,0.39,0.40,0.203,-1.128,-1.854,-1.303,0.0545,0.0187,0.0013,-0.0147,0.9997,0.0000,0.0000,0.3000,-0.0098,0.0194
1868,0.1074,-0.0763,0.0071,0.21,0.39,0.40,0.203,0.900,-3.789,-1.140,0.0558,0.0178,0.0001,-0.0188,1.0004,0.0000,0.0000,0.3000,-0.0087,0.0186
1878,0.1089,-0.0734,0.0078,0.15,0.38,0.38,0.203,0.980,-1.200,-1.940,0.0558,0.0174,0.0032,-0.0153,1.0024,0.0000,0.0000,0.3000,-0.0076,0.0179
1888,0.1057,-0.0736,0.0085,0.13,0.41,0.36,0.199,2.457,-1.976,-0.578,0.0570,0.0161,0.0030,-0.0118,1.0013,0.0000,0.0000,0.3000,-0.0066,0.0172
1898,0.1055,-0.0743,0.0088,0.12,0.43,0.35,0.199,2.142,-2.364,-1.949,0.0581,0.0163,0.0026,-0.0167,1.0029,0.0000,0.0000,0.3000,-0.0055,0.0164
1909,0.1020,-0.0735,0.0089,0.12,0.48,0.33,0.199,0.676,-0.539,-2.107,0.0581,0.0160,0.0057,-0.0106,1.0019,0.0000,0.0000,0.3000,-0.0045,0.0157
1918,0.1015,-0.0754,-0.0003,0.14,0.50,0.32,0.199,1.745,-0.398,-1.277,0.0595,0.0163,0.0023,-0.0068,1.0032,0.0000,0.0000,0.3000,-0.0035,0.0149
1928,0.1010,-0.0729,-0.0000,0.14,0.52,0.31,0.199,0.067,-2.323,-0.022,0.0602,0.0154,-0.0018,-0.0114,1.0002,0.0000,0.0000,0.3000,-0.0025,0.0142
1938,0.0986,-0.0692,0.0002,0.13,0.56,0.30,0.199,0.346,-3.810,-1.577,0.0613,0.0140,0.0014,-0.0201,1.0016,0.0000,0.0000,0.3000,-0.0015,0.0135
1949,0.0976,-0.0694,0.0004,0.12,0.57,0.28,0.200,1.556,-3.180,-2.692,0.0624,0.0142,0.0028,-0.0212,1.0004,0.0000,0.0000,0.3000,-0.0005,0.0128
1958,0.0959,-0.0702,0.0007,0.13,0.58,0.27,0.200,-2.790,0.103,-2.946,0.0621,0.0128,0.0062,-0.0103,1.0021,0.0000,0.0000,0.3000,0.0004,0.0121
1968,0.0953,-0.0724,-0.0022,0.15,0.61,0.26,0.200,-2.987,1.136,-1.926,0.0635,0.0132,0.0014,-0.0105,1.0013,0.0000,0.0000,0.3000,0.0014,0.0114
1978,0.0947,-0.0702,-0.0021,0.14,0.65,0.25,0.200,-2.486,-2.109,-1.315,0.0649,0.0124,-0.0005,-0.0129,1.0036,0.0000,0.0000,0.3000,0.0023,0.0107
1988,0.0901,-0.0723,-0.0019,0.16,0.70,0.22,0.203,-2.452,-0.498,-2.819,0.0646,0.0115,0.0033,-0.0173,1.0044,0.0000,0.0000,0.3000,0.0032,0.0100
1997,0.0905,-0.0696,-0.0018,0.12,0.68,0.19,0.203,-1.272,-0.896,-1.587,0.0660,0.0108,0.0072,-0.0153,1.0006,0.0000,0.0000,0.3000,0.0041,0.0093
2008,0.0905,-0.0700,-0.0017,0.09,0.66,0.17,0.203,1.973,-0.081,-3.254,0.0667,0.0109,0.0086,-0.0139,1.0042,0.0000,0.0000,0.3000,0.0051,0.0086
2018,0.0861,-0.0706,0.0036,0.07,0.70,0.16,0.203,-3.413,0.304,-0.718,0.0672,0.0100,0.0087,-0.0124,1.0046,0.0000,0.0000,0.3000,0.0059,0.0079
2028,0.0865,-0.0709,0.0038,0.05,0.69,0.13,0.203,-1.059,-0.550,-0.931,0.0674,0.0108,0.0064,-0.0123,0.9999,0.0000,0.0000,0.3000,0.0068,0.0072
2038,0.0849,-0.0687,0.0042,0.03,0.70,0.12,0.203,2.053,-3.147,-0.791,0.0692,0.0089,0.0020,-0.0144,0.9993,0.0000,0.0000,0.3000,0.0076,0.0065
2048,0.0826,-0.0693,0.0045,0.05,0.70,0.09,0.201,1.279,-6.074,-0.595,0.0703,0.0085,0.0007,-0.0112,1.0005,0.0000,0.0000,0.3000,0.0085,0.0058
2058,0.0798,-0.0653,0.0048,-0.00,0.71,0.08,0.201,-1.518,-5.135,-1.868,0.0709,0.0080,0.0013,-0.0172,1.0003,0.0000,0.0000,0.3000,0.0093,0.0051
2068,0.0814,-0.0687,0.0031,0.01,0.70,0.07,0.201,0.054,-1.133,-1.403,0.0722,0.0082,0.0047,-0.0176,0.9976,0.0000,0.0000,0.3000,0.0101,0.0044
2078,0.0810,-0.0681,0.0034,0.03,0.73,0.06,0.201,-2.409,-0.691,-0.927,0.0720,0.0074,0.0062,-0.0193,1.0001,0.0000,0.0000,0.3000,0.0109,0.0038
2088,0.0791,-0.0675,0.0032,0.04,0.80,0.05,0.201,-2.311,0.521,-2.393,0.0727,0.0060,0.0031,-0.0141,1.0033,0.0000,0.0000,0.3000,0.0117,0.0031
2098,0.0791,-0.0650,0.0033,0.02,0.83,0.04,0.201,-0.057,-1.737,-1.914,0.0741,0.0053,0.0033,-0.0129,0.9963,0.0000,0.0000,0.3000,0.0125,0.0024
2108,0.0749,-0.0656,0.0034,0.02,0.86,0.02,0.201,-1.396,0.524,-1.486,0.0740,0.0051,0.0040,-0.0118,0.9943,0.0000,0.0000,0.3000,0.0132,0.0018
2118,0.0734,-0.0676,0.0016,0.02,0.87,0.01,0.201,-3.076,1.549,-1.853,0.0753,0.0037,0.0078,-0.0123,0.9962,0.0000,0.0000,0.3000,0.0139,0.0011
2128,0.0737,-0.0678,0.0015,-0.00,0.86,-0.01,0.201,-0.276,1.009,-2.153,0.0752,0.0044,0.0059,-0.0145,1.0003,0.0000,0.0000,0.3000,0.0147,0.0004
2138,0.0699,-0.0665,0.0018,-0.03,0.88,-0.03,0.201,1.109,2.270,-1.175,0.0766,0.0037,0.0076,-0.0118,1.0014,0.0000,0.0000,0.3000,0.0154,-0.0002
2149,0.0702,-0.0683,0.0016,-0.03,0.86,-0.04,0.200,-3.138,2.741,-0.563,0.0765,0.0033,0.0048,-0.0107,0.9996,0.0000,0.0000,0.3000,0.0161,-0.0009
2158,0.0665,-0.0644,0.0013,-0.08,0.87,-0.06,0.200,2.299,0.635,-1.879,0.0771,0.0026,0.0060,-0.0159,0.9977,0.0000,0.0000,0.3000,0.0167,-0.0016
2168,0.0672,-0.0646,-0.0025,-0.09,0.84,-0.08,0.200,-1.117,0.987,-0.186,0.0791,0.0002,0.0087,-0.0150,0.9998,0.0000,0.0000,0.3000,0.0174,-0.0022
2178,0.0635,-0.0637,-0.0026,-0.09,0.84,-0.09,0.200,2.549,-2.182,-2.202,0.0797,-0.0005,0.0049,-0.0106,0.9997,0.0000,0.0000,0.3000,0.0180,-0.0028
2188,0.0621,-0.0636,-0.0025,-0.11,0.82,-0.10,0.202,-1.390,4.518,-0.696,0.0796,-0.0009,0.0040,-0.0120,0.9997,0.0000,0.0000,0.3000,0.0187,-0.0035
2198,0.0645,-0.0685,-0.0027,-0.07,0.79,-0.11,0.202,0.518,-0.689,-0.695,0.0801,-0.0012,0.0054,-0.0111,0.9996,0.0000,0.0000,0.3000,0.0193,-0.0042
2208,0.0632,-0.0684,-0.0028,-0.07,0.78,-0.12,0.202,-0.635,-2.300,-0.330,0.0804,-0.0016,0.0045,-0.0142,0.9998,0.0000,0.0000,0.3000,0.0199,-0.0048
2218,0.0595,-0.0673,-0.0001,-0.06,0.81,-0.14,0.202,1.578,-1.811,-0.862,0.0811,-0.0015,0.0061,-0.0138,1.0016,0.0000,0.0000,0.3000,0.0205,-0.0055
2227,0.0577,-0.0662,-0.0001,-0.08,0.78,-0.15,0.202,-0.387,-6.282,-0.995,0.0808,-0.0008,0.0068,-0.0095,0.9994,0.0000,0.0000,0.3000,0.0211,-0.0062
2238,0.0555,-0.0653,-0.0002,-0.08,0.79,-0.15,0.202,-2.682,0.581,-1.552,0.0805,-0.0027,0.0041,-0.0147,0.9988,0.0000,0.0000,0.3000,0.0217,-0.0068
2249,0.0548,-0.0628,-0.0001,-0.09,0.81,-0.15,0.198,-6.488,0.123,0.205,0.0814,-0.0033,0.0034,-0.0188,1.0018,0.0000,0.0000,0.3000,0.0222,-0.0075
2258,0.0509,-0.0588,-0.0001,-0.11,0.86,-0.16,0.198,-2.405,-2.386,-1.590,0.0812,-0.0041,0.0041,-0.0166,1.0049,0.0000,0.0000,0.3000,0.0227,-0.0081
2268,0.0470,-0.0624,-0.0073,-0.09,0.93,-0.18,0.198,-3.677,-1.179,-0.162,0.0821,-0.0037,0.0080,-0.0078,1.0014,0.0000,0.0000,0.3000,0.0232,-0.0087
2278,0.0469,-0.0623,-0.0073,-0.12,0.91,-0.19,0.198,-1.586,-0.773,-0.414,0.0820,-0.0039,0.0090,-0.0097,1.0009,0.0000,0.0000,0.3000,0.0237,-0.0093
2287,0.0433,-0.0625,-0.0074,-0.17,0.93,-0.19,0.201,-0.741,-1.179,-0.618,0.0819,-0.0052,0.0060,-0.0108,1.0004,0.0000,0.0000,0.3000,0.0241,-0.0099
2298,0.0431,-0.0594,-0.0074,-0.22,0.94,-0.20,0.201,-0.049,-1.044,-0.269,0.0829,-0.0055,0.0077,-0.0126,1.0028,0.0000,0.0000,0.3000,0.0245,-0.0105
2308,0.0399,-0.0578,-0.0070,-0.27,0.96,-0.20,0.201,1.957,-0.306,-0.517,0.0832,-0.0061,0.0079,-0.0125,1.0024,0.0000,0.0000,0.3000,0.0249,-0.0111
2318,0.0369,-0.0595,-0.0034,-0.28,0.97,-0.20,0.201,-2.479,2.565,-0.199,0.0842,-0.0064,0.0097,-0.0151,1.0036,0.0000,0.0000,0.3000,0.0253,-0.0117
2327,0.0370,-0.0581,-0.0034,-0.30,0.96,-0.21,0.201,3.814,2.927,0.349,0.0845,-0.0070,0.0057,-0.0167,1.0034,0.0000,0.0000,0.3000,0.0257,-0.0123
2338,0.0354,-0.0575,-0.0034,-0.29,0.96,-0.21,0.201,2.397,1.727,0.162,0.0844,-0.0091,0.0031,-0.0149,1.0038,0.0000,0.0000,0.3000,0.0260,-0.0128
2348,0.0355,-0.0564,-0.0032,-0.29,0.94,-0.22,0.199,-0.606,4.033,0.570,0.0850,-0.0089,0.0031,-0.0151,1.0021,0.0000,0.0000,0.3000,0.0264,-0.0134
2358,0.0339,-0.0559,-0.0029,-0.30,0.91,-0.22,0.199,-2.070,2.094,-1.160,0.0851,-0.0082,0.0035,-0.0134,0.9985,0.0000,0.0000,0.3000,0.0267,-0.0140
2368,0.0318,-0.0576,-0.0050,-0.25,0.90,-0.22,0.199,2.667,0.928,-1.490,0.0855,-0.0080,0.0054,-0.0100,0.9980,0.0000,0.0000,0.3000,0.0270,-0.0145
2377,0.0303,-0.0572,-0.0047,-0.24,0.87,-0.22,0.199,0.024,-2.398,-0.926,0.0863,-0.0078,0.0056,-0.0139,1.0031,0.0000,0.0000,0.3000,0.0273,-0.0151
2388,0.0281,-0.0530,-0.0043,-0.27,0.84,-0.21,0.198,-0.976,-1.757,-1.130,0.0857,-0.0078,0.0047,-0.0154,1.0037,0.0000,0.0000,0.3000,0.0276,-0.0156
2397,0.0270,-0.0505,-0.0039,-0.30,0.83,-0.22,0.198,0.923,-1.172,-1.722,0.0865,-0.0107,0.0086,-0.0135,1.0036,0.0000,0.0000,0.3000,0.0279,-0.0162
2408,0.0274,-0.0480,-0.0040,-0.30,0.82,-0.23,0.198,-4.597,2.427,-0.651,0.0871,-0.0105,0.0082,-0.0111,1.0030,0.0000,0.0000,0.3000,0.0282,-0.0166
2417,0.0234,-0.0459,-0.0072,-0.31,0.86,-0.24,0.198,-3.424,3.589,-1.173,0.0871,-0.0107,0.0080,-0.0074,1.0030,0.0000,0.0000,0.3000,0.0284,-0.0171
2428,0.0237,-0.0527,-0.0072,-0.26,0.87,-0.26,0.198,-3.596,2.435,0.512,0.0877,-0.0114,0.0091,-0.0073,1.0025,0.0000,0.0000,0.3000,0.0286,-0.0176
2437,0.0226,-0.0493,-0.0069,-0.28,0.86,-0.27,0.198,-4.218,3.402,1.153,0.0873,-0.0117,0.0062,-0.0116,1.0030,0.0000,0.0000,0.3000,0.0289,-0.0181
2448,0.0211,-0.0488,-0.0065,-0.31,0.84,-0.28,0.198,-0.990,2.611,-0.244,0.0875,-0.0122,0.0058,-0.0158,1.0040,0.0000,0.0000,0.3000,0.0291,-0.0186
2457,0.0209,-0.0489,-0.0062,-0.35,0.79,-0.29,0.198,2.337,3.218,-0.911,0.0875,-0.0132,0.0073,-0.0167,1.0012,0.0000,0.0000,0.3000,0.0293,-0.0191
2468,0.0177,-0.0476,-0.0070,-0.39,0.77,-0.28,0.198,1.167,0.987,-0.648,0.0877,-0.0136,0.0082,-0.0153,1.0025,0.0000,0.0000,0.3000,0.0295,-0.0196
2477,0.0163,-0.0469,-0.0067,-0.43,0.75,-0.27,0.198,2.281,-1.209,0.903,0.0871,-0.0135,0.0079,-0.0145,1.0031,0.0000,0.0000,0.3000,0.0296,-0.0200
2488,0.0148,-0.0478,-0.0065,-0.42,0.72,-0.28,0.200,1.339,1.711,1.858,0.0869,-0.0141,0.0063,-0.0143,1.0043,0.0000,0.0000,0.3000,0.0298,-0.0205
2497,0.0135,-0.0470,-0.0061,-0.40,0.69,-0.29,0.200,-1.551,1.587,-0.156,0.0875,-0.0144,0.0067,-0.0118,1.0050,0.0000,0.0000,0.3000,0.0299,-0.0210
2507,0.0101,-0.0447,-0.0059,-0.40,0.70,-0.29,0.200,4.118,-3.296,-0.118,0.0876,-0.0149,0.0079,-0.0130,1.0025,0.0000,0.0000,0.3000,0.0300,-0.0214
2517,0.0083,-0.0442,-0.0013,-0.38,0.72,-0.28,0.200,3.915,0.662,-0.634,0.0877,-0.0153,0.0115,-0.0148,1.0033,0.0000,0.0000,0.3000,0.0301,-0.0219
2528,0.0086,-0.0433,-0.0010,-0.38,0.69,-0.26,0.200,-0.107,1.513,0.028,0.0883,-0.0147,0.0098,-0.0142,1.0024,0.0000,0.0000,0.3000,0.0302,-0.0223
2537,0.0074,-0.0427,-0.0006,-0.37,0.68,-0.27,0.200,-0.120,0.547,-0.567,0.0883,-0.0157,0.0058,-0.0153,1.0024,0.0000,0.0000,0.3000,0.0302,-0.0227
2548,0.0063,-0.0420,-0.0001,-0.33,0.70,-0.27,0.196,-4.126,0.408,0.761,0.0883,-0.0161,0.0043,-0.0184,1.0025,0.0000,0.0000,0.3000,0.0303,-0.0232
2559,0.0067,-0.0384,0.0002,-0.32,0.68,-0.27,0.196,-1.463,-1.330,1.585,0.0889,-0.0158,0.0048,-0.0179,0.9998,0.0000,0.0000,0.3000,0.0304,-0.0235
2568,0.0054,-0.0397,-0.0054,-0.30,0.67,-0.27,0.196,-1.222,3.758,-0.192,0.0890,-0.0162,0.0071,-0.0123,1.0006,0.0000,0.0000,0.3000,0.0304,-0.0239
2578,0.0058,-0.0373,-0.0052,-0.32,0.66,-0.26,0.196,-3.902,1.361,0.119,0.0891,-0.0165,0.0079,-0.0166,1.0060,0.0000,0.0000,0.3000,0.0305,-0.0243
2588,0.0047,-0.0367,-0.0050,-0.36,0.65,-0.26,0.197,-0.789,-0.430,0.099,0.0897,-0.0173,0.0095,-0.0187,1.0015,0.0000,0.0000,0.3000,0.0305,-0.0247
2597,0.0036,-0.0361,-0.0047,-0.37,0.66,-0.24,0.197,1.784,0.258,-0.141,0.0892,-0.0172,0.0083,-0.0148,1.0017,0.0000,0.0000,0.3000,0.0306,-0.0250
2607,0.0028,-0.0352,-0.0046,-0.39,0.63,-0.24,0.197,-0.507,1.461,0.571,0.0892,-0.0175,0.0082,-0.0122,1.0037,0.0000,0.0000,0.3000,0.0306,-0.0254
2618,0.0035,-0.0360,-0.0055,-0.42,0.61,-0.24,0.197,0.929,0.216,0.381,0.0892,-0.0179,0.0080,-0.0143,1.0028,0.0000,0.0000,0.3000,0.0306,-0.0257
2627,0.0006,-0.0337,-0.0050,-0.44,0.62,-0.24,0.197,0.625,4.812,0.370,0.0886,-0.0196,0.0058,-0.0124,1.0021,0.0000,0.0000,0.3000,0.0306,-0.0261
2637,-0.0004,-0.0330,-0.0047,-0.43,0.61,-0.24,0.197,1.786,2.259,0.659,0.0885,-0.0199,0.0039,-0.0185,1.0016,0.0000,0.0000,0.3000,0.0306,-0.0264
2647,-0.0015,-0.0322,-0.0046,-0.43,0.58,-0.24,0.196,0.031,1.305,1.180,0.0885,-0.0203,0.0054,-0.0208,1.0051,0.0000,0.0000,0.3000,0.0306,-0.0267
2657,-0.0042,-0.0357,-0.0044,-0.39,0.59,-0.24,0.196,-0.506,-0.813,0.720,0.0884,-0.0206,0.0059,-0.0188,1.0030,0.0000,0.0000,0.3000,0.0306,-0.0271
2667,-0.0052,-0.0350,-0.0062,-0.38,0.56,-0.23,0.196,-0.342,0.212,1.239,0.0883,-0.0210,0.0069,-0.0157,1.0063,0.0000,0.0000,0.3000,0.0305,-0.0274
2677,-0.0062,-0.0344,-0.0060,-0.36,0.55,-0.22,0.196,-0.185,-2.795,1.499,0.0882,-0.0213,0.0064,-0.0145,1.0081,0.0000,0.0000,0.3000,0.0305,-0.0278
2687,-0.0071,-0.0338,-0.0058,-0.36,0.54,-0.21,0.195,3.022,-0.717,-0.135,0.0881,-0.0216,0.0083,-0.0114,1.0050,0.0000,0.0000,0.3000,0.0304,-0.0281
2697,-0.0081,-0.0331,-0.0054,-0.37,0.54,-0.20,0.195,-1.128,0.244,1.778,0.0881,-0.0223,0.0070,-0.0152,1.0020,0.0000,0.0000,0.3000,0.0303,-0.0285
2707,-0.0090,-0.0325,-0.0051,-0.38,0.55,-0.18,0.195,1.026,0.504,0.902,0.0882,-0.0213,0.0048,-0.0162,1.0027,0.0000,0.0000,0.3000,0.0302,-0.0288
2717,-0.0099,-0.0318,-0.0075,-0.38,0.57,-0.16,0.195,0.374,-0.131,0.980,0.0881,-0.0216,0.0067,-0.0139,1.0047,0.0000,0.0000,0.3000,0.0301,-0.0291
2727,-0.0106,-0.0322,-0.0068,-0.34,0.57,-0.16,0.195,-2.204,-0.081,1.796,0.0881,-0.0220,0.0072,-0.0110,1.0061,0.0000,0.0000,0.3000,0.0300,-0.0294
2737,-0.0111,-0.0279,-0.0061,-0.37,0.57,-0.14,0.195,0.738,0.311,0.991,0.0880,-0.0223,0.0043,-0.0205,1.0023,0.0000,0.0000,0.3000,0.0299,-0.0297
2747,-0.0121,-0.0273,-0.0059,-0.35,0.58,-0.14,0.197,-0.531,-1.743,1.240,0.0878,-0.0226,0.0091,-0.0167,1.0044,0.0000,0.0000,0.3000,0.0298,-0.0300
2757,-0.0126,-0.0272,-0.0056,-0.36,0.58,-0.12,0.197,-1.163,0.677,0.225,0.0877,-0.0228,0.0081,-0.0198,1.0039,0.0000,0.0000,0.3000,0.0297,-0.0302
2767,-0.0136,-0.0266,-0.0018,-0.38,0.58,-0.10,0.197,-0.262,1.476,1.097,0.0887,-0.0225,0.0101,-0.0184,1.0063,0.0000,0.0000,0.3000,0.0295,-0.0305
2777,-0.0146,-0.0259,-0.0012,-0.37,0.57,-0.09,0.197,-1.970,-0.862,0.980,0.0889,-0.0214,0.0108,-0.0140,1.0039,0.0000,0.0000,0.3000,0.0294,-0.0308
2787,-0.0156,-0.0253,-0.0008,-0.38,0.59,-0.09,0.193,-1.973,1.631,1.654,0.0884,-0.0220,0.0107,-0.0160,1.0013,0.0000,0.0000,0.3000,0.0292,-0.0310
2797,-0.0132,-0.0231,-0.0005,-0.40,0.56,-0.07,0.193,1.155,0.566,1.055,0.0882,-0.0221,0.0085,-0.0184,1.0024,0.0000,0.0000,0.3000,0.0291,-0.0313
2807,-0.0132,-0.0186,-0.0000,-0.43,0.54,-0.06,0.193,1.299,1.216,0.606,0.0884,-0.0214,0.0059,-0.0148,1.0006,0.0000,0.0000,0.3000,0.0290,-0.0314
2817,-0.0154,-0.0188,-0.0064,-0.45,0.55,-0.05,0.193,-0.331,0.792,2.535,0.0886,-0.0220,0.0109,-0.0141,1.0030,0.0000,0.0000,0.3000,0.0288,-0.0316
2827,-0.0163,-0.0180,-0.0059,-0.47,0.54,-0.04,0.193,2.293,0.526,1.051,0.0884,-0.0222,0.0101,-0.0158,1.0056,0.0000,0.0000,0.3000,0.0286,-0.0318
2837,-0.0162,-0.0146,-0.0058,-0.47,0.53,-0.03,0.193,1.570,2.765,0.777,0.0872,-0.0223,0.0055,-0.0181,1.0052,0.0000,0.0000,0.3000,0.0285,-0.0320
2847,-0.0161,-0.0153,-0.0055,-0.45,0.51,-0.01,0.198,0.284,1.919,1.683,0.0870,-0.0225,0.0065,-0.0213,1.0037,0.0000,0.0000,0.3000,0.0283,-0.0321
2857,-0.0169,-0.0145,-0.0054,-0.45,0.50,0.01,0.198,1.194,1.420,0.830,0.0880,-0.0216,0.0091,-0.0157,1.0041,0.0000,0.0000,0.3000,0.0282,-0.0323
2867,-0.0208,-0.0137,0.0025,-0.42,0.51,0.02,0.198,2.167,-0.177,0.430,0.0878,-0.0217,0.0049,-0.0137,1.0035,0.0000,0.0000,0.3000,0.0279,-0.0324
2877,-0.0217,-0.0130,0.0030,-0.41,0.48,0.03,0.198,0.351,2.757,1.015,0.0859,-0.0217,0.0108,-0.0118,1.0033,0.0000,0.0000,0.3000,0.0277,-0.0325
2887,-0.0191,-0.0096,0.0036,-0.42,0.44,0.04,0.197,1.173,1.963,0.807,0.0856,-0.0218,0.0084,-0.0155,1.0010,0.0000,0.0000,0.3000,0.0275,-0.0326
2897,-0.0198,-0.0089,0.0040,-0.40,0.43,0.05,0.197,0.054,-0.732,0.989,0.0853,-0.0218,0.0082,-0.0165,1.0025,0.0000,0.0000,0.3000,0.0273,-0.0327
2907,-0.0254,-0.0079,0.0044,-0.39,0.45,0.06,0.197,-0.491,1.309,0.544,0.0849,-0.0211,0.0120,-0.0164,1.0041,0.0000,0.0000,0.3000,0.0271,-0.0328
2917,-0.0262,-0.0072,0.0066,-0.38,0.43,0.07,0.197,-1.337,-0.027,2.874,0.0846,-0.0212,0.0115,-0.0162,1.0019,0.0000,0.0000,0.3000,0.0268,-0.0329
2927,-0.0269,-0.0065,0.0069,-0.39,0.41,0.08,0.197,0.321,0.407,0.895,0.0844,-0.0212,0.0077,-0.0188,1.0018,0.0000,0.0000,0.3000,0.0266,-0.0329
2937,-0.0280,-0.0038,0.0070,-0.39,0.40,0.09,0.197,0.113,-0.703,0.622,0.0838,-0.0213,0.0079,-0.0198,1.0025,0.0000,0.0000,0.3000,0.0263,-0.0330
2947,-0.0287,-0.0031,0.0072,-0.40,0.39,0.10,0.195,1.293,0.087,0.458,0.0825,-0.0213,0.0078,-0.0169,1.0036,0.0000,0.0000,0.3000,0.0260,-0.0330
2957,-0.0293,-0.0024,0.0075,-0.41,0.38,0.12,0.195,0.263,0.364,1.124,0.0836,-0.0198,0.0057,-0.0149,1.0038,0.0000,0.0000,0.3000,0.0257,-0.0330
2969,-0.0307,-0.0019,0.0036,-0.40,0.38,0.13,0.195,1.336,-0.333,0.653,0.0833,-0.0198,0.0082,-0.0168,0.9986,0.0000,0.0000,0.3000,0.0254,-0.0330
2977,-0.0340,-0.0012,0.0037,-0.40,0.40,0.13,0.195,1.735,-0.821,1.012,0.0844,-0.0191,0.0086,-0.0130,1.0002,0.0000,0.0000,0.3000,0.0250,-0.0330
2987,-0.0308,0.0034,0.0040,-0.41,0.37,0.14,0.200,2.242,1.120,1.498,0.0841,-0.0190,0.0076,-0.0166,0.9994,0.0000,0.0000,0.3000,0.0247,-0.0330
2998,-0.0315,0.0041,0.0042,-0.40,0.37,0.15,0.200,0.415,1.642,1.539,0.0838,-0.0190,0.0109,-0.0184,1.0004,0.0000,0.0000,0.3000,0.0244,-0.0330
3008,-0.0282,0.0065,0.0046,-0.40,0.34,0.16,0.200,1.484,1.262,0.231,0.0835,-0.0189,0.0055,-0.0158,1.0002,0.0000,0.0000,0.3000,0.0241,-0.0329
3018,-0.0289,0.0072,0.0125,-0.39,0.34,0.18,0.200,1.951,2.545,0.799,0.0822,-0.0191,0.0064,-0.0160,0.9982,0.0000,0.0000,0.3000,0.0239,-0.0328
3028,-0.0295,0.0079,0.0124,-0.36,0.32,0.19,0.200,2.067,2.231,0.398,0.0828,-0.0184,0.0087,-0.0196,0.9996,0.0000,0.0000,0.3000,0.0236,-0.0328
3037,-0.0300,0.0085,0.0123,-0.36,0.30,0.20,0.200,2.001,2.433,0.500,0.0816,-0.0163,0.0050,-0.0144,1.0021,0.0000,0.0000,0.3000,0.0233,-0.0327
3048,-0.0331,0.0083,0.0124,-0.33,0.30,0.21,0.199,1.915,1.380,0.630,0.0805,-0.0165,0.0044,-0.0146,0.9999,0.0000,0.0000,0.3000,0.0229,-0.0326
3057,-0.0313,0.0105,0.0125,-0.32,0.26,0.22,0.199,0.828,1.584,0.710,0.0833,-0.0167,0.0041,-0.0172,1.0015,0.0000,0.0000,0.3000,0.0226,-0.0325
3069,-0.0339,0.0164,0.0135,-0.33,0.24,0.22,0.199,1.207,0.872,0.454,0.0828,-0.0169,0.0035,-0.0187,0.9996,0.0000,0.0000,0.3000,0.0223,-0.0323
3078,-0.0364,0.0159,0.0134,-0.31,0.23,0.23,0.199,0.361,0.718,0.209,0.0824,-0.0178,0.0056,-0.0207,0.9961,0.0000,0.0000,0.3000,0.0219,-0.0322
3088,-0.0284,0.0155,0.0137,-0.29,0.16,0.24,0.198,0.322,0.697,0.615,0.0826,-0.0172,0.0081,-0.0207,1.0007,0.0000,0.0000,0.3000,0.0216,-0.0320
3098,-0.0291,0.0151,0.0137,-0.28,0.15,0.24,0.198,1.256,1.533,0.652,0.0815,-0.0159,0.0087,-0.0164,0.9992,0.0000,0.0000,0.3000,0.0213,-0.0319
3107,-0.0298,0.0128,0.0138,-0.25,0.15,0.25,0.198,1.845,1.758,0.090,0.0831,-0.0161,0.0108,-0.0135,0.9995,0.0000,0.0000,0.3000,0.0210,-0.0317
3117,-0.0286,0.0144,0.0111,-0.26,0.13,0.25,0.198,2.178,1.085,-0.338,0.0813,-0.0164,0.0074,-0.0134,0.9956,0.0000,0.0000,0.3000,0.0207,-0.0316
3127,-0.0311,0.0179,0.0107,-0.27,0.14,0.26,0.198,1.452,1.616,-0.449,0.0822,-0.0139,0.0049,-0.0174,0.9964,0.0000,0.0000,0.3000,0.0204,-0.0314
3136,-0.0262,0.0173,0.0107,-0.25,0.10,0.26,0.198,1.970,1.009,-0.118,0.0820,-0.0137,0.0080,-0.0209,0.9987,0.0000,0.0000,0.3000,0.0202,-0.0312
3147,-0.0304,0.0165,0.0107,-0.22,0.11,0.26,0.202,2.432,1.649,-0.606,0.0822,-0.0132,0.0122,-0.0187,1.0008,0.0000,0.0000,0.3000,0.0199,-0.0311
3157,-0.0274,0.0231,0.0106,-0.24,0.08,0.26,0.202,1.404,1.277,-0.213,0.0824,-0.0142,0.0107,-0.0181,0.9977,0.0000,0.0000,0.3000,0.0196,-0.0308
3167,-0.0276,0.0235,0.0164,-0.22,0.06,0.26,0.202,2.817,1.213,-0.284,0.0826,-0.0118,0.0097,-0.0225,0.9961,0.0000,0.0000,0.3000,0.0193,-0.0306
3177,-0.0249,0.0213,0.0160,-0.18,0.03,0.26,0.202,0.959,0.359,-0.011,0.0835,-0.0114,0.0081,-0.0185,1.0007,0.0000,0.0000,0.3000,0.0191,-0.0304
3187,-0.0250,0.0216,0.0158,-0.16,0.02,0.25,0.196,0.801,0.202,0.203,0.0836,-0.0110,0.0063,-0.0128,1.0017,0.0000,0.0000,0.3000,0.0188,-0.0302
3197,-0.0238,0.0276,0.0158,-0.17,-0.00,0.25,0.196,2.155,0.661,-0.527,0.0834,-0.0107,0.0052,-0.0146,0.9962,0.0000,0.0000,0.3000,0.0186,-0.0299
3207,-0.0209,0.0282,0.0156,-0.15,-0.03,0.25,0.196,-1.134,-0.673,-0.198,0.0832,-0.0104,0.0055,-0.0189,0.9937,0.0000,0.0000,0.3000,0.0184,-0.0296
3217,-0.0200,0.0289,0.0041,-0.15,-0.03,0.25,0.196,1.090,-0.059,-0.500,0.0827,-0.0105,0.0082,-0.0173,0.9970,0.0000,0.0000,0.3000,0.0182,-0.0293
3227,-0.0199,0.0291,0.0041,-0.14,-0.03,0.26,0.196,0.635,-0.955,-1.129,0.0825,-0.0103,0.0099,-0.0143,0.9995,0.0000,0.0000,0.3000,0.0180,-0.0290
3237,-0.0199,0.0294,0.0042,-0.13,-0.04,0.25,0.196,-0.536,-0.183,-0.359,0.0826,-0.0091,0.0074,-0.0177,0.9994,0.0000,0.0000,0.3000,0.0178,-0.0287
3247,-0.0207,0.0284,0.0039,-0.13,-0.03,0.25,0.200,-0.719,-0.427,0.245,0.0827,-0.0086,0.0063,-0.0185,0.9982,0.0000,0.0000,0.3000,0.0176,-0.0285
3257,-0.0207,0.0287,0.0034,-0.12,-0.02,0.24,0.200,0.957,-0.276,0.230,0.0821,-0.0095,0.0042,-0.0125,0.9967,0.0000,0.0000,0.3000,0.0174,-0.0282
3267,-0.0198,0.0313,0.0046,-0.13,-0.02,0.23,0.200,1.335,0.127,0.468,0.0828,-0.0105,0.0036,-0.0132,0.9959,0.0000,0.0000,0.3000,0.0172,-0.0279
3277,-0.0190,0.0318,0.0045,-0.13,-0.02,0.23,0.200,2.394,-0.334,0.052,0.0826,-0.0103,0.0035,-0.0164,0.9971,0.0000,0.0000,0.3000,0.0170,-0.0275
3287,-0.0199,0.0287,0.0045,-0.10,-0.01,0.23,0.194,2.935,0.628,-0.097,0.0828,-0.0086,0.0065,-0.0200,0.9978,0.0000,0.0000,0.3000,0.0168,-0.0272
3297,-0.0175,0.0255,0.0043,-0.06,-0.02,0.23,0.194,2.862,1.402,-0.381,0.0816,-0.0077,0.0095,-0.0170,1.0031,0.0000,0.0000,0.3000,0.0166,-0.0270
3307,-0.0175,0.0256,0.0040,-0.04,-0.02,0.23,0.194,0.685,0.029,0.134,0.0823,-0.0060,0.0092,-0.0155,1.0013,0.0000,0.0000,0.3000,0.0164,-0.0267
3318,-0.0166,0.0294,-0.0086,-0.04,-0.02,0.23,0.194,1.548,0.362,0.013,0.0825,-0.0057,0.0086,-0.0175,0.9984,0.0000,0.0000,0.3000,0.0163,-0.0264
3327,-0.0194,0.0313,-0.0089,-0.02,-0.01,0.23,0.194,0.055,0.073,-0.674,0.0823,-0.0053,0.0070,-0.0204,1.0037,0.0000,0.0000,0.3000,0.0161,-0.0261
3337,-0.0167,0.0349,-0.0092,-0.02,-0.04,0.22,0.194,0.008,0.061,-0.605,0.0821,-0.0050,0.0070,-0.0170,1.0034,0.0000,0.0000,0.3000,0.0159,-0.0258
3347,-0.0159,0.0350,-0.0091,-0.01,-0.04,0.22,0.198,0.308,0.655,-0.839,0.0815,-0.0044,0.0057,-0.0185,1.0003,0.0000,0.0000,0.3000,0.0157,-0.0254
3357,-0.0158,0.0350,-0.0089,-0.00,-0.04,0.22,0.198,0.271,-0.809,-0.523,0.0823,-0.0046,0.0064,-0.0186,1.0046,0.0000,0.0000,0.3000,0.0156,-0.0251
3367,-0.0158,0.0350,-0.0065,-0.00,-0.04,0.21,0.198,0.147,-0.639,0.292,0.0822,-0.0042,0.0055,-0.0159,1.0028,0.0000,0.0000,0.3000,0.0154,-0.0247
3377,-0.0169,0.0355,-0.0062,-0.01,-0.03,0.21,0.198,-1.128,-0.236,0.983,0.0820,-0.0039,0.0085,-0.0163,1.0045,0.0000,0.0000,0.3000,0.0153,-0.0244
3387,-0.0143,0.0342,-0.0058,-0.01,-0.05,0.21,0.198,0.194,-0.539,-0.339,0.0821,-0.0027,0.0081,-0.0174,1.0060,0.0000,0.0000,0.3000,0.0151,-0.0240
3397,-0.0142,0.0342,-0.0059,-0.01,-0.05,0.21,0.198,1.441,-0.300,0.233,0.0820,-0.0023,0.0081,-0.0164,1.0036,0.0000,0.0000,0.3000,0.0150,-0.0237
3407,-0.0142,0.0342,-0.0056,-0.01,-0.05,0.21,0.198,0.242,0.469,0.685,0.0818,-0.0019,0.0099,-0.0130,1.0058,0.0000,0.0000,0.3000,0.0148,-0.0233
3417,-0.0135,0.0366,-0.0035,-0.04,-0.05,0.22,0.198,1.474,-0.304,0.768,0.0826,-0.0022,0.0082,-0.0112,1.0048,0.0000,0.0000,0.3000,0.0147,-0.0230
3427,-0.0134,0.0367,-0.0031,-0.04,-0.05,0.22,0.198,2.443,-0.422,0.362,0.0820,-0.0019,0.0069,-0.0168,1.0052,0.0000,0.0000,0.3000,0.0146,-0.0226
3437,-0.0133,0.0368,-0.0025,-0.04,-0.04,0.23,0.198,2.279,-0.064,0.907,0.0820,-0.0016,0.0011,-0.0197,1.0041,0.0000,0.0000,0.3000,0.0144,-0.0222
3446,-0.0107,0.0351,-0.0021,-0.02,-0.06,0.24,0.196,1.019,-0.986,0.376,0.0821,-0.0006,0.0063,-0.0192,1.0037,0.0000,0.0000,0.3000,0.0143,-0.0219
3457,-0.0119,0.0350,-0.0014,-0.00,-0.05,0.25,0.196,2.000,-0.894,0.364,0.0820,-0.0002,0.0096,-0.0164,1.0039,0.0000,0.0000,0.3000,0.0142,-0.0215
3467,-0.0114,0.0347,-0.0040,0.03,-0.05,0.25,0.196,0.698,-0.965,0.341,0.0819,0.0001,0.0064,-0.0169,1.0029,0.0000,0.0000,0.3000,0.0141,-0.0212
3479,-0.0108,0.0366,-0.0035,0.03,-0.05,0.26,0.196,2.303,-0.840,0.413,0.0820,0.0005,0.0093,-0.0218,1.0045,0.0000,0.0000,0.3000,0.0140,-0.0208
3487,-0.0107,0.0365,-0.0031,0.05,-0.03,0.26,0.201,1.451,-1.764,-0.412,0.0813,0.0009,0.0089,-0.0094,1.0078,0.0000,0.0000,0.3000,0.0139,-0.0205
3497,-0.0106,0.0364,-0.0027,0.06,-0.03,0.27,0.201,2.288,-2.120,-0.833,0.0806,0.0006,0.0015,-0.0151,1.0066,0.0000,0.0000,0.3000,0.0138,-0.0201
3507,-0.0102,0.0362,-0.0024,0.08,-0.02,0.28,0.201,0.662,-1.801,-0.317,0.0813,-0.0004,0.0022,-0.0191,1.0056,0.0000,0.0000,0.3000,0.0137,-0.0197
3518,-0.0117,0.0361,0.0074,0.10,-0.00,0.28,0.201,0.936,-2.360,-0.584,0.0811,-0.0001,0.0027,-0.0193,1.0046,0.0000,0.0000,0.3000,0.0135,-0.0194
3526,-0.0134,0.0342,0.0079,0.12,0.03,0.27,0.201,-0.948,-1.804,-0.006,0.0812,0.0001,0.0076,-0.0172,1.0053,0.0000,0.0000,0.3000,0.0134,-0.0190
3536,-0.0112,0.0303,0.0087,0.16,0.03,0.27,0.201,0.003,-3.041,-0.176,0.0811,0.0025,0.0064,-0.0164,1.0058,0.0000,0.0000,0.3000,0.0133,-0.0187
3547,-0.0113,0.0301,0.0094,0.16,0.05,0.27,0.201,0.136,-0.687,-0.390,0.0810,0.0028,0.0076,-0.0132,1.0044,0.0000,0.0000,0.3000,0.0132,-0.0184
3557,-0.0111,0.0302,0.0099,0.17,0.07,0.27,0.201,-0.337,-0.581,-0.483,0.0810,0.0020,0.0026,-0.0126,1.0010,0.0000,0.0000,0.3000,0.0131,-0.0181
3566,-0.0112,0.0359,0.0153,0.13,0.09,0.27,0.201,-0.019,-0.818,-0.517,0.0811,0.0025,0.0033,-0.0160,1.0027,0.0000,0.0000,0.3000,0.0130,-0.0178
3577,-0.0110,0.0323,0.0158,0.15,0.11,0.27,0.201,0.444,-0.336,-0.616,0.0811,0.0029,0.0034,-0.0168,1.0034,0.0000,0.0000,0.3000,0.0129,-0.0175
3586,-0.0111,0.0321,0.0164,0.14,0.12,0.26,0.200,3.089,0.373,-0.853,0.0810,0.0032,0.0058,-0.0171,1.0010,0.0000,0.0000,0.3000,0.0127,-0.0171
3596,-0.0109,0.0323,0.0169,0.14,0.12,0.26,0.200,1.244,0.986,-1.026,0.0809,0.0035,0.0093,-0.0160,1.0006,0.0000,0.0000,0.3000,0.0126,-0.0168
3607,-0.0107,0.0323,0.0170,0.15,0.13,0.25,0.200,1.445,1.377,-1.028,0.0808,0.0039,0.0073,-0.0147,0.9973,0.0000,0.0000,0.3000,0.0125,-0.0165
3617,-0.0110,0.0320,0.0163,0.16,0.13,0.24,0.200,0.260,1.202,-0.719,0.0809,0.0043,0.0066,-0.0167,0.9995,0.0000,0.0000,0.3000,0.0124,-0.0162
3626,-0.0112,0.0317,0.0166,0.19,0.12,0.24,0.200,0.740,0.772,-0.764,0.0810,0.0060,0.0061,-0.0129,1.0027,0.0000,0.0000,0.3000,0.0123,-0.0158
3636,-0.0114,0.0314,0.0168,0.20,0.11,0.23,0.200,-0.072,0.013,-1.347,0.0809,0.0064,0.0045,-0.0156,1.0011,0.0000,0.0000,0.3000,0.0122,-0.0155
3647,-0.0109,0.0315,0.0168,0.20,0.09,0.22,0.204,0.443,0.150,-1.768,0.0808,0.0068,0.0046,-0.0195,1.0008,0.0000,0.0000,0.3000,0.0121,-0.0152
3656,-0.0105,0.0352,0.0165,0.18,0.08,0.21,0.204,0.099,-0.867,-1.425,0.0807,0.0071,0.0085,-0.0172,0.9988,0.0000,0.0000,0.3000,0.0120,-0.0149
3666,-0.0107,0.0349,0.0228,0.19,0.08,0.20,0.204,1.512,-0.794,-1.973,0.0806,0.0075,0.0081,-0.0159,0.9996,0.0000,0.0000,0.3000,0.0119,-0.0145
3677,-0.0108,0.0346,0.0231,0.19,0.08,0.19,0.204,-0.126,-2.032,-1.924,0.0805,0.0078,0.0038,-0.0125,0.9970,0.0000,0.0000,0.3000,0.0118,-0.0142
3686,-0.0109,0.0343,0.0231,0.19,0.08,0.17,0.200,0.501,-1.560,-1.660,0.0804,0.0083,0.0040,-0.0113,0.9951,0.0000,0.0000,0.3000,0.0117,-0.0138
3696,-0.0111,0.0340,0.0231,0.19,0.09,0.16,0.200,0.146,-2.050,-1.981,0.0803,0.0087,0.0015,-0.0207,0.9935,0.0000,0.0000,0.3000,0.0115,-0.0135
3707,-0.0112,0.0337,0.0230,0.20,0.11,0.14,0.200,-0.718,-2.278,-1.786,0.0802,0.0092,0.0045,-0.0163,0.9998,0.0000,0.0000,0.3000,0.0114,-0.0132
3716,-0.0113,0.0338,0.0158,0.20,0.13,0.12,0.200,1.155,-0.623,-1.411,0.0809,0.0090,0.0076,-0.0128,0.9994,0.0000,0.0000,0.3000,0.0113,-0.0128
3727,-0.0115,0.0335,0.0155,0.20,0.14,0.10,0.200,0.727,0.207,-1.467,0.0810,0.0094,0.0030,-0.0140,0.9946,0.0000,0.0000,0.3000,0.0112,-0.0125
3737,-0.0117,0.0337,0.0151,0.20,0.17,0.09,0.200,-0.543,1.537,-2.119,0.0803,0.0092,0.0023,-0.0177,0.9934,0.0000,0.0000,0.3000,0.0111,-0.0121
3747,-0.0095,0.0318,0.0145,0.21,0.17,0.07,0.195,0.834,1.219,-2.020,0.0805,0.0096,0.0058,-0.0162,0.9949,0.0000,0.0000,0.3000,0.0110,-0.0118
3758,-0.0094,0.0317,0.0144,0.22,0.17,0.05,0.195,0.221,1.772,-2.093,0.0804,0.0099,0.0051,-0.0133,0.9970,0.0000,0.0000,0.3000,0.0109,-0.0115
3767,-0.0112,0.0297,-0.0036,0.23,0.18,0.03,0.195,0.622,0.295,-2.224,0.0798,0.0096,0.0046,-0.0172,0.9985,0.0000,0.0000,0.3000,0.0108,-0.0112
3777,-0.0108,0.0297,-0.0040,0.24,0.17,0.01,0.195,-0.052,0.237,-1.468,0.0797,0.0099,0.0054,-0.0143,0.9975,0.0000,0.0000,0.3000,0.0107,-0.0109
3788,-0.0111,0.0293,-0.0046,0.24,0.16,-0.01,0.198,-0.057,-0.115,-1.699,0.0806,0.0097,0.0036,-0.0124,0.9974,0.0000,0.0000,0.3000,0.0106,-0.0106
3797,-0.0126,0.0273,-0.0051,0.26,0.15,-0.03,0.198,-0.699,0.729,-2.365,0.0805,0.0099,0.0035,-0.0188,0.9982,0.0000,0.0000,0.3000,0.0104,-0.0103
3807,-0.0129,0.0269,-0.0054,0.26,0.14,-0.05,0.198,-0.314,-0.952,-3.238,0.0798,0.0098,0.0085,-0.0171,1.0057,0.0000,0.0000,0.3000,0.0103,-0.0101
3817,-0.0103,0.0250,-0.0083,0.28,0.12,-0.07,0.198,0.039,-0.886,-2.825,0.0805,0.0097,0.0077,-0.0149,1.0045,0.0000,0.0000,0.3000,0.0102,-0.0098
3826,-0.0105,0.0246,-0.0086,0.28,0.12,-0.09,0.198,-3.023,-0.919,-2.314,0.0804,0.0099,0.0094,-0.0126,1.0022,0.0000,0.0000,0.3000,0.0101,-0.0096
3836,-0.0124,0.0231,-0.0089,0.28,0.13,-0.11,0.198,0.232,-2.903,-2.914,0.0803,0.0101,0.0087,-0.0148,1.0010,0.0000,0.0000,0.3000,0.0100,-0.0093
3846,-0.0101,0.0216,-0.0090,0.28,0.12,-0.14,0.196,-0.418,-1.713,-2.678,0.0802,0.0103,0.0048,-0.0173,1.0008,0.0000,0.0000,0.3000,0.0099,-0.0091
3857,-0.0104,0.0212,-0.0086,0.27,0.14,-0.17,0.196,-1.862,-2.103,-2.042,0.0801,0.0106,0.0069,-0.0173,0.9993,0.0000,0.0000,0.3000,0.0098,-0.0089
3867,-0.0106,0.0206,-0.0133,0.25,0.15,-0.20,0.196,-1.385,-0.824,-1.843,0.0800,0.0108,0.0107,-0.0194,1.0025,0.0000,0.0000,0.3000,0.0097,-0.0087
3877,-0.0109,0.0202,-0.0131,0.25,0.17,-0.23,0.196,-0.023,0.942,-1.282,0.0802,0.0100,0.0072,-0.0197,1.0047,0.0000,0.0000,0.3000,0.0096,-0.0085
3889,-0.0112,0.0198,-0.0130,0.24,0.18,-0.25,0.200,0.440,1.269,-2.497,0.0802,0.0090,0.0075,-0.0169,1.0072,0.0000,0.0000,0.3000,0.0094,-0.0083
3896,-0.0115,0.0194,-0.0128,0.22,0.19,-0.27,0.200,-0.379,0.948,-1.764,0.0796,0.0088,0.0064,-0.0159,1.0085,0.0000,0.0000,0.3000,0.0093,-0.0081
3907,-0.0110,0.0162,-0.0129,0.21,0.18,-0.28,0.200,0.061,0.068,-2.818,0.0795,0.0090,0.0024,-0.0189,1.0042,0.0000,0.0000,0.3000,0.0092,-0.0080
3916,-0.0108,0.0127,-0.0057,0.23,0.17,-0.30,0.200,-3.408,-1.354,-1.079,0.0795,0.0083,0.0024,-0.0169,1.0071,0.0000,0.0000,0.3000,0.0091,-0.0078
3927,-0.0126,0.0115,-0.0052,0.24,0.17,-0.32,0.200,0.378,1.619,-2.055,0.0794,0.0083,0.0043,-0.0196,1.0049,0.0000,0.0000,0.3000,0.0090,-0.0077
3936,-0.0129,0.0111,-0.0045,0.24,0.17,-0.34,0.200,-1.749,-0.277,-1.776,0.0792,0.0084,0.0085,-0.0177,1.0077,0.0000,0.0000,0.3000,0.0089,-0.0076
3946,-0.0127,0.0084,-0.0037,0.23,0.18,-0.36,0.197,-0.332,-1.074,-2.196,0.0786,0.0086,0.0106,-0.0144,1.0063,0.0000,0.0000,0.3000,0.0087,-0.0075
3956,-0.0131,0.0080,-0.0032,0.22,0.17,-0.38,0.197,-2.337,0.313,-1.385,0.0780,0.0085,0.0090,-0.0171,1.0056,0.0000,0.0000,0.3000,0.0086,-0.0074
3966,-0.0133,0.0076,-0.0045,0.22,0.18,-0.40,0.197,1.627,1.411,-2.158,0.0778,0.0085,0.0074,-0.0180,1.0003,0.0000,0.0000,0.3000,0.0085,-0.0074
3976,-0.0150,0.0074,-0.0040,0.19,0.18,-0.42,0.197,-0.525,-0.744,-0.799,0.0780,0.0076,0.0066,-0.0158,1.0040,0.0000,0.0000,0.3000,0.0083,-0.0073
3986,-0.0167,0.0066,-0.0033,0.19,0.19,-0.45,0.196,2.115,3.085,-3.258,0.0779,0.0076,0.0039,-0.0141,1.0086,0.0000,0.0000,0.3000,0.0081,-0.0072
3996,-0.0170,0.0062,-0.0026,0.18,0.20,-0.46,0.196,-2.772,-0.108,-1.321,0.0777,0.0076,0.0034,-0.0183,1.0052,0.0000,0.0000,0.3000,0.0080,-0.0072
4006,-0.0164,0.0031,-0.0021,0.21,0.19,-0.48,0.196,-1.659,1.547,-1.038,0.0775,0.0077,0.0035,-0.0154,1.0069,0.0000,0.0000,0.3000,0.0078,-0.0071
4016,-0.0167,0.0028,-0.0049,0.22,0.18,-0.50,0.196,-1.374,1.778,-1.023,0.0763,0.0060,0.0034,-0.0182,1.0057,0.0000,0.0000,0.3000,0.0076,-0.0071
4026,-0.0170,0.0024,-0.0045,0.22,0.16,-0.52,0.196,0.546,-1.969,-2.429,0.0761,0.0060,0.0051,-0.0160,1.0037,0.0000,0.0000,0.3000,0.0075,-0.0071
4036,-0.0173,0.0020,-0.0037,0.19,0.16,-0.53,0.196,-1.847,2.220,-1.296,0.0759,0.0060,0.0089,-0.0135,1.0052,0.0000,0.0000,0.3000,0.0073,-0.0071
4046,-0.0204,-0.0029,-0.0032,0.21,0.15,-0.54,0.198,-0.626,-1.291,-1.626,0.0757,0.0059,0.0081,-0.0142,1.0078,0.0000,0.0000,0.3000,0.0071,-0.0071
4056,-0.0207,-0.0033,-0.0026,0.21,0.16,-0.56,0.198,-1.204,1.409,-0.921,0.0755,0.0059,0.0089,-0.0153,1.0044,0.0000,0.0000,0.3000,0.0069,-0.0071
4067,-0.0210,-0.0036,0.0013,0.21,0.14,-0.58,0.198,-2.403,-1.827,-0.365,0.0753,0.0058,0.0065,-0.0143,1.0045,0.0000,0.0000,0.3000,0.0067,-0.0072
4076,-0.0212,-0.0040,0.0017,0.19,0.14,-0.60,0.198,0.197,-0.216,-0.794,0.0755,0.0051,0.0047,-0.0122,1.0062,0.0000,0.0000,0.3000,0.0065,-0.0072
4086,-0.0215,-0.0043,0.0023,0.19,0.14,-0.61,0.197,-0.327,1.978,-0.332,0.0753,0.0050,0.0006,-0.0169,1.0071,0.0000,0.0000,0.3000,0.0063,-0.0072
4096,-0.0217,-0.0046,0.0030,0.16,0.15,-0.61,0.197,-0.441,-1.325,-2.035,0.0748,0.0041,0.0028,-0.0179,1.0059,0.0000,0.0000,0.3000,0.0060,-0.0073
4106,-0.0207,-0.0069,0.0034,0.17,0.15,-0.63,0.197,-1.534,-0.033,-0.564,0.0746,0.0040,0.0062,-0.0185,1.0074,0.0000,0.0000,0.3000,0.0058,-0.0074
4117,-0.0209,-0.0072,0.0033,0.16,0.13,-0.63,0.197,0.026,-0.697,-0.919,0.0743,0.0040,0.0065,-0.0163,1.0055,0.0000,0.0000,0.3000,0.0056,-0.0074
4127,-0.0220,-0.0096,0.0039,0.17,0.12,-0.65,0.197,-0.655,1.740,0.243,0.0738,0.0023,0.0070,-0.0186,1.0053,0.0000,0.0000,0.3000,0.0054,-0.0075
4136,-0.0223,-0.0099,0.0046,0.16,0.14,-0.66,0.197,-3.494,4.075,0.309,0.0735,0.0035,0.0071,-0.0137,1.0016,0.0000,0.0000,0.3000,0.0052,-0.0076
4146,-0.0225,-0.0101,0.0052,0.15,0.13,-0.66,0.197,-3.160,2.912,0.089,0.0733,0.0034,0.0056,-0.0166,1.0021,0.0000,0.0000,0.3000,0.0050,-0.0077
4157,-0.0235,-0.0145,0.0059,0.16,0.12,-0.66,0.197,-3.704,3.039,1.115,0.0739,0.0027,0.0027,-0.0165,1.0014,0.0000,0.0000,0.3000,0.0047,-0.0079
4166,-0.0239,-0.0112,0.0055,0.12,0.08,-0.66,0.197,-2.893,2.130,0.258,0.0743,0.0023,0.0052,-0.0174,1.0032,0.0000,0.0000,0.3000,0.0045,-0.0080
4177,-0.0241,-0.0114,0.0059,0.08,0.05,-0.66,0.197,-3.712,2.486,1.261,0.0748,0.0017,0.0047,-0.0128,1.0051,0.0000,0.0000,0.3000,0.0042,-0.0081
4187,-0.0219,-0.0130,0.0061,0.07,-0.00,-0.65,0.197,-3.316,1.939,1.309,0.0726,0.0022,0.0040,-0.0122,1.0049,0.0000,0.0000,0.3000,0.0040,-0.0082
4197,-0.0202,-0.0140,0.0063,0.04,-0.04,-0.65,0.197,-0.557,1.879,1.689,0.0721,0.0017,0.0061,-0.0123,1.0058,0.0000,0.0000,0.3000,0.0038,-0.0084
4207,-0.0184,-0.0151,0.0065,0.01,-0.08,-0.64,0.197,0.532,1.950,1.671,0.0724,-0.0007,0.0056,-0.0157,1.0061,0.0000,0.0000,0.3000,0.0036,-0.0085
4217,-0.0234,-0.0135,0.0057,-0.03,-0.07,-0.63,0.197,2.354,-0.298,1.399,0.0722,-0.0009,0.0050,-0.0168,1.0063,0.0000,0.0000,0.3000,0.0034,-0.0087
4226,-0.0241,-0.0144,0.0062,-0.05,-0.08,-0.61,0.197,3.076,-0.501,2.146,0.0724,-0.0016,0.0069,-0.0129,1.0067,0.0000,0.0000,0.3000,0.0032,-0.0088
4235,-0.0224,-0.0201,0.0067,-0.01,-0.11,-0.60,0.197,2.768,-0.947,1.707,0.0702,-0.0017,0.0012,-0.0141,1.0002,0.0000,0.0000,0.3000,0.0029,-0.0090
4246,-0.0222,-0.0201,0.0073,0.01,-0.11,-0.58,0.198,0.044,-2.242,1.457,0.0700,-0.0020,0.0028,-0.0171,1.0007,0.0000,0.0000,0.3000,0.0027,-0.0092
4256,-0.0210,-0.0216,0.0078,0.04,-0.12,-0.56,0.198,-0.081,-1.438,2.354,0.0697,-0.0022,0.0089,-0.0159,1.0044,0.0000,0.0000,0.3000,0.0025,-0.0094
4266,-0.0259,-0.0215,0.0092,0.08,-0.09,-0.54,0.198,-0.116,-1.734,1.907,0.0694,-0.0024,0.0103,-0.0137,1.0021,0.0000,0.0000,0.3000,0.0022,-0.0096
4277,-0.0257,-0.0216,0.0098,0.10,-0.08,-0.53,0.198,-0.251,0.036,1.949,0.0692,-0.0026,0.0061,-0.0150,1.0014,0.0000,0.0000,0.3000,0.0020,-0.0098
4286,-0.0256,-0.0218,0.0099,0.11,-0.07,-0.51,0.203,-1.446,1.633,1.886,0.0694,-0.0032,0.0031,-0.0136,1.0022,0.0000,0.0000,0.3000,0.0017,-0.0101
4297,-0.0255,-0.0220,0.0100,0.11,-0.05,-0.49,0.203,-2.293,1.063,1.522,0.0691,-0.0034,0.0034,-0.0146,1.0010,0.0000,0.0000,0.3000,0.0015,-0.0103
4306,-0.0254,-0.0222,0.0104,0.11,-0.05,-0.47,0.203,-3.037,1.500,1.089,0.0689,-0.0036,0.0005,-0.0159,1.0005,0.0000,0.0000,0.3000,0.0012,-0.0105
4317,-0.0241,-0.0232,0.0208,0.10,-0.06,-0.45,0.203,-3.787,1.452,0.647,0.0686,-0.0039,0.0039,-0.0165,1.0026,0.0000,0.0000,0.3000,0.0010,-0.0107
4327,-0.0240,-0.0233,0.0209,0.09,-0.06,-0.43,0.203,-3.768,0.075,0.461,0.0699,-0.0051,0.0107,-0.0123,1.0044,0.0000,0.0000,0.3000,0.0007,-0.0110
4336,-0.0239,-0.0235,0.0212,0.06,-0.06,-0.42,0.203,-1.035,1.371,0.676,0.0685,-0.0046,0.0067,-0.0153,1.0028,0.0000,0.0000,0.3000,0.0005,-0.0112
4347,-0.0238,-0.0236,0.0213,0.02,-0.07,-0.41,0.201,-0.483,0.974,1.357,0.0682,-0.0048,0.0035,-0.0172,0.9997,0.0000,0.0000,0.3000,0.0003,-0.0114
4356,-0.0197,-0.0263,0.0214,-0.01,-0.11,-0.40,0.201,-0.454,1.589,1.333,0.0678,-0.0045,0.0023,-0.0134,1.0006,0.0000,0.0000,0.3000,0.0001,-0.0117
4366,-0.0228,-0.0242,0.0207,-0.04,-0.10,-0.40,0.201,-0.471,1.995,1.138,0.0664,-0.0059,0.0063,-0.0159,0.9978,0.0000,0.0000,0.3000,-0.0002,-0.0119
4376,-0.0227,-0.0242,0.0211,-0.05,-0.11,-0.39,0.201,0.771,1.869,0.727,0.0667,-0.0073,0.0096,-0.0152,0.9986,0.0000,0.0000,0.3000,-0.0004,-0.0122
4386,-0.0231,-0.0227,0.0213,-0.06,-0.12,-0.37,0.198,1.173,2.630,1.553,0.0670,-0.0064,0.0043,-0.0163,1.0018,0.0000,0.0000,0.3000,-0.0006,-0.0124
4396,-0.0258,-0.0256,0.0213,-0.05,-0.12,-0.36,0.198,1.478,2.163,1.093,0.0668,-0.0066,0.0032,-0.0161,0.9978,0.0000,0.0000,0.3000,-0.0009,-0.0127
4406,-0.0243,-0.0286,0.0214,-0.03,-0.14,-0.35,0.198,1.012,2.057,1.425,0.0666,-0.0069,0.0047,-0.0198,0.9939,0.0000,0.0000,0.3000,-0.0011,-0.0130
4416,-0.0226,-0.0253,0.0123,-0.03,-0.17,-0.34,0.198,-1.036,1.831,1.468,0.0653,-0.0075,0.0064,-0.0206,0.9977,0.0000,0.0000,0.3000,-0.0013,-0.0132
4426,-0.0223,-0.0252,0.0122,-0.02,-0.20,-0.32,0.198,-0.541,1.074,1.657,0.0650,-0.0078,0.0017,-0.0175,1.0004,0.0000,0.0000,0.3000,-0.0016,-0.0135
4436,-0.0247,-0.0261,0.0123,-0.00,-0.20,-0.31,0.198,-0.471,2.204,2.026,0.0645,-0.0082,0.0041,-0.0191,0.9966,0.0000,0.0000,0.3000,-0.0018,-0.0137
4446,-0.0244,-0.0261,0.0121,-0.00,-0.22,-0.30,0.203,-1.863,1.228,1.955,0.0641,-0.0080,0.0087,-0.0134,0.9982,0.0000,0.0000,0.3000,-0.0021,-0.0140
4456,-0.0240,-0.0261,0.0115,-0.00,-0.24,-0.28,0.203,-0.924,0.967,1.594,0.0643,-0.0084,0.0020,-0.0147,1.0014,0.0000,0.0000,0.3000,-0.0023,-0.0142
4466,-0.0242,-0.0267,0.0156,-0.01,-0.26,-0.26,0.203,-2.594,0.401,1.093,0.0641,-0.0086,0.0050,-0.0177,0.9991,0.0000,0.0000,0.3000,-0.0025,-0.0145
4476,-0.0244,-0.0253,0.0156,-0.03,-0.27,-0.24,0.203,-1.397,0.236,1.625,0.0638,-0.0089,0.0089,-0.0178,1.0013,0.0000,0.0000,0.3000,-0.0028,-0.0148
4487,-0.0227,-0.0256,0.0153,-0.05,-0.28,-0.22,0.204,-1.961,-1.258,1.711,0.0636,-0.0091,0.0075,-0.0132,1.0023,0.0000,0.0000,0.3000,-0.0030,-0.0150
4496,-0.0222,-0.0255,0.0152,-0.06,-0.29,-0.21,0.204,-2.647,-0.413,1.507,0.0629,-0.0095,0.0071,-0.0168,1.0021,0.0000,0.0000,0.3000,-0.0032,-0.0153
4506,-0.0217,-0.0254,0.0152,-0.08,-0.29,-0.19,0.204,-0.639,-0.051,1.504,0.0631,-0.0108,0.0047,-0.0151,1.0012,0.0000,0.0000,0.3000,-0.0034,-0.0155
4516,-0.0212,-0.0253,0.0182,-0.10,-0.29,-0.18,0.204,-1.290,-1.368,0.991,0.0628,-0.0110,0.0041,-0.0133,1.0015,0.0000,0.0000,0.3000,-0.0037,-0.0158
4525,-0.0221,-0.0254,0.0183,-0.12,-0.27,-0.16,0.204,-1.651,-1.228,0.350,0.0630,-0.0123,0.0081,-0.0134,1.0030,0.0000,0.0000,0.3000,-0.0039,-0.0160
4536,-0.0206,-0.0278,0.0185,-0.12,-0.28,-0.15,0.204,-1.351,-1.432,0.475,0.0628,-0.0126,0.0050,-0.0138,0.9984,0.0000,0.0000,0.3000,-0.0041,-0.0163
4545,-0.0201,-0.0276,0.0186,-0.13,-0.27,-0.13,0.203,-1.640,-1.028,0.246,0.0626,-0.0129,0.0048,-0.0094,0.9953,0.0000,0.0000,0.3000,-0.0043,-0.0166
4556,-0.0188,-0.0299,0.0188,-0.13,-0.26,-0.13,0.203,-2.406,-1.058,0.250,0.0627,-0.0133,0.0038,-0.0191,0.9956,0.0000,0.0000,0.3000,-0.0045,-0.0169
4565,-0.0183,-0.0297,0.0161,-0.15,-0.25,-0.12,0.203,-1.351,-1.105,0.317,0.0626,-0.0136,0.0090,-0.0201,0.9972,0.0000,0.0000,0.3000,-0.0047,-0.0172
4576,-0.0179,-0.0294,0.0163,-0.16,-0.24,-0.12,0.203,-1.125,-0.459,-0.162,0.0624,-0.0139,0.0045,-0.0193,0.9986,0.0000,0.0000,0.3000,-0.0048,-0.0175
4586,-0.0167,-0.0295,0.0161,-0.18,-0.23,-0.12,0.205,0.388,1.695,-0.028,0.0626,-0.0143,0.0063,-0.0155,0.9975,0.0000,0.0000,0.3000,-0.0050,-0.0178
4596,-0.0163,-0.0292,0.0156,-0.20,-0.23,-0.12,0.205,1.210,1.688,0.014,0.0629,-0.0149,0.0070,-0.0121,0.9977,0.0000,0.0000,0.3000,-0.0052,-0.0181
4607,-0.0159,-0.0289,0.0152,-0.21,-0.23,-0.11,0.205,0.075,1.531,-1.008,0.0628,-0.0152,0.0051,-0.0163,1.0008,0.0000,0.0000,0.3000,-0.0053,-0.0184
4616,-0.0145,-0.0289,0.0164,-0.22,-0.25,-0.11,0.205,0.406,2.149,-0.654,0.0627,-0.0155,0.0080,-0.0119,1.0004,0.0000,0.0000,0.3000,-0.0055,-0.0186
4626,-0.0128,-0.0292,0.0163,-0.21,-0.27,-0.11,0.205,-2.315,0.779,-0.754,0.0629,-0.0160,0.0061,-0.0104,0.9976,0.0000,0.0000,0.3000,-0.0056,-0.0189
4636,-0.0124,-0.0289,0.0160,-0.20,-0.29,-0.12,0.205,-2.116,0.303,-0.766,0.0631,-0.0165,0.0034,-0.0186,0.9993,0.0000,0.0000,0.3000,-0.0057,-0.0192
4645,-0.0119,-0.0285,0.0158,-0.21,-0.31,-0.13,0.205,-1.714,-0.497,-0.622,0.0624,-0.0161,-0.0003,-0.0189,0.9994,0.0000,0.0000,0.3000,-0.0058,-0.0195
4656,-0.0105,-0.0287,0.0159,-0.22,-0.32,-0.14,0.205,-0.808,-0.452,-0.614,0.0623,-0.0164,0.0042,-0.0155,0.9975,0.0000,0.0000,0.3000,-0.0059,-0.0198
4666,-0.0092,-0.0289,0.0146,-0.24,-0.33,-0.14,0.205,-0.964,-1.809,-0.564,0.0622,-0.0167,0.0064,-0.0119,0.9905,0.0000,0.0000,0.3000,-0.0060,-0.0201
4676,-0.0102,-0.0268,0.0144,-0.26,-0.32,-0.15,0.205,-0.637,-0.714,-0.975,0.0622,-0.0172,0.0058,-0.0132,0.9945,0.0000,0.0000,0.3000,-0.0061,-0.0204
4686,-0.0096,-0.0264,0.0143,-0.27,-0.31,-0.16,0.204,-1.144,0.148,-1.092,0.0614,-0.0168,0.0027,-0.0136,0.9962,0.0000,0.0000,0.3000,-0.0062,-0.0206
4696,-0.0090,-0.0259,0.0142,-0.29,-0.30,-0.16,0.204,-1.794,-0.064,-0.319,0.0613,-0.0170,0.0038,-0.0178,0.9996,0.0000,0.0000,0.3000,-0.0063,-0.0209
4707,-0.0083,-0.0259,0.0138,-0.30,-0.29,-0.17,0.204,-0.341,-0.636,-0.348,0.0612,-0.0173,0.0105,-0.0164,0.9979,0.0000,0.0000,0.3000,-0.0064,-0.0211
4716,-0.0097,-0.0237,0.0089,-0.33,-0.27,-0.17,0.204,-2.117,-0.552,-0.722,0.0621,-0.0177,0.0057,-0.0125,0.9934,0.0000,0.0000,0.3000,-0.0065,-0.0214
4726,-0.0093,-0.0231,0.0084,-0.34,-0.26,-0.18,0.204,-3.047,-0.505,-0.422,0.0620,-0.0179,0.0024,-0.0165,0.9970,0.0000,0.0000,0.3000,-0.0066,-0.0216
4735,-0.0088,-0.0226,0.0081,-0.35,-0.25,-0.19,0.204,-1.890,1.943,0.243,0.0621,-0.0193,0.0047,-0.0153,0.9972,0.0000,0.0000,0.3000,-0.0067,-0.0218
4746,-0.0057,-0.0226,0.0080,-0.37,-0.27,-0.19,0.202,0.198,0.377,0.048,0.0620,-0.0195,0.0038,-0.0164,0.9974,0.0000,0.0000,0.3000,-0.0067,-0.0221
4756,-0.0052,-0.0219,0.0078,-0.40,-0.27,-0.20,0.202,-1.228,2.449,-1.015,0.0622,-0.0184,0.0052,-0.0133,0.9994,0.0000,0.0000,0.3000,-0.0068,-0.0223
4765,-0.0046,-0.0241,-0.0015,-0.40,-0.28,-0.20,0.202,-0.738,1.511,-0.972,0.0622,-0.0186,0.0061,-0.0149,0.9969,0.0000,0.0000,0.3000,-0.0068,-0.0225
4775,-0.0041,-0.0235,-0.0018,-0.41,-0.29,-0.20,0.202,-0.896,1.445,-0.356,0.0623,-0.0193,0.0006,-0.0120,0.9959,0.0000,0.0000,0.3000,-0.0069,-0.0228
4785,-0.0030,-0.0192,-0.0021,-0.44,-0.31,-0.21,0.202,0.043,0.897,-0.408,0.0623,-0.0195,0.0030,-0.0190,1.0006,0.0000,0.0000,0.3000,-0.0069,-0.0229
4796,-0.0025,-0.0184,-0.0023,-0.44,-0.33,-0.22,0.202,0.944,1.247,-0.931,0.0614,-0.0193,0.0118,-0.0182,1.0018,0.0000,0.0000,0.3000,-0.0069,-0.0231
4805,-0.0015,-0.0190,-0.0024,-0.43,-0.35,-0.22,0.202,0.685,-0.625,-0.855,0.0623,-0.0192,0.0099,-0.0151,1.0000,0.0000,0.0000,0.3000,-0.0070,-0.0233
4815,-0.0009,-0.0183,-0.0071,-0.43,-0.36,-0.23,0.202,1.035,0.004,-1.021,0.0622,-0.0182,0.0044,-0.0161,1.0021,0.0000,0.0000,0.3000,-0.0070,-0.0235
4826,-0.0025,-0.0166,-0.0075,-0.43,-0.35,-0.24,0.202,-0.505,0.018,-0.131,0.0630,-0.0181,0.0049,-0.0153,1.0008,0.0000,0.0000,0.3000,-0.0070,-0.0237
4835,0.0003,-0.0122,-0.0074,-0.44,-0.36,-0.25,0.202,-1.587,-1.323,-0.377,0.0629,-0.0196,0.0048,-0.0153,1.0016,0.0000,0.0000,0.3000,-0.0070,-0.0238
4845,0.0009,-0.0115,-0.0073,-0.44,-0.36,-0.26,0.201,-1.804,-0.434,0.115,0.0630,-0.0197,0.0007,-0.0203,0.9999,0.0000,0.0000,0.3000,-0.0070,-0.0239
4855,0.0035,-0.0102,-0.0073,-0.44,-0.37,-0.26,0.201,-0.932,-0.142,-0.354,0.0622,-0.0188,0.0068,-0.0168,1.0027,0.0000,0.0000,0.3000,-0.0069,-0.0240
4865,0.0039,-0.0130,-0.0111,-0.43,-0.36,-0.27,0.201,-0.046,-0.959,-0.042,0.0628,-0.0179,0.0048,-0.0177,1.0060,0.0000,0.0000,0.3000,-0.0069,-0.0241
4876,0.0046,-0.0122,-0.0110,-0.44,-0.36,-0.26,0.201,-3.933,-0.268,0.382,0.0629,-0.0179,0.0067,-0.0146,1.0039,0.0000,0.0000,0.3000,-0.0069,-0.0243
4885,0.0030,-0.0087,-0.0109,-0.47,-0.35,-0.27,0.205,-3.029,-0.404,-0.102,0.0629,-0.0180,0.0058,-0.0144,1.0064,0.0000,0.0000,0.3000,-0.0068,-0.0243
4895,0.0052,-0.0053,-0.0109,-0.49,-0.34,-0.27,0.205,-0.467,0.806,-0.008,0.0630,-0.0180,0.0076,-0.0172,1.0083,0.0000,0.0000,0.3000,-0.0068,-0.0244
4906,0.0058,-0.0045,-0.0105,-0.52,-0.34,-0.27,0.205,0.842,0.711,0.936,0.0629,-0.0172,0.0077,-0.0166,1.0061,0.0000,0.0000,0.3000,-0.0067,-0.0244
4915,0.0064,-0.0036,-0.0026,-0.54,-0.34,-0.27,0.205,-0.013,-0.682,1.264,0.0637,-0.0173,0.0067,-0.0141,1.0072,0.0000,0.0000,0.3000,-0.0066,-0.0245
4926,0.0070,-0.0026,-0.0022,-0.56,-0.35,-0.27,0.205,1.238,0.568,1.233,0.0638,-0.0173,0.0025,-0.0179,1.0062,0.0000,0.0000,0.3000,-0.0066,-0.0245
4935,0.0073,0.0006,-0.0015,-0.57,-0.35,-0.26,0.205,4.299,-1.024,0.573,0.0652,-0.0190,0.0049,-0.0217,1.0068,0.0000,0.0000,0.3000,-0.0065,-0.0245
4945,0.0098,0.0013,-0.0007,-0.56,-0.37,-0.25,0.207,4.356,-0.685,0.565,0.0654,-0.0190,0.0068,-0.0162,1.0071,0.0000,0.0000,0.3000,-0.0064,-0.0245
4956,0.0104,0.0022,-0.0001,-0.54,-0.37,-0.25,0.207,0.766,-0.998,0.623,0.0655,-0.0190,0.0100,-0.0132,1.0044,0.0000,0.0000,0.3000,-0.0063,-0.0245
4965,0.0146,-0.0014,0.0100,-0.48,-0.38,-0.23,0.207,1.032,-1.590,0.641,0.0652,-0.0174,0.0087,-0.0185,1.0028,0.0000,0.0000,0.3000,-0.0062,-0.0245
4975,0.0152,-0.0006,0.0107,-0.44,-0.37,-0.23,0.207,0.476,-2.298,0.390,0.0654,-0.0174,0.0059,-0.0200,1.0040,0.0000,0.0000,0.3000,-0.0060,-0.0245
4985,0.0159,0.0002,0.0113,-0.43,-0.35,-0.22,0.203,-1.728,-2.465,1.218,0.0658,-0.0173,0.0082,-0.0152,1.0050,0.0000,0.0000,0.3000,-0.0058,-0.0245
4996,0.0152,0.0052,0.0119,-0.45,-0.33,-0.21,0.203,-0.695,-1.847,0.731,0.0662,-0.0189,0.0048,-0.0169,1.0002,0.0000,0.0000,0.3000,-0.0057,-0.0244
5006,0.0158,0.0060,0.0123,-0.44,-0.31,-0.21,0.203,-0.763,-2.642,0.904,0.0659,-0.0180,0.0071,-0.0175,1.0039,0.0000,0.0000,0.3000,-0.0055,-0.0244
5016,0.0170,0.0067,0.0082,-0.46,-0.27,-0.20,0.203,0.699,-2.147,1.526,0.0656,-0.0173,0.0082,-0.0161,1.0068,0.0000,0.0000,0.3000,-0.0054,-0.0243
5026,0.0183,0.0033,0.0086,-0.44,-0.25,-0.19,0.203,0.532,-0.590,1.499,0.0657,-0.0173,0.0081,-0.0108,1.0051,0.0000,0.0000,0.3000,-0.0052,-0.0243
5036,0.0173,0.0062,0.0090,-0.47,-0.22,-0.18,0.203,-0.846,-1.058,1.049,0.0670,-0.0173,0.0017,-0.0155,1.0013,0.0000,0.0000,0.3000,-0.0050,-0.0242
5046,0.0164,0.0086,0.0090,-0.47,-0.19,-0.17,0.204,1.154,-1.758,0.908,0.0683,-0.0174,0.0046,-0.0195,1.0024,0.0000,0.0000,0.3000,-0.0048,-0.0241
5055,0.0167,0.0095,0.0096,-0.46,-0.18,-0.15,0.204,3.400,-0.209,0.496,0.0673,-0.0169,0.0080,-0.0171,1.0027,0.0000,0.0000,0.3000,-0.0047,-0.0240
5065,0.0199,0.0099,0.0084,-0.47,-0.18,-0.14,0.204,2.436,-0.461,0.656,0.0675,-0.0167,0.0065,-0.0209,1.0026,0.0000,0.0000,0.3000,-0.0045,-0.0239
5076,0.0231,0.0101,0.0087,-0.46,-0.18,-0.13,0.204,1.535,-0.703,0.753,0.0677,-0.0166,0.0045,-0.0161,1.0000,0.0000,0.0000,0.3000,-0.0043,-0.0238
5085,0.0202,0.0121,0.0089,-0.44,-0.16,-0.12,0.202,0.339,-0.015,0.122,0.0660,-0.0153,0.0020,-0.0190,1.0000,0.0000,0.0000,0.3000,-0.0040,-0.0237
5096,0.0205,0.0129,0.0091,-0.41,-0.15,-0.11,0.202,0.242,-1.058,0.313,0.0688,-0.0162,0.0047,-0.0210,1.0046,0.0000,0.0000,0.3000,-0.0038,-0.0236
5105,0.0207,0.0136,0.0095,-0.39,-0.15,-0.11,0.202,0.486,-1.702,0.299,0.0678,-0.0163,0.0058,-0.0193,1.0024,0.0000,0.0000,0.3000,-0.0036,-0.0234
5116,0.0158,0.0175,0.0037,-0.40,-0.11,-0.11,0.202,0.758,-0.483,0.530,0.0676,-0.0150,0.0059,-0.0203,1.0020,0.0000,0.0000,0.3000,-0.0035,-0.0233
5126,0.0231,0.0153,0.0037,-0.38,-0.14,-0.10,0.202,-0.802,-1.722,0.155,0.0716,-0.0151,0.0086,-0.0164,1.0019,0.0000,0.0000,0.3000,-0.0032,-0.0231
5135,0.0200,0.0153,0.0038,-0.38,-0.11,-0.10,0.202,-0.132,-2.218,-0.400,0.0713,-0.0145,0.0076,-0.0146,1.0034,0.0000,0.0000,0.3000,-0.0030,-0.0230
5146,0.0192,0.0190,0.0042,-0.39,-0.09,-0.10,0.206,0.181,-1.555,-0.005,0.0716,-0.0143,0.0044,-0.0184,0.9970,0.0000,0.0000,0.3000,-0.0029,-0.0228
5156,0.0297,0.0189,0.0044,-0.39,-0.14,-0.09,0.206,0.648,-1.053,0.790,0.0720,-0.0144,0.0023,-0.0199,0.9959,0.0000,0.0000,0.3000,-0.0026,-0.0226
5166,0.0284,0.0207,0.0095,-0.40,-0.11,-0.09,0.206,0.285,-1.653,0.841,0.0717,-0.0139,0.0094,-0.0219,0.9972,0.0000,0.0000,0.3000,-0.0023,-0.0224
5175,0.0286,0.0214,0.0097,-0.40,-0.10,-0.09,0.206,1.241,-0.632,0.325,0.0715,-0.0134,0.0087,-0.0157,1.0017,0.0000,0.0000,0.3000,-0.0020,-0.0222
5185,0.0291,0.0212,0.0098,-0.40,-0.09,-0.09,0.203,1.977,0.433,0.741,0.0718,-0.0132,0.0054,-0.0150,1.0020,0.0000,0.0000,0.3000,-0.0017,-0.0220
5195,0.0277,0.0227,0.0095,-0.40,-0.06,-0.08,0.203,1.823,-0.554,0.269,0.0720,-0.0129,0.0034,-0.0223,1.0040,0.0000,0.0000,0.3000,-0.0014,-0.0217
5205,0.0265,0.0242,0.0092,-0.40,-0.04,-0.07,0.203,2.796,-0.181,0.089,0.0732,-0.0132,0.0055,-0.0210,1.0018,0.0000,0.0000,0.3000,-0.0012,-0.0215
5215,0.0265,0.0248,0.0041,-0.38,-0.04,-0.07,0.203,2.625,-0.053,-0.028,0.0730,-0.0122,0.0052,-0.0203,1.0013,0.0000,0.0000,0.3000,-0.0009,-0.0212
5225,0.0266,0.0255,0.0043,-0.36,-0.04,-0.06,0.203,1.084,-0.926,-0.204,0.0728,-0.0118,0.0032,-0.0182,1.0028,0.0000,0.0000,0.3000,-0.0006,-0.0210
5236,0.0278,0.0268,0.0046,-0.34,-0.04,-0.06,0.203,-0.391,-1.554,0.066,0.0731,-0.0115,0.0050,-0.0179,1.0015,0.0000,0.0000,0.3000,-0.0003,-0.0207
5245,0.0279,0.0274,0.0049,-0.32,-0.04,-0.06,0.208,0.787,-0.675,0.207,0.0734,-0.0112,0.0030,-0.0168,0.9983,0.0000,0.0000,0.3000,-0.0001,-0.0204
5255,0.0267,0.0283,0.0050,-0.31,-0.02,-0.07,0.208,2.369,-1.321,0.413,0.0738,-0.0108,0.0000,-0.0229,1.0005,0.0000,0.0000,0.3000,0.0002,-0.0202
5265,0.0268,0.0289,0.0129,-0.31,-0.01,-0.07,0.208,-1.407,-2.863,-0.168,0.0742,-0.0110,0.0066,-0.0177,0.9997,0.0000,0.0000,0.3000,0.0005,-0.0199
5275,0.0268,0.0294,0.0131,-0.30,0.00,-0.06,0.208,0.668,-0.922,0.563,0.0740,-0.0105,0.0046,-0.0131,1.0005,0.0000,0.0000,0.3000,0.0007,-0.0196
5285,0.0273,0.0302,0.0131,-0.28,0.02,-0.06,0.206,1.571,-1.455,0.196,0.0743,-0.0102,0.0052,-0.0150,0.9997,0.0000,0.0000,0.3000,0.0010,-0.0193
5295,0.0276,0.0293,0.0131,-0.28,0.04,-0.06,0.206,0.790,-1.441,0.612,0.0754,-0.0097,0.0065,-0.0172,0.9999,0.0000,0.0000,0.3000,0.0013,-0.0190
5305,0.0261,0.0305,0.0131,-0.28,0.06,-0.06,0.206,0.175,-0.755,0.477,0.0756,-0.0094,0.0038,-0.0157,0.9987,0.0000,0.0000,0.3000,0.0015,-0.0187
5315,0.0260,0.0309,0.0118,-0.27,0.07,-0.06,0.206,-0.039,-1.622,0.188,0.0754,-0.0090,0.0041,-0.0239,0.9981,0.0000,0.0000,0.3000,0.0018,-0.0184
5325,0.0283,0.0317,0.0118,-0.26,0.07,-0.05,0.206,0.120,-1.057,0.020,0.0757,-0.0086,0.0081,-0.0218,1.0003,0.0000,0.0000,0.3000,0.0021,-0.0180
5335,0.0282,0.0322,0.0117,-0.26,0.08,-0.05,0.206,0.759,-0.668,0.843,0.0769,-0.0075,0.0086,-0.0175,0.9990,0.0000,0.0000,0.3000,0.0024,-0.0177
5345,0.0266,0.0330,0.0117,-0.26,0.10,-0.04,0.203,1.276,-0.482,0.434,0.0767,-0.0071,0.0068,-0.0197,0.9982,0.0000,0.0000,0.3000,0.0026,-0.0174
5355,0.0264,0.0335,0.0114,-0.26,0.12,-0.04,0.203,3.095,0.510,0.408,0.0759,-0.0074,0.0051,-0.0223,1.0004,0.0000,0.0000,0.3000,0.0029,-0.0171
5365,0.0289,0.0362,0.0027,-0.27,0.10,-0.03,0.203,4.272,1.102,-0.060,0.0761,-0.0071,0.0043,-0.0167,1.0012,0.0000,0.0000,0.3000,0.0032,-0.0167
5375,0.0273,0.0368,0.0026,-0.26,0.12,-0.03,0.203,2.263,1.297,-0.446,0.0760,-0.0055,0.0048,-0.0181,0.9984,0.0000,0.0000,0.3000,0.0035,-0.0163
5385,0.0241,0.0353,0.0025,-0.22,0.13,-0.03,0.202,3.440,0.842,0.109,0.0763,-0.0051,0.0034,-0.0164,1.0000,0.0000,0.0000,0.3000,0.0037,-0.0160
5395,0.0239,0.0357,0.0024,-0.18,0.12,-0.03,0.202,2.444,0.623,-0.747,0.0762,-0.0049,0.0037,-0.0137,1.0007,0.0000,0.0000,0.3000,0.0039,-0.0156
5405,0.0227,0.0395,0.0026,-0.17,0.11,-0.03,0.202,2.409,0.789,-0.792,0.0764,-0.0045,0.0041,-0.0188,1.0009,0.0000,0.0000,0.3000,0.0042,-0.0152
5415,0.0225,0.0397,-0.0049,-0.14,0.10,-0.03,0.202,3.687,-0.193,-1.064,0.0763,-0.0029,0.0038,-0.0225,0.9992,0.0000,0.0000,0.3000,0.0044,-0.0148
5425,0.0215,0.0395,-0.0050,-0.11,0.09,-0.04,0.202,0.923,-0.547,-1.063,0.0769,-0.0033,0.0108,-0.0192,0.9979,0.0000,0.0000,0.3000,0.0046,-0.0144
5435,0.0213,0.0397,-0.0049,-0.09,0.08,-0.05,0.202,0.118,-1.596,-1.191,0.0761,-0.0029,0.0105,-0.0217,1.0006,0.0000,0.0000,0.3000,0.0048,-0.0140
5445,0.0203,0.0434,-0.0049,-0.08,0.09,-0.06,0.206,2.046,-0.760,-1.331,0.0753,-0.0031,0.0097,-0.0177,1.0032,0.0000,0.0000,0.3000,0.0050,-0.0136
5455,0.0213,0.0410,-0.0049,-0.07,0.08,-0.06,0.206,-0.914,-1.550,-0.899,0.0758,-0.0033,0.0079,-0.0141,1.0029,0.0000,0.0000,0.3000,0.0052,-0.0132
5465,0.0180,0.0413,-0.0002,-0.05,0.12,-0.08,0.206,0.729,-0.278,-0.807,0.0760,-0.0029,0.0072,-0.0184,1.0027,0.0000,0.0000,0.3000,0.0054,-0.0128
5475,0.0154,0.0393,-0.0001,-0.04,0.13,-0.08,0.206,-0.866,-1.049,-0.879,0.0761,-0.0025,0.0101,-0.0201,1.0042,0.0000,0.0000,0.3000,0.0056,-0.0124
5485,0.0159,0.0378,-0.0001,-0.02,0.15,-0.10,0.207,-1.814,-0.867,-1.267,0.0767,-0.0027,0.0079,-0.0170,1.0022,0.0000,0.0000,0.3000,0.0057,-0.0120
5494,0.0157,0.0378,0.0003,-0.02,0.15,-0.11,0.207,-0.460,-0.185,-1.084,0.0766,-0.0021,0.0067,-0.0134,1.0006,0.0000,0.0000,0.3000,0.0059,-0.0116
5505,0.0157,0.0378,0.0003,-0.02,0.15,-0.11,0.207,-1.105,-0.175,-0.865,0.0768,-0.0017,0.0088,-0.0137,1.0025,0.0000,0.0000,0.3000,0.0060,-0.0113
5514,0.0165,0.0364,0.0056,-0.01,0.16,-0.12,0.207,1.394,0.517,-0.978,0.0769,-0.0013,0.0055,-0.0140,1.0042,0.0000,0.0000,0.3000,0.0062,-0.0109
5527,0.0152,0.0370,0.0063,-0.04,0.17,-0.14,0.207,3.344,0.359,-0.922,0.0771,-0.0010,0.0013,-0.0185,1.0008,0.0000,0.0000,0.3000,0.0064,-0.0105
5535,0.0149,0.0371,0.0064,-0.05,0.17,-0.15,0.207,3.195,-0.101,-0.738,0.0763,0.0014,0.0038,-0.0162,0.9962,0.0000,0.0000,0.3000,0.0065,-0.0101
5545,0.0147,0.0372,0.0066,-0.04,0.16,-0.16,0.208,0.885,0.454,-0.462,0.0769,0.0017,0.0064,-0.0180,0.9969,0.0000,0.0000,0.3000,0.0067,-0.0098
5555,0.0147,0.0372,0.0066,-0.04,0.16,-0.16,0.208,1.332,1.571,-1.078,0.0775,-0.0017,0.0098,-0.0201,1.0026,0.0000,0.0000,0.3000,0.0068,-0.0094
5565,0.0117,0.0432,0.0114,-0.05,0.17,-0.17,0.208,1.347,1.386,-0.836,0.0769,-0.0001,0.0139,-0.0151,1.0010,0.0000,0.0000,0.3000,0.0069,-0.0090
5575,0.0128,0.0429,0.0117,-0.02,0.17,-0.17,0.208,1.072,1.265,-0.684,0.0770,0.0003,0.0107,-0.0155,0.9990,0.0000,0.0000,0.3000,0.0070,-0.0085
5585,0.0140,0.0314,0.0117,0.06,0.16,-0.18,0.205,-0.999,0.268,-0.831,0.0764,0.0032,0.0069,-0.0192,1.0012,0.0000,0.0000,0.3000,0.0072,-0.0082
5595,0.0113,0.0353,0.0112,0.06,0.14,-0.20,0.205,0.220,0.819,-0.774,0.0765,0.0037,0.0106,-0.0184,0.9998,0.0000,0.0000,0.3000,0.0073,-0.0079
5605,0.0113,0.0353,0.0112,0.06,0.14,-0.20,0.205,-0.009,0.905,-1.004,0.0766,0.0041,0.0102,-0.0172,1.0012,0.0000,0.0000,0.3000,0.0074,-0.0075
5615,0.0088,0.0428,0.0059,0.02,0.14,-0.20,0.205,-1.606,-0.589,-0.860,0.0767,0.0045,0.0068,-0.0176,1.0022,0.0000,0.0000,0.3000,0.0075,-0.0071
5625,0.0086,0.0428,0.0058,0.02,0.14,-0.21,0.205,1.484,-0.310,-0.608,0.0766,0.0056,0.0095,-0.0132,1.0028,0.0000,0.0000,0.3000,0.0076,-0.0067
5635,0.0084,0.0428,0.0059,0.02,0.13,-0.22,0.205,-0.049,-0.645,-0.950,0.0759,0.0046,0.0039,-0.0125,1.0002,0.0000,0.0000,0.3000,0.0077,-0.0062
5645,0.0081,0.0427,0.0060,0.02,0.12,-0.23,0.208,-0.738,-1.206,-0.988,0.0752,0.0045,0.0036,-0.0156,0.9980,0.0000,0.0000,0.3000,0.0078,-0.0058
5655,0.0076,0.0447,0.0059,0.00,0.13,-0.24,0.208,2.291,0.274,-0.553,0.0758,0.0062,0.0045,-0.0195,0.9987,0.0000,0.0000,0.3000,0.0078,-0.0054
5664,0.0051,0.0404,0.0091,0.04,0.14,-0.25,0.208,-0.170,-1.520,-1.100,0.0764,0.0059,0.0084,-0.0177,0.9990,0.0000,0.0000,0.3000,0.0079,-0.0050
5675,0.0027,0.0387,0.0094,0.05,0.16,-0.25,0.208,1.926,0.182,-1.112,0.0758,0.0051,0.0063,-0.0132,0.9977,0.0000,0.0000,0.3000,0.0079,-0.0046
5685,0.0041,0.0426,0.0096,0.02,0.15,-0.26,0.207,2.495,0.033,-0.542,0.0758,0.0060,0.0090,-0.0153,0.9983,0.0000,0.0000,0.3000,0.0079,-0.0041
5695,0.0031,0.0368,0.0093,0.07,0.17,-0.28,0.207,3.416,0.674,-0.270,0.0758,0.0064,0.0103,-0.0164,1.0027,0.0000,0.0000,0.3000,0.0080,-0.0038
5705,0.0029,0.0384,0.0092,0.08,0.17,-0.29,0.207,3.790,0.777,-0.348,0.0759,0.0068,0.0065,-0.0096,1.0009,0.0000,0.0000,0.3000,0.0080,-0.0034
5715,0.0029,0.0384,0.0076,0.08,0.17,-0.29,0.207,1.735,-0.600,-0.293,0.0765,0.0065,0.0013,-0.0205,0.9966,0.0000,0.0000,0.3000,0.0080,-0.0030
5725,0.0026,0.0382,0.0074,0.10,0.16,-0.30,0.207,3.771,0.435,-0.162,0.0765,0.0068,0.0032,-0.0250,0.9970,0.0000,0.0000,0.3000,0.0081,-0.0026
5736,0.0023,0.0381,0.0072,0.13,0.16,-0.30,0.207,1.140,-0.124,-0.396,0.0766,0.0072,0.0080,-0.0187,1.0012,0.0000,0.0000,0.3000,0.0081,-0.0022
5745,0.0038,0.0357,0.0072,0.18,0.14,-0.31,0.210,2.135,-0.137,0.184,0.0766,0.0075,0.0057,-0.0127,1.0001,0.0000,0.0000,0.3000,0.0081,-0.0019
5755,0.0036,0.0354,0.0074,0.20,0.14,-0.31,0.210,-0.283,-0.638,-0.410,0.0766,0.0079,0.0069,-0.0147,0.9935,0.0000,0.0000,0.3000,0.0082,-0.0015
5765,0.0033,0.0351,0.0122,0.24,0.14,-0.31,0.210,0.627,0.236,-0.122,0.0766,0.0082,0.0048,-0.0167,0.9967,0.0000,0.0000,0.3000,0.0082,-0.0012
5775,0.0031,0.0347,0.0118,0.25,0.14,-0.31,0.210,0.769,0.964,0.018,0.0767,0.0086,0.0047,-0.0195,0.9980,0.0000,0.0000,0.3000,0.0082,-0.0008
5785,0.0028,0.0343,0.0117,0.27,0.14,-0.31,0.207,-0.769,0.728,0.125,0.0774,0.0084,0.0112,-0.0144,0.9966,0.0000,0.0000,0.3000,0.0083,-0.0005
5795,0.0026,0.0338,0.0119,0.28,0.15,-0.32,0.207,-1.250,0.969,0.277,0.0774,0.0087,0.0111,-0.0109,0.9982,0.0000,0.0000,0.3000,0.0083,-0.0002
5805,0.0042,0.0314,0.0110,0.30,0.12,-0.32,0.207,-1.483,1.108,0.617,0.0775,0.0090,0.0099,-0.0136,0.9994,0.0000,0.0000,0.3000,0.0083,0.0002
5815,0.0042,0.0314,0.0059,0.30,0.12,-0.32,0.207,0.293,0.826,-0.031,0.0761,0.0081,0.0055,-0.0139,0.9973,0.0000,0.0000,0.3000,0.0084,0.0005
5826,0.0040,0.0308,0.0057,0.30,0.12,-0.32,0.207,-0.062,1.630,0.713,0.0760,0.0083,0.0078,-0.0155,0.9982,0.0000,0.0000,0.3000,0.0084,0.0008
5836,-0.0007,0.0263,0.0052,0.30,0.11,-0.31,0.207,0.310,0.379,0.388,0.0762,0.0089,0.0083,-0.0103,0.9988,0.0000,0.0000,0.3000,0.0084,0.0010
5845,-0.0007,0.0263,0.0052,0.30,0.11,-0.31,0.202,-1.162,0.096,0.975,0.0762,0.0091,0.0116,-0.0131,1.0007,0.0000,0.0000,0.3000,0.0084,0.0013
5856,-0.0009,0.0258,0.0051,0.31,0.11,-0.31,0.202,-1.206,0.151,1.277,0.0761,0.0082,0.0093,-0.0170,1.0015,0.0000,0.0000,0.3000,0.0084,0.0016
5866,-0.0007,0.0260,-0.0095,0.31,0.09,-0.30,0.202,-0.050,-1.194,0.729,0.0761,0.0087,0.0072,-0.0155,1.0014,0.0000,0.0000,0.3000,0.0084,0.0018
5875,-0.0010,0.0215,-0.0098,0.32,0.08,-0.29,0.202,0.070,-0.846,0.582,0.0775,0.0086,0.0044,-0.0209,0.9988,0.0000,0.0000,0.3000,0.0084,0.0020
5885,-0.0012,0.0220,-0.0099,0.31,0.08,-0.28,0.210,0.839,-0.716,0.460,0.0767,0.0085,0.0024,-0.0209,0.9992,0.0000,0.0000,0.3000,0.0084,0.0023
5894,0.0027,0.0206,-0.0097,0.31,0.07,-0.27,0.210,2.362,-0.922,0.412,0.0766,0.0083,0.0045,-0.0195,0.9991,0.0000,0.0000,0.3000,0.0084,0.0025
5904,0.0002,0.0190,-0.0096,0.32,0.09,-0.27,0.210,1.406,0.016,0.399,0.0766,0.0085,0.0038,-0.0146,1.0043,0.0000,0.0000,0.3000,0.0084,0.0027
5915,-0.0002,0.0174,0.0006,0.33,0.11,-0.26,0.210,-0.958,-0.372,0.312,0.0766,0.0086,0.0045,-0.0126,1.0023,0.0000,0.0000,0.3000,0.0084,0.0028
5925,-0.0002,0.0174,0.0006,0.33,0.11,-0.26,0.210,-1.084,-1.113,-0.207,0.0773,0.0079,0.0069,-0.0156,1.0020,0.0000,0.0000,0.3000,0.0084,0.0030
5937,-0.0004,0.0168,0.0004,0.36,0.12,-0.26,0.210,-0.150,-0.317,0.538,0.0766,0.0079,0.0049,-0.0142,1.0047,0.0000,0.0000,0.3000,0.0084,0.0032
5945,-0.0006,0.0162,0.0003,0.38,0.11,-0.26,0.210,-1.526,-0.545,1.175,0.0765,0.0080,0.0051,-0.0178,0.9983,0.0000,0.0000,0.3000,0.0084,0.0033
5954,0.0013,0.0130,0.0005,0.39,0.10,-0.25,0.210,-1.825,0.712,1.129,0.0765,0.0081,0.0097,-0.0176,1.0008,0.0000,0.0000,0.3000,0.0084,0.0035
5965,-0.0012,0.0119,0.0068,0.37,0.13,-0.25,0.210,-1.141,-0.479,0.709,0.0765,0.0082,0.0105,-0.0196,1.0030,0.0000,0.0000,0.3000,0.0084,0.0036
5974,-0.0015,0.0112,0.0071,0.37,0.13,-0.25,0.210,-1.117,0.450,1.179,0.0765,0.0083,0.0080,-0.0135,1.0045,0.0000,0.0000,0.3000,0.0084,0.0037
5984,-0.0017,0.0106,0.0074,0.36,0.14,-0.24,0.206,-1.966,0.776,1.073,0.0765,0.0084,0.0057,-0.0159,0.9991,0.0000,0.0000,0.3000,0.0083,0.0038
5994,-0.0019,0.0100,0.0076,0.34,0.13,-0.22,0.206,-0.592,0.749,1.334,0.0749,0.0068,0.0057,-0.0144,1.0031,0.0000,0.0000,0.3000,0.0083,0.0039
6004,-0.0021,0.0094,0.0074,0.33,0.13,-0.22,0.206,-1.974,0.339,0.791,0.0758,0.0062,0.0103,-0.0146,1.0011,0.0000,0.0000,0.3000,0.0083,0.0040
6014,-0.0024,0.0088,0.0012,0.32,0.13,-0.21,0.206,0.071,0.527,1.328,0.0758,0.0062,0.0074,-0.0172,1.0027,0.0000,0.0000,0.3000,0.0083,0.0041
6024,-0.0069,0.0035,0.0016,0.33,0.14,-0.19,0.206,0.128,0.255,0.778,0.0758,0.0054,0.0077,-0.0181,1.0056,0.0000,0.0000,0.3000,0.0082,0.0041
6035,-0.0044,0.0010,0.0018,0.33,0.12,-0.18,0.206,0.335,-0.367,0.692,0.0758,0.0054,0.0049,-0.0164,1.0027,-0.0000,0.0010,0.3000,0.0082,0.0041
6044,-0.0046,0.0004,0.0019,0.32,0.12,-0.17,0.206,-0.402,-1.439,0.651,0.0750,0.0054,0.0042,-0.0176,0.9997,-0.0000,0.0020,0.3000,-0.0000,0.0000
6054,-0.0046,-0.0024,0.0021,0.33,0.11,-0.16,0.206,0.631,0.209,1.050,0.0757,0.0054,0.0043,-0.0203,1.0008,-0.0000,0.0030,0.3000,-0.0001,-0.0000
6065,-0.0047,-0.0029,-0.0018,0.33,0.11,-0.15,0.206,-0.758,-1.185,0.472,0.0764,0.0039,0.0076,-0.0189,1.0021,-0.0000,0.0040,0.3000,-0.0001,-0.0000
6074,-0.0071,-0.0034,-0.0014,0.33,0.13,-0.14,0.206,-1.400,-1.246,0.641,0.0764,0.0038,0.0075,-0.0163,0.9990,-0.0001,0.0050,0.3000,-0.0002,-0.0001
6085,-0.0052,-0.0039,-0.0009,0.33,0.13,-0.14,0.210,-6.486,-0.002,0.533,0.0764,0.0037,0.0075,-0.0099,1.0020,-0.0001,0.0060,0.3000,-0.0003,-0.0001
6094,-0.0031,-0.0085,-0.0008,0.36,0.12,-0.13,0.210,-10.321,0.802,0.109,0.0763,0.0036,0.0011,-0.0184,0.9984,-0.0001,0.0070,0.3000,-0.0003,-0.0002
6104,-0.0033,-0.0091,-0.0009,0.36,0.13,-0.12,0.210,-14.287,2.096,0.648,0.0764,0.0020,0.0046,-0.0211,1.0009,-0.0002,0.0080,0.3000,-0.0003,-0.0003
6115,-0.0035,-0.0097,0.0062,0.35,0.14,-0.12,0.210,-17.447,1.763,0.404,0.0767,0.0024,0.0108,-0.0147,1.0047,-0.0002,0.0090,0.3000,-0.0004,-0.0004
6124,-0.0037,-0.0103,0.0062,0.28,0.14,-0.11,0.210,-20.342,1.803,0.565,0.0768,0.0029,0.0073,-0.0135,1.0014,-0.0002,0.0100,0.3000,-0.0004,-0.0005
6135,-0.0037,-0.0148,0.0062,0.20,0.13,-0.12,0.210,-22.859,1.912,0.585,0.0761,0.0013,0.0069,-0.0166,0.9991,-0.0003,0.0110,0.3000,-0.0004,-0.0006
6144,-0.0030,-0.0136,0.0062,0.05,0.10,-0.11,0.212,-24.546,1.466,0.329,0.0755,0.0014,0.0093,-0.0145,0.9994,-0.0004,0.0120,0.3000,-0.0005,-0.0008
6155,-0.0029,-0.0122,0.0062,-0.13,0.08,-0.11,0.212,-24.129,1.333,0.233,0.0771,0.0008,0.0049,-0.0113,0.9980,-0.0004,0.0130,0.3000,-0.0005,-0.0009
6164,-0.0047,-0.0160,0.0142,-0.31,0.07,-0.11,0.212,-22.165,0.994,0.662,0.0771,0.0016,0.0063,-0.0163,1.0019,-0.0005,0.0140,0.3000,-0.0005,-0.0011
6175,-0.0063,-0.0147,0.0145,-0.54,0.06,-0.10,0.212,-18.864,-0.598,0.265,0.0758,0.0002,0.0124,-0.0126,1.0035,-0.0006,0.0150,0.3000,-0.0006,-0.0012
6184,-0.0019,-0.0150,0.0145,-0.78,0.02,-0.10,0.207,-15.028,3.196,0.630,0.0765,-0.0002,0.0055,-0.0147,0.9981,-0.0006,0.0160,0.3000,-0.0006,-0.0014
6195,-0.0018,-0.0110,0.0144,-1.04,0.00,-0.10,0.207,-11.927,-4.244,-0.010,0.0766,-0.0001,0.0024,-0.0153,0.9969,-0.0007,0.0170,0.3000,-0.0006,-0.0015
6205,-0.0054,-0.0128,0.0143,-1.24,0.02,-0.10,0.207,-8.571,0.687,-0.892,0.0765,-0.0008,0.0066,-0.0140,1.0016,-0.0008,0.0180,0.3000,-0.0007,-0.0016
6214,-0.0033,-0.0115,0.0061,-1.41,0.01,-0.09,0.207,-5.318,-1.111,-0.352,0.0764,-0.0023,0.0118,-0.0165,0.9975,-0.0009,0.0190,0.3000,-0.0007,-0.0017
6225,-0.0029,-0.0084,0.0065,-1.55,-0.02,-0.09,0.207,-4.510,-1.165,-0.149,0.0764,-0.0024,0.0103,-0.0155,1.0000,-0.0010,0.0200,0.3000,-0.0008,-0.0018
6234,-0.0032,-0.0076,0.0065,-1.65,0.01,-0.09,0.207,-3.407,-0.205,-0.492,0.0757,-0.0021,0.0076,-0.0116,1.0042,-0.0011,0.0210,0.3000,-0.0008,-0.0019
6246,-0.0034,-0.0088,0.0062,-1.71,0.02,-0.10,0.208,-4.455,-0.841,0.271,0.0757,-0.0025,0.0072,-0.0101,1.0009,-0.0012,0.0220,0.3000,-0.0008,-0.0020
6254,-0.0034,-0.0058,0.0061,-1.77,0.03,-0.10,0.208,-1.695,-0.036,0.620,0.0764,-0.0023,0.0085,-0.0163,0.9955,-0.0013,0.0229,0.3000,-0.0009,-0.0020
6264,-0.0051,-0.0021,0.0027,-1.81,0.05,-0.10,0.208,-1.494,0.685,0.495,0.0757,-0.0023,0.0084,-0.0227,0.9966,-0.0014,0.0239,0.3000,-0.0009,-0.0020
6275,-0.0051,-0.0001,0.0025,-1.84,0.05,-0.10,0.208,-3.132,-0.204,0.424,0.0757,-0.0022,0.0095,-0.0138,0.9997,-0.0016,0.0249,0.3000,-0.0010,-0.0020
6284,-0.0032,0.0036,0.0027,-1.89,0.05,-0.10,0.205,-6.210,-1.290,0.343,0.0757,-0.0021,0.0055,-0.0136,1.0016,-0.0017,0.0259,0.3000,-0.0010,-0.0020
6295,-0.0049,0.0069,0.0030,-1.90,0.06,-0.10,0.205,-5.916,-1.390,0.231,0.0756,-0.0020,0.0082,-0.0161,1.0013,-0.0018,0.0269,0.3000,-0.0010,-0.0019
6304,-0.0050,0.0101,0.0027,-1.92,0.05,-0.09,0.205,-4.953,-1.761,0.258,0.0755,-0.0018,0.0102,-0.0159,1.0000,-0.0020,0.0279,0.3000,-0.0011,-0.0018
6315,-0.0051,0.0133,-0.0065,-1.96,0.06,-0.08,0.205,-5.414,-0.771,0.731,0.0755,-0.0015,0.0064,-0.0201,1.0005,-0.0021,0.0289,0.3000,-0.0011,-0.0017
6325,-0.0052,0.0166,-0.0067,-2.02,0.07,-0.08,0.205,-5.697,-2.171,0.296,0.0754,-0.0013,0.0081,-0.0155,1.0041,-0.0022,0.0299,0.3000,-0.0012,-0.0015
6334,-0.0053,0.0201,-0.0067,-2.08,0.08,-0.08,0.205,-4.776,-1.466,0.513,0.0746,-0.0005,0.0054,-0.0161,1.0041,-0.0024,0.0309,0.3000,-0.0012,-0.0013
6346,-0.0055,0.0240,-0.0065,-2.13,0.10,-0.07,0.211,-3.157,-0.971,0.013,0.0745,-0.0001,0.0025,-0.0199,1.0007,-0.0026,0.0319,0.3000,-0.0013,-0.0011
6355,-0.0056,0.0276,-0.0066,-2.19,0.11,-0.07,0.211,-1.956,-1.224,-0.312,0.0744,0.0003,0.0075,-0.0208,1.0030,-0.0027,0.0329,0.3000,-0.0014,-0.0008
6364,-0.0080,0.0329,0.0022,-2.25,0.14,-0.06,0.211,-0.724,-0.550,-0.259,0.0752,0.0000,0.0080,-0.0169,1.0043,-0.0029,0.0338,0.3000,-0.0014,-0.0005
6374,-0.0082,0.0368,0.0022,-2.29,0.16,-0.06,0.211,0.996,-1.836,-0.276,0.0752,0.0005,0.0082,-0.0125,1.0018,-0.0031,0.0348,0.3000,-0.0015,-0.0001
6385,-0.0085,0.0407,0.0027,-2.31,0.17,-0.06,0.206,2.752,-1.722,-0.039,0.0752,0.0015,0.0071,-0.0180,0.9981,-0.0032,0.0358,0.3000,-0.0016,0.0003
6394,-0.0064,0.0428,0.0028,-2.32,0.17,-0.06,0.206,4.280,-1.426,-0.055,0.0744,0.0010,0.0066,-0.0137,1.0014,-0.0034,0.0368,0.3000,-0.0017,0.0007
6404,-0.0065,0.0467,0.0029,-2.32,0.17,-0.06,0.206,5.166,-1.828,-0.505,0.0759,0.0011,0.0073,-0.0118,1.0025,-0.0036,0.0378,0.3000,-0.0017,0.0012
6414,-0.0067,0.0521,-0.0032,-2.32,0.19,-0.06,0.206,5.674,-0.490,-0.590,0.0758,0.0012,0.0043,-0.0162,1.0017,-0.0038,0.0388,0.3000,-0.0018,0.0017
6424,-0.0089,0.0532,-0.0029,-2.28,0.21,-0.06,0.206,5.260,-0.537,-0.347,0.0751,0.0026,0.0060,-0.0178,1.0024,-0.0040,0.0397,0.3000,-0.0019,0.0022
6434,-0.0049,0.0559,-0.0030,-2.23,0.20,-0.06,0.206,5.182,-1.233,-1.016,0.0751,0.0032,0.0064,-0.0165,1.0016,-0.0042,0.0407,0.3000,-0.0019,0.0028
6444,-0.0071,0.0604,-0.0031,-2.18,0.22,-0.06,0.206,5.799,-1.130,-0.666,0.0743,0.0058,0.0061,-0.0184,1.0002,-0.0044,0.0417,0.3000,-0.0020,0.0034
6454,-0.0075,0.0642,-0.0030,-2.13,0.23,-0.06,0.206,5.820,-1.708,-1.000,0.0750,0.0065,0.0056,-0.0227,1.0018,-0.0046,0.0427,0.3000,-0.0021,0.0040
6464,-0.0096,0.0731,-0.0064,-2.10,0.25,-0.07,0.206,6.197,-1.772,-1.043,0.0749,0.0077,0.0061,-0.0218,0.9993,-0.0048,0.0436,0.3000,-0.0022,0.0048
6474,-0.0100,0.0768,-0.0063,-2.05,0.27,-0.08,0.206,6.923,-1.686,-0.764,0.0749,0.0075,0.0068,-0.0228,1.0014,-0.0050,0.0446,0.3000,-0.0023,0.0055
6484,-0.0082,0.0810,-0.0061,-2.00,0.27,-0.08,0.204,5.460,-0.093,-0.875,0.0749,0.0092,0.0080,-0.0190,1.0026,-0.0053,0.0456,0.3000,-0.0024,0.0063
6494,-0.0087,0.0844,-0.0061,-1.94,0.28,-0.09,0.204,7.255,-0.840,-0.955,0.0743,0.0103,0.0099,-0.0156,1.0016,-0.0055,0.0466,0.3000,-0.0024,0.0072
6504,-0.0087,0.0874,-0.0060,-1.87,0.30,-0.10,0.204,6.432,-0.150,-1.034,0.0737,0.0115,0.0076,-0.0172,0.9992,-0.0057,0.0475,0.3000,-0.0025,0.0081
6515,-0.0092,0.0904,-0.0119,-1.80,0.31,-0.11,0.204,6.557,-0.601,-0.455,0.0744,0.0119,0.0024,-0.0226,1.0040,-0.0060,0.0485,0.3000,-0.0026,0.0090
6525,-0.0124,0.0946,-0.0119,-1.75,0.33,-0.12,0.204,7.406,-1.581,-0.583,0.0744,0.0136,0.0078,-0.0232,1.0030,-0.0062,0.0495,0.3000,-0.0028,0.0099
6534,-0.0130,0.0976,-0.0118,-1.68,0.34,-0.13,0.204,6.638,-0.700,-0.324,0.0738,0.0140,0.0091,-0.0190,1.0028,-0.0065,0.0504,0.3000,-0.0029,0.0109
6544,-0.0111,0.1007,-0.0115,-1.62,0.33,-0.14,0.207,6.653,-0.700,-0.524,0.0738,0.0151,0.0088,-0.0190,1.0037,-0.0067,0.0514,0.3000,-0.0030,0.0119
6554,-0.0117,0.1035,-0.0117,-1.55,0.33,-0.14,0.207,7.946,-0.589,-0.734,0.0739,0.0161,0.0048,-0.0184,1.0003,-0.0070,0.0524,0.3000,-0.0031,0.0129
6564,-0.0134,0.1046,-0.0067,-1.47,0.35,-0.15,0.207,9.530,0.062,0.265,0.0733,0.0187,0.0054,-0.0156,1.0016,-0.0072,0.0533,0.3000,-0.0032,0.0140
6574,-0.0136,0.1071,-0.0064,-1.40,0.36,-0.15,0.207,9.065,-0.508,-0.203,0.0734,0.0185,0.0022,-0.0206,1.0008,-0.0075,0.0543,0.3000,-0.0034,0.0150
6584,-0.0149,0.1135,-0.0063,-1.35,0.37,-0.16,0.206,10.146,0.461,0.064,0.0735,0.0211,0.0055,-0.0228,1.0068,-0.0078,0.0553,0.3000,-0.0035,0.0162
6595,-0.0155,0.1158,-0.0059,-1.27,0.38,-0.16,0.206,9.860,1.856,-0.071,0.0729,0.0209,0.0063,-0.0224,1.0095,-0.0081,0.0562,0.3000,-0.0037,0.0173
6604,-0.0148,0.1182,-0.0058,-1.19,0.37,-0.16,0.206,9.778,1.288,-0.153,0.0729,0.0223,0.0099,-0.0180,1.0087,-0.0084,0.0572,0.3000,-0.0038,0.0185
6615,-0.0154,0.1203,-0.0046,-1.10,0.37,-0.16,0.206,9.268,0.562,0.596,0.0735,0.0232,0.0068,-0.0174,1.0035,-0.0086,0.0581,0.3000,-0.0040,0.0197
6624,-0.0173,0.1179,-0.0043,-0.97,0.38,-0.15,0.206,8.893,0.525,0.501,0.0736,0.0241,0.0073,-0.0153,1.0035,-0.0089,0.0591,0.3000,-0.0042,0.0209
6635,-0.0173,0.1202,-0.0040,-0.88,0.38,-0.15,0.206,9.651,1.017,0.491,0.0726,0.0255,0.0040,-0.0181,1.0002,-0.0092,0.0601,0.3000,-0.0043,0.0221
6644,-0.0158,0.1208,-0.0030,-0.78,0.36,-0.15,0.209,9.235,2.794,0.732,0.0727,0.0270,0.0043,-0.0245,0.9976,-0.0095,0.0610,0.3000,-0.0045,0.0233
6655,-0.0157,0.1212,-0.0020,-0.68,0.35,-0.15,0.209,10.394,1.624,0.841,0.0728,0.0274,0.0098,-0.0222,1.0033,-0.0098,0.0620,0.3000,-0.0046,0.0245
6665,-0.0186,0.1233,0.0060,-0.59,0.36,-0.14,0.209,6.953,1.882,0.594,0.0726,0.0287,0.0079,-0.0188,1.0000,-0.0102,0.0629,0.3000,-0.0048,0.0258
6675,-0.0184,0.1247,0.0063,-0.49,0.35,-0.14,0.209,7.038,0.593,0.701,0.0717,0.0333,0.0064,-0.0199,0.9980,-0.0105,0.0639,0.3000,-0.0050,0.0270
6685,-0.0183,0.1230,0.0065,-0.38,0.33,-0.13,0.202,8.354,-0.081,1.110,0.0707,0.0335,0.0073,-0.0223,1.0028,-0.0108,0.0648,0.3000,-0.0052,0.0282
6695,-0.0188,0.1237,0.0063,-0.29,0.31,-0.12,0.202,6.141,-0.450,1.922,0.0712,0.0344,0.0017,-0.0209,1.0047,-0.0111,0.0658,0.3000,-0.0054,0.0295
6704,-0.0239,0.1317,0.0061,-0.26,0.32,-0.12,0.202,6.203,-1.262,1.539,0.0713,0.0350,0.0056,-0.0216,1.0056,-0.0114,0.0667,0.3000,-0.0056,0.0308
6715,-0.0243,0.1316,-0.0051,-0.19,0.32,-0.11,0.202,5.889,-0.490,1.686,0.0713,0.0366,0.0077,-0.0203,1.0068,-0.0118,0.0676,0.3000,-0.0059,0.0321
6724,-0.0217,0.1284,-0.0051,-0.09,0.31,-0.09,0.202,6.928,-0.115,1.915,0.0709,0.0387,0.0079,-0.0174,1.0002,-0.0121,0.0686,0.3000,-0.0061,0.0334
6735,-0.0222,0.1286,-0.0051,-0.03,0.31,-0.08,0.202,5.426,-0.270,1.647,0.0709,0.0402,0.0090,-0.0162,0.9996,-0.0125,0.0695,0.3000,-0.0063,0.0347
6744,-0.0219,0.1294,-0.0046,0.04,0.31,-0.06,0.205,5.514,0.630,1.557,0.0704,0.0412,0.0026,-0.0186,0.9976,-0.0128,0.0705,0.3000,-0.0065,0.0360
6755,-0.0233,0.1317,-0.0043,0.08,0.32,-0.04,0.205,5.203,0.688,1.991,0.0702,0.0425,0.0035,-0.0241,0.9992,-0.0132,0.0714,0.3000,-0.0068,0.0373
6765,-0.0230,0.1323,-0.0033,0.14,0.32,-0.02,0.205,4.425,-0.664,1.208,0.0702,0.0436,0.0081,-0.0236,0.9968,-0.0135,0.0723,0.3000,-0.0070,0.0386
6774,-0.0243,0.1310,-0.0029,0.20,0.33,-0.00,0.205,4.540,0.059,1.617,0.0697,0.0461,0.0105,-0.0220,1.0045,-0.0139,0.0733,0.3000,-0.0072,0.0399
6785,-0.0249,0.1307,-0.0030,0.26,0.32,0.01,0.202,4.958,0.396,1.678,0.0698,0.0470,0.0136,-0.0196,1.0044,-0.0143,0.0742,0.3000,-0.0075,0.0412
6794,-0.0245,0.1294,-0.0032,0.32,0.31,0.03,0.202,5.791,-0.943,2.259,0.0693,0.0476,0.0056,-0.0210,1.0064,-0.0146,0.0751,0.3000,-0.0077,0.0425
6804,-0.0258,0.1327,-0.0035,0.34,0.33,0.04,0.202,4.592,-0.243,1.442,0.0694,0.0477,0.0092,-0.0201,1.0088,-0.0150,0.0760,0.3000,-0.0080,0.0439
6814,-0.0253,0.1310,-0.0098,0.40,0.32,0.06,0.202,3.930,0.044,1.887,0.0689,0.0474,0.0086,-0.0202,1.0056,-0.0154,0.0770,0.3000,-0.0082,0.0452
6823,-0.0265,0.1280,-0.0096,0.46,0.32,0.08,0.202,3.685,0.405,1.802,0.0690,0.0509,0.0088,-0.0210,1.0088,-0.0158,0.0779,0.3000,-0.0085,0.0464
6834,-0.0261,0.1233,-0.0090,0.54,0.32,0.10,0.202,3.809,0.646,2.031,0.0691,0.0520,0.0104,-0.0131,1.0062,-0.0162,0.0788,0.3000,-0.0088,0.0477
6843,-0.0271,0.1174,-0.0083,0.61,0.32,0.11,0.201,2.861,0.410,2.125,0.0691,0.0531,0.0064,-0.0187,1.0043,-0.0166,0.0797,0.3000,-0.0090,0.0488
6854,-0.0267,0.1239,-0.0077,0.61,0.32,0.13,0.201,2.262,1.473,1.993,0.0688,0.0529,0.0052,-0.0225,1.0060,-0.0170,0.0806,0.3000,-0.0093,0.0501
6864,-0.0261,0.1224,-0.0121,0.64,0.30,0.15,0.201,1.887,0.884,2.348,0.0675,0.0545,0.0109,-0.0229,1.0058,-0.0174,0.0816,0.3000,-0.0096,0.0513
6873,-0.0255,0.1210,-0.0113,0.68,0.29,0.17,0.201,1.352,0.439,2.691,0.0672,0.0557,0.0072,-0.0178,1.0078,-0.0178,0.0825,0.3000,-0.0098,0.0525
6884,-0.0263,0.1152,-0.0105,0.73,0.28,0.19,0.202,1.124,0.854,2.678,0.0677,0.0583,0.0076,-0.0186,1.0077,-0.0182,0.0834,0.3000,-0.0101,0.0537
6894,-0.0301,0.1156,-0.0102,0.74,0.28,0.22,0.202,1.074,-0.531,2.022,0.0677,0.0590,0.0070,-0.0188,1.0107,-0.0186,0.0843,0.3000,-0.0104,0.0548
6903,-0.0306,0.1143,-0.0096,0.76,0.27,0.24,0.202,1.217,-0.586,2.248,0.0677,0.0602,0.0055,-0.0199,1.0122,-0.0190,0.0852,0.3000,-0.0107,0.0560
6914,-0.0283,0.1178,-0.0086,0.75,0.25,0.27,0.202,1.006,-0.905,2.244,0.0674,0.0614,0.0075,-0.0245,1.0122,-0.0195,0.0861,0.3000,-0.0110,0.0572
6923,-0.0277,0.1151,-0.0079,0.76,0.24,0.30,0.202,0.555,-0.810,1.524,0.0670,0.0616,0.0104,-0.0200,1.0152,-0.0199,0.0870,0.3000,-0.0112,0.0583
6933,-0.0273,0.1141,-0.0071,0.77,0.25,0.32,0.202,0.749,-0.399,1.637,0.0660,0.0638,0.0076,-0.0203,1.0133,-0.0203,0.0879,0.3000,-0.0115,0.0594
6944,-0.0277,0.1128,-0.0061,0.79,0.25,0.34,0.200,0.232,0.195,1.771,0.0661,0.0646,0.0057,-0.0205,1.0052,-0.0208,0.0888,0.3000,-0.0118,0.0606
6953,-0.0287,0.1085,-0.0049,0.81,0.26,0.36,0.200,-0.797,-0.701,1.965,0.0661,0.0640,0.0090,-0.0158,1.0063,-0.0212,0.0897,0.3000,-0.0121,0.0617
6965,-0.0313,0.1108,-0.0073,0.79,0.28,0.38,0.200,-1.090,-0.203,1.661,0.0657,0.0639,0.0058,-0.0209,1.0077,-0.0217,0.0906,0.3000,-0.0124,0.0628
6973,-0.0306,0.1082,-0.0058,0.81,0.28,0.39,0.200,-2.125,-0.119,1.611,0.0657,0.0661,0.0049,-0.0208,1.0086,-0.0221,0.0915,0.3000,-0.0127,0.0638
6984,-0.0301,0.1012,-0.0043,0.85,0.28,0.41,0.201,-1.164,1.194,0.703,0.0658,0.0669,0.0065,-0.0192,1.0054,-0.0226,0.0924,0.3000,-0.0130,0.0649
6994,-0.0309,0.0961,-0.0035,0.86,0.28,0.43,0.201,-1.657,0.246,1.565,0.0653,0.0682,0.0098,-0.0157,1.0136,-0.0231,0.0932,0.3000,-0.0133,0.0658
7004,-0.0302,0.0988,-0.0031,0.82,0.27,0.44,0.201,-1.839,-0.126,0.690,0.0650,0.0692,0.0114,-0.0143,1.0119,-0.0235,0.0941,0.3000,-0.0136,0.0668
7014,-0.0295,0.0970,-0.0018,0.81,0.26,0.46,0.201,-2.206,0.279,0.608,0.0650,0.0696,0.0074,-0.0150,1.0089,-0.0240,0.0950,0.3000,-0.0139,0.0678
7023,-0.0304,0.0966,-0.0010,0.79,0.26,0.47,0.201,-1.704,-0.364,1.123,0.0646,0.0696,0.0057,-0.0177,1.0067,-0.0245,0.0959,0.3000,-0.0142,0.0687
7034,-0.0308,0.0953,-0.0004,0.77,0.25,0.48,0.201,-2.459,-0.498,0.099,0.0632,0.0718,0.0044,-0.0194,1.0064,-0.0250,0.0968,0.3000,-0.0145,0.0697
7044,-0.0302,0.0922,0.0007,0.77,0.25,0.49,0.203,-2.361,-0.100,0.086,0.0631,0.0727,0.0065,-0.0199,1.0089,-0.0255,0.0976,0.3000,-0.0148,0.0706
7054,-0.0311,0.0876,0.0021,0.77,0.25,0.50,0.203,-1.870,-1.270,-0.051,0.0631,0.0719,0.0075,-0.0161,1.0102,-0.0259,0.0985,0.3000,-0.0151,0.0715
7064,-0.0352,0.0910,0.0078,0.72,0.28,0.51,0.203,-3.128,-1.039,0.371,0.0628,0.0727,0.0068,-0.0152,1.0056,-0.0264,0.0994,0.3000,-0.0155,0.0724
7073,-0.0346,0.0897,0.0085,0.70,0.28,0.51,0.203,-4.146,-1.620,-0.406,0.0614,0.0749,0.0073,-0.0177,1.0031,-0.0269,0.1002,0.3000,-0.0158,0.0733
7084,-0.0339,0.0825,0.0093,0.71,0.28,0.51,0.206,-4.736,0.432,-1.192,0.0610,0.0758,0.0065,-0.0235,1.0037,-0.0274,0.1011,0.3000,-0.0162,0.0741
7093,-0.0343,0.0813,0.0101,0.69,0.29,0.51,0.206,-3.672,-0.819,-1.029,0.0606,0.0763,0.0090,-0.0214,1.0074,-0.0279,0.1020,0.3000,-0.0165,0.0749
7104,-0.0383,0.0851,0.0110,0.63,0.31,0.51,0.206,-2.915,0.089,-1.372,0.0602,0.0772,0.0106,-0.0206,1.0073,-0.0285,0.1028,0.3000,-0.0169,0.0758
7114,-0.0389,0.0841,0.0198,0.60,0.32,0.51,0.206,-2.902,0.232,-2.009,0.0597,0.0791,0.0081,-0.0186,1.0028,-0.0290,0.1037,0.3000,-0.0173,0.0766
7124,-0.0396,0.0820,0.0201,0.57,0.32,0.49,0.206,-3.368,0.097,-2.298,0.0593,0.0799,0.0109,-0.0170,1.0012,-0.0295,0.1045,0.3000,-0.0177,0.0774
7133,-0.0402,0.0810,0.0204,0.53,0.33,0.48,0.206,-2.289,0.185,-1.821,0.0573,0.0813,0.0114,-0.0183,1.0051,-0.0300,0.1054,0.3000,-0.0181,0.0783
7144,-0.0410,0.0839,0.0210,0.48,0.34,0.46,0.206,-3.729,-1.294,-1.236,0.0568,0.0823,0.0063,-0.0182,1.0033,-0.0305,0.1062,0.3000,-0.0185,0.0791
7154,-0.0416,0.0831,0.0217,0.45,0.34,0.44,0.206,-3.873,-0.724,-1.535,0.0563,0.0831,0.0118,-0.0115,1.0042,-0.0311,0.1071,0.3000,-0.0189,0.0799
7165,-0.0475,0.0844,0.0245,0.41,0.38,0.42,0.206,-2.803,0.584,-1.905,0.0563,0.0836,0.0046,-0.0162,1.0007,-0.0316,0.1079,0.3000,-0.0194,0.0808
7174,-0.0482,0.0837,0.0248,0.38,0.39,0.40,0.206,-2.464,-0.582,-2.236,0.0548,0.0840,0.0079,-0.0210,1.0001,-0.0322,0.1088,0.3000,-0.0199,0.0816
7184,-0.0489,0.0830,0.0252,0.35,0.40,0.39,0.204,-3.440,-1.101,-2.679,0.0559,0.0841,0.0102,-0.0141,1.0007,-0.0327,0.1096,0.3000,-0.0204,0.0824
7194,-0.0479,0.0811,0.0256,0.33,0.40,0.37,0.204,-2.630,-0.259,-2.266,0.0540,0.0840,0.0073,-0.0143,1.0003,-0.0333,0.1104,0.3000,-0.0208,0.0833
7204,-0.0522,0.0794,0.0259,0.31,0.43,0.35,0.204,-4.499,0.618,-2.402,0.0547,0.0840,0.0094,-0.0162,0.9982,-0.0338,0.1113,0.3000,-0.0214,0.0840
7214,-0.0471,0.0762,0.0211,0.29,0.40,0.32,0.204,-3.079,1.270,-2.317,0.0543,0.0864,0.0084,-0.0223,0.9990,-0.0344,0.1121,0.3000,-0.0218,0.0848
7223,-0.0527,0.0729,0.0210,0.28,0.43,0.30,0.204,-1.498,1.721,-3.123,0.0539,0.0869,0.0106,-0.0219,1.0016,-0.0349,0.1129,0.3000,-0.0224,0.0855
7233,-0.0494,0.0699,0.0212,0.26,0.40,0.28,0.204,-2.455,2.377,-2.743,0.0526,0.0873,0.0103,-0.0203,1.0012,-0.0355,0.1138,0.3000,-0.0228,0.0862
7243,-0.0498,0.0753,0.0212,0.20,0.39,0.25,0.204,-0.907,0.695,-3.285,0.0523,0.0878,0.0098,-0.0121,0.9982,-0.0361,0.1146,0.3000,-0.0233,0.0870
7253,-0.0527,0.0729,0.0210,0.18,0.39,0.23,0.204,-0.461,3.105,-3.247,0.0518,0.0885,0.0081,-0.0166,0.9942,-0.0366,0.1154,0.3000,-0.0239,0.0877
7264,-0.0532,0.0725,0.0146,0.17,0.37,0.20,0.204,-1.495,2.095,-2.917,0.0520,0.0889,0.0083,-0.0180,0.9941,-0.0372,0.1162,0.3000,-0.0244,0.0884
7274,-0.0532,0.0715,0.0147,0.15,0.35,0.17,0.204,-1.185,2.828,-3.092,0.0512,0.0893,0.0098,-0.0173,0.9932,-0.0378,0.1170,0.3000,-0.0249,0.0892
7283,-0.0538,0.0712,0.0148,0.13,0.33,0.14,0.209,0.912,3.068,-3.407,0.0509,0.0893,0.0115,-0.0186,0.9980,-0.0384,0.1178,0.3000,-0.0255,0.0899
7293,-0.0517,0.0699,0.0148,0.13,0.28,0.11,0.209,-3.466,2.396,-3.710,0.0506,0.0897,0.0108,-0.0178,0.9987,-0.0390,0.1186,0.3000,-0.0260,0.0906
7304,-0.0531,0.0688,0.0143,0.13,0.27,0.08,0.209,-2.737,1.979,-3.384,0.0501,0.0903,0.0078,-0.0166,0.9989,-0.0396,0.1194,0.3000,-0.0265,0.0913
7313,-0.0528,0.0661,0.0200,0.14,0.23,0.05,0.209,-4.673,0.569,-3.771,0.0497,0.0904,0.0119,-0.0141,0.9971,-0.0402,0.1202,0.3000,-0.0271,0.0919
7323,-0.0523,0.0650,0.0194,0.14,0.20,0.01,0.209,-3.432,0.697,-3.601,0.0492,0.0910,0.0106,-0.0146,0.9968,-0.0408,0.1210,0.3000,-0.0276,0.0926
7334,-0.0521,0.0627,0.0191,0.12,0.17,-0.03,0.209,-4.820,0.684,-3.710,0.0458,0.0926,0.0110,-0.0144,0.9968,-0.0414,0.1218,0.3000,-0.0281,0.0932
7343,-0.0524,0.0625,0.0190,0.09,0.16,-0.07,0.212,-5.503,-0.901,-3.488,0.0453,0.0932,0.0073,-0.0150,0.9957,-0.0420,0.1226,0.3000,-0.0286,0.0938
7353,-0.0527,0.0624,0.0189,0.05,0.15,-0.10,0.212,-3.279,-0.004,-2.929,0.0447,0.0939,0.0051,-0.0186,0.9934,-0.0426,0.1234,0.3000,-0.0291,0.0944
7363,-0.0629,0.0656,0.0267,-0.01,0.21,-0.14,0.212,-2.774,-0.701,-3.497,0.0442,0.0939,0.0069,-0.0210,0.9943,-0.0432,0.1242,0.3000,-0.0298,0.0951
7373,-0.0626,0.0655,0.0264,-0.06,0.21,-0.17,0.212,-2.334,-1.211,-3.111,0.0433,0.0939,0.0076,-0.0183,0.9959,-0.0439,0.1250,0.3000,-0.0304,0.0958
7383,-0.0629,0.0656,0.0260,-0.11,0.22,-0.21,0.205,-0.955,-0.544,-2.997,0.0425,0.0948,0.0062,-0.0138,0.9946,-0.0445,0.1258,0.3000,-0.0310,0.0964
7393,-0.0627,0.0636,0.0256,-0.12,0.22,-0.24,0.205,-0.775,1.706,-2.895,0.0421,0.0958,0.0086,-0.0162,0.9949,-0.0451,0.1265,0.3000,-0.0317,0.0970
7403,-0.0641,0.0618,0.0250,-0.14,0.23,-0.27,0.205,-1.699,1.466,-2.697,0.0418,0.0963,0.0100,-0.0169,0.9937,-0.0458,0.1273,0.3000,-0.0323,0.0977
7413,-0.0650,0.0629,0.0116,-0.15,0.24,-0.30,0.205,-2.042,1.786,-2.683,0.0414,0.0963,0.0097,-0.0141,0.9931,-0.0464,0.1281,0.3000,-0.0329,0.0983
7423,-0.0645,0.0644,0.0112,-0.18,0.23,-0.33,0.205,-0.765,2.223,-2.478,0.0411,0.0967,0.0077,-0.0168,0.9924,-0.0470,0.1288,0.3000,-0.0336,0.0989
7433,-0.0638,0.0643,0.0106,-0.20,0.21,-0.36,0.205,0.689,3.047,-2.441,0.0413,0.0976,0.0146,-0.0116,0.9951,-0.0477,0.1296,0.3000,-0.0342,0.0996
7443,-0.0632,0.0623,0.0102,-0.20,0.19,-0.39,0.208,0.334,2.092,-2.339,0.0396,0.0985,0.0053,-0.0160,0.9905,-0.0483,0.1304,0.3000,-0.0349,0.1002
7454,-0.0625,0.0619,0.0097,-0.20,0.16,-0.41,0.208,0.628,2.581,-2.687,0.0392,0.0990,0.0025,-0.0197,0.9920,-0.0490,0.1311,0.3000,-0.0355,0.1008
7463,-0.0601,0.0633,0.0061,-0.21,0.12,-0.44,0.208,0.267,2.040,-2.422,0.0389,0.0989,0.0075,-0.0184,0.9942,-0.0496,0.1319,0.3000,-0.0361,0.1015
7473,-0.0641,0.0646,0.0053,-0.22,0.12,-0.46,0.208,-0.577,1.948,-2.065,0.0385,0.0994,0.0100,-0.0190,0.9971,-0.0503,0.1326,0.3000,-0.0367,0.1021
7484,-0.0633,0.0643,0.0047,-0.22,0.09,-0.49,0.210,-0.852,1.836,-1.839,0.0377,0.0998,0.0108,-0.0177,0.9972,-0.0510,0.1334,0.3000,-0.0374,0.1027
7493,-0.0626,0.0624,0.0039,-0.20,0.07,-0.51,0.210,-0.036,1.857,-2.688,0.0374,0.1003,0.0081,-0.0170,0.9956,-0.0516,0.1341,0.3000,-0.0380,0.1034
7503,-0.0617,0.0621,0.0032,-0.20,0.05,-0.54,0.210,-0.884,1.127,-2.821,0.0370,0.1012,0.0057,-0.0131,0.9942,-0.0523,0.1349,0.3000,-0.0386,0.1040
7513,-0.0625,0.0620,0.0049,-0.21,0.03,-0.56,0.210,-2.212,0.596,-2.579,0.0371,0.1027,0.0064,-0.0198,0.9957,-0.0530,0.1356,0.3000,-0.0392,0.1046
7523,-0.0615,0.0618,0.0046,-0.22,0.00,-0.58,0.210,-2.336,-0.146,-2.445,0.0365,0.1033,0.0101,-0.0208,1.0021,-0.0537,0.1363,0.3000,-0.0398,0.1052
7533,-0.0607,0.0632,0.0043,-0.23,-0.02,-0.61,0.210,-2.239,-0.425,-2.127,0.0356,0.1034,0.0092,-0.0167,1.0007,-0.0543,0.1371,0.3000,-0.0405,0.1059
7544,-0.0583,0.0662,0.0039,-0.26,-0.04,-0.63,0.209,-1.608,-0.120,-2.256,0.0350,0.1040,0.0109,-0.0151,0.9980,-0.0550,0.1378,0.3000,-0.0410,0.1065
7553,-0.0582,0.0666,0.0033,-0.28,-0.05,-0.65,0.209,0.318,0.575,-2.865,0.0321,0.1041,0.0082,-0.0153,0.9961,-0.0557,0.1385,0.3000,-0.0416,0.1072
7564,-0.0592,0.0651,0.0015,-0.29,-0.04,-0.67,0.209,-0.877,0.003,-2.292,0.0314,0.1048,0.0126,-0.0168,0.9987,-0.0564,0.1392,0.3000,-0.0422,0.1078
7575,-0.0591,0.0656,0.0016,-0.30,-0.04,-0.70,0.209,-0.832,-0.536,-1.908,0.0300,0.1057,0.0136,-0.0149,0.9988,-0.0571,0.1399,0.3000,-0.0428,0.1085
7583,-0.0666,0.0641,0.0017,-0.31,0.01,-0.72,0.212,-0.116,0.057,-1.978,0.0296,0.1061,0.0105,-0.0122,0.9981,-0.0578,0.1407,0.3000,-0.0435,0.1091
7593,-0.0666,0.0646,0.0015,-0.32,0.01,-0.75,0.212,0.650,-0.267,-2.339,0.0297,0.1071,0.0089,-0.0178,1.0012,-0.0585,0.1414,0.3000,-0.0441,0.1098
7603,-0.0690,0.0661,0.0011,-0.33,0.03,-0.77,0.212,0.391,0.441,-2.471,0.0288,0.1077,0.0073,-0.0179,1.0028,-0.0592,0.1421,0.3000,-0.0448,0.1104
7613,-0.0681,0.0659,0.0065,-0.33,0.02,-0.79,0.212,-0.084,-0.556,-1.918,0.0289,0.1086,0.0107,-0.0163,1.0018,-0.0599,0.1428,0.3000,-0.0455,0.1111
7624,-0.0655,0.0676,0.0064,-0.35,0.01,-0.81,0.212,1.133,-0.975,-1.911,0.0282,0.1093,0.0092,-0.0168,0.9983,-0.0607,0.1435,0.3000,-0.0462,0.1118
7634,-0.0664,0.0678,0.0062,-0.36,0.01,-0.83,0.212,0.439,-1.197,-1.567,0.0283,0.1101,0.0134,-0.0160,0.9964,-0.0614,0.1442,0.3000,-0.0468,0.1125
7643,-0.0640,0.0691,0.0063,-0.37,0.00,-0.86,0.207,1.317,0.279,-1.548,0.0264,0.1104,0.0145,-0.0190,0.9981,-0.0621,0.1449,0.3000,-0.0475,0.1131
7654,-0.0640,0.0697,0.0066,-0.37,0.01,-0.87,0.207,1.083,-0.055,-2.260,0.0280,0.1093,0.0144,-0.0197,0.9968,-0.0628,0.1455,0.3000,-0.0481,0.1138
7663,-0.0615,0.0706,-0.0023,-0.36,0.00,-0.89,0.207,1.759,-0.137,-2.232,0.0271,0.1081,0.0152,-0.0181,0.9956,-0.0636,0.1462,0.3000,-0.0487,0.1145
7673,-0.0659,0.0701,-0.0025,-0.34,0.04,-0.91,0.207,1.989,0.639,-2.220,0.0287,0.1108,0.0143,-0.0187,0.9967,-0.0643,0.1469,0.3000,-0.0494,0.1152
7684,-0.0587,0.0646,-0.0025,-0.29,-0.01,-0.93,0.210,2.569,1.816,-2.076,0.0281,0.1115,0.0089,-0.0191,0.9964,-0.0650,0.1476,0.3000,-0.0500,0.1159
7693,-0.0614,0.0610,-0.0028,-0.26,0.01,-0.95,0.210,2.648,1.638,-3.053,0.0263,0.1134,0.0092,-0.0151,1.0003,-0.0658,0.1483,0.3000,-0.0506,0.1165
7703,-0.0542,0.0686,-0.0031,-0.28,-0.03,-0.97,0.210,-0.280,0.849,-1.539,0.0259,0.1138,0.0099,-0.0155,1.0019,-0.0665,0.1489,0.3000,-0.0511,0.1172
7713,-0.0541,0.0691,-0.0015,-0.27,-0.04,-0.99,0.210,1.324,-0.842,-2.112,0.0260,0.1156,0.0062,-0.0182,0.9997,-0.0673,0.1496,0.3000,-0.0517,0.1179
7723,-0.0585,0.0737,-0.0019,-0.29,-0.02,-1.01,0.210,1.350,-2.538,-1.692,0.0251,0.1155,0.0060,-0.0198,1.0003,-0.0680,0.1503,0.3000,-0.0522,0.1186
7733,-0.0577,0.0730,-0.0022,-0.27,-0.03,-1.03,0.210,2.645,-0.606,-1.992,0.0252,0.1158,0.0055,-0.0212,1.0009,-0.0688,0.1509,0.3000,-0.0528,0.1194
7743,-0.0554,0.0772,-0.0023,-0.29,-0.05,-1.04,0.204,1.765,1.443,-1.620,0.0234,0.1174,0.0108,-0.0202,0.9998,-0.0695,0.1516,0.3000,-0.0534,0.1201
7753,-0.0564,0.0747,-0.0021,-0.26,-0.04,-1.06,0.204,-2.753,-3.075,-0.407,0.0228,0.1182,0.0122,-0.0146,1.0002,-0.0703,0.1522,0.3000,-0.0539,0.1209
7763,-0.0540,0.0733,-0.0145,-0.22,-0.04,-1.08,0.204,0.862,-1.932,-0.636,0.0222,0.1190,0.0128,-0.0174,1.0001,-0.0710,0.1529,0.3000,-0.0545,0.1216
7773,-0.0583,0.0771,-0.0146,-0.22,-0.01,-1.10,0.204,3.781,0.819,-1.770,0.0216,0.1198,0.0131,-0.0154,1.0013,-0.0718,0.1535,0.3000,-0.0551,0.1224
7783,-0.0583,0.0775,-0.0146,-0.23,-0.02,-1.11,0.205,-1.658,-0.611,-0.066,0.0203,0.1221,0.0106,-0.0186,1.0026,-0.0726,0.1541,0.3000,-0.0556,0.1231
7794,-0.0583,0.0779,-0.0145,-0.24,0.01,-1.11,0.205,0.405,0.978,-0.759,0.0194,0.1220,0.0105,-0.0176,1.0017,-0.0733,0.1548,0.3000,-0.0562,0.1239
7803,-0.0583,0.0783,-0.0145,-0.21,0.02,-1.13,0.205,5.994,0.314,-2.087,0.0190,0.1218,0.0123,-0.0114,1.0068,-0.0741,0.1554,0.3000,-0.0568,0.1247
7813,-0.0607,0.0839,-0.0176,-0.23,0.02,-1.14,0.205,1.101,-1.694,-0.852,0.0196,0.1235,0.0097,-0.0159,1.0060,-0.0749,0.1560,0.3000,-0.0574,0.1255
7823,-0.0619,0.0813,-0.0175,-0.23,0.03,-1.14,0.205,4.356,-0.018,-1.371,0.0198,0.1237,0.0085,-0.0152,1.0042,-0.0757,0.1567,0.3000,-0.0580,0.1264
7833,-0.0612,0.0780,-0.0171,-0.17,0.03,-1.15,0.205,0.895,-2.753,-0.785,0.0188,0.1245,0.0105,-0.0171,1.0051,-0.0765,0.1573,0.3000,-0.0586,0.1271
7842,-0.0571,0.0815,-0.0169,-0.16,0.01,-1.17,0.208,2.112,-3.474,0.153,0.0182,0.1247,0.0085,-0.0186,1.0049,-0.0773,0.1579,0.3000,-0.0592,0.1280
7853,-0.0548,0.0798,-0.0162,-0.12,-0.01,-1.18,0.208,2.215,0.472,-1.108,0.0177,0.1255,0.0093,-0.0185,1.0011,-0.0780,0.1585,0.3000,-0.0598,0.1288
7863,-0.0562,0.0801,-0.0084,-0.10,0.02,-1.19,0.208,0.528,-4.227,0.296,0.0178,0.1256,0.0117,-0.0165,1.0004,-0.0788,0.1591,0.3000,-0.0603,0.1296
7873,-0.0562,0.0782,-0.0080,-0.05,0.05,-1.20,0.208,-0.790,-1.044,-0.097,0.0178,0.1272,0.0117,-0.0173,1.0033,-0.0796,0.1597,0.3000,-0.0609,0.1303
7884,-0.0563,0.0783,-0.0075,-0.03,0.07,-1.20,0.207,3.147,-3.267,-0.554,0.0174,0.1300,0.0095,-0.0172,1.0047,-0.0804,0.1603,0.3000,-0.0615,0.1311
7893,-0.0542,0.0763,-0.0069,0.02,0.06,-1.21,0.207,-1.483,-2.635,0.268,0.0168,0.1309,0.0068,-0.0196,1.0066,-0.0812,0.1609,0.3000,-0.0620,0.1319
7903,-0.0526,0.0787,-0.0067,-0.02,0.08,-1.21,0.207,2.701,-2.320,-0.445,0.0168,0.1312,0.0070,-0.0191,1.0035,-0.0820,0.1615,0.3000,-0.0625,0.1327
7913,-0.0523,0.0855,-0.0046,-0.04,0.10,-1.22,0.207,4.416,-1.344,-1.085,0.0163,0.1320,0.0090,-0.0172,1.0049,-0.0829,0.1621,0.3000,-0.0630,0.1335
7923,-0.0525,0.0856,-0.0043,-0.05,0.13,-1.21,0.207,4.291,0.552,-0.579,0.0165,0.1321,0.0090,-0.0196,1.0033,-0.0837,0.1627,0.3000,-0.0636,0.1344
7933,-0.0510,0.0838,-0.0037,-0.02,0.14,-1.22,0.207,0.932,1.228,0.492,0.0156,0.1333,0.0104,-0.0217,1.0068,-0.0845,0.1633,0.3000,-0.0641,0.1352
7943,-0.0513,0.0839,-0.0031,0.00,0.16,-1.22,0.204,2.056,-1.693,0.179,0.0153,0.1335,0.0099,-0.0150,1.0083,-0.0853,0.1638,0.3000,-0.0646,0.1361
7953,-0.0495,0.0815,-0.0026,0.06,0.15,-1.23,0.204,3.043,-3.789,-0.446,0.0148,0.1343,0.0119,-0.0149,1.0054,-0.0861,0.1644,0.3000,-0.0651,0.1369
7962,-0.0509,0.0824,-0.0070,0.09,0.15,-1.23,0.204,-1.903,-3.102,0.401,0.0143,0.1351,0.0108,-0.0172,1.0050,-0.0869,0.1650,0.3000,-0.0656,0.1377
7973,-0.0504,0.0805,-0.0066,0.13,0.13,-1.23,0.204,1.069,-5.066,0.101,0.0137,0.1359,0.0103,-0.0160,1.0044,-0.0878,0.1655,0.3000,-0.0661,0.1385
7984,-0.0506,0.0802,-0.0059,0.13,0.16,-1.23,0.208,3.073,-1.533,-0.455,0.0132,0.1368,0.0102,-0.0154,1.0045,-0.0886,0.1661,0.3000,-0.0666,0.1393
7993,-0.0511,0.0800,-0.0051,0.13,0.19,-1.23,0.208,-1.836,-6.150,1.563,0.0093,0.1393,0.0072,-0.0133,1.0037,-0.0894,0.1667,0.3000,-0.0671,0.1401
8003,-0.0515,0.0798,-0.0045,0.15,0.23,-1.23,0.208,4.322,-4.196,0.574,0.0087,0.1395,0.0115,-0.0146,1.0043,-0.0903,0.1672,0.3000,-0.0676,0.1409
8013,-0.0520,0.0796,0.0023,0.15,0.27,-1.22,0.208,0.801,-3.580,1.620,0.0094,0.1408,0.0092,-0.0202,1.0035,-0.0911,0.1678,0.3000,-0.0682,0.1417
8023,-0.0633,0.0848,0.0025,0.14,0.38,-1.22,0.208,3.038,-3.058,1.915,0.0088,0.1416,0.0063,-0.0168,1.0049,-0.0919,0.1683,0.3000,-0.0688,0.1425
8033,-0.0638,0.0826,0.0029,0.16,0.43,-1.21,0.208,5.415,-1.378,0.890,0.0084,0.1423,0.0076,-0.0138,1.0018,-0.0928,0.1688,0.3000,-0.0694,0.1434
8043,-0.0603,0.0837,0.0034,0.18,0.43,-1.20,0.205,5.228,-4.414,1.061,0.0078,0.1431,0.0066,-0.0170,1.0037,-0.0936,0.1694,0.3000,-0.0700,0.1442
8053,-0.0610,0.0834,0.0038,0.21,0.48,-1.19,0.205,3.884,-1.819,1.892,0.0056,0.1439,0.0096,-0.0173,1.0024,-0.0945,0.1699,0.3000,-0.0706,0.1450
8063,-0.0611,0.0826,0.0010,0.24,0.49,-1.17,0.205,6.527,-1.965,0.624,0.0049,0.1447,0.0101,-0.0183,1.0003,-0.0953,0.1704,0.3000,-0.0712,0.1459
8073,-0.0620,0.0822,0.0014,0.29,0.53,-1.16,0.205,0.299,1.251,2.342,0.0052,0.1453,0.0095,-0.0156,1.0027,-0.0962,0.1709,0.3000,-0.0719,0.1467
8082,-0.0680,0.0814,0.0016,0.34,0.59,-1.15,0.205,1.499,-1.843,2.848,0.0049,0.1462,0.0091,-0.0150,0.9998,-0.0970,0.1715,0.3000,-0.0725,0.1475
8092,-0.0690,0.0808,0.0019,0.39,0.61,-1.14,0.205,2.742,0.489,2.126,0.0040,0.1470,0.0088,-0.0162,1.0012,-0.0979,0.1720,0.3000,-0.0732,0.1483
8103,-0.0669,0.0797,0.0021,0.43,0.58,-1.12,0.205,0.396,4.924,2.785,0.0043,0.1489,0.0078,-0.0137,1.0045,-0.0988,0.1725,0.3000,-0.0739,0.1491
8113,-0.0669,0.0792,0.0004,0.43,0.58,-1.10,0.205,-2.679,2.386,4.145,0.0029,0.1449,0.0098,-0.0154,1.0024,-0.0996,0.1730,0.3000,-0.0746,0.1499
8123,-0.0687,0.0785,0.0006,0.46,0.59,-1.08,0.205,1.101,2.071,2.918,0.0021,0.1482,0.0066,-0.0187,1.0021,-0.1005,0.1735,0.3000,-0.0753,0.1507
8133,-0.0689,0.0663,0.0008,0.54,0.57,-1.06,0.205,0.636,3.526,3.911,0.0025,0.1495,0.0073,-0.0154,0.9991,-0.1014,0.1740,0.3000,-0.0760,0.1514
8143,-0.0699,0.0654,0.0010,0.52,0.54,-1.02,0.204,1.157,1.219,3.700,0.0024,0.1508,0.0066,-0.0133,0.9973,-0.1022,0.1745,0.3000,-0.0767,0.1520
8153,-0.0710,0.0728,0.0013,0.45,0.51,-0.98,0.204,-1.311,-0.057,4.467,0.0017,0.1516,0.0077,-0.0187,1.0010,-0.1031,0.1750,0.3000,-0.0774,0.1527
8162,-0.0684,0.0737,-0.0021,0.47,0.47,-0.95,0.204,0.901,-2.128,3.881,0.0002,0.1508,0.0081,-0.0199,1.0010,-0.1040,0.1754,0.3000,-0.0780,0.1535
8173,-0.0675,0.0749,-0.0019,0.47,0.43,-0.91,0.204,6.803,0.074,2.230,0.0004,0.1522,0.0097,-0.0146,1.0026,-0.1049,0.1759,0.3000,-0.0787,0.1542
8183,-0.0682,0.0741,-0.0020,0.47,0.42,-0.86,0.204,0.219,-0.950,4.547,0.0006,0.1546,0.0120,-0.0129,1.0017,-0.1057,0.1764,0.3000,-0.0794,0.1550
8192,-0.0715,0.0685,-0.0022,0.50,0.45,-0.82,0.204,0.571,-1.204,3.479,0.0003,0.1542,0.0133,-0.0158,1.0017,-0.1066,0.1769,0.3000,-0.0801,0.1556
8203,-0.0696,0.0697,-0.0021,0.52,0.45,-0.79,0.204,0.495,-2.178,4.442,-0.0002,0.1542,0.0092,-0.0168,1.0014,-0.1075,0.1773,0.3000,-0.0808,0.1563
8213,-0.0674,0.0743,-0.0037,0.50,0.43,-0.76,0.204,-2.101,-1.782,4.893,-0.0011,0.1540,0.0088,-0.0154,1.0037,-0.1084,0.1778,0.3000,-0.0815,0.1571
8222,-0.0673,0.0699,-0.0034,0.55,0.44,-0.72,0.204,1.910,-1.679,4.205,-0.0015,0.1544,0.0068,-0.0187,0.9999,-0.1093,0.1782,0.3000,-0.0822,0.1578
8233,-0.0673,0.0667,-0.0032,0.55,0.45,-0.68,0.204,-2.106,-2.354,4.420,-0.0009,0.1558,0.0067,-0.0182,1.0006,-0.1102,0.1787,0.3000,-0.0828,0.1585
8242,-0.0690,0.0630,-0.0030,0.57,0.47,-0.64,0.194,1.949,-2.935,3.882,-0.0014,0.1563,0.0076,-0.0185,1.0023,-0.1111,0.1791,0.3000,-0.0835,0.1591
8253,-0.0689,0.0615,-0.0028,0.56,0.49,-0.59,0.194,0.577,-2.008,4.036,-0.0018,0.1567,0.0080,-0.0168,1.0042,-0.1120,0.1796,0.3000,-0.0842,0.1597
8263,-0.0652,0.0626,-0.0260,0.55,0.49,-0.55,0.194,0.279,-2.025,3.783,-0.0016,0.1571,0.0084,-0.0146,1.0026,-0.1129,0.1800,0.3000,-0.0849,0.1603
8273,-0.0661,0.0617,-0.0260,0.54,0.52,-0.51,0.194,0.602,0.143,3.878,-0.0015,0.1574,0.0082,-0.0151,1.0020,-0.1138,0.1805,0.3000,-0.0855,0.1609
8283,-0.0661,0.0598,-0.0259,0.56,0.53,-0.46,0.208,1.936,-0.866,3.833,-0.0020,0.1579,0.0080,-0.0152,1.0042,-0.1147,0.1809,0.3000,-0.0862,0.1615
8294,-0.0645,0.0583,-0.0256,0.55,0.54,-0.42,0.208,1.984,-0.432,3.625,-0.0044,0.1573,0.0088,-0.0127,1.0058,-0.1156,0.1813,0.3000,-0.0868,0.1621
8302,-0.0630,0.0566,-0.0252,0.57,0.53,-0.38,0.208,1.293,-0.775,4.411,-0.0032,0.1572,0.0088,-0.0167,1.0056,-0.1165,0.1817,0.3000,-0.0875,0.1627
8313,-0.0636,0.0554,-0.0057,0.57,0.54,-0.34,0.208,-2.923,-0.931,4.549,-0.0039,0.1576,0.0143,-0.0150,1.0072,-0.1174,0.1821,0.3000,-0.0881,0.1632
8323,-0.0701,0.0507,-0.0055,0.61,0.57,-0.30,0.208,0.231,1.013,4.207,-0.0043,0.1575,0.0103,-0.0172,1.0059,-0.1183,0.1826,0.3000,-0.0888,0.1638
8333,-0.0652,0.0476,-0.0049,0.62,0.54,-0.26,0.208,1.315,-1.487,3.806,-0.0073,0.1597,0.0076,-0.0136,1.0066,-0.1192,0.1830,0.3000,-0.0894,0.1642
8343,-0.0662,0.0466,-0.0044,0.62,0.54,-0.21,0.194,-1.721,-1.325,4.428,-0.0069,0.1580,0.0064,-0.0133,1.0023,-0.1201,0.1834,0.3000,-0.0901,0.1647
8353,-0.0663,0.0437,-0.0037,0.63,0.54,-0.17,0.194,-3.399,-0.452,4.185,-0.0073,0.1574,0.0079,-0.0170,0.9994,-0.1210,0.1838,0.3000,-0.0908,0.1651
8363,-0.0740,0.0478,-0.0217,0.58,0.60,-0.12,0.194,-2.058,-2.360,3.659,-0.0071,0.1594,0.0069,-0.0164,1.0013,-0.1220,0.1842,0.3000,-0.0915,0.1656
8372,-0.0722,0.0400,-0.0211,0.61,0.59,-0.08,0.194,-2.730,-2.780,4.664,-0.0085,0.1594,0.0082,-0.0126,1.0031,-0.1229,0.1845,0.3000,-0.0922,0.1660
8383,-0.0721,0.0358,-0.0204,0.61,0.59,-0.05,0.207,-1.861,-2.003,3.725,-0.0095,0.1598,0.0108,-0.0137,1.0036,-0.1238,0.1849,0.3000,-0.0930,0.1664
8393,-0.0703,0.0400,-0.0202,0.56,0.58,-0.01,0.207,-3.142,-2.252,3.117,-0.0105,0.1599,0.0105,-0.0150,1.0035,-0.1247,0.1853,0.3000,-0.0937,0.1668
8403,-0.0736,0.0377,-0.0203,0.55,0.62,0.03,0.207,-3.107,-1.784,3.525,-0.0112,0.1602,0.0099,-0.0145,1.0079,-0.1257,0.1857,0.3000,-0.0944,0.1671
8413,-0.0753,0.0368,-0.0010,0.52,0.65,0.08,0.207,-3.889,-1.241,3.178,-0.0127,0.1624,0.0075,-0.0113,1.0067,-0.1266,0.1860,0.3000,-0.0951,0.1675
