time_ms,vel_x,vel_y,vel_z,roll,pitch,yaw,range_z,gyro_x,gyro_y,gyro_z,ekf_x,ekf_y,acc_x,acc_y,acc_z,ref_x,ref_y,ref_z,est_x,est_y
0,-0.0711,0.0536,0.0036,-0.03,0.01,0.01,0.016,-0.036,0.359,0.038,-0.0716,0.0510,-0.0038,0.0019,0.9989,0.0000,0.0000,0.2200,0.0000,0.0000
9,-0.0715,0.0539,0.0037,-0.03,0.01,0.01,0.016,0.373,-0.460,0.143,-0.0723,0.0516,-0.0073,0.0007,1.0006,0.0000,0.0000,0.2200,0.0000,0.0000
19,-0.0716,0.0542,0.0063,-0.03,0.01,0.01,0.016,-0.030,-0.315,-0.060,-0.0730,0.0521,-0.0026,0.0040,0.9983,0.0000,0.0000,0.2200,0.0000,0.0000
30,-0.0718,0.0547,0.0063,-0.03,0.00,0.01,0.014,-0.065,0.215,-0.438,-0.0740,0.0529,0.0069,0.0079,1.0019,0.0000,0.0000,0.2200,0.0000,0.0000
40,-0.0719,0.0550,0.0064,-0.03,0.01,0.01,0.014,-0.062,0.092,-0.212,-0.0747,0.0534,0.0098,0.0173,1.0074,0.0000,0.0000,0.2200,0.0000,0.0000
49,-0.0724,0.0552,0.0063,-0.03,0.01,0.01,0.014,-0.008,0.524,-0.926,-0.0755,0.0540,-0.0115,0.0014,0.9957,0.0000,0.0000,0.2200,0.0000,0.0000
60,-0.0735,0.0556,0.0029,-0.03,0.01,0.00,0.014,-0.040,-0.080,-1.501,-0.0762,0.0545,-0.0025,-0.0161,0.9841,0.0000,0.0000,0.2200,0.0000,0.0000
69,-0.0737,0.0559,0.0027,-0.03,0.00,0.00,0.014,0.407,-0.123,-0.614,-0.0769,0.0551,-0.0020,-0.0093,1.0015,0.0000,0.0000,0.2200,0.0000,0.0000
80,-0.0737,0.0560,0.0026,-0.03,0.00,0.00,0.014,-0.340,-0.220,1.327,-0.0777,0.0557,-0.0053,0.0095,1.0154,0.0000,0.0000,0.2200,0.0000,0.0000
89,-0.0737,0.0561,0.0028,-0.03,0.00,0.00,0.019,-0.349,-0.292,7.179,-0.0777,0.0557,-0.0074,0.0196,1.0138,0.0000,0.0000,0.2200,0.0000,0.0000
100,-0.0737,0.0561,0.0029,-0.03,0.01,0.00,0.019,0.383,0.064,13.905,-0.0785,0.0562,-0.0057,0.0124,0.9805,0.0000,0.0000,0.2200,0.0000,0.0000
109,-0.0737,0.0562,0.0020,-0.03,0.01,0.01,0.019,3.902,0.918,17.341,-0.0792,0.0568,-0.0097,-0.0223,1.0222,0.0000,0.0000,0.2200,0.0000,0.0000
119,-0.0731,0.0557,0.0112,-0.04,0.01,0.05,0.019,-3.580,-4.652,16.218,-0.0799,0.0574,-0.0077,-0.0041,1.0425,0.0000,0.0000,0.2200,0.0000,0.0000
130,-0.0731,0.0557,0.0124,-0.03,0.00,0.18,0.012,-6.714,-5.592,14.210,-0.0814,0.0585,0.0175,-0.0152,0.9724,0.0000,0.0000,0.2200,0.0000,0.0000
139,-0.0731,0.0558,0.0124,-0.02,0.00,0.34,0.012,4.288,26.316,13.777,-0.0822,0.0591,-0.0073,-0.0114,0.9504,0.0000,0.0000,0.2200,0.0000,0.0000
149,-0.0731,0.0558,0.0112,-0.02,0.02,0.52,0.012,-9.143,-20.961,11.411,-0.0829,0.0597,0.0253,-0.0292,1.0248,0.0000,0.0000,0.2200,0.0000,0.0000
159,-0.0739,0.0565,0.0025,-0.03,0.01,0.66,0.012,7.017,16.569,9.721,-0.0836,0.0602,0.0199,-0.0214,1.1072,0.0000,0.0000,0.2200,0.0000,0.0000
169,-0.0739,0.0565,0.0054,-0.05,-0.07,0.81,0.012,-16.805,-17.192,7.578,-0.0844,0.0609,0.0036,-0.0153,0.9802,0.0000,0.0000,0.2200,0.0000,0.0000
180,-0.0737,0.0566,0.0017,-0.12,0.11,0.93,0.012,-8.794,-0.500,4.145,-0.0852,0.0614,0.0095,-0.0166,1.0035,0.0000,0.0000,0.2200,0.0000,0.0000
189,-0.0740,0.0568,-0.0036,0.02,0.02,1.05,0.016,-11.576,2.021,2.351,-0.0858,0.0619,0.0113,-0.0158,1.0330,0.0000,0.0000,0.2200,0.0000,0.0000
201,-0.0740,0.0568,0.0024,-0.06,0.08,1.13,0.016,-1.417,-8.988,2.923,-0.0866,0.0625,0.0063,-0.0172,1.0671,0.0000,0.0000,0.2200,0.0000,0.0000
209,-0.0741,0.0569,0.0096,-0.16,0.07,1.18,0.016,-6.577,-20.783,2.071,-0.0873,0.0631,0.0181,-0.0079,1.1333,0.0000,0.0000,0.2200,0.0000,0.0000
220,-0.0742,0.0571,0.0105,-0.31,0.07,1.20,0.016,-23.597,-29.738,3.019,-0.0881,0.0636,0.0163,-0.0184,1.1558,0.0000,0.0000,0.2200,0.0000,0.0000
229,-0.0743,0.0576,0.0115,-0.33,0.09,1.23,0.014,-26.297,-27.571,-0.410,-0.0890,0.0645,0.0147,-0.0187,1.1313,0.0000,0.0000,0.2200,0.0000,0.0000
240,-0.0745,0.0582,0.0156,-0.38,0.25,1.25,0.014,-41.555,-32.819,-3.175,-0.0898,0.0651,-0.0001,-0.0249,1.1342,0.0000,0.0000,0.2200,0.0000,0.0000
249,-0.0750,0.0590,0.0235,-0.55,0.50,1.28,0.014,-44.292,-25.935,-1.276,-0.0906,0.0657,0.0071,-0.0278,1.1626,0.0000,0.0000,0.2200,0.0000,0.0000
259,-0.0763,0.0603,0.0330,-0.83,0.80,1.30,0.014,-32.019,-13.877,-1.802,-0.0913,0.0663,0.0091,-0.0200,1.1643,0.0000,0.0000,0.2200,0.0000,0.0000
269,-0.0780,0.0620,0.0475,-1.20,1.12,1.28,0.014,-24.322,-1.312,-4.163,-0.0922,0.0670,0.0170,-0.0199,1.1583,0.0000,0.0000,0.2200,0.0000,0.0000
280,-0.0780,0.0620,0.0475,-1.20,1.12,1.28,0.014,-17.632,10.113,-5.725,-0.0930,0.0677,0.0219,-0.0176,1.1463,0.0000,0.0000,0.2200,0.0000,0.0000
289,-0.0803,0.0644,0.0602,-1.66,1.41,1.27,0.011,-9.638,3.583,-5.310,-0.0954,0.0704,0.0126,-0.0057,1.1504,0.0000,0.0000,0.2200,0.0000,0.0000
300,-0.0832,0.0677,0.0744,-2.00,1.57,1.26,0.011,9.747,5.847,-4.915,-0.0963,0.0712,0.0091,-0.0077,1.1406,0.0000,0.0000,0.2200,0.0000,0.0000
309,-0.0864,0.0716,0.0905,-2.26,1.62,1.22,0.011,30.988,6.409,-5.546,-0.0973,0.0720,0.0133,-0.0147,1.1514,0.0000,0.0000,0.2200,0.0000,0.0000
319,-0.0911,0.0779,0.0874,-2.46,1.56,1.16,0.011,34.322,6.917,-3.724,0.2232,0.0529,0.0170,-0.0219,1.1603,0.0000,0.0000,0.2200,0.0000,0.0000
329,-0.0942,0.0827,0.1026,-2.57,1.49,1.10,0.001,25.751,7.450,-3.560,0.1987,0.0319,0.0095,-0.0236,1.1663,0.0000,0.0000,0.2200,0.0000,0.0000
339,-0.0972,0.0877,0.1169,-2.53,1.44,1.05,0.001,19.008,-7.659,-1.698,0.1973,0.0241,0.0093,-0.0239,1.1670,0.0000,0.0000,0.2200,0.0000,0.0000
349,0.1870,0.0749,0.1280,-2.22,0.63,0.98,0.001,13.281,-10.845,0.139,0.3355,-0.0360,0.0091,-0.0274,1.1717,0.0000,0.0000,0.2200,0.0000,0.0000
360,0.1592,0.0523,0.1022,-1.82,0.64,0.93,0.001,12.533,-18.772,1.071,0.3066,-0.0934,0.0080,-0.0258,1.1528,0.0000,0.0000,0.2200,0.0000,0.0000
369,0.1579,0.0558,0.1173,-1.54,0.56,0.90,0.001,15.166,-23.590,1.568,0.2726,-0.0739,0.0101,-0.0271,1.1331,0.0000,0.0000,0.2200,0.0000,0.0000
379,0.2799,0.0042,0.1267,-1.19,0.26,0.88,0.001,11.366,-18.293,2.582,0.2817,-0.0262,0.0050,-0.0231,1.1265,0.0000,0.0000,0.2200,0.0000,0.0000
389,0.2505,-0.0457,0.1443,-0.90,0.45,0.87,0.010,8.082,-14.413,5.647,0.2534,-0.0274,0.0012,-0.0268,1.1148,0.0000,0.0000,0.2200,0.0000,0.0000
399,0.2157,-0.0256,0.1651,-0.83,0.71,0.88,0.010,3.275,-12.670,5.765,0.2909,-0.0805,0.0077,-0.0171,1.1191,0.0000,0.0000,0.2200,0.0000,0.0000
409,0.2208,0.0211,0.1825,-0.83,0.92,0.90,0.010,-1.753,-7.959,5.617,0.3154,-0.0862,0.0032,-0.0175,1.1276,0.0000,0.0000,0.2200,0.0000,0.0000
419,0.1908,0.0213,0.1715,-0.70,1.19,0.93,0.010,-12.655,-6.231,4.234,0.3024,-0.0899,0.0014,-0.0156,1.1183,0.0000,0.0000,0.2200,0.0000,0.0000
429,0.2238,-0.0302,0.1819,-0.42,1.23,0.98,0.025,-15.544,-4.896,3.510,0.2856,-0.0866,0.0025,-0.0154,1.1146,0.0000,0.0000,0.2200,0.0000,0.0000
439,0.2444,-0.0350,0.1913,-0.37,1.29,1.03,0.025,-17.461,-9.048,2.793,0.2750,-0.0747,0.0055,-0.0135,1.1056,0.0000,0.0000,0.2200,0.0000,0.0000
449,0.2253,-0.0379,0.2047,-0.36,1.44,1.09,0.025,-22.506,-8.601,3.501,0.2458,-0.0544,0.0120,-0.0190,1.0951,0.0000,0.0000,0.2200,0.0000,0.0000
459,0.2009,-0.0331,0.2204,-0.48,1.58,1.13,0.025,-20.795,-6.257,4.218,0.2293,-0.0591,0.0076,-0.0183,1.0772,0.0000,0.0000,0.2200,0.0000,0.0000
469,0.1829,-0.0178,0.2344,-0.68,1.70,1.17,0.025,-16.106,-6.038,3.907,0.2348,-0.0569,0.0076,-0.0115,1.0658,0.0000,0.0000,0.2200,0.0000,0.0000
479,0.1406,0.0089,0.2496,-0.97,1.94,1.20,0.025,-9.208,-3.621,4.525,0.2052,-0.0346,0.0018,-0.0116,1.0518,0.0000,0.0000,0.2200,0.0000,0.0000
489,0.1131,0.0045,0.2618,-1.17,2.14,1.23,0.050,-6.319,-0.319,4.646,0.2044,-0.0395,-0.0038,-0.0131,1.0382,0.0000,0.0000,0.2200,0.0000,0.0000
499,0.1153,0.0097,0.2716,-1.40,2.17,1.27,0.050,-2.972,3.411,5.410,0.1988,-0.0336,-0.0005,-0.0199,1.0360,0.0000,0.0000,0.2200,0.0000,0.0000
509,0.0642,0.0465,0.2813,-1.75,2.46,1.33,0.050,3.748,9.996,4.412,0.1970,-0.0191,-0.0060,-0.0181,1.0321,0.0000,0.0000,0.2200,0.0000,0.0000
519,0.0522,0.0410,0.3090,-1.81,2.56,1.36,0.050,8.851,15.875,4.565,0.1970,-0.0202,-0.0071,-0.0167,1.0161,0.0000,0.0000,0.2200,0.0000,0.0000
529,0.0366,0.0543,0.3141,-1.92,2.64,1.41,0.067,11.907,20.337,4.547,0.2019,-0.0233,-0.0010,-0.0192,1.0053,0.0000,0.0000,0.2200,0.0000,0.0000
539,0.0283,0.0863,0.3159,-2.13,2.62,1.49,0.067,14.726,18.759,3.205,0.1906,-0.0142,0.0029,-0.0201,1.0018,0.0000,0.0000,0.2200,0.0000,0.0000
549,0.0227,0.0853,0.3200,-2.08,2.55,1.53,0.067,22.112,13.701,2.815,0.1877,-0.0115,0.0101,-0.0226,0.9871,0.0000,0.0000,0.2200,0.0000,0.0000
559,0.0231,0.0781,0.3452,-1.94,2.38,1.56,0.067,21.178,5.946,3.709,0.1870,-0.0113,0.0084,-0.0204,0.9740,0.0000,0.0000,0.2200,0.0000,0.0000
569,-0.0144,0.1076,0.3455,-2.00,2.39,1.61,0.067,20.391,0.930,3.844,0.1871,-0.0130,0.0043,-0.0178,0.9633,0.0000,0.0000,0.2200,0.0000,0.0000
579,-0.0277,0.1168,0.3452,-1.91,2.25,1.65,0.067,19.247,-0.027,3.786,0.1844,-0.0104,0.0006,-0.0170,0.9540,0.0000,0.0000,0.2200,0.0000,0.0000
589,-0.0336,0.1157,0.3460,-1.68,2.11,1.66,0.084,13.948,0.644,2.096,0.1838,-0.0092,0.0005,-0.0201,0.9503,0.0000,0.0000,0.2200,0.0000,0.0000
599,-0.0367,0.1003,0.3489,-1.32,2.02,1.68,0.084,11.734,3.325,2.025,0.1833,-0.0082,0.0063,-0.0178,0.9513,0.0000,0.0000,0.2200,0.0000,0.0000
608,-0.0552,0.1173,0.3436,-1.23,2.10,1.72,0.084,10.809,6.008,0.481,0.1830,-0.0067,0.0057,-0.0192,0.9499,0.0000,0.0000,0.2200,0.0000,0.0000
619,-0.0625,0.1171,0.3468,-1.02,2.13,1.75,0.084,8.008,8.400,0.791,0.1827,-0.0055,0.0049,-0.0181,0.9486,0.0000,0.0000,0.2200,0.0000,0.0000
629,-0.0651,0.1101,0.3439,-0.80,2.12,1.77,0.102,6.507,10.396,0.556,0.1813,-0.0043,0.0059,-0.0175,0.9491,0.0000,0.0000,0.2200,-0.0007,0.0011
639,-0.0514,0.0928,0.3430,-0.53,1.97,1.77,0.102,4.869,11.264,0.770,0.1804,-0.0040,0.0021,-0.0141,0.9475,0.0000,0.0000,0.2200,-0.0012,0.0020
649,-0.0612,0.0867,0.3383,-0.38,1.97,1.76,0.102,4.445,12.107,-0.278,0.1797,-0.0007,0.0005,-0.0141,0.9402,0.0000,0.0000,0.2200,-0.0018,0.0029
659,-0.0507,0.0890,0.3448,-0.30,1.78,1.78,0.102,4.854,12.285,-0.529,0.1780,0.0005,0.0062,-0.0173,0.9387,0.0000,0.0000,0.2200,-0.0023,0.0038
669,-0.0502,0.0948,0.3396,-0.28,1.65,1.79,0.102,4.259,13.700,-0.549,0.1768,0.0013,0.0047,-0.0138,0.9313,0.0000,0.0000,0.2200,-0.0028,0.0047
679,-0.0514,0.0801,0.3358,-0.10,1.53,1.78,0.102,4.766,16.230,-0.349,0.1767,0.0006,0.0059,-0.0158,0.9267,0.0000,0.0000,0.2200,-0.0033,0.0055
689,-0.0470,0.0783,0.3311,-0.04,1.35,1.78,0.114,6.486,15.420,-1.217,0.1770,0.0009,0.0078,-0.0143,0.9252,0.0000,0.0000,0.2200,-0.0038,0.0063
699,-0.0459,0.0786,0.3257,0.00,1.20,1.78,0.114,2.446,14.719,-1.686,0.1769,0.0077,0.0064,-0.0166,0.9233,0.0000,0.0000,0.2200,-0.0042,0.0071
711,-0.0492,0.0844,0.3193,-0.00,1.08,1.78,0.114,4.756,15.006,-2.197,0.1786,0.0111,0.0040,-0.0220,0.9169,0.0000,0.0000,0.2200,-0.0047,0.0079
719,-0.0526,0.0844,0.3008,0.03,0.94,1.78,0.114,4.747,14.472,-1.559,0.1774,0.0126,0.0056,-0.0201,0.9197,0.0000,0.0000,0.2200,-0.0052,0.0088
729,-0.0555,0.0640,0.2950,0.27,0.80,1.74,0.135,3.347,13.655,-1.538,0.1766,0.0136,0.0076,-0.0193,0.9189,0.0000,0.0000,0.2200,-0.0058,0.0094
739,-0.0638,0.0545,0.2879,0.38,0.71,1.71,0.135,2.522,12.215,-2.149,0.1772,0.0151,0.0099,-0.0150,0.9194,0.0000,0.0000,0.2200,-0.0064,0.0100
749,-0.0633,0.0512,0.2806,0.45,0.55,1.69,0.135,2.083,11.628,-2.420,0.1759,0.0163,0.0111,-0.0188,0.9172,0.0000,0.0000,0.2200,-0.0071,0.0105
758,-0.0644,0.0498,0.2865,0.51,0.40,1.67,0.135,1.923,10.525,-2.587,0.1763,0.0191,0.0064,-0.0153,0.9133,0.0000,0.0000,0.2200,-0.0077,0.0110
769,-0.0699,0.0466,0.2784,0.57,0.31,1.65,0.135,1.351,9.250,-2.898,0.1750,0.0196,0.0033,-0.0160,0.9156,0.0000,0.0000,0.2200,-0.0084,0.0115
779,-0.0689,0.0437,0.2707,0.61,0.18,1.63,0.135,1.012,8.758,-2.905,0.1759,0.0206,0.0077,-0.0162,0.9159,0.0000,0.0000,0.2200,-0.0091,0.0119
789,-0.0718,0.0367,0.2628,0.69,0.09,1.60,0.146,2.045,8.841,-3.186,0.1741,0.0133,0.0095,-0.0175,0.9152,0.0000,0.0000,0.2200,-0.0098,0.0123
799,-0.0706,0.0351,0.2549,0.72,-0.03,1.57,0.146,-0.377,7.186,-2.843,0.1738,0.0146,0.0063,-0.0172,0.9098,0.0000,0.0000,0.2200,-0.0105,0.0126
809,-0.0745,0.0324,0.2464,0.75,-0.09,1.54,0.146,-0.652,6.716,-3.755,0.1731,0.0174,0.0054,-0.0140,0.9069,0.0000,0.0000,0.2200,-0.0113,0.0129
819,-0.0715,0.0495,0.2360,0.60,-0.21,1.53,0.146,-2.045,5.795,-3.089,0.1728,0.0242,0.0061,-0.0157,0.9100,0.0000,0.0000,0.2200,-0.0120,0.0134
829,-0.0722,0.0468,0.2277,0.63,-0.29,1.50,0.161,-3.625,4.083,-3.470,0.1703,0.0265,0.0068,-0.0147,0.9112,0.0000,0.0000,0.2200,-0.0127,0.0139
839,-0.0717,0.0402,0.2196,0.67,-0.36,1.47,0.161,-2.805,3.519,-3.689,0.1704,0.0255,0.0065,-0.0181,0.9110,0.0000,0.0000,0.2200,-0.0134,0.0143
849,-0.0721,0.0244,0.2114,0.79,-0.42,1.43,0.161,-5.026,3.454,-3.616,0.1697,0.0257,0.0038,-0.0171,0.9176,0.0000,0.0000,0.2200,-0.0142,0.0145
859,-0.0691,0.0187,0.2144,0.81,-0.50,1.39,0.161,-4.105,4.392,-4.122,0.1688,0.0260,0.0023,-0.0178,0.9176,0.0000,0.0000,0.2200,-0.0148,0.0147
869,-0.0699,0.0201,0.2053,0.76,-0.52,1.36,0.161,-3.029,3.472,-2.626,0.1666,0.0269,0.0044,-0.0109,0.9229,0.0000,0.0000,0.2200,-0.0155,0.0149
879,-0.0691,0.0189,0.1965,0.73,-0.56,1.33,0.161,-1.696,2.803,-5.425,0.1687,0.0280,0.0023,-0.0158,0.9241,0.0000,0.0000,0.2200,-0.0162,0.0151
888,-0.0678,0.0174,0.1877,0.68,-0.59,1.29,0.161,-0.458,4.470,-2.095,0.1686,0.0281,0.0057,-0.0137,0.9220,0.0000,0.0000,0.2200,-0.0169,0.0153
898,-0.0634,0.0149,0.1796,0.66,-0.66,1.25,0.161,-3.343,5.581,-4.250,0.1678,0.0287,0.0042,-0.0121,0.9223,0.0000,0.0000,0.2200,-0.0175,0.0154
909,-0.0685,0.0114,0.1713,0.65,-0.64,1.21,0.161,0.626,3.468,-4.106,0.1660,0.0308,0.0054,-0.0129,0.9200,0.0000,0.0000,0.2200,-0.0182,0.0156
919,-0.0668,0.0109,0.1457,0.62,-0.68,1.16,0.161,-0.823,5.498,-3.975,0.1649,0.0290,0.0014,-0.0164,0.9201,0.0000,0.0000,0.2200,-0.0189,0.0157
929,-0.0652,0.0087,0.1382,0.63,-0.72,1.14,0.174,0.158,4.903,-3.571,0.1641,0.0289,0.0044,-0.0142,0.9223,0.0000,0.0000,0.2200,-0.0195,0.0158
939,-0.0615,0.0030,0.1307,0.64,-0.80,1.10,0.174,0.131,4.463,-3.619,0.1630,0.0291,0.0092,-0.0156,0.9248,0.0000,0.0000,0.2200,-0.0202,0.0158
949,-0.0590,0.0064,0.1230,0.60,-0.85,1.06,0.174,-0.917,5.047,-3.299,0.1615,0.0297,0.0048,-0.0206,0.9278,0.0000,0.0000,0.2200,-0.0208,0.0158
958,-0.0578,0.0055,0.1221,0.59,-0.90,1.02,0.174,-1.297,4.219,-3.693,0.1606,0.0288,0.0055,-0.0188,0.9296,0.0000,0.0000,0.2200,-0.0213,0.0159
969,-0.0552,0.0044,0.1142,0.60,-0.95,0.98,0.174,-2.772,2.525,-3.496,0.1603,0.0307,0.0047,-0.0173,0.9345,0.0000,0.0000,0.2200,-0.0219,0.0159
979,-0.0514,0.0021,0.1065,0.61,-1.02,0.94,0.174,-2.892,2.089,-3.714,0.1577,0.0277,0.0094,-0.0103,0.9421,0.0000,0.0000,0.2200,-0.0224,0.0160
989,-0.0487,0.0035,0.0983,0.58,-1.08,0.90,0.177,-2.456,1.314,-3.835,0.1601,0.0320,0.0020,-0.0126,0.9438,0.0000,0.0000,0.2200,-0.0229,0.0160
999,-0.0474,-0.0021,0.0910,0.61,-1.12,0.86,0.177,-0.071,0.721,-4.557,0.1558,0.0294,0.0047,-0.0151,0.9418,0.0000,0.0000,0.2200,-0.0234,0.0160
1010,-0.0402,0.0045,0.0841,0.52,-1.19,0.82,0.177,-3.234,0.519,-3.796,0.1587,0.0311,0.0075,-0.0139,0.9389,0.0000,0.0000,0.2200,-0.0238,0.0160
1019,-0.0453,-0.0073,0.0748,0.59,-1.15,0.79,0.177,-1.885,-0.184,-3.301,0.1583,0.0311,0.0053,-0.0150,0.9422,0.0000,0.0000,0.2200,-0.0242,0.0160
1029,-0.0332,-0.0015,0.0688,0.51,-1.25,0.75,0.183,-2.520,-0.835,-2.928,0.1579,0.0309,0.0069,-0.0159,0.9482,0.0000,0.0000,0.2200,-0.0245,0.0159
1039,-0.0399,-0.0071,0.0632,0.53,-1.19,0.71,0.183,-0.690,-1.281,-2.786,0.1571,0.0320,0.0063,-0.0167,0.9503,0.0000,0.0000,0.2200,-0.0249,0.0159
1049,-0.0380,-0.0080,0.0575,0.51,-1.19,0.67,0.183,-0.896,-0.928,-2.962,0.1560,0.0312,0.0049,-0.0160,0.9529,0.0000,0.0000,0.2200,-0.0253,0.0158
1058,-0.0361,-0.0088,0.0578,0.49,-1.19,0.64,0.183,-0.322,-1.132,-2.302,0.1549,0.0310,0.0005,-0.0177,0.9524,0.0000,0.0000,0.2200,-0.0257,0.0157
1068,-0.0329,-0.0131,0.0519,0.50,-1.19,0.61,0.183,-0.784,-0.932,-1.363,0.1535,0.0280,0.0008,-0.0175,0.9539,0.0000,0.0000,0.2200,-0.0260,0.0156
1079,-0.0286,-0.0120,0.0466,0.47,-1.20,0.58,0.183,-1.480,0.222,-2.616,0.1534,0.0279,0.0025,-0.0134,0.9547,0.0000,0.0000,0.2200,-0.0263,0.0154
1088,-0.0244,-0.0122,0.0417,0.46,-1.22,0.55,0.183,-0.983,1.986,-2.345,0.1530,0.0318,0.0017,-0.0185,0.9552,0.0000,0.0000,0.2200,-0.0265,0.0153
1098,-0.0189,-0.0044,0.0370,0.38,-1.23,0.52,0.183,-1.508,-0.946,-2.592,0.1527,0.0300,0.0059,-0.0193,0.9574,0.0000,0.0000,0.2200,-0.0267,0.0153
1108,-0.0169,-0.0050,0.0324,0.37,-1.23,0.50,0.183,0.411,1.178,-2.663,0.1520,0.0293,0.0055,-0.0157,0.9638,0.0000,0.0000,0.2200,-0.0269,0.0152
1120,-0.0142,-0.0177,0.0258,0.46,-1.23,0.49,0.183,-1.561,-2.222,-2.515,0.1515,0.0285,0.0036,-0.0133,0.9641,0.0000,0.0000,0.2200,-0.0270,0.0151
1129,-0.0119,-0.0132,0.0213,0.40,-1.24,0.46,0.187,-0.030,-3.176,-2.869,0.1504,0.0283,0.0041,-0.0154,0.9630,0.0000,0.0000,0.2200,-0.0272,0.0149
1138,-0.0079,-0.0120,0.0169,0.37,-1.26,0.43,0.187,-4.689,-3.062,-1.499,0.1497,0.0298,0.0050,-0.0191,0.9632,0.0000,0.0000,0.2200,-0.0272,0.0148
1149,-0.0044,-0.0105,0.0125,0.36,-1.28,0.40,0.187,2.541,-1.015,-1.551,0.1500,0.0268,0.0075,-0.0163,0.9694,0.0000,0.0000,0.2200,-0.0273,0.0147
1158,0.0017,-0.0105,0.0147,0.34,-1.29,0.38,0.187,1.565,-2.029,-1.748,0.1498,0.0278,0.0056,-0.0159,0.9724,0.0000,0.0000,0.2200,-0.0273,0.0146
1169,0.0061,-0.0171,0.0112,0.38,-1.27,0.35,0.187,1.851,-0.836,-1.867,0.1483,0.0262,0.0017,-0.0135,0.9747,0.0000,0.0000,0.2200,-0.0272,0.0144
1178,0.0077,-0.0076,0.0077,0.26,-1.24,0.32,0.187,-1.635,-1.545,-1.434,0.1488,0.0268,0.0041,-0.0144,0.9725,0.0000,0.0000,0.2200,-0.0271,0.0143
1189,0.0106,-0.0120,0.0040,0.31,-1.24,0.31,0.188,-3.231,-3.345,-1.021,0.1489,0.0268,0.0010,-0.0152,0.9720,0.0000,0.0000,0.2200,-0.0270,0.0142
1198,0.0190,-0.0068,0.0006,0.29,-1.27,0.28,0.188,-3.153,-3.935,-0.530,0.1488,0.0262,0.0024,-0.0091,0.9770,0.0000,0.0000,0.2200,-0.0268,0.0142
1208,0.0200,-0.0097,-0.0022,0.32,-1.25,0.27,0.188,-2.885,-6.596,-1.146,0.1485,0.0237,0.0017,-0.0146,0.9763,0.0000,0.0000,0.2200,-0.0266,0.0141
1219,0.0225,-0.0110,0.0008,0.31,-1.23,0.25,0.188,-1.226,-7.924,-2.132,0.1487,0.0246,0.0019,-0.0123,0.9789,0.0000,0.0000,0.2200,-0.0264,0.0140
1228,0.0260,-0.0095,-0.0019,0.26,-1.22,0.24,0.189,-0.903,-5.327,-1.585,0.1489,0.0250,0.0029,-0.0157,0.9804,0.0000,0.0000,0.2200,-0.0261,0.0139
1238,0.0305,0.0004,-0.0047,0.16,-1.20,0.22,0.189,-0.753,-6.014,-1.035,0.1483,0.0229,0.0016,-0.0156,0.9799,0.0000,0.0000,0.2200,-0.0258,0.0139
1249,0.0332,-0.0037,-0.0071,0.16,-1.14,0.21,0.189,0.393,-5.237,-0.827,0.1486,0.0232,0.0015,-0.0135,0.9795,0.0000,0.0000,0.2200,-0.0255,0.0138
1258,0.0360,-0.0065,-0.0040,0.16,-1.07,0.19,0.189,0.981,-4.933,-1.298,0.1487,0.0227,0.0009,-0.0132,0.9858,0.0000,0.0000,0.2200,-0.0252,0.0138
1268,0.0426,0.0031,-0.0063,0.08,-1.05,0.17,0.189,0.490,-3.655,-0.668,0.1493,0.0227,-0.0006,-0.0122,0.9890,0.0000,0.0000,0.2200,-0.0247,0.0138
1278,0.0448,0.0016,-0.0083,0.08,-0.99,0.16,0.189,3.008,-3.905,-1.064,0.1492,0.0239,-0.0006,-0.0153,0.9835,0.0000,0.0000,0.2200,-0.0243,0.0138
1288,0.0483,0.0041,-0.0103,0.06,-0.95,0.14,0.190,3.958,-3.494,-0.553,0.1498,0.0221,0.0030,-0.0172,0.9789,0.0000,0.0000,0.2200,-0.0238,0.0138
1298,0.0491,0.0038,-0.0124,0.07,-0.89,0.13,0.190,4.696,-2.736,-0.887,0.1498,0.0212,0.0060,-0.0172,0.9859,0.0000,0.0000,0.2200,-0.0233,0.0139
1308,0.0539,-0.0022,-0.0142,0.12,-0.88,0.13,0.190,3.223,-4.685,-1.036,0.1504,0.0214,0.0069,-0.0147,0.9875,0.0000,0.0000,0.2200,-0.0228,0.0139
1318,0.0558,0.0069,-0.0082,0.08,-0.84,0.11,0.190,1.727,-3.443,0.126,0.1508,0.0223,0.0056,-0.0164,0.9889,0.0000,0.0000,0.2200,-0.0222,0.0139
1329,0.0604,0.0130,-0.0097,0.07,-0.83,0.09,0.183,-0.906,-4.362,-0.617,0.1511,0.0222,0.0009,-0.0157,0.9901,0.0000,0.0000,0.2200,-0.0216,0.0141
1338,0.0620,0.0120,-0.0116,0.12,-0.81,0.09,0.183,1.534,-6.151,-0.748,0.1514,0.0244,0.0032,-0.0148,0.9886,0.0000,0.0000,0.2200,-0.0210,0.0142
1348,0.0649,0.0071,-0.0134,0.18,-0.78,0.08,0.183,-0.519,-5.360,1.077,0.1522,0.0235,0.0053,-0.0123,0.9919,0.0000,0.0000,0.2200,-0.0203,0.0143
1358,0.0672,0.0079,-0.0245,0.19,-0.75,0.08,0.183,-0.776,-5.799,0.089,0.1526,0.0239,0.0033,-0.0144,0.9956,0.0000,0.0000,0.2200,-0.0197,0.0143
1369,0.0710,-0.0069,-0.0257,0.30,-0.72,0.09,0.183,0.545,-5.041,-0.005,0.1534,0.0245,0.0010,-0.0145,0.9940,0.0000,0.0000,0.2200,-0.0190,0.0143
1378,0.0718,-0.0016,-0.0267,0.27,-0.66,0.08,0.183,-0.278,-4.683,1.008,0.1540,0.0242,0.0041,-0.0110,0.9924,0.0000,0.0000,0.2200,-0.0182,0.0142
1388,0.0750,-0.0047,-0.0278,0.29,-0.62,0.09,0.184,1.405,-5.568,-0.438,0.1549,0.0237,0.0012,-0.0149,0.9933,0.0000,0.0000,0.2200,-0.0175,0.0142
1398,0.0755,-0.0108,-0.0288,0.32,-0.56,0.10,0.184,-1.377,-4.910,0.237,0.1553,0.0244,0.0004,-0.0152,0.9977,0.0000,0.0000,0.2200,-0.0167,0.0141
1409,0.0788,-0.0094,-0.0296,0.32,-0.52,0.09,0.184,0.527,-3.498,1.580,0.1562,0.0240,0.0002,-0.0152,0.9977,0.0000,0.0000,0.2200,-0.0159,0.0140
1418,0.0788,-0.0069,-0.0304,0.29,-0.47,0.10,0.184,0.252,-4.990,0.667,0.1571,0.0242,0.0037,-0.0149,0.9978,0.0000,0.0000,0.2200,-0.0152,0.0139
1428,0.0831,-0.0142,-0.0312,0.35,-0.43,0.11,0.181,-1.819,-5.508,-0.011,0.1577,0.0242,0.0003,-0.0181,0.9999,0.0000,0.0000,0.2200,-0.0143,0.0138
1438,0.0832,-0.0127,-0.0319,0.33,-0.38,0.11,0.181,-0.247,-6.236,-0.571,0.1585,0.0244,0.0031,-0.0150,1.0001,0.0000,0.0000,0.2200,-0.0135,0.0137
1448,0.0830,-0.0172,-0.0323,0.36,-0.34,0.12,0.181,-0.023,-5.765,-0.288,0.1593,0.0240,0.0024,-0.0119,0.9983,0.0000,0.0000,0.2200,-0.0127,0.0135
1458,0.0853,-0.0197,-0.0365,0.38,-0.30,0.13,0.181,-0.106,-5.750,0.158,0.1603,0.0236,0.0026,-0.0150,1.0027,0.0000,0.0000,0.2200,-0.0118,0.0133
1469,0.0862,-0.0251,-0.0367,0.39,-0.25,0.13,0.181,0.392,-4.831,0.691,0.1608,0.0232,0.0015,-0.0148,1.0004,0.0000,0.0000,0.2200,-0.0109,0.0130
1478,0.0883,-0.0233,-0.0369,0.37,-0.20,0.13,0.181,-1.207,-2.632,1.293,0.1617,0.0230,0.0032,-0.0144,1.0027,0.0000,0.0000,0.2200,-0.0101,0.0128
1488,0.0875,-0.0215,-0.0368,0.35,-0.13,0.12,0.183,-1.723,-3.483,0.679,0.1626,0.0219,0.0037,-0.0123,1.0053,0.0000,0.0000,0.2200,-0.0092,0.0126
1498,0.0923,-0.0198,-0.0370,0.33,-0.11,0.12,0.183,-0.215,-2.313,2.531,0.1637,0.0224,0.0009,-0.0098,1.0040,0.0000,0.0000,0.2200,-0.0083,0.0124
1508,0.0927,-0.0196,-0.0369,0.33,-0.06,0.13,0.183,-1.179,-3.368,1.020,0.1645,0.0223,0.0007,-0.0133,1.0018,0.0000,0.0000,0.2200,-0.0073,0.0122
1518,0.0948,-0.0052,-0.0305,0.21,-0.05,0.13,0.183,-1.758,-3.101,1.289,0.1654,0.0221,0.0016,-0.0146,1.0055,0.0000,0.0000,0.2200,-0.0064,0.0121
1530,0.0923,-0.0166,-0.0302,0.27,0.01,0.15,0.179,-1.190,-3.464,1.264,0.1664,0.0219,-0.0010,-0.0109,1.0077,0.0000,0.0000,0.2200,-0.0055,0.0120
1538,0.0956,-0.0174,-0.0298,0.27,0.01,0.17,0.179,-1.839,-3.662,2.029,0.1673,0.0217,-0.0037,-0.0145,1.0076,0.0000,0.0000,0.2200,-0.0045,0.0118
1548,0.0959,-0.0170,-0.0294,0.24,0.03,0.19,0.179,-1.630,-4.828,1.336,0.1682,0.0215,-0.0009,-0.0170,1.0061,0.0000,0.0000,0.2200,-0.0036,0.0116
1558,0.0945,-0.0164,-0.0310,0.22,0.07,0.20,0.179,-1.190,-3.180,1.630,0.1692,0.0213,0.0021,-0.0157,1.0044,0.0000,0.0000,0.2200,-0.0026,0.0115
1568,0.0961,-0.0173,-0.0307,0.20,0.10,0.22,0.179,-1.218,-3.351,1.665,0.1701,0.0211,0.0028,-0.0129,1.0068,0.0000,0.0000,0.2200,-0.0016,0.0113
1578,0.1001,-0.0165,-0.0303,0.17,0.10,0.24,0.179,0.311,-3.730,2.149,0.1711,0.0209,0.0024,-0.0108,1.0049,0.0000,0.0000,0.2200,-0.0006,0.0111
1588,0.0985,-0.0173,-0.0294,0.14,0.16,0.25,0.178,0.839,-4.459,2.004,0.1721,0.0209,0.0035,-0.0132,1.0038,0.0000,0.0000,0.2200,0.0003,0.0110
1598,0.0997,-0.0139,-0.0288,0.10,0.19,0.27,0.178,0.476,-4.632,2.177,0.1731,0.0207,0.0043,-0.0147,1.0037,0.0000,0.0000,0.2200,0.0013,0.0108
1608,0.0993,-0.0107,-0.0284,0.07,0.22,0.28,0.178,0.913,-4.985,2.072,0.1741,0.0204,0.0039,-0.0134,1.0040,0.0000,0.0000,0.2200,0.0023,0.0107
1618,0.1032,-0.0174,-0.0279,0.12,0.23,0.30,0.178,0.151,-5.484,1.988,0.1751,0.0200,0.0030,-0.0140,1.0061,0.0000,0.0000,0.2200,0.0034,0.0105
1628,0.0984,-0.0350,-0.0273,0.24,0.30,0.33,0.179,-0.353,-4.786,1.690,0.1761,0.0198,0.0048,-0.0150,1.0057,0.0000,0.0000,0.2200,0.0043,0.0102
1638,0.0991,-0.0299,-0.0268,0.20,0.34,0.35,0.179,-1.000,-4.442,1.934,0.1771,0.0190,0.0019,-0.0119,1.0035,0.0000,0.0000,0.2200,0.0053,0.0099
1648,0.0971,-0.0334,-0.0264,0.23,0.40,0.37,0.179,-1.668,-3.707,1.500,0.1780,0.0185,0.0009,-0.0110,1.0051,0.0000,0.0000,0.2200,0.0063,0.0096
1658,0.0992,-0.0270,-0.0209,0.19,0.44,0.38,0.179,-2.271,-2.366,1.425,0.1790,0.0182,0.0033,-0.0128,1.0069,0.0000,0.0000,0.2200,0.0073,0.0093
1668,0.0986,-0.0551,-0.0209,0.38,0.49,0.41,0.179,-1.970,-1.550,1.576,0.1800,0.0177,0.0026,-0.0121,1.0066,0.0000,0.0000,0.2200,0.0083,0.0087
1678,0.0937,-0.0563,-0.0201,0.38,0.56,0.43,0.179,-2.310,-1.661,1.662,0.1809,0.0171,0.0004,-0.0113,1.0046,0.0000,0.0000,0.2200,0.0092,0.0082
1688,0.0971,-0.0464,-0.0194,0.29,0.56,0.44,0.173,-2.810,-1.701,1.959,0.1818,0.0165,-0.0001,-0.0160,1.0019,0.0000,0.0000,0.2200,0.0102,0.0077
1698,0.0950,-0.0476,-0.0190,0.27,0.60,0.45,0.173,-1.671,-1.622,1.602,0.1828,0.0158,0.0034,-0.0166,1.0041,0.0000,0.0000,0.2200,0.0111,0.0072
1708,0.0944,-0.0515,-0.0186,0.28,0.61,0.47,0.173,-2.847,-1.199,1.963,0.1838,0.0167,0.0025,-0.0151,1.0073,0.0000,0.0000,0.2200,0.0121,0.0067
1718,0.0936,-0.0538,-0.0258,0.27,0.63,0.49,0.173,-2.110,-2.598,1.092,0.1848,0.0164,0.0014,-0.0156,1.0062,0.0000,0.0000,0.2200,0.0130,0.0062
1728,0.0944,-0.0587,-0.0255,0.27,0.63,0.51,0.172,-2.566,-2.867,1.490,0.1857,0.0162,-0.0009,-0.0166,1.0031,0.0000,0.0000,0.2200,0.0140,0.0056
1738,0.0935,-0.0278,-0.0243,0.03,0.65,0.52,0.172,-2.943,-2.987,1.615,0.1867,0.0160,0.0032,-0.0136,1.0047,0.0000,0.0000,0.2200,0.0149,0.0053
1748,0.0941,-0.0279,-0.0241,0.01,0.65,0.54,0.172,-2.957,-2.691,1.249,0.1874,0.0155,0.0039,-0.0115,1.0055,0.0000,0.0000,0.2200,0.0158,0.0050
1757,0.0918,-0.0265,-0.0277,-0.03,0.68,0.55,0.172,-2.782,-3.182,1.396,0.1885,0.0153,0.0009,-0.0114,1.0066,0.0000,0.0000,0.2200,0.0168,0.0048
1768,0.0923,-0.0250,-0.0271,-0.06,0.70,0.57,0.172,-2.502,-2.124,1.344,0.1895,0.0149,0.0010,-0.0129,1.0084,0.0000,0.0000,0.2200,0.0177,0.0045
1778,0.0873,-0.0291,-0.0266,-0.06,0.75,0.58,0.172,-1.552,-2.656,1.110,0.1907,0.0144,0.0015,-0.0132,1.0118,0.0000,0.0000,0.2200,0.0186,0.0042
1788,0.0906,-0.0274,-0.0263,-0.11,0.75,0.60,0.167,-1.725,-2.920,0.957,0.1913,0.0149,0.0014,-0.0104,1.0074,0.0000,0.0000,0.2200,0.0195,0.0040
1798,0.0898,-0.0286,-0.0258,-0.13,0.78,0.61,0.167,0.406,-1.185,0.916,0.1925,0.0148,0.0024,-0.0100,1.0092,0.0000,0.0000,0.2200,0.0204,0.0037
1808,0.0915,-0.0311,-0.0254,-0.14,0.79,0.62,0.167,0.337,-1.573,0.601,0.1933,0.0146,0.0015,-0.0111,1.0133,0.0000,0.0000,0.2200,0.0213,0.0034
1818,0.0859,-0.0208,-0.0350,-0.22,0.84,0.64,0.167,2.320,-0.515,0.803,0.1942,0.0146,0.0010,-0.0136,1.0080,0.0000,0.0000,0.2200,0.0221,0.0032
1828,0.0893,-0.0195,-0.0341,-0.24,0.83,0.65,0.165,2.525,-2.081,0.824,0.1949,0.0143,0.0024,-0.0139,1.0058,0.0000,0.0000,0.2200,0.0230,0.0030
1838,0.0870,-0.0183,-0.0333,-0.25,0.85,0.66,0.165,2.857,-2.185,0.351,0.1959,0.0141,0.0028,-0.0140,1.0120,0.0000,0.0000,0.2200,0.0239,0.0028
1848,0.0861,-0.0159,-0.0325,-0.25,0.86,0.66,0.165,2.651,-1.077,0.122,0.1970,0.0142,0.0054,-0.0124,1.0115,0.0000,0.0000,0.2200,0.0248,0.0026
1857,0.0822,-0.0178,-0.0384,-0.22,0.89,0.67,0.165,2.408,-1.948,0.522,0.1979,0.0141,0.0052,-0.0139,1.0109,0.0000,0.0000,0.2200,0.0256,0.0024
1868,0.0830,-0.0172,-0.0376,-0.19,0.89,0.68,0.165,1.777,-1.434,0.387,0.1986,0.0142,0.0028,-0.0148,1.0127,0.0000,0.0000,0.2200,0.0264,0.0023
1878,0.0849,-0.0138,-0.0371,-0.18,0.89,0.68,0.165,0.892,-2.417,-0.383,0.1991,0.0143,0.0022,-0.0129,1.0104,0.0000,0.0000,0.2200,0.0273,0.0021
1888,0.0839,-0.0131,-0.0361,-0.15,0.90,0.68,0.166,0.817,-0.703,0.269,0.2000,0.0139,0.0069,-0.0157,1.0124,0.0000,0.0000,0.2200,0.0281,0.0020
1898,0.0803,-0.0112,-0.0349,-0.14,0.93,0.69,0.166,-0.784,-1.592,0.782,0.2006,0.0135,0.0036,-0.0123,1.0149,0.0000,0.0000,0.2200,0.0289,0.0019
1908,0.0766,-0.0092,-0.0338,-0.14,0.96,0.69,0.166,-0.416,0.064,0.749,0.2019,0.0135,0.0050,-0.0152,1.0152,0.0000,0.0000,0.2200,0.0297,0.0018
1918,0.0761,-0.0115,-0.0304,-0.11,0.98,0.69,0.166,1.204,-0.701,0.731,0.2024,0.0134,0.0031,-0.0147,1.0133,0.0000,0.0000,0.2200,0.0304,0.0017
1928,0.0726,-0.0134,-0.0292,-0.09,1.00,0.69,0.168,-0.455,-1.442,0.828,0.2035,0.0134,0.0025,-0.0140,1.0132,0.0000,0.0000,0.2200,0.0312,0.0015
1939,0.0763,-0.0126,-0.0283,-0.11,0.97,0.70,0.168,2.332,-0.138,0.004,0.2040,0.0126,0.0039,-0.0174,1.0163,0.0000,0.0000,0.2200,0.0319,0.0014
1948,0.0728,-0.0120,-0.0268,-0.11,0.99,0.71,0.168,3.460,0.127,0.310,0.2047,0.0130,0.0039,-0.0144,1.0154,0.0000,0.0000,0.2200,0.0326,0.0013
1958,0.0737,-0.0113,-0.0162,-0.11,0.98,0.71,0.168,0.196,-1.760,0.259,0.2054,0.0128,0.0025,-0.0131,1.0125,0.0000,0.0000,0.2200,0.0334,0.0012
1968,0.0706,-0.0163,-0.0148,-0.07,1.01,0.72,0.168,-0.295,-1.450,-0.356,0.2064,0.0127,0.0014,-0.0162,1.0170,0.0000,0.0000,0.2200,0.0341,0.0010
1978,0.0688,-0.0118,-0.0135,-0.09,1.01,0.73,0.168,1.864,-1.588,-0.563,0.2070,0.0123,0.0029,-0.0147,1.0136,0.0000,0.0000,0.2200,0.0348,0.0009
1988,0.0669,-0.0124,-0.0120,-0.07,1.01,0.73,0.164,0.476,-2.710,-0.436,0.2079,0.0121,0.0064,-0.0069,1.0099,0.0000,0.0000,0.2200,0.0354,0.0008
1998,0.0677,-0.0118,-0.0105,-0.07,1.02,0.73,0.164,2.240,-1.139,-0.618,0.2085,0.0119,0.0048,-0.0086,1.0077,0.0000,0.0000,0.2200,0.0361,0.0007
2008,0.0659,-0.0140,-0.0093,-0.06,1.03,0.73,0.164,3.097,-0.389,-0.860,0.2092,0.0120,0.0038,-0.0153,1.0057,0.0000,0.0000,0.2200,0.0368,0.0005
2018,0.0654,-0.0145,-0.0102,-0.04,1.04,0.72,0.164,1.778,-1.301,-0.265,0.2096,0.0126,0.0044,-0.0153,1.0109,0.0000,0.0000,0.2200,0.0374,0.0004
2027,0.0636,-0.0145,-0.0087,-0.04,1.06,0.72,0.164,2.869,0.442,-0.344,0.2103,0.0117,0.0042,-0.0141,1.0117,0.0000,0.0000,0.2200,0.0381,0.0002
2038,0.0620,-0.0126,-0.0076,-0.03,1.06,0.71,0.164,1.476,-1.672,-0.656,0.2113,0.0120,0.0045,-0.0126,1.0128,0.0000,0.0000,0.2200,0.0387,0.0001
2047,0.0589,-0.0080,-0.0068,-0.05,1.08,0.71,0.164,2.706,0.054,-0.757,0.2121,0.0115,0.0059,-0.0140,1.0083,0.0000,0.0000,0.2200,0.0393,0.0000
2058,0.0576,-0.0134,-0.0066,0.02,1.08,0.70,0.164,1.661,-0.383,-0.679,0.2126,0.0117,0.0022,-0.0135,1.0093,0.0000,0.0000,0.2200,0.0399,-0.0001
2068,0.0588,-0.0103,-0.0057,0.02,1.06,0.69,0.164,-0.371,-0.289,-0.658,0.2132,0.0108,0.0047,-0.0165,1.0135,0.0000,0.0000,0.2200,0.0404,-0.0002
2077,0.0589,-0.0129,-0.0046,0.06,1.06,0.69,0.164,0.316,0.305,-0.879,0.2138,0.0118,0.0045,-0.0168,1.0098,0.0000,0.0000,0.2200,0.0410,-0.0003
2088,0.0560,-0.0112,-0.0034,0.06,1.06,0.68,0.167,-0.270,-0.149,-1.283,0.2142,0.0118,0.0011,-0.0201,1.0062,0.0000,0.0000,0.2200,0.0416,-0.0005
2097,0.0549,-0.0164,-0.0025,0.11,1.06,0.67,0.167,-1.364,-0.562,-0.996,0.2146,0.0115,0.0027,-0.0185,1.0067,0.0000,0.0000,0.2200,0.0421,-0.0006
2108,0.0535,-0.0092,-0.0015,0.06,1.06,0.67,0.167,-0.381,0.955,-1.226,0.2151,0.0111,0.0033,-0.0153,1.0080,0.0000,0.0000,0.2200,0.0427,-0.0007
2117,0.0511,-0.0089,0.0065,0.06,1.06,0.66,0.167,-0.451,-0.303,-1.436,0.2157,0.0110,0.0053,-0.0146,1.0077,0.0000,0.0000,0.2200,0.0432,-0.0008
2128,0.0486,-0.0099,0.0075,0.06,1.06,0.65,0.167,0.912,-0.004,-1.506,0.2161,0.0107,0.0025,-0.0138,1.0068,0.0000,0.0000,0.2200,0.0437,-0.0009
2137,0.0464,-0.0123,0.0082,0.07,1.07,0.64,0.167,0.752,-1.208,-1.058,0.2164,0.0107,0.0038,-0.0139,1.0075,0.0000,0.0000,0.2200,0.0441,-0.0010
2148,0.0455,-0.0119,0.0087,0.07,1.05,0.62,0.167,1.715,-1.056,-1.304,0.2170,0.0111,0.0077,-0.0103,1.0086,0.0000,0.0000,0.2200,0.0446,-0.0011
2158,0.0434,-0.0130,0.0127,0.07,1.06,0.61,0.167,1.372,-0.756,-1.662,0.2176,0.0101,0.0035,-0.0140,1.0050,0.0000,0.0000,0.2200,0.0450,-0.0013
2168,0.0413,-0.0127,0.0135,0.08,1.06,0.59,0.167,1.989,-0.008,-1.901,0.2180,0.0104,0.0043,-0.0149,0.9998,0.0000,0.0000,0.2200,0.0454,-0.0014
2178,0.0406,-0.0099,0.0141,0.07,1.06,0.59,0.167,2.494,-0.713,-2.131,0.2184,0.0101,0.0047,-0.0174,1.0006,0.0000,0.0000,0.2200,0.0458,-0.0015
2187,0.0400,-0.0152,0.0148,0.13,1.05,0.57,0.165,2.812,-0.262,-2.315,0.2187,0.0100,0.0052,-0.0183,0.9994,0.0000,0.0000,0.2200,0.0462,-0.0016
2197,0.0380,-0.0124,0.0155,0.13,1.06,0.55,0.165,2.504,-0.059,-2.111,0.2190,0.0109,0.0074,-0.0156,1.0029,0.0000,0.0000,0.2200,0.0466,-0.0018
2208,0.0358,-0.0137,0.0161,0.16,1.06,0.53,0.165,0.815,1.138,-2.030,0.2197,0.0101,0.0060,-0.0142,1.0047,0.0000,0.0000,0.2200,0.0470,-0.0019
2218,0.0340,-0.0140,0.0120,0.18,1.07,0.51,0.165,0.033,0.926,-1.985,0.2200,0.0101,0.0059,-0.0135,1.0010,0.0000,0.0000,0.2200,0.0473,-0.0021
2228,0.0321,-0.0084,0.0122,0.17,1.08,0.49,0.166,-1.069,0.360,-1.938,0.2206,0.0103,0.0049,-0.0130,1.0000,0.0000,0.0000,0.2200,0.0476,-0.0021
2237,0.0320,-0.0127,0.0121,0.22,1.06,0.46,0.166,-1.271,-0.086,-1.586,0.2204,0.0103,0.0029,-0.0130,1.0035,0.0000,0.0000,0.2200,0.0480,-0.0023
2247,0.0304,-0.0125,0.0123,0.22,1.05,0.44,0.166,-1.074,-0.027,-0.801,0.2208,0.0093,0.0020,-0.0146,1.0012,0.0000,0.0000,0.2200,0.0483,-0.0024
2257,0.0302,-0.0110,0.0112,0.21,1.03,0.42,0.166,-0.920,0.357,-1.098,0.2213,0.0095,0.0044,-0.0133,1.0002,0.0000,0.0000,0.2200,0.0486,-0.0025
2267,0.0259,-0.0108,0.0114,0.20,1.05,0.40,0.166,-0.978,0.421,-1.115,0.2214,0.0098,0.0037,-0.0120,1.0037,0.0000,0.0000,0.2200,0.0488,-0.0026
2278,0.0246,-0.0159,0.0113,0.21,1.04,0.38,0.166,-0.643,0.686,-1.358,0.2215,0.0090,-0.0007,-0.0154,1.0048,0.0000,0.0000,0.2200,0.0491,-0.0028
2287,0.0246,-0.0141,0.0116,0.19,1.03,0.38,0.169,-0.052,1.461,-1.675,0.2216,0.0100,0.0035,-0.0162,1.0010,0.0000,0.0000,0.2200,0.0493,-0.0029
2298,0.0220,-0.0124,0.0118,0.16,1.03,0.37,0.169,-0.212,0.581,-1.595,0.2216,0.0089,-0.0011,-0.0189,0.9988,0.0000,0.0000,0.2200,0.0495,-0.0030
2307,0.0195,-0.0162,0.0118,0.18,1.03,0.35,0.169,0.377,0.776,-1.589,0.2219,0.0096,0.0054,-0.0153,0.9990,0.0000,0.0000,0.2200,0.0497,-0.0032
2318,0.0171,-0.0105,0.0167,0.13,1.03,0.34,0.169,0.486,0.283,-0.900,0.2222,0.0098,0.0066,-0.0127,0.9996,0.0000,0.0000,0.2200,0.0499,-0.0033
2328,0.0148,-0.0156,0.0171,0.16,1.02,0.32,0.172,0.692,0.485,-1.149,0.2223,0.0085,0.0037,-0.0163,0.9949,0.0000,0.0000,0.2200,0.0501,-0.0035
2337,0.0138,-0.0114,0.0173,0.14,1.01,0.31,0.172,0.299,0.339,-0.969,0.2223,0.0083,0.0055,-0.0125,0.9969,0.0000,0.0000,0.2200,0.0502,-0.0036
2349,0.0130,-0.0100,0.0173,0.13,1.00,0.29,0.172,2.151,1.326,-1.138,0.2224,0.0081,0.0063,-0.0098,0.9932,0.0000,0.0000,0.2200,0.0503,-0.0037
2357,0.0109,-0.0166,0.0245,0.18,0.99,0.28,0.172,1.315,0.801,-1.537,0.2225,0.0080,0.0079,-0.0141,0.9947,0.0000,0.0000,0.2200,0.0504,-0.0038
2367,0.0092,-0.0169,0.0244,0.19,0.98,0.26,0.172,1.740,1.154,-2.001,0.2226,0.0078,0.0087,-0.0152,0.9949,0.0000,0.0000,0.2200,0.0505,-0.0040
2377,0.0076,-0.0172,0.0240,0.20,0.97,0.25,0.172,1.170,0.291,-2.099,0.2229,0.0086,0.0061,-0.0152,0.9975,0.0000,0.0000,0.2200,0.0506,-0.0042
2388,0.0059,-0.0176,0.0236,0.22,0.96,0.24,0.170,0.306,0.018,-1.922,0.2229,0.0085,0.0092,-0.0142,0.9965,0.0000,0.0000,0.2200,0.0507,-0.0043
2397,0.0043,-0.0180,0.0230,0.23,0.95,0.23,0.170,-0.890,-0.234,-1.949,0.2229,0.0075,0.0099,-0.0191,0.9947,0.0000,0.0000,0.2200,0.0507,-0.0045
2407,0.0040,-0.0134,0.0225,0.22,0.94,0.21,0.170,-1.051,0.184,-1.491,0.2229,0.0071,0.0108,-0.0155,0.9947,0.0000,0.0000,0.2200,0.0507,-0.0047
2417,0.0024,-0.0138,0.0192,0.22,0.93,0.19,0.170,-0.386,0.292,-2.152,0.2233,0.0072,0.0051,-0.0163,0.9937,0.0000,0.0000,0.2200,0.0508,-0.0048
2428,0.0008,-0.0183,0.0188,0.26,0.93,0.17,0.170,-1.592,0.146,-1.742,0.2233,0.0081,0.0045,-0.0173,0.9972,0.0000,0.0000,0.2200,0.0508,-0.0050
2437,-0.0007,-0.0195,0.0185,0.26,0.93,0.15,0.170,-1.923,1.297,-1.806,0.2233,0.0072,0.0068,-0.0174,0.9999,0.0000,0.0000,0.2200,0.0508,-0.0052
2448,-0.0007,-0.0189,0.0180,0.24,0.91,0.13,0.170,-1.658,0.762,-1.617,0.2233,0.0082,0.0059,-0.0173,0.9968,0.0000,0.0000,0.2200,0.0508,-0.0054
2457,-0.0021,-0.0140,0.0138,0.20,0.91,0.12,0.170,0.135,1.447,-1.478,0.2233,0.0079,0.0095,-0.0195,0.9924,0.0000,0.0000,0.2200,0.0507,-0.0055
2468,-0.0034,-0.0179,0.0132,0.20,0.90,0.10,0.170,-0.159,1.649,-1.162,0.2233,0.0086,0.0048,-0.0150,0.9959,0.0000,0.0000,0.2200,0.0507,-0.0057
2477,-0.0048,-0.0128,0.0129,0.14,0.89,0.08,0.170,0.331,1.838,-1.149,0.2233,0.0043,0.0060,-0.0144,0.9959,0.0000,0.0000,0.2200,0.0507,-0.0058
2487,-0.0060,-0.0138,0.0128,0.13,0.88,0.07,0.171,1.385,0.996,-0.868,0.2233,0.0041,0.0041,-0.0190,0.9956,0.0000,0.0000,0.2200,0.0506,-0.0060
2498,-0.0071,-0.0104,0.0126,0.10,0.86,0.06,0.171,2.332,1.776,-0.422,0.2233,0.0047,0.0055,-0.0094,0.9946,0.0000,0.0000,0.2200,0.0505,-0.0061
2507,-0.0082,-0.0289,0.0118,0.22,0.85,0.04,0.171,0.639,1.048,-1.113,0.2234,0.0033,0.0039,-0.0094,0.9955,0.0000,0.0000,0.2200,0.0504,-0.0063
2517,-0.0096,-0.0293,0.0101,0.23,0.82,0.03,0.171,-1.694,0.108,-0.563,0.2230,0.0032,0.0039,-0.0157,0.9965,0.0000,0.0000,0.2200,0.0504,-0.0066
2527,-0.0104,-0.0257,0.0098,0.22,0.81,0.02,0.168,-1.204,0.754,-1.102,0.2231,0.0036,0.0053,-0.0087,0.9963,0.0000,0.0000,0.2200,0.0502,-0.0069
2537,-0.0111,-0.0310,0.0093,0.27,0.78,0.01,0.168,-2.475,0.917,-0.987,0.2230,0.0033,0.0078,-0.0120,0.9966,0.0000,0.0000,0.2200,0.0501,-0.0072
2547,-0.0132,-0.0302,0.0088,0.27,0.77,-0.00,0.168,-1.678,0.535,-1.228,0.2227,0.0030,0.0082,-0.0114,0.9958,0.0000,0.0000,0.2200,0.0500,-0.0075
2557,-0.0137,-0.0279,0.0000,0.24,0.76,-0.01,0.168,-1.085,1.371,-1.104,0.2231,0.0023,0.0093,-0.0104,0.9949,0.0000,0.0000,0.2200,0.0499,-0.0078
2567,-0.0150,-0.0283,-0.0003,0.23,0.74,-0.02,0.168,-1.752,1.326,-0.845,0.2228,0.0034,0.0084,-0.0148,0.9983,0.0000,0.0000,0.2200,0.0497,-0.0081
2578,-0.0169,-0.0288,-0.0007,0.21,0.73,-0.03,0.168,-1.268,1.040,-1.109,0.2225,0.0027,0.0110,-0.0180,0.9985,0.0000,0.0000,0.2200,0.0495,-0.0084
2587,-0.0157,-0.0308,-0.0010,0.21,0.71,-0.04,0.167,-1.983,0.688,-0.970,0.2226,0.0024,0.0072,-0.0171,1.0006,0.0000,0.0000,0.2200,0.0494,-0.0087
2598,-0.0175,-0.0252,-0.0013,0.15,0.69,-0.05,0.167,-2.220,0.330,-0.572,0.2224,0.0022,0.0071,-0.0145,0.9993,0.0000,0.0000,0.2200,0.0492,-0.0089
2607,-0.0192,-0.0272,-0.0018,0.15,0.67,-0.06,0.167,-2.680,0.025,-0.581,0.2224,0.0019,0.0079,-0.0119,1.0027,0.0000,0.0000,0.2200,0.0490,-0.0092
2617,-0.0192,-0.0276,-0.0091,0.14,0.65,-0.07,0.167,-1.901,0.139,-0.476,0.2224,0.0027,0.0054,-0.0096,1.0049,0.0000,0.0000,0.2200,0.0488,-0.0095
2627,-0.0203,-0.0279,-0.0093,0.12,0.64,-0.08,0.172,-1.444,-0.628,-0.159,0.2220,0.0020,0.0069,-0.0143,1.0075,0.0000,0.0000,0.2200,0.0486,-0.0097
2637,-0.0204,-0.0282,-0.0092,0.10,0.63,-0.09,0.172,-1.723,-0.962,-0.723,0.2216,0.0017,0.0064,-0.0153,1.0044,0.0000,0.0000,0.2200,0.0484,-0.0100
2647,-0.0205,-0.0238,-0.0092,0.05,0.62,-0.09,0.172,-1.604,-0.847,-0.740,0.2214,0.0014,0.0069,-0.0163,1.0008,0.0000,0.0000,0.2200,0.0482,-0.0103
2657,-0.0224,-0.0257,-0.0010,0.04,0.62,-0.10,0.172,-0.520,-0.589,-0.880,0.2211,0.0012,0.0073,-0.0150,1.0018,0.0000,0.0000,0.2200,0.0480,-0.0105
2667,-0.0241,-0.0259,-0.0005,0.03,0.63,-0.10,0.172,-1.098,0.152,-1.020,0.2207,0.0013,0.0074,-0.0120,1.0026,0.0000,0.0000,0.2200,0.0478,-0.0108
2677,-0.0252,-0.0260,0.0002,0.01,0.64,-0.11,0.172,-1.374,0.037,-0.698,0.2204,-0.0022,0.0043,-0.0139,1.0017,0.0000,0.0000,0.2200,0.0475,-0.0110
2688,-0.0263,-0.0260,0.0007,-0.00,0.65,-0.12,0.168,-1.977,1.621,-1.017,0.2201,-0.0013,0.0087,-0.0177,1.0037,0.0000,0.0000,0.2200,0.0472,-0.0113
2697,-0.0278,-0.0246,0.0008,-0.02,0.66,-0.13,0.168,-1.020,2.150,-0.844,0.2198,-0.0032,0.0071,-0.0123,1.0036,0.0000,0.0000,0.2200,0.0470,-0.0115
2707,-0.0294,-0.0373,0.0008,0.05,0.66,-0.14,0.168,-0.462,2.956,-0.919,0.2195,-0.0031,0.0059,-0.0123,1.0023,0.0000,0.0000,0.2200,0.0467,-0.0119
2717,-0.0305,-0.0324,-0.0032,0.00,0.65,-0.15,0.168,0.683,3.914,-1.160,0.2192,-0.0030,0.0023,-0.0179,1.0023,0.0000,0.0000,0.2200,0.0464,-0.0122
2727,-0.0316,-0.0385,-0.0031,0.03,0.63,-0.16,0.170,1.475,2.366,-1.450,0.2194,-0.0034,0.0063,-0.0206,0.9990,0.0000,0.0000,0.2200,0.0460,-0.0126
2737,-0.0325,-0.0366,-0.0027,0.00,0.61,-0.17,0.170,0.557,2.576,-0.870,0.2190,-0.0038,0.0058,-0.0190,0.9953,0.0000,0.0000,0.2200,0.0457,-0.0130
2747,-0.0332,-0.0350,-0.0023,-0.01,0.57,-0.18,0.170,0.936,2.489,-0.537,0.2184,-0.0037,0.0049,-0.0131,1.0038,0.0000,0.0000,0.2200,0.0454,-0.0133
2759,-0.0324,-0.0352,0.0003,-0.00,0.53,-0.19,0.170,-0.362,0.988,-1.175,0.2181,-0.0053,0.0046,-0.0130,1.0021,0.0000,0.0000,0.2200,0.0451,-0.0137
2766,-0.0333,-0.0352,0.0005,0.01,0.50,-0.20,0.170,-0.644,0.606,-0.532,0.2177,-0.0057,0.0042,-0.0167,1.0036,0.0000,0.0000,0.2200,0.0447,-0.0140
2777,-0.0353,-0.0337,0.0005,-0.00,0.48,-0.21,0.170,-1.169,-0.729,-2.502,0.2173,-0.0052,0.0079,-0.0142,1.0008,0.0000,0.0000,0.2200,0.0444,-0.0144
2787,-0.0360,-0.0384,0.0000,0.04,0.46,-0.22,0.171,-2.944,-0.691,-1.104,0.2169,-0.0046,0.0130,-0.0124,1.0035,0.0000,0.0000,0.2200,0.0440,-0.0148
2797,-0.0368,-0.0385,0.0003,0.03,0.45,-0.23,0.171,-3.335,-1.149,-2.060,0.2169,-0.0053,0.0100,-0.0113,1.0044,0.0000,0.0000,0.2200,0.0437,-0.0152
2807,-0.0376,-0.0353,0.0006,0.01,0.45,-0.24,0.171,-2.911,-1.021,-2.205,0.2165,-0.0076,0.0059,-0.0142,1.0004,0.0000,0.0000,0.2200,0.0433,-0.0155
2817,-0.0384,-0.0317,0.0044,-0.04,0.46,-0.26,0.171,-3.220,-0.501,-1.303,0.2166,-0.0082,0.0114,-0.0154,1.0025,0.0000,0.0000,0.2200,0.0429,-0.0158
2827,-0.0377,-0.0330,0.0046,-0.06,0.46,-0.27,0.171,-3.342,0.398,-0.421,0.2158,-0.0077,0.0104,-0.0137,1.0038,0.0000,0.0000,0.2200,0.0425,-0.0162
2837,-0.0386,-0.0402,0.0048,-0.04,0.47,-0.30,0.171,-2.704,0.982,-0.770,0.2159,-0.0087,0.0038,-0.0166,1.0028,0.0000,0.0000,0.2200,0.0421,-0.0166
2847,-0.0378,-0.0410,0.0052,-0.07,0.47,-0.31,0.171,-2.377,1.341,-1.227,0.2156,-0.0082,0.0074,-0.0171,1.0022,0.0000,0.0000,0.2200,0.0418,-0.0170
2857,-0.0401,-0.0373,0.0068,-0.12,0.48,-0.32,0.171,-2.139,1.745,-1.080,0.2153,-0.0084,0.0083,-0.0119,1.0027,0.0000,0.0000,0.2200,0.0414,-0.0173
2867,-0.0391,-0.0396,0.0070,-0.14,0.46,-0.33,0.171,-1.178,1.980,-0.826,0.2149,-0.0088,0.0074,-0.0116,0.9992,0.0000,0.0000,0.2200,0.0410,-0.0177
2877,-0.0396,-0.0359,0.0074,-0.19,0.45,-0.34,0.171,0.150,2.628,-0.722,0.2146,-0.0099,0.0068,-0.0156,1.0021,0.0000,0.0000,0.2200,0.0406,-0.0181
2887,-0.0400,-0.0351,0.0077,-0.21,0.43,-0.35,0.168,0.864,3.390,-0.932,0.2144,-0.0099,0.0055,-0.0162,1.0014,0.0000,0.0000,0.2200,0.0402,-0.0184
2897,-0.0407,-0.0348,0.0079,-0.23,0.41,-0.36,0.168,1.446,3.633,-1.462,0.2140,-0.0102,0.0053,-0.0121,0.9983,0.0000,0.0000,0.2200,0.0398,-0.0188
2907,-0.0410,-0.0374,0.0081,-0.21,0.39,-0.37,0.168,-0.236,2.910,-0.989,0.2133,-0.0094,0.0073,-0.0142,0.9969,0.0000,0.0000,0.2200,0.0393,-0.0192
2917,-0.0408,-0.0354,0.0015,-0.21,0.35,-0.38,0.168,-0.208,2.530,-1.047,0.2135,-0.0106,0.0105,-0.0172,0.9974,0.0000,0.0000,0.2200,0.0389,-0.0195
2927,-0.0414,-0.0350,0.0017,-0.21,0.32,-0.39,0.170,0.099,1.964,-0.800,0.2132,-0.0101,0.0115,-0.0187,0.9991,0.0000,0.0000,0.2200,0.0385,-0.0199
2937,-0.0428,-0.0302,0.0018,-0.22,0.29,-0.40,0.170,-2.497,0.901,-0.919,0.2112,-0.0116,0.0113,-0.0158,1.0020,0.0000,0.0000,0.2200,0.0381,-0.0202
2947,-0.0412,-0.0333,0.0017,-0.19,0.25,-0.42,0.170,-2.995,0.974,-1.367,0.2114,-0.0102,0.0091,-0.0182,0.9999,0.0000,0.0000,0.2200,0.0377,-0.0205
2956,-0.0411,-0.0298,0.0018,-0.22,0.22,-0.43,0.170,-2.692,0.250,-1.961,0.2110,-0.0109,0.0086,-0.0158,0.9996,0.0000,0.0000,0.2200,0.0373,-0.0208
2967,-0.0471,-0.0339,0.0014,-0.20,0.25,-0.44,0.170,-3.510,-0.740,-1.732,0.2103,-0.0111,0.0065,-0.0147,0.9953,0.0000,0.0000,0.2200,0.0368,-0.0211
2977,-0.0454,-0.0274,0.0015,-0.26,0.22,-0.45,0.170,-3.441,-0.492,-1.728,0.2103,-0.0126,0.0106,-0.0136,0.9974,0.0000,0.0000,0.2200,0.0363,-0.0214
2987,-0.0453,-0.0284,0.0016,-0.28,0.21,-0.47,0.171,-2.905,0.407,-1.789,0.2099,-0.0125,0.0103,-0.0138,1.0033,0.0000,0.0000,0.2200,0.0359,-0.0217
2997,-0.0468,-0.0277,0.0016,-0.31,0.22,-0.49,0.171,-0.346,0.926,-1.564,0.2096,-0.0124,0.0040,-0.0150,1.0026,0.0000,0.0000,0.2200,0.0354,-0.0220
3007,-0.0454,-0.0312,0.0016,-0.33,0.22,-0.51,0.171,-0.218,0.450,-1.059,0.2092,-0.0127,0.0083,-0.0140,0.9990,0.0000,0.0000,0.2200,0.0350,-0.0223
3017,-0.0453,-0.0292,0.0034,-0.36,0.21,-0.53,0.171,-0.323,0.436,-0.947,0.2089,-0.0126,0.0072,-0.0167,1.0012,0.0000,0.0000,0.2200,0.0345,-0.0226
3027,-0.0451,-0.0272,0.0031,-0.39,0.20,-0.54,0.172,-0.295,1.154,-1.127,0.2081,-0.0126,0.0092,-0.0122,1.0007,0.0000,0.0000,0.2200,0.0341,-0.0229
3037,-0.0455,-0.0266,0.0034,-0.40,0.20,-0.56,0.172,0.101,0.667,-1.485,0.2076,-0.0128,0.0087,-0.0110,0.9976,0.0000,0.0000,0.2200,0.0336,-0.0231
3047,-0.0452,-0.0247,0.0037,-0.41,0.18,-0.57,0.172,0.631,1.688,-1.441,0.2065,-0.0123,0.0063,-0.0096,1.0038,0.0000,0.0000,0.2200,0.0332,-0.0234
3057,-0.0466,-0.0231,0.0068,-0.41,0.18,-0.58,0.172,0.564,0.950,-1.505,0.2071,-0.0135,0.0041,-0.0127,1.0076,0.0000,0.0000,0.2200,0.0327,-0.0236
3067,-0.0469,-0.0224,0.0069,-0.42,0.17,-0.59,0.172,1.131,2.510,-1.345,0.2068,-0.0131,0.0043,-0.0102,1.0045,0.0000,0.0000,0.2200,0.0322,-0.0238
3077,-0.0497,-0.0190,0.0069,-0.44,0.18,-0.61,0.172,-1.309,1.914,-1.610,0.2058,-0.0141,0.0042,-0.0099,0.9998,0.0000,0.0000,0.2200,0.0317,-0.0240
3087,-0.0461,-0.0219,0.0069,-0.41,0.14,-0.62,0.173,3.015,2.190,-1.797,0.2052,-0.0143,0.0052,-0.0129,0.9979,0.0000,0.0000,0.2200,0.0313,-0.0242
3097,-0.0456,-0.0190,0.0073,-0.42,0.12,-0.63,0.173,0.552,2.648,-1.509,0.2042,-0.0139,0.0049,-0.0163,0.9972,0.0000,0.0000,0.2200,0.0308,-0.0244
3106,-0.0497,-0.0219,0.0078,-0.38,0.12,-0.65,0.173,-1.115,0.245,-2.340,0.2039,-0.0122,0.0058,-0.0175,0.9978,0.0000,0.0000,0.2200,0.0303,-0.0246
3117,-0.0500,-0.0213,0.0116,-0.38,0.10,-0.66,0.173,-2.025,0.598,-1.752,0.2040,-0.0141,0.0068,-0.0131,0.9958,0.0000,0.0000,0.2200,0.0298,-0.0249
3127,-0.0522,-0.0181,0.0116,-0.38,0.09,-0.68,0.172,0.178,0.087,-1.885,0.2035,-0.0143,0.0065,-0.0162,1.0001,0.0000,0.0000,0.2200,0.0293,-0.0250
3137,-0.0515,-0.0105,0.0115,-0.43,0.07,-0.70,0.172,-0.956,-0.109,-1.311,0.2031,-0.0142,0.0088,-0.0140,1.0015,0.0000,0.0000,0.2200,0.0288,-0.0251
3146,-0.0494,-0.0167,0.0113,-0.40,0.05,-0.72,0.172,-1.725,-0.942,-0.845,0.2028,-0.0146,0.0087,-0.0166,1.0017,0.0000,0.0000,0.2200,0.0283,-0.0253
3157,-0.0495,-0.0160,0.0094,-0.40,0.05,-0.74,0.172,-0.514,-1.670,-0.930,0.2028,-0.0137,0.0068,-0.0171,1.0019,0.0000,0.0000,0.2200,0.0278,-0.0255
3168,-0.0490,-0.0144,0.0090,-0.42,0.04,-0.75,0.172,-0.727,-0.611,-1.064,0.2029,-0.0142,0.0052,-0.0157,0.9974,0.0000,0.0000,0.2200,0.0273,-0.0256
3177,-0.0487,-0.0144,0.0090,-0.43,0.05,-0.76,0.172,1.198,-0.154,-0.914,0.2021,-0.0137,0.0068,-0.0178,1.0011,0.0000,0.0000,0.2200,0.0268,-0.0258
3187,-0.0468,-0.0100,0.0092,-0.46,0.05,-0.77,0.169,0.614,0.670,-0.578,0.2014,-0.0145,0.0040,-0.0198,0.9996,0.0000,0.0000,0.2200,0.0263,-0.0259
3197,-0.0450,-0.0104,0.0094,-0.45,0.05,-0.79,0.169,1.289,1.759,-0.900,0.2009,-0.0146,0.0064,-0.0202,0.9942,0.0000,0.0000,0.2200,0.0259,-0.0260
3206,-0.0462,-0.0077,0.0095,-0.47,0.06,-0.79,0.169,1.119,3.386,-1.422,0.2007,-0.0146,0.0068,-0.0131,0.9972,0.0000,0.0000,0.2200,0.0254,-0.0260
3217,-0.0472,-0.0094,0.0006,-0.46,0.06,-0.80,0.169,0.040,3.031,-0.833,0.1992,-0.0150,0.0039,-0.0143,1.0002,0.0000,0.0000,0.2200,0.0250,-0.0261
3226,-0.0473,-0.0086,0.0007,-0.45,0.05,-0.81,0.170,1.470,2.799,-1.246,0.1987,-0.0151,0.0084,-0.0126,1.0009,0.0000,0.0000,0.2200,0.0245,-0.0262
3236,-0.0465,-0.0076,0.0006,-0.44,0.03,-0.82,0.170,3.839,2.835,-0.849,0.1985,-0.0151,0.0083,-0.0174,1.0005,0.0000,0.0000,0.2200,0.0240,-0.0263
3247,-0.0502,-0.0079,0.0000,-0.42,0.02,-0.83,0.170,0.128,2.666,-1.471,0.1978,-0.0152,0.0077,-0.0174,0.9996,0.0000,0.0000,0.2200,0.0235,-0.0264
3256,-0.0502,-0.0072,-0.0029,-0.40,-0.01,-0.84,0.170,3.539,2.931,-1.731,0.1980,-0.0157,0.0047,-0.0157,1.0042,0.0000,0.0000,0.2200,0.0230,-0.0264
3267,-0.0491,-0.0064,-0.0029,-0.39,-0.05,-0.85,0.170,-1.997,0.573,-1.173,0.1978,-0.0162,0.0101,-0.0168,1.0071,0.0000,0.0000,0.2200,0.0225,-0.0265
3276,-0.0496,-0.0058,-0.0028,-0.36,-0.07,-0.87,0.170,-1.719,-0.195,-0.941,0.1974,-0.0152,0.0074,-0.0135,1.0047,0.0000,0.0000,0.2200,0.0220,-0.0266
3287,-0.0470,-0.0068,-0.0027,-0.33,-0.12,-0.88,0.170,0.021,-0.285,-0.949,0.1975,-0.0135,0.0079,-0.0164,1.0005,0.0000,0.0000,0.2200,0.0216,-0.0266
3296,-0.0461,-0.0076,-0.0027,-0.30,-0.14,-0.90,0.170,-1.938,-0.678,-0.398,0.1971,-0.0159,0.0036,-0.0167,1.0016,0.0000,0.0000,0.2200,0.0211,-0.0267
3307,-0.0454,-0.0034,-0.0023,-0.35,-0.15,-0.91,0.170,-0.329,-0.856,-0.956,0.1971,-0.0155,0.0015,-0.0140,1.0005,0.0000,0.0000,0.2200,0.0206,-0.0267
3317,-0.0432,0.0035,-0.0030,-0.41,-0.16,-0.92,0.170,0.104,-0.358,-0.762,0.1972,-0.0159,0.0040,-0.0133,1.0009,0.0000,0.0000,0.2200,0.0202,-0.0267
3327,-0.0429,-0.0046,-0.0025,-0.36,-0.14,-0.93,0.169,0.453,-0.343,-0.477,0.1964,-0.0155,0.0036,-0.0107,1.0018,0.0000,0.0000,0.2200,0.0198,-0.0268
3337,-0.0409,-0.0024,-0.0024,-0.37,-0.15,-0.93,0.169,-1.235,-0.024,-0.470,0.1960,-0.0154,0.0075,-0.0160,1.0018,0.0000,0.0000,0.2200,0.0194,-0.0268
3346,-0.0391,-0.0030,-0.0023,-0.37,-0.15,-0.94,0.169,0.147,-0.201,0.049,0.1957,-0.0159,0.0054,-0.0204,0.9995,0.0000,0.0000,0.2200,0.0190,-0.0268
3356,-0.0401,-0.0007,-0.0049,-0.38,-0.14,-0.95,0.169,3.270,1.591,-0.944,0.1957,-0.0155,0.0086,-0.0196,1.0021,0.0000,0.0000,0.2200,0.0186,-0.0268
3366,-0.0398,0.0001,-0.0048,-0.39,-0.13,-0.95,0.169,-0.553,0.257,-1.246,0.1946,-0.0148,0.0081,-0.0164,1.0047,0.0000,0.0000,0.2200,0.0182,-0.0268
3377,-0.0395,-0.0007,-0.0047,-0.38,-0.13,-0.96,0.169,0.478,0.265,-1.359,0.1947,-0.0140,0.0081,-0.0133,1.0042,0.0000,0.0000,0.2200,0.0178,-0.0268
3387,-0.0375,0.0011,-0.0045,-0.37,-0.15,-0.96,0.173,1.055,-0.563,-1.179,0.1943,-0.0155,0.0062,-0.0159,1.0033,0.0000,0.0000,0.2200,0.0174,-0.0268
3396,-0.0399,0.0044,-0.0046,-0.36,-0.14,-0.97,0.173,0.145,-1.683,-0.996,0.1926,-0.0162,0.0104,-0.0155,1.0034,0.0000,0.0000,0.2200,0.0170,-0.0268
3407,-0.0379,0.0078,-0.0043,-0.39,-0.15,-0.99,0.173,0.218,-1.649,-0.309,0.1927,-0.0151,0.0045,-0.0134,1.0032,0.0000,0.0000,0.2200,0.0166,-0.0267
3417,-0.0378,0.0027,0.0041,-0.35,-0.15,-0.99,0.173,3.646,-0.630,-1.075,0.1923,-0.0150,0.0052,-0.0133,1.0036,0.0000,0.0000,0.2200,0.0163,-0.0267
3427,-0.0419,0.0006,0.0045,-0.33,-0.11,-1.00,0.169,2.249,-0.068,-0.284,0.1923,-0.0159,0.0068,-0.0148,1.0019,0.0000,0.0000,0.2200,0.0158,-0.0267
3437,-0.0401,0.0053,0.0048,-0.36,-0.11,-1.01,0.169,2.357,0.599,-1.505,0.1924,-0.0149,0.0042,-0.0148,1.0034,0.0000,0.0000,0.2200,0.0154,-0.0266
3446,-0.0399,0.0059,0.0052,-0.33,-0.10,-1.02,0.169,-0.625,1.230,0.277,0.1924,-0.0152,0.0062,-0.0194,1.0033,0.0000,0.0000,0.2200,0.0150,-0.0265
3457,-0.0381,0.0032,0.0009,-0.29,-0.10,-1.02,0.169,0.608,0.844,-0.047,0.1925,-0.0148,0.0064,-0.0168,1.0067,0.0000,0.0000,0.2200,0.0147,-0.0265
3466,-0.0362,0.0074,0.0012,-0.28,-0.11,-1.03,0.169,0.187,1.901,-0.638,0.1926,-0.0137,0.0059,-0.0190,1.0010,0.0000,0.0000,0.2200,0.0143,-0.0264
3477,-0.0345,0.0064,0.0015,-0.28,-0.13,-1.04,0.169,-1.520,1.289,-0.391,0.1923,-0.0129,0.0086,-0.0164,1.0012,0.0000,0.0000,0.2200,0.0140,-0.0264
3486,-0.0327,0.0079,0.0018,-0.28,-0.15,-1.04,0.172,-3.124,1.182,-0.603,0.1912,-0.0139,0.0065,-0.0133,1.0007,0.0000,0.0000,0.2200,0.0136,-0.0263
3497,-0.0309,0.0123,0.0022,-0.31,-0.17,-1.04,0.172,-2.214,0.596,-0.311,0.1920,-0.0139,0.0089,-0.0111,1.0049,0.0000,0.0000,0.2200,0.0133,-0.0262
3506,-0.0305,0.0153,0.0026,-0.33,-0.19,-1.05,0.172,-0.366,1.196,0.003,0.1918,-0.0138,0.0095,-0.0172,1.0039,0.0000,0.0000,0.2200,0.0130,-0.0260
3517,-0.0332,0.0115,0.0065,-0.33,-0.18,-1.05,0.172,1.006,-0.345,-0.064,0.1906,-0.0146,0.0057,-0.0166,1.0033,0.0000,0.0000,0.2200,0.0127,-0.0259
3526,-0.0286,0.0117,0.0066,-0.34,-0.22,-1.06,0.169,2.453,0.324,0.148,0.1886,-0.0163,0.0057,-0.0154,1.0018,0.0000,0.0000,0.2200,0.0124,-0.0258
3536,-0.0282,0.0123,0.0068,-0.36,-0.23,-1.06,0.169,-0.153,-1.192,0.369,0.1890,-0.0167,0.0080,-0.0109,1.0055,0.0000,0.0000,0.2200,0.0121,-0.0257
3547,-0.0310,0.0094,0.0072,-0.32,-0.21,-1.06,0.169,2.247,0.794,1.017,0.1883,-0.0171,0.0069,-0.0121,1.0050,0.0000,0.0000,0.2200,0.0118,-0.0256
3556,-0.0366,0.0037,0.0024,-0.27,-0.17,-1.06,0.169,2.211,0.668,0.179,0.1879,-0.0171,0.0085,-0.0139,1.0065,0.0000,0.0000,0.2200,0.0114,-0.0255
3567,-0.0336,0.0025,0.0028,-0.25,-0.18,-1.05,0.169,3.816,0.617,-0.421,0.1880,-0.0164,0.0058,-0.0198,1.0043,0.0000,0.0000,0.2200,0.0111,-0.0255
3578,-0.0347,0.0013,0.0030,-0.23,-0.17,-1.04,0.169,-0.010,1.341,-0.301,0.1877,-0.0145,0.0057,-0.0146,1.0051,0.0000,0.0000,0.2200,0.0108,-0.0255
3586,-0.0344,0.0017,0.0036,-0.20,-0.18,-1.04,0.173,1.980,-0.071,-0.385,0.1874,-0.0143,0.0058,-0.0167,1.0005,0.0000,0.0000,0.2200,0.0104,-0.0255
3597,-0.0325,0.0044,0.0041,-0.18,-0.19,-1.04,0.173,3.152,1.170,0.404,0.1870,-0.0177,0.0100,-0.0165,1.0020,0.0000,0.0000,0.2200,0.0101,-0.0254
3606,-0.0320,0.0117,0.0047,-0.22,-0.21,-1.05,0.173,0.720,0.285,0.409,0.1862,-0.0178,0.0044,-0.0171,1.0029,0.0000,0.0000,0.2200,0.0098,-0.0253
3617,-0.0317,0.0121,0.0106,-0.20,-0.21,-1.06,0.173,-0.264,-0.284,0.760,0.1863,-0.0169,0.0045,-0.0151,1.0039,0.0000,0.0000,0.2200,0.0094,-0.0252
3626,-0.0317,-0.0001,0.0111,-0.09,-0.21,-1.05,0.172,-0.522,-0.211,-0.244,0.1863,-0.0161,0.0048,-0.0165,1.0052,0.0000,0.0000,0.2200,0.0091,-0.0252
3637,-0.0329,-0.0002,0.0112,-0.07,-0.21,-1.05,0.172,-3.130,0.129,-0.011,0.1860,-0.0160,0.0055,-0.0159,1.0050,0.0000,0.0000,0.2200,0.0088,-0.0252
3646,-0.0312,0.0029,0.0114,-0.09,-0.21,-1.04,0.172,-1.583,-0.084,0.773,0.1856,-0.0160,0.0081,-0.0176,1.0046,0.0000,0.0000,0.2200,0.0085,-0.0252
3657,-0.0296,0.0060,0.0115,-0.11,-0.22,-1.04,0.172,-0.528,-0.100,-0.005,0.1844,-0.0167,0.0080,-0.0151,1.0041,0.0000,0.0000,0.2200,0.0082,-0.0251
3666,-0.0292,0.0061,0.0119,-0.13,-0.22,-1.04,0.172,-1.906,0.851,0.223,0.1853,-0.0164,0.0052,-0.0170,1.0042,0.0000,0.0000,0.2200,0.0079,-0.0250
3676,-0.0291,0.0064,0.0124,-0.16,-0.22,-1.04,0.172,0.472,0.593,-0.608,0.1846,-0.0146,0.0057,-0.0128,1.0025,0.0000,0.0000,0.2200,0.0076,-0.0250
3687,-0.0320,0.0036,0.0129,-0.15,-0.19,-1.03,0.172,-1.403,-0.624,0.391,0.1846,-0.0154,0.0079,-0.0160,0.9997,0.0000,0.0000,0.2200,0.0073,-0.0249
3696,-0.0272,0.0052,0.0134,-0.16,-0.23,-1.03,0.172,2.868,1.538,-0.235,0.1847,-0.0159,0.0064,-0.0168,1.0008,0.0000,0.0000,0.2200,0.0070,-0.0249
3706,-0.0285,0.0115,0.0138,-0.22,-0.22,-1.03,0.172,0.266,0.140,-0.148,0.1847,-0.0172,0.0030,-0.0163,1.0030,0.0000,0.0000,0.2200,0.0067,-0.0248
3716,-0.0271,0.0086,0.0124,-0.21,-0.23,-1.03,0.172,0.273,-0.504,-0.356,0.1847,-0.0164,0.0047,-0.0179,0.9989,0.0000,0.0000,0.2200,0.0065,-0.0247
3726,-0.0254,0.0068,0.0126,-0.17,-0.25,-1.03,0.172,-2.204,-1.082,-0.004,0.1843,-0.0159,0.0063,-0.0166,1.0000,0.0000,0.0000,0.2200,0.0062,-0.0246
3737,-0.0240,0.0024,0.0126,-0.13,-0.26,-1.03,0.172,-0.439,-0.283,-0.532,0.1839,-0.0167,0.0082,-0.0179,1.0055,0.0000,0.0000,0.2200,0.0060,-0.0246
3746,-0.0227,0.0052,0.0127,-0.14,-0.26,-1.03,0.172,-3.279,-1.398,-0.413,0.1839,-0.0155,0.0040,-0.0154,1.0028,0.0000,0.0000,0.2200,0.0057,-0.0246
3756,-0.0228,0.0070,0.0109,-0.17,-0.25,-1.04,0.172,-0.979,-0.306,-0.135,0.1828,-0.0146,0.0054,-0.0140,1.0014,0.0000,0.0000,0.2200,0.0055,-0.0245
3766,-0.0229,0.0042,0.0109,-0.15,-0.24,-1.04,0.172,-2.584,1.099,0.269,0.1824,-0.0146,0.0057,-0.0139,1.0028,0.0000,0.0000,0.2200,0.0053,-0.0244
3776,-0.0217,0.0089,0.0110,-0.21,-0.24,-1.04,0.172,0.552,-0.579,-0.961,0.1825,-0.0142,0.0064,-0.0146,1.0054,0.0000,0.0000,0.2200,0.0051,-0.0243
3786,-0.0247,0.0120,0.0114,-0.25,-0.21,-1.05,0.174,1.973,1.267,0.301,0.1822,-0.0140,0.0080,-0.0141,1.0023,0.0000,0.0000,0.2200,0.0048,-0.0242
3796,-0.0246,0.0120,0.0116,-0.25,-0.21,-1.05,0.174,2.241,1.116,0.240,0.1820,-0.0139,0.0109,-0.0154,1.0032,0.0000,0.0000,0.2200,0.0046,-0.0241
3807,-0.0232,0.0136,0.0118,-0.28,-0.22,-1.05,0.174,4.541,0.993,-0.709,0.1820,-0.0136,0.0078,-0.0172,1.0026,0.0000,0.0000,0.2200,0.0043,-0.0240
3817,-0.0229,0.0140,0.0138,-0.26,-0.22,-1.06,0.174,0.051,-0.565,-0.353,0.1818,-0.0135,0.0096,-0.0162,1.0003,0.0000,0.0000,0.2200,0.0041,-0.0238
3826,-0.0225,0.0145,0.0143,-0.25,-0.23,-1.05,0.171,3.989,0.033,-0.312,0.1801,-0.0140,0.0054,-0.0194,1.0015,0.0000,0.0000,0.2200,0.0039,-0.0237
3837,-0.0210,0.0153,0.0145,-0.22,-0.25,-1.05,0.171,-1.273,-0.512,-0.258,0.1810,-0.0133,0.0045,-0.0172,1.0004,0.0000,0.0000,0.2200,0.0037,-0.0235
3846,-0.0206,0.0157,0.0149,-0.19,-0.26,-1.06,0.171,1.317,-0.322,-0.169,0.1802,-0.0162,0.0076,-0.0173,1.0008,0.0000,0.0000,0.2200,0.0035,-0.0234
3856,-0.0256,0.0135,0.0082,-0.15,-0.21,-1.06,0.171,-1.835,-0.286,-0.106,0.1802,-0.0137,0.0038,-0.0132,1.0046,0.0000,0.0000,0.2200,0.0032,-0.0232
3866,-0.0209,0.0160,0.0083,-0.15,-0.24,-1.07,0.171,1.239,0.213,-0.821,0.1802,-0.0142,0.0083,-0.0121,1.0046,0.0000,0.0000,0.2200,0.0030,-0.0231
3877,-0.0229,0.0049,0.0085,-0.08,-0.22,-1.06,0.171,-2.838,1.207,0.316,0.1803,-0.0121,0.0028,-0.0140,1.0057,0.0000,0.0000,0.2200,0.0028,-0.0230
3887,-0.0215,0.0140,0.0086,-0.14,-0.22,-1.07,0.173,0.252,-0.588,0.200,0.1804,-0.0104,0.0049,-0.0189,1.0027,0.0000,0.0000,0.2200,0.0026,-0.0229
3896,-0.0203,0.0120,0.0088,-0.12,-0.23,-1.07,0.173,1.723,-0.150,0.389,0.1803,-0.0138,0.0041,-0.0174,1.0030,0.0000,0.0000,0.2200,0.0024,-0.0228
3906,-0.0187,0.0194,0.0092,-0.18,-0.24,-1.08,0.173,-0.611,-0.682,0.274,0.1802,-0.0136,0.0045,-0.0117,1.0037,0.0000,0.0000,0.2200,0.0022,-0.0226
3916,-0.0175,0.0252,0.0087,-0.23,-0.24,-1.08,0.173,2.517,0.087,-0.174,0.1802,-0.0121,0.0051,-0.0123,1.0031,0.0000,0.0000,0.2200,0.0020,-0.0223
3927,-0.0166,0.0124,0.0093,-0.13,-0.25,-1.07,0.173,1.693,-2.111,0.043,0.1801,-0.0138,0.0049,-0.0161,1.0004,0.0000,0.0000,0.2200,0.0018,-0.0222
3936,-0.0161,0.0127,0.0096,-0.13,-0.24,-1.07,0.173,0.156,-1.197,-0.697,0.1801,-0.0122,0.0046,-0.0164,1.0023,0.0000,0.0000,0.2200,0.0017,-0.0221
3946,-0.0149,0.0181,0.0099,-0.15,-0.24,-1.07,0.173,2.175,-0.592,-0.189,0.1801,-0.0127,0.0001,-0.0144,1.0047,0.0000,0.0000,0.2200,0.0015,-0.0219
3956,-0.0142,0.0113,0.0089,-0.08,-0.23,-1.07,0.173,-1.496,-0.739,-0.269,0.1801,-0.0156,0.0034,-0.0169,0.9991,0.0000,0.0000,0.2200,0.0014,-0.0218
3966,-0.0133,0.0168,0.0091,-0.11,-0.22,-1.07,0.173,-1.888,1.200,0.236,0.1801,-0.0140,0.0045,-0.0146,1.0004,0.0000,0.0000,0.2200,0.0012,-0.0216
3976,-0.0126,0.0146,0.0092,-0.08,-0.21,-1.07,0.173,-1.285,0.464,-0.411,0.1802,-0.0107,0.0070,-0.0159,1.0031,0.0000,0.0000,0.2200,0.0011,-0.0215
3987,-0.0119,0.0041,0.0096,-0.02,-0.21,-1.07,0.176,-4.405,0.307,0.043,0.1802,-0.0118,0.0056,-0.0164,1.0059,0.0000,0.0000,0.2200,0.0010,-0.0214
3996,-0.0110,0.0097,0.0099,-0.06,-0.21,-1.07,0.176,-0.756,-0.095,-0.419,0.1798,-0.0117,0.0072,-0.0183,1.0019,0.0000,0.0000,0.2200,0.0009,-0.0213
4006,-0.0099,0.0213,0.0098,-0.15,-0.22,-1.08,0.176,0.864,-0.141,0.293,0.1798,-0.0137,0.0056,-0.0191,0.9998,0.0000,0.0000,0.2200,0.0008,-0.0211
4016,-0.0091,0.0168,0.0147,-0.15,-0.23,-1.08,0.176,2.082,0.137,0.270,0.1797,-0.0136,0.0003,-0.0165,0.9981,0.0000,0.0000,0.2200,0.0007,-0.0209
4026,-0.0098,0.0166,0.0150,-0.16,-0.22,-1.08,0.175,0.162,-0.387,0.507,0.1797,-0.0120,0.0032,-0.0176,1.0009,0.0000,0.0000,0.2200,0.0006,-0.0208
4036,-0.0091,0.0092,0.0156,-0.12,-0.23,-1.07,0.175,2.386,-0.926,0.585,0.1794,-0.0076,0.0030,-0.0177,1.0018,0.0000,0.0000,0.2200,0.0005,-0.0207
4046,-0.0087,0.0094,0.0157,-0.10,-0.23,-1.07,0.175,2.539,-1.309,0.575,0.1794,-0.0082,0.0049,-0.0213,0.9998,0.0000,0.0000,0.2200,0.0004,-0.0206
4056,-0.0079,0.0149,0.0146,-0.13,-0.23,-1.07,0.175,1.125,-1.198,0.421,0.1793,-0.0086,0.0047,-0.0158,0.9976,0.0000,0.0000,0.2200,0.0003,-0.0204
4066,-0.0084,0.0304,0.0144,-0.21,-0.21,-1.07,0.175,0.819,0.504,0.006,0.1794,-0.0079,0.0038,-0.0157,0.9995,0.0000,0.0000,0.2200,0.0003,-0.0201
4076,-0.0079,0.0277,0.0146,-0.16,-0.20,-1.06,0.175,1.663,-1.462,0.255,0.1797,-0.0079,0.0033,-0.0150,0.9971,0.0000,0.0000,0.2200,0.0002,-0.0199
4086,-0.0073,0.0253,0.0147,-0.13,-0.20,-1.05,0.178,1.401,-0.884,-0.253,0.1794,-0.0077,0.0072,-0.0146,1.0009,0.0000,0.0000,0.2200,0.0001,-0.0196
4096,-0.0066,0.0274,0.0146,-0.14,-0.20,-1.05,0.178,1.014,-0.842,0.414,0.1793,-0.0073,0.0053,-0.0160,0.9991,0.0000,0.0000,0.2200,0.0000,-0.0193
4106,-0.0047,0.0264,0.0144,-0.12,-0.20,-1.05,0.178,-1.997,-1.739,0.559,0.1793,-0.0070,0.0061,-0.0182,1.0006,0.0000,0.0000,0.2200,-0.0000,-0.0191
4116,-0.0055,0.0265,0.0185,-0.09,-0.19,-1.05,0.178,-0.830,-1.091,-1.052,0.1792,-0.0068,0.0072,-0.0151,1.0014,0.0000,0.0000,0.2200,-0.0001,-0.0188
4126,-0.0050,0.0270,0.0183,-0.08,-0.18,-1.05,0.180,-2.222,-1.149,0.111,0.1793,-0.0063,0.0007,-0.0133,1.0005,0.0000,0.0000,0.2200,-0.0001,-0.0185
4136,-0.0047,0.0272,0.0183,-0.09,-0.17,-1.04,0.180,0.699,0.186,-0.458,0.1792,-0.0072,0.0034,-0.0175,0.9972,0.0000,0.0000,0.2200,-0.0002,-0.0183
4146,-0.0044,0.0273,0.0182,-0.09,-0.16,-1.05,0.180,2.011,-0.148,-0.903,0.1792,-0.0060,0.0067,-0.0173,1.0003,0.0000,0.0000,0.2200,-0.0002,-0.0180
4155,-0.0040,0.0281,0.0232,-0.11,-0.15,-1.05,0.180,-0.201,-0.227,-0.244,0.1792,-0.0065,0.0066,-0.0134,1.0013,0.0000,0.0000,0.2200,-0.0002,-0.0177
4166,-0.0036,0.0240,0.0234,-0.08,-0.15,-1.05,0.180,2.875,0.108,-0.772,0.1792,-0.0063,0.0061,-0.0147,0.9993,0.0000,0.0000,0.2200,-0.0003,-0.0175
4176,-0.0033,0.0277,0.0233,-0.09,-0.14,-1.06,0.180,2.063,0.317,-0.522,0.1793,-0.0060,0.0074,-0.0178,0.9973,0.0000,0.0000,0.2200,-0.0003,-0.0172
4186,-0.0029,0.0250,0.0230,-0.06,-0.14,-1.07,0.178,0.464,0.634,-0.265,0.1792,-0.0057,0.0069,-0.0141,0.9959,0.0000,0.0000,0.2200,-0.0003,-0.0169
4196,-0.0027,0.0251,0.0231,-0.05,-0.14,-1.07,0.178,2.440,1.308,0.415,0.1788,-0.0059,0.0067,-0.0129,0.9975,0.0000,0.0000,0.2200,-0.0004,-0.0167
4206,-0.0021,0.0254,0.0231,-0.03,-0.15,-1.08,0.178,1.586,-1.442,0.207,0.1792,-0.0063,0.0080,-0.0147,0.9965,0.0000,0.0000,0.2200,-0.0004,-0.0164
4216,-0.0018,0.0255,0.0185,-0.02,-0.16,-1.08,0.178,1.748,1.737,-0.763,0.1789,-0.0061,0.0051,-0.0149,0.9951,0.0000,0.0000,0.2200,-0.0004,-0.0162
4226,-0.0030,0.0238,0.0182,0.03,-0.15,-1.08,0.180,2.397,-0.902,0.444,0.1793,-0.0043,-0.0002,-0.0177,0.9927,0.0000,0.0000,0.2200,-0.0004,-0.0160
4236,-0.0010,0.0213,0.0179,0.05,-0.16,-1.08,0.180,-0.239,0.273,0.279,0.1793,-0.0061,0.0054,-0.0180,0.9904,0.0000,0.0000,0.2200,-0.0004,-0.0157
4246,-0.0021,0.0215,0.0175,0.07,-0.16,-1.08,0.180,1.754,-0.237,0.144,0.1793,-0.0054,0.0083,-0.0168,0.9926,0.0000,0.0000,0.2200,-0.0005,-0.0155
4256,-0.0002,0.0267,0.0174,0.04,-0.17,-1.08,0.180,1.091,-0.077,-0.585,0.1793,-0.0052,0.0077,-0.0161,0.9939,0.0000,0.0000,0.2200,-0.0005,-0.0153
4266,0.0001,0.0193,0.0169,0.10,-0.17,-1.07,0.180,-2.235,0.127,0.743,0.1793,-0.0050,0.0076,-0.0147,0.9943,0.0000,0.0000,0.2200,-0.0005,-0.0151
4276,0.0003,0.0211,0.0161,0.10,-0.16,-1.07,0.180,0.900,-0.318,0.081,0.1797,-0.0060,0.0066,-0.0155,0.9956,0.0000,0.0000,0.2200,-0.0005,-0.0149
4285,0.0005,0.0209,0.0152,0.10,-0.17,-1.08,0.182,-1.714,0.324,1.030,0.1797,-0.0058,0.0065,-0.0165,0.9940,0.0000,0.0000,0.2200,-0.0005,-0.0146
4296,0.0008,0.0207,0.0145,0.10,-0.17,-1.07,0.182,-0.970,0.655,0.378,0.1797,-0.0056,0.0051,-0.0151,0.9912,0.0000,0.0000,0.2200,-0.0004,-0.0144
4306,0.0022,0.0166,0.0146,0.12,-0.18,-1.07,0.182,-0.851,-1.089,0.179,0.1792,-0.0066,0.0039,-0.0164,0.9967,0.0000,0.0000,0.2200,-0.0004,-0.0143
4316,0.0025,0.0164,0.0166,0.12,-0.17,-1.07,0.182,3.165,-1.171,-0.024,0.1791,-0.0062,0.0036,-0.0113,0.9957,0.0000,0.0000,0.2200,-0.0004,-0.0141
4326,0.0028,0.0162,0.0160,0.11,-0.18,-1.06,0.176,1.198,-0.181,1.472,0.1796,-0.0058,0.0057,-0.0096,0.9951,0.0000,0.0000,0.2200,-0.0004,-0.0139
4336,0.0012,0.0121,0.0156,0.13,-0.17,-1.05,0.176,-2.213,0.374,0.535,0.1796,-0.0057,0.0070,-0.0123,0.9949,0.0000,0.0000,0.2200,-0.0004,-0.0138
4346,0.0012,0.0128,0.0149,0.11,-0.16,-1.05,0.176,3.339,-1.588,1.016,0.1795,-0.0063,0.0076,-0.0143,0.9942,0.0000,0.0000,0.2200,-0.0003,-0.0137
4355,0.0031,0.0134,0.0012,0.13,-0.16,-1.04,0.176,-2.447,-0.819,0.326,0.1796,-0.0062,0.0041,-0.0121,0.9944,0.0000,0.0000,0.2200,-0.0003,-0.0136
4366,0.0033,0.0131,0.0009,0.15,-0.16,-1.04,0.176,-0.785,-0.946,0.778,0.1801,-0.0038,0.0020,-0.0114,0.9920,0.0000,0.0000,0.2200,-0.0003,-0.0134
4376,0.0031,0.0103,0.0004,0.16,-0.17,-1.03,0.176,-1.388,-1.080,0.167,0.1799,-0.0053,0.0041,-0.0172,0.9956,0.0000,0.0000,0.2200,-0.0003,-0.0133
4385,0.0034,0.0100,-0.0001,0.18,-0.15,-1.02,0.179,-1.346,-2.360,0.156,0.1808,-0.0052,0.0037,-0.0155,0.9954,0.0000,0.0000,0.2200,-0.0002,-0.0132
4397,0.0052,0.0175,-0.0007,0.12,-0.16,-1.02,0.179,-3.508,0.120,-0.161,0.1813,-0.0009,0.0074,-0.0136,0.9975,0.0000,0.0000,0.2200,-0.0002,-0.0131
4406,0.0049,0.0119,-0.0012,0.16,-0.14,-1.01,0.179,-1.537,-1.510,0.795,0.1817,-0.0009,0.0065,-0.0140,0.9974,0.0000,0.0000,0.2200,-0.0001,-0.0129
4416,0.0079,0.0113,-0.0032,0.13,-0.15,-1.01,0.179,-3.481,-0.797,0.015,0.1821,-0.0023,0.0040,-0.0125,0.9961,0.0000,0.0000,0.2200,-0.0000,-0.0128
4425,0.0096,0.0254,-0.0039,0.03,-0.13,-1.01,0.179,-1.420,-2.449,-1.102,0.1820,-0.0018,0.0021,-0.0135,0.9985,0.0000,0.0000,0.2200,0.0001,-0.0126
4436,0.0108,0.0244,-0.0043,0.01,-0.13,-1.01,0.179,1.804,-2.309,-0.423,0.1821,-0.0016,0.0047,-0.0168,1.0014,0.0000,0.0000,0.2200,0.0002,-0.0123
4445,0.0120,0.0187,-0.0047,0.03,-0.12,-1.00,0.179,0.441,0.343,-0.058,0.1821,-0.0012,0.0059,-0.0184,1.0017,0.0000,0.0000,0.2200,0.0003,-0.0121
4456,0.0115,0.0199,-0.0052,-0.00,-0.11,-1.00,0.179,-2.362,-0.062,0.207,0.1820,-0.0027,0.0027,-0.0138,0.9994,0.0000,0.0000,0.2200,0.0004,-0.0119
4465,0.0117,0.0199,-0.0056,-0.03,-0.09,-1.01,0.179,-0.231,-0.655,0.383,0.1819,-0.0012,0.0045,-0.0099,1.0007,0.0000,0.0000,0.2200,0.0005,-0.0117
4476,0.0112,0.0204,-0.0058,-0.01,-0.07,-1.01,0.179,0.450,0.665,-0.962,0.1820,-0.0010,0.0058,-0.0125,1.0022,0.0000,0.0000,0.2200,0.0006,-0.0115
4485,0.0108,0.0149,-0.0059,0.03,-0.06,-1.01,0.179,3.892,-0.444,-1.467,0.1820,-0.0017,0.0086,-0.0170,1.0016,0.0000,0.0000,0.2200,0.0007,-0.0114
4496,0.0103,0.0193,-0.0057,-0.01,-0.06,-1.01,0.179,-0.200,-1.718,-1.104,0.1829,-0.0008,0.0063,-0.0129,1.0018,0.0000,0.0000,0.2200,0.0008,-0.0112
4505,0.0104,0.0193,-0.0056,-0.03,-0.05,-1.01,0.179,0.786,-1.360,-1.749,0.1824,-0.0008,0.0058,-0.0160,1.0003,0.0000,0.0000,0.2200,0.0009,-0.0110
4516,0.0100,0.0165,-0.0051,-0.01,-0.05,-1.01,0.179,-1.219,-1.674,-0.834,0.1822,-0.0028,0.0064,-0.0186,1.0028,0.0000,0.0000,0.2200,0.0010,-0.0108
4525,0.0127,0.0190,-0.0049,0.00,-0.07,-1.03,0.177,-2.531,-1.170,-1.265,0.1827,-0.0008,0.0055,-0.0167,0.9998,0.0000,0.0000,0.2200,0.0012,-0.0106
4536,0.0107,0.0184,-0.0047,0.01,-0.04,-1.04,0.177,1.137,-2.277,-2.107,0.1825,-0.0023,0.0057,-0.0129,1.0011,0.0000,0.0000,0.2200,0.0013,-0.0105
4546,0.0099,0.0111,-0.0045,0.05,-0.03,-1.05,0.177,1.705,-1.424,-1.569,0.1824,-0.0032,0.0059,-0.0150,1.0059,0.0000,0.0000,0.2200,0.0014,-0.0103
4555,0.0111,0.0172,-0.0079,0.02,-0.02,-1.06,0.177,2.499,-0.036,-0.805,0.1824,-0.0010,0.0045,-0.0137,1.0026,0.0000,0.0000,0.2200,0.0015,-0.0102
4566,0.0103,0.0118,-0.0078,0.02,0.00,-1.07,0.177,1.047,1.070,0.093,0.1824,-0.0021,0.0079,-0.0144,1.0023,0.0000,0.0000,0.2200,0.0016,-0.0101
4576,0.0097,0.0082,-0.0075,0.05,0.02,-1.09,0.177,-1.391,1.340,-0.663,0.1824,-0.0035,0.0080,-0.0156,1.0001,0.0000,0.0000,0.2200,0.0017,-0.0100
4586,0.0093,0.0151,-0.0075,0.01,0.04,-1.11,0.178,1.904,1.069,-1.428,0.1819,-0.0035,0.0064,-0.0165,1.0031,0.0000,0.0000,0.2200,0.0018,-0.0098
4596,0.0087,0.0111,-0.0072,0.06,0.05,-1.12,0.178,-0.314,1.184,-0.875,0.1825,-0.0013,0.0062,-0.0152,1.0042,0.0000,0.0000,0.2200,0.0019,-0.0097
4606,0.0084,0.0060,-0.0067,0.11,0.05,-1.12,0.178,1.062,0.490,-0.414,0.1824,-0.0036,0.0054,-0.0150,1.0042,0.0000,0.0000,0.2200,0.0020,-0.0097
4616,0.0065,0.0054,-0.0055,0.11,0.04,-1.12,0.178,-1.699,0.398,-1.449,0.1825,-0.0027,0.0041,-0.0175,1.0069,0.0000,0.0000,0.2200,0.0020,-0.0096
4626,0.0079,0.0124,-0.0053,0.08,0.03,-1.14,0.181,-1.710,1.148,-0.063,0.1825,-0.0023,0.0051,-0.0183,1.0084,0.0000,0.0000,0.2200,0.0021,-0.0095
4636,0.0074,0.0042,-0.0052,0.13,0.02,-1.14,0.181,-1.402,-0.855,-1.135,0.1824,-0.0035,0.0063,-0.0145,1.0071,0.0000,0.0000,0.2200,0.0022,-0.0094
4646,0.0073,0.0069,-0.0049,0.12,0.01,-1.15,0.181,-1.403,-1.288,-1.155,0.1829,-0.0026,0.0041,-0.0118,1.0055,0.0000,0.0000,0.2200,0.0022,-0.0094
4656,0.0072,0.0079,0.0029,0.10,0.00,-1.16,0.181,0.029,-1.850,-1.022,0.1828,-0.0034,0.0082,-0.0072,1.0068,0.0000,0.0000,0.2200,0.0023,-0.0093
4665,0.0068,0.0033,0.0034,0.12,-0.00,-1.17,0.181,-1.185,-1.053,0.131,0.1827,-0.0017,0.0071,-0.0099,1.0050,0.0000,0.0000,0.2200,0.0024,-0.0092
4676,0.0080,0.0061,0.0041,0.08,-0.00,-1.18,0.181,-2.914,-1.823,-1.160,0.1826,-0.0033,0.0063,-0.0133,1.0054,0.0000,0.0000,0.2200,0.0025,-0.0092
4685,0.0074,0.0030,0.0049,0.08,0.01,-1.19,0.176,-1.598,-1.917,-1.232,0.1830,-0.0028,0.0050,-0.0147,1.0044,0.0000,0.0000,0.2200,0.0025,-0.0092
4696,0.0070,0.0086,0.0055,0.04,0.03,-1.20,0.176,-1.747,-2.053,-1.617,0.1829,-0.0032,0.0072,-0.0185,1.0061,0.0000,0.0000,0.2200,0.0026,-0.0091
4705,0.0064,0.0027,0.0061,0.07,0.05,-1.20,0.176,-1.758,-0.841,-0.421,0.1830,-0.0032,0.0031,-0.0159,1.0032,0.0000,0.0000,0.2200,0.0027,-0.0090
4715,0.0073,0.0041,-0.0009,0.04,0.06,-1.21,0.176,-0.480,-0.892,-1.041,0.1830,-0.0032,0.0055,-0.0149,1.0003,0.0000,0.0000,0.2200,0.0027,-0.0090
4725,0.0066,0.0026,-0.0004,0.03,0.08,-1.23,0.176,1.617,-0.082,-0.543,0.1831,-0.0031,0.0065,-0.0153,1.0025,0.0000,0.0000,0.2200,0.0028,-0.0090
4736,0.0065,0.0026,0.0000,0.02,0.10,-1.24,0.176,0.171,1.376,-1.302,0.1840,-0.0023,0.0065,-0.0172,1.0046,0.0000,0.0000,0.2200,0.0029,-0.0090
4745,0.0063,0.0025,0.0006,0.00,0.11,-1.25,0.176,1.337,2.362,-0.277,0.1841,-0.0032,0.0020,-0.0158,1.0036,0.0000,0.0000,0.2200,0.0029,-0.0089
4756,0.0061,0.0025,-0.0028,-0.00,0.12,-1.26,0.176,1.789,0.884,-0.849,0.1836,-0.0033,0.0039,-0.0157,1.0027,0.0000,0.0000,0.2200,0.0030,-0.0089
4765,0.0089,0.0055,-0.0027,-0.02,0.10,-1.26,0.176,1.360,1.905,-0.837,0.1837,-0.0024,0.0062,-0.0151,1.0045,0.0000,0.0000,0.2200,0.0031,-0.0088
4775,0.0086,0.0022,-0.0025,0.01,0.09,-1.27,0.176,-0.189,1.186,-0.497,0.1837,-0.0029,0.0080,-0.0173,1.0010,0.0000,0.0000,0.2200,0.0032,-0.0088
4785,0.0067,0.0018,-0.0022,0.02,0.08,-1.28,0.174,0.455,1.198,0.232,0.1837,-0.0033,0.0082,-0.0130,1.0021,0.0000,0.0000,0.2200,0.0032,-0.0088
4796,0.0065,0.0046,-0.0018,0.02,0.07,-1.29,0.174,-0.836,1.812,0.639,0.1838,-0.0033,0.0095,-0.0147,1.0033,0.0000,0.0000,0.2200,0.0033,-0.0088
4806,0.0064,0.0029,-0.0015,0.04,0.05,-1.29,0.174,-2.715,0.622,-0.794,0.1839,-0.0033,0.0090,-0.0162,1.0051,0.0000,0.0000,0.2200,0.0034,-0.0087
4815,0.0060,0.0011,-0.0080,0.05,0.04,-1.30,0.174,-2.855,-2.333,-1.639,0.1839,-0.0033,0.0058,-0.0192,1.0064,0.0000,0.0000,0.2200,0.0034,-0.0087
4825,0.0060,0.0011,-0.0077,0.06,0.03,-1.30,0.180,-2.641,-2.043,-1.347,0.1848,-0.0027,0.0038,-0.0170,1.0055,0.0000,0.0000,0.2200,0.0035,-0.0087
4835,0.0059,0.0010,-0.0076,0.05,0.02,-1.29,0.180,-0.279,-2.239,-0.236,0.1849,-0.0027,0.0091,-0.0150,1.0058,0.0000,0.0000,0.2200,0.0035,-0.0087
4845,0.0059,0.0009,-0.0073,0.01,0.02,-1.30,0.180,-1.027,-2.125,-0.372,0.1852,-0.0012,0.0107,-0.0158,1.0084,0.0000,0.0000,0.2200,0.0036,-0.0087
4855,0.0085,0.0027,0.0030,-0.03,0.02,-1.31,0.180,2.397,-1.681,0.202,0.1853,-0.0012,0.0099,-0.0195,1.0090,0.0000,0.0000,0.2200,0.0037,-0.0087
4866,0.0085,0.0028,0.0035,-0.06,0.04,-1.33,0.180,-1.206,-1.116,-0.921,0.1854,-0.0011,0.0067,-0.0162,1.0052,0.0000,0.0000,0.2200,0.0038,-0.0086
4875,0.0094,0.0077,0.0041,-0.10,0.05,-1.33,0.180,1.327,-0.209,0.657,0.1864,-0.0032,0.0053,-0.0165,1.0041,0.0000,0.0000,0.2200,0.0039,-0.0086
4885,0.0093,0.0079,0.0047,-0.10,0.08,-1.33,0.177,0.647,-0.903,-1.228,0.1863,-0.0023,0.0054,-0.0176,1.0041,0.0000,0.0000,0.2200,0.0040,-0.0085
4895,0.0092,0.0081,0.0052,-0.09,0.09,-1.33,0.177,-0.207,1.073,0.066,0.1864,-0.0022,0.0062,-0.0205,1.0054,0.0000,0.0000,0.2200,0.0041,-0.0084
4905,0.0120,0.0009,0.0062,-0.05,0.09,-1.34,0.177,1.811,-0.428,-0.162,0.1859,-0.0033,0.0051,-0.0169,1.0049,0.0000,0.0000,0.2200,0.0042,-0.0084
4915,0.0111,0.0041,0.0057,-0.06,0.09,-1.34,0.177,-1.103,-2.015,-2.007,0.1858,-0.0039,0.0053,-0.0161,1.0056,0.0000,0.0000,0.2200,0.0043,-0.0084
4925,0.0110,0.0042,0.0062,-0.05,0.10,-1.34,0.178,-2.681,-0.996,-0.049,0.1858,-0.0033,0.0071,-0.0166,1.0041,0.0000,0.0000,0.2200,0.0044,-0.0083
4935,0.0086,0.0005,0.0066,-0.03,0.11,-1.34,0.178,-1.575,-1.121,-0.429,0.1862,-0.0033,0.0075,-0.0171,1.0053,0.0000,0.0000,0.2200,0.0045,-0.0083
4945,0.0080,-0.0014,0.0071,-0.00,0.11,-1.35,0.178,-1.570,-2.002,0.264,0.1857,-0.0033,0.0052,-0.0153,1.0017,0.0000,0.0000,0.2200,0.0046,-0.0083
4955,0.0074,0.0007,0.0085,-0.02,0.12,-1.36,0.178,-1.111,-0.565,0.406,0.1861,-0.0027,0.0064,-0.0191,1.0004,0.0000,0.0000,0.2200,0.0046,-0.0083
4965,0.0085,0.0005,0.0091,-0.04,0.12,-1.37,0.178,-1.529,-1.564,0.062,0.1862,-0.0026,0.0025,-0.0191,1.0039,0.0000,0.0000,0.2200,0.0047,-0.0083
4975,0.0061,0.0008,0.0095,-0.04,0.14,-1.37,0.178,-2.041,-1.185,0.348,0.1871,-0.0031,0.0042,-0.0174,1.0005,0.0000,0.0000,0.2200,0.0048,-0.0083
4985,0.0071,0.0029,0.0100,-0.07,0.15,-1.37,0.177,-0.847,-0.340,0.383,0.1870,-0.0041,0.0074,-0.0169,1.0019,0.0000,0.0000,0.2200,0.0049,-0.0083
4996,0.0068,0.0030,0.0104,-0.09,0.16,-1.37,0.177,0.293,0.394,0.377,0.1871,-0.0041,0.0092,-0.0179,1.0032,0.0000,0.0000,0.2200,0.0049,-0.0082
5005,0.0094,0.0014,0.0104,-0.09,0.15,-1.37,0.177,0.199,0.272,0.154,0.1871,-0.0036,0.0066,-0.0159,1.0021,0.0000,0.0000,0.2200,0.0050,-0.0082
5015,0.0085,-0.0017,0.0077,-0.08,0.17,-1.37,0.177,0.214,-0.364,0.013,0.1871,-0.0031,0.0066,-0.0136,1.0031,0.0000,0.0000,0.2200,0.0051,-0.0082
5025,0.0082,-0.0016,0.0079,-0.09,0.18,-1.36,0.179,-1.554,-0.486,0.674,0.1872,-0.0031,0.0053,-0.0121,1.0017,0.0000,0.0000,0.2200,0.0052,-0.0083
5035,0.0075,0.0005,0.0080,-0.11,0.18,-1.36,0.179,-1.357,-0.272,1.022,0.1877,-0.0031,0.0064,-0.0110,1.0044,0.0000,0.0000,0.2200,0.0053,-0.0083
5045,0.0071,0.0023,0.0084,-0.12,0.19,-1.36,0.179,-0.239,0.596,0.352,0.1876,-0.0041,0.0058,-0.0099,1.0035,0.0000,0.0000,0.2200,0.0053,-0.0082
5056,0.0067,0.0025,0.0106,-0.12,0.18,-1.35,0.179,0.311,0.987,0.057,0.1876,-0.0051,0.0085,-0.0146,1.0004,0.0000,0.0000,0.2200,0.0054,-0.0082
5065,0.0080,0.0026,0.0108,-0.13,0.17,-1.34,0.179,0.941,1.118,0.569,0.1867,-0.0025,0.0071,-0.0147,1.0023,0.0000,0.0000,0.2200,0.0055,-0.0082
5075,0.0073,-0.0007,0.0110,-0.11,0.17,-1.33,0.179,1.104,1.010,0.843,0.1871,-0.0034,0.0065,-0.0173,1.0017,0.0000,0.0000,0.2200,0.0055,-0.0082
5085,0.0066,-0.0035,0.0113,-0.10,0.17,-1.33,0.179,0.317,-0.014,1.002,0.1875,-0.0039,0.0064,-0.0137,0.9983,0.0000,0.0000,0.2200,0.0056,-0.0082
5095,0.0031,0.0053,0.0117,-0.16,0.18,-1.33,0.179,-0.562,-0.870,0.912,0.1874,-0.0053,0.0067,-0.0163,1.0036,0.0000,0.0000,0.2200,0.0056,-0.0082
5105,0.0041,0.0022,0.0119,-0.14,0.17,-1.33,0.179,-0.431,-1.306,1.012,0.1875,-0.0054,0.0045,-0.0165,1.0021,0.0000,0.0000,0.2200,0.0057,-0.0081
5116,0.0050,0.0009,0.0117,-0.13,0.16,-1.32,0.179,0.255,-1.469,0.318,0.1874,-0.0044,0.0060,-0.0181,0.9974,0.0000,0.0000,0.2200,0.0057,-0.0081
5125,0.0043,-0.0036,0.0119,-0.10,0.17,-1.31,0.180,-0.559,-0.702,0.495,0.1874,-0.0044,0.0035,-0.0165,1.0003,0.0000,0.0000,0.2200,0.0058,-0.0082
5135,0.0040,-0.0034,0.0118,-0.10,0.17,-1.30,0.180,-0.585,-0.379,0.632,0.1875,-0.0044,0.0055,-0.0187,0.9985,0.0000,0.0000,0.2200,0.0058,-0.0082
5145,0.0034,0.0000,0.0120,-0.12,0.18,-1.30,0.180,-0.036,0.375,0.603,0.1870,-0.0050,0.0062,-0.0111,0.9967,0.0000,0.0000,0.2200,0.0059,-0.0082
5155,0.0031,0.0002,0.0133,-0.11,0.19,-1.29,0.180,1.826,2.768,0.190,0.1877,-0.0030,0.0058,-0.0117,0.9989,0.0000,0.0000,0.2200,0.0059,-0.0082
5165,0.0028,0.0004,0.0132,-0.11,0.19,-1.29,0.180,-0.328,0.806,0.650,0.1867,-0.0039,0.0026,-0.0168,1.0002,0.0000,0.0000,0.2200,0.0059,-0.0082
5175,0.0009,-0.0013,0.0131,-0.09,0.20,-1.28,0.180,1.606,0.650,0.750,0.1878,-0.0050,0.0031,-0.0152,1.0001,0.0000,0.0000,0.2200,0.0059,-0.0082
5185,0.0028,0.0053,0.0130,-0.13,0.17,-1.27,0.180,-1.486,-0.809,0.685,0.1877,-0.0031,0.0040,-0.0157,0.9975,0.0000,0.0000,0.2200,0.0059,-0.0082
5195,-0.0010,0.0024,0.0129,-0.10,0.17,-1.27,0.180,1.054,1.599,1.201,0.1877,-0.0051,0.0107,-0.0140,1.0003,0.0000,0.0000,0.2200,0.0059,-0.0081
5205,0.0023,-0.0012,0.0126,-0.08,0.14,-1.27,0.180,-1.102,-1.331,0.674,0.1867,-0.0060,0.0081,-0.0158,0.9969,0.0000,0.0000,0.2200,0.0060,-0.0082
5216,0.0019,0.0054,0.0114,-0.11,0.13,-1.25,0.180,1.692,0.788,1.190,0.1873,-0.0041,0.0066,-0.0165,0.9981,0.0000,0.0000,0.2200,0.0060,-0.0081
5225,0.0017,-0.0011,0.0114,-0.07,0.14,-1.25,0.180,-1.421,-1.871,1.322,0.1872,-0.0050,0.0072,-0.0132,0.9965,0.0000,0.0000,0.2200,0.0060,-0.0081
5234,-0.0019,-0.0038,0.0113,-0.05,0.15,-1.24,0.180,2.188,1.706,1.773,0.1872,-0.0051,0.0047,-0.0148,0.9942,0.0000,0.0000,0.2200,0.0060,-0.0081
5245,-0.0002,0.0024,0.0113,-0.10,0.14,-1.23,0.180,-0.629,-1.296,1.038,0.1872,-0.0051,0.0074,-0.0128,0.9981,0.0000,0.0000,0.2200,0.0060,-0.0081
5255,-0.0007,-0.0006,0.0095,-0.06,0.14,-1.22,0.180,1.520,1.900,1.054,0.1877,-0.0050,0.0107,-0.0175,0.9985,0.0000,0.0000,0.2200,0.0060,-0.0081
5265,-0.0010,-0.0005,0.0092,-0.07,0.16,-1.21,0.180,0.811,-0.886,0.882,0.1877,-0.0050,0.0091,-0.0166,0.9977,0.0000,0.0000,0.2200,0.0060,-0.0081
5275,-0.0012,-0.0003,0.0090,-0.06,0.14,-1.19,0.180,-1.868,-1.387,0.752,0.1877,-0.0051,0.0086,-0.0179,0.9976,0.0000,0.0000,0.2200,0.0059,-0.0081
5285,0.0002,-0.0002,0.0085,-0.06,0.14,-1.18,0.179,0.715,2.589,1.248,0.1878,-0.0045,0.0080,-0.0189,0.9967,0.0000,0.0000,0.2200,0.0060,-0.0081
5294,-0.0001,-0.0001,0.0082,-0.05,0.13,-1.17,0.179,-1.677,-0.775,1.148,0.1878,-0.0045,0.0072,-0.0156,0.9944,0.0000,0.0000,0.2200,0.0059,-0.0081
5305,-0.0003,0.0000,0.0080,-0.04,0.13,-1.16,0.179,-0.100,1.785,1.225,0.1872,-0.0049,0.0086,-0.0167,0.9960,0.0000,0.0000,0.2200,0.0059,-0.0081
5315,-0.0002,0.0018,0.0035,-0.06,0.14,-1.15,0.179,0.845,0.247,1.170,0.1873,-0.0045,0.0099,-0.0202,0.9988,0.0000,0.0000,0.2200,0.0059,-0.0081
5325,-0.0005,0.0020,0.0032,-0.06,0.12,-1.14,0.182,-1.432,-1.163,1.862,0.1873,-0.0044,0.0094,-0.0175,0.9999,0.0000,0.0000,0.2200,0.0059,-0.0081
5334,-0.0025,0.0006,0.0029,-0.06,0.14,-1.13,0.182,0.849,2.555,1.267,0.1873,-0.0044,0.0087,-0.0177,1.0030,0.0000,0.0000,0.2200,0.0059,-0.0081
5345,-0.0022,0.0022,0.0024,-0.08,0.12,-1.12,0.182,0.469,0.235,1.603,0.1879,-0.0062,0.0090,-0.0161,1.0002,0.0000,0.0000,0.2200,0.0059,-0.0081
5355,-0.0024,0.0023,0.0056,-0.07,0.12,-1.10,0.182,-3.057,-3.038,1.474,0.1867,-0.0044,0.0078,-0.0165,0.9976,0.0000,0.0000,0.2200,0.0059,-0.0080
5364,-0.0026,0.0024,0.0054,-0.08,0.12,-1.09,0.182,0.460,1.240,1.651,0.1873,-0.0054,0.0084,-0.0156,1.0017,0.0000,0.0000,0.2200,0.0058,-0.0080
5375,-0.0007,-0.0032,0.0053,-0.04,0.09,-1.07,0.182,-1.474,-2.230,1.810,0.1872,-0.0054,0.0067,-0.0162,0.9994,0.0000,0.0000,0.2200,0.0058,-0.0081
5384,-0.0046,0.0027,0.0055,-0.07,0.11,-1.06,0.180,0.924,0.338,1.094,0.1872,-0.0054,0.0058,-0.0156,0.9986,0.0000,0.0000,0.2200,0.0058,-0.0080
5395,-0.0030,-0.0005,0.0057,-0.08,0.12,-1.04,0.180,-0.176,0.690,1.041,0.1872,-0.0054,0.0072,-0.0153,0.9996,0.0000,0.0000,0.2200,0.0058,-0.0080
5404,-0.0032,-0.0003,0.0055,-0.08,0.12,-1.03,0.180,-0.708,-1.932,0.914,0.1872,-0.0067,0.0093,-0.0148,0.9986,0.0000,0.0000,0.2200,0.0057,-0.0080
5415,-0.0034,-0.0002,0.0027,-0.09,0.14,-1.02,0.180,0.957,1.883,1.510,0.1872,-0.0055,0.0052,-0.0160,0.9992,0.0000,0.0000,0.2200,0.0057,-0.0080
5424,-0.0036,-0.0000,0.0028,-0.09,0.14,-1.00,0.181,-1.197,-1.795,1.522,0.1872,-0.0061,0.0073,-0.0193,1.0026,0.0000,0.0000,0.2200,0.0057,-0.0080
5435,-0.0037,-0.0039,0.0027,-0.06,0.13,-0.99,0.181,-1.571,0.920,2.180,0.1872,-0.0054,0.0084,-0.0141,1.0009,0.0000,0.0000,0.2200,0.0056,-0.0081
5444,-0.0038,0.0003,0.0026,-0.09,0.14,-0.98,0.181,-0.409,-0.159,1.663,0.1872,-0.0054,0.0080,-0.0124,0.9977,0.0000,0.0000,0.2200,0.0056,-0.0081
5455,-0.0038,-0.0017,0.0028,-0.07,0.13,-0.97,0.181,-1.015,1.130,1.811,0.1871,-0.0065,0.0088,-0.0123,0.9991,0.0000,0.0000,0.2200,0.0055,-0.0081
5464,-0.0039,0.0006,0.0027,-0.09,0.14,-0.95,0.181,-0.978,-1.388,0.634,0.1878,-0.0060,0.0070,-0.0113,1.0008,0.0000,0.0000,0.2200,0.0055,-0.0081
5475,-0.0042,0.0008,0.0028,-0.10,0.14,-0.93,0.181,0.623,2.112,1.083,0.1879,-0.0054,0.0026,-0.0121,1.0013,0.0000,0.0000,0.2200,0.0055,-0.0081
5485,-0.0044,-0.0024,0.0030,-0.08,0.13,-0.92,0.183,-0.878,0.453,1.519,0.1878,-0.0064,0.0058,-0.0125,1.0000,0.0000,0.0000,0.2200,0.0054,-0.0081
5494,-0.0024,-0.0006,0.0029,-0.10,0.11,-0.90,0.183,-1.859,-1.439,0.861,0.1873,-0.0059,0.0053,-0.0139,1.0016,0.0000,0.0000,0.2200,0.0054,-0.0081
5505,-0.0023,0.0015,0.0027,-0.12,0.11,-0.89,0.183,1.511,1.777,0.844,0.1873,-0.0059,0.0052,-0.0134,1.0011,0.0000,0.0000,0.2200,0.0054,-0.0081
5514,-0.0025,-0.0016,0.0072,-0.09,0.10,-0.88,0.183,-2.045,-1.684,0.849,0.1883,-0.0053,0.0101,-0.0158,1.0023,0.0000,0.0000,0.2200,0.0053,-0.0081
5525,-0.0042,0.0003,0.0073,-0.11,0.11,-0.87,0.180,1.628,1.752,0.943,0.1883,-0.0053,0.0096,-0.0160,0.9954,0.0000,0.0000,0.2200,0.0053,-0.0081
5534,-0.0043,0.0004,0.0074,-0.12,0.12,-0.86,0.180,-2.933,-1.962,1.538,0.1866,-0.0075,0.0081,-0.0146,0.9985,0.0000,0.0000,0.2200,0.0053,-0.0081
5545,-0.0011,0.0025,0.0075,-0.13,0.08,-0.85,0.180,1.201,1.869,1.233,0.1873,-0.0057,0.0097,-0.0158,0.9973,0.0000,0.0000,0.2200,0.0053,-0.0081
5554,-0.0012,0.0027,0.0028,-0.14,0.09,-0.84,0.180,-1.837,-0.738,1.499,0.1872,-0.0051,0.0062,-0.0136,1.0017,0.0000,0.0000,0.2200,0.0052,-0.0080
5565,-0.0068,-0.0039,0.0031,-0.09,0.12,-0.83,0.180,0.260,-0.602,1.192,0.1873,-0.0063,0.0049,-0.0092,1.0003,0.0000,0.0000,0.2200,0.0052,-0.0081
5574,-0.0047,0.0018,0.0029,-0.15,0.12,-0.82,0.180,0.842,1.306,1.301,0.1873,-0.0063,0.0042,-0.0101,1.0003,0.0000,0.0000,0.2200,0.0051,-0.0081
5585,-0.0049,0.0038,0.0025,-0.16,0.11,-0.80,0.184,-1.164,-0.773,1.139,0.1878,-0.0057,0.0059,-0.0137,1.0013,0.0000,0.0000,0.2200,0.0051,-0.0080
5594,-0.0046,0.0004,0.0023,-0.15,0.10,-0.79,0.184,0.207,0.038,0.995,0.1879,-0.0052,0.0081,-0.0137,0.9998,0.0000,0.0000,0.2200,0.0050,-0.0080
5605,-0.0048,0.0007,0.0024,-0.15,0.11,-0.77,0.184,1.429,2.651,0.866,0.1874,-0.0062,0.0083,-0.0137,1.0000,0.0000,0.0000,0.2200,0.0050,-0.0080
5615,-0.0031,0.0026,0.0082,-0.15,0.09,-0.76,0.184,-1.208,-0.746,0.674,0.1874,-0.0068,0.0047,-0.0115,1.0025,0.0000,0.0000,0.2200,0.0050,-0.0080
5626,-0.0029,0.0043,0.0082,-0.17,0.09,-0.75,0.182,0.860,2.246,1.137,0.1875,-0.0047,0.0030,-0.0148,1.0033,0.0000,0.0000,0.2200,0.0049,-0.0080
5635,-0.0046,0.0013,0.0083,-0.15,0.10,-0.74,0.182,-0.269,-1.205,0.360,0.1875,-0.0046,0.0081,-0.0114,0.9999,0.0000,0.0000,0.2200,0.0049,-0.0079
5645,-0.0045,-0.0001,0.0083,-0.13,0.08,-0.73,0.182,0.368,1.351,0.759,0.1874,-0.0046,0.0122,-0.0130,1.0002,0.0000,0.0000,0.2200,0.0048,-0.0079
5654,-0.0042,0.0065,0.0062,-0.18,0.07,-0.72,0.182,-0.113,-1.808,1.186,0.1875,-0.0058,0.0062,-0.0167,0.9995,0.0000,0.0000,0.2200,0.0048,-0.0079
5665,-0.0043,0.0068,0.0063,-0.17,0.05,-0.71,0.182,-1.698,-1.423,0.852,0.1868,-0.0062,0.0074,-0.0144,1.0015,0.0000,0.0000,0.2200,0.0047,-0.0078
5674,-0.0044,0.0071,0.0067,-0.17,0.06,-0.71,0.182,1.654,0.666,0.675,0.1875,-0.0052,0.0081,-0.0129,0.9997,0.0000,0.0000,0.2200,0.0047,-0.0077
5685,-0.0042,0.0034,0.0068,-0.14,0.05,-0.70,0.181,-1.781,-1.249,1.146,0.1874,-0.0052,0.0076,-0.0144,1.0015,0.0000,0.0000,0.2200,0.0047,-0.0077
5695,-0.0062,0.0022,0.0068,-0.14,0.08,-0.69,0.181,1.789,2.848,0.928,0.1881,-0.0052,0.0084,-0.0156,0.9994,0.0000,0.0000,0.2200,0.0046,-0.0077
5704,-0.0041,0.0054,0.0068,-0.16,0.07,-0.68,0.181,-0.215,-0.635,1.175,0.1881,-0.0048,0.0085,-0.0136,0.9995,0.0000,0.0000,0.2200,0.0046,-0.0076
5715,-0.0042,0.0056,0.0027,-0.16,0.07,-0.67,0.181,-1.336,-1.141,1.588,0.1875,-0.0058,0.0066,-0.0154,0.9992,0.0000,0.0000,0.2200,0.0045,-0.0076
5725,-0.0022,0.0057,0.0028,-0.17,0.06,-0.66,0.181,-0.038,1.541,1.691,0.1874,-0.0058,0.0086,-0.0188,0.9981,0.0000,0.0000,0.2200,0.0045,-0.0075
5735,-0.0022,0.0071,0.0028,-0.16,0.04,-0.65,0.181,1.789,1.981,1.050,0.1874,-0.0058,0.0099,-0.0173,0.9978,0.0000,0.0000,0.2200,0.0045,-0.0074
5745,-0.0041,0.0039,0.0029,-0.14,0.06,-0.64,0.181,-0.471,-1.034,0.955,0.1857,-0.0107,0.0080,-0.0146,0.9993,0.0000,0.0000,0.2200,0.0044,-0.0074
5755,-0.0042,0.0041,0.0002,-0.15,0.07,-0.62,0.181,-0.596,1.118,1.200,0.1862,-0.0117,0.0069,-0.0153,1.0043,0.0000,0.0000,0.2200,0.0044,-0.0074
5765,-0.0043,0.0044,0.0001,-0.15,0.06,-0.61,0.181,0.622,0.343,0.939,0.1863,-0.0112,0.0081,-0.0211,1.0028,0.0000,0.0000,0.2200,0.0043,-0.0073
5774,-0.0096,-0.0110,0.0000,-0.04,0.07,-0.60,0.181,-2.932,-1.853,1.300,0.1863,-0.0116,0.0076,-0.0201,1.0023,0.0000,0.0000,0.2200,0.0043,-0.0074
5785,-0.0078,-0.0137,-0.0001,-0.02,0.07,-0.59,0.180,0.165,1.339,0.902,0.1864,-0.0120,0.0082,-0.0154,1.0014,0.0000,0.0000,0.2200,0.0042,-0.0076
5795,-0.0072,-0.0115,-0.0002,-0.04,0.05,-0.58,0.180,-1.381,0.205,0.940,0.1863,-0.0109,0.0070,-0.0135,0.9996,0.0000,0.0000,0.2200,0.0041,-0.0077
5804,-0.0072,-0.0123,0.0001,-0.04,0.05,-0.57,0.180,1.452,-0.189,0.765,0.1864,-0.0119,0.0086,-0.0132,0.9985,0.0000,0.0000,0.2200,0.0040,-0.0078
5815,-0.0068,-0.0132,-0.0033,-0.06,0.06,-0.55,0.180,-2.483,-1.771,1.046,0.1864,-0.0120,0.0068,-0.0137,1.0028,-0.0000,0.0010,0.2200,0.0040,-0.0079
5824,-0.0069,-0.0090,-0.0031,-0.09,0.06,-0.54,0.184,-1.194,1.754,1.093,0.1864,-0.0108,0.0079,-0.0143,1.0006,-0.0000,0.0020,0.2200,-0.0001,-0.0001
5835,-0.0064,-0.0119,-0.0030,-0.08,0.05,-0.53,0.184,-2.810,-0.956,0.534,0.1865,-0.0113,0.0061,-0.0150,1.0004,-0.0000,0.0030,0.2200,-0.0001,-0.0002
5845,-0.0065,-0.0118,-0.0029,-0.07,0.05,-0.53,0.184,-0.659,2.377,0.615,0.1864,-0.0114,0.0073,-0.0167,0.9991,-0.0000,0.0040,0.2200,-0.0002,-0.0003
5854,-0.0063,-0.0074,0.0040,-0.12,0.06,-0.51,0.184,-2.195,1.590,0.661,0.1864,-0.0115,0.0053,-0.0159,0.9986,-0.0001,0.0050,0.2200,-0.0003,-0.0004
5864,-0.0059,-0.0086,0.0041,-0.13,0.05,-0.50,0.184,-9.525,0.386,0.421,0.1865,-0.0118,0.0049,-0.0172,0.9990,-0.0001,0.0060,0.2200,-0.0003,-0.0005
5875,-0.0060,-0.0084,0.0043,-0.14,0.05,-0.50,0.184,-11.196,1.184,0.160,0.1869,-0.0123,0.0078,-0.0166,0.9994,-0.0001,0.0070,0.2200,-0.0004,-0.0006
5884,-0.0061,-0.0082,0.0043,-0.15,0.03,-0.49,0.181,-17.683,0.442,0.898,0.1865,-0.0117,0.0041,-0.0144,0.9963,-0.0002,0.0080,0.2200,-0.0004,-0.0007
5895,-0.0056,-0.0087,0.0043,-0.17,0.01,-0.49,0.181,-20.739,-2.418,0.005,0.1874,-0.0113,0.0053,-0.0139,0.9990,-0.0002,0.0090,0.2200,-0.0005,-0.0007
5904,-0.0039,-0.0096,0.0042,-0.26,0.00,-0.49,0.181,-21.757,-1.723,0.765,0.1874,-0.0113,0.0064,-0.0157,1.0020,-0.0002,0.0100,0.2200,-0.0005,-0.0008
5914,-0.0053,-0.0068,0.0009,-0.39,0.01,-0.48,0.181,-22.299,0.869,0.900,0.1869,-0.0113,0.0046,-0.0182,1.0022,-0.0003,0.0110,0.2200,-0.0006,-0.0009
5925,-0.0021,-0.0048,0.0009,-0.58,-0.02,-0.47,0.182,-19.693,-0.165,1.082,0.1880,-0.0078,0.0058,-0.0135,1.0024,-0.0004,0.0120,0.2200,-0.0006,-0.0010
5934,-0.0020,-0.0038,0.0006,-0.78,0.01,-0.47,0.182,-19.022,1.357,1.987,0.1881,-0.0101,0.0064,-0.0142,1.0018,-0.0004,0.0130,0.2200,-0.0006,-0.0010
5944,-0.0037,-0.0023,0.0004,-1.01,0.03,-0.46,0.182,-11.808,0.259,0.092,0.1882,-0.0085,0.0081,-0.0155,1.0042,-0.0005,0.0140,0.2200,-0.0007,-0.0010
5954,0.0000,0.0105,0.0008,-1.29,-0.00,-0.45,0.182,-10.894,0.318,0.265,0.1882,-0.0097,0.0062,-0.0112,1.0013,-0.0006,0.0150,0.2200,-0.0007,-0.0009
5964,0.0004,0.0053,0.0011,-1.45,-0.02,-0.44,0.182,-11.794,-0.339,1.208,0.1883,-0.0088,0.0027,-0.0141,1.0026,-0.0006,0.0160,0.2200,-0.0007,-0.0009
5975,0.0007,0.0124,0.0012,-1.66,-0.03,-0.42,0.182,-2.249,0.625,0.472,0.1893,-0.0077,0.0090,-0.0147,0.9993,-0.0007,0.0170,0.2200,-0.0007,-0.0007
5984,0.0008,0.0111,0.0014,-1.74,-0.03,-0.42,0.179,-5.775,1.625,1.904,0.1903,-0.0076,0.0078,-0.0145,1.0003,-0.0008,0.0180,0.2200,-0.0006,-0.0006
5995,0.0009,0.0167,0.0016,-1.87,-0.04,-0.42,0.179,-0.168,-2.590,0.654,0.1887,-0.0067,0.0058,-0.0199,0.9996,-0.0009,0.0190,0.2200,-0.0006,-0.0005
6004,0.0042,0.0227,0.0016,-1.98,-0.07,-0.41,0.179,2.349,-1.190,1.013,0.1887,-0.0088,0.0068,-0.0142,1.0024,-0.0010,0.0200,0.2200,-0.0006,-0.0002
6014,0.0073,0.0256,-0.0049,-2.01,-0.09,-0.40,0.179,-1.430,-4.357,1.972,0.1888,-0.0085,0.0057,-0.0175,1.0070,-0.0011,0.0210,0.2200,-0.0005,0.0000
6024,0.0024,0.0310,-0.0049,-2.06,-0.06,-0.39,0.184,-0.698,-1.830,0.903,0.1901,-0.0070,0.0067,-0.0199,1.0039,-0.0012,0.0220,0.2200,-0.0005,0.0003
6036,0.0025,0.0269,-0.0047,-2.02,-0.05,-0.38,0.184,-1.847,-3.567,1.074,0.1890,-0.0091,0.0056,-0.0178,1.0037,-0.0013,0.0229,0.2200,-0.0005,0.0006
6044,0.0026,0.0304,-0.0048,-2.01,-0.04,-0.37,0.184,-0.780,-2.164,1.695,0.1890,-0.0079,0.0036,-0.0187,1.0029,-0.0014,0.0239,0.2200,-0.0004,0.0009
6055,0.0068,0.0376,0.0029,-2.05,-0.02,-0.35,0.184,2.057,-0.166,1.127,0.1898,-0.0080,0.0046,-0.0142,1.0021,-0.0016,0.0249,0.2200,-0.0004,0.0013
6064,0.0031,0.0331,0.0036,-2.00,0.02,-0.34,0.184,0.820,-0.546,1.466,0.1899,-0.0076,0.0078,-0.0108,1.0031,-0.0017,0.0259,0.2200,-0.0004,0.0016
6074,0.0029,0.0394,0.0040,-2.02,0.05,-0.33,0.184,1.401,-1.815,0.248,0.1899,-0.0071,0.0044,-0.0172,1.0047,-0.0018,0.0269,0.2200,-0.0003,0.0020
6084,0.0056,0.0412,0.0043,-2.01,0.05,-0.31,0.186,-0.638,-2.620,0.952,0.1908,-0.0077,0.0077,-0.0155,1.0052,-0.0020,0.0279,0.2200,-0.0003,0.0024
6094,0.0055,0.0446,0.0046,-2.01,0.07,-0.30,0.186,-1.781,-4.258,1.395,0.1902,-0.0070,0.0058,-0.0160,1.0007,-0.0021,0.0289,0.2200,-0.0002,0.0029
6104,0.0054,0.0481,0.0047,-2.01,0.08,-0.28,0.186,2.585,-2.909,1.349,0.1915,-0.0067,0.0075,-0.0164,0.9990,-0.0022,0.0299,0.2200,-0.0002,0.0034
6114,0.0078,0.0479,0.0134,-1.98,0.09,-0.27,0.186,1.849,-2.654,0.916,0.1909,-0.0069,0.0072,-0.0197,0.9988,-0.0024,0.0309,0.2200,-0.0001,0.0038
6124,0.0055,0.0521,0.0138,-1.98,0.12,-0.27,0.184,0.497,-4.600,1.149,0.1907,-0.0062,0.0071,-0.0165,0.9976,-0.0026,0.0319,0.2200,-0.0000,0.0044
6134,0.0095,0.0545,0.0142,-1.97,0.13,-0.25,0.184,2.168,-3.532,0.854,0.1920,-0.0079,0.0054,-0.0166,1.0002,-0.0027,0.0329,0.2200,0.0001,0.0049
6144,0.0069,0.0557,0.0144,-1.94,0.18,-0.24,0.184,4.331,-2.746,1.105,0.1921,-0.0073,0.0041,-0.0205,0.9995,-0.0029,0.0338,0.2200,0.0001,0.0055
6155,0.0059,0.0594,0.0133,-1.93,0.20,-0.23,0.184,4.468,-0.982,1.597,0.1925,-0.0061,0.0054,-0.0180,0.9967,-0.0031,0.0348,0.2200,0.0002,0.0060
6164,0.0096,0.0552,0.0133,-1.86,0.21,-0.21,0.184,3.934,-2.048,1.092,0.1923,-0.0054,0.0055,-0.0192,0.9977,-0.0032,0.0358,0.2200,0.0003,0.0066
6174,0.0093,0.0584,0.0131,-1.84,0.24,-0.20,0.184,2.289,-4.007,1.103,0.1936,-0.0053,0.0070,-0.0216,0.9956,-0.0034,0.0368,0.2200,0.0004,0.0072
6185,0.0097,0.0634,0.0129,-1.81,0.27,-0.19,0.181,6.035,0.067,0.830,0.1935,-0.0048,0.0043,-0.0193,0.9925,-0.0036,0.0378,0.2200,0.0005,0.0078
6194,0.0084,0.0666,0.0128,-1.78,0.29,-0.18,0.181,4.080,-4.386,0.436,0.1934,-0.0061,0.0037,-0.0212,0.9953,-0.0038,0.0388,0.2200,0.0006,0.0085
6204,0.0119,0.0679,0.0126,-1.72,0.28,-0.16,0.181,3.011,-4.027,1.230,0.1935,-0.0055,0.0062,-0.0217,0.9963,-0.0040,0.0397,0.2200,0.0007,0.0092
6215,0.0108,0.0701,0.0036,-1.69,0.31,-0.15,0.181,5.641,-0.276,0.589,0.1939,-0.0053,0.0070,-0.0189,0.9966,-0.0042,0.0407,0.2200,0.0008,0.0099
6224,0.0094,0.0664,0.0034,-1.59,0.33,-0.15,0.184,5.051,-0.982,0.313,0.1943,-0.0024,0.0043,-0.0209,0.9962,-0.0044,0.0417,0.2200,0.0009,0.0105
6234,0.0089,0.0691,0.0028,-1.55,0.37,-0.14,0.184,3.874,-3.390,0.134,0.1947,-0.0008,0.0053,-0.0239,1.0000,-0.0046,0.0427,0.2200,0.0010,0.0112
6244,0.0093,0.0699,0.0022,-1.51,0.40,-0.13,0.184,6.227,-0.026,0.626,0.1946,-0.0003,0.0045,-0.0216,0.9990,-0.0048,0.0436,0.2200,0.0011,0.0119
6254,0.0098,0.0800,0.0027,-1.50,0.39,-0.12,0.184,3.765,-2.481,0.406,0.1945,-0.0003,0.0082,-0.0224,0.9936,-0.0050,0.0446,0.2200,0.0012,0.0127
6264,0.0099,0.0849,0.0023,-1.46,0.40,-0.11,0.184,3.151,-2.602,0.877,0.1944,-0.0015,0.0110,-0.0208,0.9973,-0.0053,0.0456,0.2200,0.0013,0.0136
6274,0.0087,0.0863,0.0018,-1.42,0.44,-0.11,0.184,7.888,1.544,-0.052,0.1949,-0.0005,0.0071,-0.0224,0.9966,-0.0055,0.0466,0.2200,0.0014,0.0144
6284,0.0075,0.0859,0.0018,-1.33,0.44,-0.10,0.181,7.318,0.407,-0.324,0.1949,0.0034,0.0042,-0.0191,0.9938,-0.0057,0.0475,0.2200,0.0014,0.0153
6294,0.0061,0.0812,0.0021,-1.25,0.47,-0.10,0.181,3.380,-1.864,0.552,0.1949,0.0035,0.0082,-0.0185,0.9962,-0.0060,0.0485,0.2200,0.0015,0.0161
6304,0.0067,0.0837,0.0015,-1.21,0.47,-0.09,0.181,2.207,-4.614,0.487,0.1948,0.0028,0.0105,-0.0174,0.9979,-0.0062,0.0495,0.2200,0.0016,0.0169
6314,0.0058,0.0962,-0.0056,-1.20,0.46,-0.09,0.181,2.937,-4.416,0.498,0.1946,0.0038,0.0085,-0.0181,0.9993,-0.0065,0.0504,0.2200,0.0016,0.0179
6324,0.0048,0.0952,-0.0058,-1.11,0.46,-0.09,0.181,3.881,-2.243,0.684,0.1945,0.0040,0.0102,-0.0166,0.9983,-0.0067,0.0514,0.2200,0.0017,0.0189
6334,0.0033,0.0915,-0.0061,-1.04,0.48,-0.09,0.181,4.207,-3.479,0.636,0.1953,0.0036,0.0045,-0.0171,1.0005,-0.0070,0.0524,0.2200,0.0017,0.0198
6344,0.0019,0.0936,-0.0065,-1.01,0.53,-0.08,0.181,5.273,-0.937,0.582,0.1953,0.0045,0.0066,-0.0157,0.9992,-0.0072,0.0533,0.2200,0.0017,0.0207
6354,0.0005,0.0926,-0.0098,-0.97,0.58,-0.07,0.181,4.599,-2.516,0.247,0.1957,0.0108,0.0111,-0.0165,1.0015,-0.0075,0.0543,0.2200,0.0017,0.0216
6364,0.0023,0.0900,-0.0098,-0.89,0.57,-0.06,0.181,5.800,-1.790,-0.142,0.1961,0.0108,0.0106,-0.0198,0.9975,-0.0078,0.0553,0.2200,0.0017,0.0225
6374,0.0013,0.0915,-0.0100,-0.86,0.61,-0.06,0.181,8.161,1.435,-0.070,0.1961,0.0126,0.0081,-0.0184,0.9986,-0.0081,0.0562,0.2200,0.0018,0.0234
6385,0.0014,0.1110,-0.0106,-0.92,0.61,-0.05,0.185,4.905,-2.664,0.588,0.1960,0.0132,0.0058,-0.0203,1.0014,-0.0084,0.0572,0.2200,0.0018,0.0246
6394,0.0017,0.1088,-0.0106,-0.83,0.62,-0.04,0.185,6.196,0.767,0.550,0.1955,0.0125,0.0065,-0.0266,1.0012,-0.0086,0.0581,0.2200,0.0018,0.0256
6405,0.0006,0.1125,-0.0106,-0.79,0.63,-0.04,0.185,5.053,-1.796,0.303,0.1955,0.0135,0.0072,-0.0221,1.0013,-0.0089,0.0591,0.2200,0.0018,0.0268
6414,-0.0008,0.1121,-0.0023,-0.70,0.63,-0.04,0.185,4.572,-1.152,0.182,0.1954,0.0136,0.0073,-0.0175,1.0011,-0.0092,0.0601,0.2200,0.0018,0.0279
6424,-0.0034,0.1070,-0.0023,-0.61,0.66,-0.04,0.183,4.256,-1.903,0.146,0.1954,0.0124,0.0081,-0.0168,1.0035,-0.0095,0.0610,0.2200,0.0018,0.0290
6434,-0.0045,0.1081,-0.0022,-0.55,0.66,-0.03,0.183,6.526,0.450,0.358,0.1958,0.0177,0.0051,-0.0215,1.0041,-0.0098,0.0620,0.2200,0.0017,0.0300
6446,-0.0057,0.1057,-0.0020,-0.48,0.68,-0.03,0.183,5.971,1.236,0.794,0.1967,0.0191,0.0060,-0.0229,1.0053,-0.0102,0.0629,0.2200,0.0017,0.0311
6454,-0.0067,0.0988,-0.0012,-0.38,0.68,-0.03,0.183,4.495,-0.524,0.704,0.1966,0.0203,0.0083,-0.0195,1.0013,-0.0105,0.0639,0.2200,0.0016,0.0321
6464,-0.0061,0.1139,-0.0015,-0.42,0.68,-0.02,0.183,4.277,-1.491,0.125,0.1962,0.0194,0.0093,-0.0163,0.9998,-0.0108,0.0648,0.2200,0.0015,0.0332
6475,-0.0043,0.1156,-0.0012,-0.37,0.67,-0.01,0.183,6.972,1.405,0.918,0.1963,0.0230,0.0065,-0.0177,1.0026,-0.0111,0.0658,0.2200,0.0015,0.0344
6484,-0.0054,0.1162,-0.0009,-0.32,0.66,-0.00,0.179,3.013,-3.313,0.815,0.1962,0.0216,0.0080,-0.0190,1.0059,-0.0114,0.0667,0.2200,0.0014,0.0355
6494,-0.0077,0.1098,-0.0001,-0.22,0.67,-0.00,0.179,4.971,-0.890,1.058,0.1962,0.0226,0.0090,-0.0175,1.0033,-0.0118,0.0676,0.2200,0.0014,0.0366
6504,-0.0084,0.1188,-0.0002,-0.23,0.67,0.00,0.179,4.960,-1.327,0.802,0.1962,0.0235,0.0087,-0.0178,1.0011,-0.0121,0.0686,0.2200,0.0013,0.0378
6514,-0.0094,0.1105,-0.0082,-0.12,0.67,0.01,0.179,4.985,-0.254,1.501,0.1961,0.0246,0.0064,-0.0221,1.0008,-0.0125,0.0695,0.2200,0.0012,0.0389
6524,-0.0104,0.1102,-0.0080,-0.09,0.69,0.02,0.181,3.303,-2.896,0.299,0.1965,0.0260,0.0044,-0.0188,0.9994,-0.0128,0.0705,0.2200,0.0011,0.0400
6534,-0.0111,0.1098,-0.0075,-0.03,0.69,0.03,0.181,5.733,0.206,0.717,0.1961,0.0283,0.0034,-0.0183,1.0041,-0.0132,0.0714,0.2200,0.0010,0.0411
6544,-0.0123,0.1099,-0.0071,0.01,0.71,0.04,0.181,3.366,-0.629,1.303,0.1960,0.0293,0.0056,-0.0166,1.0032,-0.0135,0.0723,0.2200,0.0008,0.0422
6554,-0.0116,0.1108,-0.0067,0.06,0.70,0.05,0.181,2.313,-1.770,1.848,0.1959,0.0305,0.0069,-0.0189,0.9996,-0.0139,0.0733,0.2200,0.0007,0.0433
6564,-0.0139,0.1148,-0.0068,0.06,0.72,0.06,0.181,3.186,-1.968,1.126,0.1959,0.0310,0.0079,-0.0203,1.0030,-0.0143,0.0742,0.2200,0.0006,0.0445
6574,-0.0148,0.1143,-0.0069,0.10,0.73,0.07,0.181,4.205,-0.322,1.874,0.1950,0.0306,0.0078,-0.0207,1.0038,-0.0146,0.0751,0.2200,0.0004,0.0456
6584,-0.0160,0.1141,-0.0066,0.14,0.73,0.08,0.180,3.027,0.465,1.665,0.1954,0.0356,0.0065,-0.0186,1.0073,-0.0150,0.0760,0.2200,0.0003,0.0468
6594,-0.0166,0.1116,-0.0061,0.19,0.74,0.10,0.180,1.930,0.538,1.656,0.1954,0.0340,0.0072,-0.0161,1.0053,-0.0154,0.0770,0.2200,0.0001,0.0479
6604,-0.0203,0.1061,-0.0059,0.26,0.76,0.11,0.180,1.661,0.927,1.369,0.1954,0.0359,0.0071,-0.0152,1.0066,-0.0158,0.0779,0.2200,-0.0001,0.0489
6614,-0.0195,0.1193,-0.0074,0.21,0.76,0.13,0.180,2.016,0.449,0.566,0.1954,0.0365,0.0075,-0.0139,1.0082,-0.0162,0.0788,0.2200,-0.0003,0.0501
6624,-0.0202,0.1092,-0.0067,0.30,0.76,0.14,0.181,3.382,1.101,2.398,0.1954,0.0399,0.0067,-0.0178,1.0059,-0.0166,0.0797,0.2200,-0.0005,0.0512
6634,-0.0209,0.1115,-0.0060,0.30,0.76,0.16,0.181,0.125,0.780,1.529,0.1949,0.0392,0.0081,-0.0187,1.0083,-0.0170,0.0806,0.2200,-0.0007,0.0523
6644,-0.0214,0.1093,-0.0054,0.34,0.75,0.17,0.181,2.457,-0.049,1.554,0.1950,0.0403,0.0076,-0.0188,1.0074,-0.0174,0.0816,0.2200,-0.0009,0.0534
6654,-0.0220,0.1162,-0.0028,0.31,0.74,0.19,0.181,0.442,0.931,2.225,0.1950,0.0405,0.0090,-0.0203,1.0076,-0.0178,0.0825,0.2200,-0.0011,0.0546
6664,-0.0240,0.1094,-0.0019,0.38,0.74,0.20,0.181,3.036,-0.246,2.420,0.1950,0.0412,0.0070,-0.0205,1.0041,-0.0182,0.0834,0.2200,-0.0014,0.0557
6674,-0.0243,0.1086,-0.0013,0.39,0.73,0.22,0.181,-1.136,0.042,2.065,0.1942,0.0427,0.0072,-0.0200,1.0056,-0.0186,0.0843,0.2200,-0.0016,0.0568
6684,-0.0246,0.1050,-0.0005,0.43,0.72,0.23,0.180,1.219,0.736,1.755,0.1938,0.0451,0.0062,-0.0214,1.0050,-0.0190,0.0852,0.2200,-0.0019,0.0578
6694,-0.0249,0.1029,0.0003,0.44,0.71,0.26,0.180,0.920,0.831,1.788,0.1939,0.0453,0.0062,-0.0222,1.0019,-0.0195,0.0861,0.2200,-0.0021,0.0589
6705,-0.0282,0.1039,0.0010,0.45,0.73,0.28,0.180,1.316,0.789,1.095,0.1935,0.0464,0.0082,-0.0228,1.0025,-0.0199,0.0870,0.2200,-0.0024,0.0599
6714,-0.0297,0.1077,0.0003,0.42,0.73,0.30,0.180,-0.565,2.898,1.774,0.1936,0.0480,0.0103,-0.0217,1.0041,-0.0203,0.0879,0.2200,-0.0027,0.0610
6724,-0.0297,0.1042,0.0010,0.44,0.71,0.31,0.179,2.632,2.001,1.963,0.1928,0.0502,0.0088,-0.0211,1.0040,-0.0208,0.0888,0.2200,-0.0030,0.0620
6733,-0.0311,0.1034,0.0015,0.46,0.70,0.33,0.179,-0.027,0.080,0.606,0.1929,0.0505,0.0036,-0.0183,1.0055,-0.0212,0.0897,0.2200,-0.0033,0.0631
6744,-0.0310,0.1046,0.0016,0.45,0.68,0.34,0.179,-0.705,1.119,1.088,0.1926,0.0504,0.0081,-0.0146,1.0024,-0.0217,0.0906,0.2200,-0.0036,0.0641
6754,-0.0336,0.1081,-0.0012,0.42,0.67,0.37,0.179,0.798,2.238,1.638,0.1927,0.0491,0.0111,-0.0161,1.0060,-0.0221,0.0915,0.2200,-0.0039,0.0652
6764,-0.0334,0.1045,-0.0007,0.45,0.65,0.38,0.179,0.751,0.800,0.728,0.1923,0.0502,0.0084,-0.0161,1.0052,-0.0226,0.0924,0.2200,-0.0043,0.0662
6773,-0.0345,0.0996,-0.0002,0.48,0.64,0.38,0.179,-0.217,1.408,1.108,0.1919,0.0522,0.0045,-0.0186,1.0057,-0.0231,0.0932,0.2200,-0.0046,0.0672
6784,-0.0340,0.0909,0.0006,0.53,0.62,0.39,0.179,-0.714,2.020,1.074,0.1916,0.0531,0.0053,-0.0182,1.0076,-0.0235,0.0941,0.2200,-0.0050,0.0681
6794,-0.0351,0.0907,0.0009,0.53,0.60,0.40,0.179,-0.695,2.009,1.025,0.1912,0.0574,0.0050,-0.0184,1.0047,-0.0240,0.0950,0.2200,-0.0053,0.0690
6804,-0.0362,0.0934,0.0013,0.52,0.59,0.41,0.179,-1.595,1.643,0.599,0.1913,0.0586,0.0104,-0.0200,1.0035,-0.0245,0.0959,0.2200,-0.0057,0.0700
6814,-0.0372,0.0924,0.0000,0.51,0.58,0.43,0.179,-3.460,1.695,0.870,0.1906,0.0598,0.0076,-0.0170,1.0019,-0.0250,0.0968,0.2200,-0.0061,0.0709
6824,-0.0380,0.1039,0.0002,0.42,0.55,0.45,0.178,-2.586,3.030,2.160,0.1907,0.0586,0.0102,-0.0199,1.0048,-0.0255,0.0976,0.2200,-0.0064,0.0719
6834,-0.0373,0.1034,0.0009,0.41,0.52,0.45,0.178,-0.861,0.590,1.239,0.1903,0.0638,0.0070,-0.0238,1.0027,-0.0259,0.0985,0.2200,-0.0068,0.0730
6843,-0.0395,0.1034,0.0014,0.39,0.51,0.46,0.178,-1.700,0.254,1.327,0.1899,0.0645,0.0034,-0.0246,1.0020,-0.0264,0.0994,0.2200,-0.0072,0.0740
6854,-0.0386,0.0948,-0.0011,0.41,0.48,0.47,0.178,-0.859,0.327,1.373,0.1892,0.0641,0.0052,-0.0170,1.0066,-0.0269,0.1002,0.2200,-0.0076,0.0750
6863,-0.0393,0.1092,-0.0014,0.29,0.46,0.49,0.178,-0.921,0.629,0.553,0.1892,0.0644,0.0061,-0.0159,1.0044,-0.0274,0.1011,0.2200,-0.0080,0.0760
6874,-0.0400,0.1075,-0.0009,0.29,0.45,0.50,0.178,-0.528,0.609,1.519,0.1888,0.0656,0.0049,-0.0151,1.0025,-0.0279,0.1020,0.2200,-0.0084,0.0771
6884,-0.0420,0.1015,-0.0003,0.31,0.46,0.52,0.182,0.010,-0.172,0.425,0.1884,0.0666,0.0062,-0.0177,1.0053,-0.0285,0.1028,0.2200,-0.0088,0.0781
6893,-0.0412,0.0986,-0.0000,0.32,0.44,0.52,0.182,1.528,0.317,0.292,0.1880,0.0665,0.0067,-0.0199,1.0054,-0.0290,0.1037,0.2200,-0.0092,0.0791
6904,-0.0417,0.0987,0.0006,0.31,0.44,0.53,0.182,0.526,0.965,0.496,0.1876,0.0675,0.0101,-0.0171,1.0057,-0.0295,0.1045,0.2200,-0.0096,0.0801
6914,-0.0426,0.0983,0.0080,0.31,0.44,0.54,0.182,0.855,0.289,0.177,0.1868,0.0673,0.0072,-0.0167,1.0063,-0.0300,0.1054,0.2200,-0.0101,0.0811
6923,-0.0431,0.0939,0.0084,0.34,0.43,0.55,0.180,1.973,1.558,1.012,0.1866,0.0663,0.0100,-0.0205,1.0059,-0.0305,0.1062,0.2200,-0.0105,0.0820
6934,-0.0438,0.0933,0.0088,0.35,0.43,0.55,0.180,-0.189,1.329,0.388,0.1862,0.0666,0.0054,-0.0152,1.0049,-0.0311,0.1071,0.2200,-0.0109,0.0830
6943,-0.0457,0.0887,0.0094,0.39,0.43,0.55,0.180,0.999,2.052,1.791,0.1859,0.0677,0.0089,-0.0180,1.0043,-0.0316,0.1079,0.2200,-0.0114,0.0838
6954,-0.0458,0.0815,0.0088,0.44,0.41,0.56,0.180,1.524,1.755,0.552,0.1852,0.0676,0.0079,-0.0157,1.0038,-0.0322,0.1088,0.2200,-0.0118,0.0847
6964,-0.0461,0.0788,0.0095,0.47,0.40,0.56,0.180,-0.294,1.632,1.293,0.1848,0.0676,0.0106,-0.0165,1.0074,-0.0327,0.1096,0.2200,-0.0123,0.0855
6973,-0.0461,0.0792,0.0101,0.46,0.37,0.57,0.180,0.375,1.382,1.686,0.1844,0.0716,0.0094,-0.0163,1.0077,-0.0333,0.1104,0.2200,-0.0128,0.0862
6984,-0.0478,0.0750,0.0106,0.50,0.36,0.58,0.179,3.081,-0.548,0.051,0.1844,0.0719,0.0087,-0.0170,1.0018,-0.0338,0.1113,0.2200,-0.0132,0.0870
6993,-0.0480,0.0714,0.0111,0.52,0.35,0.59,0.179,2.038,-0.536,-0.840,0.1840,0.0730,0.0088,-0.0179,1.0005,-0.0344,0.1121,0.2200,-0.0137,0.0877
7004,-0.0483,0.0824,0.0111,0.44,0.34,0.60,0.179,-0.862,1.204,0.670,0.1839,0.0747,0.0085,-0.0170,0.9984,-0.0349,0.1129,0.2200,-0.0142,0.0885
7013,-0.0471,0.0796,0.0078,0.46,0.33,0.62,0.179,-2.890,0.482,1.344,0.1835,0.0775,0.0088,-0.0164,0.9998,-0.0355,0.1138,0.2200,-0.0147,0.0893
7024,-0.0475,0.0801,0.0084,0.47,0.34,0.61,0.182,-3.879,-0.469,0.554,0.1827,0.0783,0.0119,-0.0205,1.0019,-0.0361,0.1146,0.2200,-0.0151,0.0901
7033,-0.0465,0.0824,0.0085,0.44,0.34,0.61,0.182,-6.622,2.153,0.968,0.1827,0.0798,0.0071,-0.0200,1.0032,-0.0366,0.1154,0.2200,-0.0156,0.0910
7043,-0.0471,0.0890,0.0083,0.37,0.34,0.63,0.182,-3.791,1.470,0.764,0.1819,0.0795,0.0104,-0.0210,1.0017,-0.0372,0.1162,0.2200,-0.0161,0.0918
7053,-0.0488,0.0881,0.0115,0.35,0.35,0.64,0.182,-5.558,2.199,0.519,0.1821,0.0766,0.0098,-0.0217,1.0035,-0.0378,0.1170,0.2200,-0.0166,0.0927
7063,-0.0476,0.0893,0.0114,0.27,0.33,0.64,0.182,-4.188,1.324,0.429,0.1814,0.0767,0.0048,-0.0235,1.0030,-0.0384,0.1178,0.2200,-0.0170,0.0936
7074,-0.0490,0.0846,0.0117,0.24,0.32,0.66,0.182,-3.608,0.890,0.139,0.1814,0.0803,0.0085,-0.0179,1.0040,-0.0390,0.1186,0.2200,-0.0175,0.0945
7083,-0.0473,0.0702,0.0126,0.28,0.29,0.66,0.181,-2.563,1.785,-0.285,0.1807,0.0773,0.0112,-0.0182,1.0000,-0.0396,0.1194,0.2200,-0.0180,0.0952
7094,-0.0486,0.0675,0.0128,0.25,0.27,0.66,0.181,-1.163,0.016,-0.389,0.1799,0.0773,0.0095,-0.0207,0.9979,-0.0402,0.1202,0.2200,-0.0185,0.0958
7103,-0.0471,0.0779,0.0129,0.13,0.24,0.67,0.181,-0.896,-1.042,-0.289,0.1796,0.0785,0.0110,-0.0213,1.0004,-0.0408,0.1210,0.2200,-0.0190,0.0966
7114,-0.0484,0.0637,0.0118,0.19,0.24,0.66,0.181,-1.325,-1.049,-0.393,0.1792,0.0793,0.0102,-0.0188,1.0037,-0.0414,0.1218,0.2200,-0.0195,0.0973
7124,-0.0499,0.0612,0.0122,0.18,0.24,0.66,0.183,-1.820,-0.559,-0.148,0.1796,0.0798,0.0103,-0.0198,1.0016,-0.0420,0.1226,0.2200,-0.0199,0.0979
7133,-0.0498,0.0630,0.0121,0.15,0.24,0.66,0.183,-0.420,-0.956,-0.677,0.1795,0.0834,0.0107,-0.0193,1.0002,-0.0426,0.1234,0.2200,-0.0204,0.0985
7144,-0.0499,0.0633,0.0120,0.14,0.25,0.66,0.183,0.853,-0.406,-0.049,0.1794,0.0859,0.0106,-0.0176,1.0006,-0.0432,0.1242,0.2200,-0.0209,0.0991
7153,-0.0485,0.0649,0.0141,0.12,0.24,0.66,0.183,0.626,0.624,0.905,0.1787,0.0853,0.0131,-0.0173,1.0017,-0.0439,0.1250,0.2200,-0.0214,0.0998
7164,-0.0475,0.0760,0.0141,0.05,0.24,0.65,0.183,0.225,1.004,0.365,0.1779,0.0857,0.0105,-0.0179,1.0000,-0.0445,0.1258,0.2200,-0.0219,0.1005
7174,-0.0464,0.0827,0.0141,0.01,0.23,0.65,0.183,-3.122,0.854,-0.213,0.1782,0.0895,0.0082,-0.0170,0.9997,-0.0451,0.1265,0.2200,-0.0224,0.1014
7183,-0.0479,0.0771,0.0143,0.04,0.25,0.65,0.186,-3.601,-1.061,-0.375,0.1778,0.0910,0.0101,-0.0173,0.9969,-0.0458,0.1273,0.2200,-0.0228,0.1021
7194,-0.0494,0.0757,0.0144,0.05,0.25,0.65,0.186,-1.511,0.628,-0.335,0.1773,0.0919,0.0103,-0.0155,0.9972,-0.0464,0.1281,0.2200,-0.0233,0.1029
7204,-0.0469,0.0871,0.0141,-0.04,0.23,0.65,0.186,-3.320,-2.999,-0.628,0.1768,0.0928,0.0086,-0.0172,0.9958,-0.0470,0.1288,0.2200,-0.0238,0.1038
7214,-0.0471,0.0897,0.0206,-0.07,0.21,0.65,0.186,0.138,-1.183,-0.536,0.1769,0.0932,0.0090,-0.0197,0.9993,-0.0477,0.1296,0.2200,-0.0243,0.1047
7223,-0.0474,0.0898,0.0205,-0.10,0.22,0.65,0.183,-0.417,-0.117,-0.241,0.1764,0.0933,0.0101,-0.0184,1.0006,-0.0483,0.1304,0.2200,-0.0248,0.1056
7233,-0.0478,0.0900,0.0203,-0.12,0.23,0.65,0.183,-0.524,-1.019,-0.007,0.1753,0.0865,0.0077,-0.0157,1.0002,-0.0490,0.1311,0.2200,-0.0252,0.1065
7244,-0.0464,0.0883,0.0202,-0.14,0.23,0.65,0.183,0.429,-0.605,-0.319,0.1748,0.0865,0.0124,-0.0173,1.0000,-0.0496,0.1319,0.2200,-0.0257,0.1073
7254,-0.0466,0.0852,0.0147,-0.13,0.25,0.64,0.183,0.448,-1.063,-0.183,0.1748,0.0876,0.0087,-0.0172,1.0002,-0.0503,0.1326,0.2200,-0.0262,0.1082
7264,-0.0497,0.0565,0.0154,0.05,0.28,0.64,0.183,1.020,-0.963,0.062,0.1743,0.0881,0.0065,-0.0175,0.9980,-0.0510,0.1334,0.2200,-0.0267,0.1088
7273,-0.0500,0.0543,0.0155,0.07,0.29,0.64,0.183,4.135,-0.051,-0.123,0.1731,0.0915,0.0079,-0.0187,0.9972,-0.0516,0.1341,0.2200,-0.0272,0.1093
7283,-0.0489,0.0562,0.0155,0.07,0.30,0.64,0.185,1.930,-2.199,-0.573,0.1726,0.0931,0.0090,-0.0169,0.9972,-0.0523,0.1349,0.2200,-0.0277,0.1099
7293,-0.0494,0.0561,0.0155,0.10,0.30,0.63,0.185,4.522,0.616,-1.220,0.1726,0.0938,0.0096,-0.0185,0.9954,-0.0530,0.1356,0.2200,-0.0281,0.1104
7303,-0.0525,0.0666,0.0153,0.05,0.32,0.63,0.185,1.483,-3.135,-0.979,0.1722,0.0933,0.0096,-0.0187,0.9968,-0.0537,0.1363,0.2200,-0.0287,0.1111
7313,-0.0530,0.0699,0.0145,0.04,0.34,0.63,0.185,2.073,0.398,-1.203,0.1721,0.0968,0.0078,-0.0198,0.9951,-0.0543,0.1371,0.2200,-0.0292,0.1118
7323,-0.0516,0.0699,0.0143,0.06,0.33,0.62,0.186,-4.443,-1.584,-1.879,0.1721,0.0975,0.0053,-0.0181,0.9960,-0.0550,0.1378,0.2200,-0.0297,0.1125
7333,-0.0519,0.0652,0.0141,0.13,0.35,0.62,0.186,-4.374,-4.925,-1.324,0.1712,0.0989,0.0101,-0.0199,0.9963,-0.0557,0.1385,0.2200,-0.0302,0.1131
7344,-0.0507,0.0756,0.0134,0.07,0.35,0.60,0.186,-7.141,-2.278,-1.707,0.1710,0.0998,0.0128,-0.0180,0.9988,-0.0564,0.1392,0.2200,-0.0307,0.1139
7353,-0.0495,0.0753,0.0137,0.09,0.34,0.58,0.186,-5.340,-3.076,-1.610,0.1706,0.0996,0.0059,-0.0170,0.9950,-0.0571,0.1399,0.2200,-0.0312,0.1147
7364,-0.0516,0.0775,0.0131,0.01,0.38,0.57,0.186,-4.338,-1.735,-2.183,0.1702,0.0963,0.0003,-0.0190,0.9968,-0.0578,0.1407,0.2200,-0.0318,0.1154
7373,-0.0509,0.0782,0.0128,-0.06,0.42,0.55,0.186,-5.171,-0.879,-2.202,0.1695,0.0964,0.0057,-0.0186,1.0004,-0.0585,0.1414,0.2200,-0.0323,0.1162
7383,-0.0514,0.0744,0.0126,-0.08,0.43,0.53,0.185,-3.544,0.476,-1.602,0.1688,0.0965,0.0086,-0.0143,0.9991,-0.0592,0.1421,0.2200,-0.0328,0.1170
7393,-0.0515,0.0595,0.0129,-0.03,0.44,0.51,0.185,-0.605,3.732,-1.961,0.1681,0.0985,0.0138,-0.0155,0.9964,-0.0599,0.1428,0.2200,-0.0333,0.1175
7403,-0.0532,0.0578,0.0125,-0.06,0.45,0.49,0.185,-1.599,-0.412,-2.258,0.1681,0.0974,0.0095,-0.0157,0.9966,-0.0607,0.1435,0.2200,-0.0338,0.1181
7414,-0.0545,0.0560,0.0084,-0.09,0.45,0.47,0.185,-1.133,0.626,-2.177,0.1673,0.0998,0.0082,-0.0179,0.9981,-0.0614,0.1442,0.2200,-0.0344,0.1187
7423,-0.0560,0.0615,0.0083,-0.16,0.44,0.46,0.184,3.740,3.396,-2.193,0.1668,0.1004,0.0089,-0.0150,0.9988,-0.0621,0.1449,0.2200,-0.0349,0.1193
7433,-0.0545,0.0555,0.0084,-0.13,0.41,0.44,0.184,4.378,2.729,-2.163,0.1646,0.0903,0.0079,-0.0144,0.9953,-0.0628,0.1455,0.2200,-0.0355,0.1199
7443,-0.0561,0.0625,0.0078,-0.20,0.42,0.42,0.184,0.602,-1.874,-2.926,0.1646,0.0918,0.0072,-0.0177,0.9957,-0.0636,0.1462,0.2200,-0.0360,0.1205
7453,-0.0568,0.0627,0.0027,-0.18,0.39,0.39,0.184,1.889,-1.534,-2.956,0.1633,0.0918,0.0100,-0.0184,0.9951,-0.0643,0.1469,0.2200,-0.0366,0.1211
7463,-0.0636,0.0233,0.0031,0.13,0.40,0.37,0.184,1.369,1.092,-2.542,0.1627,0.0921,0.0095,-0.0193,0.9909,-0.0650,0.1476,0.2200,-0.0372,0.1213
7473,-0.0618,0.0277,0.0029,0.13,0.38,0.34,0.184,-2.367,-2.763,-2.046,0.1623,0.0922,0.0110,-0.0190,0.9935,-0.0658,0.1483,0.2200,-0.0379,0.1216
7483,-0.0648,0.0264,0.0024,0.14,0.42,0.32,0.185,-3.012,-0.498,-1.465,0.1607,0.0906,0.0076,-0.0168,0.9943,-0.0665,0.1489,0.2200,-0.0385,0.1219
7493,-0.0655,0.0261,0.0020,0.16,0.42,0.29,0.185,-4.310,-0.466,-1.992,0.1601,0.0907,0.0089,-0.0173,0.9965,-0.0673,0.1496,0.2200,-0.0392,0.1221
7503,-0.0653,0.0252,0.0014,0.15,0.43,0.27,0.185,-8.325,-0.864,-1.766,0.1593,0.0917,0.0065,-0.0168,0.9951,-0.0680,0.1503,0.2200,-0.0398,0.1224
7513,-0.0694,0.0179,-0.0010,0.18,0.45,0.25,0.185,-5.586,1.200,-1.463,0.1593,0.0924,0.0104,-0.0164,0.9991,-0.0688,0.1509,0.2200,-0.0405,0.1226
7523,-0.0701,0.0176,-0.0016,0.13,0.47,0.23,0.185,-8.497,1.380,-1.367,0.1586,0.0947,0.0098,-0.0185,1.0017,-0.0695,0.1516,0.2200,-0.0412,0.1227
7534,-0.0711,0.0205,-0.0022,0.06,0.47,0.21,0.185,-11.638,-1.091,-1.843,0.1586,0.0942,0.0087,-0.0167,0.9990,-0.0703,0.1522,0.2200,-0.0419,0.1230
7543,-0.0693,0.0219,-0.0025,-0.02,0.46,0.19,0.185,-9.495,2.008,-1.702,0.1579,0.0942,0.0103,-0.0180,0.9987,-0.0710,0.1529,0.2200,-0.0426,0.1232
7553,-0.0701,0.0297,-0.0037,-0.14,0.44,0.18,0.185,-8.851,0.539,-2.616,0.1576,0.0944,0.0075,-0.0176,0.9993,-0.0718,0.1535,0.2200,-0.0433,0.1235
7563,-0.0682,0.0272,-0.0037,-0.23,0.43,0.16,0.185,-5.863,4.583,-1.983,0.1565,0.0938,0.0105,-0.0189,1.0002,-0.0726,0.1541,0.2200,-0.0440,0.1237
7575,-0.0692,0.0264,-0.0035,-0.33,0.43,0.14,0.185,-8.454,0.821,-1.335,0.1566,0.0965,0.0132,-0.0176,1.0036,-0.0733,0.1548,0.2200,-0.0447,0.1240
7583,-0.0684,0.0268,-0.0035,-0.41,0.39,0.12,0.187,-4.519,4.609,-2.031,0.1555,0.0935,0.0130,-0.0191,0.9995,-0.0741,0.1554,0.2200,-0.0454,0.1243
7593,-0.0705,0.0244,-0.0037,-0.47,0.38,0.10,0.187,-4.045,4.235,-2.244,0.1553,0.0936,0.0120,-0.0167,1.0001,-0.0749,0.1560,0.2200,-0.0461,0.1245
7603,-0.0683,0.0342,-0.0038,-0.59,0.34,0.08,0.187,-4.219,3.439,-1.034,0.1543,0.0952,0.0099,-0.0175,1.0028,-0.0757,0.1567,0.2200,-0.0468,0.1249
7613,-0.0703,0.0229,0.0012,-0.58,0.32,0.06,0.187,-6.833,1.199,-1.092,0.1536,0.0953,0.0100,-0.0146,1.0022,-0.0765,0.1573,0.2200,-0.0475,0.1251
7623,-0.0691,0.0234,0.0015,-0.61,0.26,0.04,0.189,-8.003,-1.793,-1.005,0.1519,0.0967,0.0089,-0.0129,1.0032,-0.0773,0.1579,0.2200,-0.0482,0.1253
7633,-0.0709,0.0296,0.0014,-0.67,0.24,0.02,0.189,-4.369,0.177,-1.180,0.1519,0.0965,0.0100,-0.0143,1.0029,-0.0780,0.1585,0.2200,-0.0489,0.1256
7643,-0.0713,0.0302,0.0014,-0.71,0.22,0.00,0.189,-4.288,-1.841,-1.456,0.1510,0.0961,0.0084,-0.0174,1.0001,-0.0788,0.1591,0.2200,-0.0496,0.1259
7653,-0.0752,0.0355,0.0082,-0.80,0.25,-0.01,0.189,-1.725,-0.243,-1.400,0.1510,0.0976,0.0054,-0.0208,1.0004,-0.0796,0.1597,0.2200,-0.0503,0.1263
7663,-0.0730,0.0346,0.0085,-0.84,0.25,-0.02,0.189,-1.687,0.503,-1.245,0.1502,0.0977,0.0054,-0.0173,1.0002,-0.0804,0.1603,0.2200,-0.0511,0.1266
7674,-0.0738,0.0334,0.0088,-0.84,0.26,-0.04,0.189,-2.250,-1.913,-0.637,0.1490,0.0957,0.0099,-0.0202,0.9987,-0.0812,0.1609,0.2200,-0.0518,0.1270
7683,-0.0716,0.0392,0.0091,-0.88,0.24,-0.06,0.181,-1.428,-0.363,-1.304,0.1483,0.0965,0.0074,-0.0164,0.9984,-0.0820,0.1615,0.2200,-0.0525,0.1273
7693,-0.0725,0.0395,0.0091,-0.89,0.26,-0.07,0.181,1.169,2.520,-1.189,0.1480,0.0972,0.0097,-0.0179,0.9958,-0.0829,0.1621,0.2200,-0.0532,0.1277
7703,-0.0746,0.0323,0.0093,-0.83,0.27,-0.08,0.181,2.403,2.092,-1.585,0.1481,0.0999,0.0081,-0.0171,0.9981,-0.0837,0.1627,0.2200,-0.0540,0.1281
7713,-0.0749,0.0355,-0.0062,-0.87,0.29,-0.09,0.181,-1.343,1.438,-0.372,0.1471,0.0979,0.0097,-0.0187,1.0003,-0.0845,0.1633,0.2200,-0.0547,0.1284
7723,-0.0737,0.0384,-0.0063,-0.88,0.26,-0.10,0.179,-3.615,-2.411,-0.070,0.1468,0.0983,0.0066,-0.0162,0.9990,-0.0853,0.1638,0.2200,-0.0555,0.1288
7733,-0.0711,0.0482,-0.0065,-0.91,0.22,-0.12,0.179,-3.903,-1.909,-0.092,0.1455,0.0987,0.0095,-0.0194,1.0000,-0.0861,0.1644,0.2200,-0.0562,0.1293
7743,-0.0728,0.0408,-0.0067,-0.84,0.20,-0.13,0.179,1.101,0.605,0.073,0.1455,0.0964,0.0093,-0.0157,0.9999,-0.0869,0.1650,0.2200,-0.0569,0.1297
7753,-0.0717,0.0423,-0.0185,-0.88,0.21,-0.13,0.179,-2.043,-1.787,0.715,0.1448,0.0983,0.0085,-0.0187,1.0002,-0.0878,0.1655,0.2200,-0.0576,0.1301
7763,-0.0740,0.0438,-0.0186,-0.90,0.24,-0.13,0.179,0.888,1.973,0.537,0.1440,0.0983,0.0067,-0.0186,1.0016,-0.0886,0.1661,0.2200,-0.0584,0.1306
7773,-0.0716,0.0355,-0.0184,-0.86,0.23,-0.13,0.179,0.530,0.406,0.962,0.1436,0.1005,0.0092,-0.0209,1.0025,-0.0894,0.1667,0.2200,-0.0591,0.1309
7782,-0.0722,0.0427,-0.0185,-0.89,0.24,-0.13,0.182,5.427,-0.858,0.525,0.1425,0.1004,0.0097,-0.0172,1.0036,-0.0903,0.1672,0.2200,-0.0598,0.1313
7793,-0.0726,0.0425,-0.0185,-0.87,0.24,-0.13,0.182,3.184,0.471,1.087,0.1417,0.0992,0.0086,-0.0189,1.0032,-0.0911,0.1678,0.2200,-0.0605,0.1318
7803,-0.0719,0.0506,-0.0186,-0.90,0.23,-0.12,0.182,1.198,-2.938,1.314,0.1414,0.0996,0.0082,-0.0184,1.0050,-0.0919,0.1683,0.2200,-0.0612,0.1323
7813,-0.0736,0.0498,-0.0167,-0.85,0.23,-0.11,0.182,2.217,-0.888,2.257,0.1402,0.1005,0.0097,-0.0161,1.0085,-0.0928,0.1688,0.2200,-0.0620,0.1328
7823,-0.0743,0.0453,-0.0164,-0.80,0.24,-0.10,0.180,4.115,-1.187,2.666,0.1402,0.0988,0.0096,-0.0180,1.0085,-0.0936,0.1694,0.2200,-0.0627,0.1332
7833,-0.0733,0.0462,-0.0160,-0.77,0.23,-0.08,0.180,4.949,-1.152,3.512,0.1393,0.1002,0.0096,-0.0206,1.0059,-0.0945,0.1699,0.2200,-0.0635,0.1337
7843,-0.0751,0.0495,-0.0157,-0.75,0.25,-0.07,0.180,3.449,-1.573,3.560,0.1385,0.0970,0.0081,-0.0154,1.0047,-0.0953,0.1704,0.2200,-0.0642,0.1342
7853,-0.0730,0.0427,-0.0169,-0.66,0.26,-0.05,0.180,3.692,-1.078,2.767,0.1384,0.1003,0.0134,-0.0203,1.0066,-0.0962,0.1709,0.2200,-0.0649,0.1346
7863,-0.0739,0.0476,-0.0162,-0.65,0.28,-0.01,0.180,5.138,-0.522,3.330,0.1369,0.0990,0.0097,-0.0236,1.0065,-0.0970,0.1715,0.2200,-0.0657,0.1351
7873,-0.0748,0.0352,-0.0151,-0.52,0.31,0.02,0.180,3.774,-0.525,3.218,0.1361,0.1065,0.0094,-0.0197,1.0094,-0.0979,0.1720,0.2200,-0.0664,0.1354
7883,-0.0727,0.0468,-0.0146,-0.54,0.31,0.05,0.179,2.258,0.433,3.641,0.1354,0.1071,0.0069,-0.0194,1.0119,-0.0988,0.1725,0.2200,-0.0672,0.1359
7893,-0.0762,0.0412,-0.0140,-0.45,0.33,0.08,0.179,-0.435,0.586,2.288,0.1354,0.1082,0.0109,-0.0190,1.0061,-0.0996,0.1730,0.2200,-0.0679,0.1363
7903,-0.0769,0.0684,-0.0140,-0.58,0.34,0.11,0.179,1.292,-0.765,2.643,0.1354,0.1101,0.0085,-0.0219,1.0087,-0.1005,0.1735,0.2200,-0.0687,0.1370
7913,-0.0774,0.0691,-0.0147,-0.55,0.34,0.15,0.179,1.803,-0.307,2.862,0.1347,0.1085,0.0123,-0.0201,1.0103,-0.1014,0.1740,0.2200,-0.0695,0.1377
7923,-0.0749,0.0717,-0.0137,-0.55,0.31,0.17,0.183,1.428,-0.147,2.619,0.1339,0.1119,0.0119,-0.0214,1.0097,-0.1022,0.1745,0.2200,-0.0702,0.1384
7933,-0.0727,0.0768,-0.0127,-0.58,0.30,0.20,0.183,0.684,1.449,2.731,0.1331,0.1130,0.0105,-0.0184,1.0113,-0.1031,0.1750,0.2200,-0.0709,0.1392
7943,-0.0733,0.0691,-0.0118,-0.50,0.31,0.23,0.183,0.605,0.683,1.549,0.1324,0.1126,0.0102,-0.0173,1.0114,-0.1040,0.1754,0.2200,-0.0717,0.1399
7952,-0.0742,0.0802,-0.0020,-0.56,0.31,0.25,0.183,3.376,-0.006,1.434,0.1320,0.1130,0.0118,-0.0181,1.0127,-0.1049,0.1759,0.2200,-0.0724,0.1407
7963,-0.0747,0.0822,-0.0011,-0.55,0.30,0.28,0.183,5.384,1.111,1.123,0.1320,0.1136,0.0079,-0.0200,1.0095,-0.1057,0.1764,0.2200,-0.0732,0.1415
7972,-0.0751,0.0788,0.0001,-0.52,0.29,0.30,0.183,6.520,0.908,1.097,0.1298,0.1130,0.0135,-0.0184,1.0067,-0.1066,0.1769,0.2200,-0.0739,0.1423
7982,-0.0742,0.0780,0.0012,-0.49,0.28,0.31,0.181,8.412,0.579,1.765,0.1298,0.1202,0.0133,-0.0165,1.0085,-0.1075,0.1773,0.2200,-0.0746,0.1431
7993,-0.0719,0.0783,0.0025,-0.45,0.25,0.33,0.181,6.765,0.698,0.661,0.1291,0.1211,0.0108,-0.0184,1.0087,-0.1084,0.1778,0.2200,-0.0754,0.1438
8003,-0.0779,0.0739,0.0037,-0.36,0.28,0.34,0.181,9.913,-0.902,1.119,0.1283,0.1179,0.0101,-0.0169,1.0078,-0.1093,0.1782,0.2200,-0.0761,0.1446
8012,-0.0756,0.0985,0.0051,-0.44,0.26,0.36,0.181,9.706,-2.580,1.510,0.1278,0.1201,0.0093,-0.0224,1.0049,-0.1102,0.1787,0.2200,-0.0769,0.1456
8023,-0.0759,0.0990,0.0057,-0.37,0.25,0.37,0.183,10.964,-0.935,1.630,0.1270,0.1198,0.0108,-0.0218,1.0053,-0.1111,0.1791,0.2200,-0.0777,0.1466
8032,-0.0764,0.0841,0.0073,-0.18,0.25,0.38,0.183,9.973,-0.278,2.011,0.1269,0.1232,0.0109,-0.0197,1.0050,-0.1120,0.1796,0.2200,-0.0784,0.1474
8043,-0.0757,0.0897,0.0080,-0.12,0.26,0.40,0.183,9.147,-1.813,1.365,0.1258,0.1244,0.0118,-0.0187,1.0025,-0.1129,0.1800,0.2200,-0.0792,0.1483
8052,-0.0764,0.0855,0.0131,0.02,0.28,0.41,0.183,6.330,-1.254,1.881,0.1257,0.1256,0.0092,-0.0189,1.0021,-0.1138,0.1805,0.2200,-0.0799,0.1491
8063,-0.0744,0.0947,0.0134,0.06,0.27,0.43,0.183,5.954,-2.213,0.962,0.1250,0.1236,0.0061,-0.0186,1.0053,-0.1147,0.1809,0.2200,-0.0807,0.1501
8073,-0.0763,0.0955,0.0139,0.15,0.29,0.45,0.183,5.942,-1.785,1.672,0.1249,0.1278,0.0081,-0.0191,1.0031,-0.1156,0.1813,0.2200,-0.0815,0.1510
8084,-0.0741,0.0962,0.0143,0.22,0.28,0.47,0.181,5.064,-0.938,1.902,0.1241,0.1291,0.0107,-0.0190,1.0020,-0.1165,0.1817,0.2200,-0.0822,0.1520
8093,-0.0746,0.0849,0.0149,0.35,0.29,0.48,0.181,4.852,-0.416,1.555,0.1233,0.1304,0.0122,-0.0188,1.0020,-0.1174,0.1821,0.2200,-0.0829,0.1529
8102,-0.0727,0.0966,0.0148,0.34,0.29,0.50,0.181,4.245,-0.253,1.570,0.1226,0.1300,0.0138,-0.0187,1.0003,-0.1183,0.1826,0.2200,-0.0837,0.1538
8113,-0.0734,0.0972,0.0116,0.38,0.31,0.52,0.181,4.651,-0.791,1.666,0.1218,0.1306,0.0135,-0.0187,1.0004,-0.1192,0.1830,0.2200,-0.0844,0.1548
8122,-0.0741,0.0980,0.0117,0.42,0.31,0.54,0.182,4.260,-1.543,1.416,0.1218,0.1330,0.0088,-0.0207,1.0006,-0.1201,0.1834,0.2200,-0.0851,0.1558
8133,-0.0747,0.0918,0.0121,0.50,0.32,0.55,0.182,3.511,-1.710,0.554,0.1210,0.1335,0.0119,-0.0185,1.0004,-0.1210,0.1838,0.2200,-0.0859,0.1567
8142,-0.0752,0.0898,0.0123,0.56,0.32,0.57,0.182,3.784,-1.832,0.528,0.1202,0.1334,0.0114,-0.0200,1.0019,-0.1220,0.1842,0.2200,-0.0866,0.1576
8153,-0.0731,0.0944,0.0114,0.57,0.30,0.59,0.182,4.406,-1.327,0.464,0.1202,0.1341,0.0114,-0.0226,1.0010,-0.1229,0.1845,0.2200,-0.0874,0.1585
8162,-0.0738,0.0920,0.0116,0.63,0.31,0.59,0.182,6.228,-0.975,-0.044,0.1197,0.1340,0.0096,-0.0189,1.0001,-0.1238,0.1849,0.2200,-0.0881,0.1595
8173,-0.0745,0.0871,0.0117,0.70,0.32,0.60,0.182,4.380,-0.858,-0.440,0.1189,0.1378,0.0088,-0.0205,1.0016,-0.1247,0.1853,0.2200,-0.0889,0.1603
8182,-0.0725,0.0849,0.0119,0.75,0.32,0.60,0.185,4.263,0.518,-0.344,0.1181,0.1391,0.0100,-0.0175,1.0036,-0.1257,0.1857,0.2200,-0.0896,0.1612
8193,-0.0720,0.0800,0.0122,0.83,0.32,0.61,0.185,3.484,-0.469,-0.984,0.1170,0.1380,0.0105,-0.0170,1.0016,-0.1266,0.1860,0.2200,-0.0903,0.1620
8203,-0.0728,0.0899,0.0119,0.81,0.33,0.61,0.185,1.934,-1.495,-1.722,0.1166,0.1383,0.0116,-0.0145,1.0038,-0.1275,0.1864,0.2200,-0.0910,0.1629
8213,-0.0738,0.0902,0.0165,0.84,0.34,0.60,0.185,3.007,1.152,-1.861,0.1159,0.1393,0.0132,-0.0171,1.0016,-0.1285,0.1868,0.2200,-0.0918,0.1638
8222,-0.0757,0.0810,0.0168,0.94,0.34,0.60,0.182,0.834,1.161,-0.946,0.1151,0.1397,0.0118,-0.0143,1.0003,-0.1294,0.1871,0.2200,-0.0925,0.1646
8232,-0.0749,0.0773,0.0172,0.99,0.34,0.58,0.182,-0.447,-1.489,-1.684,0.1144,0.1425,0.0088,-0.0158,1.0015,-0.1303,0.1875,0.2200,-0.0933,0.1654
8243,-0.0755,0.0767,0.0173,1.01,0.33,0.57,0.182,1.074,2.822,-0.972,0.1133,0.1440,0.0090,-0.0148,1.0040,-0.1313,0.1878,0.2200,-0.0940,0.1661
8252,-0.0760,0.0735,0.0123,1.02,0.33,0.55,0.182,-1.581,-0.761,-1.512,0.1122,0.1437,0.0107,-0.0134,0.9974,-0.1322,0.1882,0.2200,-0.0948,0.1669
8262,-0.0766,0.0795,0.0122,0.99,0.33,0.54,0.182,2.335,3.057,-1.741,0.1121,0.1435,0.0147,-0.0167,0.9941,-0.1332,0.1885,0.2200,-0.0956,0.1677
8272,-0.0784,0.0805,0.0121,0.96,0.32,0.53,0.182,-0.251,-1.161,-1.456,0.1113,0.1442,0.0153,-0.0187,0.9975,-0.1341,0.1888,0.2200,-0.0963,0.1685
8283,-0.0802,0.0744,0.0124,0.99,0.32,0.51,0.187,-0.891,0.009,-1.182,0.1105,0.1451,0.0120,-0.0169,0.9963,-0.1350,0.1892,0.2200,-0.0971,0.1692
8292,-0.0777,0.0686,0.0129,1.03,0.29,0.50,0.187,1.757,3.112,-1.210,0.1094,0.1447,0.0119,-0.0166,0.9946,-0.1360,0.1895,0.2200,-0.0979,0.1699
8303,-0.0781,0.0671,0.0126,1.03,0.28,0.48,0.187,-0.874,1.938,-1.412,0.1087,0.1440,0.0123,-0.0175,1.0003,-0.1369,0.1898,0.2200,-0.0987,0.1706
8313,-0.0788,0.0659,0.0183,1.02,0.29,0.46,0.187,-2.240,-2.277,-2.022,0.1076,0.1444,0.0155,-0.0154,1.0017,-0.1379,0.1901,0.2200,-0.0995,0.1712
8322,-0.0803,0.0602,0.0180,1.06,0.27,0.45,0.185,-2.477,-1.445,-1.689,0.1068,0.1450,0.0145,-0.0176,0.9997,-0.1388,0.1904,0.2200,-0.1003,0.1718
8332,-0.0804,0.0534,0.0177,1.10,0.25,0.44,0.185,0.554,1.452,-2.072,0.1049,0.1457,0.0114,-0.0136,0.9976,-0.1398,0.1907,0.2200,-0.1011,0.1724
8342,-0.0822,0.0512,0.0172,1.08,0.27,0.43,0.185,-1.292,-1.903,-1.727,0.1040,0.1462,0.0118,-0.0156,0.9971,-0.1407,0.1910,0.2200,-0.1019,0.1729
8353,-0.0825,0.0493,0.0146,1.06,0.29,0.41,0.185,-2.379,-0.861,-1.337,0.1036,0.1467,0.0134,-0.0144,1.0006,-0.1417,0.1913,0.2200,-0.1027,0.1734
8362,-0.0870,0.0485,0.0146,1.05,0.31,0.39,0.185,0.496,4.867,-0.846,0.1029,0.1471,0.0133,-0.0146,0.9996,-0.1427,0.1916,0.2200,-0.1036,0.1738
8372,-0.0870,0.0485,0.0146,1.05,0.31,0.39,0.185,1.321,4.456,-1.398,0.1023,0.1471,0.0135,-0.0141,0.9965,-0.1436,0.1919,0.2200,-0.1045,0.1743
8382,-0.0859,0.0468,0.0145,1.04,0.30,0.37,0.185,-3.193,0.736,-1.341,0.1009,0.1475,0.0162,-0.0191,0.9953,-0.1446,0.1922,0.2200,-0.1053,0.1748
8393,-0.0857,0.0447,0.0143,1.01,0.32,0.36,0.185,-1.379,4.171,-1.414,0.1006,0.1483,0.0120,-0.0187,0.9962,-0.1455,0.1924,0.2200,-0.1062,0.1752
8402,-0.0853,0.0412,0.0140,1.02,0.28,0.35,0.185,-3.928,1.961,-1.142,0.0998,0.1493,0.0146,-0.0162,0.9950,-0.1465,0.1927,0.2200,-0.1070,0.1757
8412,-0.0879,0.0396,0.0103,1.03,0.24,0.34,0.185,-5.673,0.147,-1.512,0.0991,0.1494,0.0136,-0.0152,0.9908,-0.1475,0.1930,0.2200,-0.1079,0.1761
8422,-0.0860,0.0395,0.0102,1.00,0.20,0.33,0.188,-6.087,0.293,-1.111,0.0976,0.1500,0.0133,-0.0150,0.9969,-0.1484,0.1932,0.2200,-0.1088,0.1765
8432,-0.0860,0.0398,0.0098,0.97,0.17,0.31,0.188,-2.491,1.463,-1.839,0.0969,0.1502,0.0133,-0.0152,0.9989,-0.1494,0.1935,0.2200,-0.1096,0.1769
