time_ms,vel_x,vel_y,vel_z,roll,pitch,yaw,range_z,gyro_x,gyro_y,gyro_z
0,0.0157,0.0077,0.0022,-0.94,-0.01,-29.69,0.007,0.278,0.047,-0.206
0,0.0215,0.0036,0.0025,-0.94,-0.07,-29.66,0.007,0.121,-0.296,-0.162
0,0.0161,-0.0018,0.0028,-0.87,-0.05,-29.63,0.007,-0.096,0.026,-0.034
0,0.0148,0.0022,0.0030,-0.90,-0.02,-29.60,0.007,0.201,-0.014,-0.196
0,0.0107,-0.0037,0.0036,-0.84,-0.01,-29.57,0.008,-0.045,-0.018,-0.040
0,0.0140,-0.0058,0.0041,-0.83,-0.04,-29.54,0.008,-0.073,-0.003,0.116
0,0.0122,-0.0076,0.0021,-0.82,-0.04,-29.52,0.008,0.055,-0.176,-0.196
0,0.0185,0.0028,0.0025,-0.91,-0.04,-29.49,0.008,0.366,0.034,-0.006
0,0.0122,0.0044,0.0030,-0.90,0.01,-29.46,0.011,-0.200,-0.140,-0.176
0,0.0100,0.0013,0.0034,-0.87,0.01,-29.43,0.011,0.098,-0.074,0.082
0,0.0065,-0.0021,0.0087,-0.83,0.03,-29.40,0.011,0.119,0.086,0.013
0,0.0067,-0.0100,0.0090,-0.77,-0.01,-29.37,0.011,-0.079,-0.077,0.057
0,0.0041,-0.0046,0.0092,-0.80,0.03,-29.34,0.011,0.193,-0.011,0.018
0,0.0168,0.0187,0.0096,-1.02,0.04,-29.32,0.011,-0.185,0.190,-0.027
1,0.0209,0.0204,0.0098,-1.04,0.01,-29.29,0.008,0.215,-0.079,0.148
1,0.0209,0.0304,0.0094,-1.11,0.05,-29.26,0.008,-0.061,0.062,-0.397
1,0.0182,0.0261,0.0050,-1.07,0.05,-29.23,0.008,-0.029,-0.073,-0.095
1,0.0358,0.0373,0.0042,-1.21,-0.03,-29.20,0.008,-0.279,-0.252,0.078
1,0.0348,0.0367,0.0046,-1.20,-0.02,-29.18,0.009,0.281,0.143,0.176
1,0.0344,0.0395,0.0045,-1.21,-0.01,-29.15,0.009,-0.034,0.203,-0.016
1,0.0308,0.0275,0.0049,-1.11,-0.03,-29.11,0.009,-0.176,0.083,0.191
1,0.0332,0.0241,0.0051,-1.09,-0.06,-29.08,0.009,-0.133,-0.020,-0.101
1,0.0295,0.0355,0.0054,-1.16,0.01,-29.06,0.009,0.101,0.394,0.186
1,0.0274,0.0305,0.0062,-1.11,0.01,-29.03,0.009,-0.158,-0.093,-0.093
1,0.0267,0.0301,0.0064,-1.10,0.01,-29.00,0.008,0.250,-0.156,-0.221
1,0.0268,0.0305,0.0067,-1.10,0.01,-28.97,0.008,0.035,-0.207,-0.036
1,0.0228,0.0197,0.0036,-1.00,-0.01,-28.94,0.008,0.211,-0.266,-0.289
1,0.0237,0.0177,0.0040,-0.99,-0.02,-28.91,0.008,-0.154,0.105,0.093
1,0.0232,0.0259,0.0041,-1.04,0.01,-28.89,0.010,0.219,0.026,-0.038
1,0.0210,0.0253,0.0044,-1.02,0.03,-28.86,0.010,0.055,-0.188,-0.059
1,0.0189,0.0223,0.0064,-0.98,0.03,-28.83,0.010,-0.180,-0.024,0.025
1,0.0171,0.0148,0.0070,-0.92,0.02,-28.80,0.010,-0.114,-0.151,-0.109
1,0.0213,0.0234,0.0068,-1.00,0.02,-28.78,0.010,0.032,0.014,0.200
2,0.0188,0.0201,0.0072,-0.96,0.02,-28.75,0.010,0.038,-0.378,-0.114
2,0.0147,0.0209,0.0075,-0.95,0.06,-28.72,0.012,-0.005,0.059,0.122
2,0.0227,0.0188,0.0076,-0.97,-0.01,-28.69,0.012,0.261,-0.078,0.116
2,0.0204,0.0183,0.0126,-0.95,0.01,-28.66,0.012,0.035,-0.149,-0.101
2,0.0143,0.0200,0.0131,-0.94,0.06,-28.64,0.012,0.008,0.216,0.174
2,0.0143,0.0201,0.0135,-0.94,0.06,-28.61,0.012,-0.038,-0.035,0.022
2,0.0104,0.0136,0.0141,-0.88,0.06,-28.58,0.012,0.304,-0.019,-0.221
2,0.0160,0.0119,0.0154,-0.89,0.01,-28.55,0.012,0.017,0.042,0.061
2,0.0105,0.0054,0.0159,-0.82,0.02,-28.52,0.012,0.161,-0.271,-0.175
2,0.0107,0.0113,0.0163,-0.86,0.04,-28.50,0.012,-0.133,-0.016,-0.194
2,0.0048,0.0134,0.0166,-0.85,0.09,-28.47,0.012,0.354,0.131,-0.043
2,0.0074,0.0110,0.0168,-0.84,0.06,-28.45,0.008,-0.231,-0.047,-0.063
2,0.0061,-0.0104,0.0176,-0.69,-0.01,-28.42,0.008,0.170,0.069,-0.137
2,-0.0022,-0.0218,0.0064,-0.57,0.01,-28.39,0.008,0.048,-0.031,-0.370
2,-0.0018,-0.0080,0.0072,-0.68,0.06,-28.36,0.008,0.083,0.029,-0.144
2,0.0021,0.0017,0.0076,-0.76,0.07,-28.34,0.008,0.123,0.025,-0.118
2,0.0064,0.0027,0.0078,-0.79,0.04,-28.31,0.008,-0.029,-0.157,0.062
2,0.0041,-0.0008,0.0013,-0.76,0.04,-28.28,0.008,0.230,0.033,0.008
2,0.0064,0.0015,0.0014,-0.78,0.04,-28.26,0.008,0.072,0.136,0.069
2,-0.0046,0.0006,0.0018,-0.73,0.12,-28.23,0.008,0.268,0.196,0.049
2,0.0026,0.0043,0.0024,-0.79,0.08,-28.20,0.008,-0.121,-0.280,0.084
2,0.0047,0.0014,0.0028,-0.77,0.05,-28.17,0.008,-0.143,0.013,-0.166
2,0.0099,0.0070,0.0030,-0.84,0.03,-28.14,0.008,0.058,-0.152,-0.170
2,-0.0067,-0.0016,-0.0010,-0.71,0.11,-28.12,0.008,-0.130,-0.049,-0.002
2,0.0036,0.0030,-0.0006,-0.79,0.05,-28.09,0.008,-0.036,0.121,0.245
2,0.0008,-0.0048,-0.0002,-0.72,0.05,-28.06,0.006,0.164,0.169,-0.026
2,-0.0013,-0.0013,0.0001,-0.74,0.08,-28.03,0.006,0.002,0.283,0.251
2,-0.0009,-0.0004,-0.0064,-0.75,0.08,-28.00,0.006,0.265,-0.362,-0.597
2,0.0009,0.0036,-0.0062,-0.78,0.08,-27.98,0.006,-0.046,-0.100,0.042
2,0.0015,0.0029,-0.0059,-0.78,0.07,-27.95,0.006,0.086,-0.223,-0.035
2,0.0021,0.0021,-0.0055,-0.78,0.06,-27.92,0.006,0.006,-0.185,-0.220
2,0.0021,0.0019,-0.0051,-0.77,0.06,-27.90,0.007,0.002,0.114,0.017
3,0.0018,0.0016,-0.0046,-0.77,0.06,-27.87,0.007,0.048,-0.155,0.096
3,-0.0030,0.0033,-0.0057,-0.77,0.10,-27.84,0.007,-0.017,-0.149,-0.195
3,-0.0028,-0.0097,-0.0054,-0.68,0.05,-27.82,0.007,-0.098,-0.305,-0.188
3,0.0012,-0.0019,-0.0051,-0.76,0.05,-27.79,0.010,-0.067,-0.050,0.147
3,0.0009,0.0010,-0.0051,-0.77,0.06,-27.77,0.010,0.105,0.167,-0.045
3,-0.0021,-0.0043,0.0009,-0.72,0.06,-27.74,0.010,0.015,-0.047,-0.230
3,0.0180,0.0138,0.0011,-0.93,-0.01,-27.71,0.010,0.257,-0.162,-0.260
3,0.0200,0.0265,0.0010,-1.02,0.02,-27.68,0.010,0.182,-0.241,-0.144
3,0.0172,0.0218,0.0017,-0.98,0.02,-27.65,0.010,0.095,-0.224,-0.066
3,0.0155,0.0195,0.0020,-0.95,0.03,-27.63,0.008,0.127,-0.387,0.009
3,0.0151,0.0169,0.0024,-0.93,0.02,-27.60,0.008,0.069,-0.367,-0.050
3,0.0159,0.0219,0.0016,-0.97,0.03,-27.58,0.008,-0.018,-0.157,-0.199
3,0.0192,0.0237,0.0018,-0.99,0.02,-27.55,0.008,-0.052,-0.124,0.169
3,0.0220,0.0430,0.0011,-1.13,0.07,-27.52,0.008,-0.213,0.259,-0.144
3,0.0230,0.0452,0.0011,-1.15,0.07,-27.49,0.008,0.094,-0.029,-0.222
3,0.0213,0.0421,0.0013,-1.11,0.07,-27.47,0.008,0.118,-0.013,0.226
3,0.0310,0.0712,-0.0009,-1.35,0.11,-27.44,0.008,-0.130,-0.172,0.043
3,0.0336,0.0736,-0.0010,-1.37,0.09,-27.41,0.008,0.369,0.011,-0.296
3,0.0279,0.0698,0.0005,-1.31,0.12,-27.39,0.008,0.054,-0.052,-0.004
3,0.0319,0.0651,0.0014,-1.29,0.07,-27.36,0.012,-0.210,-0.181,0.284
3,0.0283,0.0634,0.0024,-1.25,0.09,-27.33,0.012,0.345,-0.032,-0.042
3,0.0288,0.0647,0.0117,-1.25,0.09,-27.31,0.012,-0.068,0.239,-0.079
3,0.0302,0.0803,0.0103,-1.36,0.13,-27.28,0.012,-0.160,0.126,0.039
3,0.0027,0.0833,0.0115,-1.27,0.34,-27.26,0.010,-0.047,0.119,0.078
3,0.0000,0.0753,0.0131,-1.20,0.32,-27.23,0.010,-0.079,0.006,-0.194
3,0.0002,0.0728,0.0125,-1.17,0.30,-27.21,0.010,0.093,0.056,0.143
3,-0.0029,0.0693,0.0130,-1.13,0.31,-27.18,0.010,0.045,-0.464,-0.329
3,0.0001,0.0696,0.0131,-1.14,0.28,-27.15,0.010,0.187,-0.157,-0.386
3,-0.0006,0.0652,0.0139,-1.10,0.27,-27.13,0.010,-0.074,-0.049,-0.077
3,-0.0013,0.0611,0.0148,-1.07,0.26,-27.10,0.011,0.069,0.164,0.226
3,0.0074,0.0755,0.0138,-1.20,0.24,-27.07,0.011,0.081,-0.342,-0.275
3,0.0403,0.0818,0.0127,-1.36,0.02,-27.03,0.011,-0.014,-0.095,0.101
3,0.0355,0.0727,0.0143,-1.27,0.02,-27.01,0.011,-0.137,-0.240,-0.012
3,0.0342,0.0675,0.0154,-1.23,0.02,-26.98,0.010,0.039,0.016,0.184
4,0.0230,0.0578,0.0176,-1.11,0.06,-26.96,0.010,0.136,0.313,-0.176
4,0.0181,0.0501,0.0138,-1.03,0.07,-26.94,0.010,-0.060,-0.140,0.071
4,0.0147,0.0284,0.0152,-0.86,0.01,-26.91,0.010,0.479,0.069,-0.122
4,0.0026,0.0123,0.0158,-0.70,0.04,-26.89,0.010,-0.120,-0.234,0.197
4,0.0073,0.0216,0.0164,-0.79,0.04,-26.86,0.010,0.254,-0.142,-0.200
4,0.0191,0.0468,0.0163,-1.01,0.05,-26.83,0.010,0.299,0.054,-0.094
4,0.0150,0.0208,0.0188,-0.80,-0.02,-26.81,0.010,-0.175,-0.335,0.158
4,0.0125,0.0187,0.0126,-0.78,-0.01,-26.78,0.010,-0.036,-0.201,-0.014
4,0.0212,0.0390,0.0122,-0.96,0.00,-26.76,0.010,0.085,0.078,-0.153
4,0.0222,0.0411,0.0124,-0.98,0.00,-26.73,0.011,0.202,-0.248,0.080
4,0.0225,0.0346,0.0131,-0.93,-0.02,-26.70,0.011,0.071,0.132,-0.057
4,0.0136,0.0226,0.0117,-0.81,-0.00,-26.68,0.011,0.129,-0.142,-0.366
4,0.0147,0.0280,0.0118,-0.85,0.01,-26.65,0.011,0.052,0.098,0.128
4,0.0109,0.0204,0.0124,-0.78,0.01,-26.62,0.011,0.142,-0.022,0.161
4,0.0148,0.0232,0.0124,-0.82,-0.01,-26.60,0.011,0.179,-0.017,-0.062
4,0.0022,0.0213,0.0131,-0.76,0.08,-26.57,0.009,0.018,-0.162,0.038
4,0.0007,0.0179,0.0135,-0.73,0.08,-26.55,0.009,0.057,0.139,0.114
4,0.0047,0.0050,0.0055,-0.65,-0.00,-26.52,0.009,0.075,-0.128,0.138
4,-0.0020,0.0075,0.0056,-0.65,0.06,-26.49,0.009,-0.017,-0.285,-0.216
4,-0.0000,0.0111,0.0058,-0.68,0.05,-26.47,0.011,0.007,-0.103,0.064
4,-0.0018,0.0124,0.0060,-0.69,0.07,-26.44,0.011,0.087,0.326,0.073
4,-0.0041,0.0047,0.0056,-0.63,0.06,-26.42,0.011,-0.068,-0.286,0.033
4,-0.0153,-0.0233,0.0060,-0.39,0.04,-26.39,0.011,0.157,0.346,-0.099
4,-0.0137,-0.0182,0.0068,-0.44,0.04,-26.36,0.011,0.212,-0.012,-0.247
4,-0.0213,-0.0137,0.0071,-0.45,0.11,-26.34,0.011,-0.027,0.297,0.232
4,-0.0221,-0.0445,0.0062,-0.23,0.01,-26.31,0.012,-0.158,0.052,-0.264
4,-0.0255,-0.0487,0.0060,-0.19,0.02,-26.29,0.012,0.170,-0.015,-0.057
4,-0.0076,-0.0304,0.0103,-0.40,-0.05,-26.27,0.012,-0.128,0.346,-0.022
4,-0.0001,-0.0069,0.0116,-0.60,-0.02,-26.24,0.012,0.063,-0.456,-0.306
4,0.0002,-0.0034,0.0118,-0.63,-0.01,-26.21,0.010,0.167,0.087,-0.077
4,-0.0017,-0.0102,0.0121,-0.58,-0.02,-26.19,0.010,0.096,-0.221,0.042
4,-0.0018,-0.0107,0.0067,-0.58,-0.01,-26.17,0.010,-0.132,-0.115,-0.338
4,0.0084,-0.0026,0.0069,-0.68,-0.06,-26.14,0.010,0.091,-0.241,-0.326
4,-0.0026,-0.0107,0.0076,-0.58,-0.01,-26.11,0.010,-0.141,0.024,0.113
4,-0.0019,-0.0058,0.0081,-0.62,0.01,-26.09,0.010,-0.095,-0.007,-0.104
5,0.0018,-0.0027,0.0084,-0.66,-0.01,-26.07,0.010,0.022,0.111,-0.258
5,0.0046,-0.0046,0.0086,-0.66,-0.04,-26.04,0.010,0.013,0.206,0.136
5,0.0168,0.0235,0.0036,-0.92,-0.02,-26.02,0.010,0.036,0.068,-0.104
5,0.0158,0.0299,0.0034,-0.96,0.01,-25.99,0.010,-0.077,-0.193,-0.067
5,0.0176,0.0257,0.0039,-0.93,-0.02,-25.97,0.012,0.079,-0.182,-0.205
5,0.0178,0.0212,0.0041,-0.90,-0.04,-25.94,0.012,0.086,-0.150,-0.110
5,0.0083,0.0154,0.0061,-0.82,0.01,-25.91,0.012,0.070,-0.262,-0.109
5,0.0041,-0.0039,0.0069,-0.66,-0.02,-25.89,0.012,-0.125,-0.117,-0.045
5,0.0018,-0.0031,0.0072,-0.66,-0.00,-25.86,0.012,0.219,-0.019,-0.209
5,-0.0019,-0.0078,0.0074,-0.62,0.01,-25.84,0.012,-0.100,0.007,0.114
5,0.0019,-0.0048,0.0078,-0.66,-0.01,-25.81,0.010,0.090,0.051,-0.025
5,0.0076,-0.0029,0.0081,-0.69,-0.05,-25.79,0.010,0.027,0.139,0.108
5,0.0079,0.0014,0.0031,-0.73,-0.03,-25.77,0.010,-0.198,-0.178,-0.039
5,-0.0071,-0.0182,0.0034,-0.54,0.01,-25.74,0.010,0.250,-0.121,0.097
5,-0.0054,-0.0147,0.0039,-0.57,0.01,-25.71,0.010,-0.113,-0.008,-0.198
5,-0.0034,-0.0180,0.0042,-0.56,-0.02,-25.69,0.010,0.164,-0.116,-0.119
5,-0.0030,-0.0142,0.0014,-0.59,-0.01,-25.66,0.010,0.069,-0.221,-0.160
5,-0.0113,-0.0158,0.0016,-0.56,0.05,-25.63,0.010,-0.103,-0.159,0.012
5,-0.0033,-0.0125,0.0020,-0.61,0.00,-25.61,0.010,0.381,0.184,0.107
5,-0.0041,-0.0117,0.0023,-0.61,0.02,-25.59,0.010,-0.110,0.018,-0.207
5,-0.0061,-0.0156,0.0025,-0.58,0.02,-25.56,0.011,-0.090,0.281,0.182
5,-0.0030,-0.0114,0.0028,-0.62,0.01,-25.54,0.011,0.006,0.230,0.048
5,-0.0044,-0.0221,0.0025,-0.55,-0.02,-25.51,0.011,0.101,-0.283,-0.175
5,-0.0066,-0.0152,0.0027,-0.59,0.02,-25.49,0.011,0.258,0.155,-0.159
5,-0.0042,-0.0107,0.0030,-0.64,0.02,-25.46,0.007,-0.203,-0.374,-0.168
5,-0.0061,-0.0097,0.0032,-0.64,0.04,-25.44,0.007,0.191,-0.158,0.054
5,-0.0064,-0.0100,-0.0058,-0.64,0.04,-25.41,0.007,-0.190,0.122,0.159
5,0.0056,0.0010,-0.0053,-0.76,-0.01,-25.39,0.007,0.152,0.335,-0.057
5,-0.0104,-0.0239,-0.0046,-0.53,0.02,-25.36,0.007,-0.146,-0.038,-0.277
5,-0.0133,-0.0216,-0.0041,-0.54,0.05,-25.33,0.007,-0.017,-0.237,0.057
5,-0.0118,-0.0213,-0.0038,-0.55,0.04,-25.31,0.008,0.195,0.089,-0.084
5,-0.0092,-0.0242,-0.0037,-0.54,0.01,-25.29,0.008,0.257,0.159,-0.052
5,0.0005,-0.0006,-0.0058,-0.75,0.02,-25.26,0.008,0.041,0.216,-0.098
5,-0.0106,-0.0214,-0.0052,-0.56,0.03,-25.24,0.008,0.046,-0.187,0.185
6,-0.0155,-0.0206,-0.0050,-0.55,0.07,-25.21,0.010,0.209,0.167,-0.421
6,-0.0100,-0.0120,-0.0042,-0.64,0.06,-25.19,0.010,-0.145,-0.140,-0.134
6,-0.0151,-0.0234,-0.0015,-0.54,0.06,-25.16,0.010,-0.063,-0.266,0.155
6,-0.0104,-0.0273,-0.0014,-0.53,0.01,-25.14,0.010,0.301,-0.173,-0.394
6,-0.0098,-0.0177,-0.0009,-0.61,0.04,-25.12,0.010,0.037,-0.091,0.099
6,-0.0085,-0.0150,-0.0005,-0.64,0.04,-25.09,0.010,0.026,-0.059,-0.099
6,-0.0144,-0.0279,-0.0005,-0.52,0.04,-25.07,0.005,-0.084,0.185,-0.130
6,-0.0064,-0.0055,0.0014,-0.72,0.06,-25.04,0.005,0.165,-0.276,-0.089
6,-0.0115,-0.0277,-0.0086,-0.54,0.02,-25.02,0.005,-0.172,0.217,0.091
6,-0.0061,-0.0104,-0.0074,-0.69,0.04,-24.99,0.005,-0.083,-0.163,0.055
6,-0.0025,-0.0130,-0.0071,-0.69,0.00,-24.97,0.008,0.034,-0.027,0.316
6,-0.0084,-0.0149,-0.0069,-0.66,0.04,-24.94,0.008,0.126,-0.013,-0.077
6,-0.0098,-0.0075,-0.0052,-0.71,0.08,-24.92,0.008,0.143,0.046,0.073
6,-0.0076,-0.0170,-0.0048,-0.65,0.03,-24.89,0.008,-0.207,-0.210,-0.097
6,-0.0101,-0.0117,-0.0042,-0.68,0.07,-24.87,0.008,-0.023,-0.014,-0.073
6,-0.0105,-0.0122,-0.0038,-0.68,0.07,-24.84,0.008,-0.118,-0.179,0.051
6,-0.0094,-0.0160,-0.0033,-0.66,0.05,-24.82,0.006,0.227,-0.001,-0.254
6,-0.0101,-0.0123,-0.0030,-0.69,0.07,-24.79,0.006,-0.008,-0.122,0.047
6,0.0048,0.0082,-0.0057,-0.90,0.03,-24.77,0.006,0.246,-0.117,-0.003
6,0.0017,-0.0039,-0.0050,-0.79,0.01,-24.75,0.006,-0.226,0.108,0.055
6,-0.0052,-0.0184,-0.0046,-0.66,0.01,-24.73,0.010,0.101,-0.205,-0.197
6,-0.0064,-0.0235,-0.0045,-0.62,0.01,-24.70,0.010,0.323,-0.395,0.053
6,-0.0048,-0.0196,0.0030,-0.66,0.01,-24.68,0.010,0.072,0.303,0.028
6,-0.0058,-0.0209,0.0032,-0.65,0.01,-24.66,0.010,-0.243,-0.060,-0.065
6,-0.0072,-0.0181,0.0035,-0.66,0.03,-24.63,0.010,-0.306,-0.031,0.016
6,-0.0052,-0.0108,0.0041,-0.73,0.04,-24.61,0.010,0.024,0.142,0.162
6,-0.0019,-0.0143,0.0043,-0.72,0.00,-24.58,0.010,-0.039,-0.386,-0.136
6,0.0014,-0.0091,0.0048,-0.77,-0.00,-24.56,0.010,0.092,0.014,-0.057
6,0.0007,-0.0100,0.0083,-0.76,-0.00,-24.53,0.010,-0.156,-0.369,0.042
6,-0.0016,-0.0088,0.0083,-0.76,0.02,-24.51,0.010,0.146,-0.094,-0.190
6,-0.0025,-0.0106,0.0085,-0.75,0.02,-24.48,0.007,0.085,-0.143,-0.074
6,-0.0020,-0.0091,0.0089,-0.76,0.03,-24.46,0.007,-0.063,-0.164,0.038
6,-0.0041,-0.0080,0.0038,-0.77,0.05,-24.43,0.007,-0.216,-0.164,0.035
6,-0.0030,-0.0057,0.0042,-0.79,0.05,-24.41,0.007,-0.001,0.259,-0.174
7,-0.0003,-0.0080,0.0044,-0.78,0.02,-24.39,0.007,0.229,0.288,0.186
7,-0.0033,-0.0141,0.0045,-0.73,0.02,-24.36,0.007,0.120,0.108,0.218
7,-0.0036,-0.0085,0.0048,-0.77,0.04,-24.34,0.008,0.128,-0.191,-0.180
7,-0.0011,-0.0081,0.0050,-0.78,0.02,-24.31,0.008,0.187,-0.143,-0.202
7,0.0232,0.0488,0.0034,-1.28,0.03,-24.29,0.008,0.054,-0.123,0.064
7,0.0240,0.0507,0.0034,-1.28,0.03,-24.27,0.008,0.099,-0.074,-0.219
7,0.0130,0.0353,0.0061,-1.13,0.06,-24.24,0.010,-0.035,-0.125,0.045
7,0.0093,0.0298,0.0070,-1.07,0.07,-24.22,0.010,0.131,-0.080,0.019
7,0.0007,0.0108,0.0101,-0.90,0.07,-24.20,0.010,-0.082,-0.159,-0.177
7,0.0082,0.0191,0.0102,-0.99,0.04,-24.17,0.010,0.080,-0.106,0.129
7,0.0034,0.0115,0.0107,-0.92,0.05,-24.15,0.010,0.362,-0.218,-0.250
7,0.0015,0.0127,0.0110,-0.92,0.07,-24.13,0.010,-0.148,-0.035,-0.042
7,-0.0028,0.0028,0.0117,-0.83,0.07,-24.10,0.006,0.118,0.026,0.008
7,0.0015,-0.0040,0.0122,-0.79,0.02,-24.08,0.006,0.020,-0.089,-0.086
7,0.0010,0.0009,0.0029,-0.83,0.03,-24.06,0.006,0.245,-0.513,0.165
7,0.0038,0.0046,0.0031,-0.86,0.03,-24.04,0.006,0.088,-0.112,-0.055
7,-0.0019,0.0032,0.0033,-0.83,0.06,-24.01,0.009,0.006,0.212,-0.092
7,0.0015,0.0109,0.0034,-0.90,0.06,-23.99,0.009,-0.012,-0.262,-0.376
7,0.0009,0.0092,0.0044,-0.88,0.06,-23.97,0.009,0.261,0.059,-0.117
7,0.0013,0.0097,0.0050,-0.88,0.06,-23.94,0.009,0.023,0.148,-0.165
7,0.0013,0.0099,0.0054,-0.88,0.06,-23.92,0.009,0.084,-0.140,-0.080
7,-0.0021,-0.0008,0.0059,-0.79,0.05,-23.90,0.009,0.151,-0.194,-0.036
7,0.0010,0.0003,0.0062,-0.81,0.03,-23.88,0.011,0.178,0.053,0.112
7,0.0078,0.0186,0.0064,-0.96,0.04,-23.85,0.011,-0.010,-0.226,-0.039
7,0.0072,0.0113,0.0110,-0.91,0.03,-23.83,0.011,0.026,-0.144,0.062
7,-0.0032,0.0024,0.0115,-0.81,0.07,-23.81,0.011,-0.319,0.066,0.071
7,-0.0062,0.0009,0.0118,-0.79,0.09,-23.78,0.010,0.198,-0.057,-0.170
7,-0.0000,0.0056,0.0123,-0.84,0.06,-23.76,0.010,0.277,-0.028,0.186
7,-0.0003,0.0056,0.0114,-0.84,0.06,-23.74,0.010,-0.046,-0.017,0.139
7,0.0011,0.0177,0.0116,-0.93,0.09,-23.71,0.010,0.080,-0.021,0.027
7,-0.0036,0.0005,0.0126,-0.79,0.07,-23.69,0.010,0.020,-0.266,-0.459
7,-0.0044,-0.0045,0.0131,-0.75,0.06,-23.67,0.010,0.095,-0.191,-0.408
7,-0.0043,-0.0017,0.0136,-0.77,0.07,-23.64,0.011,-0.291,0.084,0.127
7,0.0163,-0.0171,0.0140,-0.73,-0.13,-23.62,0.011,0.442,-0.230,0.051
7,0.0107,-0.0182,0.0144,-0.70,-0.09,-23.60,0.011,-0.052,-0.040,0.267
8,0.0367,-0.0395,0.0135,-0.63,-0.35,-23.57,0.011,-0.181,0.020,0.191
8,0.0077,-0.0621,0.0142,-0.38,-0.20,-23.55,0.008,0.058,-0.275,-0.332
8,0.0051,-0.0588,0.0150,-0.40,-0.17,-23.52,0.008,-0.127,-0.106,-0.076
8,0.0009,-0.0562,0.0072,-0.42,-0.13,-23.50,0.008,-0.036,0.024,0.056
8,0.0071,-0.0569,0.0077,-0.44,-0.17,-23.48,0.008,-0.007,-0.095,-0.061
8,0.0061,-0.0532,0.0086,-0.47,-0.15,-23.45,0.008,-0.057,0.176,0.388
8,0.0046,-0.0532,0.0092,-0.47,-0.14,-23.43,0.008,0.101,0.024,-0.354
8,0.0028,-0.0478,0.0101,-0.51,-0.11,-23.41,0.009,0.057,-0.004,-0.040
8,0.0034,-0.0408,0.0109,-0.56,-0.09,-23.39,0.009,-0.012,0.253,0.079
8,0.0456,0.0172,0.0082,-1.11,-0.21,-23.38,0.009,0.068,-0.079,-0.154
8,0.0438,0.0227,0.0082,-1.14,-0.18,-23.36,0.009,-0.040,-0.233,-0.060
8,0.0403,0.0209,0.0091,-1.11,-0.15,-23.33,0.012,0.147,-0.038,-0.075
8,0.0396,0.0169,0.0099,-1.07,-0.16,-23.31,0.012,-0.025,-0.018,-0.146
8,0.0410,0.0236,0.0120,-1.12,-0.14,-23.29,0.012,0.102,-0.117,0.165
8,0.0385,0.0215,0.0126,-1.10,-0.13,-23.26,0.012,-0.040,-0.311,0.382
8,0.0328,0.0171,0.0134,-1.04,-0.10,-23.24,0.012,0.207,0.193,-0.229
8,0.0330,0.0172,0.0137,-1.04,-0.10,-23.22,0.012,0.108,-0.107,-0.231
8,0.0249,-0.0018,0.0153,-0.88,-0.10,-23.19,0.005,-0.117,-0.075,0.203
8,0.0250,-0.0019,0.0157,-0.87,-0.10,-23.17,0.005,0.151,-0.068,-0.124
8,0.0192,-0.0112,-0.0009,-0.79,-0.09,-23.14,0.005,0.187,-0.187,-0.361
8,0.0189,-0.0084,-0.0006,-0.81,-0.08,-23.12,0.005,0.199,0.036,-0.309
8,0.0214,-0.0031,-0.0003,-0.85,-0.07,-23.10,0.008,0.114,-0.086,-0.073
8,0.0165,-0.0055,0.0000,-0.82,-0.04,-23.08,0.008,-0.174,-0.178,0.310
8,0.0187,-0.0040,-0.0027,-0.84,-0.05,-23.05,0.008,-0.033,-0.040,-0.197
8,0.0187,-0.0017,-0.0023,-0.85,-0.05,-23.03,0.008,-0.023,-0.145,0.102
8,0.0188,-0.0018,-0.0021,-0.86,-0.04,-23.01,0.008,0.222,-0.036,-0.245
8,0.0133,-0.0083,-0.0020,-0.79,-0.02,-22.98,0.008,0.034,-0.033,0.199
8,0.0104,-0.0032,-0.0017,-0.82,0.01,-22.96,0.007,0.142,0.055,-0.178
8,0.0231,0.0032,-0.0015,-0.91,-0.06,-22.94,0.007,0.318,-0.138,-0.030
8,0.0251,0.0295,-0.0054,-1.11,0.01,-22.93,0.007,0.055,-0.009,0.068
8,0.0090,-0.0066,-0.0028,-0.79,0.01,-22.90,0.007,0.016,0.088,-0.029
8,0.0099,-0.0032,-0.0025,-0.82,0.02,-22.88,0.008,-0.187,0.053,0.100
8,0.0072,-0.0112,-0.0023,-0.75,0.02,-22.85,0.008,-0.127,-0.122,-0.013
9,0.0071,-0.0114,-0.0024,-0.75,0.02,-22.83,0.008,0.049,0.023,-0.119
9,0.0070,-0.0119,-0.0018,-0.75,0.01,-22.81,0.008,0.048,-0.322,0.146
9,0.0100,-0.0032,-0.0013,-0.82,0.02,-22.78,0.008,0.195,-0.021,-0.018
9,0.0083,-0.0055,-0.0009,-0.80,0.03,-22.76,0.008,-0.002,-0.046,-0.218
9,0.0075,-0.0026,-0.0006,-0.82,0.04,-22.74,0.008,-0.036,0.043,0.019
9,0.0010,-0.0125,-0.0003,-0.73,0.06,-22.71,0.008,-0.379,0.133,-0.190
9,0.0009,-0.0107,-0.0001,-0.74,0.06,-22.69,0.008,0.042,-0.172,-0.003
9,-0.0128,-0.0426,-0.0005,-0.47,0.06,-22.67,0.008,-0.114,-0.057,-0.005
9,-0.0094,-0.0435,-0.0002,-0.48,0.04,-22.65,0.007,0.257,0.156,0.020
9,-0.0099,-0.0442,-0.0000,-0.48,0.04,-22.63,0.007,0.217,-0.191,-0.034
9,-0.0082,-0.0315,-0.0011,-0.58,0.06,-22.60,0.007,0.000,0.237,-0.129
9,-0.0059,-0.0282,-0.0007,-0.61,0.06,-22.58,0.007,0.079,0.059,0.262
9,-0.0164,-0.0554,-0.0016,-0.39,0.05,-22.56,0.007,0.126,0.137,0.067
9,-0.0133,-0.0497,-0.0010,-0.45,0.04,-22.54,0.007,-0.093,-0.338,0.243
9,-0.0151,-0.0558,-0.0013,-0.40,0.04,-22.52,0.009,0.018,-0.275,-0.190
9,-0.0132,-0.0467,-0.0000,-0.48,0.05,-22.49,0.009,0.238,-0.132,0.044
9,0.0032,-0.0391,0.0037,-0.58,-0.04,-22.47,0.009,-0.298,-0.194,-0.039
9,-0.0123,-0.0445,0.0039,-0.50,0.05,-22.45,0.009,0.189,-0.224,-0.389
9,-0.0136,-0.0362,0.0046,-0.56,0.09,-22.42,0.013,0.352,0.100,-0.250
9,-0.0116,-0.0402,0.0047,-0.54,0.06,-22.40,0.013,0.256,-0.118,-0.041
9,-0.0106,-0.0338,0.0152,-0.59,0.07,-22.38,0.013,-0.073,-0.152,0.326
9,-0.0080,-0.0398,0.0155,-0.56,0.04,-22.37,0.013,0.327,0.018,-0.114
9,-0.0102,-0.0371,0.0162,-0.58,0.06,-22.34,0.013,-0.161,-0.139,0.221
9,-0.0113,-0.0324,0.0167,-0.61,0.08,-22.32,0.013,-0.206,0.115,-0.013
9,-0.0098,-0.0278,0.0174,-0.65,0.08,-22.30,0.011,0.021,-0.138,0.098
9,-0.0076,-0.0274,0.0180,-0.66,0.07,-22.27,0.011,0.088,-0.269,-0.199
9,-0.0129,-0.0238,0.0174,-0.68,0.11,-22.25,0.011,-0.141,-0.059,0.241
9,-0.0111,-0.0309,0.0173,-0.63,0.08,-22.23,0.011,-0.206,0.091,0.103
9,-0.0115,-0.0316,0.0176,-0.63,0.08,-22.21,0.008,0.202,0.102,0.085
9,-0.0100,-0.0281,0.0181,-0.66,0.08,-22.19,0.008,0.253,-0.067,-0.077
9,-0.0102,-0.0191,0.0092,-0.73,0.11,-22.16,0.008,0.225,0.132,-0.371
9,-0.0055,-0.0289,0.0092,-0.67,0.04,-22.14,0.008,0.122,0.051,-0.041
9,0.0000,0.0000,0.0000,0.00,0.00,0.00,0.008,0.121,-0.269,0.207
9,0.0010,-0.0015,0.0003,0.00,0.00,-0.00,0.008,0.001,-0.171,0.111
10,-0.0006,-0.0062,0.0007,0.02,0.01,-0.00,0.006,-0.420,-0.049,0.067
10,-0.0030,-0.0082,0.0010,0.02,0.03,-0.00,0.006,-0.076,-0.400,0.069
10,0.0055,0.0073,0.0013,-0.26,-0.09,-0.00,0.006,-0.004,0.044,0.141
10,0.0054,0.0313,0.0012,-0.75,-0.09,-0.00,0.006,0.198,0.269,0.158
10,0.0040,0.0344,0.0017,-0.82,-0.05,-0.00,0.008,-0.055,-0.109,-0.023
10,0.0039,0.0334,0.0023,-0.79,-0.04,-0.00,0.008,0.088,0.032,0.353
10,0.0080,0.0253,0.0041,-0.59,-0.15,0.00,0.008,-0.006,-0.035,0.057
10,0.0077,0.0199,0.0045,-0.45,-0.13,0.00,0.008,0.028,-0.035,0.119
10,0.0043,0.0255,0.0046,-0.63,-0.03,0.00,0.008,-0.123,0.051,-0.138
10,0.0026,0.0116,0.0052,-0.25,0.02,0.01,0.008,0.114,-0.049,0.012
10,0.0040,0.0230,0.0053,-0.61,-0.02,0.00,0.008,-0.305,0.065,-0.025
10,0.0036,0.0311,0.0055,-0.85,-0.01,0.00,0.008,0.063,-0.168,0.123
10,0.0106,0.0191,0.0071,-0.52,-0.21,0.00,0.008,0.275,0.014,0.064
10,0.0007,0.0149,0.0077,-0.42,0.08,0.00,0.008,-0.011,0.180,-0.165
10,0.0024,-0.0025,0.0083,0.02,0.03,0.00,0.009,-0.175,-0.209,0.139
10,0.0040,-0.0038,0.0087,0.02,-0.02,0.00,0.009,-0.137,0.052,-0.206
10,0.0040,-0.0055,0.0110,0.02,-0.02,0.00,0.009,0.284,-0.080,0.018
10,0.0016,0.0084,0.0114,-0.37,0.05,0.00,0.009,-0.134,-0.142,0.084
10,-0.0007,0.0088,0.0116,-0.41,0.10,0.00,0.009,0.049,-0.255,-0.043
10,0.0015,-0.0102,0.0120,0.02,0.05,0.00,0.009,0.314,-0.248,0.079
10,0.0012,-0.0045,0.0124,-0.15,0.06,0.00,0.008,0.413,-0.095,-0.144
10,0.0050,-0.0139,0.0127,0.04,-0.03,0.00,0.008,0.303,-0.220,-0.056
10,0.0044,-0.0353,0.0098,0.47,-0.02,-0.00,0.008,-0.163,-0.112,-0.095
10,0.0038,-0.0787,0.0070,1.35,-0.01,-0.00,0.008,0.274,-0.005,0.078
10,0.0057,-0.0749,0.0083,1.19,-0.05,-0.00,0.010,0.039,-0.045,0.230
10,0.0012,-0.0711,0.0096,1.04,0.05,-0.00,0.010,0.091,-0.135,-0.315
10,0.0009,-0.0615,0.0134,0.77,0.05,-0.00,0.010,-0.129,0.115,0.187
10,0.0229,-0.0746,0.0128,0.97,-0.38,-0.00,0.010,-0.036,-0.301,-0.105
10,0.0015,-0.0548,0.0156,0.53,0.04,-0.00,0.010,0.129,0.100,-0.047
10,0.0014,-0.0573,0.0157,0.53,0.04,-0.00,0.010,-0.176,-0.021,0.272
10,0.0054,-0.0708,0.0153,0.73,-0.03,-0.00,0.012,0.278,0.018,0.008
10,0.0027,-0.0582,0.0171,0.46,0.02,-0.00,0.012,-0.018,0.197,0.005
10,0.0104,-0.1073,0.0180,1.28,-0.12,-0.00,0.012,0.124,0.105,-0.383
10,0.0057,-0.0835,0.0217,0.79,-0.03,-0.00,0.012,-0.331,-0.131,0.023
10,0.0051,-0.1465,0.0156,1.80,-0.02,-0.00,0.008,0.054,-0.218,-0.115
10,0.0046,-0.1306,0.0200,1.46,-0.02,-0.00,0.008,-0.143,-0.089,0.217
11,0.0059,-0.1313,0.0105,1.42,-0.04,-0.01,0.008,0.106,0.017,-0.062
11,0.0127,-0.1145,0.0132,1.08,-0.14,-0.01,0.008,0.097,-0.190,0.179
11,0.0030,-0.1116,0.0143,0.98,0.01,-0.00,0.008,0.350,0.048,-0.404
11,-0.0009,-0.1072,0.0155,0.86,0.07,-0.00,0.008,-0.135,-0.077,0.234
11,0.0009,-0.0960,0.0173,0.65,0.05,-0.00,0.009,0.059,0.158,0.084
11,-0.0010,-0.0891,0.0184,0.51,0.07,-0.00,0.009,-0.202,0.326,0.081
11,0.0057,-0.1106,0.0108,0.79,-0.02,-0.00,0.009,0.440,0.106,0.079
11,0.0036,-0.0810,0.0143,0.32,0.01,-0.00,0.009,0.051,0.108,-0.136
11,0.0035,-0.0829,0.0147,0.32,0.01,-0.00,0.010,-0.238,-0.019,0.090
11,0.0049,-0.0901,0.0147,0.40,-0.01,-0.00,0.010,-0.097,0.196,0.050
11,0.0046,-0.0706,0.0125,0.10,-0.01,-0.00,0.010,-0.137,-0.187,-0.215
11,0.0025,-0.0208,0.0138,-0.60,0.02,-0.00,0.010,0.096,0.298,-0.097
11,-0.0078,-0.0096,0.0135,-0.75,0.16,-0.00,0.010,0.051,-0.383,-0.282
20,-0.0223,0.0158,0.0120,-1.09,0.34,0.00,0.010,-0.179,-0.052,0.120
30,-0.0230,0.0213,0.0118,-1.15,0.34,0.00,0.007,0.148,0.008,-0.067
40,-0.0233,0.0200,0.0122,-1.13,0.34,0.00,0.007,0.411,-0.016,-0.518
51,-0.0142,0.0067,0.0037,-0.96,0.22,-0.00,0.007,0.132,-0.093,-0.167
60,-0.0135,0.0187,0.0035,-1.11,0.21,-0.00,0.007,0.047,-0.103,0.102
70,-0.0129,0.0053,0.0048,-0.94,0.19,-0.01,0.007,0.003,-0.019,-0.050
80,-0.0153,0.0109,0.0049,-1.00,0.22,-0.01,0.007,-0.053,0.209,0.149
91,-0.0176,0.0117,-0.0010,-1.01,0.24,-0.01,0.007,-0.140,-0.058,0.053
100,-0.0152,0.0169,-0.0008,-1.07,0.21,-0.01,0.007,-0.051,-0.099,0.005
110,-0.0144,0.0027,0.0001,-0.90,0.20,-0.01,0.007,0.239,-0.265,-0.235
120,-0.0137,0.0097,0.0004,-0.98,0.19,-0.01,0.007,-0.104,0.099,0.036
130,-0.0101,0.0034,0.0008,-0.91,0.14,-0.01,0.006,0.011,0.121,-0.183
140,-0.0084,-0.0083,0.0012,-0.77,0.12,-0.01,0.006,0.096,0.115,0.039
151,-0.0094,0.0005,-0.0051,-0.87,0.13,-0.01,0.006,0.242,-0.556,-0.035
161,-0.0104,0.0147,-0.0047,-1.03,0.14,-0.01,0.006,0.192,-0.183,-0.324
171,-0.0100,-0.0144,-0.0034,-0.71,0.13,-0.01,0.010,0.017,0.174,-0.014
180,-0.0068,-0.0139,-0.0029,-0.71,0.09,-0.01,0.010,0.014,-0.209,0.032
191,-0.0067,-0.0147,0.0024,-0.71,0.10,-0.01,0.010,0.105,0.015,0.055
201,-0.0121,-0.0070,0.0025,-0.80,0.15,-0.01,0.010,0.036,0.060,0.186
211,-0.0072,-0.0138,0.0025,-0.73,0.10,-0.01,0.010,-0.156,-0.448,0.066
220,-0.0029,-0.0162,0.0025,-0.71,0.05,-0.01,0.010,0.121,0.093,-0.124
230,-0.0057,-0.0130,0.0030,-0.75,0.08,-0.01,0.010,0.250,-0.043,-0.045
240,-0.0057,-0.0167,0.0031,-0.71,0.07,-0.01,0.010,0.009,-0.116,-0.043
250,-0.0083,-0.0388,0.0058,-0.50,0.10,-0.01,0.010,-0.130,-0.056,0.137
260,-0.0079,-0.0344,0.0065,-0.55,0.09,-0.01,0.010,0.069,0.056,-0.107
270,-0.0102,-0.0171,0.0078,-0.72,0.11,-0.01,0.009,0.137,-0.102,-0.053
280,-0.0098,-0.0203,0.0082,-0.70,0.10,-0.01,0.009,0.098,-0.013,-0.002
291,-0.0093,-0.0089,0.0071,-0.81,0.10,-0.01,0.009,-0.076,-0.219,0.017
301,-0.0024,-0.0123,0.0073,-0.77,0.03,-0.00,0.009,-0.064,0.280,-0.081
310,-0.0089,-0.0181,0.0075,-0.72,0.09,-0.01,0.009,0.060,-0.308,-0.225
320,-0.0092,-0.0183,0.0076,-0.72,0.09,-0.01,0.009,-0.221,0.015,-0.091
331,-0.0088,-0.0120,0.0079,-0.78,0.09,-0.01,0.012,0.077,0.055,0.082
341,-0.0095,-0.0060,0.0081,-0.84,0.09,-0.01,0.012,-0.191,0.216,0.104
351,-0.0051,0.0164,0.0131,-1.05,0.05,-0.00,0.012,0.216,-0.242,-0.111
361,-0.0116,0.0207,0.0131,-1.09,0.11,-0.01,0.012,-0.027,-0.178,-0.040
371,-0.0099,0.0012,0.0141,-0.90,0.09,-0.01,0.007,-0.111,-0.113,-0.051
380,-0.0081,0.0126,0.0143,-1.01,0.07,-0.01,0.007,-0.072,-0.166,-0.189
390,-0.0052,0.0145,0.0051,-1.03,0.04,-0.00,0.007,0.128,-0.167,-0.032
401,-0.0023,0.0253,0.0052,-1.12,0.02,-0.00,0.007,0.133,-0.060,0.007
411,-0.0109,0.0343,0.0053,-1.20,0.10,-0.01,0.007,0.336,0.024,0.041
420,-0.0079,0.0400,0.0055,-1.25,0.07,-0.01,0.007,0.121,0.116,-0.091
430,-0.0101,0.0406,0.0059,-1.24,0.09,-0.01,0.008,0.418,0.043,-0.246
441,-0.0074,0.0299,0.0073,-1.14,0.06,-0.01,0.008,-0.161,0.090,0.289
450,-0.0058,0.0135,0.0037,-0.99,0.04,-0.01,0.008,0.050,-0.029,0.126
460,-0.0006,-0.0006,0.0041,-0.86,-0.00,-0.01,0.008,0.181,-0.003,-0.097
470,-0.0117,-0.0006,0.0044,-0.85,0.10,-0.01,0.008,-0.029,0.200,-0.063
481,0.0058,-0.0262,0.0042,-0.62,-0.06,-0.00,0.008,0.089,0.108,0.328
491,0.0045,-0.0301,0.0011,-0.59,-0.05,-0.00,0.008,-0.001,0.132,-0.114
501,0.0079,-0.0117,0.0023,-0.76,-0.08,0.00,0.008,0.066,-0.261,-0.588
511,0.0052,-0.0221,0.0023,-0.67,-0.06,-0.00,0.008,-0.051,-0.181,0.051
521,0.0049,-0.0235,0.0024,-0.66,-0.05,-0.00,0.008,0.464,-0.127,-0.162
530,0.0034,-0.0263,0.0025,-0.64,-0.04,-0.00,0.012,-0.097,-0.213,-0.228
540,0.0032,-0.0459,0.0015,-0.47,-0.04,-0.00,0.012,-0.019,0.086,0.048
550,0.0019,-0.0499,0.0083,-0.44,-0.02,-0.01,0.012,-0.254,0.249,-0.001
559,0.0066,-0.0046,0.0118,-0.84,-0.06,-0.01,0.012,0.275,0.012,-0.307
570,0.0076,-0.0033,0.0119,-0.85,-0.07,-0.00,0.008,0.281,0.044,0.211
580,0.0072,-0.0080,0.0122,-0.81,-0.07,-0.01,0.008,0.247,-0.184,-0.105
590,0.0080,0.0007,0.0053,-0.88,-0.07,-0.01,0.008,-0.031,0.007,-0.107
600,0.0066,-0.0089,0.0058,-0.80,-0.06,-0.01,0.008,0.178,0.358,0.022
610,0.0062,-0.0036,0.0060,-0.84,-0.05,-0.01,0.008,-0.036,-0.126,0.003
621,0.0058,-0.0082,0.0064,-0.80,-0.05,-0.01,0.008,-0.013,-0.135,0.249
630,0.0066,0.0032,0.0069,-0.89,-0.05,-0.01,0.010,0.129,0.098,0.169
641,0.0063,0.0103,0.0071,-0.95,-0.05,-0.00,0.010,0.046,-0.019,0.034
650,0.0048,-0.0095,0.0072,-0.78,-0.04,-0.00,0.010,0.143,-0.125,0.100
660,0.0057,-0.0033,0.0075,-0.84,-0.05,-0.00,0.010,0.152,0.075,-0.245
671,0.0053,-0.0079,0.0078,-0.80,-0.04,-0.00,0.010,0.205,0.197,-0.265
680,0.0039,-0.0004,0.0082,-0.86,-0.03,-0.00,0.010,0.026,-0.298,-0.007
690,0.0072,-0.0050,0.0069,-0.82,-0.06,-0.00,0.010,-0.099,-0.096,-0.052
699,0.0092,-0.0256,0.0069,-0.65,-0.07,-0.00,0.010,-0.097,0.031,-0.030
710,0.0053,-0.0418,0.0065,-0.51,-0.04,-0.00,0.010,-0.129,-0.212,-0.038
721,0.0028,-0.0424,0.0068,-0.51,-0.01,-0.00,0.010,-0.029,0.197,-0.146
730,0.0028,-0.0441,0.0069,-0.50,-0.01,-0.00,0.009,-0.072,0.240,-0.113
740,0.0049,-0.0468,0.0069,-0.49,-0.03,-0.00,0.009,0.165,0.062,0.077
750,0.0046,-0.0633,0.0022,-0.35,-0.03,-0.00,0.009,-0.050,0.071,-0.033
759,0.0089,-0.0711,0.0019,-0.30,-0.06,0.00,0.009,0.033,0.008,0.088
771,0.0089,-0.0722,0.0022,-0.30,-0.06,0.00,0.007,0.200,0.075,0.103
781,0.0085,-0.0738,0.0024,-0.30,-0.06,-0.00,0.007,-0.058,-0.344,0.197
791,0.0130,-0.0645,-0.0024,-0.38,-0.10,0.00,0.007,-0.107,-0.119,-0.040
800,0.0112,-0.0397,0.0000,-0.60,-0.09,-0.00,0.007,0.241,0.064,0.078
810,0.0153,-0.0074,0.0017,-0.87,-0.12,-0.00,0.007,0.159,-0.189,-0.052
819,0.0134,-0.0094,0.0019,-0.85,-0.10,-0.00,0.007,0.037,-0.225,0.332
831,0.0188,-0.0103,0.0019,-0.85,-0.14,-0.00,0.012,0.027,-0.077,0.110
841,0.0098,-0.0076,0.0025,-0.87,-0.07,-0.01,0.012,0.006,0.183,-0.097
850,0.0152,0.0439,0.0079,-1.30,-0.11,-0.01,0.012,0.097,-0.210,0.294
861,0.0086,0.0606,0.0067,-1.43,-0.05,-0.01,0.012,0.251,-0.032,-0.057
870,0.0081,0.0603,0.0070,-1.42,-0.05,-0.01,0.010,0.148,0.269,-0.000
879,0.0088,0.0530,0.0083,-1.35,-0.05,-0.01,0.010,-0.156,-0.146,0.230
889,0.0073,0.0531,0.0071,-1.34,-0.04,-0.01,0.010,0.140,-0.271,-0.255
901,0.0080,0.0695,0.0059,-1.47,-0.05,-0.01,0.010,0.201,-0.123,-0.240
911,0.0032,0.0692,0.0063,-1.45,-0.01,-0.01,0.010,0.109,-0.243,-0.230
920,0.0019,0.0697,0.0064,-1.45,0.00,-0.02,0.010,-0.086,0.217,-0.203
929,0.0053,0.0499,0.0095,-1.27,-0.02,-0.02,0.009,-0.058,-0.051,0.038
939,0.0096,0.0772,0.0070,-1.49,-0.06,-0.02,0.009,0.026,0.134,-0.014
950,0.0159,0.0770,0.0033,-1.48,-0.11,-0.01,0.009,-0.073,0.126,0.126
959,0.0118,0.0591,0.0059,-1.32,-0.07,-0.01,0.009,0.288,0.085,-0.020
969,0.0090,0.0465,0.0074,-1.21,-0.05,-0.02,0.008,0.101,0.049,-0.102
979,0.0097,0.0433,0.0080,-1.18,-0.05,-0.02,0.008,-0.005,-0.086,0.141
989,0.0083,0.0455,0.0021,-1.19,-0.04,-0.02,0.008,-0.034,-0.386,-0.101
999,0.0091,0.0356,0.0029,-1.11,-0.04,-0.02,0.008,0.080,-0.071,0.167
1009,0.0087,0.0420,0.0027,-1.15,-0.04,-0.02,0.008,-0.284,0.150,-0.013
1019,0.0026,0.0345,0.0033,-1.09,0.01,-0.02,0.008,0.309,0.041,0.186
1029,0.0071,0.0387,0.0033,-1.12,-0.02,-0.02,0.008,-0.180,0.060,0.105
1039,0.0021,0.0567,0.0025,-1.26,0.02,-0.02,0.008,-0.069,-0.309,-0.030
1049,0.0055,0.0548,-0.0014,-1.24,-0.00,-0.02,0.008,-0.167,0.009,0.320
1059,0.0005,0.0754,-0.0029,-1.40,0.03,-0.02,0.008,-0.082,-0.009,0.108
1070,0.0005,0.0762,-0.0026,-1.39,0.03,-0.02,0.012,0.347,-0.150,-0.001
1079,0.0005,0.0770,-0.0023,-1.39,0.03,-0.02,0.012,0.116,-0.043,-0.118
1089,0.0018,0.0683,0.0061,-1.31,0.02,-0.02,0.012,-0.021,0.050,-0.022
1099,0.0029,0.0710,0.0063,-1.33,0.01,-0.02,0.012,0.205,-0.301,-0.022
1109,0.0002,0.0625,0.0075,-1.25,0.04,-0.02,0.012,-0.043,0.449,0.077
1119,0.0039,0.0619,0.0080,-1.24,0.01,-0.02,0.012,0.202,0.071,-0.010
1129,-0.0061,0.0588,0.0086,-1.21,0.09,-0.03,0.008,0.020,-0.102,-0.071
1140,0.0011,0.0630,0.0086,-1.24,0.02,-0.02,0.008,-0.136,-0.231,-0.195
1149,0.0022,0.0534,0.0029,-1.16,0.01,-0.02,0.008,-0.006,0.059,0.211
1159,0.0021,0.0568,0.0028,-1.18,0.02,-0.02,0.008,0.127,0.026,-0.152
1169,0.0021,0.0572,0.0032,-1.18,0.02,-0.02,0.011,0.187,-0.105,0.007
1179,0.0009,0.0541,0.0037,-1.15,0.03,-0.02,0.011,0.151,-0.250,-0.061
1189,0.0021,0.0503,0.0067,-1.11,0.02,-0.02,0.011,0.285,-0.053,-0.097
1199,0.0020,0.0684,0.0056,-1.25,0.02,-0.02,0.011,-0.027,0.004,0.040
1209,0.0043,0.0543,0.0076,-1.13,0.00,-0.02,0.011,0.161,0.091,0.160
1219,-0.0007,0.0755,0.0065,-1.29,0.04,-0.02,0.011,-0.008,-0.051,-0.090
1230,-0.0020,0.0767,0.0069,-1.30,0.05,-0.03,0.008,0.056,-0.088,-0.092
1239,-0.0021,0.0774,0.0071,-1.29,0.05,-0.02,0.008,0.216,-0.039,-0.126
1249,0.0031,0.1213,-0.0031,-1.65,0.01,-0.02,0.008,0.028,-0.437,-0.187
1260,-0.0008,0.1178,-0.0018,-1.61,0.04,-0.03,0.008,-0.050,0.142,0.331
1269,-0.0009,0.1216,-0.0023,-1.63,0.04,-0.03,0.009,0.312,-0.206,-0.125
1279,-0.0011,0.1204,-0.0019,-1.61,0.05,-0.03,0.009,-0.070,-0.022,0.356
1289,0.0037,0.1144,-0.0005,-1.55,0.01,-0.02,0.009,0.017,0.091,-0.013
1299,-0.0035,0.0923,0.0033,-1.35,0.07,-0.03,0.009,-0.026,0.047,-0.005
1309,-0.0036,0.0949,0.0034,-1.37,0.07,-0.03,0.009,0.069,-0.222,-0.064
1319,-0.0012,0.0901,0.0044,-1.32,0.05,-0.03,0.009,-0.036,0.109,0.305
1329,-0.0024,0.0959,0.0039,-1.37,0.06,-0.02,0.009,0.250,0.133,-0.107
1340,-0.0000,0.1223,-0.0002,-1.57,0.04,-0.02,0.009,0.048,0.295,0.126
1349,-0.0027,0.1269,-0.0006,-1.60,0.06,-0.02,0.009,0.045,-0.230,-0.018
1359,-0.0153,0.1450,-0.0035,-1.73,0.16,-0.03,0.009,-0.100,-0.020,-0.196
1369,-0.0157,0.1399,-0.0017,-1.68,0.16,-0.03,0.007,-0.218,-0.140,0.032
1379,-0.0139,0.1368,-0.0005,-1.64,0.14,-0.03,0.007,0.018,-0.178,-0.230
1389,-0.0156,0.1220,-0.0017,-1.51,0.16,-0.03,0.007,0.072,0.051,0.280
1399,-0.0149,0.1252,-0.0018,-1.53,0.15,-0.03,0.007,0.218,-0.042,-0.061
1409,-0.0168,0.1128,0.0007,-1.42,0.16,-0.04,0.007,0.176,0.144,0.061
1419,-0.0127,0.1089,0.0018,-1.38,0.13,-0.03,0.007,-0.294,-0.214,-0.127
1429,-0.0156,0.1039,0.0029,-1.33,0.15,-0.03,0.009,0.133,0.017,-0.030
1439,-0.0129,0.1136,0.0018,-1.40,0.13,-0.03,0.009,0.096,-0.058,-0.015
1449,-0.0126,0.1002,0.0043,-1.28,0.12,-0.03,0.009,-0.196,0.093,-0.086
1459,-0.0087,0.0975,0.0052,-1.26,0.09,-0.03,0.009,0.154,-0.201,-0.115
1469,0.0129,0.0937,0.0064,-1.22,-0.08,-0.02,0.008,0.369,0.018,-0.026
1479,0.0113,0.0856,0.0079,-1.15,-0.07,-0.02,0.008,0.226,0.103,0.057
0,0.0109,0.0854,0.0043,-1.15,-0.06,-0.02,0.008,0.089,-0.065,0.338
10,0.0103,0.0855,0.0044,-1.15,-0.06,-0.02,0.008,-0.165,0.074,0.012
20,0.0098,0.0732,0.0060,-1.04,-0.06,-0.02,0.008,0.141,0.015,0.425
29,0.0094,0.0762,0.0060,-1.06,-0.05,-0.02,0.008,-0.552,0.355,0.301
39,0.0091,0.0690,0.0072,-1.00,-0.05,-0.02,0.006,0.467,-0.468,-0.394
50,0.0053,0.0937,0.0047,-1.20,-0.02,-0.02,0.006,-0.392,-0.773,0.778
60,0.0062,0.0966,-0.0030,-1.22,-0.02,-0.02,0.006,0.614,-0.659,-0.884
70,0.0058,0.0845,-0.0003,-1.10,-0.02,-0.02,0.006,-0.794,-0.237,-0.532
80,0.0076,0.0783,0.0010,-1.04,-0.02,-0.02,0.010,-0.221,-1.567,-0.072
89,0.0006,0.0858,0.0007,-1.08,0.04,-0.02,0.010,-0.160,-1.246,-1.198
99,0.0015,0.0822,0.0058,-1.03,0.04,-0.02,0.010,1.905,-1.433,-5.308
110,0.0013,0.0695,0.0080,-0.92,0.05,-0.02,0.010,-0.258,-1.846,-0.869
120,0.0044,0.0693,0.0088,-0.91,0.03,-0.03,0.010,1.111,-4.783,3.340
130,0.0061,0.0672,0.0098,-0.86,0.03,-0.07,0.010,3.461,-8.035,7.806
139,0.0031,0.0364,0.0138,-0.61,0.08,-0.09,0.006,2.480,-3.152,10.867
150,0.0022,0.0283,0.0151,-0.54,0.13,-0.06,0.006,1.243,1.974,6.613
160,0.0054,0.0264,0.0048,-0.48,0.17,0.01,0.006,-5.300,-2.807,6.929
169,0.0017,0.0260,0.0044,-0.43,0.25,0.11,0.006,-9.805,-13.390,5.701
180,0.0001,0.0285,0.0063,-0.45,0.24,0.19,0.011,-1.105,-24.343,2.334
190,-0.0021,0.0321,0.0078,-0.50,0.28,0.26,0.011,-3.280,-39.041,0.127
199,-0.0032,0.0264,0.0210,-0.55,0.40,0.32,0.011,-1.902,-51.096,-0.191
210,-0.0024,0.0250,0.0309,-0.55,0.61,0.35,0.011,-1.750,-57.431,-1.360
220,0.0155,0.0608,0.0399,-0.86,0.83,0.36,0.011,-14.974,-52.163,-0.585
230,0.0122,0.0649,0.0529,-0.90,1.33,0.37,0.011,-25.682,-40.710,-0.068
239,0.0299,0.0817,0.0698,-1.04,1.73,0.37,0.016,-18.162,-27.809,-0.483
249,0.0345,0.1118,0.0832,-1.40,2.20,0.38,0.016,-10.060,-12.507,-0.561
260,0.0313,0.1270,0.1086,-1.75,2.61,0.40,0.016,-2.918,0.309,-1.858
270,0.0220,0.1417,0.1268,-2.03,2.94,0.42,0.016,8.486,12.667,-4.026
280,0.0103,0.1512,0.1461,-2.18,3.13,0.42,0.000,20.705,5.387,-6.754
290,0.0040,0.1572,0.1647,-2.22,3.15,0.41,0.000,17.890,0.720,-5.438
300,-0.0175,0.1746,0.1398,-2.27,3.16,0.39,0.000,20.095,-1.490,-4.709
309,-0.0300,0.2026,0.1545,-2.27,3.14,0.36,0.000,19.291,2.220,-4.179
319,-0.0764,0.2572,0.1581,-2.50,3.44,0.38,0.000,20.224,8.340,-3.607
330,-0.0868,0.2614,0.1822,-2.29,3.48,0.33,0.000,15.314,16.949,-6.383
340,-0.1029,0.2668,0.2015,-2.10,3.54,0.28,0.001,13.708,20.557,-5.186
350,-0.1128,0.2707,0.2209,-1.89,3.49,0.24,0.001,7.593,14.584,-5.276
359,-0.1229,0.2761,0.2005,-1.76,3.37,0.20,0.001,8.032,10.056,-2.614
370,-0.1306,0.2760,0.2183,-1.59,3.19,0.13,0.001,1.874,-1.260,-2.671
379,-0.1411,0.2763,0.2367,-1.45,3.05,0.06,0.028,4.407,-2.716,-0.243
390,-0.1547,0.2703,0.2549,-1.30,3.00,0.00,0.028,7.070,-5.803,-0.618
399,-0.1779,0.2785,0.2831,-1.30,3.13,-0.03,0.028,11.524,-5.856,-0.334
409,-0.1776,0.2681,0.3044,-1.18,3.10,-0.06,0.028,8.709,-2.628,0.185
419,-0.1974,0.2636,0.3187,-1.06,3.25,-0.08,0.028,6.509,1.535,-0.272
429,-0.1944,0.2533,0.3421,-0.86,3.24,-0.11,0.028,7.977,3.292,0.316
440,-0.1803,0.2318,0.3718,-0.58,3.11,-0.17,0.052,6.367,7.581,-0.585
449,-0.1862,0.2329,0.3834,-0.52,3.11,-0.17,0.052,5.026,13.723,-0.504
459,-0.1868,0.2217,0.4096,-0.34,3.02,-0.20,0.052,1.319,22.134,0.607
469,-0.1956,0.2282,0.4154,-0.32,2.97,-0.18,0.052,2.767,28.855,0.201
479,-0.1951,0.2158,0.4275,-0.17,2.79,-0.22,0.078,1.030,33.327,0.407
489,-0.1875,0.1919,0.4440,0.04,2.47,-0.28,0.078,-1.580,33.983,0.923
499,-0.1806,0.2003,0.4696,0.01,2.09,-0.26,0.078,-0.974,30.841,0.371
509,-0.1758,0.1913,0.4770,0.09,1.70,-0.28,0.078,-2.226,21.715,0.922
520,-0.1719,0.1826,0.4837,0.14,1.30,-0.29,0.078,-3.289,15.310,1.779
529,-0.1751,0.1803,0.4870,0.15,1.00,-0.29,0.078,-4.962,8.880,2.545
539,-0.1667,0.1738,0.4933,0.17,0.70,-0.30,0.106,-5.964,3.282,2.480
549,-0.1766,0.1673,0.4940,0.18,0.61,-0.29,0.106,-5.759,-0.287,2.264
560,-0.1747,0.1620,0.5019,0.17,0.50,-0.28,0.106,-2.200,-1.264,1.490
569,-0.1738,0.1588,0.5015,0.14,0.45,-0.26,0.106,5.030,4.597,0.695
579,-0.1512,0.1616,0.5029,0.06,0.28,-0.24,0.133,15.600,17.674,0.875
589,-0.1464,0.1588,0.5018,0.06,0.25,-0.23,0.133,30.063,29.962,0.536
600,-0.1493,0.1611,0.5154,0.09,0.22,-0.22,0.133,44.423,45.112,0.224
609,-0.1492,0.1539,0.5135,0.30,0.05,-0.22,0.133,55.359,57.520,0.050
619,-0.1329,0.1247,0.5154,0.82,-0.37,-0.25,0.133,61.344,65.996,-0.203
629,-0.1284,0.1168,0.5123,1.30,-0.84,-0.25,0.133,66.712,72.536,-0.931
639,-0.1254,0.1079,0.5080,1.89,-1.42,-0.24,0.150,66.074,74.221,-1.706
649,-0.1180,0.0977,0.5028,2.56,-2.12,-0.22,0.150,60.822,68.965,-4.038
659,-0.1178,0.0915,0.4742,3.24,-2.81,-0.20,0.150,51.934,61.031,-4.507
670,-0.1104,0.0836,0.4668,3.92,-3.58,-0.17,0.150,39.714,51.928,-5.219
679,-0.1044,0.0756,0.4586,4.55,-4.27,-0.16,0.176,23.516,38.371,-5.685
689,-0.0926,0.0620,0.4498,5.12,-4.93,-0.16,0.176,7.536,24.518,-5.757
699,-0.0879,0.0504,0.4452,5.55,-5.43,-0.15,0.176,-8.242,11.332,-6.154
709,-0.0787,0.0420,0.4355,5.79,-5.83,-0.18,0.176,-19.932,-1.408,-6.933
719,-0.0712,0.0311,0.4251,5.89,-6.07,-0.20,0.176,-32.491,-13.676,-6.783
729,-0.0628,0.0180,0.4143,5.85,-6.19,-0.25,0.176,-43.367,-23.152,-7.893
739,-0.0528,0.0082,0.4034,5.64,-6.19,-0.31,0.193,-47.568,-28.693,-6.980
749,-0.0419,-0.0068,0.3926,5.36,-6.08,-0.38,0.193,-50.823,-31.489,-7.609
759,-0.0326,-0.0166,0.3681,4.93,-5.87,-0.48,0.193,-49.816,-32.676,-8.196
769,-0.0209,-0.0301,0.3581,4.49,-5.62,-0.57,0.193,-47.180,-31.906,-7.693
779,-0.0138,-0.0376,0.3481,3.97,-5.30,-0.66,0.218,-43.887,-30.965,-7.204
789,-0.0037,-0.0482,0.3382,3.50,-5.00,-0.76,0.218,-39.109,-27.722,-7.441
799,0.0037,-0.0551,0.3432,2.97,-4.64,-0.86,0.218,-35.556,-24.694,-6.683
809,0.0117,-0.0662,0.3338,2.57,-4.34,-0.93,0.218,-30.255,-21.556,-7.514
819,0.0182,-0.0701,0.3247,2.17,-4.06,-1.02,0.218,-27.790,-20.416,-7.958
829,0.0264,-0.0816,0.3157,1.87,-3.83,-1.08,0.218,-24.480,-19.490,-6.834
839,0.0323,-0.0844,0.3067,1.55,-3.62,-1.16,0.231,-24.752,-19.300,-7.249
849,0.0388,-0.0910,0.2977,1.29,-3.42,-1.23,0.231,-24.849,-19.918,-7.188
859,0.0440,-0.0944,0.2920,1.04,-3.23,-1.30,0.231,-26.788,-21.416,-7.125
869,0.0486,-0.0982,0.2829,0.79,-3.03,-1.37,0.231,-29.444,-23.009,-6.493
879,0.0537,-0.1003,0.2739,0.53,-2.84,-1.44,0.231,-31.478,-25.208,-6.047
889,0.0583,-0.1031,0.2653,0.27,-2.63,-1.51,0.231,-35.008,-27.574,-5.640
899,0.0609,-0.0996,0.2273,-0.04,-2.40,-1.58,0.231,-36.678,-29.591,-5.767
909,0.0683,-0.1085,0.2191,-0.30,-2.17,-1.62,0.231,-37.360,-32.056,-5.123
919,0.0699,-0.1047,0.2108,-0.67,-1.88,-1.68,0.231,-38.161,-31.783,-4.648
929,0.0728,-0.1088,0.2027,-1.01,-1.58,-1.72,0.231,-35.325,-34.691,-4.047
939,0.0731,-0.1047,0.1950,-1.41,-1.24,-1.77,0.244,-33.126,-33.618,-4.256
949,0.0737,-0.1090,0.1879,-1.74,-0.91,-1.79,0.244,-31.603,-32.366,-3.221
959,0.0754,-0.1048,0.1701,-2.10,-0.57,-1.82,0.244,-24.829,-31.738,-4.121
969,0.0752,-0.0974,0.1636,-2.46,-0.22,-1.86,0.244,-22.472,-27.797,-3.723
979,0.0743,-0.0954,0.1574,-2.75,0.12,-1.87,0.248,-15.740,-26.617,-3.986
989,0.0742,-0.0934,0.1519,-2.99,0.43,-1.89,0.248,-12.923,-23.424,-3.325
999,0.0732,-0.0900,0.1310,-3.19,0.71,-1.91,0.248,-8.817,-19.491,-3.223
1008,0.0693,-0.0847,0.1257,-3.35,1.00,-1.93,0.248,-4.299,-18.137,-3.213
1019,0.0687,-0.0834,0.1209,-3.45,1.23,-1.94,0.248,-2.515,-13.920,-2.676
1029,0.0659,-0.0763,0.1162,-3.54,1.43,-1.96,0.248,-2.559,-9.995,-2.240
1039,0.0702,-0.0709,0.1119,-3.59,1.56,-1.99,0.255,-0.737,-7.825,-2.036
1050,0.0662,-0.0644,0.1080,-3.62,1.71,-2.01,0.255,0.636,-6.667,-2.027
1058,0.0668,-0.0606,0.0980,-3.62,1.78,-2.02,0.255,2.656,-5.429,-1.937
1068,0.0618,-0.0545,0.0945,-3.62,1.88,-2.04,0.255,4.377,-4.367,-2.141
1079,0.0569,-0.0510,0.0910,-3.58,1.96,-2.05,0.259,3.583,-4.817,-1.463
1089,0.0538,-0.0450,0.0878,-3.55,2.01,-2.06,0.259,4.905,-5.290,-1.731
1098,0.0600,-0.0412,0.0796,-3.50,1.99,-2.08,0.259,6.478,-4.575,-1.587
1109,0.0575,-0.0349,0.0766,-3.46,2.04,-2.09,0.259,6.341,-4.482,-2.219
1119,0.0550,-0.0303,0.0737,-3.40,2.09,-2.11,0.259,6.826,-4.166,-1.764
1128,0.0513,-0.0246,0.0710,-3.33,2.13,-2.12,0.259,7.963,-3.342,-1.750
1139,0.0474,-0.0191,0.0689,-3.27,2.18,-2.14,0.264,11.313,-2.376,-1.332
1149,0.0440,-0.0135,0.0669,-3.19,2.22,-2.15,0.264,11.545,-1.030,-1.101
1159,0.0430,-0.0091,0.0651,-3.10,2.24,-2.17,0.264,12.561,0.367,-0.619
1168,0.0354,-0.0045,0.0634,-2.98,2.29,-2.18,0.264,14.114,2.143,-0.529
1179,0.0335,-0.0007,0.0617,-2.86,2.29,-2.19,0.268,15.981,4.098,0.090
1189,0.0318,0.0040,0.0602,-2.73,2.28,-2.19,0.268,16.498,5.951,0.671
1199,0.0318,0.0082,0.0604,-2.59,2.23,-2.20,0.268,17.318,7.620,1.197
1210,0.0267,0.0119,0.0590,-2.42,2.20,-2.20,0.268,18.380,8.639,1.471
1218,0.0205,0.0153,0.0579,-2.25,2.16,-2.19,0.268,19.232,9.319,2.703
1229,0.0213,0.0226,0.0566,-2.08,2.05,-2.18,0.268,16.901,9.981,1.167
1239,0.0180,0.0263,0.0554,-1.91,1.96,-2.17,0.271,16.601,10.280,2.769
1249,0.0168,0.0293,0.0544,-1.72,1.85,-2.15,0.271,17.932,10.401,2.768
1258,0.0133,0.0311,0.0547,-1.54,1.76,-2.14,0.271,21.899,6.277,1.890
1269,0.0072,0.0351,0.0537,-1.37,1.67,-2.12,0.271,18.779,8.128,3.456
1279,0.0070,0.0400,0.0525,-1.21,1.55,-2.10,0.275,22.672,7.869,3.271
1289,0.0007,0.0413,0.0513,-0.98,1.50,-2.08,0.275,20.749,6.437,3.719
1299,0.0005,0.0424,0.0540,-0.78,1.41,-2.05,0.275,19.159,7.081,2.688
1309,0.0022,0.0474,0.0531,-0.58,1.31,-2.02,0.275,19.105,7.301,2.791
1318,-0.0007,0.0462,0.0521,-0.36,1.25,-1.99,0.275,19.540,8.077,2.704
1328,-0.0047,0.0462,0.0512,-0.16,1.19,-1.96,0.275,17.782,8.705,2.919
1339,-0.0057,0.0474,0.0503,0.02,1.11,-1.93,0.280,15.315,9.105,3.361
1349,-0.0077,0.0498,0.0492,0.20,1.03,-1.90,0.280,17.142,10.524,3.282
1359,-0.0096,0.0497,0.0559,0.37,0.94,-1.87,0.280,15.468,10.395,4.099
1368,-0.0111,0.0488,0.0551,0.53,0.84,-1.84,0.280,15.407,10.698,4.141
1379,-0.0110,0.0475,0.0545,0.70,0.73,-1.80,0.284,15.071,10.859,4.590
1389,-0.0138,0.0449,0.0538,0.86,0.63,-1.76,0.284,13.146,9.082,4.529
1398,-0.0149,0.0421,0.0601,1.02,0.53,-1.72,0.284,10.122,9.458,4.338
1408,-0.0141,0.0435,0.0594,1.14,0.41,-1.67,0.284,11.595,7.323,3.793
1419,-0.0160,0.0450,0.0590,1.25,0.33,-1.62,0.284,10.818,5.901,4.196
1429,-0.0167,0.0429,0.0583,1.35,0.23,-1.57,0.284,9.301,8.762,4.512
1438,-0.0173,0.0396,0.0575,1.47,0.16,-1.53,0.286,8.006,6.270,4.159
1448,-0.0193,0.0393,0.0566,1.56,0.11,-1.49,0.286,5.670,7.339,4.072
1459,-0.0180,0.0362,0.0580,1.65,0.02,-1.44,0.286,7.521,5.872,4.265
1468,-0.0170,0.0332,0.0572,1.72,-0.05,-1.40,0.286,4.672,5.371,4.395
1479,-0.0170,0.0303,0.0560,1.78,-0.11,-1.35,0.285,5.062,5.347,4.713
1489,-0.0172,0.0288,0.0549,1.84,-0.17,-1.30,0.285,3.798,4.873,4.231
1498,-0.0158,0.0258,0.0468,1.88,-0.22,-1.26,0.285,2.550,5.929,4.038
1508,-0.0191,0.0230,0.0458,1.93,-0.25,-1.21,0.285,2.617,5.627,4.163
1519,-0.0206,0.0185,0.0448,1.98,-0.29,-1.17,0.285,0.620,5.200,3.956
1528,-0.0202,0.0151,0.0435,2.01,-0.35,-1.13,0.285,-1.515,4.488,3.749
1538,-0.0216,0.0129,0.0423,2.02,-0.39,-1.08,0.287,-2.080,4.382,3.803
1549,-0.0213,0.0091,0.0410,2.02,-0.44,-1.04,0.287,-3.611,4.241,3.730
1559,-0.0206,0.0057,0.0349,2.00,-0.48,-1.00,0.287,-5.709,4.100,3.476
1568,-0.0186,0.0042,0.0333,1.96,-0.53,-0.96,0.287,-7.207,3.993,2.796
1578,-0.0178,0.0009,0.0321,1.92,-0.57,-0.92,0.290,-8.678,3.211,2.635
1589,-0.0168,-0.0024,0.0307,1.87,-0.62,-0.89,0.290,-8.766,2.613,2.736
1599,-0.0148,-0.0061,0.0297,1.80,-0.66,-0.86,0.290,-9.422,2.734,2.291
1609,-0.0129,-0.0113,0.0287,1.72,-0.70,-0.83,0.290,-10.350,1.164,2.254
1619,-0.0129,-0.0160,0.0277,1.65,-0.71,-0.80,0.290,-10.229,0.733,2.077
1628,-0.0117,-0.0188,0.0265,1.55,-0.74,-0.78,0.290,-8.893,0.193,1.863
1638,-0.0116,-0.0194,0.0255,1.44,-0.75,-0.76,0.291,-10.374,-1.086,1.604
1649,-0.0097,-0.0272,0.0243,1.36,-0.76,-0.73,0.291,-11.317,-2.046,0.834
1659,-0.0084,-0.0295,0.0222,1.26,-0.77,-0.72,0.291,-10.541,-1.957,0.311
1668,-0.0072,-0.0317,0.0211,1.15,-0.76,-0.70,0.291,-10.393,-1.516,0.439
1678,-0.0040,-0.0310,0.0200,1.03,-0.76,-0.69,0.293,-10.178,-2.218,-0.024
1688,-0.0029,-0.0339,0.0188,0.93,-0.74,-0.69,0.293,-11.671,-2.090,0.158
1698,-0.0019,-0.0385,0.0194,0.84,-0.72,-0.69,0.293,-13.237,-2.126,-0.307
1709,0.0007,-0.0388,0.0184,0.73,-0.70,-0.69,0.293,-12.989,-2.438,-0.290
1718,0.0015,-0.0423,0.0174,0.62,-0.68,-0.69,0.293,-13.544,-2.208,-0.981
1728,0.0023,-0.0419,0.0166,0.48,-0.66,-0.69,0.293,-14.118,-2.522,-0.788
1738,0.0030,-0.0413,0.0156,0.34,-0.63,-0.69,0.292,-12.625,-3.575,-0.892
1748,0.0033,-0.0456,0.0145,0.22,-0.59,-0.70,0.292,-13.938,-4.191,-0.643
1758,0.0074,-0.0444,0.0105,0.07,-0.59,-0.71,0.292,-13.249,-0.576,-0.603
1768,0.0084,-0.0445,0.0095,-0.05,-0.55,-0.72,0.292,-11.805,-4.210,-0.747
1778,0.0106,-0.0446,0.0086,-0.19,-0.52,-0.73,0.290,-11.791,-4.845,-1.175
1788,0.0124,-0.0447,0.0081,-0.32,-0.50,-0.73,0.290,-8.826,-4.873,-1.672
1798,0.0133,-0.0441,0.0002,-0.44,-0.46,-0.74,0.290,-6.956,-6.002,-1.910
1808,0.0129,-0.0441,-0.0007,-0.55,-0.41,-0.75,0.290,-6.894,-5.966,-2.738
1819,0.0124,-0.0441,-0.0013,-0.63,-0.35,-0.77,0.290,-6.239,-6.798,-2.214
1828,0.0116,-0.0422,-0.0017,-0.71,-0.28,-0.79,0.290,-6.557,-6.050,-2.231
1838,0.0145,-0.0388,-0.0019,-0.79,-0.24,-0.81,0.289,-5.756,-5.218,-2.462
1849,0.0172,-0.0409,-0.0020,-0.83,-0.19,-0.83,0.289,-8.889,-6.335,-2.215
1858,0.0162,-0.0427,-0.0085,-0.87,-0.13,-0.86,0.289,-8.111,-7.980,-2.387
1868,0.0189,-0.0371,-0.0083,-0.96,-0.09,-0.88,0.289,-4.882,-6.792,-2.921
1878,0.0194,-0.0350,-0.0079,-1.04,-0.03,-0.90,0.290,-3.844,-4.892,-3.025
1888,0.0196,-0.0315,-0.0077,-1.12,0.04,-0.93,0.290,-4.294,-7.385,-2.273
1899,0.0196,-0.0280,-0.0081,-1.17,0.12,-0.96,0.290,-3.374,-5.677,-2.094
1908,0.0217,-0.0298,-0.0079,-1.19,0.15,-0.98,0.290,1.149,-4.041,-2.305
1918,0.0232,-0.0265,-0.0073,-1.24,0.22,-1.00,0.290,0.185,-3.926,-2.078
1928,0.0230,-0.0235,-0.0068,-1.26,0.28,-1.02,0.290,-2.948,-5.067,-1.299
1938,0.0250,-0.0207,-0.0064,-1.26,0.30,-1.05,0.289,0.232,-3.334,-1.965
1948,0.0245,-0.0185,-0.0061,-1.25,0.34,-1.07,0.289,2.663,-2.222,-2.514
1958,0.0239,-0.0163,-0.0075,-1.28,0.39,-1.08,0.289,6.162,-1.254,-2.001
1968,0.0233,-0.0141,-0.0068,-1.27,0.43,-1.10,0.289,3.887,-2.996,-2.144
1978,0.0236,-0.0121,-0.0060,-1.24,0.44,-1.12,0.290,2.152,-4.093,-2.057
1988,0.0229,-0.0099,-0.0050,-1.20,0.46,-1.14,0.290,6.107,-1.247,-1.749
1998,0.0221,-0.0078,-0.0025,-1.17,0.48,-1.16,0.290,5.859,-2.933,-2.636
2008,0.0202,-0.0044,-0.0018,-1.14,0.52,-1.18,0.290,5.119,-2.974,-2.159
2018,0.0184,0.0009,-0.0010,-1.10,0.54,-1.20,0.290,6.444,-1.207,-2.548
2028,0.0186,0.0039,-0.0002,-1.05,0.56,-1.22,0.290,6.849,-0.687,-2.122
2038,0.0206,0.0065,0.0006,-1.00,0.57,-1.25,0.290,6.794,-1.277,-2.766
2049,0.0204,0.0092,0.0018,-0.95,0.59,-1.27,0.290,6.275,-0.721,-2.900
2058,0.0203,0.0134,0.0039,-0.90,0.60,-1.30,0.290,6.798,-1.228,-3.591
2068,0.0186,0.0175,0.0048,-0.86,0.62,-1.33,0.290,9.165,-0.592,-4.043
2078,0.0169,0.0193,0.0057,-0.78,0.62,-1.36,0.290,9.932,1.303,-3.620
2088,0.0159,0.0207,0.0063,-0.71,0.63,-1.40,0.290,10.606,0.999,-3.866
2098,0.0144,0.0219,0.0070,-0.62,0.63,-1.43,0.290,10.817,1.053,-4.331
2109,0.0130,0.0226,0.0075,-0.52,0.62,-1.47,0.290,12.312,1.258,-4.567
2118,0.0117,0.0248,0.0081,-0.42,0.62,-1.51,0.290,13.823,2.458,-4.649
2128,0.0107,0.0305,0.0086,-0.33,0.60,-1.56,0.290,13.053,2.590,-4.176
2138,0.0113,0.0282,0.0091,-0.20,0.58,-1.60,0.290,12.064,2.445,-4.494
2148,0.0125,0.0366,0.0098,-0.10,0.54,-1.65,0.290,12.319,2.839,-4.692
2158,0.0097,0.0336,0.0097,0.05,0.53,-1.69,0.290,10.563,2.376,-4.941
2168,0.0072,0.0361,0.0100,0.16,0.51,-1.74,0.290,11.020,2.686,-5.555
2178,0.0046,0.0332,0.0104,0.29,0.49,-1.79,0.291,9.651,2.653,-5.351
2188,0.0043,0.0390,0.0107,0.37,0.47,-1.84,0.291,10.124,2.812,-6.029
2198,0.0035,0.0384,0.0116,0.47,0.44,-1.90,0.291,10.971,2.478,-5.048
2208,0.0049,0.0384,0.0118,0.57,0.40,-1.95,0.291,10.804,1.822,-4.804
2218,0.0045,0.0382,0.0123,0.68,0.37,-2.01,0.291,11.615,1.559,-5.122
2228,0.0022,0.0343,0.0129,0.80,0.35,-2.06,0.291,12.743,1.746,-5.461
2238,0.0016,0.0329,0.0135,0.92,0.34,-2.11,0.292,10.431,2.131,-5.347
2248,0.0015,0.0398,0.0141,0.98,0.32,-2.16,0.292,9.091,2.789,-4.962
2258,-0.0007,0.0390,0.0159,1.10,0.31,-2.21,0.292,8.611,2.977,-4.748
2268,-0.0009,0.0380,0.0164,1.20,0.28,-2.26,0.292,7.369,3.505,-4.767
2278,-0.0014,0.0360,0.0168,1.29,0.25,-2.31,0.290,4.210,3.076,-4.624
2288,-0.0013,0.0332,0.0168,1.37,0.22,-2.36,0.290,3.215,3.182,-4.472
2298,-0.0018,0.0309,0.0112,1.44,0.18,-2.40,0.290,2.573,1.716,-4.146
2308,-0.0013,0.0344,0.0110,1.44,0.15,-2.45,0.290,1.691,1.879,-3.350
2318,-0.0031,0.0306,0.0113,1.48,0.12,-2.49,0.290,1.067,2.122,-3.357
2328,-0.0032,0.0231,0.0117,1.53,0.10,-2.53,0.290,3.026,2.181,-3.341
2338,-0.0067,0.0216,0.0120,1.54,0.10,-2.56,0.291,2.551,1.406,-3.098
2348,-0.0064,0.0198,0.0120,1.55,0.08,-2.59,0.291,0.265,1.898,-3.160
2358,-0.0043,0.0197,0.0100,1.57,0.05,-2.63,0.291,-0.069,2.342,-2.627
2368,-0.0042,0.0144,0.0103,1.60,0.03,-2.66,0.291,-0.222,2.397,-2.301
2378,-0.0057,0.0113,0.0105,1.60,0.01,-2.69,0.289,-4.473,2.769,-1.685
2388,-0.0072,0.0084,0.0105,1.60,-0.00,-2.71,0.289,-2.258,2.803,-1.870
2398,-0.0029,0.0127,0.0039,1.54,-0.05,-2.73,0.289,-3.999,3.557,-1.794
2408,-0.0029,0.0100,0.0040,1.51,-0.08,-2.74,0.289,-2.991,3.017,-1.408
2419,-0.0029,0.0075,0.0042,1.48,-0.11,-2.76,0.289,-4.797,2.672,-1.262
2428,-0.0028,0.0049,0.0041,1.45,-0.15,-2.78,0.289,-6.677,1.438,-0.786
2438,-0.0040,0.0031,0.0043,1.41,-0.17,-2.79,0.290,-6.955,0.577,-0.592
2448,-0.0038,0.0007,0.0047,1.36,-0.19,-2.80,0.290,-7.831,-0.434,-0.640
2458,-0.0033,-0.0045,0.0029,1.30,-0.21,-2.81,0.290,-7.992,-0.400,0.208
2468,-0.0030,-0.0073,0.0032,1.23,-0.21,-2.81,0.290,-8.143,-1.168,-0.124
2478,-0.0028,-0.0098,0.0036,1.15,-0.20,-2.81,0.291,-6.975,-1.553,0.483
2488,-0.0025,-0.0118,0.0040,1.08,-0.19,-2.82,0.291,-6.256,-1.190,1.365
2498,-0.0044,-0.0122,0.0054,0.98,-0.16,-2.81,0.291,-7.273,-2.247,1.089
2508,-0.0046,-0.0164,0.0063,0.94,-0.14,-2.81,0.291,-6.563,-0.188,1.271
2518,-0.0044,-0.0181,0.0068,0.87,-0.12,-2.79,0.291,-9.740,1.324,1.967
2527,-0.0043,-0.0198,0.0073,0.80,-0.11,-2.78,0.291,-10.995,1.773,2.265
2538,-0.0000,-0.0214,0.0080,0.72,-0.14,-2.77,0.291,-10.631,2.645,1.880
2548,0.0004,-0.0222,0.0088,0.62,-0.15,-2.75,0.291,-10.580,1.089,1.945
2558,0.0006,-0.0232,0.0089,0.51,-0.17,-2.73,0.291,-9.460,1.619,2.009
2568,0.0009,-0.0241,0.0095,0.40,-0.19,-2.70,0.291,-8.878,0.765,3.163
2578,-0.0011,-0.0323,0.0102,0.33,-0.19,-2.68,0.287,-7.889,-0.351,4.134
2588,0.0016,-0.0346,0.0107,0.26,-0.23,-2.66,0.287,-6.572,0.197,4.170
2598,0.0020,-0.0349,0.0008,0.18,-0.23,-2.62,0.287,-8.099,-2.102,3.566
2608,0.0019,-0.0368,0.0014,0.11,-0.22,-2.58,0.287,-6.448,1.814,3.642
2618,0.0023,-0.0363,0.0021,0.03,-0.22,-2.55,0.287,-8.105,-0.848,3.962
2627,0.0027,-0.0364,0.0029,-0.03,-0.21,-2.51,0.287,-10.271,-3.283,3.830
2637,0.0027,-0.0358,0.0037,-0.11,-0.21,-2.47,0.286,-8.742,-2.646,3.926
2648,0.0023,-0.0387,0.0042,-0.19,-0.18,-2.43,0.286,-7.921,-1.422,4.494
2657,0.0026,-0.0383,-0.0036,-0.28,-0.15,-2.39,0.286,-10.538,-2.414,4.745
2667,0.0046,-0.0351,-0.0031,-0.38,-0.14,-2.35,0.286,-9.988,-2.140,4.828
2678,0.0042,-0.0359,-0.0028,-0.45,-0.12,-2.30,0.287,-8.420,-2.895,4.710
2687,0.0039,-0.0403,-0.0023,-0.53,-0.10,-2.26,0.287,-8.330,-2.557,5.185
2698,0.0036,-0.0384,-0.0040,-0.62,-0.08,-2.21,0.287,-6.477,-1.903,5.540
2708,0.0052,-0.0349,-0.0029,-0.72,-0.06,-2.16,0.287,-4.625,-2.135,5.104
2717,0.0054,-0.0336,-0.0020,-0.79,-0.04,-2.10,0.287,-3.698,-1.130,5.098
2727,0.0055,-0.0323,-0.0014,-0.85,-0.02,-2.05,0.287,-4.569,-0.516,5.667
2737,0.0028,-0.0349,-0.0006,-0.88,0.01,-2.00,0.290,-2.619,-2.294,5.767
2747,0.0046,-0.0314,0.0003,-0.93,0.02,-1.95,0.290,-4.319,-1.409,4.786
2758,0.0047,-0.0298,0.0068,-0.96,0.02,-1.89,0.290,-3.978,-0.888,6.185
2768,0.0047,-0.0281,0.0077,-0.99,0.05,-1.84,0.290,-0.268,-0.765,6.089
2778,0.0042,-0.0272,0.0084,-1.02,0.06,-1.79,0.291,-4.097,0.156,5.636
2788,0.0041,-0.0254,0.0093,-1.05,0.07,-1.73,0.291,-1.045,-1.060,5.273
2798,0.0041,-0.0236,0.0148,-1.07,0.08,-1.66,0.291,-0.108,-2.986,5.306
2808,0.0037,-0.0224,0.0159,-1.10,0.08,-1.61,0.291,-1.212,-1.380,5.411
2818,0.0036,-0.0205,0.0170,-1.11,0.10,-1.56,0.291,-0.354,-0.968,4.289
2827,0.0035,-0.0186,0.0179,-1.11,0.12,-1.50,0.291,-0.123,-1.682,5.595
2837,0.0034,-0.0167,0.0186,-1.13,0.13,-1.45,0.290,1.777,-0.312,5.311
2848,0.0032,-0.0147,0.0191,-1.13,0.15,-1.40,0.290,2.796,-0.238,4.537
2857,0.0072,-0.0127,0.0180,-1.12,0.14,-1.35,0.290,4.996,-0.301,4.538
2868,0.0045,-0.0104,0.0188,-1.11,0.15,-1.30,0.290,4.840,0.951,5.536
2878,0.0043,-0.0085,0.0195,-1.07,0.15,-1.25,0.293,5.047,0.475,4.387
2887,0.0039,-0.0053,0.0201,-1.02,0.15,-1.20,0.293,6.694,0.818,3.678
2898,0.0061,0.0003,0.0246,-0.99,0.13,-1.15,0.293,6.788,0.545,4.357
2908,0.0082,0.0031,0.0250,-0.94,0.11,-1.10,0.293,6.910,-0.358,4.265
2917,0.0080,0.0049,0.0251,-0.87,0.10,-1.06,0.293,6.817,-0.233,4.160
2927,0.0077,0.0073,0.0252,-0.80,0.09,-1.02,0.293,6.524,-0.836,3.853
2938,0.0073,0.0093,0.0250,-0.73,0.09,-0.97,0.292,7.549,-1.612,3.772
2948,0.0071,0.0105,0.0250,-0.66,0.10,-0.93,0.292,7.814,-2.016,3.481
2958,0.0042,0.0121,0.0223,-0.59,0.13,-0.89,0.292,8.270,-2.942,3.127
2967,0.0036,0.0177,0.0224,-0.53,0.15,-0.86,0.292,9.578,-3.509,3.182
2978,0.0034,0.0187,0.0223,-0.46,0.17,-0.83,0.293,10.360,-3.629,3.042
2987,0.0024,0.0192,0.0221,-0.36,0.20,-0.79,0.293,8.636,-3.637,3.263
2997,0.0036,0.0241,0.0202,-0.29,0.23,-0.76,0.293,8.521,-1.600,3.051
3007,0.0027,0.0247,0.0197,-0.21,0.26,-0.73,0.293,10.563,-1.348,3.074
3017,0.0019,0.0267,0.0193,-0.12,0.28,-0.70,0.293,8.842,0.633,2.251
3027,0.0009,0.0266,0.0189,-0.04,0.30,-0.67,0.293,11.763,0.451,2.423
3038,0.0004,0.0266,0.0187,0.06,0.30,-0.64,0.288,10.697,1.977,1.990
3048,-0.0002,0.0301,0.0186,0.15,0.30,-0.62,0.288,9.141,2.513,1.573
3057,-0.0006,0.0298,0.0032,0.26,0.28,-0.60,0.288,11.139,3.787,1.630
3067,-0.0006,0.0352,0.0031,0.33,0.26,-0.58,0.288,9.194,3.126,1.616
3077,-0.0026,0.0335,0.0030,0.44,0.23,-0.56,0.293,10.091,3.756,1.563
3087,-0.0045,0.0297,0.0028,0.56,0.21,-0.55,0.293,10.815,3.187,0.847
3097,-0.0041,0.0278,0.0049,0.67,0.18,-0.53,0.293,9.933,2.848,0.557
3107,-0.0038,0.0282,0.0045,0.76,0.14,-0.52,0.293,8.094,1.926,0.650
3118,-0.0035,0.0266,0.0039,0.85,0.12,-0.51,0.293,7.168,1.887,0.092
3127,-0.0071,0.0231,0.0035,0.94,0.11,-0.50,0.293,6.911,3.125,0.283
3137,-0.0085,0.0236,0.0029,1.00,0.09,-0.50,0.293,5.204,2.488,0.084
3147,-0.0087,0.0219,0.0024,1.07,0.06,-0.50,0.293,5.827,2.396,0.339
3157,-0.0079,0.0264,0.0034,1.10,0.03,-0.49,0.293,3.485,2.337,0.412
3167,-0.0092,0.0230,0.0035,1.15,0.01,-0.49,0.293,2.839,3.001,-0.008
3178,-0.0125,0.0216,0.0034,1.19,-0.00,-0.49,0.294,2.281,2.481,0.184
3188,-0.0125,0.0195,0.0034,1.23,-0.03,-0.48,0.294,1.016,3.740,-0.006
3197,-0.0115,0.0206,0.0055,1.23,-0.06,-0.48,0.294,1.205,2.904,0.165
3207,-0.0115,0.0185,0.0053,1.24,-0.09,-0.48,0.294,-0.517,3.470,-0.285
3217,-0.0113,0.0164,0.0049,1.25,-0.12,-0.48,0.294,-0.181,4.022,0.429
3227,-0.0111,0.0143,0.0046,1.25,-0.16,-0.47,0.294,-2.393,4.452,0.306
3237,-0.0109,0.0121,0.0039,1.24,-0.19,-0.47,0.294,-1.088,3.505,0.370
3247,-0.0115,0.0099,0.0034,1.22,-0.23,-0.46,0.294,-1.515,4.245,0.346
3257,-0.0112,0.0078,0.0043,1.20,-0.28,-0.46,0.294,-2.325,3.729,0.665
3267,-0.0118,0.0055,0.0044,1.19,-0.31,-0.45,0.294,-1.391,3.732,0.494
3277,-0.0113,0.0034,0.0043,1.17,-0.35,-0.45,0.295,-0.940,4.263,0.878
3287,-0.0107,0.0014,0.0044,1.16,-0.39,-0.44,0.295,-1.197,4.069,0.617
3297,-0.0100,-0.0006,0.0065,1.15,-0.43,-0.43,0.295,-1.556,3.236,0.415
3307,-0.0130,-0.0046,0.0062,1.15,-0.45,-0.42,0.295,-4.095,2.494,0.850
3317,-0.0157,-0.0082,0.0059,1.14,-0.46,-0.42,0.295,-3.441,2.257,0.884
3327,-0.0116,-0.0094,0.0052,1.11,-0.51,-0.41,0.295,-5.576,2.155,1.201
3337,-0.0121,-0.0123,0.0046,1.07,-0.52,-0.40,0.292,-7.325,2.229,1.149
3347,-0.0058,-0.0127,0.0044,1.00,-0.58,-0.39,0.292,-6.733,2.181,0.207
3357,-0.0084,-0.0127,-0.0019,0.93,-0.59,-0.38,0.292,-9.557,2.074,0.412
3367,-0.0044,-0.0147,-0.0019,0.86,-0.63,-0.37,0.292,-9.040,1.473,0.417
3377,-0.0034,-0.0162,-0.0018,0.77,-0.66,-0.37,0.290,-9.969,-0.321,0.627
3387,-0.0020,-0.0198,-0.0018,0.70,-0.67,-0.37,0.290,-11.268,1.182,0.544
3397,-0.0009,-0.0209,-0.0093,0.60,-0.68,-0.36,0.290,-9.223,-0.631,1.202
3407,0.0005,-0.0238,-0.0092,0.50,-0.69,-0.35,0.290,-8.774,-0.829,1.110
3417,-0.0027,-0.0264,-0.0090,0.42,-0.67,-0.34,0.290,-8.077,-2.271,0.669
3426,-0.0027,-0.0282,-0.0090,0.43,-0.66,-0.34,0.290,-7.906,-2.568,1.305
3437,-0.0016,-0.0289,-0.0092,0.34,-0.66,-0.33,0.292,-8.453,-2.540,1.182
3447,0.0055,-0.0295,-0.0092,0.25,-0.67,-0.32,0.292,-8.132,-3.524,0.910
3457,0.0060,-0.0318,-0.0081,0.19,-0.64,-0.31,0.292,-10.288,-3.460,1.677
3467,0.0082,-0.0295,-0.0081,0.10,-0.62,-0.30,0.292,-6.046,-3.909,0.507
3477,0.0063,-0.0309,-0.0076,0.02,-0.57,-0.29,0.293,-9.782,-5.093,1.227
3486,0.0073,-0.0309,-0.0070,-0.08,-0.54,-0.27,0.293,-8.337,-3.542,1.117
3497,0.0091,-0.0282,-0.0030,-0.16,-0.50,-0.27,0.293,-9.345,-4.909,1.362
3507,0.0110,-0.0340,-0.0026,-0.22,-0.46,-0.26,0.293,-8.985,-4.355,1.159
3517,0.0118,-0.0336,-0.0020,-0.30,-0.42,-0.25,0.293,-8.168,-3.732,1.509
3526,0.0115,-0.0325,-0.0016,-0.39,-0.37,-0.24,0.293,-8.453,-3.673,1.433
3537,0.0110,-0.0313,-0.0016,-0.48,-0.33,-0.23,0.292,-7.475,-4.283,1.019
3547,0.0146,-0.0340,-0.0017,-0.55,-0.30,-0.21,0.292,-5.192,-3.361,1.153
3557,0.0161,-0.0345,-0.0016,-0.63,-0.27,-0.20,0.292,-5.854,-3.146,1.756
3567,0.0154,-0.0293,-0.0017,-0.74,-0.23,-0.19,0.292,-5.062,-1.908,1.649
3577,0.0157,-0.0281,-0.0016,-0.79,-0.19,-0.18,0.289,-4.013,-2.539,1.381
3587,0.0161,-0.0267,-0.0014,-0.86,-0.16,-0.16,0.289,-5.299,-2.082,2.137
3597,0.0163,-0.0252,-0.0072,-0.91,-0.14,-0.14,0.289,-0.427,-3.268,1.762
3606,0.0220,-0.0266,-0.0067,-0.94,-0.14,-0.13,0.289,-2.657,-3.722,1.619
3616,0.0209,-0.0298,-0.0061,-0.96,-0.11,-0.11,0.289,-1.910,-4.478,1.872
3627,0.0211,-0.0282,-0.0059,-0.98,-0.08,-0.09,0.289,-0.698,-3.798,1.762
3637,0.0218,-0.0270,-0.0059,-0.99,-0.05,-0.07,0.288,-2.985,-4.941,2.047
3647,0.0227,-0.0242,-0.0061,-1.03,-0.01,-0.05,0.288,0.370,-4.903,1.796
3656,0.0232,-0.0256,-0.0115,-1.02,0.02,-0.03,0.288,-0.461,-4.368,2.077
3667,0.0214,-0.0209,-0.0116,-1.06,0.08,-0.01,0.288,0.401,-4.321,2.022
3678,0.0239,-0.0185,-0.0116,-1.07,0.11,0.01,0.290,0.139,-4.183,1.782
3687,0.0237,-0.0166,-0.0116,-1.07,0.16,0.03,0.290,0.284,-4.361,1.699
3697,0.0219,-0.0125,-0.0091,-1.08,0.21,0.05,0.290,0.018,-4.304,1.642
3706,0.0221,-0.0144,-0.0088,-1.05,0.25,0.07,0.290,-1.613,-4.551,2.285
3717,0.0222,-0.0103,-0.0083,-1.06,0.29,0.09,0.290,-0.369,-4.376,1.666
3727,0.0217,-0.0085,-0.0079,-1.06,0.33,0.11,0.290,2.727,-3.781,1.138
3736,0.0211,-0.0067,-0.0079,-1.07,0.37,0.13,0.289,3.116,-2.008,0.595
3746,0.0232,-0.0049,-0.0077,-1.08,0.40,0.15,0.289,2.668,-1.742,1.090
3757,0.0274,-0.0037,-0.0071,-1.06,0.42,0.16,0.289,3.769,-1.759,0.602
3767,0.0234,0.0018,-0.0070,-1.04,0.46,0.17,0.289,4.629,-1.335,0.561
3776,0.0225,0.0037,-0.0070,-1.01,0.49,0.18,0.286,8.354,-0.624,-0.333
3787,0.0268,0.0087,-0.0072,-0.99,0.47,0.19,0.286,6.714,0.435,0.157
3797,0.0260,0.0104,-0.0128,-0.95,0.49,0.19,0.286,8.225,-1.173,-0.775
3807,0.0252,0.0120,-0.0128,-0.88,0.50,0.19,0.286,8.426,-0.383,-1.433
3816,0.0243,0.0135,-0.0122,-0.81,0.50,0.19,0.286,7.989,-1.689,-1.418
3827,0.0270,0.0219,-0.0116,-0.77,0.48,0.19,0.286,8.848,-1.337,-1.800
3837,0.0261,0.0232,-0.0113,-0.70,0.49,0.18,0.286,12.915,-2.290,-1.506
3846,0.0243,0.0260,-0.0107,-0.63,0.50,0.17,0.286,9.665,-2.590,-1.066
3857,0.0234,0.0270,-0.0123,-0.53,0.51,0.16,0.286,7.749,-3.181,-2.200
3867,0.0261,0.0372,-0.0123,-0.48,0.50,0.16,0.286,7.919,-2.675,-1.535
3876,0.0253,0.0380,-0.0124,-0.40,0.52,0.14,0.280,9.179,-2.405,-1.224
3886,0.0244,0.0387,-0.0123,-0.32,0.54,0.12,0.280,11.210,-3.010,-1.630
3896,0.0235,0.0392,-0.0250,-0.24,0.56,0.11,0.280,12.821,-2.825,-1.692
3907,0.0212,0.0433,-0.0244,-0.17,0.60,0.09,0.280,12.704,-2.142,-1.149
3916,0.0236,0.0418,-0.0235,-0.05,0.60,0.08,0.280,11.924,-1.552,-1.358
3926,0.0209,0.0422,-0.0225,0.07,0.64,0.06,0.280,12.740,-1.543,-0.896
3936,0.0185,0.0427,-0.0216,0.20,0.68,0.05,0.286,14.025,-0.684,-1.175
3946,0.0162,0.0408,-0.0208,0.33,0.71,0.03,0.286,10.856,1.678,-0.558
3956,0.0142,0.0388,-0.0113,0.46,0.73,0.01,0.286,7.647,1.987,-2.366
3966,0.0168,0.0392,-0.0105,0.58,0.72,-0.00,0.286,11.013,0.777,-2.385
3977,0.0127,0.0347,-0.0099,0.72,0.74,-0.02,0.282,10.240,2.725,-0.617
3987,0.0073,0.0371,-0.0093,0.80,0.75,-0.04,0.282,3.668,4.161,-1.756
3997,0.0086,0.0334,-0.0117,0.91,0.72,-0.05,0.282,8.520,0.373,-2.252
4006,0.0071,0.0309,-0.0108,0.99,0.69,-0.06,0.282,3.598,4.592,0.106
4017,0.0065,0.0314,-0.0099,1.05,0.66,-0.09,0.282,3.184,2.436,-3.052
4026,0.0054,0.0295,-0.0089,1.12,0.64,-0.10,0.282,7.702,2.305,-0.660
4036,0.0043,0.0276,-0.0077,1.16,0.60,-0.11,0.280,-0.190,5.555,-0.323
4047,0.0020,0.0285,-0.0066,1.20,0.58,-0.13,0.280,2.032,2.194,-2.632
4056,0.0011,0.0265,-0.0111,1.25,0.54,-0.13,0.280,3.246,2.626,-0.692
4066,-0.0036,0.0290,-0.0103,1.24,0.53,-0.15,0.280,-1.320,5.222,0.327
4076,-0.0045,0.0269,-0.0097,1.27,0.50,-0.16,0.283,-3.381,4.470,-0.216
4086,-0.0054,0.0247,-0.0089,1.28,0.46,-0.16,0.283,-3.752,3.369,-0.941
4096,-0.0062,0.0224,-0.0034,1.27,0.41,-0.17,0.283,-4.355,4.200,-0.346
4106,-0.0083,0.0195,-0.0023,1.27,0.39,-0.18,0.283,-2.611,4.529,-0.187
4116,-0.0103,0.0147,-0.0010,1.26,0.36,-0.19,0.283,-1.227,4.196,-0.358
4127,-0.0110,0.0125,0.0004,1.23,0.33,-0.19,0.283,-1.733,5.108,-0.589
4136,-0.0116,0.0104,0.0017,1.21,0.29,-0.19,0.280,-2.704,6.434,-0.825
4147,-0.0106,0.0062,0.0026,1.21,0.24,-0.20,0.280,-1.270,7.555,-0.079
4156,-0.0118,-0.0003,-0.0005,1.21,0.19,-0.20,0.280,-0.453,7.888,-0.683
4166,-0.0121,-0.0024,0.0004,1.19,0.13,-0.20,0.280,-1.639,7.538,-0.748
4176,-0.0129,-0.0062,0.0013,1.19,0.07,-0.21,0.279,-5.363,8.594,-1.217
4186,-0.0130,-0.0083,0.0022,1.18,-0.00,-0.22,0.279,-5.555,5.578,-3.285
4196,-0.0159,-0.0095,-0.0012,1.14,-0.06,-0.23,0.279,-7.064,7.740,-0.712
4206,-0.0158,-0.0115,-0.0003,1.10,-0.14,-0.25,0.279,-10.328,4.373,-3.828
4216,-0.0132,-0.0131,0.0006,1.06,-0.21,-0.27,0.279,-9.016,5.467,-1.270
4226,-0.0129,-0.0149,0.0014,0.98,-0.29,-0.28,0.279,-11.860,4.076,-1.360
4236,-0.0151,-0.0134,0.0020,0.88,-0.32,-0.31,0.278,-11.788,3.450,-2.040
4247,-0.0158,-0.0172,0.0028,0.79,-0.37,-0.33,0.278,-10.556,1.492,-1.972
4256,-0.0165,-0.0205,-0.0018,0.70,-0.40,-0.36,0.278,-10.226,1.871,-2.425
4266,-0.0215,-0.0211,-0.0012,0.60,-0.39,-0.38,0.278,-9.648,2.341,-2.270
4276,-0.0196,-0.0214,-0.0007,0.49,-0.42,-0.40,0.279,-8.754,2.794,-1.591
4286,-0.0178,-0.0262,-0.0001,0.40,-0.45,-0.42,0.279,-7.605,2.742,-1.821
4297,-0.0160,-0.0264,0.0004,0.30,-0.48,-0.45,0.279,-7.664,4.067,-1.984
4306,-0.0141,-0.0265,0.0013,0.21,-0.51,-0.46,0.279,-8.208,4.465,-2.262
4316,-0.0142,-0.0287,0.0020,0.14,-0.54,-0.48,0.279,-8.484,5.876,-1.579
4326,-0.0132,-0.0289,0.0025,0.06,-0.57,-0.50,0.279,-6.511,5.028,-2.294
4336,-0.0131,-0.0286,0.0029,-0.02,-0.62,-0.52,0.281,-6.708,4.262,-2.960
4346,-0.0128,-0.0321,0.0031,-0.09,-0.66,-0.54,0.281,-7.386,3.253,-3.329
4356,-0.0117,-0.0320,0.0073,-0.17,-0.71,-0.56,0.281,-7.970,2.234,-3.201
4366,-0.0093,-0.0375,0.0079,-0.21,-0.77,-0.59,0.281,-7.180,2.514,-2.704
4376,-0.0080,-0.0371,0.0085,-0.29,-0.81,-0.61,0.278,-8.375,0.994,-2.150
4386,-0.0060,-0.0362,0.0090,-0.37,-0.84,-0.64,0.278,-5.283,-0.781,-2.746
4396,-0.0043,-0.0391,0.0044,-0.42,-0.86,-0.67,0.278,-7.387,-2.232,-3.343
4406,-0.0026,-0.0377,0.0050,-0.50,-0.87,-0.69,0.278,-7.663,-2.310,-2.570
4416,-0.0011,-0.0369,0.0054,-0.57,-0.87,-0.72,0.278,-7.632,-3.514,-2.398
4427,0.0004,-0.0359,0.0055,-0.64,-0.85,-0.75,0.278,-8.115,-3.053,-2.761
4436,0.0012,-0.0346,0.0054,-0.71,-0.82,-0.78,0.277,-8.045,-3.694,-2.514
4446,0.0026,-0.0334,0.0056,-0.79,-0.79,-0.80,0.277,-7.224,-4.337,-2.478
4456,0.0072,-0.0402,-0.0001,-0.82,-0.78,-0.83,0.277,-6.078,-4.382,-2.427
4466,0.0098,-0.0381,0.0006,-0.91,-0.75,-0.85,0.277,-6.851,-3.988,-2.726
4476,0.0100,-0.0318,0.0010,-1.01,-0.70,-0.88,0.280,-4.999,-4.782,-2.957
4486,0.0122,-0.0300,0.0014,-1.08,-0.66,-0.90,0.280,-3.377,-5.534,-2.701
4496,0.0133,-0.0282,0.0048,-1.14,-0.61,-0.93,0.280,-3.356,-5.141,-3.002
4506,0.0130,-0.0286,0.0049,-1.18,-0.56,-0.95,0.280,-2.238,-5.230,-2.811
4516,0.0148,-0.0249,0.0050,-1.23,-0.51,-0.98,0.280,-0.469,-5.632,-2.639
4526,0.0165,-0.0213,0.0058,-1.27,-0.47,-1.01,0.280,-0.793,-5.806,-2.358
4536,0.0218,-0.0182,0.0063,-1.31,-0.44,-1.04,0.279,1.322,-4.888,-2.448
4546,0.0209,-0.0171,0.0068,-1.31,-0.38,-1.06,0.279,0.502,-5.334,-2.403
4556,0.0199,-0.0163,0.0064,-1.32,-0.31,-1.08,0.279,1.748,-5.489,-2.340
4566,0.0208,-0.0139,0.0070,-1.31,-0.26,-1.10,0.279,2.099,-5.171,-2.678
4576,0.0218,-0.0113,0.0073,-1.30,-0.20,-1.13,0.279,5.285,-6.108,-2.456
4586,0.0206,-0.0070,0.0075,-1.30,-0.14,-1.15,0.279,2.805,-5.161,-2.151
4596,0.0250,-0.0053,0.0065,-1.28,-0.11,-1.18,0.279,4.517,-5.865,-1.930
4606,0.0234,-0.0053,0.0067,-1.22,-0.04,-1.20,0.279,3.920,-5.445,-2.735
4616,0.0235,-0.0030,0.0070,-1.19,0.02,-1.23,0.279,5.439,-5.836,-2.609
4626,0.0237,0.0003,0.0071,-1.15,0.08,-1.25,0.279,3.385,-4.744,-2.626
4636,0.0295,0.0013,0.0075,-1.11,0.10,-1.27,0.276,5.419,-5.521,-3.028
4646,0.0294,0.0024,0.0081,-1.06,0.16,-1.29,0.276,4.037,-5.552,-2.488
4656,0.0275,0.0050,-0.0002,-1.02,0.22,-1.32,0.276,6.430,-5.184,-2.202
4666,0.0272,0.0076,-0.0000,-0.97,0.27,-1.35,0.276,4.672,-4.878,-1.898
4676,0.0287,0.0082,-0.0001,-0.92,0.32,-1.37,0.280,4.655,-4.354,-1.978
4686,0.0266,0.0123,0.0001,-0.87,0.38,-1.39,0.280,3.282,-4.105,-1.565
4696,0.0264,0.0127,0.0043,-0.82,0.43,-1.41,0.280,5.475,-4.192,-1.958
4706,0.0278,0.0146,0.0045,-0.78,0.46,-1.43,0.280,3.530,-2.945,-1.449
4716,0.0271,0.0160,0.0048,-0.73,0.50,-1.45,0.280,4.759,-3.178,-1.379
4726,0.0286,0.0212,0.0054,-0.70,0.53,-1.46,0.280,4.839,-3.002,-1.564
4735,0.0263,0.0227,0.0060,-0.65,0.57,-1.48,0.279,5.929,-2.559,-1.776
4746,0.0240,0.0239,0.0063,-0.60,0.62,-1.49,0.279,6.994,-2.050,-1.617
4756,0.0253,0.0228,0.0057,-0.53,0.64,-1.51,0.279,7.270,-1.539,-1.158
4766,0.0242,0.0238,0.0056,-0.46,0.66,-1.53,0.279,8.535,-1.420,-1.235
4776,0.0241,0.0298,0.0059,-0.41,0.68,-1.54,0.279,7.359,-0.576,-1.582
4786,0.0229,0.0305,0.0065,-0.33,0.70,-1.56,0.279,8.876,-1.350,-1.543
4796,0.0217,0.0311,0.0062,-0.25,0.71,-1.57,0.279,10.374,-1.783,-2.202
4806,0.0197,0.0367,0.0066,-0.19,0.73,-1.59,0.279,9.168,-1.657,-2.474
4816,0.0215,0.0362,0.0068,-0.10,0.73,-1.61,0.279,6.261,0.372,-2.400
4826,0.0194,0.0356,0.0069,-0.01,0.74,-1.63,0.279,5.804,0.354,-1.822
4836,0.0173,0.0366,0.0070,0.08,0.76,-1.65,0.277,8.239,-0.413,-2.253
4846,0.0152,0.0357,0.0072,0.17,0.76,-1.67,0.277,8.863,0.861,-2.547
4856,0.0116,0.0349,0.0017,0.25,0.78,-1.70,0.277,8.171,0.414,-2.504
4866,0.0102,0.0345,0.0021,0.33,0.78,-1.72,0.277,8.661,-0.470,-3.031
4876,0.0089,0.0340,0.0022,0.41,0.78,-1.74,0.279,8.477,1.323,-2.730
4886,0.0096,0.0386,0.0022,0.46,0.76,-1.76,0.279,9.238,0.102,-2.969
4896,0.0080,0.0373,0.0030,0.54,0.76,-1.79,0.279,8.278,1.068,-3.525
4906,0.0067,0.0364,0.0030,0.62,0.75,-1.82,0.279,7.139,2.297,-3.354
4917,0.0037,0.0406,0.0026,0.68,0.76,-1.85,0.279,5.789,1.895,-3.585
4926,0.0023,0.0395,0.0023,0.76,0.75,-1.88,0.279,7.918,0.667,-4.481
4936,0.0030,0.0375,0.0024,0.85,0.72,-1.92,0.279,5.939,1.765,-4.748
4945,0.0017,0.0361,0.0027,0.91,0.71,-1.96,0.279,5.141,1.595,-4.527
4955,0.0010,0.0384,0.0032,0.96,0.70,-2.00,0.279,6.106,1.990,-4.511
4966,-0.0003,0.0368,0.0033,1.02,0.68,-2.05,0.279,3.687,2.891,-5.132
4976,-0.0031,0.0332,0.0031,1.09,0.67,-2.09,0.278,5.518,3.249,-5.283
4986,-0.0043,0.0313,0.0030,1.14,0.65,-2.14,0.278,2.737,3.010,-5.752
4995,-0.0089,0.0299,0.0007,1.18,0.64,-2.19,0.278,4.618,4.061,-5.477
5006,-0.0100,0.0279,0.0005,1.23,0.61,-2.24,0.278,2.600,3.945,-4.673
5016,-0.0112,0.0259,0.0006,1.25,0.57,-2.30,0.278,0.199,6.104,-5.849
5025,-0.0122,0.0237,0.0012,1.29,0.53,-2.35,0.278,3.020,5.798,-5.560
5035,-0.0141,0.0225,0.0018,1.31,0.49,-2.40,0.278,0.484,6.281,-4.997
5046,-0.0151,0.0200,0.0019,1.32,0.43,-2.46,0.278,0.984,6.647,-5.085
5056,-0.0159,0.0178,0.0003,1.35,0.36,-2.51,0.278,-2.913,6.757,-5.000
5066,-0.0171,0.0170,0.0001,1.34,0.30,-2.56,0.278,-2.323,9.215,-5.243
5076,-0.0177,0.0147,0.0000,1.35,0.23,-2.61,0.280,-6.975,9.570,-4.850
5086,-0.0276,0.0080,0.0002,1.35,0.21,-2.66,0.280,-5.760,8.918,-5.480
5095,-0.0281,0.0056,0.0040,1.33,0.12,-2.71,0.280,-6.276,6.806,-4.779
5105,-0.0322,0.0049,0.0043,1.26,0.05,-2.76,0.280,-4.304,6.973,-5.611
5115,-0.0324,0.0028,0.0046,1.19,-0.04,-2.81,0.280,-6.681,6.528,-5.396
5126,-0.0321,-0.0002,0.0047,1.13,-0.11,-2.86,0.280,-6.257,7.613,-6.117
5135,-0.0318,-0.0012,0.0050,1.09,-0.18,-2.91,0.280,-2.185,7.377,-6.461
5145,-0.0335,-0.0061,0.0054,1.04,-0.24,-2.97,0.280,-5.680,7.989,-5.546
5156,-0.0329,-0.0091,0.0076,0.99,-0.32,-3.03,0.280,-8.424,10.138,-6.039
5165,-0.0320,-0.0097,0.0081,0.96,-0.39,-3.09,0.280,-5.643,9.676,-6.060
5175,-0.0309,-0.0138,0.0087,0.91,-0.48,-3.15,0.280,-8.421,9.786,-6.472
5185,-0.0318,-0.0196,0.0088,0.85,-0.57,-3.21,0.280,-5.586,8.665,-6.695
5195,-0.0309,-0.0211,0.0088,0.79,-0.67,-3.27,0.280,-7.567,7.849,-6.855
5205,-0.0292,-0.0229,0.0086,0.72,-0.77,-3.33,0.280,-8.123,7.073,-6.218
5215,-0.0274,-0.0218,0.0085,0.64,-0.86,-3.39,0.280,-9.331,5.719,-6.791
5225,-0.0260,-0.0230,0.0086,0.57,-0.94,-3.46,0.280,-10.826,4.726,-6.577
5236,-0.0228,-0.0259,0.0087,0.50,-1.01,-3.52,0.276,-12.756,3.500,-6.645
5245,-0.0241,-0.0304,0.0087,0.42,-1.05,-3.59,0.276,-12.111,1.194,-7.272
5255,-0.0223,-0.0311,-0.0012,0.32,-1.10,-3.66,0.276,-11.797,0.974,-7.168
5265,-0.0195,-0.0327,-0.0013,0.19,-1.13,-3.72,0.276,-12.821,-0.612,-6.843
5276,-0.0170,-0.0359,-0.0014,0.08,-1.14,-3.79,0.276,-11.384,-1.101,-6.679
5285,-0.0185,-0.0324,-0.0012,-0.06,-1.13,-3.86,0.276,-11.932,-0.433,-6.787
5295,-0.0161,-0.0333,-0.0065,-0.19,-1.13,-3.93,0.276,-11.462,-1.015,-6.734
5306,-0.0120,-0.0360,-0.0062,-0.29,-1.13,-4.00,0.276,-10.313,-3.008,-7.051
5315,-0.0099,-0.0364,-0.0060,-0.41,-1.13,-4.07,0.276,-9.957,-2.344,-6.937
5325,-0.0079,-0.0358,-0.0056,-0.53,-1.12,-4.14,0.276,-8.043,-1.780,-6.973
5335,-0.0044,-0.0383,-0.0047,-0.62,-1.10,-4.21,0.274,-7.802,-2.161,-6.880
5345,-0.0007,-0.0367,-0.0038,-0.72,-1.09,-4.28,0.274,-7.122,-2.007,-6.324
5355,0.0050,-0.0353,-0.0101,-0.81,-1.09,-4.35,0.274,-6.018,-2.576,-6.113
5365,0.0085,-0.0319,-0.0097,-0.90,-1.08,-4.42,0.274,-5.311,-3.089,-6.520
5375,0.0093,-0.0342,-0.0094,-0.94,-1.06,-4.48,0.276,-5.947,-4.132,-5.835
5385,0.0084,-0.0307,-0.0090,-1.01,-1.01,-4.54,0.276,-4.587,-4.760,-5.876
5395,0.0095,-0.0292,-0.0066,-1.06,-0.98,-4.61,0.276,-5.648,-6.057,-5.652
5405,0.0100,-0.0277,-0.0052,-1.12,-0.93,-4.66,0.276,-4.081,-7.712,-5.430
5415,0.0120,-0.0279,-0.0040,-1.16,-0.88,-4.72,0.276,-1.589,-9.677,-5.615
5425,0.0120,-0.0263,-0.0030,-1.21,-0.80,-4.78,0.276,-3.517,-11.198,-5.641
5435,0.0138,-0.0227,-0.0019,-1.27,-0.72,-4.83,0.272,-1.940,-10.241,-5.690
5445,0.0150,-0.0213,-0.0005,-1.29,-0.63,-4.89,0.272,-4.332,-10.193,-5.073
5455,0.0215,-0.0185,-0.0065,-1.33,-0.54,-4.95,0.272,-1.367,-8.709,-4.518
5465,0.0207,-0.0133,-0.0053,-1.37,-0.43,-5.00,0.272,1.277,-7.461,-4.541
5476,0.0216,-0.0110,-0.0043,-1.41,-0.33,-5.05,0.272,1.583,-8.558,-3.884
5485,0.0298,-0.0089,-0.0033,-1.43,-0.28,-5.10,0.272,0.845,-7.125,-3.932
5495,0.0299,-0.0067,-0.0059,-1.41,-0.20,-5.14,0.272,1.105,-6.054,-4.225
5505,0.0301,-0.0044,-0.0045,-1.40,-0.12,-5.18,0.272,5.852,-4.789,-4.560
5515,0.0338,-0.0043,-0.0029,-1.38,-0.06,-5.21,0.272,5.565,-6.177,-4.101
5526,0.0325,-0.0003,-0.0013,-1.38,0.01,-5.26,0.272,8.878,-5.426,-4.743
5536,0.0327,0.0021,0.0001,-1.32,0.06,-5.30,0.276,9.455,-7.541,-4.066
5545,0.0328,0.0044,0.0019,-1.26,0.12,-5.34,0.276,11.384,-6.658,-4.122
5555,0.0307,0.0072,0.0104,-1.17,0.19,-5.38,0.276,7.363,-7.704,-4.102
5565,0.0305,0.0091,0.0116,-1.08,0.26,-5.43,0.276,8.308,-7.414,-4.144
5575,0.0342,0.0145,0.0128,-0.99,0.31,-5.47,0.272,7.440,-9.196,-3.653
5585,0.0352,0.0160,0.0138,-0.92,0.38,-5.50,0.272,6.776,-8.200,-4.203
5595,0.0395,0.0172,0.0083,-0.83,0.43,-5.54,0.272,6.891,-8.758,-3.397
5605,0.0382,0.0169,0.0097,-0.75,0.52,-5.58,0.272,8.192,-8.579,-3.649
5616,0.0332,0.0192,0.0112,-0.69,0.63,-5.62,0.272,10.112,-8.833,-3.776
5625,0.0337,0.0238,0.0126,-0.64,0.71,-5.65,0.272,8.569,-6.860,-3.611
5635,0.0337,0.0227,0.0138,-0.54,0.79,-5.69,0.274,9.183,-6.690,-4.107
5646,0.0339,0.0248,0.0153,-0.45,0.86,-5.73,0.274,7.145,-3.503,-4.829
5655,0.0305,0.0253,0.0160,-0.35,0.94,-5.76,0.274,8.126,-5.481,-4.571
5665,0.0277,0.0290,0.0173,-0.26,1.01,-5.81,0.274,9.403,-3.382,-3.875
5675,0.0260,0.0296,0.0184,-0.18,1.05,-5.86,0.278,9.616,-3.441,-5.163
5685,0.0242,0.0301,0.0193,-0.08,1.10,-5.90,0.278,10.618,-1.251,-4.786
5695,0.0215,0.0301,0.0266,0.01,1.12,-5.95,0.278,9.803,-1.539,-4.809
5705,0.0185,0.0299,0.0276,0.10,1.15,-6.00,0.278,9.960,-0.782,-4.912
5715,0.0157,0.0292,0.0287,0.21,1.17,-6.05,0.278,6.935,0.457,-5.218
5725,0.0153,0.0317,0.0299,0.30,1.17,-6.09,0.278,9.169,1.053,-5.804
5735,0.0127,0.0309,0.0308,0.39,1.18,-6.14,0.279,9.841,0.896,-5.990
5745,0.0104,0.0301,0.0318,0.47,1.17,-6.20,0.279,8.630,2.443,-5.979
5755,0.0083,0.0306,0.0352,0.56,1.16,-6.25,0.279,5.920,3.429,-7.124
5765,0.0063,0.0298,0.0354,0.66,1.15,-6.31,0.279,3.293,4.902,-6.796
5775,0.0047,0.0303,0.0356,0.73,1.12,-6.37,0.283,2.149,4.336,-7.023
5785,0.0048,0.0275,0.0358,0.80,1.07,-6.44,0.283,4.251,4.099,-7.287
5795,0.0028,0.0264,0.0425,0.83,1.02,-6.51,0.283,2.694,3.514,-6.224
5806,-0.0000,0.0277,0.0430,0.83,0.98,-6.58,0.283,0.871,5.117,-7.186
5815,-0.0045,0.0288,0.0432,0.87,0.95,-6.65,0.283,3.019,6.032,-7.620
5825,-0.0063,0.0275,0.0432,0.89,0.92,-6.72,0.283,1.835,4.687,-6.554
5835,-0.0088,0.0253,0.0431,0.90,0.86,-6.79,0.281,-0.144,5.695,-7.029
5845,-0.0114,0.0226,0.0428,0.94,0.81,-6.86,0.281,1.732,5.544,-7.689
5854,-0.0115,0.0238,0.0369,0.94,0.76,-6.93,0.281,4.970,4.970,-7.991
5865,-0.0120,0.0198,0.0368,0.96,0.70,-7.00,0.281,3.641,4.954,-7.695
5875,-0.0161,0.0156,0.0367,1.00,0.65,-7.08,0.280,1.170,8.012,-8.031
5885,-0.0194,0.0168,0.0364,1.04,0.62,-7.16,0.280,-0.447,7.899,-7.692
5894,-0.0211,0.0125,0.0262,1.09,0.55,-7.24,0.280,0.041,8.001,-7.826
5905,-0.0239,0.0108,0.0252,1.10,0.48,-7.32,0.280,0.630,7.754,-8.280
5915,-0.0263,0.0108,0.0243,1.08,0.41,-7.39,0.280,-1.057,7.136,-8.467
5925,-0.0270,0.0087,0.0236,1.09,0.33,-7.47,0.280,-4.864,7.946,-8.423
5935,-0.0277,0.0068,0.0230,1.09,0.25,-7.55,0.282,-6.107,9.202,-9.162
5944,-0.0315,0.0058,0.0221,1.07,0.19,-7.63,0.282,-5.153,8.985,-9.224
5955,-0.0321,0.0041,0.0176,1.02,0.11,-7.72,0.282,-3.921,9.378,-9.825
5965,-0.0303,0.0009,0.0168,0.97,0.00,-7.81,0.282,-4.928,9.418,-9.937
5976,-0.0298,0.0002,0.0160,0.91,-0.09,-7.90,0.284,-5.179,9.728,-9.978
5985,-0.0277,-0.0024,0.0153,0.87,-0.20,-8.00,0.284,-5.986,9.972,-9.838
5995,-0.0309,-0.0058,0.0152,0.82,-0.28,-8.10,0.284,-6.220,9.249,-9.272
6005,-0.0336,-0.0075,0.0144,0.77,-0.36,-8.19,0.284,-5.345,9.041,-9.832
6015,-0.0360,-0.0090,0.0136,0.71,-0.45,-8.29,0.284,-6.175,8.575,-9.442
6025,-0.0349,-0.0108,0.0128,0.65,-0.54,-8.38,0.284,-5.317,7.770,-9.315
6035,-0.0334,-0.0109,0.0123,0.59,-0.64,-8.48,0.280,-4.266,6.137,-9.962
6045,-0.0321,-0.0125,0.0121,0.53,-0.72,-8.57,0.280,-4.338,7.358,-10.000
6054,-0.0295,-0.0159,0.0017,0.49,-0.81,-8.67,0.280,-5.252,6.141,-10.145
6065,-0.0300,-0.0173,0.0013,0.45,-0.86,-8.77,0.280,-5.724,5.518,-10.179
6075,-0.0287,-0.0183,0.0006,0.40,-0.93,-8.87,0.282,-6.047,5.572,-10.481
6085,-0.0290,-0.0195,-0.0001,0.36,-0.99,-8.97,0.282,-6.142,4.642,-11.112
6094,-0.0275,-0.0204,-0.0022,0.31,-1.05,-9.08,0.282,-8.260,3.296,-10.898
6105,-0.0282,-0.0227,-0.0027,0.25,-1.08,-9.19,0.282,-8.579,2.883,-10.973
6115,-0.0265,-0.0235,-0.0029,0.19,-1.13,-9.30,0.282,-7.891,2.171,-11.171
6124,-0.0237,-0.0257,-0.0030,0.11,-1.17,-9.41,0.282,-7.756,0.631,-11.675
6134,-0.0210,-0.0280,-0.0030,0.04,-1.20,-9.52,0.281,-8.332,1.742,-11.684
6145,-0.0160,-0.0268,-0.0029,-0.06,-1.24,-9.63,0.281,-8.792,-1.280,-11.364
6155,-0.0177,-0.0316,-0.0056,-0.11,-1.23,-9.75,0.281,-7.296,0.042,-11.548
6165,-0.0156,-0.0318,-0.0053,-0.19,-1.24,-9.86,0.281,-6.737,-0.327,-12.250
6175,-0.0115,-0.0316,-0.0052,-0.28,-1.24,-9.98,0.278,-5.517,-2.436,-12.313
6184,-0.0096,-0.0348,-0.0056,-0.34,-1.25,-10.10,0.278,-8.435,-2.771,-11.844
6194,-0.0075,-0.0342,-0.0132,-0.41,-1.23,-10.22,0.278,-9.785,-2.587,-12.639
6205,-0.0073,-0.0331,-0.0131,-0.48,-1.20,-10.34,0.278,-7.700,-3.261,-12.434
6215,-0.0053,-0.0321,-0.0129,-0.57,-1.17,-10.46,0.278,-5.198,-1.934,-12.599
6225,-0.0035,-0.0310,-0.0126,-0.66,-1.14,-10.59,0.278,-8.097,-2.536,-12.238
6235,-0.0019,-0.0301,-0.0122,-0.73,-1.11,-10.72,0.277,-6.477,-3.313,-12.165
6244,0.0017,-0.0293,-0.0116,-0.80,-1.10,-10.84,0.277,-5.732,-3.790,-12.729
6254,0.0061,-0.0305,-0.0161,-0.86,-1.08,-10.97,0.277,-6.866,-4.981,-12.533
6264,0.0094,-0.0274,-0.0154,-0.95,-1.05,-11.09,0.277,-6.091,-5.706,-12.431
6275,0.0114,-0.0262,-0.0150,-1.02,-1.00,-11.21,0.277,-4.948,-7.228,-12.171
6284,0.0118,-0.0263,-0.0144,-1.08,-0.94,-11.33,0.277,-4.998,-8.736,-12.351
6294,0.0153,-0.0272,-0.0151,-1.13,-0.88,-11.46,0.277,-2.429,-8.685,-13.110
6304,0.0175,-0.0242,-0.0141,-1.19,-0.81,-11.58,0.277,-2.342,-9.443,-12.990
6315,0.0207,-0.0235,-0.0132,-1.22,-0.73,-11.70,0.277,-1.150,-10.136,-12.793
6324,0.0202,-0.0218,-0.0124,-1.25,-0.61,-11.85,0.277,-0.258,-10.650,-12.849
6335,0.0217,-0.0199,-0.0114,-1.27,-0.51,-11.97,0.279,-0.431,-9.739,-11.947
6345,0.0243,-0.0175,-0.0105,-1.29,-0.41,-12.10,0.279,0.483,-9.536,-11.891
6355,0.0229,-0.0165,-0.0045,-1.28,-0.29,-12.23,0.279,1.953,-8.725,-12.303
6364,0.0253,-0.0143,-0.0036,-1.29,-0.20,-12.35,0.279,1.205,-7.915,-12.182
6375,0.0262,-0.0122,-0.0026,-1.28,-0.11,-12.47,0.276,2.420,-8.305,-11.866
6385,0.0318,-0.0111,-0.0016,-1.27,-0.05,-12.59,0.276,3.482,-8.061,-12.129
6394,0.0335,-0.0097,-0.0043,-1.24,0.03,-12.70,0.276,3.400,-8.070,-11.914
6405,0.0356,-0.0066,-0.0035,-1.22,0.10,-12.82,0.276,4.624,-7.796,-12.387
6415,0.0339,-0.0030,-0.0026,-1.18,0.19,-12.95,0.276,4.584,-7.206,-12.016
6425,0.0371,-0.0025,-0.0019,-1.14,0.25,-13.07,0.276,5.854,-7.107,-13.238
6434,0.0352,0.0010,-0.0010,-1.10,0.34,-13.19,0.276,5.213,-7.776,-12.412
6445,0.0350,0.0040,-0.0002,-1.06,0.41,-13.31,0.276,5.431,-7.754,-12.222
6455,0.0347,0.0059,-0.0013,-1.00,0.49,-13.44,0.276,5.190,-7.913,-11.862
6465,0.0345,0.0101,-0.0007,-0.96,0.57,-13.56,0.276,5.916,-8.236,-11.999
6474,0.0339,0.0119,-0.0001,-0.90,0.65,-13.68,0.274,5.009,-8.157,-11.495
6485,0.0330,0.0140,0.0005,-0.84,0.73,-13.80,0.274,6.123,-7.080,-11.847
6494,0.0359,0.0167,-0.0044,-0.79,0.79,-13.92,0.274,8.377,-5.637,-12.130
6505,0.0328,0.0186,-0.0040,-0.72,0.88,-14.04,0.274,7.843,-5.236,-11.890
6514,0.0363,0.0168,-0.0032,-0.63,0.92,-14.16,0.274,9.840,-5.350,-12.207
6524,0.0335,0.0203,-0.0025,-0.56,1.00,-14.27,0.274,8.831,-5.536,-11.688
6534,0.0321,0.0215,-0.0017,-0.48,1.06,-14.39,0.275,7.416,-3.446,-11.305
6544,0.0277,0.0251,-0.0011,-0.40,1.13,-14.51,0.275,7.664,-3.040,-11.936
6554,0.0278,0.0233,-0.0009,-0.30,1.16,-14.63,0.275,7.125,-2.828,-12.038
6565,0.0263,0.0240,-0.0001,-0.22,1.20,-14.75,0.275,7.144,-1.020,-11.762
6574,0.0261,0.0280,0.0007,-0.17,1.22,-14.87,0.275,9.736,-0.358,-11.882
6584,0.0241,0.0288,0.0015,-0.08,1.24,-14.99,0.275,8.679,-0.947,-11.787
6594,0.0222,0.0327,0.0019,-0.02,1.25,-15.11,0.275,9.581,1.189,-11.826
6604,0.0197,0.0326,0.0027,0.08,1.25,-15.23,0.275,9.050,-0.443,-11.739
6615,0.0171,0.0322,0.0034,0.18,1.25,-15.34,0.275,6.998,1.575,-11.934
6624,0.0147,0.0321,0.0041,0.27,1.24,-15.46,0.275,5.935,0.239,-12.183
6634,0.0125,0.0330,0.0049,0.37,1.24,-15.58,0.276,8.316,2.214,-12.588
6644,0.0087,0.0334,0.0057,0.43,1.24,-15.70,0.276,6.285,2.333,-12.035
6654,0.0068,0.0344,0.0080,0.50,1.23,-15.83,0.276,8.728,1.915,-13.170
6664,0.0028,0.0324,0.0084,0.59,1.21,-15.95,0.276,9.625,2.718,-13.385
6674,0.0014,0.0333,0.0087,0.65,1.19,-16.07,0.275,8.308,3.550,-13.149
6685,-0.0005,0.0319,0.0094,0.75,1.16,-16.20,0.275,6.972,7.018,-13.897
6694,-0.0072,0.0320,0.0080,0.85,1.16,-16.34,0.275,7.654,8.785,-14.334
6704,-0.0080,0.0322,0.0086,0.92,1.10,-16.47,0.275,8.965,9.628,-14.750
6714,-0.0088,0.0305,0.0093,1.00,1.01,-16.61,0.275,6.670,10.533,-14.285
6724,-0.0093,0.0286,0.0098,1.08,0.91,-16.75,0.275,5.054,8.962,-14.258
6734,-0.0112,0.0272,0.0101,1.16,0.81,-16.89,0.276,4.976,11.629,-14.839
6744,-0.0126,0.0270,0.0108,1.23,0.69,-17.05,0.276,-0.505,7.320,-14.428
6755,-0.0142,0.0240,0.0114,1.28,0.58,-17.19,0.276,2.668,8.554,-15.869
6764,-0.0164,0.0253,0.0122,1.29,0.49,-17.33,0.276,2.599,10.090,-15.709
6774,-0.0187,0.0213,0.0127,1.31,0.42,-17.48,0.275,-0.486,8.526,-16.354
6784,-0.0194,0.0198,0.0134,1.34,0.32,-17.64,0.275,1.569,6.872,-17.231
6795,-0.0219,0.0178,0.0104,1.35,0.22,-17.79,0.275,-5.166,4.657,-16.668
6804,-0.0246,0.0159,0.0111,1.36,0.15,-17.96,0.275,-1.244,7.881,-17.229
6814,-0.0233,0.0150,0.0116,1.33,0.07,-18.12,0.275,-3.798,5.821,-17.371
6824,-0.0300,0.0117,0.0122,1.30,0.05,-18.29,0.275,-5.604,6.338,-17.378
6834,-0.0319,0.0103,0.0129,1.28,-0.02,-18.46,0.278,-3.236,7.953,-18.285
6844,-0.0358,0.0082,0.0136,1.24,-0.07,-18.63,0.278,-6.169,5.723,-17.950
6855,-0.0348,0.0042,0.0177,1.22,-0.16,-18.81,0.278,-2.878,8.279,-19.054
6864,-0.0352,0.0021,0.0182,1.17,-0.23,-18.99,0.278,-3.323,7.717,-18.996
6874,-0.0349,0.0011,0.0190,1.10,-0.29,-19.17,0.276,-3.641,7.091,-19.313
6884,-0.0333,-0.0024,0.0198,1.07,-0.40,-19.36,0.276,-4.827,9.709,-19.220
6894,-0.0315,-0.0058,0.0156,1.04,-0.49,-19.55,0.276,-4.086,10.889,-19.332
6904,-0.0351,-0.0052,0.0162,0.99,-0.56,-19.74,0.276,-7.331,6.954,-20.098
6914,-0.0334,-0.0104,0.0168,0.97,-0.68,-19.93,0.276,-6.734,8.063,-19.870
6924,-0.0388,-0.0105,0.0176,0.92,-0.74,-20.12,0.276,-6.438,8.058,-20.065
6934,-0.0391,-0.0124,0.0188,0.86,-0.83,-20.32,0.277,-6.934,7.217,-19.875
6944,-0.0363,-0.0151,0.0194,0.79,-0.93,-20.52,0.277,-7.519,5.882,-20.763
6954,-0.0360,-0.0148,0.0175,0.71,-1.00,-20.72,0.277,-8.184,5.275,-20.497
6964,-0.0347,-0.0166,0.0181,0.64,-1.07,-20.92,0.277,-7.784,5.262,-20.858
6975,-0.0332,-0.0181,0.0188,0.55,-1.14,-21.12,0.274,-9.556,4.093,-20.631
6984,-0.0308,-0.0214,0.0197,0.47,-1.20,-21.33,0.274,-7.520,3.386,-21.385
6994,-0.0292,-0.0228,0.0104,0.39,-1.25,-21.54,0.274,-8.714,2.761,-21.106
7004,-0.0267,-0.0257,0.0111,0.30,-1.30,-21.74,0.274,-8.623,1.512,-20.656
7014,-0.0245,-0.0284,0.0119,0.22,-1.33,-21.95,0.274,-6.828,0.893,-21.458
7024,-0.0225,-0.0296,0.0128,0.13,-1.35,-22.16,0.274,-7.581,0.551,-21.595
7034,-0.0204,-0.0320,0.0137,0.06,-1.37,-22.38,0.278,-7.264,-0.550,-21.928
7044,-0.0230,-0.0362,0.0148,0.01,-1.36,-22.59,0.278,-7.881,-0.389,-22.697
7054,-0.0210,-0.0383,0.0177,-0.06,-1.36,-22.81,0.278,-8.807,-0.787,-22.611
7064,-0.0194,-0.0364,0.0186,-0.16,-1.34,-23.03,0.278,-9.826,-1.937,-22.793
7074,-0.0176,-0.0379,0.0193,-0.24,-1.33,-23.26,0.279,-10.443,-2.601,-22.394
7084,-0.0150,-0.0375,0.0205,-0.35,-1.32,-23.48,0.279,-12.848,-3.229,-22.911
7094,-0.0110,-0.0377,0.0229,-0.45,-1.31,-23.71,0.279,-11.116,-4.104,-23.740
7104,-0.0079,-0.0389,0.0238,-0.57,-1.28,-23.93,0.279,-12.385,-2.792,-23.010
7115,-0.0070,-0.0406,0.0248,-0.68,-1.24,-24.16,0.279,-11.457,-3.346,-23.448
7124,-0.0032,-0.0396,0.0255,-0.82,-1.21,-24.40,0.279,-9.519,-3.396,-23.795
7134,-0.0026,-0.0411,0.0263,-0.92,-1.16,-24.63,0.280,-8.981,-4.445,-23.635
7144,0.0008,-0.0401,0.0272,-1.02,-1.12,-24.87,0.280,-8.716,-5.382,-23.130
7154,0.0004,-0.0429,0.0279,-1.09,-1.07,-25.10,0.280,-5.608,-5.758,-24.319
7164,0.0029,-0.0420,0.0288,-1.17,-1.01,-25.33,0.280,-6.339,-7.290,-23.896
7174,0.0083,-0.0397,0.0294,-1.27,-0.96,-25.59,0.280,-5.522,-7.740,-23.585
7184,0.0092,-0.0377,0.0300,-1.33,-0.87,-25.83,0.280,-5.289,-8.008,-24.170
7194,0.0122,-0.0348,0.0282,-1.40,-0.80,-26.06,0.280,-5.283,-7.925,-23.476
7204,0.0150,-0.0317,0.0286,-1.47,-0.71,-26.30,0.280,-5.495,-6.566,-23.659
7214,0.0172,-0.0300,0.0291,-1.52,-0.63,-26.53,0.280,-4.470,-6.649,-23.784
7224,0.0183,-0.0298,0.0295,-1.57,-0.54,-26.76,0.280,-3.712,-6.103,-23.597
7234,0.0203,-0.0278,0.0297,-1.62,-0.47,-27.00,0.282,-2.837,-6.812,-23.802
7244,0.0180,-0.0301,0.0299,-1.63,-0.39,-27.23,0.282,-1.740,-7.222,-23.703
7253,0.0257,-0.0278,0.0290,-1.68,-0.34,-27.46,0.282,0.533,-7.857,-23.872
7263,0.0337,-0.0280,0.0294,-1.70,-0.31,-27.70,0.282,2.343,-8.000,-23.801
7274,0.0351,-0.0251,0.0300,-1.71,-0.22,-27.93,0.284,2.609,-8.822,-24.043
7283,0.0386,-0.0216,0.0303,-1.71,-0.14,-28.17,0.284,3.312,-8.827,-24.307
7293,0.0417,-0.0184,0.0316,-1.69,-0.06,-28.41,0.284,3.687,-9.414,-24.322
7304,0.0432,-0.0159,0.0316,-1.66,0.03,-28.64,0.284,3.396,-9.704,-24.009
7314,0.0445,-0.0134,0.0316,-1.62,0.13,-28.88,0.284,3.034,-10.598,-23.874
7324,0.0474,-0.0129,0.0314,-1.57,0.22,-29.12,0.284,3.370,-11.693,-24.089
7334,0.0462,-0.0081,0.0313,-1.54,0.35,-29.36,0.285,3.698,-11.741,-24.562
7344,0.0526,-0.0075,0.0314,-1.52,0.44,-29.59,0.285,4.927,-12.160,-25.103
7353,0.0533,-0.0049,0.0302,-1.48,0.56,-29.83,0.285,5.621,-12.230,-24.811
7363,0.0527,-0.0010,0.0301,-1.44,0.69,-30.07,0.285,6.863,-11.449,-24.936
7374,0.0523,0.0001,0.0303,-1.37,0.82,-30.32,0.284,6.723,-10.989,-24.856
7384,0.0546,0.0058,0.0302,-1.33,0.94,-30.56,0.284,6.777,-10.550,-25.240
7393,0.0532,0.0091,0.0247,-1.26,1.07,-30.81,0.284,7.893,-9.623,-25.410
7404,0.0527,0.0119,0.0247,-1.19,1.18,-31.06,0.284,8.497,-8.839,-25.557
7414,0.0535,0.0155,0.0246,-1.12,1.28,-31.31,0.284,8.391,-7.044,-26.238
7423,0.0517,0.0180,0.0244,-1.02,1.38,-31.56,0.284,8.708,-7.006,-25.968
7434,0.0532,0.0227,0.0241,-0.96,1.46,-31.82,0.286,8.946,-6.664,-26.027
7443,0.0520,0.0254,0.0236,-0.86,1.53,-32.08,0.286,9.584,-5.096,-26.106
7453,0.0499,0.0273,0.0209,-0.77,1.61,-32.33,0.286,9.452,-4.426,-25.750
7464,0.0497,0.0319,0.0206,-0.68,1.66,-32.59,0.286,11.130,-4.130,-26.561
7474,0.0469,0.0356,0.0202,-0.58,1.72,-32.85,0.286,12.035,-3.606,-26.878
7484,0.0455,0.0378,0.0201,-0.46,1.77,-33.11,0.286,12.359,-2.427,-26.781
7493,0.0435,0.0425,0.0172,-0.35,1.81,-33.37,0.286,14.954,-1.275,-26.885
7503,0.0413,0.0447,0.0170,-0.21,1.85,-33.63,0.286,11.994,-0.980,-27.093
7513,0.0421,0.0492,0.0167,-0.11,1.85,-33.90,0.286,14.643,0.698,-27.003
7524,0.0390,0.0512,0.0165,0.03,1.87,-34.17,0.286,14.203,0.248,-27.578
7533,0.0371,0.0542,0.0164,0.16,1.86,-34.44,0.285,13.431,1.500,-27.335
7543,0.0315,0.0547,0.0165,0.33,1.87,-34.71,0.285,10.861,2.791,-27.760
7553,0.0297,0.0569,0.0100,0.47,1.85,-34.99,0.285,10.991,4.015,-28.221
7563,0.0246,0.0570,0.0101,0.62,1.83,-35.26,0.285,13.576,3.402,-28.646
7573,0.0196,0.0568,0.0097,0.76,1.79,-35.54,0.287,12.219,3.902,-29.660
7584,0.0157,0.0580,0.0092,0.89,1.75,-35.83,0.287,12.874,3.692,-29.075
7593,0.0130,0.0602,0.0091,1.02,1.71,-36.12,0.287,11.001,6.330,-28.625
7603,0.0087,0.0607,0.0092,1.18,1.66,-36.44,0.287,11.526,5.918,-30.278
7613,0.0052,0.0607,0.0095,1.31,1.61,-36.72,0.287,11.652,7.774,-29.900
7624,0.0041,0.0637,0.0099,1.41,1.53,-37.01,0.287,10.151,8.685,-31.022
7633,-0.0004,0.0618,0.0105,1.55,1.46,-37.31,0.288,9.288,9.955,-31.221
7644,-0.0045,0.0624,0.0109,1.66,1.37,-37.61,0.288,8.265,10.359,-32.506
7654,-0.0096,0.0612,0.0120,1.77,1.27,-37.92,0.288,6.865,11.113,-32.363
7664,-0.0102,0.0594,0.0122,1.85,1.14,-38.23,0.288,4.903,11.228,-33.338
7673,-0.0138,0.0581,0.0128,1.94,1.03,-38.55,0.287,4.700,10.869,-33.326
7683,-0.0244,0.0599,0.0131,2.01,0.94,-38.87,0.287,2.491,11.350,-33.545
7693,-0.0281,0.0611,0.0106,2.05,0.83,-39.19,0.287,1.451,11.650,-32.449
7703,-0.0318,0.0624,0.0106,2.05,0.85,-39.20,0.287,5.149,10.966,-34.824
7714,-0.0344,0.0585,0.0112,2.10,0.72,-39.53,0.287,3.563,9.999,-33.278
7724,-0.0384,0.0558,0.0119,2.13,0.59,-39.85,0.287,4.105,11.033,-33.626
7733,-0.0399,0.0555,0.0129,2.15,0.47,-40.18,0.291,2.783,11.799,-34.566
7743,-0.0470,0.0535,0.0137,2.20,0.37,-40.51,0.291,0.723,11.507,-33.918
7754,-0.0525,0.0479,0.0206,2.26,0.25,-40.84,0.291,2.158,13.149,-34.646
7763,-0.0567,0.0458,0.0217,2.28,0.13,-41.17,0.291,0.167,12.511,-34.838
7773,-0.0591,0.0426,0.0227,2.31,-0.01,-41.51,0.289,-3.640,14.249,-34.892
7783,-0.0625,0.0407,0.0238,2.32,-0.14,-41.84,0.289,-1.354,14.856,-35.229
7793,-0.0629,0.0364,0.0215,2.32,-0.29,-42.18,0.289,-2.312,15.128,-35.686
7803,-0.0699,0.0295,0.0222,2.34,-0.43,-42.52,0.289,-2.574,15.497,-36.203
7813,-0.0695,0.0254,0.0229,2.30,-0.61,-42.87,0.289,-3.284,15.971,-36.317
7824,-0.0761,0.0233,0.0235,2.28,-0.74,-43.21,0.289,-3.858,15.550,-36.220
7834,-0.0786,0.0201,0.0241,2.25,-0.91,-43.56,0.291,-7.118,14.978,-35.375
7844,-0.0770,0.0135,0.0248,2.21,-1.11,-43.92,0.291,-7.482,14.914,-35.290
7853,-0.0809,0.0105,0.0247,2.16,-1.26,-44.27,0.291,-9.013,14.757,-34.763
7863,-0.0810,0.0042,0.0253,2.09,-1.44,-44.62,0.291,-11.263,13.856,-35.116
7873,-0.0866,0.0040,0.0256,2.01,-1.57,-44.96,0.291,-11.788,13.486,-35.456
7883,-0.0858,-0.0020,0.0260,1.92,-1.74,-45.30,0.291,-11.772,11.620,-35.951
7893,-0.0883,-0.0065,0.0240,1.80,-1.89,-45.65,0.291,-11.867,11.789,-35.552
7903,-0.0858,-0.0108,0.0243,1.67,-2.04,-46.00,0.291,-12.174,10.172,-35.563
7914,-0.0855,-0.0171,0.0244,1.55,-2.18,-46.35,0.291,-11.587,9.966,-35.275
7923,-0.0840,-0.0245,0.0246,1.42,-2.32,-46.70,0.291,-12.375,9.482,-35.376
7933,-0.0869,-0.0315,0.0248,1.31,-2.43,-47.05,0.288,-11.212,9.495,-35.278
7943,-0.0870,-0.0359,0.0252,1.19,-2.53,-47.40,0.288,-12.183,9.460,-35.131
7953,-0.0869,-0.0400,0.0137,1.05,-2.63,-47.75,0.288,-11.693,8.942,-35.650
7963,-0.0833,-0.0455,0.0138,0.92,-2.75,-48.11,0.288,-13.124,8.615,-35.606
7973,-0.0829,-0.0516,0.0137,0.79,-2.84,-48.45,0.289,-13.991,8.521,-35.130
7983,-0.0789,-0.0566,0.0135,0.65,-2.95,-48.81,0.289,-14.969,8.509,-35.187
7993,-0.0770,-0.0632,0.0079,0.51,-3.05,-49.16,0.289,-17.809,7.275,-35.287
8003,-0.0745,-0.0650,0.0077,0.34,-3.12,-49.51,0.289,-18.085,6.649,-35.331
8013,-0.0709,-0.0701,0.0076,0.17,-3.21,-49.86,0.289,-19.942,4.297,-34.809
8023,-0.0692,-0.0747,0.0078,-0.01,-3.28,-50.21,0.289,-21.003,2.612,-34.841
8033,-0.0672,-0.0813,0.0079,-0.22,-3.36,-50.59,0.290,-21.509,0.777,-35.201
8043,-0.0605,-0.0830,0.0081,-0.45,-3.41,-50.94,0.290,-18.091,-0.929,-34.559
8053,-0.0599,-0.0893,0.0060,-0.65,-3.43,-51.29,0.290,-17.897,-4.116,-34.397
8063,-0.0596,-0.0951,0.0065,-0.86,-3.44,-51.63,0.290,-19.256,-5.886,-33.991
8073,-0.0539,-0.0962,0.0069,-1.08,-3.42,-51.98,0.293,-15.497,-6.596,-34.363
8083,-0.0482,-0.1029,0.0072,-1.28,-3.39,-52.32,0.293,-16.893,-7.452,-33.556
8093,-0.0421,-0.1047,0.0124,-1.49,-3.33,-52.66,0.293,-15.822,-7.934,-33.759
8103,-0.0400,-0.1090,0.0130,-1.65,-3.25,-53.00,0.293,-16.095,-7.963,-33.459
8113,-0.0330,-0.1111,0.0136,-1.84,-3.16,-53.34,0.293,-15.379,-7.210,-33.384
8123,-0.0286,-0.1148,0.0141,-2.01,-3.07,-53.67,0.293,-15.804,-7.708,-32.589
8133,-0.0203,-0.1153,0.0147,-2.21,-2.98,-54.00,0.289,-16.625,-8.348,-32.502
8143,-0.0190,-0.1227,0.0154,-2.34,-2.90,-54.32,0.289,-16.216,-8.434,-31.974
8154,-0.0131,-0.1219,0.0079,-2.52,-2.80,-54.65,0.289,-16.389,-9.413,-32.026
8163,-0.0080,-0.1255,0.0086,-2.69,-2.71,-54.96,0.289,-16.435,-10.427,-31.287
8173,0.0016,-0.1235,0.0093,-2.89,-2.60,-55.29,0.288,-15.035,-12.050,-31.502
8183,0.0074,-0.1276,0.0098,-3.05,-2.50,-55.60,0.288,-14.076,-13.735,-30.902
8193,0.0138,-0.1266,0.0031,-3.23,-2.38,-55.90,0.288,-15.397,-15.106,-30.318
8203,0.0209,-0.1324,0.0036,-3.38,-2.27,-56.20,0.288,-13.933,-16.968,-30.205
8213,0.0250,-0.1279,0.0043,-3.54,-2.09,-56.50,0.288,-12.390,-18.773,-30.156
8223,0.0356,-0.1302,0.0048,-3.71,-1.94,-56.80,0.288,-11.962,-20.237,-29.395
8233,0.0453,-0.1284,0.0054,-3.87,-1.76,-57.10,0.292,-9.963,-21.450,-29.544
8243,0.0516,-0.1303,0.0063,-4.00,-1.57,-57.38,0.292,-10.069,-21.322,-28.830
8253,0.0589,-0.1251,0.0108,-4.14,-1.33,-57.66,0.292,-9.571,-22.254,-27.837
8263,0.0658,-0.1195,0.0113,-4.26,-1.08,-57.94,0.292,-8.728,-22.331,-27.508
8273,0.0717,-0.1215,0.0121,-4.35,-0.86,-58.20,0.294,-8.361,-22.913,-28.045
8284,0.0788,-0.1166,0.0127,-4.46,-0.61,-58.47,0.294,-6.517,-23.509,-27.417
8293,0.0859,-0.1152,0.0182,-4.54,-0.37,-58.73,0.294,-4.842,-24.211,-26.931
8303,0.0929,-0.1111,0.0187,-4.62,-0.12,-58.99,0.294,-1.998,-23.930,-26.856
8313,0.1011,-0.1095,0.0194,-4.68,0.12,-59.24,0.294,-1.565,-24.373,-27.067
8323,0.1001,-0.1055,0.0203,-4.69,0.41,-59.49,0.294,-0.913,-24.967,-26.083
8333,0.1120,-0.0989,0.0205,-4.74,0.66,-59.74,0.296,-0.966,-25.652,-25.888
8343,0.1170,-0.0939,0.0209,-4.75,0.93,-59.99,0.296,2.243,-24.699,-26.245
8354,0.1210,-0.0930,0.0265,-4.72,1.19,-60.23,0.296,2.710,-24.678,-25.608
8364,0.1306,-0.0846,0.0266,-4.75,1.46,-60.47,0.296,2.566,-24.910,-25.405
8373,0.1428,-0.0815,0.0267,-4.75,1.69,-60.70,0.299,5.299,-24.446,-25.436
8383,0.1395,-0.0740,0.0271,-4.68,1.99,-60.94,0.299,5.315,-23.155,-25.386
8393,0.1545,-0.0672,0.0335,-4.68,2.23,-61.17,0.299,5.846,-23.339,-24.766
8403,0.1581,-0.0606,0.0332,-4.62,2.50,-61.40,0.299,6.384,-21.887,-24.508
8413,0.1535,-0.0564,0.0333,-4.51,2.77,-61.63,0.299,8.603,-23.049,-24.101
8423,0.1525,-0.0465,0.0330,-4.41,3.05,-61.87,0.299,8.557,-23.216,-24.027
8433,0.1668,-0.0389,0.0319,-4.38,3.26,-62.09,0.301,12.008,-24.803,-24.293
8443,0.1657,-0.0304,0.0310,-4.27,3.52,-62.32,0.301,12.980,-24.271,-24.352
8453,0.1685,-0.0228,0.0345,-4.16,3.77,-62.54,0.301,12.945,-22.348,-24.375
8463,0.1747,-0.0125,0.0333,-4.04,4.05,-62.78,0.301,16.137,-22.843,-24.232
8473,0.1720,-0.0039,0.0321,-3.86,4.33,-63.01,0.303,16.906,-23.316,-24.403
8483,0.1781,0.0059,0.0304,-3.74,4.56,-63.24,0.303,18.777,-22.138,-24.288
8493,0.1798,0.0171,0.0323,-3.56,4.81,-63.47,0.303,20.221,-21.888,-24.617
8503,0.1764,0.0258,0.0304,-3.35,5.06,-63.70,0.303,21.758,-20.528,-24.982
8513,0.1782,0.0372,0.0284,-3.15,5.30,-63.94,0.303,23.540,-18.997,-25.289
8523,0.1929,0.0494,0.0262,-3.00,5.50,-64.15,0.303,25.254,-17.681,-25.746
8533,0.1862,0.0568,0.0244,-2.72,5.72,-64.40,0.304,27.973,-17.198,-25.828
8543,0.1946,0.0712,0.0220,-2.52,5.92,-64.63,0.304,29.591,-16.697,-26.025
8553,0.1922,0.0805,0.0213,-2.23,6.11,-64.88,0.304,31.896,-16.316,-26.292
8563,0.1829,0.0916,0.0195,-1.88,6.31,-65.15,0.304,33.676,-16.122,-26.667
8573,0.1885,0.1027,0.0174,-1.59,6.47,-65.39,0.303,35.133,-16.095,-27.370
8582,0.1857,0.1149,0.0148,-1.25,6.65,-65.65,0.303,36.111,-15.262,-27.969
8592,0.1749,0.1233,0.0091,-0.84,6.83,-65.94,0.303,37.714,-14.978,-28.915
8603,0.1843,0.1357,0.0063,-0.53,6.96,-66.17,0.303,38.669,-13.953,-29.455
8613,0.1729,0.1456,0.0037,-0.09,7.13,-66.47,0.303,39.918,-12.523,-30.784
8623,0.1775,0.1607,0.0012,0.26,7.28,-66.74,0.303,39.733,-9.064,-31.626
8633,0.1670,0.1689,-0.0008,0.72,7.41,-67.06,0.300,40.639,-6.994,-32.254
8643,0.1691,0.1821,-0.0031,1.11,7.52,-67.34,0.300,37.873,-5.635,-32.496
8652,0.1603,0.1895,-0.0142,1.57,7.60,-67.66,0.300,38.682,-2.836,-33.256
8662,0.1603,0.2043,-0.0165,1.97,7.66,-67.97,0.300,40.729,-3.263,-35.269
8673,0.1484,0.2121,-0.0182,2.44,7.71,-68.31,0.299,40.819,-2.380,-36.558
8683,0.1394,0.2207,-0.0198,2.89,7.73,-68.65,0.299,38.319,1.199,-36.261
8692,0.1288,0.2312,-0.0269,3.36,7.75,-69.01,0.299,37.246,2.168,-36.594
8703,0.1187,0.2397,-0.0288,3.82,7.74,-69.38,0.299,36.629,4.345,-37.585
8713,0.1070,0.2523,-0.0304,4.25,7.73,-69.74,0.299,35.046,6.280,-37.118
8722,0.0872,0.2577,-0.0314,4.73,7.67,-70.15,0.299,35.103,6.824,-38.099
8733,0.0882,0.2706,-0.0320,5.07,7.59,-70.47,0.289,34.196,10.355,-38.249
8743,0.0692,0.2769,-0.0326,5.52,7.50,-70.87,0.289,35.619,12.294,-39.308
8752,0.0635,0.2871,-0.0547,5.86,7.40,-71.20,0.289,38.082,15.433,-39.280
8762,0.0520,0.2929,-0.0541,6.25,7.24,-71.57,0.289,35.184,18.319,-39.701
8772,0.0394,0.3059,-0.0538,6.64,7.10,-71.93,0.282,38.183,22.487,-40.295
8783,0.0247,0.3088,-0.0527,7.07,6.88,-72.32,0.282,38.546,25.365,-40.361
8792,0.0053,0.3152,-0.0737,7.49,6.67,-72.69,0.282,41.202,29.828,-40.638
8802,-0.0122,0.3198,-0.0722,7.93,6.39,-73.07,0.282,40.597,31.777,-40.382
8812,-0.0319,0.3291,-0.0709,8.35,6.10,-73.45,0.282,37.294,33.546,-40.869
8822,-0.0516,0.3270,-0.0686,8.83,5.70,-73.84,0.282,33.140,38.848,-42.143
8832,-0.0694,0.3401,-0.0665,9.25,5.37,-74.17,0.283,31.767,39.769,-43.032
8842,-0.0907,0.3371,-0.0635,9.69,4.93,-74.55,0.283,28.658,43.441,-42.434
8852,-0.1087,0.3472,-0.0643,10.04,4.53,-74.87,0.283,26.703,46.816,-43.572
8863,-0.1261,0.3428,-0.0608,10.40,4.01,-75.24,0.283,24.614,49.645,-43.803
8873,-0.1488,0.3474,-0.0581,10.73,3.53,-75.59,0.282,22.138,52.923,-43.044
8882,-0.1675,0.3451,-0.0548,11.03,2.97,-75.93,0.282,21.072,57.267,-43.975
8892,-0.1885,0.3378,-0.0504,11.32,2.30,-76.32,0.282,17.216,58.416,-43.610
8903,-0.2127,0.3464,-0.0478,11.57,1.76,-76.62,0.282,20.240,61.319,-44.888
8912,-0.2307,0.3395,-0.0444,11.78,1.08,-76.95,0.282,14.542,60.428,-43.692
8923,-0.2546,0.3435,-0.0423,11.97,0.46,-77.24,0.282,14.762,61.051,-44.442
8933,-0.2720,0.3307,-0.0393,12.17,-0.29,-77.57,0.284,11.925,61.302,-44.416
8942,-0.2990,0.3336,-0.0381,12.35,-0.92,-77.86,0.284,10.685,61.904,-44.839
8952,-0.3215,0.3238,-0.0262,12.49,-1.64,-78.19,0.284,8.898,62.601,-44.515
8962,-0.3523,0.3222,-0.0263,12.65,-2.29,-78.49,0.284,8.501,62.035,-44.465
8972,-0.3674,0.3059,-0.0254,12.71,-3.05,-78.82,0.283,4.263,62.824,-45.282
8982,-0.3928,0.3019,-0.0262,12.80,-3.71,-79.09,0.283,4.355,63.911,-44.646
8992,-0.4085,0.2856,-0.0221,12.84,-4.47,-79.42,0.283,3.040,62.671,-44.448
9003,-0.4331,0.2787,-0.0245,12.87,-5.14,-79.71,0.283,1.881,65.132,-44.034
9013,-0.4492,0.2657,-0.0268,12.87,-5.87,-80.01,0.283,-0.481,67.646,-43.609
9022,-0.4660,0.2518,-0.0300,12.86,-6.59,-80.31,0.283,-1.567,70.738,-43.386
9032,-0.4780,0.2277,-0.0337,12.81,-7.39,-80.65,0.286,-3.460,72.711,-42.792
9042,-0.4961,0.2133,-0.0386,12.77,-8.15,-80.93,0.286,-8.677,74.221,-42.819
9052,-0.5032,0.1889,-0.0322,12.64,-9.02,-81.28,0.286,-11.992,73.928,-42.877
9062,-0.5323,0.1780,-0.0403,12.60,-9.76,-81.49,0.286,-15.154,75.062,-41.269
9072,-0.5499,0.1553,-0.0486,12.47,-10.61,-81.78,0.278,-19.270,73.638,-41.461
9082,-0.5618,0.1327,-0.0567,12.27,-11.45,-82.08,0.278,-23.767,72.289,-41.891
9092,-0.5758,0.1126,-0.0764,12.07,-12.27,-82.32,0.278,-28.496,68.587,-41.322
9102,-0.5828,0.0857,-0.0864,11.77,-13.13,-82.65,0.278,-35.629,68.646,-40.226
9112,-0.5767,0.0567,-0.0953,11.33,-14.00,-83.03,0.278,-40.731,66.312,-39.969
9122,-0.5605,0.0420,-0.1023,10.77,-14.74,-83.37,0.278,-44.955,62.427,-39.713
9132,-0.5624,0.0180,-0.1129,10.27,-15.51,-83.70,0.277,-49.786,59.303,-37.830
9143,-0.5395,-0.0128,-0.1217,9.54,-16.32,-84.20,0.277,-53.696,55.896,-38.567
9153,-0.5555,-0.0269,-0.1362,9.04,-16.92,-84.39,0.277,-57.838,50.643,-36.868
9162,-0.5681,-0.0585,-0.1496,8.45,-17.60,-84.72,0.277,-60.013,45.092,-35.612
9172,-0.5815,-0.0826,-0.1620,7.84,-18.17,-85.00,0.273,-63.750,36.902,-34.683
9182,-0.5768,-0.1119,-0.1736,7.06,-18.76,-85.42,0.273,-65.792,29.932,-32.507
9192,-0.5562,-0.1391,-0.1839,6.14,-19.27,-85.94,0.273,-67.172,22.093,-31.643
9203,-0.5686,-0.1664,-0.1961,5.44,-19.65,-86.20,0.273,-72.809,14.864,-29.184
9212,-0.5726,-0.1965,-0.2076,4.65,-19.98,-86.54,0.273,-71.701,10.133,-27.535
9222,-0.5702,-0.2249,-0.2180,3.81,-20.22,-86.90,0.273,-76.420,4.444,-24.558
9232,-0.5835,-0.2607,-0.2302,3.05,-20.40,-87.15,0.262,-74.866,2.807,-22.858
9243,-0.5682,-0.2886,-0.2381,2.08,-20.50,-87.59,0.262,-75.639,1.038,-21.972
9252,-0.5892,-0.3251,-0.2458,1.37,-20.56,-87.70,0.262,-78.453,0.681,-19.245
9262,-0.5784,-0.3527,-0.2529,0.44,-20.56,-88.03,0.262,-82.005,-0.747,-18.403
9272,-0.5746,-0.3879,-0.2606,-0.44,-20.57,-88.31,0.268,-85.040,0.561,-17.928
9282,-0.5725,-0.4165,-0.2662,-1.29,-20.54,-88.49,0.268,-91.906,0.642,-16.465
9292,-0.5802,-0.4631,-0.2378,-2.17,-20.54,-88.78,0.268,-95.859,-0.217,-15.748
9303,-0.5550,-0.4901,-0.2404,-3.26,-20.50,-89.19,0.268,-96.800,-0.785,-15.204
9312,-0.5154,-0.5240,-0.2430,-4.52,-20.49,-89.79,0.268,-104.652,-0.482,-12.886
9322,-0.4683,-0.5527,-0.2429,-5.95,-20.40,-90.43,0.268,-107.655,-0.555,-13.413
9332,-0.4370,-0.5776,-0.2413,-7.16,-20.30,-90.81,0.247,-105.054,-1.500,-13.976
9342,-0.4166,-0.6173,-0.2418,-8.31,-20.29,-91.07,0.247,-103.804,-4.949,-14.701
9352,-0.3835,-0.6420,-0.2395,-9.59,-20.17,-91.41,0.247,-99.911,-10.653,-17.934
9362,-0.4066,-0.6939,-0.2371,-10.33,-20.26,-91.02,0.247,-95.693,-18.535,-18.143
9372,-0.3718,-0.7183,-0.2309,-11.56,-20.09,-91.35,0.235,-89.802,-28.939,-18.043
9382,-0.3398,-0.7585,-0.2285,-12.71,-19.95,-91.67,0.235,-82.177,-37.072,-18.275
9392,-0.3036,-0.7814,-0.2281,-13.82,-19.64,-91.94,0.235,-76.711,-43.297,-19.773
9402,-0.2704,-0.8268,-0.2258,-14.82,-19.35,-92.19,0.235,-69.886,-51.405,-18.019
9412,-0.2105,-0.8485,-0.2204,-15.97,-18.77,-92.77,0.235,-62.121,-55.705,-18.001
9422,-0.1672,-0.8927,-0.2187,-16.88,-18.31,-93.06,0.235,-58.338,-59.911,-17.420
9432,-0.1184,-0.9149,-0.2114,-17.74,-17.64,-93.37,0.219,-51.839,-63.962,-17.216
9442,-0.0763,-0.9588,-0.2101,-18.45,-17.08,-93.51,0.219,-44.937,-69.610,-19.263
9452,-0.0380,-0.9717,-0.2145,-19.04,-16.36,-93.48,0.219,-41.068,-74.931,-20.447
9462,-0.0146,-1.0238,-0.2104,-19.42,-15.86,-93.19,0.219,-36.518,-83.825,-23.086
9472,0.0273,-1.0345,-0.1974,-19.90,-14.97,-93.27,0.210,-33.921,-94.170,-21.646
9482,0.0668,-1.0714,-0.1923,-20.29,-14.23,-93.20,0.210,-35.444,-98.160,-21.203
9492,0.1044,-1.0792,-0.1842,-20.63,-13.23,-93.14,0.210,-32.731,-106.096,-21.934
9502,0.1532,-1.1287,-0.1838,-21.02,-12.42,-93.06,0.210,-31.384,-112.101,-19.921
9512,0.1979,-1.1248,-0.1685,-21.37,-11.18,-93.13,0.210,-30.271,-115.656,-20.894
9522,0.2467,-1.1454,-0.1611,-21.71,-10.06,-93.07,0.210,-29.912,-119.740,-22.060
9532,0.2891,-1.1508,-0.1468,-21.99,-8.81,-92.96,0.194,-28.044,-116.134,-21.503
9542,0.3278,-1.1376,-0.1254,-22.22,-7.39,-92.91,0.194,-25.059,-121.283,-27.825
9551,0.3368,-1.1746,-0.1376,-22.20,-6.62,-91.77,0.194,-19.280,-123.098,-28.664
9562,0.3766,-1.1710,-0.1236,-22.43,-5.31,-91.64,0.194,-21.224,-123.681,-33.570
9572,0.4117,-1.2087,-0.1195,-22.59,-4.36,-91.03,0.193,-16.150,-126.528,-35.182
9582,0.4423,-1.1960,-0.1009,-22.69,-2.95,-90.90,0.193,-9.544,-128.005,-37.461
9592,0.4886,-1.2204,-0.1053,-22.90,-1.87,-90.49,0.193,-10.616,-131.533,-37.254
9602,0.5407,-1.2035,-0.0977,-23.12,-0.33,-90.69,0.193,-6.093,-128.231,-40.100
9612,0.5833,-1.2287,-0.0985,-23.20,0.75,-90.19,0.193,-1.084,-129.181,-42.745
9621,0.6084,-1.2044,-0.0834,-23.18,2.30,-90.15,0.193,-0.081,-127.329,-46.363
9632,0.6438,-1.2047,-0.0801,-23.20,3.58,-89.88,0.190,0.451,-128.820,-49.163
9642,0.6614,-1.1833,-0.0657,-23.04,5.06,-89.81,0.190,2.926,-130.127,-53.034
9652,0.6870,-1.1960,-0.0763,-22.96,6.11,-89.16,0.190,2.988,-129.367,-55.643
9662,0.7060,-1.1693,-0.0704,-22.81,7.63,-89.21,0.190,2.782,-128.420,-59.279
9672,0.7270,-1.1764,-0.0731,-22.67,8.79,-88.74,0.190,-2.113,-126.401,-61.051
9682,0.7300,-1.1456,-0.0641,-22.39,10.35,-88.87,0.190,-1.298,-121.639,-64.321
9692,0.7515,-1.1453,-0.0838,-22.30,11.52,-88.44,0.190,-3.365,-113.587,-66.796
9702,0.7553,-1.1136,-0.0869,-22.08,13.05,-88.66,0.190,-6.673,-103.924,-68.961
9711,0.7832,-1.1161,-0.1045,-22.05,14.18,-88.39,0.190,-8.882,-91.750,-69.781
9722,0.7927,-1.0796,-0.1120,-21.85,15.65,-88.86,0.190,-9.391,-77.092,-72.103
9732,0.8225,-1.0723,-0.1321,-21.85,16.70,-88.84,0.193,-10.766,-61.640,-72.130
9742,0.8320,-1.0371,-0.1427,-21.65,17.96,-89.44,0.193,-14.066,-47.228,-70.820
9752,0.8500,-0.9988,-0.1719,-21.51,19.13,-90.05,0.193,-14.487,-34.101,-72.532
9762,0.8622,-0.9896,-0.1929,-21.37,19.80,-90.28,0.193,-16.462,-19.739,-71.106
9772,0.8617,-0.9541,-0.2089,-21.06,20.63,-91.13,0.178,-13.704,-7.481,-71.263
9782,0.8767,-0.9402,-0.2339,-20.91,21.10,-91.60,0.178,-13.489,4.032,-69.612
9792,0.8642,-0.9031,-0.2834,-20.63,21.61,-92.35,0.178,-13.290,13.353,-69.964
9802,0.8828,-0.8886,-0.3155,-20.48,21.83,-92.91,0.178,-10.112,19.917,-66.767
9812,0.8704,-0.8559,-0.3347,-19.98,22.15,-94.07,0.178,-4.158,23.511,-67.244
9821,0.8721,-0.8388,-0.3604,-19.62,22.22,-94.91,0.178,-1.419,26.490,-64.897
9831,0.8649,-0.8098,-0.3803,-19.10,22.34,-96.08,0.162,0.369,26.882,-62.757
9841,0.8609,-0.7957,-0.4000,-18.59,22.26,-96.99,0.162,-4.061,23.804,-61.968
9852,0.8316,-0.7637,-0.4538,-17.97,22.27,-98.06,0.162,-8.984,17.422,-60.391
9862,0.8141,-0.7555,-0.4719,-17.36,22.08,-98.94,0.162,-19.900,11.853,-56.124
9872,0.8021,-0.7246,-0.4940,-16.78,22.12,-100.14,0.122,-26.302,1.084,-55.460
9881,0.7960,-0.7115,-0.5177,-16.39,22.05,-100.96,0.122,-39.582,-7.940,-52.293
9891,0.7414,-0.6891,-0.6095,-15.94,22.13,-101.92,0.122,-49.931,-12.087,-53.041
9902,0.7481,-0.6948,-0.6422,-15.97,22.05,-102.22,0.122,-50.920,-12.950,-52.769
9911,0.7357,-0.6763,-0.6628,-15.86,22.24,-103.09,0.122,-50.916,-11.410,-56.011
9921,0.7286,-0.6750,-0.6812,-15.94,22.31,-103.64,0.122,-49.914,-1.380,-56.808
9932,0.7213,-0.6395,-0.6911,-15.86,22.65,-104.78,0.087,-52.046,9.322,-59.188
9941,0.7206,-0.6001,-0.6998,-15.78,23.00,-105.96,0.087,-53.880,16.510,-56.320
9952,0.6502,-0.5311,-0.7805,-15.14,23.52,-108.18,0.087,-50.074,27.894,-58.499
9962,0.6502,-0.5334,-0.7864,-15.23,23.31,-108.77,0.087,1007.886,1094.391,-76.903
9971,0.6517,-0.4804,-0.7872,-15.05,23.44,-110.26,0.026,1091.786,1151.543,-67.446
9981,0.6763,-0.4354,-0.6692,-14.05,22.41,-111.63,0.026,985.142,981.725,-63.517
9992,0.4684,-0.3893,-0.4285,-1.54,11.12,-116.36,0.026,-966.751,-736.680,-6.091
10001,0.4825,-0.3645,-0.3717,9.41,-0.20,-116.29,0.026,-195.781,61.081,-8.872
10012,0.4829,-0.2969,-0.1709,14.20,-5.11,-115.62,0.026,332.336,583.032,34.036
10022,0.7512,-0.1575,0.1182,3.85,2.98,-114.57,0.026,277.467,535.934,27.631
10032,0.5407,-0.2140,0.4286,4.56,-0.10,-115.46,0.000,-73.306,201.832,-4.743
10041,0.3201,-0.2651,0.4978,8.87,-6.70,-115.70,0.000,-71.177,198.036,-3.084
10052,0.1066,-0.2504,0.2664,11.76,-11.58,-116.99,0.000,-85.083,166.579,-8.194
10062,0.0730,-0.2618,0.2865,11.20,-13.65,-116.60,0.000,-105.332,120.781,-10.147
10071,0.0024,-0.2932,0.2709,10.68,-15.74,-116.57,0.011,-120.814,70.017,-12.466
10081,-0.0530,-0.3176,0.2607,9.94,-17.42,-116.57,0.011,-131.349,12.259,-12.529
10092,-0.1825,-0.3346,0.0945,9.02,-18.88,-118.31,0.011,-130.986,-49.591,-13.374
10102,-0.1904,-0.3455,0.1157,7.73,-19.36,-118.12,0.011,-122.063,-126.089,-15.926
10112,-0.2134,-0.3424,0.1383,6.45,-19.24,-118.01,0.011,-111.124,-199.569,-16.875
10121,-0.2131,-0.3554,0.1630,5.02,-18.47,-117.93,0.011,-106.003,-262.823,-17.505
10131,-0.2166,-0.3705,0.1844,3.69,-16.97,-117.97,0.027,-102.221,-301.638,-20.737
10142,-0.2024,-0.3607,0.2285,2.51,-14.54,-117.68,0.027,-94.904,-322.700,-20.592
10151,-0.1506,-0.3315,0.1770,1.13,-11.35,-118.28,0.027,-84.482,-321.730,-21.920
10161,-0.0558,-0.3019,0.2133,-0.28,-7.68,-117.82,0.027,-75.232,-311.555,-19.307
10171,-0.0276,-0.2823,0.2321,-1.28,-4.15,-117.65,0.049,-53.579,-293.167,-19.814
10181,-0.0093,-0.2437,0.2540,-2.14,-0.27,-117.32,0.049,-41.344,-269.971,-19.846
10191,0.0258,-0.1811,0.2032,-2.78,3.29,-117.39,0.049,-29.319,-237.635,-21.906
10201,0.0598,-0.1018,0.2044,-3.22,6.74,-116.83,0.049,-22.196,-196.244,-22.758
10211,0.0935,-0.0745,0.2030,-3.69,9.58,-116.74,0.049,-18.114,-145.871,-25.490
10222,0.1202,-0.0320,0.1994,-3.94,12.12,-116.61,0.049,-9.411,-91.508,-26.955
10231,0.1251,0.0153,0.2010,-3.99,14.17,-116.53,0.076,-0.106,-34.213,-27.529
10241,0.1452,0.0333,0.2062,-4.12,15.55,-116.71,0.076,7.624,22.717,-28.228
10251,0.1431,0.0801,0.2127,-3.94,16.49,-116.84,0.076,11.522,69.449,-29.729
10261,0.1448,0.0910,0.2278,-3.76,16.62,-117.24,0.076,12.523,107.742,-28.959
10271,0.1660,0.0719,0.2469,-3.71,16.06,-117.75,0.081,14.657,132.118,-28.543
10281,0.1879,0.0423,0.2660,-3.67,14.96,-118.32,0.081,8.362,142.499,-26.521
10291,0.1730,0.0356,0.2552,-3.28,13.55,-119.12,0.081,6.830,138.499,-25.094
10301,0.1721,0.0169,0.2665,-3.07,11.91,-119.76,0.081,4.585,120.897,-22.896
10311,0.1678,0.0138,0.2757,-2.86,10.31,-120.32,0.081,-1.976,95.145,-22.594
10322,0.1816,0.0270,0.2796,-2.74,8.97,-120.64,0.081,-0.757,67.303,-21.859
10331,0.1749,0.0312,0.2887,-2.57,7.72,-121.10,0.110,-7.988,37.098,-21.566
10341,0.1664,0.0597,0.2966,-2.35,6.89,-121.45,0.110,-1.286,12.175,-23.825
10351,0.1837,0.0412,0.3051,-2.51,6.16,-121.72,0.110,-10.193,-11.231,-23.790
10361,0.2006,0.0109,0.3050,-2.73,5.66,-122.02,0.110,-6.895,-33.311,-26.213
10371,0.2086,0.0054,0.3066,-2.78,5.52,-122.31,0.120,-2.809,-49.382,-28.494
10381,0.2134,0.0032,0.3089,-2.85,5.64,-122.62,0.120,6.451,-66.127,-31.541
10391,0.2067,0.0175,0.3045,-2.74,6.02,-122.98,0.120,16.398,-75.257,-31.356
10402,0.2354,0.0144,0.3024,-2.89,6.58,-123.12,0.120,26.080,-80.714,-31.870
10411,0.2551,0.0045,0.3015,-2.91,7.22,-123.38,0.120,28.966,-75.630,-31.959
10421,0.2736,0.0237,0.3024,-2.69,8.11,-123.56,0.120,32.406,-63.243,-32.536
10431,0.2729,0.0321,0.3078,-2.28,8.87,-123.96,0.140,27.846,-50.214,-30.715
10442,0.2743,0.0517,0.3121,-1.82,9.61,-124.33,0.140,23.567,-41.849,-27.302
10451,0.2626,0.0726,0.3212,-1.25,10.17,-124.84,0.140,12.228,-34.812,-21.889
10461,0.2776,0.0681,0.3225,-1.02,10.55,-125.16,0.140,2.295,-24.336,-18.397
10471,0.2844,0.0820,0.3230,-0.73,10.93,-125.47,0.158,-13.024,-22.501,-15.082
10481,0.2865,0.0947,0.3248,-0.53,11.19,-125.78,0.158,-19.390,-25.526,-13.347
10492,0.2897,0.1120,0.3279,-0.43,11.39,-126.05,0.158,96.439,-123.495,-26.946
10501,0.2867,0.1429,0.3269,-0.37,11.65,-126.31,0.158,-358.912,193.389,-157.123
10511,0.3102,0.1339,0.3141,-0.68,11.80,-126.44,0.158,-577.724,361.319,-138.054
10521,0.3151,0.1390,0.2685,-0.13,12.85,-126.70,0.158,-646.883,385.771,-90.313
10531,0.3431,0.1079,0.2432,-4.67,10.11,-128.39,0.178,-704.050,388.696,-10.692
10541,0.3598,0.0521,0.2143,-10.70,6.25,-130.30,0.178,-798.883,434.169,37.185
10551,0.3840,-0.0149,0.1837,-17.55,2.24,-132.06,0.178,-884.655,473.693,59.685
10561,0.4062,-0.0926,0.1226,-25.18,-1.86,-133.57,0.178,-959.348,500.857,76.927
10571,0.4314,-0.1761,0.0360,-33.91,-6.24,-135.49,0.302,-1014.706,515.190,92.159
10581,0.4500,-0.2725,-0.0751,-43.69,-10.68,-138.21,0.302,-1053.353,517.135,105.063
10591,0.5042,-0.3767,-0.0687,-54.58,-14.89,-141.60,0.302,-1073.122,508.215,116.540
10601,0.5363,-0.4745,-0.1957,-66.34,-18.43,-145.91,0.302,-1063.377,488.291,126.265
10611,0.5757,-0.5630,-0.3525,-80.04,-21.26,-151.36,0.302,-1053.165,455.709,138.318
10621,0.6054,-0.6327,-0.4895,-92.81,-22.76,-156.73,0.302,-1020.121,414.305,147.233
