time_ms,vel_x,vel_y,vel_z,roll,pitch,yaw,range_z,gyro_x,gyro_y,gyro_z
0,-0.0079,-0.0114,-0.0099,-0.96,0.63,-50.42,0.007,-0.061,-0.079,-0.315
0,-0.0009,-0.0024,-0.0098,-1.05,0.65,-50.37,0.007,-0.174,-0.169,-0.142
0,-0.0069,-0.0044,-0.0099,-1.00,0.67,-50.32,0.008,-0.096,-0.153,0.009
0,-0.0070,-0.0106,-0.0101,-0.97,0.63,-50.28,0.008,0.091,0.119,-0.039
0,-0.0134,-0.0203,-0.0094,-0.88,0.60,-50.23,0.008,0.062,-0.498,-0.147
0,-0.0333,-0.0324,-0.0102,-0.70,0.63,-50.18,0.008,-0.154,-0.164,-0.273
0,-0.0352,-0.0340,-0.0105,-0.68,0.64,-50.13,0.010,0.048,-0.074,-0.035
0,-0.0307,-0.0268,-0.0099,-0.75,0.66,-50.08,0.010,0.251,0.016,-0.181
0,-0.0288,-0.0265,-0.0036,-0.77,0.65,-50.04,0.010,-0.141,-0.128,-0.219
0,-0.0287,-0.0187,-0.0034,-0.81,0.69,-49.99,0.010,0.035,0.167,0.083
0,-0.0275,-0.0250,-0.0035,-0.79,0.65,-49.94,0.010,0.066,-0.201,-0.280
0,-0.0278,-0.0254,-0.0037,-0.79,0.64,-49.89,0.010,0.011,-0.190,-0.122
0,-0.0306,-0.0230,-0.0037,-0.79,0.67,-49.84,0.007,0.066,-0.016,-0.152
1,-0.0235,-0.0173,-0.0031,-0.86,0.67,-49.80,0.007,-0.166,-0.157,0.020
1,-0.0187,-0.0211,-0.0063,-0.87,0.62,-49.75,0.007,0.000,0.026,0.057
1,-0.0265,-0.0260,-0.0067,-0.80,0.63,-49.70,0.007,-0.057,-0.211,-0.032
1,-0.0262,-0.0259,-0.0066,-0.81,0.64,-49.66,0.008,0.007,0.037,-0.178
1,-0.0241,-0.0240,-0.0064,-0.83,0.64,-49.61,0.008,0.094,-0.014,0.114
1,-0.0241,-0.0179,-0.0051,-0.87,0.68,-49.56,0.008,-0.019,-0.149,-0.047
1,-0.0297,-0.0229,-0.0054,-0.80,0.67,-49.51,0.008,-0.111,0.123,-0.301
1,-0.0174,-0.0203,-0.0048,-0.90,0.63,-49.46,0.008,-0.243,-0.032,0.042
1,-0.0204,-0.0167,-0.0049,-0.90,0.67,-49.41,0.008,0.130,0.035,-0.287
1,-0.0115,-0.0182,-0.0047,-0.95,0.61,-49.37,0.007,-0.078,0.001,0.065
1,-0.0068,-0.0063,-0.0045,-1.04,0.66,-49.32,0.007,0.023,-0.433,0.047
1,-0.0200,-0.0162,-0.0061,-0.91,0.66,-49.27,0.007,-0.219,0.009,0.031
1,-0.0201,-0.0162,-0.0063,-0.91,0.66,-49.23,0.007,-0.040,-0.311,0.154
1,-0.0175,-0.0170,-0.0062,-0.92,0.64,-49.18,0.006,0.087,-0.222,-0.138
1,-0.0176,-0.0153,-0.0063,-0.93,0.65,-49.13,0.006,0.015,0.067,-0.039
1,-0.0086,-0.0155,-0.0085,-0.99,0.61,-49.08,0.006,-0.270,-0.126,0.165
2,-0.0163,-0.0128,-0.0085,-0.96,0.67,-49.04,0.006,-0.125,0.129,-0.251
2,-0.0164,-0.0130,-0.0086,-0.96,0.67,-48.99,0.006,-0.172,-0.179,0.438
2,-0.0131,-0.0150,-0.0087,-0.97,0.64,-48.94,0.006,-0.053,0.299,-0.209
2,-0.0147,-0.0115,-0.0088,-0.98,0.67,-48.90,0.009,-0.111,0.242,-0.153
2,0.0066,0.0021,-0.0086,-1.17,0.64,-48.85,0.009,-0.106,0.024,0.117
2,0.0045,-0.0012,-0.0026,-1.14,0.63,-48.80,0.009,-0.251,0.101,0.043
2,0.0015,0.0042,-0.0026,-1.15,0.68,-48.75,0.009,-0.302,0.026,0.085
2,-0.0004,0.0024,-0.0026,-1.13,0.67,-48.71,0.008,-0.148,-0.043,0.115
2,0.0036,-0.0021,-0.0026,-1.13,0.63,-48.66,0.008,-0.044,-0.288,0.017
2,0.0025,-0.0011,-0.0012,-1.13,0.64,-48.61,0.008,0.001,-0.142,-0.144
2,0.0198,0.0144,-0.0015,-1.31,0.64,-48.57,0.008,-0.068,-0.183,-0.682
2,0.0159,0.0173,-0.0017,-1.30,0.68,-48.52,0.008,0.059,-0.255,-0.037
2,0.0017,0.0046,-0.0008,-1.14,0.68,-48.47,0.008,-0.065,-0.021,-0.076
2,0.0026,0.0053,-0.0010,-1.15,0.67,-48.43,0.009,0.029,0.134,0.139
2,-0.0010,0.0037,-0.0012,-1.12,0.68,-48.38,0.009,0.136,-0.138,-0.528
2,0.0329,0.0242,0.0013,-1.41,0.63,-48.34,0.009,-0.179,-0.303,0.232
2,0.0201,0.0180,0.0023,-1.29,0.66,-48.29,0.009,-0.123,0.122,-0.277
2,0.0385,0.0345,0.0008,-1.48,0.66,-48.25,0.005,0.202,-0.127,-0.415
2,0.0403,0.0396,0.0002,-1.51,0.68,-48.20,0.005,-0.168,-0.049,0.220
2,0.0375,0.0368,-0.0068,-1.48,0.67,-48.15,0.005,-0.148,-0.200,-0.069
2,0.0172,0.0203,-0.0047,-1.27,0.68,-48.11,0.005,-0.118,0.237,0.211
2,0.0075,0.0191,-0.0046,-1.21,0.72,-48.06,0.005,0.036,-0.014,-0.145
2,0.0089,0.0182,-0.0048,-1.21,0.71,-48.02,0.005,-0.027,0.209,0.179
2,0.0376,0.0313,-0.0058,-1.45,0.63,-47.97,0.009,-0.006,-0.052,-0.045
2,0.0377,0.0286,-0.0056,-1.43,0.62,-47.92,0.009,-0.231,-0.306,-0.400
3,0.0195,0.0128,0.0003,-1.24,0.62,-47.87,0.009,0.299,0.316,0.081
3,0.0131,0.0133,0.0003,-1.20,0.65,-47.83,0.009,0.002,-0.072,0.033
3,0.0108,0.0114,0.0002,-1.18,0.65,-47.79,0.008,-0.050,0.074,-0.011
3,0.0096,0.0103,0.0001,-1.16,0.65,-47.74,0.008,-0.103,-0.001,0.004
3,0.0413,0.0360,-0.0008,-1.48,0.63,-47.69,0.008,0.260,0.228,-0.434
3,0.0329,0.0251,0.0005,-1.36,0.61,-47.64,0.008,-0.020,-0.132,-0.039
3,0.0336,0.0302,0.0005,-1.39,0.64,-47.60,0.008,-0.241,0.214,0.108
3,0.0358,0.0348,0.0001,-1.42,0.65,-47.56,0.008,0.041,0.054,0.084
3,0.0351,0.0307,0.0005,-1.39,0.63,-47.51,0.008,0.129,-0.067,-0.017
3,0.0416,0.0291,0.0003,-1.42,0.59,-47.46,0.008,0.020,0.062,-0.011
3,0.0498,0.0418,-0.0014,-1.53,0.61,-47.42,0.008,0.036,-0.018,-0.086
3,0.0390,0.0350,-0.0002,-1.42,0.63,-47.37,0.008,0.181,-0.254,-0.409
3,0.0546,0.0477,-0.0021,-1.58,0.62,-47.33,0.008,0.193,-0.181,0.254
3,0.0532,0.0448,-0.0017,-1.54,0.61,-47.28,0.008,0.089,-0.046,-0.166
3,0.0549,0.0452,-0.0017,-1.55,0.60,-47.24,0.008,-0.162,-0.128,0.186
3,0.0471,0.0459,-0.0011,-1.50,0.65,-47.19,0.008,-0.059,-0.020,0.199
3,0.0513,0.0423,-0.0014,-1.49,0.61,-47.14,0.008,0.072,0.155,-0.356
3,0.0451,0.0368,-0.0006,-1.42,0.61,-47.10,0.008,-0.226,-0.282,-0.124
3,0.0397,0.0321,-0.0000,-1.36,0.61,-47.05,0.008,-0.058,0.004,-0.149
3,0.0401,0.0323,-0.0001,-1.36,0.61,-47.01,0.008,-0.069,0.230,-0.037
3,0.0537,0.0401,-0.0016,-1.48,0.58,-46.96,0.008,-0.135,-0.083,-0.126
3,0.0446,0.0352,-0.0004,-1.39,0.61,-46.92,0.008,-0.198,-0.303,-0.216
3,0.0452,0.0357,-0.0004,-1.39,0.60,-46.87,0.009,-0.025,0.037,-0.188
3,0.0385,0.0299,0.0003,-1.31,0.61,-46.83,0.009,0.033,-0.260,-0.152
3,0.0378,0.0345,0.0016,-1.33,0.64,-46.79,0.009,-0.193,-0.098,-0.358
3,0.0375,0.0275,0.0020,-1.29,0.60,-46.74,0.009,0.076,-0.111,-0.236
3,0.0376,0.0295,0.0020,-1.29,0.61,-46.70,0.009,0.057,0.127,-0.024
3,0.0321,0.0247,0.0025,-1.23,0.62,-46.65,0.009,-0.018,-0.043,-0.088
3,0.0245,0.0229,0.0027,-1.17,0.65,-46.61,0.006,0.011,-0.091,0.220
3,0.0311,0.0205,0.0025,-1.19,0.60,-46.56,0.006,-0.034,-0.080,-0.565
3,0.0037,0.0083,-0.0027,-0.98,0.68,-46.52,0.006,-0.095,-0.015,0.121
3,0.0061,0.0138,-0.0028,-1.02,0.69,-46.48,0.006,0.080,0.111,-0.041
4,0.0005,0.0149,-0.0030,-0.99,0.73,-46.44,0.006,0.060,-0.306,-0.407
4,0.0165,0.0143,-0.0029,-1.08,0.64,-46.39,0.006,-0.154,0.140,-0.160
4,0.0165,0.0141,-0.0069,-1.08,0.64,-46.34,0.006,0.038,-0.294,-0.346
4,0.0179,0.0052,-0.0069,-1.04,0.58,-46.29,0.006,-0.044,0.016,-0.064
4,0.0214,0.0141,-0.0072,-1.11,0.61,-46.25,0.006,0.123,-0.203,-0.002
4,0.0213,0.0141,-0.0073,-1.11,0.61,-46.21,0.006,-0.258,-0.010,0.040
4,0.0147,0.0115,-0.0070,-1.06,0.64,-46.16,0.010,-0.176,0.190,0.237
4,0.0175,0.0144,-0.0072,-1.09,0.64,-46.12,0.010,0.093,-0.031,-0.247
4,0.0095,0.0052,0.0008,-0.99,0.63,-46.07,0.010,-0.045,-0.188,-0.219
4,0.0133,0.0109,0.0006,-1.04,0.64,-46.03,0.010,-0.208,-0.002,-0.025
4,0.0151,0.0110,0.0004,-1.05,0.63,-45.98,0.007,0.129,-0.183,-0.094
4,0.0100,0.0111,0.0005,-1.02,0.66,-45.94,0.007,-0.188,-0.420,0.059
4,0.0093,0.0072,-0.0020,-0.99,0.64,-45.90,0.007,0.016,-0.163,-0.189
4,0.0121,0.0102,-0.0024,-1.03,0.64,-45.85,0.007,0.133,0.020,-0.003
4,0.0087,0.0074,-0.0025,-0.99,0.64,-45.81,0.007,0.073,0.082,0.329
4,0.0089,0.0077,-0.0025,-0.99,0.64,-45.77,0.007,-0.165,0.034,-0.105
4,0.0067,0.0054,-0.0025,-0.96,0.64,-45.72,0.007,0.185,-0.092,-0.099
4,0.0114,0.0099,-0.0027,-1.02,0.64,-45.68,0.007,-0.202,0.128,0.060
4,0.0115,0.0084,-0.0039,-1.01,0.63,-45.63,0.007,-0.036,-0.115,-0.385
4,0.0016,0.0020,-0.0036,-0.92,0.65,-45.59,0.007,-0.086,-0.392,0.080
4,0.0048,0.0048,-0.0037,-0.96,0.65,-45.55,0.009,0.182,0.151,-0.134
4,0.0048,0.0047,-0.0039,-0.96,0.65,-45.50,0.009,-0.077,-0.397,-0.177
4,0.0002,0.0020,0.0001,-0.92,0.66,-45.46,0.009,-0.072,-0.044,0.036
4,0.0060,-0.0027,0.0001,-0.92,0.60,-45.42,0.009,0.051,-0.035,-0.085
4,0.0005,0.0005,0.0002,-0.91,0.66,-45.37,0.009,0.087,-0.365,-0.234
4,0.0072,0.0051,0.0001,-0.98,0.64,-45.33,0.009,0.164,-0.015,0.154
4,0.0083,0.0013,0.0000,-0.97,0.62,-45.28,0.008,0.094,0.075,-0.243
4,0.0020,0.0035,-0.0002,-0.94,0.67,-45.24,0.008,-0.074,-0.264,-0.057
4,-0.0005,-0.0012,-0.0004,-0.90,0.66,-45.20,0.008,-0.104,0.130,-0.098
4,0.0020,0.0025,-0.0007,-0.94,0.67,-45.16,0.008,0.046,-0.230,0.082
4,0.0059,0.0044,-0.0008,-0.97,0.66,-45.11,0.012,0.218,0.039,-0.067
4,0.0039,0.0008,-0.0008,-0.94,0.65,-45.07,0.012,0.109,-0.107,-0.290
4,0.0039,0.0007,0.0081,-0.94,0.65,-45.03,0.012,-0.252,0.215,0.163
4,0.0062,0.0031,0.0082,-0.97,0.65,-44.98,0.012,-0.175,-0.144,-0.050
5,0.0024,-0.0007,0.0083,-0.93,0.65,-44.94,0.012,-0.140,-0.219,-0.183
5,0.0032,0.0000,0.0083,-0.94,0.65,-44.89,0.012,0.069,0.012,0.075
5,0.0057,-0.0026,0.0082,-0.94,0.62,-44.85,0.010,-0.116,0.159,-0.021
5,0.0043,-0.0035,0.0081,-0.93,0.62,-44.81,0.010,0.054,-0.054,0.001
5,-0.0087,-0.0113,0.0080,-0.81,0.65,-44.76,0.010,-0.026,-0.035,-0.312
5,-0.0116,-0.0091,0.0078,-0.81,0.68,-44.72,0.010,0.266,-0.354,-0.188
5,-0.0189,-0.0271,0.0073,-0.68,0.62,-44.68,0.008,-0.322,0.010,0.077
5,-0.0209,-0.0321,0.0069,-0.64,0.60,-44.64,0.008,-0.001,0.040,-0.019
5,-0.0211,-0.0299,0.0017,-0.66,0.62,-44.59,0.008,0.099,-0.103,0.155
5,-0.0126,-0.0141,0.0025,-0.80,0.66,-44.55,0.008,-0.201,-0.016,-0.297
5,-0.0224,-0.0204,0.0023,-0.71,0.68,-44.50,0.008,0.140,0.056,-0.354
5,-0.0216,-0.0212,0.0023,-0.72,0.67,-44.46,0.008,-0.216,-0.144,-0.085
5,-0.0234,-0.0231,0.0022,-0.70,0.67,-44.42,0.009,-0.014,-0.154,-0.129
5,-0.0234,-0.0231,0.0021,-0.70,0.67,-44.38,0.009,0.094,-0.017,0.083
5,-0.0108,-0.0336,0.0010,-0.72,0.54,-44.34,0.009,0.024,-0.187,-0.219
5,-0.0089,-0.0258,0.0013,-0.78,0.57,-44.30,0.009,-0.068,-0.043,0.029
5,-0.0135,-0.0298,0.0011,-0.73,0.58,-44.25,0.011,-0.055,-0.165,0.087
5,-0.0139,-0.0295,0.0012,-0.73,0.58,-44.21,0.011,0.005,0.027,-0.371
5,-0.0060,-0.0259,0.0050,-0.80,0.56,-44.17,0.011,-0.155,-0.269,-0.212
5,-0.0050,-0.0240,0.0049,-0.82,0.56,-44.13,0.011,-0.091,-0.117,-0.208
5,-0.0122,-0.0256,0.0048,-0.77,0.60,-44.08,0.011,-0.067,0.022,0.024
5,-0.0070,-0.0197,0.0050,-0.84,0.60,-44.04,0.011,-0.047,-0.077,0.000
5,-0.0129,-0.0256,0.0050,-0.78,0.61,-44.00,0.006,0.001,-0.128,-0.071
5,-0.0045,-0.0214,0.0054,-0.85,0.58,-43.96,0.006,0.192,-0.184,-0.154
5,-0.0027,-0.0205,-0.0047,-0.87,0.58,-43.91,0.006,-0.027,-0.107,-0.207
5,0.0075,-0.0092,-0.0045,-0.99,0.58,-43.87,0.006,0.026,0.024,-0.223
5,0.0074,-0.0093,-0.0045,-0.99,0.58,-43.83,0.008,0.171,0.066,-0.050
5,0.0075,-0.0095,-0.0045,-0.99,0.58,-43.79,0.008,-0.137,0.314,0.110
5,0.0063,-0.0083,-0.0055,-0.99,0.60,-43.75,0.008,-0.088,0.084,0.191
5,0.0076,-0.0026,-0.0057,-1.03,0.62,-43.70,0.008,-0.002,-0.160,-0.280
5,0.0039,-0.0113,-0.0057,-0.96,0.59,-43.66,0.008,0.242,-0.273,-0.145
5,0.0027,-0.0119,-0.0058,-0.95,0.59,-43.62,0.008,-0.157,0.146,0.140
5,0.0026,-0.0124,-0.0058,-0.95,0.59,-43.58,0.011,0.028,0.096,-0.008
5,0.0103,-0.0054,-0.0059,-1.03,0.59,-43.54,0.011,0.092,-0.191,-0.139
6,0.0125,-0.0058,0.0007,-1.04,0.57,-43.49,0.011,-0.029,0.176,-0.049
6,0.0062,0.0085,0.0006,-1.09,0.69,-43.45,0.011,0.085,-0.358,0.030
6,0.0120,0.0021,0.0003,-1.08,0.62,-43.41,0.008,-0.142,0.157,-0.055
6,0.0057,-0.0095,0.0005,-0.98,0.59,-43.37,0.008,-0.041,0.161,0.006
6,0.0009,-0.0118,-0.0023,-0.94,0.61,-43.32,0.008,-0.065,-0.037,-0.096
6,0.0057,-0.0041,-0.0021,-1.01,0.62,-43.28,0.008,0.063,0.176,0.289
6,0.0075,-0.0110,-0.0022,-0.98,0.57,-43.24,0.008,0.037,-0.261,-0.079
6,0.0031,-0.0132,-0.0021,-0.94,0.59,-43.20,0.008,-0.105,0.030,-0.342
6,0.0037,-0.0085,-0.0020,-0.98,0.61,-43.15,0.009,0.079,0.185,0.112
6,0.0077,-0.0073,-0.0023,-1.00,0.60,-43.11,0.009,-0.002,-0.013,-0.021
6,-0.0081,-0.0220,-0.0018,-0.83,0.61,-43.07,0.009,-0.281,0.191,0.210
6,-0.0435,-0.0223,-0.0026,-0.65,0.81,-43.02,0.009,0.095,0.006,-0.442
6,-0.0467,-0.0231,-0.0030,-0.63,0.82,-42.98,0.006,0.117,0.030,-0.258
6,-0.0352,-0.0209,-0.0020,-0.71,0.76,-42.94,0.006,-0.057,-0.132,0.085
6,-0.0338,-0.0165,-0.0082,-0.74,0.78,-42.90,0.006,-0.241,0.057,-0.127
6,-0.0285,-0.0173,-0.0080,-0.77,0.74,-42.86,0.006,0.005,0.090,-0.014
6,-0.0256,-0.0147,-0.0081,-0.80,0.74,-42.82,0.006,-0.276,0.142,-0.122
6,-0.0245,-0.0106,-0.0082,-0.83,0.75,-42.78,0.006,-0.110,-0.281,-0.282
6,-0.0197,-0.0165,-0.0083,-0.83,0.69,-42.74,0.008,0.129,-0.331,0.060
6,-0.0199,-0.0102,-0.0084,-0.87,0.72,-42.69,0.008,-0.174,-0.042,0.020
6,-0.0306,-0.0311,-0.0074,-0.69,0.68,-42.66,0.008,0.164,0.142,-0.208
6,-0.0297,-0.0249,-0.0071,-0.74,0.70,-42.61,0.008,0.279,0.059,-0.241
6,-0.0268,-0.0238,-0.0069,-0.76,0.69,-42.57,0.006,-0.276,-0.094,-0.133
6,-0.0238,-0.0225,-0.0067,-0.79,0.68,-42.53,0.006,-0.291,-0.007,0.018
6,-0.0145,-0.0058,-0.0093,-0.94,0.71,-42.49,0.006,-0.335,-0.069,-0.077
6,-0.0151,-0.0154,-0.0092,-0.88,0.66,-42.45,0.006,0.331,-0.334,-0.559
6,-0.0125,-0.0090,-0.0092,-0.94,0.68,-42.41,0.006,-0.035,-0.254,-0.363
6,-0.0071,-0.0034,-0.0093,-1.00,0.68,-42.37,0.006,0.080,0.082,-0.295
6,-0.0085,-0.0015,-0.0096,-1.00,0.70,-42.33,0.007,0.102,0.214,-0.239
6,-0.0054,-0.0051,-0.0097,-0.99,0.66,-42.29,0.007,-0.235,-0.061,-0.240
6,-0.0171,-0.0199,-0.0086,-0.84,0.65,-42.26,0.007,0.028,-0.018,-0.040
6,-0.0327,-0.0305,-0.0093,-0.70,0.68,-42.22,0.007,-0.024,-0.132,-0.319
6,-0.0355,-0.0273,-0.0092,-0.71,0.72,-42.17,0.010,-0.079,-0.179,-0.023
7,-0.0357,-0.0265,-0.0093,-0.72,0.72,-42.13,0.010,-0.244,-0.022,0.117
7,-0.0342,-0.0303,-0.0010,-0.71,0.69,-42.09,0.010,-0.287,-0.040,-0.134
7,-0.0411,-0.0383,-0.0017,-0.63,0.69,-42.05,0.010,-0.187,-0.069,-0.029
7,-0.0208,-0.0230,0.0002,-0.84,0.65,-42.01,0.010,-0.026,0.174,-0.219
7,-0.0190,-0.0211,0.0001,-0.86,0.65,-41.97,0.010,0.216,0.008,-0.659
7,-0.0211,-0.0237,-0.0004,-0.84,0.65,-41.93,0.010,-0.048,-0.325,-0.095
7,-0.0210,-0.0220,-0.0004,-0.85,0.66,-41.89,0.010,-0.117,-0.271,0.136
7,-0.0167,-0.0255,0.0039,-0.86,0.61,-41.86,0.010,-0.054,0.089,-0.094
7,-0.0209,-0.0199,0.0038,-0.87,0.67,-41.82,0.010,0.004,0.038,0.065
7,-0.0186,-0.0142,0.0036,-0.92,0.69,-41.78,0.007,-0.090,0.112,0.005
7,-0.0112,-0.0166,0.0035,-0.95,0.63,-41.74,0.007,0.217,0.069,0.032
7,-0.0124,-0.0145,-0.0009,-0.96,0.65,-41.70,0.007,0.218,-0.186,-0.150
7,-0.0145,-0.0189,-0.0011,-0.92,0.64,-41.66,0.007,0.088,0.050,-0.121
7,-0.0145,-0.0189,-0.0011,-0.92,0.64,-41.61,0.007,0.074,-0.178,-0.075
7,-0.0074,-0.0107,-0.0008,-1.00,0.64,-41.57,0.007,-0.203,-0.044,-0.054
7,-0.0057,-0.0142,-0.0010,-0.99,0.61,-41.53,0.007,0.135,0.208,-0.368
7,0.0089,0.0041,-0.0010,-1.18,0.62,-41.49,0.007,0.184,0.186,0.117
7,-0.0002,-0.0042,-0.0037,-1.08,0.63,-41.45,0.007,0.075,0.121,0.053
7,-0.0340,0.0024,-0.0036,-0.94,0.87,-41.41,0.007,-0.212,0.079,-0.200
7,-0.0340,0.0028,-0.0035,-0.93,0.87,-41.37,0.010,0.017,-0.093,-0.157
7,-0.0357,0.0025,-0.0035,-0.92,0.87,-41.33,0.010,0.088,-0.178,0.041
7,-0.0305,0.0009,0.0018,-0.94,0.82,-41.29,0.010,0.205,-0.024,0.172
7,-0.0405,0.0029,0.0011,-0.90,0.89,-41.25,0.010,0.026,0.010,0.048
7,-0.0401,0.0027,0.0009,-0.90,0.89,-41.21,0.010,-0.045,-0.133,-0.118
7,-0.0617,-0.0017,-0.0006,-0.77,0.99,-41.16,0.010,0.065,-0.286,-0.192
7,-0.0646,-0.0047,-0.0008,-0.74,0.99,-41.12,0.007,-0.123,-0.092,-0.039
7,-0.0592,-0.0018,-0.0002,-0.79,0.97,-41.08,0.007,-0.031,0.340,-0.214
7,-0.0639,-0.0196,-0.0044,-0.67,0.90,-41.05,0.007,0.084,0.188,-0.019
7,-0.0684,-0.0090,-0.0047,-0.71,0.98,-41.01,0.007,-0.083,0.031,-0.156
7,-0.0724,-0.0227,-0.0054,-0.62,0.92,-40.97,0.006,0.049,-0.047,-0.168
7,-0.0697,-0.0227,-0.0052,-0.63,0.90,-40.93,0.006,0.213,-0.247,-0.106
7,-0.0673,-0.0227,-0.0086,-0.65,0.89,-40.89,0.006,-0.311,0.041,-0.018
7,-0.0598,-0.0257,-0.0080,-0.68,0.82,-40.86,0.006,0.112,0.155,-0.119
7,-0.0597,-0.0224,-0.0079,-0.70,0.84,-40.82,0.006,-0.083,-0.134,-0.363
8,-0.0600,-0.0219,-0.0080,-0.71,0.84,-40.78,0.006,0.024,-0.075,0.012
8,-0.0548,-0.0184,-0.0075,-0.76,0.83,-40.74,0.007,-0.233,-0.230,0.061
8,-0.0479,-0.0196,-0.0072,-0.79,0.78,-40.70,0.007,0.235,0.032,-0.267
8,-0.0540,-0.0373,-0.0077,-0.66,0.72,-40.67,0.007,-0.125,-0.207,0.086
8,-0.0710,-0.0494,-0.0097,-0.50,0.76,-40.63,0.007,0.109,-0.173,-0.204
8,-0.0650,-0.0440,-0.0087,-0.57,0.75,-40.59,0.010,-0.047,-0.024,-0.114
8,-0.0679,-0.0490,-0.0094,-0.53,0.74,-40.55,0.010,0.032,-0.178,-0.251
8,-0.0601,-0.0408,-0.0005,-0.63,0.73,-40.51,0.010,-0.250,-0.303,-0.086
8,-0.0657,-0.0453,-0.0013,-0.58,0.74,-40.47,0.010,-0.143,0.139,-0.138
8,-0.0545,-0.0430,-0.0002,-0.66,0.69,-40.43,0.010,-0.060,-0.365,-0.073
8,-0.0568,-0.0417,-0.0003,-0.66,0.71,-40.39,0.010,-0.120,0.419,0.051
8,-0.0493,-0.0341,0.0007,-0.76,0.70,-40.35,0.010,-0.262,-0.063,-0.082
8,-0.0422,-0.0338,0.0012,-0.80,0.66,-40.32,0.010,-0.136,0.099,-0.169
8,-0.0461,-0.0409,0.0044,-0.74,0.64,-40.28,0.010,0.244,-0.337,-0.324
8,-0.0480,-0.0355,0.0044,-0.77,0.69,-40.24,0.010,-0.089,0.211,-0.081
8,-0.0493,-0.0309,0.0044,-0.80,0.72,-40.20,0.008,-0.059,-0.120,0.046
8,-0.0443,-0.0318,0.0046,-0.82,0.68,-40.16,0.008,0.091,-0.101,-0.274
8,-0.0359,-0.0251,0.0022,-0.90,0.67,-40.12,0.008,-0.158,-0.081,-0.194
8,-0.0471,-0.0115,0.0018,-0.93,0.81,-40.08,0.008,-0.258,0.039,-0.306
8,-0.0390,0.0049,0.0022,-1.07,0.84,-40.04,0.008,0.100,-0.105,0.033
8,-0.0364,0.0058,0.0024,-1.09,0.83,-40.00,0.008,-0.239,-0.104,-0.292
8,-0.0372,0.0022,0.0025,-1.06,0.81,-39.96,0.008,0.012,-0.121,0.326
8,-0.0372,0.0022,0.0024,-1.07,0.81,-39.92,0.008,-0.028,-0.296,-0.076
8,-0.0349,0.0005,-0.0001,-1.07,0.79,-39.89,0.008,-0.145,0.003,-0.058
8,-0.0278,0.0088,-0.0001,-1.15,0.78,-39.85,0.008,-0.066,0.073,0.008
8,-0.0317,0.0023,-0.0003,-1.09,0.77,-39.81,0.011,0.210,-0.264,-0.467
8,-0.0260,0.0052,-0.0003,-1.14,0.75,-39.77,0.011,-0.021,-0.265,0.149
8,-0.0264,0.0065,0.0046,-1.14,0.76,-39.73,0.011,0.145,-0.061,-0.265
8,-0.0270,0.0019,0.0047,-1.11,0.74,-39.69,0.011,0.210,-0.030,-0.156
8,-0.0229,0.0047,0.0047,-1.14,0.73,-39.65,0.011,0.079,-0.003,-0.175
8,-0.0194,0.0090,0.0046,-1.18,0.73,-39.62,0.011,-0.087,-0.272,-0.254
8,-0.0193,0.0092,0.0045,-1.18,0.73,-39.58,0.010,-0.042,0.277,-0.291
8,-0.0139,0.0037,0.0049,-1.17,0.67,-39.54,0.010,-0.028,-0.180,-0.021
9,-0.0175,-0.0023,0.0050,-1.12,0.66,-39.51,0.010,0.010,0.296,0.183
9,-0.0176,0.0040,0.0051,-1.15,0.69,-39.47,0.010,-0.058,-0.356,-0.058
9,-0.0134,0.0077,0.0050,-1.19,0.69,-39.43,0.007,0.209,0.009,-0.110
9,-0.0114,0.0068,0.0047,-1.19,0.67,-39.39,0.007,-0.067,-0.044,-0.129
9,-0.0134,0.0045,-0.0023,-1.16,0.67,-39.35,0.007,0.118,-0.119,-0.478
9,-0.0103,-0.0006,-0.0023,-1.15,0.63,-39.32,0.007,-0.141,0.070,0.258
9,-0.0135,0.0041,-0.0026,-1.16,0.67,-39.28,0.007,-0.058,0.192,-0.137
9,-0.0117,0.0032,-0.0027,-1.16,0.66,-39.24,0.007,0.049,0.011,-0.218
9,-0.0116,0.0039,-0.0028,-1.16,0.66,-39.20,0.006,0.213,0.048,-0.205
9,-0.0070,0.0083,-0.0028,-1.21,0.65,-39.16,0.006,-0.196,0.132,0.024
9,-0.0260,-0.0090,-0.0092,-1.00,0.68,-39.13,0.006,-0.089,-0.329,-0.423
9,-0.0441,-0.0270,-0.0105,-0.80,0.70,-39.09,0.006,0.213,-0.019,0.075
9,-0.0446,-0.0294,-0.0107,-0.78,0.69,-39.05,0.008,-0.108,-0.149,-0.324
9,-0.0459,-0.0269,-0.0106,-0.79,0.71,-39.02,0.008,-0.050,0.137,-0.061
9,-0.0363,-0.0200,-0.0077,-0.89,0.69,-38.98,0.008,-0.308,-0.081,-0.067
9,-0.0329,-0.0206,-0.0078,-0.91,0.66,-38.94,0.008,0.289,0.256,0.057
9,-0.0398,-0.0247,-0.0083,-0.85,0.68,-38.90,0.008,-0.261,-0.151,-0.002
9,-0.0374,-0.0193,-0.0079,-0.90,0.69,-38.86,0.008,0.187,-0.158,-0.054
9,-0.0340,-0.0185,-0.0077,-0.93,0.67,-38.83,0.011,-0.094,0.171,-0.155
9,-0.0333,-0.0227,-0.0078,-0.91,0.65,-38.79,0.011,0.100,0.204,-0.189
9,-0.0580,-0.0490,-0.0011,-0.62,0.67,-38.75,0.011,0.244,-0.127,-0.125
9,-0.0580,-0.0432,-0.0009,-0.66,0.70,-38.71,0.011,0.007,-0.164,-0.302
9,-0.0586,-0.0476,-0.0013,-0.64,0.68,-38.67,0.011,-0.018,0.089,0.201
9,-0.0485,-0.0398,0.0004,-0.74,0.66,-38.64,0.011,-0.230,-0.353,0.214
9,-0.0335,-0.0308,0.0062,-0.88,0.60,-38.60,0.011,-0.204,-0.195,-0.012
9,-0.0302,-0.0292,0.0065,-0.91,0.59,-38.57,0.011,-0.032,-0.076,0.006
9,-0.0302,-0.0279,0.0063,-0.92,0.60,-38.53,0.011,0.129,0.088,-0.329
9,-0.0316,-0.0230,0.0065,-0.94,0.63,-38.49,0.011,0.108,0.101,0.002
9,-0.0238,-0.0267,0.0067,-0.96,0.56,-38.45,0.006,0.014,-0.125,-0.095
9,-0.0211,-0.0235,0.0067,-0.99,0.56,-38.42,0.006,-0.003,-0.346,-0.005
9,-0.0146,-0.0233,-0.0034,-1.03,0.52,-38.38,0.006,-0.040,-0.383,-0.086
9,-0.0264,-0.0238,-0.0035,-0.97,0.60,-38.34,0.006,-0.059,-0.053,-0.148
9,-0.0184,-0.0178,-0.0031,-1.05,0.58,-38.31,0.009,0.265,0.055,-0.062
10,-0.0236,-0.0233,-0.0035,-0.98,0.59,-38.27,0.009,-0.012,-0.205,-0.072
10,-0.0222,-0.0147,-0.0024,-1.04,0.62,-38.24,0.009,-0.047,0.019,0.031
10,-0.0206,-0.0172,-0.0024,-1.03,0.60,-38.20,0.009,-0.128,0.068,0.383
10,-0.0168,-0.0169,-0.0026,-1.06,0.58,-38.16,0.009,0.243,-0.086,-0.435
10,-0.0166,-0.0169,-0.0028,-1.05,0.58,-38.12,0.009,-0.031,0.222,0.009
10,-0.0193,-0.0192,-0.0031,-1.03,0.59,-38.09,0.009,0.005,-0.096,-0.389
10,-0.0218,-0.0152,-0.0032,-1.04,0.62,-38.05,0.009,0.250,0.007,0.065
10,-0.0118,-0.0211,-0.0019,-1.05,0.53,-38.02,0.009,-0.126,-0.060,-0.118
10,0.0046,0.0037,-0.0013,-1.27,0.55,-37.99,0.009,0.200,-0.257,-0.203
10,-0.0005,-0.0031,-0.0011,-1.20,0.55,-37.95,0.011,-0.066,0.008,-0.018
10,-0.0340,-0.0009,-0.0010,-1.05,0.77,-37.91,0.011,-0.038,-0.008,-0.140
10,-0.0287,-0.0020,0.0035,-1.07,0.73,-37.88,0.011,0.231,0.333,-0.204
10,-0.0280,-0.0028,0.0036,-1.07,0.72,-37.84,0.011,-0.156,-0.357,0.037
10,-0.0258,-0.0016,0.0039,-1.09,0.71,-37.80,0.011,-0.114,-0.016,-0.186
10,-0.0238,-0.0004,0.0041,-1.10,0.70,-37.77,0.011,0.020,-0.169,-0.068
10,0.0003,-0.0003,0.0000,-0.00,0.00,-0.00,0.009,0.044,-0.336,-0.182
10,0.0062,-0.0043,-0.0000,-0.00,0.00,-0.00,0.009,-0.074,-0.008,-0.158
10,0.0026,0.0147,-0.0002,-0.14,0.03,-0.00,0.009,0.142,-0.036,-0.291
10,0.0060,0.0121,-0.0003,-0.13,0.01,-0.01,0.009,-0.139,0.041,-0.070
10,0.0032,-0.0203,-0.0005,0.37,0.07,-0.01,0.005,-0.068,-0.076,-0.071
10,0.0028,-0.0217,-0.0005,0.34,0.10,-0.01,0.005,-0.079,-0.043,0.016
10,0.0050,-0.0203,-0.0024,0.25,0.08,-0.01,0.005,0.090,0.019,-0.182
10,0.0125,-0.0266,-0.0027,0.35,-0.08,-0.01,0.005,-0.371,-0.184,0.184
10,0.0029,-0.0300,-0.0028,0.38,0.21,-0.01,0.005,0.173,-0.144,0.045
10,0.0033,-0.0272,-0.0028,0.23,0.21,-0.01,0.005,-0.326,0.071,0.023
10,0.0054,-0.0303,-0.0030,0.26,0.18,-0.01,0.007,-0.238,0.085,0.075
10,0.0074,-0.0251,-0.0030,0.05,0.14,-0.01,0.007,-0.026,-0.199,0.022
10,0.0161,-0.0333,-0.0035,0.23,-0.08,-0.01,0.007,-0.170,-0.208,0.070
10,0.0091,-0.0328,-0.0035,0.15,0.16,-0.01,0.007,0.111,-0.143,-0.233
10,0.0072,-0.0321,-0.0036,0.07,0.23,-0.01,0.008,0.147,-0.155,-0.137
10,0.0091,-0.0311,-0.0036,-0.01,0.20,-0.01,0.008,0.094,-0.298,-0.353
10,0.0091,-0.0281,-0.0018,-0.14,0.23,-0.02,0.008,0.103,-0.129,-0.056
10,0.0090,-0.0095,-0.0015,-0.66,0.25,-0.02,0.008,0.072,-0.060,-0.274
10,0.0068,-0.0268,-0.0017,-0.23,0.32,-0.02,0.008,0.065,0.088,0.044
11,0.0029,-0.0256,-0.0018,-0.29,0.44,-0.02,0.008,0.079,0.102,-0.201
11,0.0131,-0.0145,-0.0017,-0.60,0.20,-0.02,0.005,0.151,-0.190,0.122
11,0.0148,0.0138,-0.0022,-1.30,0.18,-0.02,0.005,0.025,0.092,0.045
11,0.0205,0.0070,-0.0078,-1.13,0.08,-0.02,0.005,-0.017,-0.162,-0.128
11,0.0011,0.0606,-0.0105,-2.41,0.54,-0.01,0.005,0.181,-0.149,0.087
11,0.0016,0.0671,-0.0111,-2.45,0.54,-0.01,0.009,-0.332,-0.070,-0.226
11,0.0014,0.0456,-0.0082,-1.96,0.55,-0.02,0.009,-0.327,0.078,-0.271
11,0.0035,0.0442,-0.0015,-1.85,0.51,-0.02,0.009,0.069,0.268,-0.161
11,0.0051,0.0402,-0.0012,-1.77,0.48,-0.02,0.009,0.241,0.044,-0.097
11,0.0013,0.0429,-0.0010,-1.77,0.57,-0.03,0.009,-0.017,0.095,0.083
11,-0.0007,0.0409,-0.0009,-1.73,0.61,-0.03,0.009,-0.052,-0.323,-0.103
11,0.0015,0.0490,-0.0015,-1.83,0.57,-0.03,0.008,0.234,0.027,0.141
11,0.0091,0.0820,-0.0046,-2.43,0.42,-0.02,0.008,-0.293,-0.007,-0.374
11,0.0162,0.0789,-0.0016,-2.32,0.30,-0.02,0.008,-0.215,-0.176,-0.144
11,0.0155,0.0532,0.0010,-1.82,0.33,-0.03,0.008,-0.041,0.153,0.208
11,0.0015,0.0592,0.0008,-1.90,0.58,-0.03,0.010,0.132,-0.236,-0.190
11,-0.0003,0.1019,-0.0028,-2.60,0.61,-0.02,0.010,-0.047,-0.269,-0.042
11,0.0016,0.0979,0.0039,-2.48,0.58,-0.02,0.010,-0.086,-0.273,0.199
11,0.0069,0.0953,0.0044,-2.40,0.49,-0.03,0.010,0.102,-0.292,-0.265
11,0.0012,0.0951,0.0048,-2.35,0.59,-0.03,0.010,0.017,0.309,0.070
11,0.0012,0.0808,0.0067,-2.09,0.60,-0.03,0.010,-0.128,-0.157,0.205
11,0.0011,0.0777,0.0070,-2.04,0.60,-0.03,0.007,0.052,-0.109,-0.127
11,0.0065,0.1073,0.0034,-2.43,0.52,-0.02,0.007,-0.139,-0.253,0.031
11,0.0093,0.1065,-0.0013,-2.43,0.48,-0.02,0.007,-0.178,-0.147,-0.167
11,0.0057,0.1005,-0.0005,-2.29,0.54,-0.03,0.007,0.050,0.024,0.093
11,0.0038,0.0947,0.0004,-2.17,0.57,-0.03,0.007,-0.024,0.013,-0.037
11,0.0070,0.0925,0.0006,-2.11,0.53,-0.03,0.007,0.105,0.047,-0.176
11,0.0115,0.0586,0.0000,-1.59,0.47,-0.03,0.007,-0.079,-0.329,-0.162
11,0.0203,0.0566,-0.0001,-1.55,0.34,-0.03,0.007,0.085,0.008,-0.025
11,0.0115,0.0423,0.0003,-1.34,0.48,-0.04,0.007,0.164,-0.147,-0.000
11,0.0063,0.0395,0.0002,-1.29,0.55,-0.04,0.007,-0.227,-0.117,0.314
12,0.0106,0.0385,0.0002,-1.27,0.50,-0.04,0.006,0.014,-0.326,-0.259
21,0.0100,0.0420,0.0001,-1.31,0.51,-0.04,0.006,-0.026,-0.008,-0.274
32,0.0094,0.0269,-0.0050,-1.11,0.52,-0.05,0.006,-0.140,-0.111,0.123
42,0.0104,0.0323,-0.0051,-1.18,0.51,-0.04,0.006,0.125,-0.020,0.117
51,0.0041,0.0302,-0.0050,-1.15,0.60,-0.05,0.009,-0.064,-0.030,-0.154
61,0.0083,0.0283,-0.0049,-1.12,0.55,-0.05,0.009,0.057,-0.051,-0.284
72,0.0083,0.0287,-0.0008,-1.12,0.55,-0.05,0.009,-0.174,0.038,0.058
82,0.0155,0.0053,-0.0007,-0.83,0.46,-0.05,0.009,-0.051,-0.163,-0.121
92,0.0104,0.0317,-0.0003,-1.16,0.53,-0.05,0.009,0.038,-0.354,-0.026
102,0.0099,0.0235,-0.0001,-1.06,0.54,-0.05,0.009,-0.076,-0.043,-0.049
111,0.0094,0.0277,-0.0001,-1.11,0.55,-0.05,0.012,-0.229,-0.192,-0.217
121,0.0088,0.0142,0.0001,-0.94,0.56,-0.06,0.012,-0.011,-0.231,-0.113
132,0.0112,0.0250,0.0088,-1.07,0.53,-0.06,0.012,0.075,0.238,0.186
141,0.0078,0.0233,0.0087,-1.05,0.57,-0.06,0.012,0.174,-0.222,-0.317
151,0.0060,0.0190,0.0085,-1.00,0.60,-0.06,0.010,-0.306,-0.280,0.306
162,0.0086,0.0149,0.0087,-0.95,0.57,-0.06,0.010,-0.048,-0.055,-0.012
171,0.0068,0.0138,0.0086,-0.94,0.59,-0.06,0.010,-0.008,-0.253,-0.134
181,0.0120,0.0071,0.0085,-0.86,0.54,-0.06,0.010,0.383,-0.355,-0.124
191,0.0089,0.0173,0.0086,-0.98,0.58,-0.06,0.010,0.008,-0.119,-0.316
201,0.0070,0.0121,0.0085,-0.92,0.60,-0.07,0.010,0.076,-0.069,-0.204
211,0.0093,0.0099,0.0083,-0.90,0.58,-0.07,0.008,-0.018,-0.191,-0.073
221,0.0047,0.0158,0.0081,-0.96,0.63,-0.07,0.008,-0.172,-0.140,0.076
231,0.0083,-0.0121,0.0025,-0.67,0.59,-0.08,0.008,0.053,0.020,-0.033
241,0.0134,-0.0118,0.0024,-0.67,0.54,-0.08,0.008,0.103,-0.141,-0.224
251,0.0088,-0.0076,0.0025,-0.72,0.59,-0.08,0.008,-0.238,-0.112,0.132
261,0.0030,-0.0329,0.0017,-0.47,0.65,-0.08,0.008,0.042,-0.059,0.080
271,0.0001,-0.0384,-0.0022,-0.43,0.68,-0.08,0.008,0.248,0.197,0.110
281,0.0042,-0.0371,-0.0023,-0.45,0.64,-0.08,0.008,0.125,-0.088,-0.195
291,0.0107,-0.0357,-0.0022,-0.48,0.58,-0.08,0.008,-0.145,0.108,0.251
301,0.0102,-0.0290,-0.0018,-0.55,0.59,-0.08,0.008,-0.144,0.005,0.162
311,0.0044,-0.0343,-0.0020,-0.50,0.64,-0.08,0.005,-0.137,-0.262,-0.086
321,0.0104,-0.0059,-0.0002,-0.78,0.58,-0.08,0.005,-0.191,-0.177,0.024
331,0.0150,0.0144,-0.0107,-0.98,0.54,-0.07,0.005,0.080,-0.383,-0.545
341,0.0181,0.0069,-0.0105,-0.91,0.51,-0.08,0.005,0.018,-0.104,0.127
351,0.0083,0.0011,-0.0101,-0.86,0.61,-0.08,0.006,0.364,-0.437,-0.251
361,0.0077,0.0095,-0.0102,-0.94,0.61,-0.08,0.006,0.195,0.119,0.205
371,0.0073,0.0063,-0.0126,-0.91,0.62,-0.08,0.006,0.046,0.048,-0.028
381,0.0107,0.0045,-0.0127,-0.89,0.59,-0.08,0.006,0.180,0.069,0.015
391,0.0065,0.0050,-0.0128,-0.90,0.63,-0.08,0.006,0.064,-0.189,0.064
401,0.0066,0.0048,-0.0130,-0.90,0.63,-0.08,0.006,-0.105,-0.006,0.123
411,0.0062,0.0031,-0.0131,-0.88,0.63,-0.08,0.007,0.099,-0.059,-0.091
422,0.0063,0.0029,-0.0133,-0.88,0.63,-0.08,0.007,-0.111,0.085,-0.058
431,0.0046,0.0026,-0.0107,-0.88,0.65,-0.08,0.007,0.182,-0.012,-0.061
441,0.0059,0.0102,-0.0110,-0.95,0.64,-0.08,0.007,0.323,-0.225,-0.457
451,0.0043,0.0160,-0.0113,-1.00,0.66,-0.08,0.008,-0.005,-0.158,-0.300
461,0.0078,0.0020,-0.0108,-0.87,0.62,-0.08,0.008,-0.091,-0.074,0.043
471,0.0078,0.0019,-0.0064,-0.87,0.62,-0.08,0.008,-0.202,-0.362,-0.248
481,0.0113,0.0002,-0.0064,-0.86,0.59,-0.09,0.008,0.155,-0.016,-0.052
491,0.0054,-0.0001,-0.0065,-0.86,0.65,-0.09,0.008,-0.105,-0.103,-0.235
501,0.0053,-0.0042,-0.0066,-0.82,0.65,-0.09,0.008,0.112,0.130,-0.109
511,0.0040,-0.0042,-0.0064,-0.82,0.66,-0.09,0.008,-0.089,0.243,0.088
521,0.0077,0.0124,-0.0063,-0.97,0.63,-0.09,0.008,-0.042,-0.454,-0.148
531,-0.0004,0.0218,-0.0031,-1.06,0.70,-0.08,0.008,-0.070,-0.084,-0.029
541,0.0045,0.0418,-0.0043,-1.23,0.65,-0.08,0.008,0.102,-0.076,-0.062
551,0.0030,0.0359,-0.0041,-1.18,0.67,-0.08,0.009,0.034,-0.176,-0.289
561,-0.0010,0.0377,-0.0045,-1.19,0.70,-0.08,0.009,-0.192,-0.137,0.047
571,0.0063,0.0408,-0.0003,-1.21,0.64,-0.08,0.009,-0.290,0.177,0.059
581,-0.0003,0.0300,0.0004,-1.11,0.70,-0.08,0.009,-0.040,-0.189,-0.217
591,0.0033,0.0370,0.0003,-1.17,0.66,-0.09,0.009,0.081,0.304,-0.133
601,0.0035,0.0373,0.0005,-1.17,0.66,-0.08,0.009,-0.217,-0.061,0.257
610,-0.0004,0.0326,0.0010,-1.13,0.70,-0.09,0.009,0.033,0.146,-0.457
621,-0.0005,0.0410,0.0002,-1.20,0.69,-0.09,0.009,-0.195,-0.153,0.077
631,0.0081,0.0080,0.0042,-0.92,0.62,-0.09,0.009,-0.048,0.050,-0.209
641,0.0065,0.0137,0.0041,-0.97,0.63,-0.09,0.009,0.076,-0.217,-0.132
650,0.0062,0.0153,0.0039,-0.98,0.64,-0.09,0.010,0.074,-0.153,-0.227
661,0.0071,0.0242,0.0037,-1.06,0.63,-0.09,0.010,-0.296,-0.106,0.113
671,0.0079,0.0227,0.0065,-1.04,0.62,-0.09,0.010,-0.217,0.307,0.105
681,0.0074,0.0262,0.0062,-1.07,0.63,-0.10,0.010,-0.024,-0.140,-0.312
691,0.0068,0.0212,0.0062,-1.03,0.63,-0.10,0.010,-0.086,-0.012,-0.387
701,0.0068,0.0212,0.0061,-1.03,0.63,-0.10,0.010,0.167,0.085,0.035
712,0.0025,0.0212,0.0058,-1.03,0.66,-0.10,0.009,-0.199,-0.286,0.128
721,0.0074,0.0238,0.0053,-1.05,0.62,-0.10,0.009,-0.127,0.152,0.117
731,0.0083,0.0223,0.0038,-1.03,0.62,-0.10,0.009,0.050,-0.258,-0.291
741,0.0065,0.0110,0.0040,-0.94,0.63,-0.10,0.009,-0.064,0.070,-0.181
751,0.0049,0.0188,0.0036,-1.01,0.64,-0.10,0.009,0.133,-0.243,-0.053
761,0.0051,0.0187,0.0035,-1.01,0.64,-0.10,0.009,0.142,-0.364,-0.201
771,0.0052,0.0186,0.0022,-1.01,0.64,-0.10,0.009,-0.091,-0.136,-0.017
781,0.0033,0.0175,0.0022,-1.00,0.66,-0.10,0.009,0.207,0.061,-0.191
791,0.0046,0.0163,0.0021,-0.99,0.65,-0.10,0.009,-0.081,-0.162,-0.102
801,0.0045,0.0060,0.0024,-0.90,0.65,-0.11,0.009,-0.058,0.064,-0.174
811,0.0030,0.0146,0.0022,-0.97,0.66,-0.11,0.009,0.273,-0.278,-0.491
820,0.0040,0.0137,0.0021,-0.97,0.65,-0.11,0.009,-0.166,-0.223,0.054
831,0.0036,0.0140,0.0009,-0.96,0.65,-0.11,0.009,-0.425,-0.184,-0.271
841,0.0021,0.0080,0.0011,-0.91,0.67,-0.11,0.009,0.007,0.132,-0.298
851,0.0021,0.0078,0.0011,-0.92,0.67,-0.11,0.008,-0.162,-0.135,-0.343
861,0.0034,0.0110,0.0010,-0.94,0.66,-0.11,0.008,0.185,-0.125,-0.109
870,0.0034,0.0108,-0.0022,-0.94,0.66,-0.11,0.008,0.139,-0.092,-0.166
880,0.0059,0.0031,-0.0022,-0.88,0.64,-0.12,0.008,0.000,0.129,0.119
890,0.0056,0.0091,-0.0023,-0.93,0.64,-0.12,0.008,0.081,0.014,-0.079
900,0.0039,0.0084,-0.0023,-0.93,0.66,-0.12,0.008,0.116,-0.002,-0.015
910,0.0025,0.0077,-0.0023,-0.92,0.67,-0.12,0.007,0.007,-0.069,-0.058
920,0.0023,-0.0032,-0.0019,-0.83,0.66,-0.12,0.007,-0.107,-0.086,-0.025
930,0.0021,0.0079,-0.0057,-0.92,0.66,-0.12,0.007,0.044,-0.080,-0.059
940,0.0022,0.0075,-0.0061,-0.92,0.66,-0.12,0.007,0.089,-0.064,-0.472
950,0.0023,0.0073,-0.0063,-0.92,0.67,-0.12,0.007,0.195,-0.092,-0.245
961,0.0007,0.0011,-0.0062,-0.87,0.68,-0.12,0.007,-0.320,0.022,0.310
971,0.0006,-0.0062,-0.0080,-0.82,0.68,-0.13,0.007,0.046,0.085,-0.079
981,0.0005,-0.0207,-0.0081,-0.70,0.68,-0.13,0.007,-0.131,-0.218,0.065
990,-0.0023,-0.0290,-0.0083,-0.64,0.70,-0.13,0.007,-0.268,0.152,0.181
1001,-0.0023,-0.0072,-0.0074,-0.82,0.70,-0.13,0.007,-0.103,-0.213,-0.187
1010,-0.0036,-0.0455,-0.0078,-0.51,0.71,-0.13,0.007,-0.133,0.035,-0.073
1020,0.0017,-0.0318,-0.0065,-0.63,0.66,-0.13,0.007,-0.006,-0.280,-0.097
1031,-0.0097,-0.0232,-0.0068,-0.70,0.76,-0.13,0.007,0.168,-0.053,-0.284
1041,-0.0082,-0.0618,-0.0079,-0.41,0.74,-0.14,0.007,0.004,-0.165,-0.045
1050,-0.0054,-0.0556,-0.0072,-0.46,0.72,-0.14,0.007,0.040,-0.009,-0.136
1060,-0.0051,-0.0459,-0.0062,-0.55,0.72,-0.14,0.007,-0.073,-0.258,0.113
1071,-0.0088,-0.0489,-0.0064,-0.53,0.75,-0.14,0.007,-0.135,-0.134,-0.001
1081,-0.0011,-0.0284,-0.0055,-0.70,0.68,-0.14,0.007,-0.145,-0.239,0.265
1091,-0.0011,-0.0201,-0.0055,-0.77,0.68,-0.13,0.007,-0.236,0.048,-0.206
1100,0.0001,-0.0207,-0.0056,-0.77,0.67,-0.14,0.007,0.043,-0.039,-0.113
1111,-0.0023,-0.0247,-0.0057,-0.74,0.69,-0.13,0.006,0.245,-0.301,-0.433
1121,-0.0023,-0.0187,-0.0057,-0.79,0.69,-0.14,0.006,-0.022,-0.275,-0.135
1131,0.0001,-0.0021,-0.0078,-0.92,0.67,-0.13,0.006,0.158,0.040,0.072
1141,0.0061,0.0099,-0.0080,-1.01,0.63,-0.14,0.006,-0.314,0.024,-0.274
1151,-0.0013,0.0166,-0.0084,-1.06,0.69,-0.14,0.006,-0.058,-0.216,-0.072
1160,0.0024,0.0133,-0.0086,-1.03,0.66,-0.14,0.006,-0.002,-0.143,-0.194
1170,-0.0024,0.0138,-0.0092,-1.04,0.69,-0.14,0.006,0.243,-0.224,-0.150
1180,-0.0026,0.0137,-0.0093,-1.04,0.69,-0.14,0.006,-0.029,0.259,-0.086
1191,-0.0001,0.0143,-0.0094,-1.04,0.67,-0.14,0.006,0.060,-0.210,-0.087
1201,0.0023,0.0135,-0.0094,-1.03,0.65,-0.14,0.006,-0.016,-0.117,-0.127
1210,-0.0001,0.0129,-0.0095,-1.02,0.67,-0.14,0.009,-0.121,-0.045,-0.080
1221,-0.0084,0.0122,-0.0097,-1.01,0.74,-0.14,0.009,-0.208,-0.088,0.158
1230,-0.0020,0.0163,-0.0022,-1.04,0.69,-0.14,0.009,0.089,-0.104,-0.210
1240,-0.0032,0.0154,-0.0025,-1.04,0.69,-0.14,0.009,-0.027,0.197,-0.041
1250,-0.0031,0.0060,-0.0023,-0.96,0.69,-0.15,0.006,-0.027,-0.239,-0.121
1260,-0.0008,0.0087,-0.0025,-0.99,0.67,-0.15,0.006,0.120,-0.165,-0.214
1270,-0.0007,0.0084,-0.0049,-0.98,0.67,-0.15,0.006,-0.023,0.156,-0.198
1280,-0.0004,-0.0108,-0.0047,-0.83,0.67,-0.15,0.006,-0.086,0.093,-0.249
1291,-0.0053,-0.0070,-0.0049,-0.86,0.71,-0.15,0.006,0.032,-0.043,0.038
1301,0.0010,-0.0033,-0.0049,-0.89,0.66,-0.15,0.006,-0.047,0.029,-0.274
1311,-0.0049,0.0148,-0.0049,-1.04,0.71,-0.15,0.010,0.116,-0.242,0.012
1321,-0.0045,0.0186,-0.0050,-1.07,0.70,-0.15,0.010,0.285,-0.247,-0.199
1330,0.0030,0.0211,0.0027,-1.09,0.64,-0.15,0.010,0.058,0.046,0.050
1341,0.0029,0.0151,0.0029,-1.04,0.65,-0.16,0.010,-0.165,0.108,-0.091
1350,0.0027,0.0083,0.0029,-0.98,0.65,-0.16,0.010,-0.110,-0.325,-0.172
1361,0.0023,0.0066,0.0027,-0.97,0.65,-0.16,0.010,0.054,-0.334,-0.325
1370,-0.0041,0.0063,0.0066,-0.96,0.70,-0.16,0.010,0.140,-0.023,0.139
1381,-0.0018,0.0069,0.0063,-0.97,0.68,-0.16,0.010,-0.059,0.048,-0.087
1391,0.0005,0.0076,0.0059,-0.97,0.66,-0.16,0.010,-0.011,-0.019,0.027
1401,-0.0029,0.0071,0.0057,-0.97,0.69,-0.16,0.010,-0.123,-0.052,-0.143
1410,-0.0027,0.0071,0.0055,-0.97,0.69,-0.16,0.010,-0.120,-0.378,-0.183
1420,-0.0025,-0.0009,0.0053,-0.91,0.68,-0.16,0.010,-0.155,-0.079,0.060
1430,-0.0014,-0.0085,0.0071,-0.85,0.67,-0.16,0.010,0.232,-0.288,-0.174
1441,0.0023,0.0037,0.0072,-0.95,0.65,-0.16,0.010,0.002,-0.200,-0.211
1450,-0.0001,0.0034,0.0071,-0.95,0.67,-0.16,0.009,0.191,0.024,0.057
1460,0.0011,0.0031,0.0069,-0.94,0.66,-0.16,0.009,0.047,-0.077,0.266
1470,0.0011,0.0017,0.0047,-0.93,0.66,-0.17,0.009,0.122,0.128,-0.070
1480,-0.0048,-0.0032,0.0045,-0.89,0.71,-0.17,0.009,-0.035,-0.326,-0.283
0,0.0001,0.0086,0.0044,-0.98,0.67,-0.17,0.009,-0.254,0.179,0.051
9,0.0001,0.0084,0.0043,-0.98,0.67,-0.17,0.009,0.882,0.468,0.083
19,0.0027,0.0015,0.0044,-0.93,0.65,-0.17,0.009,-0.162,-0.420,-1.046
29,-0.0036,0.0025,0.0043,-0.94,0.70,-0.17,0.009,0.056,-1.172,-0.181
38,-0.0011,0.0131,0.0023,-1.02,0.68,-0.17,0.009,-1.173,0.764,-0.167
49,-0.0011,0.0017,0.0025,-0.91,0.67,-0.17,0.009,-0.168,-0.987,-0.766
59,-0.0010,0.0044,0.0024,-0.92,0.67,-0.17,0.008,1.623,-1.359,-1.088
69,-0.0033,0.0095,0.0025,-0.95,0.68,-0.17,0.008,0.981,-0.775,-1.063
79,-0.0031,0.0094,-0.0011,-0.94,0.68,-0.17,0.008,-0.759,-0.412,0.620
89,-0.0054,0.0127,-0.0014,-0.95,0.69,-0.17,0.008,-0.520,-0.235,-0.560
98,-0.0064,0.0077,-0.0015,-0.89,0.70,-0.17,0.008,-1.935,-0.922,-0.102
108,-0.0012,0.0101,-0.0015,-0.90,0.65,-0.17,0.008,-0.399,2.261,2.065
118,-0.0058,0.0087,-0.0011,-0.89,0.68,-0.17,0.012,-6.401,5.579,8.694
128,-0.0032,0.0064,-0.0002,-0.87,0.65,-0.17,0.012,-9.985,9.991,11.947
138,-0.0074,-0.0098,0.0063,-0.74,0.66,-0.15,0.012,-3.977,1.472,9.792
148,-0.0120,-0.0119,0.0069,-0.77,0.63,-0.07,0.012,5.727,-11.072,9.456
158,-0.0104,0.0000,0.0063,-0.94,0.51,0.04,0.006,4.283,-18.119,11.054
169,-0.0120,-0.0202,0.0048,-0.81,0.50,0.14,0.006,6.054,-22.679,14.926
179,-0.0133,-0.0139,-0.0029,-0.80,0.60,0.24,0.006,-4.319,-33.136,12.512
189,-0.0123,0.0062,0.0022,-0.90,0.75,0.35,0.006,-11.249,-36.905,9.906
199,-0.0143,0.0127,0.0076,-0.89,0.99,0.50,0.006,-18.013,-45.584,7.082
209,-0.0233,0.0062,0.0156,-0.86,1.36,0.63,0.006,-17.326,-52.300,6.357
218,-0.0217,0.0155,0.0280,-1.03,1.69,0.74,0.012,-28.026,-50.643,5.291
229,-0.0081,0.0133,0.0455,-1.17,2.00,0.82,0.012,-24.390,-48.835,6.387
239,-0.0001,0.0191,0.0669,-1.40,2.42,0.89,0.012,-26.732,-40.207,9.756
248,-0.0042,0.0178,0.0821,-1.63,2.92,0.96,0.012,-29.719,-37.783,8.706
258,0.0024,0.0169,0.0991,-1.85,3.30,1.03,0.000,-15.471,-33.234,7.825
269,-0.0076,0.0224,0.1165,-2.12,3.73,1.14,0.000,-15.487,-19.021,6.372
279,-0.0183,0.0242,0.1033,-2.40,4.13,1.24,0.000,-7.552,-2.754,4.031
289,-0.0272,0.0291,0.1248,-2.58,4.46,1.34,0.000,-3.429,15.611,5.607
298,-0.0458,0.0342,0.1450,-2.73,4.72,1.41,0.000,7.390,30.886,5.570
308,-0.0611,0.0351,0.1658,-2.78,4.80,1.45,0.000,14.994,39.462,2.414
319,-0.0202,-0.0145,0.1987,-2.39,4.26,1.42,0.000,22.942,41.550,1.831
328,-0.0375,0.0023,0.2166,-2.42,4.03,1.48,0.000,27.988,41.487,1.872
339,-0.0257,-0.0204,0.1951,-2.06,3.49,1.45,0.000,33.196,32.853,1.087
348,-0.0294,-0.0231,0.2139,-1.74,3.01,1.44,0.000,29.884,28.210,2.352
359,-0.0264,-0.0208,0.2311,-1.44,2.52,1.44,0.017,26.112,20.378,2.709
369,-0.0181,-0.0438,0.2469,-0.92,2.09,1.41,0.017,16.836,14.554,2.884
378,-0.0134,-0.0422,0.2508,-0.62,1.74,1.43,0.017,4.794,10.380,3.094
388,-0.0321,-0.0172,0.2679,-0.55,1.65,1.50,0.017,-3.091,2.108,2.932
399,-0.0539,0.0085,0.2838,-0.58,1.64,1.56,0.017,-6.894,3.544,2.478
409,-0.0485,0.0017,0.2989,-0.47,1.47,1.58,0.017,-10.804,5.985,1.849
419,-0.0498,0.0359,0.3129,-0.75,1.42,1.67,0.037,-8.063,9.266,2.866
429,-0.0586,0.0479,0.3232,-0.90,1.43,1.71,0.037,-2.188,11.287,2.540
439,-0.0765,0.0584,0.3362,-1.06,1.48,1.74,0.037,7.679,9.293,1.845
449,-0.0891,0.0636,0.3445,-1.17,1.46,1.77,0.037,13.541,9.112,1.530
458,-0.0935,0.0682,0.3523,-1.20,1.36,1.79,0.067,14.304,8.438,1.477
468,-0.0697,0.0552,0.3642,-1.01,1.08,1.80,0.067,13.103,6.377,0.959
478,-0.0513,0.0394,0.4026,-0.75,0.83,1.79,0.067,12.801,1.315,-0.223
489,-0.0555,0.0406,0.4074,-0.60,0.77,1.81,0.067,5.292,-3.600,-0.405
498,-0.0819,0.0446,0.4100,-0.49,0.89,1.81,0.067,-2.151,-5.256,-1.440
508,-0.0778,0.0418,0.4135,-0.33,0.83,1.81,0.067,-10.076,-5.918,-2.429
519,-0.0663,0.0169,0.4174,-0.09,0.77,1.78,0.092,-16.791,-5.890,-2.717
528,-0.0684,0.0199,0.4182,-0.13,0.83,1.76,0.092,-18.198,-2.955,-3.180
539,-0.0692,0.0406,0.4442,-0.37,0.88,1.75,0.092,-18.989,0.568,-3.742
549,-0.0727,0.0468,0.4430,-0.58,0.95,1.73,0.092,-15.140,4.819,-3.900
558,-0.0711,0.0604,0.4414,-0.86,0.95,1.71,0.118,-12.473,8.614,-3.656
568,-0.0740,0.0663,0.4390,-1.07,0.95,1.67,0.118,-7.098,11.258,-3.516
578,-0.0634,0.0592,0.4628,-1.14,0.81,1.63,0.118,-0.068,15.760,-4.225
588,-0.0646,0.0575,0.4602,-1.24,0.72,1.59,0.118,6.024,18.590,-4.485
599,-0.0589,0.0589,0.4576,-1.29,0.55,1.55,0.118,17.236,23.979,-5.068
608,-0.0561,0.0548,0.4547,-1.24,0.37,1.50,0.118,23.115,26.893,-5.243
618,-0.0531,0.0566,0.4507,-1.18,0.15,1.45,0.136,28.053,29.317,-4.961
628,-0.0612,0.0549,0.4460,-0.99,-0.03,1.40,0.136,30.901,30.326,-4.290
638,-0.0628,0.0529,0.4438,-0.74,-0.29,1.34,0.136,32.679,30.590,-3.872
648,-0.0705,0.0558,0.4380,-0.47,-0.52,1.29,0.136,33.948,30.117,-4.026
658,-0.0696,0.0542,0.4315,-0.14,-0.83,1.25,0.155,30.962,27.572,-4.112
668,-0.0732,0.0577,0.4240,0.16,-1.10,1.21,0.155,27.411,25.695,-3.920
678,-0.0712,0.0559,0.4123,0.50,-1.39,1.17,0.155,23.469,21.528,-4.288
688,-0.0721,0.0557,0.4044,0.79,-1.65,1.13,0.155,17.651,19.465,-3.450
698,-0.0755,0.0553,0.3958,1.06,-1.86,1.10,0.155,15.239,16.740,-2.680
708,-0.0731,0.0539,0.3871,1.29,-2.08,1.07,0.155,8.203,13.525,-2.075
718,-0.0679,0.0499,0.3786,1.49,-2.29,1.04,0.171,4.608,11.049,-1.551
728,-0.0684,0.0505,0.3700,1.61,-2.42,1.02,0.171,0.746,8.715,-1.574
738,-0.0668,0.0503,0.3509,1.67,-2.54,1.00,0.171,-1.279,8.261,-0.197
748,-0.0627,0.0459,0.3422,1.72,-2.65,0.99,0.171,-1.939,6.877,0.140
758,-0.0634,0.0417,0.3331,1.75,-2.70,0.98,0.192,-3.579,4.395,-0.475
768,-0.0580,0.0376,0.3234,1.74,-2.80,0.99,0.192,-2.787,2.618,0.857
778,-0.0553,0.0378,0.3237,1.70,-2.85,0.98,0.192,-2.686,1.712,1.397
789,-0.0507,0.0354,0.3153,1.66,-2.89,0.98,0.192,-1.886,1.970,1.584
798,-0.0434,0.0330,0.3068,1.63,-2.94,0.99,0.192,-2.867,-0.268,1.846
808,-0.0382,0.0298,0.2980,1.60,-2.97,1.01,0.192,-0.615,-0.621,1.931
818,-0.0408,0.0275,0.2896,1.58,-2.93,1.03,0.203,-0.102,-0.607,2.278
828,-0.0359,0.0254,0.2814,1.56,-2.93,1.05,0.203,1.405,0.843,2.803
838,-0.0312,0.0224,0.2624,1.55,-2.92,1.07,0.203,2.368,-0.049,2.732
848,-0.0256,0.0213,0.2542,1.54,-2.92,1.09,0.203,4.237,-0.581,3.768
858,-0.0211,0.0191,0.2459,1.57,-2.92,1.12,0.223,1.781,-1.019,3.630
868,-0.0157,0.0180,0.2377,1.58,-2.93,1.15,0.223,-0.589,-2.408,3.826
878,-0.0102,0.0136,0.2404,1.64,-2.92,1.19,0.223,0.100,-1.333,3.940
888,-0.0053,0.0210,0.2329,1.59,-2.92,1.21,0.223,-2.751,-3.209,4.658
898,-0.0036,0.0189,0.2257,1.59,-2.87,1.25,0.223,-3.986,-5.322,4.110
908,-0.0009,0.0159,0.2185,1.59,-2.85,1.29,0.223,-4.623,-5.777,4.185
918,0.0046,0.0155,0.2111,1.55,-2.82,1.33,0.220,-5.788,-8.172,4.484
928,0.0088,0.0140,0.2038,1.50,-2.76,1.37,0.220,-6.218,-11.374,4.381
938,0.0125,0.0120,0.1707,1.46,-2.70,1.41,0.220,-7.391,-14.238,4.477
948,0.0169,0.0098,0.1639,1.40,-2.61,1.45,0.220,-5.963,-16.546,4.798
958,0.0211,0.0076,0.1571,1.33,-2.49,1.50,0.238,-6.008,-18.719,4.873
968,0.0280,0.0061,0.1502,1.26,-2.36,1.54,0.238,-5.328,-19.739,4.470
978,0.0334,0.0046,0.1512,1.20,-2.20,1.58,0.238,-3.636,-20.539,4.592
989,0.0356,0.0031,0.1447,1.14,-2.00,1.62,0.238,-2.565,-20.277,4.353
998,0.0326,0.0015,0.1387,1.09,-1.76,1.67,0.238,-1.983,-22.014,3.963
1008,0.0339,0.0000,0.1332,1.05,-1.54,1.71,0.238,-1.616,-20.216,3.635
1018,0.0363,-0.0121,0.1276,1.10,-1.33,1.78,0.239,-3.954,-18.692,4.201
1028,0.0352,-0.0025,0.1223,0.99,-1.09,1.79,0.239,-6.840,-16.984,3.907
1038,0.0347,-0.0278,0.1086,1.12,-0.88,1.89,0.239,-7.332,-16.644,2.428
1048,0.0358,-0.0286,0.1038,1.07,-0.68,1.92,0.239,-8.132,-14.135,3.744
1058,0.0381,-0.0290,0.0992,1.00,-0.52,1.95,0.245,-8.615,-15.043,1.339
1068,0.0390,-0.0306,0.0946,0.92,-0.35,1.97,0.245,-10.726,-12.688,1.306
1079,0.0371,-0.0319,0.0870,0.84,-0.19,2.01,0.245,-13.179,-9.812,2.184
1088,0.0363,-0.0340,0.0825,0.76,-0.04,2.02,0.245,-17.147,-7.642,1.726
1098,0.0364,-0.0353,0.0786,0.66,0.09,2.03,0.245,-14.467,-9.250,1.379
1108,0.0357,-0.0366,0.0749,0.52,0.18,2.05,0.245,-19.038,-6.678,1.875
1118,0.0388,-0.0344,0.0714,0.33,0.24,2.06,0.250,-15.534,-8.089,-0.391
1128,0.0391,-0.0336,0.0678,0.17,0.32,2.07,0.250,-13.556,-7.465,0.131
1139,0.0381,-0.0308,0.0651,-0.05,0.39,2.08,0.250,-13.415,-6.378,0.647
1148,0.0369,-0.0321,0.0621,-0.20,0.48,2.08,0.250,-14.203,-7.831,1.153
1158,0.0329,-0.0320,0.0593,-0.35,0.59,2.09,0.256,-10.655,-4.250,1.710
1167,0.0317,-0.0291,0.0566,-0.51,0.65,2.10,0.256,-12.309,-7.088,0.252
1178,0.0291,-0.0288,0.0610,-0.63,0.73,2.12,0.256,-7.237,-8.219,-1.199
1188,0.0305,-0.0268,0.0587,-0.77,0.76,2.13,0.256,-3.874,-7.870,-1.383
1198,0.0288,-0.0236,0.0567,-0.89,0.84,2.13,0.256,-0.579,-4.413,-0.324
1207,0.0274,-0.0222,0.0544,-0.96,0.92,2.12,0.256,0.325,-1.775,0.526
1217,0.0258,-0.0206,0.0523,-0.99,0.99,2.11,0.259,-1.613,-1.098,-0.286
1228,0.0243,-0.0183,0.0502,-1.00,1.03,2.11,0.259,2.047,1.714,-0.404
1238,0.0226,-0.0168,0.0527,-1.00,1.04,2.11,0.259,1.070,1.605,-1.451
1247,0.0202,-0.0162,0.0507,-0.99,1.05,2.10,0.259,-0.161,2.775,-0.746
1257,0.0183,-0.0146,0.0488,-0.98,1.04,2.10,0.260,2.801,2.565,-1.268
1268,0.0161,-0.0114,0.0467,-0.98,1.03,2.09,0.260,3.236,2.658,-0.658
1278,0.0144,-0.0098,0.0451,-0.98,1.01,2.08,0.260,3.865,2.967,-0.815
1287,0.0127,-0.0066,0.0430,-0.97,0.98,2.07,0.260,2.618,3.354,-1.069
1299,0.0079,-0.0052,0.0412,-0.96,0.97,2.06,0.260,4.919,3.546,-1.345
1308,0.0081,-0.0024,0.0396,-0.93,0.93,2.05,0.260,2.451,2.792,-0.683
1318,0.0035,-0.0013,0.0380,-0.90,0.92,2.04,0.264,7.506,3.245,-2.060
1328,0.0021,0.0031,0.0363,-0.89,0.88,2.02,0.264,4.331,3.699,-1.292
1337,0.0006,0.0045,0.0386,-0.85,0.85,2.01,0.264,7.283,3.542,-2.438
1348,-0.0085,0.0078,0.0371,-0.80,0.86,1.99,0.264,5.179,6.970,-1.135
1358,-0.0076,0.0116,0.0357,-0.77,0.80,1.98,0.265,5.247,6.707,-0.857
1368,-0.0101,0.0146,0.0343,-0.71,0.77,1.96,0.265,5.476,6.559,-1.659
1378,-0.0114,0.0157,0.0340,-0.66,0.70,1.94,0.265,4.907,9.509,-1.164
1388,-0.0126,0.0168,0.0329,-0.61,0.63,1.93,0.265,11.789,9.084,-1.485
1397,-0.0156,0.0164,0.0317,-0.55,0.57,1.92,0.265,7.858,10.067,-1.721
1407,-0.0150,0.0210,0.0304,-0.51,0.47,1.89,0.265,9.910,11.499,-1.395
1418,-0.0138,0.0165,0.0290,-0.37,0.36,1.88,0.265,8.470,11.733,-0.143
1428,-0.0164,0.0303,0.0277,-0.36,0.26,1.86,0.265,11.527,11.811,-0.568
1437,-0.0166,0.0320,0.0231,-0.27,0.15,1.85,0.265,10.945,11.448,-0.752
1448,-0.0216,0.0333,0.0220,-0.18,0.07,1.84,0.265,9.407,11.118,-0.245
1459,-0.0196,0.0347,0.0207,-0.09,-0.05,1.83,0.268,10.581,9.283,-0.317
1468,-0.0222,0.0322,0.0192,0.04,-0.15,1.83,0.268,9.839,8.313,0.050
1479,-0.0200,0.0346,0.0207,0.14,-0.26,1.83,0.268,9.436,7.105,0.173
1488,-0.0193,0.0320,0.0197,0.26,-0.36,1.82,0.268,10.520,6.704,0.576
1497,-0.0219,0.0324,0.0187,0.36,-0.42,1.82,0.268,11.792,5.577,0.514
1508,-0.0197,0.0360,0.0180,0.43,-0.50,1.82,0.268,11.673,4.991,0.472
1518,-0.0255,0.0358,0.0172,0.54,-0.53,1.83,0.270,11.158,4.769,1.119
1527,-0.0216,0.0373,0.0165,0.63,-0.60,1.84,0.270,10.134,4.395,1.293
1537,-0.0194,0.0369,0.0195,0.74,-0.65,1.84,0.270,7.478,4.447,1.948
1548,-0.0182,0.0357,0.0187,0.84,-0.70,1.86,0.270,10.088,4.059,1.031
1557,-0.0175,0.0334,0.0180,0.94,-0.74,1.87,0.270,7.056,4.207,2.027
1567,-0.0162,0.0318,0.0173,1.02,-0.78,1.89,0.270,6.735,4.688,1.858
1578,-0.0156,0.0344,0.0166,1.09,-0.82,1.90,0.270,7.330,4.434,2.059
1588,-0.0132,0.0373,0.0156,1.13,-0.87,1.93,0.270,4.375,4.050,1.862
1597,-0.0124,0.0367,0.0148,1.20,-0.91,1.94,0.270,7.396,3.299,1.813
1608,-0.0115,0.0326,0.0139,1.28,-0.95,1.97,0.270,4.093,2.108,2.413
1618,-0.0123,0.0305,0.0131,1.33,-0.98,1.99,0.270,2.704,0.710,2.991
1628,-0.0065,0.0317,0.0125,1.36,-1.03,2.01,0.270,2.412,-1.613,3.216
1638,-0.0058,0.0277,0.0099,1.41,-1.04,2.04,0.270,4.398,-1.936,2.551
1647,-0.0040,0.0254,0.0090,1.45,-1.04,2.07,0.270,0.584,-2.266,3.867
1657,-0.0040,0.0219,0.0079,1.48,-1.01,2.09,0.270,1.417,-2.053,3.390
1668,-0.0022,0.0195,0.0070,1.52,-0.99,2.12,0.270,-0.763,-3.412,4.638
1677,0.0027,0.0217,0.0045,1.50,-0.98,2.16,0.270,1.123,-3.069,4.052
1687,0.0039,0.0201,0.0035,1.51,-0.96,2.19,0.270,0.549,-2.740,4.145
1697,0.0051,0.0154,0.0027,1.52,-0.92,2.24,0.270,-2.492,-2.716,4.485
1707,0.0068,0.0129,0.0019,1.54,-0.89,2.28,0.270,-1.158,-2.952,4.506
1717,0.0097,0.0100,0.0012,1.53,-0.87,2.32,0.276,-3.217,-4.849,4.604
1727,0.0106,0.0092,0.0005,1.50,-0.84,2.37,0.276,-3.104,-3.631,4.568
1737,0.0134,0.0063,0.0121,1.49,-0.82,2.41,0.276,-1.274,-3.591,4.284
1747,0.0121,0.0022,0.0118,1.48,-0.76,2.46,0.276,-4.010,-5.939,4.081
1757,0.0126,-0.0034,0.0114,1.47,-0.71,2.50,0.270,-5.491,-7.218,4.513
1768,0.0162,-0.0036,0.0109,1.43,-0.67,2.54,0.270,-4.586,-5.446,4.689
1777,0.0174,-0.0058,0.0027,1.40,-0.61,2.58,0.270,-7.870,-7.754,4.805
1787,0.0186,-0.0087,0.0019,1.34,-0.54,2.62,0.270,-7.884,-9.327,3.935
1797,0.0201,-0.0117,0.0012,1.28,-0.48,2.67,0.270,-7.429,-8.639,3.949
1808,0.0226,-0.0121,0.0005,1.19,-0.40,2.71,0.270,-6.638,-6.526,4.251
1817,0.0234,-0.0141,-0.0000,1.11,-0.31,2.75,0.273,-5.037,-5.933,3.136
1827,0.0255,-0.0143,-0.0007,1.03,-0.24,2.79,0.273,-7.847,-7.660,3.538
1837,0.0245,-0.0185,0.0008,0.99,-0.17,2.83,0.273,-5.004,-5.588,3.192
1848,0.0233,-0.0241,0.0006,0.96,-0.09,2.86,0.273,-3.724,-3.625,2.527
1857,0.0232,-0.0220,0.0003,0.86,-0.01,2.89,0.270,-6.127,-3.801,3.374
1867,0.0257,-0.0274,-0.0002,0.85,0.02,2.92,0.270,-11.604,-6.684,4.020
1878,0.0261,-0.0272,-0.0062,0.79,0.05,2.95,0.270,-13.251,-6.843,3.182
1887,0.0281,-0.0300,-0.0069,0.72,0.09,2.99,0.270,-12.022,-5.833,2.213
1897,0.0294,-0.0284,-0.0074,0.58,0.15,3.02,0.270,-15.125,-5.457,2.850
1907,0.0276,-0.0302,-0.0077,0.46,0.22,3.05,0.270,-14.442,-5.368,2.893
1917,0.0289,-0.0314,-0.0081,0.32,0.28,3.07,0.272,-13.402,-4.871,2.888
1927,0.0269,-0.0309,-0.0084,0.18,0.34,3.10,0.272,-12.266,-3.903,2.520
1937,0.0267,-0.0335,-0.0067,0.05,0.39,3.12,0.272,-11.573,-3.918,2.528
1947,0.0279,-0.0305,-0.0069,-0.10,0.43,3.15,0.272,-9.614,-3.971,2.677
1957,0.0259,-0.0328,-0.0071,-0.20,0.48,3.18,0.271,-7.175,-3.488,2.696
1967,0.0252,-0.0282,-0.0072,-0.34,0.51,3.20,0.271,-5.306,-3.431,2.812
1977,0.0231,-0.0288,-0.0074,-0.42,0.56,3.23,0.271,-4.904,-3.541,2.800
1987,0.0213,-0.0331,-0.0073,-0.46,0.60,3.26,0.271,-3.172,-3.073,2.960
1997,0.0224,-0.0306,-0.0074,-0.53,0.62,3.29,0.271,-3.699,-3.074,3.220
2007,0.0203,-0.0331,-0.0074,-0.55,0.66,3.32,0.271,-3.683,-2.783,3.233
2017,0.0182,-0.0325,-0.0071,-0.58,0.69,3.35,0.270,-4.420,-2.493,3.295
2027,0.0175,-0.0300,-0.0066,-0.63,0.72,3.38,0.270,-3.495,-1.809,2.852
2037,0.0172,-0.0293,-0.0078,-0.66,0.74,3.41,0.270,-2.743,-1.551,2.618
2047,0.0159,-0.0283,-0.0074,-0.69,0.76,3.44,0.270,-2.607,-0.455,2.626
2057,0.0145,-0.0272,-0.0071,-0.72,0.78,3.47,0.270,-2.487,-0.694,2.665
2067,0.0126,-0.0267,-0.0069,-0.75,0.79,3.50,0.270,-2.251,-0.175,2.338
2077,0.0125,-0.0261,-0.0067,-0.77,0.79,3.53,0.270,-3.252,0.293,2.606
2087,0.0107,-0.0272,-0.0060,-0.78,0.80,3.55,0.270,-1.599,0.271,2.538
2097,0.0105,-0.0246,-0.0055,-0.81,0.79,3.57,0.270,1.548,0.512,2.274
2107,0.0091,-0.0233,-0.0050,-0.83,0.79,3.60,0.270,0.642,0.553,2.089
2117,0.0075,-0.0229,-0.0045,-0.83,0.78,3.62,0.271,2.292,2.965,1.694
2127,0.0061,-0.0244,-0.0037,-0.81,0.78,3.65,0.271,2.659,3.191,1.845
2137,0.0047,-0.0231,-0.0001,-0.80,0.76,3.67,0.271,0.848,3.166,2.094
2147,0.0033,-0.0218,0.0003,-0.78,0.73,3.69,0.271,4.190,4.263,1.156
2157,0.0020,-0.0205,0.0007,-0.75,0.70,3.71,0.271,-0.678,2.506,2.014
2168,0.0007,-0.0193,0.0010,-0.73,0.65,3.73,0.271,1.486,5.975,1.852
2177,-0.0005,-0.0181,0.0028,-0.72,0.62,3.74,0.271,2.485,4.716,1.138
2187,-0.0010,-0.0183,0.0031,-0.71,0.58,3.76,0.271,0.537,4.539,1.498
2197,-0.0031,-0.0150,0.0038,-0.70,0.53,3.78,0.271,-1.432,3.332,1.790
2207,-0.0041,-0.0138,0.0042,-0.68,0.48,3.79,0.271,-2.156,3.261,2.533
2217,-0.0021,-0.0122,0.0046,-0.68,0.43,3.81,0.271,2.937,6.880,1.864
2227,-0.0042,-0.0142,0.0052,-0.69,0.41,3.83,0.271,2.964,7.706,1.619
2237,-0.0050,-0.0131,0.0061,-0.69,0.35,3.85,0.271,3.707,7.541,1.785
2247,-0.0119,-0.0144,0.0064,-0.65,0.31,3.87,0.271,1.160,3.318,2.309
2257,-0.0125,-0.0133,0.0069,-0.61,0.23,3.89,0.274,2.638,5.119,2.743
2267,-0.0130,-0.0123,0.0072,-0.59,0.18,3.91,0.274,3.850,3.947,1.570
2277,-0.0142,-0.0112,0.0140,-0.56,0.13,3.93,0.274,5.889,6.280,1.917
2287,-0.0113,-0.0080,0.0144,-0.55,0.07,3.95,0.274,2.560,3.720,2.377
2297,-0.0115,-0.0071,0.0146,-0.50,0.02,3.97,0.274,5.719,7.808,2.368
2307,-0.0116,-0.0062,0.0148,-0.46,-0.03,3.99,0.274,4.135,6.160,2.392
2317,-0.0147,-0.0059,0.0148,-0.42,-0.06,4.01,0.274,2.732,5.791,3.005
2327,-0.0132,-0.0015,0.0146,-0.40,-0.13,4.03,0.274,3.455,6.199,3.795
2337,-0.0130,-0.0008,0.0166,-0.37,-0.20,4.06,0.274,4.145,7.315,3.563
2347,-0.0127,-0.0002,0.0169,-0.34,-0.26,4.10,0.274,5.088,6.666,3.842
2357,-0.0107,0.0040,0.0168,-0.32,-0.34,4.14,0.270,4.274,6.108,4.350
2367,-0.0083,0.0018,0.0167,-0.27,-0.42,4.17,0.270,5.704,5.573,4.201
2377,-0.0076,0.0023,0.0074,-0.22,-0.48,4.22,0.270,3.934,3.949,4.505
2387,-0.0076,0.0036,0.0072,-0.17,-0.53,4.26,0.270,5.614,3.568,4.340
2397,-0.0096,0.0025,0.0071,-0.11,-0.57,4.30,0.270,6.415,2.014,4.207
2407,-0.0086,0.0027,0.0069,-0.06,-0.61,4.34,0.270,5.848,1.293,3.978
2417,-0.0076,0.0029,0.0066,0.01,-0.64,4.38,0.270,5.179,-0.513,3.936
2427,-0.0065,0.0030,0.0064,0.07,-0.65,4.43,0.270,5.891,-1.305,3.371
2437,-0.0054,0.0029,-0.0003,0.14,-0.66,4.46,0.270,5.823,-1.693,3.898
2447,-0.0021,0.0064,-0.0005,0.18,-0.66,4.51,0.270,4.372,-0.678,3.994
2458,-0.0026,0.0095,-0.0005,0.17,-0.66,4.51,0.275,5.069,-2.392,3.370
2466,-0.0003,0.0053,-0.0011,0.30,-0.63,4.58,0.275,4.789,-2.179,2.968
2477,0.0016,0.0067,0.0060,0.29,-0.64,4.58,0.275,1.049,-2.233,3.398
2487,0.0038,0.0058,0.0054,0.40,-0.61,4.65,0.275,0.399,-2.338,3.115
2497,0.0038,0.0058,0.0054,0.40,-0.61,4.65,0.275,0.230,-2.554,2.749
2507,0.0072,0.0088,0.0055,0.41,-0.57,4.72,0.275,-0.247,-4.198,3.227
2517,0.0072,0.0088,0.0055,0.41,-0.57,4.72,0.270,-1.604,-4.626,3.547
2527,0.0092,0.0076,0.0051,0.41,-0.52,4.78,0.270,0.405,-3.080,3.861
2537,0.0104,0.0073,-0.0024,0.41,-0.52,4.78,0.270,2.618,-3.364,3.385
2547,0.0123,0.0061,-0.0025,0.40,-0.45,4.85,0.270,2.603,-5.902,3.326
2556,0.0140,0.0053,-0.0028,0.41,-0.40,4.89,0.274,4.492,-4.326,2.583
2567,0.0147,0.0046,-0.0029,0.44,-0.36,4.92,0.274,3.349,-6.067,2.645
2577,0.0159,0.0031,0.0017,0.49,-0.31,4.94,0.274,0.133,-7.512,2.590
2587,0.0218,0.0022,0.0016,0.52,-0.27,4.97,0.274,3.321,-4.479,1.733
2597,0.0223,0.0014,0.0016,0.55,-0.22,5.00,0.274,0.007,-7.047,1.928
2607,0.0273,0.0009,0.0016,0.57,-0.18,5.02,0.274,0.741,-4.994,1.542
2617,0.0277,-0.0001,0.0018,0.58,-0.13,5.04,0.274,-3.467,-8.570,1.230
2626,0.0280,-0.0010,0.0019,0.58,-0.06,5.05,0.274,-3.929,-7.740,1.638
2637,0.0304,-0.0016,0.0048,0.56,-0.00,5.07,0.274,-3.173,-6.075,1.034
2647,0.0306,-0.0016,0.0048,0.56,-0.00,5.07,0.274,-5.281,-9.007,0.950
2657,0.0325,-0.0035,0.0048,0.54,0.06,5.08,0.274,-4.082,-5.565,-0.067
2667,0.0303,-0.0082,0.0051,0.51,0.15,5.09,0.274,-2.932,-9.427,0.194
2676,0.0368,-0.0117,0.0064,0.48,0.19,5.10,0.274,0.443,-5.859,1.187
2687,0.0407,-0.0110,0.0062,0.43,0.24,5.11,0.274,-3.106,-7.576,1.934
2696,0.0367,-0.0090,0.0061,0.38,0.33,5.10,0.274,-5.053,-7.427,0.646
2706,0.0383,-0.0111,0.0059,0.38,0.40,5.11,0.274,-3.859,-7.407,0.142
2716,0.0418,-0.0148,0.0058,0.38,0.45,5.13,0.277,-2.723,-7.688,-0.037
2726,0.0411,-0.0155,0.0059,0.35,0.51,5.14,0.277,-3.316,-6.555,0.683
2737,0.0403,-0.0162,0.0129,0.31,0.58,5.14,0.277,-3.236,-6.973,1.000
2747,0.0394,-0.0168,0.0129,0.29,0.65,5.14,0.277,0.364,-8.026,0.102
2757,0.0381,-0.0206,0.0127,0.28,0.73,5.14,0.276,-0.033,-8.637,-0.910
2767,0.0364,-0.0198,0.0123,0.24,0.79,5.14,0.276,-4.350,-7.321,-1.234
2777,0.0344,-0.0195,0.0124,0.23,0.87,5.15,0.276,-3.009,-6.342,-0.084
2786,0.0368,-0.0210,0.0122,0.23,0.93,5.15,0.276,-7.955,-4.452,-0.445
2797,0.0348,-0.0196,0.0117,0.20,1.01,5.14,0.276,-7.450,-3.687,-0.650
2807,0.0308,-0.0211,0.0112,0.16,1.09,5.14,0.276,-7.716,-2.935,-0.640
2816,0.0275,-0.0238,0.0107,0.11,1.16,5.13,0.275,-7.537,-2.588,-0.772
2826,0.0299,-0.0216,0.0101,0.04,1.18,5.12,0.275,-5.846,-0.881,-1.164
2837,0.0306,-0.0216,0.0057,-0.03,1.20,5.11,0.275,-6.914,-0.220,-1.116
2847,0.0273,-0.0218,0.0050,-0.11,1.23,5.11,0.275,-4.254,0.305,-1.194
2856,0.0245,-0.0241,0.0044,-0.16,1.26,5.10,0.277,-3.358,1.622,-1.341
2867,0.0223,-0.0240,0.0038,-0.22,1.26,5.09,0.277,-2.723,1.675,-1.270
2876,0.0212,-0.0219,0.0053,-0.29,1.25,5.07,0.277,-3.808,2.418,-0.975
2886,0.0191,-0.0263,0.0047,-0.32,1.25,5.06,0.277,-5.263,2.079,-0.491
2897,0.0170,-0.0259,0.0041,-0.34,1.23,5.05,0.277,-1.293,2.131,-1.095
2906,0.0147,-0.0260,0.0038,-0.37,1.21,5.04,0.277,-2.500,1.991,-1.413
2916,0.0126,-0.0255,0.0034,-0.42,1.19,5.03,0.276,-1.742,2.961,-1.680
2927,0.0089,-0.0279,0.0031,-0.43,1.18,5.02,0.276,-4.294,3.918,-1.564
2936,0.0072,-0.0298,0.0013,-0.44,1.16,5.01,0.276,-1.399,3.869,-1.508
2946,0.0108,-0.0213,0.0010,-0.51,1.10,5.00,0.276,-3.222,4.675,-1.079
2957,0.0093,-0.0212,0.0004,-0.54,1.07,4.98,0.277,-4.417,5.747,-1.009
2966,0.0021,-0.0216,-0.0003,-0.56,1.06,4.96,0.277,-3.353,4.909,-0.142
2977,-0.0006,-0.0254,0.0005,-0.57,1.02,4.95,0.277,-2.036,5.413,-0.231
2986,-0.0024,-0.0246,0.0002,-0.61,0.97,4.94,0.277,-2.020,6.841,0.250
2996,-0.0068,-0.0266,-0.0003,-0.63,0.93,4.93,0.277,-0.004,6.307,0.047
3006,-0.0070,-0.0283,-0.0007,-0.64,0.87,4.92,0.277,-1.041,6.430,1.024
3017,-0.0091,-0.0261,-0.0011,-0.67,0.82,4.92,0.276,-0.219,7.952,0.533
3027,-0.0093,-0.0223,-0.0014,-0.70,0.74,4.92,0.276,0.493,7.921,0.972
3036,-0.0110,-0.0222,-0.0031,-0.70,0.68,4.93,0.276,-0.384,9.670,0.922
3047,-0.0124,-0.0205,-0.0035,-0.71,0.61,4.93,0.276,-2.218,9.320,1.136
3057,-0.0135,-0.0193,-0.0040,-0.71,0.53,4.93,0.276,1.491,9.045,1.258
3066,-0.0146,-0.0182,-0.0045,-0.71,0.44,4.94,0.276,2.161,10.956,0.807
3077,-0.0154,-0.0143,-0.0055,-0.73,0.35,4.95,0.276,0.928,10.705,1.420
3086,-0.0176,-0.0149,-0.0059,-0.73,0.26,4.96,0.276,1.242,9.776,2.057
3096,-0.0196,-0.0137,-0.0062,-0.71,0.16,4.97,0.276,1.304,9.240,2.486
3106,-0.0214,-0.0125,-0.0064,-0.70,0.06,4.98,0.276,3.330,8.320,2.412
3116,-0.0174,-0.0105,-0.0065,-0.68,-0.06,5.00,0.275,-0.290,9.296,3.570
3126,-0.0245,-0.0097,-0.0067,-0.68,-0.12,5.03,0.275,2.962,6.789,3.015
3136,-0.0241,-0.0087,-0.0086,-0.67,-0.21,5.05,0.275,1.903,6.669,3.835
3146,-0.0275,-0.0061,-0.0087,-0.67,-0.28,5.08,0.275,-0.328,6.316,3.560
3156,-0.0271,-0.0049,-0.0087,-0.64,-0.35,5.11,0.274,-0.576,4.877,4.916
3166,-0.0266,-0.0042,-0.0086,-0.63,-0.42,5.14,0.274,3.565,3.867,5.492
3176,-0.0260,-0.0030,-0.0109,-0.62,-0.49,5.18,0.274,1.297,3.825,6.923
3186,-0.0235,-0.0038,-0.0108,-0.62,-0.55,5.22,0.274,0.426,4.226,7.067
3196,-0.0227,-0.0027,-0.0107,-0.59,-0.59,5.27,0.274,5.479,4.586,7.029
3206,-0.0225,-0.0002,-0.0105,-0.59,-0.63,5.34,0.274,4.286,5.047,7.466
3217,-0.0215,0.0010,-0.0103,-0.57,-0.67,5.40,0.273,7.980,5.454,6.966
3226,-0.0205,0.0020,-0.0100,-0.53,-0.71,5.48,0.273,6.137,4.870,7.393
3236,-0.0193,0.0031,-0.0120,-0.50,-0.76,5.55,0.273,8.606,3.863,8.238
3246,-0.0181,0.0040,-0.0118,-0.44,-0.82,5.63,0.273,7.297,3.909,8.464
3256,-0.0201,0.0096,-0.0115,-0.41,-0.86,5.70,0.274,4.640,3.523,8.784
3266,-0.0193,0.0083,-0.0114,-0.32,-0.90,5.77,0.274,8.056,2.365,7.515
3276,-0.0167,0.0096,-0.0095,-0.25,-0.95,5.85,0.274,3.358,1.303,8.518
3286,-0.0179,0.0084,-0.0092,-0.19,-0.97,5.93,0.274,3.146,2.510,9.037
3296,-0.0161,0.0089,-0.0088,-0.09,-1.00,6.03,0.274,4.933,2.386,9.843
3306,-0.0144,0.0092,-0.0084,-0.05,-1.02,6.11,0.274,6.214,0.330,9.600
3317,-0.0125,0.0149,-0.0081,-0.04,-1.04,6.19,0.272,5.937,1.461,9.977
3326,-0.0107,0.0152,-0.0076,-0.00,-1.06,6.29,0.272,2.650,1.538,10.223
3337,-0.0089,0.0154,-0.0090,0.06,-1.08,6.39,0.272,2.923,0.059,9.051
3346,-0.0029,0.0208,-0.0085,0.10,-1.11,6.48,0.272,5.835,-0.708,9.866
3356,-0.0014,0.0261,-0.0081,0.11,-1.13,6.58,0.273,3.971,-1.575,10.047
3366,0.0005,0.0261,-0.0075,0.14,-1.13,6.68,0.273,5.145,-2.287,10.937
3376,0.0040,0.0287,-0.0055,0.19,-1.13,6.77,0.273,3.573,-3.031,9.454
3386,0.0052,0.0288,-0.0052,0.24,-1.12,6.87,0.273,4.519,-3.392,10.065
3397,0.0111,0.0251,-0.0048,0.31,-1.11,6.97,0.273,6.462,-4.366,10.581
3406,0.0092,0.0290,-0.0045,0.33,-1.07,7.07,0.273,5.816,-5.575,9.879
3416,0.0146,0.0252,-0.0043,0.40,-1.05,7.17,0.271,5.045,-4.917,10.830
3426,0.0164,0.0247,-0.0038,0.46,-1.00,7.27,0.271,6.347,-5.544,11.052
3436,0.0182,0.0242,-0.0064,0.52,-0.96,7.37,0.271,7.293,-6.281,11.298
3446,0.0200,0.0235,-0.0062,0.59,-0.90,7.48,0.271,6.188,-7.009,11.510
3456,0.0196,0.0229,-0.0058,0.65,-0.83,7.58,0.274,4.850,-7.430,11.366
3466,0.0237,0.0204,-0.0054,0.72,-0.78,7.69,0.274,3.589,-7.236,11.664
3476,0.0253,0.0194,0.0006,0.78,-0.71,7.80,0.274,2.360,-7.233,11.403
3486,0.0353,0.0179,0.0008,0.85,-0.68,7.91,0.274,1.807,-6.799,11.300
3496,0.0366,0.0166,0.0009,0.89,-0.61,8.02,0.274,1.248,-7.140,11.023
3506,0.0373,0.0143,0.0011,0.91,-0.53,8.13,0.274,0.218,-6.962,10.929
3515,0.0379,0.0122,0.0014,0.94,-0.46,8.25,0.273,-1.128,-8.211,11.251
3526,0.0444,0.0134,0.0018,0.94,-0.42,8.36,0.273,0.749,-7.936,10.175
3536,0.0465,0.0118,0.0031,0.95,-0.36,8.47,0.273,0.751,-9.638,9.537
3546,0.0474,0.0103,0.0034,0.95,-0.28,8.57,0.273,-2.399,-10.425,9.745
3556,0.0468,0.0086,0.0038,0.95,-0.18,8.68,0.274,-1.995,-10.599,9.718
3566,0.0473,0.0070,0.0039,0.95,-0.09,8.77,0.274,-0.498,-10.537,8.932
3576,0.0467,0.0032,0.0064,0.95,0.02,8.87,0.274,-3.479,-11.779,8.683
3586,0.0495,0.0026,0.0065,0.94,0.11,8.96,0.274,-1.988,-11.887,8.156
3595,0.0561,0.0025,0.0066,0.92,0.18,9.05,0.274,0.232,-12.145,7.632
3606,0.0603,0.0004,0.0068,0.90,0.27,9.13,0.274,-0.691,-13.030,7.680
3616,0.0602,-0.0024,0.0069,0.89,0.39,9.22,0.273,-1.007,-12.229,7.542
3625,0.0598,-0.0041,0.0071,0.87,0.51,9.29,0.273,-2.513,-12.175,7.356
3636,0.0594,-0.0088,0.0058,0.87,0.64,9.37,0.273,-1.805,-11.763,6.876
3646,0.0547,-0.0119,0.0060,0.85,0.79,9.45,0.273,-2.503,-11.270,6.058
3655,0.0536,-0.0121,0.0059,0.81,0.91,9.52,0.275,-5.213,-10.145,5.805
3667,0.0524,-0.0125,0.0058,0.76,1.02,9.59,0.275,-5.541,-8.229,7.291
3676,0.0553,-0.0141,0.0087,0.72,1.11,9.65,0.275,-5.622,-9.648,5.847
3685,0.0536,-0.0156,0.0087,0.67,1.21,9.72,0.275,-7.761,-7.298,7.349
3696,0.0510,-0.0191,0.0086,0.62,1.31,9.78,0.275,-8.155,-6.243,6.135
3707,0.0485,-0.0246,0.0079,0.57,1.41,9.85,0.275,-9.463,-6.336,5.447
3716,0.0473,-0.0234,0.0075,0.49,1.48,9.92,0.273,-8.581,-5.089,6.558
3725,0.0448,-0.0261,0.0074,0.41,1.55,9.98,0.273,-5.159,-6.319,6.707
3735,0.0420,-0.0273,0.0036,0.31,1.62,10.04,0.273,-7.728,-4.488,6.534
3745,0.0373,-0.0282,0.0035,0.21,1.68,10.11,0.273,-6.960,-4.677,6.715
3755,0.0325,-0.0294,0.0035,0.15,1.75,10.18,0.273,-5.108,-3.251,6.760
3767,0.0296,-0.0302,0.0032,0.08,1.80,10.24,0.273,-5.786,-2.678,7.889
3775,0.0260,-0.0344,0.0005,0.02,1.85,10.31,0.273,-6.536,-0.381,7.110
3786,0.0319,-0.0369,0.0004,-0.03,1.83,10.38,0.273,-7.350,0.669,7.524
3795,0.0281,-0.0392,0.0004,-0.09,1.86,10.46,0.273,-6.303,2.368,7.487
3806,0.0262,-0.0408,0.0003,-0.15,1.86,10.52,0.273,-6.796,3.514,7.356
3815,0.0230,-0.0411,0.0006,-0.22,1.85,10.59,0.275,-7.928,4.491,7.572
3825,0.0197,-0.0406,0.0008,-0.29,1.84,10.66,0.275,-7.564,5.996,7.384
3836,0.0172,-0.0439,0.0037,-0.35,1.81,10.73,0.275,-7.664,6.436,7.334
3846,0.0121,-0.0416,0.0038,-0.45,1.77,10.80,0.275,-7.046,6.052,7.593
3856,0.0104,-0.0443,0.0041,-0.51,1.71,10.87,0.276,-7.693,6.476,7.370
3865,0.0041,-0.0420,0.0043,-0.61,1.66,10.94,0.276,-6.738,6.955,7.249
3876,0.0028,-0.0445,0.0080,-0.66,1.60,11.01,0.276,-6.277,7.328,7.419
3886,-0.0005,-0.0453,0.0083,-0.73,1.54,11.08,0.276,-5.761,7.405,7.583
3896,-0.0033,-0.0445,0.0085,-0.81,1.47,11.15,0.276,-5.125,6.820,7.823
3906,-0.0079,-0.0455,0.0087,-0.87,1.41,11.22,0.276,-6.237,7.927,8.035
3916,-0.0090,-0.0438,0.0091,-0.93,1.33,11.29,0.275,-5.165,8.463,8.310
3926,-0.0139,-0.0409,0.0094,-1.00,1.27,11.37,0.275,-4.404,7.960,8.092
3936,-0.0142,-0.0406,0.0086,-1.06,1.18,11.45,0.275,-4.570,9.488,8.254
3945,-0.0165,-0.0393,0.0088,-1.12,1.10,11.53,0.275,-5.171,9.102,8.321
3955,-0.0218,-0.0399,0.0090,-1.16,1.03,11.61,0.276,-3.664,10.042,8.128
3966,-0.0238,-0.0366,0.0092,-1.22,0.94,11.69,0.276,-2.117,11.109,8.013
3976,-0.0258,-0.0349,0.0097,-1.27,0.84,11.78,0.276,-3.084,10.955,7.805
3985,-0.0330,-0.0400,0.0098,-1.28,0.78,11.86,0.276,-0.661,10.741,7.866
3995,-0.0332,-0.0402,0.0100,-1.30,0.66,11.93,0.276,0.937,11.824,8.319
4006,-0.0393,-0.0379,0.0101,-1.33,0.57,12.01,0.276,1.014,11.510,8.543
4015,-0.0374,-0.0357,0.0104,-1.33,0.44,12.09,0.276,0.042,12.251,8.556
4025,-0.0410,-0.0333,0.0107,-1.34,0.33,12.17,0.276,2.121,12.402,8.640
4035,-0.0407,-0.0302,0.0100,-1.34,0.21,12.25,0.276,-1.171,12.587,8.375
4045,-0.0415,-0.0280,0.0101,-1.33,0.08,12.33,0.276,-0.838,13.079,8.639
4056,-0.0460,-0.0263,0.0099,-1.32,-0.02,12.42,0.277,0.179,13.132,7.980
4065,-0.0466,-0.0234,0.0099,-1.33,-0.15,12.50,0.277,-0.033,12.450,8.306
4075,-0.0474,-0.0189,0.0105,-1.35,-0.29,12.59,0.277,2.199,11.388,8.273
4086,-0.0492,-0.0165,0.0102,-1.35,-0.41,12.66,0.277,1.009,11.247,8.935
4095,-0.0478,-0.0118,0.0102,-1.37,-0.55,12.75,0.277,4.224,9.531,8.030
4105,-0.0474,-0.0093,0.0102,-1.35,-0.67,12.83,0.277,2.734,10.643,8.522
4116,-0.0468,-0.0067,0.0102,-1.34,-0.79,12.91,0.279,4.594,9.990,8.069
4126,-0.0501,-0.0058,0.0099,-1.30,-0.86,12.99,0.279,3.361,8.239,8.535
4136,-0.0553,-0.0033,0.0135,-1.27,-0.95,13.08,0.279,9.592,7.773,7.622
4146,-0.0542,-0.0008,0.0136,-1.22,-1.05,13.16,0.279,5.614,8.435,8.864
4156,-0.0539,0.0021,0.0134,-1.19,-1.14,13.24,0.279,10.159,5.481,8.379
4166,-0.0528,0.0026,0.0133,-1.09,-1.21,13.32,0.279,6.113,7.513,8.763
4176,-0.0493,0.0095,0.0138,-1.05,-1.31,13.40,0.279,10.233,7.638,8.508
4185,-0.0465,0.0097,0.0135,-0.95,-1.38,13.49,0.279,11.234,6.892,8.514
4196,-0.0449,0.0156,0.0131,-0.89,-1.46,13.58,0.279,6.734,7.812,8.092
4206,-0.0428,0.0176,0.0125,-0.79,-1.53,13.66,0.279,10.991,5.512,8.473
4215,-0.0386,0.0212,0.0123,-0.69,-1.61,13.74,0.277,6.670,5.814,8.736
4226,-0.0391,0.0200,0.0120,-0.60,-1.67,13.82,0.277,10.108,2.332,7.476
4236,-0.0367,0.0229,0.0061,-0.50,-1.73,13.91,0.277,13.284,2.956,7.716
4245,-0.0328,0.0265,0.0058,-0.44,-1.80,13.99,0.277,8.021,2.486,8.753
4255,-0.0294,0.0308,0.0055,-0.36,-1.83,14.07,0.274,6.703,1.097,9.200
4265,-0.0252,0.0312,0.0050,-0.22,-1.87,14.15,0.274,11.468,-1.498,8.568
4275,-0.0217,0.0337,-0.0062,-0.14,-1.90,14.23,0.274,13.093,-3.328,9.031
4285,-0.0179,0.0343,-0.0067,-0.06,-1.92,14.33,0.274,9.003,-3.291,9.126
4295,-0.0148,0.0352,-0.0072,0.05,-1.91,14.41,0.274,11.459,-5.065,8.425
4306,-0.0117,0.0347,-0.0076,0.19,-1.87,14.50,0.274,9.229,-6.893,9.476
4316,-0.0085,0.0352,-0.0080,0.29,-1.84,14.59,0.275,11.695,-8.641,9.498
4325,-0.0056,0.0400,-0.0084,0.38,-1.79,14.67,0.275,7.183,-9.582,10.255
4335,-0.0025,0.0401,-0.0120,0.48,-1.72,14.77,0.275,7.371,-9.802,10.536
4346,0.0028,0.0396,-0.0124,0.59,-1.65,14.86,0.275,9.741,-10.885,9.873
4356,0.0070,0.0408,-0.0126,0.67,-1.56,14.97,0.278,8.345,-9.007,11.004
4366,0.0107,0.0437,-0.0128,0.74,-1.47,15.07,0.278,8.576,-10.441,11.369
4375,0.0136,0.0410,-0.0064,0.84,-1.36,15.17,0.278,9.360,-10.953,11.374
4385,0.0192,0.0421,-0.0064,0.91,-1.28,15.28,0.278,11.380,-11.121,11.415
4395,0.0194,0.0399,-0.0062,1.00,-1.16,15.39,0.278,10.213,-10.800,12.697
4405,0.0230,0.0382,-0.0058,1.10,-1.06,15.51,0.278,6.958,-11.713,13.241
4415,0.0248,0.0342,-0.0055,1.21,-0.93,15.62,0.273,6.052,-9.716,14.328
4425,0.0280,0.0321,-0.0050,1.31,-0.82,15.75,0.273,3.458,-12.040,14.616
4436,0.0370,0.0340,-0.0118,1.38,-0.75,15.88,0.273,8.390,-12.756,14.235
4445,0.0429,0.0332,-0.0119,1.45,-0.67,16.02,0.273,0.827,-12.542,15.719
4455,0.0413,0.0309,-0.0116,1.50,-0.53,16.16,0.277,5.640,-13.328,14.684
4465,0.0435,0.0271,-0.0114,1.58,-0.40,16.30,0.277,-1.135,-13.400,17.227
4475,0.0460,0.0281,-0.0050,1.58,-0.28,16.45,0.277,2.618,-16.211,17.215
4485,0.0469,0.0260,-0.0048,1.63,-0.14,16.60,0.277,0.501,-14.493,17.269
4495,0.0531,0.0246,-0.0045,1.64,-0.03,16.76,0.277,2.950,-16.691,17.330
4505,0.0518,0.0210,-0.0042,1.66,0.14,16.93,0.277,0.101,-15.939,17.887
4515,0.0559,0.0172,-0.0041,1.67,0.27,17.10,0.273,-0.643,-15.582,18.196
4525,0.0563,0.0144,-0.0040,1.69,0.44,17.27,0.273,-5.308,-13.264,18.983
4535,0.0614,0.0111,-0.0085,1.69,0.57,17.45,0.273,-3.630,-13.818,19.133
4545,0.0613,0.0081,-0.0085,1.68,0.73,17.63,0.273,-5.266,-12.302,19.263
4555,0.0655,0.0075,-0.0083,1.63,0.84,17.81,0.279,-5.404,-12.464,19.572
4565,0.0614,0.0022,-0.0081,1.60,1.01,18.00,0.279,-5.454,-11.049,19.941
4575,0.0635,0.0011,0.0034,1.53,1.13,18.21,0.279,-6.855,-9.676,20.490
4585,0.0635,-0.0060,0.0034,1.50,1.26,18.40,0.279,-6.183,-9.660,20.690
4595,0.0608,-0.0095,0.0034,1.44,1.38,18.60,0.279,-8.515,-9.136,21.580
4605,0.0580,-0.0132,0.0037,1.37,1.50,18.81,0.279,-8.092,-7.975,20.997
4615,0.0546,-0.0146,0.0039,1.28,1.61,19.02,0.275,-7.900,-8.522,21.214
4625,0.0560,-0.0144,0.0039,1.18,1.68,19.23,0.275,-8.591,-7.582,20.967
4635,0.0557,-0.0196,0.0010,1.12,1.76,19.43,0.275,-8.843,-7.553,21.378
4645,0.0531,-0.0236,0.0008,1.03,1.85,19.65,0.275,-10.787,-7.511,22.423
4655,0.0542,-0.0280,0.0006,0.95,1.92,19.85,0.277,-10.662,-5.551,21.839
4665,0.0517,-0.0306,0.0006,0.86,2.00,20.07,0.277,-10.434,-4.555,21.954
4675,0.0487,-0.0338,0.0035,0.74,2.08,20.29,0.277,-10.228,-3.903,22.576
4685,0.0437,-0.0356,0.0034,0.62,2.14,20.51,0.277,-12.419,-3.112,23.127
4695,0.0397,-0.0349,0.0033,0.49,2.19,20.73,0.277,-12.404,-2.433,23.453
4705,0.0367,-0.0412,0.0031,0.40,2.24,20.95,0.277,-13.206,-2.133,23.583
4715,0.0347,-0.0447,0.0029,0.29,2.27,21.18,0.278,-11.748,-0.490,23.729
4725,0.0344,-0.0473,0.0025,0.16,2.27,21.42,0.278,-10.135,0.399,23.757
4735,0.0302,-0.0493,0.0059,0.02,2.29,21.66,0.278,-10.696,2.580,24.094
4745,0.0258,-0.0495,0.0055,-0.11,2.30,21.90,0.278,-12.513,2.253,23.719
4755,0.0221,-0.0509,0.0049,-0.23,2.29,22.14,0.278,-11.327,4.178,24.426
4765,0.0187,-0.0523,0.0042,-0.35,2.27,22.38,0.278,-12.798,5.301,24.481
4775,0.0125,-0.0504,0.0052,-0.50,2.25,22.63,0.278,-11.613,6.600,24.954
4785,0.0128,-0.0589,0.0048,-0.57,2.20,22.87,0.278,-8.104,6.888,25.311
4795,0.0076,-0.0576,0.0046,-0.72,2.14,23.12,0.278,-12.021,8.652,26.067
4805,0.0027,-0.0602,0.0042,-0.84,2.08,23.38,0.278,-8.211,8.893,25.643
4815,-0.0011,-0.0603,0.0038,-0.94,2.01,23.63,0.277,-8.965,8.882,24.641
4825,-0.0039,-0.0618,0.0034,-1.05,1.92,23.89,0.277,-9.629,9.942,24.995
4835,-0.0085,-0.0588,0.0013,-1.17,1.82,24.15,0.277,-9.642,11.025,25.048
4845,-0.0101,-0.0616,0.0011,-1.25,1.73,24.39,0.277,-10.592,11.110,25.622
4855,-0.0157,-0.0586,0.0007,-1.38,1.63,24.64,0.277,-9.812,12.555,26.196
4865,-0.0196,-0.0585,0.0004,-1.49,1.52,24.89,0.277,-12.579,13.931,26.468
4875,-0.0233,-0.0579,-0.0010,-1.61,1.40,25.15,0.277,-13.704,14.690,26.212
4885,-0.0266,-0.0571,-0.0016,-1.73,1.26,25.41,0.277,-10.124,13.839,25.815
4895,-0.0304,-0.0540,-0.0021,-1.87,1.11,25.67,0.277,-6.089,14.580,27.052
4905,-0.0323,-0.0501,-0.0021,-2.02,0.95,25.93,0.277,-6.924,14.450,26.354
4915,-0.0332,-0.0480,-0.0022,-2.11,0.79,26.18,0.278,-2.950,14.120,27.096
4925,-0.0425,-0.0466,-0.0025,-2.19,0.67,26.45,0.278,-1.746,14.074,25.756
4935,-0.0471,-0.0467,-0.0008,-2.24,0.53,26.70,0.278,-1.335,14.619,25.684
4945,-0.0481,-0.0419,-0.0005,-2.28,0.37,26.97,0.278,0.869,13.490,26.132
4955,-0.0518,-0.0388,-0.0005,-2.30,0.22,27.22,0.278,1.525,14.355,25.725
4965,-0.0523,-0.0341,-0.0005,-2.31,0.06,27.48,0.278,3.114,13.373,26.079
4974,-0.0576,-0.0306,0.0006,-2.31,-0.08,27.74,0.278,2.305,14.167,25.842
4984,-0.0588,-0.0271,0.0007,-2.29,-0.23,27.99,0.278,2.289,13.836,26.473
4995,-0.0613,-0.0242,0.0007,-2.25,-0.38,28.28,0.278,1.936,14.747,26.064
5004,-0.0597,-0.0177,0.0006,-2.23,-0.56,28.53,0.278,2.888,14.534,26.211
5014,-0.0586,-0.0135,0.0006,-2.20,-0.72,28.79,0.274,5.140,14.125,26.273
5025,-0.0639,-0.0072,0.0008,-2.20,-0.86,29.05,0.274,4.134,14.009,26.789
5035,-0.0692,-0.0072,-0.0073,-2.16,-0.97,29.30,0.274,6.773,13.171,26.826
5045,-0.0695,-0.0032,-0.0072,-2.10,-1.12,29.56,0.274,9.053,10.982,25.940
5054,-0.0723,-0.0004,-0.0074,-2.05,-1.25,29.82,0.277,12.026,9.804,26.477
5064,-0.0697,0.0068,-0.0074,-1.99,-1.41,30.08,0.277,13.365,9.906,26.638
5075,-0.0693,0.0138,-0.0046,-1.90,-1.54,30.35,0.277,13.492,9.159,27.118
5085,-0.0692,0.0179,-0.0045,-1.77,-1.65,30.61,0.277,14.641,9.082,27.058
5095,-0.0674,0.0227,-0.0043,-1.64,-1.76,30.87,0.277,15.460,8.100,27.062
5105,-0.0648,0.0294,-0.0043,-1.50,-1.87,31.14,0.277,16.350,8.737,26.613
5114,-0.0625,0.0333,-0.0042,-1.36,-1.97,31.41,0.275,17.197,8.271,27.710
5125,-0.0617,0.0396,-0.0039,-1.21,-2.06,31.68,0.275,15.139,7.576,27.171
5135,-0.0598,0.0439,-0.0062,-1.03,-2.15,31.96,0.275,17.466,7.626,27.633
5145,-0.0564,0.0428,-0.0059,-0.81,-2.23,32.23,0.275,17.768,7.035,27.481
5154,-0.0520,0.0462,-0.0057,-0.63,-2.32,32.50,0.276,17.766,4.499,27.119
5164,-0.0499,0.0532,-0.0058,-0.46,-2.40,32.78,0.276,18.821,2.605,26.944
5175,-0.0483,0.0574,-0.0041,-0.27,-2.45,33.05,0.276,17.557,1.153,27.179
5185,-0.0454,0.0622,-0.0040,-0.09,-2.50,33.33,0.276,17.133,-0.137,27.044
5194,-0.0419,0.0647,-0.0038,0.10,-2.53,33.60,0.276,16.676,-1.474,27.608
5204,-0.0416,0.0692,-0.0034,0.27,-2.53,33.87,0.276,15.894,-2.488,27.572
5214,-0.0373,0.0761,-0.0029,0.43,-2.54,34.14,0.274,16.518,-4.032,27.580
5225,-0.0332,0.0799,-0.0022,0.61,-2.53,34.42,0.274,17.494,-6.314,27.396
5235,-0.0278,0.0783,-0.0047,0.81,-2.50,34.70,0.274,18.338,-7.725,26.386
5245,-0.0240,0.0839,-0.0043,0.96,-2.46,34.98,0.274,18.606,-7.659,27.928
5254,-0.0234,0.0790,-0.0037,1.15,-2.36,35.25,0.277,16.926,-9.272,27.138
5265,-0.0123,0.0871,-0.0032,1.31,-2.33,35.52,0.277,17.115,-11.582,27.450
5275,-0.0107,0.0880,0.0029,1.48,-2.23,35.80,0.277,18.338,-11.004,28.515
5285,-0.0052,0.0854,0.0036,1.68,-2.13,36.07,0.277,18.412,-11.212,28.764
5295,-0.0005,0.0853,0.0044,1.86,-2.01,36.35,0.277,17.627,-10.806,26.691
5304,0.0003,0.0907,0.0051,2.03,-1.89,36.62,0.277,15.842,-12.277,26.924
5314,0.0051,0.0928,0.0059,2.19,-1.78,36.90,0.273,19.975,-14.643,27.811
5324,0.0170,0.0933,0.0065,2.39,-1.69,37.18,0.273,15.459,-13.683,30.132
5335,0.0207,0.0894,0.0011,2.58,-1.54,37.44,0.273,15.333,-13.286,29.597
5345,0.0239,0.0830,0.0017,2.80,-1.36,37.72,0.273,15.257,-14.182,28.358
5354,0.0346,0.0828,0.0021,2.96,-1.25,38.02,0.274,14.299,-15.030,29.119
5364,0.0363,0.0773,0.0027,3.13,-1.07,38.31,0.274,6.116,-15.985,31.078
5375,0.0394,0.0749,0.0018,3.28,-0.90,38.58,0.274,13.838,-16.169,31.333
5384,0.0492,0.0742,0.0025,3.42,-0.77,38.88,0.274,5.419,-16.556,31.271
5394,0.0540,0.0704,0.0031,3.51,-0.59,39.18,0.274,7.236,-17.570,31.689
5405,0.0600,0.0733,0.0037,3.60,-0.45,39.47,0.274,2.403,-19.164,32.334
5414,0.0684,0.0696,0.0042,3.67,-0.26,39.81,0.276,-0.450,-19.901,33.078
5424,0.0706,0.0620,0.0045,3.72,-0.05,40.12,0.276,-1.796,-20.051,33.271
5434,0.0828,0.0628,0.0080,3.75,0.10,40.43,0.276,-0.461,-20.315,32.295
5444,0.0848,0.0564,0.0085,3.75,0.33,40.75,0.276,-4.676,-21.992,33.160
5454,0.0887,0.0522,0.0088,3.73,0.56,41.07,0.279,-5.353,-21.008,33.434
5464,0.0936,0.0490,0.0090,3.71,0.77,41.38,0.279,-5.174,-22.097,35.234
5474,0.1016,0.0491,0.0164,3.66,0.97,41.70,0.279,-7.024,-22.559,34.220
5484,0.1002,0.0415,0.0167,3.59,1.23,42.02,0.279,-5.067,-21.144,35.088
5494,0.1006,0.0316,0.0169,3.53,1.50,42.37,0.279,-6.212,-20.326,34.568
5504,0.0980,0.0218,0.0168,3.45,1.78,42.70,0.279,-5.566,-20.167,35.087
5514,0.0968,0.0109,0.0166,3.40,2.04,43.05,0.279,-8.651,-18.923,35.507
5524,0.1083,0.0127,0.0163,3.33,2.19,43.37,0.279,-6.014,-18.669,35.281
5534,0.1134,0.0064,0.0184,3.26,2.38,43.71,0.279,-9.379,-16.728,34.768
5544,0.1095,-0.0028,0.0179,3.16,2.63,44.06,0.279,-9.984,-14.802,35.072
5554,0.1080,-0.0098,0.0171,3.07,2.84,44.41,0.277,-12.841,-13.709,35.249
5565,0.1118,-0.0173,0.0160,2.98,3.00,44.75,0.277,-12.439,-12.658,34.813
5574,0.1118,-0.0185,0.0106,2.83,3.15,45.09,0.277,-17.134,-11.519,35.353
5584,0.1115,-0.0310,0.0092,2.71,3.33,45.44,0.277,-18.762,-9.223,35.773
5594,0.1087,-0.0339,0.0078,2.53,3.46,45.78,0.277,-22.004,-10.406,37.040
5604,0.1089,-0.0440,0.0063,2.35,3.59,46.13,0.277,-21.625,-9.988,36.542
5614,0.1052,-0.0501,0.0053,2.11,3.71,46.49,0.278,-23.305,-9.498,37.088
5624,0.1021,-0.0591,0.0040,1.87,3.84,46.86,0.278,-24.055,-8.079,36.430
5634,0.0999,-0.0665,0.0010,1.63,3.95,47.23,0.278,-24.386,-8.383,36.501
5644,0.1004,-0.0699,-0.0002,1.36,4.03,47.60,0.278,-24.309,-6.817,36.078
5654,0.0967,-0.0819,-0.0014,1.11,4.14,47.96,0.279,-26.386,-6.022,36.680
5664,0.0933,-0.0901,-0.0026,0.84,4.23,48.33,0.279,-25.692,-4.357,36.222
5674,0.0874,-0.0956,-0.0024,0.55,4.31,48.70,0.279,-26.028,-2.688,35.862
5685,0.0871,-0.1013,-0.0035,0.28,4.35,49.06,0.279,-26.643,-0.791,35.698
5694,0.0821,-0.1068,-0.0045,0.00,4.39,49.43,0.279,-28.252,1.425,35.876
5704,0.0783,-0.1127,-0.0056,-0.28,4.41,49.79,0.279,-28.062,2.845,35.777
5714,0.0731,-0.1169,-0.0069,-0.58,4.42,50.15,0.282,-31.293,5.071,35.924
5724,0.0703,-0.1224,-0.0080,-0.87,4.38,50.50,0.282,-29.851,6.260,35.372
5734,0.0604,-0.1262,-0.0005,-1.20,4.36,50.86,0.282,-27.136,6.441,35.414
5744,0.0575,-0.1325,-0.0011,-1.49,4.29,51.21,0.282,-27.372,8.513,35.331
5754,0.0495,-0.1340,-0.0016,-1.83,4.21,51.57,0.279,-28.994,8.091,35.641
5764,0.0417,-0.1352,-0.0022,-2.14,4.12,51.93,0.279,-29.315,7.873,35.140
5774,0.0333,-0.1393,-0.0045,-2.44,4.03,52.29,0.279,-27.031,9.609,33.812
5785,0.0275,-0.1391,-0.0047,-2.76,3.91,52.63,0.279,-26.778,9.277,34.480
5794,0.0211,-0.1441,-0.0051,-3.06,3.82,52.98,0.279,-23.914,9.070,34.016
5804,0.0122,-0.1445,-0.0054,-3.37,3.70,53.32,0.279,-21.416,12.033,33.402
5814,0.0062,-0.1487,-0.0054,-3.62,3.58,53.65,0.279,-20.039,15.026,32.360
5824,-0.0038,-0.1475,-0.0052,-3.89,3.46,53.99,0.279,-20.928,15.606,31.666
5834,-0.0125,-0.1491,-0.0057,-4.13,3.29,54.34,0.279,-18.099,17.648,31.501
5844,-0.0205,-0.1454,-0.0057,-4.36,3.10,54.65,0.279,-17.316,20.027,31.555
5854,-0.0334,-0.1455,-0.0059,-4.60,2.92,54.96,0.281,-17.314,21.075,31.252
5864,-0.0431,-0.1470,-0.0060,-4.79,2.73,55.26,0.281,-16.636,21.152,30.823
5874,-0.0525,-0.1481,-0.0015,-4.97,2.51,55.55,0.281,-14.641,21.807,30.896
5884,-0.0600,-0.1436,-0.0014,-5.16,2.25,55.85,0.281,-13.037,22.616,30.315
5894,-0.0709,-0.1476,-0.0014,-5.31,2.03,56.13,0.281,-12.891,23.612,30.369
5904,-0.0801,-0.1405,-0.0014,-5.48,1.75,56.42,0.281,-11.862,26.147,30.208
5914,-0.0913,-0.1392,-0.0013,-5.62,1.50,56.71,0.277,-9.608,26.172,29.513
5924,-0.1016,-0.1340,-0.0010,-5.76,1.22,56.99,0.277,-7.202,29.084,30.075
5934,-0.1135,-0.1320,-0.0071,-5.87,0.95,57.26,0.277,-6.170,29.570,29.689
5944,-0.1231,-0.1274,-0.0072,-5.97,0.64,57.53,0.277,-5.402,31.076,29.246
5954,-0.1337,-0.1251,-0.0074,-6.04,0.34,57.79,0.283,-2.446,31.868,29.750
5964,-0.1393,-0.1155,-0.0072,-6.10,-0.02,58.06,0.283,-3.055,33.367,30.175
5974,-0.1500,-0.1140,0.0030,-6.14,-0.34,58.31,0.283,-0.338,34.710,29.491
5984,-0.1556,-0.1028,0.0029,-6.16,-0.73,58.58,0.283,1.464,35.730,29.442
5994,-0.1615,-0.0926,0.0028,-6.18,-1.12,58.85,0.283,2.882,36.825,30.383
6004,-0.1748,-0.0866,0.0021,-6.19,-1.48,59.11,0.283,3.783,36.544,29.936
6014,-0.1772,-0.0788,0.0018,-6.14,-1.89,59.37,0.281,7.469,36.966,30.428
6024,-0.1894,-0.0702,0.0008,-6.12,-2.28,59.63,0.281,9.780,35.713,30.342
6034,-0.1952,-0.0611,0.0018,-6.05,-2.68,59.90,0.281,12.239,34.744,30.255
6044,-0.2080,-0.0528,0.0006,-5.99,-3.05,60.16,0.281,13.751,33.676,29.553
6054,-0.2080,-0.0404,-0.0003,-5.85,-3.47,60.44,0.278,13.487,33.667,30.390
6064,-0.2216,-0.0310,-0.0019,-5.75,-3.82,60.70,0.278,19.609,31.037,31.141
6074,-0.2224,-0.0209,-0.0089,-5.56,-4.20,60.97,0.278,19.681,32.077,31.689
6084,-0.2328,-0.0091,-0.0108,-5.40,-4.54,61.24,0.278,19.857,32.557,31.549
6093,-0.2327,0.0062,-0.0125,-5.17,-4.92,61.54,0.278,24.028,31.916,32.226
6104,-0.2413,0.0175,-0.0146,-4.96,-5.25,61.82,0.278,28.327,30.879,32.387
6114,-0.2400,0.0292,-0.0163,-4.70,-5.62,62.11,0.277,29.692,30.328,31.396
6123,-0.2462,0.0416,-0.0185,-4.44,-5.95,62.40,0.277,31.730,30.618,31.867
6134,-0.2450,0.0572,-0.0246,-4.11,-6.31,62.71,0.277,33.535,31.216,33.495
6144,-0.2507,0.0694,-0.0269,-3.79,-6.62,62.99,0.277,38.118,29.968,32.388
6154,-0.2445,0.0848,-0.0290,-3.41,-6.99,63.32,0.274,38.587,30.690,33.234
6164,-0.2488,0.0984,-0.0316,-3.04,-7.30,63.63,0.274,37.659,30.284,32.893
6174,-0.2429,0.1140,-0.0401,-2.59,-7.65,63.95,0.274,37.585,28.311,33.325
6184,-0.2438,0.1298,-0.0424,-2.19,-7.97,64.28,0.274,40.123,26.002,33.009
6194,-0.2383,0.1423,-0.0448,-1.74,-8.28,64.61,0.274,41.161,23.936,33.010
6204,-0.2274,0.1574,-0.0473,-1.27,-8.60,64.96,0.274,40.354,20.732,33.962
6213,-0.2273,0.1738,-0.0498,-0.85,-8.86,65.29,0.275,44.111,16.949,33.789
6223,-0.2191,0.1860,-0.0515,-0.36,-9.09,65.63,0.275,43.562,14.529,33.483
6234,-0.2187,0.2034,-0.0495,0.08,-9.29,65.96,0.275,46.770,11.090,33.399
6244,-0.2080,0.2168,-0.0514,0.60,-9.45,66.31,0.275,49.893,5.998,33.056
6253,-0.2016,0.2385,-0.0538,1.13,-9.62,66.68,0.275,50.626,3.297,33.077
6264,-0.1890,0.2513,-0.0554,1.70,-9.71,67.04,0.275,52.479,0.876,33.706
6274,-0.1807,0.2690,-0.0504,2.25,-9.75,67.37,0.275,53.429,-3.279,33.280
6283,-0.1680,0.2817,-0.0515,2.84,-9.76,67.72,0.275,53.967,-5.136,33.737
6293,-0.1602,0.3007,-0.0532,3.39,-9.76,68.05,0.275,54.243,-8.636,33.963
6303,-0.1455,0.3091,-0.0533,4.02,-9.68,68.40,0.275,55.894,-12.949,33.603
6313,-0.1378,0.3280,-0.0541,4.57,-9.60,68.71,0.271,52.867,-13.878,34.479
6323,-0.1243,0.3332,-0.0537,5.18,-9.43,69.05,0.271,53.912,-18.531,34.188
6333,-0.1114,0.3514,-0.0524,5.78,-9.31,69.37,0.271,51.060,-23.958,34.546
6344,-0.0931,0.3609,-0.0519,6.38,-9.11,69.72,0.271,54.899,-25.697,33.784
6354,-0.0831,0.3726,-0.0509,6.93,-8.85,70.01,0.281,58.421,-30.036,32.812
6364,-0.0698,0.3745,-0.0492,7.49,-8.51,70.31,0.281,53.723,-31.185,33.379
6374,-0.0602,0.3870,-0.0217,8.06,-8.18,70.59,0.281,52.024,-33.020,32.973
6384,-0.0395,0.3887,-0.0200,8.69,-7.79,70.89,0.281,49.774,-35.606,33.033
6394,-0.0267,0.4009,-0.0183,9.20,-7.42,71.14,0.281,46.931,-37.806,34.265
6404,-0.0143,0.3951,-0.0150,9.76,-6.95,71.40,0.281,49.668,-37.500,33.747
6414,0.0049,0.3959,-0.0129,10.27,-6.51,71.67,0.283,44.989,-39.180,34.871
6424,0.0125,0.3997,-0.0101,10.72,-6.04,71.88,0.283,43.306,-38.722,34.801
6434,0.0425,0.4044,0.0138,11.27,-5.60,72.20,0.283,38.589,-39.535,35.979
6443,0.0547,0.4045,0.0164,11.71,-5.11,72.43,0.283,41.554,-41.092,35.744
6453,0.0753,0.3975,0.0183,12.15,-4.60,72.71,0.283,34.311,-41.878,36.091
6464,0.0868,0.3959,0.0206,12.52,-4.09,72.93,0.283,32.529,-42.925,35.755
6474,0.1049,0.3839,0.0311,12.92,-3.52,73.21,0.283,29.043,-46.472,36.661
6484,0.1397,0.4039,0.0304,13.28,-3.17,73.45,0.283,33.294,-45.549,36.794
6494,0.1554,0.3891,0.0319,13.59,-2.56,73.72,0.283,28.220,-48.403,37.681
6503,0.1688,0.3822,0.0332,13.86,-1.98,73.94,0.283,25.556,-50.394,37.225
6514,0.1946,0.3754,0.0328,14.17,-1.42,74.21,0.275,23.289,-52.047,36.792
6523,0.2211,0.3786,0.0314,14.44,-0.89,74.42,0.275,24.947,-53.610,36.728
6533,0.2395,0.3625,0.0112,14.68,-0.26,74.66,0.275,19.723,-53.144,37.808
6543,0.2658,0.3633,0.0094,14.91,0.31,74.86,0.275,17.702,-58.729,37.570
6553,0.2802,0.3403,0.0083,15.11,1.04,75.12,0.277,14.059,-60.336,39.351
6564,0.3192,0.3522,0.0030,15.34,1.53,75.28,0.277,9.663,-63.187,40.102
6573,0.3362,0.3330,-0.0081,15.48,2.27,75.52,0.277,3.724,-65.871,41.070
6583,0.3633,0.3274,-0.0131,15.59,2.94,75.72,0.277,2.619,-68.764,41.030
6593,0.3773,0.3027,-0.0176,15.61,3.77,76.00,0.277,-2.190,-70.502,42.111
6604,0.3953,0.2856,-0.0231,15.61,4.57,76.23,0.277,-5.354,-72.344,43.138
6613,0.4064,0.2578,-0.0285,15.55,5.47,76.52,0.271,-11.800,-72.963,43.957
6624,0.4254,0.2404,-0.0354,15.47,6.30,76.76,0.271,-12.484,-76.142,44.730
6634,0.4395,0.2164,-0.0628,15.36,7.17,77.01,0.271,-17.847,-76.385,45.941
6643,0.4611,0.2002,-0.0718,15.21,8.00,77.25,0.271,-23.737,-76.740,46.271
6653,0.4822,0.1830,-0.0817,15.01,8.85,77.49,0.272,-27.068,-75.056,46.760
6663,0.4924,0.1519,-0.0917,14.73,9.82,77.83,0.272,-32.907,-73.288,46.346
6673,0.4877,0.1147,-0.1065,14.27,10.90,78.24,0.272,-38.878,-70.415,48.184
6684,0.4970,0.1220,-0.1068,14.32,10.84,78.18,0.272,-42.041,-66.591,48.460
6693,0.5314,0.0737,-0.1316,13.54,12.53,78.80,0.272,-49.014,-63.039,48.436
6704,0.5315,0.0780,-0.1312,13.54,12.50,78.77,0.272,-52.417,-58.779,49.214
6713,0.5667,0.0263,-0.1584,12.55,14.06,79.46,0.265,-54.937,-54.699,48.926
6723,0.5511,0.0179,-0.1573,12.46,14.14,79.57,0.265,-57.549,-49.996,49.251
6734,0.5893,-0.0306,-0.1881,11.29,15.47,80.26,0.265,-62.613,-45.839,49.732
6743,0.5833,-0.0309,-0.1875,11.25,15.48,80.29,0.265,-63.026,-42.074,49.341
6753,0.6309,-0.0782,-0.2162,9.97,16.57,80.98,0.256,-64.549,-39.894,49.952
6763,0.6118,-0.0805,-0.2141,9.85,16.62,81.09,0.256,-69.870,-37.631,48.996
6774,0.6490,-0.1401,-0.2482,8.44,17.62,81.92,0.256,-71.673,-36.980,49.586
6784,0.6541,-0.1616,-0.2608,7.58,18.04,82.35,0.256,-72.277,-35.103,48.838
6794,0.6659,-0.1945,-0.2755,6.76,18.50,82.83,0.256,-76.851,-34.670,48.578
6804,0.6660,-0.2223,-0.2876,5.83,18.91,83.34,0.256,-78.735,-35.126,48.835
6814,0.6909,-0.2495,-0.3017,5.07,19.25,83.65,0.245,-80.582,-32.029,48.514
6824,0.6886,-0.2762,-0.3112,4.07,19.62,84.16,0.245,-83.555,-31.951,49.004
6833,0.7141,-0.3089,-0.3145,3.24,19.95,84.52,0.245,-86.797,-31.743,47.784
6843,0.7093,-0.3376,-0.3231,2.19,20.28,85.06,0.245,-90.420,-27.415,46.563
6853,0.6999,-0.3625,-0.3292,1.09,20.58,85.60,0.231,-92.554,-22.711,46.636
6863,0.7134,-0.3666,-0.3316,1.20,20.59,85.50,0.231,-95.472,-21.379,44.801
6873,0.7008,-0.3966,-0.3359,0.03,20.87,86.10,0.231,-94.417,-19.327,44.535
6883,0.7130,-0.4366,-0.3444,-0.94,21.14,86.47,0.231,-97.075,-16.182,43.987
6893,0.6974,-0.4641,-0.3466,-2.15,21.30,87.05,0.231,-91.401,-14.474,43.220
6904,0.7075,-0.5024,-0.3525,-3.16,21.49,87.36,0.231,-90.932,-12.435,41.409
6913,0.6874,-0.5294,-0.3510,-4.40,21.58,87.95,0.215,-87.396,-12.711,41.346
6923,0.6927,-0.5703,-0.3544,-5.39,21.70,88.25,0.215,-83.493,-11.738,40.753
6933,0.6728,-0.5961,-0.3418,-6.55,21.70,88.81,0.215,-83.325,-12.707,38.793
6943,0.6787,-0.6329,-0.3417,-7.45,21.76,89.00,0.215,-83.387,-10.208,39.057
6953,0.6591,-0.6555,-0.3356,-8.53,21.72,89.46,0.198,-85.430,-8.736,39.019
6963,0.6584,-0.6971,-0.3356,-9.36,21.81,89.67,0.198,-85.297,-7.536,37.918
6973,0.6297,-0.7194,-0.3363,-10.45,21.74,90.18,0.198,-83.397,-9.034,37.224
6983,0.6277,-0.7618,-0.3351,-11.26,21.79,90.33,0.198,-84.544,-6.949,36.095
6994,0.5991,-0.7853,-0.3271,-12.34,21.68,90.84,0.198,-82.588,-7.042,35.784
7003,0.5934,-0.8267,-0.3257,-13.15,21.70,90.97,0.198,-84.781,-6.370,34.198
7013,0.5537,-0.8539,-0.3176,-14.30,21.58,91.62,0.187,-80.882,-6.335,35.079
7023,0.5469,-0.9011,-0.3184,-15.08,21.64,91.68,0.187,-73.933,-4.010,32.454
7033,0.5128,-0.9303,-0.3051,-16.14,21.49,92.22,0.187,-69.929,-0.907,31.962
7043,0.4919,-0.9813,-0.3074,-16.99,21.55,92.43,0.187,-62.126,1.791,31.323
7053,0.4532,-1.0042,-0.2982,-18.01,21.35,92.97,0.169,-53.828,5.917,30.515
7063,0.4137,-1.0265,-0.2881,-18.94,21.11,93.50,0.169,-42.314,10.675,31.041
7073,0.3960,-1.0496,-0.2982,-19.52,20.99,93.42,0.169,-41.439,14.807,30.096
7083,0.3391,-1.0875,-0.2981,-20.44,20.77,94.13,0.169,-34.553,23.298,28.983
7093,0.3028,-1.1172,-0.2921,-21.02,20.49,94.46,0.169,-26.681,29.544,28.776
7103,0.2580,-1.1207,-0.2694,-21.67,19.87,95.11,0.169,-16.318,37.756,29.794
7113,0.2395,-1.1370,-0.2514,-21.94,19.42,95.15,0.158,-10.484,44.239,29.191
7123,0.2028,-1.1372,-0.2257,-22.32,18.70,95.66,0.158,-4.321,52.359,33.678
7133,0.1911,-1.1889,-0.2536,-22.24,18.63,94.92,0.158,-1.424,55.751,34.105
7143,0.1354,-1.2283,-0.2571,-22.58,18.11,95.32,0.158,-4.624,60.242,37.652
7153,0.1427,-1.2350,-0.2276,-22.25,17.39,94.91,0.134,-5.261,60.628,40.211
7163,0.1330,-1.2253,-0.1923,-22.08,16.40,95.06,0.134,-10.633,64.214,44.848
7173,0.1228,-1.2212,-0.2347,-21.89,15.78,94.48,0.134,-15.456,67.322,47.357
7183,0.1092,-1.2142,-0.2093,-21.78,14.77,94.65,0.134,-16.997,70.539,50.416
7193,0.1310,-1.2127,-0.1808,-21.39,13.89,94.20,0.134,-24.401,68.128,50.773
7203,0.1268,-1.1947,-0.1482,-21.32,12.74,94.45,0.134,-22.319,63.935,51.423
7213,0.1299,-1.1837,-0.1182,-21.21,11.65,94.50,0.117,-27.414,55.121,52.784
7223,0.1136,-1.1762,-0.0931,-21.30,10.56,94.82,0.117,-21.322,43.037,56.959
7233,0.1997,-1.0955,-0.1472,-20.74,9.53,93.80,0.117,-22.371,32.914,58.945
7243,0.2303,-1.0616,-0.1187,-20.55,8.45,93.79,0.117,-25.047,21.789,58.869
7253,0.2033,-1.0372,-0.0956,-20.78,7.44,94.52,0.103,-19.819,13.371,58.267
7263,0.1609,-1.0064,-0.0699,-21.08,6.43,95.59,0.103,-13.344,2.065,56.604
7273,0.1509,-0.9048,-0.1472,-21.30,5.34,96.58,0.103,-8.784,-11.160,59.273
7283,0.1241,-0.9189,-0.1389,-21.48,4.99,96.91,0.103,-4.695,-21.028,58.981
7292,0.1185,-0.8876,-0.1098,-21.43,4.39,97.57,0.103,-4.009,-25.964,59.774
7302,0.1086,-0.8775,-0.0886,-21.33,4.08,98.09,0.103,-1.064,-28.402,58.825
7313,0.0796,-0.8637,-0.0668,-21.33,3.81,98.92,0.089,4.499,-33.532,58.930
7323,0.0542,-0.8897,-0.0628,-21.32,3.97,99.27,0.089,4.108,-32.939,57.462
7333,0.0425,-0.8309,-0.1595,-21.37,3.68,100.31,0.089,11.579,-28.659,57.578
7343,0.0166,-0.8600,-0.1575,-21.30,3.93,100.67,0.089,32.930,-20.061,56.551
7353,-0.0064,-0.8533,-0.1320,-21.15,3.86,101.47,0.083,67.551,-9.965,54.501
7363,-0.0377,-0.8361,-0.0987,-20.99,3.65,102.47,0.083,105.243,2.218,49.730
7373,-0.0410,-0.7488,-0.1346,-20.54,2.95,103.98,0.083,142.095,14.004,47.491
7383,-0.0604,-0.7299,-0.1058,-19.81,2.62,104.82,0.083,171.326,19.869,45.011
7393,-0.0700,-0.6891,-0.0632,-18.58,2.06,105.81,0.083,192.134,25.141,43.365
7403,-0.0971,-0.6635,-0.0355,-17.15,1.51,106.67,0.083,198.628,27.112,42.099
7412,-0.0916,-0.6421,-0.0063,-15.20,1.01,107.26,0.066,191.548,24.523,39.750
7422,-0.1015,-0.6078,0.0218,-13.09,0.36,108.09,0.066,172.152,17.972,37.380
7433,-0.0360,-0.4952,-0.0734,-10.49,-0.62,109.55,0.066,144.363,8.875,35.186
7443,-0.0257,-0.4512,-0.0560,-8.18,-1.22,110.38,0.066,113.766,0.976,33.610
7452,-0.0271,-0.4295,-0.0438,-6.19,-1.62,110.97,0.051,78.272,-9.720,32.214
7463,-0.0177,-0.3996,-0.0335,-4.39,-1.93,111.62,0.051,37.039,-24.136,28.222
7473,0.0065,-0.2910,-0.1233,-2.72,-2.58,113.26,0.051,3.197,-32.785,27.016
7482,0.0311,-0.2537,-0.1214,-1.48,-2.68,113.94,0.051,-21.838,-38.769,28.201
7492,0.0142,-0.2455,-0.1097,-1.00,-2.55,114.28,0.051,-39.429,-47.342,27.131
7503,0.0148,-0.2401,-0.1006,-0.80,-2.26,114.57,0.051,-48.064,-50.467,26.041
7512,0.0050,-0.2155,-0.0895,-0.90,-2.04,115.03,0.047,-50.215,-48.162,25.202
7523,0.0044,-0.2170,-0.0788,-1.24,-1.52,115.31,0.047,-37.176,-43.645,22.914
7533,-0.0073,-0.1698,-0.1239,-1.71,-1.28,116.20,0.047,-29.774,-36.494,23.434
7542,0.0002,-0.1793,-0.1134,-2.17,-0.71,116.43,0.047,-17.145,-29.977,25.159
7553,-0.0041,-0.1801,-0.1016,-2.57,-0.28,116.68,0.042,1.389,-19.288,26.685
7563,-0.0088,-0.1820,-0.0897,-2.88,0.09,116.93,0.042,20.481,-4.846,24.511
7573,-0.0136,-0.1537,-0.1096,-3.00,0.18,117.53,0.042,39.565,10.632,23.043
7582,0.0071,-0.1429,-0.0949,-2.79,0.38,117.98,0.042,48.137,23.642,22.446
7593,-0.0104,-0.1503,-0.0810,-2.72,0.42,118.15,0.042,57.118,32.903,22.275
7603,-0.0091,-0.1406,-0.0666,-2.27,0.27,118.47,0.042,61.438,37.515,20.353
7612,-0.0196,-0.1353,-0.0535,-1.81,-0.03,118.69,0.040,63.597,34.616,20.154
7622,0.0047,-0.1483,-0.0430,-1.10,-0.18,119.00,0.040,58.371,24.752,19.841
7633,0.0056,-0.1245,-0.0429,-0.40,-0.70,119.39,0.040,39.941,10.629,20.449
7643,0.0132,-0.1060,-0.0271,0.36,-1.13,119.73,0.040,19.373,1.485,18.373
7652,0.0131,-0.0690,-0.0110,1.10,-1.61,120.07,0.052,8.892,-6.069,15.288
7663,0.0148,-0.0644,0.0042,1.57,-1.75,120.28,0.052,-5.329,-17.889,15.424
7673,0.0148,-0.0629,0.0400,1.82,-1.76,120.39,0.052,-14.114,-27.195,13.975
7682,-0.0024,-0.0267,0.0565,1.91,-1.98,120.51,0.052,-21.665,-33.618,12.116
7693,0.0023,0.0327,0.0685,2.14,-2.16,120.86,0.052,-20.341,-32.579,13.791
7703,-0.0033,0.0316,0.0848,1.95,-1.89,120.91,0.052,-16.479,-26.773,11.905
7712,0.0015,0.0293,0.1003,1.75,-1.50,121.04,0.051,-10.359,-26.418,14.933
7723,-0.0373,0.0483,0.1144,1.31,-1.44,120.83,0.051,-2.633,-19.067,15.474
7733,-0.0058,0.0482,0.1315,1.35,-1.00,121.21,0.051,7.140,-14.308,16.799
7742,-0.0381,0.0542,0.1460,1.01,-0.90,121.04,0.051,18.198,-9.300,15.942
7752,-0.0412,0.0549,0.1604,0.95,-0.70,121.15,0.069,18.237,-4.826,14.400
7762,-0.0293,0.0490,0.1761,1.08,-0.44,121.41,0.069,19.764,0.446,13.004
7773,-0.0259,0.0562,0.2133,1.28,-0.35,121.55,0.069,17.692,4.487,10.987
7782,-0.0208,0.0656,0.2263,1.52,-0.32,121.74,0.069,10.627,5.264,13.019
7792,-0.0189,0.0543,0.2400,1.66,-0.23,121.86,0.069,3.600,3.697,17.073
7802,-0.0109,0.0639,0.2513,1.91,-0.28,122.03,0.069,2.859,7.597,17.995
7813,0.0032,0.0479,0.2629,2.03,-0.16,122.27,0.073,-0.185,10.300,19.608
7822,-0.0157,0.0619,0.2730,1.95,-0.37,122.21,0.073,-0.183,10.238,18.564
7833,0.0223,0.0546,0.2768,2.17,-0.20,122.75,0.073,-1.397,5.904,21.747
7843,-0.0252,0.0476,0.2886,1.77,-0.47,122.44,0.073,-2.473,-4.030,22.073
7852,-0.0302,0.0504,0.2966,1.72,-0.60,122.56,0.093,-12.608,-24.301,29.195
7862,-0.0281,0.0530,0.3041,1.71,-0.65,122.77,0.093,-95.728,-104.636,45.826
7872,-0.0213,0.0558,0.3184,1.73,-0.59,123.04,0.093,-68.650,-101.573,41.697
7883,0.0163,0.0387,0.3288,1.73,-0.02,123.70,0.093,146.073,-177.390,345.470
7892,-0.0128,0.0170,0.3444,0.44,1.03,123.86,0.093,357.676,-186.889,537.246
7902,-0.0021,-0.0004,0.3476,-0.28,2.23,124.42,0.093,427.480,-173.768,640.668
7912,-0.0007,-0.0035,0.3381,0.56,3.85,127.12,0.111,514.083,-175.638,651.626
7922,0.0429,0.0001,0.3257,3.77,6.07,132.83,0.111,1323.208,780.691,353.418
7932,0.0940,0.0032,0.3061,7.51,8.70,139.13,0.111,1384.387,874.748,322.761
7942,0.1504,0.0435,0.2687,11.85,11.45,145.66,0.111,1447.630,982.155,295.732
7952,0.1520,0.1777,0.1450,22.91,6.73,151.03,0.111,1741.494,200.566,-196.419
7962,0.1062,0.3294,-0.0476,36.88,-0.54,157.28,0.111,2004.306,-2071.313,-1648.027
7972,0.0654,0.5167,-0.2824,52.47,-6.42,165.46,0.111,1999.830,-1997.919,-1509.094
7982,0.1617,0.9558,-0.3925,69.85,-8.28,170.46,0.111,141.783,-1438.180,-955.164
7992,0.6992,1.7061,-0.5911,85.75,-18.05,149.17,0.111,-287.951,-1081.422,-910.003
