time_ms,pos_x,pos_y,pos_z,vel_x,vel_y,vel_z,roll,pitch,yaw,thrust,range_z,gyro_x,gyro_y,gyro_z,acc_x,acc_y,acc_z,rate_roll,rate_pitch,rate_yaw
0,-0.1673,-0.2756,0.0085,-0.0685,0.0780,-0.0041,0.11,0.03,41.78,0,0.008,0.023,-0.218,-0.166,0.001,0.016,1.000,0.000,0.000,0.000
0,-0.1672,-0.2747,0.0085,-0.0651,0.0798,-0.0035,0.18,0.04,41.74,0,0.009,0.052,0.004,0.047,0.001,0.018,0.999,0.000,0.000,0.000
8,-0.1667,-0.2757,0.0087,-0.0589,0.0709,-0.0017,0.20,0.08,41.69,0,0.009,-0.070,0.103,-0.185,0.000,0.018,1.000,0.000,0.000,0.000
8,-0.1662,-0.2762,0.0089,-0.0538,0.0651,-0.0004,-0.07,0.06,41.65,0,0.009,0.293,-0.077,-0.272,-0.000,0.019,0.999,0.000,0.000,0.000
8,-0.1673,-0.2766,0.0089,-0.0575,0.0601,-0.0001,0.02,0.08,41.61,0,0.009,-0.024,0.203,-0.254,-0.000,0.017,0.998,0.000,0.000,0.000
8,-0.1716,-0.2711,0.0082,-0.0791,0.0885,-0.0050,0.08,0.08,41.57,0,0.009,0.214,-0.129,-0.153,0.000,0.016,0.998,0.000,0.000,0.000
8,-0.1714,-0.2720,0.0088,-0.0743,0.0797,-0.0014,-0.04,0.04,41.53,0,0.009,0.116,-0.367,0.306,0.002,0.016,0.999,0.000,0.000,0.000
8,-0.1712,-0.2722,0.0089,-0.0704,0.0755,-0.0002,-0.04,0.05,41.49,0,0.009,-0.066,0.006,0.014,0.003,0.018,0.998,0.000,0.000,0.000
9,-0.1732,-0.2687,0.0086,-0.0787,0.0920,-0.0028,0.04,0.07,41.45,0,0.009,-0.068,-0.098,-0.042,0.001,0.018,1.001,0.000,0.000,0.000
9,-0.1738,-0.2680,0.0086,-0.0793,0.0925,-0.0027,0.06,0.04,41.41,0,0.009,0.103,-0.095,-0.227,-0.000,0.016,1.005,0.000,0.000,0.000
9,-0.1738,-0.2687,0.0089,-0.0756,0.0847,-0.0009,0.18,0.04,41.36,0,0.009,0.026,0.034,-0.173,-0.001,0.014,1.004,0.000,0.000,0.000
9,-0.1737,-0.2678,0.0090,-0.0721,0.0861,-0.0003,0.18,0.04,41.32,0,0.009,0.036,-0.090,-0.049,-0.001,0.016,1.003,0.000,0.000,0.000
9,-0.1726,-0.2690,0.0093,-0.0630,0.0761,0.0017,0.23,0.06,41.28,0,0.009,0.175,-0.050,-0.318,-0.001,0.017,1.000,0.000,0.000,0.000
9,-0.1733,-0.2683,0.0093,-0.0638,0.0773,0.0015,0.16,0.01,41.24,0,0.009,-0.048,-0.032,-0.062,-0.000,0.016,0.998,0.000,0.000,0.000
9,-0.1736,-0.2686,0.0095,-0.0628,0.0723,0.0027,-0.03,-0.03,41.21,0,0.009,0.006,0.127,-0.193,-0.001,0.016,0.999,0.000,0.000,0.000
9,-0.1744,-0.2660,0.0093,-0.0649,0.0834,0.0018,0.11,-0.03,41.16,0,0.009,-0.018,0.138,0.173,-0.001,0.016,0.999,0.000,0.000,0.000
9,-0.1771,-0.2612,0.0088,-0.0769,0.1055,-0.0015,0.26,0.00,41.12,0,0.009,-0.174,-0.023,-0.059,0.000,0.017,1.001,0.000,0.000,0.000
10,-0.1758,-0.2627,0.0092,-0.0668,0.0930,0.0018,0.34,0.01,41.08,0,0.009,-0.074,0.077,-0.069,0.001,0.018,1.000,0.000,0.000,0.000
10,-0.1748,-0.2649,0.0097,-0.0583,0.0772,0.0048,0.35,-0.01,41.04,0,0.009,0.184,0.006,-0.051,0.001,0.017,1.003,0.000,0.000,0.000
10,-0.1742,-0.2656,0.0100,-0.0527,0.0702,0.0060,0.42,-0.04,41.00,0,0.009,-0.139,-0.073,0.084,0.001,0.018,1.002,0.000,0.000,0.000
10,-0.1743,-0.2648,0.0100,-0.0509,0.0711,0.0061,0.42,-0.02,40.96,0,0.009,0.143,-0.119,-0.172,-0.002,0.018,1.000,0.000,0.000,0.000
10,-0.1730,-0.2650,0.0097,-0.0421,0.0673,0.0046,0.44,0.02,40.91,0,0.010,-0.150,-0.150,-0.120,-0.001,0.017,1.002,0.000,0.000,0.000
10,-0.1739,-0.2646,0.0098,-0.0451,0.0664,0.0047,0.52,0.06,40.87,0,0.010,-0.062,-0.155,0.043,0.002,0.015,1.000,0.000,0.000,0.000
10,-0.1747,-0.2647,0.0099,-0.0472,0.0631,0.0051,0.47,0.00,40.83,0,0.010,-0.046,-0.195,0.041,0.002,0.017,0.999,0.000,0.000,0.000
10,-0.1746,-0.2661,0.0101,-0.0449,0.0531,0.0065,0.27,0.07,40.79,0,0.010,-0.238,-0.182,0.064,-0.003,0.017,1.001,0.000,0.000,0.000
10,-0.1749,-0.2638,0.0101,-0.0446,0.0631,0.0060,0.40,0.04,40.75,0,0.010,-0.034,-0.036,-0.072,-0.001,0.016,1.001,0.000,0.000,0.000
10,-0.1795,-0.2608,0.0099,-0.0676,0.0765,0.0039,0.20,0.10,40.71,0,0.009,0.080,0.096,-0.016,0.000,0.018,1.001,0.000,0.000,0.000
10,-0.1778,-0.2618,0.0102,-0.0554,0.0677,0.0061,0.25,0.09,40.67,0,0.009,-0.095,-0.017,-0.076,0.001,0.019,1.000,0.000,0.000,0.000
11,-0.1823,-0.2585,0.0099,-0.0772,0.0828,0.0031,0.29,0.09,40.63,0,0.009,-0.057,-0.372,-0.111,-0.000,0.017,1.000,0.000,0.000,0.000
11,-0.1822,-0.2583,0.0101,-0.0731,0.0800,0.0042,0.43,0.06,40.59,0,0.009,0.092,-0.003,0.161,-0.000,0.016,0.999,0.000,0.000,0.000
11,-0.1823,-0.2585,0.0098,-0.0709,0.0756,0.0027,0.41,0.09,40.54,0,0.009,-0.050,0.383,-0.035,0.001,0.018,1.000,0.000,0.000,0.000
11,-0.1803,-0.2596,0.0101,-0.0571,0.0665,0.0049,0.38,0.10,40.50,0,0.007,0.074,0.128,-0.070,0.000,0.019,1.001,0.000,0.000,0.000
11,-0.1818,-0.2591,0.0101,-0.0626,0.0660,0.0048,0.43,0.13,40.46,0,0.007,-0.016,0.256,-0.065,0.001,0.015,1.001,0.000,0.000,0.000
11,-0.1830,-0.2579,0.0101,-0.0666,0.0694,0.0043,0.37,0.07,40.43,0,0.007,-0.278,-0.064,-0.068,0.001,0.016,0.998,0.000,0.000,0.000
11,-0.1836,-0.2586,0.0103,-0.0664,0.0624,0.0051,0.64,0.12,40.38,0,0.007,0.203,-0.124,-0.087,0.001,0.016,0.997,0.000,0.000,0.000
11,-0.1841,-0.2561,0.0102,-0.0664,0.0736,0.0042,0.67,0.12,40.34,0,0.007,-0.133,-0.109,0.294,0.001,0.015,0.999,0.000,0.000,0.000
11,-0.1814,-0.2608,0.0094,-0.0492,0.0448,0.0011,0.74,0.11,40.30,0,0.009,-0.116,-0.016,0.006,0.002,0.016,1.001,0.000,0.000,0.000
11,-0.1816,-0.2610,0.0094,-0.0478,0.0419,0.0015,0.68,0.12,40.26,0,0.009,0.220,0.007,0.127,0.000,0.015,0.999,0.000,0.000,0.000
11,-0.1807,-0.2616,0.0095,-0.0409,0.0362,0.0021,0.72,0.14,40.22,0,0.009,0.026,-0.192,-0.147,0.003,0.016,1.000,0.000,0.000,0.000
11,-0.1823,-0.2605,0.0095,-0.0474,0.0409,0.0014,0.81,0.09,40.18,0,0.009,-0.042,-0.055,0.104,0.001,0.018,1.003,0.000,0.000,0.000
11,-0.1823,-0.2611,0.0093,-0.0453,0.0355,0.0004,0.81,0.09,40.14,0,0.009,-0.144,0.013,0.238,-0.001,0.016,1.001,0.000,0.000,0.000
11,-0.1806,-0.2615,0.0094,-0.0335,0.0312,0.0012,0.83,0.09,40.10,0,0.010,0.087,-0.033,0.039,0.001,0.016,0.998,0.000,0.000,0.000
11,-0.1809,-0.2612,0.0094,-0.0336,0.0314,0.0012,0.87,0.11,40.06,0,0.010,-0.037,-0.073,-0.026,0.001,0.017,1.000,0.000,0.000,0.000
11,-0.1811,-0.2613,0.0094,-0.0326,0.0289,0.0012,0.79,0.12,40.02,0,0.010,0.067,0.031,0.028,-0.000,0.016,1.000,0.000,0.000,0.000
11,-0.1811,-0.2620,0.0095,-0.0311,0.0240,0.0016,0.89,0.10,39.98,0,0.010,-0.099,0.101,-0.033,0.001,0.018,0.999,0.000,0.000,0.000
12,-0.1829,-0.2606,0.0094,-0.0393,0.0303,0.0013,0.96,0.09,39.94,0,0.010,-0.117,0.002,-0.112,0.003,0.016,0.998,0.000,0.000,0.000
12,-0.1814,-0.2617,0.0098,-0.0292,0.0227,0.0032,0.97,0.02,39.91,0,0.008,0.029,0.091,0.260,0.000,0.017,0.999,0.000,0.000,0.000
12,-0.1805,-0.2627,0.0098,-0.0230,0.0159,0.0036,0.92,0.10,39.87,0,0.008,0.128,0.169,0.007,-0.000,0.016,1.001,0.000,0.000,0.000
12,-0.1792,-0.2616,0.0099,-0.0144,0.0210,0.0037,0.86,0.10,39.83,0,0.008,-0.059,-0.113,0.071,-0.000,0.016,1.002,0.000,0.000,0.000
12,-0.1816,-0.2617,0.0099,-0.0270,0.0195,0.0036,0.69,0.03,39.79,0,0.008,0.010,-0.219,-0.008,-0.001,0.016,1.002,0.000,0.000,0.000
12,-0.1829,-0.2605,0.0091,-0.0324,0.0250,-0.0012,0.71,-0.01,39.75,0,0.008,-0.101,0.142,0.216,0.000,0.017,0.999,0.000,0.000,0.000
12,-0.1845,-0.2562,0.0090,-0.0394,0.0469,-0.0024,0.92,-0.01,39.71,0,0.009,-0.058,0.031,0.234,0.001,0.017,1.001,0.000,0.000,0.000
12,-0.1833,-0.2560,0.0091,-0.0328,0.0480,-0.0021,0.94,-0.03,39.68,0,0.009,-0.012,0.027,0.137,-0.000,0.015,1.001,0.000,0.000,0.000
12,-0.1807,-0.2592,0.0094,-0.0166,0.0281,0.0003,0.98,0.00,39.64,0,0.009,-0.022,0.070,-0.173,-0.000,0.016,1.000,0.000,0.000,0.000
12,-0.1803,-0.2590,0.0094,-0.0132,0.0271,0.0005,1.15,0.08,39.59,0,0.009,-0.081,-0.156,0.303,0.000,0.016,1.000,0.000,0.000,0.000
12,-0.1805,-0.2597,0.0094,-0.0136,0.0216,0.0011,1.07,0.09,39.56,0,0.009,-0.154,-0.032,-0.110,0.001,0.017,1.000,0.000,0.000,0.000
12,-0.1796,-0.2637,0.0093,-0.0076,-0.0019,0.0007,0.93,0.08,39.52,0,0.007,-0.112,0.177,0.111,0.002,0.017,0.996,0.000,0.000,0.000
12,-0.1809,-0.2624,0.0093,-0.0144,0.0050,0.0008,0.92,0.06,39.48,0,0.007,0.163,-0.589,-0.186,0.001,0.016,1.000,0.000,0.000,0.000
12,-0.1827,-0.2599,0.0094,-0.0236,0.0183,0.0008,0.93,0.07,39.44,0,0.007,-0.019,0.113,0.006,-0.001,0.016,1.000,0.000,0.000,0.000
12,-0.1829,-0.2593,0.0094,-0.0236,0.0205,0.0008,0.96,0.07,39.40,0,0.007,0.076,-0.056,0.096,-0.003,0.014,1.000,0.000,0.000,0.000
12,-0.1831,-0.2595,0.0084,-0.0233,0.0185,-0.0041,0.98,0.08,39.36,0,0.007,-0.036,0.119,0.141,-0.001,0.017,0.999,0.000,0.000,0.000
12,-0.1828,-0.2598,0.0084,-0.0207,0.0158,-0.0040,0.96,0.09,39.33,0,0.008,0.138,-0.129,0.086,0.001,0.017,1.001,0.000,0.000,0.000
12,-0.1829,-0.2601,0.0084,-0.0197,0.0135,-0.0041,0.96,0.09,39.29,0,0.008,0.139,-0.146,0.108,0.000,0.015,1.000,0.000,0.000,0.000
13,-0.1836,-0.2598,0.0083,-0.0225,0.0139,-0.0044,1.05,0.09,39.25,0,0.008,0.053,0.080,0.057,-0.001,0.016,0.998,0.000,0.000,0.000
13,-0.1838,-0.2597,0.0083,-0.0225,0.0138,-0.0044,1.24,0.03,39.21,0,0.008,0.339,-0.173,-0.356,-0.000,0.017,0.999,0.000,0.000,0.000
13,-0.1827,-0.2610,0.0083,-0.0154,0.0054,-0.0039,1.28,0.10,39.17,0,0.008,0.002,-0.303,0.164,0.001,0.018,0.998,0.000,0.000,0.000
13,-0.1794,-0.2634,0.0082,0.0040,-0.0088,-0.0043,1.37,0.10,39.13,0,0.011,-0.022,0.013,-0.008,0.001,0.016,0.998,0.000,0.000,0.000
13,-0.1799,-0.2652,0.0081,0.0014,-0.0183,-0.0044,1.36,0.10,39.09,0,0.011,0.117,0.079,0.142,0.000,0.015,1.000,0.000,0.000,0.000
13,-0.1786,-0.2668,0.0080,0.0089,-0.0268,-0.0049,1.30,0.11,39.06,0,0.011,-0.094,0.118,-0.036,-0.001,0.018,0.998,0.000,0.000,0.000
13,-0.1786,-0.2671,0.0079,0.0086,-0.0277,-0.0050,1.39,0.03,39.01,0,0.011,0.030,0.184,-0.035,0.001,0.015,1.001,0.000,0.000,0.000
13,-0.1796,-0.2665,0.0092,0.0029,-0.0239,0.0018,1.32,0.06,38.98,0,0.011,0.132,-0.078,-0.126,0.002,0.015,1.000,0.000,0.000,0.000
13,-0.1770,-0.2671,0.0091,0.0173,-0.0261,0.0013,1.34,0.05,38.94,0,0.006,0.012,-0.156,-0.123,0.000,0.015,1.000,0.000,0.000,0.000
13,-0.1783,-0.2668,0.0092,0.0096,-0.0236,0.0017,1.30,0.06,38.90,0,0.006,0.106,-0.150,-0.148,0.001,0.014,1.002,0.000,0.000,0.000
13,-0.1777,-0.2672,0.0092,0.0125,-0.0249,0.0015,1.33,0.06,38.86,0,0.006,-0.161,0.094,0.018,-0.001,0.015,0.999,0.000,0.000,0.000
13,-0.1783,-0.2668,0.0093,0.0091,-0.0222,0.0016,1.32,0.04,38.82,0,0.006,-0.168,-0.031,0.045,-0.000,0.015,0.999,0.000,0.000,0.000
13,-0.1778,-0.2678,0.0093,0.0116,-0.0266,0.0014,1.40,0.04,38.79,0,0.006,-0.080,0.047,-0.232,-0.000,0.017,0.999,0.000,0.000,0.000
13,-0.1775,-0.2674,0.0079,0.0132,-0.0242,-0.0057,1.46,0.02,38.74,0,0.007,-0.012,0.203,-0.233,0.001,0.015,1.002,0.000,0.000,0.000
13,-0.1762,-0.2690,0.0078,0.0199,-0.0321,-0.0062,1.31,0.04,38.71,0,0.007,0.009,-0.253,0.113,0.003,0.016,1.003,0.000,0.000,0.000
13,-0.1745,-0.2706,0.0075,0.0281,-0.0385,-0.0066,1.30,0.10,38.67,0,0.007,-0.216,-0.017,-0.070,0.002,0.016,1.002,0.000,0.000,0.000
13,-0.1770,-0.2684,0.0078,0.0140,-0.0262,-0.0049,1.23,0.03,38.63,0,0.007,-0.070,-0.073,0.030,-0.002,0.017,0.998,0.000,0.000,0.000
13,-0.1777,-0.2696,0.0074,0.0093,-0.0311,-0.0067,1.23,0.03,38.59,0,0.007,-0.021,-0.006,0.218,-0.000,0.018,0.998,0.000,0.000,0.000
13,-0.1775,-0.2674,0.0075,0.0107,-0.0192,-0.0063,1.22,0.05,38.56,0,0.008,-0.057,-0.015,-0.191,0.002,0.018,1.001,0.000,0.000,0.000
14,-0.1773,-0.2678,0.0074,0.0115,-0.0199,-0.0059,1.21,0.05,38.52,0,0.008,0.205,0.076,-0.048,0.003,0.017,1.000,0.000,0.000,0.000
14,-0.1777,-0.2679,0.0074,0.0090,-0.0203,-0.0059,1.14,0.02,38.48,0,0.008,-0.190,0.035,0.242,0.002,0.016,1.000,0.000,0.000,0.000
14,-0.1778,-0.2682,0.0073,0.0081,-0.0206,-0.0056,1.33,0.02,38.45,0,0.008,-0.057,0.248,0.062,0.003,0.017,1.002,0.000,0.000,0.000
14,-0.1782,-0.2666,0.0073,0.0060,-0.0117,-0.0053,1.25,0.04,38.41,0,0.008,0.039,0.131,-0.228,0.002,0.016,0.998,0.000,0.000,0.000
14,-0.1752,-0.2704,0.0075,0.0215,-0.0310,-0.0042,1.22,0.01,38.37,0,0.006,-0.286,0.062,0.203,0.001,0.016,0.999,0.000,0.000,0.000
14,-0.1766,-0.2698,0.0075,0.0135,-0.0262,-0.0036,1.19,0.04,38.33,0,0.006,0.190,-0.211,-0.031,0.002,0.018,0.999,0.000,0.000,0.000
14,-0.1763,-0.2690,0.0075,0.0145,-0.0209,-0.0034,1.19,0.07,38.30,0,0.006,-0.186,-0.098,-0.058,0.001,0.017,0.997,0.000,0.000,0.000
14,-0.1771,-0.2691,0.0075,0.0097,-0.0202,-0.0031,1.12,0.03,38.26,0,0.006,0.027,0.145,0.096,0.002,0.015,0.998,0.000,0.000,0.000
14,-0.1777,-0.2697,0.0069,0.0065,-0.0230,-0.0064,1.18,0.02,38.22,0,0.006,0.163,-0.106,0.083,0.002,0.014,1.001,0.000,0.000,0.000
14,-0.1778,-0.2681,0.0068,0.0056,-0.0136,-0.0063,1.16,0.02,38.18,0,0.006,-0.127,0.139,0.072,0.002,0.015,0.998,0.000,0.000,0.000
14,-0.1767,-0.2692,0.0068,0.0115,-0.0188,-0.0065,1.15,0.03,38.15,0,0.006,0.047,-0.101,-0.027,-0.001,0.016,0.998,0.000,0.000,0.000
14,-0.1770,-0.2688,0.0068,0.0102,-0.0168,-0.0064,1.17,-0.02,38.11,0,0.006,-0.243,-0.193,-0.051,-0.000,0.018,1.000,0.000,0.000,0.000
14,-0.1773,-0.2691,0.0067,0.0080,-0.0174,-0.0065,1.13,-0.00,38.07,0,0.006,-0.157,-0.041,0.164,-0.001,0.015,1.000,0.000,0.000,0.000
14,-0.1758,-0.2690,0.0066,0.0161,-0.0161,-0.0069,1.07,-0.00,38.03,0,0.006,-0.106,0.274,0.160,0.001,0.013,1.001,0.000,0.000,0.000
14,-0.1765,-0.2687,0.0064,0.0118,-0.0142,-0.0080,1.09,-0.02,37.99,0,0.006,-0.373,0.406,0.014,0.001,0.014,0.999,0.000,0.000,0.000
14,-0.1773,-0.2678,0.0063,0.0074,-0.0083,-0.0079,1.12,0.01,37.96,0,0.006,0.176,0.133,-0.316,0.003,0.015,1.000,0.000,0.000,0.000
14,-0.1767,-0.2681,0.0062,0.0102,-0.0101,-0.0081,1.10,0.01,37.92,0,0.006,-0.047,-0.025,-0.401,0.004,0.018,1.000,0.000,0.000,0.000
14,-0.1767,-0.2691,0.0061,0.0098,-0.0152,-0.0083,1.12,0.00,37.88,0,0.006,0.146,0.070,-0.094,-0.000,0.015,0.999,0.000,0.000,0.000
14,-0.1768,-0.2690,0.0061,0.0086,-0.0139,-0.0081,1.02,0.00,37.84,0,0.006,-0.176,-0.030,0.189,0.000,0.018,0.999,0.000,0.000,0.000
15,-0.1765,-0.2695,0.0060,0.0106,-0.0161,-0.0081,1.02,0.01,37.81,0,0.009,-0.049,-0.141,-0.101,0.004,0.017,0.997,0.000,0.000,0.000
15,-0.1776,-0.2680,0.0059,0.0042,-0.0076,-0.0078,1.01,-0.00,37.77,0,0.009,-0.379,0.066,0.194,0.001,0.018,0.999,0.000,0.000,0.000
15,-0.1777,-0.2681,0.0059,0.0035,-0.0080,-0.0078,0.90,-0.04,37.73,0,0.009,0.058,0.065,-0.181,0.001,0.015,1.003,0.000,0.000,0.000
15,-0.1776,-0.2680,0.0058,0.0045,-0.0067,-0.0077,0.71,-0.03,37.69,0,0.009,0.223,-0.059,0.076,-0.001,0.017,1.002,0.000,0.000,0.000
15,-0.1784,-0.2656,0.0057,-0.0003,0.0070,-0.0076,0.58,0.03,37.66,0,0.009,-0.047,-0.038,-0.100,-0.000,0.019,1.000,0.000,0.000,0.000
15,-0.1811,-0.2625,0.0070,-0.0154,0.0244,-0.0005,0.56,0.02,37.62,0,0.008,-0.041,0.094,0.132,0.000,0.018,1.001,0.000,0.000,0.000
15,-0.1840,-0.2607,0.0068,-0.0308,0.0337,-0.0017,0.56,-0.00,37.58,0,0.008,-0.169,0.154,-0.080,0.001,0.016,1.000,0.000,0.000,0.000
15,-0.1845,-0.2600,0.0068,-0.0322,0.0361,-0.0021,0.68,0.00,37.55,0,0.008,-0.006,0.130,0.047,0.001,0.016,0.999,0.000,0.000,0.000
15,-0.1843,-0.2593,0.0067,-0.0295,0.0384,-0.0018,0.60,0.01,37.51,0,0.008,0.089,0.009,-0.064,-0.000,0.015,1.001,0.000,0.000,0.000
15,-0.1831,-0.2612,0.0070,-0.0216,0.0265,-0.0000,0.62,0.04,37.47,0,0.008,-0.194,-0.067,0.431,-0.001,0.017,1.000,0.000,0.000,0.000
15,-0.1846,-0.2596,0.0073,-0.0292,0.0345,0.0017,0.72,0.03,37.44,0,0.010,-0.129,0.151,-0.046,0.000,0.017,0.999,0.000,0.000,0.000
15,-0.1851,-0.2599,0.0074,-0.0307,0.0312,0.0019,0.73,0.03,37.40,0,0.010,-0.191,-0.319,-0.141,0.002,0.015,1.001,0.000,0.000,0.000
15,-0.1838,-0.2612,0.0076,-0.0225,0.0227,0.0029,0.58,-0.01,37.36,0,0.010,-0.041,0.070,0.137,0.000,0.016,0.999,0.000,0.000,0.000
15,-0.1840,-0.2613,0.0076,-0.0223,0.0211,0.0029,0.51,-0.04,37.32,0,0.010,-0.296,-0.058,-0.082,0.001,0.017,1.000,0.000,0.000,0.000
15,-0.1854,-0.2579,0.0075,-0.0290,0.0394,0.0020,0.44,-0.00,37.29,0,0.010,-0.206,0.231,0.213,0.003,0.016,1.001,0.000,0.000,0.000
15,-0.1861,-0.2559,0.0084,-0.0320,0.0486,0.0070,0.47,-0.01,37.25,0,0.008,0.242,0.013,0.052,0.001,0.015,0.999,0.000,0.000,0.000
15,-0.1880,-0.2548,0.0084,-0.0409,0.0528,0.0063,0.45,-0.05,37.22,0,0.008,0.002,-0.084,0.140,-0.001,0.016,0.998,0.000,0.000,0.000
15,-0.1878,-0.2547,0.0085,-0.0381,0.0514,0.0067,0.50,-0.02,37.18,0,0.008,-0.131,0.070,0.202,-0.000,0.018,0.998,0.000,0.000,0.000
16,-0.1878,-0.2534,0.0086,-0.0362,0.0564,0.0064,0.45,-0.02,37.14,0,0.008,0.012,-0.202,0.270,0.003,0.017,0.998,0.000,0.000,0.000
16,-0.1881,-0.2540,0.0085,-0.0359,0.0503,0.0055,0.48,0.01,37.11,0,0.008,-0.039,-0.066,-0.195,0.002,0.017,1.001,0.000,0.000,0.000
16,-0.1890,-0.2528,0.0085,-0.0395,0.0554,0.0052,0.54,-0.01,37.07,0,0.008,-0.303,0.051,0.171,0.003,0.018,1.001,0.000,0.000,0.000
16,-0.1895,-0.2531,0.0086,-0.0403,0.0511,0.0055,0.57,-0.00,37.04,0,0.008,0.066,-0.056,-0.444,0.001,0.016,0.999,0.000,0.000,0.000
16,-0.1889,-0.2533,0.0087,-0.0349,0.0477,0.0060,0.78,-0.04,37.00,0,0.008,-0.121,0.044,0.156,0.000,0.016,0.999,0.000,0.000,0.000
16,-0.1890,-0.2535,0.0089,-0.0337,0.0441,0.0063,0.98,-0.01,36.97,0,0.008,0.223,-0.001,-0.150,-0.002,0.016,0.999,0.000,0.000,0.000
16,-0.1860,-0.2562,0.0093,-0.0152,0.0273,0.0084,0.90,0.03,36.93,0,0.008,0.045,0.167,0.180,0.000,0.017,1.000,0.000,0.000,0.000
16,-0.1840,-0.2598,0.0089,-0.0028,0.0054,0.0057,0.86,-0.10,36.90,0,0.008,-0.001,0.053,-0.033,0.000,0.016,0.999,0.000,0.000,0.000
16,-0.1857,-0.2589,0.0090,-0.0120,0.0107,0.0060,0.83,-0.07,36.86,0,0.008,0.205,0.036,-0.337,0.000,0.017,1.000,0.000,0.000,0.000
16,-0.1840,-0.2565,0.0090,-0.0022,0.0242,0.0061,0.92,-0.06,36.82,0,0.008,0.109,-0.306,0.086,-0.002,0.017,0.998,0.000,0.000,0.000
16,-0.1850,-0.2562,0.0091,-0.0073,0.0246,0.0061,1.09,0.06,36.79,0,0.008,-0.044,-0.184,0.092,0.002,0.016,1.000,0.000,0.000,0.000
16,-0.1841,-0.2574,0.0092,-0.0015,0.0161,0.0062,1.05,0.06,36.75,0,0.008,0.160,-0.080,-0.147,0.001,0.017,0.999,0.000,0.000,0.000
16,-0.1840,-0.2618,0.0088,-0.0009,-0.0099,0.0038,1.00,0.11,36.71,0,0.008,0.290,-0.181,-0.073,0.000,0.017,1.003,0.000,0.000,0.000
16,-0.1843,-0.2613,0.0089,-0.0028,-0.0069,0.0040,1.00,0.13,36.67,0,0.008,-0.116,0.063,0.189,0.001,0.016,1.000,0.000,0.000,0.000
16,-0.1860,-0.2611,0.0089,-0.0124,-0.0052,0.0041,0.95,0.12,36.64,0,0.008,0.140,0.033,-0.384,0.001,0.017,1.000,0.000,0.000,0.000
16,-0.1865,-0.2614,0.0089,-0.0147,-0.0072,0.0039,0.79,0.05,36.60,0,0.008,0.018,0.281,0.134,0.002,0.016,0.998,0.000,0.000,0.000
16,-0.1871,-0.2606,0.0090,-0.0174,-0.0023,0.0039,0.78,0.10,36.56,0,0.008,-0.010,0.339,-0.124,0.003,0.017,0.997,0.000,0.000,0.000
16,-0.1881,-0.2570,0.0086,-0.0223,0.0191,0.0014,0.51,0.06,36.53,0,0.008,0.332,-0.166,-0.093,0.000,0.017,1.000,0.000,0.000,0.000
16,-0.1894,-0.2572,0.0086,-0.0287,0.0169,0.0014,0.53,0.06,36.49,0,0.008,0.118,-0.069,0.329,0.000,0.017,1.001,0.000,0.000,0.000
17,-0.1924,-0.2518,0.0084,-0.0447,0.0471,-0.0003,0.58,0.06,36.46,0,0.008,-0.130,-0.222,0.108,0.002,0.017,1.000,0.000,0.000,0.000
17,-0.1927,-0.2518,0.0085,-0.0442,0.0454,0.0001,0.63,0.01,36.42,0,0.008,0.000,-0.152,-0.016,-0.000,0.015,1.000,0.000,0.000,0.000
17,-0.1924,-0.2522,0.0086,-0.0401,0.0407,0.0010,0.63,0.01,36.39,0,0.008,-0.187,0.133,0.150,-0.002,0.015,0.999,0.000,0.000,0.000
17,-0.1914,-0.2520,0.0084,-0.0324,0.0406,-0.0001,0.60,0.05,36.35,0,0.006,-0.144,-0.115,0.204,-0.002,0.016,0.998,0.000,0.000,0.000
17,-0.1917,-0.2515,0.0084,-0.0327,0.0412,-0.0001,0.66,0.06,36.32,0,0.006,0.113,-0.064,-0.366,0.001,0.017,1.000,0.000,0.000,0.000
17,-0.1930,-0.2512,0.0084,-0.0384,0.0412,-0.0004,0.57,-0.00,36.28,0,0.006,-0.287,-0.216,-0.070,0.000,0.017,0.998,0.000,0.000,0.000
17,-0.1927,-0.2520,0.0085,-0.0347,0.0349,0.0004,0.72,0.01,36.24,0,0.006,-0.069,-0.197,0.004,0.002,0.017,0.999,0.000,0.000,0.000
17,-0.1931,-0.2493,0.0084,-0.0357,0.0485,-0.0005,0.71,0.03,36.21,0,0.006,-0.142,0.124,0.094,0.001,0.016,1.000,0.000,0.000,0.000
17,-0.1917,-0.2516,0.0076,-0.0260,0.0332,-0.0047,0.67,0.03,36.17,0,0.007,-0.041,-0.191,-0.027,-0.001,0.016,1.000,0.000,0.000,0.000
17,-0.1924,-0.2513,0.0075,-0.0288,0.0330,-0.0049,0.73,0.06,36.14,0,0.007,-0.065,-0.015,-0.146,-0.000,0.016,1.000,0.000,0.000,0.000
17,-0.1933,-0.2504,0.0074,-0.0324,0.0364,-0.0052,0.68,0.00,36.10,0,0.007,-0.255,-0.399,-0.094,-0.001,0.017,1.001,0.000,0.000,0.000
17,-0.1933,-0.2515,0.0074,-0.0310,0.0291,-0.0048,0.71,0.02,36.06,0,0.007,0.096,-0.089,-0.128,0.000,0.015,1.000,0.000,0.000,0.000
17,-0.1932,-0.2496,0.0074,-0.0286,0.0383,-0.0052,0.83,0.00,36.03,0,0.007,-0.379,0.158,-0.053,0.000,0.015,1.000,0.000,0.000,0.000
17,-0.1934,-0.2500,0.0072,-0.0284,0.0344,-0.0058,0.84,0.01,36.00,0,0.008,-0.050,0.027,-0.114,0.001,0.015,1.002,0.000,0.000,0.000
17,-0.1917,-0.2515,0.0072,-0.0178,0.0240,-0.0049,0.80,0.04,35.96,0,0.008,0.144,-0.099,0.082,0.002,0.015,1.002,0.000,0.000,0.000
17,-0.1919,-0.2517,0.0072,-0.0179,0.0221,-0.0048,0.71,0.05,35.92,0,0.008,0.032,0.263,-0.176,0.001,0.015,1.002,0.000,0.000,0.000
17,-0.1931,-0.2510,0.0071,-0.0238,0.0245,-0.0049,0.68,0.05,35.88,0,0.008,0.064,-0.135,0.191,0.000,0.017,1.001,0.000,0.000,0.000
17,-0.1946,-0.2493,0.0070,-0.0308,0.0325,-0.0054,0.17,0.09,35.85,0,0.008,0.022,0.143,0.146,0.001,0.017,1.001,0.000,0.000,0.000
17,-0.1955,-0.2485,0.0074,-0.0342,0.0358,-0.0033,0.18,0.08,35.81,0,0.010,-0.079,0.247,0.026,0.001,0.016,1.000,0.000,0.000,0.000
18,-0.2030,-0.2394,0.0067,-0.0744,0.0843,-0.0080,0.26,0.07,35.78,0,0.010,0.116,0.070,-0.130,-0.000,0.015,0.999,0.000,0.000,0.000
18,-0.2035,-0.2387,0.0067,-0.0735,0.0844,-0.0075,0.31,0.08,35.74,0,0.010,0.001,0.069,0.109,-0.000,0.014,1.000,0.000,0.000,0.000
18,-0.2032,-0.2392,0.0070,-0.0683,0.0781,-0.0052,0.32,0.06,35.71,0,0.010,-0.079,-0.035,0.055,0.001,0.014,1.000,0.000,0.000,0.000
18,-0.2033,-0.2394,0.0083,-0.0658,0.0734,0.0022,0.38,0.06,35.67,0,0.010,-0.231,-0.042,-0.036,0.002,0.014,1.000,0.000,0.000,0.000
18,-0.2036,-0.2386,0.0083,-0.0646,0.0746,0.0024,0.42,0.06,35.64,0,0.008,-0.086,-0.021,0.116,0.000,0.015,1.000,0.000,0.000,0.000
18,-0.2034,-0.2389,0.0085,-0.0603,0.0696,0.0036,0.48,0.06,35.60,0,0.008,0.193,0.013,-0.277,-0.000,0.016,1.001,0.000,0.000,0.000
18,-0.2036,-0.2390,0.0087,-0.0585,0.0659,0.0042,0.48,0.06,35.57,0,0.008,0.032,0.040,0.309,-0.001,0.015,0.999,0.000,0.000,0.000
18,-0.2033,-0.2395,0.0089,-0.0540,0.0602,0.0054,0.48,0.06,35.54,0,0.008,0.310,-0.072,-0.312,0.001,0.016,0.999,0.000,0.000,0.000
18,-0.2037,-0.2388,0.0089,-0.0540,0.0610,0.0054,0.55,0.05,35.50,0,0.008,0.144,0.188,0.105,0.002,0.017,0.999,0.000,0.000,0.000
18,-0.2043,-0.2382,0.0086,-0.0541,0.0614,0.0031,0.59,0.07,35.47,0,0.008,0.145,0.178,-0.012,0.001,0.017,0.999,0.000,0.000,0.000
18,-0.2037,-0.2386,0.0087,-0.0484,0.0563,0.0041,0.57,0.05,35.43,0,0.008,-0.100,0.240,0.034,0.002,0.016,1.000,0.000,0.000,0.000
18,-0.2042,-0.2390,0.0088,-0.0489,0.0515,0.0045,0.57,0.04,35.40,0,0.008,-0.021,-0.129,-0.091,0.001,0.015,1.000,0.000,0.000,0.000
18,-0.2045,-0.2379,0.0088,-0.0480,0.0549,0.0044,0.70,0.03,35.36,0,0.008,-0.061,0.234,-0.182,0.003,0.016,1.001,0.000,0.000,0.000
18,-0.2050,-0.2374,0.0085,-0.0483,0.0554,0.0025,0.62,0.03,35.33,0,0.008,-0.081,-0.119,0.062,0.001,0.015,0.999,0.000,0.000,0.000
18,-0.2035,-0.2391,0.0088,-0.0376,0.0434,0.0039,0.65,0.05,35.29,0,0.008,-0.077,-0.099,0.177,0.002,0.015,1.000,0.000,0.000,0.000
18,-0.2050,-0.2373,0.0087,-0.0443,0.0515,0.0031,0.66,0.04,35.26,0,0.008,-0.002,0.008,-0.029,0.001,0.015,1.000,0.000,0.000,0.000
18,-0.2054,-0.2375,0.0088,-0.0438,0.0475,0.0035,0.77,-0.02,35.23,0,0.008,-0.054,0.099,0.221,0.000,0.017,0.998,0.000,0.000,0.000
18,-0.2055,-0.2369,0.0088,-0.0424,0.0487,0.0036,0.89,-0.01,35.19,0,0.008,-0.068,0.024,-0.031,0.000,0.016,1.000,0.000,0.000,0.000
18,-0.2033,-0.2378,0.0091,-0.0277,0.0416,0.0052,0.76,0.04,35.16,0,0.008,0.040,0.201,-0.155,0.000,0.017,1.002,0.000,0.000,0.000
19,-0.2022,-0.2397,0.0087,-0.0199,0.0286,0.0033,0.82,0.05,35.12,0,0.008,-0.176,-0.320,0.071,0.000,0.017,0.999,0.000,0.000,0.000
19,-0.2051,-0.2378,0.0087,-0.0351,0.0378,0.0028,0.82,0.05,35.09,0,0.008,-0.168,0.187,-0.072,-0.003,0.016,1.001,0.000,0.000,0.000
19,-0.2048,-0.2386,0.0088,-0.0313,0.0311,0.0033,0.92,0.05,35.05,0,0.008,0.139,-0.041,0.003,0.000,0.016,1.000,0.000,0.000,0.000
19,-0.2051,-0.2383,0.0089,-0.0314,0.0313,0.0031,0.72,0.05,35.02,0,0.008,-0.155,-0.130,-0.004,0.000,0.017,0.999,0.000,0.000,0.000
19,-0.2042,-0.2400,0.0086,-0.0248,0.0204,0.0017,0.84,0.05,34.98,0,0.008,0.055,0.094,-0.120,0.001,0.016,1.001,0.000,0.000,0.000
19,-0.2070,-0.2360,0.0086,-0.0391,0.0417,0.0010,0.86,-0.01,34.95,0,0.007,-0.190,-0.142,0.126,0.001,0.016,0.999,0.000,0.000,0.000
19,-0.2057,-0.2378,0.0087,-0.0300,0.0295,0.0022,0.88,0.07,34.91,0,0.007,-0.062,0.030,0.187,0.001,0.016,0.999,0.000,0.000,0.000
19,-0.2048,-0.2372,0.0088,-0.0235,0.0312,0.0025,0.94,-0.01,34.88,0,0.007,0.140,-0.051,-0.041,0.001,0.017,1.001,0.000,0.000,0.000
19,-0.2062,-0.2382,0.0088,-0.0302,0.0239,0.0027,1.04,0.03,34.85,0,0.007,0.139,0.025,0.025,0.002,0.016,1.001,0.000,0.000,0.000
19,-0.2042,-0.2381,0.0089,-0.0173,0.0232,0.0033,1.00,0.05,34.81,0,0.007,-0.015,0.249,-0.161,0.002,0.017,1.002,0.000,0.000,0.000
19,-0.2039,-0.2404,0.0081,-0.0149,0.0097,-0.0010,1.35,0.04,34.78,0,0.009,-0.281,0.094,0.337,-0.001,0.016,1.000,0.000,0.000,0.000
19,-0.2049,-0.2397,0.0081,-0.0192,0.0124,-0.0012,1.34,0.02,34.74,0,0.009,0.206,0.030,-0.208,-0.000,0.017,0.998,0.000,0.000,0.000
19,-0.2004,-0.2462,0.0081,0.0065,-0.0237,-0.0007,1.35,0.07,34.71,0,0.009,-0.038,-0.142,0.114,0.001,0.015,1.002,0.000,0.000,0.000
19,-0.1999,-0.2462,0.0081,0.0090,-0.0225,-0.0006,1.36,0.02,34.67,0,0.009,0.070,-0.056,0.238,0.000,0.014,1.001,0.000,0.000,0.000
19,-0.2007,-0.2472,0.0081,0.0046,-0.0276,-0.0006,1.26,0.02,34.64,0,0.009,0.033,-0.090,-0.128,0.002,0.015,1.000,0.000,0.000,0.000
19,-0.1995,-0.2471,0.0085,0.0115,-0.0262,0.0015,1.26,0.03,34.61,0,0.007,0.294,-0.217,-0.070,0.002,0.017,0.998,0.000,0.000,0.000
19,-0.2006,-0.2456,0.0086,0.0053,-0.0169,0.0023,1.25,0.05,34.57,0,0.007,0.029,0.043,0.072,0.001,0.015,0.999,0.000,0.000,0.000
19,-0.2007,-0.2457,0.0087,0.0043,-0.0171,0.0022,1.27,0.03,34.54,0,0.007,-0.207,-0.022,0.043,0.001,0.016,1.002,0.000,0.000,0.000
19,-0.2013,-0.2460,0.0087,0.0015,-0.0186,0.0023,1.28,-0.00,34.50,0,0.007,0.141,-0.079,0.022,0.003,0.016,1.001,0.000,0.000,0.000
20,-0.2006,-0.2463,0.0087,0.0056,-0.0197,0.0024,1.25,0.02,34.47,0,0.007,-0.097,-0.161,0.060,0.001,0.018,1.001,0.000,0.000,0.000
20,-0.1997,-0.2464,0.0080,0.0104,-0.0200,-0.0017,1.28,0.01,34.43,0,0.009,0.068,-0.129,0.139,0.001,0.016,1.000,0.000,0.000,0.000
20,-0.2005,-0.2464,0.0080,0.0063,-0.0192,-0.0017,1.24,0.00,34.40,0,0.009,0.025,-0.307,-0.213,0.001,0.015,1.001,0.000,0.000,0.000
20,-0.1998,-0.2470,0.0079,0.0098,-0.0217,-0.0019,1.22,0.02,34.36,0,0.009,-0.039,0.094,0.285,-0.000,0.017,0.999,0.000,0.000,0.000
20,-0.2000,-0.2464,0.0080,0.0087,-0.0176,-0.0015,1.17,-0.01,34.33,0,0.009,-0.224,0.209,0.264,0.000,0.014,0.998,0.000,0.000,0.000
20,-0.2005,-0.2465,0.0084,0.0062,-0.0173,0.0009,1.19,0.01,34.29,0,0.009,-0.101,-0.081,-0.189,-0.001,0.012,1.000,0.000,0.000,0.000
20,-0.2004,-0.2454,0.0084,0.0064,-0.0110,0.0012,1.15,0.02,34.26,0,0.005,-0.011,0.165,0.174,-0.001,0.016,1.002,0.000,0.000,0.000
20,-0.2004,-0.2462,0.0084,0.0063,-0.0147,0.0012,1.17,0.01,34.23,0,0.005,0.092,0.091,0.101,0.001,0.019,1.001,0.000,0.000,0.000
20,-0.2012,-0.2457,0.0085,0.0020,-0.0119,0.0014,1.14,-0.06,34.19,0,0.005,-0.000,-0.229,0.047,-0.001,0.018,0.999,0.000,0.000,0.000
20,-0.2007,-0.2461,0.0085,0.0048,-0.0136,0.0013,1.31,-0.04,34.16,0,0.005,0.024,0.256,0.142,-0.001,0.015,0.998,0.000,0.000,0.000
20,-0.1999,-0.2448,0.0085,0.0095,-0.0062,0.0013,1.39,0.02,34.13,0,0.005,0.082,-0.062,0.217,-0.000,0.016,1.000,0.000,0.000,0.000
20,-0.1980,-0.2483,0.0070,0.0200,-0.0259,-0.0070,1.57,-0.06,34.10,0,0.007,-0.228,-0.131,0.327,0.000,0.017,0.998,0.000,0.000,0.000
20,-0.1978,-0.2507,0.0068,0.0200,-0.0381,-0.0074,1.54,-0.07,34.06,0,0.007,-0.261,-0.003,0.302,-0.001,0.016,0.999,0.000,0.000,0.000
20,-0.1940,-0.2535,0.0065,0.0403,-0.0517,-0.0090,1.48,-0.05,34.03,0,0.007,-0.162,0.080,-0.188,0.001,0.013,0.998,0.000,0.000,0.000
20,-0.1938,-0.2534,0.0065,0.0396,-0.0490,-0.0086,1.53,-0.05,34.00,0,0.007,0.352,0.045,0.063,0.001,0.016,0.998,0.000,0.000,0.000
20,-0.1943,-0.2530,0.0067,0.0352,-0.0452,-0.0068,1.54,-0.00,33.97,0,0.007,-0.115,0.072,0.111,-0.001,0.017,0.999,0.000,0.000,0.000
20,-0.1934,-0.2544,0.0066,0.0389,-0.0510,-0.0074,1.74,-0.02,33.93,0,0.006,0.078,-0.116,0.253,0.000,0.015,0.999,0.000,0.000,0.000
20,-0.1936,-0.2558,0.0065,0.0358,-0.0566,-0.0078,1.67,-0.01,33.90,0,0.006,-0.307,-0.089,0.018,0.001,0.015,1.000,0.000,0.000,0.000
21,-0.1906,-0.2599,0.0059,0.0509,-0.0769,-0.0110,1.90,0.03,33.87,0,0.006,-0.106,-0.019,0.047,0.001,0.015,1.001,0.000,0.000,0.000
21,-0.1911,-0.2595,0.0061,0.0463,-0.0719,-0.0096,1.82,0.04,33.84,0,0.006,-0.074,-0.094,-0.129,0.001,0.019,1.001,0.000,0.000,0.000
21,-0.1885,-0.2650,0.0051,0.0594,-0.0992,-0.0152,1.79,-0.01,33.80,0,0.006,0.071,-0.049,-0.004,-0.001,0.015,1.000,0.000,0.000,0.000
21,-0.1891,-0.2648,0.0057,0.0533,-0.0940,-0.0113,1.73,0.04,33.77,0,0.010,-0.287,-0.349,0.063,-0.002,0.016,1.000,0.000,0.000,0.000
21,-0.1879,-0.2647,0.0056,0.0577,-0.0899,-0.0108,1.75,0.05,33.74,0,0.010,0.148,0.047,-0.017,0.002,0.016,1.000,0.000,0.000,0.000
21,-0.1889,-0.2650,0.0057,0.0496,-0.0877,-0.0095,1.71,0.07,33.71,0,0.010,-0.106,-0.011,-0.191,0.002,0.017,1.001,0.000,0.000,0.000
21,-0.1883,-0.2666,0.0055,0.0507,-0.0928,-0.0100,1.52,-0.07,33.66,0,0.010,0.003,-0.351,-0.062,-0.001,0.016,1.000,0.000,0.000,0.000
21,-0.1885,-0.2671,0.0074,0.0472,-0.0908,0.0005,1.63,-0.26,33.61,0,0.010,0.014,0.174,0.058,-0.001,0.019,1.001,0.000,0.000,0.000
21,-0.1877,-0.2629,0.0079,0.0500,-0.0631,0.0040,1.61,-0.24,33.57,0,0.006,0.055,-0.004,0.004,0.000,0.018,1.001,0.000,0.000,0.000
21,-0.1824,-0.2632,0.0076,0.0782,-0.0623,0.0020,1.54,-0.25,33.54,0,0.006,0.111,0.110,-0.008,0.001,0.017,0.999,0.000,0.000,0.000
21,-0.1821,-0.2637,0.0077,0.0769,-0.0625,0.0024,1.54,-0.25,33.51,0,0.006,-0.149,-0.282,-0.289,0.001,0.016,0.999,0.000,0.000,0.000
21,-0.1820,-0.2630,0.0079,0.0737,-0.0555,0.0039,1.32,-0.20,33.47,0,0.006,-0.089,0.151,0.452,0.001,0.014,1.000,0.000,0.000,0.000
21,-0.1813,-0.2636,0.0080,0.0746,-0.0562,0.0039,1.27,-0.19,33.44,0,0.006,-0.069,0.045,0.278,0.001,0.014,0.999,0.000,0.000,0.000
21,-0.1842,-0.2607,0.0076,0.0541,-0.0369,0.0026,1.19,-0.17,33.44,0,0.009,0.084,-0.039,0.051,0.001,0.018,1.003,0.000,0.000,0.000
21,-0.1845,-0.2603,0.0077,0.0502,-0.0330,0.0031,1.30,-0.21,33.41,0,0.009,0.212,0.247,0.146,0.003,0.018,1.000,0.000,0.000,0.000
21,-0.1854,-0.2594,0.0078,0.0429,-0.0259,0.0038,1.16,-0.18,33.38,0,0.009,0.087,0.130,0.137,0.002,0.015,0.999,0.000,0.000,0.000
21,-0.1827,-0.2611,0.0077,0.0560,-0.0345,0.0027,1.19,-0.12,33.35,0,0.009,0.192,0.395,-0.278,-0.001,0.017,0.999,0.000,0.000,0.000
21,-0.1844,-0.2593,0.0080,0.0440,-0.0226,0.0046,1.10,-0.12,33.31,0,0.009,-0.205,-0.056,0.127,-0.001,0.017,0.999,0.000,0.000,0.000
21,-0.1847,-0.2611,0.0085,0.0402,-0.0314,0.0068,1.08,-0.10,33.28,0,0.007,0.180,-0.076,-0.397,-0.001,0.017,0.998,0.000,0.000,0.000
22,-0.1855,-0.2596,0.0086,0.0343,-0.0215,0.0077,0.95,-0.08,33.25,0,0.007,0.184,-0.072,0.059,-0.001,0.017,1.000,0.000,0.000,0.000
22,-0.1858,-0.2598,0.0087,0.0309,-0.0214,0.0079,0.97,-0.07,33.21,0,0.007,0.016,0.012,-0.519,-0.001,0.015,1.000,0.000,0.000,0.000
22,-0.1873,-0.2578,0.0089,0.0210,-0.0094,0.0086,0.65,-0.10,33.17,0,0.007,0.270,-0.088,0.173,0.000,0.018,1.000,0.000,0.000,0.000
22,-0.1870,-0.2584,0.0090,0.0218,-0.0118,0.0085,0.56,-0.06,33.13,0,0.007,0.062,-0.094,-0.010,0.001,0.018,0.999,0.000,0.000,0.000
22,-0.1904,-0.2521,0.0081,0.0020,0.0235,0.0041,0.60,-0.04,33.10,0,0.007,0.015,0.079,-0.071,0.000,0.016,0.999,0.000,0.000,0.000
22,-0.1920,-0.2507,0.0081,-0.0074,0.0304,0.0034,0.62,-0.08,33.07,0,0.007,0.069,-0.078,-0.018,0.002,0.016,1.001,0.000,0.000,0.000
22,-0.1920,-0.2514,0.0082,-0.0074,0.0251,0.0038,0.64,-0.05,33.04,0,0.007,-0.183,0.039,0.152,0.000,0.014,0.998,0.000,0.000,0.000
22,-0.1911,-0.2510,0.0083,-0.0019,0.0263,0.0040,0.79,-0.10,33.01,0,0.007,0.029,-0.029,0.280,0.000,0.014,1.001,0.000,0.000,0.000
22,-0.1916,-0.2514,0.0083,-0.0048,0.0236,0.0042,0.80,-0.10,32.97,0,0.007,0.022,0.191,0.119,-0.000,0.015,0.998,0.000,0.000,0.000
22,-0.1888,-0.2534,0.0080,0.0108,0.0115,0.0019,0.47,-0.07,32.94,0,0.008,-0.118,-0.063,0.218,0.000,0.016,0.999,0.000,0.000,0.000
22,-0.1887,-0.2536,0.0080,0.0109,0.0103,0.0019,0.45,-0.07,32.90,0,0.008,0.040,-0.030,-0.169,-0.001,0.015,1.002,0.000,0.000,0.000
22,-0.1930,-0.2476,0.0079,-0.0134,0.0428,0.0018,0.32,-0.10,32.87,0,0.008,-0.010,0.009,-0.119,-0.001,0.016,1.004,0.000,0.000,0.000
22,-0.1934,-0.2470,0.0079,-0.0153,0.0448,0.0015,0.20,-0.10,32.83,0,0.008,-0.004,0.270,0.314,0.001,0.016,1.000,0.000,0.000,0.000
22,-0.1946,-0.2436,0.0075,-0.0212,0.0614,-0.0003,0.20,-0.05,32.80,0,0.008,0.330,-0.030,-0.158,-0.000,0.015,1.000,0.000,0.000,0.000
22,-0.1962,-0.2407,0.0075,-0.0292,0.0746,-0.0009,0.23,-0.07,32.77,0,0.008,-0.066,-0.014,-0.052,0.000,0.015,1.002,0.000,0.000,0.000
22,-0.1975,-0.2406,0.0075,-0.0352,0.0724,-0.0008,0.31,-0.07,32.74,0,0.008,0.165,-0.114,-0.270,-0.001,0.019,1.001,0.000,0.000,0.000
22,-0.1971,-0.2401,0.0076,-0.0316,0.0722,-0.0002,0.14,-0.05,32.70,0,0.008,-0.375,0.090,0.035,-0.001,0.015,1.000,0.000,0.000,0.000
22,-0.1965,-0.2411,0.0079,-0.0268,0.0637,0.0018,0.14,-0.05,32.67,0,0.008,0.135,0.174,-0.186,-0.000,0.015,1.003,0.000,0.000,0.000
23,-0.1991,-0.2374,0.0076,-0.0399,0.0812,0.0003,0.20,-0.06,32.64,0,0.008,0.026,0.062,-0.102,-0.000,0.016,1.001,0.000,0.000,0.000
23,-0.1996,-0.2366,0.0076,-0.0413,0.0826,0.0002,0.20,-0.06,32.60,0,0.009,0.148,-0.174,-0.202,0.001,0.016,0.999,0.000,0.000,0.000
23,-0.1992,-0.2368,0.0078,-0.0374,0.0780,0.0014,0.22,-0.04,32.57,0,0.009,-0.047,0.168,-0.193,0.001,0.016,1.001,0.000,0.000,0.000
23,-0.1996,-0.2360,0.0078,-0.0381,0.0793,0.0015,0.33,-0.09,32.54,0,0.009,-0.236,0.335,-0.042,0.001,0.016,1.002,0.000,0.000,0.000
23,-0.2000,-0.2358,0.0079,-0.0388,0.0771,0.0020,0.48,-0.06,32.48,0,0.009,0.044,0.005,-0.184,0.001,0.016,1.000,0.000,0.000,0.000
23,-0.1983,-0.2365,0.0083,-0.0278,0.0700,0.0042,0.70,-0.06,32.48,0,0.009,-0.032,0.239,-0.022,-0.000,0.016,0.999,0.000,0.000,0.000
23,-0.1973,-0.2388,0.0089,-0.0211,0.0541,0.0074,0.72,-0.08,32.42,0,0.008,0.174,0.055,-0.459,0.000,0.016,1.001,0.000,0.000,0.000
23,-0.1950,-0.2425,0.0092,-0.0070,0.0313,0.0088,0.69,-0.09,32.42,0,0.008,0.157,0.072,-0.269,0.000,0.015,1.001,0.000,0.000,0.000
23,-0.1945,-0.2425,0.0093,-0.0040,0.0302,0.0090,0.72,-0.07,32.35,0,0.008,-0.157,-0.535,0.152,0.001,0.017,0.999,0.000,0.000,0.000
23,-0.1947,-0.2414,0.0094,-0.0049,0.0350,0.0091,0.76,-0.08,32.35,0,0.008,0.297,0.243,-0.113,-0.000,0.016,1.000,0.000,0.000,0.000
23,-0.1946,-0.2419,0.0089,-0.0043,0.0308,0.0062,0.79,-0.02,32.29,0,0.008,0.019,0.184,-0.044,0.000,0.015,0.998,0.000,0.000,0.000
23,-0.1942,-0.2421,0.0090,-0.0019,0.0280,0.0063,0.74,-0.05,32.29,0,0.010,0.172,0.117,-0.268,0.002,0.016,0.999,0.000,0.000,0.000
23,-0.1948,-0.2432,0.0090,-0.0048,0.0208,0.0065,0.84,-0.06,32.26,0,0.010,-0.495,-0.106,0.040,0.000,0.018,1.000,0.000,0.000,0.000
23,-0.1950,-0.2416,0.0091,-0.0059,0.0285,0.0066,0.70,-0.05,32.22,0,0.010,-0.210,0.073,-0.046,0.000,0.018,0.998,0.000,0.000,0.000
23,-0.1937,-0.2433,0.0092,0.0016,0.0181,0.0068,0.49,-0.08,32.19,0,0.010,-0.050,-0.036,0.201,0.001,0.019,1.001,0.000,0.000,0.000
23,-0.1955,-0.2404,0.0093,-0.0086,0.0332,0.0068,0.22,-0.06,32.15,0,0.010,-0.020,-0.103,-0.174,0.000,0.018,1.001,0.000,0.000,0.000
23,-0.1974,-0.2358,0.0095,-0.0193,0.0581,0.0070,0.22,-0.06,32.12,0,0.008,-0.250,0.261,0.400,-0.001,0.015,1.001,0.000,0.000,0.000
24,-0.2013,-0.2305,0.0092,-0.0402,0.0860,0.0039,0.23,-0.05,32.09,0,0.008,-0.114,0.042,-0.141,-0.002,0.016,0.999,0.000,0.000,0.000
24,-0.2018,-0.2296,0.0092,-0.0415,0.0872,0.0038,0.33,-0.06,32.06,0,0.008,0.090,0.208,0.001,0.001,0.017,1.000,0.000,0.000,0.000
24,-0.2023,-0.2289,0.0093,-0.0422,0.0875,0.0038,0.54,-0.03,32.03,0,0.008,-0.256,-0.030,-0.100,-0.000,0.018,1.000,0.000,0.000,0.000
24,-0.2014,-0.2299,0.0090,-0.0357,0.0786,0.0026,0.43,0.02,31.99,0,0.008,-0.221,-0.029,0.013,0.001,0.017,1.000,0.000,0.000,0.000
24,-0.1999,-0.2334,0.0095,-0.0256,0.0552,0.0059,0.45,0.05,31.96,0,0.009,-0.154,0.233,-0.035,0.002,0.015,1.001,0.000,0.000,0.000
24,-0.2024,-0.2313,0.0094,-0.0385,0.0641,0.0049,0.52,0.05,31.93,0,0.009,-0.349,-0.065,0.083,-0.003,0.016,1.000,0.000,0.000,0.000
24,-0.2031,-0.2314,0.0095,-0.0404,0.0604,0.0052,0.46,-0.02,31.90,0,0.009,-0.301,0.103,0.242,-0.002,0.015,1.002,0.000,0.000,0.000
24,-0.2026,-0.2321,0.0097,-0.0362,0.0540,0.0062,0.35,0.01,31.87,0,0.009,-0.035,0.198,0.163,0.000,0.016,1.001,0.000,0.000,0.000
24,-0.2024,-0.2299,0.0097,-0.0333,0.0644,0.0056,0.23,0.07,31.83,0,0.009,-0.095,0.106,-0.111,0.000,0.016,1.001,0.000,0.000,0.000
24,-0.2045,-0.2276,0.0093,-0.0435,0.0742,0.0027,0.26,0.07,31.80,0,0.011,0.230,0.145,0.199,0.001,0.015,1.000,0.000,0.000,0.000
24,-0.2075,-0.2251,0.0090,-0.0579,0.0845,0.0008,0.29,0.05,31.77,0,0.011,-0.405,0.010,0.147,0.002,0.016,1.000,0.000,0.000,0.000
24,-0.2078,-0.2250,0.0091,-0.0571,0.0810,0.0016,0.30,0.05,31.74,0,0.011,0.072,0.209,0.374,0.002,0.015,1.000,0.000,0.000,0.000
24,-0.2076,-0.2245,0.0092,-0.0540,0.0804,0.0023,0.39,0.05,31.71,0,0.011,-0.110,0.048,0.201,-0.001,0.016,1.000,0.000,0.000,0.000
24,-0.2080,-0.2239,0.0093,-0.0534,0.0798,0.0028,0.39,0.06,31.68,0,0.011,-0.328,0.053,-0.192,-0.002,0.016,1.001,0.000,0.000,0.000
24,-0.2075,-0.2247,0.0103,-0.0483,0.0718,0.0079,0.43,0.06,31.65,0,0.007,0.035,0.133,-0.175,-0.003,0.017,1.001,0.000,0.000,0.000
24,-0.2081,-0.2241,0.0103,-0.0493,0.0719,0.0079,0.43,0.06,31.62,0,0.007,0.056,0.283,-0.085,-0.001,0.016,1.002,0.000,0.000,0.000
24,-0.2083,-0.2242,0.0105,-0.0479,0.0683,0.0085,0.55,0.05,31.59,0,0.007,-0.137,-0.102,0.122,0.002,0.016,1.002,0.000,0.000,0.000
24,-0.2088,-0.2235,0.0106,-0.0481,0.0690,0.0085,0.58,0.02,31.56,0,0.007,-0.094,-0.050,-0.312,0.003,0.017,0.999,0.000,0.000,0.000
25,-0.2076,-0.2250,0.0110,-0.0396,0.0575,0.0107,0.57,0.04,31.53,0,0.007,0.016,0.007,-0.012,0.002,0.016,1.001,0.000,0.000,0.000
25,-0.2070,-0.2248,0.0094,-0.0347,0.0561,0.0017,0.57,0.04,31.49,0,0.006,0.071,-0.117,0.257,-0.001,0.015,1.001,0.000,0.000,0.000
25,-0.2081,-0.2242,0.0094,-0.0392,0.0565,0.0018,0.66,0.03,31.46,0,0.006,0.069,0.132,-0.089,-0.001,0.016,1.001,0.000,0.000,0.000
25,-0.2084,-0.2237,0.0094,-0.0392,0.0567,0.0020,0.68,0.00,31.44,0,0.006,-0.109,0.299,0.227,-0.001,0.016,1.000,0.000,0.000,0.000
25,-0.2075,-0.2248,0.0096,-0.0320,0.0478,0.0034,1.07,0.00,31.41,0,0.006,0.152,0.011,-0.230,-0.002,0.015,0.999,0.000,0.000,0.000
25,-0.2070,-0.2243,0.0096,-0.0279,0.0485,0.0034,1.12,0.02,31.37,0,0.006,0.033,0.066,-0.220,0.002,0.016,1.001,0.000,0.000,0.000
25,-0.2028,-0.2313,0.0085,-0.0030,0.0079,-0.0016,1.12,0.01,31.34,0,0.008,-0.003,-0.264,-0.182,0.002,0.017,0.999,0.000,0.000,0.000
25,-0.2026,-0.2324,0.0084,-0.0017,0.0011,-0.0016,1.09,0.04,31.31,0,0.008,0.036,0.089,-0.167,0.001,0.017,0.999,0.000,0.000,0.000
25,-0.2024,-0.2323,0.0084,-0.0006,0.0014,-0.0015,1.26,-0.05,31.28,0,0.008,-0.092,0.046,-0.083,0.001,0.018,0.999,0.000,0.000,0.000
25,-0.2032,-0.2321,0.0084,-0.0052,0.0022,-0.0014,1.55,-0.03,31.25,0,0.008,0.078,0.149,-0.047,0.000,0.016,0.999,0.000,0.000,0.000
25,-0.1996,-0.2345,0.0082,0.0151,-0.0115,-0.0021,1.82,-0.01,31.21,0,0.008,0.018,0.117,-0.017,-0.002,0.018,0.998,0.000,0.000,0.000
25,-0.1964,-0.2403,0.0077,0.0326,-0.0427,-0.0044,1.90,0.03,31.18,0,0.008,0.012,-0.069,-0.160,-0.001,0.014,0.999,0.000,0.000,0.000
25,-0.1933,-0.2461,0.0070,0.0483,-0.0731,-0.0086,1.89,0.01,31.15,0,0.008,-0.067,-0.035,0.002,-0.000,0.013,1.000,0.000,0.000,0.000
25,-0.1928,-0.2489,0.0066,0.0492,-0.0856,-0.0105,1.80,0.03,31.12,0,0.008,0.201,-0.220,-0.118,0.001,0.013,1.001,0.000,0.000,0.000
25,-0.1921,-0.2494,0.0065,0.0515,-0.0849,-0.0104,1.77,0.04,31.09,0,0.008,0.094,-0.020,-0.149,0.001,0.014,1.000,0.000,0.000,0.000
25,-0.1929,-0.2488,0.0073,0.0447,-0.0782,-0.0056,1.69,0.04,31.06,0,0.008,-0.032,-0.153,-0.041,0.000,0.016,0.998,0.000,0.000,0.000
25,-0.1930,-0.2491,0.0074,0.0423,-0.0767,-0.0052,1.65,0.05,31.03,0,0.007,-0.015,0.003,-0.288,0.002,0.014,1.000,0.000,0.000,0.000
26,-0.1934,-0.2484,0.0075,0.0384,-0.0702,-0.0039,1.64,0.07,30.99,0,0.007,0.020,0.060,-0.132,0.002,0.016,1.000,0.000,0.000,0.000
26,-0.1937,-0.2486,0.0076,0.0351,-0.0690,-0.0033,0.00,0.00,0.00,0,0.007,-0.085,-0.206,-0.338,0.004,0.016,1.001,0.000,0.000,0.000
26,-0.1938,-0.2492,0.0076,0.0332,-0.0696,-0.0029,0.09,-0.03,-0.00,0,0.007,0.108,-0.054,-0.145,0.002,0.017,1.002,0.000,0.000,0.000
26,0.0000,0.0000,0.0000,0.0023,-0.0011,0.0000,0.04,0.02,-0.00,0,0.007,-0.060,0.016,-0.150,-0.001,0.017,1.001,0.000,0.000,0.000
26,0.0001,-0.0002,0.0070,0.0077,-0.0177,-0.0002,0.38,-0.07,-0.00,0,0.009,0.030,0.238,0.089,-0.001,0.015,0.996,0.000,0.000,0.000
26,0.0001,-0.0002,0.0071,0.0042,-0.0111,-0.0002,0.28,-0.06,-0.01,0,0.009,0.213,-0.012,-0.054,-0.001,0.016,1.000,0.000,0.000,0.000
26,0.0003,-0.0009,0.0069,0.0099,-0.0319,-0.0004,0.33,0.04,-0.00,0,0.009,0.115,-0.073,0.021,-0.001,0.017,1.000,0.000,0.000,0.000
26,0.0003,-0.0011,0.0070,0.0098,-0.0257,-0.0002,-0.04,0.08,-0.00,0,0.009,-0.100,0.256,-0.053,0.001,0.014,1.000,0.000,0.000,0.000
26,0.0003,-0.0014,0.0080,0.0057,-0.0267,0.0008,0.09,-0.02,-0.01,0,0.009,0.023,-0.159,0.024,0.002,0.014,1.000,0.000,0.000,0.000
26,0.0003,-0.0010,0.0081,0.0039,-0.0111,0.0011,-0.02,-0.05,-0.00,0,0.008,0.052,0.310,-0.325,0.002,0.016,1.001,0.000,0.000,0.000
26,0.0005,-0.0014,0.0081,0.0076,-0.0143,0.0007,0.01,0.01,-0.00,0,0.008,-0.001,-0.141,-0.107,0.002,0.015,1.002,0.000,0.000,0.000
26,0.0006,-0.0013,0.0081,0.0084,-0.0092,0.0007,-0.01,-0.21,-0.00,0,0.008,0.154,0.081,0.019,0.002,0.015,1.000,0.000,0.000,0.000
26,0.0006,-0.0014,0.0082,0.0063,-0.0085,0.0007,0.89,-0.27,-0.00,0,0.008,-0.054,-0.188,-0.186,0.001,0.016,0.999,0.000,0.000,0.000
27,0.0011,-0.0015,0.0082,0.0137,-0.0066,0.0007,1.10,0.61,-0.01,0,0.008,-0.041,-0.081,-0.088,-0.000,0.017,0.999,0.000,0.000,0.000
27,0.0014,-0.0036,0.0081,0.0164,-0.0355,-0.0001,1.00,0.52,-0.01,0,0.007,0.109,-0.017,-0.168,-0.000,0.018,1.001,0.000,0.000,0.000
27,-0.0006,-0.0045,0.0081,-0.0127,-0.0427,-0.0002,0.90,0.39,-0.01,0,0.007,0.003,0.033,-0.083,0.001,0.019,1.001,0.000,0.000,0.000
27,-0.0005,-0.0046,0.0082,-0.0107,-0.0395,0.0003,1.02,0.37,-0.01,0,0.007,0.097,0.236,-0.421,0.002,0.015,1.000,0.000,0.000,0.000
27,-0.0002,-0.0048,0.0082,-0.0069,-0.0364,0.0006,1.02,0.37,-0.02,0,0.007,0.105,-0.055,-0.077,0.001,0.015,1.000,0.000,0.000,0.000
27,-0.0003,-0.0055,0.0082,-0.0068,-0.0404,0.0002,0.75,0.35,-0.01,0,0.007,0.080,0.055,0.120,0.002,0.017,1.000,0.000,0.000,0.000
27,-0.0003,-0.0059,0.0077,-0.0075,-0.0404,-0.0020,0.35,0.54,-0.01,0,0.008,0.074,-0.149,-0.056,0.002,0.016,1.000,0.000,0.000,0.000
27,-0.0003,-0.0054,0.0078,-0.0073,-0.0303,-0.0013,0.63,0.50,-0.01,0,0.008,0.318,-0.031,-0.146,0.003,0.014,0.999,0.000,0.000,0.000
27,-0.0011,-0.0043,0.0078,-0.0152,-0.0147,-0.0009,0.57,0.26,-0.01,0,0.008,0.076,0.022,-0.480,-0.000,0.016,1.000,0.000,0.000,0.000
27,-0.0011,-0.0055,0.0078,-0.0144,-0.0247,-0.0009,-0.57,0.35,-0.01,0,0.008,0.049,-0.239,-0.111,-0.001,0.016,0.999,0.000,0.000,0.000
27,-0.0003,-0.0055,0.0078,-0.0055,-0.0219,-0.0006,-0.27,0.62,-0.01,0,0.008,-0.249,-0.013,0.108,0.000,0.017,1.002,0.000,0.000,0.000
27,-0.0007,-0.0012,0.0080,-0.0093,0.0255,-0.0003,-0.28,0.38,-0.01,0,0.010,0.052,0.229,-0.162,0.002,0.016,1.000,0.000,0.000,0.000
27,-0.0019,-0.0022,0.0080,-0.0208,0.0151,0.0004,-0.42,0.53,-0.01,0,0.010,0.113,0.284,0.037,-0.000,0.015,0.996,0.000,0.000,0.000
27,-0.0011,-0.0020,0.0081,-0.0115,0.0174,0.0006,-0.27,0.88,-0.01,0,0.010,-0.105,-0.119,0.078,0.001,0.018,1.000,0.000,0.000,0.000
27,-0.0019,-0.0012,0.0080,-0.0190,0.0255,0.0001,0.03,0.68,-0.01,0,0.010,0.009,0.332,-0.173,0.001,0.017,1.000,0.000,0.000,0.000
27,-0.0038,-0.0016,0.0080,-0.0358,0.0212,-0.0002,0.05,0.79,-0.01,0,0.010,0.130,0.316,0.052,-0.000,0.018,0.998,0.000,0.000,0.000
28,-0.0032,-0.0029,0.0090,-0.0282,0.0097,0.0057,0.03,0.68,-0.01,0,0.008,-0.190,-0.054,0.001,-0.002,0.016,1.000,0.000,0.000,0.000
28,-0.0041,-0.0029,0.0090,-0.0343,0.0102,0.0054,0.05,0.58,-0.01,0,0.008,-0.148,0.008,-0.041,0.002,0.015,1.001,0.000,0.000,0.000
28,-0.0038,-0.0027,0.0091,-0.0304,0.0125,0.0054,0.08,0.46,-0.01,0,0.008,0.026,0.227,0.051,0.002,0.015,1.001,0.000,0.000,0.000
28,-0.0036,-0.0027,0.0092,-0.0266,0.0129,0.0057,0.08,0.46,-0.01,0,0.008,0.067,0.036,0.215,0.002,0.014,1.002,0.000,0.000,0.000
28,-0.0031,-0.0027,0.0093,-0.0214,0.0133,0.0058,0.11,0.49,-0.01,0,0.008,0.162,0.070,-0.037,0.001,0.017,0.999,0.000,0.000,0.000
28,-0.0033,-0.0026,0.0088,-0.0221,0.0149,0.0025,0.11,0.49,-0.01,0,0.010,0.118,-0.040,-0.064,0.001,0.017,0.999,0.000,0.000,0.000
28,-0.0037,-0.0026,0.0088,-0.0248,0.0147,0.0025,-0.16,0.48,-0.01,0,0.010,-0.396,-0.112,-0.136,0.002,0.017,1.000,0.000,0.000,0.000
28,-0.0040,-0.0025,0.0088,-0.0254,0.0161,0.0026,0.00,0.47,-0.01,0,0.010,0.094,0.534,0.214,0.002,0.016,1.000,0.000,0.000,0.000
28,-0.0042,-0.0004,0.0088,-0.0255,0.0323,0.0023,1.20,0.86,-0.03,0,0.010,-0.057,-0.159,0.209,0.002,0.017,0.999,0.000,0.000,0.000
28,-0.0044,-0.0013,0.0094,-0.0258,0.0247,0.0055,1.20,0.86,-0.03,0,0.010,0.159,0.013,0.229,0.001,0.015,1.001,0.000,0.000,0.000
28,-0.0077,-0.0103,0.0096,-0.0495,-0.0430,0.0052,1.19,0.64,-0.02,0,0.010,0.036,0.091,0.047,-0.001,0.014,1.001,0.000,0.000,0.000
28,-0.0082,-0.0108,0.0097,-0.0509,-0.0433,0.0052,1.12,0.61,-0.02,0,0.010,0.148,-0.044,-0.332,-0.000,0.015,1.001,0.000,0.000,0.000
28,-0.0069,-0.0112,0.0098,-0.0387,-0.0436,0.0060,0.91,0.61,-0.02,0,0.010,0.019,0.267,0.148,0.000,0.017,1.000,0.000,0.000,0.000
28,-0.0070,-0.0110,0.0099,-0.0378,-0.0398,0.0065,0.81,0.58,-0.02,0,0.010,-0.036,0.138,0.063,0.001,0.016,1.001,0.000,0.000,0.000
28,-0.0074,-0.0095,0.0101,-0.0390,-0.0267,0.0074,0.81,0.56,-0.02,0,0.010,-0.219,0.029,0.169,0.001,0.018,1.000,0.000,0.000,0.000
28,-0.0076,-0.0088,0.0102,-0.0382,-0.0205,0.0074,1.00,0.48,-0.02,0,0.008,0.097,0.368,-0.074,-0.001,0.017,0.998,0.000,0.000,0.000
29,-0.0077,-0.0090,0.0103,-0.0376,-0.0205,0.0076,0.98,0.43,-0.02,0,0.008,0.137,0.091,-0.337,-0.001,0.015,0.998,0.000,0.000,0.000
29,-0.0073,-0.0111,0.0103,-0.0333,-0.0330,0.0074,0.70,0.39,-0.02,0,0.008,0.128,-0.161,-0.144,0.000,0.016,1.001,0.000,0.000,0.000
29,-0.0072,-0.0113,0.0104,-0.0312,-0.0321,0.0077,0.71,0.36,-0.02,0,0.008,0.055,-0.083,0.009,0.002,0.015,1.000,0.000,0.000,0.000
29,-0.0071,-0.0086,0.0095,-0.0289,-0.0119,0.0029,0.71,0.36,-0.02,0,0.008,-0.190,-0.094,0.245,0.002,0.016,1.000,0.000,0.000,0.000
29,-0.0070,-0.0088,0.0096,-0.0271,-0.0121,0.0029,0.79,0.23,-0.02,0,0.009,0.223,-0.070,-0.209,0.001,0.016,1.000,0.000,0.000,0.000
29,-0.0073,-0.0089,0.0096,-0.0278,-0.0117,0.0027,0.86,0.25,-0.02,0,0.009,0.092,0.295,0.072,0.001,0.016,1.000,0.000,0.000,0.000
29,-0.0061,-0.0100,0.0096,-0.0189,-0.0176,0.0027,0.68,0.25,-0.02,0,0.009,-0.243,0.050,-0.128,0.003,0.017,1.002,0.000,0.000,0.000
30,-0.0066,-0.0111,0.0097,-0.0211,-0.0230,0.0026,0.69,0.16,-0.02,0,0.009,0.282,-0.221,-0.118,0.002,0.014,1.000,0.000,0.000,0.000
40,-0.0068,-0.0091,0.0097,-0.0212,-0.0090,0.0030,0.66,0.21,-0.02,0,0.009,0.073,0.074,0.140,0.001,0.014,1.000,0.000,0.000,0.000
49,-0.0058,-0.0093,0.0095,-0.0146,-0.0095,0.0014,0.65,0.17,-0.02,0,0.006,0.046,-0.110,-0.137,-0.001,0.016,1.000,0.000,0.000,0.000
61,-0.0066,-0.0090,0.0095,-0.0187,-0.0068,0.0014,0.71,0.22,-0.02,0,0.006,0.038,-0.162,0.123,-0.001,0.017,1.000,0.000,0.000,0.000
69,-0.0063,-0.0090,0.0095,-0.0158,-0.0058,0.0015,0.64,0.22,-0.02,0,0.006,0.037,0.090,-0.079,-0.001,0.015,0.999,0.000,0.000,0.000
80,-0.0070,-0.0098,0.0095,-0.0194,-0.0097,0.0016,0.65,0.07,-0.02,0,0.006,-0.128,-0.156,-0.322,0.001,0.015,1.000,0.000,0.000,0.000
90,-0.0072,-0.0089,0.0080,-0.0195,-0.0039,-0.0063,0.63,0.12,-0.02,0,0.006,0.231,0.269,0.034,0.001,0.015,0.999,0.000,0.000,0.000
100,-0.0053,-0.0092,0.0080,-0.0076,-0.0048,-0.0062,0.65,0.10,-0.02,0,0.008,0.004,-0.127,-0.316,0.002,0.015,1.000,0.000,0.000,0.000
110,-0.0061,-0.0089,0.0079,-0.0118,-0.0025,-0.0061,0.63,0.16,-0.02,0,0.008,0.247,-0.022,-0.011,0.000,0.018,1.003,0.000,0.000,0.000
119,-0.0060,-0.0092,0.0079,-0.0113,-0.0033,-0.0061,0.78,0.03,-0.03,0,0.008,0.029,-0.111,-0.144,-0.000,0.018,1.001,0.000,0.000,0.000
130,-0.0070,-0.0089,0.0078,-0.0165,-0.0013,-0.0062,0.52,0.08,-0.03,0,0.008,0.189,-0.141,0.076,0.001,0.016,1.002,0.000,0.000,0.000
140,-0.0052,-0.0112,0.0078,-0.0053,-0.0139,-0.0060,0.67,0.09,-0.03,0,0.008,-0.009,-0.018,0.306,0.001,0.018,1.000,0.000,0.000,0.000
150,-0.0060,-0.0074,0.0079,-0.0092,0.0088,-0.0052,0.75,0.08,-0.03,0,0.007,-0.068,-0.142,-0.101,-0.001,0.016,0.997,0.000,0.000,0.000
160,-0.0062,-0.0097,0.0079,-0.0100,-0.0040,-0.0048,0.65,0.06,-0.03,0,0.007,-0.093,-0.240,-0.114,-0.001,0.016,0.998,0.000,0.000,0.000
170,-0.0062,-0.0109,0.0078,-0.0096,-0.0101,-0.0046,0.74,0.06,-0.03,0,0.007,-0.139,-0.156,-0.052,-0.001,0.017,0.999,0.000,0.000,0.000
181,-0.0059,-0.0094,0.0078,-0.0077,-0.0007,-0.0044,0.61,0.10,-0.03,0,0.007,0.038,-0.035,0.009,0.001,0.018,1.002,0.000,0.000,0.000
190,-0.0059,-0.0109,0.0078,-0.0071,-0.0084,-0.0043,0.63,0.03,-0.03,0,0.007,0.269,-0.347,-0.021,0.002,0.017,1.001,0.000,0.000,0.000
200,-0.0066,-0.0089,0.0074,-0.0108,0.0034,-0.0060,0.63,0.01,-0.03,0,0.009,-0.116,0.146,-0.059,0.002,0.017,1.000,0.000,0.000,0.000
210,-0.0056,-0.0092,0.0073,-0.0048,0.0022,-0.0061,0.66,0.05,-0.03,0,0.009,-0.166,0.011,0.024,0.002,0.019,0.998,0.000,0.000,0.000
220,-0.0054,-0.0092,0.0073,-0.0034,0.0026,-0.0063,0.38,0.01,-0.03,0,0.009,0.073,-0.025,-0.076,0.002,0.019,1.000,0.000,0.000,0.000
230,-0.0061,-0.0097,0.0072,-0.0073,0.0004,-0.0062,0.11,0.02,-0.04,0,0.009,-0.004,0.068,-0.196,0.002,0.018,1.001,0.000,0.000,0.000
240,-0.0053,-0.0049,0.0072,-0.0027,0.0273,-0.0061,0.37,0.06,-0.03,0,0.009,0.336,0.115,0.241,0.003,0.016,1.000,0.000,0.000,0.000
250,-0.0056,0.0001,0.0077,-0.0037,0.0541,-0.0032,0.41,0.05,-0.03,0,0.009,-0.048,-0.120,0.228,0.000,0.015,0.998,0.000,0.000,0.000
260,-0.0063,-0.0040,0.0081,-0.0072,0.0301,-0.0009,0.46,0.05,-0.03,0,0.009,-0.079,0.145,0.075,0.000,0.014,0.998,0.000,0.000,0.000
269,-0.0063,-0.0043,0.0081,-0.0067,0.0281,-0.0008,0.43,0.08,-0.03,0,0.009,0.079,0.016,-0.013,0.001,0.017,1.000,0.000,0.000,0.000
279,-0.0063,-0.0051,0.0081,-0.0062,0.0235,-0.0005,0.48,0.07,-0.03,0,0.009,0.045,-0.185,0.077,-0.000,0.015,0.999,0.000,0.000,0.000
290,-0.0070,-0.0041,0.0085,-0.0096,0.0280,0.0013,0.41,0.07,-0.03,0,0.009,0.211,-0.038,0.239,-0.002,0.018,0.998,0.000,0.000,0.000
299,-0.0070,-0.0049,0.0085,-0.0089,0.0233,0.0015,0.46,0.05,-0.03,0,0.007,0.092,-0.317,-0.093,-0.000,0.016,1.000,0.000,0.000,0.000
309,-0.0070,-0.0033,0.0085,-0.0085,0.0313,0.0011,0.54,0.05,-0.03,0,0.007,0.106,0.047,0.131,-0.001,0.015,1.001,0.000,0.000,0.000
319,-0.0067,-0.0040,0.0086,-0.0068,0.0264,0.0013,0.40,0.01,-0.03,0,0.007,-0.095,-0.047,-0.317,-0.000,0.016,1.001,0.000,0.000,0.000
330,-0.0067,-0.0052,0.0086,-0.0064,0.0193,0.0016,0.34,-0.23,-0.03,0,0.007,-0.029,0.240,0.129,0.001,0.018,1.001,0.000,0.000,0.000
340,-0.0060,-0.0025,0.0086,-0.0025,0.0337,0.0011,0.48,-0.11,-0.03,0,0.007,0.107,-0.183,-0.170,-0.000,0.016,1.000,0.000,0.000,0.000
349,-0.0016,-0.0009,0.0079,0.0212,0.0412,-0.0028,0.55,-0.02,-0.03,0,0.009,0.033,-0.241,-0.027,0.000,0.014,0.998,0.000,0.000,0.000
359,-0.0037,-0.0032,0.0081,0.0092,0.0274,-0.0014,0.61,0.02,-0.03,0,0.009,0.008,0.200,-0.318,0.001,0.015,1.001,0.000,0.000,0.000
369,-0.0053,-0.0042,0.0081,0.0002,0.0214,-0.0009,0.56,0.02,-0.03,0,0.009,-0.229,-0.162,-0.004,0.000,0.016,1.001,0.000,0.000,0.000
379,-0.0060,-0.0051,0.0081,-0.0035,0.0159,-0.0006,0.81,-0.03,-0.02,0,0.009,0.061,-0.325,0.024,-0.000,0.017,1.001,0.000,0.000,0.000
389,-0.0060,-0.0040,0.0085,-0.0033,0.0217,0.0013,0.93,-0.02,-0.02,0,0.009,0.094,-0.105,-0.148,0.001,0.019,1.000,0.000,0.000,0.000
400,-0.0051,-0.0088,0.0086,0.0018,-0.0049,0.0017,0.93,-0.02,-0.02,0,0.009,-0.155,-0.137,-0.040,0.001,0.020,1.001,0.000,0.000,0.000
409,-0.0053,-0.0113,0.0085,0.0005,-0.0180,0.0012,0.97,-0.00,-0.02,0,0.009,-0.104,0.238,0.037,0.001,0.017,1.001,0.000,0.000,0.000
420,-0.0053,-0.0115,0.0085,0.0006,-0.0181,0.0013,1.28,-0.15,-0.01,0,0.009,0.053,-0.183,-0.225,0.000,0.016,1.000,0.000,0.000,0.000
430,-0.0055,-0.0124,0.0085,-0.0007,-0.0221,0.0011,1.31,0.03,-0.01,0,0.009,0.144,-0.218,-0.100,0.000,0.015,0.999,0.000,0.000,0.000
440,-0.0027,-0.0188,0.0081,0.0149,-0.0556,-0.0012,1.17,0.04,-0.02,0,0.009,0.005,-0.285,0.376,0.003,0.016,1.001,0.000,0.000,0.000
449,-0.0062,-0.0201,0.0085,-0.0046,-0.0601,0.0007,1.27,0.09,-0.02,0,0.006,0.180,-0.100,-0.060,0.002,0.016,1.002,0.000,0.000,0.000
460,-0.0064,-0.0179,0.0088,-0.0055,-0.0452,0.0025,1.12,0.08,-0.02,0,0.006,-0.239,0.154,0.117,-0.000,0.016,1.000,0.000,0.000,0.000
470,-0.0074,-0.0205,0.0087,-0.0102,-0.0568,0.0016,0.99,0.04,-0.02,0,0.006,-0.049,-0.017,0.219,0.001,0.017,1.000,0.000,0.000,0.000
480,-0.0073,-0.0178,0.0090,-0.0098,-0.0401,0.0034,1.07,0.08,-0.02,0,0.006,-0.090,0.114,0.122,0.001,0.017,0.999,0.000,0.000,0.000
490,-0.0066,-0.0154,0.0079,-0.0054,-0.0251,-0.0025,1.04,0.05,-0.02,0,0.006,-0.040,-0.036,0.115,-0.001,0.017,0.999,0.000,0.000,0.000
500,-0.0076,-0.0175,0.0078,-0.0099,-0.0349,-0.0027,1.02,0.03,-0.02,0,0.006,0.059,0.074,-0.141,-0.000,0.015,1.000,0.000,0.000,0.000
510,-0.0069,-0.0172,0.0078,-0.0056,-0.0320,-0.0023,1.02,0.03,-0.02,0,0.006,-0.174,0.087,-0.038,-0.001,0.018,0.999,0.000,0.000,0.000
520,-0.0066,-0.0172,0.0078,-0.0042,-0.0303,-0.0022,0.93,-0.00,-0.02,0,0.006,0.168,-0.102,0.060,0.002,0.017,0.997,0.000,0.000,0.000
529,-0.0067,-0.0175,0.0078,-0.0041,-0.0303,-0.0022,0.94,-0.08,-0.03,0,0.006,-0.178,0.022,0.125,0.001,0.016,0.999,0.000,0.000,0.000
540,-0.0059,-0.0157,0.0079,-0.0001,-0.0196,-0.0016,0.91,0.01,-0.02,0,0.006,0.080,-0.103,0.043,0.000,0.017,0.998,0.000,0.000,0.000
550,-0.0043,-0.0162,0.0070,0.0089,-0.0208,-0.0060,0.90,0.02,-0.03,0,0.008,0.123,0.230,0.035,-0.000,0.017,0.998,0.000,0.000,0.000
559,-0.0062,-0.0157,0.0070,-0.0015,-0.0171,-0.0057,0.95,0.01,-0.02,0,0.008,0.027,0.298,0.324,-0.000,0.015,1.000,0.000,0.000,0.000
570,-0.0064,-0.0156,0.0070,-0.0027,-0.0159,-0.0059,0.92,0.01,-0.02,0,0.008,0.246,-0.041,-0.186,-0.000,0.015,1.003,0.000,0.000,0.000
579,-0.0064,-0.0170,0.0069,-0.0023,-0.0222,-0.0062,1.00,0.03,-0.03,0,0.008,-0.043,0.132,-0.334,-0.001,0.018,1.000,0.000,0.000,0.000
589,-0.0064,-0.0165,0.0068,-0.0022,-0.0184,-0.0061,0.86,0.04,-0.03,0,0.008,-0.068,-0.220,0.171,-0.001,0.015,1.000,0.000,0.000,0.000
600,-0.0068,-0.0186,0.0073,-0.0044,-0.0282,-0.0039,0.86,0.05,-0.03,0,0.006,0.111,0.275,0.083,-0.001,0.015,1.000,0.000,0.000,0.000
610,-0.0071,-0.0157,0.0073,-0.0054,-0.0120,-0.0034,0.85,0.02,-0.03,0,0.006,-0.128,0.146,-0.298,0.002,0.018,1.002,0.000,0.000,0.000
619,-0.0073,-0.0157,0.0073,-0.0064,-0.0113,-0.0033,0.85,0.04,-0.03,0,0.006,-0.029,0.266,0.156,0.001,0.018,1.001,0.000,0.000,0.000
629,-0.0068,-0.0157,0.0073,-0.0037,-0.0105,-0.0031,0.88,0.01,-0.03,0,0.006,0.194,-0.233,-0.231,0.001,0.016,0.999,0.000,0.000,0.000
640,-0.0073,-0.0157,0.0072,-0.0060,-0.0097,-0.0031,1.45,-0.05,-0.02,0,0.006,0.121,-0.116,-0.237,0.000,0.015,1.002,0.000,0.000,0.000
650,-0.0068,-0.0166,0.0067,-0.0035,-0.0139,-0.0059,1.38,-0.05,-0.03,0,0.008,-0.285,0.163,0.101,0.003,0.016,1.001,0.000,0.000,0.000
659,-0.0052,-0.0298,0.0065,0.0049,-0.0812,-0.0077,1.42,-0.04,-0.02,0,0.008,-0.419,-0.007,0.178,0.003,0.016,1.002,0.000,0.000,0.000
669,-0.0052,-0.0290,0.0066,0.0049,-0.0738,-0.0063,1.38,-0.05,-0.02,0,0.008,-0.025,-0.092,-0.067,0.002,0.018,1.000,0.000,0.000,0.000
679,-0.0054,-0.0308,0.0064,0.0036,-0.0797,-0.0071,1.30,-0.02,-0.03,0,0.008,-0.080,0.159,0.083,0.002,0.018,0.998,0.000,0.000,0.000
689,-0.0052,-0.0307,0.0065,0.0047,-0.0761,-0.0062,1.30,-0.02,-0.03,0,0.008,-0.119,0.133,0.062,-0.001,0.017,1.001,0.000,0.000,0.000
700,-0.0059,-0.0298,0.0072,0.0011,-0.0681,-0.0017,1.31,-0.06,-0.03,0,0.007,0.001,-0.191,0.212,0.000,0.017,1.001,0.000,0.000,0.000
709,-0.0059,-0.0305,0.0072,0.0015,-0.0688,-0.0015,1.25,-0.07,-0.03,0,0.007,-0.161,0.180,-0.127,0.000,0.016,1.001,0.000,0.000,0.000
719,-0.0049,-0.0313,0.0072,0.0067,-0.0702,-0.0015,1.24,-0.21,-0.03,0,0.007,0.083,-0.332,0.236,-0.001,0.017,0.999,0.000,0.000,0.000
729,-0.0047,-0.0308,0.0073,0.0078,-0.0642,-0.0009,1.01,-0.22,-0.04,0,0.007,0.034,0.168,-0.120,-0.001,0.016,0.998,0.000,0.000,0.000
739,-0.0014,-0.0311,0.0073,0.0246,-0.0633,-0.0012,1.15,-0.24,-0.04,0,0.007,-0.060,-0.049,-0.034,0.001,0.017,1.001,0.000,0.000,0.000
750,-0.0008,-0.0264,0.0074,0.0271,-0.0360,0.0004,1.16,-0.20,-0.03,0,0.005,0.106,-0.189,-0.276,0.001,0.018,1.000,0.000,0.000,0.000
759,-0.0001,-0.0301,0.0073,0.0295,-0.0533,-0.0002,1.10,-0.18,-0.04,0,0.005,-0.117,-0.055,-0.136,0.003,0.017,0.999,0.000,0.000,0.000
769,-0.0008,-0.0310,0.0074,0.0246,-0.0554,-0.0000,1.13,-0.17,-0.04,0,0.005,0.141,-0.087,-0.068,0.002,0.016,0.998,0.000,0.000,0.000
779,-0.0008,-0.0302,0.0075,0.0235,-0.0490,0.0005,1.30,-0.19,-0.03,0,0.005,0.048,-0.064,-0.250,0.001,0.016,1.001,0.000,0.000,0.000
789,-0.0009,-0.0312,0.0064,0.0223,-0.0521,-0.0051,1.56,-0.16,-0.03,0,0.005,-0.004,-0.026,-0.163,0.000,0.016,1.003,0.000,0.000,0.000
799,-0.0002,-0.0358,0.0062,0.0250,-0.0729,-0.0064,1.53,-0.15,-0.03,0,0.005,0.163,-0.026,-0.029,-0.001,0.015,1.001,0.000,0.000,0.000
810,-0.0007,-0.0427,0.0057,0.0217,-0.1054,-0.0098,1.43,-0.14,-0.03,0,0.005,-0.370,0.177,0.025,0.001,0.019,1.000,0.000,0.000,0.000
820,-0.0007,-0.0431,0.0057,0.0210,-0.1028,-0.0092,1.46,-0.15,-0.03,0,0.005,-0.071,-0.130,-0.017,0.000,0.017,1.001,0.000,0.000,0.000
829,-0.0007,-0.0419,0.0059,0.0202,-0.0923,-0.0072,1.66,-0.15,-0.02,0,0.005,-0.014,-0.098,-0.010,-0.001,0.017,1.000,0.000,0.000,0.000
839,-0.0003,-0.0436,0.0057,0.0217,-0.0973,-0.0079,1.77,-0.11,-0.02,0,0.005,0.233,-0.138,-0.102,-0.000,0.017,1.000,0.000,0.000,0.000
849,-0.0001,-0.0493,0.0049,0.0218,-0.1228,-0.0123,1.71,-0.13,-0.02,0,0.009,-0.139,0.136,-0.265,0.000,0.017,1.001,0.000,0.000,0.000
859,-0.0006,-0.0529,0.0044,0.0183,-0.1369,-0.0148,1.71,-0.13,-0.03,0,0.009,-0.023,-0.349,-0.151,-0.002,0.015,1.002,0.000,0.000,0.000
870,0.0001,-0.0529,0.0045,0.0211,-0.1306,-0.0131,1.67,-0.12,-0.03,0,0.009,-0.213,0.097,-0.047,-0.002,0.015,1.002,0.000,0.000,0.000
879,0.0003,-0.0542,0.0044,0.0213,-0.1318,-0.0131,1.63,-0.11,-0.03,0,0.009,0.403,0.191,0.098,-0.001,0.018,1.000,0.000,0.000,0.000
889,0.0003,-0.0550,0.0063,0.0203,-0.1300,-0.0020,1.54,-0.11,-0.03,0,0.009,-0.064,-0.022,-0.244,0.000,0.017,1.000,0.000,0.000,0.000
899,0.0003,-0.0555,0.0064,0.0194,-0.1271,-0.0012,1.49,-0.07,-0.03,0,0.008,0.276,-0.127,0.259,0.001,0.016,1.001,0.000,0.000,0.000
910,0.0005,-0.0547,0.0067,0.0196,-0.1172,0.0010,1.40,-0.06,-0.03,0,0.008,0.274,0.326,-0.061,0.002,0.015,1.001,0.000,0.000,0.000
920,-0.0002,-0.0548,0.0069,0.0147,-0.1126,0.0024,1.39,-0.09,-0.03,0,0.008,0.107,0.017,-0.133,0.002,0.017,1.001,0.000,0.000,0.000
929,-0.0005,-0.0540,0.0072,0.0126,-0.1032,0.0045,1.66,-0.07,-0.02,0,0.008,-0.138,0.110,-0.118,-0.001,0.017,0.999,0.000,0.000,0.000
939,0.0004,-0.0548,0.0072,0.0168,-0.1027,0.0046,1.90,-0.03,-0.01,0,0.008,-0.049,-0.050,-0.042,-0.001,0.016,0.999,0.000,0.000,0.000
949,-0.0000,-0.0620,0.0071,0.0135,-0.1362,0.0020,1.84,-0.04,-0.01,0,0.008,-0.012,0.049,0.474,0.001,0.016,1.002,0.000,0.000,0.000
960,-0.0007,-0.0690,0.0062,0.0093,-0.1676,-0.0043,1.77,-0.03,-0.01,0,0.008,-0.087,0.086,-0.182,0.001,0.015,1.000,0.000,0.000,0.000
970,-0.0005,-0.0693,0.0065,0.0102,-0.1622,-0.0021,1.67,-0.03,-0.02,0,0.008,-0.108,-0.100,0.046,0.000,0.015,1.001,0.000,0.000,0.000
979,-0.0005,-0.0695,0.0068,0.0099,-0.1557,0.0004,1.65,-0.02,-0.01,0,0.008,0.033,0.165,0.088,-0.000,0.015,0.999,0.000,0.000,0.000
989,-0.0005,-0.0687,0.0074,0.0093,-0.1449,0.0040,1.51,-0.03,-0.02,0,0.008,-0.087,-0.060,-0.097,-0.001,0.016,1.000,0.000,0.000,0.000
999,-0.0005,-0.0698,0.0078,0.0089,-0.1441,0.0058,1.49,-0.02,-0.02,0,0.008,-0.163,0.111,0.084,0.000,0.016,0.999,0.000,0.000,0.000
1010,-0.0003,-0.0680,0.0083,0.0097,-0.1280,0.0097,1.39,-0.02,-0.02,0,0.008,0.150,-0.318,-0.011,0.003,0.017,0.999,0.000,0.000,0.000
1019,-0.0003,-0.0690,0.0085,0.0093,-0.1277,0.0101,1.41,-0.01,-0.02,0,0.008,0.010,-0.089,-0.154,0.002,0.014,1.002,0.000,0.000,0.000
1029,-0.0003,-0.0679,0.0089,0.0088,-0.1163,0.0124,1.49,-0.03,-0.02,0,0.008,0.230,-0.292,-0.488,0.001,0.013,1.001,0.000,0.000,0.000
1039,-0.0003,-0.0696,0.0090,0.0082,-0.1198,0.0118,1.47,-0.02,-0.02,0,0.008,-0.076,0.269,0.149,0.001,0.016,1.001,0.000,0.000,0.000
1049,0.0001,-0.0725,0.0085,0.0100,-0.1297,0.0084,1.59,0.04,-0.01,0,0.007,-0.108,-0.066,0.008,-0.001,0.017,1.000,0.000,0.000,0.000
1059,0.0001,-0.0735,0.0086,0.0096,-0.1291,0.0085,1.57,0.04,-0.01,0,0.007,-0.099,-0.090,0.016,-0.002,0.016,0.999,0.000,0.000,0.000
1069,-0.0012,-0.0778,0.0083,0.0027,-0.1455,0.0058,1.49,0.08,-0.01,0,0.007,0.229,-0.111,0.192,-0.001,0.017,0.999,0.000,0.000,0.000
1079,-0.0012,-0.0788,0.0085,0.0026,-0.1447,0.0065,1.68,0.02,-0.01,0,0.007,0.067,0.311,0.059,0.001,0.017,1.000,0.000,0.000,0.000
1089,-0.0021,-0.0784,0.0089,-0.0020,-0.1360,0.0091,1.68,0.02,-0.01,0,0.007,-0.053,-0.252,-0.139,0.002,0.017,0.999,0.000,0.000,0.000
1099,-0.0008,-0.0842,0.0076,0.0047,-0.1603,0.0008,1.61,-0.02,-0.02,0,0.006,-0.124,-0.460,0.193,-0.001,0.016,0.999,0.000,0.000,0.000
1109,-0.0007,-0.0858,0.0076,0.0045,-0.1616,0.0009,1.54,0.03,-0.02,0,0.006,0.074,0.220,0.292,0.001,0.016,0.999,0.000,0.000,0.000
1119,0.0004,-0.0857,0.0080,0.0099,-0.1541,0.0029,1.66,0.07,-0.01,0,0.006,0.112,0.021,-0.089,0.001,0.017,1.000,0.000,0.000,0.000
1129,-0.0008,-0.0856,0.0083,0.0035,-0.1466,0.0052,1.65,0.08,-0.01,0,0.006,-0.075,0.121,0.450,0.002,0.016,1.001,0.000,0.000,0.000
1139,-0.0017,-0.0899,0.0078,-0.0013,-0.1624,0.0013,1.70,0.08,-0.01,0,0.006,-0.135,0.014,0.085,-0.002,0.016,1.002,0.000,0.000,0.000
1149,-0.0019,-0.0912,0.0071,-0.0025,-0.1622,-0.0026,1.60,0.06,-0.01,0,0.006,0.077,0.271,0.006,0.001,0.016,1.001,0.000,0.000,0.000
1159,-0.0019,-0.0942,0.0068,-0.0024,-0.1705,-0.0043,1.55,0.05,-0.01,0,0.006,0.074,-0.201,-0.367,0.002,0.016,1.001,0.000,0.000,0.000
1169,-0.0015,-0.0935,0.0073,-0.0000,-0.1591,-0.0010,1.52,0.06,-0.02,0,0.006,0.059,0.203,0.024,-0.000,0.016,1.000,0.000,0.000,0.000
1179,-0.0014,-0.0941,0.0075,0.0001,-0.1549,0.0003,1.47,0.02,-0.02,0,0.006,0.108,-0.196,-0.237,0.000,0.018,1.000,0.000,0.000,0.000
1188,-0.0015,-0.0948,0.0069,0.0001,-0.1516,-0.0020,1.40,0.05,-0.02,0,0.006,-0.117,0.146,-0.008,0.001,0.017,1.003,0.000,0.000,0.000
1199,-0.0006,-0.0951,0.0071,0.0045,-0.1465,-0.0007,1.26,0.05,-0.02,0,0.012,-0.013,0.148,0.145,0.003,0.015,1.000,0.000,0.000,0.000
1210,-0.0012,-0.0948,0.0073,0.0009,-0.1383,0.0011,1.22,0.03,-0.02,0,0.012,0.014,-0.125,-0.271,0.001,0.016,1.000,0.000,0.000,0.000
1220,-0.0012,-0.0930,0.0078,0.0009,-0.1227,0.0043,1.16,0.04,-0.02,0,0.012,-0.018,-0.203,-0.208,0.001,0.017,0.999,0.000,0.000,0.000
1228,-0.0008,-0.0932,0.0079,0.0030,-0.1176,0.0053,1.18,-0.02,-0.03,0,0.012,0.166,0.015,0.031,-0.000,0.016,0.999,0.000,0.000,0.000
1239,-0.0010,-0.0932,0.0081,0.0017,-0.1115,0.0066,1.11,0.03,-0.03,0,0.012,0.087,0.020,-0.213,0.001,0.016,1.002,0.000,0.000,0.000
1249,0.0005,-0.0947,0.0099,0.0097,-0.1138,0.0150,1.06,0.06,-0.03,0,0.008,0.033,-0.019,-0.135,0.000,0.016,0.999,0.000,0.000,0.000
1260,-0.0006,-0.0943,0.0102,0.0038,-0.1058,0.0163,0.99,0.05,-0.03,0,0.008,-0.062,0.044,-0.017,0.001,0.015,0.998,0.000,0.000,0.000
1268,-0.0015,-0.0943,0.0105,-0.0010,-0.1003,0.0171,0.93,0.04,-0.03,0,0.008,0.157,-0.186,-0.516,0.000,0.016,0.998,0.000,0.000,0.000
1278,-0.0010,-0.0936,0.0108,0.0012,-0.0916,0.0182,0.64,0.05,-0.03,0,0.008,-0.183,0.036,-0.334,0.001,0.016,1.000,0.000,0.000,0.000
1288,-0.0010,-0.0929,0.0098,0.0012,-0.0835,0.0125,0.34,0.07,-0.03,0,0.008,0.096,0.077,-0.096,-0.001,0.018,1.000,0.000,0.000,0.000
1299,-0.0011,-0.0869,0.0102,0.0010,-0.0479,0.0157,0.31,0.07,-0.03,0,0.010,-0.035,-0.039,-0.136,0.000,0.016,1.000,0.000,0.000,0.000
1308,-0.0017,-0.0800,0.0104,-0.0024,-0.0090,0.0168,0.36,0.08,-0.03,0,0.010,0.116,-0.094,-0.087,0.000,0.016,0.999,0.000,0.000,0.000
1319,-0.0017,-0.0796,0.0105,-0.0023,-0.0052,0.0165,0.26,0.04,-0.04,0,0.010,-0.124,-0.017,0.130,0.001,0.016,1.001,0.000,0.000,0.000
1329,-0.0019,-0.0807,0.0107,-0.0034,-0.0097,0.0167,0.26,0.07,-0.03,0,0.010,-0.245,0.259,-0.163,-0.000,0.016,1.001,0.000,0.000,0.000
1338,-0.0011,-0.0785,0.0108,0.0012,0.0035,0.0165,0.27,0.09,-0.04,0,0.010,-0.013,0.054,-0.078,-0.002,0.015,1.001,0.000,0.000,0.000
1350,-0.0017,-0.0784,0.0106,-0.0024,0.0048,0.0148,0.27,0.09,-0.03,0,0.006,0.214,0.017,-0.015,-0.000,0.018,1.001,0.000,0.000,0.000
1359,-0.0021,-0.0786,0.0108,-0.0048,0.0044,0.0148,0.30,0.08,-0.03,0,0.006,-0.104,-0.078,-0.128,-0.001,0.017,0.998,0.000,0.000,0.000
1369,-0.0022,-0.0786,0.0109,-0.0049,0.0055,0.0148,0.20,0.08,-0.03,0,0.006,-0.150,-0.074,-0.050,0.000,0.016,0.998,0.000,0.000,0.000
1379,-0.0022,-0.0793,0.0111,-0.0047,0.0025,0.0150,0.41,0.10,-0.04,0,0.006,0.185,0.158,-0.191,-0.000,0.014,0.999,0.000,0.000,0.000
1389,-0.0022,-0.0766,0.0090,-0.0046,0.0174,0.0031,0.44,0.08,-0.04,0,0.006,-0.136,-0.350,0.504,0.001,0.015,1.001,0.000,0.000,0.000
1399,-0.0026,-0.0815,0.0093,-0.0071,-0.0082,0.0037,0.30,0.08,-0.03,0,0.009,-0.153,-0.139,-0.160,0.000,0.015,1.002,0.000,0.000,0.000
1408,-0.0024,-0.0824,0.0093,-0.0057,-0.0116,0.0036,0.49,0.08,-0.04,0,0.009,-0.061,0.197,0.302,-0.000,0.014,1.001,0.000,0.000,0.000
1418,-0.0024,-0.0792,0.0093,-0.0055,0.0068,0.0039,0.44,0.08,-0.04,0,0.009,0.042,-0.273,0.021,0.001,0.017,1.001,0.000,0.000,0.000
1429,-0.0023,-0.0835,0.0095,-0.0052,-0.0173,0.0041,0.35,0.09,-0.04,0,0.009,0.015,-0.204,-0.062,-0.002,0.016,1.000,0.000,0.000,0.000
1438,-0.0023,-0.0825,0.0096,-0.0051,-0.0099,0.0042,-0.19,0.14,-0.04,0,0.009,-0.215,-0.306,0.207,-0.003,0.016,0.998,0.000,0.000,0.000
1449,-0.0025,-0.0806,0.0093,-0.0061,0.0018,0.0032,-0.13,0.15,-0.04,0,0.007,0.104,-0.006,0.003,0.000,0.014,0.998,0.000,0.000,0.000
1459,-0.0038,-0.0681,0.0092,-0.0127,0.0713,0.0028,-0.10,0.13,-0.04,0,0.007,0.074,0.059,-0.069,0.000,0.016,0.998,0.000,0.000,0.000
1469,-0.0040,-0.0689,0.0094,-0.0134,0.0644,0.0042,-0.10,0.13,-0.04,0,0.007,0.027,-0.112,0.068,0.001,0.017,0.998,0.000,0.000,0.000
1478,-0.0038,-0.0689,0.0096,-0.0117,0.0625,0.0048,0.30,0.15,-0.04,0,0.007,-0.091,0.483,0.178,0.001,0.017,1.000,0.000,0.000,0.000
0,-0.0038,-0.0683,0.0096,-0.0112,0.0642,0.0049,0.32,0.16,-0.04,0,0.007,-0.025,0.045,-0.029,0.000,0.016,0.997,0.000,0.000,0.000
10,-0.0044,-0.0767,0.0093,-0.0146,0.0165,0.0026,0.29,0.15,-0.04,0,0.009,0.014,0.018,0.320,0.002,0.016,1.000,0.000,0.000,0.000
20,-0.0048,-0.0771,0.0094,-0.0164,0.0143,0.0024,0.29,0.15,-0.04,0,0.009,-0.000,0.062,-0.022,0.000,0.016,1.000,0.000,0.000,0.000
30,-0.0046,-0.0761,0.0094,-0.0147,0.0200,0.0023,0.29,0.15,-0.04,0,0.009,-0.105,-0.015,-0.125,-0.000,0.018,1.000,0.000,0.000,0.000
40,-0.0048,-0.0759,0.0094,-0.0152,0.0211,0.0020,0.31,0.12,-0.04,0,0.009,0.223,-0.224,-0.107,0.001,0.018,1.001,0.000,0.000,0.000
50,-0.0050,-0.0757,0.0094,-0.0157,0.0222,0.0020,0.35,0.12,-0.04,0,0.009,0.148,0.176,-0.268,-0.001,0.017,1.000,0.000,0.000,0.000
60,-0.0046,-0.0761,0.0093,-0.0128,0.0198,0.0008,0.33,0.14,-0.04,0,0.007,0.016,-0.081,-0.253,-0.001,0.015,1.000,0.000,0.000,0.000
69,-0.0046,-0.0767,0.0093,-0.0122,0.0163,0.0008,0.36,0.13,-0.04,0,0.007,0.258,0.257,-0.188,-0.000,0.015,1.000,0.000,0.000,0.000
79,-0.0052,-0.0761,0.0093,-0.0150,0.0197,0.0007,0.36,0.12,-0.04,0,0.007,-0.006,-0.079,0.119,0.001,0.015,0.999,0.000,0.000,0.000
89,-0.0052,-0.0765,0.0093,-0.0144,0.0174,0.0009,0.40,0.08,-0.04,0,0.007,0.248,-0.144,-0.154,0.002,0.016,1.001,0.000,0.000,0.000
100,-0.0052,-0.0764,0.0084,-0.0137,0.0186,-0.0039,0.36,0.10,-0.04,0,0.007,-0.140,0.032,0.141,0.002,0.017,1.002,0.000,0.000,0.000
110,-0.0044,-0.0772,0.0084,-0.0087,0.0141,-0.0037,0.36,0.10,-0.04,0,0.009,0.110,0.049,-0.480,0.001,0.015,0.999,0.000,0.000,0.000
120,-0.0048,-0.0762,0.0084,-0.0108,0.0197,-0.0038,0.37,0.06,-0.04,0,0.009,0.069,-0.287,-0.117,-0.000,0.016,0.998,0.000,0.000,0.000
130,-0.0049,-0.0760,0.0083,-0.0110,0.0206,-0.0038,0.38,0.08,-0.04,0,0.009,-0.419,0.128,0.050,0.000,0.016,0.999,0.000,0.000,0.000
140,-0.0043,-0.0760,0.0083,-0.0069,0.0202,-0.0037,0.29,-0.00,-0.03,0,0.009,0.041,0.086,0.081,0.000,0.016,1.000,0.000,0.000,0.000
150,-0.0047,-0.0758,0.0083,-0.0088,0.0211,-0.0037,0.34,0.08,-0.04,0,0.009,-0.202,0.132,-0.031,0.001,0.015,1.001,0.000,0.000,0.000
160,-0.0030,-0.0737,0.0085,0.0010,0.0324,-0.0020,0.60,0.08,-0.04,0,0.008,-0.187,-0.142,-0.018,-0.001,0.016,1.000,0.000,0.000,0.000
170,-0.0049,-0.0745,0.0086,-0.0094,0.0270,-0.0016,0.56,0.08,-0.04,0,0.008,0.015,0.055,0.006,0.000,0.018,1.001,0.000,0.000,0.000
179,-0.0049,-0.0800,0.0087,-0.0090,-0.0035,-0.0007,0.63,0.06,-0.04,0,0.008,0.114,0.216,-0.331,0.001,0.016,1.000,0.000,0.000,0.000
190,-0.0049,-0.0794,0.0088,-0.0087,0.0007,-0.0007,0.75,0.06,-0.04,0,0.008,0.140,0.076,0.023,-0.002,0.013,0.999,0.000,0.000,0.000
200,-0.0047,-0.0808,0.0084,-0.0071,-0.0068,-0.0023,0.60,0.04,-0.04,0,0.008,0.075,-0.156,-0.102,0.002,0.015,0.998,0.000,0.000,0.000
209,-0.0048,-0.0838,0.0083,-0.0069,-0.0205,-0.0026,0.63,0.04,-0.04,0,0.008,0.317,0.013,-0.318,0.003,0.016,1.000,0.000,0.000,0.000
219,-0.0043,-0.0804,0.0085,-0.0042,-0.0023,-0.0017,0.63,0.04,-0.04,0,0.008,0.157,0.171,-0.072,0.002,0.017,1.000,0.000,0.000,0.000
230,-0.0044,-0.0811,0.0084,-0.0040,-0.0043,-0.0015,0.70,-0.01,-0.04,0,0.008,-0.155,-0.286,0.068,0.001,0.018,0.998,0.000,0.000,0.000
239,-0.0043,-0.0813,0.0084,-0.0038,-0.0052,-0.0015,0.85,-0.04,-0.03,0,0.008,0.107,-0.003,0.274,0.001,0.015,0.999,0.000,0.000,0.000
250,-0.0033,-0.0829,0.0084,0.0020,-0.0125,-0.0019,1.12,-0.08,-0.03,0,0.008,-0.107,0.120,0.133,0.001,0.015,1.000,0.000,0.000,0.000
259,-0.0027,-0.0864,0.0081,0.0052,-0.0323,-0.0033,1.10,-0.08,-0.03,0,0.005,0.123,0.079,-0.550,-0.000,0.016,1.001,0.000,0.000,0.000
270,-0.0017,-0.0935,0.0077,0.0102,-0.0661,-0.0058,1.10,-0.08,-0.03,0,0.005,-0.132,-0.051,-0.406,-0.001,0.016,0.998,0.000,0.000,0.000
280,-0.0016,-0.0930,0.0077,0.0108,-0.0636,-0.0054,1.11,-0.09,-0.03,0,0.005,0.004,0.079,-0.134,0.000,0.018,1.000,0.000,0.000,0.000
289,-0.0014,-0.0943,0.0076,0.0113,-0.0640,-0.0057,1.34,-0.09,-0.03,0,0.005,0.009,0.047,0.400,0.000,0.016,1.002,0.000,0.000,0.000
300,-0.0012,-0.0951,0.0065,0.0121,-0.0654,-0.0115,1.60,-0.08,-0.03,0,0.005,-0.038,0.002,0.025,0.001,0.016,1.002,0.000,0.000,0.000
310,-0.0010,-0.1012,0.0059,0.0127,-0.0949,-0.0142,1.53,-0.07,-0.03,0,0.009,0.131,0.035,-0.171,-0.001,0.017,1.001,0.000,0.000,0.000
320,-0.0010,-0.1083,0.0049,0.0120,-0.1294,-0.0195,1.48,-0.06,-0.03,0,0.009,-0.088,0.266,0.009,-0.001,0.017,0.998,0.000,0.000,0.000
329,-0.0012,-0.1079,0.0050,0.0103,-0.1215,-0.0176,1.46,-0.04,-0.04,0,0.009,0.202,0.057,-0.099,0.001,0.017,0.997,0.000,0.000,0.000
339,-0.0012,-0.1081,0.0051,0.0098,-0.1167,-0.0161,1.45,-0.08,-0.03,0,0.009,0.338,-0.151,-0.197,0.003,0.017,0.998,0.000,0.000,0.000
349,-0.0017,-0.1089,0.0050,0.0070,-0.1157,-0.0154,1.31,-0.08,-0.04,0,0.009,0.195,0.120,-0.088,0.002,0.014,0.998,0.000,0.000,0.000
359,-0.0007,-0.1089,0.0067,0.0126,-0.1156,-0.0063,1.28,-0.08,-0.04,0,0.010,-0.026,-0.149,0.124,-0.000,0.016,0.998,0.000,0.000,0.000
369,-0.0007,-0.1068,0.0071,0.0119,-0.0985,-0.0031,1.23,-0.07,-0.04,0,0.010,0.123,0.190,-0.001,0.001,0.016,1.000,0.000,0.000,0.000
379,-0.0005,-0.1070,0.0072,0.0125,-0.0947,-0.0025,1.23,-0.02,-0.04,0,0.010,-0.113,0.218,0.067,-0.000,0.016,1.000,0.000,0.000,0.000
390,-0.0007,-0.1068,0.0073,0.0108,-0.0888,-0.0017,1.11,-0.02,-0.04,0,0.010,-0.238,-0.235,0.015,-0.002,0.015,0.999,0.000,0.000,0.000
399,-0.0015,-0.1079,0.0073,0.0059,-0.0900,-0.0018,1.10,-0.02,-0.04,0,0.010,0.092,-0.283,-0.007,-0.001,0.017,1.002,0.000,0.000,0.000
410,-0.0015,-0.1064,0.0086,0.0059,-0.0769,0.0058,1.08,-0.03,-0.04,0,0.008,0.127,0.144,-0.138,0.000,0.015,1.002,0.000,0.000,0.000
419,-0.0015,-0.1068,0.0087,0.0057,-0.0754,0.0059,1.05,-0.02,-0.04,0,0.008,-0.086,0.081,-0.060,-0.002,0.015,1.000,0.000,0.000,0.000
429,-0.0011,-0.1072,0.0088,0.0076,-0.0738,0.0060,0.99,-0.06,-0.04,0,0.008,0.073,0.024,-0.445,-0.004,0.016,0.999,0.000,0.000,0.000
439,-0.0013,-0.1072,0.0089,0.0061,-0.0700,0.0065,0.93,-0.01,-0.05,0,0.008,-0.077,0.116,0.043,-0.001,0.017,0.999,0.000,0.000,0.000
449,-0.0003,-0.1066,0.0091,0.0113,-0.0630,0.0072,0.94,-0.01,-0.05,0,0.008,0.137,0.009,-0.122,0.001,0.015,0.996,0.000,0.000,0.000
459,-0.0013,-0.1060,0.0087,0.0050,-0.0561,0.0053,0.95,-0.04,-0.04,0,0.006,0.053,0.067,-0.204,0.001,0.014,1.000,0.000,0.000,0.000
469,-0.0013,-0.1068,0.0088,0.0047,-0.0576,0.0053,0.92,-0.00,-0.05,0,0.006,-0.013,0.129,0.088,-0.000,0.015,1.000,0.000,0.000,0.000
479,-0.0005,-0.1074,0.0088,0.0089,-0.0580,0.0054,0.90,0.01,-0.05,0,0.006,-0.061,-0.050,0.131,0.001,0.015,1.000,0.000,0.000,0.000
489,-0.0013,-0.1074,0.0089,0.0037,-0.0550,0.0056,1.01,-0.04,-0.04,0,0.006,-0.276,-0.123,0.281,-0.001,0.016,1.001,0.000,0.000,0.000
499,-0.0015,-0.1076,0.0090,0.0022,-0.0531,0.0057,1.06,-0.01,-0.04,0,0.006,-0.182,0.183,0.102,-0.002,0.016,1.000,0.000,0.000,0.000
509,-0.0005,-0.1105,0.0077,0.0076,-0.0665,-0.0022,0.85,-0.01,-0.04,0,0.009,-0.014,0.063,-0.200,0.000,0.017,0.999,0.000,0.000,0.000
520,-0.0009,-0.1122,0.0076,0.0051,-0.0721,-0.0029,0.91,-0.01,-0.04,0,0.009,-0.031,-0.074,-0.047,0.001,0.016,1.000,0.000,0.000,0.000
529,-0.0009,-0.1084,0.0079,0.0049,-0.0475,-0.0001,0.88,-0.09,-0.04,0,0.009,0.036,-0.372,0.250,0.001,0.016,0.999,0.000,0.000,0.000
539,-0.0009,-0.1102,0.0079,0.0047,-0.0549,-0.0005,0.63,-0.01,-0.04,0,0.009,0.184,0.145,-0.007,0.000,0.016,0.999,0.000,0.000,0.000
549,0.0009,-0.1102,0.0079,0.0145,-0.0520,-0.0003,0.71,0.00,-0.04,0,0.009,-0.146,0.054,0.413,-0.000,0.016,1.000,0.000,0.000,0.000
560,-0.0007,-0.1053,0.0086,0.0048,-0.0214,0.0042,0.31,0.00,-0.05,0,0.009,0.178,0.022,-0.318,-0.000,0.017,0.997,0.000,0.000,0.000
570,-0.0009,-0.1073,0.0087,0.0034,-0.0308,0.0041,0.31,0.00,-0.05,0,0.009,-0.110,0.045,0.292,-0.000,0.017,0.998,0.000,0.000,0.000
580,-0.0009,-0.0988,0.0088,0.0034,0.0181,0.0054,0.30,0.00,-0.05,0,0.009,-0.081,-0.224,-0.087,0.000,0.018,0.998,0.000,0.000,0.000
589,-0.0009,-0.0987,0.0088,0.0035,0.0191,0.0054,0.43,-0.19,-0.05,0,0.009,0.110,-0.180,0.254,0.000,0.017,0.999,0.000,0.000,0.000
600,-0.0009,-0.0982,0.0089,0.0034,0.0213,0.0054,0.74,-0.20,-0.04,0,0.009,-0.134,0.023,-0.187,0.003,0.019,1.000,0.000,0.000,0.000
609,0.0035,-0.1008,0.0091,0.0276,0.0071,0.0059,0.73,-0.20,-0.04,0,0.007,0.071,0.104,-0.072,0.002,0.015,1.000,0.000,0.000,0.000
619,0.0040,-0.1075,0.0095,0.0287,-0.0296,0.0063,0.72,-0.19,-0.04,0,0.007,-0.138,-0.041,0.174,-0.000,0.015,1.000,0.000,0.000,0.000
629,0.0043,-0.1078,0.0095,0.0290,-0.0292,0.0060,0.51,-0.14,-0.05,0,0.007,-0.082,0.086,0.034,0.000,0.014,1.000,0.000,0.000,0.000
639,0.0045,-0.1078,0.0096,0.0288,-0.0270,0.0059,0.26,-0.16,-0.05,0,0.007,0.263,0.134,0.020,0.002,0.015,0.999,0.000,0.000,0.000
650,0.0036,-0.1034,0.0099,0.0227,-0.0009,0.0076,0.09,-0.06,-0.05,0,0.007,-0.095,-0.120,0.237,-0.000,0.016,1.000,0.000,0.000,0.000
659,0.0042,-0.0977,0.0086,0.0253,0.0313,0.0007,0.11,-0.04,-0.05,0,0.008,0.019,0.335,0.145,-0.001,0.016,0.998,0.000,0.000,0.000
669,0.0022,-0.0936,0.0084,0.0137,0.0532,-0.0001,0.10,-0.04,-0.05,0,0.008,0.010,0.220,0.128,0.001,0.017,1.000,0.000,0.000,0.000
679,0.0020,-0.0936,0.0085,0.0119,0.0516,0.0002,0.11,-0.05,-0.05,0,0.008,0.060,0.246,0.394,0.002,0.015,1.000,0.000,0.000,0.000
689,0.0020,-0.0927,0.0084,0.0113,0.0545,0.0000,0.14,-0.05,-0.05,0,0.008,-0.154,-0.029,0.079,-0.000,0.016,1.000,0.000,0.000,0.000
699,0.0022,-0.0925,0.0083,0.0121,0.0538,-0.0008,0.18,-0.03,-0.05,0,0.008,0.089,-0.031,-0.067,-0.000,0.016,1.001,0.000,0.000,0.000
709,0.0024,-0.0926,0.0083,0.0127,0.0521,-0.0006,0.24,-0.04,-0.05,0,0.009,0.055,0.144,-0.008,0.001,0.015,1.001,0.000,0.000,0.000
719,0.0022,-0.0930,0.0084,0.0108,0.0480,-0.0002,0.28,-0.03,-0.05,0,0.009,-0.086,-0.026,0.119,0.001,0.013,0.998,0.000,0.000,0.000
729,0.0024,-0.0939,0.0085,0.0114,0.0419,0.0003,0.22,-0.02,-0.05,0,0.009,0.164,0.009,-0.214,0.002,0.016,1.001,0.000,0.000,0.000
740,0.0024,-0.0943,0.0086,0.0110,0.0382,0.0006,0.14,-0.05,-0.05,0,0.009,0.102,0.002,-0.138,0.000,0.016,1.000,0.000,0.000,0.000
749,0.0022,-0.0926,0.0085,0.0093,0.0466,0.0002,0.35,-0.04,-0.05,0,0.009,-0.013,-0.060,-0.273,-0.002,0.016,1.000,0.000,0.000,0.000
760,0.0031,-0.0903,0.0086,0.0136,0.0581,0.0008,0.35,-0.04,-0.05,0,0.008,0.128,-0.020,0.042,-0.001,0.015,1.000,0.000,0.000,0.000
769,0.0029,-0.0945,0.0090,0.0118,0.0322,0.0030,0.34,-0.04,-0.05,0,0.008,0.004,0.116,0.015,0.001,0.014,1.000,0.000,0.000,0.000
780,0.0030,-0.0942,0.0090,0.0120,0.0329,0.0029,0.43,-0.03,-0.05,0,0.008,0.169,-0.191,-0.001,0.001,0.017,1.000,0.000,0.000,0.000
789,0.0032,-0.0935,0.0090,0.0128,0.0355,0.0028,0.39,-0.01,-0.05,0,0.008,0.128,-0.288,0.039,0.000,0.017,0.998,0.000,0.000,0.000
799,0.0029,-0.0951,0.0087,0.0109,0.0257,0.0010,0.42,-0.00,-0.05,0,0.008,-0.030,0.030,-0.230,-0.001,0.017,1.000,0.000,0.000,0.000
809,0.0027,-0.0941,0.0087,0.0090,0.0310,0.0009,0.42,-0.01,-0.05,0,0.009,0.172,-0.045,0.014,-0.002,0.018,1.002,0.000,0.000,0.000
819,0.0027,-0.0943,0.0087,0.0083,0.0288,0.0010,0.42,-0.01,-0.05,0,0.009,-0.125,-0.038,-0.076,0.003,0.017,1.002,0.000,0.000,0.000
829,0.0028,-0.0940,0.0087,0.0084,0.0294,0.0010,0.51,-0.00,-0.05,0,0.009,0.077,-0.181,0.221,0.002,0.016,1.001,0.000,0.000,0.000
839,0.0028,-0.0938,0.0087,0.0079,0.0297,0.0010,0.44,-0.20,-0.04,0,0.009,-0.066,-0.018,0.039,-0.000,0.013,0.999,0.000,0.000,0.000
849,0.0028,-0.0957,0.0088,0.0075,0.0190,0.0013,0.45,-0.19,-0.04,0,0.009,0.111,-0.070,0.047,0.000,0.016,0.997,0.000,0.000,0.000
859,0.0075,-0.0939,0.0089,0.0327,0.0284,0.0013,0.41,-0.16,-0.04,0,0.009,-0.083,-0.152,0.018,0.001,0.016,0.999,0.000,0.000,0.000
870,0.0077,-0.0939,0.0089,0.0321,0.0277,0.0015,0.77,-0.17,-0.04,0,0.009,-0.044,-0.052,0.049,-0.002,0.016,1.001,0.000,0.000,0.000
879,0.0072,-0.0928,0.0089,0.0284,0.0329,0.0019,0.74,-0.16,-0.04,0,0.009,-0.067,-0.248,-0.207,0.000,0.015,1.001,0.000,0.000,0.000
889,0.0079,-0.1007,0.0093,0.0308,-0.0109,0.0038,0.75,-0.17,-0.04,0,0.009,0.231,0.132,-0.176,0.001,0.016,1.000,0.000,0.000,0.000
899,0.0079,-0.1001,0.0094,0.0293,-0.0067,0.0041,0.72,-0.12,-0.04,0,0.009,-0.029,0.068,-0.087,0.003,0.018,0.999,0.000,0.000,0.000
909,0.0085,-0.1005,0.0092,0.0314,-0.0085,0.0030,0.74,-0.12,-0.04,0,0.009,-0.177,0.111,0.315,0.000,0.016,0.997,0.000,0.000,0.000
919,0.0076,-0.0999,0.0093,0.0253,-0.0042,0.0033,0.74,-0.12,-0.04,0,0.009,-0.092,0.233,-0.213,0.000,0.018,1.000,0.000,0.000,0.000
929,0.0078,-0.1005,0.0094,0.0252,-0.0071,0.0033,0.79,-0.14,-0.04,0,0.009,0.301,-0.160,-0.305,0.001,0.016,1.000,0.000,0.000,0.000
939,0.0081,-0.1006,0.0094,0.0253,-0.0069,0.0034,1.04,-0.16,-0.03,0,0.009,-0.119,0.196,-0.031,0.000,0.017,1.001,0.000,0.000,0.000
949,0.0087,-0.1017,0.0094,0.0278,-0.0123,0.0032,0.98,-0.15,-0.03,0,0.009,0.107,0.100,0.387,-0.000,0.018,1.000,0.000,0.000,0.000
959,0.0096,-0.1078,0.0091,0.0314,-0.0439,0.0012,1.21,-0.13,-0.03,0,0.011,-0.078,0.160,-0.067,-0.000,0.016,0.999,0.000,0.000,0.000
969,0.0096,-0.1069,0.0092,0.0299,-0.0367,0.0016,1.18,-0.10,-0.03,0,0.011,-0.011,-0.258,-0.051,0.002,0.016,0.998,0.000,0.000,0.000
979,0.0095,-0.1126,0.0089,0.0283,-0.0656,-0.0006,1.18,-0.09,-0.03,0,0.011,-0.107,0.291,-0.117,-0.000,0.015,1.000,0.000,0.000,0.000
989,0.0091,-0.1126,0.0090,0.0247,-0.0623,0.0002,1.09,-0.12,-0.03,0,0.011,-0.200,-0.386,-0.218,0.001,0.015,0.998,0.000,0.000,0.000
999,0.0090,-0.1132,0.0090,0.0234,-0.0626,0.0003,1.07,-0.08,-0.04,0,0.011,0.123,-0.075,0.052,0.001,0.015,1.001,0.000,0.000,0.000
1008,0.0099,-0.1119,0.0100,0.0271,-0.0525,0.0055,1.06,-0.06,-0.04,0,0.008,-0.101,0.102,0.161,0.001,0.016,1.003,0.000,0.000,0.000
1019,0.0093,-0.1118,0.0101,0.0222,-0.0498,0.0058,1.05,-0.04,-0.04,0,0.008,0.099,-0.348,0.135,0.002,0.016,1.003,0.000,0.000,0.000
1029,0.0090,-0.1123,0.0102,0.0201,-0.0496,0.0058,1.06,-0.02,-0.04,0,0.008,-0.275,0.290,-0.039,0.001,0.015,1.002,0.000,0.000,0.000
1039,0.0088,-0.1125,0.0103,0.0179,-0.0484,0.0060,1.37,-0.14,-0.03,0,0.008,0.083,0.036,-0.166,0.002,0.016,0.999,0.000,0.000,0.000
1049,0.0086,-0.1131,0.0103,0.0159,-0.0495,0.0058,1.18,-0.10,-0.04,0,0.008,-0.008,-0.042,-0.191,0.001,0.016,1.001,0.000,0.000,0.000
1059,0.0115,-0.1209,0.0089,0.0310,-0.0891,-0.0025,1.20,-0.10,-0.04,0,0.009,-0.140,-0.109,0.050,-0.000,0.016,1.000,0.000,0.000,0.000
1069,0.0109,-0.1175,0.0095,0.0262,-0.0668,0.0012,1.28,-0.11,-0.04,0,0.009,0.194,-0.026,-0.207,0.001,0.016,0.998,0.000,0.000,0.000
1079,0.0111,-0.1186,0.0095,0.0263,-0.0692,0.0014,1.34,-0.15,-0.04,0,0.009,-0.007,0.109,-0.208,0.001,0.016,0.999,0.000,0.000,0.000
1089,0.0117,-0.1211,0.0093,0.0284,-0.0795,0.0003,1.30,-0.13,-0.04,0,0.009,-0.203,-0.117,-0.088,0.003,0.016,0.999,0.000,0.000,0.000
1099,0.0130,-0.1233,0.0090,0.0340,-0.0881,-0.0014,1.29,-0.09,-0.04,0,0.009,-0.017,0.107,0.037,0.001,0.016,0.999,0.000,0.000,0.000
1109,0.0128,-0.1233,0.0091,0.0313,-0.0840,-0.0005,1.23,-0.08,-0.04,0,0.007,0.134,0.027,-0.067,0.000,0.017,0.998,0.000,0.000,0.000
1120,0.0123,-0.1240,0.0092,0.0275,-0.0836,-0.0001,1.25,-0.07,-0.04,0,0.007,0.213,-0.121,-0.276,0.000,0.017,0.999,0.000,0.000,0.000
1129,0.0123,-0.1235,0.0093,0.0263,-0.0773,0.0008,1.01,-0.07,-0.04,0,0.007,0.181,0.017,-0.238,0.001,0.016,1.001,0.000,0.000,0.000
1138,0.0123,-0.1246,0.0093,0.0250,-0.0793,0.0006,1.03,-0.02,-0.04,0,0.007,0.020,0.112,-0.124,0.000,0.016,0.997,0.000,0.000,0.000
1149,0.0126,-0.1201,0.0100,0.0252,-0.0510,0.0047,0.93,-0.04,-0.04,0,0.007,-0.099,0.105,0.027,0.002,0.015,0.998,0.000,0.000,0.000
1159,0.0117,-0.1208,0.0087,0.0194,-0.0524,-0.0021,0.66,-0.02,-0.05,0,0.009,-0.149,0.239,0.230,0.001,0.015,1.000,0.000,0.000,0.000
1169,0.0123,-0.1192,0.0088,0.0218,-0.0406,-0.0016,0.68,-0.02,-0.04,0,0.009,0.024,0.057,-0.004,0.002,0.015,1.000,0.000,0.000,0.000
1179,0.0119,-0.1134,0.0089,0.0184,-0.0063,-0.0002,0.66,0.01,-0.05,0,0.009,0.204,-0.024,-0.200,0.000,0.016,1.000,0.000,0.000,0.000
1189,0.0121,-0.1140,0.0090,0.0187,-0.0089,-0.0000,0.65,0.04,-0.05,0,0.009,-0.048,0.046,0.219,0.002,0.016,1.001,0.000,0.000,0.000
1199,0.0117,-0.1136,0.0090,0.0154,-0.0057,-0.0001,0.67,0.02,-0.04,0,0.009,-0.081,0.087,0.003,0.002,0.016,1.003,0.000,0.000,0.000
1209,0.0111,-0.1134,0.0090,0.0112,-0.0039,-0.0002,0.67,0.02,-0.04,0,0.010,0.264,-0.144,-0.077,-0.000,0.017,1.002,0.000,0.000,0.000
1219,0.0117,-0.1140,0.0090,0.0141,-0.0068,-0.0003,0.64,0.03,-0.05,0,0.010,0.007,0.240,0.101,0.000,0.017,0.999,0.000,0.000,0.000
1229,0.0119,-0.1141,0.0090,0.0142,-0.0065,-0.0003,0.64,-0.01,-0.05,0,0.010,0.046,-0.189,-0.574,0.000,0.017,0.997,0.000,0.000,0.000
1239,0.0119,-0.1135,0.0090,0.0134,-0.0022,-0.0002,0.44,0.03,-0.05,0,0.010,-0.275,0.140,0.165,0.003,0.015,1.000,0.000,0.000,0.000
1249,0.0127,-0.1135,0.0090,0.0175,-0.0016,-0.0003,0.25,0.04,-0.05,0,0.010,0.123,0.045,-0.092,0.004,0.018,1.002,0.000,0.000,0.000
1259,0.0121,-0.1090,0.0093,0.0132,0.0237,0.0025,0.13,0.03,-0.05,0,0.009,-0.137,-0.016,-0.086,0.002,0.018,1.002,0.000,0.000,0.000
1269,0.0121,-0.1046,0.0091,0.0124,0.0480,0.0014,-0.09,0.07,-0.05,0,0.009,-0.218,-0.106,0.160,0.003,0.017,1.002,0.000,0.000,0.000
1279,0.0123,-0.1012,0.0088,0.0129,0.0651,-0.0003,-0.09,0.08,-0.05,0,0.009,0.328,-0.251,-0.202,0.002,0.018,1.001,0.000,0.000,0.000
1289,0.0114,-0.0957,0.0081,0.0075,0.0930,-0.0044,-0.65,0.14,-0.05,0,0.009,-0.088,0.309,-0.028,0.002,0.018,1.000,0.000,0.000,0.000
1299,0.0115,-0.0948,0.0081,0.0076,0.0947,-0.0044,-0.57,0.13,-0.05,0,0.009,-0.115,-0.031,0.125,-0.001,0.016,0.998,0.000,0.000,0.000
1308,0.0101,-0.0810,0.0066,0.0000,0.1668,-0.0136,-0.55,0.12,-0.05,0,0.008,0.110,0.074,0.152,-0.000,0.016,0.999,0.000,0.000,0.000
1319,0.0104,-0.0811,0.0070,0.0012,0.1599,-0.0105,-0.49,0.11,-0.05,0,0.008,-0.039,-0.085,0.266,0.001,0.016,1.001,0.000,0.000,0.000
1329,0.0106,-0.0799,0.0070,0.0024,0.1603,-0.0096,-0.20,0.12,-0.05,0,0.008,-0.015,0.361,-0.177,0.001,0.016,1.002,0.000,0.000,0.000
1339,0.0108,-0.0796,0.0073,0.0035,0.1562,-0.0073,0.06,0.10,-0.05,0,0.008,0.019,0.356,-0.171,0.002,0.017,1.000,0.000,0.000,0.000
1349,0.0106,-0.0848,0.0093,0.0021,0.1220,0.0046,0.38,0.08,-0.06,0,0.008,0.068,0.147,0.176,0.001,0.016,1.001,0.000,0.000,0.000
1359,0.0111,-0.0893,0.0095,0.0041,0.0926,0.0060,0.42,0.08,-0.06,0,0.014,-0.149,0.410,-0.079,0.002,0.016,1.002,0.000,0.000,0.000
1369,0.0115,-0.0957,0.0103,0.0060,0.0538,0.0100,0.42,0.08,-0.06,0,0.014,-0.012,-0.086,-0.104,-0.001,0.014,1.002,0.000,0.000,0.000
1379,0.0115,-0.0962,0.0104,0.0056,0.0494,0.0103,0.47,0.10,-0.06,0,0.014,0.074,-0.014,0.033,-0.000,0.015,0.999,0.000,0.000,0.000
1388,0.0115,-0.0955,0.0105,0.0053,0.0509,0.0104,0.46,0.03,-0.05,0,0.014,-0.001,-0.015,-0.134,0.000,0.016,0.998,0.000,0.000,0.000
1399,0.0111,-0.0962,0.0107,0.0028,0.0455,0.0108,0.48,0.06,-0.06,0,0.014,0.203,-0.251,-0.485,-0.001,0.018,0.999,0.000,0.000,0.000
1409,0.0128,-0.0955,0.0122,0.0118,0.0476,0.0178,0.57,0.08,-0.06,0,0.006,0.020,0.278,-0.104,0.001,0.016,1.000,0.000,0.000,0.000
1419,0.0121,-0.0953,0.0124,0.0079,0.0468,0.0181,0.51,0.08,-0.06,0,0.006,0.046,-0.141,-0.400,0.002,0.016,0.998,0.000,0.000,0.000
1429,0.0117,-0.0970,0.0126,0.0050,0.0356,0.0189,0.52,0.07,-0.06,0,0.006,-0.031,-0.133,0.089,0.000,0.016,1.000,0.000,0.000,0.000
1439,0.0117,-0.0953,0.0128,0.0046,0.0432,0.0186,0.68,0.07,-0.06,0,0.006,-0.100,-0.039,0.260,-0.000,0.014,1.001,0.000,0.000,0.000
1449,0.0121,-0.0951,0.0130,0.0065,0.0426,0.0184,0.56,0.09,-0.06,0,0.006,-0.068,-0.005,0.047,0.002,0.014,1.000,0.000,0.000,0.000
1459,0.0121,-0.0984,0.0102,0.0059,0.0235,0.0028,0.59,0.13,-0.07,0,0.009,-0.070,-0.252,0.118,0.004,0.017,0.999,0.000,0.000,0.000
1469,0.0117,-0.0955,0.0102,0.0032,0.0385,0.0026,0.65,0.09,-0.06,0,0.009,0.123,0.103,-0.390,0.001,0.017,0.998,0.000,0.000,0.000
1479,0.0109,-0.0959,0.0102,-0.0014,0.0347,0.0026,0.68,0.09,-0.07,0,0.009,-0.046,0.029,-0.151,0.001,0.017,1.002,0.000,0.000,0.000
1489,0.0119,-0.0968,0.0103,0.0041,0.0288,0.0029,0.93,0.07,-0.07,0,0.009,-0.102,0.155,0.052,0.000,0.018,0.999,0.000,0.000,0.000
1499,0.0119,-0.0972,0.0098,0.0038,0.0252,0.0003,0.85,0.05,-0.07,0,0.009,-0.049,-0.013,-0.045,0.002,0.018,0.998,0.000,0.000,0.000
1509,0.0123,-0.1027,0.0098,0.0058,-0.0061,0.0008,1.03,0.06,-0.07,0,0.009,-0.000,-0.313,0.139,0.000,0.016,1.000,0.000,0.000,0.000
1519,0.0127,-0.1009,0.0099,0.0080,0.0044,0.0011,1.02,0.07,-0.07,0,0.009,0.069,-0.040,-0.432,-0.000,0.015,1.003,0.000,0.000,0.000
1529,0.0127,-0.1050,0.0098,0.0075,-0.0181,0.0005,0.83,0.09,-0.07,0,0.009,0.005,0.242,0.067,-0.000,0.016,1.002,0.000,0.000,0.000
1539,0.0125,-0.1050,0.0099,0.0059,-0.0172,0.0008,0.78,0.13,-0.07,0,0.009,-0.076,-0.122,-0.025,0.001,0.016,1.001,0.000,0.000,0.000
1549,0.0121,-0.1009,0.0102,0.0034,0.0060,0.0023,0.54,0.17,-0.07,0,0.009,-0.125,-0.255,-0.288,0.003,0.015,0.999,0.000,0.000,0.000
1559,0.0113,-0.0997,0.0097,-0.0013,0.0127,-0.0006,0.52,0.18,-0.07,0,0.007,0.335,-0.095,-0.095,0.002,0.013,0.999,0.000,0.000,0.000
1569,0.0103,-0.0942,0.0097,-0.0069,0.0424,-0.0012,0.53,0.17,-0.07,0,0.007,-0.100,-0.036,-0.030,0.000,0.013,1.002,0.000,0.000,0.000
1579,0.0101,-0.0934,0.0096,-0.0080,0.0452,-0.0011,0.62,0.15,-0.07,0,0.007,-0.169,0.206,0.022,-0.001,0.015,0.999,0.000,0.000,0.000
1589,0.0101,-0.0932,0.0096,-0.0079,0.0445,-0.0007,0.60,0.12,-0.07,0,0.007,-0.040,-0.062,-0.435,0.000,0.017,0.999,0.000,0.000,0.000
1599,0.0105,-0.0948,0.0087,-0.0054,0.0337,-0.0054,0.62,0.16,-0.07,0,0.007,0.031,-0.172,-0.187,0.000,0.015,1.000,0.000,0.000,0.000
1609,0.0111,-0.0940,0.0086,-0.0017,0.0368,-0.0055,0.62,0.16,-0.07,0,0.009,-0.186,0.045,0.101,0.001,0.017,1.001,0.000,0.000,0.000
1619,0.0101,-0.0940,0.0086,-0.0072,0.0351,-0.0055,0.60,0.16,-0.07,0,0.009,0.202,0.206,0.040,-0.000,0.015,1.000,0.000,0.000,0.000
1629,0.0100,-0.0937,0.0085,-0.0074,0.0353,-0.0054,0.94,0.10,-0.08,0,0.009,-0.279,-0.062,-0.028,-0.001,0.016,0.999,0.000,0.000,0.000
1639,0.0100,-0.0930,0.0085,-0.0073,0.0373,-0.0055,0.98,0.10,-0.08,0,0.009,-0.005,-0.125,0.166,-0.001,0.017,0.999,0.000,0.000,0.000
1649,0.0113,-0.1002,0.0089,0.0001,-0.0056,-0.0027,1.43,0.16,-0.09,0,0.009,0.372,0.058,-0.259,0.000,0.015,0.997,0.000,0.000,0.000
1659,0.0113,-0.1012,0.0089,-0.0001,-0.0114,-0.0025,1.39,0.16,-0.09,0,0.011,0.333,0.054,-0.078,-0.001,0.017,0.999,0.000,0.000,0.000
1669,0.0098,-0.1115,0.0085,-0.0086,-0.0692,-0.0049,1.36,0.16,-0.09,0,0.011,0.174,-0.215,0.057,-0.000,0.016,1.000,0.000,0.000,0.000
1679,0.0098,-0.1113,0.0086,-0.0084,-0.0650,-0.0040,1.36,0.14,-0.09,0,0.011,-0.099,0.225,0.087,-0.001,0.016,1.000,0.000,0.000,0.000
1689,0.0096,-0.1111,0.0087,-0.0094,-0.0610,-0.0033,1.35,0.15,-0.08,0,0.011,0.275,-0.233,-0.160,0.001,0.016,1.000,0.000,0.000,0.000
1699,0.0100,-0.1119,0.0096,-0.0070,-0.0630,0.0017,1.30,0.14,-0.08,0,0.011,-0.154,0.180,0.147,0.002,0.016,0.998,0.000,0.000,0.000
1709,0.0098,-0.1123,0.0096,-0.0080,-0.0626,0.0016,1.30,0.16,-0.08,0,0.006,0.122,0.020,-0.048,0.001,0.017,1.000,0.000,0.000,0.000
1719,0.0100,-0.1117,0.0097,-0.0068,-0.0563,0.0023,1.27,0.13,-0.08,0,0.006,0.175,-0.028,-0.073,-0.002,0.017,0.999,0.000,0.000,0.000
1729,0.0093,-0.1123,0.0098,-0.0101,-0.0572,0.0023,0.93,0.13,-0.08,0,0.006,-0.234,0.023,0.050,0.001,0.017,1.001,0.000,0.000,0.000
1739,0.0100,-0.1123,0.0098,-0.0065,-0.0547,0.0027,0.89,0.10,-0.08,0,0.006,0.093,-0.044,-0.110,0.002,0.016,1.000,0.000,0.000,0.000
1748,0.0100,-0.1053,0.0107,-0.0062,-0.0128,0.0074,0.88,0.10,-0.08,0,0.006,0.076,-0.162,-0.247,-0.000,0.016,1.000,0.000,0.000,0.000
1758,0.0106,-0.1046,0.0087,-0.0024,-0.0082,-0.0039,0.86,0.09,-0.08,0,0.009,-0.127,0.002,0.079,0.003,0.016,0.998,0.000,0.000,0.000
1769,0.0106,-0.1044,0.0087,-0.0024,-0.0065,-0.0039,0.92,0.08,-0.08,0,0.009,-0.026,-0.049,0.185,0.002,0.014,1.000,0.000,0.000,0.000
1779,0.0108,-0.1040,0.0086,-0.0014,-0.0038,-0.0040,0.72,0.10,-0.08,0,0.009,0.084,0.005,-0.185,0.000,0.017,1.002,0.000,0.000,0.000
1789,0.0110,-0.1054,0.0086,-0.0003,-0.0113,-0.0039,0.81,0.08,-0.08,0,0.009,0.110,0.040,0.003,-0.001,0.017,0.999,0.000,0.000,0.000
1799,0.0106,-0.1010,0.0086,-0.0025,0.0139,-0.0038,0.68,0.08,-0.07,0,0.009,-0.060,-0.097,0.019,-0.001,0.016,0.999,0.000,0.000,0.000
1809,0.0108,-0.1030,0.0088,-0.0014,0.0021,-0.0024,0.71,0.09,-0.08,0,0.010,0.068,-0.005,0.052,-0.000,0.016,1.001,0.000,0.000,0.000
1819,0.0108,-0.1000,0.0087,-0.0013,0.0190,-0.0029,0.73,0.09,-0.07,0,0.010,-0.177,-0.034,0.140,0.001,0.016,0.999,0.000,0.000,0.000
1829,0.0106,-0.1006,0.0087,-0.0022,0.0148,-0.0026,0.78,0.09,-0.07,0,0.010,-0.059,0.201,0.006,0.003,0.016,0.999,0.000,0.000,0.000
1839,0.0106,-0.1008,0.0087,-0.0022,0.0133,-0.0024,0.56,0.06,-0.07,0,0.010,-0.028,0.184,0.108,0.002,0.015,0.999,0.000,0.000,0.000
1849,0.0106,-0.1018,0.0087,-0.0023,0.0074,-0.0022,0.32,0.06,-0.06,0,0.010,0.162,-0.284,-0.625,0.002,0.016,1.001,0.000,0.000,0.000
1859,0.0112,-0.0970,0.0092,0.0009,0.0340,0.0002,0.39,0.04,-0.07,0,0.007,-0.113,0.096,0.499,0.000,0.018,1.002,0.000,0.000,0.000
1869,0.0112,-0.0914,0.0089,0.0008,0.0640,-0.0017,0.40,0.02,-0.07,0,0.007,0.198,0.201,0.009,0.002,0.016,1.001,0.000,0.000,0.000
1879,0.0116,-0.0921,0.0090,0.0030,0.0571,-0.0007,0.41,0.05,-0.07,0,0.007,0.129,0.096,-0.089,0.002,0.016,1.000,0.000,0.000,0.000
1889,0.0120,-0.0919,0.0091,0.0052,0.0560,-0.0005,0.38,0.04,-0.07,0,0.007,-0.156,0.106,0.074,0.002,0.015,1.000,0.000,0.000,0.000
1899,0.0116,-0.0917,0.0083,0.0029,0.0549,-0.0048,0.49,0.04,-0.07,0,0.007,0.020,-0.141,0.026,0.002,0.015,0.998,0.000,0.000,0.000
1908,0.0118,-0.0905,0.0082,0.0039,0.0594,-0.0050,0.47,0.05,-0.07,0,0.009,-0.100,0.153,0.130,0.001,0.015,0.997,0.000,0.000,0.000
1918,0.0118,-0.0922,0.0083,0.0037,0.0473,-0.0035,0.51,0.06,-0.07,0,0.009,0.097,0.273,-0.286,0.001,0.017,1.000,0.000,0.000,0.000
1928,0.0116,-0.0912,0.0083,0.0025,0.0510,-0.0037,0.56,0.06,-0.07,0,0.009,0.146,-0.049,-0.101,0.000,0.018,0.999,0.000,0.000,0.000
1938,0.0114,-0.0916,0.0083,0.0013,0.0468,-0.0032,0.93,-0.00,-0.07,0,0.009,-0.086,0.348,0.036,-0.001,0.019,1.000,0.000,0.000,0.000
1948,0.0114,-0.0922,0.0084,0.0014,0.0416,-0.0026,0.95,0.01,-0.07,0,0.009,0.201,0.043,0.167,0.001,0.016,1.001,0.000,0.000,0.000
1958,0.0128,-0.1000,0.0090,0.0091,-0.0043,0.0005,0.97,0.04,-0.07,0,0.009,0.026,0.156,-0.089,-0.001,0.015,1.000,0.000,0.000,0.000
1968,0.0126,-0.1004,0.0090,0.0077,-0.0064,0.0002,0.96,0.04,-0.08,0,0.009,-0.209,0.217,0.142,-0.002,0.016,1.000,0.000,0.000,0.000
1977,0.0120,-0.1010,0.0090,0.0040,-0.0093,0.0002,0.96,-0.01,-0.08,0,0.009,-0.068,-0.265,0.096,0.001,0.017,0.999,0.000,0.000,0.000
1988,0.0120,-0.1008,0.0090,0.0038,-0.0077,0.0003,0.87,0.00,-0.07,0,0.009,-0.228,0.323,-0.025,0.000,0.016,1.002,0.000,0.000,0.000
1998,0.0132,-0.1011,0.0090,0.0102,-0.0082,0.0003,0.88,0.05,-0.07,0,0.009,0.380,0.087,-0.278,0.000,0.018,1.000,0.000,0.000,0.000
2007,0.0130,-0.0993,0.0090,0.0086,0.0023,0.0007,0.88,0.04,-0.08,0,0.008,0.140,0.017,0.038,-0.001,0.017,1.000,0.000,0.000,0.000
2019,0.0120,-0.0995,0.0091,0.0025,0.0010,0.0008,0.88,0.04,-0.08,0,0.008,0.055,0.365,0.122,0.001,0.017,1.001,0.000,0.000,0.000
2028,0.0122,-0.0993,0.0091,0.0033,0.0021,0.0008,0.78,0.00,-0.08,0,0.008,-0.163,0.195,-0.007,0.004,0.017,1.001,0.000,0.000,0.000
2037,0.0123,-0.0993,0.0091,0.0033,0.0022,0.0007,0.61,0.03,-0.08,0,0.008,-0.085,0.141,0.165,0.002,0.016,1.001,0.000,0.000,0.000
2049,0.0131,-0.0972,0.0091,0.0078,0.0140,0.0009,0.60,0.04,-0.08,0,0.008,-0.138,0.013,0.152,-0.000,0.016,1.000,0.000,0.000,0.000
2059,0.0125,-0.0932,0.0086,0.0039,0.0360,-0.0020,0.69,0.04,-0.08,0,0.008,0.015,0.090,-0.107,-0.000,0.016,0.997,0.000,0.000,0.000
2069,0.0123,-0.0928,0.0086,0.0024,0.0369,-0.0020,0.70,0.02,-0.08,0,0.008,-0.061,-0.352,-0.004,0.001,0.015,1.001,0.000,0.000,0.000
2078,0.0123,-0.0945,0.0087,0.0023,0.0259,-0.0012,0.71,0.04,-0.08,0,0.008,-0.317,-0.079,-0.019,0.001,0.016,1.002,0.000,0.000,0.000
2088,0.0129,-0.0944,0.0087,0.0061,0.0249,-0.0010,0.71,0.04,-0.08,0,0.008,0.013,0.336,0.043,-0.001,0.015,0.998,0.000,0.000,0.000
2098,0.0125,-0.0944,0.0084,0.0035,0.0239,-0.0022,0.65,0.06,-0.08,0,0.008,-0.018,0.034,0.065,0.000,0.015,0.997,0.000,0.000,0.000
2108,0.0125,-0.0942,0.0084,0.0034,0.0242,-0.0022,0.68,0.05,-0.08,0,0.007,-0.042,0.177,-0.268,0.003,0.016,0.998,0.000,0.000,0.000
2119,0.0121,-0.0925,0.0083,0.0007,0.0330,-0.0027,0.70,0.05,-0.08,0,0.007,0.063,-0.194,0.091,0.001,0.016,0.998,0.000,0.000,0.000
2128,0.0123,-0.0929,0.0083,0.0018,0.0289,-0.0024,0.43,0.05,-0.08,0,0.007,0.022,0.239,-0.056,0.001,0.016,0.998,0.000,0.000,0.000
2139,0.0123,-0.0932,0.0083,0.0017,0.0265,-0.0022,0.45,0.04,-0.08,0,0.007,0.135,-0.102,-0.208,-0.002,0.016,0.998,0.000,0.000,0.000
2148,0.0123,-0.0867,0.0081,0.0015,0.0613,-0.0041,0.31,0.04,-0.08,0,0.007,0.181,-0.127,-0.327,0.000,0.018,1.001,0.000,0.000,0.000
2157,0.0128,-0.0868,0.0076,0.0038,0.0585,-0.0064,0.36,0.02,-0.08,0,0.010,0.119,0.133,-0.247,-0.000,0.017,1.001,0.000,0.000,0.000
2169,0.0128,-0.0830,0.0073,0.0038,0.0771,-0.0082,0.32,0.00,-0.08,0,0.010,-0.031,0.089,-0.053,0.003,0.018,1.002,0.000,0.000,0.000
2179,0.0132,-0.0832,0.0073,0.0059,0.0726,-0.0077,0.33,0.01,-0.08,0,0.010,-0.209,0.134,-0.096,0.003,0.016,1.001,0.000,0.000,0.000
2189,0.0136,-0.0816,0.0072,0.0080,0.0787,-0.0086,0.32,0.07,-0.08,0,0.010,0.083,-0.261,-0.118,0.001,0.016,1.000,0.000,0.000,0.000
2198,0.0136,-0.0811,0.0071,0.0074,0.0777,-0.0083,0.38,0.08,-0.09,0,0.010,0.145,0.138,-0.087,0.001,0.014,0.999,0.000,0.000,0.000
2208,0.0124,-0.0801,0.0082,0.0000,0.0805,-0.0021,0.53,0.01,-0.08,0,0.008,-0.363,-0.085,0.010,-0.000,0.016,0.998,0.000,0.000,0.000
2218,0.0121,-0.0807,0.0084,-0.0012,0.0736,-0.0010,0.50,0.02,-0.08,0,0.008,0.077,0.253,0.172,-0.001,0.017,0.999,0.000,0.000,0.000
2228,0.0136,-0.0832,0.0087,0.0070,0.0568,0.0014,0.56,0.03,-0.08,0,0.008,-0.037,-0.042,-0.011,0.001,0.017,1.000,0.000,0.000,0.000
2238,0.0136,-0.0820,0.0087,0.0068,0.0612,0.0011,0.70,0.03,-0.08,0,0.008,-0.225,0.159,0.191,0.003,0.017,0.999,0.000,0.000,0.000
2248,0.0134,-0.0828,0.0088,0.0054,0.0539,0.0020,0.58,0.06,-0.09,0,0.008,-0.078,0.035,-0.074,0.000,0.016,1.001,0.000,0.000,0.000
2258,0.0134,-0.0855,0.0086,0.0051,0.0365,0.0009,0.62,0.07,-0.09,0,0.008,0.232,0.229,-0.253,0.002,0.016,1.000,0.000,0.000,0.000
2268,0.0128,-0.0824,0.0086,0.0014,0.0519,0.0003,0.66,0.07,-0.09,0,0.008,0.053,-0.401,0.049,0.000,0.017,1.000,0.000,0.000,0.000
2277,0.0126,-0.0828,0.0086,0.0000,0.0475,0.0006,0.68,0.09,-0.09,0,0.008,0.053,0.028,0.113,0.001,0.015,0.999,0.000,0.000,0.000
2288,0.0126,-0.0832,0.0087,0.0000,0.0432,0.0009,0.75,0.04,-0.09,0,0.008,0.134,-0.107,0.162,-0.002,0.014,1.000,0.000,0.000,0.000
2298,0.0122,-0.0832,0.0087,-0.0021,0.0414,0.0010,0.71,0.08,-0.09,0,0.008,0.020,-0.088,0.004,0.001,0.016,1.000,0.000,0.000,0.000
2308,0.0132,-0.0845,0.0085,0.0035,0.0328,0.0000,0.72,0.08,-0.09,0,0.006,-0.053,0.000,0.107,0.001,0.017,0.999,0.000,0.000,0.000
2319,0.0124,-0.0832,0.0085,-0.0011,0.0380,-0.0001,0.72,0.08,-0.08,0,0.006,0.023,-0.225,-0.209,0.001,0.016,0.999,0.000,0.000,0.000
2328,0.0124,-0.0830,0.0085,-0.0011,0.0375,-0.0001,0.73,0.07,-0.09,0,0.006,-0.048,-0.250,-0.033,0.002,0.017,1.001,0.000,0.000,0.000
2339,0.0123,-0.0826,0.0085,-0.0012,0.0376,-0.0002,0.46,0.03,-0.08,0,0.006,-0.026,-0.002,-0.087,-0.001,0.017,1.001,0.000,0.000,0.000
2348,0.0126,-0.0827,0.0085,-0.0003,0.0356,-0.0001,0.53,0.03,-0.09,0,0.006,-0.272,-0.084,0.089,-0.001,0.017,0.999,0.000,0.000,0.000
2357,0.0134,-0.0763,0.0073,0.0044,0.0689,-0.0071,0.33,0.03,-0.08,0,0.006,-0.029,-0.072,0.081,-0.001,0.015,1.000,0.000,0.000,0.000
2367,0.0134,-0.0772,0.0073,0.0042,0.0612,-0.0063,0.40,0.03,-0.08,0,0.006,-0.118,-0.093,-0.007,-0.000,0.014,0.999,0.000,0.000,0.000
2378,0.0136,-0.0721,0.0069,0.0052,0.0862,-0.0087,0.41,0.04,-0.08,0,0.006,0.053,0.021,0.032,0.001,0.016,1.001,0.000,0.000,0.000
2388,0.0136,-0.0728,0.0070,0.0050,0.0791,-0.0073,0.44,-0.00,-0.08,0,0.006,-0.007,0.083,-0.286,0.002,0.017,1.000,0.000,0.000,0.000
2398,0.0134,-0.0722,0.0066,0.0034,0.0791,-0.0092,0.55,0.03,-0.08,0,0.006,-0.133,0.107,0.043,-0.002,0.016,1.001,0.000,0.000,0.000
2407,0.0145,-0.0722,0.0066,0.0087,0.0756,-0.0089,0.52,0.03,-0.08,0,0.008,0.119,0.351,-0.080,0.000,0.017,1.001,0.000,0.000,0.000
2417,0.0138,-0.0739,0.0067,0.0047,0.0630,-0.0074,0.58,0.02,-0.08,0,0.008,0.043,-0.019,0.087,0.003,0.016,0.999,0.000,0.000,0.000
2427,0.0138,-0.0726,0.0066,0.0044,0.0668,-0.0078,0.56,-0.01,-0.08,0,0.008,-0.018,0.137,0.137,0.003,0.016,0.999,0.000,0.000,0.000
2437,0.0140,-0.0732,0.0066,0.0054,0.0603,-0.0069,0.71,0.01,-0.08,0,0.008,0.082,-0.040,0.039,0.001,0.016,0.999,0.000,0.000,0.000
2448,0.0147,-0.0722,0.0065,0.0086,0.0632,-0.0071,0.60,0.02,-0.08,0,0.008,0.065,-0.237,-0.168,0.001,0.015,0.999,0.000,0.000,0.000
2457,0.0145,-0.0750,0.0073,0.0069,0.0447,-0.0021,0.63,0.04,-0.08,0,0.009,0.023,-0.021,-0.136,0.001,0.015,1.001,0.000,0.000,0.000
2467,0.0143,-0.0722,0.0072,0.0054,0.0586,-0.0026,0.73,0.06,-0.08,0,0.009,0.240,-0.076,0.115,0.001,0.015,0.998,0.000,0.000,0.000
2478,0.0138,-0.0722,0.0072,0.0030,0.0559,-0.0024,0.73,0.06,-0.08,0,0.009,0.154,0.074,-0.136,-0.000,0.015,1.001,0.000,0.000,0.000
2488,0.0134,-0.0738,0.0073,0.0008,0.0443,-0.0015,0.73,0.06,-0.08,0,0.009,-0.032,0.248,-0.170,-0.000,0.013,1.000,0.000,0.000,0.000
2499,0.0134,-0.0733,0.0080,0.0008,0.0448,0.0020,0.75,0.04,-0.08,0,0.009,0.112,0.327,-0.006,-0.000,0.016,1.000,0.000,0.000,0.000
2508,0.0135,-0.0729,0.0080,0.0009,0.0450,0.0020,0.68,0.04,-0.08,0,0.008,0.051,-0.049,-0.081,0.000,0.017,1.002,0.000,0.000,0.000
2518,0.0139,-0.0729,0.0080,0.0034,0.0425,0.0021,0.73,0.05,-0.08,0,0.008,0.345,-0.387,0.017,0.001,0.017,1.000,0.000,0.000,0.000
2529,0.0139,-0.0709,0.0080,0.0032,0.0515,0.0015,0.73,-0.06,-0.08,0,0.008,0.056,0.191,-0.244,-0.000,0.017,1.001,0.000,0.000,0.000
2538,0.0137,-0.0716,0.0081,0.0017,0.0448,0.0021,0.79,-0.01,-0.08,0,0.008,0.292,0.318,0.044,-0.000,0.016,1.001,0.000,0.000,0.000
2547,0.0161,-0.0712,0.0081,0.0153,0.0446,0.0022,0.77,0.03,-0.08,0,0.008,-0.037,0.099,-0.125,0.001,0.016,0.999,0.000,0.000,0.000
2557,0.0152,-0.0721,0.0082,0.0095,0.0372,0.0025,0.78,0.05,-0.08,0,0.009,0.153,0.193,-0.254,0.002,0.016,0.998,0.000,0.000,0.000
2569,0.0144,-0.0712,0.0082,0.0041,0.0403,0.0026,0.80,0.03,-0.08,0,0.009,0.121,-0.274,0.186,0.000,0.017,1.000,0.000,0.000,0.000
2578,0.0139,-0.0711,0.0082,0.0015,0.0395,0.0027,0.82,0.08,-0.08,0,0.009,0.301,0.361,-0.372,0.000,0.016,0.998,0.000,0.000,0.000
2588,0.0144,-0.0711,0.0083,0.0037,0.0375,0.0030,0.86,0.05,-0.08,0,0.009,-0.146,0.040,-0.123,-0.001,0.018,1.001,0.000,0.000,0.000
2597,0.0133,-0.0711,0.0083,-0.0025,0.0355,0.0032,0.93,0.07,-0.08,0,0.009,0.386,-0.157,-0.243,0.000,0.019,1.000,0.000,0.000,0.000
2608,0.0139,-0.0715,0.0087,0.0012,0.0313,0.0049,0.89,0.09,-0.08,0,0.009,0.066,0.328,-0.085,0.001,0.016,1.004,0.000,0.000,0.000
2618,0.0135,-0.0731,0.0088,-0.0011,0.0213,0.0052,0.88,0.08,-0.08,0,0.009,0.118,0.021,0.096,0.001,0.018,1.007,0.000,0.000,0.000
2628,0.0131,-0.0718,0.0088,-0.0034,0.0272,0.0050,0.90,0.06,-0.08,0,0.009,0.380,-0.208,-0.309,0.001,0.019,0.999,0.000,0.000,0.000
2638,0.0131,-0.0714,0.0088,-0.0034,0.0281,0.0049,0.66,0.02,-0.08,0,0.009,0.369,0.100,-0.211,0.001,0.020,0.992,0.000,0.000,0.000
2648,0.0135,-0.0716,0.0089,-0.0010,0.0256,0.0050,0.77,-0.02,-0.09,0,0.009,0.619,0.234,0.098,0.002,0.018,0.996,0.000,0.000,0.000
2658,0.0146,-0.0656,0.0089,0.0048,0.0568,0.0043,0.79,-0.02,-0.09,0,0.009,0.301,0.694,-0.066,-0.000,0.015,0.998,0.000,0.000,0.000
2668,0.0154,-0.0676,0.0091,0.0092,0.0436,0.0060,0.79,-0.02,-0.09,0,0.009,-0.207,-0.053,-0.342,-0.001,0.017,0.998,0.000,0.000,0.000
2678,0.0154,-0.0674,0.0092,0.0089,0.0427,0.0066,0.93,0.05,-0.09,0,0.009,-0.092,0.199,0.096,-0.003,0.017,0.998,0.000,0.000,0.000
2688,0.0155,-0.0670,0.0093,0.0090,0.0432,0.0063,1.05,0.04,-0.09,0,0.009,-0.201,0.283,0.001,0.002,0.016,0.999,0.000,0.000,0.000
2698,0.0139,-0.0699,0.0096,0.0002,0.0257,0.0072,0.99,0.04,-0.09,0,0.009,-0.007,-0.108,-0.043,0.002,0.016,1.001,0.000,0.000,0.000
2708,0.0141,-0.0723,0.0094,0.0014,0.0112,0.0059,0.99,0.04,-0.09,0,0.006,-0.243,0.029,0.118,0.001,0.015,0.998,0.000,0.000,0.000
2718,0.0142,-0.0710,0.0095,0.0013,0.0174,0.0056,0.95,0.04,-0.09,0,0.006,-0.213,-0.053,-0.146,0.001,0.016,0.999,0.000,0.000,0.000
2728,0.0142,-0.0708,0.0096,0.0011,0.0174,0.0054,0.87,0.03,-0.09,0,0.006,-0.038,0.009,0.047,-0.000,0.018,0.999,0.000,0.000,0.000
2738,0.0139,-0.0697,0.0096,-0.0004,0.0225,0.0052,0.85,0.04,-0.09,0,0.006,-0.162,-0.097,0.132,-0.000,0.018,0.999,0.000,0.000,0.000
2748,0.0142,-0.0677,0.0096,0.0010,0.0321,0.0049,0.86,0.01,-0.09,0,0.006,-0.164,-0.317,0.090,0.001,0.019,0.998,0.000,0.000,0.000
2757,0.0142,-0.0670,0.0081,0.0011,0.0338,-0.0032,0.95,0.01,-0.09,0,0.010,-0.174,0.230,-0.127,-0.001,0.018,1.000,0.000,0.000,0.000
2768,0.0148,-0.0668,0.0080,0.0047,0.0331,-0.0033,0.95,0.01,-0.09,0,0.010,-0.330,0.097,-0.040,0.000,0.017,1.000,0.000,0.000,0.000
2778,0.0148,-0.0686,0.0081,0.0045,0.0219,-0.0029,0.92,0.01,-0.09,0,0.010,-0.164,0.138,-0.120,0.000,0.014,1.001,0.000,0.000,0.000
2787,0.0149,-0.0684,0.0081,0.0044,0.0220,-0.0030,0.95,0.04,-0.09,0,0.010,-0.237,-0.018,0.127,-0.001,0.015,1.002,0.000,0.000,0.000
2798,0.0149,-0.0677,0.0088,0.0041,0.0246,0.0011,0.72,0.02,-0.09,0,0.010,-0.063,0.111,0.104,-0.002,0.013,0.999,0.000,0.000,0.000
2808,0.0142,-0.0682,0.0089,0.0003,0.0209,0.0011,0.77,0.02,-0.08,0,0.011,0.143,-0.189,-0.183,-0.002,0.015,0.997,0.000,0.000,0.000
2818,0.0147,-0.0627,0.0088,0.0026,0.0492,0.0003,0.78,0.01,-0.08,0,0.011,-0.002,0.010,0.093,0.000,0.015,1.000,0.000,0.000,0.000
2827,0.0146,-0.0634,0.0089,0.0025,0.0431,0.0010,0.63,0.06,-0.08,0,0.011,0.020,-0.135,-0.155,0.001,0.015,1.000,0.000,0.000,0.000
2838,0.0149,-0.0632,0.0089,0.0035,0.0419,0.0012,0.62,0.06,-0.08,0,0.011,0.405,0.105,-0.195,-0.001,0.015,1.000,0.000,0.000,0.000
2847,0.0138,-0.0595,0.0087,-0.0028,0.0598,0.0000,0.88,0.05,-0.08,0,0.011,-0.145,0.060,-0.048,0.001,0.016,1.000,0.000,0.000,0.000
2857,0.0138,-0.0586,0.0097,-0.0029,0.0614,0.0047,0.90,0.05,-0.08,0,0.007,0.015,0.116,0.005,0.002,0.015,1.001,0.000,0.000,0.000
2868,0.0140,-0.0640,0.0102,-0.0019,0.0301,0.0074,0.87,0.04,-0.08,0,0.007,0.043,0.071,-0.170,0.002,0.016,1.000,0.000,0.000,0.000
2878,0.0140,-0.0642,0.0103,-0.0018,0.0272,0.0075,0.87,0.04,-0.09,0,0.007,-0.073,0.040,0.048,0.001,0.016,1.002,0.000,0.000,0.000
2887,0.0142,-0.0633,0.0104,-0.0005,0.0304,0.0074,0.88,0.04,-0.09,0,0.007,-0.184,0.265,0.145,0.001,0.014,1.000,0.000,0.000,0.000
2898,0.0142,-0.0632,0.0090,-0.0006,0.0297,0.0000,0.97,0.03,-0.09,0,0.007,0.113,-0.460,-0.520,0.002,0.014,0.999,0.000,0.000,0.000
2907,0.0140,-0.0632,0.0090,-0.0017,0.0282,0.0001,0.90,0.03,-0.09,0,0.007,0.039,0.006,0.069,0.002,0.015,1.001,0.000,0.000,0.000
2918,0.0142,-0.0649,0.0091,-0.0003,0.0173,0.0005,0.94,0.04,-0.09,0,0.007,-0.102,-0.091,-0.166,-0.001,0.014,1.003,0.000,0.000,0.000
2928,0.0142,-0.0632,0.0091,-0.0001,0.0255,0.0005,1.00,0.05,-0.09,0,0.007,0.301,0.220,-0.235,0.001,0.017,1.000,0.000,0.000,0.000
2937,0.0140,-0.0639,0.0091,-0.0012,0.0206,0.0008,1.05,0.00,-0.09,0,0.007,-0.050,-0.333,0.352,0.001,0.016,1.002,0.000,0.000,0.000
2948,0.0138,-0.0651,0.0091,-0.0022,0.0123,0.0010,0.94,0.02,-0.09,0,0.007,-0.149,-0.020,-0.059,-0.000,0.016,0.999,0.000,0.000,0.000
2957,0.0148,-0.0660,0.0082,0.0039,0.0066,-0.0040,0.93,0.03,-0.09,0,0.011,-0.129,0.148,-0.045,-0.001,0.017,1.003,0.000,0.000,0.000
2967,0.0144,-0.0635,0.0082,0.0014,0.0200,-0.0038,0.94,0.02,-0.09,0,0.011,0.093,-0.063,-0.190,-0.001,0.016,1.002,0.000,0.000,0.000
2978,0.0142,-0.0632,0.0082,0.0001,0.0199,-0.0036,0.95,0.02,-0.09,0,0.011,-0.226,0.122,-0.131,0.001,0.017,1.000,0.000,0.000,0.000
2987,0.0144,-0.0632,0.0081,0.0014,0.0189,-0.0035,0.98,0.04,-0.09,0,0.011,-0.052,-0.287,-0.378,0.001,0.016,1.001,0.000,0.000,0.000
2997,0.0146,-0.0632,0.0093,0.0025,0.0178,0.0029,0.96,0.04,-0.09,0,0.011,0.287,-0.077,0.226,0.000,0.016,1.002,0.000,0.000,0.000
3007,0.0140,-0.0639,0.0093,-0.0011,0.0133,0.0030,0.96,0.04,-0.09,0,0.010,0.122,0.265,0.005,0.000,0.017,0.999,0.000,0.000,0.000
3017,0.0140,-0.0632,0.0093,-0.0013,0.0160,0.0033,0.97,0.03,-0.09,0,0.010,-0.076,-0.046,-0.076,0.002,0.014,0.999,0.000,0.000,0.000
3027,0.0140,-0.0631,0.0094,-0.0014,0.0159,0.0035,1.07,0.03,-0.09,0,0.010,-0.143,-0.209,0.014,0.002,0.015,1.000,0.000,0.000,0.000
3038,0.0142,-0.0631,0.0094,-0.0001,0.0150,0.0036,1.05,0.03,-0.09,0,0.010,0.208,-0.029,-0.167,0.001,0.015,1.001,0.000,0.000,0.000
3047,0.0142,-0.0655,0.0095,-0.0000,0.0008,0.0039,0.99,0.03,-0.09,0,0.010,0.013,0.194,0.159,0.001,0.016,1.004,0.000,0.000,0.000
3057,0.0142,-0.0650,0.0097,0.0000,0.0029,0.0053,1.05,0.02,-0.09,0,0.009,0.064,-0.325,-0.041,-0.001,0.016,1.001,0.000,0.000,0.000
3068,0.0142,-0.0635,0.0098,0.0000,0.0109,0.0052,0.97,0.02,-0.09,0,0.009,0.053,0.076,-0.273,0.001,0.017,1.000,0.000,0.000,0.000
3077,0.0144,-0.0648,0.0099,0.0013,0.0029,0.0053,1.06,0.02,-0.09,0,0.009,0.136,0.303,0.038,0.002,0.018,1.000,0.000,0.000,0.000
3088,0.0144,-0.0631,0.0099,0.0014,0.0118,0.0054,1.31,-0.01,-0.09,0,0.009,-0.023,-0.174,-0.311,-0.001,0.018,0.999,0.000,0.000,0.000
3097,0.0144,-0.0650,0.0100,0.0013,0.0005,0.0058,1.28,0.02,-0.09,0,0.009,-0.050,0.035,0.005,-0.001,0.015,1.000,0.000,0.000,0.000
3107,0.0150,-0.0707,0.0096,0.0047,-0.0308,0.0035,1.20,0.01,-0.09,0,0.008,0.140,0.164,-0.043,-0.000,0.014,1.003,0.000,0.000,0.000
3117,0.0144,-0.0705,0.0097,0.0010,-0.0286,0.0038,1.21,0.02,-0.09,0,0.008,0.056,-0.152,0.202,0.002,0.016,1.002,0.000,0.000,0.000
3127,0.0146,-0.0688,0.0098,0.0021,-0.0184,0.0046,1.22,0.01,-0.09,0,0.008,-0.152,0.263,-0.042,0.001,0.016,1.000,0.000,0.000,0.000
3138,0.0144,-0.0694,0.0098,0.0009,-0.0211,0.0045,1.39,-0.04,-0.09,0,0.008,-0.033,0.086,0.135,-0.001,0.016,0.999,0.000,0.000,0.000
3147,0.0148,-0.0698,0.0099,0.0029,-0.0226,0.0044,1.61,-0.03,-0.09,0,0.008,0.191,0.136,-0.112,-0.000,0.016,0.999,0.000,0.000,0.000
3158,0.0159,-0.0740,0.0089,0.0084,-0.0445,-0.0007,1.57,-0.02,-0.09,0,0.010,0.120,0.131,-0.110,-0.002,0.016,1.001,0.000,0.000,0.000
3167,0.0156,-0.0793,0.0086,0.0068,-0.0723,-0.0029,1.59,-0.02,-0.09,0,0.010,-0.013,0.258,-0.042,-0.001,0.016,1.000,0.000,0.000,0.000
3178,0.0157,-0.0791,0.0087,0.0067,-0.0685,-0.0019,1.53,-0.05,-0.09,0,0.010,-0.140,0.119,-0.051,-0.001,0.016,1.001,0.000,0.000,0.000
3188,0.0157,-0.0804,0.0086,0.0064,-0.0726,-0.0024,1.44,-0.02,-0.09,0,0.010,0.063,-0.138,-0.072,0.000,0.017,1.001,0.000,0.000,0.000
3197,0.0163,-0.0798,0.0093,0.0094,-0.0665,0.0015,1.44,-0.02,-0.09,0,0.010,-0.003,-0.198,-0.088,0.002,0.018,1.000,0.000,0.000,0.000
3207,0.0157,-0.0786,0.0095,0.0056,-0.0572,0.0026,1.48,-0.02,-0.09,0,0.009,0.112,0.051,-0.152,-0.000,0.016,0.999,0.000,0.000,0.000
3218,0.0157,-0.0791,0.0095,0.0055,-0.0580,0.0027,1.42,-0.01,-0.09,0,0.009,0.100,-0.128,-0.070,-0.000,0.015,0.998,0.000,0.000,0.000
3227,0.0157,-0.0806,0.0094,0.0051,-0.0639,0.0022,1.45,-0.02,-0.09,0,0.009,0.177,0.246,-0.149,-0.001,0.017,1.002,0.000,0.000,0.000
3237,0.0157,-0.0800,0.0096,0.0048,-0.0576,0.0032,1.46,0.00,-0.09,0,0.009,-0.216,0.146,0.153,0.001,0.016,1.002,0.000,0.000,0.000
3247,0.0159,-0.0812,0.0096,0.0058,-0.0621,0.0028,1.29,-0.01,-0.09,0,0.009,0.379,0.029,-0.189,0.001,0.017,0.999,0.000,0.000,0.000
3257,0.0155,-0.0820,0.0093,0.0033,-0.0639,0.0015,1.24,-0.01,-0.09,0,0.008,0.171,0.110,-0.163,0.000,0.018,0.998,0.000,0.000,0.000
3267,0.0157,-0.0791,0.0096,0.0043,-0.0452,0.0033,1.23,-0.03,-0.10,0,0.008,0.226,-0.067,-0.424,0.001,0.017,0.999,0.000,0.000,0.000
3277,0.0157,-0.0782,0.0097,0.0040,-0.0388,0.0037,1.23,-0.03,-0.10,0,0.008,0.039,0.202,0.082,-0.000,0.017,0.999,0.000,0.000,0.000
3286,0.0161,-0.0784,0.0098,0.0061,-0.0382,0.0040,1.18,0.01,-0.09,0,0.008,-0.009,-0.038,0.297,0.000,0.017,0.999,0.000,0.000,0.000
3298,0.0162,-0.0788,0.0091,0.0062,-0.0386,0.0002,1.17,0.01,-0.09,0,0.008,-0.204,-0.124,0.138,0.002,0.014,1.000,0.000,0.000,0.000
3307,0.0155,-0.0781,0.0091,0.0024,-0.0331,0.0003,1.17,-0.02,-0.09,0,0.011,0.175,0.308,-0.051,0.000,0.016,1.000,0.000,0.000,0.000
3318,0.0155,-0.0783,0.0091,0.0022,-0.0327,0.0001,1.16,-0.00,-0.09,0,0.011,-0.005,-0.171,-0.120,-0.001,0.018,1.000,0.000,0.000,0.000
3327,0.0162,-0.0785,0.0091,0.0057,-0.0323,0.0000,1.10,0.00,-0.09,0,0.011,0.093,0.320,-0.118,-0.001,0.018,1.002,0.000,0.000,0.000
3337,0.0158,-0.0787,0.0091,0.0031,-0.0320,0.0000,1.01,0.19,-0.08,0,0.011,0.001,-0.578,-0.003,0.000,0.016,1.000,0.000,0.000,0.000
3348,0.0158,-0.0776,0.0092,0.0030,-0.0247,0.0004,1.20,0.23,-0.08,0,0.011,-0.217,-0.087,0.092,0.001,0.017,0.997,0.000,0.000,0.000
3358,0.0114,-0.0759,0.0100,-0.0209,-0.0143,0.0046,1.13,0.17,-0.08,0,0.008,0.056,0.167,-0.186,0.001,0.017,1.000,0.000,0.000,0.000
3367,0.0104,-0.0804,0.0100,-0.0260,-0.0381,0.0041,1.21,0.28,-0.08,0,0.008,0.194,0.043,-0.287,0.001,0.016,1.002,0.000,0.000,0.000
3377,0.0115,-0.0793,0.0102,-0.0191,-0.0303,0.0051,1.19,0.29,-0.08,0,0.008,-0.312,0.103,0.013,0.000,0.018,1.001,0.000,0.000,0.000
3387,0.0087,-0.0814,0.0101,-0.0335,-0.0404,0.0041,1.20,0.23,-0.08,0,0.008,0.123,0.147,-0.022,0.002,0.018,1.000,0.000,0.000,0.000
3397,0.0083,-0.0813,0.0093,-0.0343,-0.0383,-0.0006,1.21,0.27,-0.08,0,0.008,-0.013,-0.117,0.218,0.003,0.018,0.999,0.000,0.000,0.000
3408,0.0091,-0.0820,0.0093,-0.0280,-0.0400,-0.0005,1.19,0.23,-0.08,0,0.007,-0.017,0.097,0.021,0.000,0.016,1.002,0.000,0.000,0.000
3417,0.0079,-0.0826,0.0093,-0.0338,-0.0417,-0.0007,1.12,0.22,-0.08,0,0.007,-0.209,-0.154,-0.056,-0.001,0.016,1.001,0.000,0.000,0.000
3427,0.0085,-0.0826,0.0093,-0.0287,-0.0397,0.0001,1.29,0.13,-0.09,0,0.007,0.054,0.241,0.171,-0.001,0.015,0.999,0.000,0.000,0.000
3438,0.0085,-0.0813,0.0094,-0.0274,-0.0308,0.0009,1.18,0.16,-0.09,0,0.007,-0.041,0.150,0.185,-0.002,0.015,1.001,0.000,0.000,0.000
3448,0.0102,-0.0855,0.0094,-0.0166,-0.0527,0.0002,1.39,0.13,-0.09,0,0.007,0.194,0.074,-0.064,-0.000,0.016,1.000,0.000,0.000,0.000
3458,0.0094,-0.0835,0.0085,-0.0202,-0.0396,-0.0043,1.34,0.13,-0.09,0,0.010,-0.062,0.228,-0.011,0.001,0.015,0.999,0.000,0.000,0.000
3468,0.0098,-0.0887,0.0082,-0.0171,-0.0667,-0.0058,1.34,0.12,-0.09,0,0.010,-0.142,0.309,-0.057,0.002,0.016,0.997,0.000,0.000,0.000
3477,0.0096,-0.0881,0.0083,-0.0176,-0.0604,-0.0049,1.32,0.13,-0.09,0,0.010,0.099,0.025,0.146,0.001,0.016,1.000,0.000,0.000,0.000
3488,0.0096,-0.0887,0.0082,-0.0169,-0.0613,-0.0049,1.25,0.07,-0.09,0,0.010,-0.067,-0.277,-0.065,0.001,0.017,0.998,0.000,0.000,0.000
3498,0.0091,-0.0889,0.0082,-0.0185,-0.0599,-0.0047,1.26,0.12,-0.09,0,0.010,0.220,0.136,-0.307,-0.001,0.014,0.999,0.000,0.000,0.000
3506,0.0102,-0.0881,0.0091,-0.0119,-0.0528,0.0004,1.23,0.11,-0.09,0,0.011,-0.080,0.003,-0.149,0.000,0.015,1.000,0.000,0.000,0.000
3517,0.0089,-0.0889,0.0091,-0.0180,-0.0550,-0.0001,1.18,0.09,-0.09,0,0.011,0.209,-0.022,-0.131,-0.002,0.017,1.001,0.000,0.000,0.000
3527,0.0089,-0.0888,0.0091,-0.0172,-0.0516,0.0002,1.20,0.08,-0.09,0,0.011,-0.129,-0.094,-0.121,-0.001,0.017,1.002,0.000,0.000,0.000
3537,0.0093,-0.0882,0.0092,-0.0141,-0.0460,0.0007,1.21,0.01,-0.10,0,0.011,0.012,0.016,-0.025,-0.001,0.017,1.000,0.000,0.000,0.000
3547,0.0093,-0.0890,0.0092,-0.0135,-0.0484,0.0004,1.12,0.08,-0.09,0,0.011,-0.105,0.117,0.195,0.001,0.018,1.000,0.000,0.000,0.000
3557,0.0107,-0.0899,0.0100,-0.0052,-0.0512,0.0044,1.10,0.06,-0.10,0,0.007,-0.072,0.141,0.194,-0.000,0.017,1.000,0.000,0.000,0.000
3567,0.0091,-0.0885,0.0102,-0.0140,-0.0410,0.0052,1.10,0.06,-0.10,0,0.007,0.093,0.210,-0.182,-0.001,0.016,1.000,0.000,0.000,0.000
3578,0.0095,-0.0883,0.0102,-0.0113,-0.0379,0.0056,1.08,0.07,-0.10,0,0.007,0.043,0.160,0.058,-0.001,0.015,1.002,0.000,0.000,0.000
3587,0.0094,-0.0887,0.0103,-0.0115,-0.0382,0.0057,1.19,0.03,-0.10,0,0.007,-0.003,-0.040,-0.165,0.000,0.018,1.001,0.000,0.000,0.000
3596,0.0089,-0.0886,0.0104,-0.0133,-0.0361,0.0058,1.11,0.04,-0.10,0,0.007,-0.084,-0.020,-0.124,0.001,0.019,0.998,0.000,0.000,0.000
3607,0.0098,-0.0915,0.0089,-0.0078,-0.0502,-0.0023,1.04,0.06,-0.10,0,0.007,-0.150,-0.054,0.118,-0.000,0.018,1.000,0.000,0.000,0.000
3617,0.0094,-0.0902,0.0090,-0.0099,-0.0408,-0.0016,1.02,0.06,-0.10,0,0.007,-0.241,0.102,0.002,-0.001,0.017,0.999,0.000,0.000,0.000
3627,0.0090,-0.0892,0.0090,-0.0118,-0.0330,-0.0011,0.97,-0.01,-0.10,0,0.007,0.214,0.105,-0.160,0.001,0.016,0.998,0.000,0.000,0.000
3637,0.0088,-0.0889,0.0090,-0.0125,-0.0302,-0.0007,1.10,-0.01,-0.10,0,0.007,-0.221,-0.032,-0.011,0.001,0.016,1.000,0.000,0.000,0.000
3647,0.0103,-0.0881,0.0091,-0.0037,-0.0238,-0.0002,0.97,0.05,-0.10,0,0.007,-0.119,0.167,0.238,0.000,0.015,1.003,0.000,0.000,0.000
3658,0.0101,-0.0914,0.0081,-0.0045,-0.0406,-0.0054,0.97,0.05,-0.10,0,0.010,0.042,-0.191,-0.265,0.001,0.017,0.998,0.000,0.000,0.000
3666,0.0088,-0.0889,0.0082,-0.0112,-0.0248,-0.0045,0.94,0.04,-0.10,0,0.010,0.080,0.249,0.105,0.003,0.017,0.999,0.000,0.000,0.000
3677,0.0088,-0.0891,0.0081,-0.0106,-0.0245,-0.0046,0.93,0.02,-0.10,0,0.010,-0.132,0.092,0.055,0.001,0.018,0.998,0.000,0.000,0.000
3687,0.0088,-0.0887,0.0081,-0.0100,-0.0209,-0.0045,0.69,0.04,-0.10,0,0.010,-0.118,-0.011,-0.061,0.001,0.016,0.999,0.000,0.000,0.000
3697,0.0092,-0.0887,0.0089,-0.0072,-0.0200,-0.0002,0.62,-0.00,-0.10,0,0.010,-0.450,0.085,0.207,0.000,0.014,0.998,0.000,0.000,0.000
3707,0.0086,-0.0835,0.0089,-0.0102,0.0096,0.0005,0.65,0.01,-0.10,0,0.011,0.047,0.110,-0.199,-0.001,0.014,1.001,0.000,0.000,0.000
3717,0.0095,-0.0818,0.0089,-0.0049,0.0187,0.0002,0.65,0.00,-0.10,0,0.011,-0.251,0.114,-0.015,-0.000,0.015,1.004,0.000,0.000,0.000
3727,0.0092,-0.0824,0.0089,-0.0056,0.0150,0.0002,0.63,0.18,-0.10,0,0.011,-0.029,-0.013,0.076,-0.002,0.017,1.001,0.000,0.000,0.000
3737,0.0092,-0.0823,0.0089,-0.0055,0.0156,0.0001,0.59,0.18,-0.10,0,0.011,-0.118,0.211,-0.382,0.001,0.017,1.002,0.000,0.000,0.000
3748,0.0050,-0.0818,0.0089,-0.0278,0.0175,-0.0003,0.43,0.13,-0.10,0,0.011,-0.276,0.005,-0.113,0.000,0.017,1.002,0.000,0.000,0.000
3757,0.0048,-0.0808,0.0098,-0.0278,0.0227,0.0040,0.47,0.12,-0.10,0,0.007,-0.236,0.058,-0.209,0.001,0.016,0.999,0.000,0.000,0.000
3768,0.0057,-0.0768,0.0097,-0.0218,0.0432,0.0038,0.57,0.11,-0.10,0,0.007,-0.028,0.001,0.247,0.000,0.017,0.998,0.000,0.000,0.000
3777,0.0057,-0.0773,0.0098,-0.0209,0.0391,0.0045,0.58,0.05,-0.10,0,0.007,-0.173,0.016,0.054,0.001,0.017,1.001,0.000,0.000,0.000
3787,0.0057,-0.0793,0.0101,-0.0200,0.0272,0.0056,0.42,0.08,-0.10,0,0.007,-0.510,0.071,0.122,0.000,0.015,1.001,0.000,0.000,0.000
3796,0.0068,-0.0793,0.0089,-0.0129,0.0263,-0.0008,0.44,0.09,-0.10,0,0.007,-0.282,-0.135,0.017,0.001,0.016,0.999,0.000,0.000,0.000
3807,0.0060,-0.0754,0.0087,-0.0168,0.0465,-0.0013,0.46,0.09,-0.10,0,0.007,-0.138,0.143,-0.110,0.001,0.017,0.997,0.000,0.000,0.000
3817,0.0056,-0.0754,0.0087,-0.0183,0.0447,-0.0014,0.47,0.06,-0.10,0,0.007,-0.044,0.012,-0.121,-0.000,0.015,0.998,0.000,0.000,0.000
3827,0.0053,-0.0754,0.0088,-0.0185,0.0432,-0.0013,0.33,0.02,-0.09,0,0.007,0.030,-0.172,-0.156,0.001,0.015,0.996,0.000,0.000,0.000
3837,0.0058,-0.0752,0.0088,-0.0152,0.0426,-0.0009,0.36,-0.01,-0.10,0,0.007,0.155,-0.096,-0.086,0.002,0.017,0.994,0.000,0.000,0.000
3847,0.0066,-0.0719,0.0086,-0.0096,0.0599,-0.0020,0.42,-0.02,-0.10,0,0.007,-0.158,-0.182,-0.080,0.001,0.017,0.995,0.000,0.000,0.000
3856,0.0071,-0.0719,0.0079,-0.0065,0.0574,-0.0054,0.43,0.02,-0.10,0,0.008,0.038,0.076,0.091,0.000,0.016,1.000,0.000,0.000,0.000
3867,0.0073,-0.0727,0.0080,-0.0049,0.0503,-0.0049,0.48,0.01,-0.10,0,0.008,-0.163,-0.338,0.013,0.002,0.016,1.006,0.000,0.000,0.000
3877,0.0064,-0.0723,0.0079,-0.0094,0.0504,-0.0051,0.41,-0.01,-0.10,0,0.008,-0.270,-0.333,-0.399,0.000,0.015,1.010,0.000,0.000,0.000
3887,0.0066,-0.0730,0.0080,-0.0076,0.0448,-0.0050,0.46,-0.01,-0.10,0,0.008,-0.368,-0.274,-0.031,-0.002,0.016,1.007,0.000,0.000,0.000
3897,0.0071,-0.0711,0.0079,-0.0047,0.0536,-0.0058,0.53,0.02,-0.10,0,0.008,-0.237,-0.059,0.084,0.001,0.016,1.004,0.000,0.000,0.000
3906,0.0070,-0.0717,0.0079,-0.0044,0.0480,-0.0057,0.48,0.03,-0.10,0,0.007,-0.007,-0.034,0.102,0.001,0.016,1.003,0.000,0.000,0.000
3917,0.0064,-0.0729,0.0079,-0.0075,0.0392,-0.0047,0.65,0.02,-0.10,0,0.007,0.435,-0.067,-0.305,0.000,0.018,1.003,0.000,0.000,0.000
3927,0.0060,-0.0715,0.0079,-0.0093,0.0457,-0.0043,0.65,-0.02,-0.10,0,0.007,0.130,-0.123,-0.039,-0.001,0.016,1.002,0.000,0.000,0.000
3937,0.0062,-0.0747,0.0081,-0.0078,0.0256,-0.0019,0.83,-0.01,-0.10,0,0.007,0.577,-0.201,0.011,-0.002,0.013,1.000,0.000,0.000,0.000
3947,0.0070,-0.0745,0.0080,-0.0029,0.0256,-0.0013,0.79,0.02,-0.10,0,0.007,0.422,-0.089,-0.268,0.000,0.014,1.001,0.000,0.000,0.000
3956,0.0068,-0.0781,0.0076,-0.0038,0.0050,-0.0030,0.63,0.07,-0.11,0,0.010,-0.183,0.014,-0.298,0.001,0.018,1.001,0.000,0.000,0.000
3967,0.0060,-0.0771,0.0076,-0.0080,0.0105,-0.0026,0.65,0.08,-0.11,0,0.010,0.054,-0.043,0.003,0.001,0.016,0.998,0.000,0.000,0.000
3977,0.0050,-0.0731,0.0076,-0.0132,0.0316,-0.0023,0.69,0.04,-0.11,0,0.010,0.319,0.133,0.015,0.000,0.014,1.000,0.000,0.000,0.000
3986,0.0046,-0.0733,0.0076,-0.0150,0.0292,-0.0022,0.88,0.07,-0.11,0,0.010,0.339,0.279,0.019,0.002,0.014,1.000,0.000,0.000,0.000
3997,0.0052,-0.0740,0.0076,-0.0111,0.0244,-0.0019,0.61,0.07,-0.11,0,0.010,0.395,-0.120,-0.311,-0.000,0.017,0.999,0.000,0.000,0.000
4006,0.0043,-0.0780,0.0087,-0.0151,0.0012,0.0039,0.66,0.05,-0.11,0,0.007,0.149,-0.058,0.056,-0.002,0.016,1.001,0.000,0.000,0.000
4017,0.0043,-0.0719,0.0089,-0.0142,0.0349,0.0044,0.62,0.05,-0.11,0,0.007,-0.205,-0.121,0.084,-0.001,0.018,1.000,0.000,0.000,0.000
4027,0.0045,-0.0725,0.0090,-0.0124,0.0300,0.0046,0.62,0.05,-0.11,0,0.007,0.075,-0.372,-0.149,0.001,0.017,1.000,0.000,0.000,0.000
4038,0.0045,-0.0714,0.0090,-0.0117,0.0343,0.0045,0.76,0.03,-0.11,0,0.007,0.140,0.044,-0.435,0.002,0.018,1.002,0.000,0.000,0.000
4047,0.0045,-0.0710,0.0091,-0.0111,0.0351,0.0044,0.69,0.05,-0.11,0,0.007,-0.035,-0.023,-0.240,0.001,0.017,1.001,0.000,0.000,0.000
4056,0.0049,-0.0737,0.0083,-0.0085,0.0192,0.0006,0.70,0.03,-0.11,0,0.008,0.054,-0.180,0.184,0.001,0.017,0.999,0.000,0.000,0.000
4067,0.0043,-0.0719,0.0083,-0.0115,0.0285,0.0005,0.68,0.02,-0.11,0,0.008,-0.000,0.026,0.142,0.001,0.015,1.001,0.000,0.000,0.000
4076,0.0045,-0.0719,0.0083,-0.0099,0.0276,0.0006,0.73,-0.01,-0.11,0,0.008,0.061,0.064,0.135,0.004,0.015,1.000,0.000,0.000,0.000
4086,0.0047,-0.0712,0.0083,-0.0082,0.0299,0.0006,0.57,0.04,-0.11,0,0.008,0.180,-0.078,0.158,0.002,0.017,0.999,0.000,0.000,0.000
4096,0.0053,-0.0721,0.0082,-0.0043,0.0243,0.0004,0.48,0.03,-0.11,0,0.008,0.239,-0.100,-0.018,-0.001,0.018,1.001,0.000,0.000,0.000
4107,0.0041,-0.0682,0.0082,-0.0106,0.0447,-0.0001,0.46,0.05,-0.11,0,0.007,-0.094,0.030,-0.048,0.001,0.018,0.999,0.000,0.000,0.000
4117,0.0043,-0.0655,0.0080,-0.0089,0.0574,-0.0009,0.45,0.05,-0.12,0,0.007,0.310,0.074,-0.232,0.002,0.016,0.998,0.000,0.000,0.000
4126,0.0039,-0.0647,0.0080,-0.0105,0.0594,-0.0010,0.38,0.04,-0.12,0,0.007,0.035,0.224,0.240,0.004,0.016,0.999,0.000,0.000,0.000
4137,0.0037,-0.0639,0.0080,-0.0108,0.0614,-0.0011,0.12,-0.02,-0.11,0,0.007,0.148,0.068,-0.148,0.001,0.015,1.000,0.000,0.000,0.000
4147,0.0039,-0.0617,0.0078,-0.0090,0.0712,-0.0021,0.03,-0.07,-0.11,0,0.007,-0.159,-0.220,0.141,0.000,0.014,0.998,0.000,0.000,0.000
4157,0.0052,-0.0552,0.0069,-0.0018,0.1041,-0.0069,0.03,-0.07,-0.11,0,0.006,0.009,0.010,0.250,0.001,0.017,1.000,0.000,0.000,0.000
4166,0.0062,-0.0519,0.0065,0.0041,0.1177,-0.0091,0.12,-0.08,-0.10,0,0.006,0.058,-0.260,0.231,-0.001,0.016,1.002,0.000,0.000,0.000
4177,0.0062,-0.0507,0.0064,0.0045,0.1192,-0.0093,0.12,-0.08,-0.11,0,0.006,0.034,0.131,-0.030,-0.001,0.016,1.002,0.000,0.000,0.000
4187,0.0067,-0.0516,0.0068,0.0070,0.1094,-0.0068,-0.13,-0.21,-0.10,0,0.006,0.116,0.010,0.223,0.001,0.016,1.001,0.000,0.000,0.000
4197,0.0067,-0.0505,0.0064,0.0068,0.1104,-0.0083,-0.11,-0.13,-0.10,0,0.006,0.015,0.025,0.108,-0.001,0.017,1.001,0.000,0.000,0.000
4206,0.0097,-0.0437,0.0056,0.0232,0.1427,-0.0132,-0.04,-0.15,-0.10,0,0.007,0.143,-0.204,0.341,0.003,0.017,1.000,0.000,0.000,0.000
4217,0.0082,-0.0429,0.0056,0.0140,0.1413,-0.0120,0.16,-0.14,-0.10,0,0.007,0.272,0.054,0.192,0.001,0.017,1.000,0.000,0.000,0.000
4226,0.0088,-0.0429,0.0058,0.0169,0.1351,-0.0101,-0.17,-0.18,-0.10,0,0.007,-0.075,0.161,-0.405,-0.001,0.016,0.998,0.000,0.000,0.000
4236,0.0088,-0.0460,0.0066,0.0161,0.1119,-0.0045,-0.24,-0.20,-0.10,0,0.007,-0.164,0.182,0.107,0.001,0.017,1.000,0.000,0.000,0.000
4246,0.0097,-0.0375,0.0053,0.0201,0.1543,-0.0122,-0.46,-0.18,-0.11,0,0.007,0.304,0.139,0.218,0.002,0.018,1.000,0.000,0.000,0.000
4256,0.0105,-0.0341,0.0056,0.0241,0.1662,-0.0105,-0.44,-0.15,-0.11,0,0.008,0.155,-0.286,-0.093,0.000,0.016,1.001,0.000,0.000,0.000
