time_ms,pos_x,pos_y,pos_z,vel_x,vel_y,vel_z,roll,pitch,yaw,thrust,range_z,gyro_x,gyro_y,gyro_z,acc_x,acc_y,acc_z,rate_roll,rate_pitch,rate_yaw
0,-0.0025,0.0964,0.0112,0.0060,0.0046,-0.0013,-1.33,0.64,-0.00,0,0.011,-0.086,0.061,-0.146,0.009,-0.014,1.002,0.000,0.000,0.000
0,-0.0018,0.1056,0.0109,0.0094,0.0540,-0.0029,-1.27,0.65,-0.00,0,0.011,0.018,0.009,0.026,0.012,-0.013,1.000,0.000,0.000,0.000
0,-0.0021,0.1045,0.0110,0.0078,0.0460,-0.0020,-1.24,0.65,-0.00,0,0.011,0.093,-0.129,-0.100,0.012,-0.011,0.999,0.000,0.000,0.000
0,-0.0021,0.1079,0.0107,0.0073,0.0626,-0.0037,-1.38,0.63,-0.00,0,0.011,0.127,0.137,0.113,0.012,-0.010,0.999,0.000,0.000,0.000
0,-0.0021,0.1073,0.0108,0.0069,0.0567,-0.0024,-1.40,0.67,-0.00,0,0.011,0.118,-0.198,-0.253,0.014,-0.011,1.000,0.000,0.000,0.000
0,-0.0021,0.1070,0.0110,0.0064,0.0532,-0.0015,-1.30,0.67,-0.01,0,0.015,-0.017,0.237,-0.096,0.014,-0.012,1.000,0.000,0.000,0.000
0,-0.0016,0.1111,0.0106,0.0083,0.0729,-0.0031,-1.33,0.67,-0.01,0,0.015,0.176,-0.192,0.267,0.013,-0.013,1.001,0.000,0.000,0.000
1,-0.0025,0.1121,0.0106,0.0033,0.0758,-0.0033,-1.17,0.54,0.00,0,0.015,-0.142,0.346,0.116,0.013,-0.013,1.002,0.000,0.000,0.000
1,-0.0025,0.1106,0.0109,0.0032,0.0650,-0.0017,-1.27,0.65,-0.00,0,0.015,0.141,-0.153,0.075,0.012,-0.010,1.001,0.000,0.000,0.000
1,-0.0025,0.1121,0.0107,0.0031,0.0705,-0.0024,-1.26,0.66,-0.00,0,0.015,-0.079,-0.212,0.001,0.011,-0.012,0.999,0.000,0.000,0.000
1,0.0007,0.1092,0.0129,0.0202,0.0524,0.0089,-1.21,0.66,-0.01,0,0.011,0.067,0.196,0.004,0.013,-0.011,1.000,0.000,0.000,0.000
1,-0.0019,0.1122,0.0129,0.0058,0.0662,0.0085,-1.24,0.66,-0.00,0,0.011,-0.089,-0.107,-0.155,0.012,-0.013,1.002,0.000,0.000,0.000
1,-0.0021,0.1126,0.0130,0.0046,0.0658,0.0088,-1.29,0.65,-0.00,0,0.011,0.122,-0.192,-0.009,0.010,-0.013,1.002,0.000,0.000,0.000
1,-0.0021,0.1121,0.0132,0.0044,0.0610,0.0095,-1.17,0.65,-0.00,0,0.011,0.206,0.285,-0.211,0.010,-0.010,1.001,0.000,0.000,0.000
2,-0.0021,0.1134,0.0132,0.0041,0.0655,0.0092,-1.20,0.65,-0.00,0,0.011,-0.262,-0.091,0.262,0.012,-0.013,1.001,0.000,0.000,0.000
2,-0.0017,0.1152,0.0123,0.0062,0.0728,0.0037,-1.17,0.65,-0.00,0,0.011,-0.027,-0.275,0.069,0.012,-0.015,1.001,0.000,0.000,0.000
2,-0.0017,0.1131,0.0126,0.0060,0.0586,0.0054,-1.17,0.66,-0.00,0,0.011,-0.099,-0.127,-0.040,0.013,-0.012,1.003,0.000,0.000,0.000
2,-0.0017,0.1140,0.0125,0.0057,0.0633,0.0050,-1.10,0.66,-0.00,0,0.011,0.052,0.292,-0.041,0.014,-0.009,1.000,0.000,0.000,0.000
2,-0.0017,0.1138,0.0126,0.0054,0.0597,0.0056,-1.06,0.64,0.00,0,0.011,0.227,0.074,-0.167,0.012,-0.011,1.000,0.000,0.000,0.000
2,-0.0017,0.1144,0.0127,0.0052,0.0606,0.0057,-1.12,0.65,-0.00,0,0.011,-0.168,-0.053,-0.024,0.012,-0.011,1.000,0.000,0.000,0.000
2,-0.0017,0.1135,0.0121,0.0049,0.0531,0.0026,-1.02,0.64,-0.00,0,0.012,-0.000,-0.123,-0.022,0.012,-0.012,1.001,0.000,0.000,0.000
2,-0.0013,0.1133,0.0122,0.0070,0.0494,0.0030,-1.04,0.67,-0.00,0,0.012,-0.064,0.059,0.032,0.012,-0.011,1.002,0.000,0.000,0.000
2,-0.0015,0.1152,0.0121,0.0056,0.0576,0.0028,-1.03,0.66,-0.00,0,0.012,-0.074,-0.160,0.228,0.011,-0.012,0.999,0.000,0.000,0.000
2,-0.0013,0.1135,0.0123,0.0067,0.0461,0.0040,-1.03,0.67,-0.00,0,0.012,0.029,-0.127,0.058,0.013,-0.011,1.000,0.000,0.000,0.000
2,-0.0019,0.1143,0.0123,0.0029,0.0489,0.0039,-0.97,0.66,-0.00,0,0.012,0.056,-0.097,-0.217,0.011,-0.011,1.002,0.000,0.000,0.000
3,-0.0017,0.1145,0.0122,0.0039,0.0480,0.0031,-0.96,0.66,-0.00,0,0.012,-0.201,-0.108,0.187,0.013,-0.012,0.999,0.000,0.000,0.000
3,-0.0019,0.1151,0.0123,0.0027,0.0493,0.0032,-0.93,0.66,-0.00,0,0.012,-0.026,0.021,0.104,0.012,-0.012,1.000,0.000,0.000,0.000
3,-0.0015,0.1143,0.0124,0.0048,0.0426,0.0038,-0.96,0.68,-0.00,0,0.012,-0.255,0.318,0.163,0.014,-0.012,1.001,0.000,0.000,0.000
3,-0.0015,0.1145,0.0124,0.0045,0.0420,0.0040,-0.75,0.65,-0.00,0,0.012,0.023,0.198,-0.098,0.016,-0.012,1.000,0.000,0.000,0.000
3,-0.0015,0.1143,0.0125,0.0043,0.0391,0.0041,-0.92,0.68,-0.00,0,0.012,-0.164,-0.102,-0.081,0.014,-0.012,0.999,0.000,0.000,0.000
3,-0.0019,0.1153,0.0123,0.0018,0.0430,0.0030,-0.94,0.70,-0.01,0,0.012,-0.031,-0.040,-0.174,0.012,-0.012,1.000,0.000,0.000,0.000
3,-0.0012,0.1112,0.0125,0.0053,0.0176,0.0044,-0.86,0.69,-0.01,0,0.012,0.143,0.036,-0.154,0.010,-0.012,1.001,0.000,0.000,0.000
3,-0.0019,0.1152,0.0126,0.0016,0.0394,0.0041,-0.85,0.71,-0.01,0,0.012,0.030,0.164,-0.089,0.011,-0.011,1.001,0.000,0.000,0.000
3,-0.0023,0.1164,0.0126,-0.0004,0.0427,0.0040,-0.83,0.69,-0.01,0,0.012,-0.027,0.141,-0.090,0.015,-0.011,0.999,0.000,0.000,0.000
3,-0.0021,0.1146,0.0127,0.0007,0.0324,0.0048,-0.89,0.69,-0.01,0,0.012,0.149,-0.212,0.097,0.013,-0.012,0.999,0.000,0.000,0.000
3,-0.0025,0.1149,0.0125,-0.0013,0.0311,0.0031,-0.85,0.69,-0.01,0,0.012,-0.114,0.025,0.277,0.010,-0.012,1.000,0.000,0.000,0.000
3,-0.0021,0.1146,0.0125,0.0011,0.0294,0.0032,-0.79,0.70,-0.01,0,0.012,0.014,0.063,-0.203,0.010,-0.010,1.000,0.000,0.000,0.000
3,-0.0021,0.1166,0.0125,0.0007,0.0374,0.0031,-0.85,0.66,-0.01,0,0.012,-0.026,-0.109,0.022,0.012,-0.012,0.999,0.000,0.000,0.000
3,-0.0021,0.1156,0.0126,0.0007,0.0319,0.0034,-0.74,0.65,-0.01,0,0.012,-0.037,-0.028,-0.198,0.012,-0.011,0.999,0.000,0.000,0.000
3,-0.0023,0.1149,0.0127,-0.0002,0.0251,0.0037,-0.79,0.68,-0.01,0,0.012,-0.012,-0.065,0.110,0.012,-0.011,1.000,0.000,0.000,0.000
3,-0.0014,0.1165,0.0124,0.0044,0.0330,0.0018,-0.81,0.68,-0.01,0,0.009,-0.001,0.027,0.047,0.015,-0.012,1.000,0.000,0.000,0.000
3,-0.0012,0.1142,0.0125,0.0052,0.0187,0.0025,-0.80,0.69,-0.01,0,0.009,-0.185,-0.123,0.056,0.015,-0.015,1.000,0.000,0.000,0.000
4,-0.0019,0.1157,0.0125,0.0014,0.0260,0.0023,-0.76,0.69,-0.01,0,0.009,0.134,0.043,-0.083,0.010,-0.010,1.002,0.000,0.000,0.000
4,-0.0019,0.1165,0.0125,0.0013,0.0295,0.0022,-0.76,0.69,-0.01,0,0.009,-0.088,0.067,0.142,0.012,-0.010,1.000,0.000,0.000,0.000
4,-0.0021,0.1165,0.0125,0.0000,0.0282,0.0023,-0.71,0.69,-0.01,0,0.009,0.051,0.062,0.094,0.012,-0.015,1.000,0.000,0.000,0.000
4,-0.0021,0.1158,0.0111,0.0003,0.0230,-0.0052,-0.69,0.68,-0.01,0,0.014,0.053,-0.050,-0.005,0.012,-0.012,1.000,0.000,0.000,0.000
4,-0.0021,0.1160,0.0110,0.0007,0.0228,-0.0052,-0.74,0.68,-0.01,0,0.014,0.180,0.095,-0.310,0.010,-0.012,0.998,0.000,0.000,0.000
4,-0.0023,0.1151,0.0110,-0.0004,0.0170,-0.0049,-0.80,0.68,-0.01,0,0.014,0.061,0.017,0.078,0.010,-0.013,0.999,0.000,0.000,0.000
4,-0.0020,0.1147,0.0110,0.0006,0.0140,-0.0047,-0.64,0.68,-0.01,0,0.014,-0.028,-0.060,-0.039,0.012,-0.011,1.000,0.000,0.000,0.000
4,-0.0020,0.1162,0.0109,0.0006,0.0212,-0.0048,-0.68,0.67,-0.01,0,0.014,0.136,0.118,-0.111,0.012,-0.010,1.000,0.000,0.000,0.000
4,-0.0021,0.1145,0.0123,0.0005,0.0099,0.0029,-0.70,0.69,-0.02,0,0.010,-0.083,0.128,0.133,0.010,-0.010,1.002,0.000,0.000,0.000
4,-0.0019,0.1155,0.0123,0.0015,0.0149,0.0027,-0.68,0.67,-0.01,0,0.010,0.140,0.028,-0.222,0.014,-0.009,1.001,0.000,0.000,0.000
4,-0.0019,0.1156,0.0123,0.0013,0.0149,0.0026,-0.68,0.67,-0.02,0,0.010,-0.054,0.408,-0.110,0.011,-0.013,0.999,0.000,0.000,0.000
4,-0.0023,0.1163,0.0124,-0.0011,0.0175,0.0024,-0.64,0.67,-0.02,0,0.010,0.079,0.137,0.243,0.012,-0.014,0.996,0.000,0.000,0.000
4,-0.0019,0.1157,0.0124,0.0012,0.0143,0.0026,-0.61,0.68,-0.02,0,0.010,0.106,-0.155,-0.042,0.011,-0.013,0.999,0.000,0.000,0.000
4,-0.0018,0.1160,0.0114,0.0012,0.0148,-0.0027,-0.61,0.68,-0.02,0,0.008,-0.115,0.079,-0.381,0.010,-0.013,1.001,0.000,0.000,0.000
4,-0.0018,0.1154,0.0114,0.0012,0.0107,-0.0026,-0.68,0.67,-0.02,0,0.008,-0.013,0.016,0.019,0.011,-0.011,0.999,0.000,0.000,0.000
4,-0.0023,0.1148,0.0113,-0.0010,0.0068,-0.0025,-0.57,0.65,-0.02,0,0.008,-0.192,0.283,0.202,0.013,-0.012,1.000,0.000,0.000,0.000
4,-0.0023,0.1148,0.0113,-0.0010,0.0063,-0.0027,-0.58,0.69,-0.02,0,0.008,-0.071,-0.095,0.301,0.014,-0.012,0.998,0.000,0.000,0.000
4,-0.0021,0.1164,0.0113,0.0002,0.0153,-0.0028,-0.64,0.67,-0.02,0,0.008,-0.098,0.178,0.143,0.015,-0.011,0.997,0.000,0.000,0.000
4,-0.0016,0.1141,0.0099,0.0025,0.0014,-0.0101,-0.67,0.68,-0.01,0,0.009,-0.163,0.037,-0.125,0.012,-0.014,0.998,0.000,0.000,0.000
4,-0.0024,0.1143,0.0098,-0.0024,0.0022,-0.0100,-0.66,0.67,-0.02,0,0.009,-0.126,0.260,-0.321,0.009,-0.011,1.001,0.000,0.000,0.000
5,-0.0020,0.1156,0.0098,0.0000,0.0088,-0.0100,-0.61,0.68,-0.02,0,0.009,0.003,-0.116,-0.374,0.009,-0.011,1.000,0.000,0.000,0.000
5,-0.0022,0.1164,0.0096,-0.0011,0.0129,-0.0102,-0.61,0.67,-0.02,0,0.009,0.130,0.058,-0.075,0.012,-0.012,1.000,0.000,0.000,0.000
5,-0.0020,0.1164,0.0095,0.0002,0.0121,-0.0103,-0.64,0.67,-0.02,0,0.009,0.058,0.102,0.098,0.010,-0.011,1.002,0.000,0.000,0.000
5,-0.0022,0.1154,0.0093,-0.0007,0.0058,-0.0113,-0.57,0.66,-0.02,0,0.010,0.175,0.058,0.070,0.014,-0.011,1.004,0.000,0.000,0.000
5,-0.0020,0.1154,0.0092,0.0007,0.0053,-0.0115,-0.59,0.66,-0.02,0,0.010,-0.033,-0.137,-0.154,0.015,-0.012,1.001,0.000,0.000,0.000
5,-0.0020,0.1162,0.0090,0.0005,0.0094,-0.0115,-0.59,0.63,-0.02,0,0.010,-0.008,-0.063,-0.076,0.013,-0.013,1.000,0.000,0.000,0.000
5,-0.0020,0.1148,0.0089,0.0002,0.0009,-0.0113,-0.56,0.63,-0.02,0,0.010,-0.071,-0.060,-0.068,0.013,-0.012,1.002,0.000,0.000,0.000
5,-0.0020,0.1152,0.0088,0.0002,0.0030,-0.0113,-0.59,0.64,-0.02,0,0.010,0.023,0.113,-0.122,0.012,-0.010,1.000,0.000,0.000,0.000
5,-0.0012,0.1152,0.0093,0.0046,0.0028,-0.0084,-0.63,0.66,-0.02,0,0.011,0.198,0.241,0.401,0.012,-0.010,0.999,0.000,0.000,0.000
5,-0.0014,0.1146,0.0092,0.0033,-0.0008,-0.0079,-0.61,0.67,-0.02,0,0.011,0.178,-0.022,-0.228,0.012,-0.011,1.001,0.000,0.000,0.000
5,-0.0016,0.1152,0.0091,0.0024,0.0025,-0.0078,-0.56,0.67,-0.02,0,0.011,0.198,0.081,0.169,0.012,-0.009,1.001,0.000,0.000,0.000
5,-0.0020,0.1162,0.0090,0.0003,0.0078,-0.0077,-0.63,0.67,-0.02,0,0.011,-0.105,-0.094,0.212,0.012,-0.011,1.002,0.000,0.000,0.000
5,-0.0022,0.1158,0.0090,-0.0007,0.0049,-0.0076,-0.55,0.67,-0.02,0,0.011,0.102,0.136,-0.199,0.011,-0.013,1.000,0.000,0.000,0.000
5,-0.0022,0.1148,0.0098,-0.0007,-0.0009,-0.0028,-0.58,0.66,-0.02,0,0.012,0.020,-0.041,-0.113,0.012,-0.015,0.999,0.000,0.000,0.000
5,-0.0022,0.1164,0.0097,-0.0006,0.0083,-0.0028,-0.58,0.67,-0.02,0,0.012,-0.047,-0.131,0.034,0.012,-0.013,0.999,0.000,0.000,0.000
5,-0.0022,0.1146,0.0097,-0.0005,-0.0023,-0.0026,-0.56,0.65,-0.02,0,0.012,-0.074,-0.200,-0.010,0.014,-0.013,0.997,0.000,0.000,0.000
5,-0.0020,0.1154,0.0097,0.0008,0.0024,-0.0025,-0.73,0.68,-0.02,0,0.012,-0.262,-0.075,0.096,0.012,-0.011,0.998,0.000,0.000,0.000
5,-0.0024,0.1154,0.0097,-0.0015,0.0023,-0.0023,-0.76,0.72,-0.02,0,0.012,-0.070,-0.280,-0.082,0.011,-0.012,1.001,0.000,0.000,0.000
5,-0.0020,0.1150,0.0106,0.0008,-0.0003,0.0030,-0.99,0.72,-0.02,0,0.010,0.102,0.155,-0.122,0.012,-0.011,0.999,0.000,0.000,0.000
5,-0.0026,0.1186,0.0107,-0.0026,0.0195,0.0028,-0.96,0.73,-0.02,0,0.010,-0.285,0.410,0.246,0.010,-0.012,1.000,0.000,0.000,0.000
5,-0.0034,0.1196,0.0107,-0.0070,0.0241,0.0026,-0.94,0.74,-0.01,0,0.010,-0.109,0.101,0.168,0.012,-0.013,1.000,0.000,0.000,0.000
6,-0.0034,0.1247,0.0105,-0.0065,0.0519,0.0007,-1.01,0.74,-0.01,0,0.010,-0.168,0.107,0.114,0.015,-0.012,1.000,0.000,0.000,0.000
6,-0.0038,0.1247,0.0105,-0.0084,0.0496,0.0009,-0.91,0.72,-0.01,0,0.010,0.042,0.139,0.048,0.013,-0.012,1.000,0.000,0.000,0.000
6,-0.0042,0.1248,0.0103,-0.0103,0.0473,-0.0002,-0.88,0.70,-0.01,0,0.012,-0.037,-0.113,-0.252,0.013,-0.011,1.000,0.000,0.000,0.000
6,-0.0044,0.1268,0.0102,-0.0111,0.0566,-0.0009,-0.87,0.70,-0.02,0,0.012,-0.013,0.039,0.137,0.010,-0.011,0.999,0.000,0.000,0.000
6,-0.0040,0.1252,0.0104,-0.0084,0.0449,0.0004,-0.71,0.65,-0.02,0,0.012,-0.132,0.017,0.225,0.012,-0.013,1.000,0.000,0.000,0.000
6,-0.0036,0.1250,0.0105,-0.0059,0.0416,0.0008,-0.66,0.63,-0.02,0,0.012,0.118,-0.111,0.108,0.011,-0.012,1.000,0.000,0.000,0.000
6,-0.0038,0.1250,0.0105,-0.0065,0.0396,0.0010,-0.60,0.62,-0.02,0,0.012,-0.077,0.015,0.254,0.013,-0.014,1.000,0.000,0.000,0.000
6,-0.0029,0.1221,0.0113,-0.0003,0.0207,0.0054,-0.58,0.60,-0.01,0,0.010,-0.153,-0.082,0.237,0.013,-0.013,0.999,0.000,0.000,0.000
6,-0.0025,0.1211,0.0114,0.0021,0.0141,0.0056,-0.58,0.61,-0.01,0,0.010,0.235,0.108,-0.150,0.011,-0.012,1.000,0.000,0.000,0.000
6,-0.0021,0.1199,0.0114,0.0043,0.0066,0.0057,-0.59,0.58,-0.01,0,0.010,-0.148,0.208,-0.062,0.010,-0.013,1.000,0.000,0.000,0.000
6,-0.0017,0.1198,0.0115,0.0063,0.0050,0.0056,-0.52,0.61,-0.01,0,0.010,-0.146,0.183,0.251,0.011,-0.012,1.000,0.000,0.000,0.000
6,-0.0013,0.1200,0.0116,0.0082,0.0051,0.0056,-0.57,0.61,-0.01,0,0.010,0.159,0.285,-0.261,0.011,-0.013,0.999,0.000,0.000,0.000
6,-0.0013,0.1199,0.0109,0.0083,0.0050,0.0020,-0.52,0.61,-0.01,0,0.008,-0.006,0.247,0.093,0.011,-0.012,1.000,0.000,0.000,0.000
6,-0.0018,0.1184,0.0109,0.0048,-0.0044,0.0020,-0.55,0.61,-0.01,0,0.008,0.178,0.174,0.078,0.013,-0.014,1.002,0.000,0.000,0.000
6,-0.0018,0.1196,0.0110,0.0046,0.0023,0.0021,-0.52,0.60,-0.02,0,0.008,0.178,0.003,0.113,0.013,-0.012,1.001,0.000,0.000,0.000
6,-0.0018,0.1192,0.0110,0.0042,-0.0003,0.0021,-0.36,0.60,-0.02,0,0.008,0.085,0.158,0.138,0.011,-0.013,0.998,0.000,0.000,0.000
6,-0.0018,0.1192,0.0110,0.0042,-0.0003,0.0021,-0.43,0.63,-0.01,0,0.008,-0.085,-0.056,-0.118,0.014,-0.013,1.000,0.000,0.000,0.000
6,-0.0016,0.1186,0.0098,0.0052,-0.0040,-0.0048,-0.19,0.62,-0.02,0,0.011,0.310,-0.133,-0.066,0.014,-0.012,1.001,0.000,0.000,0.000
6,-0.0014,0.1150,0.0097,0.0060,-0.0242,-0.0051,-0.16,0.61,-0.02,0,0.011,-0.416,0.093,0.171,0.013,-0.012,0.998,0.000,0.000,0.000
6,-0.0022,0.1162,0.0097,0.0014,-0.0169,-0.0046,-0.20,0.64,-0.01,0,0.011,0.021,0.128,-0.254,0.012,-0.010,0.999,0.000,0.000,0.000
6,-0.0020,0.1109,0.0094,0.0026,-0.0467,-0.0055,-0.28,0.62,-0.02,0,0.011,0.217,0.051,-0.133,0.012,-0.009,1.001,0.000,0.000,0.000
7,-0.0016,0.1099,0.0093,0.0048,-0.0505,-0.0059,-0.23,0.64,-0.02,0,0.011,-0.013,0.123,0.024,0.012,-0.012,0.999,0.000,0.000,0.000
7,-0.0022,0.1100,0.0100,0.0013,-0.0477,-0.0019,-0.25,0.63,-0.02,0,0.012,-0.019,-0.284,-0.169,0.010,-0.015,1.002,0.000,0.000,0.000
7,-0.0018,0.1114,0.0102,0.0038,-0.0382,-0.0010,-0.26,0.62,-0.02,0,0.012,-0.207,0.085,0.095,0.011,-0.012,1.002,0.000,0.000,0.000
7,-0.0022,0.1098,0.0101,0.0016,-0.0457,-0.0015,-0.51,0.67,-0.02,0,0.012,-0.146,0.057,-0.101,0.013,-0.012,1.001,0.000,0.000,0.000
7,-0.0020,0.1098,0.0101,0.0026,-0.0439,-0.0014,-0.48,0.71,-0.01,0,0.012,0.094,-0.013,-0.057,0.013,-0.011,1.000,0.000,0.000,0.000
7,-0.0018,0.1098,0.0101,0.0037,-0.0420,-0.0011,-0.72,0.68,-0.02,0,0.012,0.188,0.390,0.202,0.013,-0.012,0.999,0.000,0.000,0.000
7,-0.0028,0.1146,0.0112,-0.0019,-0.0129,0.0044,-0.71,0.67,-0.02,0,0.010,-0.051,-0.208,-0.103,0.013,-0.013,0.998,0.000,0.000,0.000
7,-0.0038,0.1138,0.0112,-0.0074,-0.0170,0.0044,-0.75,0.67,-0.02,0,0.010,-0.098,0.057,-0.078,0.011,-0.012,0.999,0.000,0.000,0.000
7,-0.0032,0.1187,0.0113,-0.0038,0.0112,0.0049,-0.74,0.68,-0.02,0,0.010,-0.009,0.173,-0.126,0.012,-0.010,1.001,0.000,0.000,0.000
7,-0.0030,0.1187,0.0114,-0.0025,0.0107,0.0051,-0.66,0.67,-0.02,0,0.010,0.117,0.012,-0.163,0.012,-0.011,1.001,0.000,0.000,0.000
7,-0.0030,0.1197,0.0114,-0.0022,0.0157,0.0049,-0.69,0.67,-0.02,0,0.010,-0.089,0.143,0.199,0.009,-0.009,0.998,0.000,0.000,0.000
7,-0.0034,0.1197,0.0108,-0.0042,0.0151,0.0018,-0.65,0.68,-0.02,0,0.014,-0.085,-0.100,-0.127,0.015,-0.012,0.996,0.000,0.000,0.000
7,-0.0032,0.1182,0.0109,-0.0028,0.0055,0.0020,-0.71,0.67,-0.02,0,0.014,0.077,0.068,-0.131,0.013,-0.012,0.999,0.000,0.000,0.000
7,-0.0032,0.1190,0.0109,-0.0026,0.0095,0.0018,-0.72,0.64,-0.02,0,0.014,-0.041,-0.027,-0.193,0.013,-0.013,1.000,0.000,0.000,0.000
7,-0.0034,0.1182,0.0110,-0.0036,0.0047,0.0020,-0.71,0.66,-0.02,0,0.014,-0.006,-0.267,-0.242,0.014,-0.011,0.999,0.000,0.000,0.000
7,-0.0034,0.1195,0.0110,-0.0033,0.0122,0.0019,-0.65,0.67,-0.02,0,0.014,0.126,-0.189,0.044,0.013,-0.009,0.999,0.000,0.000,0.000
7,-0.0028,0.1198,0.0122,-0.0000,0.0131,0.0083,-0.63,0.65,-0.02,0,0.012,-0.095,0.155,-0.014,0.013,-0.012,0.998,0.000,0.000,0.000
7,-0.0032,0.1198,0.0123,-0.0021,0.0125,0.0080,-0.66,0.64,-0.03,0,0.012,0.093,0.137,0.110,0.012,-0.012,1.000,0.000,0.000,0.000
7,-0.0034,0.1186,0.0124,-0.0030,0.0051,0.0080,-0.69,0.65,-0.03,0,0.012,-0.276,0.207,0.055,0.012,-0.012,1.002,0.000,0.000,0.000
7,-0.0030,0.1182,0.0125,-0.0005,0.0025,0.0080,-0.59,0.62,-0.03,0,0.012,-0.108,-0.027,0.126,0.012,-0.013,1.000,0.000,0.000,0.000
8,-0.0028,0.1190,0.0126,0.0010,0.0067,0.0079,-0.65,0.65,-0.02,0,0.012,0.143,0.200,0.221,0.012,-0.013,1.001,0.000,0.000,0.000
8,-0.0030,0.1198,0.0124,0.0000,0.0110,0.0064,-0.64,0.65,-0.02,0,0.009,0.093,0.108,0.140,0.013,-0.014,1.001,0.000,0.000,0.000
8,-0.0025,0.1178,0.0125,0.0036,-0.0009,0.0065,-0.64,0.64,-0.02,0,0.009,-0.241,0.013,-0.077,0.014,-0.010,0.999,0.000,0.000,0.000
8,-0.0030,0.1190,0.0126,0.0002,0.0057,0.0064,-0.67,0.64,-0.02,0,0.009,-0.066,-0.011,0.083,0.014,-0.010,1.000,0.000,0.000,0.000
8,-0.0030,0.1188,0.0126,0.0003,0.0043,0.0066,-0.68,0.64,-0.02,0,0.009,0.130,0.016,-0.010,0.012,-0.013,1.000,0.000,0.000,0.000
8,-0.0030,0.1190,0.0127,0.0004,0.0049,0.0067,-0.60,0.64,-0.02,0,0.009,0.151,-0.247,0.248,0.010,-0.010,1.000,0.000,0.000,0.000
8,-0.0030,0.1196,0.0112,0.0005,0.0079,-0.0018,-0.63,0.64,-0.02,0,0.013,0.090,0.156,-0.138,0.012,-0.011,1.000,0.000,0.000,0.000
8,-0.0030,0.1200,0.0112,0.0006,0.0096,-0.0017,-0.64,0.64,-0.02,0,0.013,0.058,-0.307,0.201,0.009,-0.012,1.001,0.000,0.000,0.000
8,-0.0030,0.1182,0.0112,0.0009,-0.0012,-0.0016,-0.67,0.68,-0.02,0,0.013,-0.081,0.018,-0.079,0.011,-0.013,0.999,0.000,0.000,0.000
8,-0.0030,0.1190,0.0112,0.0011,0.0034,-0.0016,-0.57,0.51,-0.03,0,0.013,0.100,0.008,0.076,0.013,-0.011,0.997,0.000,0.000,0.000
8,-0.0028,0.1192,0.0112,0.0023,0.0042,-0.0015,-0.60,0.55,-0.03,0,0.013,0.143,0.069,-0.182,0.011,-0.013,0.999,0.000,0.000,0.000
8,-0.0038,0.1200,0.0119,-0.0036,0.0087,0.0026,-0.60,0.55,-0.03,0,0.009,-0.047,-0.092,-0.173,0.010,-0.014,1.001,0.000,0.000,0.000
8,-0.0000,0.1178,0.0120,0.0180,-0.0042,0.0029,-0.45,0.56,-0.03,0,0.009,-0.050,-0.160,-0.094,0.011,-0.013,1.002,0.000,0.000,0.000
8,-0.0008,0.1186,0.0121,0.0126,0.0004,0.0032,-0.45,0.53,-0.03,0,0.009,0.185,0.377,0.051,0.013,-0.012,1.000,0.000,0.000,0.000
8,-0.0007,0.1186,0.0121,0.0126,0.0002,0.0032,-0.27,0.55,-0.03,0,0.009,-0.014,-0.011,0.114,0.012,-0.014,1.001,0.000,0.000,0.000
8,-0.0007,0.1153,0.0121,0.0122,-0.0188,0.0029,-0.30,0.55,-0.03,0,0.009,0.138,0.061,-0.250,0.011,-0.012,1.001,0.000,0.000,0.000
8,0.0001,0.1150,0.0108,0.0164,-0.0194,-0.0044,-0.45,0.62,-0.03,0,0.012,-0.174,-0.010,0.194,0.012,-0.010,0.999,0.000,0.000,0.000
8,-0.0003,0.1108,0.0107,0.0132,-0.0424,-0.0050,-0.47,0.63,-0.03,0,0.012,0.115,0.163,-0.133,0.010,-0.008,0.999,0.000,0.000,0.000
8,-0.0001,0.1110,0.0107,0.0137,-0.0397,-0.0046,-0.50,0.63,-0.03,0,0.012,0.025,-0.003,0.060,0.009,-0.011,1.003,0.000,0.000,0.000
8,-0.0016,0.1140,0.0109,0.0051,-0.0218,-0.0031,0.01,0.63,-0.02,0,0.012,-0.248,0.036,0.276,0.012,-0.010,1.002,0.000,0.000,0.000
8,-0.0018,0.1142,0.0109,0.0039,-0.0200,-0.0030,0.01,0.63,-0.02,0,0.012,-0.394,0.073,0.008,0.013,-0.010,1.001,0.000,0.000,0.000
9,-0.0018,0.1148,0.0113,0.0037,-0.0159,-0.0002,-0.10,0.65,-0.02,0,0.013,-0.103,0.170,-0.012,0.014,-0.012,1.001,0.000,0.000,0.000
9,-0.0018,0.1031,0.0112,0.0035,-0.0796,-0.0017,-0.09,0.65,-0.02,0,0.013,-0.049,-0.029,-0.185,0.014,-0.010,1.002,0.000,0.000,0.000
9,-0.0018,0.1023,0.0111,0.0032,-0.0806,-0.0019,0.02,0.60,-0.02,0,0.013,0.004,0.393,0.023,0.012,-0.013,1.001,0.000,0.000,0.000
9,-0.0022,0.1039,0.0114,0.0007,-0.0683,0.0002,-0.05,0.59,-0.02,0,0.013,-0.202,0.231,0.127,0.012,-0.013,0.999,0.000,0.000,0.000
9,-0.0022,0.1029,0.0114,0.0006,-0.0710,0.0002,0.11,0.61,-0.02,0,0.013,0.072,0.053,-0.142,0.011,-0.011,1.001,0.000,0.000,0.000
9,-0.0012,0.0998,0.0119,0.0064,-0.0851,0.0027,0.14,0.58,-0.02,0,0.011,-0.177,-0.014,-0.044,0.012,-0.012,1.002,0.000,0.000,0.000
9,-0.0010,0.1004,0.0121,0.0075,-0.0782,0.0038,0.15,0.58,-0.02,0,0.011,-0.012,0.053,-0.087,0.013,-0.012,0.999,0.000,0.000,0.000
9,-0.0014,0.0958,0.0117,0.0051,-0.0998,0.0016,0.08,0.60,-0.02,0,0.011,0.002,-0.311,-0.180,0.011,-0.013,0.998,0.000,0.000,0.000
9,-0.0005,0.0942,0.0116,0.0094,-0.1048,0.0012,0.03,0.60,-0.02,0,0.011,-0.098,0.084,0.105,0.012,-0.010,0.999,0.000,0.000,0.000
9,-0.0005,0.0929,0.0116,0.0091,-0.1073,0.0009,-0.00,0.60,-0.02,0,0.011,-0.525,0.104,0.337,0.012,-0.009,1.002,0.000,0.000,0.000
9,-0.0010,0.0935,0.0116,0.0064,-0.0994,0.0007,0.01,0.60,-0.02,0,0.012,0.303,0.158,-0.127,0.012,-0.014,1.003,0.000,0.000,0.000
9,-0.0007,0.0935,0.0117,0.0073,-0.0953,0.0015,-0.09,0.60,-0.02,0,0.012,-0.126,-0.004,0.027,0.011,-0.013,0.999,0.000,0.000,0.000
9,-0.0007,0.0933,0.0118,0.0072,-0.0924,0.0020,-0.21,0.63,-0.02,0,0.012,-0.252,-0.123,-0.131,0.013,-0.011,0.999,0.000,0.000,0.000
9,-0.0007,0.0921,0.0118,0.0069,-0.0954,0.0016,-0.23,0.63,-0.02,0,0.012,0.046,0.096,-0.156,0.013,-0.012,0.998,0.000,0.000,0.000
9,-0.0007,0.0935,0.0121,0.0066,-0.0834,0.0034,-0.25,0.60,-0.02,0,0.012,-0.015,0.092,-0.065,0.013,-0.010,0.999,0.000,0.000,0.000
9,-0.0013,0.0953,0.0123,0.0030,-0.0695,0.0045,-0.26,0.61,-0.02,0,0.016,-0.030,0.277,0.087,0.012,-0.014,1.002,0.000,0.000,0.000
9,-0.0013,0.0949,0.0123,0.0030,-0.0688,0.0048,-0.24,0.59,-0.02,0,0.016,0.314,-0.097,-0.134,0.009,-0.011,1.001,0.000,0.000,0.000
9,-0.0007,0.0947,0.0124,0.0062,-0.0671,0.0050,-0.32,0.67,-0.01,0,0.016,0.028,0.048,0.108,0.011,-0.010,1.001,0.000,0.000,0.000
9,-0.0007,0.0942,0.0125,0.0061,-0.0665,0.0050,-0.43,0.67,-0.02,0,0.016,0.110,-0.240,-0.231,0.012,-0.011,0.998,0.000,0.000,0.000
9,-0.0003,0.0930,0.0125,0.0083,-0.0703,0.0045,-0.41,0.64,-0.02,0,0.016,-0.132,0.321,0.266,0.013,-0.012,0.999,0.000,0.000,0.000
10,-0.0022,0.0941,0.0141,-0.0021,-0.0608,0.0127,-0.41,0.63,-0.02,0,0.009,-0.074,-0.224,-0.270,0.013,-0.013,1.001,0.000,0.000,0.000
10,-0.0022,0.0959,0.0143,-0.0020,-0.0480,0.0137,-0.43,0.63,-0.02,0,0.009,0.232,-0.100,-0.397,0.012,-0.015,1.001,0.000,0.000,0.000
10,-0.0016,0.0951,0.0144,0.0013,-0.0504,0.0138,-0.47,0.66,-0.02,0,0.009,0.233,-0.119,-0.161,0.012,-0.013,0.998,0.000,0.000,0.000
10,-0.0013,0.0947,0.0146,0.0022,-0.0502,0.0139,-0.60,0.69,-0.02,0,0.009,-0.249,0.302,0.089,0.012,-0.012,1.000,0.000,0.000,0.000
10,-0.0011,0.0945,0.0147,0.0033,-0.0489,0.0140,-0.64,0.72,-0.01,0,0.009,-0.005,0.063,-0.170,0.014,-0.012,1.001,0.000,0.000,0.000
10,-0.0018,0.0953,0.0125,-0.0001,-0.0427,0.0013,-0.92,0.72,-0.01,0,0.010,-0.052,-0.061,-0.214,0.014,-0.012,1.002,0.000,0.000,0.000
10,-0.0026,0.0977,0.0126,-0.0045,-0.0271,0.0020,-0.88,0.71,-0.02,0,0.010,0.030,0.035,-0.024,0.014,-0.012,0.999,0.000,0.000,0.000
10,-0.0033,0.1044,0.0125,-0.0085,0.0129,0.0024,-0.95,0.72,-0.02,0,0.010,-0.077,-0.088,0.089,0.013,-0.013,0.999,0.000,0.000,0.000
10,-0.0034,0.1045,0.0126,-0.0085,0.0132,0.0023,-0.94,0.69,-0.02,0,0.010,0.189,0.235,-0.248,0.011,-0.012,0.999,0.000,0.000,0.000
10,-0.0032,0.1037,0.0127,-0.0069,0.0081,0.0026,-0.90,0.69,-0.02,0,0.010,-0.042,0.040,-0.214,0.013,-0.011,0.998,0.000,0.000,0.000
10,-0.0036,0.1054,0.0115,-0.0087,0.0175,-0.0036,-0.90,0.70,-0.02,0,0.014,0.152,0.291,-0.120,0.013,-0.010,0.999,0.000,0.000,0.000
10,-0.0030,0.1054,0.0115,-0.0045,0.0169,-0.0033,-0.87,0.70,-0.02,0,0.014,0.260,0.219,-0.001,0.013,-0.011,0.999,0.000,0.000,0.000
10,-0.0030,0.1048,0.0115,-0.0040,0.0129,-0.0032,-0.89,0.71,-0.02,0,0.014,-0.120,0.015,0.029,0.011,-0.011,0.998,0.000,0.000,0.000
10,-0.0034,0.1048,0.0115,-0.0060,0.0124,-0.0033,-0.84,0.66,-0.02,0,0.014,0.058,-0.063,-0.015,0.012,-0.012,0.998,0.000,0.000,0.000
10,-0.0036,0.1044,0.0115,-0.0068,0.0098,-0.0033,-0.84,0.70,-0.02,0,0.014,0.221,-0.002,-0.168,0.012,-0.013,0.999,0.000,0.000,0.000
10,-0.0038,0.1050,0.0125,-0.0076,0.0131,0.0023,-0.84,0.69,-0.02,0,0.011,-0.197,-0.114,-0.130,0.012,-0.014,0.998,0.000,0.000,0.000
10,-0.0028,0.1040,0.0126,-0.0015,0.0072,0.0023,-0.89,0.68,-0.02,0,0.011,0.085,0.065,0.103,0.011,-0.013,0.999,0.000,0.000,0.000
10,-0.0036,0.1042,0.0126,-0.0058,0.0083,0.0022,-0.89,0.68,-0.02,0,0.011,0.204,-0.086,-0.075,0.012,-0.010,1.002,0.000,0.000,0.000
10,-0.0034,0.1042,0.0126,-0.0045,0.0083,0.0021,-0.82,0.65,-0.02,0,0.011,-0.218,-0.162,-0.240,0.012,-0.011,1.002,0.000,0.000,0.000
10,-0.0034,0.1054,0.0126,-0.0043,0.0150,0.0018,-0.83,0.70,-0.02,0,0.011,-0.081,-0.292,-0.160,0.013,-0.011,0.998,0.000,0.000,0.000
10,-0.0034,0.1056,0.0119,-0.0042,0.0152,-0.0019,-0.83,0.69,-0.02,0,0.012,0.055,-0.450,-0.225,0.012,-0.011,0.997,0.000,0.000,0.000
11,-0.0028,0.1043,0.0120,-0.0004,0.0073,-0.0019,-0.79,0.69,-0.03,0,0.012,-0.129,-0.006,0.084,0.013,-0.010,0.998,0.000,0.000,0.000
11,-0.0036,0.1046,0.0119,-0.0048,0.0089,-0.0020,-1.05,0.68,-0.02,0,0.012,0.130,0.197,0.015,0.014,-0.010,0.999,0.000,0.000,0.000
11,-0.0036,0.1047,0.0119,-0.0048,0.0093,-0.0018,-1.09,0.70,-0.02,0,0.012,-0.046,0.047,0.133,0.012,-0.012,1.002,0.000,0.000,0.000
11,-0.0037,0.1038,0.0119,-0.0045,0.0045,-0.0016,-1.41,0.75,-0.02,0,0.012,-0.235,-0.058,-0.000,0.011,-0.012,1.002,0.000,0.000,0.000
11,-0.0036,0.1098,0.0119,-0.0041,0.0373,-0.0017,-1.41,0.75,-0.02,0,0.012,0.074,0.071,0.112,0.011,-0.014,1.001,0.000,0.000,0.000
11,-0.0041,0.1111,0.0118,-0.0062,0.0429,-0.0022,-1.34,0.75,-0.02,0,0.012,0.111,0.231,-0.066,0.012,-0.014,1.000,0.000,0.000,0.000
11,-0.0053,0.1188,0.0113,-0.0128,0.0830,-0.0055,-1.30,0.73,-0.02,0,0.012,-0.107,0.285,-0.065,0.010,-0.012,0.999,0.000,0.000,0.000
11,-0.0055,0.1196,0.0113,-0.0127,0.0844,-0.0056,-1.33,0.73,-0.02,0,0.012,-0.179,-0.133,-0.015,0.011,-0.011,1.000,0.000,0.000,0.000
11,-0.0057,0.1189,0.0115,-0.0133,0.0772,-0.0040,-1.33,0.73,-0.02,0,0.012,-0.232,-0.164,0.068,0.013,-0.011,1.003,0.000,0.000,0.000
11,-0.0054,0.1189,0.0117,-0.0115,0.0739,-0.0021,-1.33,0.73,-0.02,0,0.009,0.010,0.277,0.089,0.014,-0.012,1.003,0.000,0.000,0.000
11,-0.0054,0.1204,0.0117,-0.0110,0.0789,-0.0023,-1.29,0.73,-0.02,0,0.009,0.045,-0.026,-0.075,0.013,-0.012,0.999,0.000,0.000,0.000
11,-0.0055,0.1212,0.0116,-0.0111,0.0798,-0.0023,-1.54,0.73,-0.02,0,0.009,0.467,-0.028,-0.238,0.012,-0.013,1.000,0.000,0.000,0.000
11,-0.0057,0.1220,0.0116,-0.0113,0.0808,-0.0023,-1.64,0.77,-0.02,0,0.009,0.135,0.133,0.005,0.012,-0.013,1.000,0.000,0.000,0.000
11,-0.0059,0.1218,0.0117,-0.0121,0.0770,-0.0017,-1.50,0.75,-0.02,0,0.009,0.025,-0.117,0.075,0.012,-0.011,0.999,0.000,0.000,0.000
11,-0.0061,0.1285,0.0101,-0.0125,0.1092,-0.0101,-1.46,0.77,-0.03,0,0.014,-0.180,-0.009,0.315,0.013,-0.011,1.002,0.000,0.000,0.000
11,-0.0070,0.1321,0.0097,-0.0166,0.1242,-0.0117,-1.44,0.76,-0.03,0,0.014,0.011,-0.159,0.002,0.011,-0.012,1.001,0.000,0.000,0.000
11,-0.0067,0.1301,0.0101,-0.0145,0.1083,-0.0087,-1.41,0.71,-0.02,0,0.014,-0.085,-0.006,-0.229,0.012,-0.013,0.998,0.000,0.000,0.000
11,-0.0074,0.1302,0.0102,-0.0174,0.1043,-0.0079,-1.36,0.75,-0.03,0,0.014,-0.158,-0.189,0.209,0.010,-0.013,0.999,0.000,0.000,0.000
11,-0.0074,0.1307,0.0101,-0.0166,0.1031,-0.0075,-1.29,0.77,-0.03,0,0.014,0.083,0.013,0.165,0.011,-0.013,0.999,0.000,0.000,0.000
12,-0.0065,0.1315,0.0117,-0.0111,0.1028,0.0014,-1.25,0.75,-0.03,0,0.010,-0.163,-0.088,0.217,0.012,-0.012,1.000,0.000,0.000,0.000
12,-0.0074,0.1311,0.0119,-0.0153,0.0970,0.0023,-1.23,0.74,-0.03,0,0.010,-0.034,-0.274,0.179,0.012,-0.014,1.000,0.000,0.000,0.000
12,-0.0081,0.1306,0.0120,-0.0182,0.0901,0.0032,-1.16,0.71,-0.03,0,0.010,-0.156,0.028,-0.095,0.011,-0.014,1.001,0.000,0.000,0.000
12,-0.0079,0.1306,0.0122,-0.0162,0.0859,0.0038,-1.12,0.67,-0.02,0,0.010,0.260,0.099,-0.234,0.012,-0.012,1.001,0.000,0.000,0.000
12,-0.0076,0.1309,0.0123,-0.0143,0.0842,0.0040,-1.13,0.74,-0.04,0,0.010,0.134,0.045,0.019,0.013,-0.013,1.001,0.000,0.000,0.000
12,-0.0071,0.1300,0.0115,-0.0112,0.0762,-0.0004,-1.06,0.70,-0.03,0,0.010,-0.140,-0.087,-0.060,0.012,-0.012,1.001,0.000,0.000,0.000
12,-0.0062,0.1300,0.0115,-0.0059,0.0726,0.0000,-0.99,0.68,-0.03,0,0.010,0.002,0.166,0.301,0.012,-0.010,1.001,0.000,0.000,0.000
12,-0.0080,0.1308,0.0115,-0.0150,0.0738,-0.0001,-1.09,0.69,-0.03,0,0.010,-0.135,0.028,-0.055,0.012,-0.012,0.999,0.000,0.000,0.000
12,-0.0071,0.1301,0.0116,-0.0096,0.0666,0.0008,-0.92,0.65,-0.03,0,0.010,-0.092,0.043,0.043,0.014,-0.010,1.001,0.000,0.000,0.000
12,-0.0069,0.1289,0.0117,-0.0079,0.0576,0.0017,-0.94,0.67,-0.03,0,0.010,0.025,0.038,0.026,0.012,-0.010,1.000,0.000,0.000,0.000
12,-0.0073,0.1319,0.0110,-0.0096,0.0710,-0.0026,-0.84,0.68,-0.03,0,0.011,-0.185,0.107,-0.022,0.012,-0.009,1.000,0.000,0.000,0.000
12,-0.0064,0.1285,0.0112,-0.0044,0.0499,-0.0007,-0.82,0.68,-0.03,0,0.011,-0.016,0.055,0.143,0.013,-0.012,0.999,0.000,0.000,0.000
12,-0.0068,0.1296,0.0112,-0.0064,0.0536,-0.0007,-0.70,0.64,-0.03,0,0.011,-0.117,-0.044,0.216,0.012,-0.011,0.999,0.000,0.000,0.000
12,-0.0073,0.1275,0.0113,-0.0084,0.0402,0.0001,-0.60,0.60,-0.02,0,0.011,-0.179,-0.168,-0.431,0.014,-0.011,1.000,0.000,0.000,0.000
12,-0.0075,0.1275,0.0113,-0.0090,0.0383,0.0003,-0.68,0.60,-0.02,0,0.011,-0.187,-0.067,-0.005,0.012,-0.013,0.999,0.000,0.000,0.000
12,-0.0066,0.1250,0.0112,-0.0037,0.0235,0.0003,-0.67,0.65,-0.03,0,0.012,0.246,0.233,-0.331,0.014,-0.012,1.000,0.000,0.000,0.000
12,-0.0055,0.1228,0.0112,0.0025,0.0106,0.0006,-0.59,0.64,-0.03,0,0.012,-0.308,0.145,0.033,0.012,-0.011,0.999,0.000,0.000,0.000
12,-0.0055,0.1248,0.0112,0.0026,0.0206,0.0006,-0.75,0.61,-0.03,0,0.012,0.108,-0.065,-0.260,0.012,-0.013,1.001,0.000,0.000,0.000
12,-0.0068,0.1248,0.0113,-0.0044,0.0194,0.0005,-0.81,0.61,-0.03,0,0.012,0.021,0.153,0.095,0.013,-0.012,1.001,0.000,0.000,0.000
12,-0.0066,0.1232,0.0113,-0.0028,0.0102,0.0007,-0.69,0.59,-0.02,0,0.012,-0.398,-0.099,-0.046,0.013,-0.010,0.999,0.000,0.000,0.000
13,-0.0059,0.1272,0.0116,0.0009,0.0304,0.0022,-0.68,0.57,-0.02,0,0.009,-0.160,-0.217,-0.177,0.011,-0.011,1.002,0.000,0.000,0.000
13,-0.0059,0.1289,0.0116,0.0012,0.0379,0.0019,-0.67,0.62,-0.02,0,0.009,0.063,-0.049,-0.110,0.013,-0.012,1.002,0.000,0.000,0.000
13,-0.0051,0.1261,0.0117,0.0056,0.0210,0.0027,-0.90,0.63,-0.03,0,0.009,0.084,0.158,-0.226,0.011,-0.012,0.999,0.000,0.000,0.000
13,-0.0051,0.1263,0.0118,0.0058,0.0209,0.0028,-0.83,0.63,-0.03,0,0.009,0.129,-0.126,0.138,0.012,-0.013,0.999,0.000,0.000,0.000
13,-0.0062,0.1263,0.0118,0.0000,0.0198,0.0030,-0.94,0.69,-0.03,0,0.009,0.026,0.101,-0.259,0.011,-0.011,0.999,0.000,0.000,0.000
13,-0.0064,0.1318,0.0106,-0.0009,0.0483,-0.0043,-0.93,0.69,-0.03,0,0.010,0.049,-0.016,-0.099,0.012,-0.010,0.999,0.000,0.000,0.000
13,-0.0064,0.1307,0.0106,-0.0008,0.0404,-0.0035,-0.86,0.69,-0.03,0,0.010,0.022,0.061,-0.147,0.012,-0.011,1.001,0.000,0.000,0.000
13,-0.0078,0.1337,0.0105,-0.0085,0.0543,-0.0042,-0.86,0.68,-0.03,0,0.010,0.045,0.032,-0.025,0.011,-0.014,1.000,0.000,0.000,0.000
13,-0.0079,0.1341,0.0105,-0.0082,0.0540,-0.0042,-0.91,0.68,-0.03,0,0.010,0.180,-0.053,-0.099,0.011,-0.011,1.002,0.000,0.000,0.000
13,-0.0079,0.1330,0.0106,-0.0077,0.0458,-0.0034,-0.87,0.68,-0.03,0,0.010,-0.237,-0.096,0.354,0.011,-0.012,1.000,0.000,0.000,0.000
13,-0.0079,0.1335,0.0103,-0.0078,0.0461,-0.0046,-0.83,0.66,-0.03,0,0.008,-0.195,0.298,-0.043,0.014,-0.013,1.000,0.000,0.000,0.000
13,-0.0079,0.1350,0.0102,-0.0073,0.0522,-0.0050,-0.78,0.66,-0.03,0,0.008,-0.122,-0.261,0.139,0.012,-0.012,0.998,0.000,0.000,0.000
13,-0.0079,0.1347,0.0102,-0.0070,0.0484,-0.0046,-0.74,0.71,-0.03,0,0.008,-0.146,-0.009,0.212,0.012,-0.013,1.000,0.000,0.000,0.000
13,-0.0075,0.1343,0.0102,-0.0043,0.0436,-0.0042,-0.64,0.66,-0.03,0,0.008,-0.198,0.018,-0.005,0.011,-0.013,1.001,0.000,0.000,0.000
13,-0.0077,0.1334,0.0103,-0.0053,0.0369,-0.0035,-0.63,0.64,-0.03,0,0.008,-0.377,-0.137,0.168,0.013,-0.012,1.000,0.000,0.000,0.000
13,-0.0088,0.1329,0.0093,-0.0108,0.0324,-0.0081,-0.57,0.64,-0.03,0,0.012,0.221,0.164,-0.061,0.013,-0.012,1.002,0.000,0.000,0.000
13,-0.0079,0.1308,0.0093,-0.0055,0.0201,-0.0076,-0.46,0.61,-0.03,0,0.012,0.253,-0.047,-0.084,0.011,-0.013,0.999,0.000,0.000,0.000
13,-0.0075,0.1308,0.0092,-0.0028,0.0189,-0.0077,-0.46,0.62,-0.03,0,0.012,0.083,-0.175,-0.095,0.012,-0.013,1.002,0.000,0.000,0.000
13,-0.0075,0.1295,0.0092,-0.0026,0.0108,-0.0075,-0.49,0.60,-0.03,0,0.012,-0.112,-0.141,-0.081,0.010,-0.012,1.000,0.000,0.000,0.000
13,-0.0068,0.1271,0.0091,0.0009,-0.0028,-0.0074,-0.47,0.60,-0.03,0,0.012,-0.336,-0.263,-0.161,0.014,-0.010,1.002,0.000,0.000,0.000
14,-0.0070,0.1271,0.0102,-0.0001,-0.0029,-0.0013,-0.47,0.62,-0.03,0,0.008,0.020,0.165,-0.134,0.015,-0.012,1.003,0.000,0.000,0.000
14,-0.0066,0.1278,0.0102,0.0023,0.0003,-0.0011,-0.43,0.62,-0.03,0,0.008,0.206,-0.060,-0.179,0.013,-0.013,1.001,0.000,0.000,0.000
14,-0.0066,0.1273,0.0102,0.0023,-0.0024,-0.0012,-0.42,0.62,-0.03,0,0.008,-0.275,-0.121,0.174,0.013,-0.011,0.997,0.000,0.000,0.000
14,-0.0068,0.1273,0.0102,0.0012,-0.0026,-0.0010,-0.20,0.61,-0.03,0,0.008,-0.053,-0.087,0.008,0.012,-0.011,0.999,0.000,0.000,0.000
14,-0.0070,0.1262,0.0101,0.0000,-0.0086,-0.0011,-0.39,0.59,-0.03,0,0.008,-0.004,-0.186,-0.251,0.015,-0.011,1.001,0.000,0.000,0.000
14,-0.0068,0.1260,0.0092,0.0015,-0.0097,-0.0057,-0.40,0.57,-0.03,0,0.011,0.006,-0.137,-0.171,0.015,-0.011,0.999,0.000,0.000,0.000
14,-0.0066,0.1206,0.0090,0.0030,-0.0379,-0.0059,-0.44,0.58,-0.03,0,0.011,0.047,-0.074,-0.317,0.013,-0.011,1.001,0.000,0.000,0.000
14,-0.0062,0.1247,0.0093,0.0053,-0.0152,-0.0043,-0.37,0.58,-0.03,0,0.011,-0.091,-0.141,-0.044,0.010,-0.011,0.999,0.000,0.000,0.000
14,-0.0057,0.1247,0.0093,0.0076,-0.0147,-0.0045,-0.51,0.61,-0.03,0,0.011,-0.142,-0.184,0.017,0.011,-0.014,1.001,0.000,0.000,0.000
14,-0.0057,0.1256,0.0092,0.0074,-0.0097,-0.0044,-0.43,0.59,-0.03,0,0.011,0.113,0.251,0.020,0.013,-0.011,1.002,0.000,0.000,0.000
14,-0.0057,0.1239,0.0099,0.0074,-0.0186,-0.0008,-0.45,0.60,-0.04,0,0.013,-0.054,0.140,-0.120,0.012,-0.011,0.999,0.000,0.000,0.000
14,-0.0064,0.1269,0.0100,0.0040,-0.0020,-0.0004,-0.45,0.60,-0.04,0,0.013,-0.269,0.189,0.158,0.011,-0.012,0.998,0.000,0.000,0.000
14,-0.0057,0.1252,0.0100,0.0074,-0.0112,-0.0004,-0.38,0.62,-0.03,0,0.013,0.129,-0.005,-0.143,0.012,-0.013,1.000,0.000,0.000,0.000
14,-0.0060,0.1254,0.0100,0.0058,-0.0098,-0.0004,-0.39,0.59,-0.04,0,0.013,0.065,-0.070,-0.086,0.010,-0.011,1.001,0.000,0.000,0.000
14,-0.0059,0.1253,0.0100,0.0059,-0.0103,-0.0002,-0.44,0.60,-0.04,0,0.013,0.107,0.078,-0.047,0.010,-0.013,1.000,0.000,0.000,0.000
14,-0.0064,0.1235,0.0113,0.0033,-0.0197,0.0068,-0.41,0.60,-0.04,0,0.011,0.098,-0.020,-0.115,0.011,-0.011,1.003,0.000,0.000,0.000
14,-0.0057,0.1237,0.0114,0.0068,-0.0178,0.0068,-0.45,0.61,-0.04,0,0.011,-0.216,-0.116,-0.000,0.011,-0.010,1.003,0.000,0.000,0.000
14,-0.0057,0.1246,0.0114,0.0065,-0.0124,0.0067,-0.42,0.60,-0.04,0,0.011,-0.114,-0.119,-0.099,0.012,-0.010,1.001,0.000,0.000,0.000
14,-0.0057,0.1237,0.0115,0.0063,-0.0170,0.0067,-0.50,0.62,-0.04,0,0.011,-0.087,0.106,0.150,0.011,-0.010,1.001,0.000,0.000,0.000
14,-0.0059,0.1246,0.0116,0.0047,-0.0116,0.0069,-0.50,0.63,-0.04,0,0.011,0.426,-0.061,-0.044,0.010,-0.014,1.000,0.000,0.000,0.000
15,-0.0055,0.1238,0.0114,0.0067,-0.0162,0.0055,-0.48,0.63,-0.03,0,0.010,-0.049,-0.282,0.167,0.009,-0.013,1.001,0.000,0.000,0.000
15,-0.0060,0.1255,0.0115,0.0040,-0.0062,0.0060,-0.43,0.62,-0.03,0,0.010,-0.043,-0.143,0.233,0.010,-0.012,1.003,0.000,0.000,0.000
15,-0.0062,0.1255,0.0116,0.0026,-0.0060,0.0063,-0.50,0.61,-0.04,0,0.010,-0.037,0.003,0.005,0.010,-0.011,1.001,0.000,0.000,0.000
15,-0.0062,0.1249,0.0116,0.0025,-0.0092,0.0064,-0.49,0.62,-0.04,0,0.010,0.014,-0.109,0.101,0.010,-0.012,1.002,0.000,0.000,0.000
15,-0.0058,0.1252,0.0117,0.0044,-0.0071,0.0066,-0.47,0.64,-0.03,0,0.010,-0.139,-0.277,-0.180,0.011,-0.014,0.999,0.000,0.000,0.000
15,-0.0057,0.1251,0.0110,0.0041,-0.0083,0.0024,-0.51,0.64,-0.04,0,0.011,-0.261,-0.048,0.211,0.011,-0.010,1.001,0.000,0.000,0.000
15,-0.0057,0.1249,0.0110,0.0040,-0.0088,0.0026,-0.52,0.62,-0.04,0,0.011,0.121,-0.152,0.061,0.013,-0.010,0.999,0.000,0.000,0.000
15,-0.0062,0.1245,0.0111,0.0014,-0.0110,0.0028,-0.52,0.62,-0.04,0,0.011,-0.031,-0.094,-0.150,0.013,-0.011,0.999,0.000,0.000,0.000
15,-0.0062,0.1253,0.0111,0.0012,-0.0060,0.0031,-0.51,0.62,-0.04,0,0.011,0.028,-0.254,-0.024,0.012,-0.011,0.999,0.000,0.000,0.000
15,-0.0058,0.1253,0.0111,0.0033,-0.0060,0.0032,-0.51,0.62,-0.04,0,0.011,0.073,0.263,-0.338,0.011,-0.012,0.999,0.000,0.000,0.000
15,-0.0057,0.1253,0.0111,0.0033,-0.0064,0.0029,-0.52,0.62,-0.04,0,0.010,0.310,-0.016,-0.255,0.013,-0.012,0.999,0.000,0.000,0.000
15,-0.0057,0.1250,0.0111,0.0031,-0.0073,0.0029,-0.50,0.65,-0.04,0,0.010,-0.118,-0.074,0.097,0.013,-0.010,1.001,0.000,0.000,0.000
15,-0.0057,0.1250,0.0112,0.0033,-0.0074,0.0029,-0.29,0.60,-0.04,0,0.010,-0.259,0.023,-0.136,0.013,-0.010,1.001,0.000,0.000,0.000
15,-0.0057,0.1252,0.0112,0.0033,-0.0059,0.0028,-0.26,0.64,-0.04,0,0.010,-0.069,0.073,-0.022,0.012,-0.013,1.000,0.000,0.000,0.000
15,-0.0062,0.1247,0.0112,0.0007,-0.0082,0.0028,-0.53,0.64,-0.04,0,0.010,-0.033,-0.025,-0.191,0.012,-0.013,1.000,0.000,0.000,0.000
15,-0.0050,0.1197,0.0107,0.0067,-0.0348,-0.0004,-0.50,0.64,-0.04,0,0.017,-0.134,-0.024,-0.332,0.012,-0.011,1.000,0.000,0.000,0.000
15,-0.0060,0.1186,0.0106,0.0016,-0.0395,-0.0006,-0.54,0.66,-0.04,0,0.017,0.047,-0.221,-0.223,0.014,-0.012,0.999,0.000,0.000,0.000
15,-0.0060,0.1246,0.0110,0.0018,-0.0061,0.0014,-0.54,0.66,-0.04,0,0.017,-0.119,-0.076,-0.198,0.013,-0.011,0.998,0.000,0.000,0.000
15,-0.0060,0.1237,0.0110,0.0018,-0.0107,0.0014,-0.57,0.64,-0.04,0,0.017,-0.052,0.185,-0.206,0.014,-0.012,0.999,0.000,0.000,0.000
15,-0.0065,0.1246,0.0110,-0.0006,-0.0058,0.0015,-0.57,0.66,-0.04,0,0.017,-0.062,0.114,-0.173,0.014,-0.012,1.001,0.000,0.000,0.000
15,-0.0065,0.1245,0.0136,-0.0007,-0.0061,0.0141,-0.59,0.65,-0.05,0,0.011,-0.155,-0.089,-0.033,0.012,-0.010,1.000,0.000,0.000,0.000
16,-0.0060,0.1253,0.0137,0.0019,-0.0022,0.0141,-0.55,0.66,-0.05,0,0.011,-0.328,0.217,0.045,0.012,-0.012,1.000,0.000,0.000,0.000
16,-0.0065,0.1250,0.0138,-0.0005,-0.0034,0.0141,-0.51,0.63,-0.05,0,0.011,0.051,-0.082,-0.279,0.011,-0.011,1.002,0.000,0.000,0.000
16,-0.0062,0.1255,0.0140,0.0009,-0.0009,0.0139,-0.70,0.68,-0.05,0,0.011,-0.063,0.033,-0.092,0.011,-0.013,1.003,0.000,0.000,0.000
16,-0.0065,0.1246,0.0141,-0.0001,-0.0060,0.0139,-0.89,0.68,-0.05,0,0.011,-0.034,0.041,-0.217,0.010,-0.012,1.001,0.000,0.000,0.000
16,-0.0058,0.1237,0.0129,0.0038,-0.0108,0.0066,-0.92,0.68,-0.05,0,0.009,0.006,0.076,-0.151,0.010,-0.011,1.001,0.000,0.000,0.000
16,-0.0069,0.1281,0.0130,-0.0023,0.0126,0.0068,-0.84,0.69,-0.05,0,0.009,-0.473,-0.067,-0.005,0.012,-0.010,1.000,0.000,0.000,0.000
16,-0.0069,0.1329,0.0129,-0.0020,0.0370,0.0061,-0.89,0.66,-0.05,0,0.009,-0.009,-0.170,0.039,0.012,-0.012,1.000,0.000,0.000,0.000
16,-0.0071,0.1341,0.0129,-0.0032,0.0412,0.0059,-0.82,0.67,-0.05,0,0.009,-0.083,-0.214,0.018,0.013,-0.011,0.999,0.000,0.000,0.000
16,-0.0074,0.1324,0.0131,-0.0043,0.0310,0.0071,-0.79,0.66,-0.05,0,0.009,-0.143,-0.052,-0.317,0.013,-0.011,1.000,0.000,0.000,0.000
16,-0.0067,0.1340,0.0114,-0.0006,0.0376,-0.0018,-0.77,0.66,-0.05,0,0.011,-0.083,-0.132,-0.117,0.014,-0.011,0.999,0.000,0.000,0.000
16,-0.0069,0.1326,0.0115,-0.0019,0.0290,-0.0011,-0.83,0.67,-0.05,0,0.011,0.024,-0.099,-0.206,0.013,-0.012,1.000,0.000,0.000,0.000
16,-0.0067,0.1324,0.0115,-0.0006,0.0265,-0.0010,-1.02,0.59,-0.06,0,0.011,0.029,0.061,0.129,0.013,-0.012,1.001,0.000,0.000,0.000
16,-0.0067,0.1321,0.0115,-0.0005,0.0240,-0.0009,-0.89,0.56,-0.06,0,0.011,0.016,0.136,-0.122,0.010,-0.010,1.000,0.000,0.000,0.000
16,-0.0069,0.1337,0.0115,-0.0016,0.0311,-0.0013,-1.04,0.63,-0.06,0,0.011,0.085,0.056,0.051,0.011,-0.010,0.999,0.000,0.000,0.000
16,-0.0051,0.1386,0.0111,0.0080,0.0552,-0.0033,-1.14,0.64,-0.06,0,0.010,-0.049,-0.057,0.301,0.011,-0.013,1.000,0.000,0.000,0.000
16,-0.0042,0.1361,0.0113,0.0125,0.0399,-0.0021,-1.10,0.61,-0.06,0,0.010,-0.196,-0.017,0.068,0.011,-0.013,1.000,0.000,0.000,0.000
16,-0.0058,0.1401,0.0111,0.0040,0.0591,-0.0031,-1.05,0.65,-0.05,0,0.010,-0.164,0.174,0.094,0.010,-0.012,0.998,0.000,0.000,0.000
16,-0.0060,0.1432,0.0109,0.0027,0.0728,-0.0044,0.00,0.00,0.00,0,0.010,-0.104,-0.240,0.110,0.012,-0.012,1.000,0.000,0.000,0.000
16,-0.0053,0.1431,0.0109,0.0060,0.0696,-0.0038,0.01,-0.00,-0.00,0,0.010,-0.139,-0.053,0.285,0.014,-0.014,1.000,0.000,0.000,0.000
16,0.0000,0.0000,0.0000,0.0000,0.0000,0.0000,0.01,-0.01,-0.00,0,0.011,0.034,0.243,0.046,0.014,-0.012,1.001,0.000,0.000,0.000
17,0.0000,0.0001,1.1845,0.0043,0.0074,-0.0000,0.01,-0.01,0.00,0,0.011,-0.075,-0.137,0.192,0.013,-0.012,1.001,0.000,0.000,0.000
17,0.0001,0.0001,1.1845,0.0054,0.0061,-0.0000,-0.03,0.00,0.00,0,0.011,0.157,-0.229,-0.255,0.014,-0.013,1.000,0.000,0.000,0.000
17,0.0001,0.0002,1.1844,0.0064,0.0054,-0.0002,-0.47,0.12,0.00,0,0.011,0.150,-0.091,-0.312,0.012,-0.011,1.001,0.000,0.000,0.000
17,0.0002,0.0003,1.1844,0.0076,0.0041,-0.0002,-0.61,0.16,0.00,0,0.011,-0.069,0.065,0.149,0.012,-0.011,1.000,0.000,0.000,0.000
17,0.0002,0.0001,0.0110,0.0062,-0.0013,-0.0002,-0.56,0.32,0.00,0,0.012,0.074,-0.033,-0.119,0.013,-0.013,0.998,0.000,0.000,0.000
17,-0.0000,0.0012,0.0111,0.0027,0.0196,-0.0003,-0.51,0.19,-0.00,0,0.012,0.108,0.063,-0.098,0.011,-0.011,0.998,0.000,0.000,0.000
17,-0.0001,0.0017,0.0110,0.0020,0.0253,-0.0004,-0.24,0.33,-0.00,0,0.012,0.050,0.064,0.157,0.015,-0.011,1.000,0.000,0.000,0.000
17,-0.0004,0.0019,0.0110,-0.0035,0.0232,-0.0003,-0.50,0.09,-0.00,0,0.012,-0.164,-0.341,0.209,0.014,-0.011,0.998,0.000,0.000,0.000
17,-0.0001,0.0020,0.0111,0.0023,0.0214,-0.0003,-0.45,0.15,0.00,0,0.012,-0.148,0.292,0.273,0.013,-0.014,0.999,0.000,0.000,0.000
17,-0.0005,0.0015,0.0116,-0.0019,0.0110,0.0004,-0.66,0.32,0.00,0,0.014,0.270,-0.029,0.241,0.014,-0.013,1.001,0.000,0.000,0.000
17,0.0002,0.0023,0.0116,0.0075,0.0197,0.0000,-0.85,0.37,0.01,0,0.014,-0.077,-0.071,-0.075,0.013,-0.012,1.000,0.000,0.000,0.000
17,0.0001,0.0023,0.0116,0.0062,0.0178,-0.0000,-1.18,0.22,0.01,0,0.014,-0.214,-0.021,0.123,0.013,-0.012,1.001,0.000,0.000,0.000
17,-0.0004,0.0031,0.0116,0.0012,0.0250,-0.0002,-0.15,0.28,0.00,0,0.014,-0.081,-0.240,-0.190,0.011,-0.013,1.001,0.000,0.000,0.000
17,-0.0005,0.0040,0.0115,0.0000,0.0321,-0.0007,-0.39,0.30,0.00,0,0.014,-0.079,-0.186,-0.066,0.012,-0.013,0.999,0.000,0.000,0.000
17,-0.0000,0.0054,0.0125,0.0064,0.0447,0.0026,-0.39,0.30,0.00,0,0.011,-0.170,-0.125,0.189,0.012,-0.013,0.999,0.000,0.000,0.000
17,-0.0002,0.0023,0.0128,0.0048,0.0063,0.0042,-0.84,0.37,0.01,0,0.011,-0.000,-0.155,0.064,0.008,-0.012,0.999,0.000,0.000,0.000
17,-0.0002,0.0032,0.0128,0.0051,0.0146,0.0042,-0.76,0.32,0.01,0,0.011,0.183,0.334,-0.185,0.010,-0.012,1.001,0.000,0.000,0.000
17,-0.0001,0.0034,0.0128,0.0058,0.0140,0.0043,-3.04,0.49,0.02,0,0.011,-0.353,-0.140,-0.169,0.013,-0.011,1.001,0.000,0.000,0.000
17,-0.0003,0.0053,0.0129,0.0036,0.0316,0.0039,-2.59,0.49,0.02,0,0.011,0.168,0.186,0.015,0.011,-0.013,1.002,0.000,0.000,0.000
17,-0.0001,0.0053,0.0122,0.0059,0.0285,0.0003,-2.67,0.48,0.02,0,0.010,0.128,0.027,0.024,0.014,-0.011,1.001,0.000,0.000,0.000
17,-0.0008,0.0153,0.0119,-0.0006,0.1243,-0.0067,-2.27,0.48,0.01,0,0.010,0.144,0.120,-0.136,0.013,-0.011,1.001,0.000,0.000,0.000
18,-0.0008,0.0146,0.0122,-0.0005,0.1093,-0.0032,-1.82,0.30,0.01,0,0.010,-0.061,-0.066,0.036,0.013,-0.013,1.001,0.000,0.000,0.000
18,-0.0008,0.0161,0.0121,-0.0002,0.1162,-0.0038,-2.16,0.45,0.01,0,0.010,-0.120,0.189,0.100,0.013,-0.009,0.998,0.000,0.000,0.000
18,-0.0007,0.0153,0.0124,0.0003,0.1018,-0.0005,-1.53,0.45,0.01,0,0.010,-0.244,-0.122,0.206,0.010,-0.011,0.997,0.000,0.000,0.000
18,0.0002,0.0140,0.0116,0.0089,0.0834,-0.0043,-1.43,0.58,0.00,0,0.012,-0.176,0.234,0.140,0.011,-0.012,0.997,0.000,0.000,0.000
18,-0.0005,0.0167,0.0114,0.0027,0.1018,-0.0057,-1.22,0.46,0.00,0,0.012,-0.018,-0.378,0.086,0.011,-0.012,0.997,0.000,0.000,0.000
18,-0.0005,0.0142,0.0118,0.0030,0.0743,-0.0024,-1.26,0.46,0.00,0,0.012,0.363,0.065,-0.151,0.011,-0.011,0.999,0.000,0.000,0.000
18,-0.0013,0.0144,0.0118,-0.0029,0.0706,-0.0020,-1.21,0.47,0.00,0,0.012,-0.212,-0.145,0.043,0.013,-0.013,1.000,0.000,0.000,0.000
18,-0.0005,0.0138,0.0118,0.0035,0.0615,-0.0015,-1.07,0.47,0.00,0,0.012,-0.177,0.109,0.153,0.010,-0.011,1.000,0.000,0.000,0.000
18,-0.0005,0.0147,0.0119,0.0034,0.0645,-0.0015,-1.07,0.47,0.00,0,0.012,-0.255,0.011,-0.076,0.010,-0.010,1.001,0.000,0.000,0.000
18,-0.0005,0.0150,0.0119,0.0034,0.0633,-0.0016,-0.90,0.51,-0.00,0,0.012,0.014,-0.026,0.174,0.012,-0.010,0.998,0.000,0.000,0.000
18,-0.0005,0.0147,0.0119,0.0033,0.0565,-0.0015,-0.29,0.34,-0.00,0,0.012,0.041,0.047,-0.214,0.012,-0.013,0.997,0.000,0.000,0.000
18,-0.0005,0.0152,0.0119,0.0035,0.0571,-0.0015,-0.27,0.46,-0.01,0,0.012,0.055,-0.013,0.054,0.014,-0.013,1.000,0.000,0.000,0.000
18,-0.0008,0.0145,0.0119,0.0015,0.0481,-0.0011,-0.06,0.40,-0.01,0,0.012,-0.214,-0.212,0.179,0.012,-0.010,0.999,0.000,0.000,0.000
18,0.0006,0.0104,0.0120,0.0114,0.0141,-0.0006,0.71,0.42,-0.01,0,0.010,0.018,0.091,0.132,0.014,-0.010,0.997,0.000,0.000,0.000
18,-0.0003,0.0104,0.0120,0.0049,0.0123,-0.0005,0.67,0.45,-0.01,0,0.010,0.119,0.289,-0.234,0.011,-0.012,0.999,0.000,0.000,0.000
18,0.0002,0.0087,0.0120,0.0086,-0.0009,-0.0011,0.49,0.52,-0.01,0,0.010,0.146,-0.006,-0.060,0.012,-0.012,1.000,0.000,0.000,0.000
18,0.0002,0.0021,0.0116,0.0084,-0.0492,-0.0042,0.41,0.38,-0.01,0,0.010,-0.168,0.033,0.311,0.011,-0.009,1.001,0.000,0.000,0.000
18,-0.0000,0.0020,0.0116,0.0064,-0.0491,-0.0038,0.57,0.45,-0.01,0,0.010,0.096,0.176,0.126,0.012,-0.012,0.999,0.000,0.000,0.000
18,-0.0006,0.0031,0.0110,0.0027,-0.0396,-0.0066,0.35,0.49,-0.01,0,0.014,-0.180,0.129,-0.174,0.013,-0.011,1.000,0.000,0.000,0.000
18,0.0007,0.0035,0.0110,0.0119,-0.0362,-0.0065,0.41,0.47,-0.01,0,0.014,0.052,-0.007,-0.237,0.012,-0.010,1.001,0.000,0.000,0.000
18,0.0002,0.0014,0.0108,0.0079,-0.0494,-0.0073,0.58,0.38,-0.01,0,0.014,-0.187,0.178,0.178,0.011,-0.012,1.000,0.000,0.000,0.000
19,-0.0001,0.0031,0.0110,0.0058,-0.0368,-0.0059,0.16,0.53,-0.01,0,0.014,0.022,-0.178,-0.266,0.011,-0.012,1.001,0.000,0.000,0.000
19,0.0001,0.0021,0.0109,0.0074,-0.0422,-0.0061,0.26,0.54,-0.01,0,0.014,0.346,0.098,-0.092,0.014,-0.012,1.000,0.000,0.000,0.000
19,0.0012,-0.0001,0.0121,0.0141,-0.0561,0.0008,0.26,0.54,-0.01,0,0.014,-0.238,0.035,0.202,0.014,-0.012,1.000,0.000,0.000,0.000
19,-0.0004,0.0039,0.0125,0.0034,-0.0282,0.0030,0.22,0.52,-0.01,0,0.014,0.109,0.027,-0.145,0.013,-0.012,1.001,0.000,0.000,0.000
19,-0.0004,0.0024,0.0125,0.0034,-0.0373,0.0028,0.09,0.52,-0.01,0,0.014,0.058,-0.427,-0.073,0.012,-0.011,1.000,0.000,0.000,0.000
21,-0.0004,0.0021,0.0125,0.0035,-0.0389,0.0028,0.09,0.52,-0.01,0,0.014,-0.059,0.110,0.135,0.012,-0.011,0.998,0.000,0.000,0.000
31,-0.0001,0.0022,0.0126,0.0051,-0.0373,0.0031,0.08,0.53,-0.01,0,0.014,0.016,-0.174,-0.007,0.012,-0.012,0.999,0.000,0.000,0.000
42,-0.0001,0.0034,0.0133,0.0051,-0.0291,0.0066,0.09,0.56,-0.01,0,0.012,0.239,-0.071,-0.162,0.013,-0.014,1.001,0.000,0.000,0.000
52,-0.0001,0.0031,0.0133,0.0056,-0.0304,0.0067,0.09,0.56,-0.01,0,0.012,0.125,-0.199,-0.244,0.014,-0.013,1.001,0.000,0.000,0.000
61,-0.0001,0.0029,0.0134,0.0054,-0.0309,0.0067,0.27,0.54,-0.01,0,0.012,-0.088,-0.103,-0.336,0.010,-0.015,0.999,0.000,0.000,0.000
71,-0.0004,0.0024,0.0135,0.0035,-0.0330,0.0066,0.14,0.51,-0.01,0,0.012,-0.086,0.135,0.003,0.011,-0.012,1.001,0.000,0.000,0.000
82,-0.0004,0.0021,0.0135,0.0038,-0.0342,0.0065,-0.01,0.57,-0.01,0,0.012,0.017,-0.010,-0.182,0.012,-0.010,1.000,0.000,0.000,0.000
91,-0.0001,-0.0007,0.0128,0.0055,-0.0503,0.0023,0.00,0.58,-0.01,0,0.013,-0.068,-0.083,0.081,0.011,-0.011,0.999,0.000,0.000,0.000
102,0.0005,0.0007,0.0129,0.0089,-0.0409,0.0030,-0.16,0.58,-0.01,0,0.013,0.200,0.069,-0.283,0.013,-0.010,0.999,0.000,0.000,0.000
111,-0.0004,0.0023,0.0130,0.0035,-0.0306,0.0035,-0.18,0.54,-0.01,0,0.013,-0.013,-0.155,0.070,0.013,-0.012,1.001,0.000,0.000,0.000
122,-0.0005,0.0018,0.0131,0.0032,-0.0328,0.0035,-0.12,0.57,-0.01,0,0.013,0.202,-0.071,-0.161,0.012,-0.012,0.999,0.000,0.000,0.000
131,-0.0005,0.0040,0.0132,0.0031,-0.0201,0.0040,-0.12,0.57,-0.01,0,0.013,-0.211,-0.025,0.028,0.013,-0.011,0.999,0.000,0.000,0.000
141,0.0001,0.0040,0.0131,0.0062,-0.0193,0.0036,-0.12,0.57,-0.01,0,0.012,0.143,-0.061,-0.203,0.012,-0.011,0.999,0.000,0.000,0.000
151,-0.0002,0.0030,0.0132,0.0043,-0.0248,0.0035,-0.22,0.57,-0.01,0,0.012,0.060,0.116,0.017,0.012,-0.011,1.000,0.000,0.000,0.000
161,-0.0002,0.0028,0.0132,0.0043,-0.0254,0.0035,-0.41,0.56,-0.00,0,0.012,-0.072,-0.142,0.198,0.011,-0.010,1.001,0.000,0.000,0.000
172,-0.0002,0.0025,0.0133,0.0045,-0.0264,0.0036,-0.27,0.46,-0.01,0,0.012,0.028,0.270,0.120,0.009,-0.014,1.001,0.000,0.000,0.000
181,-0.0002,0.0038,0.0133,0.0044,-0.0188,0.0037,-0.53,0.80,0.01,0,0.012,0.115,-0.025,-0.585,0.012,-0.014,1.001,0.000,0.000,0.000
191,0.0001,0.0068,0.0128,0.0059,-0.0024,0.0007,-0.52,0.75,0.00,0,0.014,-0.139,-0.156,-0.015,0.013,-0.014,1.000,0.000,0.000,0.000
200,0.0018,0.0045,0.0128,0.0149,-0.0149,0.0007,-0.52,0.76,0.00,0,0.014,-0.001,-0.025,0.023,0.011,-0.014,0.999,0.000,0.000,0.000
211,-0.0040,0.0088,0.0129,-0.0161,0.0083,0.0013,-0.57,0.76,0.00,0,0.014,0.092,-0.124,0.191,0.012,-0.012,1.000,0.000,0.000,0.000
221,-0.0033,0.0088,0.0130,-0.0122,0.0076,0.0015,-0.98,0.80,0.01,0,0.014,0.003,0.196,-0.015,0.010,-0.013,0.998,0.000,0.000,0.000
231,-0.0036,0.0087,0.0130,-0.0131,0.0066,0.0016,-1.17,0.73,0.01,0,0.014,0.033,-0.113,0.058,0.013,-0.011,0.997,0.000,0.000,0.000
240,-0.0038,0.0098,0.0134,-0.0138,0.0114,0.0037,-1.08,0.71,0.01,0,0.010,-0.525,-0.049,-0.112,0.012,-0.014,0.998,0.000,0.000,0.000
251,-0.0046,0.0174,0.0133,-0.0173,0.0501,0.0023,-1.04,0.69,0.01,0,0.010,0.146,-0.127,0.175,0.011,-0.013,0.997,0.000,0.000,0.000
261,-0.0034,0.0213,0.0130,-0.0106,0.0683,0.0008,-1.11,0.70,0.01,0,0.010,0.206,0.073,0.193,0.010,-0.011,0.999,0.000,0.000,0.000
270,-0.0032,0.0203,0.0132,-0.0087,0.0603,0.0019,-1.29,0.63,0.02,0,0.010,-0.019,0.059,-0.288,0.013,-0.013,1.001,0.000,0.000,0.000
280,-0.0029,0.0201,0.0133,-0.0069,0.0569,0.0022,-1.23,0.63,0.01,0,0.010,0.406,0.065,0.151,0.012,-0.012,1.001,0.000,0.000,0.000
292,-0.0031,0.0221,0.0118,-0.0076,0.0645,-0.0061,-1.57,0.75,0.02,0,0.014,-0.139,-0.159,0.247,0.011,-0.013,1.001,0.000,0.000,0.000
301,-0.0020,0.0263,0.0115,-0.0017,0.0838,-0.0080,-1.46,0.74,0.02,0,0.014,-0.060,0.233,-0.030,0.012,-0.011,1.000,0.000,0.000,0.000
311,-0.0020,0.0259,0.0116,-0.0016,0.0780,-0.0073,-1.38,0.72,0.02,0,0.014,-0.230,0.149,-0.008,0.013,-0.010,0.999,0.000,0.000,0.000
321,-0.0043,0.0334,0.0108,-0.0134,0.1138,-0.0117,-1.07,0.67,0.01,0,0.014,-0.365,-0.441,-0.079,0.011,-0.013,0.999,0.000,0.000,0.000
331,-0.0043,0.0324,0.0111,-0.0126,0.1041,-0.0094,-1.23,0.70,0.01,0,0.014,-0.105,0.024,0.204,0.013,-0.011,1.000,0.000,0.000,0.000
340,-0.0040,0.0320,0.0124,-0.0107,0.0979,-0.0022,-1.23,0.67,0.02,0,0.011,-0.129,0.010,-0.042,0.011,-0.012,0.998,0.000,0.000,0.000
351,-0.0032,0.0267,0.0130,-0.0062,0.0669,0.0018,-1.18,0.69,0.02,0,0.011,0.106,-0.014,0.085,0.008,-0.011,0.999,0.000,0.000,0.000
361,-0.0040,0.0306,0.0128,-0.0096,0.0843,0.0004,-1.12,0.69,0.02,0,0.011,-0.092,-0.021,-0.156,0.011,-0.012,1.003,0.000,0.000,0.000
371,-0.0035,0.0314,0.0128,-0.0064,0.0852,0.0004,-1.16,0.61,0.02,0,0.011,-0.207,-0.019,0.134,0.012,-0.012,0.999,0.000,0.000,0.000
381,-0.0039,0.0313,0.0129,-0.0086,0.0808,0.0009,-1.09,0.67,0.01,0,0.011,0.143,0.176,0.051,0.011,-0.010,0.998,0.000,0.000,0.000
391,-0.0039,0.0308,0.0122,-0.0079,0.0752,-0.0030,-1.01,0.66,0.01,0,0.015,-0.064,0.039,-0.063,0.013,-0.010,1.000,0.000,0.000,0.000
401,-0.0024,0.0325,0.0121,0.0001,0.0803,-0.0034,-0.93,0.65,0.01,0,0.015,-0.063,0.037,0.054,0.012,-0.009,0.999,0.000,0.000,0.000
411,-0.0037,0.0318,0.0122,-0.0066,0.0737,-0.0027,-0.98,0.66,0.01,0,0.015,0.143,-0.005,-0.136,0.011,-0.009,1.002,0.000,0.000,0.000
421,-0.0036,0.0310,0.0123,-0.0062,0.0659,-0.0017,-0.86,0.65,0.01,0,0.015,0.098,-0.084,-0.378,0.012,-0.011,1.002,0.000,0.000,0.000
432,-0.0034,0.0299,0.0124,-0.0045,0.0574,-0.0009,-0.85,0.65,0.01,0,0.015,-0.084,-0.100,0.078,0.013,-0.011,1.000,0.000,0.000,0.000
441,-0.0037,0.0318,0.0134,-0.0056,0.0650,0.0043,-0.87,0.65,0.01,0,0.012,-0.116,0.170,0.056,0.011,-0.012,0.999,0.000,0.000,0.000
451,-0.0036,0.0298,0.0136,-0.0051,0.0518,0.0053,-0.79,0.66,0.00,0,0.012,-0.175,-0.164,0.286,0.010,-0.011,1.000,0.000,0.000,0.000
461,-0.0037,0.0303,0.0136,-0.0051,0.0524,0.0053,-0.93,0.61,0.01,0,0.012,-0.142,0.049,0.006,0.010,-0.011,1.001,0.000,0.000,0.000
470,-0.0037,0.0312,0.0137,-0.0048,0.0548,0.0053,-0.91,0.64,0.01,0,0.012,-0.387,-0.199,0.132,0.011,-0.010,1.002,0.000,0.000,0.000
481,-0.0039,0.0301,0.0138,-0.0057,0.0466,0.0060,-0.95,0.66,0.01,0,0.012,-0.121,0.196,0.012,0.014,-0.011,1.002,0.000,0.000,0.000
491,-0.0029,0.0334,0.0130,-0.0001,0.0617,0.0009,-0.95,0.66,0.01,0,0.013,-0.155,0.323,0.253,0.014,-0.011,1.003,0.000,0.000,0.000
501,-0.0036,0.0336,0.0130,-0.0039,0.0598,0.0011,-0.95,0.66,0.01,0,0.013,0.185,0.214,-0.105,0.011,-0.012,1.000,0.000,0.000,0.000
510,-0.0041,0.0352,0.0130,-0.0063,0.0654,0.0007,-0.74,0.64,0.01,0,0.013,0.030,0.200,0.022,0.011,-0.013,0.998,0.000,0.000,0.000
520,-0.0042,0.0359,0.0130,-0.0064,0.0661,0.0009,-0.75,0.62,0.01,0,0.013,0.069,-0.080,0.168,0.011,-0.013,1.001,0.000,0.000,0.000
531,-0.0043,0.0365,0.0130,-0.0063,0.0667,0.0011,-0.73,0.65,0.01,0,0.013,0.069,0.255,0.024,0.012,-0.011,0.999,0.000,0.000,0.000
541,-0.0040,0.0325,0.0132,-0.0042,0.0433,0.0031,-0.80,0.62,0.01,0,0.011,-0.056,-0.057,0.142,0.013,-0.011,0.998,0.000,0.000,0.000
550,-0.0037,0.0331,0.0133,-0.0025,0.0448,0.0032,-0.80,0.64,0.01,0,0.011,0.103,0.357,-0.120,0.012,-0.014,0.999,0.000,0.000,0.000
560,-0.0042,0.0330,0.0133,-0.0049,0.0419,0.0033,-0.84,0.63,0.01,0,0.011,-0.251,0.104,0.364,0.014,-0.014,1.000,0.000,0.000,0.000
570,-0.0037,0.0350,0.0133,-0.0019,0.0498,0.0028,-0.65,0.60,0.01,0,0.011,0.189,0.023,-0.070,0.012,-0.012,1.000,0.000,0.000,0.000
581,-0.0042,0.0357,0.0133,-0.0044,0.0508,0.0028,-0.63,0.63,0.01,0,0.011,-0.056,-0.087,-0.112,0.013,-0.011,1.000,0.000,0.000,0.000
591,-0.0041,0.0370,0.0123,-0.0039,0.0554,-0.0030,-0.77,0.63,0.01,0,0.012,-0.335,0.026,0.319,0.010,-0.010,0.998,0.000,0.000,0.000
601,-0.0034,0.0330,0.0125,0.0003,0.0329,-0.0016,-0.60,0.63,0.01,0,0.012,0.231,-0.214,0.070,0.010,-0.011,1.001,0.000,0.000,0.000
611,-0.0041,0.0329,0.0125,-0.0033,0.0306,-0.0016,-0.43,0.63,0.01,0,0.012,-0.248,-0.199,-0.075,0.010,-0.011,0.999,0.000,0.000,0.000
621,-0.0041,0.0366,0.0124,-0.0030,0.0473,-0.0023,-0.33,0.58,0.00,0,0.012,0.283,0.029,-0.133,0.011,-0.014,1.001,0.000,0.000,0.000
631,-0.0041,0.0330,0.0126,-0.0026,0.0271,-0.0008,-0.17,0.59,0.00,0,0.012,0.157,-0.271,0.006,0.013,-0.013,1.002,0.000,0.000,0.000
641,-0.0041,0.0294,0.0124,-0.0024,0.0080,-0.0017,-0.18,0.61,0.00,0,0.012,0.279,0.154,0.063,0.011,-0.012,1.001,0.000,0.000,0.000
650,-0.0031,0.0269,0.0123,0.0026,-0.0051,-0.0018,-0.24,0.60,0.00,0,0.012,0.010,-0.116,0.026,0.013,-0.012,1.001,0.000,0.000,0.000
660,-0.0033,0.0231,0.0122,0.0012,-0.0238,-0.0023,-0.16,0.56,0.00,0,0.012,0.033,-0.211,0.140,0.013,-0.011,1.000,0.000,0.000,0.000
670,-0.0036,0.0232,0.0121,-0.0001,-0.0233,-0.0023,-0.32,0.58,0.00,0,0.012,0.019,0.018,0.304,0.012,-0.012,1.000,0.000,0.000,0.000
681,-0.0036,0.0242,0.0122,0.0001,-0.0181,-0.0017,-0.18,0.59,0.00,0,0.012,-0.009,-0.295,-0.085,0.012,-0.010,1.000,0.000,0.000,0.000
691,-0.0026,0.0223,0.0121,0.0051,-0.0275,-0.0022,-0.27,0.60,0.01,0,0.012,-0.222,0.191,0.224,0.012,-0.013,0.999,0.000,0.000,0.000
700,-0.0031,0.0257,0.0122,0.0025,-0.0101,-0.0014,-0.25,0.60,0.01,0,0.012,-0.014,-0.202,0.095,0.013,-0.015,1.000,0.000,0.000,0.000
710,-0.0033,0.0223,0.0121,0.0016,-0.0267,-0.0016,-0.21,0.61,0.01,0,0.012,0.272,-0.092,-0.335,0.013,-0.013,0.999,0.000,0.000,0.000
720,-0.0033,0.0243,0.0122,0.0018,-0.0165,-0.0011,-0.01,0.56,0.00,0,0.012,-0.088,0.019,0.067,0.012,-0.013,0.999,0.000,0.000,0.000
730,-0.0036,0.0236,0.0122,0.0006,-0.0197,-0.0011,-0.33,0.61,0.01,0,0.012,0.242,0.212,-0.006,0.012,-0.011,0.999,0.000,0.000,0.000
740,-0.0036,0.0224,0.0121,0.0006,-0.0251,-0.0017,-0.35,0.60,0.01,0,0.015,-0.099,0.108,-0.120,0.012,-0.014,0.999,0.000,0.000,0.000
751,-0.0024,0.0173,0.0119,0.0067,-0.0505,-0.0026,-0.38,0.61,0.01,0,0.015,-0.024,-0.027,-0.143,0.010,-0.012,0.998,0.000,0.000,0.000
761,-0.0036,0.0246,0.0125,0.0007,-0.0126,0.0005,-0.39,0.61,0.01,0,0.015,-0.003,-0.061,0.138,0.012,-0.014,0.999,0.000,0.000,0.000
770,-0.0034,0.0248,0.0125,0.0020,-0.0115,0.0004,-0.95,0.61,0.02,0,0.015,0.063,-0.069,0.032,0.012,-0.014,1.000,0.000,0.000,0.000
780,-0.0036,0.0255,0.0125,0.0008,-0.0079,0.0003,-0.92,0.65,0.02,0,0.015,-0.126,-0.204,-0.055,0.012,-0.012,0.999,0.000,0.000,0.000
790,-0.0036,0.0258,0.0136,0.0008,-0.0069,0.0059,-0.91,0.64,0.01,0,0.011,-0.075,0.140,0.144,0.010,-0.013,1.000,0.000,0.000,0.000
801,-0.0036,0.0392,0.0137,0.0008,0.0609,0.0050,-0.85,0.63,0.02,0,0.011,-0.094,-0.124,-0.130,0.013,-0.010,1.000,0.000,0.000,0.000
811,-0.0045,0.0391,0.0138,-0.0039,0.0578,0.0053,-0.85,0.65,0.02,0,0.011,0.146,-0.133,-0.189,0.012,-0.011,1.001,0.000,0.000,0.000
821,-0.0045,0.0393,0.0139,-0.0035,0.0559,0.0056,-0.85,0.61,0.01,0,0.011,-0.246,0.144,-0.088,0.012,-0.012,0.999,0.000,0.000,0.000
830,-0.0043,0.0386,0.0141,-0.0021,0.0496,0.0064,-0.71,0.64,0.01,0,0.011,-0.037,0.165,0.142,0.013,-0.011,1.001,0.000,0.000,0.000
840,-0.0047,0.0390,0.0129,-0.0043,0.0492,-0.0002,-0.84,0.63,0.01,0,0.011,-0.187,0.008,0.155,0.014,-0.009,1.001,0.000,0.000,0.000
852,-0.0038,0.0397,0.0129,0.0006,0.0503,-0.0002,-0.74,0.60,0.01,0,0.011,0.110,0.045,-0.292,0.012,-0.012,1.000,0.000,0.000,0.000
861,-0.0045,0.0366,0.0131,-0.0028,0.0324,0.0014,-0.79,0.58,0.01,0,0.011,-0.054,0.522,0.198,0.011,-0.012,1.001,0.000,0.000,0.000
870,-0.0045,0.0400,0.0130,-0.0026,0.0483,0.0005,-0.70,0.58,0.01,0,0.011,0.101,-0.049,0.048,0.010,-0.014,1.001,0.000,0.000,0.000
880,-0.0038,0.0382,0.0132,0.0012,0.0365,0.0017,-0.76,0.70,0.01,0,0.011,-0.035,-0.037,0.258,0.012,-0.012,1.000,0.000,0.000,0.000
891,-0.0031,0.0397,0.0122,0.0050,0.0428,-0.0034,-0.75,0.62,0.02,0,0.015,-0.078,-0.085,0.207,0.011,-0.012,1.000,0.000,0.000,0.000
901,-0.0031,0.0381,0.0123,0.0050,0.0326,-0.0027,-0.72,0.63,0.02,0,0.015,-0.097,-0.051,0.354,0.011,-0.011,1.000,0.000,0.000,0.000
910,-0.0060,0.0399,0.0122,-0.0102,0.0401,-0.0029,-0.71,0.64,0.02,0,0.015,-0.287,-0.206,-0.099,0.012,-0.013,0.998,0.000,0.000,0.000
920,-0.0042,0.0398,0.0123,-0.0005,0.0378,-0.0024,-0.69,0.60,0.02,0,0.015,0.150,0.301,0.029,0.013,-0.010,1.001,0.000,0.000,0.000
930,-0.0045,0.0396,0.0123,-0.0015,0.0346,-0.0021,-0.69,0.64,0.02,0,0.015,-0.026,-0.052,-0.023,0.012,-0.011,1.001,0.000,0.000,0.000
940,-0.0049,0.0398,0.0135,-0.0037,0.0341,0.0040,-0.44,0.59,0.01,0,0.012,0.023,-0.137,-0.063,0.012,-0.013,1.001,0.000,0.000,0.000
950,-0.0049,0.0395,0.0135,-0.0034,0.0306,0.0044,-0.44,0.60,0.01,0,0.012,-0.139,0.026,-0.153,0.013,-0.013,1.002,0.000,0.000,0.000
960,-0.0049,0.0398,0.0136,-0.0034,0.0306,0.0042,-0.30,0.60,0.01,0,0.012,-0.231,-0.012,0.237,0.010,-0.011,1.001,0.000,0.000,0.000
970,-0.0038,0.0342,0.0138,0.0028,0.0004,0.0056,-0.35,0.60,0.01,0,0.012,0.136,0.073,-0.209,0.010,-0.011,1.001,0.000,0.000,0.000
980,-0.0040,0.0342,0.0139,0.0016,0.0001,0.0057,-0.40,0.63,0.01,0,0.012,-0.179,-0.103,0.065,0.013,-0.010,1.002,0.000,0.000,0.000
991,-0.0040,0.0309,0.0131,0.0018,-0.0176,0.0013,-0.36,0.64,0.01,0,0.014,-0.236,0.005,0.065,0.013,-0.009,0.999,0.000,0.000,0.000
1001,-0.0040,0.0318,0.0131,0.0019,-0.0128,0.0017,-0.37,0.63,0.01,0,0.014,0.026,0.070,0.339,0.014,-0.009,0.999,0.000,0.000,0.000
1011,-0.0047,0.0329,0.0132,-0.0015,-0.0071,0.0021,-0.44,0.59,0.02,0,0.014,0.207,0.054,-0.181,0.012,-0.012,1.001,0.000,0.000,0.000
1020,-0.0049,0.0318,0.0132,-0.0026,-0.0128,0.0020,-0.35,0.57,0.01,0,0.014,-0.127,0.173,0.204,0.011,-0.014,0.999,0.000,0.000,0.000
1030,-0.0049,0.0320,0.0132,-0.0024,-0.0114,0.0022,-0.38,0.58,0.02,0,0.014,0.041,0.201,-0.073,0.012,-0.013,1.001,0.000,0.000,0.000
1040,-0.0038,0.0335,0.0136,0.0035,-0.0033,0.0042,-0.41,0.60,0.02,0,0.012,0.146,-0.207,-0.016,0.012,-0.012,1.000,0.000,0.000,0.000
1050,-0.0034,0.0313,0.0136,0.0059,-0.0146,0.0040,-0.39,0.62,0.01,0,0.012,0.114,-0.040,0.057,0.011,-0.012,0.999,0.000,0.000,0.000
1060,-0.0036,0.0321,0.0137,0.0045,-0.0105,0.0042,-0.24,0.60,0.01,0,0.012,0.055,0.034,-0.080,0.015,-0.009,1.000,0.000,0.000,0.000
1071,-0.0040,0.0327,0.0137,0.0023,-0.0070,0.0043,-0.38,0.57,0.01,0,0.012,-0.139,-0.058,-0.083,0.014,-0.012,1.002,0.000,0.000,0.000
1080,-0.0045,0.0321,0.0138,0.0000,-0.0105,0.0043,-0.11,0.54,0.01,0,0.012,-0.028,0.002,-0.109,0.013,-0.012,1.000,0.000,0.000,0.000
1091,-0.0040,0.0286,0.0130,0.0023,-0.0295,0.0001,-0.11,0.54,0.01,0,0.011,0.293,-0.215,-0.131,0.014,-0.013,0.998,0.000,0.000,0.000
1101,-0.0034,0.0315,0.0132,0.0057,-0.0132,0.0009,-0.16,0.55,0.01,0,0.011,-0.434,0.068,0.399,0.013,-0.012,0.999,0.000,0.000,0.000
1111,-0.0026,0.0253,0.0130,0.0099,-0.0465,0.0002,-0.14,0.52,0.01,0,0.011,-0.162,0.174,-0.149,0.015,-0.010,0.998,0.000,0.000,0.000
1121,-0.0025,0.0249,0.0130,0.0102,-0.0473,0.0002,-0.09,0.52,0.01,0,0.011,0.316,0.203,-0.026,0.014,-0.010,1.000,0.000,0.000,0.000
1131,-0.0025,0.0255,0.0131,0.0101,-0.0419,0.0009,-0.19,0.54,0.01,0,0.011,0.124,0.034,-0.318,0.015,-0.011,1.000,0.000,0.000,0.000
1140,-0.0019,0.0247,0.0122,0.0133,-0.0451,-0.0038,-0.16,0.56,0.01,0,0.012,0.067,0.086,0.256,0.012,-0.013,1.000,0.000,0.000,0.000
1151,-0.0017,0.0232,0.0121,0.0142,-0.0517,-0.0043,-0.26,0.55,0.01,0,0.012,-0.195,-0.038,-0.076,0.010,-0.014,0.998,0.000,0.000,0.000
1160,-0.0021,0.0249,0.0123,0.0115,-0.0406,-0.0034,-0.54,0.59,0.01,0,0.012,0.232,-0.054,0.236,0.012,-0.011,0.999,0.000,0.000,0.000
1171,-0.0023,0.0239,0.0122,0.0102,-0.0447,-0.0038,-0.73,0.59,0.02,0,0.012,0.077,0.184,-0.005,0.013,-0.009,0.999,0.000,0.000,0.000
1180,-0.0021,0.0256,0.0123,0.0112,-0.0338,-0.0029,-0.78,0.61,0.02,0,0.012,-0.011,0.120,0.083,0.012,-0.009,1.001,0.000,0.000,0.000
1190,-0.0029,0.0315,0.0124,0.0067,-0.0008,-0.0025,-0.64,0.60,0.02,0,0.013,-0.219,-0.034,-0.099,0.013,-0.011,1.001,0.000,0.000,0.000
1201,-0.0027,0.0359,0.0123,0.0075,0.0234,-0.0031,-0.62,0.57,0.02,0,0.013,0.014,0.115,-0.006,0.012,-0.011,1.001,0.000,0.000,0.000
1210,-0.0033,0.0375,0.0122,0.0038,0.0289,-0.0037,-0.65,0.57,0.02,0,0.013,-0.073,-0.200,0.100,0.013,-0.012,1.000,0.000,0.000,0.000
1221,-0.0030,0.0343,0.0124,0.0059,0.0114,-0.0023,-0.51,0.56,0.02,0,0.013,0.071,0.086,0.264,0.013,-0.014,1.000,0.000,0.000,0.000
1231,-0.0022,0.0341,0.0123,0.0095,0.0099,-0.0023,-0.56,0.60,0.02,0,0.013,-0.140,0.207,-0.105,0.013,-0.014,1.000,0.000,0.000,0.000
1240,-0.0023,0.0347,0.0126,0.0089,0.0128,-0.0010,-0.64,0.59,0.02,0,0.013,-0.097,-0.194,-0.042,0.013,-0.014,0.999,0.000,0.000,0.000
1251,-0.0018,0.0317,0.0127,0.0112,-0.0039,-0.0004,-0.63,0.61,0.02,0,0.013,-0.169,0.057,0.015,0.013,-0.014,0.997,0.000,0.000,0.000
1260,-0.0027,0.0328,0.0127,0.0059,0.0020,-0.0004,-0.62,0.59,0.02,0,0.013,-0.009,0.029,0.200,0.013,-0.012,1.000,0.000,0.000,0.000
1271,-0.0025,0.0348,0.0126,0.0073,0.0119,-0.0004,-0.77,0.58,0.02,0,0.013,0.065,-0.053,-0.006,0.015,-0.011,0.999,0.000,0.000,0.000
1281,-0.0029,0.0348,0.0127,0.0048,0.0110,-0.0003,-0.81,0.55,0.02,0,0.013,-0.060,0.061,-0.121,0.015,-0.012,1.001,0.000,0.000,0.000
1290,-0.0023,0.0345,0.0128,0.0083,0.0089,0.0004,-0.75,0.61,0.02,0,0.012,0.041,-0.155,-0.172,0.011,-0.011,1.001,0.000,0.000,0.000
1301,-0.0020,0.0382,0.0127,0.0092,0.0282,-0.0003,-0.46,0.61,0.02,0,0.012,0.107,-0.125,0.142,0.012,-0.010,1.001,0.000,0.000,0.000
1311,-0.0012,0.0395,0.0127,0.0137,0.0337,-0.0008,-0.43,0.60,0.02,0,0.012,0.277,0.009,-0.146,0.011,-0.010,1.002,0.000,0.000,0.000
1321,-0.0025,0.0384,0.0128,0.0063,0.0263,-0.0001,-0.43,0.60,0.02,0,0.012,-0.182,-0.178,-0.034,0.013,-0.010,1.001,0.000,0.000,0.000
1331,-0.0025,0.0318,0.0132,0.0063,-0.0110,0.0020,-0.51,0.61,0.02,0,0.012,-0.106,-0.142,0.257,0.014,-0.014,1.002,0.000,0.000,0.000
1340,-0.0023,0.0309,0.0127,0.0073,-0.0155,-0.0006,-0.47,0.60,0.02,0,0.015,-0.237,-0.113,-0.029,0.011,-0.012,1.000,0.000,0.000,0.000
1350,-0.0021,0.0307,0.0127,0.0081,-0.0159,-0.0006,-0.47,0.60,0.02,0,0.015,-0.084,-0.303,-0.035,0.012,-0.012,0.999,0.000,0.000,0.000
1360,-0.0023,0.0324,0.0127,0.0066,-0.0061,-0.0001,-0.42,0.59,0.02,0,0.015,-0.121,-0.123,-0.452,0.011,-0.011,0.998,0.000,0.000,0.000
1370,-0.0021,0.0316,0.0127,0.0075,-0.0105,-0.0000,-0.58,0.67,0.02,0,0.015,0.030,-0.180,0.190,0.014,-0.013,1.001,0.000,0.000,0.000
1380,-0.0020,0.0314,0.0127,0.0078,-0.0109,0.0002,-0.45,0.63,0.02,0,0.015,0.009,-0.064,0.113,0.012,-0.013,1.003,0.000,0.000,0.000
1390,-0.0015,0.0301,0.0137,0.0100,-0.0179,0.0054,-0.53,0.62,0.02,0,0.013,0.105,0.020,-0.056,0.012,-0.013,1.002,0.000,0.000,0.000
1400,-0.0033,0.0337,0.0139,-0.0001,0.0018,0.0060,-0.47,0.62,0.02,0,0.013,-0.216,-0.320,-0.112,0.014,-0.013,1.000,0.000,0.000,0.000
1410,-0.0024,0.0306,0.0140,0.0047,-0.0151,0.0060,-0.48,0.62,0.02,0,0.013,-0.347,0.077,0.150,0.011,-0.014,0.999,0.000,0.000,0.000
1420,-0.0022,0.0324,0.0141,0.0058,-0.0052,0.0062,-0.49,0.63,0.02,0,0.013,-0.084,0.002,-0.102,0.012,-0.011,0.999,0.000,0.000,0.000
1430,-0.0022,0.0308,0.0141,0.0057,-0.0134,0.0064,-0.49,0.63,0.02,0,0.013,0.197,0.048,-0.021,0.012,-0.009,1.000,0.000,0.000,0.000
1441,-0.0020,0.0311,0.0137,0.0067,-0.0120,0.0041,-0.48,0.62,0.02,0,0.012,0.158,-0.374,-0.071,0.013,-0.010,1.000,0.000,0.000,0.000
1451,-0.0022,0.0311,0.0137,0.0054,-0.0118,0.0043,-0.51,0.64,0.02,0,0.012,-0.279,0.263,-0.260,0.015,-0.011,1.000,0.000,0.000,0.000
1461,-0.0022,0.0309,0.0138,0.0055,-0.0123,0.0042,-0.50,0.60,0.02,0,0.012,0.145,0.168,0.176,0.012,-0.014,1.001,0.000,0.000,0.000
1471,-0.0020,0.0307,0.0138,0.0064,-0.0132,0.0041,-0.50,0.60,0.02,0,0.012,-0.028,0.023,0.196,0.010,-0.016,1.000,0.000,0.000,0.000
1481,-0.0022,0.0313,0.0138,0.0049,-0.0101,0.0042,-0.50,0.66,0.02,0,0.012,0.098,-0.040,0.123,0.011,-0.012,1.000,0.000,0.000,0.000
0,-0.0014,0.0311,0.0131,0.0095,-0.0108,0.0001,-0.53,0.63,0.02,0,0.010,-0.069,-0.081,-0.208,0.012,-0.013,1.002,0.000,0.000,0.000
10,-0.0013,0.0310,0.0131,0.0097,-0.0109,0.0001,-0.51,0.63,0.02,60000,0.010,-0.099,0.213,0.121,0.013,-0.012,1.002,0.000,0.000,0.000
19,-0.0027,0.0308,0.0131,0.0021,-0.0117,0.0001,-0.54,0.64,0.02,60000,0.010,-0.011,-0.034,-0.021,0.013,-0.012,1.000,0.000,0.000,0.000
30,-0.0020,0.0314,0.0131,0.0058,-0.0077,0.0002,-0.52,0.63,0.02,60000,0.010,0.146,-0.323,-0.095,0.013,-0.006,0.997,0.000,0.000,0.000
39,-0.0020,0.0308,0.0131,0.0053,-0.0114,0.0002,-0.50,0.64,0.02,60000,0.010,-0.122,0.379,0.063,0.009,-0.011,1.001,0.000,0.000,0.000
48,-0.0022,0.0315,0.0118,0.0038,-0.0075,-0.0066,-0.52,0.64,0.02,60000,0.015,-0.208,-0.127,0.061,0.008,-0.013,1.007,0.000,0.000,0.000
59,-0.0020,0.0308,0.0118,0.0049,-0.0109,-0.0064,-0.52,0.64,0.02,60000,0.015,-0.481,-0.544,0.853,0.008,-0.015,0.995,0.000,0.000,0.000
68,-0.0020,0.0304,0.0117,0.0047,-0.0130,-0.0062,-0.54,0.64,0.02,60000,0.015,0.328,0.269,1.238,0.006,-0.022,1.000,0.000,0.000,0.000
78,-0.0020,0.0306,0.0116,0.0046,-0.0113,-0.0062,-0.57,0.69,0.02,60000,0.015,0.126,-0.745,0.632,0.010,-0.015,1.004,0.000,0.000,0.000
88,-0.0019,0.0305,0.0116,0.0047,-0.0116,-0.0062,-0.52,0.69,0.02,60000,0.015,-0.405,-1.045,0.581,0.000,-0.023,1.011,0.000,0.000,0.000
99,-0.0020,0.0309,0.0130,0.0043,-0.0090,0.0015,-0.53,0.68,0.02,60000,0.012,0.764,-0.073,0.073,0.013,-0.025,0.993,0.000,0.000,0.000
110,-0.0031,0.0316,0.0130,-0.0032,-0.0040,0.0014,-0.60,0.68,0.02,60000,0.012,1.750,-1.753,-1.078,-0.013,-0.022,0.997,0.000,0.000,0.000
118,-0.0029,0.0305,0.0130,-0.0029,-0.0089,0.0013,-0.58,0.67,0.01,60000,0.012,0.902,-3.320,-1.014,-0.010,-0.015,0.999,0.000,0.000,0.000
130,-0.0024,0.0305,0.0130,-0.0015,-0.0075,0.0019,-0.49,0.74,0.00,60000,0.012,0.663,1.099,-0.919,-0.016,-0.004,1.005,0.000,0.000,0.000
139,-0.0025,0.0323,0.0131,-0.0026,0.0033,0.0019,-0.48,0.70,-0.01,60000,0.012,2.439,0.735,-1.311,-0.008,0.002,1.016,0.000,0.000,0.000
149,-0.0020,0.0322,0.0126,-0.0013,0.0039,0.0009,-0.47,0.70,-0.02,60000,0.012,2.999,-3.384,-0.098,-0.010,-0.013,1.034,0.000,0.000,0.000
159,-0.0031,0.0304,0.0127,-0.0082,-0.0050,0.0010,-0.44,0.73,-0.02,60000,0.012,0.740,-5.321,-1.862,0.004,-0.013,1.051,0.000,0.000,0.000
169,-0.0026,0.0302,0.0127,-0.0063,-0.0049,0.0008,-0.43,0.78,-0.04,60000,0.012,4.129,-3.455,0.020,0.003,-0.012,1.070,0.000,0.000,0.000
180,-0.0027,0.0302,0.0127,-0.0075,-0.0040,0.0004,-0.38,0.82,-0.04,60000,0.012,2.257,-9.197,0.547,0.017,-0.008,1.073,0.000,0.000,0.000
189,-0.0027,0.0302,0.0127,-0.0087,-0.0032,0.0014,-0.35,0.93,-0.03,60000,0.012,-4.007,-21.167,-1.773,0.031,-0.008,1.105,0.000,0.000,0.000
198,-0.0028,0.0301,0.0124,-0.0099,-0.0025,0.0006,-0.38,1.14,-0.05,60000,0.014,-2.084,-19.561,-5.449,0.015,-0.009,1.136,0.000,0.000,0.000
209,-0.0029,0.0301,0.0124,-0.0113,-0.0017,0.0031,-0.41,1.35,-0.10,60000,0.014,-4.627,-34.030,-6.124,0.016,-0.017,1.154,0.000,0.000,0.000
219,-0.0031,0.0301,0.0125,-0.0129,-0.0010,0.0081,-0.46,1.70,-0.16,60000,0.014,-7.542,-42.921,-5.970,0.013,-0.016,1.159,0.000,0.000,0.000
228,-0.0032,0.0301,0.0126,-0.0146,-0.0003,0.0143,-0.53,2.13,-0.22,60000,0.014,-14.726,-41.893,-4.630,0.012,-0.024,1.180,0.000,0.000,0.000
238,-0.0034,0.0301,0.0128,-0.0168,0.0004,0.0214,-0.67,2.54,-0.26,59881,0.014,-22.537,-38.805,-4.360,0.008,-0.022,1.202,0.000,0.000,0.000
250,-0.0035,0.0301,0.0134,-0.0194,0.0012,0.0326,-0.96,2.95,-0.29,59723,0.008,-24.736,-35.939,-3.205,0.019,-0.006,1.207,0.000,0.000,0.000
258,-0.0038,0.0301,0.0138,-0.0227,0.0021,0.0448,-1.32,3.36,-0.31,59690,0.008,-38.842,-39.326,-5.499,0.021,-0.012,1.227,0.000,0.000,0.000
268,-0.0040,0.0301,0.0144,-0.0270,0.0032,0.0594,-1.86,3.80,-0.34,59419,0.008,-38.867,-39.055,-6.027,0.011,-0.013,1.259,0.000,0.000,0.000
278,-0.0049,0.0320,0.0150,-0.0352,0.0138,0.0742,-2.31,4.21,-0.38,59088,0.008,-25.981,-38.677,-5.858,0.007,-0.013,1.238,0.000,0.000,0.000
288,-0.0063,0.0347,0.0157,-0.0464,0.0288,0.0901,-2.64,4.65,-0.41,58749,0.008,-3.418,-27.877,-5.580,0.003,-0.014,1.219,0.000,0.000,0.000
298,-0.0080,0.0392,0.0128,-0.0592,0.0523,0.0872,-2.68,4.95,-0.45,58387,0.000,3.439,-18.180,-6.724,0.005,-0.025,1.224,0.000,0.000,0.000
309,-0.0092,0.0419,0.0136,-0.0699,0.0669,0.1057,-2.51,4.86,-0.53,58707,0.000,9.353,-10.893,-8.258,0.007,-0.016,1.224,0.000,0.000,0.000
318,-0.0126,0.0464,0.0142,-0.0919,0.0903,0.1225,-2.31,4.94,-0.62,58356,0.000,11.565,3.078,-6.720,0.007,-0.020,1.219,0.000,0.000,0.000
329,-0.0136,0.0473,0.0155,-0.1020,0.0961,0.1466,-2.18,4.99,-0.69,58051,0.000,11.915,17.084,-7.158,0.002,-0.018,1.195,0.000,0.000,0.000
339,-0.0075,0.0452,0.0187,-0.0776,0.0867,0.1807,-2.06,4.78,-0.77,57586,0.000,12.994,23.781,-6.805,0.002,-0.023,1.189,0.000,0.000,0.000
348,-0.0078,0.0428,0.0121,-0.0857,0.0765,0.1561,-1.86,4.31,-0.85,56863,0.006,20.997,30.050,-7.186,-0.003,-0.022,1.193,0.000,0.000,0.000
358,-0.0107,0.0439,0.0137,-0.1050,0.0829,0.1766,-1.60,3.98,-0.94,57209,0.006,24.252,31.210,-7.420,0.001,-0.025,1.187,0.000,0.000,0.000
368,-0.0118,0.0448,0.0155,-0.0850,0.0801,0.2039,-1.45,3.61,-0.98,56852,0.006,30.380,31.639,-6.272,0.004,-0.020,1.175,0.000,0.000,0.000
378,-0.0065,0.0441,0.0185,-0.0943,0.0844,0.2251,-1.07,3.28,-1.07,56294,0.006,26.792,23.488,-6.568,0.002,-0.020,1.171,0.000,0.000,0.000
389,-0.0069,0.0442,0.0210,-0.0999,0.0846,0.2453,-0.90,2.91,-1.10,55891,0.006,26.643,10.886,-4.633,0.007,-0.022,1.166,0.000,0.000,0.000
399,-0.0048,0.0473,0.0162,-0.0941,0.0993,0.2244,-0.58,2.84,-1.18,55501,0.035,24.171,12.411,-4.625,0.009,-0.025,1.157,0.000,0.000,0.000
409,-0.0055,0.0465,0.0187,-0.0999,0.0933,0.2440,-0.25,2.58,-1.24,54899,0.035,14.091,2.413,-7.156,0.007,-0.022,1.137,0.000,0.000,0.000
418,-0.0022,0.0501,0.0213,-0.0856,0.1081,0.2631,-0.15,2.52,-1.30,54527,0.035,9.305,1.038,-5.510,0.006,-0.017,1.119,0.000,0.000,0.000
428,-0.0046,0.0491,0.0242,-0.0986,0.1001,0.2810,-0.16,2.57,-1.33,54125,0.035,0.867,-3.171,-5.528,0.010,-0.014,1.107,0.000,0.000,0.000
438,-0.0005,0.0473,0.0277,-0.0798,0.0877,0.3014,-0.22,2.35,-1.35,53776,0.035,-1.778,-6.553,-5.844,0.012,-0.014,1.095,0.000,0.000,0.000
448,-0.0006,0.0494,0.0325,-0.0813,0.0940,0.3269,-0.25,2.60,-1.42,53338,0.055,-2.610,-13.935,-6.024,0.015,-0.015,1.087,0.000,0.000,0.000
458,-0.0027,0.0528,0.0357,-0.0923,0.1064,0.3413,-0.19,2.58,-1.49,52103,0.055,-1.366,-17.348,-6.917,0.008,-0.017,1.073,0.000,0.000,0.000
469,0.0036,0.0556,0.0394,-0.0623,0.1150,0.3568,-0.19,2.81,-1.57,51826,0.055,0.797,-23.600,-7.780,0.009,-0.018,1.061,0.000,0.000,0.000
479,-0.0019,0.0573,0.0429,-0.0901,0.1183,0.3676,-0.22,3.03,-1.63,51468,0.055,5.970,-23.158,-6.288,0.007,-0.016,1.050,0.000,0.000,0.000
489,0.0016,0.0565,0.0472,-0.0737,0.1093,0.3816,-0.19,3.17,-1.68,51282,0.055,9.962,-24.901,-6.729,0.000,-0.013,1.045,0.000,0.000,0.000
499,-0.0007,0.0576,0.0527,-0.0857,0.1095,0.3995,-0.03,3.44,-1.76,50972,0.087,11.568,-20.366,-6.602,-0.002,-0.015,1.027,0.000,0.000,0.000
509,-0.0012,0.0598,0.0566,-0.0890,0.1156,0.4076,0.12,3.52,-1.83,49492,0.087,15.716,-13.739,-5.961,-0.000,-0.018,1.015,0.000,0.000,0.000
519,0.0007,0.0622,0.0608,-0.0806,0.1220,0.4155,0.28,3.66,-1.89,49339,0.087,18.717,-4.010,-4.970,0.004,-0.014,1.003,0.000,0.000,0.000
528,-0.0009,0.0618,0.0651,-0.0903,0.1145,0.4224,0.54,3.72,-1.95,49170,0.087,19.405,4.596,-4.035,0.006,-0.013,0.995,0.000,0.000,0.000
539,0.0009,0.0625,0.0696,-0.0832,0.1124,0.4293,0.80,3.68,-2.01,49059,0.087,18.070,8.663,-2.314,0.009,-0.013,0.989,0.000,0.000,0.000
549,-0.0008,0.0644,0.0793,-0.0924,0.1152,0.4620,1.02,3.53,-2.05,48920,0.114,13.278,14.044,-2.493,0.009,-0.018,0.986,0.000,0.000,0.000
558,-0.0026,0.0637,0.0841,-0.1030,0.1058,0.4655,1.13,3.22,-2.06,47325,0.114,18.285,19.186,-2.408,0.010,-0.018,0.980,0.000,0.000,0.000
568,-0.0036,0.0630,0.0889,-0.1094,0.0963,0.4682,1.37,3.06,-2.10,47274,0.114,14.725,22.537,-1.400,0.009,-0.019,0.972,0.000,0.000,0.000
579,-0.0032,0.0627,0.0938,-0.1083,0.0886,0.4702,1.54,2.94,-2.12,47233,0.114,8.035,24.846,-0.990,0.011,-0.018,0.963,0.000,0.000,0.000
588,-0.0001,0.0642,0.0989,-0.0929,0.0906,0.4727,1.65,2.69,-2.13,47191,0.114,8.904,19.892,-0.562,0.013,-0.017,0.954,0.000,0.000,0.000
598,-0.0028,0.0640,0.1079,-0.1061,0.0822,0.4943,1.76,2.56,-2.13,47126,0.143,4.007,15.480,-0.995,0.013,-0.015,0.950,0.000,0.000,0.000
608,-0.0062,0.0636,0.1128,-0.1233,0.0740,0.4920,1.84,2.36,-2.15,45668,0.143,0.424,15.262,0.588,0.013,-0.014,0.947,0.000,0.000,0.000
618,-0.0073,0.0634,0.1177,-0.1273,0.0669,0.4904,1.86,2.16,-2.15,45730,0.143,-0.612,9.456,0.354,0.012,-0.013,0.942,0.000,0.000,0.000
628,-0.0103,0.0633,0.1225,-0.1407,0.0608,0.4868,1.85,2.05,-2.15,45758,0.143,-3.324,2.942,0.782,0.012,-0.015,0.935,0.000,0.000,0.000
638,-0.0107,0.0626,0.1274,-0.1398,0.0515,0.4842,1.84,1.93,-2.16,45839,0.143,-4.092,-1.068,0.200,0.015,-0.012,0.929,0.000,0.000,0.000
649,-0.0108,0.0631,0.1368,-0.1366,0.0474,0.5043,1.81,1.91,-2.16,45880,0.158,-4.053,-3.859,0.632,0.012,-0.013,0.925,0.000,0.000,0.000
659,-0.0122,0.0636,0.1423,-0.1398,0.0444,0.4990,1.77,1.95,-2.16,44932,0.158,-6.348,-8.314,0.459,0.010,-0.014,0.918,0.000,0.000,0.000
668,-0.0112,0.0633,0.1475,-0.1310,0.0376,0.4949,1.73,2.02,-2.16,45044,0.158,-8.034,-10.182,0.726,0.011,-0.012,0.915,0.000,0.000,0.000
679,-0.0114,0.0631,0.1524,-0.1288,0.0322,0.4897,1.69,2.16,-2.16,45116,0.158,-6.321,-12.161,0.392,0.011,-0.009,0.911,0.000,0.000,0.000
689,-0.0127,0.0633,0.1573,-0.1319,0.0286,0.4834,1.63,2.32,-2.16,45221,0.158,-9.212,-14.469,0.223,0.014,-0.008,0.907,0.000,0.000,0.000
698,-0.0134,0.0629,0.1604,-0.1325,0.0230,0.4675,1.54,2.45,-2.16,45355,0.185,-10.655,-13.407,0.972,0.015,-0.011,0.903,0.000,0.000,0.000
708,-0.0157,0.0620,0.1650,-0.1404,0.0145,0.4598,1.44,2.58,-2.15,44717,0.185,-6.794,-12.544,0.118,0.012,-0.012,0.902,0.000,0.000,0.000
718,-0.0182,0.0616,0.1695,-0.1491,0.0095,0.4513,1.40,2.69,-2.16,44882,0.185,-5.572,-10.485,0.836,0.014,-0.015,0.901,0.000,0.000,0.000
728,-0.0194,0.0615,0.1740,-0.1514,0.0063,0.4431,1.32,2.97,-2.12,45066,0.185,-6.102,-8.954,0.424,0.011,-0.011,0.896,0.000,0.000,0.000
738,-0.0208,0.0621,0.1784,-0.1547,0.0069,0.4345,1.26,3.04,-2.12,45243,0.185,-8.336,-7.412,0.306,0.011,-0.011,0.893,0.000,0.000,0.000
748,-0.0269,0.0624,0.1834,-0.1807,0.0059,0.4284,1.20,3.18,-2.10,45428,0.204,-7.595,-2.954,0.354,0.010,-0.009,0.893,0.000,0.000,0.000
758,-0.0288,0.0625,0.1877,-0.1852,0.0040,0.4187,1.12,3.21,-2.10,44921,0.204,-6.063,-0.874,0.770,0.010,-0.011,0.889,0.000,0.000,0.000
768,-0.0301,0.0626,0.1918,-0.1876,0.0022,0.4093,1.06,3.33,-2.07,45125,0.204,-4.374,1.739,1.318,0.010,-0.012,0.887,0.000,0.000,0.000
778,-0.0343,0.0622,0.1957,-0.2029,-0.0014,0.3980,1.01,3.30,-2.06,45328,0.204,-7.448,1.749,0.978,0.012,-0.014,0.887,0.000,0.000,0.000
789,-0.0364,0.0621,0.1996,-0.2078,-0.0031,0.3878,0.95,3.28,-2.05,45580,0.204,-5.219,4.579,1.000,0.012,-0.011,0.890,0.000,0.000,0.000
799,-0.0420,0.0623,0.2035,-0.2285,-0.0036,0.3766,0.88,3.25,-2.03,45797,0.230,-5.810,4.183,1.551,0.009,-0.009,0.892,0.000,0.000,0.000
808,-0.0441,0.0622,0.2072,-0.2326,-0.0055,0.3661,0.82,3.22,-2.02,45131,0.230,-8.613,2.898,1.019,0.011,-0.013,0.889,0.000,0.000,0.000
818,-0.0464,0.0623,0.2108,-0.2375,-0.0063,0.3551,0.75,3.20,-2.01,45351,0.230,-6.576,0.207,1.050,0.014,-0.013,0.885,0.000,0.000,0.000
828,-0.0490,0.0622,0.2143,-0.2434,-0.0076,0.3438,0.67,3.25,-1.99,45584,0.230,-7.143,-3.588,1.364,0.017,-0.013,0.886,0.000,0.000,0.000
838,-0.0516,0.0618,0.2177,-0.2491,-0.0099,0.3325,0.62,3.31,-1.97,45828,0.230,-7.032,-5.492,1.367,0.016,-0.011,0.892,0.000,0.000,0.000
848,-0.0546,0.0614,0.2247,-0.2562,-0.0123,0.3415,0.55,3.39,-1.95,46074,0.230,-5.957,-8.912,1.057,0.015,-0.011,0.895,0.000,0.000,0.000
859,-0.0584,0.0616,0.2280,-0.2660,-0.0122,0.3302,0.49,3.49,-1.94,45912,0.230,-6.394,-11.890,1.057,0.014,-0.009,0.899,0.000,0.000,0.000
868,-0.0618,0.0607,0.2312,-0.2741,-0.0159,0.3188,0.41,3.63,-1.93,46170,0.230,-11.238,-14.145,1.222,0.014,-0.011,0.898,0.000,0.000,0.000
879,-0.0651,0.0608,0.2343,-0.2813,-0.0156,0.3071,0.32,3.79,-1.93,46430,0.230,-10.078,-15.997,0.560,0.016,-0.012,0.897,0.000,0.000,0.000
888,-0.0683,0.0605,0.2372,-0.2879,-0.0172,0.2955,0.20,3.96,-1.92,46698,0.230,-10.005,-16.002,0.835,0.015,-0.012,0.893,0.000,0.000,0.000
898,-0.0713,0.0603,0.2359,-0.2934,-0.0181,0.2623,0.13,4.15,-1.91,46964,0.245,-7.898,-18.522,0.907,0.013,-0.010,0.894,0.000,0.000,0.000
908,-0.0747,0.0592,0.2385,-0.3007,-0.0219,0.2516,0.04,4.33,-1.90,47138,0.245,-4.516,-18.458,0.072,0.014,-0.010,0.900,0.000,0.000,0.000
918,-0.0779,0.0597,0.2409,-0.3071,-0.0198,0.2414,-0.00,4.55,-1.89,47390,0.245,-5.872,-18.295,-0.022,0.013,-0.011,0.906,0.000,0.000,0.000
928,-0.0820,0.0586,0.2432,-0.3170,-0.0234,0.2306,-0.04,4.71,-1.90,47638,0.245,-6.887,-17.964,0.589,0.011,-0.011,0.909,0.000,0.000,0.000
938,-0.0848,0.0589,0.2455,-0.3220,-0.0213,0.2205,-0.12,4.91,-1.89,47899,0.245,-4.881,-16.509,0.205,0.011,-0.011,0.907,0.000,0.000,0.000
948,-0.0892,0.0588,0.2465,-0.3329,-0.0209,0.2035,-0.18,5.09,-1.88,48141,0.257,-4.096,-14.591,-0.073,0.015,-0.013,0.910,0.000,0.000,0.000
958,-0.0919,0.0575,0.2485,-0.3373,-0.0246,0.1932,-0.22,5.23,-1.88,48108,0.257,-4.429,-13.116,-0.750,0.015,-0.014,0.918,0.000,0.000,0.000
968,-0.0962,0.0576,0.2503,-0.3479,-0.0229,0.1825,-0.24,5.35,-1.89,48348,0.257,-4.911,-12.340,-0.110,0.017,-0.014,0.922,0.000,0.000,0.000
978,-0.1000,0.0577,0.2521,-0.3565,-0.0213,0.1726,-0.25,5.48,-1.91,48612,0.257,-4.508,-10.548,0.013,0.017,-0.013,0.924,0.000,0.000,0.000
988,-0.1038,0.0578,0.2537,-0.3650,-0.0197,0.1632,-0.30,5.57,-1.91,48855,0.257,-4.507,-9.653,0.097,0.019,-0.009,0.926,0.000,0.000,0.000
999,-0.1074,0.0569,0.2560,-0.3729,-0.0215,0.1575,-0.36,5.66,-1.91,49088,0.270,-5.702,-8.956,-0.099,0.020,-0.008,0.930,0.000,0.000,0.000
1009,-0.1113,0.0553,0.2575,-0.3817,-0.0261,0.1481,-0.38,5.77,-1.91,48780,0.270,-6.361,-8.551,0.635,0.018,-0.011,0.935,0.000,0.000,0.000
1019,-0.1146,0.0553,0.2590,-0.3882,-0.0244,0.1398,-0.43,5.82,-1.91,49014,0.270,-2.435,-9.775,-0.524,0.017,-0.014,0.937,0.000,0.000,0.000
1029,-0.1185,0.0554,0.2604,-0.3967,-0.0224,0.1317,-0.47,5.96,-1.91,49216,0.270,-2.573,-10.538,-0.945,0.020,-0.008,0.939,0.000,0.000,0.000
1038,-0.1231,0.0543,0.2616,-0.4077,-0.0248,0.1234,-0.52,6.04,-1.91,49427,0.270,-7.650,-10.873,0.419,0.020,-0.010,0.942,0.000,0.000,0.000
1048,-0.1264,0.0542,0.2658,-0.4141,-0.0231,0.1316,-0.56,6.18,-1.91,49647,0.273,-4.909,-13.115,-0.479,0.019,-0.012,0.946,0.000,0.000,0.000
1057,-0.1321,0.0543,0.2670,-0.4284,-0.0209,0.1235,-0.61,6.28,-1.92,49419,0.273,-3.840,-14.709,-0.036,0.020,-0.011,0.949,0.000,0.000,0.000
1068,-0.1355,0.0554,0.2683,-0.4349,-0.0156,0.1169,-0.63,6.47,-1.92,49650,0.273,-3.465,-16.923,-0.076,0.022,-0.009,0.950,0.000,0.000,0.000
1078,-0.1411,0.0545,0.2693,-0.4486,-0.0167,0.1096,-0.67,6.63,-1.92,49837,0.273,-3.363,-18.415,-0.971,0.025,-0.006,0.952,0.000,0.000,0.000
1088,-0.1444,0.0544,0.2705,-0.4543,-0.0155,0.1038,-0.66,6.83,-1.94,50063,0.273,-1.834,-16.666,-0.478,0.021,-0.011,0.955,0.000,0.000,0.000
1098,-0.1510,0.0532,0.2720,-0.4711,-0.0176,0.1000,-0.70,7.00,-1.93,50238,0.278,-1.876,-18.347,-0.421,0.017,-0.014,0.957,0.000,0.000,0.000
1108,-0.1552,0.0533,0.2730,-0.4797,-0.0153,0.0942,-0.66,7.19,-1.96,50232,0.278,-1.338,-20.350,-0.642,0.018,-0.009,0.962,0.000,0.000,0.000
1118,-0.1612,0.0517,0.2738,-0.4943,-0.0187,0.0878,-0.69,7.37,-1.95,50420,0.278,2.290,-18.838,-0.149,0.019,-0.012,0.972,0.000,0.000,0.000
1128,-0.1659,0.0528,0.2747,-0.5041,-0.0129,0.0824,-0.59,7.55,-1.99,50644,0.278,4.178,-16.951,-0.293,0.019,-0.011,0.972,0.000,0.000,0.000
1138,-0.1711,0.0501,0.2755,-0.5158,-0.0200,0.0769,-0.56,7.68,-1.99,50831,0.278,4.336,-18.638,-0.228,0.020,-0.012,0.971,0.000,0.000,0.000
1148,-0.1759,0.0512,0.2770,-0.5263,-0.0143,0.0758,-0.48,7.91,-2.00,51023,0.286,5.170,-18.260,-0.147,0.025,-0.012,0.973,0.000,0.000,0.000
1158,-0.1809,0.0474,0.2778,-0.5372,-0.0245,0.0709,-0.45,8.08,-1.99,50855,0.286,4.496,-19.381,0.074,0.027,-0.011,0.978,0.000,0.000,0.000
1168,-0.1842,0.0473,0.2786,-0.5428,-0.0227,0.0672,-0.35,8.27,-2.01,51040,0.286,6.959,-17.244,-0.004,0.029,-0.008,0.980,0.000,0.000,0.000
1178,-0.1919,0.0457,0.2791,-0.5624,-0.0257,0.0621,-0.29,8.41,-2.02,51180,0.286,1.317,-19.272,-0.178,0.028,-0.008,0.978,0.000,0.000,0.000
1193,-0.1968,0.0463,0.2797,-0.5731,-0.0216,0.0589,-0.24,8.63,-2.03,51180,0.286,1.481,-17.490,1.550,0.026,-0.010,0.983,0.000,0.000,0.000
1198,-0.2034,0.0435,0.2826,-0.5892,-0.0284,0.0676,-0.26,8.77,-2.01,51573,0.292,-2.559,-20.680,0.779,0.024,-0.011,0.987,0.000,0.000,0.000
1208,-0.2073,0.0430,0.2834,-0.5967,-0.0281,0.0647,-0.30,8.96,-2.00,51299,0.292,-3.599,-22.802,0.868,0.024,-0.011,0.989,0.000,0.000,0.000
1218,-0.2139,0.0418,0.2840,-0.6122,-0.0299,0.0611,-0.30,9.18,-2.00,51440,0.292,-2.813,-23.295,1.219,0.027,-0.011,0.992,0.000,0.000,0.000
1228,-0.2200,0.0415,0.2846,-0.6266,-0.0290,0.0580,-0.15,9.30,-2.09,51644,0.292,-3.363,-21.993,1.866,0.027,-0.011,0.996,0.000,0.000,0.000
1238,-0.2253,0.0413,0.2853,-0.6380,-0.0278,0.0553,-0.23,9.59,-2.04,51814,0.292,-1.006,-21.865,1.922,0.026,-0.011,0.999,0.000,0.000,0.000
1248,-0.2321,0.0394,0.2884,-0.6543,-0.0316,0.0660,-0.22,9.77,-2.04,52001,0.293,-2.476,-23.114,2.035,0.025,-0.009,1.002,0.000,0.000,0.000
1258,-0.2342,0.0300,0.2893,-0.6569,-0.0576,0.0651,-0.17,10.01,-2.05,51887,0.293,-0.027,-23.288,1.644,0.029,-0.012,1.002,0.000,0.000,0.000
1269,-0.2437,0.0319,0.2897,-0.6808,-0.0494,0.0613,-0.15,10.22,-2.06,51979,0.293,0.627,-24.543,1.484,0.030,-0.012,1.004,0.000,0.000,0.000
1278,-0.2485,0.0302,0.2905,-0.6907,-0.0521,0.0601,0.12,10.40,-2.19,52246,0.293,-0.335,-24.469,2.173,0.031,-0.011,1.004,0.000,0.000,0.000
1287,-0.2560,0.0259,0.2910,-0.7090,-0.0621,0.0576,0.20,10.58,-2.22,52371,0.293,1.373,-23.176,2.995,0.032,-0.013,1.003,0.000,0.000,0.000
1298,-0.2610,0.0237,0.2921,-0.7200,-0.0660,0.0591,0.23,10.82,-2.20,52574,0.294,-1.843,-25.945,3.067,0.029,-0.012,1.011,0.000,0.000,0.000
1307,-0.2657,0.0096,0.2928,-0.7307,-0.1037,0.0578,0.19,11.06,-2.16,52639,0.294,0.922,-27.236,2.821,0.029,-0.015,1.014,0.000,0.000,0.000
1318,-0.2694,0.0044,0.2936,-0.7381,-0.1152,0.0577,0.22,11.34,-2.16,52787,0.294,-2.582,-28.648,3.264,0.030,-0.016,1.013,0.000,0.000,0.000
1328,-0.2771,0.0020,0.2941,-0.7570,-0.1184,0.0560,0.17,11.63,-2.10,52906,0.294,-3.004,-28.743,3.293,0.031,-0.015,1.013,0.000,0.000,0.000
1337,-0.2836,0.0019,0.2948,-0.7722,-0.1150,0.0554,0.22,11.89,-2.13,53149,0.294,-3.886,-27.593,2.872,0.032,-0.016,1.016,0.000,0.000,0.000
1348,-0.2911,-0.0018,0.2945,-0.7901,-0.1219,0.0495,0.17,12.14,-2.12,53335,0.295,-7.042,-30.700,3.005,0.034,-0.015,1.019,0.000,0.000,0.000
1357,-0.2995,-0.0014,0.2950,-0.8108,-0.1169,0.0484,0.11,12.47,-2.10,53614,0.295,-8.182,-28.166,2.191,0.037,-0.015,1.020,0.000,0.000,0.000
1368,-0.3064,-0.0079,0.2955,-0.8275,-0.1315,0.0477,-0.03,12.75,-2.05,53888,0.295,-11.738,-29.665,2.870,0.034,-0.015,1.019,0.000,0.000,0.000
1377,-0.3122,-0.0101,0.2962,-0.8411,-0.1337,0.0480,-0.28,13.12,-1.94,54116,0.295,-15.031,-28.464,1.946,0.033,-0.014,1.026,0.000,0.000,0.000
1387,-0.3225,-0.0123,0.2965,-0.8669,-0.1354,0.0458,-0.52,13.41,-1.86,54346,0.295,-17.555,-29.054,1.778,0.038,-0.016,1.030,0.000,0.000,0.000
1398,-0.3305,-0.0119,0.2957,-0.8860,-0.1301,0.0384,-0.69,13.71,-1.84,54699,0.298,-17.269,-28.943,0.757,0.038,-0.014,1.034,0.000,0.000,0.000
1407,-0.3439,-0.0067,0.2958,-0.9195,-0.1116,0.0361,-0.84,13.94,-1.85,55004,0.298,-16.782,-26.888,0.952,0.039,-0.013,1.038,0.000,0.000,0.000
1418,-0.3529,-0.0036,0.2963,-0.9410,-0.0988,0.0358,-1.06,14.19,-1.81,55405,0.298,-17.051,-28.860,0.745,0.038,-0.012,1.044,0.000,0.000,0.000
1428,-0.3635,-0.0048,0.2965,-0.9670,-0.0978,0.0343,-1.17,14.49,-1.85,55685,0.298,-16.887,-28.971,0.503,0.039,-0.012,1.048,0.000,0.000,0.000
1437,-0.3699,-0.0071,0.2972,-0.9822,-0.0994,0.0358,-1.38,14.78,-1.81,56045,0.298,-12.839,-28.822,0.650,0.040,-0.014,1.053,0.000,0.000,0.000
1448,-0.3778,-0.0063,0.2971,-1.0011,-0.0922,0.0335,-1.48,15.11,-1.82,56264,0.300,-12.351,-30.555,-0.401,0.042,-0.012,1.053,0.000,0.000,0.000
1458,-0.3888,-0.0105,0.2973,-1.0281,-0.0985,0.0330,-1.57,15.36,-1.84,56527,0.300,-9.320,-31.571,-0.352,0.044,-0.013,1.057,0.000,0.000,0.000
1467,-0.3986,-0.0099,0.2978,-1.0516,-0.0908,0.0343,-1.73,15.75,-1.77,56883,0.300,-6.743,-34.589,-0.800,0.044,-0.015,1.058,0.000,0.000,0.000
1478,-0.4109,-0.0122,0.2980,-1.0819,-0.0913,0.0339,-1.82,16.05,-1.75,57226,0.300,-4.878,-37.273,-1.253,0.046,-0.015,1.064,0.000,0.000,0.000
