time_ms,pos_x,pos_y,pos_z,vel_x,vel_y,vel_z,roll,pitch,yaw,thrust,range_z,gyro_x,gyro_y,gyro_z,acc_x,acc_y,acc_z,rate_roll,rate_pitch,rate_yaw
0,-0.1402,0.2766,0.0093,-0.0076,-0.0176,0.0084,-1.46,0.27,-38.03,0,0.008,-0.113,0.061,0.205,0.004,-0.026,1.001,0.000,0.000,0.000
0,-0.1402,0.2756,0.0094,-0.0074,-0.0224,0.0084,-1.44,0.26,-37.99,0,0.008,-0.146,-0.294,-0.016,0.004,-0.027,1.000,0.000,0.000,0.000
0,-0.1399,0.2774,0.0096,-0.0052,-0.0117,0.0092,-1.42,0.24,-37.96,0,0.008,-0.328,-0.198,0.039,0.003,-0.027,1.001,0.000,0.000,0.000
0,-0.1402,0.2776,0.0097,-0.0070,-0.0097,0.0094,-1.48,0.27,-37.92,0,0.008,-0.125,-0.337,0.210,0.005,-0.027,1.000,0.000,0.000,0.000
0,-0.1404,0.2770,0.0091,-0.0081,-0.0127,0.0059,-1.48,0.27,-37.88,0,0.008,0.152,-0.101,0.035,0.004,-0.027,1.001,0.000,0.000,0.000
0,-0.1405,0.2763,0.0091,-0.0080,-0.0161,0.0060,-1.46,0.28,-37.84,0,0.010,-0.137,-0.373,0.067,0.003,-0.027,1.002,0.000,0.000,0.000
0,-0.1402,0.2777,0.0092,-0.0063,-0.0079,0.0062,-1.40,0.28,-37.80,0,0.010,-0.127,0.229,0.033,0.003,-0.026,1.003,0.000,0.000,0.000
0,-0.1403,0.2776,0.0093,-0.0065,-0.0080,0.0062,-1.40,0.28,-37.77,0,0.010,-0.289,-0.236,0.086,0.003,-0.026,1.002,0.000,0.000,0.000
1,-0.1406,0.2772,0.0093,-0.0078,-0.0094,0.0064,-1.50,0.28,-37.73,0,0.010,0.010,-0.066,0.114,0.004,-0.028,1.003,0.000,0.000,0.000
1,-0.1415,0.2760,0.0094,-0.0125,-0.0154,0.0063,-1.49,0.28,-37.69,0,0.006,-0.131,0.040,0.182,0.004,-0.029,1.003,0.000,0.000,0.000
1,-0.1416,0.2759,0.0097,-0.0128,-0.0155,0.0080,-1.42,0.30,-37.65,0,0.006,0.139,-0.096,-0.014,0.005,-0.028,1.002,0.000,0.000,0.000
1,-0.1403,0.2775,0.0099,-0.0055,-0.0060,0.0085,-1.51,0.29,-37.62,0,0.006,-0.024,-0.127,0.180,0.004,-0.029,1.003,0.000,0.000,0.000
1,-0.1405,0.2774,0.0099,-0.0060,-0.0065,0.0088,-1.50,0.29,-37.58,0,0.006,0.056,-0.347,-0.002,0.001,-0.029,1.003,0.000,0.000,0.000
1,-0.1419,0.2762,0.0100,-0.0136,-0.0123,0.0090,-1.47,0.25,-37.54,0,0.006,-0.110,0.049,0.031,0.003,-0.029,1.001,0.000,0.000,0.000
1,-0.1405,0.2777,0.0085,-0.0056,-0.0041,0.0011,-1.51,0.29,-37.50,0,0.006,-0.054,0.075,0.077,0.001,-0.029,1.001,0.000,0.000,0.000
2,-0.1407,0.2775,0.0085,-0.0063,-0.0049,0.0014,-1.52,0.27,-37.47,0,0.007,-0.118,-0.359,-0.012,0.002,-0.025,1.002,0.000,0.000,0.000
2,-0.1405,0.2762,0.0085,-0.0052,-0.0115,0.0016,-1.52,0.28,-37.43,0,0.007,-0.049,-0.234,-0.106,0.004,-0.024,1.003,0.000,0.000,0.000
2,-0.1406,0.2775,0.0085,-0.0061,-0.0042,0.0020,-1.52,0.28,-37.39,0,0.007,-0.004,-0.212,0.313,0.003,-0.024,1.001,0.000,0.000,0.000
2,-0.1402,0.2774,0.0086,-0.0035,-0.0045,0.0023,-1.51,0.28,-37.36,0,0.007,-0.348,-0.356,-0.028,0.003,-0.026,0.999,0.000,0.000,0.000
2,-0.1403,0.2776,0.0086,-0.0047,-0.0035,0.0025,-1.51,0.28,-37.32,0,0.009,-0.060,-0.111,-0.383,0.003,-0.026,1.004,0.000,0.000,0.000
2,-0.1404,0.2775,0.0079,-0.0050,-0.0034,-0.0010,-1.53,0.28,-37.28,0,0.009,-0.226,-0.188,-0.014,0.004,-0.026,1.004,0.000,0.000,0.000
2,-0.1405,0.2773,0.0079,-0.0055,-0.0038,-0.0007,-1.51,0.28,-37.25,0,0.009,-0.073,-0.252,0.023,0.005,-0.026,1.002,0.000,0.000,0.000
2,-0.1406,0.2773,0.0079,-0.0055,-0.0035,-0.0003,-1.46,0.25,-37.21,0,0.009,0.022,-0.127,-0.208,0.004,-0.025,1.002,0.000,0.000,0.000
2,-0.1404,0.2775,0.0079,-0.0044,-0.0020,-0.0004,-1.59,0.28,-37.18,0,0.009,-0.168,-0.172,-0.087,0.003,-0.026,1.002,0.000,0.000,0.000
3,-0.1407,0.2771,0.0083,-0.0059,-0.0038,0.0022,-1.54,0.28,-37.14,0,0.009,0.050,-0.185,-0.139,0.005,-0.026,1.004,0.000,0.000,0.000
3,-0.1409,0.2757,0.0084,-0.0064,-0.0109,0.0027,-1.53,0.29,-37.10,0,0.011,-0.210,-0.153,-0.191,0.004,-0.026,1.003,0.000,0.000,0.000
3,-0.1396,0.2787,0.0084,0.0008,0.0052,0.0032,-1.51,0.29,-37.07,0,0.011,0.186,-0.061,-0.126,0.002,-0.028,1.002,0.000,0.000,0.000
3,-0.1401,0.2776,0.0085,-0.0019,-0.0007,0.0036,-1.50,0.29,-37.03,0,0.011,0.002,-0.530,-0.249,0.004,-0.029,1.003,0.000,0.000,0.000
3,-0.1404,0.2775,0.0085,-0.0036,-0.0007,0.0038,-1.53,0.29,-37.00,0,0.011,0.045,-0.312,0.062,0.005,-0.030,1.002,0.000,0.000,0.000
3,-0.1408,0.2770,0.0086,-0.0058,-0.0035,0.0098,-1.51,0.30,-36.96,0,0.010,0.010,-0.141,-0.257,0.002,-0.029,1.003,0.000,0.000,0.000
3,-0.1409,0.2770,0.0097,-0.0058,-0.0034,0.0102,-1.53,0.29,-36.93,0,0.010,-0.175,-0.131,-0.083,0.002,-0.027,1.002,0.000,0.000,0.000
3,-0.1404,0.2776,0.0098,-0.0033,-0.0000,0.0105,-1.53,0.28,-36.89,0,0.010,-0.130,-0.153,0.162,0.004,-0.027,1.003,0.000,0.000,0.000
3,-0.1409,0.2773,0.0099,-0.0060,-0.0013,0.0108,-1.34,0.21,-36.86,0,0.010,-0.036,-0.289,-0.173,0.004,-0.028,1.003,0.000,0.000,0.000
3,-0.1404,0.2776,0.0101,-0.0033,-0.0001,0.0111,-1.31,0.23,-36.82,0,0.010,0.280,-0.098,-0.093,0.005,-0.029,1.003,0.000,0.000,0.000
3,-0.1402,0.2774,0.0101,-0.0025,-0.0009,0.0112,-1.32,0.24,-36.79,0,0.010,0.183,-0.084,0.150,0.004,-0.027,1.002,0.000,0.000,0.000
3,-0.1418,0.2726,0.0103,-0.0105,-0.0257,0.0115,-1.28,0.23,-36.75,0,0.009,-0.129,-0.262,0.194,0.005,-0.026,1.002,0.000,0.000,0.000
3,-0.1426,0.2718,0.0104,-0.0148,-0.0286,0.0116,-1.25,0.19,-36.71,0,0.009,-0.488,-0.304,0.202,0.004,-0.028,1.004,0.000,0.000,0.000
4,-0.1428,0.2720,0.0105,-0.0152,-0.0266,0.0119,-1.27,0.22,-36.67,0,0.009,-0.089,0.051,-0.010,0.004,-0.030,1.003,0.000,0.000,0.000
4,-0.1433,0.2710,0.0106,-0.0172,-0.0310,0.0121,-1.36,0.25,-36.64,0,0.009,-0.012,-0.135,-0.127,0.004,-0.028,1.002,0.000,0.000,0.000
4,-0.1431,0.2694,0.0106,-0.0153,-0.0380,0.0121,-1.38,0.25,-36.60,0,0.009,-0.151,-0.058,0.109,0.003,-0.028,1.002,0.000,0.000,0.000
4,-0.1436,0.2698,0.0100,-0.0174,-0.0340,0.0088,-1.38,0.25,-36.56,0,0.009,-0.048,0.033,0.069,0.004,-0.028,1.001,0.000,0.000,0.000
4,-0.1429,0.2716,0.0102,-0.0130,-0.0236,0.0096,-1.41,0.26,-36.52,0,0.009,0.026,-0.309,-0.182,-0.000,-0.028,1.003,0.000,0.000,0.000
4,-0.1427,0.2718,0.0103,-0.0119,-0.0216,0.0101,-1.39,0.24,-36.49,0,0.009,-0.046,-0.301,-0.275,0.001,-0.026,1.002,0.000,0.000,0.000
4,-0.1430,0.2715,0.0104,-0.0130,-0.0226,0.0103,-1.42,0.26,-36.46,0,0.009,0.003,-0.183,-0.330,0.004,-0.028,1.000,0.000,0.000,0.000
4,-0.1429,0.2720,0.0100,-0.0121,-0.0191,0.0076,-1.44,0.26,-36.42,0,0.009,-0.111,-0.067,0.047,0.004,-0.028,1.003,0.000,0.000,0.000
4,-0.1427,0.2711,0.0100,-0.0110,-0.0231,0.0077,-1.45,0.27,-36.39,0,0.009,0.087,-0.160,-0.067,0.002,-0.027,1.004,0.000,0.000,0.000
4,-0.1427,0.2719,0.0101,-0.0105,-0.0178,0.0081,-1.36,0.24,-36.35,0,0.009,-0.027,-0.067,-0.111,0.003,-0.024,1.002,0.000,0.000,0.000
4,-0.1425,0.2721,0.0102,-0.0097,-0.0158,0.0085,-1.37,0.27,-36.32,0,0.009,0.113,-0.123,-0.113,0.004,-0.027,1.001,0.000,0.000,0.000
4,-0.1427,0.2723,0.0103,-0.0104,-0.0143,0.0086,-1.46,0.28,-36.28,0,0.009,0.129,-0.233,-0.116,0.004,-0.026,1.002,0.000,0.000,0.000
4,-0.1433,0.2700,0.0104,-0.0131,-0.0257,0.0086,-1.47,0.28,-36.25,0,0.012,0.010,-0.118,0.081,0.004,-0.026,1.000,0.000,0.000,0.000
4,-0.1438,0.2704,0.0098,-0.0155,-0.0225,0.0060,-1.45,0.28,-36.21,0,0.012,-0.021,-0.416,-0.403,0.004,-0.027,1.002,0.000,0.000,0.000
4,-0.1430,0.2719,0.0100,-0.0103,-0.0132,0.0066,-1.49,0.28,-36.18,0,0.012,-0.161,-0.068,0.011,0.002,-0.027,1.001,0.000,0.000,0.000
4,-0.1428,0.2721,0.0100,-0.0092,-0.0115,0.0068,-1.49,0.26,-36.14,0,0.012,0.004,-0.237,0.250,0.002,-0.026,1.002,0.000,0.000,0.000
4,-0.1432,0.2716,0.0101,-0.0109,-0.0136,0.0070,-1.49,0.28,-36.11,0,0.012,-0.037,-0.322,-0.322,0.003,-0.025,1.000,0.000,0.000,0.000
4,-0.1428,0.2722,0.0110,-0.0084,-0.0101,0.0112,-1.50,0.29,-36.07,0,0.012,0.033,-0.089,0.117,0.006,-0.028,1.001,0.000,0.000,0.000
5,-0.1425,0.2719,0.0111,-0.0062,-0.0108,0.0113,-1.50,0.29,-36.03,0,0.009,-0.077,0.096,-0.128,0.004,-0.029,1.002,0.000,0.000,0.000
5,-0.1428,0.2722,0.0112,-0.0080,-0.0088,0.0115,-1.43,0.26,-36.00,0,0.009,-0.168,-0.017,-0.222,0.002,-0.026,1.001,0.000,0.000,0.000
5,-0.1430,0.2723,0.0113,-0.0087,-0.0075,0.0117,-1.61,0.30,-35.96,0,0.009,-0.003,-0.187,0.230,0.004,-0.026,1.001,0.000,0.000,0.000
5,-0.1431,0.2722,0.0114,-0.0088,-0.0073,0.0117,-1.71,0.34,-35.93,0,0.009,-0.099,-0.329,0.272,0.004,-0.028,1.001,0.000,0.000,0.000
5,-0.1436,0.2704,0.0105,-0.0110,-0.0168,0.0060,-1.66,0.30,-35.89,0,0.008,-0.093,-0.110,0.119,0.004,-0.029,1.000,0.000,0.000,0.000
5,-0.1419,0.2742,0.0106,-0.0017,0.0040,0.0066,-1.66,0.32,-35.86,0,0.008,-0.093,-0.317,0.091,0.003,-0.028,1.003,0.000,0.000,0.000
5,-0.1412,0.2768,0.0106,0.0020,0.0174,0.0065,-1.68,0.30,-35.82,0,0.008,-0.370,-0.040,0.302,0.002,-0.024,1.002,0.000,0.000,0.000
5,-0.1410,0.2755,0.0107,0.0029,0.0103,0.0070,-1.65,0.27,-35.78,0,0.008,-0.275,0.132,0.324,0.004,-0.027,1.001,0.000,0.000,0.000
5,-0.1415,0.2759,0.0108,-0.0001,0.0120,0.0072,-1.69,0.33,-35.75,0,0.008,-0.021,-0.040,-0.127,0.003,-0.028,1.000,0.000,0.000,0.000
5,-0.1408,0.2762,0.0097,0.0037,0.0129,0.0013,-1.66,0.34,-35.71,0,0.008,-0.201,-0.209,0.073,0.003,-0.028,1.002,0.000,0.000,0.000
5,-0.1404,0.2751,0.0097,0.0052,0.0067,0.0016,-1.66,0.34,-35.68,0,0.010,-0.243,-0.243,0.069,0.005,-0.027,1.001,0.000,0.000,0.000
5,-0.1411,0.2770,0.0097,0.0015,0.0166,0.0018,-1.63,0.32,-35.64,0,0.010,0.110,-0.144,-0.114,0.003,-0.028,1.000,0.000,0.000,0.000
5,-0.1416,0.2765,0.0098,-0.0016,0.0138,0.0021,-1.63,0.32,-35.61,0,0.010,-0.115,-0.342,-0.080,0.002,-0.028,1.003,0.000,0.000,0.000
5,-0.1418,0.2767,0.0098,-0.0026,0.0140,0.0022,-1.63,0.26,-35.57,0,0.010,-0.335,-0.222,0.231,0.004,-0.027,1.002,0.000,0.000,0.000
5,-0.1419,0.2762,0.0099,-0.0031,0.0108,0.0028,-1.63,0.32,-35.54,0,0.008,0.028,-0.147,0.197,0.002,-0.026,1.001,0.000,0.000,0.000
5,-0.1419,0.2763,0.0099,-0.0031,0.0110,0.0030,-1.67,0.32,-35.50,0,0.008,-0.288,-0.438,0.029,0.004,-0.029,1.000,0.000,0.000,0.000
5,-0.1408,0.2755,0.0100,0.0030,0.0062,0.0032,-1.64,0.32,-35.47,0,0.008,0.147,-0.240,-0.014,0.003,-0.028,1.002,0.000,0.000,0.000
5,-0.1419,0.2763,0.0100,-0.0034,0.0103,0.0034,-1.55,0.29,-35.43,0,0.008,-0.097,-0.391,0.090,0.004,-0.027,1.001,0.000,0.000,0.000
5,-0.1413,0.2770,0.0100,0.0003,0.0146,0.0033,-1.58,0.23,-35.40,0,0.008,-0.031,0.123,-0.063,0.004,-0.025,0.999,0.000,0.000,0.000
6,-0.1415,0.2767,0.0092,-0.0012,0.0119,-0.0008,-1.60,0.31,-35.36,0,0.008,-0.274,-0.252,0.271,0.004,-0.025,1.003,0.000,0.000,0.000
6,-0.1421,0.2747,0.0093,-0.0045,0.0009,-0.0004,-1.67,0.30,-35.32,0,0.009,0.044,-0.046,-0.028,0.003,-0.027,1.002,0.000,0.000,0.000
6,-0.1407,0.2745,0.0093,0.0034,-0.0003,-0.0003,-1.60,0.23,-35.29,0,0.009,-0.032,-0.043,0.096,0.004,-0.028,1.004,0.000,0.000,0.000
6,-0.1418,0.2758,0.0093,-0.0031,0.0070,-0.0000,-1.83,0.32,-35.25,0,0.009,-0.070,-0.345,-0.332,0.002,-0.026,1.005,0.000,0.000,0.000
6,-0.1408,0.2772,0.0093,0.0023,0.0144,0.0001,-1.76,0.26,-35.22,0,0.009,-0.201,-0.125,-0.095,0.004,-0.028,1.000,0.000,0.000,0.000
6,-0.1403,0.2750,0.0093,0.0051,0.0019,0.0004,-1.70,0.36,-35.19,0,0.005,0.104,-0.195,-0.150,0.004,-0.029,1.003,0.000,0.000,0.000
6,-0.1390,0.2806,0.0092,0.0121,0.0322,-0.0005,-1.76,0.34,-35.15,0,0.005,0.003,-0.257,-0.136,0.005,-0.029,1.004,0.000,0.000,0.000
6,-0.1385,0.2787,0.0093,0.0142,0.0209,0.0005,-1.71,0.30,-35.12,0,0.005,-0.028,-0.295,-0.303,0.004,-0.031,1.003,0.000,0.000,0.000
6,-0.1410,0.2792,0.0094,-0.0001,0.0225,0.0011,-1.72,0.26,-35.08,0,0.005,-0.063,-0.144,0.142,0.004,-0.030,0.999,0.000,0.000,0.000
6,-0.1399,0.2804,0.0093,0.0059,0.0286,0.0014,-1.82,0.34,-35.05,0,0.005,0.231,-0.279,-0.286,0.003,-0.028,1.002,0.000,0.000,0.000
6,-0.1397,0.2792,0.0076,0.0066,0.0208,-0.0074,-1.68,0.24,-35.01,0,0.005,-0.141,-0.226,-0.109,0.002,-0.027,1.003,0.000,0.000,0.000
6,-0.1386,0.2789,0.0076,0.0120,0.0184,-0.0072,-1.72,0.30,-34.98,0,0.009,-0.109,-0.106,-0.357,0.005,-0.027,1.002,0.000,0.000,0.000
6,-0.1387,0.2820,0.0074,0.0108,0.0344,-0.0073,-1.68,0.28,-34.95,0,0.009,0.306,-0.201,-0.277,0.005,-0.029,0.999,0.000,0.000,0.000
6,-0.1386,0.2786,0.0076,0.0110,0.0143,-0.0055,-1.69,0.32,-34.91,0,0.009,-0.269,-0.144,0.003,0.003,-0.027,1.003,0.000,0.000,0.000
6,-0.1390,0.2802,0.0075,0.0079,0.0220,-0.0056,-1.61,0.29,-34.88,0,0.009,0.027,0.061,-0.001,0.003,-0.026,1.002,0.000,0.000,0.000
6,-0.1390,0.2795,0.0075,0.0073,0.0170,-0.0052,-1.61,0.29,-34.85,0,0.008,-0.219,-0.166,-0.233,0.004,-0.027,0.999,0.000,0.000,0.000
6,-0.1395,0.2806,0.0081,0.0042,0.0225,-0.0015,-1.67,0.32,-34.81,0,0.008,-0.376,-0.323,0.220,0.004,-0.028,1.000,0.000,0.000,0.000
6,-0.1398,0.2788,0.0082,0.0025,0.0117,-0.0008,-1.82,0.47,-34.78,0,0.008,-0.188,0.039,-0.003,0.003,-0.026,1.000,0.000,0.000,0.000
7,-0.1399,0.2789,0.0081,0.0015,0.0117,-0.0007,-1.79,0.42,-34.75,0,0.008,-0.027,-0.128,-0.166,0.005,-0.026,1.002,0.000,0.000,0.000
7,-0.1396,0.2804,0.0081,0.0030,0.0195,-0.0007,-1.83,0.46,-34.71,0,0.008,0.171,-0.143,-0.148,0.004,-0.026,1.004,0.000,0.000,0.000
7,-0.1404,0.2854,0.0080,-0.0013,0.0461,-0.0016,-1.75,0.42,-34.68,0,0.008,-0.008,-0.409,0.005,0.004,-0.027,1.002,0.000,0.000,0.000
7,-0.1400,0.2846,0.0080,0.0011,0.0399,-0.0010,-1.74,0.42,-34.65,0,0.008,-0.042,-0.102,-0.124,0.006,-0.028,1.001,0.000,0.000,0.000
7,-0.1401,0.2862,0.0080,0.0001,0.0469,-0.0014,-1.71,0.39,-34.61,0,0.008,0.147,-0.069,-0.302,0.005,-0.026,1.001,0.000,0.000,0.000
7,-0.1404,0.2847,0.0081,-0.0017,0.0369,-0.0004,-1.78,0.46,-34.58,0,0.008,0.119,-0.245,-0.144,0.006,-0.027,1.004,0.000,0.000,0.000
7,-0.1405,0.2850,0.0081,-0.0018,0.0370,-0.0001,-1.72,0.40,-34.54,0,0.008,-0.165,-0.075,0.089,0.005,-0.027,1.001,0.000,0.000,0.000
7,-0.1402,0.2844,0.0082,-0.0003,0.0318,0.0006,-1.72,0.40,-34.51,0,0.008,-0.004,-0.132,-0.158,0.002,-0.028,1.004,0.000,0.000,0.000
7,-0.1407,0.2869,0.0080,-0.0029,0.0445,-0.0000,-1.66,0.38,-34.48,0,0.008,0.025,-0.391,0.082,0.003,-0.026,1.001,0.000,0.000,0.000
7,-0.1403,0.2857,0.0081,-0.0008,0.0356,0.0008,-1.68,0.37,-34.44,0,0.008,0.000,-0.221,-0.027,0.002,-0.027,1.002,0.000,0.000,0.000
7,-0.1403,0.2860,0.0081,-0.0008,0.0361,0.0009,-1.78,0.36,-34.41,0,0.008,-0.342,-0.179,0.061,0.005,-0.026,1.000,0.000,0.000,0.000
7,-0.1405,0.2849,0.0082,-0.0021,0.0283,0.0018,-1.85,0.36,-34.37,0,0.008,-0.058,0.038,0.020,0.004,-0.027,1.002,0.000,0.000,0.000
7,-0.1402,0.2854,0.0081,0.0000,0.0297,0.0015,-1.88,0.35,-34.34,0,0.008,-0.013,-0.097,-0.098,0.005,-0.025,1.000,0.000,0.000,0.000
7,-0.1388,0.2875,0.0081,0.0077,0.0400,0.0014,-1.77,0.36,-34.31,0,0.008,-0.118,-0.102,-0.142,0.004,-0.027,1.000,0.000,0.000,0.000
7,-0.1377,0.2890,0.0081,0.0132,0.0470,0.0011,-1.84,0.31,-34.27,0,0.008,-0.103,-0.198,0.200,0.006,-0.027,0.998,0.000,0.000,0.000
7,-0.1370,0.2901,0.0080,0.0163,0.0508,0.0008,-1.73,0.37,-34.24,0,0.008,0.226,-0.150,-0.052,0.006,-0.027,1.001,0.000,0.000,0.000
7,-0.1384,0.2888,0.0082,0.0076,0.0412,0.0023,-1.71,0.32,-34.20,0,0.008,0.041,-0.351,-0.012,0.004,-0.025,0.999,0.000,0.000,0.000
7,-0.1365,0.2897,0.0082,0.0181,0.0447,0.0020,-1.74,0.34,-34.17,0,0.009,-0.141,-0.261,-0.129,0.004,-0.026,1.001,0.000,0.000,0.000
7,-0.1387,0.2890,0.0082,0.0045,0.0386,0.0024,-1.68,0.34,-34.14,0,0.009,-0.190,-0.228,0.180,0.003,-0.028,1.002,0.000,0.000,0.000
8,-0.1379,0.2884,0.0083,0.0091,0.0336,0.0028,-1.65,0.29,-34.10,0,0.009,0.248,-0.005,-0.056,0.005,-0.028,1.001,0.000,0.000,0.000
8,-0.1378,0.2897,0.0083,0.0091,0.0388,0.0025,-1.72,0.29,-34.07,0,0.009,-0.017,-0.193,-0.252,0.004,-0.025,1.000,0.000,0.000,0.000
8,-0.1384,0.2888,0.0084,0.0055,0.0321,0.0032,-1.70,0.30,-34.04,0,0.009,0.226,-0.062,-0.052,0.003,-0.027,1.004,0.000,0.000,0.000
8,-0.1379,0.2880,0.0087,0.0077,0.0262,0.0048,-1.58,0.34,-34.01,0,0.009,0.196,-0.184,-0.289,0.003,-0.028,1.002,0.000,0.000,0.000
8,-0.1369,0.2896,0.0087,0.0131,0.0337,0.0045,-1.63,0.34,-33.97,0,0.010,0.187,0.026,-0.185,0.007,-0.026,1.003,0.000,0.000,0.000
8,-0.1371,0.2897,0.0088,0.0114,0.0328,0.0049,-1.62,0.29,-33.94,0,0.010,0.122,-0.115,-0.078,0.005,-0.025,1.002,0.000,0.000,0.000
8,-0.1392,0.2884,0.0089,-0.0010,0.0240,0.0058,-1.65,0.33,-33.91,0,0.010,0.004,-0.294,0.152,0.003,-0.027,1.003,0.000,0.000,0.000
8,-0.1384,0.2896,0.0089,0.0035,0.0294,0.0057,-1.52,0.25,-33.87,0,0.010,-0.011,-0.097,-0.152,0.004,-0.027,0.999,0.000,0.000,0.000
8,-0.1377,0.2891,0.0090,0.0070,0.0255,0.0062,-1.46,0.29,-33.84,0,0.007,-0.036,-0.311,-0.357,0.003,-0.026,1.003,0.000,0.000,0.000
8,-0.1378,0.2905,0.0095,0.0060,0.0316,0.0086,-1.46,0.30,-33.81,0,0.007,0.189,-0.278,-0.250,0.002,-0.027,1.001,0.000,0.000,0.000
8,-0.1379,0.2874,0.0097,0.0050,0.0128,0.0098,-1.46,0.31,-33.78,0,0.007,-0.052,0.274,0.214,0.003,-0.028,1.001,0.000,0.000,0.000
8,-0.1393,0.2868,0.0098,-0.0027,0.0091,0.0103,-1.40,0.26,-33.74,0,0.007,-0.308,-0.406,-0.117,0.004,-0.028,1.000,0.000,0.000,0.000
8,-0.1396,0.2871,0.0099,-0.0047,0.0098,0.0105,-1.48,0.29,-33.71,0,0.007,0.023,-0.260,0.053,0.005,-0.027,1.003,0.000,0.000,0.000
8,-0.1397,0.2873,0.0088,-0.0050,0.0105,0.0038,-1.48,0.28,-33.68,0,0.007,-0.293,-0.355,-0.197,0.003,-0.028,1.001,0.000,0.000,0.000
8,-0.1395,0.2857,0.0088,-0.0040,0.0014,0.0041,-1.48,0.29,-33.65,0,0.008,0.077,0.193,-0.295,0.003,-0.028,1.005,0.000,0.000,0.000
8,-0.1391,0.2874,0.0089,-0.0020,0.0107,0.0045,-1.38,0.25,-33.61,0,0.008,-0.376,-0.201,0.377,0.005,-0.027,1.000,0.000,0.000,0.000
8,-0.1391,0.2875,0.0089,-0.0023,0.0106,0.0046,-1.43,0.32,-33.58,0,0.008,0.070,-0.168,0.171,0.003,-0.027,1.003,0.000,0.000,0.000
8,-0.1392,0.2876,0.0090,-0.0026,0.0105,0.0047,-1.40,0.29,-33.55,0,0.008,-0.277,0.060,0.144,0.003,-0.028,1.001,0.000,0.000,0.000
8,-0.1397,0.2856,0.0090,-0.0056,-0.0015,0.0052,-1.47,0.28,-33.51,0,0.012,0.163,-0.020,-0.089,0.004,-0.030,1.004,0.000,0.000,0.000
9,-0.1404,0.2873,0.0086,-0.0093,0.0082,0.0031,-1.47,0.29,-33.48,0,0.012,-0.290,-0.419,0.213,0.002,-0.027,1.005,0.000,0.000,0.000
9,-0.1402,0.2864,0.0087,-0.0081,0.0026,0.0036,-1.47,0.26,-33.44,0,0.012,-0.015,-0.050,0.104,0.002,-0.025,1.002,0.000,0.000,0.000
9,-0.1394,0.2877,0.0087,-0.0032,0.0094,0.0037,-1.40,0.25,-33.41,0,0.012,-0.238,0.053,0.190,0.004,-0.026,0.999,0.000,0.000,0.000
9,-0.1395,0.2878,0.0088,-0.0041,0.0095,0.0039,-1.46,0.28,-33.38,0,0.012,0.351,-0.059,-0.120,0.003,-0.027,1.002,0.000,0.000,0.000
9,-0.1390,0.2875,0.0101,-0.0011,0.0072,0.0110,-1.44,0.30,-33.35,0,0.012,-0.184,-0.318,-0.016,0.005,-0.026,0.999,0.000,0.000,0.000
9,-0.1398,0.2863,0.0103,-0.0058,-0.0004,0.0115,-1.42,0.27,-33.31,0,0.008,-0.092,0.319,0.218,0.004,-0.029,0.999,0.000,0.000,0.000
9,-0.1395,0.2879,0.0104,-0.0042,0.0083,0.0120,-1.39,0.22,-33.28,0,0.008,-0.209,-0.111,-0.090,0.003,-0.029,1.002,0.000,0.000,0.000
9,-0.1401,0.2878,0.0105,-0.0074,0.0073,0.0123,-1.56,0.29,-33.25,0,0.008,0.055,-0.428,0.111,0.004,-0.029,1.003,0.000,0.000,0.000
9,-0.1398,0.2870,0.0107,-0.0055,0.0030,0.0123,-1.60,0.34,-33.21,0,0.008,0.010,-0.221,0.191,0.002,-0.027,1.002,0.000,0.000,0.000
9,-0.1394,0.2861,0.0108,-0.0034,-0.0026,0.0125,-1.55,0.33,-33.18,0,0.007,-0.065,-0.429,0.011,0.002,-0.025,1.003,0.000,0.000,0.000
9,-0.1386,0.2900,0.0097,0.0013,0.0191,0.0065,-1.55,0.32,-33.15,0,0.007,0.090,-0.189,0.118,0.003,-0.026,1.003,0.000,0.000,0.000
9,-0.1389,0.2915,0.0098,-0.0005,0.0260,0.0061,-1.50,0.29,-33.11,0,0.007,-0.257,-0.043,-0.064,0.002,-0.030,1.001,0.000,0.000,0.000
9,-0.1394,0.2908,0.0099,-0.0032,0.0208,0.0066,-1.50,0.28,-33.08,0,0.007,-0.019,-0.355,-0.152,0.004,-0.030,1.001,0.000,0.000,0.000
9,-0.1392,0.2907,0.0099,-0.0023,0.0190,0.0070,-1.50,0.28,-33.05,0,0.007,0.052,-0.033,-0.060,0.004,-0.028,1.002,0.000,0.000,0.000
9,-0.1393,0.2897,0.0088,-0.0030,0.0128,0.0009,-1.49,0.29,-33.02,0,0.007,0.302,-0.186,-0.121,0.003,-0.028,1.001,0.000,0.000,0.000
9,-0.1391,0.2896,0.0088,-0.0022,0.0118,0.0012,-1.65,0.41,-32.98,0,0.007,-0.116,-0.199,0.028,0.003,-0.028,1.002,0.000,0.000,0.000
9,-0.1391,0.2897,0.0088,-0.0024,0.0119,0.0015,-1.69,0.39,-32.95,0,0.007,-0.006,-0.121,0.122,0.004,-0.027,1.003,0.000,0.000,0.000
9,-0.1393,0.2898,0.0088,-0.0036,0.0118,0.0016,-1.57,0.34,-32.92,0,0.007,-0.048,-0.398,-0.381,0.003,-0.029,0.999,0.000,0.000,0.000
10,-0.1397,0.2945,0.0088,-0.0057,0.0364,0.0010,-1.56,0.37,-32.89,0,0.007,0.161,-0.299,-0.204,0.002,-0.029,1.000,0.000,0.000,0.000
10,-0.1388,0.2954,0.0080,-0.0007,0.0397,-0.0029,-1.59,0.34,-32.86,0,0.009,-0.122,-0.239,0.218,0.004,-0.028,1.002,0.000,0.000,0.000
10,-0.1394,0.2930,0.0082,-0.0041,0.0241,-0.0016,-1.63,0.37,-32.82,0,0.009,0.203,-0.307,-0.186,0.004,-0.026,1.002,0.000,0.000,0.000
10,-0.1399,0.2933,0.0081,-0.0073,0.0248,-0.0014,-1.61,0.37,-32.79,0,0.009,-0.042,-0.261,0.039,0.003,-0.027,1.002,0.000,0.000,0.000
10,-0.1391,0.2938,0.0081,-0.0024,0.0262,-0.0011,-1.56,0.35,-32.76,0,0.009,-0.096,-0.038,0.170,0.003,-0.029,1.002,0.000,0.000,0.000
10,-0.1392,0.2951,0.0081,-0.0034,0.0325,-0.0015,-1.56,0.35,-32.73,0,0.009,-0.023,-0.334,-0.212,0.003,-0.029,1.000,0.000,0.000,0.000
10,-0.1394,0.2953,0.0085,-0.0045,0.0315,0.0008,-1.59,0.34,-32.69,0,0.009,0.001,0.010,-0.145,0.002,-0.028,0.999,0.000,0.000,0.000
10,-0.1395,0.2943,0.0085,-0.0051,0.0245,0.0014,-1.51,0.35,-32.66,0,0.010,-0.137,0.036,-0.427,0.003,-0.029,1.001,0.000,0.000,0.000
10,-0.1396,0.2946,0.0085,-0.0052,0.0247,0.0016,-1.51,0.31,-32.63,0,0.010,-0.332,-0.313,0.131,0.004,-0.030,1.001,0.000,0.000,0.000
10,-0.1391,0.2953,0.0085,-0.0025,0.0276,0.0017,-1.58,0.30,-32.60,0,0.010,0.033,-0.078,-0.123,0.004,-0.029,1.000,0.000,0.000,0.000
10,-0.1403,0.2942,0.0086,-0.0094,0.0201,0.0023,-1.48,0.32,-32.57,0,0.010,0.130,-0.028,-0.209,0.004,-0.027,1.002,0.000,0.000,0.000
10,-0.1395,0.2937,0.0087,-0.0050,0.0163,0.0027,-1.48,0.30,-32.54,0,0.010,-0.024,-0.126,-0.092,0.005,-0.027,1.002,0.000,0.000,0.000
10,-0.1386,0.2952,0.0093,0.0002,0.0237,0.0056,-1.47,0.30,-32.51,0,0.010,0.257,-0.303,-0.348,0.003,-0.028,1.001,0.000,0.000,0.000
10,-0.1402,0.2939,0.0094,-0.0090,0.0151,0.0061,-1.49,0.32,-32.48,0,0.010,-0.337,-0.246,0.230,0.005,-0.029,1.002,0.000,0.000,0.000
10,-0.1398,0.2937,0.0095,-0.0068,0.0128,0.0064,-1.46,0.24,-32.45,0,0.010,0.118,-0.172,-0.123,0.005,-0.028,1.001,0.000,0.000,0.000
10,-0.1399,0.2938,0.0095,-0.0071,0.0126,0.0065,-1.50,0.29,-32.41,0,0.010,0.151,-0.519,-0.038,0.004,-0.026,1.003,0.000,0.000,0.000
10,-0.1400,0.2945,0.0098,-0.0076,0.0154,0.0076,-1.50,0.29,-32.38,0,0.010,-0.200,-0.219,-0.299,0.005,-0.025,1.002,0.000,0.000,0.000
10,-0.1389,0.2932,0.0099,-0.0013,0.0078,0.0080,-1.50,0.29,-32.35,0,0.011,-0.090,-0.003,0.095,0.007,-0.027,1.000,0.000,0.000,0.000
10,-0.1394,0.2946,0.0099,-0.0040,0.0145,0.0081,-1.46,0.26,-32.32,0,0.011,0.067,-0.091,0.083,0.004,-0.027,1.001,0.000,0.000,0.000
11,-0.1394,0.2947,0.0100,-0.0042,0.0143,0.0083,-1.46,0.26,-32.29,0,0.011,-0.187,-0.138,-0.307,0.003,-0.028,1.001,0.000,0.000,0.000
11,-0.1396,0.2948,0.0101,-0.0051,0.0140,0.0084,-1.49,0.30,-32.26,0,0.011,0.077,-0.205,-0.195,0.004,-0.026,1.001,0.000,0.000,0.000
11,-0.1394,0.2939,0.0102,-0.0038,0.0081,0.0088,-1.44,0.28,-32.23,0,0.007,-0.213,-0.263,0.024,0.004,-0.030,1.002,0.000,0.000,0.000
11,-0.1395,0.2940,0.0107,-0.0038,0.0082,0.0109,-1.46,0.25,-32.20,0,0.007,-0.070,-0.333,-0.110,0.001,-0.027,1.000,0.000,0.000,0.000
11,-0.1399,0.2951,0.0108,-0.0058,0.0136,0.0108,-1.45,0.27,-32.16,0,0.007,0.106,-0.208,-0.039,0.003,-0.025,1.004,0.000,0.000,0.000
11,-0.1402,0.2941,0.0109,-0.0071,0.0077,0.0112,-1.43,0.26,-32.13,0,0.007,0.095,-0.118,0.007,0.001,-0.025,1.002,0.000,0.000,0.000
11,-0.1393,0.2942,0.0110,-0.0024,0.0073,0.0114,-1.47,0.26,-32.10,0,0.007,-0.072,-0.005,0.003,0.004,-0.027,1.000,0.000,0.000,0.000
11,-0.1398,0.2941,0.0094,-0.0053,0.0068,0.0024,-1.51,0.30,-32.07,0,0.007,0.164,-0.152,0.083,0.003,-0.029,1.001,0.000,0.000,0.000
11,-0.1399,0.2936,0.0094,-0.0055,0.0034,0.0027,-1.46,0.27,-32.03,0,0.009,0.049,-0.295,-0.134,0.003,-0.025,1.002,0.000,0.000,0.000
11,-0.1395,0.2947,0.0094,-0.0033,0.0090,0.0027,-1.42,0.24,-32.00,0,0.009,-0.140,-0.421,-0.071,0.005,-0.026,0.998,0.000,0.000,0.000
11,-0.1397,0.2960,0.0095,-0.0048,0.0153,0.0029,-1.42,0.29,-31.97,0,0.009,-0.173,-0.533,-0.071,0.003,-0.027,0.998,0.000,0.000,0.000
11,-0.1400,0.2948,0.0095,-0.0059,0.0085,0.0035,-1.43,0.26,-31.94,0,0.009,-0.052,-0.184,-0.224,0.002,-0.026,1.003,0.000,0.000,0.000
11,-0.1397,0.2938,0.0096,-0.0047,0.0030,0.0037,-1.44,0.24,-31.91,0,0.007,-0.016,-0.152,-0.275,0.003,-0.030,1.004,0.000,0.000,0.000
11,-0.1407,0.2944,0.0094,-0.0097,0.0058,0.0025,-1.50,0.25,-31.88,0,0.007,-0.076,-0.050,-0.059,0.003,-0.028,1.001,0.000,0.000,0.000
11,-0.1401,0.2940,0.0094,-0.0064,0.0036,0.0028,-1.47,0.27,-31.85,0,0.007,0.329,-0.182,0.094,0.002,-0.029,1.001,0.000,0.000,0.000
11,-0.1395,0.2942,0.0094,-0.0028,0.0041,0.0027,-1.63,0.36,-31.81,0,0.007,-0.077,-0.334,-0.177,0.003,-0.029,1.003,0.000,0.000,0.000
11,-0.1390,0.2955,0.0094,-0.0001,0.0104,0.0024,-1.62,0.41,-31.78,0,0.007,-0.009,-0.101,-0.105,0.006,-0.027,1.004,0.000,0.000,0.000
11,-0.1397,0.2951,0.0085,-0.0041,0.0080,-0.0027,-1.58,0.39,-31.75,0,0.007,-0.156,-0.033,0.143,0.004,-0.029,1.003,0.000,0.000,0.000
12,-0.1395,0.2996,0.0084,-0.0031,0.0313,-0.0027,-1.59,0.38,-31.72,0,0.010,0.112,-0.124,-0.170,0.002,-0.029,1.003,0.000,0.000,0.000
12,-0.1406,0.3002,0.0083,-0.0091,0.0333,-0.0026,-1.53,0.38,-31.69,0,0.010,-0.003,-0.349,0.025,0.003,-0.026,1.001,0.000,0.000,0.000
12,-0.1409,0.2997,0.0084,-0.0108,0.0288,-0.0022,-1.40,0.29,-31.66,0,0.010,0.042,-0.400,-0.202,0.002,-0.024,1.002,0.000,0.000,0.000
12,-0.1407,0.3000,0.0084,-0.0094,0.0292,-0.0019,-1.44,0.32,-31.63,0,0.010,-0.176,0.147,0.307,0.004,-0.026,1.003,0.000,0.000,0.000
12,-0.1415,0.2992,0.0084,-0.0130,0.0234,-0.0011,-1.43,0.32,-31.59,0,0.006,0.216,-0.232,0.025,0.004,-0.028,1.003,0.000,0.000,0.000
12,-0.1413,0.2959,0.0092,-0.0116,0.0043,0.0035,-1.40,0.28,-31.57,0,0.006,0.033,-0.143,-0.443,0.006,-0.028,1.001,0.000,0.000,0.000
12,-0.1415,0.2971,0.0092,-0.0129,0.0101,0.0038,-1.43,0.31,-31.54,0,0.006,-0.073,-0.171,0.062,0.005,-0.028,1.002,0.000,0.000,0.000
12,-0.1416,0.2969,0.0093,-0.0132,0.0086,0.0040,-1.43,0.29,-31.51,0,0.006,-0.081,-0.179,-0.108,0.004,-0.027,1.003,0.000,0.000,0.000
12,-0.1414,0.2960,0.0093,-0.0115,0.0037,0.0043,-1.45,0.29,-31.48,0,0.006,0.059,-0.185,0.121,0.003,-0.028,1.001,0.000,0.000,0.000
12,-0.1415,0.2970,0.0080,-0.0116,0.0090,-0.0029,-1.43,0.28,-31.45,0,0.006,-0.088,-0.091,0.193,0.004,-0.028,1.001,0.000,0.000,0.000
12,-0.1414,0.2969,0.0079,-0.0102,0.0077,-0.0025,-1.43,0.26,-31.41,0,0.009,-0.212,0.090,-0.113,0.004,-0.025,1.001,0.000,0.000,0.000
12,-0.1412,0.2973,0.0079,-0.0085,0.0090,-0.0024,-1.35,0.20,-31.39,0,0.009,0.266,-0.096,-0.280,0.004,-0.027,1.002,0.000,0.000,0.000
12,-0.1414,0.2969,0.0079,-0.0094,0.0063,-0.0022,-1.49,0.34,-31.35,0,0.009,0.127,-0.126,-0.013,0.005,-0.028,1.001,0.000,0.000,0.000
12,-0.1410,0.2967,0.0079,-0.0071,0.0046,-0.0019,-1.44,0.25,-31.33,0,0.009,0.003,-0.147,0.205,0.004,-0.030,1.002,0.000,0.000,0.000
12,-0.1409,0.2945,0.0083,-0.0065,-0.0082,0.0009,-1.44,0.25,-31.29,0,0.007,0.120,-0.051,0.305,0.004,-0.027,1.002,0.000,0.000,0.000
12,-0.1420,0.2987,0.0084,-0.0120,0.0156,0.0012,-1.43,0.26,-31.26,0,0.007,-0.357,-0.117,0.028,0.007,-0.027,1.002,0.000,0.000,0.000
12,-0.1409,0.2969,0.0085,-0.0056,0.0047,0.0018,-1.43,0.26,-31.23,0,0.007,-0.047,-0.264,-0.166,0.005,-0.028,1.000,0.000,0.000,0.000
12,-0.1410,0.2970,0.0085,-0.0057,0.0046,0.0020,-1.43,0.23,-31.20,0,0.007,-0.181,0.046,-0.172,0.001,-0.029,1.001,0.000,0.000,0.000
12,-0.1411,0.2971,0.0086,-0.0065,0.0048,0.0022,-1.34,0.23,-31.17,0,0.007,0.103,-0.268,-0.055,0.002,-0.028,1.002,0.000,0.000,0.000
13,-0.1412,0.2971,0.0079,-0.0067,0.0043,-0.0011,-1.42,0.20,-31.14,0,0.007,0.169,-0.144,-0.066,0.002,-0.026,1.000,0.000,0.000,0.000
13,-0.1406,0.2968,0.0079,-0.0034,0.0020,-0.0009,-1.28,0.23,-31.11,0,0.005,0.049,-0.076,-0.145,0.004,-0.027,1.002,0.000,0.000,0.000
13,-0.1418,0.2948,0.0079,-0.0093,-0.0087,-0.0006,-1.34,0.23,-31.08,0,0.005,-0.069,-0.136,0.077,0.003,-0.026,1.001,0.000,0.000,0.000
13,-0.1403,0.2960,0.0079,-0.0008,-0.0023,-0.0004,-1.35,0.20,-31.05,0,0.005,0.153,-0.077,-0.234,0.003,-0.025,1.000,0.000,0.000,0.000
13,-0.1425,0.2937,0.0079,-0.0129,-0.0150,-0.0002,-1.44,0.26,-31.02,0,0.005,-0.086,0.010,0.135,0.003,-0.029,1.002,0.000,0.000,0.000
13,-0.1421,0.2948,0.0080,-0.0106,-0.0088,0.0003,-1.44,0.26,-30.99,0,0.009,0.003,-0.204,0.153,0.004,-0.028,1.003,0.000,0.000,0.000
13,-0.1412,0.2945,0.0067,-0.0056,-0.0100,-0.0062,-1.54,0.27,-30.96,0,0.009,0.002,-0.339,-0.435,0.005,-0.030,1.002,0.000,0.000,0.000
13,-0.1415,0.2970,0.0067,-0.0071,0.0035,-0.0059,-1.51,0.26,-30.93,0,0.009,0.108,-0.192,-0.124,0.003,-0.029,1.003,0.000,0.000,0.000
13,-0.1416,0.2970,0.0066,-0.0073,0.0035,-0.0058,-1.49,0.26,-30.90,0,0.009,-0.094,-0.154,-0.289,0.005,-0.027,1.003,0.000,0.000,0.000
13,-0.1405,0.2993,0.0065,-0.0012,0.0155,-0.0059,-1.57,0.26,-30.87,0,0.009,-0.108,-0.181,0.227,0.003,-0.028,1.003,0.000,0.000,0.000
13,-0.1406,0.2986,0.0075,-0.0021,0.0109,0.0001,-1.48,0.26,-30.84,0,0.009,-0.149,-0.340,-0.077,0.001,-0.027,1.001,0.000,0.000,0.000
13,-0.1407,0.2984,0.0076,-0.0028,0.0092,0.0004,-1.51,0.26,-30.81,0,0.009,-0.003,-0.420,0.113,0.002,-0.028,1.001,0.000,0.000,0.000
13,-0.1400,0.3001,0.0075,0.0011,0.0173,0.0005,-1.50,0.26,-30.78,0,0.009,-0.140,0.018,0.194,0.004,-0.027,1.002,0.000,0.000,0.000
13,-0.1409,0.2985,0.0076,-0.0041,0.0081,0.0012,-1.59,0.26,-30.75,0,0.009,0.167,-0.112,0.094,0.004,-0.029,1.003,0.000,0.000,0.000
13,-0.1406,0.2991,0.0076,-0.0021,0.0106,0.0015,-1.46,0.26,-30.72,0,0.009,0.021,-0.179,0.242,0.003,-0.029,1.002,0.000,0.000,0.000
13,-0.1405,0.2993,0.0076,-0.0016,0.0111,0.0019,-1.48,0.23,-30.69,0,0.008,0.158,-0.430,-0.133,0.002,-0.028,1.004,0.000,0.000,0.000
13,-0.1393,0.3012,0.0082,0.0042,0.0208,0.0048,-1.46,0.25,-30.66,0,0.008,-0.023,-0.350,0.068,0.004,-0.026,1.002,0.000,0.000,0.000
13,-0.1408,0.2987,0.0084,-0.0040,0.0068,0.0056,-1.44,0.25,-30.62,0,0.008,-0.071,-0.352,-0.192,0.004,-0.030,1.002,0.000,0.000,0.000
14,-0.1400,0.2987,0.0084,0.0003,0.0065,0.0058,-1.46,0.23,-30.60,0,0.008,0.047,-0.082,-0.109,0.002,-0.029,1.005,0.000,0.000,0.000
14,-0.1406,0.2986,0.0085,-0.0030,0.0051,0.0062,-1.51,0.26,-30.57,0,0.008,-0.084,-0.450,-0.269,0.005,-0.026,1.002,0.000,0.000,0.000
14,-0.1407,0.2984,0.0083,-0.0038,0.0036,0.0052,-1.47,0.23,-30.54,0,0.008,0.153,0.144,0.070,0.005,-0.025,1.002,0.000,0.000,0.000
14,-0.1401,0.2986,0.0084,-0.0008,0.0041,0.0056,-1.43,0.26,-30.51,0,0.007,0.034,-0.271,0.025,0.001,-0.026,1.002,0.000,0.000,0.000
14,-0.1400,0.3000,0.0084,-0.0003,0.0115,0.0058,-1.50,0.25,-30.48,0,0.007,-0.131,-0.281,-0.139,0.002,-0.027,1.000,0.000,0.000,0.000
14,-0.1399,0.2989,0.0085,0.0002,0.0049,0.0063,-1.50,0.27,-30.45,0,0.007,0.001,-0.388,-0.076,0.003,-0.027,1.002,0.000,0.000,0.000
14,-0.1409,0.2985,0.0086,-0.0054,0.0023,0.0067,-1.49,0.30,-30.42,0,0.007,-0.305,-0.140,0.214,0.003,-0.028,1.002,0.000,0.000,0.000
14,-0.1399,0.2999,0.0087,0.0004,0.0094,0.0070,-1.46,0.27,-30.39,0,0.008,0.002,-0.174,-0.010,0.003,-0.028,1.002,0.000,0.000,0.000
14,-0.1403,0.3001,0.0080,-0.0015,0.0100,0.0036,-1.41,0.26,-30.36,0,0.008,0.004,-0.275,-0.149,0.005,-0.027,1.000,0.000,0.000,0.000
14,-0.1411,0.3003,0.0080,-0.0062,0.0110,0.0038,-1.41,0.25,-30.33,0,0.008,0.041,-0.256,0.028,0.004,-0.027,1.001,0.000,0.000,0.000
14,-0.1408,0.2997,0.0081,-0.0044,0.0068,0.0040,-1.41,0.22,-30.30,0,0.008,-0.028,0.062,-0.114,0.003,-0.027,1.002,0.000,0.000,0.000
14,-0.1411,0.2986,0.0081,-0.0064,0.0009,0.0043,-1.43,0.22,-30.27,0,0.008,-0.020,-0.213,0.262,0.002,-0.026,1.001,0.000,0.000,0.000
14,-0.1409,0.2985,0.0081,-0.0054,0.0001,0.0041,-1.41,0.25,-30.23,0,0.008,-0.204,0.182,0.224,0.004,-0.028,1.001,0.000,0.000,0.000
14,-0.1404,0.2982,0.0082,-0.0024,-0.0019,0.0043,-1.41,0.24,-30.20,0,0.011,-0.101,-0.164,-0.033,0.003,-0.028,1.005,0.000,0.000,0.000
14,-0.1402,0.2986,0.0082,-0.0013,-0.0001,0.0044,-1.40,0.24,-30.17,0,0.011,-0.256,-0.131,0.099,0.004,-0.028,1.003,0.000,0.000,0.000
14,-0.1410,0.2985,0.0083,-0.0054,-0.0006,0.0045,-1.42,0.22,-30.14,0,0.011,-0.110,-0.007,-0.062,0.003,-0.026,1.003,0.000,0.000,0.000
14,-0.1408,0.2984,0.0083,-0.0043,-0.0012,0.0048,-1.42,0.23,-30.11,0,0.011,-0.163,-0.419,-0.162,0.003,-0.026,1.002,0.000,0.000,0.000
14,-0.1409,0.2982,0.0083,-0.0049,-0.0022,0.0050,-1.42,0.25,-30.08,0,0.007,-0.081,-0.330,-0.119,0.003,-0.028,1.002,0.000,0.000,0.000
14,-0.1404,0.2983,0.0096,-0.0021,-0.0023,0.0111,-1.44,0.26,-30.06,0,0.007,-0.030,0.025,0.035,0.002,-0.027,0.999,0.000,0.000,0.000
15,-0.1406,0.2984,0.0097,-0.0032,-0.0017,0.0115,-1.42,0.26,-30.03,0,0.007,0.129,0.033,0.009,0.002,-0.028,1.002,0.000,0.000,0.000
15,-0.1410,0.2986,0.0098,-0.0053,-0.0006,0.0119,-1.42,0.22,-30.00,0,0.007,-0.088,-0.445,0.031,0.005,-0.027,1.001,0.000,0.000,0.000
15,-0.1409,0.2990,0.0099,-0.0050,0.0020,0.0121,-1.42,0.26,-30.00,0,0.007,0.043,0.105,-0.234,0.003,-0.027,0.999,0.000,0.000,0.000
15,-0.1411,0.2987,0.0088,-0.0062,-0.0003,0.0055,-1.43,0.22,-29.97,0,0.007,-0.110,-0.317,0.311,0.001,-0.028,1.000,0.000,0.000,0.000
15,-0.1404,0.2983,0.0088,-0.0021,-0.0027,0.0057,-1.46,0.29,-29.94,0,0.010,0.189,0.074,-0.116,0.003,-0.027,1.001,0.000,0.000,0.000
15,-0.1411,0.2987,0.0089,-0.0063,-0.0004,0.0057,-1.50,0.23,-29.91,0,0.010,0.085,-0.054,0.036,0.003,-0.027,1.002,0.000,0.000,0.000
15,-0.1403,0.2984,0.0090,-0.0018,-0.0018,0.0060,-1.50,0.28,-29.88,0,0.010,0.060,-0.248,-0.048,0.004,-0.027,1.002,0.000,0.000,0.000
15,-0.1415,0.2998,0.0090,-0.0079,0.0056,0.0061,-1.44,0.26,-29.85,0,0.010,0.196,-0.105,-0.029,0.005,-0.029,1.003,0.000,0.000,0.000
15,-0.1400,0.2999,0.0091,0.0005,0.0057,0.0062,-1.41,0.24,-29.82,0,0.008,-0.053,-0.131,0.102,0.002,-0.029,1.004,0.000,0.000,0.000
15,-0.1408,0.3006,0.0096,-0.0042,0.0093,0.0082,-1.41,0.25,-29.79,0,0.008,-0.130,-0.356,-0.234,0.002,-0.028,1.001,0.000,0.000,0.000
15,-0.1410,0.2993,0.0097,-0.0056,0.0017,0.0085,-1.41,0.23,-29.76,0,0.008,-0.241,0.080,-0.154,0.003,-0.027,1.003,0.000,0.000,0.000
15,-0.1410,0.2986,0.0098,-0.0052,-0.0025,0.0087,-1.42,0.24,-29.73,0,0.008,0.108,-0.236,-0.104,0.004,-0.027,1.002,0.000,0.000,0.000
15,-0.1412,0.2987,0.0098,-0.0061,-0.0020,0.0090,-1.46,0.26,-29.70,0,0.008,-0.375,-0.192,0.010,0.002,-0.027,1.003,0.000,0.000,0.000
15,-0.1408,0.2985,0.0091,-0.0040,-0.0035,0.0050,-1.49,0.26,-29.67,0,0.008,0.015,-0.074,0.293,0.002,-0.027,1.002,0.000,0.000,0.000
15,-0.1410,0.2986,0.0092,-0.0051,-0.0030,0.0054,-1.43,0.25,-29.64,0,0.007,-0.035,0.101,-0.075,0.003,-0.025,1.004,0.000,0.000,0.000
15,-0.1408,0.2997,0.0092,-0.0043,0.0031,0.0055,-1.41,0.20,-29.61,0,0.007,-0.112,-0.243,-0.107,0.004,-0.025,1.001,0.000,0.000,0.000
15,-0.1405,0.3002,0.0093,-0.0026,0.0059,0.0058,-1.41,0.19,-29.59,0,0.007,0.071,-0.269,-0.068,0.002,-0.028,1.002,0.000,0.000,0.000
15,-0.1411,0.2989,0.0094,-0.0055,-0.0018,0.0061,-1.42,0.24,-29.56,0,0.007,-0.139,-0.220,-0.074,0.004,-0.028,1.005,0.000,0.000,0.000
16,-0.1404,0.2980,0.0094,-0.0017,-0.0065,0.0064,-1.49,0.26,-29.53,0,0.009,-0.153,-0.167,0.032,0.004,-0.026,0.999,0.000,0.000,0.000
16,-0.1402,0.2979,0.0084,-0.0009,-0.0069,0.0014,-1.49,0.26,-29.50,0,0.009,0.186,0.088,0.026,0.004,-0.027,1.001,0.000,0.000,0.000
16,-0.1410,0.2986,0.0085,-0.0053,-0.0028,0.0018,-1.44,0.25,-29.47,0,0.009,-0.183,0.071,-0.002,0.003,-0.026,1.004,0.000,0.000,0.000
16,-0.1406,0.3002,0.0085,-0.0026,0.0063,0.0020,-1.49,0.26,-29.44,0,0.009,-0.082,-0.042,-0.252,0.002,-0.029,1.002,0.000,0.000,0.000
16,-0.1406,0.3003,0.0085,-0.0030,0.0062,0.0023,-1.42,0.23,-29.41,0,0.009,0.053,-0.165,-0.491,0.003,-0.027,1.001,0.000,0.000,0.000
16,-0.1409,0.2992,0.0087,-0.0048,0.0001,0.0038,-1.49,0.24,-29.38,0,0.009,-0.032,-0.260,-0.016,0.005,-0.027,1.002,0.000,0.000,0.000
16,-0.1406,0.3003,0.0088,-0.0028,0.0058,0.0037,-1.41,0.24,-29.36,0,0.004,0.137,-0.011,0.063,0.005,-0.028,1.005,0.000,0.000,0.000
16,-0.1408,0.2987,0.0088,-0.0037,-0.0034,0.0040,-1.41,0.21,-29.33,0,0.004,0.101,-0.106,0.052,0.006,-0.029,1.002,0.000,0.000,0.000
16,-0.1402,0.3001,0.0089,-0.0006,0.0044,0.0044,-1.49,0.28,-29.30,0,0.004,-0.063,-0.296,0.296,0.004,-0.029,1.001,0.000,0.000,0.000
16,-0.1412,0.2987,0.0089,-0.0065,-0.0035,0.0048,-1.60,0.23,-29.27,0,0.004,0.123,-0.188,-0.017,0.002,-0.030,1.004,0.000,0.000,0.000
16,-0.1405,0.2983,0.0090,-0.0024,-0.0058,0.0050,-1.58,0.33,-29.24,0,0.014,-0.001,-0.165,-0.043,0.002,-0.028,1.003,0.000,0.000,0.000
16,-0.1412,0.3005,0.0069,-0.0059,0.0067,-0.0056,-1.62,0.32,-29.21,0,0.014,0.044,-0.144,-0.279,0.003,-0.028,0.999,0.000,0.000,0.000
16,-0.1390,0.3023,0.0068,0.0061,0.0154,-0.0053,-1.58,0.33,-29.19,0,0.014,-0.275,-0.249,0.135,-0.000,-0.026,1.001,0.000,0.000,0.000
16,-0.1410,0.3031,0.0068,-0.0049,0.0191,-0.0050,-1.63,0.32,-29.16,0,0.014,0.044,-0.291,0.314,0.000,-0.026,0.999,0.000,0.000,0.000
16,-0.1403,0.3042,0.0067,-0.0015,0.0240,-0.0052,-1.63,0.17,-29.13,0,0.014,-0.026,-0.169,-0.024,0.003,-0.027,0.998,0.000,0.000,0.000
16,-0.1409,0.3037,0.0097,-0.0049,0.0198,0.0113,-1.54,0.31,-29.10,0,0.014,0.048,-0.406,-0.253,0.006,-0.027,1.001,0.000,0.000,0.000
16,-0.1403,0.3048,0.0098,-0.0015,0.0249,0.0114,-1.59,0.26,-29.07,0,0.009,0.259,-0.109,-0.151,0.003,-0.026,0.999,0.000,0.000,0.000
16,-0.1371,0.3035,0.0100,0.0159,0.0166,0.0117,-1.58,0.23,-29.05,0,0.009,0.131,-0.113,-0.079,0.004,-0.026,1.003,0.000,0.000,0.000
16,-0.1408,0.3034,0.0102,-0.0049,0.0154,0.0127,-1.57,0.31,-29.02,0,0.009,-0.126,-0.327,-0.328,0.004,-0.026,1.002,0.000,0.000,0.000
17,-0.1392,0.3040,0.0104,0.0034,0.0180,0.0128,-1.60,0.40,-28.99,0,0.009,0.017,0.027,-0.037,0.005,-0.025,1.000,0.000,0.000,0.000
17,-0.1387,0.3037,0.0105,0.0060,0.0153,0.0130,-1.57,0.36,-28.96,0,0.007,-0.023,-0.252,-0.179,0.006,-0.026,1.002,0.000,0.000,0.000
17,-0.1402,0.3045,0.0100,-0.0026,0.0188,0.0099,-1.57,0.37,-28.93,0,0.007,-0.212,0.212,-0.016,0.004,-0.029,1.002,0.000,0.000,0.000
17,-0.1416,0.3062,0.0100,-0.0107,0.0276,0.0097,-1.54,0.36,-28.90,0,0.007,-0.278,-0.461,0.187,0.001,-0.028,1.000,0.000,0.000,0.000
17,-0.1412,0.3055,0.0102,-0.0084,0.0224,0.0104,-1.54,0.36,-28.87,0,0.007,0.166,-0.337,0.146,0.003,-0.030,1.007,0.000,0.000,0.000
17,-0.1416,0.3058,0.0103,-0.0101,0.0225,0.0106,-1.57,0.40,-28.84,0,0.007,-0.179,-0.120,-0.095,0.002,-0.028,1.005,0.000,0.000,0.000
17,-0.1418,0.3053,0.0090,-0.0109,0.0191,0.0031,-1.53,0.33,-28.81,0,0.007,0.015,-0.469,0.053,0.005,-0.028,0.997,0.000,0.000,0.000
17,-0.1419,0.3055,0.0090,-0.0110,0.0191,0.0034,-1.52,0.35,-28.79,0,0.007,0.078,-0.191,-0.123,0.006,-0.024,1.004,0.000,0.000,0.000
17,-0.1425,0.3068,0.0090,-0.0137,0.0253,0.0034,-1.54,0.35,-28.76,0,0.007,0.133,-0.246,-0.131,0.002,-0.024,1.004,0.000,0.000,0.000
17,-0.1416,0.3053,0.0091,-0.0084,0.0157,0.0040,-1.57,0.30,-28.73,0,0.007,-0.093,-0.085,-0.235,0.004,-0.026,0.999,0.000,0.000,0.000
17,-0.1421,0.3056,0.0092,-0.0115,0.0165,0.0046,-1.50,0.31,-28.71,0,0.007,-0.222,-0.277,-0.138,0.002,-0.028,1.002,0.000,0.000,0.000
17,-0.1420,0.3063,0.0092,-0.0105,0.0193,0.0049,-1.50,0.34,-28.68,0,0.008,-0.087,-0.365,-0.111,0.002,-0.026,1.004,0.000,0.000,0.000
17,-0.1407,0.3063,0.0083,-0.0031,0.0182,-0.0001,-1.50,0.32,-28.65,0,0.008,-0.065,-0.094,-0.014,0.002,-0.029,0.999,0.000,0.000,0.000
17,-0.1417,0.3054,0.0083,-0.0082,0.0123,0.0006,-1.53,0.36,-28.62,0,0.008,0.102,-0.213,0.015,0.004,-0.027,0.999,0.000,0.000,0.000
17,-0.1423,0.3057,0.0083,-0.0111,0.0137,0.0009,-1.48,0.30,-28.59,0,0.008,-0.167,-0.404,0.301,0.003,-0.026,1.006,0.000,0.000,0.000
17,-0.1419,0.3055,0.0084,-0.0086,0.0119,0.0010,-1.51,0.30,-28.56,0,0.008,-0.054,-0.363,-0.000,0.004,-0.027,1.002,0.000,0.000,0.000
17,-0.1424,0.3067,0.0082,-0.0114,0.0181,0.0003,-1.48,0.30,-28.53,0,0.008,-0.087,-0.379,-0.257,0.004,-0.028,1.000,0.000,0.000,0.000
17,-0.1419,0.3054,0.0082,-0.0083,0.0104,0.0009,-1.49,0.30,-28.51,0,0.007,-0.049,0.160,-0.045,0.003,-0.027,1.006,0.000,0.000,0.000
17,-0.1416,0.3060,0.0082,-0.0065,0.0128,0.0007,-1.47,0.26,-28.48,0,0.007,-0.182,0.090,0.032,0.001,-0.027,1.002,0.000,0.000,0.000
18,-0.1419,0.3054,0.0083,-0.0080,0.0091,0.0009,-1.37,0.16,-28.45,0,0.007,-0.216,-0.394,0.059,0.002,-0.025,1.000,0.000,0.000,0.000
18,-0.1419,0.3059,0.0083,-0.0077,0.0112,0.0014,-1.34,0.19,-28.43,0,0.007,-0.221,-0.596,0.185,0.005,-0.028,1.001,0.000,0.000,0.000
18,-0.1413,0.3051,0.0083,-0.0045,0.0063,0.0017,-1.41,0.26,-28.40,0,0.007,-0.091,-0.158,0.031,0.003,-0.027,1.002,0.000,0.000,0.000
18,-0.1404,0.3020,0.0078,0.0007,-0.0114,-0.0009,-1.36,0.18,-28.37,0,0.007,-0.098,-0.374,-0.141,0.003,-0.027,0.999,0.000,0.000,0.000
18,-0.1414,0.3015,0.0077,-0.0047,-0.0134,-0.0004,-1.41,0.25,-28.34,0,0.007,0.062,-0.241,-0.285,0.004,-0.028,1.002,0.000,0.000,0.000
18,-0.1420,0.3035,0.0078,-0.0081,-0.0019,0.0001,-1.28,0.18,-28.31,0,0.007,-0.140,-0.248,-0.261,0.003,-0.026,1.005,0.000,0.000,0.000
18,-0.1410,0.3018,0.0078,-0.0026,-0.0112,0.0002,0.00,0.00,0.00,0,0.007,-0.148,-0.108,-0.059,0.003,-0.027,1.000,0.000,0.000,0.000
18,-0.1418,0.3034,0.0075,-0.0068,-0.0022,-0.0014,0.00,0.00,0.00,0,0.007,-0.172,-0.082,-0.101,0.003,-0.029,1.002,0.000,0.000,0.000
18,0.0000,0.0000,0.0000,0.0000,0.0000,0.0000,-0.00,0.00,-0.00,0,0.009,-0.066,-0.430,-0.267,0.002,-0.030,1.002,0.000,0.000,0.000
18,0.0000,-0.0001,-0.0000,0.0026,-0.0139,-0.0001,-0.02,0.06,-0.00,0,0.009,-0.237,-0.390,-0.114,0.001,-0.026,0.999,0.000,0.000,0.000
18,0.0001,-0.0003,-0.2286,0.0036,-0.0167,0.0002,-0.11,0.10,-0.00,0,0.009,0.170,-0.168,-0.268,0.002,-0.028,1.000,0.000,0.000,0.000
18,0.0001,-0.0004,-0.0997,0.0041,-0.0193,0.0006,0.04,-0.01,-0.01,0,0.009,0.276,-0.220,-0.219,0.003,-0.027,1.003,0.000,0.000,0.000
18,0.0000,-0.0007,0.2352,0.0013,-0.0233,0.0007,-0.04,0.10,-0.01,0,0.006,-0.405,-0.333,0.025,0.005,-0.024,1.001,0.000,0.000,0.000
18,-0.0001,-0.0006,0.0091,-0.0011,-0.0191,0.0009,0.09,0.02,-0.01,0,0.006,-0.012,-0.173,0.098,0.005,-0.026,1.001,0.000,0.000,0.000
18,0.0002,-0.0012,0.0090,0.0041,-0.0282,0.0009,-0.13,-0.01,-0.01,0,0.006,-0.235,-0.216,-0.026,0.004,-0.028,1.002,0.000,0.000,0.000
18,-0.0000,-0.0013,0.0091,-0.0001,-0.0277,0.0008,-0.13,-0.01,-0.01,0,0.006,0.113,-0.319,-0.137,0.004,-0.027,1.002,0.000,0.000,0.000
18,0.0002,-0.0019,0.0090,0.0027,-0.0354,0.0008,-0.26,-0.04,-0.01,0,0.006,0.166,-0.296,0.020,0.004,-0.027,0.999,0.000,0.000,0.000
18,0.0003,-0.0017,0.0075,0.0043,-0.0297,-0.0004,-0.28,-0.02,-0.00,0,0.006,-0.234,-0.173,0.017,0.002,-0.027,1.001,0.000,0.000,0.000
19,0.0003,-0.0020,0.0075,0.0048,-0.0319,-0.0003,-0.28,-0.02,-0.00,0,0.007,-0.279,0.029,0.045,0.003,-0.027,1.003,0.000,0.000,0.000
19,0.0005,-0.0020,0.0076,0.0066,-0.0299,-0.0001,0.13,-0.22,-0.00,0,0.007,-0.105,-0.289,-0.091,0.004,-0.029,1.000,0.000,0.000,0.000
19,0.0005,-0.0023,0.0076,0.0065,-0.0314,0.0002,0.11,-0.18,-0.00,0,0.007,-0.159,-0.072,-0.044,0.003,-0.028,1.001,0.000,0.000,0.000
19,0.0005,-0.0026,0.0076,0.0069,-0.0336,0.0004,-0.53,-0.14,-0.00,0,0.007,-0.230,-0.289,-0.058,0.004,-0.028,1.005,0.000,0.000,0.000
19,0.0012,-0.0042,0.0075,0.0147,-0.0508,-0.0004,-0.51,0.06,-0.01,0,0.009,0.163,-0.427,-0.023,0.007,-0.027,1.003,0.000,0.000,0.000
19,0.0012,-0.0046,0.0073,0.0138,-0.0528,-0.0009,-0.76,-0.08,-0.00,0,0.009,-0.387,-0.021,-0.081,0.006,-0.027,1.002,0.000,0.000,0.000
19,0.0013,-0.0031,0.0074,0.0130,-0.0315,0.0005,-0.93,0.16,-0.00,0,0.009,-0.073,-0.127,0.305,0.005,-0.028,1.003,0.000,0.000,0.000
19,0.0007,-0.0035,0.0074,0.0060,-0.0344,0.0005,-0.78,0.17,-0.00,0,0.009,0.038,-0.222,-0.318,0.007,-0.028,1.004,0.000,0.000,0.000
19,0.0013,-0.0029,0.0075,0.0119,-0.0266,0.0010,-0.85,0.08,-0.01,0,0.009,-0.174,-0.211,0.151,0.004,-0.024,1.002,0.000,0.000,0.000
19,0.0005,-0.0025,0.0081,0.0027,-0.0209,0.0045,-0.85,0.08,-0.01,0,0.009,-0.044,-0.219,0.122,0.004,-0.027,1.002,0.000,0.000,0.000
19,0.0005,-0.0034,0.0082,0.0027,-0.0283,0.0048,-1.02,0.15,-0.01,0,0.007,-0.140,-0.324,0.034,0.006,-0.027,1.005,0.000,0.000,0.000
19,0.0009,-0.0034,0.0082,0.0070,-0.0267,0.0051,-1.07,-0.03,-0.01,0,0.007,0.066,-0.211,0.162,0.004,-0.026,1.001,0.000,0.000,0.000
19,0.0010,-0.0037,0.0083,0.0074,-0.0280,0.0054,-1.40,0.43,-0.00,0,0.007,0.184,-0.019,0.098,0.003,-0.026,0.999,0.000,0.000,0.000
19,0.0007,-0.0031,0.0083,0.0047,-0.0214,0.0060,-1.22,0.23,-0.00,0,0.007,-0.027,-0.102,-0.215,0.004,-0.025,1.006,0.000,0.000,0.000
19,0.0017,-0.0031,0.0078,0.0133,-0.0197,0.0025,-1.12,0.07,-0.01,0,0.007,-0.112,-0.371,-0.229,0.005,-0.025,1.002,0.000,0.000,0.000
19,-0.0006,-0.0015,0.0079,-0.0077,-0.0050,0.0029,-1.12,0.07,-0.01,0,0.007,0.121,-0.265,0.224,0.004,-0.027,0.999,0.000,0.000,0.000
19,0.0004,-0.0025,0.0079,0.0016,-0.0134,0.0037,-1.43,0.31,-0.00,0,0.007,-0.193,-0.097,-0.273,0.005,-0.027,1.005,0.000,0.000,0.000
19,0.0014,-0.0033,0.0080,0.0099,-0.0189,0.0037,-1.10,0.23,-0.01,0,0.007,-0.067,-0.398,0.110,0.002,-0.025,1.002,0.000,0.000,0.000
19,0.0015,-0.0034,0.0080,0.0102,-0.0194,0.0038,-1.34,0.23,-0.01,0,0.007,-0.119,0.025,-0.123,0.003,-0.025,0.999,0.000,0.000,0.000
20,0.0001,-0.0017,0.0076,-0.0020,-0.0042,0.0020,-1.31,0.12,-0.01,0,0.007,-0.097,-0.216,0.014,0.004,-0.025,1.001,0.000,0.000,0.000
20,0.0007,-0.0039,0.0077,0.0025,-0.0214,0.0023,-1.33,0.36,-0.01,0,0.008,0.328,-0.141,-0.153,0.003,-0.029,1.001,0.000,0.000,0.000
20,0.0007,-0.0025,0.0077,0.0023,-0.0094,0.0025,-1.24,0.29,-0.01,0,0.008,0.248,-0.179,0.029,0.002,-0.029,1.001,0.000,0.000,0.000
20,0.0015,-0.0027,0.0078,0.0084,-0.0108,0.0030,-1.20,0.15,-0.01,0,0.008,-0.077,-0.271,-0.115,0.004,-0.028,1.001,0.000,0.000,0.000
20,-0.0002,-0.0027,0.0078,-0.0048,-0.0099,0.0032,-1.42,0.26,-0.01,0,0.008,-0.303,-0.245,0.240,0.002,-0.026,0.999,0.000,0.000,0.000
20,0.0004,-0.0035,0.0078,-0.0006,-0.0152,0.0033,-1.43,0.20,-0.00,0,0.007,-0.189,-0.071,0.097,0.003,-0.029,1.000,0.000,0.000,0.000
20,0.0014,-0.0040,0.0080,0.0071,-0.0181,0.0038,-1.53,0.33,-0.00,0,0.007,0.124,-0.044,-0.291,0.004,-0.027,1.005,0.000,0.000,0.000
20,0.0006,-0.0023,0.0080,0.0006,-0.0056,0.0041,-1.53,0.33,-0.01,0,0.007,0.158,-0.393,-0.213,0.006,-0.027,1.001,0.000,0.000,0.000
20,0.0011,-0.0023,0.0081,0.0042,-0.0055,0.0042,-1.52,0.51,-0.01,0,0.007,0.118,-0.177,-0.317,0.004,-0.029,0.999,0.000,0.000,0.000
20,0.0001,-0.0015,0.0081,-0.0036,0.0003,0.0043,-1.43,0.28,-0.01,0,0.007,0.040,-0.195,0.081,0.002,-0.027,1.003,0.000,0.000,0.000
20,0.0000,-0.0015,0.0077,-0.0039,0.0003,0.0017,-1.41,0.17,-0.01,0,0.007,-0.009,-0.419,-0.096,0.001,-0.027,1.002,0.000,0.000,0.000
20,-0.0017,-0.0015,0.0077,-0.0156,0.0001,0.0018,-1.45,0.32,-0.01,0,0.008,-0.093,-0.150,0.192,0.003,-0.026,1.000,0.000,0.000,0.000
20,0.0004,-0.0023,0.0077,-0.0012,-0.0057,0.0026,-1.37,0.32,-0.01,0,0.008,-0.015,0.017,0.015,0.006,-0.026,1.002,0.000,0.000,0.000
20,0.0015,-0.0026,0.0078,0.0063,-0.0073,0.0027,-1.33,0.19,-0.01,0,0.008,-0.123,-0.061,0.109,0.006,-0.026,1.004,0.000,0.000,0.000
20,0.0000,-0.0023,0.0078,-0.0033,-0.0051,0.0028,-1.42,0.29,-0.01,0,0.008,-0.087,-0.285,0.019,0.003,-0.027,1.001,0.000,0.000,0.000
20,0.0001,-0.0031,0.0079,-0.0034,-0.0102,0.0031,-1.42,0.30,-0.01,0,0.008,0.261,-0.010,-0.110,0.003,-0.027,1.002,0.000,0.000,0.000
20,0.0014,-0.0036,0.0080,0.0052,-0.0131,0.0037,-1.45,0.30,-0.01,0,0.008,-0.032,-0.136,-0.150,0.004,-0.027,1.003,0.000,0.000,0.000
20,0.0003,-0.0027,0.0080,-0.0022,-0.0071,0.0038,-1.48,0.29,-0.01,0,0.008,-0.003,-0.014,0.066,0.005,-0.026,1.003,0.000,0.000,0.000
21,0.0003,-0.0028,0.0081,-0.0021,-0.0072,0.0042,-1.46,0.39,-0.01,0,0.008,0.111,-0.208,-0.249,0.003,-0.026,1.001,0.000,0.000,0.000
21,0.0003,-0.0025,0.0081,-0.0019,-0.0049,0.0044,-1.49,0.26,-0.01,0,0.008,0.020,-0.289,0.059,0.005,-0.029,1.002,0.000,0.000,0.000
31,0.0003,-0.0022,0.0081,-0.0020,-0.0028,0.0043,-1.57,0.31,-0.01,0,0.008,-0.053,-0.109,0.171,0.004,-0.030,1.003,0.000,0.000,0.000
41,-0.0008,-0.0025,0.0081,-0.0089,-0.0045,0.0046,-1.57,0.31,-0.01,0,0.007,0.109,-0.224,0.113,0.005,-0.027,1.002,0.000,0.000,0.000
50,0.0006,-0.0021,0.0082,-0.0000,-0.0025,0.0051,-1.57,0.40,-0.01,0,0.007,-0.055,-0.200,0.051,0.003,-0.026,1.001,0.000,0.000,0.000
60,0.0001,-0.0010,0.0083,-0.0034,0.0044,0.0053,-1.44,0.32,-0.01,0,0.007,-0.024,-0.122,0.027,0.003,-0.026,1.002,0.000,0.000,0.000
70,0.0000,-0.0010,0.0083,-0.0035,0.0044,0.0054,-1.44,0.28,-0.01,0,0.007,0.047,-0.191,-0.116,0.005,-0.028,1.002,0.000,0.000,0.000
80,-0.0012,-0.0010,0.0084,-0.0103,0.0040,0.0056,-1.42,0.22,-0.01,0,0.008,-0.237,-0.436,-0.077,0.003,-0.027,1.004,0.000,0.000,0.000
90,-0.0002,-0.0028,0.0078,-0.0046,-0.0067,0.0030,-1.41,0.23,-0.01,0,0.008,-0.064,-0.277,-0.315,0.004,-0.027,1.003,0.000,0.000,0.000
101,0.0003,-0.0027,0.0079,-0.0011,-0.0064,0.0033,-1.40,0.27,-0.01,0,0.008,-0.361,0.075,0.068,0.003,-0.028,1.002,0.000,0.000,0.000
111,0.0012,-0.0030,0.0079,0.0036,-0.0076,0.0035,-1.45,0.24,-0.01,0,0.008,-0.023,0.153,0.157,0.003,-0.026,1.002,0.000,0.000,0.000
120,0.0012,-0.0033,0.0079,0.0033,-0.0088,0.0037,-1.50,0.31,-0.01,0,0.008,0.080,-0.209,0.028,0.003,-0.028,1.002,0.000,0.000,0.000
131,0.0006,-0.0035,0.0080,-0.0001,-0.0099,0.0042,-1.56,0.34,-0.00,0,0.008,-0.206,0.133,-0.013,0.004,-0.027,1.002,0.000,0.000,0.000
141,0.0012,-0.0029,0.0080,0.0028,-0.0063,0.0046,-1.55,0.34,-0.01,0,0.006,0.068,-0.343,0.142,0.004,-0.027,1.002,0.000,0.000,0.000
150,0.0000,-0.0021,0.0081,-0.0035,-0.0014,0.0049,-1.41,0.25,-0.00,0,0.006,0.030,-0.094,-0.196,0.002,-0.027,1.002,0.000,0.000,0.000
161,-0.0005,-0.0012,0.0081,-0.0066,0.0032,0.0051,-1.57,0.25,-0.00,0,0.006,-0.170,-0.156,0.159,0.003,-0.028,1.002,0.000,0.000,0.000
171,-0.0006,-0.0012,0.0082,-0.0069,0.0032,0.0054,-1.52,0.31,-0.00,0,0.006,-0.053,-0.083,-0.261,0.002,-0.027,1.001,0.000,0.000,0.000
181,0.0009,-0.0035,0.0083,0.0015,-0.0101,0.0059,-1.52,0.31,-0.01,0,0.006,0.201,-0.189,0.280,0.003,-0.025,1.001,0.000,0.000,0.000
191,0.0009,-0.0009,0.0073,0.0013,0.0046,0.0009,-1.45,0.24,-0.00,0,0.006,-0.295,-0.286,-0.039,0.006,-0.025,1.002,0.000,0.000,0.000
200,0.0000,-0.0018,0.0074,-0.0035,-0.0003,0.0012,-1.44,0.28,-0.00,0,0.006,-0.090,-0.264,0.031,0.002,-0.025,1.001,0.000,0.000,0.000
211,0.0000,-0.0018,0.0074,-0.0038,-0.0004,0.0014,-1.42,0.23,-0.00,0,0.006,0.237,-0.247,0.127,0.003,-0.028,1.001,0.000,0.000,0.000
221,0.0012,-0.0030,0.0074,0.0026,-0.0069,0.0017,-1.55,0.34,-0.00,0,0.006,-0.313,-0.254,0.055,0.004,-0.030,0.999,0.000,0.000,0.000
231,0.0006,-0.0033,0.0068,-0.0009,-0.0082,-0.0011,-1.52,0.33,-0.00,0,0.006,0.215,-0.016,-0.252,0.004,-0.028,1.002,0.000,0.000,0.000
241,0.0015,-0.0035,0.0068,0.0036,-0.0092,-0.0010,-1.50,0.30,-0.00,0,0.007,0.081,-0.490,0.176,0.003,-0.029,1.001,0.000,0.000,0.000
251,-0.0005,-0.0012,0.0068,-0.0072,0.0036,-0.0007,-1.48,0.31,-0.00,0,0.007,-0.277,-0.072,0.128,0.003,-0.028,1.001,0.000,0.000,0.000
261,-0.0002,-0.0018,0.0068,-0.0057,0.0005,-0.0006,-1.29,0.08,0.00,0,0.007,0.015,-0.176,-0.181,0.004,-0.028,1.001,0.000,0.000,0.000
270,0.0003,-0.0021,0.0068,-0.0027,-0.0012,-0.0005,-1.26,0.07,-0.00,0,0.007,-0.333,0.133,0.025,0.002,-0.028,1.001,0.000,0.000,0.000
281,0.0001,-0.0023,0.0068,-0.0040,-0.0028,-0.0005,-1.24,0.08,-0.00,0,0.009,0.133,-0.237,0.067,0.002,-0.029,1.001,0.000,0.000,0.000
291,0.0044,-0.0062,0.0069,0.0188,-0.0227,0.0002,-1.37,0.18,-0.00,0,0.009,-0.119,-0.056,0.319,0.002,-0.026,1.002,0.000,0.000,0.000
300,0.0049,-0.0069,0.0069,0.0205,-0.0259,0.0002,-1.38,0.39,-0.00,0,0.009,0.202,-0.131,-0.187,0.002,-0.026,1.001,0.000,0.000,0.000
311,0.0049,-0.0076,0.0069,0.0193,-0.0289,0.0003,-1.38,0.35,-0.00,0,0.009,-0.219,-0.092,0.224,0.004,-0.028,1.002,0.000,0.000,0.000
321,0.0032,-0.0052,0.0071,0.0100,-0.0154,0.0014,-1.40,0.34,0.00,0,0.009,-0.323,-0.117,0.039,0.002,-0.028,1.002,0.000,0.000,0.000
331,-0.0010,-0.0051,0.0079,-0.0123,-0.0147,0.0058,-1.43,0.35,0.00,0,0.009,0.099,-0.249,0.225,0.002,-0.028,1.000,0.000,0.000,0.000
340,-0.0002,-0.0053,0.0080,-0.0080,-0.0155,0.0061,-1.40,0.34,0.00,0,0.007,0.064,-0.263,-0.083,0.003,-0.026,1.000,0.000,0.000,0.000
350,-0.0002,-0.0050,0.0081,-0.0079,-0.0133,0.0063,-1.39,0.32,0.00,0,0.007,0.029,-0.254,0.144,0.005,-0.026,1.000,0.000,0.000,0.000
361,-0.0005,-0.0045,0.0082,-0.0091,-0.0102,0.0065,-1.49,0.56,-0.00,0,0.007,-0.232,-0.123,0.202,0.005,-0.026,1.001,0.000,0.000,0.000
370,-0.0002,-0.0052,0.0082,-0.0075,-0.0138,0.0068,-1.55,0.56,0.00,0,0.007,-0.271,0.052,0.369,0.003,-0.030,0.999,0.000,0.000,0.000
381,0.0001,-0.0057,0.0083,-0.0061,-0.0158,0.0069,-1.37,0.41,0.00,0,0.007,-0.005,-0.452,-0.257,0.002,-0.028,1.001,0.000,0.000,0.000
391,-0.0050,-0.0036,0.0078,-0.0318,-0.0048,0.0038,-1.57,0.58,0.00,0,0.007,-0.097,-0.271,0.180,0.004,-0.027,1.002,0.000,0.000,0.000
400,-0.0052,-0.0023,0.0078,-0.0318,0.0019,0.0039,-1.50,0.53,0.00,0,0.007,-0.078,-0.210,0.021,0.006,-0.028,1.002,0.000,0.000,0.000
411,-0.0024,-0.0061,0.0080,-0.0163,-0.0172,0.0051,-1.52,0.50,0.00,0,0.007,0.065,-0.147,-0.039,0.003,-0.028,1.000,0.000,0.000,0.000
420,-0.0061,-0.0021,0.0081,-0.0346,0.0037,0.0050,-1.48,0.43,0.00,0,0.007,-0.088,-0.202,-0.024,0.004,-0.029,1.001,0.000,0.000,0.000
430,-0.0053,-0.0036,0.0077,-0.0295,-0.0042,0.0031,-1.46,0.43,0.00,0,0.007,0.038,-0.221,0.049,0.003,-0.028,1.000,0.000,0.000,0.000
440,-0.0050,-0.0031,0.0078,-0.0271,-0.0016,0.0034,-1.56,0.43,0.01,0,0.010,0.030,0.047,-0.145,0.004,-0.030,1.003,0.000,0.000,0.000
451,-0.0037,-0.0041,0.0079,-0.0197,-0.0065,0.0040,-1.46,0.40,0.01,0,0.010,0.210,-0.321,-0.421,0.005,-0.027,1.003,0.000,0.000,0.000
461,-0.0039,-0.0045,0.0079,-0.0200,-0.0089,0.0041,-1.46,0.43,0.00,0,0.010,0.056,-0.438,0.232,0.004,-0.026,1.000,0.000,0.000,0.000
471,-0.0041,-0.0023,0.0080,-0.0204,0.0024,0.0042,-1.56,0.55,0.00,0,0.010,0.119,-0.019,-0.238,0.006,-0.028,1.000,0.000,0.000,0.000
481,-0.0036,-0.0045,0.0081,-0.0171,-0.0089,0.0046,-1.46,0.39,0.00,0,0.008,-0.236,-0.194,0.281,0.006,-0.028,1.005,0.000,0.000,0.000
490,-0.0043,-0.0045,0.0090,-0.0202,-0.0086,0.0090,-1.56,0.42,0.01,0,0.008,-0.164,-0.154,0.038,0.005,-0.030,1.005,0.000,0.000,0.000
500,-0.0072,-0.0023,0.0090,-0.0340,0.0026,0.0091,-1.49,0.36,0.01,0,0.008,0.134,0.028,-0.181,0.001,-0.030,1.004,0.000,0.000,0.000
510,-0.0038,-0.0044,0.0093,-0.0157,-0.0083,0.0105,-1.56,0.45,0.01,0,0.008,0.169,-0.333,0.103,0.006,-0.028,1.002,0.000,0.000,0.000
520,-0.0048,-0.0023,0.0094,-0.0198,0.0030,0.0105,-1.53,0.44,0.01,0,0.008,0.157,-0.123,-0.033,0.003,-0.026,1.000,0.000,0.000,0.000
530,-0.0035,-0.0040,0.0090,-0.0126,-0.0057,0.0079,-1.56,0.41,0.01,0,0.008,-0.217,-0.359,0.060,0.003,-0.027,1.001,0.000,0.000,0.000
541,-0.0056,-0.0023,0.0091,-0.0229,0.0029,0.0083,-1.54,0.42,0.01,0,0.010,-0.146,-0.064,0.233,0.004,-0.028,1.002,0.000,0.000,0.000
550,-0.0056,-0.0030,0.0092,-0.0220,-0.0011,0.0089,-1.54,0.36,0.01,0,0.010,-0.057,-0.157,0.076,0.006,-0.025,1.001,0.000,0.000,0.000
561,-0.0051,-0.0023,0.0093,-0.0188,0.0024,0.0094,-1.46,0.35,0.01,0,0.010,0.104,-0.389,-0.075,0.005,-0.027,1.001,0.000,0.000,0.000
570,-0.0056,-0.0028,0.0094,-0.0204,-0.0001,0.0096,-1.49,0.41,0.01,0,0.010,-0.078,-0.248,-0.226,0.003,-0.028,1.001,0.000,0.000,0.000
580,-0.0044,-0.0027,0.0097,-0.0137,0.0000,0.0111,-1.53,0.40,0.01,0,0.006,0.122,-0.481,0.010,0.002,-0.027,1.002,0.000,0.000,0.000
590,-0.0042,-0.0044,0.0098,-0.0120,-0.0085,0.0114,-1.57,0.34,0.01,0,0.006,-0.092,-0.086,0.050,0.003,-0.024,1.003,0.000,0.000,0.000
600,-0.0055,-0.0037,0.0100,-0.0188,-0.0045,0.0115,-1.56,0.39,0.01,0,0.006,-0.378,-0.348,0.049,0.003,-0.025,1.003,0.000,0.000,0.000
610,-0.0055,-0.0030,0.0101,-0.0179,-0.0005,0.0117,-1.49,0.35,0.01,0,0.006,-0.194,-0.035,0.208,0.004,-0.029,1.002,0.000,0.000,0.000
620,-0.0043,-0.0020,0.0102,-0.0109,0.0044,0.0120,-1.55,0.35,0.01,0,0.006,0.190,-0.242,0.060,0.003,-0.028,1.001,0.000,0.000,0.000
630,-0.0054,-0.0021,0.0086,-0.0166,0.0039,0.0030,-1.54,0.35,0.01,0,0.006,0.252,0.470,0.006,0.004,-0.026,1.001,0.000,0.000,0.000
640,-0.0047,-0.0037,0.0086,-0.0124,-0.0047,0.0035,-1.55,0.36,0.01,0,0.009,-0.343,-0.127,-0.055,0.005,-0.026,1.001,0.000,0.000,0.000
650,-0.0047,-0.0023,0.0087,-0.0120,0.0031,0.0038,-1.63,0.36,0.01,0,0.009,-0.190,-0.009,-0.116,0.005,-0.029,1.003,0.000,0.000,0.000
660,-0.0049,-0.0025,0.0087,-0.0128,0.0017,0.0041,-1.61,0.31,0.01,0,0.009,0.052,-0.101,-0.134,0.004,-0.030,1.004,0.000,0.000,0.000
671,-0.0052,-0.0023,0.0087,-0.0136,0.0027,0.0042,-1.70,0.33,0.01,0,0.009,-0.241,-0.220,-0.209,0.003,-0.027,1.003,0.000,0.000,0.000
680,-0.0054,-0.0005,0.0088,-0.0142,0.0121,0.0041,-1.97,0.57,0.01,0,0.009,0.166,-0.329,-0.041,0.004,-0.027,1.003,0.000,0.000,0.000
690,-0.0045,-0.0007,0.0089,-0.0089,0.0105,0.0049,-1.94,0.58,0.01,0,0.009,-0.071,-0.152,0.205,0.004,-0.029,1.000,0.000,0.000,0.000
700,-0.0049,0.0016,0.0089,-0.0109,0.0217,0.0048,-1.88,0.49,0.01,0,0.009,-0.200,-0.150,-0.042,0.004,-0.028,1.001,0.000,0.000,0.000
710,-0.0105,0.0081,0.0087,-0.0396,0.0543,0.0029,-1.92,0.47,0.01,0,0.009,-0.070,-0.114,-0.233,0.004,-0.026,1.002,0.000,0.000,0.000
721,-0.0110,0.0080,0.0088,-0.0403,0.0517,0.0037,-1.84,0.45,0.01,0,0.009,-0.138,-0.247,0.154,0.002,-0.027,1.003,0.000,0.000,0.000
730,-0.0094,0.0071,0.0091,-0.0307,0.0450,0.0057,-1.82,0.44,0.01,0,0.009,0.070,-0.387,-0.237,0.004,-0.027,1.002,0.000,0.000,0.000
740,-0.0091,0.0084,0.0091,-0.0282,0.0500,0.0057,-1.84,0.47,0.01,0,0.006,0.009,-0.269,-0.159,0.005,-0.027,1.001,0.000,0.000,0.000
750,-0.0091,0.0073,0.0093,-0.0270,0.0419,0.0065,-1.75,0.43,0.01,0,0.006,-0.006,-0.204,0.161,0.004,-0.027,1.002,0.000,0.000,0.000
760,-0.0091,0.0070,0.0094,-0.0260,0.0390,0.0070,-1.72,0.41,0.01,0,0.006,-0.192,-0.270,-0.050,0.005,-0.026,1.005,0.000,0.000,0.000
770,-0.0100,0.0081,0.0094,-0.0296,0.0431,0.0068,-1.75,0.44,0.01,0,0.006,-0.076,0.064,0.201,0.004,-0.026,1.003,0.000,0.000,0.000
780,-0.0093,0.0065,0.0097,-0.0251,0.0331,0.0083,-1.77,0.45,0.02,0,0.008,-0.141,-0.197,-0.155,0.005,-0.028,1.001,0.000,0.000,0.000
790,-0.0090,0.0060,0.0081,-0.0227,0.0289,0.0002,-1.73,0.39,0.02,0,0.008,-0.154,-0.169,-0.137,0.005,-0.028,1.001,0.000,0.000,0.000
799,-0.0099,0.0071,0.0081,-0.0263,0.0334,0.0002,-1.68,0.38,0.01,0,0.008,-0.108,-0.003,-0.007,0.003,-0.024,1.001,0.000,0.000,0.000
809,-0.0103,0.0077,0.0081,-0.0274,0.0354,0.0004,-1.66,0.37,0.01,0,0.008,-0.194,-0.197,-0.067,0.004,-0.025,1.001,0.000,0.000,0.000
821,-0.0092,0.0073,0.0082,-0.0205,0.0317,0.0015,-1.73,0.44,0.01,0,0.008,-0.064,-0.353,-0.318,0.006,-0.031,1.002,0.000,0.000,0.000
830,-0.0092,0.0063,0.0082,-0.0197,0.0256,0.0016,-1.67,0.35,0.02,0,0.008,-0.142,0.080,0.082,0.003,-0.030,1.000,0.000,0.000,0.000
840,-0.0092,0.0061,0.0082,-0.0188,0.0231,0.0019,-1.66,0.42,0.01,0,0.010,-0.004,-0.329,0.078,0.003,-0.027,1.000,0.000,0.000,0.000
850,-0.0109,0.0081,0.0081,-0.0272,0.0324,0.0016,-1.69,0.36,0.02,0,0.010,0.142,-0.022,-0.021,0.003,-0.028,1.003,0.000,0.000,0.000
860,-0.0091,0.0070,0.0083,-0.0170,0.0256,0.0025,-1.59,0.33,0.02,0,0.010,-0.199,-0.345,0.036,0.004,-0.028,1.002,0.000,0.000,0.000
870,-0.0109,0.0072,0.0083,-0.0253,0.0254,0.0025,-1.66,0.38,0.02,0,0.010,-0.134,0.149,0.348,0.003,-0.028,0.999,0.000,0.000,0.000
880,-0.0096,0.0080,0.0084,-0.0174,0.0285,0.0029,-1.60,0.32,0.02,0,0.006,0.081,-0.264,-0.053,0.004,-0.028,1.001,0.000,0.000,0.000
891,-0.0091,0.0061,0.0092,-0.0147,0.0169,0.0071,-1.59,0.32,0.02,0,0.006,-0.199,-0.042,-0.196,0.003,-0.030,1.003,0.000,0.000,0.000
901,-0.0105,0.0079,0.0092,-0.0210,0.0252,0.0070,-1.56,0.33,0.01,0,0.006,0.121,-0.250,0.096,0.006,-0.028,1.001,0.000,0.000,0.000
910,-0.0091,0.0067,0.0094,-0.0133,0.0183,0.0079,-1.63,0.32,0.02,0,0.006,-0.066,-0.264,0.237,0.004,-0.025,0.999,0.000,0.000,0.000
920,-0.0093,0.0069,0.0095,-0.0135,0.0182,0.0080,-1.62,0.37,0.02,0,0.006,-0.070,-0.148,-0.166,0.005,-0.024,1.002,0.000,0.000,0.000
931,-0.0097,0.0064,0.0081,-0.0152,0.0144,0.0009,-1.55,0.30,0.01,0,0.006,-0.062,-0.301,0.279,0.005,-0.025,1.001,0.000,0.000,0.000
941,-0.0095,0.0082,0.0081,-0.0134,0.0230,0.0010,-1.53,0.32,0.01,0,0.009,0.136,-0.039,0.156,0.003,-0.027,1.002,0.000,0.000,0.000
950,-0.0106,0.0082,0.0081,-0.0187,0.0215,0.0012,-1.52,0.29,0.02,0,0.009,-0.123,-0.319,-0.153,0.003,-0.027,1.001,0.000,0.000,0.000
960,-0.0092,0.0068,0.0082,-0.0107,0.0134,0.0018,-1.50,0.27,0.01,0,0.009,0.162,0.083,-0.313,0.002,-0.028,1.000,0.000,0.000,0.000
970,-0.0096,0.0063,0.0082,-0.0126,0.0105,0.0019,-1.54,0.32,0.01,0,0.009,0.095,-0.436,-0.182,0.003,-0.025,1.001,0.000,0.000,0.000
980,-0.0092,0.0063,0.0082,-0.0095,0.0101,0.0021,-1.54,0.33,0.01,0,0.009,-0.358,-0.048,0.055,0.005,-0.026,1.003,0.000,0.000,0.000
990,-0.0087,0.0059,0.0086,-0.0068,0.0073,0.0041,-1.49,0.29,0.01,0,0.009,-0.140,-0.058,0.197,0.004,-0.028,1.002,0.000,0.000,0.000
1000,-0.0101,0.0070,0.0087,-0.0137,0.0127,0.0041,-1.53,0.29,0.02,0,0.009,-0.093,-0.208,0.402,0.002,-0.028,0.999,0.000,0.000,0.000
1011,-0.0102,0.0071,0.0087,-0.0140,0.0126,0.0043,-1.50,0.27,0.02,0,0.009,-0.095,-0.288,-0.246,0.004,-0.028,1.001,0.000,0.000,0.000
1020,-0.0095,0.0061,0.0088,-0.0097,0.0069,0.0046,-1.48,0.28,0.02,0,0.009,-0.170,0.117,0.218,0.004,-0.029,1.002,0.000,0.000,0.000
1030,-0.0095,0.0071,0.0089,-0.0092,0.0116,0.0053,-1.47,0.29,0.02,0,0.009,-0.075,-0.397,-0.063,0.004,-0.025,1.004,0.000,0.000,0.000
1041,-0.0092,0.0066,0.0090,-0.0075,0.0084,0.0058,-1.49,0.27,0.02,0,0.007,-0.040,0.377,0.221,0.004,-0.028,1.002,0.000,0.000,0.000
1050,-0.0095,0.0061,0.0090,-0.0084,0.0052,0.0059,-1.55,0.26,0.02,0,0.007,0.067,-0.532,0.042,0.002,-0.027,1.002,0.000,0.000,0.000
1060,-0.0097,0.0061,0.0091,-0.0094,0.0047,0.0059,-1.53,0.25,0.02,0,0.007,-0.114,-0.063,-0.095,0.004,-0.028,1.002,0.000,0.000,0.000
1070,-0.0092,0.0066,0.0092,-0.0064,0.0066,0.0062,-1.45,0.28,0.02,0,0.007,0.095,-0.129,-0.087,0.002,-0.026,1.001,0.000,0.000,0.000
1080,-0.0092,0.0082,0.0092,-0.0062,0.0146,0.0064,-1.45,0.29,0.02,0,0.009,0.128,-0.093,0.077,0.004,-0.026,0.999,0.000,0.000,0.000
1090,-0.0088,0.0079,0.0083,-0.0034,0.0125,0.0016,-1.46,0.26,0.02,0,0.009,0.082,-0.117,-0.044,0.002,-0.024,1.001,0.000,0.000,0.000
1100,-0.0097,0.0061,0.0083,-0.0082,0.0021,0.0020,-1.49,0.33,0.02,0,0.009,-0.112,-0.404,-0.078,-0.000,-0.028,1.003,0.000,0.000,0.000
1110,-0.0098,0.0061,0.0083,-0.0084,0.0019,0.0023,-1.50,0.26,0.02,0,0.009,0.193,-0.467,-0.190,0.001,-0.026,1.003,0.000,0.000,0.000
1120,-0.0093,0.0063,0.0084,-0.0056,0.0028,0.0025,-1.46,0.28,0.02,0,0.009,-0.096,-0.447,0.035,0.005,-0.026,1.001,0.000,0.000,0.000
1130,-0.0109,0.0073,0.0087,-0.0141,0.0076,0.0037,-1.46,0.26,0.02,0,0.009,-0.162,-0.367,-0.071,0.003,-0.027,1.002,0.000,0.000,0.000
1140,-0.0093,0.0077,0.0087,-0.0050,0.0097,0.0039,-1.43,0.26,0.02,0,0.011,0.045,-0.344,-0.256,0.003,-0.029,1.002,0.000,0.000,0.000
1150,-0.0097,0.0068,0.0088,-0.0075,0.0044,0.0043,-1.46,0.25,0.01,0,0.011,0.098,-0.295,0.124,0.003,-0.028,1.001,0.000,0.000,0.000
1160,-0.0093,0.0068,0.0088,-0.0052,0.0040,0.0046,-1.50,0.28,0.01,0,0.011,0.046,-0.198,0.166,0.005,-0.028,1.000,0.000,0.000,0.000
1170,-0.0093,0.0061,0.0089,-0.0051,0.0001,0.0049,-1.47,0.33,0.02,0,0.011,0.108,-0.081,-0.200,0.004,-0.027,0.999,0.000,0.000,0.000
1180,-0.0090,0.0070,0.0089,-0.0036,0.0047,0.0051,-1.47,0.33,0.01,0,0.010,-0.056,-0.299,0.283,0.003,-0.027,1.000,0.000,0.000,0.000
1190,-0.0097,0.0080,0.0099,-0.0072,0.0090,0.0100,-1.44,0.26,0.02,0,0.010,-0.215,-0.302,-0.124,0.004,-0.027,1.002,0.000,0.000,0.000
1199,-0.0109,0.0075,0.0100,-0.0129,0.0059,0.0102,-1.46,0.34,0.02,0,0.010,0.006,-0.343,-0.125,0.005,-0.027,1.002,0.000,0.000,0.000
1210,-0.0110,0.0075,0.0101,-0.0130,0.0056,0.0102,-1.41,0.25,0.01,0,0.010,-0.356,-0.152,-0.107,0.004,-0.027,1.001,0.000,0.000,0.000
1220,-0.0093,0.0068,0.0103,-0.0038,0.0015,0.0104,-1.44,0.28,0.01,0,0.010,-0.177,-0.103,0.270,0.003,-0.028,0.999,0.000,0.000,0.000
1230,-0.0113,0.0073,0.0103,-0.0136,0.0036,0.0098,-1.49,0.30,0.01,0,0.010,-0.010,-0.136,0.013,0.002,-0.026,1.002,0.000,0.000,0.000
1240,-0.0091,0.0061,0.0104,-0.0023,-0.0027,0.0102,-1.41,0.27,0.01,0,0.007,-0.196,-0.318,0.160,0.004,-0.029,1.003,0.000,0.000,0.000
1251,-0.0101,0.0068,0.0105,-0.0070,0.0009,0.0104,-1.45,0.24,0.01,0,0.007,-0.156,-0.288,-0.100,0.004,-0.026,1.003,0.000,0.000,0.000
1260,-0.0105,0.0080,0.0106,-0.0091,0.0066,0.0106,-1.30,0.21,0.01,0,0.007,-0.117,-0.057,0.146,0.004,-0.026,1.001,0.000,0.000,0.000
1271,-0.0098,0.0064,0.0107,-0.0053,-0.0023,0.0108,-1.39,0.21,0.01,0,0.007,-0.195,-0.275,-0.128,0.003,-0.027,1.002,0.000,0.000,0.000
1279,-0.0091,0.0073,0.0109,-0.0016,0.0025,0.0110,-1.39,0.18,0.01,0,0.009,-0.170,-0.069,0.121,0.003,-0.028,1.002,0.000,0.000,0.000
1290,-0.0082,0.0035,0.0092,0.0031,-0.0170,0.0026,-1.39,0.18,0.01,0,0.009,-0.070,-0.171,-0.058,0.006,-0.028,1.000,0.000,0.000,0.000
1300,-0.0082,0.0057,0.0093,0.0029,-0.0059,0.0032,-1.40,0.18,0.01,0,0.009,0.066,-0.202,0.002,0.005,-0.028,1.001,0.000,0.000,0.000
1310,-0.0073,0.0054,0.0093,0.0074,-0.0068,0.0032,-1.36,0.21,0.01,0,0.009,0.031,0.107,0.165,0.003,-0.030,1.003,0.000,0.000,0.000
1320,-0.0072,0.0054,0.0094,0.0075,-0.0070,0.0035,-1.36,0.21,0.02,0,0.009,-0.099,0.023,0.230,0.001,-0.028,1.002,0.000,0.000,0.000
1330,-0.0072,0.0056,0.0093,0.0071,-0.0058,0.0029,-1.41,0.22,0.02,0,0.009,-0.156,-0.321,-0.037,0.005,-0.029,1.001,0.000,0.000,0.000
1340,-0.0079,0.0047,0.0093,0.0033,-0.0106,0.0031,-1.41,0.23,0.01,0,0.007,0.008,-0.064,-0.184,0.005,-0.027,1.002,0.000,0.000,0.000
1350,-0.0079,0.0046,0.0093,0.0034,-0.0111,0.0032,-1.43,0.19,0.01,0,0.007,0.193,-0.203,0.131,0.005,-0.025,1.000,0.000,0.000,0.000
1360,-0.0079,0.0056,0.0094,0.0032,-0.0057,0.0035,-1.36,0.20,0.01,0,0.007,-0.196,-0.156,-0.312,0.002,-0.027,1.003,0.000,0.000,0.000
1370,-0.0082,0.0056,0.0094,0.0015,-0.0059,0.0038,-1.41,0.25,0.01,0,0.007,-0.284,-0.033,0.292,0.002,-0.029,1.002,0.000,0.000,0.000
1380,-0.0072,0.0061,0.0084,0.0063,-0.0035,-0.0015,-1.39,0.24,0.01,0,0.009,-0.036,0.088,0.145,0.001,-0.029,1.003,0.000,0.000,0.000
1390,-0.0072,0.0044,0.0084,0.0061,-0.0123,-0.0013,-1.38,0.22,0.01,0,0.009,-0.278,-0.314,-0.051,0.003,-0.027,1.001,0.000,0.000,0.000
1400,-0.0084,0.0054,0.0084,-0.0003,-0.0068,-0.0011,-1.38,0.23,0.01,0,0.009,-0.208,-0.158,-0.151,0.004,-0.028,1.001,0.000,0.000,0.000
1410,-0.0082,0.0049,0.0084,0.0008,-0.0090,-0.0009,-1.43,0.27,0.01,0,0.009,-0.184,-0.440,0.166,0.002,-0.028,1.003,0.000,0.000,0.000
1420,-0.0077,0.0047,0.0084,0.0030,-0.0100,-0.0006,-1.39,0.26,0.01,0,0.009,-0.149,-0.060,0.198,0.003,-0.027,1.003,0.000,0.000,0.000
1430,-0.0077,0.0046,0.0086,0.0027,-0.0105,0.0010,-1.48,0.26,0.01,0,0.009,-0.103,0.081,0.009,0.004,-0.028,1.001,0.000,0.000,0.000
1440,-0.0087,0.0056,0.0087,-0.0028,-0.0052,0.0013,-1.39,0.25,0.01,0,0.008,-0.057,0.045,-0.178,0.003,-0.026,1.000,0.000,0.000,0.000
1450,-0.0084,0.0046,0.0087,-0.0014,-0.0101,0.0014,-1.24,0.21,0.01,0,0.008,0.005,-0.169,-0.273,0.004,-0.027,1.001,0.000,0.000,0.000
1460,-0.0084,0.0066,0.0087,-0.0015,0.0004,0.0018,-1.21,0.18,0.01,0,0.008,0.152,-0.268,-0.173,0.003,-0.027,1.003,0.000,0.000,0.000
1470,-0.0082,0.0044,0.0087,-0.0004,-0.0114,0.0022,-1.24,0.23,0.01,0,0.008,-0.125,0.096,-0.129,0.005,-0.024,1.002,0.000,0.000,0.000
1480,-0.0072,0.0005,0.0084,0.0046,-0.0314,0.0006,-1.29,0.21,0.01,0,0.009,-0.076,0.216,-0.001,0.005,-0.029,1.001,0.000,0.000,0.000
0,-0.0063,-0.0004,0.0084,0.0094,-0.0351,0.0005,-1.25,0.21,0.01,0,0.009,0.026,-0.327,-0.012,0.002,-0.029,0.999,0.000,0.000,0.000
9,-0.0075,0.0001,0.0084,0.0026,-0.0310,0.0008,-1.34,0.26,0.01,60000,0.009,-0.002,-0.009,-0.133,0.004,-0.028,1.001,0.000,0.000,0.000
19,-0.0070,0.0009,0.0085,0.0049,-0.0259,0.0013,-1.29,0.23,0.01,60000,0.009,-0.048,-0.380,-0.188,0.003,-0.029,1.006,0.000,0.000,0.000
29,-0.0070,-0.0003,0.0085,0.0046,-0.0308,0.0014,-1.46,0.27,0.01,60000,0.009,-0.172,-0.169,-0.040,0.004,-0.022,1.001,0.000,0.000,0.000
39,-0.0082,0.0017,0.0088,-0.0015,-0.0197,0.0031,-1.47,0.26,0.01,60000,0.009,-1.068,-0.527,-0.942,0.002,-0.022,0.998,0.000,0.000,0.000
49,-0.0073,0.0005,0.0088,0.0033,-0.0257,0.0031,-1.47,0.31,0.00,60000,0.006,-0.973,-0.365,-0.079,-0.008,-0.030,1.002,0.000,0.000,0.000
59,-0.0082,0.0043,0.0089,-0.0016,-0.0050,0.0037,-1.50,0.28,0.00,60000,0.006,-0.446,-1.068,0.108,-0.004,-0.028,0.996,0.000,0.000,0.000
69,-0.0082,0.0046,0.0090,-0.0016,-0.0037,0.0037,-1.39,0.19,0.00,60000,0.006,-1.023,-0.935,0.045,0.017,-0.037,0.992,0.000,0.000,0.000
79,-0.0091,0.0043,0.0090,-0.0067,-0.0022,0.0038,-1.51,0.33,0.01,60000,0.006,-1.368,-1.180,0.234,0.001,-0.056,1.012,0.000,0.000,0.000
89,-0.0084,0.0050,0.0090,-0.0035,0.0038,0.0042,-1.50,0.32,0.01,60000,0.009,-0.816,-0.774,0.997,0.033,-0.035,0.999,0.000,0.000,0.000
99,-0.0060,0.0023,0.0078,0.0089,-0.0079,-0.0025,-1.50,0.30,0.01,60000,0.009,-0.409,0.099,-0.461,0.033,-0.032,0.985,0.000,0.000,0.000
109,-0.0091,0.0047,0.0078,-0.0079,0.0075,-0.0019,-1.53,0.34,-0.00,60000,0.009,-1.868,-2.084,-5.787,-0.000,-0.038,1.017,0.000,0.000,0.000
119,-0.0086,0.0043,0.0078,-0.0058,0.0073,-0.0015,-1.49,0.31,-0.06,60000,0.009,-0.203,0.423,-8.483,0.001,-0.018,0.992,0.000,0.000,0.000
129,-0.0082,0.0043,0.0078,-0.0037,0.0093,-0.0024,-1.49,0.33,-0.15,60000,0.009,-3.276,0.272,-10.136,-0.008,-0.019,1.000,0.000,0.000,0.000
139,-0.0091,0.0049,0.0083,-0.0087,0.0148,0.0008,-1.51,0.32,-0.24,60000,0.009,0.790,-2.032,-10.751,-0.015,-0.029,1.009,0.000,0.000,0.000
149,-0.0080,0.0037,0.0083,-0.0032,0.0099,0.0020,-1.53,0.34,-0.35,60000,0.007,-2.048,-2.163,-12.545,-0.014,-0.023,1.010,0.000,0.000,0.000
159,-0.0085,0.0039,0.0083,-0.0058,0.0130,0.0004,-1.73,0.34,-0.47,60000,0.007,-6.368,-2.617,-11.363,-0.007,-0.017,1.017,0.000,0.000,0.000
169,-0.0082,0.0039,0.0084,-0.0049,0.0150,0.0012,-1.81,0.38,-0.58,60000,0.007,-3.936,1.366,-7.618,0.001,-0.012,1.035,0.000,0.000,0.000
179,-0.0083,0.0044,0.0084,-0.0054,0.0192,0.0010,-1.92,0.40,-0.66,60000,0.007,2.362,-1.771,-7.465,0.017,-0.008,1.042,0.000,0.000,0.000
189,-0.0080,0.0089,0.0081,-0.0042,0.0447,0.0001,-1.91,0.39,-0.73,60000,0.008,1.372,-3.433,-4.596,0.004,0.001,1.077,0.000,0.000,0.000
199,-0.0081,0.0099,0.0076,-0.0048,0.0510,-0.0022,-1.88,0.43,-0.78,60000,0.008,-2.941,-9.239,-0.683,0.006,-0.010,1.121,0.000,0.000,0.000
209,-0.0087,0.0122,0.0074,-0.0083,0.0635,-0.0025,-2.06,0.49,-0.78,60000,0.008,-14.127,-18.871,1.273,0.019,-0.026,1.165,0.000,0.000,0.000
219,-0.0081,0.0130,0.0074,-0.0053,0.0678,-0.0011,-2.33,0.74,-0.76,60000,0.008,-10.831,-19.503,1.046,0.014,-0.038,1.215,0.000,0.000,0.000
229,-0.0082,0.0134,0.0074,-0.0063,0.0695,0.0018,-2.55,0.91,-0.74,60000,0.008,-3.157,-28.618,-1.348,0.001,-0.036,1.224,0.000,0.000,0.000
239,-0.0074,0.0172,0.0074,-0.0023,0.0892,0.0052,-2.63,1.22,-0.74,60000,0.008,-2.332,-39.021,-0.394,0.016,-0.027,1.221,0.000,0.000,0.000
249,-0.0091,0.0211,0.0071,-0.0122,0.1093,0.0083,-2.63,1.61,-0.73,60000,0.011,9.627,-45.269,1.900,0.033,-0.030,1.233,0.000,0.000,0.000
259,-0.0084,0.0249,0.0068,-0.0093,0.1282,0.0162,-2.70,2.07,-0.67,59930,0.011,10.678,-40.896,7.498,0.031,-0.027,1.232,0.000,0.000,0.000
269,-0.0090,0.0270,0.0068,-0.0138,0.1376,0.0294,-2.55,2.51,-0.59,59721,0.011,12.555,-46.839,5.969,0.026,-0.019,1.234,0.000,0.000,0.000
279,-0.0090,0.0283,0.0073,-0.0152,0.1427,0.0488,-2.53,3.05,-0.50,59445,0.011,9.812,-48.112,3.060,0.016,-0.024,1.243,0.000,0.000,0.000
289,-0.0096,0.0332,0.0068,-0.0212,0.1670,0.0641,-2.40,3.53,-0.46,59027,0.000,5.343,-36.650,1.105,0.017,-0.025,1.254,0.000,0.000,0.000
299,-0.0104,0.0343,0.0092,-0.0289,0.1696,0.0939,-2.21,3.95,-0.45,59078,0.000,5.583,-28.807,0.827,0.012,-0.016,1.255,0.000,0.000,0.000
309,-0.0121,0.0381,0.0097,-0.0417,0.1860,0.1124,-2.06,4.46,-0.46,58482,0.000,10.318,-15.161,1.377,0.010,-0.016,1.233,0.000,0.000,0.000
319,-0.0126,0.0388,0.0112,-0.0490,0.1847,0.1371,-2.03,4.63,-0.42,58101,0.000,20.165,-6.599,0.908,0.002,-0.023,1.233,0.000,0.000,0.000
329,-0.0143,0.0373,0.0135,-0.0631,0.1710,0.1641,-1.68,4.87,-0.45,57607,0.000,28.278,1.543,1.009,0.007,-0.022,1.214,0.000,0.000,0.000
338,-0.0201,0.0362,0.0090,-0.1002,0.1610,0.1536,-1.35,4.74,-0.44,57126,0.000,30.642,-1.228,1.255,0.010,-0.020,1.185,0.000,0.000,0.000
349,-0.0221,0.0404,0.0101,-0.1150,0.1797,0.1735,-0.89,4.56,-0.45,57469,0.003,26.625,-0.903,1.621,0.016,-0.019,1.168,0.000,0.000,0.000
359,-0.0275,0.0388,0.0118,-0.1487,0.1651,0.1967,-0.53,4.65,-0.46,57034,0.003,30.974,4.053,1.409,0.014,-0.020,1.164,0.000,0.000,0.000
369,-0.0260,0.0396,0.0149,-0.1416,0.1632,0.2266,-0.18,4.56,-0.45,56670,0.003,27.363,6.406,0.955,0.011,-0.024,1.152,0.000,0.000,0.000
378,-0.0233,0.0384,0.0195,-0.1277,0.1488,0.2634,-0.06,4.50,-0.40,56078,0.003,28.497,13.069,0.465,0.012,-0.023,1.150,0.000,0.000,0.000
389,-0.0265,0.0380,0.0221,-0.1481,0.1394,0.2840,0.33,4.46,-0.43,55312,0.028,26.038,10.756,-0.794,0.019,-0.021,1.129,0.000,0.000,0.000
399,-0.0266,0.0373,0.0158,-0.1503,0.1314,0.2541,0.64,4.23,-0.45,54075,0.028,26.371,8.514,-1.202,0.022,-0.019,1.112,0.000,0.000,0.000
409,-0.0286,0.0421,0.0180,-0.1619,0.1523,0.2677,1.05,4.07,-0.51,54708,0.028,21.390,0.590,-1.068,0.017,-0.019,1.101,0.000,0.000,0.000
419,-0.0322,0.0416,0.0206,-0.1824,0.1407,0.2824,1.26,4.05,-0.53,54486,0.028,16.945,-4.892,-2.009,0.015,-0.025,1.085,0.000,0.000,0.000
429,-0.0315,0.0421,0.0244,-0.1761,0.1343,0.3031,1.46,4.16,-0.56,54235,0.028,13.593,-13.160,-2.904,0.008,-0.026,1.077,0.000,0.000,0.000
439,-0.0316,0.0402,0.0283,-0.1743,0.1137,0.3230,1.57,4.26,-0.58,53813,0.028,6.695,-14.056,-3.382,0.008,-0.025,1.063,0.000,0.000,0.000
449,-0.0329,0.0414,0.0316,-0.1794,0.1124,0.3368,1.84,4.21,-0.72,53399,0.049,1.485,-12.929,-3.200,0.008,-0.023,1.055,0.000,0.000,0.000
459,-0.0359,0.0421,0.0348,-0.1943,0.1078,0.3463,1.86,4.23,-0.77,52394,0.049,-1.756,-10.494,-3.955,0.010,-0.019,1.055,0.000,0.000,0.000
468,-0.0373,0.0436,0.0385,-0.1984,0.1075,0.3573,1.86,4.30,-0.82,52231,0.049,-1.350,-10.820,-4.556,0.013,-0.016,1.047,0.000,0.000,0.000
479,-0.0352,0.0402,0.0437,-0.1823,0.0781,0.3769,1.84,4.36,-0.87,52021,0.049,-3.316,-9.715,-5.159,0.011,-0.017,1.028,0.000,0.000,0.000
488,-0.0349,0.0408,0.0481,-0.1777,0.0737,0.3884,1.83,4.38,-0.95,51568,0.081,-4.567,-9.869,-5.459,0.013,-0.018,1.014,0.000,0.000,0.000
499,-0.0360,0.0412,0.0525,-0.1817,0.0684,0.3977,1.98,4.24,-1.13,50188,0.081,-4.406,-10.264,-5.673,0.016,-0.016,1.005,0.000,0.000,0.000
509,-0.0369,0.0422,0.0567,-0.1838,0.0669,0.4043,1.97,4.30,-1.20,50007,0.081,-1.053,-5.666,-7.095,0.015,-0.016,0.995,0.000,0.000,0.000
519,-0.0372,0.0422,0.0612,-0.1828,0.0600,0.4121,1.99,4.24,-1.32,49879,0.081,-5.073,-3.099,-8.415,0.017,-0.011,0.990,0.000,0.000,0.000
529,-0.0338,0.0385,0.0667,-0.1605,0.0320,0.4269,1.97,4.19,-1.43,49716,0.081,-6.714,4.889,-8.538,0.018,-0.012,0.987,0.000,0.000,0.000
539,-0.0358,0.0389,0.0751,-0.1687,0.0281,0.4530,1.92,4.12,-1.53,49347,0.081,-5.348,11.655,-11.008,0.017,-0.010,0.987,0.000,0.000,0.000
549,-0.0345,0.0382,0.0801,-0.1595,0.0193,0.4577,1.85,3.78,-1.69,48831,0.109,-9.202,11.130,-11.630,0.015,-0.009,0.983,0.000,0.000,0.000
559,-0.0348,0.0378,0.0848,-0.1591,0.0125,0.4596,1.72,3.72,-1.77,47710,0.109,-11.367,13.625,-11.072,0.016,-0.009,0.981,0.000,0.000,0.000
568,-0.0365,0.0377,0.0894,-0.1671,0.0085,0.4589,1.61,3.59,-1.88,47665,0.109,-11.788,10.553,-12.360,0.019,-0.010,0.974,0.000,0.000,0.000
579,-0.0329,0.0378,0.0950,-0.1445,0.0048,0.4650,1.53,3.47,-2.02,47688,0.109,-10.195,7.310,-12.255,0.019,-0.011,0.963,0.000,0.000,0.000
589,-0.0359,0.0387,0.0995,-0.1590,0.0073,0.4619,1.41,3.38,-2.13,47525,0.131,-6.454,4.325,-12.116,0.017,-0.012,0.958,0.000,0.000,0.000
598,-0.0380,0.0391,0.1083,-0.1661,0.0056,0.4821,1.37,3.34,-2.26,46828,0.131,-3.745,-0.121,-13.277,0.015,-0.012,0.955,0.000,0.000,0.000
610,-0.0393,0.0387,0.1131,-0.1705,0.0003,0.4807,1.34,3.31,-2.41,46427,0.131,-6.340,-8.515,-13.714,0.015,-0.013,0.952,0.000,0.000,0.000
619,-0.0406,0.0393,0.1180,-0.1738,0.0014,0.4792,1.28,3.35,-2.55,46460,0.131,-5.779,-8.480,-13.460,0.015,-0.014,0.941,0.000,0.000,0.000
629,-0.0422,0.0390,0.1228,-0.1786,-0.0024,0.4768,1.24,3.37,-2.72,46500,0.131,-7.243,-11.779,-13.842,0.015,-0.012,0.935,0.000,0.000,0.000
639,-0.0434,0.0389,0.1291,-0.1802,-0.0051,0.4817,1.17,3.47,-2.86,46556,0.131,-9.933,-12.087,-13.557,0.013,-0.013,0.930,0.000,0.000,0.000
648,-0.0443,0.0392,0.1340,-0.1808,-0.0049,0.4782,1.07,3.54,-3.01,46463,0.146,-12.997,-11.845,-14.734,0.012,-0.012,0.923,0.000,0.000,0.000
659,-0.0446,0.0387,0.1389,-0.1784,-0.0092,0.4751,1.13,3.52,-3.26,46006,0.146,-14.691,-10.752,-14.542,0.015,-0.013,0.919,0.000,0.000,0.000
669,-0.0460,0.0388,0.1436,-0.1818,-0.0100,0.4707,1.00,3.63,-3.41,46065,0.146,-17.045,-10.341,-13.102,0.014,-0.011,0.912,0.000,0.000,0.000
679,-0.0467,0.0388,0.1485,-0.1810,-0.0107,0.4661,0.84,3.75,-3.53,46167,0.146,-16.568,-6.638,-13.264,0.011,-0.010,0.909,0.000,0.000,0.000
688,-0.0453,0.0342,0.1534,-0.1706,-0.0364,0.4625,0.69,3.83,-3.66,46264,0.168,-18.146,-4.660,-12.193,0.011,-0.008,0.905,0.000,0.000,0.000
699,-0.0468,0.0336,0.1547,-0.1762,-0.0390,0.4392,0.49,3.89,-3.78,45529,0.168,-20.876,-6.008,-12.210,0.013,-0.003,0.902,0.000,0.000,0.000
709,-0.0493,0.0334,0.1590,-0.1856,-0.0393,0.4311,0.30,3.96,-3.90,46017,0.168,-22.491,-3.436,-11.613,0.010,-0.003,0.903,0.000,0.000,0.000
719,-0.0519,0.0328,0.1632,-0.1950,-0.0411,0.4225,0.10,4.02,-4.01,46203,0.168,-20.289,-3.104,-10.441,0.011,-0.005,0.902,0.000,0.000,0.000
728,-0.0542,0.0326,0.1674,-0.2025,-0.0406,0.4136,-0.08,4.05,-4.12,46402,0.168,-20.214,-1.902,-9.160,0.014,-0.004,0.901,0.000,0.000,0.000
739,-0.0562,0.0322,0.1700,-0.2089,-0.0414,0.3968,-0.28,4.05,-4.20,46601,0.168,-16.815,1.431,-8.544,0.013,-0.004,0.900,0.000,0.000,0.000
749,-0.0591,0.0315,0.1739,-0.2190,-0.0428,0.3868,-0.41,4.07,-4.29,46957,0.188,-12.900,2.977,-6.877,0.015,-0.002,0.901,0.000,0.000,0.000
758,-0.0615,0.0308,0.1777,-0.2262,-0.0441,0.3769,-0.53,4.01,-4.36,46472,0.188,-14.844,5.449,-5.959,0.015,-0.001,0.898,0.000,0.000,0.000
768,-0.0637,0.0307,0.1814,-0.2317,-0.0416,0.3672,-0.68,3.97,-4.42,46686,0.188,-9.061,7.161,-5.043,0.015,-0.006,0.898,0.000,0.000,0.000
778,-0.0669,0.0301,0.1849,-0.2421,-0.0417,0.3566,-0.76,3.90,-4.47,46894,0.188,-7.496,5.929,-4.121,0.015,-0.007,0.898,0.000,0.000,0.000
788,-0.0686,0.0294,0.1885,-0.2446,-0.0420,0.3475,-0.85,3.83,-4.51,47128,0.207,-6.512,5.667,-2.739,0.014,-0.009,0.900,0.000,0.000,0.000
798,-0.0714,0.0295,0.1917,-0.2522,-0.0384,0.3360,-0.89,3.79,-4.54,46639,0.207,-6.474,3.327,-1.303,0.018,-0.010,0.901,0.000,0.000,0.000
809,-0.0739,0.0288,0.1950,-0.2581,-0.0385,0.3261,-0.95,3.72,-4.56,46886,0.207,-6.362,0.240,-0.222,0.015,-0.008,0.900,0.000,0.000,0.000
819,-0.0769,0.0286,0.1985,-0.2652,-0.0357,0.3149,-1.00,3.79,-4.55,47098,0.207,-3.422,-5.094,0.473,0.016,-0.005,0.901,0.000,0.000,0.000
829,-0.0798,0.0278,0.2016,-0.2719,-0.0359,0.3045,-1.05,3.84,-4.54,47347,0.207,-5.458,-8.726,1.284,0.016,-0.004,0.902,0.000,0.000,0.000
838,-0.0816,0.0275,0.2057,-0.2731,-0.0335,0.3003,-1.12,3.96,-4.52,47579,0.207,-8.833,-12.307,2.693,0.014,-0.004,0.908,0.000,0.000,0.000
849,-0.0862,0.0271,0.2085,-0.2871,-0.0323,0.2890,-1.20,4.07,-4.50,47679,0.217,-6.246,-15.162,2.831,0.012,-0.008,0.907,0.000,0.000,0.000
858,-0.0887,0.0269,0.2114,-0.2912,-0.0296,0.2792,-1.27,4.26,-4.46,47595,0.217,-5.475,-16.544,2.142,0.011,-0.009,0.908,0.000,0.000,0.000
868,-0.0927,0.0267,0.2140,-0.3016,-0.0271,0.2684,-1.34,4.42,-4.43,47824,0.217,-6.550,-17.296,3.379,0.014,-0.009,0.912,0.000,0.000,0.000
878,-0.0951,0.0263,0.2167,-0.3045,-0.0254,0.2590,-1.42,4.59,-4.38,48085,0.217,-5.495,-18.295,4.254,0.014,-0.007,0.914,0.000,0.000,0.000
888,-0.0992,0.0264,0.2182,-0.3152,-0.0221,0.2433,-1.48,4.78,-4.33,48300,0.236,-2.464,-17.649,3.877,0.011,-0.006,0.916,0.000,0.000,0.000
898,-0.1021,0.0265,0.2206,-0.3204,-0.0179,0.2340,-1.51,4.95,-4.29,47991,0.236,0.859,-17.493,4.787,0.013,-0.007,0.918,0.000,0.000,0.000
908,-0.1053,0.0267,0.2229,-0.3268,-0.0138,0.2246,-1.49,5.08,-4.24,48213,0.236,-0.311,-13.168,4.658,0.014,-0.010,0.919,0.000,0.000,0.000
918,-0.1086,0.0264,0.2251,-0.3336,-0.0118,0.2153,-1.49,5.27,-4.18,48436,0.236,2.549,-11.615,5.081,0.012,-0.009,0.919,0.000,0.000,0.000
928,-0.1119,0.0265,0.2272,-0.3405,-0.0081,0.2062,-1.47,5.35,-4.13,48670,0.236,3.977,-9.953,5.422,0.016,-0.005,0.922,0.000,0.000,0.000
937,-0.1145,0.0260,0.2322,-0.3447,-0.0068,0.2137,-1.42,5.44,-4.08,48885,0.236,4.720,-9.072,5.266,0.017,-0.006,0.921,0.000,0.000,0.000
948,-0.1201,0.0262,0.2341,-0.3609,-0.0027,0.2036,-1.37,5.53,-4.02,48761,0.229,6.697,-8.704,5.526,0.019,-0.007,0.924,0.000,0.000,0.000
957,-0.1226,0.0262,0.2362,-0.3646,0.0004,0.1959,-1.33,5.63,-3.96,49274,0.229,7.237,-7.612,5.176,0.018,-0.008,0.932,0.000,0.000,0.000
968,-0.1262,0.0258,0.2381,-0.3726,0.0013,0.1875,-1.26,5.71,-3.91,49460,0.229,6.146,-7.621,5.981,0.014,-0.007,0.933,0.000,0.000,0.000
979,-0.1299,0.0258,0.2400,-0.3804,0.0041,0.1793,-1.22,5.79,-3.84,49669,0.229,6.016,-9.109,5.711,0.014,-0.007,0.929,0.000,0.000,0.000
988,-0.1340,0.0266,0.2417,-0.3902,0.0100,0.1708,-1.18,5.87,-3.78,49876,0.232,7.717,-9.271,5.437,0.016,-0.010,0.938,0.000,0.000,0.000
998,-0.1376,0.0268,0.2377,-0.3970,0.0123,0.1340,-1.11,5.98,-3.72,49985,0.232,5.154,-10.908,5.952,0.015,-0.007,0.942,0.000,0.000,0.000
1009,-0.1416,0.0274,0.2390,-0.4058,0.0168,0.1260,-1.08,6.08,-3.66,50775,0.232,4.391,-11.900,7.007,0.018,-0.008,0.939,0.000,0.000,0.000
1019,-0.1452,0.0281,0.2403,-0.4133,0.0211,0.1190,-1.02,6.23,-3.59,50984,0.232,7.498,-15.802,6.602,0.019,-0.009,0.943,0.000,0.000,0.000
1029,-0.1500,0.0279,0.2414,-0.4245,0.0223,0.1115,-0.98,6.39,-3.51,51177,0.232,6.711,-16.040,7.140,0.017,-0.007,0.950,0.000,0.000,0.000
1038,-0.1533,0.0284,0.2381,-0.4298,0.0251,0.0813,-0.91,6.55,-3.45,51396,0.232,6.906,-17.051,7.326,0.018,-0.012,0.954,0.000,0.000,0.000
1048,-0.1585,0.0283,0.2388,-0.4425,0.0259,0.0740,-0.85,6.70,-3.37,52057,0.237,7.041,-17.198,7.738,0.018,-0.012,0.959,0.000,0.000,0.000
1058,-0.1631,0.0293,0.2395,-0.4527,0.0311,0.0675,-0.79,6.89,-3.29,52101,0.237,6.539,-15.908,8.505,0.022,-0.013,0.962,0.000,0.000,0.000
1068,-0.1674,0.0291,0.2402,-0.4622,0.0314,0.0612,-0.77,7.05,-3.18,52306,0.237,8.039,-17.624,8.344,0.020,-0.014,0.968,0.000,0.000,0.000
1078,-0.1715,0.0295,0.2408,-0.4705,0.0338,0.0555,-0.69,7.22,-3.10,52500,0.237,7.596,-16.397,8.036,0.020,-0.012,0.971,0.000,0.000,0.000
1088,-0.1773,0.0297,0.2412,-0.4847,0.0353,0.0489,-0.63,7.38,-3.01,52684,0.242,8.911,-15.070,7.610,0.019,-0.013,0.977,0.000,0.000,0.000
1098,-0.1814,0.0315,0.2399,-0.4929,0.0418,0.0346,-0.54,7.51,-2.94,52731,0.242,10.018,-12.167,8.049,0.020,-0.015,0.982,0.000,0.000,0.000
1108,-0.1865,0.0312,0.2402,-0.5050,0.0415,0.0296,-0.49,7.63,-2.85,53083,0.242,3.129,-12.842,8.383,0.022,-0.012,0.988,0.000,0.000,0.000
1118,-0.1917,0.0324,0.2405,-0.5168,0.0456,0.0250,-0.47,7.73,-2.77,53263,0.242,5.269,-9.433,7.339,0.022,-0.014,0.993,0.000,0.000,0.000
1128,-0.1957,0.0324,0.2408,-0.5251,0.0457,0.0218,-0.46,7.84,-2.67,53431,0.242,8.754,-11.484,8.009,0.024,-0.012,0.995,0.000,0.000,0.000
1139,-0.2009,0.0340,0.2414,-0.5371,0.0511,0.0202,-0.39,7.90,-2.60,53557,0.242,7.495,-11.554,7.645,0.025,-0.010,0.996,0.000,0.000,0.000
1148,-0.2057,0.0345,0.2417,-0.5474,0.0527,0.0174,-0.33,7.98,-2.52,53661,0.255,7.539,-12.746,7.025,0.025,-0.013,0.997,0.000,0.000,0.000
1159,-0.2112,0.0365,0.2418,-0.5603,0.0588,0.0146,-0.26,8.12,-2.44,53327,0.255,9.350,-14.291,6.173,0.028,-0.014,1.004,0.000,0.000,0.000
1167,-0.2144,0.0372,0.2422,-0.5656,0.0606,0.0141,-0.19,8.24,-2.38,53477,0.255,10.997,-17.133,5.682,0.029,-0.017,1.010,0.000,0.000,0.000
1178,-0.2185,0.0380,0.2425,-0.5737,0.0625,0.0137,-0.13,8.40,-2.30,53545,0.255,13.656,-17.374,4.268,0.030,-0.015,1.009,0.000,0.000,0.000
1188,-0.2245,0.0395,0.2426,-0.5879,0.0665,0.0119,0.02,8.54,-2.27,53633,0.266,12.158,-21.435,4.056,0.029,-0.016,1.010,0.000,0.000,0.000
1198,-0.2301,0.0408,0.2482,-0.6008,0.0696,0.0379,0.10,8.72,-2.21,53390,0.266,13.462,-21.725,4.718,0.031,-0.014,1.014,0.000,0.000,0.000
1209,-0.2360,0.0435,0.2486,-0.6142,0.0768,0.0365,0.26,8.96,-2.18,52977,0.266,13.536,-24.783,3.563,0.032,-0.015,1.014,0.000,0.000,0.000
1219,-0.2405,0.0434,0.2491,-0.6234,0.0748,0.0369,0.37,9.27,-2.13,53138,0.266,16.657,-26.187,3.046,0.032,-0.018,1.016,0.000,0.000,0.000
1228,-0.2447,0.0456,0.2497,-0.6315,0.0802,0.0381,0.52,9.49,-2.09,53259,0.266,14.713,-29.512,3.165,0.033,-0.017,1.015,0.000,0.000,0.000
1238,-0.2533,0.0457,0.2565,-0.6538,0.0782,0.0717,0.63,9.78,-2.05,53344,0.266,18.658,-26.943,2.019,0.033,-0.016,1.015,0.000,0.000,0.000
1248,-0.2618,0.0477,0.2572,-0.6745,0.0821,0.0706,0.81,10.03,-2.04,52864,0.267,13.556,-29.385,3.101,0.033,-0.015,1.017,0.000,0.000,0.000
1258,-0.2661,0.0491,0.2581,-0.6830,0.0838,0.0721,0.90,10.34,-1.99,53043,0.267,14.236,-28.060,2.867,0.033,-0.016,1.018,0.000,0.000,0.000
1267,-0.2733,0.0513,0.2588,-0.7003,0.0879,0.0719,1.02,10.57,-1.96,53152,0.267,15.450,-26.990,2.459,0.033,-0.014,1.019,0.000,0.000,0.000
1278,-0.2787,0.0516,0.2597,-0.7119,0.0853,0.0733,1.14,10.86,-1.92,53332,0.267,14.525,-24.739,1.478,0.032,-0.014,1.018,0.000,0.000,0.000
1288,-0.2872,0.0540,0.2603,-0.7335,0.0894,0.0719,1.28,11.07,-1.91,53458,0.274,14.548,-23.855,1.472,0.037,-0.016,1.017,0.000,0.000,0.000
1297,-0.2930,0.0556,0.2640,-0.7465,0.0906,0.0874,1.34,11.25,-1.85,53445,0.274,12.556,-20.623,1.363,0.040,-0.019,1.018,0.000,0.000,0.000
1308,-0.3013,0.0579,0.2648,-0.7672,0.0939,0.0867,1.43,11.40,-1.83,53278,0.274,11.144,-20.756,0.656,0.039,-0.018,1.021,0.000,0.000,0.000
1318,-0.3072,0.0586,0.2658,-0.7804,0.0918,0.0881,1.54,11.63,-1.82,53483,0.274,11.956,-19.380,-0.446,0.037,-0.017,1.022,0.000,0.000,0.000
1328,-0.3125,0.0635,0.2670,-0.7920,0.1022,0.0899,1.63,11.77,-1.82,53616,0.274,8.561,-20.658,-0.234,0.037,-0.018,1.020,0.000,0.000,0.000
1337,-0.3186,0.0656,0.2703,-0.8062,0.1039,0.1034,1.68,11.99,-1.80,53722,0.274,4.974,-21.913,0.896,0.038,-0.016,1.024,0.000,0.000,0.000
1348,-0.3284,0.0677,0.2712,-0.8308,0.1052,0.1019,1.71,12.15,-1.78,53628,0.266,3.944,-25.348,1.599,0.039,-0.014,1.023,0.000,0.000,0.000
1358,-0.3338,0.0698,0.2725,-0.8425,0.1065,0.1035,1.71,12.45,-1.75,54168,0.266,3.961,-28.306,1.762,0.040,-0.015,1.023,0.000,0.000,0.000
1369,-0.3431,0.0726,0.2735,-0.8650,0.1094,0.1027,1.75,12.71,-1.73,54324,0.266,4.980,-32.831,2.244,0.040,-0.016,1.022,0.000,0.000,0.000
1378,-0.3481,0.0745,0.2749,-0.8755,0.1095,0.1052,1.77,12.97,-1.69,54598,0.266,7.129,-33.540,3.287,0.043,-0.018,1.024,0.000,0.000,0.000
1388,-0.3583,0.0774,0.2758,-0.9004,0.1124,0.1037,1.78,13.27,-1.62,54722,0.273,11.793,-33.137,3.253,0.043,-0.018,1.029,0.000,0.000,0.000
1397,-0.3633,0.0783,0.2723,-0.9101,0.1096,0.0809,1.91,13.57,-1.60,54810,0.273,15.700,-33.346,3.674,0.045,-0.018,1.031,0.000,0.000,0.000
1407,-0.3686,0.0810,0.2734,-0.9214,0.1120,0.0830,2.04,13.93,-1.56,55454,0.273,16.836,-33.431,4.054,0.044,-0.019,1.031,0.000,0.000,0.000
1418,-0.3754,0.0858,0.2745,-0.9370,0.1202,0.0840,2.21,14.19,-1.52,55642,0.273,20.339,-31.993,3.543,0.044,-0.021,1.035,0.000,0.000,0.000
1428,-0.3837,0.0865,0.2755,-0.9568,0.1164,0.0843,2.37,14.51,-1.47,55869,0.273,18.245,-27.703,3.548,0.047,-0.024,1.037,0.000,0.000,0.000
1437,-0.3932,0.0890,0.2741,-0.9796,0.1175,0.0720,2.59,14.76,-1.47,56146,0.273,14.923,-21.583,4.090,0.055,-0.023,1.046,0.000,0.000,0.000
1448,-0.3995,0.0908,0.2751,-0.9944,0.1163,0.0737,2.68,14.97,-1.39,56693,0.273,14.227,-16.832,5.061,0.055,-0.021,1.047,0.000,0.000,0.000
