time_ms,pos_x,pos_y,pos_z,vel_x,vel_y,vel_z,roll,pitch,yaw,thrust,range_z,gyro_x,gyro_y,gyro_z,acc_x,acc_y,acc_z,rate_roll,rate_pitch,rate_yaw
0,0.3913,1.6619,0.0080,-0.0069,-0.0048,-0.0061,0.57,-0.50,-11.75,0,0.009,0.105,-0.337,0.055,-0.010,0.009,0.997,0.000,0.000,0.000
0,0.3914,1.6623,0.0080,-0.0065,-0.0024,-0.0063,0.65,-0.50,-11.75,0,0.009,0.277,-0.015,0.198,-0.010,0.008,0.998,0.000,0.000,0.000
0,0.3914,1.6625,0.0079,-0.0062,-0.0012,-0.0065,0.61,-0.44,-11.73,0,0.009,-0.100,-0.106,0.161,-0.012,0.009,0.998,0.000,0.000,0.000
0,0.3927,1.6634,0.0079,0.0007,0.0035,-0.0066,0.62,-0.45,-11.71,0,0.009,0.007,-0.238,0.145,-0.012,0.009,0.996,0.000,0.000,0.000
0,0.3923,1.6615,0.0083,-0.0017,-0.0067,-0.0043,0.62,-0.45,-11.70,0,0.009,0.282,-0.343,-0.282,-0.012,0.010,0.996,0.000,0.000,0.000
0,0.3912,1.6626,0.0083,-0.0076,-0.0004,-0.0044,0.61,-0.47,-11.69,0,0.009,0.277,-0.198,-0.108,-0.010,0.010,0.999,0.000,0.000,0.000
0,0.3914,1.6623,0.0082,-0.0065,-0.0019,-0.0047,0.64,-0.41,-11.68,0,0.009,0.057,-0.062,0.057,-0.010,0.008,1.000,0.000,0.000,0.000
0,0.3913,1.6623,0.0082,-0.0068,-0.0020,-0.0050,0.59,-0.46,-11.67,0,0.009,0.204,0.006,-0.019,-0.010,0.010,1.000,0.000,0.000,0.000
1,0.3918,1.6624,0.0085,-0.0042,-0.0013,-0.0031,0.59,-0.46,-11.66,0,0.009,0.257,0.115,-0.016,-0.011,0.011,1.000,0.000,0.000,0.000
1,0.3903,1.6621,0.0085,-0.0123,-0.0034,-0.0036,0.58,-0.46,-11.65,0,0.005,0.238,-0.293,0.153,-0.010,0.010,0.999,0.000,0.000,0.000
1,0.3916,1.6629,0.0084,-0.0049,0.0014,-0.0037,0.62,-0.50,-11.65,0,0.005,0.258,-0.477,-0.175,-0.008,0.010,0.998,0.000,0.000,0.000
1,0.3916,1.6629,0.0084,-0.0051,0.0014,-0.0038,0.66,-0.44,-11.64,0,0.005,-0.102,-0.305,0.025,-0.008,0.008,0.998,0.000,0.000,0.000
1,0.3917,1.6634,0.0084,-0.0045,0.0036,-0.0038,0.60,-0.45,-11.62,0,0.005,0.292,0.027,0.070,-0.009,0.009,1.001,0.000,0.000,0.000
1,0.3924,1.6623,0.0083,-0.0006,-0.0025,-0.0038,0.61,-0.45,-11.61,0,0.010,0.105,-0.031,0.231,-0.011,0.010,1.000,0.000,0.000,0.000
1,0.3909,1.6617,0.0068,-0.0090,-0.0056,-0.0114,0.61,-0.47,-11.60,0,0.010,0.130,-0.375,-0.065,-0.011,0.011,1.000,0.000,0.000,0.000
1,0.3914,1.6630,0.0067,-0.0060,0.0016,-0.0113,0.61,-0.49,-11.59,0,0.010,-0.076,-0.233,-0.166,-0.010,0.009,0.997,0.000,0.000,0.000
2,0.3913,1.6627,0.0066,-0.0060,0.0003,-0.0115,0.57,-0.41,-11.58,0,0.010,0.075,-0.246,-0.004,-0.009,0.008,0.999,0.000,0.000,0.000
2,0.3917,1.6624,0.0065,-0.0037,-0.0015,-0.0117,0.61,-0.45,-11.57,0,0.010,-0.027,-0.122,0.048,-0.010,0.009,0.999,0.000,0.000,0.000
2,0.3922,1.6625,0.0079,-0.0010,-0.0010,-0.0035,0.60,-0.45,-11.55,0,0.010,0.310,-0.224,-0.099,-0.011,0.009,0.998,0.000,0.000,0.000
2,0.3906,1.6638,0.0079,-0.0096,0.0056,-0.0034,0.60,-0.46,-11.54,0,0.009,-0.028,-0.114,0.297,-0.009,0.011,1.001,0.000,0.000,0.000
2,0.3913,1.6627,0.0079,-0.0058,-0.0002,-0.0034,0.57,-0.43,-11.53,0,0.009,0.334,-0.336,-0.063,-0.009,0.011,1.000,0.000,0.000,0.000
2,0.3914,1.6629,0.0078,-0.0054,0.0009,-0.0037,0.65,-0.50,-11.52,0,0.009,0.083,0.140,0.207,-0.011,0.012,0.997,0.000,0.000,0.000
2,0.3916,1.6629,0.0078,-0.0041,0.0005,-0.0038,0.64,-0.46,-11.51,0,0.009,0.256,-0.060,-0.026,-0.010,0.011,0.996,0.000,0.000,0.000
3,0.3910,1.6637,0.0078,-0.0069,0.0045,-0.0039,0.62,-0.45,-11.50,0,0.011,0.005,-0.241,0.296,-0.010,0.011,0.998,0.000,0.000,0.000
3,0.3922,1.6616,0.0083,-0.0007,-0.0066,-0.0012,0.63,-0.45,-11.48,0,0.011,0.152,-0.139,0.231,-0.010,0.009,0.998,0.000,0.000,0.000
3,0.3914,1.6620,0.0083,-0.0050,-0.0042,-0.0011,0.56,-0.49,-11.47,0,0.011,0.106,-0.296,-0.168,-0.014,0.009,0.997,0.000,0.000,0.000
3,0.3912,1.6623,0.0083,-0.0058,-0.0026,-0.0011,0.63,-0.46,-11.46,0,0.011,0.235,-0.131,-0.078,-0.010,0.012,0.996,0.000,0.000,0.000
3,0.3912,1.6623,0.0083,-0.0060,-0.0025,-0.0013,0.62,-0.42,-11.45,0,0.011,-0.117,-0.160,-0.109,-0.011,0.011,0.999,0.000,0.000,0.000
3,0.3923,1.6634,0.0094,0.0003,0.0039,0.0045,0.64,-0.44,-11.44,0,0.011,-0.087,-0.220,0.094,-0.013,0.011,0.999,0.000,0.000,0.000
3,0.3914,1.6622,0.0095,-0.0049,-0.0026,0.0043,0.63,-0.46,-11.43,0,0.008,-0.055,-0.309,0.427,-0.011,0.009,0.998,0.000,0.000,0.000
3,0.3905,1.6624,0.0095,-0.0095,-0.0016,0.0041,0.63,-0.46,-11.41,0,0.008,0.288,0.223,-0.181,-0.010,0.010,0.998,0.000,0.000,0.000
3,0.3909,1.6619,0.0095,-0.0077,-0.0044,0.0039,0.59,-0.50,-11.40,0,0.008,0.068,-0.043,-0.258,-0.012,0.010,0.996,0.000,0.000,0.000
3,0.3913,1.6620,0.0096,-0.0050,-0.0033,0.0036,0.61,-0.42,-11.39,0,0.008,-0.113,-0.197,-0.200,-0.013,0.008,0.998,0.000,0.000,0.000
3,0.3913,1.6618,0.0096,-0.0053,-0.0042,0.0035,0.61,-0.46,-11.38,0,0.009,-0.175,-0.062,0.300,-0.010,0.009,0.999,0.000,0.000,0.000
3,0.3924,1.6627,0.0090,0.0003,0.0009,-0.0001,0.63,-0.46,-11.37,0,0.009,-0.038,-0.195,0.044,-0.008,0.010,0.997,0.000,0.000,0.000
3,0.3906,1.6626,0.0090,-0.0097,0.0004,-0.0002,0.58,-0.46,-11.35,0,0.009,0.101,0.131,0.452,-0.010,0.009,0.996,0.000,0.000,0.000
4,0.3914,1.6624,0.0090,-0.0049,-0.0006,-0.0004,0.60,-0.46,-11.34,0,0.009,0.173,-0.064,0.069,-0.010,0.011,0.999,0.000,0.000,0.000
4,0.3913,1.6618,0.0090,-0.0057,-0.0040,-0.0007,0.63,-0.46,-11.33,0,0.009,-0.129,-0.423,0.020,-0.012,0.010,0.999,0.000,0.000,0.000
4,0.3915,1.6628,0.0090,-0.0047,0.0018,-0.0008,0.60,-0.46,-11.32,0,0.009,0.318,0.179,-0.032,-0.011,0.008,0.996,0.000,0.000,0.000
4,0.3914,1.6624,0.0090,-0.0052,-0.0007,-0.0010,0.58,-0.43,-11.31,0,0.009,0.273,-0.218,0.081,-0.010,0.009,0.997,0.000,0.000,0.000
4,0.3913,1.6618,0.0090,-0.0056,-0.0041,-0.0013,0.60,-0.50,-11.29,0,0.009,-0.010,-0.091,-0.147,-0.011,0.010,0.997,0.000,0.000,0.000
4,0.3912,1.6625,0.0090,-0.0060,-0.0004,-0.0016,0.58,-0.50,-11.28,0,0.009,0.213,-0.245,0.189,-0.012,0.009,0.997,0.000,0.000,0.000
4,0.3906,1.6630,0.0089,-0.0089,0.0027,-0.0018,0.58,-0.46,-11.27,0,0.009,0.245,-0.378,-0.005,-0.010,0.008,0.996,0.000,0.000,0.000
4,0.3922,1.6622,0.0089,-0.0003,-0.0015,-0.0017,0.59,-0.46,-11.26,0,0.008,0.203,-0.108,0.184,-0.010,0.010,0.996,0.000,0.000,0.000
4,0.3923,1.6627,0.0089,-0.0001,0.0007,-0.0019,0.59,-0.47,-11.25,0,0.008,0.003,-0.084,0.023,-0.012,0.011,0.996,0.000,0.000,0.000
4,0.3915,1.6628,0.0089,-0.0048,0.0015,-0.0022,0.60,-0.46,-11.24,0,0.008,0.096,0.131,-0.036,-0.010,0.010,0.997,0.000,0.000,0.000
4,0.3914,1.6626,0.0089,-0.0051,0.0003,-0.0025,0.60,-0.45,-11.23,0,0.008,0.180,0.125,0.390,-0.011,0.010,0.998,0.000,0.000,0.000
4,0.3916,1.6626,0.0089,-0.0041,-0.0000,-0.0028,0.58,-0.49,-11.21,0,0.008,-0.086,-0.226,-0.048,-0.013,0.010,0.996,0.000,0.000,0.000
4,0.3914,1.6626,0.0085,-0.0052,0.0001,-0.0050,0.58,-0.42,-11.20,0,0.008,-0.068,-0.043,-0.015,-0.010,0.010,0.997,0.000,0.000,0.000
4,0.3914,1.6626,0.0084,-0.0055,0.0001,-0.0053,0.61,-0.42,-11.19,0,0.008,-0.056,-0.099,0.421,-0.010,0.009,0.996,0.000,0.000,0.000
4,0.3923,1.6629,0.0084,-0.0002,0.0017,-0.0057,0.59,-0.44,-11.18,0,0.008,0.155,-0.139,0.087,-0.008,0.009,0.996,0.000,0.000,0.000
4,0.3906,1.6632,0.0083,-0.0100,0.0036,-0.0059,0.56,-0.44,-11.17,0,0.008,-0.004,-0.046,0.125,-0.009,0.010,1.001,0.000,0.000,0.000
4,0.3904,1.6626,0.0083,-0.0105,-0.0002,-0.0061,0.57,-0.45,-11.15,0,0.008,0.170,-0.298,-0.046,-0.009,0.012,0.999,0.000,0.000,0.000
4,0.3910,1.6629,0.0082,-0.0076,0.0017,-0.0063,0.64,-0.45,-11.14,0,0.010,0.193,-0.055,-0.214,-0.010,0.010,0.998,0.000,0.000,0.000
5,0.3911,1.6636,0.0081,-0.0067,0.0052,-0.0071,0.58,-0.49,-11.13,0,0.010,0.123,-0.416,0.010,-0.011,0.008,0.998,0.000,0.000,0.000
5,0.3910,1.6634,0.0080,-0.0068,0.0037,-0.0074,0.58,-0.47,-11.12,0,0.010,0.124,0.028,-0.094,-0.010,0.010,0.998,0.000,0.000,0.000
5,0.3908,1.6618,0.0079,-0.0081,-0.0048,-0.0077,0.58,-0.42,-11.11,0,0.010,0.020,0.200,-0.011,-0.011,0.009,0.995,0.000,0.000,0.000
5,0.3921,1.6629,0.0079,-0.0007,0.0013,-0.0075,0.59,-0.42,-11.10,0,0.010,0.374,-0.141,-0.368,-0.011,0.009,0.997,0.000,0.000,0.000
5,0.3917,1.6630,0.0087,-0.0030,0.0018,-0.0026,0.59,-0.42,-11.09,0,0.010,-0.001,-0.062,0.255,-0.011,0.009,0.997,0.000,0.000,0.000
5,0.3904,1.6632,0.0087,-0.0099,0.0030,-0.0028,0.59,-0.48,-11.08,0,0.008,0.124,0.100,0.018,-0.010,0.011,0.999,0.000,0.000,0.000
5,0.3903,1.6633,0.0087,-0.0102,0.0029,-0.0030,0.58,-0.47,-11.06,0,0.008,0.025,-0.251,-0.006,-0.010,0.009,0.999,0.000,0.000,0.000
5,0.3902,1.6633,0.0086,-0.0104,0.0030,-0.0033,0.65,-0.51,-11.05,0,0.008,0.191,-0.145,0.114,-0.009,0.008,0.998,0.000,0.000,0.000
5,0.3916,1.6630,0.0086,-0.0026,0.0012,-0.0035,0.60,-0.46,-11.04,0,0.008,0.274,-0.216,-0.125,-0.012,0.009,0.997,0.000,0.000,0.000
5,0.3914,1.6633,0.0086,-0.0037,0.0026,-0.0037,0.61,-0.46,-11.03,0,0.010,0.235,-0.235,-0.233,-0.010,0.010,0.999,0.000,0.000,0.000
5,0.3920,1.6615,0.0083,-0.0005,-0.0071,-0.0053,0.61,-0.51,-11.02,0,0.010,0.362,-0.198,-0.087,-0.012,0.008,0.998,0.000,0.000,0.000
5,0.3911,1.6629,0.0083,-0.0055,0.0005,-0.0053,0.63,-0.48,-11.01,0,0.010,0.126,-0.187,0.101,-0.012,0.009,1.000,0.000,0.000,0.000
5,0.3911,1.6626,0.0082,-0.0057,-0.0008,-0.0054,0.66,-0.50,-11.00,0,0.010,-0.165,-0.303,-0.025,-0.010,0.008,0.999,0.000,0.000,0.000
5,0.3922,1.6624,0.0082,0.0004,-0.0021,-0.0056,0.60,-0.47,-10.99,0,0.010,0.223,-0.215,-0.080,-0.010,0.009,0.997,0.000,0.000,0.000
5,0.3914,1.6621,0.0089,-0.0039,-0.0038,-0.0017,0.60,-0.46,-10.98,0,0.010,-0.009,-0.254,0.208,-0.012,0.011,0.999,0.000,0.000,0.000
5,0.3917,1.6611,0.0089,-0.0025,-0.0089,-0.0018,0.58,-0.45,-10.96,0,0.009,0.125,-0.136,-0.208,-0.011,0.011,0.998,0.000,0.000,0.000
5,0.3916,1.6627,0.0089,-0.0035,-0.0002,-0.0018,0.62,-0.50,-10.95,0,0.009,0.165,-0.109,0.054,-0.009,0.007,0.997,0.000,0.000,0.000
5,0.3913,1.6628,0.0089,-0.0048,0.0000,-0.0019,0.61,-0.50,-10.94,0,0.009,0.197,-0.253,-0.335,-0.010,0.010,0.998,0.000,0.000,0.000
5,0.3912,1.6632,0.0088,-0.0055,0.0024,-0.0020,0.62,-0.42,-10.93,0,0.009,0.345,-0.141,-0.194,-0.010,0.010,0.996,0.000,0.000,0.000
6,0.3921,1.6619,0.0088,-0.0008,-0.0046,-0.0022,0.59,-0.46,-10.92,0,0.009,0.169,-0.295,0.253,-0.007,0.011,0.997,0.000,0.000,0.000
6,0.3921,1.6621,0.0089,-0.0009,-0.0031,-0.0020,0.62,-0.46,-10.91,0,0.009,-0.089,-0.201,-0.025,-0.009,0.010,0.998,0.000,0.000,0.000
6,0.3903,1.6623,0.0089,-0.0104,-0.0024,-0.0021,0.62,-0.42,-10.90,0,0.009,0.026,-0.092,0.111,-0.012,0.010,0.999,0.000,0.000,0.000
6,0.3913,1.6628,0.0089,-0.0049,0.0000,-0.0023,0.55,-0.50,-10.89,0,0.009,0.063,-0.190,0.050,-0.014,0.010,0.999,0.000,0.000,0.000
6,0.3912,1.6621,0.0088,-0.0055,-0.0033,-0.0025,0.64,-0.45,-10.88,0,0.009,0.219,-0.379,-0.167,-0.011,0.010,0.998,0.000,0.000,0.000
6,0.3903,1.6623,0.0089,-0.0099,-0.0023,-0.0024,0.59,-0.45,-10.86,0,0.009,0.004,-0.253,0.068,-0.009,0.011,0.995,0.000,0.000,0.000
6,0.3924,1.6635,0.0089,0.0012,0.0039,-0.0026,0.57,-0.46,-10.85,0,0.010,0.077,-0.020,0.212,-0.010,0.011,0.997,0.000,0.000,0.000
6,0.3909,1.6617,0.0089,-0.0066,-0.0052,-0.0027,0.62,-0.50,-10.84,0,0.010,0.062,0.073,0.071,-0.009,0.011,0.999,0.000,0.000,0.000
6,0.3911,1.6628,0.0089,-0.0056,0.0007,-0.0027,0.64,-0.42,-10.83,0,0.010,0.057,-0.230,-0.046,-0.010,0.011,1.000,0.000,0.000,0.000
6,0.3914,1.6632,0.0088,-0.0042,0.0027,-0.0028,0.60,-0.46,-10.82,0,0.010,0.345,-0.097,-0.200,-0.012,0.010,0.998,0.000,0.000,0.000
6,0.3923,1.6619,0.0088,0.0003,-0.0041,-0.0029,0.60,-0.46,-10.81,0,0.008,0.161,-0.013,0.067,-0.010,0.010,0.998,0.000,0.000,0.000
6,0.3902,1.6616,0.0093,-0.0107,-0.0054,-0.0008,0.60,-0.42,-10.80,0,0.008,0.414,0.060,-0.180,-0.010,0.009,0.997,0.000,0.000,0.000
6,0.3912,1.6623,0.0093,-0.0050,-0.0014,-0.0010,0.59,-0.45,-10.79,0,0.008,0.172,-0.459,-0.198,-0.012,0.008,0.998,0.000,0.000,0.000
6,0.3913,1.6625,0.0093,-0.0046,-0.0001,-0.0011,0.62,-0.42,-10.78,0,0.008,0.136,0.255,-0.008,-0.011,0.009,0.999,0.000,0.000,0.000
6,0.3904,1.6627,0.0093,-0.0091,0.0008,-0.0011,0.59,-0.42,-10.77,0,0.008,0.032,-0.433,-0.102,-0.009,0.009,0.999,0.000,0.000,0.000
6,0.3911,1.6628,0.0088,-0.0055,0.0014,-0.0040,0.60,-0.44,-10.76,0,0.008,0.243,0.071,0.202,-0.011,0.011,0.998,0.000,0.000,0.000
6,0.3903,1.6623,0.0087,-0.0094,-0.0014,-0.0043,0.57,-0.46,-10.75,0,0.010,0.180,-0.170,-0.225,-0.009,0.010,0.997,0.000,0.000,0.000
6,0.3905,1.6629,0.0087,-0.0086,0.0020,-0.0045,0.58,-0.50,-10.74,0,0.010,0.206,-0.178,0.160,-0.013,0.012,0.998,0.000,0.000,0.000
6,0.3908,1.6626,0.0086,-0.0065,0.0001,-0.0047,0.60,-0.50,-10.73,0,0.010,-0.091,-0.199,-0.072,-0.010,0.013,0.995,0.000,0.000,0.000
7,0.3914,1.6632,0.0086,-0.0035,0.0030,-0.0047,0.65,-0.46,-10.71,0,0.010,0.164,-0.075,0.118,-0.009,0.010,0.995,0.000,0.000,0.000
7,0.3922,1.6628,0.0086,0.0009,0.0008,-0.0048,0.61,-0.45,-10.70,0,0.014,0.249,-0.021,0.227,-0.010,0.007,0.997,0.000,0.000,0.000
7,0.3921,1.6624,0.0092,0.0002,-0.0015,-0.0017,0.62,-0.42,-10.69,0,0.014,0.270,-0.064,0.044,-0.010,0.008,0.995,0.000,0.000,0.000
7,0.3910,1.6615,0.0091,-0.0055,-0.0063,-0.0020,0.59,-0.45,-10.68,0,0.014,-0.084,-0.231,0.196,-0.011,0.008,0.997,0.000,0.000,0.000
7,0.3910,1.6623,0.0091,-0.0059,-0.0010,-0.0021,0.65,-0.50,-10.67,0,0.014,-0.035,-0.074,0.091,-0.010,0.011,0.996,0.000,0.000,0.000
7,0.3903,1.6623,0.0091,-0.0094,-0.0012,-0.0025,0.56,-0.45,-10.66,0,0.014,0.284,-0.043,-0.275,-0.011,0.011,0.995,0.000,0.000,0.000
7,0.3911,1.6627,0.0112,-0.0052,0.0013,0.0083,0.57,-0.45,-10.65,0,0.014,0.048,-0.213,-0.250,-0.012,0.010,0.996,0.000,0.000,0.000
7,0.3918,1.6611,0.0113,-0.0009,-0.0079,0.0079,0.57,-0.46,-10.64,0,0.010,-0.042,-0.195,0.106,-0.011,0.009,0.998,0.000,0.000,0.000
7,0.3912,1.6633,0.0114,-0.0046,0.0045,0.0077,0.58,-0.50,-10.63,0,0.010,-0.082,0.031,0.017,-0.013,0.012,0.998,0.000,0.000,0.000
7,0.3911,1.6631,0.0115,-0.0049,0.0031,0.0074,0.55,-0.49,-10.62,0,0.010,-0.134,-0.273,0.218,-0.010,0.009,0.998,0.000,0.000,0.000
7,0.3913,1.6631,0.0115,-0.0037,0.0029,0.0070,0.59,-0.42,-10.61,0,0.010,0.185,0.176,0.134,-0.011,0.010,0.999,0.000,0.000,0.000
7,0.3921,1.6627,0.0116,0.0004,0.0009,0.0066,0.59,-0.47,-10.59,0,0.012,0.091,-0.151,0.052,-0.011,0.011,0.998,0.000,0.000,0.000
7,0.3920,1.6634,0.0110,-0.0004,0.0045,0.0027,0.59,-0.45,-10.58,0,0.012,0.248,-0.314,-0.023,-0.008,0.011,0.998,0.000,0.000,0.000
7,0.3904,1.6628,0.0110,-0.0093,0.0012,0.0025,0.60,-0.49,-10.57,0,0.012,0.154,-0.372,-0.122,-0.010,0.010,0.999,0.000,0.000,0.000
7,0.3915,1.6626,0.0110,-0.0037,0.0004,0.0024,0.63,-0.49,-10.56,0,0.012,0.031,-0.149,-0.111,-0.011,0.011,0.996,0.000,0.000,0.000
7,0.3910,1.6627,0.0110,-0.0060,0.0007,0.0022,0.57,-0.41,-10.55,0,0.012,0.129,0.057,-0.063,-0.011,0.011,0.999,0.000,0.000,0.000
7,0.3918,1.6624,0.0115,-0.0018,-0.0012,0.0043,0.60,-0.46,-10.54,0,0.012,0.195,-0.115,-0.054,-0.012,0.010,0.997,0.000,0.000,0.000
7,0.3919,1.6617,0.0115,-0.0014,-0.0046,0.0040,0.57,-0.45,-10.53,0,0.008,-0.037,-0.289,-0.029,-0.010,0.012,0.996,0.000,0.000,0.000
7,0.3903,1.6633,0.0116,-0.0099,0.0041,0.0039,0.64,-0.41,-10.52,0,0.008,-0.031,0.111,0.322,-0.010,0.011,0.996,0.000,0.000,0.000
8,0.3912,1.6625,0.0116,-0.0049,-0.0004,0.0038,0.63,-0.50,-10.51,0,0.008,0.085,-0.140,-0.058,-0.010,0.010,0.997,0.000,0.000,0.000
8,0.3911,1.6631,0.0117,-0.0053,0.0033,0.0036,0.57,-0.47,-10.50,0,0.008,0.195,-0.090,0.179,-0.010,0.009,0.999,0.000,0.000,0.000
8,0.3900,1.6618,0.0117,-0.0113,-0.0037,0.0035,0.60,-0.45,-10.49,0,0.011,0.284,0.090,-0.252,-0.010,0.008,0.996,0.000,0.000,0.000
8,0.3919,1.6617,0.0101,-0.0010,-0.0041,-0.0048,0.58,-0.46,-10.48,0,0.011,0.160,-0.154,0.120,-0.009,0.010,0.999,0.000,0.000,0.000
8,0.3915,1.6630,0.0101,-0.0032,0.0034,-0.0051,0.57,-0.46,-10.47,0,0.011,-0.090,-0.180,-0.124,-0.009,0.010,0.999,0.000,0.000,0.000
8,0.3909,1.6625,0.0100,-0.0060,0.0004,-0.0056,0.56,-0.46,-10.46,0,0.011,0.020,-0.250,-0.203,-0.010,0.009,0.998,0.000,0.000,0.000
8,0.3913,1.6631,0.0100,-0.0043,0.0035,-0.0058,0.62,-0.46,-10.45,0,0.011,0.229,-0.043,0.033,-0.012,0.008,0.998,0.000,0.000,0.000
8,0.3913,1.6633,0.0103,-0.0041,0.0043,-0.0038,0.62,-0.46,-10.44,0,0.011,0.158,-0.147,0.441,-0.010,0.010,1.000,0.000,0.000,0.000
8,0.3913,1.6635,0.0103,-0.0039,0.0051,-0.0042,0.62,-0.45,-10.43,0,0.009,-0.033,-0.266,0.202,-0.010,0.008,0.999,0.000,0.000,0.000
8,0.3911,1.6623,0.0103,-0.0050,-0.0018,-0.0042,0.64,-0.46,-10.41,0,0.009,-0.061,-0.218,-0.337,-0.010,0.009,0.999,0.000,0.000,0.000
8,0.3911,1.6622,0.0102,-0.0051,-0.0019,-0.0043,0.64,-0.47,-10.40,0,0.009,-0.048,-0.090,0.243,-0.010,0.010,0.999,0.000,0.000,0.000
8,0.3908,1.6623,0.0102,-0.0063,-0.0017,-0.0045,0.60,-0.47,-10.39,0,0.009,0.190,-0.222,0.016,-0.010,0.010,0.999,0.000,0.000,0.000
8,0.3910,1.6618,0.0101,-0.0056,-0.0043,-0.0047,0.56,-0.47,-10.38,0,0.008,0.377,0.053,-0.279,-0.012,0.010,0.999,0.000,0.000,0.000
8,0.3911,1.6616,0.0096,-0.0046,-0.0055,-0.0072,0.61,-0.45,-10.38,0,0.008,0.074,-0.371,0.040,-0.011,0.008,0.999,0.000,0.000,0.000
8,0.3913,1.6624,0.0095,-0.0037,-0.0010,-0.0073,0.59,-0.45,-10.37,0,0.008,-0.102,-0.042,0.592,-0.010,0.008,0.997,0.000,0.000,0.000
8,0.3914,1.6633,0.0094,-0.0029,0.0036,-0.0074,0.59,-0.46,-10.35,0,0.008,-0.001,0.124,0.112,-0.011,0.009,1.000,0.000,0.000,0.000
8,0.3909,1.6625,0.0094,-0.0061,-0.0008,-0.0074,0.59,-0.47,-10.34,0,0.008,0.280,0.041,0.020,-0.012,0.011,0.997,0.000,0.000,0.000
8,0.3909,1.6627,0.0087,-0.0059,0.0004,-0.0104,0.60,-0.47,-10.33,0,0.008,-0.037,-0.199,0.075,-0.009,0.009,0.997,0.000,0.000,0.000
8,0.3911,1.6627,0.0086,-0.0049,0.0002,-0.0105,0.58,-0.46,-10.32,0,0.009,0.278,-0.284,-0.190,-0.010,0.008,1.000,0.000,0.000,0.000
9,0.3913,1.6626,0.0085,-0.0038,-0.0002,-0.0107,0.54,-0.50,-10.31,0,0.009,0.167,-0.242,-0.016,-0.011,0.009,1.001,0.000,0.000,0.000
9,0.3913,1.6624,0.0084,-0.0040,-0.0015,-0.0109,0.65,-0.47,-10.30,0,0.009,0.063,-0.202,0.376,-0.010,0.009,0.998,0.000,0.000,0.000
9,0.3911,1.6629,0.0083,-0.0049,0.0011,-0.0110,0.58,-0.46,-10.29,0,0.009,-0.251,-0.207,0.101,-0.011,0.010,1.000,0.000,0.000,0.000
9,0.3922,1.6638,0.0082,0.0006,0.0060,-0.0113,0.62,-0.42,-10.28,0,0.009,-0.043,-0.302,0.055,-0.013,0.009,1.000,0.000,0.000,0.000
9,0.3911,1.6614,0.0085,-0.0054,-0.0076,-0.0096,0.57,-0.42,-10.27,0,0.009,-0.057,-0.293,0.197,-0.011,0.009,0.997,0.000,0.000,0.000
9,0.3911,1.6629,0.0084,-0.0051,0.0010,-0.0094,0.58,-0.46,-10.26,0,0.009,0.270,-0.257,-0.243,-0.009,0.011,0.996,0.000,0.000,0.000
9,0.3901,1.6622,0.0083,-0.0107,-0.0029,-0.0094,0.64,-0.46,-10.25,0,0.009,0.375,-0.048,-0.058,-0.011,0.009,0.997,0.000,0.000,0.000
9,0.3903,1.6632,0.0082,-0.0093,0.0030,-0.0094,0.58,-0.46,-10.24,0,0.009,-0.070,0.081,0.531,-0.011,0.010,1.000,0.000,0.000,0.000
9,0.3911,1.6629,0.0085,-0.0047,0.0008,-0.0077,0.58,-0.45,-10.23,0,0.009,0.118,0.006,-0.078,-0.009,0.010,0.998,0.000,0.000,0.000
9,0.3908,1.6614,0.0084,-0.0064,-0.0073,-0.0077,0.59,-0.46,-10.21,0,0.009,0.174,-0.204,0.073,-0.007,0.010,0.997,0.000,0.000,0.000
9,0.3911,1.6629,0.0083,-0.0049,0.0010,-0.0078,0.64,-0.45,-10.20,0,0.009,0.049,-0.167,0.005,-0.011,0.010,0.997,0.000,0.000,0.000
9,0.3909,1.6629,0.0083,-0.0060,0.0012,-0.0081,0.64,-0.50,-10.19,0,0.009,0.143,0.216,0.024,-0.012,0.007,0.998,0.000,0.000,0.000
9,0.3911,1.6627,0.0082,-0.0050,-0.0002,-0.0083,0.62,-0.47,-10.18,0,0.009,-0.099,-0.273,-0.238,-0.010,0.010,0.999,0.000,0.000,0.000
9,0.3906,1.6615,0.0081,-0.0074,-0.0068,-0.0084,0.55,-0.45,-10.17,0,0.015,0.181,0.216,-0.247,-0.011,0.010,0.998,0.000,0.000,0.000
9,0.3916,1.6613,0.0084,-0.0015,-0.0076,-0.0064,0.57,-0.46,-10.16,0,0.015,-0.023,-0.636,0.222,-0.011,0.009,0.998,0.000,0.000,0.000
9,0.3911,1.6618,0.0084,-0.0044,-0.0044,-0.0066,0.61,-0.46,-10.15,0,0.015,0.160,-0.243,0.031,-0.012,0.010,0.997,0.000,0.000,0.000
9,0.3909,1.6633,0.0083,-0.0053,0.0040,-0.0069,0.60,-0.46,-10.14,0,0.015,-0.067,0.044,0.142,-0.013,0.010,0.999,0.000,0.000,0.000
9,0.3911,1.6629,0.0083,-0.0047,0.0012,-0.0070,0.61,-0.42,-10.13,0,0.015,0.101,0.078,0.265,-0.012,0.010,1.000,0.000,0.000,0.000
9,0.3909,1.6620,0.0111,-0.0055,-0.0035,0.0076,0.62,-0.46,-10.12,0,0.015,0.106,-0.389,0.132,-0.011,0.010,0.996,0.000,0.000,0.000
9,0.3909,1.6622,0.0111,-0.0054,-0.0022,0.0074,0.55,-0.49,-10.11,0,0.010,0.091,-0.290,-0.312,-0.011,0.011,0.996,0.000,0.000,0.000
10,0.3901,1.6621,0.0112,-0.0100,-0.0025,0.0071,0.60,-0.47,-10.10,0,0.010,0.176,-0.024,-0.006,-0.009,0.011,0.999,0.000,0.000,0.000
10,0.3906,1.6616,0.0113,-0.0070,-0.0050,0.0069,0.63,-0.49,-10.09,0,0.010,0.381,-0.236,-0.061,-0.009,0.010,1.001,0.000,0.000,0.000
10,0.3917,1.6631,0.0114,-0.0012,0.0033,0.0071,0.56,-0.46,-10.08,0,0.010,0.093,-0.347,-0.128,-0.009,0.011,1.001,0.000,0.000,0.000
10,0.3911,1.6621,0.0115,-0.0047,-0.0020,0.0071,0.56,-0.45,-10.07,0,0.008,0.144,0.100,-0.118,-0.010,0.009,0.998,0.000,0.000,0.000
10,0.3914,1.6612,0.0109,-0.0033,-0.0066,0.0033,0.57,-0.46,-10.06,0,0.008,-0.169,-0.247,0.269,-0.010,0.008,0.999,0.000,0.000,0.000
10,0.3910,1.6630,0.0109,-0.0051,0.0033,0.0031,0.61,-0.43,-10.05,0,0.008,0.100,-0.095,-0.203,-0.010,0.008,0.997,0.000,0.000,0.000
10,0.3908,1.6630,0.0109,-0.0060,0.0034,0.0032,0.58,-0.46,-10.04,0,0.008,0.412,-0.183,-0.080,-0.011,0.008,1.000,0.000,0.000,0.000
10,0.3910,1.6628,0.0110,-0.0049,0.0020,0.0033,0.59,-0.45,-10.03,0,0.008,-0.065,-0.253,0.015,-0.011,0.008,0.999,0.000,0.000,0.000
10,0.3900,1.6621,0.0098,-0.0100,-0.0017,-0.0030,0.56,-0.46,-10.02,0,0.008,0.152,-0.086,0.098,-0.012,0.009,0.998,0.000,0.000,0.000
10,0.3910,1.6626,0.0097,-0.0047,0.0008,-0.0030,0.58,-0.47,-10.01,0,0.010,0.288,-0.227,0.024,-0.011,0.010,0.997,0.000,0.000,0.000
10,0.3907,1.6624,0.0097,-0.0060,-0.0004,-0.0032,0.55,-0.50,-10.00,0,0.010,-0.256,-0.261,0.028,-0.011,0.009,0.997,0.000,0.000,0.000
10,0.3908,1.6630,0.0097,-0.0054,0.0027,-0.0033,0.62,-0.50,-9.99,0,0.010,0.249,-0.116,-0.114,-0.011,0.009,1.000,0.000,0.000,0.000
10,0.3910,1.6626,0.0096,-0.0047,0.0001,-0.0034,0.59,-0.46,-9.98,0,0.010,-0.065,-0.282,0.274,-0.010,0.011,0.999,0.000,0.000,0.000
10,0.3919,1.6633,0.0096,0.0004,0.0036,-0.0035,0.61,-0.46,-9.97,0,0.008,0.315,0.234,-0.084,-0.013,0.011,0.997,0.000,0.000,0.000
10,0.3916,1.6616,0.0098,-0.0016,-0.0054,-0.0028,0.60,-0.49,-9.96,0,0.008,0.366,-0.230,-0.139,-0.011,0.011,0.999,0.000,0.000,0.000
10,0.3909,1.6624,0.0097,-0.0055,-0.0011,-0.0031,0.57,-0.47,-9.96,0,0.008,0.206,-0.161,0.074,-0.009,0.010,0.999,0.000,0.000,0.000
10,0.3908,1.6620,0.0097,-0.0059,-0.0034,-0.0033,0.61,-0.47,-9.94,0,0.008,0.195,0.100,-0.342,-0.010,0.009,0.997,0.000,0.000,0.000
10,0.3915,1.6621,0.0097,-0.0024,-0.0028,-0.0033,0.61,-0.47,-9.94,0,0.008,0.059,0.038,0.317,-0.011,0.010,0.998,0.000,0.000,0.000
10,0.3912,1.6630,0.0089,-0.0040,0.0023,-0.0069,0.61,-0.42,-9.93,0,0.008,-0.112,-0.068,0.219,-0.011,0.010,1.000,0.000,0.000,0.000
11,0.3910,1.6619,0.0089,-0.0052,-0.0032,-0.0071,0.56,-0.44,-9.92,0,0.012,0.118,0.109,0.183,-0.011,0.012,0.998,0.000,0.000,0.000
11,0.3910,1.6619,0.0088,-0.0054,-0.0031,-0.0073,0.61,-0.42,-9.91,0,0.012,0.192,-0.208,0.176,-0.013,0.008,0.997,0.000,0.000,0.000
11,0.3899,1.6621,0.0087,-0.0111,-0.0019,-0.0075,0.63,-0.50,-9.90,0,0.012,0.296,-0.201,0.022,-0.011,0.008,0.998,0.000,0.000,0.000
11,0.3905,1.6631,0.0087,-0.0074,0.0035,-0.0076,0.59,-0.47,-9.89,0,0.012,-0.215,-0.197,-0.027,-0.011,0.010,0.998,0.000,0.000,0.000
11,0.3897,1.6621,0.0086,-0.0118,-0.0018,-0.0078,0.62,-0.47,-9.88,0,0.010,0.097,-0.162,-0.323,-0.010,0.008,0.997,0.000,0.000,0.000
11,0.3915,1.6614,0.0101,-0.0015,-0.0059,0.0000,0.59,-0.47,-9.87,0,0.010,0.060,0.092,0.079,-0.010,0.008,0.998,0.000,0.000,0.000
11,0.3910,1.6623,0.0101,-0.0044,-0.0002,-0.0002,0.58,-0.47,-9.86,0,0.010,0.319,-0.265,-0.085,-0.009,0.009,0.998,0.000,0.000,0.000
11,0.3909,1.6615,0.0101,-0.0054,-0.0051,-0.0005,0.63,-0.47,-9.85,0,0.010,-0.183,-0.258,0.135,-0.009,0.012,0.998,0.000,0.000,0.000
11,0.3910,1.6621,0.0101,-0.0047,-0.0015,-0.0006,0.59,-0.46,-9.84,0,0.010,0.123,-0.017,-0.052,-0.011,0.012,0.998,0.000,0.000,0.000
11,0.3910,1.6625,0.0100,-0.0043,0.0009,-0.0011,0.59,-0.46,-9.83,0,0.010,0.319,-0.301,0.155,-0.011,0.009,0.998,0.000,0.000,0.000
11,0.3908,1.6612,0.0100,-0.0055,-0.0064,-0.0013,0.54,-0.47,-9.82,0,0.010,0.088,-0.487,0.037,-0.008,0.010,0.998,0.000,0.000,0.000
11,0.3908,1.6621,0.0100,-0.0057,-0.0013,-0.0015,0.55,-0.46,-9.81,0,0.010,0.358,-0.123,-0.006,-0.009,0.009,0.999,0.000,0.000,0.000
11,0.3905,1.6622,0.0100,-0.0067,-0.0011,-0.0017,0.62,-0.50,-9.80,0,0.010,0.188,0.070,0.180,-0.012,0.009,0.999,0.000,0.000,0.000
11,0.3911,1.6632,0.0100,-0.0032,0.0046,-0.0018,0.57,-0.50,-9.79,0,0.010,0.166,-0.266,-0.326,-0.011,0.012,0.999,0.000,0.000,0.000
11,0.3909,1.6632,0.0100,-0.0043,0.0046,-0.0020,0.54,-0.49,-9.78,0,0.008,0.176,-0.235,0.075,-0.009,0.010,0.999,0.000,0.000,0.000
11,0.3915,1.6613,0.0100,-0.0013,-0.0055,-0.0021,0.60,-0.42,-9.77,0,0.008,0.108,-0.206,-0.069,-0.010,0.011,1.000,0.000,0.000,0.000
11,0.3917,1.6626,0.0100,-0.0000,0.0015,-0.0022,0.57,-0.42,-9.76,0,0.008,0.318,-0.214,-0.049,-0.009,0.009,1.000,0.000,0.000,0.000
11,0.3916,1.6633,0.0100,-0.0009,0.0049,-0.0023,0.61,-0.46,-9.75,0,0.008,0.054,-0.002,0.280,-0.010,0.011,1.000,0.000,0.000,0.000
12,0.3899,1.6623,0.0099,-0.0102,-0.0006,-0.0022,0.61,-0.46,-9.74,0,0.008,-0.011,-0.474,0.012,-0.011,0.011,0.999,0.000,0.000,0.000
12,0.3900,1.6629,0.0091,-0.0094,0.0029,-0.0065,0.61,-0.46,-9.73,0,0.008,-0.003,-0.074,0.197,-0.011,0.009,0.997,0.000,0.000,0.000
12,0.3907,1.6619,0.0090,-0.0053,-0.0024,-0.0065,0.58,-0.45,-9.72,0,0.005,0.145,-0.277,-0.267,-0.011,0.009,0.999,0.000,0.000,0.000
12,0.3906,1.6619,0.0090,-0.0055,-0.0024,-0.0066,0.61,-0.42,-9.71,0,0.005,0.296,-0.233,-0.282,-0.012,0.010,0.997,0.000,0.000,0.000
12,0.3906,1.6619,0.0089,-0.0057,-0.0025,-0.0066,0.65,-0.45,-9.71,0,0.005,0.185,0.030,0.173,-0.012,0.009,0.995,0.000,0.000,0.000
12,0.3905,1.6626,0.0089,-0.0062,0.0017,-0.0065,0.64,-0.45,-9.69,0,0.005,-0.259,-0.126,0.097,-0.012,0.010,0.996,0.000,0.000,0.000
12,0.3897,1.6621,0.0088,-0.0104,-0.0015,-0.0067,0.59,-0.45,-9.68,0,0.010,0.074,-0.295,-0.010,-0.010,0.010,0.997,0.000,0.000,0.000
12,0.3902,1.6610,0.0070,-0.0074,-0.0068,-0.0156,0.58,-0.46,-9.67,0,0.010,0.009,-0.470,-0.172,-0.011,0.011,0.998,0.000,0.000,0.000
12,0.3902,1.6613,0.0068,-0.0071,-0.0053,-0.0157,0.58,-0.42,-9.66,0,0.010,0.068,-0.020,0.009,-0.012,0.010,1.000,0.000,0.000,0.000
12,0.3904,1.6622,0.0067,-0.0063,-0.0003,-0.0161,0.57,-0.56,-9.65,0,0.010,0.125,-0.481,0.056,-0.009,0.012,0.999,0.000,0.000,0.000
12,0.3907,1.6624,0.0065,-0.0050,0.0006,-0.0165,0.59,-0.42,-9.64,0,0.010,0.100,-0.022,-0.097,-0.006,0.012,0.997,0.000,0.000,0.000
12,0.3898,1.6625,0.0078,-0.0098,0.0014,-0.0095,0.58,-0.45,-9.64,0,0.010,0.157,0.030,0.079,-0.009,0.012,0.998,0.000,0.000,0.000
12,0.3929,1.6622,0.0078,0.0071,-0.0003,-0.0096,0.57,-0.46,-9.63,0,0.010,-0.009,-0.121,-0.012,-0.010,0.008,0.997,0.000,0.000,0.000
12,0.3898,1.6625,0.0077,-0.0101,0.0014,-0.0094,0.58,-0.50,-9.62,0,0.010,0.107,-0.310,0.246,-0.012,0.009,0.996,0.000,0.000,0.000
12,0.3904,1.6624,0.0076,-0.0064,0.0008,-0.0094,0.62,-0.50,-9.60,0,0.010,-0.010,-0.331,-0.174,-0.012,0.007,0.999,0.000,0.000,0.000
12,0.3907,1.6628,0.0075,-0.0045,0.0031,-0.0096,0.57,-0.50,-9.60,0,0.010,-0.050,-0.223,-0.193,-0.012,0.008,0.999,0.000,0.000,0.000
12,0.3915,1.6622,0.0075,0.0001,0.0001,-0.0098,0.60,-0.47,-9.59,0,0.010,0.156,-0.254,-0.050,-0.013,0.009,0.999,0.000,0.000,0.000
12,0.3914,1.6613,0.0085,-0.0008,-0.0046,-0.0043,0.55,-0.48,-9.58,0,0.010,-0.002,-0.310,0.130,-0.013,0.011,0.999,0.000,0.000,0.000
12,0.3916,1.6624,0.0085,-0.0000,0.0012,-0.0045,0.56,-0.47,-9.57,0,0.010,-0.033,0.010,0.113,-0.011,0.010,0.998,0.000,0.000,0.000
12,0.3908,1.6619,0.0084,-0.0044,-0.0018,-0.0048,0.62,-0.46,-9.56,0,0.010,0.171,-0.129,0.002,-0.009,0.010,0.998,0.000,0.000,0.000
13,0.3914,1.6629,0.0084,-0.0013,0.0033,-0.0048,0.56,-0.46,-9.55,0,0.010,0.040,-0.187,0.194,-0.012,0.010,1.000,0.000,0.000,0.000
13,0.3912,1.6629,0.0090,-0.0028,0.0033,-0.0015,0.56,-0.46,-9.54,0,0.010,0.133,-0.066,-0.016,-0.011,0.008,0.999,0.000,0.000,0.000
13,0.3907,1.6614,0.0090,-0.0055,-0.0045,-0.0016,0.56,-0.44,-9.53,0,0.012,0.022,-0.480,0.037,-0.014,0.008,1.000,0.000,0.000,0.000
13,0.3909,1.6627,0.0090,-0.0045,0.0027,-0.0017,0.54,-0.41,-9.52,0,0.012,0.032,0.078,-0.153,-0.012,0.010,1.000,0.000,0.000,0.000
13,0.3909,1.6627,0.0090,-0.0047,0.0027,-0.0019,0.60,-0.49,-9.51,0,0.012,-0.202,-0.173,0.489,-0.011,0.011,0.999,0.000,0.000,0.000
13,0.3904,1.6628,0.0090,-0.0071,0.0030,-0.0020,0.59,-0.46,-9.50,0,0.012,0.311,0.049,-0.143,-0.009,0.010,1.000,0.000,0.000,0.000
13,0.3899,1.6636,0.0089,-0.0100,0.0070,-0.0022,0.55,-0.46,-9.49,0,0.010,-0.163,-0.133,0.077,-0.010,0.009,0.999,0.000,0.000,0.000
13,0.3912,1.6620,0.0103,-0.0028,-0.0019,0.0048,0.61,-0.45,-9.48,0,0.010,0.314,-0.090,-0.199,-0.009,0.009,0.998,0.000,0.000,0.000
13,0.3906,1.6621,0.0104,-0.0067,-0.0013,0.0048,0.61,-0.45,-9.47,0,0.010,0.125,-0.144,-0.041,-0.011,0.012,0.999,0.000,0.000,0.000
13,0.3908,1.6632,0.0104,-0.0057,0.0046,0.0048,0.59,-0.42,-9.46,0,0.010,0.129,-0.242,-0.032,-0.011,0.010,0.998,0.000,0.000,0.000
13,0.3903,1.6619,0.0105,-0.0080,-0.0023,0.0048,0.55,-0.46,-9.45,0,0.010,0.098,-0.129,-0.123,-0.011,0.010,0.999,0.000,0.000,0.000
13,0.3902,1.6619,0.0103,-0.0082,-0.0024,0.0037,0.57,-0.46,-9.44,0,0.010,0.367,-0.275,-0.123,-0.013,0.009,0.999,0.000,0.000,0.000
13,0.3896,1.6624,0.0104,-0.0112,0.0007,0.0036,0.55,-0.50,-9.43,0,0.009,0.067,-0.080,0.408,-0.011,0.012,0.998,0.000,0.000,0.000
13,0.3905,1.6632,0.0104,-0.0062,0.0050,0.0035,0.57,-0.47,-9.42,0,0.009,0.186,-0.286,-0.101,-0.010,0.011,0.996,0.000,0.000,0.000
13,0.3904,1.6628,0.0105,-0.0065,0.0025,0.0034,0.55,-0.45,-9.41,0,0.009,0.015,-0.282,0.140,-0.011,0.010,0.996,0.000,0.000,0.000
13,0.3914,1.6631,0.0105,-0.0011,0.0040,0.0033,0.56,-0.49,-9.40,0,0.009,-0.066,-0.418,-0.039,-0.012,0.012,0.998,0.000,0.000,0.000
13,0.3906,1.6627,0.0105,-0.0054,0.0020,0.0033,0.59,-0.46,-9.39,0,0.011,0.378,-0.399,-0.242,-0.012,0.012,1.000,0.000,0.000,0.000
13,0.3903,1.6633,0.0099,-0.0076,0.0048,-0.0004,0.58,-0.45,-9.38,0,0.011,-0.105,-0.172,0.139,-0.011,0.012,0.999,0.000,0.000,0.000
13,0.3913,1.6628,0.0099,-0.0016,0.0025,-0.0006,0.57,-0.42,-9.37,0,0.011,0.342,0.071,0.229,-0.011,0.009,0.998,0.000,0.000,0.000
14,0.3906,1.6623,0.0099,-0.0058,-0.0006,-0.0009,0.64,-0.51,-9.36,0,0.011,0.059,-0.416,-0.047,-0.010,0.010,0.999,0.000,0.000,0.000
14,0.3904,1.6625,0.0099,-0.0067,0.0010,-0.0012,0.62,-0.47,-9.35,0,0.011,-0.166,-0.559,0.066,-0.012,0.010,1.001,0.000,0.000,0.000
14,0.3896,1.6631,0.0103,-0.0110,0.0042,0.0011,0.54,-0.47,-9.34,0,0.011,0.143,-0.095,-0.150,-0.010,0.009,0.998,0.000,0.000,0.000
14,0.3913,1.6610,0.0104,-0.0019,-0.0069,0.0013,0.55,-0.46,-9.33,0,0.011,-0.115,-0.389,0.014,-0.010,0.009,0.997,0.000,0.000,0.000
14,0.3907,1.6616,0.0104,-0.0051,-0.0036,0.0012,0.56,-0.45,-9.32,0,0.011,0.476,0.058,-0.291,-0.009,0.007,0.995,0.000,0.000,0.000
14,0.3910,1.6633,0.0104,-0.0036,0.0058,0.0012,0.65,-0.49,-9.32,0,0.011,0.184,-0.242,0.271,-0.009,0.010,0.999,0.000,0.000,0.000
14,0.3907,1.6634,0.0104,-0.0048,0.0057,0.0012,0.59,-0.42,-9.31,0,0.011,0.135,-0.212,0.258,-0.010,0.011,0.999,0.000,0.000,0.000
14,0.3905,1.6632,0.0104,-0.0062,0.0045,0.0012,0.59,-0.46,-9.30,0,0.010,0.259,-0.062,-0.380,-0.011,0.009,0.998,0.000,0.000,0.000
14,0.3910,1.6611,0.0107,-0.0033,-0.0068,0.0023,0.62,-0.45,-9.29,0,0.010,0.173,-0.102,0.004,-0.011,0.010,1.000,0.000,0.000,0.000
14,0.3897,1.6626,0.0108,-0.0101,0.0014,0.0020,0.57,-0.49,-9.28,0,0.010,0.232,-0.204,0.321,-0.012,0.011,0.999,0.000,0.000,0.000
14,0.3906,1.6625,0.0108,-0.0053,0.0004,0.0018,0.61,-0.50,-9.27,0,0.010,0.185,-0.247,-0.034,-0.012,0.011,0.997,0.000,0.000,0.000
14,0.3903,1.6619,0.0108,-0.0069,-0.0028,0.0017,0.59,-0.50,-9.26,0,0.010,0.350,-0.224,-0.040,-0.010,0.010,0.998,0.000,0.000,0.000
14,0.3913,1.6628,0.0105,-0.0014,0.0022,-0.0001,0.56,-0.46,-9.25,0,0.010,0.259,-0.162,0.137,-0.008,0.010,0.999,0.000,0.000,0.000
14,0.3914,1.6619,0.0105,-0.0012,-0.0026,-0.0003,0.56,-0.46,-9.24,0,0.009,-0.105,-0.485,0.345,-0.012,0.012,0.998,0.000,0.000,0.000
14,0.3914,1.6623,0.0105,-0.0010,-0.0002,-0.0002,0.61,-0.47,-9.23,0,0.009,0.167,-0.355,-0.087,-0.012,0.007,0.999,0.000,0.000,0.000
14,0.3907,1.6633,0.0105,-0.0051,0.0052,-0.0003,0.59,-0.49,-9.22,0,0.009,0.242,0.039,0.111,-0.011,0.008,0.999,0.000,0.000,0.000
14,0.3906,1.6634,0.0105,-0.0054,0.0053,-0.0005,0.63,-0.44,-9.21,0,0.009,0.347,-0.059,-0.038,-0.011,0.011,0.999,0.000,0.000,0.000
14,0.3909,1.6622,0.0105,-0.0038,-0.0013,-0.0006,0.58,-0.45,-9.20,0,0.012,0.072,0.069,0.116,-0.011,0.008,0.998,0.000,0.000,0.000
14,0.3914,1.6626,0.0098,-0.0011,0.0009,-0.0041,0.57,-0.46,-9.19,0,0.012,0.236,-0.121,-0.197,-0.012,0.009,0.997,0.000,0.000,0.000
15,0.3902,1.6618,0.0098,-0.0079,-0.0029,-0.0043,0.61,-0.46,-9.18,0,0.012,0.310,-0.511,-0.088,-0.013,0.011,0.996,0.000,0.000,0.000
15,0.3904,1.6629,0.0097,-0.0070,0.0026,-0.0044,0.61,-0.45,-9.17,0,0.012,-0.094,-0.683,0.090,-0.012,0.010,0.996,0.000,0.000,0.000
15,0.3906,1.6631,0.0097,-0.0056,0.0035,-0.0044,0.61,-0.45,-9.16,0,0.012,0.259,-0.186,-0.313,-0.011,0.009,0.998,0.000,0.000,0.000
15,0.3905,1.6622,0.0106,-0.0064,-0.0014,0.0003,0.63,-0.41,-9.16,0,0.012,0.151,0.105,0.154,-0.010,0.008,0.999,0.000,0.000,0.000
15,0.3904,1.6622,0.0106,-0.0067,-0.0016,0.0000,0.63,-0.44,-9.15,0,0.009,0.169,-0.192,-0.134,-0.010,0.008,0.999,0.000,0.000,0.000
15,0.3903,1.6622,0.0106,-0.0072,-0.0016,-0.0003,0.66,-0.49,-9.14,0,0.009,-0.088,-0.198,-0.011,-0.010,0.010,0.999,0.000,0.000,0.000
15,0.3893,1.6619,0.0106,-0.0127,-0.0031,-0.0008,0.64,-0.49,-9.13,0,0.009,0.284,-0.315,0.010,-0.012,0.011,0.999,0.000,0.000,0.000
15,0.3900,1.6618,0.0106,-0.0087,-0.0036,-0.0010,0.63,-0.45,-9.12,0,0.009,0.049,-0.417,-0.038,-0.011,0.009,0.998,0.000,0.000,0.000
15,0.3911,1.6608,0.0106,-0.0029,-0.0083,-0.0012,0.60,-0.45,-9.11,0,0.011,0.345,0.100,0.045,-0.011,0.008,0.997,0.000,0.000,0.000
15,0.3912,1.6614,0.0099,-0.0024,-0.0054,-0.0048,0.60,-0.45,-9.10,0,0.011,0.058,-0.173,0.058,-0.007,0.009,0.999,0.000,0.000,0.000
15,0.3903,1.6617,0.0098,-0.0074,-0.0036,-0.0049,0.57,-0.45,-9.09,0,0.011,0.172,0.082,-0.004,-0.010,0.010,1.001,0.000,0.000,0.000
15,0.3904,1.6622,0.0098,-0.0066,-0.0010,-0.0048,0.58,-0.46,-9.09,0,0.011,0.145,-0.210,-0.166,-0.011,0.009,0.997,0.000,0.000,0.000
15,0.3904,1.6624,0.0097,-0.0067,0.0003,-0.0051,0.59,-0.45,-9.08,0,0.011,0.267,-0.326,-0.268,-0.011,0.011,0.996,0.000,0.000,0.000
15,0.3906,1.6631,0.0102,-0.0058,0.0038,-0.0024,0.57,-0.42,-9.07,0,0.011,-0.050,0.039,0.306,-0.011,0.010,0.997,0.000,0.000,0.000
15,0.3905,1.6629,0.0102,-0.0060,0.0021,-0.0029,0.61,-0.46,-9.06,0,0.010,0.074,-0.197,0.194,-0.011,0.010,0.997,0.000,0.000,0.000
15,0.3903,1.6627,0.0102,-0.0071,0.0010,-0.0029,0.60,-0.46,-9.05,0,0.010,0.069,-0.218,-0.010,-0.013,0.011,0.999,0.000,0.000,0.000
15,0.3897,1.6634,0.0101,-0.0098,0.0049,-0.0030,0.66,-0.48,-9.04,0,0.010,0.390,-0.159,0.165,-0.010,0.010,0.999,0.000,0.000,0.000
15,0.3904,1.6622,0.0101,-0.0058,-0.0020,-0.0030,0.58,-0.50,-9.03,0,0.010,0.106,0.048,-0.011,-0.010,0.009,0.998,0.000,0.000,0.000
15,0.3905,1.6624,0.0101,-0.0055,-0.0007,-0.0034,0.64,-0.46,-9.02,0,0.010,-0.098,-0.046,0.007,-0.011,0.008,0.997,0.000,0.000,0.000
16,0.3907,1.6611,0.0100,-0.0043,-0.0080,-0.0039,0.58,-0.45,-9.01,0,0.010,0.066,-0.122,0.227,-0.011,0.009,0.997,0.000,0.000,0.000
16,0.3914,1.6627,0.0100,-0.0004,0.0014,-0.0040,0.58,-0.50,-9.00,0,0.010,-0.082,0.089,0.230,-0.010,0.010,0.999,0.000,0.000,0.000
16,0.3903,1.6616,0.0100,-0.0066,-0.0049,-0.0042,0.63,-0.48,-8.99,0,0.010,0.157,0.072,-0.068,-0.008,0.011,0.996,0.000,0.000,0.000
16,0.3903,1.6629,0.0100,-0.0066,0.0024,-0.0042,0.63,-0.42,-8.98,0,0.010,0.008,-0.305,0.118,-0.010,0.011,0.998,0.000,0.000,0.000
16,0.3914,1.6627,0.0100,-0.0005,0.0013,-0.0041,0.59,-0.46,-8.97,0,0.010,0.038,-0.206,-0.146,-0.011,0.011,0.997,0.000,0.000,0.000
16,0.3908,1.6617,0.0099,-0.0039,-0.0043,-0.0044,0.59,-0.46,-8.97,0,0.011,0.045,-0.533,-0.343,-0.011,0.011,0.995,0.000,0.000,0.000
16,0.3895,1.6619,0.0099,-0.0108,-0.0031,-0.0047,0.62,-0.42,-8.96,0,0.011,0.118,-0.135,0.024,-0.013,0.008,0.996,0.000,0.000,0.000
16,0.3905,1.6626,0.0098,-0.0052,0.0008,-0.0047,0.62,-0.43,-8.95,0,0.011,-0.021,0.075,-0.028,-0.010,0.011,0.998,0.000,0.000,0.000
16,0.3904,1.6626,0.0098,-0.0053,0.0008,-0.0050,0.63,-0.45,-8.94,0,0.011,-0.089,-0.016,0.228,-0.012,0.013,1.000,0.000,0.000,0.000
16,0.3894,1.6619,0.0097,-0.0106,-0.0032,-0.0053,0.62,-0.46,-8.93,0,0.011,0.148,-0.154,-0.106,-0.010,0.012,0.998,0.000,0.000,0.000
16,0.3897,1.6618,0.0103,-0.0091,-0.0031,-0.0025,0.63,-0.47,-8.92,0,0.011,-0.225,-0.149,0.116,-0.012,0.009,0.998,0.000,0.000,0.000
16,0.3901,1.6616,0.0102,-0.0068,-0.0044,-0.0029,0.59,-0.47,-8.91,0,0.011,0.167,-0.070,0.060,-0.011,0.010,0.997,0.000,0.000,0.000
16,0.3903,1.6617,0.0102,-0.0055,-0.0032,-0.0033,0.57,-0.50,-8.90,0,0.011,-0.088,-0.287,0.223,-0.009,0.009,0.999,0.000,0.000,0.000
16,0.3903,1.6615,0.0102,-0.0057,-0.0042,-0.0036,0.57,-0.47,-8.89,0,0.011,0.271,0.069,0.209,-0.010,0.009,0.998,0.000,0.000,0.000
16,0.3904,1.6624,0.0105,-0.0049,0.0008,-0.0017,0.59,-0.47,-8.88,0,0.011,-0.003,-0.066,0.065,-0.012,0.009,0.999,0.000,0.000,0.000
16,0.3913,1.6627,0.0105,0.0001,0.0025,-0.0018,0.59,-0.46,-8.87,0,0.009,-0.074,-0.159,0.192,-0.010,0.009,0.998,0.000,0.000,0.000
16,0.3905,1.6628,0.0105,-0.0046,0.0031,-0.0020,0.59,-0.49,-8.86,0,0.009,-0.008,-0.441,-0.091,-0.009,0.010,0.996,0.000,0.000,0.000
16,0.3904,1.6624,0.0104,-0.0051,0.0006,-0.0023,0.64,-0.50,-8.86,0,0.009,0.134,-0.356,-0.165,-0.009,0.009,0.998,0.000,0.000,0.000
16,0.3902,1.6624,0.0104,-0.0061,0.0008,-0.0024,0.59,-0.44,-8.85,0,0.009,0.044,-0.222,0.011,-0.012,0.010,0.997,0.000,0.000,0.000
16,0.3910,1.6623,0.0104,-0.0016,-0.0001,-0.0025,0.58,-0.45,-8.84,0,0.011,0.233,-0.464,0.262,-0.011,0.011,0.998,0.000,0.000,0.000
17,0.3911,1.6612,0.0098,-0.0016,-0.0060,-0.0059,0.56,-0.45,-8.83,0,0.011,0.078,-0.309,-0.022,-0.010,0.010,0.999,0.000,0.000,0.000
17,0.3900,1.6625,0.0097,-0.0076,0.0008,-0.0059,0.60,-0.45,-8.82,0,0.011,0.067,-0.316,-0.288,-0.012,0.011,0.996,0.000,0.000,0.000
17,0.3902,1.6626,0.0097,-0.0061,0.0017,-0.0062,0.66,-0.47,-8.82,0,0.011,0.069,-0.048,-0.105,-0.013,0.009,0.999,0.000,0.000,0.000
17,0.3903,1.6630,0.0096,-0.0056,0.0038,-0.0064,0.63,-0.46,-8.81,0,0.011,0.168,-0.253,-0.040,-0.012,0.009,0.999,0.000,0.000,0.000
17,0.3901,1.6622,0.0101,-0.0063,-0.0008,-0.0036,0.59,-0.46,-8.80,0,0.011,-0.189,0.015,0.168,-0.012,0.008,0.999,0.000,0.000,0.000
17,0.3906,1.6609,0.0101,-0.0040,-0.0080,-0.0039,0.59,-0.45,-8.79,0,0.010,0.395,-0.504,-0.213,-0.010,0.012,0.997,0.000,0.000,0.000
17,0.3902,1.6616,0.0101,-0.0057,-0.0039,-0.0039,0.64,-0.46,-8.78,0,0.010,0.201,-0.274,0.002,-0.011,0.011,0.997,0.000,0.000,0.000
17,0.3904,1.6624,0.0100,-0.0050,0.0007,-0.0042,0.64,-0.46,-8.77,0,0.010,0.123,-0.186,0.009,-0.012,0.010,0.998,0.000,0.000,0.000
17,0.3902,1.6624,0.0100,-0.0064,0.0009,-0.0045,0.61,-0.46,-8.76,0,0.010,0.331,-0.323,0.188,-0.011,0.010,0.997,0.000,0.000,0.000
17,0.3902,1.6613,0.0099,-0.0063,-0.0049,-0.0046,0.55,-0.46,-8.75,0,0.010,0.012,-0.287,-0.072,-0.011,0.010,0.998,0.000,0.000,0.000
17,0.3902,1.6611,0.0099,-0.0065,-0.0059,-0.0044,0.62,-0.42,-8.75,0,0.010,-0.019,-0.077,-0.063,-0.010,0.011,0.999,0.000,0.000,0.000
17,0.3903,1.6617,0.0099,-0.0060,-0.0024,-0.0046,0.61,-0.45,-8.74,0,0.010,0.196,-0.016,-0.283,-0.010,0.009,0.997,0.000,0.000,0.000
17,0.3905,1.6632,0.0099,-0.0047,0.0057,-0.0048,0.61,-0.46,-8.73,0,0.010,0.066,-0.224,0.276,-0.010,0.009,0.998,0.000,0.000,0.000
17,0.3895,1.6619,0.0098,-0.0105,-0.0015,-0.0049,0.60,-0.46,-8.72,0,0.010,0.046,-0.130,-0.139,-0.011,0.009,1.001,0.000,0.000,0.000
17,0.3900,1.6618,0.0099,-0.0069,-0.0020,-0.0047,0.60,-0.45,-8.71,0,0.010,0.079,-0.404,0.199,-0.009,0.009,0.998,0.000,0.000,0.000
17,0.3902,1.6617,0.0098,-0.0058,-0.0020,-0.0049,0.58,-0.46,-8.70,0,0.008,0.019,-0.327,-0.158,-0.009,0.010,0.997,0.000,0.000,0.000
17,0.3903,1.6619,0.0098,-0.0054,-0.0008,-0.0050,0.57,-0.44,-8.70,0,0.008,0.339,-0.197,-0.136,-0.012,0.009,0.998,0.000,0.000,0.000
17,0.3901,1.6620,0.0097,-0.0065,-0.0006,-0.0053,0.58,-0.49,-8.69,0,0.008,0.178,-0.065,-0.137,-0.011,0.010,0.996,0.000,0.000,0.000
17,0.3903,1.6625,0.0097,-0.0047,0.0025,-0.0055,0.57,-0.46,-8.68,0,0.008,-0.010,0.056,0.115,-0.012,0.008,0.999,0.000,0.000,0.000
18,0.3900,1.6628,0.0096,-0.0068,0.0038,-0.0055,0.01,0.00,0.00,0,0.013,0.275,-0.087,-0.097,-0.011,0.009,1.000,0.000,0.000,0.000
18,0.3911,1.6624,0.0089,-0.0001,0.0014,-0.0091,0.01,0.01,-0.00,0,0.013,0.140,-0.155,0.070,-0.011,0.008,0.999,0.000,0.000,0.000
18,0.0000,0.0000,0.0000,0.0000,0.0000,0.0000,-0.00,0.01,0.00,0,0.013,-0.087,-0.349,0.244,-0.009,0.008,0.999,0.000,0.000,0.000
18,-0.0000,-0.0000,0.0888,-0.0017,-0.0030,-0.0001,-0.07,-0.02,0.00,0,0.013,-0.012,-0.052,-0.180,-0.008,0.010,0.997,0.000,0.000,0.000
18,-0.0000,-0.0000,0.0888,-0.0029,-0.0021,-0.0004,0.05,0.13,0.00,0,0.013,0.371,-0.141,0.081,-0.009,0.010,0.997,0.000,0.000,0.000
18,-0.0001,-0.0000,0.0130,-0.0037,0.0002,-0.0006,0.02,0.02,0.00,0,0.013,0.045,-0.346,-0.223,-0.011,0.010,0.999,0.000,0.000,0.000
18,-0.0000,0.0001,0.0130,-0.0032,0.0047,-0.0007,0.02,-0.03,0.00,0,0.007,0.273,-0.074,-0.271,-0.012,0.010,0.999,0.000,0.000,0.000
18,-0.0004,-0.0001,0.0130,-0.0116,0.0002,-0.0007,0.03,-0.08,-0.00,0,0.007,0.077,0.088,-0.055,-0.011,0.008,0.998,0.000,0.000,0.000
18,-0.0003,-0.0000,0.0130,-0.0080,0.0021,-0.0008,-0.33,0.08,0.00,0,0.007,0.358,-0.068,-0.563,-0.012,0.009,1.000,0.000,0.000,0.000
18,-0.0003,0.0000,0.0130,-0.0070,0.0028,-0.0010,-0.02,-0.13,-0.00,0,0.007,-0.015,-0.105,0.265,-0.011,0.010,0.997,0.000,0.000,0.000
18,-0.0002,0.0000,0.0130,-0.0058,0.0035,-0.0013,0.23,0.04,0.00,0,0.008,-0.154,-0.046,0.171,-0.011,0.011,0.997,0.000,0.000,0.000
18,-0.0006,0.0008,0.0099,-0.0121,0.0173,-0.0062,0.23,-0.09,0.00,0,0.008,0.296,-0.254,-0.058,-0.012,0.011,0.998,0.000,0.000,0.000
18,-0.0003,0.0004,0.0099,-0.0063,0.0083,-0.0061,0.04,-0.40,0.00,0,0.008,-0.064,-0.368,0.186,-0.011,0.011,0.998,0.000,0.000,0.000
18,-0.0007,-0.0002,0.0098,-0.0131,0.0005,-0.0062,0.41,-0.35,0.00,0,0.008,0.433,-0.278,-0.039,-0.011,0.010,1.000,0.000,0.000,0.000
18,-0.0006,-0.0002,0.0098,-0.0099,0.0008,-0.0062,0.10,-0.35,0.00,0,0.008,0.123,-0.125,0.023,-0.011,0.008,0.999,0.000,0.000,0.000
18,0.0001,0.0004,0.0090,0.0001,0.0080,-0.0086,0.33,0.00,0.00,0,0.008,0.131,-0.302,-0.191,-0.011,0.010,0.997,0.000,0.000,0.000
18,0.0000,-0.0006,0.0090,-0.0021,-0.0041,-0.0088,0.33,-0.14,0.00,0,0.012,0.382,-0.050,-0.123,-0.012,0.010,0.997,0.000,0.000,0.000
18,-0.0000,0.0003,0.0089,-0.0024,0.0073,-0.0089,0.34,-0.47,0.00,0,0.012,0.135,0.028,0.110,-0.012,0.011,0.997,0.000,0.000,0.000
18,-0.0011,-0.0003,0.0088,-0.0155,0.0001,-0.0091,-0.01,-0.47,0.00,0,0.012,-0.031,-0.141,0.069,-0.015,0.010,0.998,0.000,0.000,0.000
18,-0.0008,-0.0003,0.0087,-0.0114,0.0004,-0.0091,0.42,-0.22,0.00,0,0.012,0.387,0.093,-0.150,-0.013,0.009,1.000,0.000,0.000,0.000
19,0.0002,-0.0003,0.0087,0.0001,0.0007,-0.0090,0.14,-0.24,0.00,0,0.011,0.262,-0.154,0.127,-0.010,0.010,0.998,0.000,0.000,0.000
19,0.0002,0.0009,0.0100,-0.0002,0.0141,-0.0020,0.21,-0.31,0.00,0,0.011,-0.130,-0.284,0.130,-0.012,0.009,0.999,0.000,0.000,0.000
19,-0.0007,-0.0005,0.0100,-0.0101,-0.0017,-0.0020,0.41,-0.15,0.00,0,0.011,0.001,-0.046,0.272,-0.012,0.007,1.000,0.000,0.000,0.000
19,-0.0007,0.0005,0.0100,-0.0099,0.0102,-0.0022,0.42,-0.36,0.00,0,0.011,0.181,-0.164,-0.043,-0.010,0.007,1.000,0.000,0.000,0.000
19,-0.0006,0.0004,0.0100,-0.0080,0.0079,-0.0024,0.42,-0.24,0.00,0,0.011,0.153,0.053,-0.333,-0.011,0.010,0.997,0.000,0.000,0.000
19,-0.0013,-0.0004,0.0104,-0.0157,-0.0000,-0.0001,0.21,-0.39,-0.00,0,0.011,-0.039,-0.218,0.030,-0.012,0.009,0.995,0.000,0.000,0.000
19,-0.0005,-0.0004,0.0104,-0.0073,0.0002,-0.0001,0.52,-0.41,-0.00,0,0.010,-0.056,0.109,0.083,-0.012,0.010,0.998,0.000,0.000,0.000
19,-0.0011,-0.0004,0.0104,-0.0129,0.0003,-0.0002,0.20,-0.57,-0.00,0,0.010,0.206,-0.111,-0.087,-0.011,0.011,0.999,0.000,0.000,0.000
19,-0.0005,0.0006,0.0104,-0.0067,0.0099,-0.0002,0.53,-0.57,-0.00,0,0.010,0.178,0.082,0.174,-0.011,0.011,0.999,0.000,0.000,0.000
19,-0.0005,-0.0009,0.0104,-0.0065,-0.0041,-0.0001,0.30,-0.38,-0.00,0,0.010,-0.008,-0.234,0.086,-0.013,0.010,0.998,0.000,0.000,0.000
19,0.0003,0.0008,0.0104,0.0014,0.0113,-0.0001,0.38,-0.39,-0.00,0,0.010,0.355,-0.044,-0.266,-0.011,0.010,0.997,0.000,0.000,0.000
19,0.0003,-0.0009,0.0103,0.0011,-0.0041,-0.0015,0.39,-0.44,-0.00,0,0.010,-0.038,0.022,-0.012,-0.010,0.010,0.996,0.000,0.000,0.000
19,-0.0008,0.0004,0.0103,-0.0085,0.0074,-0.0015,0.36,-0.45,-0.00,0,0.010,0.154,-0.179,-0.075,-0.011,0.011,0.998,0.000,0.000,0.000
19,-0.0008,-0.0001,0.0103,-0.0082,0.0036,-0.0016,0.41,-0.33,-0.00,0,0.010,-0.055,-0.346,-0.151,-0.012,0.009,0.998,0.000,0.000,0.000
19,-0.0006,-0.0001,0.0103,-0.0060,0.0037,-0.0016,0.38,-0.41,-0.00,0,0.010,0.166,-0.109,0.082,-0.010,0.007,0.997,0.000,0.000,0.000
19,-0.0006,0.0002,0.0101,-0.0060,0.0055,-0.0023,0.39,-0.45,-0.00,0,0.010,0.324,-0.093,-0.441,-0.010,0.009,0.997,0.000,0.000,0.000
19,-0.0015,-0.0001,0.0101,-0.0130,0.0035,-0.0026,0.37,-0.58,-0.00,0,0.010,0.184,-0.296,-0.178,-0.009,0.008,1.000,0.000,0.000,0.000
19,-0.0010,0.0002,0.0101,-0.0088,0.0051,-0.0029,0.44,-0.60,-0.01,0,0.010,0.176,-0.038,-0.247,-0.011,0.009,0.999,0.000,0.000,0.000
19,-0.0008,0.0001,0.0101,-0.0067,0.0051,-0.0031,0.58,-0.46,-0.00,0,0.010,0.183,-0.433,-0.097,-0.011,0.011,0.997,0.000,0.000,0.000
20,0.0002,0.0004,0.0100,0.0006,0.0066,-0.0033,0.36,-0.49,-0.01,0,0.010,0.364,-0.181,0.038,-0.013,0.010,0.997,0.000,0.000,0.000
20,0.0004,-0.0001,0.0100,0.0022,0.0028,-0.0035,0.45,-0.47,-0.01,0,0.009,0.049,-0.189,0.246,-0.013,0.010,0.997,0.000,0.000,0.000
20,-0.0008,-0.0012,0.0100,-0.0066,-0.0059,-0.0037,0.43,-0.50,-0.01,0,0.009,0.017,-0.239,-0.036,-0.012,0.009,1.000,0.000,0.000,0.000
20,-0.0005,0.0006,0.0100,-0.0045,0.0078,-0.0036,0.36,-0.48,-0.01,0,0.009,0.117,-0.065,0.408,-0.010,0.011,1.000,0.000,0.000,0.000
20,-0.0008,-0.0001,0.0100,-0.0060,0.0023,-0.0036,0.44,-0.53,-0.00,0,0.009,0.040,-0.199,-0.132,-0.011,0.010,0.997,0.000,0.000,0.000
20,-0.0005,0.0001,0.0099,-0.0042,0.0040,-0.0038,0.38,-0.51,-0.01,0,0.009,0.130,-0.234,-0.157,-0.009,0.012,0.999,0.000,0.000,0.000
20,-0.0008,0.0008,0.0095,-0.0058,0.0089,-0.0061,0.38,-0.50,-0.01,0,0.009,0.280,-0.129,0.037,-0.010,0.012,0.999,0.000,0.000,0.000
20,-0.0003,0.0001,0.0095,-0.0026,0.0037,-0.0063,0.44,-0.50,-0.01,0,0.009,0.059,-0.013,0.159,-0.010,0.010,0.999,0.000,0.000,0.000
20,-0.0005,0.0008,0.0094,-0.0043,0.0084,-0.0065,0.45,-0.58,-0.01,0,0.009,0.019,0.055,-0.043,-0.009,0.011,0.996,0.000,0.000,0.000
20,-0.0006,0.0008,0.0093,-0.0044,0.0086,-0.0064,0.54,-0.60,-0.00,0,0.009,0.014,-0.263,-0.306,-0.012,0.010,0.998,0.000,0.000,0.000
20,-0.0006,0.0003,0.0093,-0.0043,0.0049,-0.0065,0.54,-0.59,-0.01,0,0.009,-0.035,-0.398,-0.006,-0.012,0.009,0.998,0.000,0.000,0.000
22,0.0002,0.0003,0.0092,0.0009,0.0048,-0.0066,0.54,-0.38,-0.01,0,0.009,0.012,0.064,0.118,-0.011,0.007,0.999,0.000,0.000,0.000
32,0.0004,-0.0007,0.0091,0.0025,-0.0018,-0.0073,0.52,-0.46,-0.01,0,0.009,0.138,-0.227,-0.043,-0.012,0.010,0.999,0.000,0.000,0.000
42,0.0004,-0.0007,0.0090,0.0025,-0.0017,-0.0073,0.48,-0.57,-0.01,0,0.009,0.129,-0.042,-0.136,-0.011,0.009,1.000,0.000,0.000,0.000
51,-0.0019,-0.0007,0.0089,-0.0129,-0.0015,-0.0075,0.60,-0.55,-0.01,0,0.009,0.377,-0.230,-0.270,-0.010,0.008,1.000,0.000,0.000,0.000
62,-0.0011,-0.0004,0.0089,-0.0073,0.0004,-0.0076,0.48,-0.48,-0.01,0,0.009,0.216,-0.532,0.397,-0.010,0.008,0.997,0.000,0.000,0.000
71,0.0002,0.0001,0.0089,0.0010,0.0037,-0.0072,0.45,-0.50,-0.01,0,0.009,0.144,-0.170,0.003,-0.011,0.009,0.995,0.000,0.000,0.000
82,-0.0001,-0.0015,0.0088,-0.0009,-0.0064,-0.0073,0.49,-0.43,-0.01,0,0.008,0.263,-0.059,-0.034,-0.012,0.008,0.997,0.000,0.000,0.000
92,-0.0009,0.0000,0.0088,-0.0058,0.0033,-0.0073,0.62,-0.56,-0.00,0,0.008,-0.147,-0.219,0.078,-0.011,0.008,0.997,0.000,0.000,0.000
102,-0.0006,0.0005,0.0087,-0.0041,0.0063,-0.0073,0.69,-0.56,-0.00,0,0.008,0.374,0.270,-0.287,-0.010,0.009,0.997,0.000,0.000,0.000
111,-0.0016,0.0000,0.0086,-0.0100,0.0028,-0.0073,0.49,-0.56,-0.01,0,0.008,0.332,-0.407,0.055,-0.010,0.010,0.999,0.000,0.000,0.000
122,0.0002,-0.0017,0.0086,0.0010,-0.0080,-0.0073,0.44,-0.52,-0.01,0,0.010,0.161,-0.090,0.131,-0.010,0.012,0.999,0.000,0.000,0.000
132,0.0002,-0.0027,0.0082,0.0008,-0.0136,-0.0091,0.51,-0.44,-0.00,0,0.010,0.084,-0.496,-0.070,-0.011,0.010,0.998,0.000,0.000,0.000
142,0.0002,0.0000,0.0082,0.0006,0.0032,-0.0091,0.50,-0.49,-0.01,0,0.010,-0.056,0.114,0.479,-0.012,0.010,0.999,0.000,0.000,0.000
152,-0.0003,0.0008,0.0081,-0.0025,0.0072,-0.0093,0.58,-0.43,-0.00,0,0.010,0.229,-0.140,-0.148,-0.011,0.012,0.998,0.000,0.000,0.000
162,-0.0016,-0.0002,0.0080,-0.0097,0.0011,-0.0096,0.48,-0.56,-0.01,0,0.010,-0.024,-0.120,-0.040,-0.010,0.010,1.000,0.000,0.000,0.000
172,-0.0008,-0.0000,0.0088,-0.0051,0.0025,-0.0051,0.53,-0.49,-0.00,0,0.010,0.310,-0.339,-0.193,-0.010,0.010,1.000,0.000,0.000,0.000
182,-0.0018,-0.0012,0.0088,-0.0105,-0.0045,-0.0052,0.51,-0.57,-0.01,0,0.010,0.132,-0.375,0.107,-0.012,0.011,0.999,0.000,0.000,0.000
192,0.0002,0.0002,0.0087,0.0010,0.0042,-0.0052,0.52,-0.49,-0.01,0,0.010,0.004,-0.065,-0.002,-0.011,0.009,0.999,0.000,0.000,0.000
202,-0.0008,-0.0005,0.0087,-0.0048,-0.0001,-0.0053,0.55,-0.57,-0.00,0,0.010,0.279,0.181,0.048,-0.010,0.009,0.997,0.000,0.000,0.000
212,0.0004,-0.0000,0.0087,0.0020,0.0028,-0.0054,0.53,-0.51,-0.00,0,0.010,0.073,-0.059,0.046,-0.010,0.011,0.999,0.000,0.000,0.000
221,-0.0008,-0.0003,0.0086,-0.0049,0.0014,-0.0054,0.54,-0.51,-0.00,0,0.010,0.210,0.145,0.092,-0.012,0.012,0.998,0.000,0.000,0.000
231,0.0004,-0.0008,0.0092,0.0020,-0.0013,-0.0024,0.47,-0.50,-0.01,0,0.010,0.167,-0.131,0.104,-0.009,0.009,0.996,0.000,0.000,0.000
241,-0.0006,-0.0003,0.0092,-0.0036,0.0015,-0.0024,0.47,-0.53,-0.01,0,0.010,0.132,-0.405,0.034,-0.011,0.011,0.999,0.000,0.000,0.000
251,-0.0005,-0.0005,0.0091,-0.0036,0.0002,-0.0026,0.53,-0.51,-0.00,0,0.010,0.015,-0.440,-0.162,-0.010,0.012,0.999,0.000,0.000,0.000
262,-0.0008,0.0006,0.0091,-0.0048,0.0067,-0.0028,0.53,-0.51,-0.01,0,0.010,0.235,0.128,0.012,-0.010,0.011,0.997,0.000,0.000,0.000
271,-0.0003,0.0009,0.0095,-0.0020,0.0078,-0.0009,0.57,-0.45,-0.00,0,0.010,0.288,-0.120,-0.220,-0.010,0.008,0.998,0.000,0.000,0.000
282,-0.0005,-0.0001,0.0095,-0.0034,0.0024,-0.0009,0.53,-0.57,-0.01,0,0.006,-0.162,-0.272,-0.064,-0.009,0.010,0.996,0.000,0.000,0.000
292,-0.0006,-0.0001,0.0095,-0.0035,0.0024,-0.0013,0.54,-0.45,-0.01,0,0.006,-0.102,-0.007,0.027,-0.011,0.010,0.997,0.000,0.000,0.000
301,-0.0015,-0.0008,0.0094,-0.0089,-0.0018,-0.0015,0.61,-0.53,-0.01,0,0.006,0.054,-0.342,0.089,-0.012,0.009,0.999,0.000,0.000,0.000
311,0.0004,-0.0001,0.0095,0.0024,0.0026,-0.0014,0.53,-0.53,-0.01,0,0.006,0.036,-0.189,0.063,-0.013,0.009,0.997,0.000,0.000,0.000
321,-0.0018,-0.0003,0.0095,-0.0097,0.0013,-0.0015,0.56,-0.45,-0.00,0,0.008,-0.032,-0.187,-0.371,-0.011,0.010,0.995,0.000,0.000,0.000
331,-0.0003,-0.0015,0.0079,-0.0014,-0.0055,-0.0092,0.51,-0.55,-0.01,0,0.008,0.084,-0.065,-0.203,-0.011,0.010,0.997,0.000,0.000,0.000
341,-0.0003,-0.0001,0.0079,-0.0013,0.0026,-0.0094,0.55,-0.45,-0.01,0,0.008,0.035,-0.268,-0.044,-0.009,0.009,0.998,0.000,0.000,0.000
352,-0.0018,-0.0005,0.0078,-0.0093,-0.0002,-0.0097,0.57,-0.51,-0.01,0,0.008,0.229,-0.042,-0.237,-0.010,0.008,0.997,0.000,0.000,0.000
362,0.0002,0.0004,0.0077,0.0012,0.0049,-0.0097,0.56,-0.51,-0.01,0,0.008,0.167,-0.191,-0.150,-0.012,0.009,1.000,0.000,0.000,0.000
371,-0.0017,-0.0003,0.0078,-0.0097,0.0007,-0.0090,0.56,-0.46,-0.01,0,0.008,-0.093,-0.211,0.259,-0.010,0.011,0.998,0.000,0.000,0.000
381,-0.0005,-0.0006,0.0077,-0.0031,-0.0006,-0.0093,0.51,-0.50,-0.01,0,0.008,0.074,-0.127,0.209,-0.009,0.010,0.996,0.000,0.000,0.000
391,-0.0005,-0.0003,0.0076,-0.0031,0.0007,-0.0096,0.57,-0.51,-0.01,0,0.008,0.301,-0.288,0.090,-0.010,0.009,0.999,0.000,0.000,0.000
401,-0.0015,-0.0003,0.0075,-0.0081,0.0007,-0.0098,0.52,-0.46,-0.01,0,0.008,-0.049,0.056,0.187,-0.008,0.008,0.999,0.000,0.000,0.000
412,-0.0008,0.0006,0.0074,-0.0038,0.0057,-0.0100,0.53,-0.55,-0.01,0,0.008,-0.031,-0.188,0.086,-0.008,0.011,0.996,0.000,0.000,0.000
422,-0.0005,-0.0003,0.0073,-0.0025,0.0001,-0.0100,0.53,-0.54,-0.01,0,0.011,0.386,-0.262,0.081,-0.010,0.008,0.997,0.000,0.000,0.000
432,-0.0017,0.0006,0.0075,-0.0089,0.0052,-0.0086,0.53,-0.55,-0.01,0,0.011,0.249,0.151,0.021,-0.009,0.009,1.000,0.000,0.000,0.000
441,0.0002,0.0006,0.0075,0.0017,0.0050,-0.0088,0.55,-0.54,-0.01,0,0.011,0.152,-0.082,0.037,-0.009,0.008,1.000,0.000,0.000,0.000
452,-0.0001,0.0006,0.0074,0.0003,0.0047,-0.0090,0.56,-0.51,-0.01,0,0.011,0.031,-0.310,0.134,-0.010,0.009,1.000,0.000,0.000,0.000
462,0.0002,0.0006,0.0073,0.0015,0.0042,-0.0091,0.56,-0.51,-0.01,0,0.011,-0.236,-0.220,0.225,-0.011,0.009,0.997,0.000,0.000,0.000
471,0.0002,0.0003,0.0088,0.0016,0.0028,-0.0007,0.56,-0.49,-0.01,0,0.011,0.079,0.075,0.113,-0.011,0.010,0.998,0.000,0.000,0.000
481,-0.0005,0.0001,0.0088,-0.0022,0.0014,-0.0009,0.55,-0.49,-0.01,0,0.012,0.219,0.135,-0.029,-0.009,0.010,0.998,0.000,0.000,0.000
492,-0.0008,0.0001,0.0088,-0.0034,0.0012,-0.0010,0.62,-0.47,-0.01,0,0.012,0.298,-0.408,-0.183,-0.010,0.009,0.996,0.000,0.000,0.000
501,-0.0007,0.0003,0.0088,-0.0033,0.0022,-0.0010,0.62,-0.55,-0.01,0,0.012,0.133,0.133,-0.171,-0.011,0.007,0.997,0.000,0.000,0.000
511,-0.0008,0.0003,0.0087,-0.0034,0.0021,-0.0010,0.59,-0.50,-0.01,0,0.012,0.243,-0.297,-0.042,-0.009,0.007,0.998,0.000,0.000,0.000
521,-0.0013,-0.0011,0.0087,-0.0059,-0.0056,-0.0013,0.54,-0.50,-0.01,0,0.011,0.271,-0.125,-0.335,-0.011,0.009,0.996,0.000,0.000,0.000
531,0.0004,-0.0011,0.0102,0.0030,-0.0054,0.0059,0.57,-0.50,-0.01,0,0.011,-0.037,0.222,-0.025,-0.011,0.010,0.999,0.000,0.000,0.000
542,-0.0005,-0.0004,0.0103,-0.0021,-0.0014,0.0058,0.59,-0.51,-0.01,0,0.011,0.550,-0.142,-0.153,-0.008,0.009,1.000,0.000,0.000,0.000
552,-0.0005,0.0005,0.0103,-0.0021,0.0035,0.0055,0.61,-0.54,-0.01,0,0.011,0.167,-0.067,-0.218,-0.010,0.010,0.998,0.000,0.000,0.000
561,-0.0005,0.0001,0.0104,-0.0022,0.0006,0.0052,0.61,-0.49,-0.01,0,0.011,0.093,-0.498,-0.173,-0.010,0.009,0.999,0.000,0.000,0.000
571,-0.0003,-0.0004,0.0107,-0.0010,-0.0021,0.0063,0.57,-0.49,-0.01,0,0.011,0.036,0.049,0.199,-0.011,0.011,0.999,0.000,0.000,0.000
582,0.0004,-0.0009,0.0107,0.0026,-0.0046,0.0059,0.60,-0.49,-0.01,0,0.008,0.306,-0.200,-0.136,-0.011,0.012,0.999,0.000,0.000,0.000
591,-0.0005,-0.0009,0.0108,-0.0026,-0.0044,0.0058,0.54,-0.53,-0.01,0,0.008,0.083,-0.343,-0.084,-0.010,0.011,0.998,0.000,0.000,0.000
601,-0.0005,0.0001,0.0109,-0.0025,0.0005,0.0059,0.59,-0.53,-0.01,0,0.008,0.297,-0.080,-0.166,-0.011,0.010,0.997,0.000,0.000,0.000
611,-0.0005,-0.0006,0.0109,-0.0024,-0.0031,0.0058,0.59,-0.47,-0.01,0,0.008,0.212,-0.069,-0.086,-0.009,0.010,0.998,0.000,0.000,0.000
621,0.0004,0.0005,0.0110,0.0024,0.0030,0.0058,0.58,-0.48,-0.02,0,0.009,0.277,-0.153,0.128,-0.010,0.010,0.999,0.000,0.000,0.000
631,0.0004,-0.0004,0.0097,0.0021,-0.0018,-0.0008,0.60,-0.48,-0.02,0,0.009,0.193,-0.285,-0.057,-0.010,0.009,1.000,0.000,0.000,0.000
642,-0.0008,-0.0004,0.0097,-0.0041,-0.0016,-0.0009,0.58,-0.48,-0.02,0,0.009,0.238,-0.366,0.099,-0.011,0.010,0.998,0.000,0.000,0.000
652,-0.0005,-0.0002,0.0097,-0.0029,-0.0003,-0.0010,0.56,-0.51,-0.02,0,0.009,0.136,-0.165,-0.202,-0.010,0.011,1.000,0.000,0.000,0.000
662,-0.0005,-0.0006,0.0097,-0.0030,-0.0026,-0.0013,0.59,-0.49,-0.02,0,0.009,-0.049,-0.116,0.312,-0.011,0.011,0.999,0.000,0.000,0.000
672,-0.0006,-0.0002,0.0094,-0.0029,-0.0002,-0.0030,0.58,-0.47,-0.02,0,0.009,0.020,-0.126,0.025,-0.008,0.011,0.997,0.000,0.000,0.000
681,0.0001,0.0003,0.0094,0.0007,0.0021,-0.0032,0.58,-0.48,-0.02,0,0.009,0.176,0.016,-0.021,-0.011,0.009,0.995,0.000,0.000,0.000
691,-0.0003,-0.0002,0.0093,-0.0018,-0.0004,-0.0032,0.63,-0.45,-0.02,0,0.009,0.296,0.095,0.035,-0.011,0.009,0.998,0.000,0.000,0.000
702,-0.0008,-0.0002,0.0093,-0.0043,-0.0004,-0.0033,0.62,-0.52,-0.02,0,0.009,0.008,-0.196,0.076,-0.011,0.009,0.997,0.000,0.000,0.000
712,-0.0006,-0.0002,0.0093,-0.0032,-0.0004,-0.0034,0.56,-0.47,-0.02,0,0.009,0.209,-0.018,-0.333,-0.010,0.010,0.999,0.000,0.000,0.000
721,-0.0012,-0.0013,0.0092,-0.0067,-0.0061,-0.0035,0.61,-0.47,-0.02,0,0.010,0.031,-0.354,0.251,-0.010,0.010,0.997,0.000,0.000,0.000
731,0.0003,-0.0011,0.0091,0.0017,-0.0045,-0.0042,0.60,-0.47,-0.02,0,0.010,0.070,-0.279,0.076,-0.011,0.012,0.998,0.000,0.000,0.000
742,-0.0008,0.0003,0.0091,-0.0044,0.0027,-0.0045,0.60,-0.48,-0.02,0,0.010,0.111,-0.437,0.198,-0.011,0.009,0.998,0.000,0.000,0.000
752,-0.0008,-0.0008,0.0090,-0.0045,-0.0033,-0.0047,0.56,-0.51,-0.02,0,0.010,0.023,-0.217,0.019,-0.011,0.009,0.999,0.000,0.000,0.000
761,-0.0008,-0.0006,0.0090,-0.0046,-0.0021,-0.0050,0.57,-0.47,-0.02,0,0.010,0.113,-0.083,-0.126,-0.009,0.012,0.997,0.000,0.000,0.000
771,-0.0006,-0.0006,0.0094,-0.0034,-0.0021,-0.0029,0.57,-0.47,-0.02,0,0.010,0.425,-0.149,-0.053,-0.012,0.011,0.996,0.000,0.000,0.000
782,0.0001,0.0003,0.0094,0.0001,0.0027,-0.0030,0.60,-0.43,-0.01,0,0.007,0.077,-0.205,-0.050,-0.015,0.010,0.995,0.000,0.000,0.000
791,-0.0006,0.0001,0.0093,-0.0036,0.0015,-0.0032,0.60,-0.51,-0.02,0,0.007,-0.042,-0.435,0.039,-0.012,0.012,0.996,0.000,0.000,0.000
801,-0.0006,0.0001,0.0093,-0.0039,0.0015,-0.0034,0.61,-0.50,-0.02,0,0.007,0.134,-0.450,0.170,-0.008,0.013,0.999,0.000,0.000,0.000
811,-0.0015,-0.0006,0.0093,-0.0088,-0.0024,-0.0035,0.56,-0.51,-0.02,0,0.007,-0.022,0.048,0.284,-0.009,0.010,0.998,0.000,0.000,0.000
821,0.0001,-0.0006,0.0093,0.0001,-0.0022,-0.0037,0.58,-0.46,-0.01,0,0.011,0.177,-0.161,0.003,-0.008,0.009,0.997,0.000,0.000,0.000
831,0.0001,-0.0008,0.0082,-0.0003,-0.0032,-0.0090,0.59,-0.43,-0.01,0,0.011,-0.098,-0.051,-0.039,-0.009,0.011,0.998,0.000,0.000,0.000
841,0.0003,0.0003,0.0081,0.0004,0.0031,-0.0094,0.58,-0.47,-0.02,0,0.011,0.185,-0.328,0.010,-0.009,0.010,0.998,0.000,0.000,0.000
851,-0.0008,-0.0002,0.0080,-0.0062,0.0006,-0.0098,0.60,-0.50,-0.01,0,0.011,0.045,-0.254,-0.051,-0.011,0.011,1.001,0.000,0.000,0.000
861,-0.0015,-0.0004,0.0079,-0.0096,-0.0004,-0.0100,0.63,-0.46,-0.01,0,0.011,0.193,-0.139,0.286,-0.012,0.009,1.000,0.000,0.000,0.000
871,-0.0006,-0.0002,0.0092,-0.0043,0.0008,-0.0029,0.55,-0.46,-0.01,0,0.011,0.111,-0.105,-0.042,-0.011,0.011,0.996,0.000,0.000,0.000
882,0.0001,-0.0006,0.0091,-0.0004,-0.0018,-0.0031,0.59,-0.48,-0.01,0,0.010,0.062,0.072,0.134,-0.011,0.011,0.995,0.000,0.000,0.000
891,-0.0008,-0.0013,0.0091,-0.0052,-0.0053,-0.0033,0.57,-0.50,-0.01,0,0.010,0.066,-0.156,-0.007,-0.011,0.010,0.997,0.000,0.000,0.000
901,-0.0008,0.0005,0.0091,-0.0051,0.0044,-0.0034,0.75,-0.54,-0.01,0,0.010,0.035,-0.167,0.179,-0.013,0.009,1.000,0.000,0.000,0.000
911,-0.0004,-0.0004,0.0091,-0.0027,-0.0005,-0.0034,0.66,-0.47,-0.01,0,0.010,0.215,-0.064,-0.055,-0.010,0.010,0.999,0.000,0.000,0.000
922,0.0001,0.0000,0.0090,-0.0005,0.0018,-0.0034,0.65,-0.45,-0.01,0,0.007,0.000,-0.146,0.077,-0.008,0.011,0.997,0.000,0.000,0.000
931,0.0012,-0.0042,0.0094,0.0051,-0.0205,-0.0016,0.65,-0.45,-0.01,0,0.007,0.215,-0.101,-0.149,-0.011,0.010,0.998,0.000,0.000,0.000
941,-0.0004,-0.0022,0.0095,-0.0037,-0.0090,-0.0015,0.68,-0.54,-0.01,0,0.007,0.260,-0.226,-0.176,-0.013,0.010,1.002,0.000,0.000,0.000
951,-0.0008,-0.0020,0.0095,-0.0061,-0.0075,-0.0017,0.62,-0.52,-0.01,0,0.007,0.131,-0.042,0.473,-0.012,0.010,0.999,0.000,0.000,0.000
961,-0.0009,-0.0020,0.0095,-0.0066,-0.0078,-0.0018,0.64,-0.47,-0.01,0,0.007,0.332,0.099,0.162,-0.010,0.009,0.998,0.000,0.000,0.000
970,0.0012,-0.0030,0.0084,0.0046,-0.0123,-0.0075,0.65,-0.45,-0.01,0,0.007,-0.080,0.098,0.194,-0.012,0.012,1.000,0.000,0.000,0.000
981,0.0007,-0.0015,0.0084,0.0019,-0.0044,-0.0076,0.64,-0.44,-0.01,0,0.011,0.043,0.053,-0.053,-0.011,0.012,0.999,0.000,0.000,0.000
990,-0.0002,-0.0020,0.0083,-0.0032,-0.0066,-0.0077,0.78,-0.54,-0.01,0,0.011,0.142,-0.281,0.050,-0.011,0.009,0.997,0.000,0.000,0.000
1001,-0.0009,-0.0022,0.0082,-0.0070,-0.0076,-0.0076,0.68,-0.52,-0.01,0,0.011,0.103,-0.123,0.070,-0.011,0.009,0.997,0.000,0.000,0.000
1011,-0.0011,-0.0022,0.0082,-0.0081,-0.0072,-0.0077,0.63,-0.46,-0.01,0,0.011,-0.193,-0.351,0.099,-0.011,0.012,0.999,0.000,0.000,0.000
1021,0.0012,-0.0056,0.0081,0.0039,-0.0248,-0.0080,0.62,-0.47,-0.00,0,0.008,-0.092,-0.120,-0.122,-0.010,0.012,0.998,0.000,0.000,0.000
1031,0.0007,-0.0034,0.0094,0.0011,-0.0120,-0.0010,0.62,-0.46,-0.00,0,0.008,0.342,0.047,0.062,-0.010,0.011,0.996,0.000,0.000,0.000
1041,-0.0004,-0.0022,0.0094,-0.0051,-0.0055,-0.0009,0.62,-0.53,-0.01,0,0.008,0.231,-0.219,-0.416,-0.010,0.010,0.998,0.000,0.000,0.000
1050,-0.0002,-0.0022,0.0094,-0.0039,-0.0053,-0.0012,0.57,-0.49,-0.01,0,0.008,0.019,-0.263,0.074,-0.013,0.010,0.998,0.000,0.000,0.000
1061,-0.0004,-0.0022,0.0094,-0.0051,-0.0052,-0.0015,0.70,-0.49,-0.01,0,0.008,0.069,-0.099,0.040,-0.011,0.008,0.997,0.000,0.000,0.000
1071,0.0011,-0.0022,0.0088,0.0030,-0.0047,-0.0045,0.61,-0.46,-0.01,0,0.008,-0.130,-0.029,0.425,-0.010,0.008,0.999,0.000,0.000,0.000
1081,0.0002,-0.0011,0.0088,-0.0019,0.0015,-0.0047,0.67,-0.47,-0.01,0,0.010,0.084,-0.145,-0.106,-0.010,0.009,1.000,0.000,0.000,0.000
1091,0.0002,-0.0042,0.0087,-0.0020,-0.0146,-0.0050,0.60,-0.50,-0.01,0,0.010,-0.151,-0.280,-0.110,-0.010,0.011,0.997,0.000,0.000,0.000
1101,-0.0002,-0.0022,0.0087,-0.0044,-0.0035,-0.0049,0.60,-0.50,-0.01,0,0.010,0.323,-0.290,0.118,-0.010,0.011,0.998,0.000,0.000,0.000
1110,0.0000,-0.0037,0.0087,-0.0034,-0.0115,-0.0051,0.81,-0.54,-0.01,0,0.010,-0.189,-0.279,0.028,-0.010,0.011,0.998,0.000,0.000,0.000
1122,0.0007,-0.0022,0.0087,-0.0001,-0.0032,-0.0051,0.78,-0.49,-0.01,0,0.005,-0.007,-0.127,-0.186,-0.009,0.013,0.999,0.000,0.000,0.000
1131,0.0009,-0.0022,0.0092,0.0008,-0.0033,-0.0023,0.82,-0.52,-0.01,0,0.005,-0.107,-0.238,0.101,-0.011,0.011,0.998,0.000,0.000,0.000
1141,0.0018,-0.0073,0.0092,0.0052,-0.0297,-0.0025,0.75,-0.52,-0.00,0,0.005,0.063,-0.082,-0.177,-0.009,0.010,1.000,0.000,0.000,0.000
1151,0.0009,-0.0068,0.0092,0.0003,-0.0261,-0.0025,0.79,-0.50,-0.00,0,0.005,0.092,-0.312,-0.117,-0.010,0.009,0.999,0.000,0.000,0.000
1161,0.0015,-0.0079,0.0091,0.0035,-0.0306,-0.0029,0.83,-0.51,-0.01,0,0.005,-0.091,-0.224,-0.046,-0.011,0.008,0.996,0.000,0.000,0.000
1172,0.0015,-0.0065,0.0075,0.0032,-0.0222,-0.0115,0.78,-0.51,-0.01,0,0.005,0.199,-0.012,-0.201,-0.011,0.009,0.996,0.000,0.000,0.000
1181,0.0013,-0.0078,0.0073,0.0018,-0.0279,-0.0118,0.74,-0.52,-0.01,0,0.009,0.051,-0.291,0.310,-0.011,0.009,0.997,0.000,0.000,0.000
1191,0.0015,-0.0089,0.0072,0.0026,-0.0323,-0.0122,0.73,-0.49,-0.01,0,0.009,0.130,-0.018,-0.275,-0.012,0.012,0.999,0.000,0.000,0.000
1201,0.0017,-0.0080,0.0071,0.0036,-0.0264,-0.0118,0.73,-0.47,-0.01,0,0.009,0.037,0.029,-0.046,-0.009,0.011,0.999,0.000,0.000,0.000
1211,0.0019,-0.0074,0.0070,0.0044,-0.0219,-0.0118,0.69,-0.45,-0.01,0,0.009,0.204,-0.187,-0.057,-0.007,0.010,0.999,0.000,0.000,0.000
1221,0.0013,-0.0074,0.0069,0.0005,-0.0212,-0.0120,0.68,-0.46,-0.01,0,0.007,0.038,-0.079,-0.098,-0.012,0.011,0.999,0.000,0.000,0.000
1231,0.0008,-0.0076,0.0077,-0.0020,-0.0216,-0.0078,0.68,-0.45,-0.01,0,0.007,0.258,-0.217,-0.035,-0.013,0.011,0.998,0.000,0.000,0.000
1241,0.0004,-0.0069,0.0076,-0.0045,-0.0173,-0.0079,0.68,-0.47,-0.01,0,0.007,0.181,-0.034,0.045,-0.012,0.009,0.997,0.000,0.000,0.000
1251,0.0006,-0.0069,0.0076,-0.0036,-0.0164,-0.0080,0.70,-0.42,-0.01,0,0.007,0.087,-0.327,-0.084,-0.013,0.010,0.997,0.000,0.000,0.000
1261,0.0006,-0.0071,0.0075,-0.0038,-0.0164,-0.0081,0.75,-0.47,-0.02,0,0.007,0.047,0.011,-0.127,-0.011,0.011,0.997,0.000,0.000,0.000
1271,0.0010,-0.0071,0.0072,-0.0011,-0.0156,-0.0090,0.74,-0.48,-0.02,0,0.007,0.273,-0.308,-0.419,-0.012,0.010,0.998,0.000,0.000,0.000
1281,-0.0001,-0.0077,0.0071,-0.0076,-0.0185,-0.0091,0.74,-0.48,-0.02,0,0.010,0.436,-0.162,0.039,-0.013,0.010,0.998,0.000,0.000,0.000
1291,0.0010,-0.0091,0.0070,-0.0016,-0.0249,-0.0095,0.63,-0.47,-0.02,0,0.010,-0.033,0.074,0.116,-0.009,0.012,0.997,0.000,0.000,0.000
1301,0.0012,-0.0091,0.0070,-0.0007,-0.0238,-0.0097,0.67,-0.42,-0.02,0,0.010,0.053,-0.222,-0.327,-0.010,0.010,0.997,0.000,0.000,0.000
1311,0.0012,-0.0093,0.0069,-0.0012,-0.0241,-0.0100,0.62,-0.43,-0.02,0,0.010,-0.007,-0.064,0.194,-0.010,0.009,0.998,0.000,0.000,0.000
1321,0.0010,-0.0069,0.0068,-0.0026,-0.0102,-0.0096,0.61,-0.47,-0.02,0,0.010,0.229,-0.035,-0.098,-0.010,0.010,0.999,0.000,0.000,0.000
1330,-0.0002,-0.0081,0.0081,-0.0091,-0.0160,-0.0027,0.61,-0.48,-0.02,0,0.010,0.287,0.174,0.174,-0.011,0.010,1.000,0.000,0.000,0.000
1340,0.0001,-0.0069,0.0081,-0.0078,-0.0090,-0.0028,0.61,-0.47,-0.02,0,0.010,0.113,-0.178,-0.365,-0.009,0.009,0.997,0.000,0.000,0.000
1351,0.0010,-0.0069,0.0081,-0.0027,-0.0085,-0.0030,0.64,-0.45,-0.02,0,0.010,0.068,0.129,0.396,-0.010,0.008,0.997,0.000,0.000,0.000
1361,0.0014,-0.0069,0.0081,-0.0003,-0.0081,-0.0032,0.65,-0.49,-0.02,0,0.010,0.296,-0.284,0.027,-0.010,0.009,0.995,0.000,0.000,0.000
1371,0.0012,-0.0069,0.0089,-0.0017,-0.0079,0.0010,0.59,-0.46,-0.02,0,0.010,0.175,-0.175,0.257,-0.009,0.011,0.998,0.000,0.000,0.000
1380,0.0008,-0.0078,0.0089,-0.0042,-0.0123,0.0009,0.59,-0.45,-0.02,0,0.009,0.172,-0.215,-0.124,-0.009,0.010,0.998,0.000,0.000,0.000
1391,0.0017,-0.0081,0.0089,0.0006,-0.0129,0.0009,0.59,-0.46,-0.02,0,0.009,-0.068,-0.034,0.335,-0.008,0.009,0.998,0.000,0.000,0.000
1401,0.0010,-0.0069,0.0089,-0.0031,-0.0065,0.0007,0.67,-0.46,-0.02,0,0.009,-0.084,-0.218,0.060,-0.009,0.009,0.999,0.000,0.000,0.000
1411,0.0007,-0.0069,0.0089,-0.0043,-0.0064,0.0004,0.61,-0.46,-0.02,0,0.009,-0.019,0.013,0.073,-0.011,0.010,0.997,0.000,0.000,0.000
1420,0.0010,-0.0069,0.0089,-0.0031,-0.0061,0.0000,0.60,-0.48,-0.02,0,0.008,-0.053,-0.129,0.273,-0.011,0.009,0.998,0.000,0.000,0.000
1431,0.0010,-0.0089,0.0090,-0.0031,-0.0163,-0.0001,0.58,-0.47,-0.01,0,0.008,0.083,-0.113,0.132,-0.011,0.008,0.996,0.000,0.000,0.000
1441,0.0010,-0.0076,0.0090,-0.0030,-0.0085,-0.0001,0.58,-0.42,-0.01,0,0.008,0.135,-0.001,-0.167,-0.012,0.008,0.998,0.000,0.000,0.000
1451,0.0016,-0.0076,0.0090,0.0006,-0.0082,-0.0003,0.70,-0.47,-0.01,0,0.008,-0.015,-0.153,-0.067,-0.012,0.009,0.998,0.000,0.000,0.000
1461,0.0014,-0.0071,0.0090,-0.0007,-0.0056,-0.0004,0.60,-0.47,-0.01,0,0.008,0.099,-0.277,0.173,-0.011,0.010,0.999,0.000,0.000,0.000
1471,0.0003,-0.0071,0.0086,-0.0067,-0.0053,-0.0027,0.45,-0.40,-0.01,0,0.008,-0.078,-0.118,0.124,-0.011,0.013,0.999,0.000,0.000,0.000
1481,0.0014,-0.0102,0.0085,-0.0010,-0.0212,-0.0030,0.42,-0.41,-0.01,0,0.011,0.025,0.205,0.012,-0.012,0.011,0.995,0.000,0.000,0.000
0,0.0014,-0.0080,0.0086,-0.0012,-0.0089,-0.0029,0.37,-0.45,-0.01,0,0.011,-0.093,-0.135,-0.147,-0.010,0.011,0.997,0.000,0.000,0.000
9,-0.0001,-0.0045,0.0086,-0.0095,0.0097,-0.0029,0.50,-0.43,-0.01,60000,0.011,-0.086,-0.073,0.217,-0.008,0.011,0.997,0.000,0.000,0.000
20,-0.0001,-0.0036,0.0085,-0.0095,0.0139,-0.0032,0.47,-0.41,-0.01,60000,0.011,-0.179,-0.291,0.099,-0.009,0.004,1.000,0.000,0.000,0.000
28,0.0007,-0.0023,0.0085,-0.0048,0.0203,-0.0034,0.44,-0.42,-0.01,60000,0.007,0.076,-0.274,-0.103,-0.005,-0.000,0.994,0.000,0.000,0.000
39,0.0003,-0.0051,0.0096,-0.0071,0.0049,0.0025,0.44,-0.41,-0.01,60000,0.007,-0.469,-0.120,0.951,-0.013,-0.000,0.997,0.000,0.000,0.000
49,-0.0001,-0.0045,0.0097,-0.0095,0.0083,0.0020,0.45,-0.41,-0.00,60000,0.007,0.333,0.694,1.102,-0.017,0.008,1.002,0.000,0.000,0.000
59,-0.0001,-0.0036,0.0097,-0.0092,0.0127,0.0017,0.45,-0.43,-0.00,60000,0.007,1.718,-1.172,-0.027,-0.011,0.005,0.991,0.000,0.000,0.000
68,-0.0002,-0.0035,0.0097,-0.0093,0.0129,0.0014,0.49,-0.44,-0.01,60000,0.007,1.014,-0.949,0.136,-0.013,0.002,0.996,0.000,0.000,0.000
79,-0.0002,-0.0037,0.0086,-0.0092,0.0109,-0.0044,0.49,-0.43,-0.01,60000,0.007,-0.083,-0.091,-0.595,-0.013,0.004,1.000,0.000,0.000,0.000
89,-0.0000,-0.0035,0.0085,-0.0080,0.0110,-0.0047,0.52,-0.44,-0.01,60000,0.008,1.017,-0.544,-0.367,-0.014,-0.006,1.003,0.000,0.000,0.000
99,0.0004,-0.0042,0.0085,-0.0045,0.0060,-0.0050,0.53,-0.43,-0.01,60000,0.008,0.236,0.264,0.099,-0.020,-0.013,0.996,0.000,0.000,0.000
108,0.0002,-0.0042,0.0085,-0.0047,0.0048,-0.0046,0.53,-0.41,-0.01,60000,0.008,-0.328,0.906,0.073,-0.025,-0.041,1.007,0.000,0.000,0.000
118,0.0004,-0.0047,0.0084,-0.0026,0.0012,-0.0052,0.53,-0.43,-0.02,60000,0.008,-1.455,-0.319,1.300,-0.003,0.002,1.004,0.000,0.000,0.000
128,0.0004,-0.0047,0.0084,-0.0018,0.0003,-0.0057,0.52,-0.45,-0.01,60000,0.013,-2.565,1.912,-2.611,0.014,-0.001,1.001,0.000,0.000,0.000
138,-0.0003,-0.0047,0.0081,-0.0046,-0.0006,-0.0064,0.58,-0.39,-0.02,60000,0.013,-0.330,2.172,-4.778,0.003,-0.022,0.999,0.000,0.000,0.000
149,-0.0001,-0.0047,0.0081,-0.0025,-0.0015,-0.0062,0.57,-0.45,-0.07,60000,0.013,5.030,-5.608,0.691,-0.008,-0.011,1.011,0.000,0.000,0.000
159,0.0004,-0.0045,0.0080,0.0009,-0.0009,-0.0067,0.82,-0.50,-0.08,60000,0.013,9.693,-9.857,6.430,-0.001,-0.010,1.027,0.000,0.000,0.000
169,-0.0011,-0.0065,0.0080,-0.0065,-0.0126,-0.0060,0.98,-0.42,-0.03,60000,0.013,1.295,-0.600,6.363,-0.000,-0.021,1.035,0.000,0.000,0.000
179,-0.0005,-0.0066,0.0100,-0.0020,-0.0132,0.0057,1.11,-0.41,0.03,60000,0.013,-6.345,-0.357,3.130,0.010,-0.020,1.080,0.000,0.000,0.000
189,0.0012,-0.0123,0.0100,0.0075,-0.0436,0.0049,1.15,-0.46,0.06,60000,0.009,-8.379,-5.419,4.229,0.021,-0.005,1.099,0.000,0.000,0.000
199,0.0018,-0.0144,0.0099,0.0109,-0.0541,0.0044,1.07,-0.45,0.10,60000,0.009,-5.920,-10.987,4.961,0.018,0.001,1.141,0.000,0.000,0.000
209,0.0029,-0.0166,0.0098,0.0170,-0.0645,0.0048,1.17,-0.35,0.15,60000,0.009,-17.269,-23.455,4.792,0.022,-0.020,1.153,0.000,0.000,0.000
219,0.0042,-0.0193,0.0096,0.0237,-0.0776,0.0059,1.02,-0.18,0.20,60000,0.009,-27.761,-29.751,4.468,0.006,-0.029,1.165,0.000,0.000,0.000
229,0.0049,-0.0200,0.0096,0.0272,-0.0792,0.0098,0.91,0.02,0.24,60000,0.015,-42.751,-35.797,4.750,-0.003,-0.036,1.210,0.000,0.000,0.000
238,0.0048,-0.0247,0.0091,0.0256,-0.1015,0.0142,0.65,0.17,0.27,59931,0.015,-51.040,-56.885,2.039,0.013,-0.025,1.243,0.000,0.000,0.000
249,0.0056,-0.0252,0.0094,0.0285,-0.1008,0.0250,0.03,0.69,0.31,59845,0.015,-63.873,-54.385,5.173,0.020,-0.018,1.252,0.000,0.000,0.000
258,0.0080,-0.0298,0.0091,0.0400,-0.1211,0.0357,-0.84,1.31,0.36,59646,0.015,-61.242,-44.881,4.121,0.025,-0.012,1.247,0.000,0.000,0.000
268,0.0130,-0.0334,0.0089,0.0635,-0.1349,0.0469,-1.42,1.73,0.42,59443,0.015,-53.957,-36.020,0.334,0.031,-0.011,1.252,0.000,0.000,0.000
278,0.0133,-0.0317,0.0124,0.0602,-0.1187,0.0802,-2.01,2.16,0.44,59207,0.015,-49.000,-42.019,-0.902,0.027,-0.017,1.241,0.000,0.000,0.000
288,0.0123,-0.0267,0.0141,0.0491,-0.0843,0.1055,-2.66,2.62,0.46,58510,0.000,-32.217,-50.576,-3.565,0.007,-0.018,1.214,0.000,0.000,0.000
298,0.0140,-0.0287,0.0152,0.0515,-0.0871,0.1295,-3.09,3.13,0.47,58478,0.000,-17.156,-65.164,-3.907,-0.002,-0.019,1.208,0.000,0.000,0.000
309,0.0134,-0.0285,0.0167,0.0408,-0.0772,0.1539,-3.19,3.56,0.45,57948,0.000,-4.219,-59.845,-4.462,-0.001,-0.019,1.216,0.000,0.000,0.000
318,0.0121,-0.0258,0.0186,0.0264,-0.0530,0.1784,-3.32,4.11,0.46,57420,0.000,4.367,-45.104,-5.340,-0.002,-0.023,1.223,0.000,0.000,0.000
329,0.0117,-0.0246,0.0205,0.0157,-0.0373,0.2024,-3.28,4.53,0.44,56861,0.003,2.710,-21.019,-4.085,-0.005,-0.025,1.213,0.000,0.000,0.000
339,0.0160,-0.0271,0.0135,0.0307,-0.0432,0.1792,-3.22,4.73,0.42,56230,0.003,-4.567,3.568,-4.228,-0.002,-0.017,1.187,0.000,0.000,0.000
349,0.0182,-0.0261,0.0154,0.0321,-0.0290,0.1996,-3.23,4.67,0.39,56658,0.003,-13.829,27.579,-4.940,0.004,-0.012,1.178,0.000,0.000,0.000
358,0.0204,-0.0269,0.0175,0.0323,-0.0250,0.2202,-3.38,4.47,0.33,56223,0.003,-25.224,46.507,-4.920,0.005,-0.012,1.169,0.000,0.000,0.000
368,0.0225,-0.0275,0.0199,0.0322,-0.0204,0.2412,-3.59,3.86,0.28,55812,0.003,-27.629,57.224,-4.476,0.014,-0.013,1.164,0.000,0.000,0.000
378,0.0249,-0.0278,0.0153,0.0341,-0.0152,0.2267,-3.92,3.24,0.24,55425,0.003,-23.199,56.217,-4.477,0.020,-0.017,1.148,0.000,0.000,0.000
388,0.0246,-0.0270,0.0176,0.0219,-0.0033,0.2461,-4.21,2.62,0.18,55744,0.025,-14.945,52.329,-4.580,0.019,-0.012,1.129,0.000,0.000,0.000
398,0.0293,-0.0272,0.0202,0.0379,0.0031,0.2638,-4.37,2.11,0.09,54592,0.025,-8.490,41.713,-4.867,0.016,-0.011,1.122,0.000,0.000,0.000
408,0.0315,-0.0254,0.0228,0.0412,0.0201,0.2798,-4.29,1.52,-0.01,54227,0.025,-1.023,29.089,-5.231,0.008,-0.009,1.102,0.000,0.000,0.000
418,0.0332,-0.0241,0.0255,0.0430,0.0339,0.2946,-4.29,1.21,-0.10,53909,0.025,7.370,15.557,-3.176,0.002,-0.013,1.096,0.000,0.000,0.000
428,0.0329,-0.0241,0.0286,0.0356,0.0407,0.3105,-4.35,1.03,-0.11,53600,0.051,17.155,5.494,-3.233,-0.002,-0.014,1.092,0.000,0.000,0.000
438,0.0372,-0.0280,0.0303,0.0534,0.0262,0.3165,-4.13,0.97,-0.18,52349,0.051,27.146,2.415,-2.822,0.004,-0.014,1.087,0.000,0.000,0.000
449,0.0374,-0.0284,0.0336,0.0497,0.0304,0.3290,-3.92,1.06,-0.24,52270,0.051,30.753,2.590,-3.603,0.006,-0.018,1.077,0.000,0.000,0.000
458,0.0377,-0.0251,0.0368,0.0466,0.0544,0.3392,-3.63,1.06,-0.28,52021,0.051,32.464,3.941,-4.661,0.008,-0.020,1.066,0.000,0.000,0.000
469,0.0377,-0.0264,0.0405,0.0423,0.0522,0.3501,-3.27,0.99,-0.33,51793,0.051,29.212,4.933,-4.411,0.009,-0.017,1.056,0.000,0.000,0.000
478,0.0352,-0.0246,0.0485,0.0252,0.0664,0.3822,-2.88,0.94,-0.40,51606,0.051,26.805,5.241,-3.663,0.008,-0.018,1.045,0.000,0.000,0.000
489,0.0350,-0.0238,0.0524,0.0208,0.0736,0.3910,-2.69,0.99,-0.45,50969,0.078,24.481,6.340,-2.737,0.011,-0.021,1.040,0.000,0.000,0.000
498,0.0359,-0.0242,0.0564,0.0227,0.0737,0.3995,-2.45,0.97,-0.49,49828,0.078,25.244,4.247,-2.378,0.011,-0.021,1.035,0.000,0.000,0.000
508,0.0363,-0.0256,0.0606,0.0221,0.0674,0.4076,-2.29,0.97,-0.51,49671,0.078,22.612,4.464,-2.148,0.007,-0.019,1.019,0.000,0.000,0.000
518,0.0341,-0.0227,0.0646,0.0076,0.0836,0.4136,-2.09,1.03,-0.57,49522,0.078,19.208,2.195,-3.042,0.006,-0.020,1.012,0.000,0.000,0.000
528,0.0334,-0.0215,0.0688,0.0019,0.0902,0.4187,-1.88,1.02,-0.60,49399,0.112,14.881,5.391,-2.870,0.004,-0.021,1.006,0.000,0.000,0.000
538,0.0324,-0.0181,0.0770,-0.0057,0.1069,0.4430,-1.64,0.97,-0.65,48091,0.112,10.304,11.176,-3.041,0.007,-0.021,1.001,0.000,0.000,0.000
549,0.0296,-0.0164,0.0813,-0.0215,0.1142,0.4464,-1.46,0.84,-0.68,47601,0.112,5.857,14.011,-2.233,0.008,-0.019,0.995,0.000,0.000,0.000
558,0.0290,-0.0152,0.0858,-0.0256,0.1174,0.4494,-1.32,0.61,-0.69,47546,0.112,8.445,18.305,-2.496,0.008,-0.020,0.987,0.000,0.000,0.000
568,0.0291,-0.0160,0.0906,-0.0254,0.1097,0.4525,-1.24,0.49,-0.74,47497,0.112,4.532,19.632,-0.792,0.008,-0.018,0.978,0.000,0.000,0.000
578,0.0296,-0.0155,0.1042,-0.0227,0.1079,0.4989,-1.18,0.34,-0.76,47444,0.112,6.677,20.828,-0.419,0.008,-0.016,0.971,0.000,0.000,0.000
589,0.0320,-0.0164,0.1094,-0.0097,0.0996,0.5005,-1.10,0.10,-0.77,46503,0.128,9.197,21.246,0.540,0.011,-0.017,0.966,0.000,0.000,0.000
598,0.0306,-0.0156,0.1144,-0.0175,0.1005,0.5006,-1.18,-0.12,-0.74,45912,0.128,11.693,16.763,-1.756,0.012,-0.018,0.961,0.000,0.000,0.000
608,0.0296,-0.0148,0.1199,-0.0221,0.1014,0.4999,-1.08,-0.29,-0.76,45909,0.128,17.667,14.529,-2.430,0.012,-0.020,0.951,0.000,0.000,0.000
619,0.0299,-0.0140,0.1249,-0.0195,0.1016,0.4987,-0.94,-0.42,-0.79,45927,0.128,20.293,16.160,-1.560,0.010,-0.020,0.945,0.000,0.000,0.000
628,0.0301,-0.0089,0.1296,-0.0175,0.1260,0.4943,-0.73,-0.58,-0.81,45961,0.153,26.747,9.586,-0.848,0.010,-0.021,0.939,0.000,0.000,0.000
638,0.0295,-0.0076,0.1338,-0.0190,0.1278,0.4877,-0.50,-0.67,-0.82,45160,0.153,29.194,7.529,-0.498,0.010,-0.021,0.928,0.000,0.000,0.000
648,0.0290,-0.0057,0.1386,-0.0200,0.1324,0.4840,-0.22,-0.77,-0.83,45306,0.153,28.540,4.553,-0.738,0.011,-0.020,0.922,0.000,0.000,0.000
658,0.0288,-0.0047,0.1434,-0.0191,0.1323,0.4800,0.06,-0.81,-0.84,45396,0.153,26.588,2.826,-1.271,0.007,-0.022,0.921,0.000,0.000,0.000
668,0.0280,-0.0031,0.1482,-0.0212,0.1345,0.4749,0.34,-0.83,-0.85,45491,0.153,21.901,-0.639,-0.124,0.008,-0.024,0.919,0.000,0.000,0.000
678,0.0280,-0.0016,0.1550,-0.0187,0.1353,0.4798,0.54,-0.80,-0.86,45610,0.153,22.192,-3.763,-0.624,0.011,-0.022,0.916,0.000,0.000,0.000
689,0.0275,-0.0003,0.1597,-0.0192,0.1347,0.4736,0.79,-0.78,-0.87,45520,0.173,19.849,-4.943,-0.876,0.010,-0.018,0.913,0.000,0.000,0.000
698,0.0271,0.0007,0.1644,-0.0190,0.1323,0.4665,1.00,-0.72,-0.88,44945,0.173,18.099,-5.189,-1.123,0.011,-0.017,0.909,0.000,0.000,0.000
709,0.0261,0.0028,0.1690,-0.0217,0.1353,0.4585,1.15,-0.64,-0.90,45099,0.173,13.923,-3.297,-0.349,0.007,-0.018,0.907,0.000,0.000,0.000
719,0.0260,0.0032,0.1736,-0.0201,0.1298,0.4509,1.31,-0.58,-0.91,45269,0.173,12.407,-2.829,-0.725,0.009,-0.020,0.903,0.000,0.000,0.000
729,0.0251,0.0043,0.1781,-0.0223,0.1270,0.4429,1.42,-0.56,-0.91,45428,0.194,14.743,-0.875,-1.038,0.010,-0.022,0.903,0.000,0.000,0.000
738,0.0243,0.0063,0.1801,-0.0243,0.1293,0.4223,1.58,-0.53,-0.93,44846,0.194,13.405,-1.925,-1.530,0.008,-0.022,0.905,0.000,0.000,0.000
749,0.0234,0.0070,0.1843,-0.0267,0.1247,0.4136,1.71,-0.52,-0.94,45274,0.194,10.847,1.534,-1.511,0.007,-0.022,0.904,0.000,0.000,0.000
758,0.0235,0.0089,0.1884,-0.0241,0.1255,0.4044,1.81,-0.54,-0.95,45454,0.194,9.608,1.419,-2.172,0.009,-0.019,0.903,0.000,0.000,0.000
769,0.0228,0.0097,0.1924,-0.0255,0.1207,0.3952,1.90,-0.54,-0.98,45647,0.194,11.116,3.560,-1.516,0.008,-0.018,0.898,0.000,0.000,0.000
778,0.0225,0.0111,0.1970,-0.0249,0.1189,0.3891,2.01,-0.56,-0.99,45834,0.194,11.086,3.323,-2.745,0.009,-0.020,0.899,0.000,0.000,0.000
788,0.0224,0.0124,0.2008,-0.0233,0.1170,0.3796,2.10,-0.58,-1.02,45962,0.211,13.615,2.488,-2.995,0.008,-0.019,0.901,0.000,0.000,0.000
798,0.0216,0.0138,0.2045,-0.0252,0.1151,0.3702,2.25,-0.61,-1.05,45552,0.211,16.923,1.363,-3.573,0.008,-0.019,0.904,0.000,0.000,0.000
808,0.0211,0.0149,0.2082,-0.0254,0.1120,0.3608,2.40,-0.62,-1.08,45748,0.211,17.986,1.500,-3.338,0.006,-0.017,0.904,0.000,0.000,0.000
818,0.0207,0.0169,0.2117,-0.0255,0.1124,0.3508,2.56,-0.63,-1.11,45943,0.211,14.307,2.909,-3.172,0.007,-0.018,0.901,0.000,0.000,0.000
829,0.0204,0.0173,0.2152,-0.0247,0.1059,0.3408,2.73,-0.66,-1.14,46153,0.223,13.606,0.274,-3.385,0.007,-0.016,0.901,0.000,0.000,0.000
838,0.0197,0.0189,0.2166,-0.0258,0.1048,0.3211,2.85,-0.66,-1.18,45926,0.223,12.975,1.605,-2.366,0.007,-0.016,0.903,0.000,0.000,0.000
848,0.0192,0.0199,0.2198,-0.0260,0.1009,0.3114,2.99,-0.66,-1.20,46330,0.223,10.991,-0.569,-3.198,0.008,-0.019,0.906,0.000,0.000,0.000
858,0.0191,0.0203,0.2229,-0.0243,0.0940,0.3020,3.09,-0.65,-1.23,46527,0.223,8.923,-0.923,-1.299,0.008,-0.021,0.907,0.000,0.000,0.000
868,0.0186,0.0218,0.2258,-0.0245,0.0922,0.2923,3.18,-0.65,-1.25,46714,0.223,5.426,0.165,-0.973,0.008,-0.020,0.912,0.000,0.000,0.000
879,0.0180,0.0223,0.2275,-0.0250,0.0861,0.2766,3.26,-0.63,-1.26,46913,0.223,5.394,-3.349,-1.558,0.004,-0.019,0.911,0.000,0.000,0.000
889,0.0175,0.0237,0.2302,-0.0253,0.0835,0.2668,3.31,-0.61,-1.27,47228,0.235,1.393,-2.516,-0.303,0.007,-0.015,0.913,0.000,0.000,0.000
898,0.0174,0.0246,0.2328,-0.0239,0.0789,0.2572,3.31,-0.58,-1.28,47000,0.235,2.822,-2.593,0.390,0.009,-0.016,0.912,0.000,0.000,0.000
909,0.0167,0.0248,0.2354,-0.0247,0.0714,0.2480,3.33,-0.54,-1.28,47191,0.235,-0.671,-2.570,0.467,0.009,-0.015,0.917,0.000,0.000,0.000
918,0.0166,0.0255,0.2378,-0.0234,0.0665,0.2390,3.33,-0.51,-1.28,47370,0.235,-1.124,-2.412,1.315,0.008,-0.018,0.922,0.000,0.000,0.000
928,0.0160,0.0267,0.2402,-0.0243,0.0636,0.2301,3.32,-0.47,-1.27,47551,0.250,0.048,-2.510,1.418,0.008,-0.016,0.924,0.000,0.000,0.000
938,0.0158,0.0275,0.2401,-0.0232,0.0590,0.2098,3.32,-0.43,-1.26,47196,0.250,0.276,-1.968,2.081,0.006,-0.015,0.924,0.000,0.000,0.000
948,0.0156,0.0280,0.2421,-0.0226,0.0538,0.2010,3.32,-0.40,-1.25,47606,0.250,-0.397,-3.889,1.612,0.008,-0.012,0.929,0.000,0.000,0.000
958,0.0151,0.0287,0.2441,-0.0227,0.0492,0.1923,3.31,-0.35,-1.22,47781,0.250,-2.629,0.138,3.107,0.006,-0.012,0.928,0.000,0.000,0.000
968,0.0147,0.0294,0.2460,-0.0230,0.0448,0.1842,3.28,-0.35,-1.20,47953,0.250,-2.028,1.113,3.750,0.006,-0.015,0.930,0.000,0.000,0.000
979,0.0145,0.0298,0.2495,-0.0224,0.0394,0.1849,3.25,-0.35,-1.16,48116,0.250,-1.403,-0.567,3.052,0.006,-0.015,0.934,0.000,0.000,0.000
988,0.0135,0.0303,0.2513,-0.0248,0.0345,0.1772,3.24,-0.35,-1.12,48097,0.260,-0.783,0.796,3.917,0.007,-0.016,0.938,0.000,0.000,0.000
997,0.0131,0.0307,0.2530,-0.0248,0.0296,0.1698,3.24,-0.35,-1.09,47891,0.260,-0.859,-0.404,4.472,0.007,-0.012,0.938,0.000,0.000,0.000
1008,0.0129,0.0309,0.2547,-0.0243,0.0245,0.1626,3.24,-0.34,-1.04,48038,0.260,-0.858,-1.459,4.519,0.006,-0.011,0.942,0.000,0.000,0.000
1017,0.0126,0.0312,0.2563,-0.0239,0.0193,0.1554,3.23,-0.33,-1.00,48179,0.260,-2.283,0.133,4.849,0.007,-0.011,0.940,0.000,0.000,0.000
1028,0.0125,0.0315,0.2578,-0.0229,0.0147,0.1485,3.21,-0.33,-0.95,48320,0.271,-2.529,-1.860,5.593,0.009,-0.012,0.940,0.000,0.000,0.000
1039,0.0123,0.0316,0.2602,-0.0224,0.0094,0.1470,3.20,-0.31,-0.90,48066,0.271,-2.378,-2.072,5.635,0.008,-0.012,0.942,0.000,0.000,0.000
1048,0.0119,0.0316,0.2617,-0.0225,0.0040,0.1408,3.16,-0.28,-0.85,48090,0.271,-5.229,0.420,6.638,0.005,-0.016,0.944,0.000,0.000,0.000
1058,0.0117,0.0316,0.2630,-0.0221,-0.0012,0.1347,3.12,-0.25,-0.78,48211,0.271,-3.632,-2.513,6.460,0.004,-0.010,0.944,0.000,0.000,0.000
1068,0.0116,0.0312,0.2644,-0.0213,-0.0075,0.1288,3.10,-0.24,-0.72,48330,0.271,-5.153,-2.531,7.035,0.007,-0.009,0.941,0.000,0.000,0.000
1079,0.0107,0.0315,0.2684,-0.0230,-0.0113,0.1370,3.06,-0.22,-0.65,48444,0.271,-5.716,-0.487,7.745,0.010,-0.015,0.945,0.000,0.000,0.000
1088,0.0099,0.0314,0.2697,-0.0248,-0.0161,0.1309,3.00,-0.23,-0.59,48274,0.274,-8.321,-1.383,7.379,0.009,-0.013,0.945,0.000,0.000,0.000
1098,0.0096,0.0313,0.2710,-0.0245,-0.0212,0.1252,2.92,-0.18,-0.51,48285,0.274,-8.968,-1.750,7.355,0.007,-0.016,0.944,0.000,0.000,0.000
1108,0.0094,0.0310,0.2722,-0.0242,-0.0261,0.1196,2.86,-0.13,-0.43,48399,0.274,-7.374,-2.323,7.239,0.008,-0.015,0.949,0.000,0.000,0.000
1118,0.0105,0.0311,0.2734,-0.0194,-0.0297,0.1140,2.77,-0.10,-0.36,48509,0.274,-10.510,-2.964,7.280,0.007,-0.012,0.956,0.000,0.000,0.000
1128,0.0087,0.0313,0.2745,-0.0243,-0.0330,0.1082,2.70,-0.08,-0.28,48622,0.278,-10.433,-0.808,8.311,0.007,-0.013,0.956,0.000,0.000,0.000
1138,0.0069,0.0302,0.2753,-0.0292,-0.0399,0.1014,2.59,-0.06,-0.20,48598,0.278,-7.379,-2.621,7.722,0.004,-0.010,0.953,0.000,0.000,0.000
1148,0.0067,0.0300,0.2763,-0.0286,-0.0437,0.0958,2.50,-0.03,-0.13,48731,0.278,-10.551,-1.103,8.134,0.007,-0.012,0.953,0.000,0.000,0.000
1158,0.0066,0.0284,0.2772,-0.0280,-0.0515,0.0904,2.41,-0.01,-0.05,48843,0.278,-9.275,-2.834,7.989,0.006,-0.013,0.954,0.000,0.000,0.000
1168,0.0060,0.0285,0.2781,-0.0289,-0.0537,0.0856,2.31,0.01,0.03,48947,0.278,-11.088,-1.614,7.812,0.008,-0.012,0.958,0.000,0.000,0.000
1178,0.0055,0.0283,0.2789,-0.0296,-0.0568,0.0809,2.23,0.03,0.11,49046,0.278,-7.128,-2.511,7.896,0.008,-0.014,0.960,0.000,0.000,0.000
1188,0.0053,0.0272,0.2797,-0.0291,-0.0624,0.0764,2.14,0.06,0.19,49142,0.281,-7.353,-2.355,8.382,0.005,-0.010,0.960,0.000,0.000,0.000
1198,0.0052,0.0265,0.2804,-0.0287,-0.0663,0.0718,2.07,0.07,0.27,49123,0.281,-10.507,0.323,10.354,0.006,-0.012,0.957,0.000,0.000,0.000
1208,0.0051,0.0248,0.2811,-0.0282,-0.0729,0.0671,1.96,0.09,0.37,49216,0.281,-6.842,-4.710,7.251,0.010,-0.014,0.957,0.000,0.000,0.000
1218,0.0045,0.0240,0.2818,-0.0292,-0.0768,0.0626,1.89,0.13,0.45,49309,0.281,-7.356,-3.754,7.412,0.010,-0.014,0.957,0.000,0.000,0.000
1229,0.0045,0.0233,0.2824,-0.0285,-0.0798,0.0585,1.83,0.18,0.52,49399,0.286,-8.530,-1.497,9.950,0.007,-0.014,0.961,0.000,0.000,0.000
1238,0.0038,0.0225,0.2823,-0.0298,-0.0830,0.0514,1.77,0.19,0.62,49304,0.286,-12.561,-2.827,8.218,0.009,-0.013,0.963,0.000,0.000,0.000
1248,0.0035,0.0216,0.2828,-0.0300,-0.0861,0.0473,1.64,0.20,0.70,49449,0.286,-14.198,-2.361,8.718,0.010,-0.008,0.964,0.000,0.000,0.000
1259,0.0028,0.0198,0.2832,-0.0312,-0.0919,0.0429,1.50,0.24,0.79,49535,0.286,-12.974,-4.349,8.323,0.008,-0.006,0.968,0.000,0.000,0.000
1268,0.0032,0.0176,0.2836,-0.0294,-0.0982,0.0386,1.35,0.27,0.88,49624,0.286,-12.423,-1.870,9.060,0.006,-0.006,0.966,0.000,0.000,0.000
1279,0.0031,0.0170,0.2850,-0.0292,-0.0998,0.0395,1.25,0.29,0.97,49713,0.286,-13.613,-3.192,8.467,0.008,-0.009,0.963,0.000,0.000,0.000
1287,0.0024,0.0159,0.2854,-0.0307,-0.1026,0.0357,1.12,0.32,1.05,49696,0.286,-18.451,-3.853,9.133,0.011,-0.011,0.968,0.000,0.000,0.000
1298,0.0023,0.0158,0.2857,-0.0305,-0.1022,0.0322,0.96,0.35,1.14,49778,0.286,-17.252,-3.072,8.838,0.012,-0.010,0.972,0.000,0.000,0.000
1308,0.0022,0.0136,0.2860,-0.0305,-0.1075,0.0286,0.76,0.40,1.23,49856,0.286,-14.523,-2.456,8.489,0.010,-0.009,0.972,0.000,0.000,0.000
1318,0.0020,0.0122,0.2863,-0.0306,-0.1105,0.0254,0.63,0.42,1.31,49933,0.286,-14.265,-2.308,7.463,0.004,-0.007,0.972,0.000,0.000,0.000
1328,0.0019,0.0101,0.2865,-0.0307,-0.1146,0.0218,0.47,0.44,1.38,50002,0.287,-11.412,-1.850,6.979,0.004,-0.007,0.972,0.000,0.000,0.000
1338,0.0006,0.0106,0.2865,-0.0340,-0.1114,0.0172,0.37,0.45,1.45,50043,0.287,-12.659,-1.205,6.814,0.006,-0.006,0.976,0.000,0.000,0.000
1348,0.0010,0.0091,0.2866,-0.0325,-0.1136,0.0142,0.24,0.47,1.52,50143,0.287,-10.400,-1.063,6.110,0.009,-0.012,0.977,0.000,0.000,0.000
1357,0.0009,0.0084,0.2868,-0.0326,-0.1132,0.0115,0.12,0.47,1.59,50206,0.287,-9.689,-0.991,5.907,0.007,-0.012,0.978,0.000,0.000,0.000
1368,0.0009,0.0062,0.2869,-0.0326,-0.1167,0.0087,0.01,0.48,1.64,50265,0.287,-11.898,1.204,5.324,0.004,-0.010,0.981,0.000,0.000,0.000
1377,0.0008,0.0047,0.2870,-0.0327,-0.1175,0.0059,-0.09,0.48,1.70,50326,0.287,-8.256,-2.020,4.368,0.004,-0.009,0.982,0.000,0.000,0.000
1387,0.0008,0.0042,0.2871,-0.0326,-0.1162,0.0034,-0.16,0.51,1.74,50385,0.294,-8.208,-4.071,2.928,0.005,-0.006,0.980,0.000,0.000,0.000
1397,0.0005,0.0030,0.2871,-0.0334,-0.1163,0.0012,-0.25,0.55,1.77,50189,0.294,-7.947,-2.427,2.382,0.005,-0.007,0.984,0.000,0.000,0.000
1408,-0.0002,0.0009,0.2871,-0.0351,-0.1185,-0.0011,-0.35,0.57,1.80,50239,0.294,-10.539,-1.795,2.078,0.004,-0.010,0.985,0.000,0.000,0.000
1418,-0.0004,-0.0005,0.2871,-0.0355,-0.1190,-0.0030,-0.45,0.59,1.82,50289,0.294,-10.532,-0.804,2.054,0.006,-0.011,0.988,0.000,0.000,0.000
1427,-0.0011,-0.0013,0.2870,-0.0373,-0.1174,-0.0049,-0.56,0.60,1.84,50332,0.288,-12.602,-0.306,1.415,0.007,-0.012,0.991,0.000,0.000,0.000
1437,-0.0012,-0.0020,0.2901,-0.0376,-0.1158,0.0091,-0.67,0.60,1.85,50588,0.288,-13.611,0.794,0.036,0.006,-0.011,0.992,0.000,0.000,0.000
1447,-0.0017,-0.0039,0.2902,-0.0391,-0.1170,0.0073,-0.82,0.58,1.85,50305,0.288,-12.907,2.935,0.650,0.007,-0.011,0.991,0.000,0.000,0.000
1458,-0.0021,-0.0051,0.2903,-0.0401,-0.1160,0.0058,-0.95,0.54,1.86,50347,0.288,-12.544,-0.050,0.241,0.006,-0.007,0.994,0.000,0.000,0.000
1467,-0.0020,-0.0069,0.2903,-0.0398,-0.1165,0.0044,-1.06,0.53,1.86,50382,0.288,-13.316,0.099,-1.565,0.003,-0.010,0.996,0.000,0.000,0.000
1478,-0.0018,-0.0066,0.2894,-0.0393,-0.1117,-0.0015,-1.20,0.54,1.84,50415,0.288,-12.429,-0.487,-2.425,0.004,-0.009,0.992,0.000,0.000,0.000
1488,-0.0018,-0.0079,0.2894,-0.0392,-0.1104,-0.0024,-1.33,0.54,1.82,50535,0.289,-14.796,2.668,-1.007,0.008,-0.009,0.994,0.000,0.000,0.000
1497,-0.0017,-0.0098,0.2893,-0.0389,-0.1106,-0.0034,-1.48,0.52,1.81,50520,0.289,-9.927,-1.945,-3.195,0.005,-0.010,0.996,0.000,0.000,0.000
1508,-0.0029,-0.0097,0.2893,-0.0420,-0.1058,-0.0043,-1.58,0.53,1.78,50544,0.289,-10.156,-1.189,-2.268,0.006,-0.011,0.995,0.000,0.000,0.000
1518,-0.0034,-0.0101,0.2893,-0.0432,-0.1019,-0.0048,-1.68,0.54,1.76,50562,0.289,-5.714,-1.836,-3.081,0.004,-0.010,0.999,0.000,0.000,0.000
1528,-0.0035,-0.0107,0.2892,-0.0434,-0.0985,-0.0053,-1.75,0.54,1.73,50573,0.292,-5.708,-3.546,-3.577,0.005,-0.010,0.995,0.000,0.000,0.000
1538,-0.0034,-0.0121,0.2891,-0.0431,-0.0968,-0.0066,-1.82,0.57,1.70,50476,0.292,-5.868,-3.832,-3.035,0.001,-0.011,0.994,0.000,0.000,0.000
1547,-0.0042,-0.0123,0.2890,-0.0449,-0.0922,-0.0072,-1.88,0.61,1.67,50503,0.292,-5.423,-3.367,-2.802,0.003,-0.012,0.993,0.000,0.000,0.000
1558,-0.0037,-0.0131,0.2889,-0.0435,-0.0889,-0.0077,-1.92,0.64,1.64,50513,0.292,-3.177,-2.343,-3.402,0.005,-0.012,0.995,0.000,0.000,0.000
1568,-0.0045,-0.0139,0.2888,-0.0454,-0.0858,-0.0080,-1.96,0.66,1.61,50522,0.292,-1.598,-1.489,-3.380,0.003,-0.014,0.998,0.000,0.000,0.000
1578,-0.0046,-0.0148,0.2901,-0.0457,-0.0827,-0.0015,-1.98,0.67,1.58,50529,0.292,-0.993,-0.600,-3.291,0.004,-0.009,0.997,0.000,0.000,0.000
1588,-0.0050,-0.0156,0.2901,-0.0469,-0.0795,-0.0022,-2.00,0.68,1.55,50395,0.289,-1.671,-0.695,-3.264,0.005,-0.012,0.997,0.000,0.000,0.000
1597,-0.0055,-0.0164,0.2901,-0.0481,-0.0762,-0.0028,-2.02,0.69,1.52,50515,0.289,0.617,-0.588,-3.077,0.004,-0.015,0.999,0.000,0.000,0.000
1608,-0.0055,-0.0169,0.2900,-0.0481,-0.0723,-0.0035,-2.02,0.70,1.49,50528,0.289,0.959,-0.415,-3.050,0.006,-0.015,0.996,0.000,0.000,0.000
1618,-0.0061,-0.0174,0.2900,-0.0497,-0.0684,-0.0039,-2.02,0.71,1.46,50540,0.289,-0.711,-0.252,-2.805,0.006,-0.012,0.997,0.000,0.000,0.000
1628,-0.0068,-0.0173,0.2900,-0.0514,-0.0632,-0.0042,-2.02,0.70,1.43,50546,0.291,2.727,0.638,-3.498,0.003,-0.012,0.998,0.000,0.000,0.000
1637,-0.0073,-0.0179,0.2895,-0.0526,-0.0598,-0.0068,-1.99,0.71,1.40,50478,0.291,1.288,0.877,-2.400,0.003,-0.012,0.999,0.000,0.000,0.000
1647,-0.0079,-0.0178,0.2894,-0.0541,-0.0548,-0.0070,-1.98,0.71,1.37,50530,0.291,3.074,2.654,-2.806,0.004,-0.013,1.003,0.000,0.000,0.000
1657,-0.0085,-0.0183,0.2893,-0.0554,-0.0514,-0.0073,-1.96,0.71,1.34,50532,0.291,-0.135,0.549,-2.313,0.006,-0.012,0.999,0.000,0.000,0.000
1668,-0.0090,-0.0188,0.2893,-0.0567,-0.0480,-0.0078,-1.95,0.71,1.32,50537,0.291,1.816,-0.569,-2.822,0.005,-0.015,0.999,0.000,0.000,0.000
1678,-0.0096,-0.0188,0.2899,-0.0579,-0.0435,-0.0044,-1.93,0.71,1.29,50545,0.291,0.798,-2.832,-2.285,0.005,-0.014,1.001,0.000,0.000,0.000
1688,-0.0101,-0.0192,0.2899,-0.0592,-0.0402,-0.0045,-1.93,0.73,1.27,50473,0.288,3.098,-1.847,-2.657,0.003,-0.013,1.001,0.000,0.000,0.000
1698,-0.0107,-0.0196,0.2898,-0.0605,-0.0369,-0.0046,-1.91,0.75,1.25,50583,0.288,2.878,-1.394,-2.997,0.005,-0.012,1.002,0.000,0.000,0.000
1708,-0.0114,-0.0200,0.2898,-0.0618,-0.0336,-0.0044,-1.89,0.77,1.22,50582,0.288,0.169,-4.866,-2.517,0.006,-0.015,1.001,0.000,0.000,0.000
1718,-0.0113,-0.0191,0.2897,-0.0617,-0.0276,-0.0047,-1.89,0.80,1.20,50579,0.288,2.902,-5.075,-2.869,0.004,-0.014,1.002,0.000,0.000,0.000
1728,-0.0120,-0.0194,0.2897,-0.0630,-0.0244,-0.0048,-1.85,0.85,1.17,50579,0.288,2.309,-6.129,-1.961,0.003,-0.013,1.004,0.000,0.000,0.000
1738,-0.0120,-0.0184,0.2889,-0.0631,-0.0186,-0.0085,-1.84,0.89,1.15,50581,0.288,4.030,-6.934,-2.253,0.004,-0.012,1.002,0.000,0.000,0.000
1748,-0.0127,-0.0186,0.2888,-0.0646,-0.0154,-0.0085,-1.81,0.95,1.14,50654,0.288,5.613,-6.097,-2.401,0.002,-0.012,1.001,0.000,0.000,0.000
1758,-0.0133,-0.0187,0.2887,-0.0661,-0.0123,-0.0084,-1.76,1.01,1.11,50654,0.288,6.295,-6.548,-2.601,0.004,-0.016,1.002,0.000,0.000,0.000
1767,-0.0134,-0.0180,0.2886,-0.0665,-0.0073,-0.0084,-1.71,1.06,1.09,50653,0.288,5.576,-8.233,-2.102,0.004,-0.015,1.003,0.000,0.000,0.000
1778,-0.0135,-0.0175,0.2883,-0.0668,-0.0030,-0.0094,-1.65,1.14,1.08,50651,0.288,6.704,-7.679,-2.057,0.004,-0.012,1.001,0.000,0.000,0.000
1788,-0.0135,-0.0171,0.2882,-0.0672,0.0009,-0.0092,-1.60,1.20,1.06,50672,0.285,6.310,-7.467,-2.081,0.003,-0.013,0.997,0.000,0.000,0.000
1797,-0.0137,-0.0158,0.2881,-0.0680,0.0066,-0.0091,-1.53,1.28,1.04,50775,0.285,8.209,-6.897,-2.325,0.005,-0.013,0.997,0.000,0.000,0.000
1808,-0.0144,-0.0157,0.2880,-0.0700,0.0094,-0.0089,-1.46,1.35,1.02,50770,0.285,6.469,-7.059,-1.992,0.003,-0.014,1.002,0.000,0.000,0.000
1818,-0.0146,-0.0145,0.2879,-0.0712,0.0148,-0.0087,-1.41,1.41,1.00,50770,0.285,6.617,-5.628,-2.016,0.004,-0.011,1.003,0.000,0.000,0.000
1827,-0.0150,-0.0144,0.2879,-0.0720,0.0150,-0.0087,-1.34,1.47,0.98,50764,0.285,6.684,-5.007,-2.314,0.005,-0.012,1.001,0.000,0.000,0.000
1837,-0.0159,-0.0130,0.2865,-0.0752,0.0222,-0.0151,-1.29,1.51,0.96,50767,0.285,6.080,-4.872,-2.156,0.003,-0.014,0.994,0.000,0.000,0.000
1848,-0.0152,-0.0121,0.2865,-0.0738,0.0242,-0.0151,-1.23,1.54,0.94,50897,0.285,7.610,-4.471,-3.028,0.002,-0.014,0.999,0.000,0.000,0.000
1857,-0.0167,-0.0116,0.2861,-0.0788,0.0288,-0.0156,-1.18,1.60,0.92,50896,0.285,7.634,-3.658,-2.193,0.003,-0.015,1.002,0.000,0.000,0.000
1867,-0.0159,-0.0107,0.2861,-0.0769,0.0307,-0.0156,-1.10,1.62,0.89,50910,0.285,9.057,-3.039,-2.187,0.004,-0.014,1.004,0.000,0.000,0.000
1877,-0.0166,-0.0093,0.2854,-0.0803,0.0366,-0.0172,-1.03,1.65,0.87,50909,0.285,7.919,-1.988,-2.500,0.006,-0.013,1.004,0.000,0.000,0.000
1887,-0.0174,-0.0068,0.2854,-0.0821,0.0419,-0.0173,-0.93,1.67,0.84,50944,0.286,10.117,-3.061,-2.420,0.006,-0.012,1.002,0.000,0.000,0.000
1897,-0.0181,-0.0064,0.2851,-0.0855,0.0447,-0.0182,-0.84,1.69,0.82,50913,0.286,10.558,-2.535,-2.190,0.009,-0.013,1.001,0.000,0.000,0.000
1907,-0.0187,-0.0046,0.2849,-0.0879,0.0492,-0.0182,-0.75,1.71,0.80,50936,0.286,10.967,-3.283,-2.706,0.011,-0.013,1.004,0.000,0.000,0.000
1917,-0.0193,-0.0057,0.2847,-0.0901,0.0475,-0.0179,-0.64,1.74,0.78,50938,0.286,12.265,-2.463,-2.271,0.008,-0.013,1.005,0.000,0.000,0.000
1927,-0.0200,-0.0040,0.2845,-0.0926,0.0515,-0.0176,-0.55,1.76,0.76,50939,0.286,12.237,-3.280,-2.225,0.006,-0.016,1.006,0.000,0.000,0.000
1937,-0.0198,-0.0023,0.2850,-0.0932,0.0553,-0.0140,-0.43,1.79,0.74,50938,0.286,13.875,-3.154,-2.240,0.008,-0.013,1.008,0.000,0.000,0.000
1947,-0.0204,-0.0018,0.2849,-0.0955,0.0562,-0.0137,-0.29,1.80,0.72,50868,0.286,12.037,-3.677,-1.631,0.010,-0.012,1.006,0.000,0.000,0.000
1958,-0.0203,0.0008,0.2848,-0.0961,0.0612,-0.0136,-0.18,1.82,0.70,50869,0.286,11.020,-5.076,-1.822,0.008,-0.016,1.005,0.000,0.000,0.000
1967,-0.0209,0.0010,0.2846,-0.0984,0.0612,-0.0132,-0.07,1.88,0.68,50869,0.286,11.429,-5.567,-2.114,0.008,-0.015,1.004,0.000,0.000,0.000
1977,-0.0206,0.0016,0.2851,-0.0990,0.0615,-0.0097,0.06,1.92,0.66,50867,0.286,13.674,-5.563,-2.161,0.008,-0.015,1.007,0.000,0.000,0.000
1987,-0.0206,0.0031,0.2850,-0.0999,0.0636,-0.0091,0.16,1.97,0.64,50801,0.283,12.580,-5.680,-1.696,0.006,-0.014,1.009,0.000,0.000,0.000
1998,-0.0212,0.0038,0.2850,-0.1013,0.0653,-0.0092,0.31,2.03,0.62,50902,0.283,10.978,-4.874,-2.286,0.004,-0.013,1.007,0.000,0.000,0.000
2008,-0.0212,0.0043,0.2849,-0.1023,0.0649,-0.0085,0.40,2.10,0.60,50910,0.283,11.330,-5.361,-2.242,0.008,-0.015,1.005,0.000,0.000,0.000
2017,-0.0221,0.0073,0.2848,-0.1053,0.0699,-0.0081,0.51,2.14,0.58,50901,0.283,13.395,-5.498,-2.594,0.011,-0.016,1.002,0.000,0.000,0.000
2027,-0.0228,0.0063,0.2847,-0.1079,0.0659,-0.0076,0.63,2.18,0.56,50900,0.284,14.482,-5.279,-2.659,0.009,-0.015,1.004,0.000,0.000,0.000
2037,-0.0252,0.0086,0.2839,-0.1141,0.0687,-0.0112,0.78,2.22,0.54,50861,0.284,17.050,-3.856,-2.637,0.007,-0.012,1.003,0.000,0.000,0.000
2047,-0.0250,0.0090,0.2838,-0.1148,0.0676,-0.0104,0.95,2.26,0.51,50948,0.284,13.933,-3.905,-2.302,0.009,-0.013,1.006,0.000,0.000,0.000
2058,-0.0248,0.0111,0.2837,-0.1157,0.0695,-0.0096,1.08,2.29,0.49,50937,0.284,11.924,-3.726,-2.093,0.010,-0.012,1.010,0.000,0.000,0.000
2067,-0.0253,0.0112,0.2837,-0.1181,0.0673,-0.0090,1.19,2.32,0.47,50927,0.284,10.395,-4.884,-2.090,0.007,-0.014,1.007,0.000,0.000,0.000
2078,-0.0260,0.0116,0.2837,-0.1208,0.0654,-0.0077,1.31,2.36,0.45,50919,0.284,9.939,-3.898,-2.222,0.008,-0.011,1.003,0.000,0.000,0.000
2087,-0.0273,0.0130,0.2837,-0.1249,0.0651,-0.0075,1.38,2.41,0.43,50900,0.287,7.244,-4.824,-1.453,0.009,-0.012,1.004,0.000,0.000,0.000
2097,-0.0280,0.0144,0.2836,-0.1274,0.0650,-0.0073,1.47,2.45,0.41,50798,0.287,8.502,-7.701,-2.478,0.009,-0.013,1.006,0.000,0.000,0.000
2107,-0.0277,0.0143,0.2835,-0.1282,0.0614,-0.0070,1.53,2.51,0.39,50800,0.287,9.003,-3.494,-1.863,0.006,-0.015,1.004,0.000,0.000,0.000
2117,-0.0300,0.0168,0.2835,-0.1342,0.0630,-0.0063,1.63,2.55,0.37,50794,0.287,5.763,-8.475,-1.852,0.007,-0.013,1.002,0.000,0.000,0.000
2127,-0.0307,0.0167,0.2834,-0.1369,0.0592,-0.0055,1.69,2.63,0.35,50796,0.282,7.065,-5.582,-1.262,0.007,-0.009,1.005,0.000,0.000,0.000
2138,-0.0314,0.0185,0.2849,-0.1399,0.0591,0.0031,1.78,2.69,0.33,50962,0.282,6.204,-10.272,-1.429,0.010,-0.009,1.006,0.000,0.000,0.000
2147,-0.0323,0.0179,0.2850,-0.1429,0.0540,0.0034,1.82,2.79,0.32,50794,0.282,8.452,-7.255,-1.834,0.007,-0.012,1.006,0.000,0.000,0.000
2157,-0.0338,0.0181,0.2850,-0.1475,0.0505,0.0037,1.87,2.86,0.30,50794,0.282,6.633,-6.919,-2.152,0.009,-0.011,1.004,0.000,0.000,0.000
2168,-0.0353,0.0186,0.2850,-0.1520,0.0475,0.0041,1.94,2.93,0.28,50795,0.282,4.363,-6.625,-1.561,0.008,-0.013,1.006,0.000,0.000,0.000
2177,-0.0368,0.0212,0.2839,-0.1564,0.0490,-0.0022,2.01,3.01,0.26,50795,0.282,6.894,-7.241,-2.059,0.013,-0.011,1.005,0.000,0.000,0.000
2187,-0.0390,0.0231,0.2838,-0.1625,0.0488,-0.0021,2.06,3.07,0.24,50938,0.288,5.216,-6.422,-1.649,0.011,-0.013,1.003,0.000,0.000,0.000
2197,-0.0407,0.0236,0.2838,-0.1674,0.0456,-0.0017,2.12,3.13,0.22,50737,0.288,8.014,-3.865,-1.527,0.011,-0.013,1.003,0.000,0.000,0.000
2208,-0.0436,0.0236,0.2838,-0.1751,0.0413,-0.0014,2.22,3.16,0.20,50739,0.288,9.071,-4.657,-2.042,0.012,-0.010,1.004,0.000,0.000,0.000
2217,-0.0443,0.0255,0.2838,-0.1779,0.0411,-0.0010,2.31,3.20,0.17,50746,0.288,5.569,-9.352,-1.443,0.012,-0.011,0.999,0.000,0.000,0.000
2227,-0.0463,0.0265,0.2838,-0.1836,0.0387,-0.0008,2.37,3.27,0.16,50747,0.283,6.812,-8.498,-1.724,0.009,-0.009,1.003,0.000,0.000,0.000
2237,-0.0469,0.0257,0.2856,-0.1865,0.0326,0.0092,2.44,3.37,0.13,50933,0.283,5.129,-9.585,-2.146,0.010,-0.011,1.004,0.000,0.000,0.000
2246,-0.0477,0.0261,0.2857,-0.1897,0.0286,0.0094,2.49,3.47,0.11,50733,0.283,2.219,-11.422,-1.904,0.012,-0.010,1.003,0.000,0.000,0.000
2256,-0.0483,0.0263,0.2858,-0.1924,0.0245,0.0095,2.50,3.61,0.09,50736,0.283,1.004,-13.269,-2.262,0.013,-0.009,1.005,0.000,0.000,0.000
2266,-0.0515,0.0259,0.2859,-0.2006,0.0190,0.0096,2.51,3.72,0.06,50741,0.283,-0.377,-13.297,-1.701,0.013,-0.010,1.005,0.000,0.000,0.000
2276,-0.0534,0.0261,0.2848,-0.2061,0.0149,0.0031,2.51,3.83,0.04,50757,0.283,0.999,-10.955,-2.300,0.009,-0.010,1.005,0.000,0.000,0.000
2287,-0.0583,0.0284,0.2848,-0.2180,0.0153,0.0028,2.52,3.94,0.01,50903,0.288,-1.434,-14.883,-2.226,0.012,-0.010,1.005,0.000,0.000,0.000
2297,-0.0591,0.0283,0.2849,-0.2211,0.0105,0.0030,2.51,4.08,-0.01,50768,0.288,-0.692,-11.821,-1.954,0.014,-0.010,1.004,0.000,0.000,0.000
2307,-0.0599,0.0283,0.2849,-0.2244,0.0059,0.0031,2.50,4.20,-0.04,50773,0.288,-1.370,-13.618,-2.014,0.012,-0.011,1.004,0.000,0.000,0.000
2317,-0.0608,0.0283,0.2850,-0.2281,0.0017,0.0034,2.50,4.32,-0.07,50779,0.288,-3.639,-14.959,-1.769,0.014,-0.008,1.004,0.000,0.000,0.000
2327,-0.0632,0.0283,0.2850,-0.2349,-0.0028,0.0035,2.46,4.47,-0.09,50785,0.287,-3.451,-13.707,-2.247,0.013,-0.008,1.006,0.000,0.000,0.000
2337,-0.0651,0.0285,0.2863,-0.2410,-0.0066,0.0105,2.44,4.59,-0.13,50839,0.287,-3.611,-13.739,-2.088,0.013,-0.012,1.009,0.000,0.000,0.000
2347,-0.0667,0.0271,0.2864,-0.2464,-0.0137,0.0107,2.40,4.72,-0.15,50717,0.287,-5.007,-15.613,-2.290,0.010,-0.014,1.007,0.000,0.000,0.000
2357,-0.0699,0.0273,0.2865,-0.2553,-0.0171,0.0105,2.34,4.86,-0.18,50728,0.287,-5.967,-16.550,-2.101,0.015,-0.010,1.008,0.000,0.000,0.000
2367,-0.0716,0.0261,0.2867,-0.2610,-0.0236,0.0106,2.31,5.02,-0.22,50761,0.287,-2.732,-13.990,-2.713,0.019,-0.010,1.008,0.000,0.000,0.000
2377,-0.0734,0.0265,0.2869,-0.2670,-0.0263,0.0113,2.29,5.16,-0.25,50778,0.287,-3.234,-16.898,-3.070,0.017,-0.011,1.005,0.000,0.000,0.000
2386,-0.0750,0.0269,0.2870,-0.2728,-0.0290,0.0115,2.27,5.33,-0.29,50789,0.290,-4.356,-16.335,-2.874,0.014,-0.008,1.004,0.000,0.000,0.000
2396,-0.0775,0.0256,0.2871,-0.2806,-0.0352,0.0118,2.23,5.49,-0.33,50703,0.290,-3.790,-14.140,-2.908,0.013,-0.007,1.003,0.000,0.000,0.000
2407,-0.0800,0.0245,0.2872,-0.2885,-0.0407,0.0121,2.19,5.65,-0.36,50724,0.290,-5.884,-16.305,-2.754,0.013,-0.011,1.003,0.000,0.000,0.000
2417,-0.0839,0.0233,0.2873,-0.2996,-0.0462,0.0121,2.13,5.81,-0.40,50747,0.290,-6.788,-16.667,-2.657,0.018,-0.008,1.003,0.000,0.000,0.000
2427,-0.0870,0.0228,0.2875,-0.3088,-0.0501,0.0124,2.09,5.97,-0.43,50791,0.293,-6.603,-16.675,-2.259,0.021,-0.007,1.000,0.000,0.000,0.000
2436,-0.0904,0.0218,0.2886,-0.3190,-0.0551,0.0182,2.00,6.11,-0.46,50718,0.293,-7.966,-16.837,-2.198,0.017,-0.009,1.001,0.000,0.000,0.000
2447,-0.0936,0.0216,0.2888,-0.3286,-0.0579,0.0180,1.92,6.28,-0.48,50644,0.293,-8.365,-17.324,-1.850,0.017,-0.004,1.002,0.000,0.000,0.000
2457,-0.0968,0.0199,0.2890,-0.3383,-0.0639,0.0177,1.83,6.44,-0.51,50694,0.293,-9.077,-17.488,-1.838,0.017,-0.005,1.003,0.000,0.000,0.000
2467,-0.0985,0.0206,0.2892,-0.3448,-0.0645,0.0179,1.75,6.62,-0.53,50744,0.293,-9.397,-18.647,-1.483,0.017,-0.007,1.008,0.000,0.000,0.000
2477,-0.1021,0.0198,0.2909,-0.3554,-0.0682,0.0254,1.65,6.80,-0.55,50781,0.293,-11.849,-20.257,-0.455,0.017,-0.007,1.006,0.000,0.000,0.000
2486,-0.1052,0.0198,0.2911,-0.3652,-0.0699,0.0248,1.54,7.02,-0.56,50684,0.294,-11.872,-20.656,-0.382,0.017,-0.008,1.008,0.000,0.000,0.000
2497,-0.1093,0.0183,0.2914,-0.3770,-0.0746,0.0241,1.42,7.20,-0.57,50719,0.294,-13.132,-22.618,0.109,0.019,-0.007,1.008,0.000,0.000,0.000
2506,-0.1119,0.0177,0.2916,-0.3858,-0.0770,0.0238,1.29,7.43,-0.58,50798,0.294,-12.166,-22.426,0.773,0.020,-0.007,1.008,0.000,0.000,0.000
2517,-0.1175,0.0165,0.2918,-0.4012,-0.0808,0.0230,1.15,7.63,-0.57,50861,0.294,-12.354,-23.146,1.498,0.021,-0.005,1.007,0.000,0.000,0.000
2526,-0.1195,0.0160,0.2921,-0.4087,-0.0826,0.0233,1.04,7.87,-0.57,50967,0.297,-12.403,-25.982,1.692,0.025,-0.005,1.008,0.000,0.000,0.000
2536,-0.1239,0.0154,0.2931,-0.4217,-0.0843,0.0269,0.92,8.13,-0.55,50911,0.297,-11.618,-28.148,2.056,0.023,-0.006,1.009,0.000,0.000,0.000
2547,-0.1268,0.0156,0.2934,-0.4314,-0.0840,0.0270,0.80,8.38,-0.54,50927,0.297,-11.394,-29.583,2.696,0.021,-0.005,1.010,0.000,0.000,0.000
2556,-0.1312,0.0137,0.2936,-0.4447,-0.0882,0.0268,0.67,8.70,-0.50,50997,0.297,-9.649,-30.836,3.368,0.022,-0.007,1.012,0.000,0.000,0.000
2567,-0.1357,0.0124,0.2939,-0.4581,-0.0908,0.0265,0.60,8.99,-0.49,51101,0.297,-8.575,-31.813,3.911,0.021,-0.008,1.012,0.000,0.000,0.000
2577,-0.1384,0.0118,0.2953,-0.4679,-0.0918,0.0326,0.49,9.31,-0.44,51205,0.297,-7.789,-32.131,4.247,0.022,-0.007,1.011,0.000,0.000,0.000
2586,-0.1453,0.0125,0.2956,-0.4870,-0.0892,0.0318,0.39,9.60,-0.40,51169,0.298,-6.039,-32.416,4.581,0.023,-0.008,1.009,0.000,0.000,0.000
2597,-0.1479,0.0096,0.2960,-0.4969,-0.0947,0.0320,0.35,9.93,-0.37,51289,0.298,-5.729,-33.131,5.124,0.028,-0.003,1.012,0.000,0.000,0.000
2606,-0.1540,0.0102,0.2963,-0.5146,-0.0922,0.0314,0.25,10.24,-0.31,51374,0.298,-9.052,-32.675,5.146,0.026,-0.006,1.014,0.000,0.000,0.000
2616,-0.1566,0.0101,0.2967,-0.5249,-0.0911,0.0320,0.13,10.58,-0.24,51528,0.298,-6.830,-34.480,5.948,0.028,-0.005,1.012,0.000,0.000,0.000
2627,-0.1621,0.0065,0.2970,-0.5418,-0.0976,0.0315,0.07,10.89,-0.20,51616,0.302,-7.926,-35.186,6.170,0.025,-0.006,1.014,0.000,0.000,0.000
2637,-0.1663,0.0072,0.2975,-0.5561,-0.0944,0.0323,-0.03,11.25,-0.13,51626,0.302,-7.111,-34.128,6.122,0.029,-0.006,1.015,0.000,0.000,0.000
2646,-0.1733,0.0071,0.2978,-0.5766,-0.0929,0.0312,-0.09,11.57,-0.08,51743,0.302,-5.801,-36.073,6.261,0.031,-0.010,1.018,0.000,0.000,0.000
2656,-0.1768,0.0049,0.2982,-0.5897,-0.0960,0.0311,-0.13,11.96,-0.03,51940,0.302,-6.646,-36.975,7.039,0.028,-0.009,1.016,0.000,0.000,0.000
2666,-0.1838,0.0047,0.2985,-0.6107,-0.0943,0.0303,-0.22,12.33,0.06,52076,0.302,-3.212,-39.938,6.631,0.028,-0.010,1.020,0.000,0.000,0.000
2677,-0.1873,0.0024,0.2999,-0.6240,-0.0973,0.0354,-0.29,12.73,0.14,52290,0.302,-2.706,-39.442,7.252,0.029,-0.010,1.024,0.000,0.000,0.000
2686,-0.1937,-0.0008,0.3003,-0.6446,-0.1019,0.0347,-0.32,13.08,0.20,52333,0.310,-3.181,-41.580,6.992,0.033,-0.012,1.022,0.000,0.000,0.000
2697,-0.1997,-0.0005,0.3006,-0.6642,-0.0987,0.0340,-0.37,13.53,0.28,52266,0.310,-3.955,-45.798,6.873,0.036,-0.010,1.018,0.000,0.000,0.000
2707,-0.2071,-0.0002,0.3009,-0.6869,-0.0954,0.0330,-0.46,14.03,0.38,52491,0.310,-6.331,-45.640,7.083,0.035,-0.008,1.017,0.000,0.000,0.000
2717,-0.2099,-0.0027,0.3015,-0.6996,-0.0985,0.0338,-0.52,14.49,0.45,52760,0.310,-6.989,-46.463,6.500,0.033,-0.009,1.017,0.000,0.000,0.000
2727,-0.2196,-0.0037,0.3017,-0.7280,-0.0982,0.0317,-0.57,14.93,0.48,52909,0.313,-7.062,-48.192,5.687,0.036,-0.008,1.018,0.000,0.000,0.000
2736,-0.2278,-0.0043,0.3049,-0.7539,-0.0964,0.0457,-0.68,15.44,0.57,53154,0.313,-5.865,-49.194,5.797,0.036,-0.008,1.027,0.000,0.000,0.000
2747,-0.2366,-0.0060,0.3053,-0.7809,-0.0975,0.0442,-0.77,15.90,0.64,53179,0.313,-7.776,-50.620,5.585,0.035,-0.008,1.025,0.000,0.000,0.000
2756,-0.2417,-0.0095,0.3059,-0.7994,-0.1026,0.0437,-0.86,16.36,0.70,53526,0.313,-7.126,-48.489,5.886,0.035,-0.012,1.028,0.000,0.000,0.000
2766,-0.2515,-0.0092,0.3062,-0.8289,-0.0988,0.0411,-0.95,16.88,0.77,53779,0.313,-5.682,-48.645,5.249,0.033,-0.014,1.031,0.000,0.000,0.000
2777,-0.2584,-0.0096,0.3080,-0.8522,-0.0965,0.0465,-1.01,17.33,0.82,54195,0.313,-5.068,-50.235,5.132,0.037,-0.013,1.035,0.000,0.000,0.000
2786,-0.2644,-0.0111,0.3085,-0.8735,-0.0967,0.0452,-1.07,17.84,0.88,54388,0.318,-4.187,-49.332,5.160,0.038,-0.012,1.036,0.000,0.000,0.000
2796,-0.2754,-0.0121,0.3089,-0.9068,-0.0958,0.0422,-1.11,18.32,0.93,54539,0.318,-1.892,-47.980,4.143,0.038,-0.012,1.035,0.000,0.000,0.000
2806,-0.2816,-0.0138,0.3095,-0.9292,-0.0963,0.0415,-1.12,18.80,0.95,55025,0.318,-1.295,-47.944,4.422,0.039,-0.013,1.037,0.000,0.000,0.000
2817,-0.2922,-0.0151,0.3098,-0.9618,-0.0956,0.0386,-1.14,19.24,1.01,55355,0.318,-2.581,-44.829,4.526,0.041,-0.014,1.043,0.000,0.000,0.000
2827,-0.2999,-0.0170,0.3103,-0.9881,-0.0964,0.0376,-1.12,19.69,1.00,55843,0.322,-1.354,-44.601,4.093,0.041,-0.014,1.047,0.000,0.000,0.000
2837,-0.3112,-0.0201,0.3115,-1.0230,-0.1001,0.0396,-1.16,20.10,1.06,56101,0.322,-2.624,-40.271,4.132,0.039,-0.014,1.048,0.000,0.000,0.000
2847,-0.3189,-0.0214,0.3121,-1.0497,-0.0993,0.0388,-1.18,20.52,1.08,56538,0.322,-2.962,-37.586,3.955,0.043,-0.018,1.061,0.000,0.000,0.000
2857,-0.3302,-0.0258,0.3124,-1.0847,-0.1061,0.0358,-1.29,20.86,1.19,56940,0.322,-5.381,-33.066,3.898,0.046,-0.017,1.064,0.000,0.000,0.000
2867,-0.3392,-0.0264,0.3129,-1.1143,-0.1038,0.0344,-1.30,21.20,1.21,57484,0.322,-4.282,-28.478,3.894,0.043,-0.016,1.067,0.000,0.000,0.000
2877,-0.3533,-0.0296,0.3133,-1.1558,-0.1073,0.0318,-1.33,21.41,1.22,57928,0.322,-6.398,-21.940,3.098,0.049,-0.018,1.065,0.000,0.000,0.000
2887,-0.3634,-0.0271,0.3137,-1.1881,-0.0976,0.0304,-1.37,21.62,1.22,58530,0.322,-7.430,-19.163,3.141,0.052,-0.019,1.071,0.000,0.000,0.000
2896,-0.3771,-0.0302,0.3139,-1.2285,-0.1010,0.0272,-1.46,21.79,1.28,58982,0.322,-5.585,-18.126,3.944,0.053,-0.016,1.078,0.000,0.000,0.000
2907,-0.3845,-0.0325,0.3145,-1.2546,-0.1025,0.0287,-1.47,21.98,1.25,59585,0.322,-6.452,-17.351,3.185,0.051,-0.019,1.085,0.000,0.000,0.000
2916,-0.3984,-0.0360,0.3147,-1.2954,-0.1068,0.0268,-1.53,22.08,1.26,59916,0.322,-7.752,-15.699,3.100,0.053,-0.019,1.088,0.000,0.000,0.000
