time_ms,vel_x,vel_y,vel_z,roll,pitch,yaw,range_z,gyro_x,gyro_y,gyro_z
0,-0.0057,0.0020,0.0081,-0.28,-0.18,25.92,0.014,-0.064,-0.069,0.029
0,-0.0084,0.0053,0.0080,-0.32,-0.17,25.90,0.014,0.045,0.071,0.177
0,0.0019,0.0049,0.0083,-0.27,-0.25,25.87,0.014,0.039,0.027,0.077
0,0.0037,-0.0017,0.0084,-0.22,-0.24,25.85,0.011,-0.004,-0.204,0.088
0,0.0041,0.0025,0.0082,-0.25,-0.25,25.82,0.011,0.184,-0.096,-0.089
0,-0.0060,0.0024,0.0024,-0.28,-0.18,25.79,0.011,-0.019,-0.157,-0.012
0,0.0052,-0.0024,0.0026,-0.21,-0.25,25.77,0.011,0.093,0.187,-0.087
0,0.0061,-0.0017,0.0027,-0.21,-0.25,25.74,0.011,-0.220,-0.031,0.098
0,0.0040,0.0023,0.0029,-0.25,-0.25,25.72,0.012,-0.132,0.268,0.016
0,-0.0051,0.0003,0.0031,-0.27,-0.17,25.69,0.012,0.115,0.153,0.132
0,-0.0028,0.0038,0.0017,-0.29,-0.20,25.67,0.012,-0.074,-0.103,-0.027
0,-0.0057,-0.0002,0.0017,-0.27,-0.17,25.64,0.012,0.074,0.097,0.094
0,-0.0010,-0.0041,0.0018,-0.22,-0.19,25.62,0.012,-0.010,0.176,-0.149
1,0.0003,-0.0008,0.0019,-0.24,-0.21,25.59,0.011,-0.085,0.212,-0.047
1,0.0018,-0.0013,0.0019,-0.23,-0.22,25.57,0.011,-0.047,0.137,0.085
1,0.0062,-0.0004,-0.0014,-0.22,-0.26,25.54,0.011,0.094,-0.023,-0.146
1,-0.0010,-0.0012,-0.0012,-0.24,-0.20,25.52,0.011,0.032,0.023,0.355
1,0.0035,0.0024,-0.0009,-0.25,-0.25,25.49,0.011,0.146,-0.047,-0.123
1,-0.0022,0.0061,-0.0007,-0.30,-0.22,25.46,0.015,-0.180,0.214,0.045
1,0.0009,0.0098,-0.0009,-0.31,-0.25,25.44,0.015,0.311,0.131,0.044
1,-0.0062,0.0034,0.0059,-0.29,-0.18,25.41,0.015,0.227,0.007,-0.251
1,0.0014,-0.0020,0.0062,-0.22,-0.22,25.39,0.015,-0.086,0.025,0.357
1,0.0018,-0.0031,0.0066,-0.21,-0.22,25.36,0.015,-0.204,-0.242,0.018
1,0.0081,-0.0061,0.0066,-0.17,-0.25,25.33,0.011,0.078,-0.133,0.142
1,0.0010,-0.0027,0.0069,-0.22,-0.22,25.31,0.011,0.093,0.072,0.256
1,-0.0139,0.0153,0.0015,-0.40,-0.17,25.29,0.011,-0.331,-0.062,0.064
1,-0.0092,0.0190,0.0017,-0.41,-0.22,25.26,0.011,-0.211,-0.172,0.010
1,-0.0109,0.0224,0.0016,-0.43,-0.22,25.24,0.011,0.064,-0.271,0.015
2,-0.0090,0.0184,0.0018,-0.40,-0.22,25.21,0.013,-0.264,0.121,-0.001
2,-0.0165,0.0241,0.0015,-0.46,-0.18,25.19,0.013,0.092,0.073,-0.111
2,-0.0195,0.0314,0.0022,-0.52,-0.18,25.17,0.013,0.290,0.030,0.002
2,-0.0216,0.0362,0.0020,-0.56,-0.18,25.14,0.013,0.033,-0.410,-0.311
2,-0.0173,0.0276,0.0030,-0.48,-0.18,25.12,0.013,-0.179,-0.008,-0.091
2,-0.0176,0.0282,0.0031,-0.48,-0.18,25.09,0.014,0.008,0.228,-0.230
2,-0.0166,0.0291,0.0031,-0.47,-0.19,25.06,0.014,-0.033,0.039,-0.105
2,-0.0170,0.0295,0.0055,-0.47,-0.19,25.04,0.014,-0.061,0.088,0.161
2,-0.0160,0.0250,0.0060,-0.43,-0.19,25.01,0.014,-0.179,0.097,0.164
2,-0.0159,0.0249,0.0062,-0.43,-0.18,24.99,0.014,-0.501,0.007,0.398
2,-0.0172,0.0278,0.0061,-0.46,-0.19,24.96,0.010,0.123,-0.295,-0.014
2,-0.0162,0.0205,0.0065,-0.40,-0.17,24.94,0.010,0.008,0.310,0.149
2,-0.0125,0.0159,-0.0018,-0.35,-0.18,24.91,0.010,0.172,0.103,-0.120
2,-0.0143,0.0201,-0.0019,-0.39,-0.18,24.89,0.010,0.122,-0.007,0.132
2,-0.0145,0.0203,-0.0017,-0.39,-0.18,24.87,0.010,-0.061,-0.302,-0.041
2,-0.0133,0.0184,-0.0016,-0.37,-0.19,24.84,0.012,-0.266,0.194,-0.119
3,-0.0118,0.0154,-0.0015,-0.34,-0.19,24.82,0.012,-0.045,0.369,0.038
3,-0.0103,0.0151,-0.0017,-0.33,-0.20,24.80,0.012,0.173,-0.060,0.078
3,-0.0136,0.0229,-0.0018,-0.40,-0.20,24.77,0.012,-0.094,-0.045,0.016
3,-0.0101,0.0183,-0.0013,-0.35,-0.21,24.75,0.012,-0.066,0.019,0.216
3,-0.0101,0.0184,-0.0012,-0.35,-0.21,24.72,0.011,0.059,-0.170,0.023
3,-0.0086,0.0130,-0.0009,-0.31,-0.20,24.70,0.011,0.013,-0.209,0.040
3,-0.0099,0.0190,-0.0034,-0.35,-0.21,24.67,0.011,-0.114,0.219,0.464
3,-0.0140,0.0148,-0.0031,-0.34,-0.17,24.65,0.011,0.136,0.042,0.124
3,-0.0042,0.0159,-0.0030,-0.31,-0.24,24.63,0.011,0.158,0.020,0.194
3,-0.0055,0.0131,-0.0030,-0.29,-0.22,24.60,0.013,-0.003,0.125,0.121
3,-0.0093,0.0106,-0.0029,-0.29,-0.18,24.58,0.013,0.082,-0.086,0.147
3,-0.0090,0.0127,0.0000,-0.30,-0.20,24.56,0.013,0.056,0.335,0.178
3,-0.0083,0.0145,0.0000,-0.31,-0.21,24.53,0.013,-0.200,-0.047,0.206
3,-0.0085,0.0123,0.0003,-0.29,-0.20,24.51,0.013,-0.144,-0.110,0.385
3,-0.0087,0.0124,0.0005,-0.29,-0.20,24.48,0.013,-0.067,0.123,0.144
3,-0.0059,0.0149,0.0007,-0.30,-0.23,24.46,0.013,-0.058,0.150,0.174
3,-0.0032,0.0093,0.0029,-0.25,-0.23,24.44,0.013,0.133,0.157,0.054
3,-0.0073,0.0131,0.0029,-0.29,-0.21,24.42,0.013,-0.213,-0.049,0.016
3,-0.0051,0.0084,0.0033,-0.25,-0.21,24.39,0.013,-0.350,0.044,0.359
3,-0.0050,0.0084,0.0035,-0.25,-0.21,24.37,0.011,-0.077,0.121,0.021
3,-0.0054,0.0090,0.0034,-0.25,-0.21,24.34,0.011,-0.004,0.010,0.045
3,-0.0060,0.0106,0.0001,-0.26,-0.21,24.32,0.011,-0.063,-0.098,-0.326
3,-0.0067,0.0096,0.0002,-0.26,-0.20,24.30,0.011,-0.181,-0.083,0.335
4,-0.0031,0.0018,0.0006,-0.19,-0.21,24.27,0.011,-0.319,-0.082,0.203
4,-0.0031,0.0016,0.0008,-0.19,-0.21,24.25,0.014,-0.131,-0.180,0.161
4,-0.0082,0.0098,0.0008,-0.27,-0.20,24.23,0.014,0.052,0.004,-0.312
4,-0.0053,0.0063,0.0051,-0.23,-0.21,24.20,0.014,-0.034,0.283,0.125
4,-0.0025,0.0057,0.0049,-0.22,-0.23,24.18,0.014,0.238,0.075,-0.197
4,-0.0045,0.0099,0.0049,-0.26,-0.23,24.15,0.014,-0.284,0.364,0.298
4,-0.0028,0.0031,0.0051,-0.20,-0.22,24.13,0.012,0.148,0.111,-0.065
4,-0.0036,0.0050,0.0051,-0.22,-0.22,24.11,0.012,0.019,0.103,-0.133
4,-0.0088,0.0075,0.0027,-0.26,-0.19,24.08,0.012,0.180,0.237,0.267
4,-0.0043,0.0011,0.0030,-0.19,-0.21,24.06,0.012,-0.003,-0.121,-0.139
4,-0.0014,-0.0018,0.0032,-0.17,-0.22,24.03,0.012,-0.159,0.028,-0.061
4,-0.0014,-0.0021,0.0031,-0.16,-0.22,24.01,0.014,0.022,0.225,0.003
4,-0.0017,0.0014,0.0034,-0.19,-0.22,23.99,0.014,-0.115,0.012,0.058
4,0.0016,0.0001,0.0063,-0.18,-0.24,23.96,0.014,-0.021,-0.035,0.066
4,0.0020,-0.0000,0.0065,-0.18,-0.24,23.94,0.014,0.065,0.036,-0.027
4,-0.0028,0.0053,0.0067,-0.23,-0.22,23.91,0.014,-0.125,-0.178,0.114
4,-0.0014,0.0019,0.0069,-0.20,-0.22,23.89,0.013,0.140,0.063,-0.003
4,-0.0004,0.0024,0.0070,-0.20,-0.23,23.87,0.013,0.017,-0.062,-0.176
4,0.0076,-0.0041,0.0056,-0.12,-0.27,23.84,0.013,0.053,0.007,-0.237
4,0.0029,-0.0023,0.0058,-0.15,-0.24,23.82,0.013,0.079,-0.051,0.127
4,-0.0020,0.0031,0.0058,-0.21,-0.22,23.80,0.013,-0.082,-0.002,-0.244
4,-0.0016,0.0019,0.0059,-0.20,-0.22,23.77,0.012,-0.098,-0.056,-0.188
4,-0.0007,0.0021,0.0059,-0.20,-0.23,23.75,0.012,-0.213,0.178,0.123
4,-0.0017,0.0016,0.0018,-0.20,-0.22,23.72,0.012,0.289,0.156,-0.267
4,-0.0016,0.0016,0.0018,-0.20,-0.22,23.70,0.012,0.099,0.064,0.047
4,-0.0048,0.0000,0.0018,-0.20,-0.19,23.68,0.012,0.025,-0.170,0.307
4,-0.0048,-0.0001,0.0020,-0.20,-0.19,23.65,0.013,-0.041,-0.168,-0.048
4,-0.0037,0.0040,0.0022,-0.23,-0.21,23.63,0.013,0.032,-0.183,0.395
4,0.0013,0.0019,0.0021,-0.20,-0.24,23.61,0.013,0.091,0.394,0.128
4,0.0001,0.0013,0.0020,-0.20,-0.23,23.58,0.013,0.070,-0.135,-0.261
4,-0.0036,0.0037,0.0019,-0.22,-0.21,23.56,0.013,-0.004,0.030,-0.010
4,-0.0036,0.0038,0.0020,-0.22,-0.21,23.54,0.011,0.243,-0.141,-0.102
4,-0.0011,0.0018,0.0020,-0.20,-0.22,23.52,0.011,0.217,0.029,-0.086
4,0.0022,0.0069,-0.0029,-0.23,-0.26,23.49,0.011,-0.273,-0.083,-0.260
5,0.0017,-0.0045,-0.0027,-0.14,-0.22,23.47,0.011,-0.137,0.111,-0.087
5,-0.0018,0.0009,-0.0026,-0.20,-0.21,23.45,0.011,0.176,0.119,-0.327
5,0.0019,-0.0042,-0.0026,-0.15,-0.22,23.42,0.012,-0.104,0.061,0.184
5,-0.0003,0.0003,-0.0025,-0.19,-0.22,23.40,0.012,0.024,0.155,0.100
5,-0.0004,0.0004,-0.0029,-0.19,-0.22,23.37,0.012,-0.064,-0.025,0.033
5,-0.0017,0.0037,-0.0030,-0.22,-0.22,23.35,0.012,0.015,-0.158,-0.259
5,0.0019,-0.0047,-0.0030,-0.14,-0.22,23.33,0.012,-0.071,0.041,-0.274
5,0.0004,-0.0013,-0.0030,-0.18,-0.22,23.30,0.013,0.183,-0.011,-0.153
5,-0.0032,0.0037,-0.0030,-0.23,-0.21,23.28,0.013,-0.153,-0.272,0.268
5,-0.0004,-0.0088,-0.0003,-0.13,-0.19,23.26,0.013,0.240,-0.020,-0.184
5,-0.0005,-0.0021,-0.0002,-0.18,-0.21,23.23,0.013,0.179,0.121,0.020
5,-0.0003,-0.0023,-0.0002,-0.18,-0.21,23.21,0.013,-0.202,-0.291,-0.108
5,0.0012,-0.0058,0.0000,-0.15,-0.21,23.19,0.009,0.019,0.117,-0.165
5,0.0036,-0.0045,0.0004,-0.15,-0.23,23.16,0.009,-0.131,0.202,0.269
5,0.0070,-0.0029,-0.0065,-0.16,-0.26,23.14,0.009,-0.176,-0.247,0.255
5,0.0072,-0.0031,-0.0065,-0.16,-0.26,23.12,0.009,-0.256,0.199,0.083
5,0.0029,-0.0004,-0.0065,-0.19,-0.23,23.10,0.009,-0.344,0.023,0.181
5,0.0032,-0.0005,-0.0065,-0.19,-0.23,23.07,0.007,0.063,0.124,0.092
5,0.0009,0.0013,-0.0064,-0.21,-0.22,23.05,0.007,-0.106,0.127,-0.302
5,0.0008,0.0013,-0.0149,-0.21,-0.22,23.03,0.007,-0.071,-0.139,-0.061
5,-0.0004,-0.0024,-0.0145,-0.19,-0.20,23.01,0.007,-0.087,-0.132,0.303
5,-0.0004,-0.0024,-0.0145,-0.19,-0.20,22.98,0.007,0.081,0.264,0.082
5,-0.0037,-0.0038,-0.0145,-0.19,-0.17,22.96,0.013,-0.013,0.235,0.022
5,-0.0039,-0.0039,-0.0145,-0.19,-0.17,22.94,0.013,-0.098,0.039,0.342
5,-0.0059,0.0047,-0.0045,-0.26,-0.18,22.92,0.013,0.042,0.218,0.088
5,-0.0059,0.0047,-0.0044,-0.26,-0.18,22.90,0.013,0.077,0.014,0.117
5,-0.0021,0.0029,-0.0042,-0.23,-0.21,22.87,0.013,-0.176,0.248,0.037
5,-0.0020,0.0030,-0.0042,-0.23,-0.21,22.85,0.013,-0.143,0.262,0.089
5,0.0093,-0.0045,-0.0041,-0.14,-0.27,22.83,0.013,-0.032,0.049,0.289
5,0.0032,-0.0067,0.0027,-0.15,-0.22,22.81,0.013,0.009,-0.030,0.183
5,-0.0023,0.0032,0.0029,-0.24,-0.21,22.79,0.013,0.113,0.135,-0.093
5,0.0002,-0.0024,0.0030,-0.19,-0.21,22.77,0.013,0.091,-0.246,-0.067
5,0.0008,-0.0006,0.0031,-0.20,-0.22,22.75,0.013,-0.018,0.006,0.194
6,0.0027,-0.0048,0.0032,-0.16,-0.22,22.72,0.013,0.002,-0.180,0.084
6,-0.0021,0.0010,0.0065,-0.22,-0.20,22.70,0.013,0.110,-0.012,-0.061
6,-0.0022,-0.0017,0.0067,-0.20,-0.19,22.68,0.013,0.056,0.034,0.035
6,0.0018,-0.0050,0.0067,-0.16,-0.21,22.65,0.013,-0.403,0.020,0.131
6,-0.0003,0.0032,0.0066,-0.23,-0.21,22.63,0.011,0.003,-0.168,-0.091
6,0.0064,0.0020,0.0067,-0.20,-0.26,22.61,0.011,0.120,0.170,0.088
6,0.0008,-0.0068,0.0032,-0.15,-0.19,22.59,0.011,0.267,-0.110,0.061
6,-0.0031,0.0030,0.0033,-0.24,-0.19,22.56,0.011,-0.041,-0.032,-0.036
6,-0.0031,0.0002,0.0034,-0.22,-0.19,22.54,0.011,0.025,-0.105,0.052
6,0.0016,-0.0020,0.0033,-0.19,-0.21,22.52,0.010,-0.195,-0.074,-0.031
6,0.0017,-0.0021,0.0032,-0.19,-0.21,22.50,0.010,-0.008,0.316,0.061
6,0.0019,-0.0057,-0.0011,-0.16,-0.20,22.48,0.010,-0.096,0.207,-0.102
6,0.0013,-0.0043,-0.0011,-0.17,-0.20,22.45,0.010,0.246,0.080,0.003
6,0.0059,0.0029,-0.0008,-0.21,-0.26,22.43,0.010,-0.219,0.161,0.062
6,0.0038,-0.0046,-0.0005,-0.17,-0.22,22.41,0.011,0.478,-0.257,-0.212
6,0.0003,0.0005,-0.0004,-0.22,-0.21,22.39,0.011,-0.234,-0.255,0.266
6,0.0196,-0.0190,-0.0009,-0.01,-0.30,22.36,0.011,-0.037,0.024,-0.112
6,0.0041,-0.0281,-0.0006,0.01,-0.15,22.34,0.011,0.011,-0.115,-0.092
6,0.0122,-0.0322,-0.0007,0.06,-0.20,22.32,0.011,-0.073,-0.006,0.034
6,0.0178,-0.0184,0.0002,-0.03,-0.28,22.29,0.010,-0.068,-0.134,-0.264
6,0.0252,-0.0132,0.0003,-0.05,-0.35,22.27,0.010,0.189,-0.167,-0.213
6,0.0300,-0.0153,-0.0024,-0.02,-0.38,22.24,0.010,-0.148,-0.170,0.166
6,0.0278,-0.0127,-0.0020,-0.05,-0.36,22.22,0.010,0.054,0.140,-0.114
6,0.0276,-0.0143,-0.0020,-0.04,-0.35,22.20,0.010,0.082,-0.034,0.045
6,0.0255,-0.0116,-0.0017,-0.07,-0.34,22.18,0.011,-0.261,-0.069,-0.317
6,0.0173,-0.0065,-0.0010,-0.14,-0.30,22.16,0.011,0.106,0.219,-0.142
6,0.0200,-0.0036,-0.0006,-0.15,-0.33,22.13,0.011,-0.056,-0.120,-0.085
6,0.0212,-0.0088,-0.0005,-0.11,-0.32,22.11,0.011,-0.333,0.219,0.160
6,0.0216,-0.0091,-0.0006,-0.11,-0.32,22.09,0.011,0.129,-0.019,-0.271
6,0.0195,-0.0089,-0.0004,-0.12,-0.30,22.07,0.011,0.114,-0.117,0.103
6,0.0145,-0.0047,0.0000,-0.17,-0.28,22.04,0.011,0.052,0.181,0.003
6,0.0146,-0.0047,0.0004,-0.17,-0.28,22.02,0.011,-0.213,-0.283,0.070
6,0.0212,-0.0055,0.0004,-0.14,-0.32,22.00,0.011,0.085,0.125,-0.280
6,0.0197,-0.0080,0.0004,-0.13,-0.30,21.98,0.011,-0.197,-0.020,-0.352
6,0.0207,-0.0126,0.0004,-0.10,-0.30,21.96,0.012,0.043,0.029,0.035
7,0.0107,-0.0062,0.0009,-0.17,-0.24,21.94,0.012,0.105,-0.167,-0.151
7,0.0149,-0.0016,0.0033,-0.19,-0.28,21.91,0.012,-0.009,0.054,-0.064
7,0.0155,-0.0049,0.0034,-0.17,-0.28,21.89,0.012,0.021,0.073,0.047
7,0.0158,-0.0050,0.0036,-0.17,-0.28,21.87,0.012,-0.453,0.124,0.156
7,0.0160,-0.0070,0.0039,-0.15,-0.27,21.85,0.012,0.029,-0.133,-0.039
7,0.0125,-0.0064,0.0042,-0.17,-0.25,21.82,0.012,-0.079,-0.015,0.002
7,0.0121,-0.0071,0.0053,-0.17,-0.25,21.80,0.012,-0.044,-0.109,-0.284
7,0.0097,-0.0041,0.0054,-0.20,-0.24,21.78,0.012,-0.130,0.160,-0.020
7,0.0097,-0.0043,0.0055,-0.20,-0.24,21.76,0.012,0.170,0.146,-0.227
7,0.0104,-0.0036,0.0056,-0.21,-0.24,21.74,0.010,-0.023,-0.167,-0.096
7,0.0042,-0.0017,0.0059,-0.24,-0.20,21.72,0.010,-0.285,0.054,0.231
7,0.0194,-0.0145,0.0008,-0.10,-0.28,21.69,0.010,0.037,-0.120,-0.275
7,0.0110,-0.0038,0.0013,-0.20,-0.24,21.67,0.010,-0.005,-0.080,0.510
7,0.0134,-0.0076,0.0012,-0.17,-0.24,21.65,0.010,-0.228,-0.097,0.135
7,0.0109,-0.0026,0.0014,-0.22,-0.24,21.63,0.011,-0.358,0.019,0.131
7,0.0087,-0.0015,0.0015,-0.23,-0.22,21.61,0.011,0.010,-0.153,-0.080
7,0.0031,-0.0072,0.0008,-0.20,-0.16,21.59,0.011,0.004,0.019,-0.023
7,0.0056,-0.0047,0.0011,-0.22,-0.19,21.57,0.011,-0.037,0.044,-0.000
7,0.0066,-0.0015,0.0012,-0.24,-0.21,21.55,0.011,-0.092,0.056,0.043
7,0.0065,-0.0024,0.0013,-0.23,-0.20,21.52,0.016,-0.049,-0.067,0.267
7,0.0042,0.0019,0.0014,-0.27,-0.20,21.50,0.016,0.060,0.222,-0.211
7,-0.0006,-0.0023,0.0123,-0.25,-0.15,21.48,0.016,0.264,0.203,-0.091
7,0.0039,0.0020,0.0125,-0.27,-0.20,21.46,0.016,0.049,0.204,0.049
7,0.0051,-0.0013,0.0125,-0.24,-0.20,21.44,0.016,0.018,0.027,-0.121
7,0.0077,-0.0050,0.0124,-0.21,-0.21,21.42,0.012,-0.057,-0.188,-0.163
7,0.0044,-0.0036,0.0126,-0.23,-0.19,21.40,0.012,-0.078,0.112,0.461
7,0.0064,-0.0062,0.0090,-0.20,-0.19,21.37,0.012,0.109,0.220,0.276
7,0.0047,-0.0029,0.0091,-0.23,-0.19,21.35,0.012,-0.319,0.117,-0.062
7,0.0065,-0.0019,0.0090,-0.24,-0.21,21.33,0.012,-0.210,0.259,-0.087
7,0.0040,-0.0026,0.0090,-0.24,-0.19,21.31,0.014,0.146,0.058,-0.401
7,0.0019,-0.0069,0.0090,-0.21,-0.16,21.29,0.014,0.166,0.046,0.020
7,0.0026,-0.0062,0.0098,-0.22,-0.17,21.27,0.014,0.079,0.075,0.135
7,0.0065,-0.0043,0.0100,-0.22,-0.21,21.24,0.014,-0.335,0.306,0.076
7,0.0028,-0.0019,0.0102,-0.25,-0.19,21.22,0.014,0.040,0.058,-0.044
7,0.0045,-0.0034,0.0101,-0.23,-0.20,21.20,0.014,0.022,0.085,0.116
8,0.0026,0.0010,0.0101,-0.27,-0.20,21.18,0.014,-0.237,0.136,0.178
8,-0.0032,-0.0001,0.0096,-0.28,-0.15,21.16,0.014,0.009,-0.118,0.056
8,0.0017,-0.0005,0.0095,-0.26,-0.19,21.14,0.014,-0.145,0.033,0.062
8,0.0009,0.0006,0.0096,-0.27,-0.19,21.12,0.014,0.074,-0.216,-0.062
8,0.0001,-0.0009,0.0098,-0.26,-0.18,21.10,0.011,-0.011,-0.006,0.227
8,-0.0026,0.0005,0.0097,-0.28,-0.16,21.08,0.011,0.064,0.154,0.122
8,-0.0069,0.0087,0.0011,-0.35,-0.15,21.06,0.011,0.094,0.130,-0.294
8,0.0055,-0.0033,0.0013,-0.23,-0.21,21.03,0.011,0.069,0.113,-0.005
8,0.0032,-0.0014,0.0013,-0.25,-0.20,21.01,0.011,0.016,-0.285,0.148
8,0.0036,-0.0034,0.0014,-0.23,-0.20,20.99,0.014,0.155,-0.115,-0.148
8,0.0026,-0.0009,0.0015,-0.25,-0.20,20.97,0.014,0.011,-0.069,-0.072
8,0.0036,-0.0003,0.0031,-0.26,-0.20,20.95,0.014,0.137,-0.164,-0.074
8,0.0035,-0.0005,0.0030,-0.26,-0.20,20.93,0.014,-0.137,0.216,0.326
8,0.0013,0.0012,0.0030,-0.28,-0.19,20.91,0.014,-0.030,0.098,0.172
8,-0.0011,0.0005,0.0031,-0.27,-0.17,20.89,0.010,0.093,-0.069,0.197
8,-0.0002,0.0008,0.0033,-0.27,-0.18,20.87,0.010,0.071,-0.165,-0.060
8,-0.0013,-0.0059,-0.0051,-0.23,-0.15,20.85,0.010,0.068,0.014,0.046
8,0.0049,0.0003,-0.0050,-0.26,-0.21,20.83,0.010,0.099,-0.317,-0.163
8,0.0018,0.0006,-0.0050,-0.27,-0.19,20.81,0.010,-0.060,-0.110,0.112
9,0.0005,0.0001,-0.0049,-0.27,-0.18,20.79,0.012,-0.131,0.015,-0.091
9,-0.0018,-0.0004,-0.0047,-0.27,-0.16,20.77,0.012,0.093,-0.013,-0.240
9,-0.0035,-0.0082,-0.0043,-0.21,-0.12,20.75,0.012,-0.224,-0.115,-0.150
9,-0.0020,0.0045,-0.0040,-0.31,-0.17,20.73,0.012,0.231,0.205,-0.188
9,-0.0000,-0.0008,-0.0040,-0.26,-0.17,20.70,0.012,-0.138,-0.110,-0.080
9,-0.0010,0.0014,-0.0041,-0.28,-0.17,20.68,0.012,-0.065,-0.067,0.080
9,0.0007,-0.0038,-0.0040,-0.23,-0.17,20.66,0.012,0.077,-0.176,-0.163
9,-0.0014,0.0015,-0.0033,-0.28,-0.17,20.64,0.012,-0.187,0.080,0.181
10,0.0026,0.0027,-0.0033,-0.28,-0.21,20.62,0.012,0.036,0.035,0.068
10,-0.0023,-0.0003,-0.0030,-0.27,-0.16,20.60,0.012,0.001,-0.145,0.166
10,-0.0016,0.0012,-0.0027,-0.28,-0.17,20.58,0.014,-0.069,0.075,-0.039
10,0.0027,0.0026,-0.0025,-0.28,-0.21,20.56,0.014,-0.075,-0.161,0.181
10,-0.0017,-0.0050,0.0024,-0.23,-0.15,20.54,0.014,-0.244,0.158,0.045
10,-0.0032,-0.0006,0.0026,-0.27,-0.16,20.52,0.014,0.068,-0.262,-0.012
10,-0.0017,0.0011,0.0030,-0.28,-0.17,20.50,0.014,-0.113,0.005,-0.375
10,-0.0036,-0.0007,0.0032,-0.27,-0.16,20.48,0.010,0.275,-0.007,-0.472
10,-0.0065,0.0043,0.0032,-0.32,-0.15,20.46,0.010,-0.066,0.028,0.131
10,-0.0078,0.0024,-0.0032,-0.31,-0.13,20.44,0.010,-0.081,-0.203,-0.079
10,0.0014,-0.0026,-0.0027,-0.24,-0.19,20.42,0.010,-0.147,-0.274,0.077
10,0.0014,-0.0001,-0.0024,-0.26,-0.20,20.40,0.010,0.178,0.002,0.039
10,0.0026,0.0029,-0.0023,-0.28,-0.21,20.38,0.013,0.213,0.168,-0.109
10,0.0007,0.0009,-0.0021,-0.27,-0.19,20.36,0.013,0.088,-0.196,-0.033
10,0.0035,-0.0007,0.0009,-0.25,-0.21,20.34,0.013,-0.028,0.049,-0.030
11,-0.0000,0.0017,0.0011,-0.28,-0.19,20.32,0.013,-0.050,0.179,0.237
11,-0.0000,0.0017,0.0012,-0.28,-0.19,20.30,0.013,0.178,0.457,-0.218
11,-0.0025,0.0008,0.0012,-0.28,-0.17,20.27,0.010,-0.023,0.108,0.198
11,0.0019,0.0027,0.0013,-0.28,-0.21,20.26,0.010,-0.286,-0.079,0.002
11,-0.0056,-0.0012,-0.0038,-0.27,-0.14,20.24,0.010,-0.079,0.262,-0.057
11,-0.0033,-0.0003,-0.0037,-0.26,-0.17,20.22,0.010,0.043,-0.058,0.125
11,-0.0021,0.0000,-0.0038,-0.26,-0.18,20.20,0.010,0.027,-0.098,0.167
11,-0.0034,0.0007,-0.0039,-0.27,-0.17,20.18,0.013,-0.042,0.113,0.108
11,-0.0016,-0.0013,-0.0039,-0.25,-0.18,20.16,0.013,-0.102,-0.201,-0.043
11,-0.0040,0.0052,0.0002,-0.31,-0.18,20.14,0.013,-0.154,0.159,0.275
11,-0.0037,0.0011,0.0004,-0.28,-0.17,20.12,0.013,0.001,-0.059,-0.149
11,-0.0011,0.0047,0.0008,-0.30,-0.20,20.10,0.013,0.034,-0.079,-0.048
11,0.0000,0.0013,0.0011,-0.27,-0.20,20.08,0.010,0.127,0.080,-0.020
11,0.0003,0.0064,0.0013,-0.30,-0.22,20.06,0.010,-0.112,-0.142,-0.210
12,0.0027,0.0022,-0.0032,-0.26,-0.22,20.04,0.010,-0.196,-0.231,-0.065
12,-0.0002,-0.0038,-0.0032,-0.22,-0.19,20.01,0.010,0.023,0.079,-0.000
12,-0.0014,-0.0005,-0.0030,-0.25,-0.19,19.99,0.010,-0.114,0.237,-0.143
12,-0.0017,-0.0006,-0.0030,-0.26,-0.19,19.98,0.011,0.041,0.075,-0.023
12,-0.0039,-0.0012,-0.0030,-0.25,-0.17,19.96,0.011,0.051,0.123,0.015
12,-0.0038,-0.0011,-0.0031,-0.26,-0.17,19.94,0.011,0.097,-0.233,0.033
12,-0.0055,0.0050,-0.0032,-0.30,-0.19,19.92,0.011,-0.046,-0.040,0.098
12,-0.0030,0.0050,-0.0032,-0.30,-0.19,19.90,0.011,-0.183,0.038,-0.055
12,-0.0020,-0.0011,-0.0031,-0.25,-0.18,19.88,0.011,0.005,0.071,0.187
12,-0.0036,0.0034,-0.0029,-0.29,-0.18,19.86,0.011,-0.161,-0.133,-0.307
12,-0.0093,0.0025,-0.0024,-0.29,-0.14,19.84,0.011,-0.163,-0.016,0.387
12,-0.0004,-0.0007,-0.0022,-0.25,-0.20,19.82,0.011,-0.112,0.050,-0.084
12,0.0006,-0.0040,-0.0023,-0.22,-0.20,19.80,0.011,-0.342,-0.122,0.326
12,-0.0031,0.0034,-0.0022,-0.29,-0.19,19.78,0.011,0.152,0.284,0.109
12,-0.0040,0.0030,-0.0021,-0.28,-0.18,19.76,0.011,-0.184,-0.152,0.284
12,-0.0037,0.0055,-0.0016,-0.30,-0.19,19.74,0.011,0.127,-0.116,0.134
12,-0.0007,0.0003,-0.0013,-0.25,-0.20,19.72,0.011,-0.108,0.177,0.275
12,-0.0044,0.0038,-0.0012,-0.29,-0.18,19.71,0.011,-0.067,-0.291,-0.185
12,-0.0032,0.0007,-0.0010,-0.26,-0.18,19.69,0.012,0.080,0.029,0.147
12,-0.0075,0.0029,-0.0008,-0.28,-0.16,19.67,0.012,-0.438,-0.214,0.138
12,-0.0026,-0.0062,0.0019,-0.20,-0.17,19.65,0.012,-0.041,-0.110,0.415
12,-0.0009,-0.0006,0.0020,-0.24,-0.19,19.63,0.012,0.218,0.046,0.084
12,0.0003,-0.0040,0.0021,-0.21,-0.19,19.61,0.012,-0.037,-0.089,-0.150
13,-0.0033,0.0032,0.0023,-0.28,-0.19,19.59,0.015,-0.272,0.112,0.272
13,-0.0011,0.0006,0.0023,-0.25,-0.20,19.58,0.015,-0.163,-0.022,-0.205
13,0.0010,-0.0021,0.0096,-0.22,-0.20,19.55,0.015,-0.138,-0.095,0.468
13,-0.0016,-0.0017,0.0096,-0.23,-0.19,19.54,0.015,0.099,0.046,0.144
13,-0.0014,0.0009,0.0096,-0.25,-0.20,19.52,0.015,-0.159,-0.059,0.023
13,-0.0011,-0.0002,0.0096,-0.24,-0.20,19.50,0.011,-0.031,-0.165,-0.035
13,-0.0052,-0.0016,0.0096,-0.24,-0.16,19.48,0.011,-0.161,-0.057,0.156
13,-0.0015,-0.0050,0.0041,-0.21,-0.18,19.46,0.011,-0.102,0.026,0.039
13,0.0035,0.0005,0.0042,-0.24,-0.23,19.44,0.011,-0.042,-0.097,-0.235
13,0.0004,0.0018,0.0043,-0.26,-0.21,19.42,0.011,-0.209,-0.005,0.085
13,-0.0040,0.0036,0.0044,-0.28,-0.19,19.40,0.011,-0.125,-0.145,0.280
13,-0.0024,-0.0005,0.0045,-0.25,-0.19,19.38,0.011,-0.141,0.115,0.075
13,0.0001,-0.0043,0.0013,-0.21,-0.20,19.37,0.011,0.208,0.020,-0.110
13,-0.0030,0.0043,0.0017,-0.29,-0.20,19.35,0.011,-0.142,-0.339,0.022
13,-0.0019,0.0009,0.0019,-0.26,-0.20,19.33,0.011,-0.245,0.388,0.625
13,-0.0019,0.0009,0.0019,-0.26,-0.20,19.31,0.013,-0.092,-0.159,0.130
13,-0.0028,0.0004,0.0020,-0.26,-0.19,19.29,0.013,-0.239,-0.024,0.098
13,-0.0045,-0.0090,0.0040,-0.19,-0.15,19.27,0.013,-0.020,-0.060,0.029
13,-0.0042,0.0052,0.0041,-0.30,-0.19,19.26,0.013,0.075,-0.040,-0.006
13,0.0011,-0.0057,0.0000,0.00,0.00,0.00,0.013,-0.118,-0.233,-0.149
13,0.0005,-0.0073,0.0001,0.00,0.00,0.00,0.011,0.003,-0.172,0.091
13,0.0002,-0.0073,0.0001,-0.01,-0.00,-0.00,0.011,0.250,-0.130,0.084
13,0.0024,-0.0128,0.0000,0.05,-0.04,-0.00,0.011,0.093,-0.088,-0.539
13,-0.0003,-0.0078,0.0002,-0.05,0.02,-0.00,0.011,0.218,0.250,0.115
13,-0.0006,-0.0080,0.0004,-0.05,0.02,-0.00,0.011,-0.301,-0.269,0.055
13,0.0006,-0.0080,0.0005,-0.07,-0.02,-0.00,0.009,-0.293,0.061,0.230
13,0.0044,-0.0007,0.0004,-0.27,-0.14,-0.00,0.009,-0.041,-0.023,0.181
14,0.0042,-0.0005,-0.0009,-0.27,-0.13,-0.00,0.009,0.258,0.298,-0.064
14,0.0039,-0.0003,-0.0009,-0.28,-0.13,0.00,0.009,0.259,-0.117,0.142
14,-0.0017,-0.0158,-0.0010,0.15,0.02,0.00,0.009,-0.135,-0.207,-0.065
14,-0.0021,-0.0164,-0.0009,0.15,0.02,0.00,0.015,0.067,0.045,0.074
14,-0.0004,-0.0155,-0.0007,0.11,-0.04,0.00,0.015,0.099,-0.021,0.003
14,-0.0025,0.0042,0.0066,-0.47,0.01,0.00,0.015,0.104,-0.056,0.133
14,-0.0030,0.0048,0.0068,-0.47,0.01,0.00,0.015,0.143,0.302,0.233
14,-0.0029,-0.0061,0.0070,-0.15,-0.01,0.00,0.015,0.152,0.145,0.103
14,-0.0033,-0.0060,0.0069,-0.15,-0.01,0.00,0.011,0.148,-0.185,-0.200
14,0.0038,-0.0055,0.0070,-0.17,-0.20,0.00,0.011,0.062,-0.093,-0.043
14,-0.0154,0.0065,0.0044,-0.48,0.28,0.00,0.011,-0.016,-0.010,0.279
14,-0.0077,-0.0052,0.0049,-0.17,0.07,0.00,0.011,-0.035,-0.037,0.064
14,0.0036,-0.0046,0.0051,-0.19,-0.22,0.00,0.011,-0.177,0.033,0.168
14,0.0007,-0.0040,0.0051,-0.20,-0.16,0.00,0.009,-0.301,-0.346,-0.040
14,-0.0039,-0.0036,0.0052,-0.21,-0.06,0.00,0.009,0.065,-0.283,0.181
14,-0.0018,-0.0053,-0.0021,-0.17,-0.12,0.00,0.009,-0.063,0.066,-0.126
14,-0.0039,-0.0006,-0.0020,-0.27,-0.07,0.00,0.009,-0.064,0.115,0.148
14,-0.0056,-0.0025,-0.0018,-0.23,-0.04,0.00,0.009,-0.049,-0.220,-0.070
14,-0.0053,-0.0002,-0.0017,-0.28,-0.05,0.00,0.009,0.066,0.241,-0.070
14,-0.0072,0.0039,-0.0016,-0.36,-0.02,0.00,0.009,0.118,-0.279,0.100
14,-0.0109,-0.0100,-0.0059,-0.07,0.04,0.00,0.009,0.013,-0.122,-0.295
14,-0.0046,-0.0016,-0.0057,-0.25,-0.10,0.00,0.009,0.020,-0.218,-0.395
14,-0.0046,-0.0016,-0.0057,-0.25,-0.10,0.00,0.009,-0.058,0.013,0.339
14,-0.0002,-0.0097,-0.0059,-0.09,-0.18,-0.00,0.011,-0.181,0.060,0.162
14,-0.0063,-0.0011,-0.0058,-0.26,-0.07,-0.00,0.011,-0.085,-0.104,-0.028
14,0.0000,0.0009,-0.0026,-0.30,-0.18,-0.00,0.011,0.025,0.212,0.016
14,-0.0037,0.0011,-0.0022,-0.30,-0.11,0.00,0.011,-0.149,-0.302,-0.075
14,-0.0033,-0.0063,-0.0021,-0.16,-0.12,0.00,0.011,-0.234,-0.150,-0.044
14,-0.0050,-0.0020,-0.0022,-0.24,-0.09,0.00,0.009,0.057,-0.104,-0.302
14,-0.0050,0.0056,-0.0021,-0.36,-0.10,0.00,0.009,-0.263,0.046,0.219
14,-0.0084,0.0054,-0.0048,-0.36,-0.05,0.00,0.009,0.038,0.153,-0.135
14,-0.0062,0.0071,-0.0047,-0.38,-0.09,-0.00,0.009,-0.263,-0.013,0.459
14,-0.0008,-0.0052,-0.0045,-0.18,-0.18,0.00,0.009,0.061,-0.088,0.155
15,-0.0008,0.0003,-0.0045,-0.26,-0.18,0.00,0.015,-0.128,0.051,-0.062
15,-0.0007,0.0004,-0.0046,-0.26,-0.18,0.00,0.015,0.016,-0.194,0.078
15,-0.0080,0.0006,0.0079,-0.26,-0.07,0.00,0.015,-0.051,0.046,-0.031
15,-0.0023,0.0024,0.0080,-0.29,-0.16,0.00,0.015,0.179,0.166,0.120
15,-0.0023,0.0004,0.0081,-0.26,-0.16,0.00,0.015,-0.044,-0.056,0.013
15,-0.0026,0.0003,0.0083,-0.26,-0.16,0.00,0.011,0.032,0.178,0.016
15,0.0029,-0.0017,0.0083,-0.24,-0.24,0.00,0.011,-0.246,-0.177,0.357
15,0.0044,-0.0071,0.0053,-0.17,-0.26,0.00,0.011,0.101,0.249,-0.162
15,0.0039,-0.0031,0.0053,-0.22,-0.26,0.00,0.011,0.024,0.170,0.054
15,-0.0014,-0.0012,0.0054,-0.25,-0.19,0.00,0.011,-0.207,0.155,0.198
21,-0.0013,-0.0063,0.0056,-0.19,-0.19,0.01,0.013,-0.107,0.050,0.189
31,-0.0095,0.0008,0.0059,-0.28,-0.09,0.01,0.013,0.233,-0.011,0.035
41,-0.0097,0.0008,0.0083,-0.28,-0.09,0.01,0.013,-0.136,0.312,0.137
51,-0.0005,0.0008,0.0086,-0.28,-0.20,0.01,0.013,0.061,-0.089,-0.078
61,-0.0005,0.0008,0.0086,-0.28,-0.20,0.01,0.013,0.097,-0.022,-0.189
71,-0.0004,-0.0043,0.0086,-0.21,-0.20,0.01,0.014,0.049,-0.106,-0.062
81,-0.0036,0.0025,0.0085,-0.30,-0.16,0.01,0.014,0.058,-0.099,-0.091
91,-0.0065,0.0089,0.0110,-0.37,-0.13,0.01,0.014,0.056,-0.290,0.019
101,-0.0092,0.0084,0.0110,-0.36,-0.10,0.01,0.014,0.170,-0.059,0.039
110,0.0006,0.0080,0.0113,-0.35,-0.21,0.01,0.014,-0.120,-0.213,-0.019
121,0.0005,-0.0001,0.0118,-0.26,-0.21,0.01,0.010,-0.161,-0.207,0.067
131,-0.0029,-0.0000,0.0118,-0.26,-0.17,0.01,0.010,-0.244,0.269,0.218
140,0.0017,-0.0063,0.0027,-0.19,-0.22,0.01,0.010,0.013,0.094,-0.148
151,0.0000,-0.0015,0.0029,-0.24,-0.21,0.01,0.010,-0.329,-0.106,-0.013
161,0.0000,-0.0015,0.0029,-0.24,-0.21,0.01,0.010,-0.190,-0.018,0.311
171,-0.0014,0.0019,0.0030,-0.28,-0.19,0.00,0.013,0.069,0.168,-0.100
180,-0.0014,0.0077,0.0029,-0.34,-0.19,0.00,0.013,0.182,0.162,0.042
191,-0.0071,0.0003,0.0042,-0.26,-0.13,0.01,0.013,-0.110,0.149,-0.168
200,0.0002,-0.0040,0.0043,-0.21,-0.21,0.01,0.013,-0.158,-0.206,-0.050
211,0.0002,-0.0041,0.0044,-0.21,-0.21,0.01,0.013,-0.176,-0.341,0.097
220,0.0002,0.0022,0.0044,-0.28,-0.21,0.01,0.012,0.349,0.248,-0.145
231,0.0002,0.0024,0.0043,-0.28,-0.21,0.01,0.012,-0.243,0.079,0.261
241,-0.0014,0.0007,0.0023,-0.26,-0.19,0.01,0.012,0.070,0.304,0.081
251,-0.0014,0.0020,0.0023,-0.28,-0.20,0.01,0.012,-0.065,-0.029,-0.056
261,0.0001,0.0019,0.0023,-0.28,-0.21,0.01,0.012,0.272,0.007,-0.319
271,0.0001,0.0019,0.0023,-0.28,-0.21,0.01,0.014,-0.160,-0.115,-0.002
281,0.0003,-0.0050,0.0024,-0.20,-0.22,0.01,0.014,-0.235,0.081,0.156
291,-0.0067,0.0078,0.0056,-0.33,-0.14,0.01,0.014,0.115,0.145,0.148
300,0.0005,0.0033,0.0059,-0.29,-0.21,0.01,0.014,-0.046,-0.218,0.005
310,0.0003,-0.0038,0.0061,-0.22,-0.21,0.01,0.014,0.178,0.356,0.097
320,0.0003,-0.0049,0.0061,-0.21,-0.21,0.01,0.011,-0.023,-0.057,-0.130
331,-0.0009,0.0021,0.0063,-0.28,-0.20,0.01,0.011,-0.055,-0.077,0.265
340,-0.0049,0.0075,0.0006,-0.32,-0.16,0.01,0.011,0.020,-0.162,-0.038
351,0.0005,0.0071,0.0007,-0.32,-0.21,0.01,0.011,-0.166,-0.136,-0.139
361,-0.0009,0.0030,0.0009,-0.28,-0.20,0.02,0.011,-0.078,-0.011,0.002
371,-0.0009,0.0030,0.0009,-0.28,-0.20,0.02,0.012,0.090,-0.042,0.270
381,0.0041,0.0015,0.0013,-0.27,-0.25,0.02,0.012,-0.234,0.033,-0.240
391,-0.0052,0.0013,0.0003,-0.26,-0.16,0.02,0.012,-0.199,-0.189,0.304
401,-0.0026,0.0015,0.0003,-0.26,-0.19,0.02,0.012,-0.035,0.096,-0.018
411,-0.0024,0.0003,0.0004,-0.25,-0.19,0.02,0.012,0.021,-0.076,-0.034
421,0.0002,0.0003,0.0007,-0.25,-0.21,0.02,0.013,0.060,-0.316,0.061
431,0.0001,-0.0035,0.0010,-0.22,-0.21,0.02,0.013,-0.196,-0.179,-0.008
441,-0.0001,0.0017,0.0027,-0.27,-0.21,0.02,0.013,0.101,0.115,-0.025
451,-0.0014,0.0005,0.0028,-0.25,-0.20,0.02,0.013,-0.100,-0.138,-0.286
461,-0.0000,-0.0032,0.0029,-0.22,-0.21,0.02,0.013,0.189,-0.151,-0.029
471,-0.0014,0.0021,0.0029,-0.26,-0.20,0.02,0.013,0.161,0.058,0.210
481,-0.0016,0.0007,0.0030,-0.25,-0.20,0.02,0.013,-0.215,0.084,0.240
490,-0.0065,0.0045,0.0035,-0.28,-0.16,0.02,0.013,-0.062,0.089,0.170
500,0.0000,-0.0027,0.0037,-0.22,-0.21,0.02,0.013,-0.016,-0.080,0.202
510,0.0003,0.0011,0.0037,-0.25,-0.21,0.02,0.013,0.060,-0.075,-0.355
520,0.0003,0.0013,0.0037,-0.25,-0.21,0.02,0.014,-0.352,0.074,0.344
530,-0.0009,0.0012,0.0037,-0.25,-0.20,0.02,0.014,-0.083,-0.052,0.057
540,-0.0009,0.0027,0.0057,-0.26,-0.20,0.02,0.014,0.014,-0.266,-0.470
550,0.0015,0.0025,0.0056,-0.26,-0.22,0.02,0.014,-0.340,0.151,0.098
560,0.0002,0.0024,0.0056,-0.26,-0.21,0.02,0.014,-0.077,-0.461,-0.158
570,-0.0010,0.0011,0.0056,-0.25,-0.20,0.02,0.015,-0.198,0.189,0.523
580,0.0049,0.0072,0.0057,-0.30,-0.25,0.02,0.015,-0.059,-0.171,-0.044
590,-0.0024,-0.0036,0.0088,-0.20,-0.19,0.02,0.015,-0.162,0.131,0.109
600,-0.0012,0.0014,0.0091,-0.25,-0.20,0.02,0.015,-0.232,0.253,0.410
610,-0.0013,0.0061,0.0092,-0.29,-0.20,0.02,0.015,0.087,-0.208,-0.188
620,-0.0013,0.0023,0.0091,-0.25,-0.20,0.02,0.010,-0.295,-0.033,0.182
630,-0.0024,0.0010,0.0092,-0.25,-0.19,0.03,0.010,-0.250,-0.012,0.279
640,0.0036,0.0067,-0.0012,-0.29,-0.24,0.02,0.010,-0.026,-0.199,0.149
650,-0.0011,0.0007,-0.0010,-0.24,-0.20,0.03,0.010,-0.302,0.024,0.261
660,-0.0021,-0.0028,-0.0010,-0.21,-0.19,0.03,0.010,0.184,0.279,-0.031
670,-0.0022,-0.0004,-0.0011,-0.23,-0.19,0.02,0.009,0.071,0.124,-0.128
680,-0.0022,0.0055,-0.0009,-0.28,-0.19,0.03,0.009,-0.010,0.193,0.315
690,-0.0068,0.0065,-0.0090,-0.29,-0.15,0.03,0.009,-0.153,0.238,0.132
701,-0.0021,-0.0028,-0.0088,-0.21,-0.19,0.03,0.009,-0.101,0.099,0.178
710,-0.0022,0.0008,-0.0088,-0.24,-0.20,0.03,0.009,-0.089,0.199,0.046
720,-0.0011,0.0054,-0.0086,-0.28,-0.21,0.03,0.012,0.006,-0.107,-0.269
730,0.0034,0.0017,-0.0084,-0.25,-0.25,0.03,0.012,0.212,-0.041,-0.237
740,-0.0047,0.0015,-0.0057,-0.25,-0.18,0.03,0.012,0.082,-0.012,-0.231
750,-0.0002,-0.0031,-0.0055,-0.21,-0.22,0.03,0.012,-0.187,-0.143,-0.028
761,-0.0004,-0.0031,-0.0054,-0.21,-0.22,0.03,0.012,0.038,-0.121,0.027
770,-0.0017,-0.0005,-0.0053,-0.23,-0.21,0.04,0.012,-0.153,0.006,-0.056
781,-0.0017,-0.0041,-0.0052,-0.20,-0.21,0.04,0.012,-0.061,0.065,-0.044
790,-0.0026,-0.0028,-0.0030,-0.21,-0.20,0.03,0.012,0.017,-0.072,0.228
800,-0.0000,0.0010,-0.0029,-0.24,-0.22,0.04,0.012,0.039,-0.053,0.040
810,-0.0001,-0.0025,-0.0029,-0.21,-0.22,0.04,0.012,0.146,0.043,0.137
820,-0.0004,0.0024,-0.0027,-0.25,-0.22,0.04,0.011,-0.062,0.017,-0.092
830,-0.0005,0.0024,-0.0026,-0.26,-0.22,0.03,0.011,-0.091,0.030,-0.204
840,0.0033,0.0023,-0.0032,-0.25,-0.25,0.04,0.011,-0.063,0.079,0.341
851,-0.0004,0.0022,-0.0030,-0.25,-0.22,0.04,0.011,0.053,-0.024,-0.166
860,-0.0016,0.0011,-0.0029,-0.24,-0.21,0.03,0.011,-0.088,0.017,0.012
870,-0.0015,0.0023,-0.0029,-0.25,-0.21,0.04,0.012,-0.261,-0.120,0.074
880,-0.0052,0.0070,-0.0028,-0.29,-0.18,0.04,0.012,-0.141,-0.261,-0.033
891,0.0035,-0.0112,-0.0003,-0.14,-0.25,0.04,0.012,0.242,-0.094,-0.168
900,-0.0003,0.0005,-0.0000,-0.23,-0.22,0.04,0.012,0.014,0.106,-0.036
910,-0.0016,0.0079,-0.0001,-0.29,-0.21,0.04,0.012,-0.047,0.297,0.032
920,-0.0019,0.0039,0.0000,-0.26,-0.21,0.04,0.010,-0.023,0.015,0.066
931,-0.0019,-0.0022,0.0003,-0.21,-0.21,0.04,0.010,0.200,-0.155,-0.171
940,-0.0018,0.0061,-0.0029,-0.28,-0.21,0.04,0.010,-0.315,-0.008,0.221
950,-0.0027,0.0055,-0.0028,-0.27,-0.20,0.04,0.010,0.100,-0.155,0.116
960,-0.0026,0.0054,-0.0027,-0.27,-0.20,0.04,0.010,-0.249,-0.108,-0.159
970,-0.0013,-0.0031,-0.0025,-0.21,-0.21,0.04,0.011,0.066,-0.309,0.129
980,-0.0015,-0.0006,-0.0023,-0.23,-0.21,0.04,0.011,0.150,0.084,-0.363
990,-0.0074,-0.0007,-0.0017,-0.23,-0.17,0.04,0.011,-0.046,-0.163,0.084
1000,-0.0035,-0.0043,-0.0014,-0.20,-0.20,0.04,0.011,0.055,0.082,-0.181
1010,0.0003,0.0017,-0.0011,-0.25,-0.23,0.04,0.011,-0.083,-0.086,0.317
1020,0.0003,-0.0040,-0.0009,-0.20,-0.23,0.04,0.010,-0.003,-0.160,-0.175
1030,0.0002,0.0008,-0.0009,-0.24,-0.23,0.04,0.010,-0.362,-0.211,-0.001
1040,-0.0056,0.0041,-0.0025,-0.27,-0.18,0.04,0.010,0.181,0.036,0.246
1050,-0.0031,-0.0029,-0.0022,-0.21,-0.20,0.04,0.010,0.122,-0.111,-0.020
1059,0.0006,0.0006,-0.0023,-0.24,-0.23,0.04,0.010,0.027,-0.111,0.455
1069,0.0008,0.0008,-0.0023,-0.24,-0.23,0.04,0.013,-0.123,-0.157,0.423
1080,-0.0053,0.0045,-0.0021,-0.27,-0.18,0.04,0.013,0.215,0.016,0.174
1090,-0.0003,-0.0027,0.0042,-0.21,-0.22,0.05,0.013,-0.034,0.089,-0.243
1100,0.0010,-0.0037,0.0043,-0.20,-0.22,0.05,0.013,0.015,0.073,0.292
1110,-0.0002,0.0011,0.0045,-0.24,-0.21,0.05,0.013,0.100,-0.342,-0.086
1120,-0.0001,-0.0035,0.0047,-0.20,-0.21,0.05,0.011,-0.006,-0.038,0.220
1130,-0.0011,0.0001,0.0050,-0.23,-0.20,0.05,0.011,0.173,0.075,0.066
1140,-0.0046,0.0036,0.0035,-0.26,-0.17,0.05,0.011,0.043,0.154,-0.094
1150,-0.0022,0.0058,0.0034,-0.27,-0.19,0.05,0.011,-0.028,0.520,-0.070
1160,0.0024,-0.0024,0.0035,-0.20,-0.23,0.05,0.011,-0.087,0.338,0.055
1170,-0.0011,0.0001,0.0038,-0.22,-0.20,0.05,0.015,0.031,-0.219,-0.211
1180,0.0001,-0.0000,0.0040,-0.22,-0.22,0.05,0.015,0.046,-0.170,-0.327
1190,-0.0057,-0.0002,0.0113,-0.22,-0.17,0.06,0.015,-0.035,0.055,0.149
1200,-0.0009,-0.0038,0.0114,-0.19,-0.21,0.05,0.015,-0.182,0.040,-0.080
1210,-0.0007,-0.0004,0.0116,-0.22,-0.21,0.05,0.015,0.140,-0.454,-0.124
1220,0.0030,-0.0026,0.0118,-0.21,-0.24,0.05,0.012,-0.191,-0.032,0.052
1230,0.0007,0.0021,0.0120,-0.25,-0.22,0.05,0.012,-0.122,-0.261,-0.039
1240,0.0019,0.0055,0.0084,-0.27,-0.23,0.05,0.012,-0.163,0.364,0.277
1250,0.0018,0.0007,0.0084,-0.23,-0.22,0.05,0.012,0.146,-0.021,-0.086
1260,0.0008,-0.0030,0.0083,-0.21,-0.21,0.05,0.012,-0.042,-0.089,-0.156
1270,-0.0005,0.0016,0.0084,-0.24,-0.20,0.06,0.011,0.017,0.232,0.246
1280,-0.0005,0.0040,0.0086,-0.26,-0.20,0.05,0.011,0.173,0.119,0.044
1290,0.0063,-0.0039,0.0036,-0.19,-0.26,0.05,0.011,0.310,0.157,0.007
1300,0.0003,0.0065,0.0037,-0.28,-0.21,0.06,0.011,-0.116,0.059,0.356
1310,0.0015,-0.0038,0.0039,-0.20,-0.22,0.06,0.011,-0.366,-0.201,0.223
1320,-0.0008,0.0055,0.0042,-0.27,-0.20,0.06,0.014,-0.206,0.257,0.309
1330,-0.0008,0.0020,0.0043,-0.24,-0.20,0.06,0.014,0.233,-0.117,-0.159
1340,0.0002,0.0064,0.0074,-0.27,-0.21,0.06,0.014,0.037,0.178,-0.271
1350,0.0003,0.0005,0.0076,-0.23,-0.21,0.06,0.014,0.208,0.307,-0.136
1360,0.0004,0.0006,0.0074,-0.23,-0.21,0.06,0.014,-0.112,0.170,-0.078
1370,-0.0008,0.0004,0.0073,-0.22,-0.20,0.06,0.012,-0.118,-0.124,0.070
1380,-0.0047,0.0028,0.0073,-0.24,-0.17,0.06,0.012,-0.065,0.190,0.168
1390,0.0052,-0.0048,0.0039,-0.19,-0.25,0.06,0.012,-0.099,-0.006,0.020
1400,0.0014,0.0003,0.0042,-0.23,-0.22,0.06,0.012,-0.066,-0.098,-0.231
1410,0.0012,0.0027,0.0042,-0.25,-0.22,0.06,0.012,0.098,-0.058,-0.091
1420,0.0010,0.0049,0.0042,-0.26,-0.22,0.06,0.011,0.118,0.070,0.162
1429,0.0008,0.0058,0.0042,-0.27,-0.22,0.06,0.011,-0.023,0.146,-0.016
1439,-0.0039,-0.0006,-0.0009,-0.22,-0.18,0.06,0.011,0.133,-0.089,-0.004
1450,-0.0013,0.0040,-0.0009,-0.26,-0.20,0.06,0.011,-0.289,-0.028,0.258
1459,-0.0011,0.0041,-0.0011,-0.26,-0.20,0.06,0.011,-0.301,-0.054,0.521
1469,0.0000,0.0015,-0.0012,-0.24,-0.21,0.06,0.011,-0.081,-0.048,-0.147
1479,0.0021,0.0002,-0.0011,-0.23,-0.23,0.06,0.011,-0.073,0.013,0.013
0,-0.0083,0.0047,-0.0038,-0.27,-0.15,0.06,0.011,0.240,0.018,-0.277
9,-0.0083,0.0047,-0.0038,-0.27,-0.15,0.06,0.011,-0.713,-0.038,0.254
19,-0.0010,-0.0024,-0.0037,-0.21,-0.20,0.06,0.011,-0.166,-0.251,-0.345
29,-0.0010,-0.0024,-0.0036,-0.21,-0.20,0.05,0.011,-0.733,0.201,0.253
40,0.0023,-0.0046,-0.0033,-0.19,-0.23,0.05,0.011,-0.327,0.024,0.385
49,0.0024,-0.0049,-0.0047,-0.20,-0.23,0.05,0.011,0.469,-0.035,1.896
59,0.0010,-0.0056,-0.0045,-0.20,-0.22,0.06,0.011,-0.609,-0.203,-0.265
69,0.0013,-0.0053,-0.0042,-0.20,-0.22,0.06,0.011,-0.268,0.031,-0.541
79,0.0005,-0.0013,-0.0040,-0.22,-0.21,0.06,0.009,-0.841,-0.309,0.013
89,0.0007,0.0013,-0.0040,-0.24,-0.21,0.05,0.009,0.230,0.061,-1.384
99,-0.0024,0.0017,-0.0082,-0.24,-0.18,0.05,0.009,1.492,0.154,-6.286
109,-0.0019,0.0008,-0.0082,-0.24,-0.18,0.05,0.009,0.097,-0.689,-9.416
119,0.0041,-0.0035,-0.0083,-0.19,-0.23,0.04,0.009,-0.606,-0.913,-8.600
129,0.0019,-0.0029,-0.0089,-0.18,-0.21,-0.01,0.013,0.235,-2.010,-4.548
139,0.0011,-0.0025,-0.0085,-0.20,-0.20,-0.09,0.013,-0.890,-0.445,-6.173
149,-0.0022,-0.0130,-0.0022,-0.11,-0.17,-0.18,0.013,-4.281,-6.056,-9.583
159,-0.0017,-0.0153,-0.0013,-0.11,-0.16,-0.24,0.013,5.596,-11.687,-6.269
169,-0.0018,-0.0172,0.0004,-0.10,-0.16,-0.29,0.013,-9.659,-15.524,-1.229
180,-0.0081,-0.0287,0.0027,-0.03,-0.07,-0.39,0.012,-15.427,-16.171,0.219
189,-0.0080,-0.0287,0.0046,-0.00,0.03,-0.46,0.012,-37.681,-19.535,3.949
199,-0.0047,-0.0414,0.0119,0.06,0.16,-0.49,0.012,-46.874,-31.437,4.787
209,0.0045,-0.0662,0.0196,0.15,0.24,-0.49,0.012,-46.605,-39.278,6.318
220,0.0064,-0.0718,0.0309,-0.12,0.39,-0.47,0.012,-39.943,-36.997,5.826
229,0.0136,-0.0910,0.0435,-0.41,0.61,-0.42,0.018,-26.668,-39.729,7.247
240,0.0137,-0.0881,0.0588,-0.90,0.97,-0.36,0.018,-18.491,-37.132,7.817
249,0.0375,-0.1095,0.0880,-1.12,1.14,-0.31,0.018,-7.647,-38.302,5.148
260,0.0350,-0.1072,0.1094,-1.44,1.53,-0.23,0.018,-4.943,-41.792,3.703
270,0.0318,-0.0860,0.1332,-1.79,1.90,-0.13,0.018,-3.308,-35.494,3.452
280,0.0332,-0.0849,0.1538,-1.88,2.24,-0.07,0.000,-6.185,-28.190,3.617
289,0.0284,-0.0809,0.1758,-1.93,2.65,-0.01,0.000,-2.447,-23.386,1.673
299,-0.0105,-0.0372,0.1495,-2.28,3.30,0.06,0.000,5.759,-15.990,0.781
309,-0.0425,-0.0413,0.1704,-2.27,3.80,0.09,0.000,8.092,-0.076,0.137
319,-0.0275,-0.0541,0.1978,-2.17,3.85,0.11,0.000,15.675,11.279,-0.431
329,-0.0529,-0.0420,0.2203,-2.19,4.18,0.13,0.004,14.912,19.082,0.345
339,-0.0651,-0.0364,0.2404,-2.12,4.24,0.14,0.004,26.964,21.129,-0.919
349,-0.1079,0.0020,0.2191,-2.23,4.41,0.17,0.004,18.503,19.355,1.830
358,-0.1197,0.0111,0.2369,-2.11,4.25,0.17,0.004,11.228,19.618,-0.341
370,-0.1437,0.0262,0.2524,-1.96,4.15,0.17,0.004,10.954,19.627,1.629
379,-0.1532,0.0335,0.2708,-1.79,3.97,0.19,0.027,3.340,10.683,1.860
390,-0.1756,0.0485,0.2832,-1.73,3.89,0.19,0.027,1.325,7.494,2.453
399,-0.1802,0.0527,0.3017,-1.64,3.67,0.21,0.027,-2.870,6.459,5.636
409,-0.2085,0.0648,0.3105,-1.66,3.69,0.23,0.027,-6.414,6.905,5.425
418,-0.2157,0.0680,0.3246,-1.64,3.61,0.25,0.027,-8.547,8.432,5.640
429,-0.2237,0.0711,0.3366,-1.66,3.55,0.29,0.055,-5.073,13.302,6.048
439,-0.2305,0.0743,0.3484,-1.73,3.48,0.34,0.055,0.467,18.116,5.765
449,-0.2127,0.0545,0.4031,-1.63,3.19,0.35,0.055,5.905,21.060,6.785
459,-0.1939,0.0213,0.4211,-1.40,2.88,0.33,0.055,14.554,25.448,6.302
469,-0.1930,0.0225,0.4306,-1.40,2.65,0.39,0.055,15.931,24.712,4.218
479,-0.2050,0.0309,0.4358,-1.40,2.50,0.46,0.078,12.707,18.327,4.040
489,-0.2069,0.0327,0.4426,-1.26,2.23,0.51,0.078,12.602,10.886,4.719
498,-0.2091,0.0384,0.4582,-1.14,1.96,0.57,0.078,9.616,5.374,5.035
509,-0.2281,0.0335,0.4594,-0.96,1.88,0.57,0.078,9.619,3.251,5.085
518,-0.2202,0.0327,0.4673,-0.82,1.67,0.62,0.078,8.190,3.269,5.077
529,-0.2148,0.0269,0.4733,-0.66,1.54,0.66,0.110,7.178,6.468,3.965
539,-0.2003,0.0355,0.4797,-0.62,1.37,0.74,0.110,2.324,8.013,4.106
549,-0.1994,0.0266,0.5115,-0.46,1.29,0.77,0.110,1.593,10.056,4.868
558,-0.1881,0.0250,0.5130,-0.37,1.13,0.82,0.110,-1.380,20.475,4.376
568,-0.1826,0.0245,0.5127,-0.33,0.99,0.86,0.110,-0.230,32.379,4.195
579,-0.1767,0.0263,0.5120,-0.32,0.83,0.91,0.134,-1.005,46.690,3.247
589,-0.1747,0.0081,0.5105,-0.19,0.62,0.92,0.134,0.602,60.959,3.242
599,-0.1712,0.0102,0.5108,-0.21,0.28,0.97,0.134,2.553,72.027,2.549
609,-0.1746,0.0119,0.5074,-0.22,-0.14,1.00,0.134,3.755,81.456,1.648
619,-0.1725,0.0136,0.5038,-0.23,-0.74,1.04,0.134,7.140,84.756,1.998
629,-0.1744,0.0169,0.4989,-0.23,-1.43,1.07,0.157,6.515,83.980,1.059
639,-0.1647,0.0164,0.4943,-0.18,-2.28,1.09,0.157,7.308,78.821,0.438
649,-0.1705,0.0194,0.4951,-0.13,-3.07,1.10,0.157,7.128,68.690,-0.188
659,-0.1598,0.0187,0.4888,-0.06,-3.96,1.11,0.157,6.781,58.138,0.427
669,-0.1373,0.0225,0.4819,-0.01,-4.88,1.13,0.157,6.855,44.463,-0.455
679,-0.1217,0.0146,0.4742,0.13,-5.64,1.13,0.179,6.994,31.363,-0.448
689,-0.1240,-0.0017,0.4662,0.32,-6.15,1.14,0.179,6.864,18.885,-1.107
700,-0.1108,-0.0036,0.4464,0.40,-6.63,1.14,0.179,8.606,6.702,-1.097
709,-0.0982,-0.0028,0.4367,0.46,-6.98,1.14,0.179,5.602,-3.421,-1.533
719,-0.0855,-0.0022,0.4265,0.52,-7.21,1.13,0.179,3.233,-10.959,-0.550
729,-0.0782,0.0030,0.4165,0.55,-7.27,1.11,0.199,3.467,-16.545,-1.508
739,-0.0671,0.0055,0.4061,0.58,-7.25,1.09,0.199,-4.396,-21.688,-0.084
749,-0.0550,0.0062,0.3955,0.60,-7.16,1.08,0.199,-3.638,-23.686,-0.474
760,-0.0465,0.0055,0.3842,0.63,-6.98,1.07,0.199,-6.129,-25.106,-0.759
770,-0.0342,0.0049,0.3726,0.60,-6.79,1.06,0.199,-5.491,-25.093,-1.097
779,-0.0189,0.0046,0.3611,0.56,-6.59,1.05,0.220,-5.656,-25.146,-0.793
789,-0.0078,0.0038,0.3489,0.49,-6.31,1.04,0.220,-4.063,-23.240,-1.317
798,-0.0060,0.0035,0.3346,0.44,-6.01,1.03,0.220,-0.265,-21.502,-1.876
809,0.0032,0.0030,0.3239,0.38,-5.76,1.02,0.220,0.446,-23.819,-2.359
819,0.0087,0.0015,0.3132,0.35,-5.50,1.01,0.220,2.729,-23.462,-2.174
829,0.0172,0.0011,0.3023,0.34,-5.28,0.99,0.227,2.520,-25.360,-2.471
839,0.0268,-0.0094,0.2917,0.42,-5.06,0.99,0.227,1.212,-26.419,-1.219
848,0.0340,-0.0099,0.2669,0.44,-4.82,0.97,0.227,1.519,-27.740,-2.091
859,0.0358,-0.0306,0.2561,0.61,-4.52,1.01,0.227,1.703,-29.345,-1.643
869,0.0428,-0.0314,0.2459,0.62,-4.26,1.00,0.227,2.389,-30.340,-3.192
879,0.0505,-0.0262,0.2362,0.59,-3.99,0.95,0.239,-0.262,-32.339,-3.033
888,0.0573,-0.0246,0.2268,0.59,-3.70,0.92,0.239,-5.587,-34.298,-3.259
899,0.0625,-0.0228,0.2018,0.59,-3.40,0.88,0.239,-7.733,-35.556,-3.546
909,0.0753,-0.0226,0.1928,0.59,-3.13,0.84,0.239,-13.508,-35.994,-3.775
919,0.0798,-0.0223,0.1838,0.52,-2.78,0.80,0.239,-14.653,-36.545,-3.825
929,0.0803,-0.0182,0.1749,0.41,-2.40,0.75,0.252,-14.644,-36.028,-3.439
939,0.0813,-0.0149,0.1664,0.26,-2.03,0.70,0.252,-15.665,-36.823,-3.228
949,0.0951,-0.0136,0.1629,0.10,-1.74,0.65,0.252,-11.048,-35.719,-3.914
958,0.0979,-0.0137,0.1561,-0.04,-1.38,0.62,0.252,-8.394,-36.171,-3.821
969,0.1117,-0.0133,0.1497,-0.20,-1.09,0.58,0.252,-9.982,-34.270,-3.001
979,0.1075,-0.0085,0.1434,-0.34,-0.69,0.53,0.259,-5.436,-32.853,-2.403
989,0.1145,-0.0079,0.1371,-0.43,-0.37,0.49,0.259,0.061,-33.483,-3.231
998,0.1152,-0.0065,0.1296,-0.53,-0.03,0.47,0.259,3.227,-33.681,-3.112
1009,0.1212,-0.0054,0.1245,-0.58,0.26,0.44,0.259,4.018,-30.229,-2.945
1019,0.1195,-0.0035,0.1195,-0.60,0.60,0.41,0.259,7.699,-31.205,-2.364
1028,0.1152,-0.0004,0.1144,-0.59,0.95,0.37,0.263,7.986,-30.570,-2.258
1038,0.1116,0.0022,0.1094,-0.55,1.28,0.35,0.263,7.974,-28.610,-2.353
1049,0.1171,0.0058,0.1021,-0.50,1.53,0.32,0.263,8.381,-29.574,-1.759
1058,0.1091,0.0081,0.0976,-0.43,1.87,0.29,0.263,6.184,-26.239,-2.089
1069,0.1054,0.0126,0.0929,-0.38,2.17,0.27,0.263,4.748,-24.413,-0.974
1079,0.1042,0.0148,0.0886,-0.31,2.44,0.25,0.270,5.876,-20.838,-2.488
1089,0.1016,0.0145,0.0844,-0.23,2.69,0.23,0.270,3.722,-20.342,-1.198
1098,0.0965,0.0189,0.0818,-0.20,2.94,0.21,0.270,5.101,-15.868,-1.787
1108,0.0874,0.0196,0.0777,-0.15,3.19,0.19,0.270,3.566,-13.269,-0.787
1119,0.0873,0.0226,0.0742,-0.13,3.35,0.17,0.270,6.466,-9.134,-2.088
1129,0.0834,0.0219,0.0705,-0.07,3.50,0.16,0.277,6.102,-7.694,-0.628
1138,0.0761,0.0247,0.0668,-0.05,3.64,0.14,0.277,7.308,-3.668,-0.161
1149,0.0677,0.0274,0.0727,-0.01,3.75,0.12,0.277,8.780,-1.569,-0.638
1158,0.0608,0.0286,0.0696,0.04,3.83,0.11,0.277,9.127,1.033,-1.226
1169,0.0530,0.0282,0.0664,0.12,3.88,0.11,0.277,10.824,3.206,-2.457
1179,0.0480,0.0328,0.0631,0.16,3.89,0.10,0.281,9.464,5.160,-1.497
1188,0.0474,0.0306,0.0604,0.27,3.84,0.09,0.281,10.155,7.871,-1.403
1199,0.0391,0.0349,0.0637,0.34,3.82,0.06,0.281,9.887,9.883,-1.961
1209,0.0328,0.0344,0.0608,0.44,3.77,0.05,0.281,11.434,10.618,-2.481
1219,0.0283,0.0357,0.0578,0.53,3.68,0.03,0.281,8.898,12.811,-2.162
1229,0.0228,0.0341,0.0548,0.63,3.59,0.01,0.284,9.157,13.669,-2.719
1239,0.0178,0.0382,0.0520,0.70,3.47,-0.01,0.284,6.378,15.491,-2.929
1249,0.0172,0.0364,0.0539,0.80,3.31,-0.04,0.284,6.433,16.930,-2.225
1259,0.0071,0.0389,0.0506,0.88,3.19,-0.06,0.284,9.779,15.591,-2.961
1269,0.0023,0.0357,0.0481,0.95,3.03,-0.09,0.284,5.876,16.987,-2.999
1279,-0.0038,0.0364,0.0459,1.00,2.87,-0.11,0.283,7.988,17.414,-2.871
1288,-0.0078,0.0360,0.0438,1.08,2.70,-0.14,0.283,8.197,17.506,-3.506
1298,-0.0099,0.0352,0.0354,1.14,2.52,-0.17,0.283,5.534,18.505,-2.821
1309,-0.0117,0.0329,0.0331,1.23,2.34,-0.19,0.283,4.185,18.863,-2.748
1319,-0.0173,0.0339,0.0309,1.28,2.17,-0.22,0.283,3.780,20.281,-2.521
1328,-0.0196,0.0319,0.0290,1.33,1.98,-0.25,0.285,3.761,19.342,-3.011
1338,-0.0230,0.0296,0.0269,1.39,1.79,-0.27,0.285,3.160,19.563,-3.163
1349,-0.0271,0.0293,0.0234,1.41,1.60,-0.29,0.285,3.223,20.003,-3.044
1358,-0.0298,0.0270,0.0218,1.45,1.40,-0.31,0.285,2.984,20.838,-3.269
1368,-0.0291,0.0249,0.0204,1.48,1.19,-0.34,0.285,0.954,19.419,-2.921
1378,-0.0323,0.0229,0.0193,1.51,0.99,-0.36,0.284,1.886,18.119,-3.271
1389,-0.0377,0.0246,0.0184,1.51,0.81,-0.38,0.284,1.136,18.467,-2.732
1399,-0.0371,0.0227,0.0115,1.52,0.61,-0.41,0.284,3.111,17.636,-3.263
1408,-0.0408,0.0210,0.0107,1.53,0.43,-0.43,0.284,0.012,16.250,-2.657
1419,-0.0416,0.0184,0.0099,1.54,0.25,-0.46,0.284,2.553,15.900,-3.110
1428,-0.0389,0.0169,0.0092,1.56,0.05,-0.48,0.284,0.475,13.905,-3.500
1439,-0.0390,0.0143,0.0085,1.56,-0.12,-0.51,0.284,1.112,13.336,-3.847
1449,-0.0421,0.0129,0.0042,1.57,-0.26,-0.53,0.284,-0.926,14.202,-3.189
1459,-0.0356,0.0097,0.0041,1.57,-0.44,-0.57,0.284,-4.955,12.559,-2.808
1468,-0.0431,0.0071,0.0037,1.57,-0.53,-0.60,0.284,-6.381,11.597,-2.845
1479,-0.0410,0.0064,0.0034,1.55,-0.68,-0.62,0.285,-7.737,10.469,-2.587
1489,-0.0419,0.0061,0.0033,1.49,-0.79,-0.65,0.285,-6.788,9.868,-2.164
1498,-0.0397,0.0043,0.0025,1.43,-0.91,-0.68,0.285,-5.797,9.952,-2.257
1507,-0.0358,0.0010,0.0023,1.37,-1.03,-0.71,0.285,-6.085,8.700,-2.801
1519,-0.0341,-0.0013,0.0021,1.30,-1.13,-0.73,0.285,-5.738,8.814,-2.347
1528,-0.0317,-0.0043,0.0020,1.24,-1.23,-0.75,0.283,-5.102,8.392,-2.897
1539,-0.0296,-0.0065,0.0020,1.19,-1.32,-0.77,0.283,-3.816,7.212,-2.666
1549,-0.0386,-0.0073,-0.0023,1.12,-1.34,-0.79,0.283,-3.573,5.383,-2.085
1558,-0.0409,-0.0084,-0.0020,1.06,-1.40,-0.81,0.283,-3.639,4.223,-2.632
1568,-0.0351,-0.0111,-0.0020,1.03,-1.49,-0.84,0.283,-4.552,2.647,-2.420
1578,-0.0343,-0.0120,-0.0019,0.99,-1.54,-0.86,0.282,-5.026,1.693,-2.931
1588,-0.0317,-0.0138,-0.0017,0.95,-1.58,-0.88,0.282,-6.004,1.731,-2.398
1598,-0.0296,-0.0159,-0.0064,0.91,-1.61,-0.91,0.282,-6.469,2.320,-2.384
1608,-0.0269,-0.0175,-0.0060,0.86,-1.63,-0.94,0.282,-7.413,3.159,-2.612
1619,-0.0231,-0.0193,-0.0061,0.80,-1.65,-0.96,0.282,-8.025,2.856,-2.613
1629,-0.0140,-0.0209,-0.0058,0.74,-1.71,-0.99,0.284,-7.728,2.602,-1.566
1639,-0.0103,-0.0221,-0.0056,0.66,-1.74,-1.02,0.284,-7.122,1.866,-2.499
1648,-0.0085,-0.0233,-0.0034,0.58,-1.76,-1.05,0.284,-6.960,1.153,-2.362
1659,-0.0055,-0.0243,-0.0029,0.50,-1.79,-1.06,0.284,-6.843,-0.848,-2.182
1668,-0.0022,-0.0252,-0.0021,0.44,-1.81,-1.09,0.284,-6.965,-3.905,-2.022
1679,0.0043,-0.0260,-0.0016,0.36,-1.84,-1.12,0.288,-6.699,-4.722,-1.980
1689,0.0031,-0.0282,-0.0012,0.30,-1.81,-1.13,0.288,-6.151,-7.874,-0.766
1699,0.0038,-0.0271,0.0103,0.22,-1.76,-1.15,0.288,-6.941,-9.561,-0.838
1709,0.0069,-0.0276,0.0112,0.15,-1.70,-1.17,0.288,-6.662,-11.326,-1.037
1719,0.0084,-0.0278,0.0120,0.08,-1.61,-1.18,0.288,-7.274,-11.679,-1.005
1729,0.0251,-0.0336,0.0125,0.04,-1.59,-1.20,0.287,-5.744,-12.573,-1.137
1739,0.0278,-0.0337,0.0132,-0.02,-1.48,-1.21,0.287,-6.629,-12.433,-0.564
1748,0.0203,-0.0316,0.0167,-0.10,-1.31,-1.21,0.287,-5.884,-11.306,-0.555
1759,0.0272,-0.0296,0.0171,-0.18,-1.21,-1.22,0.287,-5.552,-12.084,-0.782
1768,0.0338,-0.0331,0.0174,-0.22,-1.11,-1.23,0.287,-5.874,-12.003,-0.342
1779,0.0357,-0.0328,0.0178,-0.28,-0.99,-1.23,0.286,-5.227,-11.356,-1.106
1789,0.0374,-0.0323,0.0184,-0.34,-0.87,-1.24,0.286,-4.998,-10.534,-0.866
1798,0.0377,-0.0317,0.0158,-0.40,-0.75,-1.24,0.286,-6.181,-10.577,-0.766
1807,0.0526,-0.0332,0.0159,-0.44,-0.71,-1.25,0.286,-4.752,-9.191,-0.417
1818,0.0523,-0.0306,0.0157,-0.51,-0.59,-1.26,0.286,-5.333,-10.463,-0.200
1827,0.0520,-0.0297,0.0157,-0.57,-0.48,-1.26,0.291,-4.660,-10.209,-0.077
1838,0.0551,-0.0326,0.0158,-0.60,-0.39,-1.26,0.291,-4.285,-12.134,0.702
1848,0.0545,-0.0298,0.0242,-0.67,-0.28,-1.26,0.291,-4.625,-13.173,0.723
1858,0.0587,-0.0308,0.0244,-0.71,-0.19,-1.26,0.291,-2.719,-14.450,1.036
1868,0.0589,-0.0281,0.0243,-0.76,-0.07,-1.25,0.291,-2.552,-16.009,1.523
1879,0.0622,-0.0292,0.0245,-0.79,0.05,-1.24,0.286,-1.533,-16.979,1.022
1888,0.0632,-0.0267,0.0246,-0.82,0.19,-1.23,0.286,-1.799,-17.328,1.699
1898,0.0619,-0.0261,0.0146,-0.84,0.35,-1.21,0.286,-1.682,-18.000,1.376
1907,0.0570,-0.0218,0.0146,-0.87,0.55,-1.19,0.286,-1.296,-17.821,1.812
1918,0.0561,-0.0203,0.0143,-0.89,0.72,-1.17,0.286,-0.195,-17.271,1.571
1927,0.0524,-0.0180,0.0139,-0.90,0.91,-1.16,0.291,-2.302,-16.355,1.564
1938,0.0591,-0.0179,0.0138,-0.91,1.05,-1.14,0.291,-0.040,-14.042,0.758
1948,0.0585,-0.0191,0.0179,-0.89,1.21,-1.12,0.291,1.410,-10.705,0.758
1957,0.0597,-0.0171,0.0176,-0.92,1.35,-1.10,0.291,1.004,-8.137,0.790
1967,0.0558,-0.0152,0.0175,-0.92,1.50,-1.09,0.291,0.408,-5.190,1.395
1978,0.0532,-0.0136,0.0172,-0.90,1.60,-1.09,0.287,-1.056,-4.333,1.553
1987,0.0500,-0.0117,0.0169,-0.89,1.67,-1.08,0.287,3.113,-2.469,0.950
1997,0.0469,-0.0098,0.0080,-0.89,1.72,-1.06,0.287,1.778,-3.281,1.328
2008,0.0440,-0.0082,0.0077,-0.90,1.76,-1.05,0.287,3.432,-2.697,1.540
2018,0.0393,-0.0048,0.0074,-0.88,1.80,-1.04,0.287,4.217,-1.448,1.967
2027,0.0363,-0.0032,0.0070,-0.86,1.82,-1.02,0.286,6.028,-1.503,2.049
2038,0.0393,-0.0024,0.0063,-0.81,1.81,-1.01,0.286,5.880,-0.742,2.309
2048,0.0422,-0.0038,-0.0013,-0.76,1.80,-0.99,0.286,5.069,-0.576,2.546
2057,0.0392,-0.0025,-0.0014,-0.71,1.81,-0.97,0.286,7.812,1.228,2.104
2067,0.0361,-0.0012,-0.0017,-0.65,1.82,-0.94,0.286,6.633,2.053,0.908
2077,0.0398,0.0004,-0.0019,-0.59,1.78,-0.92,0.290,6.408,2.522,1.115
2087,0.0368,0.0014,-0.0019,-0.52,1.76,-0.90,0.290,6.492,2.005,0.954
2098,0.0337,0.0024,0.0026,-0.45,1.74,-0.89,0.290,4.926,1.568,1.248
2109,0.0241,0.0082,0.0026,-0.42,1.76,-0.88,0.290,5.194,3.450,1.817
2119,0.0187,0.0077,0.0025,-0.34,1.75,-0.87,0.290,5.353,2.272,1.518
2127,0.0139,0.0092,0.0026,-0.29,1.74,-0.86,0.290,4.531,2.387,1.085
2138,0.0109,0.0097,0.0027,-0.24,1.71,-0.85,0.290,5.814,2.257,1.062
2149,0.0021,0.0131,0.0050,-0.21,1.72,-0.83,0.290,5.353,2.342,2.166
2158,0.0014,0.0102,0.0051,-0.15,1.69,-0.82,0.290,4.404,4.393,1.414
2169,-0.0030,0.0132,0.0052,-0.12,1.68,-0.80,0.290,4.474,3.867,2.346
2177,-0.0062,0.0135,0.0053,-0.06,1.65,-0.78,0.290,5.618,6.156,2.608
2189,-0.0080,0.0143,0.0053,-0.01,1.61,-0.76,0.290,5.707,9.325,1.372
2197,-0.0115,0.0130,0.0060,0.04,1.57,-0.74,0.290,6.767,13.358,1.331
2207,-0.0142,0.0130,0.0061,0.09,1.50,-0.72,0.290,3.882,13.628,1.660
2217,-0.0168,0.0129,0.0060,0.15,1.40,-0.70,0.290,6.150,15.732,0.668
2228,-0.0191,0.0127,0.0056,0.21,1.27,-0.69,0.290,4.592,15.692,1.923
2239,-0.0178,0.0130,0.0052,0.24,1.11,-0.67,0.290,5.077,16.017,2.341
2249,-0.0371,0.0136,0.0049,0.29,1.05,-0.66,0.290,5.016,15.402,1.883
2258,-0.0389,0.0118,0.0048,0.35,0.89,-0.64,0.290,5.090,15.328,1.583
2267,-0.0406,0.0100,0.0047,0.41,0.73,-0.62,0.290,5.708,13.810,1.558
2277,-0.0418,0.0093,0.0045,0.46,0.57,-0.60,0.289,5.016,12.958,1.956
2287,-0.0408,0.0073,0.0045,0.52,0.41,-0.58,0.289,4.777,13.482,1.496
2297,-0.0415,0.0064,0.0014,0.57,0.27,-0.57,0.289,0.761,12.394,2.114
2307,-0.0403,0.0064,0.0014,0.62,0.13,-0.55,0.289,-0.028,13.597,1.326
2317,-0.0494,0.0072,0.0011,0.64,0.04,-0.53,0.289,1.741,15.093,0.803
2327,-0.0454,0.0039,0.0009,0.67,-0.11,-0.51,0.292,-2.845,13.663,1.554
2337,-0.0553,0.0044,0.0006,0.66,-0.19,-0.50,0.292,-0.374,14.079,0.924
2348,-0.0551,0.0033,0.0051,0.67,-0.34,-0.49,0.292,-0.643,13.925,0.952
2357,-0.0543,0.0022,0.0051,0.65,-0.48,-0.47,0.292,-2.394,13.072,1.099
2367,-0.0535,0.0010,0.0052,0.64,-0.62,-0.46,0.292,-2.322,12.197,1.381
2377,-0.0524,-0.0001,0.0052,0.63,-0.76,-0.45,0.291,-1.053,11.894,0.897
2387,-0.0556,-0.0006,0.0053,0.61,-0.87,-0.44,0.291,-0.167,11.223,0.577
2397,-0.0626,-0.0034,0.0056,0.60,-0.95,-0.43,0.291,-0.405,11.500,-0.105
2407,-0.0630,-0.0043,0.0059,0.59,-1.05,-0.42,0.291,-0.205,10.409,0.129
2417,-0.0592,-0.0052,0.0061,0.59,-1.17,-0.42,0.291,-4.168,8.845,0.721
2427,-0.0535,-0.0080,0.0062,0.59,-1.30,-0.41,0.288,-1.671,11.028,-0.455
2437,-0.0513,-0.0090,0.0062,0.57,-1.40,-0.41,0.288,-5.494,10.031,0.466
2448,-0.0515,-0.0114,-0.0008,0.55,-1.47,-0.40,0.288,-4.571,10.321,0.608
2457,-0.0598,-0.0109,-0.0011,0.51,-1.52,-0.40,0.288,-4.175,9.680,-0.018
2467,-0.0535,-0.0147,-0.0015,0.48,-1.65,-0.40,0.288,-4.364,9.043,0.080
2477,-0.0553,-0.0124,-0.0016,0.42,-1.73,-0.40,0.289,-4.418,8.863,0.804
2487,-0.0491,-0.0160,-0.0016,0.39,-1.84,-0.40,0.289,-3.568,7.767,0.371
2497,-0.0431,-0.0193,-0.0034,0.36,-1.95,-0.40,0.289,-2.426,6.716,0.084
2507,-0.0397,-0.0199,-0.0030,0.32,-2.03,-0.39,0.289,-2.861,3.950,-0.626
2517,-0.0339,-0.0214,-0.0028,0.29,-2.12,-0.39,0.289,-3.566,4.163,-0.361
2527,-0.0303,-0.0219,-0.0026,0.27,-2.18,-0.38,0.291,-4.339,1.554,-0.508
2538,-0.0270,-0.0251,-0.0024,0.25,-2.21,-0.39,0.291,-5.057,0.543,-0.705
2547,-0.0221,-0.0280,0.0008,0.23,-2.25,-0.39,0.291,-6.442,-1.840,-0.880
2557,-0.0183,-0.0285,0.0009,0.20,-2.26,-0.40,0.291,-6.574,-3.268,-1.106
2567,-0.0143,-0.0308,0.0012,0.16,-2.25,-0.41,0.291,-5.699,-4.219,-1.205
2578,-0.0104,-0.0311,0.0016,0.09,-2.22,-0.42,0.292,-5.079,-5.360,-1.633
2587,-0.0071,-0.0333,0.0021,0.04,-2.18,-0.43,0.292,-5.794,-5.661,-2.090
2598,-0.0032,-0.0334,0.0071,-0.02,-2.14,-0.44,0.292,-6.287,-6.248,-1.648
2608,-0.0087,-0.0352,0.0079,-0.06,-2.04,-0.46,0.292,-4.297,-9.234,-1.171
2618,0.0041,-0.0351,0.0083,-0.12,-2.02,-0.48,0.292,-6.949,-8.720,-0.408
2628,0.0057,-0.0350,0.0085,-0.17,-1.94,-0.49,0.290,-7.811,-12.454,0.419
2637,0.0116,-0.0345,0.0089,-0.23,-1.85,-0.50,0.290,-8.283,-10.990,1.255
2648,0.0143,-0.0337,0.0063,-0.31,-1.76,-0.50,0.290,-7.232,-11.554,0.567
2657,0.0168,-0.0346,0.0067,-0.37,-1.64,-0.49,0.290,-6.820,-12.638,1.643
2667,0.0230,-0.0338,0.0069,-0.45,-1.54,-0.48,0.290,-6.925,-12.112,1.131
2677,0.0207,-0.0328,0.0072,-0.52,-1.39,-0.47,0.290,-4.470,-12.646,1.733
2688,0.0203,-0.0336,0.0077,-0.58,-1.25,-0.46,0.290,-5.638,-14.212,2.055
2698,0.0273,-0.0309,0.0052,-0.65,-1.15,-0.45,0.290,-4.566,-14.771,1.938
2708,0.0318,-0.0279,0.0056,-0.71,-1.03,-0.42,0.290,-1.978,-13.689,2.300
2718,0.0376,-0.0269,0.0059,-0.76,-0.91,-0.40,0.290,-3.334,-13.267,2.561
2727,0.0392,-0.0256,0.0060,-0.80,-0.76,-0.38,0.293,-2.272,-12.398,3.270
2737,0.0390,-0.0232,0.0062,-0.83,-0.62,-0.36,0.293,-4.064,-13.973,4.828
2747,0.0375,-0.0232,0.0109,-0.85,-0.48,-0.33,0.293,-3.099,-13.081,5.051
2757,0.0383,-0.0217,0.0110,-0.88,-0.35,-0.29,0.293,-1.140,-13.493,5.574
2766,0.0431,-0.0228,0.0112,-0.90,-0.24,-0.24,0.293,0.376,-13.838,5.898
2777,0.0493,-0.0204,0.0117,-0.93,-0.14,-0.18,0.291,0.418,-12.666,6.487
2787,0.0496,-0.0188,0.0122,-0.93,-0.01,-0.13,0.291,0.191,-13.944,6.195
2797,0.0535,-0.0168,0.0096,-0.94,0.11,-0.06,0.291,-0.440,-13.871,6.746
2807,0.0513,-0.0185,0.0100,-0.91,0.25,0.00,0.291,0.256,-13.808,6.502
2817,0.0472,-0.0145,0.0102,-0.93,0.41,0.06,0.291,-1.465,-14.162,7.159
2826,0.0448,-0.0125,0.0102,-0.92,0.55,0.13,0.289,-0.187,-13.294,6.994
2837,0.0438,-0.0109,0.0101,-0.92,0.69,0.20,0.289,1.282,-10.885,7.183
2847,0.0426,-0.0094,0.0029,-0.93,0.82,0.27,0.289,-1.518,-11.712,7.244
2857,0.0477,-0.0077,0.0028,-0.93,0.90,0.35,0.289,0.328,-9.123,7.360
2867,0.0504,-0.0076,0.0027,-0.92,0.99,0.42,0.289,1.577,-7.940,6.854
2877,0.0487,-0.0060,0.0030,-0.94,1.10,0.50,0.290,3.463,-4.334,7.491
2886,0.0518,-0.0047,0.0032,-0.92,1.15,0.58,0.290,2.519,-5.115,8.038
2896,0.0498,-0.0031,0.0009,-0.92,1.22,0.65,0.290,4.108,-4.292,8.252
2907,0.0477,-0.0016,0.0008,-0.89,1.27,0.72,0.290,6.712,-3.329,6.655
2917,0.0454,-0.0001,0.0011,-0.87,1.32,0.80,0.290,6.427,-2.961,7.403
2926,0.0432,0.0001,0.0013,-0.81,1.34,0.88,0.289,3.372,-5.443,7.586
2937,0.0409,0.0015,0.0010,-0.77,1.38,0.95,0.289,6.907,-2.933,8.124
2947,0.0362,0.0040,-0.0026,-0.71,1.43,1.03,0.289,7.054,-3.538,7.647
2957,0.0342,0.0039,-0.0026,-0.66,1.46,1.11,0.289,5.121,-3.264,7.621
2966,0.0317,0.0049,-0.0027,-0.59,1.50,1.19,0.289,4.092,-4.308,8.048
2977,0.0291,0.0059,-0.0029,-0.54,1.54,1.27,0.291,4.454,-2.607,8.011
2987,0.0418,0.0062,-0.0029,-0.50,1.49,1.35,0.291,6.931,-1.838,7.195
2997,0.0393,0.0070,-0.0002,-0.46,1.53,1.43,0.291,8.119,-1.385,6.625
3006,0.0372,0.0061,-0.0003,-0.39,1.55,1.51,0.291,7.127,0.048,6.712
3017,0.0345,0.0067,-0.0006,-0.33,1.56,1.58,0.291,5.919,1.457,6.279
3027,0.0351,0.0059,-0.0008,-0.26,1.55,1.65,0.293,4.608,1.555,5.983
3037,0.0294,0.0050,-0.0006,-0.18,1.57,1.71,0.293,3.520,2.646,5.963
3046,0.0303,0.0046,0.0050,-0.12,1.53,1.77,0.293,2.755,2.208,5.478
3058,0.0271,0.0061,0.0046,-0.08,1.52,1.83,0.293,0.836,1.399,5.034
3067,0.0245,0.0061,0.0044,-0.05,1.49,1.89,0.293,1.210,1.147,4.449
3077,0.0219,0.0061,0.0044,-0.01,1.48,1.94,0.289,1.316,1.201,4.296
3087,0.0123,0.0074,0.0045,0.00,1.50,1.98,0.289,2.947,1.217,3.628
3097,0.0139,0.0046,-0.0016,0.02,1.46,2.03,0.289,2.334,1.741,3.104
3106,0.0133,0.0060,-0.0018,0.02,1.44,2.07,0.289,1.603,2.236,2.696
3117,0.0065,0.0051,-0.0017,0.04,1.45,2.11,0.289,0.938,2.834,2.396
3127,0.0001,0.0044,-0.0017,0.06,1.45,2.14,0.292,3.312,4.999,1.656
3137,-0.0039,0.0039,-0.0020,0.08,1.43,2.16,0.292,2.846,7.540,1.449
3146,-0.0064,0.0037,0.0011,0.09,1.40,2.19,0.292,2.751,9.247,1.135
3157,-0.0134,0.0026,0.0013,0.12,1.36,2.20,0.292,2.914,11.212,0.916
3167,-0.0157,0.0023,0.0012,0.16,1.28,2.21,0.292,3.994,11.749,0.495
3177,-0.0174,0.0014,0.0007,0.18,1.18,2.23,0.288,0.951,12.003,-0.366
3186,-0.0187,0.0003,0.0001,0.20,1.07,2.24,0.288,1.710,15.374,0.092
3197,-0.0204,-0.0001,-0.0073,0.22,0.95,2.24,0.288,1.298,15.727,-0.221
3207,-0.0204,-0.0001,-0.0073,0.24,0.79,2.24,0.288,-1.560,15.813,-0.320
3216,-0.0184,-0.0027,-0.0073,0.24,0.79,2.24,0.288,-2.949,14.624,-1.259
3226,-0.0351,-0.0017,-0.0074,0.23,0.72,2.24,0.286,-2.631,13.581,-1.272
3237,-0.0437,-0.0025,-0.0082,0.22,0.44,2.23,0.286,-1.490,13.370,-1.856
3247,-0.0436,-0.0025,-0.0160,0.22,0.44,2.23,0.286,-2.581,12.322,-2.133
3257,-0.0424,-0.0025,-0.0163,0.20,0.28,2.22,0.286,-1.562,11.357,-2.509
3267,-0.0389,-0.0044,-0.0163,0.17,0.12,2.21,0.286,-1.840,12.261,-2.332
3277,-0.0506,-0.0045,-0.0163,0.14,-0.07,2.16,0.288,-3.024,11.972,-1.786
3287,-0.0548,-0.0043,-0.0160,0.11,-0.17,2.14,0.288,-3.328,12.221,-2.212
3297,-0.0507,-0.0058,-0.0139,0.10,-0.31,2.12,0.288,0.326,12.655,-2.912
3307,-0.0484,-0.0054,-0.0136,0.07,-0.43,2.10,0.288,1.448,14.418,-2.991
3316,-0.0459,-0.0074,-0.0130,0.07,-0.56,2.07,0.288,-0.128,15.915,-2.537
3326,-0.0470,-0.0077,-0.0125,0.08,-0.68,2.04,0.289,-2.541,15.462,-2.487
3337,-0.0458,-0.0078,-0.0123,0.07,-0.83,2.02,0.289,-0.831,16.160,-2.413
3347,-0.0540,-0.0076,-0.0073,0.04,-0.94,1.99,0.289,-1.578,14.611,-2.671
3357,-0.0539,-0.0073,-0.0068,0.01,-1.08,1.97,0.289,-5.420,12.393,-2.656
3367,-0.0539,-0.0073,-0.0068,0.01,-1.08,1.97,0.289,-4.016,10.331,-2.813
3377,-0.0460,-0.0092,-0.0054,-0.02,-1.39,1.92,0.287,-1.449,10.289,-3.432
3386,-0.0461,-0.0086,-0.0048,-0.06,-1.50,1.89,0.287,-2.135,8.944,-3.226
3397,-0.0405,-0.0115,-0.0054,-0.09,-1.62,1.86,0.287,-3.829,5.944,-3.508
3407,-0.0351,-0.0141,-0.0051,-0.10,-1.72,1.83,0.287,-1.825,4.180,-4.401
3416,-0.0321,-0.0128,-0.0046,-0.13,-1.80,1.79,0.287,-0.943,4.415,-4.042
3427,-0.0290,-0.0125,-0.0041,-0.15,-1.86,1.75,0.284,-2.917,2.450,-3.885
3437,-0.0298,-0.0118,-0.0034,-0.17,-1.88,1.71,0.284,-2.252,2.361,-3.585
3447,-0.0292,-0.0106,-0.0096,-0.20,-1.90,1.67,0.284,-5.515,0.295,-3.432
3456,-0.0265,-0.0117,-0.0093,-0.20,-1.93,1.63,0.284,-4.125,-1.040,-4.222
3467,-0.0224,-0.0119,-0.0089,-0.24,-1.94,1.59,0.284,-2.233,-1.734,-4.009
3477,-0.0224,-0.0119,-0.0089,-0.24,-1.94,1.59,0.285,-4.373,-2.834,-3.588
3487,-0.0167,-0.0128,-0.0082,-0.33,-1.92,1.52,0.285,-5.189,-4.009,-3.509
3496,-0.0135,-0.0129,-0.0081,-0.36,-1.90,1.48,0.285,-3.399,-4.236,-3.290
3507,-0.0102,-0.0122,-0.0079,-0.39,-1.87,1.44,0.285,-2.546,-3.971,-3.465
3517,-0.0074,-0.0125,-0.0079,-0.43,-1.83,1.41,0.285,0.025,-4.779,-3.623
3527,-0.0029,-0.0110,-0.0076,-0.45,-1.80,1.37,0.286,-0.694,-5.781,-3.516
3537,0.0069,-0.0134,-0.0071,-0.45,-1.79,1.34,0.286,-1.532,-6.245,-2.800
3547,0.0071,-0.0122,-0.0038,-0.46,-1.72,1.31,0.286,-1.120,-5.260,-2.199
3556,0.0128,-0.0108,-0.0031,-0.47,-1.67,1.28,0.286,-1.931,-6.538,-1.611
3567,0.0157,-0.0099,-0.0024,-0.50,-1.61,1.25,0.286,-0.726,-8.060,-1.752
3577,0.0169,-0.0103,-0.0019,-0.51,-1.54,1.23,0.288,-1.299,-9.759,-1.525
3587,0.0177,-0.0108,-0.0014,-0.52,-1.46,1.21,0.288,-0.571,-10.914,-1.235
3596,0.0200,-0.0092,0.0056,-0.55,-1.37,1.20,0.288,-0.380,-12.350,-1.146
3606,0.0223,-0.0082,0.0061,-0.56,-1.26,1.19,0.288,-0.361,-13.291,-1.453
3618,0.0245,-0.0072,0.0064,-0.56,-1.15,1.17,0.288,-2.713,-14.428,-0.354
3627,0.0236,-0.0079,0.0067,-0.56,-1.00,1.16,0.283,-1.272,-14.283,-0.759
3636,0.0316,-0.0061,0.0068,-0.58,-0.90,1.15,0.283,-1.458,-13.994,-0.436
3646,0.0372,-0.0065,-0.0012,-0.60,-0.78,1.15,0.283,1.586,-13.401,-0.727
3656,0.0369,-0.0051,-0.0007,-0.61,-0.63,1.15,0.283,2.550,-12.333,-0.283
3666,0.0369,-0.0051,-0.0007,-0.61,-0.63,1.15,0.283,0.122,-11.765,-0.147
3676,0.0380,-0.0040,-0.0002,-0.60,-0.49,1.14,0.285,1.259,-12.400,0.193
3686,0.0424,-0.0039,-0.0001,-0.56,-0.26,1.14,0.285,3.280,-11.782,-0.153
3696,0.0411,-0.0040,-0.0003,-0.56,-0.25,1.14,0.285,2.226,-10.859,-0.536
3706,0.0415,-0.0030,0.0000,-0.56,-0.13,1.14,0.285,-0.124,-10.924,-0.116
3716,0.0417,-0.0021,0.0007,-0.53,-0.01,1.15,0.285,0.201,-12.180,0.032
3726,0.0417,-0.0012,0.0010,-0.51,0.11,1.15,0.287,-0.466,-11.930,0.013
3736,0.0439,-0.0002,0.0013,-0.49,0.21,1.15,0.287,-0.969,-12.228,0.031
3746,0.0537,0.0009,0.0061,-0.49,0.27,1.15,0.287,0.251,-11.092,-0.804
3756,0.0533,0.0019,0.0064,-0.49,0.39,1.15,0.287,-0.330,-9.697,-0.231
3766,0.0512,0.0007,0.0067,-0.49,0.51,1.16,0.287,-0.588,-9.682,0.952
3776,0.0503,0.0015,0.0072,-0.50,0.63,1.15,0.288,-0.402,-10.223,0.965
3786,0.0479,0.0024,0.0078,-0.50,0.74,1.15,0.288,2.041,-9.373,0.528
3796,0.0454,0.0032,0.0119,-0.50,0.85,1.16,0.288,3.961,-10.815,1.079
3807,0.0440,0.0040,0.0123,-0.50,0.95,1.16,0.288,3.986,-10.180,1.281
3816,0.0469,0.0042,0.0128,-0.49,1.02,1.17,0.288,2.881,-9.297,1.965
3826,0.0497,0.0043,0.0131,-0.46,1.09,1.18,0.288,1.137,-8.651,2.736
3836,0.0478,0.0051,0.0134,-0.43,1.20,1.20,0.288,-0.955,-8.157,2.210
3846,0.0448,0.0053,0.0147,-0.42,1.29,1.22,0.288,-0.055,-7.001,2.460
3856,0.0457,0.0061,0.0151,-0.40,1.37,1.24,0.288,4.889,-5.883,2.083
3867,0.0433,0.0067,0.0154,-0.40,1.45,1.27,0.288,6.313,-5.786,1.347
3876,0.0408,0.0073,0.0154,-0.40,1.52,1.29,0.288,0.429,-3.572,2.380
3887,0.0382,0.0079,0.0157,-0.37,1.59,1.32,0.288,4.843,-2.627,1.621
3896,0.0376,0.0082,0.0147,-0.32,1.64,1.34,0.288,1.690,-1.961,2.162
3906,0.0348,0.0086,0.0148,-0.29,1.69,1.35,0.288,2.171,-0.663,2.153
3916,0.0319,0.0091,0.0145,-0.26,1.72,1.37,0.288,2.104,0.383,2.118
3926,0.0289,0.0094,0.0146,-0.23,1.75,1.40,0.286,4.324,0.678,1.519
3936,0.0259,0.0098,0.0147,-0.20,1.76,1.42,0.286,4.106,1.737,2.479
3946,0.0230,0.0100,0.0078,-0.19,1.76,1.44,0.286,4.204,2.086,2.048
3955,0.0199,0.0102,0.0073,-0.17,1.76,1.46,0.286,3.755,1.971,1.611
3966,0.0169,0.0104,0.0071,-0.14,1.74,1.48,0.286,3.312,1.337,2.521
3977,0.0114,0.0094,0.0069,-0.10,1.74,1.50,0.285,2.936,2.195,1.811
3986,0.0082,0.0108,0.0066,-0.08,1.73,1.53,0.285,4.076,3.374,1.688
3996,0.0054,0.0108,-0.0006,-0.05,1.71,1.55,0.285,4.557,4.247,2.091
4006,0.0025,0.0108,-0.0008,-0.02,1.68,1.57,0.285,4.087,5.104,2.006
4016,-0.0004,0.0107,-0.0010,0.03,1.66,1.58,0.285,1.984,7.276,2.154
4026,-0.0035,0.0106,-0.0014,0.07,1.62,1.61,0.286,2.270,8.528,2.100
4036,-0.0063,0.0104,-0.0019,0.10,1.57,1.63,0.286,-1.055,9.448,1.961
4046,-0.0089,0.0102,-0.0039,0.14,1.51,1.65,0.286,-0.264,7.645,1.815
4056,-0.0249,0.0092,-0.0039,0.17,1.50,1.67,0.286,-0.093,10.032,1.006
4066,-0.0323,0.0084,-0.0041,0.17,1.44,1.69,0.286,-1.011,9.287,1.094
4076,-0.0347,0.0080,-0.0042,0.17,1.35,1.70,0.286,-0.682,12.858,0.245
4086,-0.0360,0.0075,-0.0042,0.17,1.26,1.72,0.286,2.459,11.105,0.354
4096,-0.0381,0.0071,-0.0043,0.17,1.16,1.73,0.286,1.235,14.263,-0.327
4107,-0.0401,0.0068,-0.0038,0.16,1.05,1.74,0.286,-0.389,15.088,0.184
4116,-0.0376,0.0030,-0.0035,0.20,0.91,1.74,0.286,1.009,17.784,-1.332
4126,-0.0371,0.0048,-0.0036,0.20,0.76,1.74,0.286,2.618,16.405,-1.738
4135,-0.0386,0.0042,-0.0035,0.20,0.62,1.74,0.286,-0.445,17.415,-1.874
4146,-0.0392,0.0010,-0.0031,0.22,0.44,1.73,0.286,-2.482,17.604,-2.365
4156,-0.0536,-0.0005,-0.0028,0.25,0.35,1.71,0.286,0.783,14.567,-2.410
4166,-0.0542,-0.0009,-0.0025,0.26,0.18,1.69,0.286,-4.129,14.521,-2.439
4176,-0.0554,-0.0011,-0.0024,0.23,0.00,1.67,0.286,-4.630,13.229,-2.293
4185,-0.0528,-0.0006,-0.0022,0.22,-0.17,1.65,0.286,-3.855,12.363,-3.500
4196,-0.0614,-0.0004,-0.0016,0.20,-0.26,1.63,0.286,-4.452,10.679,-3.971
4206,-0.0608,-0.0022,-0.0013,0.16,-0.40,1.60,0.286,-4.759,10.145,-3.989
4215,-0.0603,-0.0016,-0.0008,0.12,-0.53,1.57,0.286,-3.363,10.252,-4.137
4226,-0.0594,-0.0018,-0.0002,0.08,-0.64,1.53,0.286,-2.946,9.601,-4.477
4236,-0.0564,-0.0034,0.0003,0.03,-0.75,1.49,0.286,-2.972,11.732,-4.964
4246,-0.0599,-0.0030,0.0006,-0.00,-0.82,1.45,0.286,-2.868,12.021,-4.918
4255,-0.0649,-0.0025,0.0008,-0.04,-0.88,1.41,0.286,1.592,11.812,-4.709
4266,-0.0634,-0.0024,0.0014,-0.06,-1.00,1.36,0.286,0.094,11.188,-5.203
4276,-0.0637,-0.0026,0.0020,-0.09,-1.11,1.31,0.283,0.397,10.994,-5.692
4286,-0.0618,-0.0023,0.0025,-0.08,-1.23,1.26,0.283,3.543,11.502,-6.213
4296,-0.0556,-0.0042,-0.0039,-0.07,-1.36,1.21,0.283,1.040,10.995,-5.984
4306,-0.0533,-0.0040,-0.0034,-0.07,-1.47,1.16,0.283,-4.010,10.951,-5.831
4315,-0.0507,-0.0038,-0.0027,-0.04,-1.57,1.10,0.283,-2.871,8.607,-5.860
4326,-0.0550,-0.0052,-0.0022,-0.03,-1.65,1.04,0.286,-3.719,7.334,-5.885
4336,-0.0572,-0.0045,-0.0020,-0.07,-1.73,0.99,0.286,-4.435,6.602,-5.518
4346,-0.0594,-0.0035,0.0015,-0.11,-1.79,0.93,0.286,-4.202,4.495,-5.616
4356,-0.0553,-0.0044,0.0020,-0.15,-1.88,0.87,0.286,-3.292,3.095,-5.563
4366,-0.0520,-0.0041,0.0024,-0.21,-1.95,0.82,0.286,-2.718,2.426,-5.890
4375,-0.0464,-0.0071,0.0031,-0.24,-2.01,0.76,0.287,-3.458,1.443,-5.175
4386,-0.0429,-0.0066,0.0039,-0.28,-2.05,0.71,0.287,-4.581,1.021,-4.518
4397,-0.0356,-0.0093,0.0083,-0.29,-2.10,0.65,0.287,-2.743,0.494,-4.764
4405,-0.0285,-0.0077,0.0091,-0.34,-2.14,0.60,0.287,-1.665,0.092,-5.060
4416,-0.0249,-0.0071,0.0098,-0.37,-2.15,0.55,0.287,0.020,0.237,-5.772
4426,-0.0212,-0.0065,0.0101,-0.39,-2.16,0.50,0.290,-0.078,-1.089,-5.353
4436,-0.0146,-0.0056,0.0102,-0.42,-2.17,0.45,0.290,-2.034,-2.992,-3.618
4445,-0.0127,-0.0047,0.0182,-0.42,-2.16,0.40,0.290,-2.827,-3.663,-2.866
4455,-0.0090,-0.0039,0.0187,-0.43,-2.15,0.34,0.290,-1.072,-4.994,-4.218
4466,-0.0053,-0.0032,0.0190,-0.44,-2.13,0.30,0.290,-1.283,-7.079,-2.875
4476,0.0042,-0.0022,0.0192,-0.46,-2.13,0.27,0.287,-1.136,-9.421,-2.686
4486,0.0046,-0.0031,0.0195,-0.47,-2.06,0.23,0.287,0.678,-10.800,-2.882
4496,0.0083,-0.0063,0.0159,-0.46,-1.99,0.19,0.287,-0.286,-12.324,-3.160
4505,0.0158,-0.0076,0.0163,-0.47,-1.93,0.17,0.287,-0.881,-13.515,-1.760
4516,0.0184,-0.0065,0.0166,-0.47,-1.83,0.14,0.287,-0.054,-13.443,-1.766
4526,0.0215,-0.0057,0.0168,-0.47,-1.71,0.11,0.290,0.652,-14.754,-2.121
4536,0.0233,-0.0046,0.0170,-0.47,-1.57,0.09,0.290,0.326,-15.546,-1.354
4545,0.0246,-0.0039,0.0197,-0.46,-1.43,0.07,0.290,1.548,-14.576,-0.331
4556,0.0276,0.0011,0.0199,-0.46,-1.28,0.05,0.290,-0.817,-13.805,0.256
4566,0.0298,0.0019,0.0202,-0.47,-1.13,0.04,0.290,-2.917,-13.499,-0.043
4575,0.0449,0.0007,0.0203,-0.44,-1.05,0.04,0.288,-1.988,-13.389,-0.124
4585,0.0467,0.0014,0.0204,-0.43,-0.91,0.04,0.288,-0.180,-14.551,-0.783
4596,0.0486,0.0029,0.0154,-0.45,-0.78,0.04,0.288,4.469,-15.188,0.258
4605,0.0499,0.0036,0.0159,-0.47,-0.65,0.04,0.288,5.513,-15.058,0.459
4615,0.0507,0.0015,0.0161,-0.45,-0.51,0.04,0.288,1.096,-15.352,1.389
4626,0.0494,0.0013,0.0163,-0.41,-0.34,0.04,0.288,1.789,-15.222,-0.075
4635,0.0575,0.0017,0.0165,-0.36,-0.23,0.04,0.288,6.519,-15.330,1.023
4645,0.0612,0.0039,0.0114,-0.34,-0.09,0.05,0.288,4.576,-15.891,0.597
4656,0.0614,0.0045,0.0114,-0.32,0.07,0.05,0.288,4.288,-15.739,0.628
4666,0.0586,0.0041,0.0116,-0.26,0.24,0.06,0.288,1.456,-15.358,0.990
4675,0.0634,0.0037,0.0123,-0.20,0.37,0.07,0.287,3.827,-16.495,0.763
4685,0.0659,0.0037,0.0128,-0.17,0.51,0.08,0.287,2.385,-15.777,0.781
4695,0.0641,0.0032,0.0064,-0.15,0.67,0.10,0.287,-0.153,-14.837,1.028
4706,0.0642,0.0030,0.0064,-0.12,0.82,0.10,0.287,1.394,-13.768,0.989
4715,0.0604,0.0031,0.0065,-0.11,0.99,0.12,0.287,-0.130,-13.826,0.758
4726,0.0602,0.0030,0.0068,-0.10,1.13,0.13,0.294,0.027,-12.251,0.990
4736,0.0600,0.0016,0.0071,-0.09,1.26,0.14,0.294,0.369,-10.724,1.288
4746,0.0597,0.0018,0.0184,-0.11,1.38,0.15,0.294,3.631,-9.622,0.620
4755,0.0629,0.0036,0.0190,-0.12,1.48,0.17,0.294,0.432,-8.533,0.809
4766,0.0604,0.0038,0.0199,-0.10,1.59,0.18,0.294,0.041,-7.666,1.159
4775,0.0576,0.0040,0.0204,-0.08,1.68,0.19,0.290,2.182,-7.717,1.103
4785,0.0506,0.0018,0.0206,-0.06,1.79,0.20,0.290,2.878,-5.207,0.843
4796,0.0467,0.0015,0.0165,-0.07,1.87,0.21,0.290,2.389,-5.098,1.145
4805,0.0435,0.0016,0.0171,-0.05,1.95,0.22,0.290,3.623,-4.701,1.124
4815,0.0402,0.0017,0.0172,-0.02,2.00,0.23,0.290,3.089,-3.591,1.258
4826,0.0443,0.0012,0.0172,0.00,2.01,0.24,0.294,2.121,-1.761,0.710
4835,0.0466,0.0008,0.0173,0.03,2.02,0.25,0.294,-0.457,-0.504,1.179
4846,0.0431,0.0008,0.0218,0.04,2.06,0.27,0.294,1.885,1.038,0.339
4855,0.0458,0.0007,0.0220,0.06,2.05,0.28,0.294,1.982,1.975,0.115
4867,0.0423,0.0006,0.0218,0.08,2.06,0.29,0.294,0.916,1.553,0.294
4876,0.0388,0.0005,0.0215,0.09,2.06,0.30,0.290,-0.513,2.318,0.287
4885,0.0333,-0.0002,0.0216,0.10,2.07,0.31,0.290,-0.036,1.474,0.186
4895,0.0299,-0.0004,0.0129,0.10,2.06,0.31,0.290,-1.197,1.078,0.241
4906,0.0264,-0.0006,0.0129,0.10,2.04,0.31,0.290,-0.820,0.124,-0.044
4916,0.0163,-0.0006,0.0124,0.10,2.05,0.31,0.290,-1.166,1.197,0.526
4925,0.0128,-0.0008,0.0119,0.09,2.04,0.31,0.296,-1.266,2.360,1.529
4936,0.0093,-0.0009,0.0115,0.08,2.04,0.32,0.296,-0.867,4.052,1.317
4945,0.0039,-0.0009,0.0177,0.07,2.04,0.32,0.296,1.173,5.039,1.017
4955,-0.0055,-0.0009,0.0168,0.05,2.05,0.33,0.296,-2.674,7.583,1.765
4965,-0.0089,-0.0010,0.0163,0.04,2.02,0.35,0.296,0.678,9.565,1.049
4976,-0.0124,-0.0011,0.0161,0.05,1.97,0.35,0.289,-1.808,11.734,1.352
4985,-0.0135,-0.0035,0.0160,0.04,1.89,0.37,0.289,-1.271,15.295,1.195
4995,-0.0180,-0.0074,0.0015,0.07,1.80,0.38,0.289,0.824,15.616,1.072
5005,-0.0211,-0.0075,0.0011,0.06,1.69,0.39,0.289,-0.483,17.477,0.539
5016,-0.0202,-0.0118,0.0006,0.08,1.52,0.40,0.289,-1.523,17.668,1.442
5025,-0.0212,-0.0114,0.0003,0.08,1.36,0.41,0.293,-2.172,17.447,1.297
5036,-0.0216,-0.0130,-0.0001,0.07,1.18,0.42,0.293,-2.305,15.584,0.911
5046,-0.0236,-0.0124,0.0004,0.05,1.03,0.43,0.293,-4.172,15.818,0.539
5055,-0.0298,-0.0125,0.0000,0.03,0.85,0.44,0.293,-6.766,14.519,1.339
5065,-0.0313,-0.0125,0.0002,0.00,0.70,0.46,0.293,-5.731,12.891,0.347
5075,-0.0223,-0.0155,0.0003,-0.02,0.49,0.46,0.292,-7.420,12.921,0.812
5085,-0.0413,-0.0186,0.0004,-0.06,0.44,0.47,0.292,-5.493,8.576,0.368
5095,-0.0404,-0.0186,-0.0012,-0.11,0.29,0.47,0.292,-7.317,10.869,0.591
5105,-0.0442,-0.0169,-0.0010,-0.19,0.19,0.48,0.292,-3.027,9.652,-0.593
5115,-0.0432,-0.0148,-0.0008,-0.26,0.08,0.48,0.292,-8.236,10.548,0.156
5125,-0.0423,-0.0173,-0.0009,-0.32,-0.03,0.49,0.291,-4.353,8.620,-0.975
5135,-0.0548,-0.0130,-0.0010,-0.37,-0.06,0.49,0.291,-4.791,9.565,-0.740
5145,-0.0612,-0.0114,-0.0038,-0.45,-0.13,0.49,0.291,-1.966,10.892,-1.218
5156,-0.0575,-0.0114,-0.0035,-0.50,-0.24,0.48,0.291,-3.895,12.080,-0.833
5165,-0.0555,-0.0118,-0.0033,-0.53,-0.34,0.47,0.291,-1.777,14.001,-0.836
5175,-0.0549,-0.0109,-0.0032,-0.57,-0.45,0.46,0.294,0.963,13.047,-1.161
5185,-0.0540,-0.0112,-0.0026,-0.59,-0.57,0.45,0.294,-3.553,15.757,-0.760
5195,-0.0530,-0.0102,0.0036,-0.62,-0.71,0.44,0.294,-4.132,17.277,-1.858
5205,-0.0554,-0.0102,0.0042,-0.61,-0.82,0.42,0.294,0.073,15.091,-1.744
5215,-0.0534,-0.0103,0.0046,-0.63,-0.98,0.41,0.294,2.160,13.658,-2.132
5225,-0.0494,-0.0087,0.0052,-0.67,-1.16,0.39,0.296,-0.935,12.415,-0.865
5235,-0.0457,-0.0096,0.0059,-0.67,-1.33,0.37,0.296,0.634,8.762,-1.545
5245,-0.0457,-0.0081,0.0133,-0.65,-1.44,0.35,0.296,-2.632,8.246,-1.967
5255,-0.0423,-0.0068,0.0135,-0.65,-1.57,0.34,0.296,-0.706,4.910,-1.310
5264,-0.0396,-0.0057,0.0139,-0.65,-1.67,0.32,0.296,1.689,3.909,-1.664
5275,-0.0368,-0.0045,0.0144,-0.67,-1.75,0.30,0.292,-0.194,3.726,-0.741
5285,-0.0340,-0.0036,0.0147,-0.69,-1.80,0.29,0.292,-2.402,-1.126,-1.002
5295,-0.0313,-0.0025,0.0081,-0.66,-1.84,0.27,0.292,1.866,-1.445,-1.251
5305,-0.0293,-0.0008,0.0085,-0.66,-1.87,0.26,0.292,2.298,-1.525,-1.252
5315,-0.0261,0.0004,0.0089,-0.69,-1.86,0.25,0.292,6.144,-2.252,-1.680
5326,-0.0229,0.0016,0.0088,-0.67,-1.85,0.24,0.297,-1.484,-4.919,-0.973
5335,-0.0194,-0.0005,0.0088,-0.63,-1.83,0.23,0.297,3.757,-4.838,-1.881
5345,-0.0165,0.0029,0.0149,-0.59,-1.81,0.21,0.297,1.370,-3.470,-1.678
5355,-0.0099,0.0031,0.0150,-0.59,-1.79,0.20,0.297,4.274,-4.139,-1.766
5365,-0.0068,0.0042,0.0147,-0.55,-1.74,0.18,0.297,5.447,-4.739,-1.985
5375,-0.0025,0.0042,0.0143,-0.54,-1.71,0.17,0.293,1.872,-3.690,-1.942
5385,-0.0003,0.0060,0.0141,-0.50,-1.67,0.15,0.293,2.127,-5.090,-2.247
5396,0.0020,0.0083,0.0070,-0.45,-1.61,0.13,0.293,-0.135,-6.117,-1.425
5406,0.0096,0.0085,0.0067,-0.42,-1.60,0.11,0.293,0.983,-8.333,-2.099
5415,0.0124,0.0092,0.0065,-0.39,-1.55,0.09,0.293,4.181,-10.250,-1.343
5426,0.0157,0.0072,0.0064,-0.38,-1.49,0.07,0.295,4.659,-11.152,-1.958
5435,0.0182,0.0078,0.0061,-0.37,-1.41,0.05,0.295,-0.108,-11.325,-1.180
5444,0.0198,0.0085,0.0057,-0.34,-1.30,0.04,0.295,-2.172,-11.374,-1.340
5455,0.0220,0.0091,0.0053,-0.29,-1.19,0.02,0.295,-1.347,-12.563,-1.231
5465,0.0215,0.0135,0.0053,-0.30,-1.06,0.00,0.295,8.298,-14.766,-3.014
5475,0.0233,0.0141,0.0053,-0.32,-0.95,-0.01,0.295,6.066,-14.871,-1.063
5484,0.0305,0.0128,0.0053,-0.33,-0.85,-0.02,0.295,5.280,-14.777,-0.865
5495,0.0320,0.0133,0.0044,-0.26,-0.71,-0.05,0.295,0.738,-12.619,-0.880
5505,0.0297,0.0144,0.0044,-0.20,-0.54,-0.06,0.295,3.037,-12.673,-1.087
5515,0.0307,0.0148,0.0045,-0.15,-0.39,-0.07,0.295,8.179,-12.416,-1.248
5524,0.0341,0.0161,0.0043,-0.13,-0.27,-0.08,0.296,4.103,-11.886,0.115
5535,0.0353,0.0144,0.0040,-0.09,-0.15,-0.09,0.296,5.393,-10.709,-0.680
5545,0.0402,0.0212,0.0055,-0.06,-0.05,-0.10,0.296,8.541,-10.775,-1.879
5555,0.0430,0.0197,0.0057,-0.01,0.05,-0.10,0.296,2.857,-9.600,-0.045
5565,0.0418,0.0178,0.0059,0.04,0.17,-0.11,0.296,3.061,-10.108,-0.209
5575,0.0415,0.0178,0.0059,0.11,0.27,-0.12,0.295,4.544,-10.050,0.065
5585,0.0439,0.0184,0.0059,0.14,0.35,-0.12,0.295,3.561,-11.786,-0.837
5594,0.0442,0.0169,0.0039,0.18,0.45,-0.12,0.295,1.591,-10.242,0.002
5605,0.0496,0.0155,0.0040,0.24,0.52,-0.13,0.295,5.364,-11.647,-0.371
5615,0.0488,0.0151,0.0039,0.28,0.63,-0.14,0.295,5.122,-13.549,-0.864
5625,0.0520,0.0151,0.0040,0.30,0.71,-0.14,0.296,2.062,-11.774,-1.044
5634,0.0508,0.0146,0.0048,0.35,0.83,-0.15,0.296,3.882,-11.201,-1.348
5644,0.0493,0.0140,0.0059,0.40,0.96,-0.16,0.296,0.926,-11.061,-0.838
5654,0.0463,0.0123,0.0058,0.43,1.09,-0.17,0.296,2.258,-10.313,0.067
5665,0.0431,0.0090,0.0058,0.46,1.20,-0.17,0.296,-1.306,-9.076,-0.951
5675,0.0380,0.0095,0.0060,0.46,1.33,-0.18,0.294,-0.249,-9.412,-1.099
5685,0.0369,0.0105,0.0063,0.48,1.43,-0.19,0.294,-0.511,-7.178,-1.153
5695,0.0357,0.0094,0.0011,0.48,1.52,-0.20,0.294,-3.405,-5.334,-0.455
5705,0.0386,0.0065,0.0008,0.49,1.58,-0.21,0.294,-0.907,-4.821,-2.033
5715,0.0376,0.0060,0.0008,0.49,1.64,-0.22,0.294,-0.619,-3.948,-1.794
5724,0.0348,0.0052,0.0011,0.47,1.70,-0.23,0.297,-2.664,-0.812,-1.385
5735,0.0319,0.0044,0.0010,0.46,1.75,-0.25,0.297,-1.673,-0.810,-1.278
5745,0.0289,0.0036,0.0044,0.45,1.78,-0.27,0.297,-1.318,0.514,-1.152
5755,0.0248,0.0010,0.0045,0.43,1.80,-0.28,0.297,-4.423,2.274,-1.340
5765,0.0217,0.0003,0.0049,0.41,1.81,-0.30,0.297,-0.598,2.182,-1.342
5774,0.0162,-0.0018,0.0050,0.40,1.82,-0.31,0.297,-2.964,2.534,-1.847
5785,0.0131,-0.0024,0.0051,0.37,1.80,-0.33,0.297,-6.387,4.405,-1.201
5795,0.0059,-0.0024,0.0072,0.36,1.80,-0.34,0.297,-1.834,3.152,-1.651
5804,-0.0007,-0.0018,0.0078,0.32,1.79,-0.36,0.297,-1.268,2.327,-1.857
5814,-0.0037,-0.0023,0.0082,0.27,1.75,-0.37,0.297,-5.727,5.838,-0.209
5825,-0.0067,-0.0028,0.0082,0.25,1.72,-0.39,0.297,-5.514,7.439,-0.972
5835,-0.0084,-0.0040,0.0083,0.24,1.68,-0.40,0.297,-0.492,7.851,-2.275
5845,-0.0097,-0.0076,0.0087,0.20,1.62,-0.41,0.297,-4.613,10.383,-1.276
5855,-0.0106,-0.0055,0.0087,0.14,1.54,-0.42,0.297,-1.746,10.797,-1.780
5865,-0.0112,-0.0068,0.0086,0.13,1.45,-0.44,0.297,-2.738,12.321,-1.561
5876,-0.0136,-0.0085,0.0087,0.09,1.34,-0.45,0.295,-1.721,13.448,-1.969
5884,-0.0154,-0.0140,0.0088,0.10,1.22,-0.47,0.295,-4.081,13.227,-1.358
5896,-0.0174,-0.0141,0.0032,0.07,1.10,-0.48,0.295,-4.804,12.667,-1.055
5905,-0.0204,-0.0090,0.0031,0.03,0.97,-0.50,0.295,-2.000,11.951,-0.878
5915,-0.0335,-0.0097,0.0031,-0.01,0.90,-0.52,0.295,-3.442,11.632,-1.112
5925,-0.0400,-0.0110,0.0032,-0.05,0.80,-0.52,0.295,-3.803,10.352,-2.242
5934,-0.0380,-0.0120,0.0033,-0.07,0.66,-0.53,0.295,-4.477,9.350,-3.244
5944,-0.0380,-0.0109,-0.0003,-0.10,0.54,-0.55,0.295,-2.674,8.776,-2.449
5954,-0.0381,-0.0096,-0.0003,-0.15,0.44,-0.57,0.295,-2.945,8.866,-1.958
5965,-0.0389,-0.0093,-0.0000,-0.19,0.34,-0.60,0.295,-6.690,11.340,-1.757
5974,-0.0427,-0.0121,0.0003,-0.20,0.27,-0.63,0.297,-6.563,14.006,-2.631
5984,-0.0478,-0.0122,0.0003,-0.22,0.20,-0.65,0.297,-2.621,13.217,-2.362
5994,-0.0482,-0.0118,0.0033,-0.29,0.09,-0.67,0.297,-2.541,14.369,-1.663
6004,-0.0544,-0.0090,0.0034,-0.36,-0.02,-0.69,0.297,-1.229,14.803,-1.836
6014,-0.0543,-0.0084,0.0036,-0.39,-0.15,-0.71,0.297,0.768,15.271,-3.214
6024,-0.0538,-0.0073,0.0037,-0.42,-0.30,-0.74,0.296,0.952,13.744,-2.408
6034,-0.0533,-0.0066,0.0038,-0.43,-0.46,-0.76,0.296,4.732,12.734,-3.352
6044,-0.0544,-0.0057,0.0027,-0.44,-0.60,-0.79,0.296,0.371,13.301,-1.671
6054,-0.0614,-0.0035,0.0028,-0.43,-0.69,-0.82,0.296,1.910,13.372,-2.239
6064,-0.0581,-0.0028,0.0030,-0.39,-0.83,-0.85,0.296,2.898,11.999,-2.168
6074,-0.0546,-0.0024,0.0032,-0.37,-0.98,-0.87,0.294,1.815,11.562,-2.168
6084,-0.0551,-0.0040,0.0033,-0.34,-1.10,-0.89,0.294,1.950,10.774,-2.906
6094,-0.0517,-0.0017,-0.0022,-0.33,-1.22,-0.91,0.294,0.638,10.445,-2.517
6104,-0.0496,-0.0012,-0.0020,-0.32,-1.33,-0.94,0.294,2.224,9.895,-3.513
6114,-0.0473,-0.0007,-0.0018,-0.30,-1.44,-0.97,0.294,2.626,8.408,-3.925
6124,-0.0477,-0.0005,-0.0018,-0.30,-1.54,-0.99,0.296,0.064,7.830,-2.857
6135,-0.0442,-0.0004,-0.0017,-0.28,-1.63,-1.03,0.296,0.851,6.568,-3.146
6145,-0.0427,0.0000,-0.0002,-0.26,-1.71,-1.07,0.296,1.025,5.081,-3.681
6154,-0.0432,0.0004,-0.0001,-0.26,-1.77,-1.09,0.296,1.900,4.519,-3.218
6165,-0.0401,0.0008,-0.0001,-0.25,-1.84,-1.13,0.296,0.394,1.837,-3.516
6174,-0.0369,0.0011,0.0001,-0.24,-1.89,-1.16,0.297,1.024,2.189,-3.478
6185,-0.0363,0.0015,0.0006,-0.23,-1.92,-1.20,0.297,1.392,0.946,-2.818
6194,-0.0355,0.0036,0.0040,-0.23,-1.93,-1.23,0.297,3.024,0.586,-2.528
6204,-0.0322,0.0039,0.0036,-0.22,-1.94,-1.27,0.297,2.804,-0.664,-2.111
6214,-0.0258,0.0015,0.0036,-0.19,-1.97,-1.29,0.297,1.803,-0.747,-2.077
6224,-0.0198,0.0011,0.0037,-0.16,-1.99,-1.32,0.295,2.365,-1.110,-1.248
6234,-0.0163,0.0013,0.0038,-0.14,-1.99,-1.34,0.295,2.583,-2.308,-1.824
6244,-0.0127,0.0030,0.0011,-0.13,-1.98,-1.35,0.295,1.157,-3.442,-1.101
6255,-0.0074,0.0026,0.0013,-0.10,-1.98,-1.37,0.295,0.702,-4.793,-1.275
6264,-0.0045,0.0004,0.0015,-0.07,-1.95,-1.38,0.295,0.623,-5.709,-1.462
6274,0.0001,0.0001,0.0016,-0.05,-1.92,-1.40,0.296,1.915,-6.145,-1.715
6284,0.0025,0.0079,0.0019,-0.08,-1.87,-1.42,0.296,2.807,-7.634,-1.497
6294,0.0058,0.0079,0.0022,-0.07,-1.81,-1.44,0.296,0.617,-9.589,-0.480
6304,0.0089,0.0080,0.0022,-0.05,-1.75,-1.45,0.296,-1.878,-10.900,-0.045
6314,0.0139,0.0077,0.0022,-0.04,-1.68,-1.47,0.296,1.039,-13.010,-0.966
6324,0.0184,0.0055,0.0023,-0.02,-1.59,-1.47,0.298,1.613,-13.756,-0.257
6335,0.0214,0.0055,0.0024,-0.03,-1.47,-1.47,0.298,0.174,-14.965,0.037
6344,0.0229,0.0052,0.0070,-0.02,-1.34,-1.48,0.298,3.046,-15.415,-0.395
6355,0.0239,0.0069,0.0075,-0.02,-1.19,-1.48,0.298,4.918,-15.338,-0.431
6364,0.0265,0.0080,0.0078,-0.02,-1.04,-1.48,0.298,2.381,-16.834,-0.114
6374,0.0268,0.0070,0.0084,0.02,-0.88,-1.49,0.292,2.647,-15.279,-0.288
6384,0.0365,0.0062,0.0091,0.06,-0.77,-1.49,0.292,3.384,-14.237,0.536
6395,0.0378,0.0053,-0.0029,0.08,-0.61,-1.49,0.292,1.665,-15.056,0.527
6405,0.0388,0.0051,-0.0027,0.11,-0.48,-1.49,0.292,0.176,-13.865,0.169
6415,0.0438,0.0040,-0.0024,0.14,-0.33,-1.48,0.292,3.095,-13.143,0.316
6424,0.0444,0.0038,-0.0020,0.15,-0.18,-1.48,0.297,-2.972,-13.152,0.729
6434,0.0410,0.0053,-0.0016,0.15,-0.02,-1.48,0.297,1.882,-13.264,0.860
6444,0.0454,0.0043,0.0036,0.17,0.09,-1.48,0.297,1.848,-11.358,-0.298
6454,0.0456,0.0043,0.0041,0.15,0.22,-1.47,0.297,-0.343,-11.161,0.167
6464,0.0516,0.0011,0.0044,0.18,0.32,-1.46,0.297,-3.657,-12.271,1.238
6474,0.0511,0.0008,0.0051,0.19,0.43,-1.46,0.299,-0.625,-13.111,1.215
6484,0.0488,0.0005,0.0060,0.18,0.56,-1.46,0.299,0.777,-11.398,1.563
6494,0.0500,0.0002,0.0138,0.16,0.67,-1.45,0.299,-0.720,-10.744,0.891
6504,0.0489,-0.0001,0.0145,0.16,0.79,-1.44,0.299,0.133,-12.146,0.741
6514,0.0475,-0.0003,0.0152,0.17,0.91,-1.43,0.299,-1.963,-10.450,1.566
6524,0.0484,-0.0007,0.0159,0.16,1.00,-1.42,0.296,1.085,-12.062,1.136
6534,0.0513,-0.0007,0.0164,0.16,1.09,-1.41,0.296,-1.085,-10.490,1.059
6544,0.0478,-0.0011,0.0128,0.15,1.21,-1.40,0.296,0.884,-10.033,0.966
6554,0.0503,-0.0012,0.0132,0.15,1.30,-1.39,0.296,-0.015,-7.675,0.969
6564,0.0481,-0.0014,0.0134,0.14,1.41,-1.37,0.296,-0.621,-7.960,1.271
6575,0.0457,-0.0016,0.0136,0.15,1.51,-1.36,0.299,-2.380,-5.921,1.135
6583,0.0423,-0.0015,0.0141,0.14,1.59,-1.35,0.299,-0.641,-5.005,0.773
6593,0.0395,-0.0017,0.0171,0.14,1.66,-1.34,0.299,-1.108,-5.122,0.634
6604,0.0366,-0.0018,0.0172,0.12,1.73,-1.33,0.299,-1.783,-4.043,0.934
6614,0.0356,-0.0017,0.0171,0.10,1.77,-1.33,0.299,-1.818,-2.930,0.445
6624,0.0326,-0.0018,0.0171,0.09,1.82,-1.32,0.294,-3.059,-1.823,0.874
6634,0.0259,-0.0013,0.0169,0.05,1.87,-1.32,0.294,-3.392,-0.679,0.693
6644,0.0237,-0.0027,0.0062,0.03,1.89,-1.31,0.294,-2.787,1.227,0.620
6654,0.0218,-0.0020,0.0063,0.00,1.89,-1.30,0.294,-2.846,2.944,0.826
6664,0.0185,-0.0019,0.0063,-0.02,1.89,-1.30,0.294,0.187,4.285,0.007
6674,0.0112,-0.0012,0.0063,-0.04,1.90,-1.29,0.298,0.262,2.804,0.224
6684,0.0083,-0.0032,0.0065,-0.05,1.88,-1.28,0.298,-1.639,3.769,0.988
6694,0.0054,-0.0009,0.0080,-0.07,1.84,-1.28,0.298,-0.273,5.263,0.550
6703,0.0008,-0.0003,0.0081,-0.07,1.81,-1.28,0.298,-0.921,6.969,0.619
6714,-0.0023,-0.0001,0.0081,-0.08,1.77,-1.27,0.298,-3.057,8.234,0.389
6724,-0.0053,0.0001,0.0083,-0.09,1.71,-1.26,0.299,-1.693,8.539,0.778
6734,-0.0086,0.0008,0.0083,-0.09,1.64,-1.26,0.299,-1.694,9.584,0.470
6743,-0.0114,0.0010,0.0102,-0.11,1.55,-1.25,0.299,-3.160,10.534,1.011
6754,-0.0141,0.0013,0.0102,-0.13,1.46,-1.24,0.299,0.473,12.384,0.016
6764,-0.0183,0.0020,0.0103,-0.15,1.38,-1.24,0.299,0.276,11.430,0.558
6774,-0.0221,0.0001,0.0104,-0.16,1.28,-1.23,0.296,-1.716,11.038,0.728
6784,-0.0236,0.0005,0.0106,-0.17,1.16,-1.22,0.296,2.576,12.058,-0.044
6794,-0.0291,0.0013,0.0040,-0.18,1.05,-1.22,0.296,1.049,11.851,0.256
6804,-0.0309,0.0016,0.0043,-0.18,0.93,-1.22,0.296,3.185,12.488,0.135
6815,-0.0315,0.0018,0.0047,-0.17,0.81,-1.21,0.296,1.662,12.647,-0.002
6825,-0.0316,0.0013,0.0051,-0.15,0.68,-1.21,0.297,-0.192,12.960,0.457
6835,-0.0315,0.0014,0.0054,-0.13,0.55,-1.21,0.297,2.578,13.070,-0.000
6844,-0.0373,0.0017,0.0039,-0.11,0.45,-1.22,0.297,2.710,12.381,-0.737
6854,-0.0381,0.0019,0.0046,-0.11,0.32,-1.21,0.297,-1.023,11.993,0.140
6864,-0.0434,0.0037,0.0052,-0.09,0.22,-1.21,0.297,-3.922,11.373,0.832
6873,-0.0505,0.0040,0.0056,-0.07,0.13,-1.22,0.296,-1.757,11.870,0.009
6884,-0.0507,0.0041,0.0061,-0.08,0.01,-1.22,0.296,3.740,12.137,-0.685
6894,-0.0507,0.0042,0.0025,-0.12,-0.10,-1.21,0.296,2.615,11.835,-0.304
6904,-0.0488,0.0046,0.0026,-0.13,-0.22,-1.21,0.296,3.617,11.546,-1.276
6914,-0.0484,0.0048,0.0032,-0.10,-0.34,-1.22,0.296,2.411,11.516,-0.655
6923,-0.0478,0.0050,0.0036,-0.07,-0.46,-1.22,0.299,1.310,11.403,-0.397
6933,-0.0418,0.0057,0.0039,-0.03,-0.60,-1.23,0.299,-0.495,11.987,-0.590
6943,-0.0541,0.0056,0.0082,-0.00,-0.65,-1.24,0.299,2.310,11.812,-0.423
6954,-0.0533,0.0055,0.0085,0.00,-0.76,-1.24,0.299,-2.139,10.234,0.986
6963,-0.0520,0.0055,0.0087,0.01,-0.88,-1.25,0.299,-1.470,10.033,0.571
6974,-0.0532,0.0058,0.0093,-0.00,-0.98,-1.25,0.299,1.071,8.587,0.601
6984,-0.0515,0.0057,0.0102,-0.00,-1.08,-1.24,0.299,1.969,8.564,-0.316
6994,-0.0497,0.0057,0.0124,-0.01,-1.18,-1.24,0.299,-1.983,6.841,1.384
7004,-0.0487,0.0052,0.0128,-0.01,-1.25,-1.23,0.299,0.165,7.721,0.698
7014,-0.0466,0.0051,0.0134,0.01,-1.33,-1.23,0.299,4.149,6.319,0.161
7023,-0.0457,0.0051,0.0138,-0.02,-1.39,-1.22,0.299,-1.499,5.647,0.851
7034,-0.0433,0.0050,0.0141,0.01,-1.47,-1.22,0.299,-0.827,5.258,1.056
7043,-0.0405,0.0051,0.0138,0.03,-1.53,-1.21,0.299,4.664,5.757,-0.307
7053,-0.0379,0.0050,0.0138,0.02,-1.59,-1.20,0.299,5.175,5.461,0.380
7063,-0.0327,0.0062,0.0139,0.01,-1.65,-1.19,0.299,4.242,3.629,0.440
7073,-0.0298,0.0061,0.0143,0.06,-1.71,-1.19,0.300,0.429,2.698,1.179
7083,-0.0296,0.0116,0.0146,0.09,-1.75,-1.19,0.300,-1.765,0.052,1.426
7093,-0.0317,0.0088,0.0150,0.14,-1.76,-1.18,0.300,-2.455,-0.385,1.210
7104,-0.0287,0.0085,0.0150,0.15,-1.78,-1.17,0.300,3.212,-0.902,0.817
7114,-0.0248,0.0061,0.0150,0.14,-1.78,-1.16,0.300,2.513,-3.007,0.829
7123,-0.0190,0.0051,0.0150,0.13,-1.79,-1.15,0.300,3.117,-3.564,0.640
7134,-0.0137,0.0040,0.0149,0.17,-1.79,-1.14,0.300,3.651,-4.992,0.508
7143,-0.0088,0.0030,0.0138,0.20,-1.76,-1.13,0.300,1.378,-5.725,0.243
7154,-0.0058,0.0026,0.0137,0.23,-1.72,-1.13,0.300,-1.669,-5.642,1.647
7164,-0.0016,0.0016,0.0138,0.28,-1.68,-1.13,0.300,0.911,-5.974,1.328
7173,0.0013,0.0011,0.0137,0.27,-1.63,-1.12,0.299,1.714,-4.506,0.325
7184,0.0040,0.0005,0.0135,0.27,-1.57,-1.11,0.299,-0.767,-6.544,0.571
7194,0.0078,-0.0003,0.0087,0.28,-1.52,-1.10,0.299,-2.736,-9.220,0.692
7204,0.0110,0.0016,0.0088,0.28,-1.47,-1.09,0.299,-2.537,-10.002,0.758
7214,0.0158,0.0015,0.0085,0.27,-1.41,-1.09,0.299,-4.006,-9.912,1.504
7224,0.0200,0.0014,0.0081,0.24,-1.32,-1.08,0.302,-3.047,-11.655,0.954
7234,0.0219,0.0016,0.0082,0.21,-1.22,-1.07,0.302,-0.973,-11.973,0.814
7244,0.0275,-0.0005,0.0112,0.18,-1.13,-1.06,0.302,2.668,-12.203,0.303
7254,0.0284,-0.0028,0.0113,0.16,-1.00,-1.05,0.302,4.464,-13.444,-0.354
7264,0.0292,-0.0035,0.0114,0.17,-0.87,-1.04,0.302,-0.346,-14.429,1.151
7274,0.0356,-0.0005,0.0116,0.18,-0.77,-1.04,0.302,-1.734,-14.506,1.702
7284,0.0333,-0.0029,0.0119,0.23,-0.62,-1.04,0.302,0.479,-13.156,0.496
7293,0.0368,-0.0029,0.0128,0.21,-0.49,-1.03,0.302,-2.959,-13.408,1.994
7304,0.0376,-0.0033,0.0129,0.20,-0.34,-1.01,0.302,0.432,-12.627,1.359
7314,0.0489,-0.0031,0.0127,0.19,-0.27,-1.00,0.302,-4.901,-13.816,2.637
7324,0.0516,-0.0035,0.0127,0.18,-0.15,-0.99,0.302,-1.620,-12.479,1.095
7333,0.0499,-0.0029,0.0127,0.16,-0.01,-0.97,0.302,-4.752,-12.937,2.607
7343,0.0499,-0.0032,0.0115,0.13,0.13,-0.95,0.302,-0.091,-11.534,1.281
7353,0.0497,-0.0034,0.0118,0.09,0.25,-0.93,0.302,-3.782,-13.477,2.212
7363,0.0474,-0.0026,0.0122,0.06,0.39,-0.91,0.302,-5.195,-14.380,3.133
7373,0.0468,-0.0027,0.0120,0.05,0.52,-0.90,0.306,-2.486,-13.617,2.695
7383,0.0459,-0.0028,0.0120,0.01,0.65,-0.87,0.306,2.553,-13.556,1.081
7393,0.0534,-0.0015,0.0192,-0.05,0.75,-0.85,0.306,0.137,-12.627,1.156
7403,0.0562,-0.0018,0.0194,-0.04,0.86,-0.83,0.306,0.798,-11.906,1.250
7413,0.0529,-0.0017,0.0193,-0.04,1.01,-0.81,0.306,-0.624,-11.741,2.022
7423,0.0515,-0.0017,0.0192,-0.04,1.14,-0.79,0.306,-0.095,-9.731,1.382
7433,0.0500,-0.0015,0.0192,-0.04,1.25,-0.77,0.306,-0.896,-9.138,1.556
7443,0.0467,-0.0033,0.0210,-0.04,1.37,-0.75,0.306,-0.438,-8.062,1.033
7453,0.0493,-0.0030,0.0209,-0.04,1.44,-0.74,0.306,-1.255,-6.944,1.393
7463,0.0460,-0.0028,0.0207,-0.05,1.53,-0.73,0.306,-0.942,-6.953,1.913
7473,0.0467,-0.0025,0.0204,-0.05,1.59,-0.71,0.307,-1.026,-6.023,1.826
7483,0.0434,-0.0021,0.0200,-0.06,1.66,-0.69,0.307,-2.004,-4.955,1.607
7493,0.0384,-0.0037,0.0209,-0.05,1.74,-0.68,0.307,-1.485,-4.791,1.304
7503,0.0336,-0.0012,0.0204,-0.08,1.81,-0.66,0.307,-1.692,-3.267,1.063
7513,0.0305,-0.0011,0.0197,-0.10,1.85,-0.65,0.307,-1.114,-2.833,0.946
7523,0.0273,-0.0009,0.0194,-0.12,1.89,-0.63,0.306,-1.471,-1.238,1.213
7533,0.0241,-0.0006,0.0189,-0.13,1.92,-0.62,0.306,-0.747,0.120,0.787
7543,0.0209,-0.0004,0.0145,-0.14,1.94,-0.61,0.306,-0.280,1.147,1.059
7554,0.0176,-0.0001,0.0142,-0.16,1.95,-0.60,0.306,-0.203,2.487,1.853
7563,0.0143,0.0002,0.0137,-0.16,1.94,-0.59,0.306,-0.967,3.453,2.108
7573,0.0110,0.0005,0.0132,-0.17,1.92,-0.58,0.305,0.695,4.728,0.933
7583,0.0077,0.0008,0.0130,-0.16,1.89,-0.56,0.305,1.215,6.551,1.179
7593,0.0045,0.0011,0.0068,-0.16,1.85,-0.55,0.305,1.287,7.567,1.488
7603,0.0014,0.0014,0.0064,-0.16,1.80,-0.54,0.305,0.652,8.038,1.771
7613,-0.0017,0.0017,0.0061,-0.14,1.73,-0.52,0.305,0.881,8.760,2.166
7623,-0.0047,0.0020,0.0057,-0.13,1.65,-0.51,0.302,1.379,9.695,2.299
7633,-0.0075,0.0023,0.0057,-0.13,1.57,-0.49,0.302,1.176,10.809,2.509
7643,-0.0151,0.0021,-0.0052,-0.12,1.50,-0.47,0.302,1.650,10.321,2.759
7653,-0.0173,0.0020,-0.0054,-0.10,1.40,-0.45,0.302,1.711,10.793,2.685
7663,-0.0192,0.0018,-0.0053,-0.09,1.29,-0.42,0.302,1.098,11.265,3.643
7673,-0.0279,0.0063,-0.0054,-0.10,1.22,-0.39,0.304,0.759,12.200,4.023
7683,-0.0267,0.0037,-0.0053,-0.07,1.10,-0.36,0.304,1.104,11.774,3.335
7693,-0.0286,0.0038,-0.0064,-0.06,0.98,-0.33,0.304,0.533,11.465,3.746
7703,-0.0291,0.0035,-0.0061,-0.04,0.85,-0.29,0.304,0.192,11.866,4.277
7713,-0.0271,0.0058,-0.0057,-0.04,0.72,-0.25,0.304,2.838,11.875,4.045
7723,-0.0251,0.0032,-0.0048,-0.01,0.57,-0.21,0.302,0.283,12.486,3.906
7733,-0.0456,0.0050,-0.0042,-0.02,0.56,-0.17,0.302,3.019,12.055,3.885
7743,-0.0447,0.0070,-0.0084,-0.01,0.42,-0.13,0.302,-1.201,12.496,5.051
7754,-0.0416,0.0084,-0.0081,0.00,0.28,-0.09,0.302,1.216,10.939,4.774
7763,-0.0448,0.0083,-0.0073,0.01,0.17,-0.04,0.302,1.979,10.990,5.461
7773,-0.0451,0.0083,-0.0063,0.01,0.05,0.01,0.303,1.541,11.021,6.128
7783,-0.0460,0.0054,-0.0058,0.04,-0.06,0.06,0.303,-0.737,12.226,6.514
7793,-0.0488,0.0048,-0.0047,0.07,-0.16,0.11,0.303,2.856,10.704,6.722
7803,-0.0511,0.0132,-0.0041,0.03,-0.26,0.18,0.303,1.684,11.547,6.605
7813,-0.0534,0.0079,-0.0036,0.06,-0.36,0.24,0.303,3.377,10.675,6.767
7823,-0.0534,0.0079,-0.0036,0.06,-0.36,0.24,0.306,2.890,11.299,6.430
7833,-0.0510,0.0073,-0.0031,0.09,-0.49,0.30,0.306,3.488,12.505,6.445
7843,-0.0487,0.0063,0.0051,0.12,-0.61,0.37,0.306,-1.117,11.943,7.092
7853,-0.0490,0.0052,0.0061,0.18,-0.83,0.50,0.306,3.635,11.662,6.012
7863,-0.0475,0.0049,0.0068,0.19,-0.96,0.56,0.306,1.684,11.160,6.360
7873,-0.0475,0.0049,0.0068,0.19,-0.96,0.56,0.307,0.093,9.337,6.344
7883,-0.0411,0.0031,0.0083,0.26,-1.20,0.69,0.307,-2.141,10.162,6.304
7893,-0.0424,0.0087,0.0144,0.25,-1.28,0.75,0.307,0.333,7.096,6.743
7903,-0.0311,0.0064,0.0146,0.26,-1.43,0.82,0.307,-2.959,7.749,6.456
7913,-0.0386,0.0057,0.0147,0.24,-1.48,0.88,0.307,-0.382,4.175,6.167
7923,-0.0397,0.0075,0.0148,0.22,-1.53,0.95,0.306,0.485,2.144,5.994
7933,-0.0352,0.0089,0.0144,0.20,-1.60,1.01,0.306,-0.830,1.703,6.389
7943,-0.0309,0.0064,0.0134,0.20,-1.65,1.07,0.306,-0.184,0.307,5.832
7954,-0.0288,0.0062,0.0133,0.18,-1.67,1.13,0.306,0.245,0.117,5.712
7963,-0.0288,0.0062,0.0133,0.18,-1.67,1.13,0.306,0.923,-0.585,6.160
7973,-0.0222,0.0076,0.0128,0.17,-1.69,1.25,0.303,2.044,-1.268,5.564
7982,-0.0193,0.0074,0.0124,0.18,-1.69,1.31,0.303,1.949,-2.149,5.435
7993,-0.0165,0.0072,0.0037,0.19,-1.67,1.37,0.303,2.818,-2.857,5.340
8003,-0.0136,0.0069,0.0033,0.21,-1.66,1.43,0.303,3.270,-3.903,5.092
8013,-0.0088,0.0060,0.0027,0.24,-1.64,1.48,0.303,1.340,-4.514,4.748
8024,-0.0060,0.0057,0.0019,0.27,-1.61,1.53,0.305,0.374,-5.478,4.415
8033,-0.0042,0.0089,0.0015,0.28,-1.57,1.58,0.305,-0.013,-7.121,4.286
8043,-0.0046,0.0080,0.0004,0.31,-1.50,1.63,0.305,-0.931,-6.765,4.747
8054,-0.0011,0.0050,0.0002,0.34,-1.45,1.67,0.305,0.109,-9.001,3.555
8063,0.0064,0.0044,-0.0002,0.35,-1.41,1.72,0.305,0.157,-8.638,3.703
8074,0.0090,0.0035,-0.0004,0.35,-1.34,1.75,0.306,0.086,-8.699,3.300
8083,0.0113,0.0030,-0.0004,0.34,-1.26,1.79,0.306,0.669,-8.045,2.082
8093,0.0135,0.0025,0.0014,0.34,-1.17,1.82,0.306,-1.402,-8.608,2.091
8103,0.0136,0.0039,0.0014,0.31,-1.07,1.85,0.306,-1.566,-8.545,3.065
8113,0.0155,0.0038,0.0010,0.30,-0.98,1.88,0.306,-2.870,-9.367,2.868
8123,0.0172,0.0033,0.0007,0.29,-0.89,1.90,0.302,-1.795,-10.233,1.711
8134,0.0187,0.0029,0.0008,0.28,-0.80,1.93,0.302,-2.158,-10.654,1.997
8142,0.0237,0.0052,-0.0069,0.26,-0.71,1.95,0.302,-2.386,-11.378,1.905
8153,0.0250,0.0048,-0.0070,0.24,-0.61,1.97,0.302,-2.604,-11.237,1.834
8163,0.0362,0.0029,-0.0075,0.24,-0.55,1.99,0.302,-2.580,-10.539,1.845
8173,0.0338,0.0006,-0.0079,0.25,-0.42,2.01,0.307,-2.412,-11.272,1.133
8184,0.0335,0.0004,-0.0078,0.24,-0.29,2.02,0.307,-1.341,-10.272,1.553
8193,0.0373,0.0004,-0.0005,0.23,-0.21,2.03,0.307,-0.961,-11.351,0.800
8203,0.0376,0.0000,-0.0004,0.21,-0.10,2.04,0.307,-3.191,-10.838,1.655
8214,0.0366,-0.0001,-0.0007,0.21,0.01,2.05,0.307,-1.931,-12.430,0.189
8223,0.0355,-0.0020,-0.0009,0.21,0.13,2.06,0.306,-2.747,-11.734,0.799
8234,0.0353,-0.0023,-0.0005,0.21,0.25,2.07,0.306,0.753,-10.749,-0.701
8244,0.0401,-0.0020,0.0018,0.19,0.33,2.07,0.306,-1.365,-10.178,-0.136
8252,0.0300,-0.0006,0.0015,0.16,0.49,2.07,0.306,-4.572,-9.428,0.505
8263,0.0432,-0.0001,0.0013,0.13,0.52,2.07,0.306,-2.763,-10.498,-0.835
8272,0.0392,-0.0017,0.0016,0.12,0.65,2.07,0.308,-0.314,-8.569,-1.573
8282,0.0392,-0.0017,0.0016,0.12,0.65,2.07,0.308,-2.672,-7.370,-1.459
8292,0.0393,-0.0014,0.0075,0.07,0.82,2.06,0.308,-3.086,-7.046,-1.221
8302,0.0393,-0.0014,0.0075,0.07,0.82,2.06,0.308,-2.387,-6.505,-1.470
8312,0.0379,-0.0016,0.0073,0.04,0.91,2.05,0.308,-4.102,-7.130,-1.019
8322,0.0361,-0.0012,0.0071,0.01,0.99,2.04,0.304,-1.292,-6.270,-1.617
8333,0.0344,-0.0013,0.0074,-0.01,1.06,2.02,0.304,-0.057,-5.706,-2.046
8342,0.0326,-0.0031,0.0010,-0.01,1.13,2.01,0.304,-0.414,-5.688,-2.293
8352,0.0306,-0.0031,0.0009,-0.02,1.19,1.99,0.304,-0.023,-5.397,-2.582
8362,0.0286,-0.0032,0.0006,-0.03,1.25,1.97,0.304,0.636,-5.186,-2.673
8372,0.0265,-0.0032,0.0006,-0.04,1.30,1.95,0.308,-0.618,-4.297,-2.729
8382,0.0242,-0.0032,0.0010,-0.05,1.35,1.92,0.308,1.385,-2.512,-2.923
8392,0.0293,-0.0027,0.0064,-0.06,1.36,1.89,0.308,1.015,-1.235,-3.086
8403,0.0188,-0.0031,0.0066,-0.06,1.45,1.87,0.308,0.178,1.310,-4.252
8413,0.0163,-0.0030,0.0065,-0.06,1.47,1.84,0.308,-1.347,2.116,-4.525
8422,0.0138,-0.0030,0.0062,-0.06,1.49,1.80,0.308,-1.190,2.918,-4.707
8432,0.0113,-0.0030,0.0063,-0.08,1.49,1.77,0.308,-1.763,2.821,-4.329
8443,0.0087,-0.0029,0.0086,-0.09,1.48,1.73,0.308,-2.255,3.732,-4.766
8453,0.0062,-0.0029,0.0086,-0.10,1.46,1.69,0.308,-2.414,3.854,-4.695
8462,0.0037,-0.0028,0.0084,-0.12,1.43,1.64,0.308,-1.093,5.340,-5.570
8473,0.0019,0.0004,0.0084,-0.16,1.40,1.60,0.304,-0.878,6.291,-5.159
8482,0.0007,-0.0015,0.0084,-0.16,1.35,1.55,0.304,-0.588,6.825,-4.813
8492,-0.0026,-0.0011,-0.0000,-0.18,1.31,1.50,0.304,-0.097,7.170,-5.761
8502,-0.0058,0.0017,-0.0002,-0.20,1.25,1.45,0.304,-0.434,7.816,-5.111
8512,-0.0079,0.0020,-0.0006,-0.20,1.19,1.40,0.304,0.615,8.318,-5.091
8523,-0.0100,0.0023,-0.0008,-0.21,1.11,1.34,0.303,-0.640,8.494,-4.932
8533,-0.0194,0.0022,-0.0009,-0.20,1.08,1.29,0.303,0.354,8.634,-4.966
8543,-0.0187,0.0002,-0.0080,-0.18,0.98,1.24,0.303,-0.235,9.480,-5.324
8553,-0.0203,0.0052,-0.0084,-0.21,0.90,1.19,0.303,-0.825,9.860,-4.995
8563,-0.0262,0.0053,-0.0086,-0.21,0.83,1.14,0.303,-1.135,10.988,-4.823
8573,-0.0200,0.0058,-0.0085,-0.21,0.70,1.09,0.304,1.027,9.896,-4.034
8582,-0.0229,0.0038,-0.0085,-0.21,0.61,1.04,0.304,0.859,10.438,-4.028
8592,-0.0234,0.0038,-0.0097,-0.21,0.50,0.98,0.304,-0.443,12.536,-4.014
8603,-0.0238,0.0038,-0.0097,-0.21,0.40,0.94,0.304,0.636,11.916,-3.501
8612,-0.0245,0.0041,-0.0093,-0.19,0.30,0.90,0.304,2.023,10.243,-3.873
8623,-0.0250,0.0044,-0.0088,-0.20,0.19,0.86,0.304,5.282,8.144,-3.687
8632,-0.0247,0.0065,-0.0086,-0.20,0.06,0.82,0.304,4.097,8.041,-3.670
8642,-0.0248,0.0069,-0.0079,-0.19,-0.05,0.79,0.304,0.623,8.529,-2.977
8653,-0.0269,0.0061,-0.0070,-0.14,-0.13,0.75,0.304,0.663,9.701,-3.209
8663,-0.0378,0.0126,-0.0063,-0.12,-0.16,0.71,0.304,3.111,6.343,-3.657
8673,-0.0388,0.0123,-0.0056,-0.09,-0.24,0.68,0.302,0.284,7.414,-3.074
8683,-0.0359,0.0137,-0.0050,-0.10,-0.35,0.65,0.302,3.725,5.590,-2.999
8693,-0.0348,0.0133,-0.0080,-0.07,-0.42,0.61,0.302,1.335,7.919,-2.320
8703,-0.0361,0.0123,-0.0075,-0.05,-0.48,0.58,0.302,2.143,7.848,-2.638
8712,-0.0327,0.0139,-0.0069,-0.05,-0.56,0.55,0.302,3.662,6.433,-2.595
8723,-0.0318,0.0140,-0.0062,-0.02,-0.63,0.52,0.301,7.268,6.468,-2.993
8732,-0.0307,0.0140,-0.0056,-0.00,-0.71,0.50,0.301,6.773,6.574,-2.785
8743,-0.0294,0.0150,-0.0086,0.03,-0.78,0.47,0.301,5.849,8.716,-2.580
8752,-0.0281,0.0150,-0.0080,0.10,-0.84,0.45,0.301,6.005,7.751,-2.860
8762,-0.0289,0.0174,-0.0078,0.15,-0.90,0.42,0.301,0.221,8.877,-2.924
8772,-0.0274,0.0171,-0.0074,0.21,-0.97,0.40,0.304,-0.417,7.606,-2.544
8783,-0.0338,0.0144,-0.0068,0.28,-1.02,0.37,0.304,0.190,5.669,-2.757
8792,-0.0339,0.0221,-0.0011,0.27,-1.09,0.34,0.304,0.647,4.063,-2.306
8802,-0.0341,0.0209,-0.0008,0.27,-1.16,0.32,0.304,2.424,3.238,-2.757
8812,-0.0324,0.0196,-0.0001,0.28,-1.21,0.29,0.304,3.319,1.757,-1.926
8822,-0.0267,0.0181,0.0004,0.30,-1.28,0.27,0.302,4.555,2.116,-2.862
8832,-0.0245,0.0176,0.0010,0.32,-1.31,0.24,0.302,7.423,0.174,-3.070
8843,-0.0212,0.0178,0.0002,0.36,-1.33,0.22,0.302,5.233,2.619,-2.670
8852,-0.0244,0.0173,0.0008,0.40,-1.32,0.19,0.302,5.658,2.165,-2.745
8862,-0.0222,0.0167,0.0010,0.46,-1.34,0.16,0.302,4.234,3.034,-2.491
8872,-0.0167,0.0188,0.0010,0.50,-1.37,0.14,0.299,5.912,-1.125,-3.147
8882,-0.0154,0.0165,0.0015,0.55,-1.39,0.11,0.299,1.131,1.236,-2.630
8892,-0.0127,0.0162,-0.0054,0.61,-1.41,0.09,0.299,0.523,-0.240,-4.268
8902,-0.0097,0.0186,-0.0052,0.63,-1.43,0.06,0.299,0.414,-1.400,-4.364
8912,-0.0070,0.0149,-0.0051,0.67,-1.43,0.03,0.299,3.205,-4.469,-3.694
8922,-0.0048,0.0151,-0.0048,0.67,-1.43,-0.01,0.299,1.744,-2.766,-3.938
8932,-0.0010,0.0110,-0.0045,0.71,-1.41,-0.05,0.299,-0.979,-5.535,-3.473
8942,-0.0011,0.0152,-0.0082,0.71,-1.38,-0.10,0.299,0.814,-7.474,-3.269
8952,0.0003,0.0117,-0.0081,0.73,-1.35,-0.13,0.299,1.270,-7.539,-3.368
8962,0.0033,0.0100,-0.0079,0.73,-1.30,-0.17,0.299,-0.755,-8.018,-3.313
8972,0.0042,0.0063,-0.0076,0.76,-1.23,-0.20,0.304,0.620,-6.899,-4.080
8982,0.0106,0.0051,-0.0074,0.76,-1.18,-0.24,0.304,0.863,-9.304,-4.105
8993,0.0127,0.0037,0.0025,0.75,-1.10,-0.27,0.304,0.511,-8.032,-4.155
9002,0.0127,0.0061,0.0027,0.73,-1.02,-0.31,0.304,1.147,-7.290,-4.477
9012,0.0147,0.0047,0.0027,0.73,-0.94,-0.36,0.304,-2.951,-5.940,-3.884
9022,0.0204,0.0032,0.0028,0.73,-0.88,-0.40,0.301,-5.062,-7.183,-3.623
9032,0.0219,0.0020,0.0031,0.73,-0.81,-0.44,0.301,-3.355,-9.036,-3.113
9042,0.0233,0.0007,0.0022,0.70,-0.74,-0.48,0.301,-3.727,-6.414,-3.790
9052,0.0223,-0.0019,0.0024,0.68,-0.66,-0.52,0.301,-5.494,-8.275,-3.671
9062,0.0236,-0.0023,0.0026,0.64,-0.59,-0.55,0.301,-2.920,-10.458,-2.899
9073,0.0283,-0.0064,0.0031,0.62,-0.54,-0.59,0.301,-4.366,-9.353,-3.033
9082,0.0305,-0.0088,0.0035,0.58,-0.46,-0.62,0.301,-2.906,-12.046,-2.437
9092,0.0326,-0.0089,0.0028,0.54,-0.38,-0.66,0.301,-2.345,-9.981,-2.270
9102,0.0333,-0.0099,0.0031,0.50,-0.27,-0.69,0.301,-1.901,-11.271,-2.277
9113,0.0369,-0.0120,0.0033,0.48,-0.17,-0.72,0.301,-4.800,-10.844,-2.491
9122,0.0360,-0.0160,0.0036,0.47,-0.06,-0.74,0.301,-4.741,-8.757,-2.137
9132,0.0390,-0.0156,0.0040,0.46,0.03,-0.77,0.301,-2.221,-10.416,-2.332
9142,0.0390,-0.0164,0.0035,0.42,0.14,-0.79,0.301,-6.077,-9.861,-1.515
9152,0.0378,-0.0162,0.0038,0.37,0.23,-0.81,0.301,-7.934,-8.773,-0.937
9163,0.0374,-0.0169,0.0044,0.34,0.34,-0.84,0.301,-7.252,-7.708,-1.706
9172,0.0341,-0.0175,0.0048,0.30,0.45,-0.86,0.303,-4.080,-8.787,-1.153
9182,0.0330,-0.0163,0.0049,0.21,0.54,-0.87,0.303,-7.603,-7.269,-1.168
9192,0.0374,-0.0194,0.0087,0.15,0.59,-0.88,0.303,-6.934,-5.984,-0.670
9202,0.0320,-0.0178,0.0091,0.09,0.70,-0.89,0.303,-3.920,-5.195,0.411
9212,0.0308,-0.0179,0.0096,0.03,0.78,-0.91,0.303,-4.135,-5.014,0.180
9222,0.0372,-0.0229,0.0097,-0.01,0.80,-0.92,0.306,-5.486,-4.066,0.005
9232,0.0358,-0.0228,0.0100,-0.05,0.86,-0.92,0.306,-4.732,-3.498,-0.710
9242,0.0327,-0.0232,0.0181,-0.08,0.91,-0.92,0.306,-5.465,-1.606,-0.070
9252,0.0315,-0.0235,0.0182,-0.13,0.95,-0.92,0.306,-5.696,-0.250,-0.091
9262,0.0298,-0.0232,0.0182,-0.18,0.99,-0.93,0.306,-3.476,-3.084,-0.576
9272,0.0193,-0.0212,0.0182,-0.24,1.06,-0.93,0.300,-1.722,-3.661,-0.588
9281,0.0241,-0.0236,0.0184,-0.28,1.03,-0.93,0.300,-1.939,-2.405,-0.062
9292,0.0249,-0.0221,0.0073,-0.32,1.03,-0.93,0.300,-6.137,-2.267,1.407
9302,0.0220,-0.0225,0.0072,-0.34,1.08,-0.94,0.300,-1.576,-2.450,0.979
9311,0.0202,-0.0219,0.0071,-0.36,1.11,-0.94,0.300,-1.556,-0.404,0.870
9321,0.0183,-0.0212,0.0070,-0.41,1.13,-0.93,0.304,-2.307,0.235,1.325
9332,0.0177,-0.0217,0.0070,-0.43,1.15,-0.92,0.304,-3.639,2.093,1.494
9342,0.0158,-0.0209,0.0089,-0.46,1.15,-0.91,0.304,-2.287,4.099,0.234
9352,0.0156,-0.0228,0.0089,-0.46,1.15,-0.89,0.304,-4.892,5.532,0.827
9362,0.0137,-0.0220,0.0091,-0.49,1.13,-0.88,0.304,-3.079,5.245,1.986
9372,0.0117,-0.0211,0.0094,-0.52,1.09,-0.87,0.304,-1.071,2.497,2.011
9382,0.0104,-0.0232,0.0096,-0.55,1.04,-0.87,0.304,-1.499,5.058,1.892
9391,0.0087,-0.0222,0.0094,-0.58,0.99,-0.85,0.304,-3.135,3.596,2.034
9402,0.0070,-0.0212,0.0093,-0.60,0.96,-0.83,0.304,-2.522,2.622,2.457
9411,-0.0006,-0.0188,0.0095,-0.62,0.95,-0.81,0.304,0.923,2.504,2.560
9423,-0.0022,-0.0177,0.0095,-0.64,0.91,-0.79,0.300,-1.836,4.751,2.481
9432,0.0012,-0.0162,0.0093,-0.68,0.85,-0.77,0.300,-2.536,1.463,2.735
9441,-0.0059,-0.0143,-0.0004,-0.68,0.86,-0.74,0.300,-2.813,5.105,2.763
9452,-0.0074,-0.0131,-0.0004,-0.68,0.82,-0.72,0.300,-0.827,3.496,2.788
9462,-0.0098,-0.0110,-0.0007,-0.70,0.80,-0.69,0.300,0.565,5.085,2.340
9472,-0.0100,-0.0070,-0.0009,-0.74,0.76,-0.67,0.302,0.337,6.101,2.691
9482,-0.0164,-0.0054,-0.0007,-0.75,0.75,-0.64,0.302,0.513,7.456,2.103
9492,-0.0160,-0.0061,-0.0018,-0.73,0.70,-0.62,0.302,1.370,9.701,1.902
9502,-0.0171,-0.0049,-0.0019,-0.72,0.64,-0.59,0.302,2.536,9.317,2.384
9513,-0.0159,-0.0018,-0.0018,-0.72,0.56,-0.57,0.302,1.766,10.917,1.999
9522,-0.0169,-0.0005,-0.0012,-0.69,0.48,-0.55,0.304,3.589,9.657,2.252
9532,-0.0173,0.0004,-0.0007,-0.66,0.39,-0.53,0.304,5.759,9.477,2.952
9542,-0.0157,-0.0014,0.0030,-0.62,0.27,-0.52,0.304,5.520,9.047,2.814
9552,-0.0159,0.0010,0.0034,-0.57,0.18,-0.49,0.304,4.120,9.082,2.529
9563,-0.0162,0.0052,0.0036,-0.54,0.06,-0.46,0.304,5.020,7.044,2.241
9572,-0.0204,0.0052,0.0038,-0.47,-0.01,-0.44,0.301,7.324,3.701,1.941
9582,-0.0308,0.0092,0.0040,-0.45,-0.04,-0.42,0.301,5.053,4.118,2.865
9592,-0.0307,0.0099,-0.0008,-0.39,-0.12,-0.40,0.301,4.411,4.436,2.282
9602,-0.0309,0.0115,-0.0005,-0.32,-0.16,-0.37,0.301,4.245,3.494,3.091
9611,-0.0288,0.0171,-0.0006,-0.30,-0.21,-0.35,0.301,2.752,6.697,2.864
9622,-0.0289,0.0163,-0.0004,-0.26,-0.25,-0.32,0.304,6.822,4.507,2.365
9631,-0.0305,0.0158,-0.0000,-0.21,-0.28,-0.29,0.304,3.289,7.493,2.574
9642,-0.0303,0.0145,0.0041,-0.16,-0.33,-0.27,0.304,7.062,7.374,2.131
9651,-0.0295,0.0178,0.0041,-0.13,-0.38,-0.24,0.304,8.363,7.094,2.358
9661,-0.0289,0.0180,0.0043,-0.09,-0.45,-0.22,0.304,7.907,7.358,2.121
9672,-0.0281,0.0181,0.0049,-0.03,-0.53,-0.19,0.304,9.148,8.285,2.389
9681,-0.0269,0.0203,0.0055,0.03,-0.61,-0.17,0.304,7.275,7.319,2.162
9691,-0.0259,0.0203,0.0078,0.11,-0.69,-0.14,0.304,11.263,5.939,1.806
9701,-0.0225,0.0162,0.0080,0.22,-0.78,-0.12,0.304,5.539,7.401,2.481
9712,-0.0195,0.0173,0.0083,0.28,-0.88,-0.10,0.304,6.846,5.574,2.522
9722,-0.0143,0.0174,0.0079,0.37,-0.96,-0.08,0.304,5.294,3.983,1.634
9731,-0.0152,0.0151,0.0075,0.45,-1.02,-0.06,0.304,1.199,3.186,1.185
9741,-0.0124,0.0169,0.0077,0.50,-1.08,-0.03,0.304,-0.414,1.901,1.718
9752,-0.0098,0.0172,0.0077,0.56,-1.13,-0.01,0.304,2.748,-0.035,2.384
9761,-0.0092,0.0158,0.0074,0.58,-1.15,-0.00,0.304,3.525,-4.246,2.048
9771,-0.0070,0.0121,0.0073,0.59,-1.18,0.01,0.304,0.241,-3.898,1.102
9781,-0.0055,0.0121,0.0077,0.62,-1.18,0.04,0.304,1.437,-5.955,1.838
9791,-0.0034,0.0110,0.0072,0.64,-1.15,0.06,0.304,-0.311,-4.000,1.646
9802,-0.0004,0.0094,0.0072,0.66,-1.11,0.07,0.304,2.909,-6.671,0.725
9811,0.0064,0.0081,0.0072,0.67,-1.08,0.09,0.304,1.265,-6.370,1.112
9821,0.0033,0.0119,0.0071,0.65,-1.00,0.10,0.301,1.814,-6.212,0.665
9831,0.0076,0.0066,0.0068,0.70,-0.95,0.11,0.301,-0.035,-8.028,0.901
9841,0.0091,0.0054,-0.0009,0.71,-0.88,0.11,0.301,2.816,-6.719,0.200
9851,0.0107,0.0042,-0.0010,0.73,-0.82,0.12,0.301,1.617,-6.909,-0.327
9861,0.0127,0.0046,-0.0007,0.72,-0.75,0.13,0.301,-3.745,-4.936,0.226
9871,0.0125,0.0011,-0.0004,0.74,-0.68,0.13,0.304,1.370,-9.449,-0.057
9881,0.0136,-0.0002,-0.0003,0.76,-0.60,0.13,0.304,-2.091,-6.058,-0.112
9892,0.0147,-0.0017,0.0018,0.73,-0.55,0.13,0.304,-8.042,-4.922,1.165
9901,0.0142,-0.0006,0.0021,0.72,-0.46,0.13,0.304,-6.086,-7.204,-0.377
9911,0.0150,-0.0018,0.0022,0.70,-0.39,0.12,0.304,-3.101,-8.614,0.318
9922,0.0140,-0.0059,0.0020,0.66,-0.33,0.13,0.307,-0.842,-8.211,-0.274
9932,0.0146,-0.0071,0.0020,0.60,-0.26,0.13,0.307,-0.491,-9.692,-0.577
9941,0.0212,-0.0076,0.0095,0.55,-0.22,0.13,0.307,-5.547,-7.416,-0.116
9951,0.0272,-0.0081,0.0098,0.53,-0.17,0.12,0.307,-6.469,-4.739,-0.067
9962,0.0275,-0.0091,0.0098,0.52,-0.07,0.12,0.307,-4.081,-5.874,-0.015
9972,0.0280,-0.0085,0.0097,0.47,0.01,0.12,0.304,-3.914,-6.238,-1.037
9982,0.0281,-0.0104,0.0098,0.42,0.06,0.12,0.304,-5.962,-3.186,-1.130
9991,0.0279,-0.0102,0.0068,0.38,0.12,0.12,0.304,-5.590,-6.462,-0.472
10002,0.0244,-0.0095,0.0068,0.34,0.20,0.11,0.304,-3.636,-7.924,-0.476
10012,0.0224,-0.0127,0.0066,0.29,0.24,0.10,0.304,-5.911,-7.073,-1.211
10022,0.0219,-0.0131,0.0067,0.23,0.30,0.09,0.305,-6.730,-6.636,-0.749
10032,0.0271,-0.0132,0.0069,0.19,0.36,0.08,0.305,-1.163,-9.587,-1.229
10041,0.0265,-0.0135,0.0066,0.13,0.43,0.07,0.305,-4.999,-5.490,-0.661
10051,0.0217,-0.0154,0.0067,0.07,0.52,0.06,0.305,-6.482,-6.408,-0.585
10062,0.0208,-0.0155,0.0069,0.05,0.61,0.05,0.305,-4.759,-5.598,-0.748
10071,0.0180,-0.0181,0.0071,0.01,0.68,0.05,0.301,-0.791,-6.167,-1.538
10082,0.0169,-0.0181,0.0070,-0.04,0.74,0.04,0.301,-2.871,-4.112,-1.496
10092,0.0205,-0.0195,-0.0036,-0.09,0.77,0.03,0.301,-1.663,-3.698,-1.579
10101,0.0191,-0.0194,-0.0034,-0.10,0.83,0.02,0.301,-3.065,-1.116,-2.132
10111,0.0208,-0.0174,-0.0032,-0.13,0.87,0.00,0.301,-3.183,-0.008,-1.099
10121,0.0194,-0.0172,-0.0031,-0.14,0.90,-0.01,0.301,-6.751,0.400,-1.207
10131,0.0178,-0.0170,-0.0030,-0.17,0.91,-0.03,0.301,-3.056,1.224,-2.137
10141,0.0163,-0.0166,-0.0083,-0.20,0.91,-0.04,0.301,-1.686,0.267,-1.391
10151,0.0104,-0.0152,-0.0086,-0.26,0.93,-0.06,0.301,-5.356,0.137,-0.879
10161,0.0086,-0.0179,-0.0084,-0.29,0.92,-0.08,0.301,-2.694,0.332,-1.855
10171,0.0048,-0.0160,-0.0077,-0.33,0.93,-0.09,0.303,-5.218,0.998,-0.824
10181,0.0071,-0.0184,-0.0071,-0.37,0.90,-0.10,0.303,-1.023,0.060,-1.197
10190,0.0056,-0.0178,-0.0044,-0.41,0.89,-0.12,0.303,-1.311,0.278,-1.697
10201,0.0040,-0.0171,-0.0040,-0.45,0.89,-0.13,0.303,0.823,-0.221,-1.587
10212,0.0025,-0.0163,-0.0035,-0.46,0.88,-0.14,0.303,-0.279,2.471,-2.010
10221,0.0010,-0.0155,-0.0031,-0.48,0.88,-0.16,0.300,0.818,1.425,-2.116
10230,-0.0000,-0.0163,-0.0027,-0.47,0.87,-0.18,0.300,-0.689,2.498,-1.621
10241,-0.0015,-0.0155,-0.0069,-0.49,0.85,-0.19,0.300,0.286,1.770,-1.866
10251,-0.0030,-0.0146,-0.0062,-0.49,0.83,-0.21,0.300,-2.855,4.874,-2.318
10261,-0.0044,-0.0138,-0.0056,-0.50,0.80,-0.23,0.300,-1.678,4.212,-1.971
10271,-0.0047,-0.0141,-0.0053,-0.50,0.77,-0.25,0.305,-3.363,5.846,-1.772
10281,-0.0060,-0.0133,-0.0048,-0.54,0.73,-0.27,0.305,-0.323,4.044,-1.928
10290,-0.0105,-0.0134,0.0050,-0.55,0.70,-0.29,0.305,-1.673,6.319,-1.761
10301,-0.0117,-0.0125,0.0058,-0.58,0.65,-0.31,0.305,-0.368,7.066,-1.957
10311,-0.0112,-0.0130,0.0064,-0.58,0.59,-0.33,0.305,0.980,7.225,-2.147
10321,-0.0122,-0.0120,0.0072,-0.60,0.53,-0.35,0.304,-0.177,7.805,-2.515
10331,-0.0135,-0.0107,0.0078,-0.60,0.46,-0.37,0.304,1.524,6.030,-1.915
10341,-0.0143,-0.0097,0.0103,-0.59,0.39,-0.39,0.304,3.428,5.713,-2.384
10351,-0.0155,-0.0085,0.0110,-0.59,0.32,-0.42,0.304,1.459,5.941,-2.273
10361,-0.0189,-0.0033,0.0119,-0.60,0.27,-0.44,0.304,2.964,5.136,-2.709
10371,-0.0198,-0.0002,0.0129,-0.58,0.22,-0.46,0.306,2.144,4.904,-2.202
10381,-0.0230,0.0001,0.0135,-0.55,0.17,-0.48,0.306,1.276,4.445,-2.401
10390,-0.0282,0.0008,0.0185,-0.53,0.15,-0.51,0.306,1.532,4.808,-2.834
10401,-0.0284,0.0017,0.0190,-0.51,0.10,-0.54,0.306,1.803,4.706,-2.544
10411,-0.0289,0.0023,0.0193,-0.50,0.05,-0.56,0.306,1.548,6.950,-2.023
10421,-0.0293,0.0005,0.0199,-0.46,0.01,-0.59,0.304,4.064,8.129,-2.001
10431,-0.0270,0.0031,0.0206,-0.45,-0.05,-0.61,0.304,5.158,8.011,-2.155
10441,-0.0288,0.0030,0.0172,-0.42,-0.10,-0.64,0.304,3.448,8.796,-1.282
10451,-0.0262,0.0069,0.0174,-0.40,-0.19,-0.66,0.304,5.416,8.605,-2.017
10460,-0.0258,0.0076,0.0180,-0.34,-0.27,-0.68,0.304,4.298,9.037,-2.118
10471,-0.0253,0.0081,0.0183,-0.30,-0.36,-0.69,0.304,5.563,7.855,-2.172
10481,-0.0287,0.0120,0.0184,-0.26,-0.43,-0.71,0.304,3.740,8.479,-1.973
10491,-0.0277,0.0110,0.0138,-0.21,-0.52,-0.74,0.304,4.441,7.206,-2.189
10502,-0.0265,0.0125,0.0141,-0.16,-0.61,-0.76,0.304,2.699,7.348,-2.228
10512,-0.0339,0.0159,0.0142,-0.14,-0.64,-0.78,0.304,4.031,6.602,-1.990
10521,-0.0304,0.0171,0.0138,-0.10,-0.73,-0.80,0.305,4.520,4.879,-2.382
10531,-0.0292,0.0173,0.0136,-0.07,-0.80,-0.82,0.305,5.563,3.953,-2.374
10540,-0.0302,0.0160,0.0123,-0.03,-0.85,-0.84,0.305,5.339,4.044,-2.001
10551,-0.0287,0.0160,0.0124,0.01,-0.90,-0.86,0.305,6.686,3.799,-2.615
10561,-0.0298,0.0188,0.0123,0.05,-0.93,-0.89,0.305,6.415,2.975,-2.059
10571,-0.0265,0.0211,0.0124,0.09,-0.98,-0.91,0.306,5.974,3.093,-1.837
10581,-0.0248,0.0209,0.0125,0.16,-1.02,-0.94,0.306,7.362,2.855,-2.554
10590,-0.0231,0.0206,0.0121,0.22,-1.05,-0.96,0.306,6.323,2.582,-2.495
10600,-0.0208,0.0229,0.0122,0.27,-1.09,-0.98,0.306,6.662,1.642,-3.068
10611,-0.0189,0.0224,0.0125,0.34,-1.11,-1.01,0.306,5.304,1.292,-2.543
10620,-0.0180,0.0199,0.0125,0.41,-1.13,-1.03,0.309,5.602,1.248,-2.544
10630,-0.0161,0.0192,0.0124,0.47,-1.15,-1.06,0.309,6.515,0.139,-2.895
10641,-0.0134,0.0188,0.0181,0.53,-1.16,-1.08,0.309,4.532,-1.672,-3.059
10650,-0.0114,0.0179,0.0181,0.58,-1.17,-1.11,0.309,4.685,-1.782,-3.023
10661,-0.0094,0.0169,0.0179,0.64,-1.17,-1.14,0.309,3.707,-2.166,-3.059
10671,-0.0075,0.0157,0.0180,0.69,-1.16,-1.17,0.308,5.640,-2.253,-2.707
10681,-0.0034,0.0155,0.0182,0.73,-1.16,-1.20,0.308,1.781,-5.278,-2.691
10691,-0.0017,0.0171,0.0169,0.75,-1.13,-1.23,0.308,4.073,-4.197,-3.194
10700,0.0002,0.0158,0.0173,0.79,-1.10,-1.26,0.308,3.584,-5.475,-3.350
10710,0.0020,0.0144,0.0176,0.81,-1.06,-1.29,0.308,0.022,-5.364,-3.233
10720,0.0095,0.0094,0.0173,0.87,-1.05,-1.33,0.305,-0.102,-6.531,-3.351
10730,0.0123,0.0165,0.0171,0.86,-1.00,-1.37,0.305,-0.357,-6.641,-3.430
10741,0.0138,0.0150,0.0087,0.86,-0.94,-1.40,0.305,-1.055,-8.649,-3.415
10750,0.0154,0.0135,0.0087,0.86,-0.88,-1.43,0.305,1.487,-7.916,-3.475
10760,0.0239,0.0117,0.0086,0.85,-0.84,-1.47,0.305,3.919,-5.523,-3.682
10771,0.0253,0.0102,0.0087,0.83,-0.76,-1.50,0.309,3.592,-8.210,-3.495
10780,0.0269,0.0076,0.0088,0.85,-0.69,-1.53,0.309,3.360,-8.645,-4.010
10791,0.0278,0.0050,0.0112,0.88,-0.63,-1.57,0.309,-0.437,-11.143,-3.452
10800,0.0262,0.0052,0.0112,0.89,-0.53,-1.60,0.309,2.135,-11.897,-3.838
10810,0.0270,0.0036,0.0114,0.92,-0.44,-1.65,0.309,1.342,-11.989,-4.218
10820,0.0277,0.0020,0.0115,0.92,-0.33,-1.68,0.304,-1.090,-12.673,-3.888
10831,0.0283,0.0004,0.0116,0.93,-0.21,-1.72,0.304,-4.390,-14.231,-3.510
10841,0.0319,-0.0056,0.0016,0.94,-0.10,-1.76,0.304,-2.733,-11.092,-3.396
10851,0.0281,-0.0035,0.0018,0.91,0.05,-1.81,0.304,-7.509,-13.324,-3.152
10861,0.0317,-0.0043,0.0017,0.86,0.17,-1.85,0.304,-1.967,-9.513,-3.836
10871,0.0210,0.0030,0.0018,0.79,0.34,-1.88,0.310,-4.955,-9.070,-3.498
10881,0.0290,-0.0051,0.0021,0.77,0.42,-1.92,0.310,-6.437,-9.277,-4.119
10891,0.0299,-0.0099,0.0091,0.76,0.50,-1.96,0.310,-10.188,-7.370,-2.763
10901,0.0351,-0.0099,0.0095,0.70,0.56,-2.00,0.310,-7.138,-6.851,-4.033
10910,0.0292,-0.0153,0.0099,0.66,0.68,-2.04,0.310,-8.158,-4.023,-2.681
10921,0.0300,-0.0169,0.0103,0.57,0.75,-2.07,0.309,-5.461,-1.226,-2.727
10931,0.0287,-0.0178,0.0105,0.49,0.82,-2.11,0.309,-2.194,-2.299,-2.953
10940,0.0283,-0.0168,0.0113,0.40,0.85,-2.14,0.309,1.337,-1.859,-2.685
10951,0.0252,-0.0210,0.0114,0.37,0.87,-2.17,0.309,-3.112,-2.313,-2.318
10960,0.0226,-0.0233,0.0117,0.37,0.90,-2.20,0.309,-1.008,-1.896,-2.453
10971,0.0210,-0.0238,0.0118,0.36,0.92,-2.22,0.309,-8.293,-3.488,-1.728
10981,0.0182,-0.0279,0.0120,0.36,0.94,-2.24,0.309,-8.916,-3.809,-1.570
10991,0.0198,-0.0262,0.0110,0.32,0.95,-2.27,0.309,-7.561,-2.216,-1.773
11001,0.0148,-0.0240,0.0112,0.23,1.00,-2.28,0.309,-7.400,-1.665,-2.212
11011,0.0122,-0.0243,0.0113,0.15,1.03,-2.30,0.309,-12.502,-0.871,-1.073
11020,0.0078,-0.0224,0.0108,0.07,1.07,-2.32,0.310,-7.298,0.894,-2.191
11030,0.0074,-0.0277,0.0106,0.02,1.07,-2.34,0.310,-12.175,0.417,-0.315
11040,0.0055,-0.0277,0.0112,-0.10,1.08,-2.35,0.310,-8.588,2.297,-0.346
11050,0.0036,-0.0273,0.0112,-0.19,1.08,-2.37,0.310,-4.209,1.955,-1.885
11060,0.0015,-0.0321,0.0111,-0.27,1.07,-2.38,0.310,-3.010,3.779,-1.610
11070,-0.0003,-0.0315,0.0112,-0.35,1.05,-2.38,0.312,-8.634,5.145,-0.019
11080,0.0002,-0.0313,0.0115,-0.40,1.03,-2.40,0.312,-1.394,5.555,-2.086
11091,-0.0004,-0.0366,0.0150,-0.42,0.99,-2.42,0.312,-8.939,7.708,0.754
11100,-0.0030,-0.0344,0.0150,-0.51,0.95,-2.42,0.312,-3.073,7.513,-0.434
11111,-0.0090,-0.0308,0.0149,-0.56,0.91,-2.43,0.312,-5.416,6.994,-0.746
11120,-0.0090,-0.0304,0.0147,-0.64,0.83,-2.43,0.307,-8.075,6.953,0.136
11130,-0.0090,-0.0295,0.0142,-0.68,0.75,-2.44,0.307,-7.242,7.698,0.501
11141,-0.0089,-0.0319,0.0037,-0.71,0.67,-2.45,0.307,-7.298,6.790,1.188
11151,-0.0104,-0.0304,0.0037,-0.78,0.59,-2.45,0.307,-4.676,6.065,0.351
11160,-0.0101,-0.0309,0.0034,-0.84,0.51,-2.45,0.307,-3.536,4.514,-0.227
11170,-0.0135,-0.0314,0.0034,-0.89,0.45,-2.44,0.312,-3.380,4.494,0.729
11180,-0.0111,-0.0285,0.0037,-0.95,0.38,-2.43,0.312,-3.906,5.720,1.348
11190,-0.0126,-0.0273,0.0084,-0.98,0.34,-2.44,0.312,-2.977,5.784,1.142
11200,-0.0138,-0.0261,0.0084,-1.02,0.29,-2.43,0.312,-1.553,4.297,0.259
11210,-0.0130,-0.0269,0.0085,-1.05,0.23,-2.41,0.312,-2.285,4.749,0.707
11220,-0.0141,-0.0259,0.0084,-1.07,0.17,-2.41,0.310,-3.408,4.665,1.706
11230,-0.0133,-0.0248,0.0084,-1.08,0.13,-2.41,0.310,-3.820,5.438,2.278
11241,-0.0134,-0.0230,0.0058,-1.09,0.08,-2.40,0.310,-2.934,5.093,2.658
11251,-0.0124,-0.0218,0.0056,-1.11,0.02,-2.39,0.310,-1.169,3.453,1.773
11260,-0.0185,-0.0185,0.0055,-1.15,0.00,-2.37,0.310,0.055,1.628,1.451
11270,-0.0119,-0.0161,0.0061,-1.18,-0.08,-2.34,0.313,0.197,1.705,1.253
11280,-0.0148,-0.0173,0.0064,-1.17,-0.10,-2.33,0.313,-0.639,2.110,2.656
11290,-0.0157,-0.0148,0.0107,-1.17,-0.11,-2.32,0.313,1.463,0.520,1.468
11300,-0.0166,-0.0139,0.0109,-1.17,-0.12,-2.30,0.313,-0.422,3.143,2.767
11310,-0.0163,-0.0119,0.0111,-1.17,-0.14,-2.28,0.313,-1.223,3.644,3.364
11320,-0.0169,-0.0093,0.0111,-1.17,-0.15,-2.26,0.314,3.068,3.231,2.079
11330,-0.0166,-0.0073,0.0111,-1.16,-0.18,-2.23,0.314,4.445,3.052,1.242
11341,-0.0190,-0.0076,0.0146,-1.14,-0.20,-2.21,0.314,1.734,2.557,2.311
11350,-0.0159,-0.0098,0.0145,-1.10,-0.24,-2.19,0.314,1.345,3.733,2.981
11361,-0.0163,-0.0060,0.0146,-1.08,-0.28,-2.17,0.314,4.295,3.881,2.155
11370,-0.0146,-0.0007,0.0146,-1.07,-0.32,-2.15,0.312,6.201,2.821,1.471
11381,-0.0149,0.0004,0.0145,-1.04,-0.35,-2.13,0.312,1.675,1.942,2.101
11390,-0.0135,-0.0007,0.0100,-1.00,-0.39,-2.11,0.312,8.580,3.484,1.042
11400,-0.0121,0.0025,0.0097,-0.95,-0.42,-2.09,0.312,3.524,2.109,2.031
11410,-0.0113,0.0041,0.0094,-0.92,-0.45,-2.07,0.312,4.205,1.742,2.032
11420,-0.0104,0.0058,0.0091,-0.84,-0.49,-2.05,0.310,6.217,1.355,1.539
11430,-0.0095,0.0072,0.0087,-0.81,-0.51,-2.03,0.310,6.133,1.012,1.854
11440,-0.0086,0.0084,0.0008,-0.76,-0.53,-2.01,0.310,4.704,0.345,2.900
11450,-0.0076,0.0097,0.0003,-0.71,-0.55,-1.99,0.310,2.949,-0.542,3.505
11460,-0.0066,0.0108,-0.0001,-0.65,-0.56,-1.97,0.310,6.229,-2.104,2.260
11470,-0.0056,0.0119,-0.0002,-0.59,-0.56,-1.94,0.309,5.251,-2.832,2.709
11480,-0.0048,0.0134,-0.0004,-0.54,-0.55,-1.91,0.309,6.720,-2.859,2.036
11491,-0.0041,0.0148,-0.0081,-0.47,-0.54,-1.89,0.309,3.806,-3.771,1.675
11500,-0.0037,0.0118,-0.0082,-0.39,-0.51,-1.86,0.309,4.773,-3.698,1.833
11510,-0.0029,0.0124,-0.0082,-0.34,-0.47,-1.84,0.309,5.700,-2.242,1.891
11520,-0.0027,0.0098,-0.0081,-0.27,-0.44,-1.82,0.310,2.092,-1.823,2.481
11530,0.0038,0.0110,-0.0083,-0.24,-0.43,-1.79,0.310,1.885,-1.029,2.891
11540,0.0057,0.0155,-0.0094,-0.22,-0.41,-1.77,0.310,5.087,-1.958,1.474
11550,0.0064,0.0159,-0.0094,-0.19,-0.38,-1.75,0.310,4.759,-0.690,2.883
11560,0.0106,0.0147,-0.0093,-0.15,-0.39,-1.72,0.310,6.529,-2.257,1.080
11570,0.0112,0.0150,-0.0092,-0.11,-0.36,-1.70,0.310,6.049,-3.804,1.365
11580,0.0119,0.0151,-0.0088,-0.07,-0.35,-1.68,0.310,4.223,-5.319,1.911
11590,0.0125,0.0152,-0.0077,-0.01,-0.31,-1.67,0.310,4.639,-4.998,1.352
11599,0.0115,0.0118,-0.0072,0.06,-0.27,-1.65,0.310,3.525,-5.743,2.234
11610,0.0107,0.0127,-0.0070,0.10,-0.21,-1.63,0.310,2.669,-5.962,2.178
11620,0.0118,0.0114,-0.0067,0.14,-0.16,-1.62,0.307,2.430,-6.280,3.018
11630,0.0107,0.0124,-0.0064,0.16,-0.09,-1.60,0.307,-0.068,-5.371,3.776
11640,0.0114,0.0113,-0.0116,0.19,-0.03,-1.57,0.307,0.174,-5.177,3.424
11649,0.0121,0.0105,-0.0114,0.21,0.03,-1.54,0.307,0.985,-5.409,3.210
11660,0.0120,0.0102,-0.0112,0.21,0.08,-1.50,0.307,3.498,-3.766,2.864
11670,0.0126,0.0072,-0.0110,0.23,0.12,-1.46,0.309,1.093,-6.741,2.225
11680,0.0134,0.0060,-0.0108,0.24,0.18,-1.43,0.309,2.928,-3.022,2.428
11690,0.0136,0.0072,-0.0077,0.26,0.23,-1.40,0.309,-0.708,-4.327,2.149
11700,0.0132,0.0067,-0.0071,0.27,0.29,-1.38,0.309,1.078,-1.887,2.839
11710,0.0157,0.0062,-0.0066,0.29,0.31,-1.35,0.309,-2.592,-3.607,3.218
11720,0.0152,0.0057,-0.0061,0.28,0.35,-1.32,0.309,-0.276,-0.689,4.003
11729,0.0146,0.0053,-0.0057,0.27,0.37,-1.29,0.309,-2.807,-3.040,3.720
11740,0.0139,0.0048,-0.0032,0.26,0.39,-1.26,0.309,-1.202,-2.515,3.865
11750,0.0121,0.0026,-0.0027,0.25,0.42,-1.22,0.309,-1.574,-5.124,3.389
11760,0.0150,0.0021,-0.0021,0.24,0.42,-1.19,0.309,0.678,-3.068,3.185
11770,0.0107,0.0021,-0.0015,0.22,0.48,-1.15,0.305,2.806,-0.908,3.178
11780,0.0111,0.0016,-0.0010,0.21,0.51,-1.12,0.305,-2.049,-1.073,4.894
11789,0.0181,-0.0015,-0.0078,0.24,0.49,-1.08,0.305,0.194,-0.428,3.312
11800,0.0172,-0.0019,-0.0070,0.25,0.50,-1.05,0.305,-1.211,-1.134,2.613
11809,0.0135,-0.0042,-0.0066,0.23,0.53,-1.00,0.305,-4.061,-0.167,4.291
11819,0.0126,-0.0046,-0.0062,0.21,0.54,-0.97,0.308,-1.937,0.461,3.561
11830,0.0117,-0.0049,-0.0058,0.17,0.56,-0.93,0.308,-5.465,-1.474,3.991
11840,0.0104,-0.0068,-0.0026,0.14,0.56,-0.89,0.308,-5.911,-3.053,4.285
11851,0.0088,-0.0124,-0.0022,0.14,0.56,-0.86,0.308,-4.784,-2.856,3.056
11860,0.0113,-0.0112,-0.0013,0.08,0.57,-0.82,0.308,-0.195,-0.783,3.258
11869,0.0095,-0.0121,-0.0003,0.01,0.60,-0.77,0.308,-2.108,0.392,4.191
11880,0.0084,-0.0121,0.0004,-0.03,0.63,-0.74,0.308,-1.483,-0.367,2.580
11890,0.0073,-0.0121,0.0030,-0.04,0.63,-0.70,0.308,-4.095,1.303,3.947
11900,0.0102,-0.0202,0.0035,-0.04,0.61,-0.66,0.308,-5.509,1.176,3.455
11911,0.0069,-0.0185,0.0036,-0.09,0.62,-0.63,0.308,-7.204,3.193,4.724
11921,0.0058,-0.0188,0.0037,-0.13,0.61,-0.59,0.308,-3.593,2.548,3.539
11930,0.0030,-0.0168,0.0040,-0.18,0.60,-0.55,0.308,-3.544,1.987,3.202
11941,0.0020,-0.0165,0.0050,-0.24,0.57,-0.52,0.308,-0.917,3.414,2.800
11950,-0.0008,-0.0149,0.0054,-0.29,0.56,-0.48,0.308,-0.278,3.793,3.004
11960,-0.0033,-0.0159,0.0058,-0.32,0.54,-0.45,0.308,-4.056,1.770,2.947
11970,-0.0042,-0.0154,0.0065,-0.33,0.50,-0.42,0.310,-3.284,3.398,3.162
11980,-0.0051,-0.0148,0.0073,-0.36,0.47,-0.38,0.310,-5.729,3.246,4.290
11989,-0.0055,-0.0194,0.0120,-0.37,0.45,-0.35,0.310,-2.909,3.197,3.407
12000,-0.0062,-0.0188,0.0120,-0.39,0.42,-0.32,0.310,-5.607,5.027,4.433
12010,-0.0105,-0.0186,0.0121,-0.45,0.41,-0.29,0.310,-2.091,3.158,3.065
12020,-0.0099,-0.0183,0.0126,-0.47,0.37,-0.25,0.307,-3.368,3.173,3.425
12029,-0.0106,-0.0175,0.0128,-0.52,0.33,-0.22,0.307,0.938,5.710,3.372
12040,-0.0101,-0.0221,0.0075,-0.54,0.29,-0.18,0.307,-5.996,2.738,3.688
12049,-0.0106,-0.0212,0.0078,-0.54,0.24,-0.15,0.307,-3.757,4.504,3.067
12059,-0.0124,-0.0207,0.0079,-0.54,0.20,-0.12,0.307,-5.985,4.190,3.618
12069,-0.0127,-0.0198,0.0078,-0.60,0.16,-0.08,0.312,-3.972,4.730,2.449
12080,-0.0130,-0.0187,0.0079,-0.64,0.11,-0.05,0.312,0.637,7.889,2.831
12089,-0.0164,-0.0184,0.0150,-0.70,0.09,-0.02,0.312,1.208,5.467,1.829
12100,-0.0144,-0.0190,0.0149,-0.70,0.01,0.01,0.312,0.365,5.297,2.792
12110,-0.0144,-0.0178,0.0149,-0.69,-0.05,0.03,0.312,-0.006,4.260,2.381
12119,-0.0129,-0.0184,0.0149,-0.67,-0.12,0.06,0.307,-3.115,2.438,3.267
12129,-0.0136,-0.0166,0.0150,-0.68,-0.17,0.08,0.307,-7.100,0.777,3.739
12140,-0.0133,-0.0155,0.0063,-0.68,-0.20,0.11,0.307,-3.219,2.247,3.202
12149,-0.0130,-0.0143,0.0062,-0.73,-0.22,0.14,0.307,0.370,3.112,2.512
12160,-0.0126,-0.0131,0.0060,-0.78,-0.24,0.18,0.307,-0.445,1.259,3.004
12169,-0.0160,-0.0135,0.0056,-0.81,-0.23,0.21,0.305,-3.634,1.965,3.908
12180,-0.0156,-0.0121,0.0054,-0.80,-0.25,0.23,0.305,-4.433,0.470,3.992
12189,-0.0152,-0.0108,-0.0045,-0.82,-0.27,0.26,0.305,0.919,1.458,3.878
12199,-0.0189,-0.0080,-0.0042,-0.87,-0.26,0.30,0.305,2.921,1.173,3.378
12209,-0.0185,-0.0065,-0.0039,-0.88,-0.26,0.34,0.305,7.209,3.261,2.766
12220,-0.0181,-0.0050,-0.0037,-0.87,-0.27,0.38,0.311,0.707,1.059,3.632
12230,-0.0176,-0.0035,-0.0034,-0.83,-0.30,0.41,0.311,1.048,0.566,2.939
12239,-0.0171,-0.0020,0.0045,-0.77,-0.33,0.44,0.311,2.226,2.487,3.106
