time_ms,pos_x,pos_y,pos_z,vel_x,vel_y,vel_z,roll,pitch,yaw,thrust,motor_m1,gyro_x,gyro_y,gyro_z,acc_x,acc_y,acc_z,rate_roll,rate_pitch,rate_yaw
0,0.0233,0.2311,0.0088,-0.0012,-0.0043,0.0055,-0.85,0.68,-45.85,0,0.000,-0.007,-0.064,0.003,0.015,-0.015,1.000,0.000,0.000,0.000
100,0.0236,0.2314,0.0081,0.0006,-0.0027,0.0015,-0.88,0.67,-45.80,0,0.000,0.169,-0.044,-0.473,0.013,-0.016,0.999,0.000,0.000,0.000
202,0.0220,0.2315,0.0081,-0.0085,-0.0017,0.0014,-0.88,0.62,-45.76,0,0.000,0.117,-0.069,0.009,0.010,-0.016,1.000,0.000,0.000,0.000
303,0.0226,0.2318,0.0081,-0.0048,-0.0002,0.0015,-0.88,0.61,-45.72,0,0.000,-0.350,0.034,0.190,0.012,-0.016,1.001,0.000,0.000,0.000
403,0.0233,0.2311,0.0081,-0.0004,-0.0044,0.0016,-0.93,0.65,-45.67,0,0.000,0.019,-0.003,0.086,0.014,-0.014,0.999,0.000,0.000,0.000
504,0.0236,0.2308,0.0081,0.0014,-0.0059,0.0016,-0.88,0.65,-45.63,0,0.000,-0.087,0.035,0.107,0.013,-0.013,1.000,0.000,0.000,0.000
605,0.0239,0.2322,0.0081,0.0033,0.0023,0.0013,-0.90,0.65,-45.58,0,0.000,-0.149,0.040,-0.187,0.014,-0.015,1.000,0.000,0.000,0.000
706,0.0229,0.2315,0.0081,-0.0024,-0.0019,0.0013,-0.85,0.65,-45.54,0,0.000,-0.145,-0.010,0.235,0.012,-0.017,1.001,0.000,0.000,0.000
808,0.0231,0.2318,0.0081,-0.0008,-0.0002,0.0014,-0.88,0.66,-45.49,0,0.000,-0.055,0.232,-0.121,0.012,-0.016,1.000,0.000,0.000,0.000
908,0.0224,0.2311,0.0082,-0.0048,-0.0042,0.0015,-0.89,0.62,-45.45,0,0.000,0.168,-0.123,-0.093,0.014,-0.015,1.000,0.000,0.000,0.000
1010,0.0224,0.2311,0.0082,-0.0045,-0.0043,0.0014,-0.92,0.64,-45.41,0,0.000,-0.039,-0.213,-0.296,0.014,-0.014,1.004,0.000,0.000,0.000
1111,0.0227,0.2317,0.0081,-0.0024,-0.0009,0.0010,-0.84,0.65,-45.36,0,0.000,-0.072,-0.036,0.135,0.011,-0.016,1.000,0.000,0.000,0.000
1213,0.0234,0.2312,0.0081,0.0020,-0.0034,0.0011,-0.87,0.69,-45.32,0,0.000,0.027,0.138,-0.112,0.013,-0.013,0.999,0.000,0.000,0.000
1313,0.0236,0.2320,0.0081,0.0027,0.0007,0.0012,-0.86,0.66,-45.28,0,0.000,0.129,0.129,0.009,0.013,-0.013,1.000,0.000,0.000,0.000
1414,0.0221,0.2320,0.0082,-0.0053,0.0007,0.0013,-1.07,0.60,-45.23,0,0.000,-0.086,0.066,-0.176,0.013,-0.015,1.001,0.000,0.000,0.000
1515,0.0221,0.2314,0.0082,-0.0049,-0.0026,0.0015,-0.97,0.62,-45.19,0,0.000,0.032,-0.200,0.136,0.012,-0.014,1.001,0.000,0.000,0.000
1616,0.0265,0.2338,0.0077,0.0202,0.0108,-0.0008,-1.08,0.65,-45.15,0,0.000,0.042,0.134,0.055,0.012,-0.014,1.002,0.000,0.000,0.000
1717,0.0248,0.2326,0.0078,0.0098,0.0040,-0.0002,-1.04,0.64,-45.10,0,0.000,0.306,0.018,-0.188,0.013,-0.015,1.001,0.000,0.000,0.000
1818,0.0261,0.2347,0.0078,0.0168,0.0157,-0.0006,-1.01,0.62,-45.06,0,0.000,0.061,0.053,-0.144,0.014,-0.016,1.000,0.000,0.000,0.000
1919,0.0258,0.2342,0.0078,0.0147,0.0119,-0.0003,-0.98,0.58,-45.01,0,0.000,-0.331,-0.026,-0.098,0.015,-0.014,1.000,0.000,0.000,0.000
2021,0.0258,0.2336,0.0078,0.0143,0.0083,0.0000,-0.99,0.61,-44.97,0,0.000,-0.011,-0.069,-0.203,0.014,-0.013,1.003,0.000,0.000,0.000
2121,0.0261,0.2328,0.0092,0.0154,0.0035,0.0073,-0.99,0.61,-44.93,0,0.000,0.232,-0.024,-0.220,0.013,-0.016,1.004,0.000,0.000,0.000
2223,0.0260,0.2332,0.0092,0.0141,0.0057,0.0075,-1.06,0.64,-44.88,0,0.000,-0.042,0.095,0.176,0.013,-0.016,1.004,0.000,0.000,0.000
2324,0.0261,0.2333,0.0093,0.0144,0.0057,0.0077,-0.96,0.59,-44.84,0,0.000,0.067,0.541,-0.136,0.012,-0.014,1.003,0.000,0.000,0.000
2426,0.0270,0.2350,0.0094,0.0188,0.0151,0.0075,-0.73,0.56,-44.79,0,0.000,-0.001,-0.080,-0.143,0.014,-0.014,1.001,0.000,0.000,0.000
2528,0.0263,0.2328,0.0095,0.0143,0.0020,0.0082,-0.70,0.64,-44.75,0,0.000,-0.106,0.050,-0.032,0.013,-0.014,1.000,0.000,0.000,0.000
2630,0.0233,0.2290,0.0082,-0.0025,-0.0197,0.0008,-0.76,0.63,-44.71,0,0.000,-0.302,0.049,-0.107,0.011,-0.016,1.000,0.000,0.000,0.000
2732,0.0216,0.2296,0.0082,-0.0122,-0.0158,0.0012,-0.77,0.61,-44.66,0,0.000,-0.168,0.056,0.067,0.014,-0.014,1.003,0.000,0.000,0.000
2834,0.0224,0.2301,0.0082,-0.0068,-0.0120,0.0018,-0.78,0.58,-44.62,0,0.000,0.023,-0.118,0.132,0.014,-0.015,1.002,0.000,0.000,0.000
2936,0.0229,0.2300,0.0083,-0.0040,-0.0123,0.0022,-0.54,0.58,-44.57,0,0.000,-0.061,0.045,-0.039,0.013,-0.016,1.000,0.000,0.000,0.000
0,0.0234,0.2294,0.0083,-0.0003,-0.0151,0.0023,-0.49,0.63,-44.53,0,0.000,-0.306,0.153,0.021,0.012,-0.016,1.001,0.000,0.000,0.000
0,0.0197,0.2256,0.0081,-0.0209,-0.0355,0.0010,-0.50,0.63,-44.49,0,0.000,0.065,-0.011,-0.063,0.015,-0.014,1.000,0.000,0.000,0.000
0,0.0179,0.2252,0.0081,-0.0305,-0.0365,0.0007,-0.55,0.67,-44.44,0,0.000,-0.048,0.082,0.056,0.014,-0.015,1.000,0.000,0.000,0.000
0,0.0177,0.2250,0.0081,-0.0298,-0.0359,0.0011,-0.57,0.59,-44.40,0,0.000,0.113,0.246,0.091,0.013,-0.015,1.001,0.000,0.000,0.000
0,0.0176,0.2260,0.0082,-0.0292,-0.0290,0.0018,-0.57,0.58,-44.36,0,0.000,0.140,0.056,-0.114,0.013,-0.016,1.000,0.000,0.000,0.000
0,0.0189,0.2248,0.0083,-0.0207,-0.0350,0.0021,-0.55,0.64,-44.32,0,0.000,-0.035,0.049,0.035,0.013,-0.016,1.000,0.000,0.000,0.000
0,0.0186,0.2244,0.0073,-0.0209,-0.0356,-0.0027,-0.54,0.64,-44.27,0,0.000,-0.242,0.225,0.449,0.012,-0.016,1.002,0.000,0.000,0.000
0,0.0173,0.2245,0.0073,-0.0272,-0.0334,-0.0027,-0.58,0.60,-44.23,0,0.000,0.001,0.420,-0.167,0.013,-0.014,1.002,0.000,0.000,0.000
1,0.0168,0.2241,0.0073,-0.0283,-0.0346,-0.0028,-0.64,0.65,-44.19,0,0.000,-0.040,0.006,0.014,0.013,-0.016,1.003,0.000,0.000,0.000
1,0.0177,0.2238,0.0073,-0.0218,-0.0348,-0.0023,-0.63,0.60,-44.14,0,0.000,-0.031,0.008,0.089,0.012,-0.017,1.000,0.000,0.000,0.000
1,0.0177,0.2253,0.0074,-0.0209,-0.0251,-0.0017,-0.68,0.62,-44.10,0,0.000,0.059,0.218,0.156,0.013,-0.015,1.001,0.000,0.000,0.000
1,0.0181,0.2241,0.0072,-0.0181,-0.0307,-0.0025,-0.69,0.64,-44.06,0,0.000,0.060,0.015,-0.260,0.013,-0.014,0.999,0.000,0.000,0.000
1,0.0182,0.2249,0.0072,-0.0164,-0.0252,-0.0020,-0.68,0.66,-44.01,0,0.000,-0.166,-0.030,0.283,0.016,-0.015,1.001,0.000,0.000,0.000
1,0.0179,0.2252,0.0072,-0.0172,-0.0226,-0.0018,-0.62,0.71,-43.97,0,0.000,0.070,-0.059,-0.214,0.014,-0.017,1.002,0.000,0.000,0.000
1,0.0172,0.2250,0.0072,-0.0204,-0.0226,-0.0016,-0.73,0.65,-43.93,0,0.000,-0.075,-0.010,-0.060,0.012,-0.018,0.999,0.000,0.000,0.000
1,0.0153,0.2248,0.0071,-0.0302,-0.0227,-0.0019,-0.72,0.65,-43.88,0,0.000,0.103,0.009,0.099,0.012,-0.019,0.997,0.000,0.000,0.000
1,0.0177,0.2253,0.0072,-0.0148,-0.0190,-0.0014,-0.72,0.65,-43.84,0,0.000,-0.278,0.079,0.075,0.014,-0.019,0.999,0.000,0.000,0.000
2,0.0173,0.2249,0.0071,-0.0163,-0.0208,-0.0015,-0.69,0.65,-43.80,0,0.000,0.165,0.001,0.112,0.013,-0.015,1.002,0.000,0.000,0.000
2,0.0171,0.2247,0.0071,-0.0161,-0.0213,-0.0014,-0.71,0.64,-43.75,0,0.000,0.192,-0.243,0.176,0.011,-0.016,1.001,0.000,0.000,0.000
2,0.0166,0.2241,0.0071,-0.0187,-0.0241,-0.0013,-0.73,0.68,-43.71,0,0.000,-0.001,-0.140,-0.182,0.013,-0.016,0.999,0.000,0.000,0.000
2,0.0167,0.2239,0.0071,-0.0170,-0.0240,-0.0013,-0.77,0.61,-43.67,0,0.000,-0.156,0.115,0.587,0.015,-0.017,1.002,0.000,0.000,0.000
2,0.0163,0.2247,0.0062,-0.0190,-0.0188,-0.0062,-0.77,0.65,-43.63,0,0.000,-0.004,-0.121,0.061,0.013,-0.016,1.001,0.000,0.000,0.000
2,0.0178,0.2241,0.0062,-0.0095,-0.0215,-0.0061,-0.82,0.65,-43.58,0,0.000,-0.146,-0.129,-0.205,0.014,-0.016,1.000,0.000,0.000,0.000
2,0.0170,0.2246,0.0061,-0.0132,-0.0181,-0.0057,-0.74,0.61,-43.54,0,0.000,-0.008,-0.013,0.193,0.015,-0.014,0.998,0.000,0.000,0.000
2,0.0169,0.2244,0.0061,-0.0134,-0.0183,-0.0056,-0.94,0.60,-43.50,0,0.000,-0.045,-0.130,-0.073,0.016,-0.014,0.999,0.000,0.000,0.000
2,0.0175,0.2251,0.0061,-0.0093,-0.0141,-0.0055,-1.02,0.61,-43.46,0,0.000,-0.179,0.036,-0.085,0.016,-0.015,0.999,0.000,0.000,0.000
2,0.0170,0.2228,0.0056,-0.0117,-0.0256,-0.0077,-1.03,0.62,-43.42,0,0.000,0.036,0.146,-0.122,0.014,-0.016,0.998,0.000,0.000,0.000
3,0.0214,0.2274,0.0056,0.0130,-0.0001,-0.0071,-0.98,0.62,-43.37,0,0.000,-0.014,0.181,0.148,0.015,-0.015,1.000,0.000,0.000,0.000
3,0.0216,0.2278,0.0055,0.0133,0.0023,-0.0072,-0.97,0.66,-43.33,0,0.000,0.045,-0.185,-0.315,0.013,-0.015,1.000,0.000,0.000,0.000
3,0.0208,0.2271,0.0055,0.0092,-0.0021,-0.0071,-0.83,0.58,-43.29,0,0.000,-0.031,0.108,-0.107,0.013,-0.015,1.000,0.000,0.000,0.000
3,0.0201,0.2275,0.0054,0.0051,0.0003,-0.0071,-1.02,0.63,-43.25,0,0.000,0.139,0.249,-0.021,0.012,-0.017,1.002,0.000,0.000,0.000
3,0.0193,0.2239,0.0057,0.0009,-0.0194,-0.0056,-0.97,0.61,-43.21,0,0.000,0.393,-0.277,-0.045,0.012,-0.013,1.001,0.000,0.000,0.000
3,0.0214,0.2277,0.0057,0.0125,0.0018,-0.0053,-0.96,0.61,-43.17,0,0.000,-0.026,-0.091,0.071,0.012,-0.014,1.001,0.000,0.000,0.000
3,0.0211,0.2265,0.0057,0.0108,-0.0047,-0.0051,-0.93,0.61,-43.12,0,0.000,-0.093,0.060,0.011,0.014,-0.016,1.001,0.000,0.000,0.000
3,0.0212,0.2264,0.0056,0.0111,-0.0047,-0.0051,-0.66,0.62,-43.08,0,0.000,0.058,-0.195,0.057,0.013,-0.015,0.999,0.000,0.000,0.000
3,0.0208,0.2260,0.0056,0.0083,-0.0071,-0.0050,-0.71,0.69,-43.04,0,0.000,0.434,0.179,0.056,0.010,-0.016,1.000,0.000,0.000,0.000
3,0.0167,0.2216,0.0070,-0.0148,-0.0309,0.0029,-0.61,0.62,-43.00,0,0.000,0.196,0.355,-0.157,0.012,-0.016,0.999,0.000,0.000,0.000
3,0.0160,0.2231,0.0071,-0.0175,-0.0212,0.0035,-0.63,0.66,-42.96,0,0.000,0.068,0.048,0.073,0.013,-0.016,1.001,0.000,0.000,0.000
3,0.0155,0.2204,0.0071,-0.0195,-0.0352,0.0031,-0.66,0.62,-42.91,0,0.000,0.001,-0.038,-0.203,0.013,-0.016,1.000,0.000,0.000,0.000
3,0.0149,0.2209,0.0071,-0.0218,-0.0306,0.0034,-0.69,0.62,-42.87,0,0.000,-0.166,-0.052,-0.156,0.012,-0.015,1.001,0.000,0.000,0.000
3,0.0158,0.2207,0.0072,-0.0158,-0.0306,0.0037,-0.69,0.62,-42.83,0,0.000,-0.472,0.035,0.348,0.012,-0.014,1.002,0.000,0.000,0.000
4,0.0161,0.2207,0.0072,-0.0136,-0.0291,0.0032,-0.70,0.60,-42.79,0,0.000,-0.133,0.015,0.202,0.014,-0.015,1.001,0.000,0.000,0.000
4,0.0158,0.2204,0.0072,-0.0145,-0.0296,0.0032,-0.70,0.60,-42.75,0,0.000,-0.007,0.016,-0.101,0.013,-0.014,0.999,0.000,0.000,0.000
4,0.0160,0.2200,0.0072,-0.0129,-0.0308,0.0032,-0.65,0.60,-42.71,0,0.000,0.001,-0.083,-0.087,0.012,-0.013,0.999,0.000,0.000,0.000
4,0.0159,0.2197,0.0073,-0.0130,-0.0312,0.0033,-0.69,0.69,-42.66,0,0.000,-0.436,0.228,0.117,0.013,-0.014,1.002,0.000,0.000,0.000
4,0.0150,0.2187,0.0073,-0.0172,-0.0350,0.0032,-0.73,0.64,-42.62,0,0.000,0.123,-0.022,0.074,0.014,-0.016,1.001,0.000,0.000,0.000
4,0.0138,0.2204,0.0068,-0.0225,-0.0243,0.0009,-0.76,0.64,-42.58,0,0.000,0.026,-0.210,0.033,0.013,-0.016,1.001,0.000,0.000,0.000
4,0.0151,0.2201,0.0069,-0.0144,-0.0246,0.0013,-0.76,0.64,-42.54,0,0.000,-0.234,-0.099,0.000,0.014,-0.014,1.002,0.000,0.000,0.000
4,0.0154,0.2202,0.0069,-0.0119,-0.0233,0.0013,-0.77,0.68,-42.49,0,0.000,-0.048,-0.139,0.320,0.012,-0.013,1.004,0.000,0.000,0.000
4,0.0153,0.2199,0.0069,-0.0118,-0.0233,0.0013,-0.82,0.62,-42.50,0,0.000,0.174,0.110,-0.228,0.011,-0.016,1.001,0.000,0.000,0.000
4,0.0146,0.2206,0.0069,-0.0147,-0.0188,0.0016,-0.83,0.66,-42.41,0,0.000,0.007,-0.126,-0.188,0.014,-0.015,1.001,0.000,0.000,0.000
4,0.0164,0.2202,0.0070,-0.0042,-0.0201,0.0020,-0.81,0.65,-42.41,0,0.000,0.239,-0.154,-0.124,0.015,-0.016,1.001,0.000,0.000,0.000
4,0.0158,0.2208,0.0070,-0.0074,-0.0159,0.0022,-0.84,0.67,-42.33,0,0.000,0.021,0.005,-0.029,0.013,-0.014,1.000,0.000,0.000,0.000
4,0.0155,0.2202,0.0071,-0.0083,-0.0185,0.0024,-0.78,0.70,-42.33,0,0.000,0.183,-0.046,-0.256,0.013,-0.017,1.003,0.000,0.000,0.000
4,0.0155,0.2208,0.0071,-0.0079,-0.0141,0.0028,-0.85,0.63,-42.25,0,0.000,0.137,0.012,-0.065,0.013,-0.015,1.001,0.000,0.000,0.000
4,0.0142,0.2201,0.0071,-0.0142,-0.0170,0.0028,-0.86,0.66,-42.25,0,0.000,-0.143,-0.109,0.026,0.013,-0.014,1.000,0.000,0.000,0.000
4,0.0161,0.2202,0.0075,-0.0032,-0.0158,0.0051,-0.84,0.65,-42.17,0,0.000,-0.026,-0.029,-0.243,0.012,-0.017,1.001,0.000,0.000,0.000
4,0.0158,0.2205,0.0076,-0.0046,-0.0136,0.0053,-0.85,0.67,-42.17,0,0.000,-0.001,0.257,0.208,0.011,-0.015,1.000,0.000,0.000,0.000
4,0.0157,0.2201,0.0076,-0.0049,-0.0154,0.0054,-0.87,0.67,-42.13,0,0.000,0.037,-0.011,-0.208,0.013,-0.015,1.000,0.000,0.000,0.000
5,0.0153,0.2204,0.0077,-0.0064,-0.0132,0.0057,-0.86,0.66,-42.09,0,0.000,-0.186,0.093,0.014,0.014,-0.016,1.001,0.000,0.000,0.000
0,0.0156,0.2207,0.0078,-0.0044,-0.0108,0.0058,-0.87,0.66,-42.05,0,0.000,0.187,-0.001,-0.156,0.015,-0.015,1.001,0.000,0.000,0.000
0,0.0155,0.2202,0.0079,-0.0047,-0.0128,0.0063,-0.87,0.66,-42.00,0,0.000,-0.009,0.031,-0.171,0.013,-0.019,1.000,0.000,0.000,0.000
0,0.0156,0.2204,0.0080,-0.0038,-0.0112,0.0064,-0.88,0.64,-41.97,0,0.000,0.195,0.139,-0.164,0.015,-0.017,1.000,0.000,0.000,0.000
0,0.0155,0.2202,0.0081,-0.0044,-0.0115,0.0064,-0.99,0.68,-41.93,0,0.000,-0.119,0.199,0.094,0.014,-0.017,1.001,0.000,0.000,0.000
0,0.0160,0.2198,0.0081,-0.0014,-0.0133,0.0064,-0.99,0.72,-41.88,0,0.000,-0.060,0.363,0.071,0.013,-0.016,1.002,0.000,0.000,0.000
0,0.0170,0.2223,0.0082,0.0049,0.0009,0.0067,-0.89,0.72,-41.84,0,0.000,-0.128,-0.117,-0.168,0.014,-0.016,1.002,0.000,0.000,0.000
0,0.0162,0.2230,0.0086,0.0005,0.0047,0.0086,-0.93,0.69,-41.80,0,0.000,-0.026,0.336,-0.010,0.014,-0.013,1.001,0.000,0.000,0.000
1,0.0148,0.2214,0.0087,-0.0074,-0.0045,0.0088,-0.93,0.69,-41.76,0,0.000,0.103,0.299,-0.371,0.013,-0.015,0.999,0.000,0.000,0.000
1,0.0159,0.2216,0.0088,-0.0013,-0.0034,0.0089,-1.19,0.70,-41.72,0,0.000,-0.190,0.040,-0.047,0.012,-0.014,1.000,0.000,0.000,0.000
1,0.0159,0.2216,0.0089,-0.0012,-0.0035,0.0090,-1.19,0.75,-41.68,0,0.000,-0.022,0.116,-0.164,0.011,-0.014,1.003,0.000,0.000,0.000
1,0.0158,0.2216,0.0090,-0.0011,-0.0036,0.0092,-1.17,0.70,-41.64,0,0.000,0.102,0.185,0.033,0.012,-0.016,0.999,0.000,0.000,0.000
1,0.0188,0.2272,0.0087,0.0148,0.0265,0.0071,-1.15,0.69,-41.60,0,0.000,-0.182,-0.116,0.135,0.013,-0.016,0.999,0.000,0.000,0.000
1,0.0195,0.2266,0.0088,0.0179,0.0223,0.0073,-1.15,0.69,-41.56,0,0.000,-0.187,-0.183,-0.114,0.011,-0.017,0.999,0.000,0.000,0.000
1,0.0195,0.2263,0.0089,0.0174,0.0197,0.0074,-1.17,0.69,-41.52,0,0.000,-0.165,0.441,-0.208,0.013,-0.017,1.001,0.000,0.000,0.000
2,0.0196,0.2265,0.0089,0.0177,0.0202,0.0076,-1.00,0.61,-41.48,0,0.000,0.146,0.035,-0.135,0.016,-0.016,0.999,0.000,0.000,0.000
2,0.0202,0.2272,0.0090,0.0202,0.0230,0.0076,-1.01,0.65,-41.44,0,0.000,-0.087,0.328,-0.099,0.016,-0.013,1.000,0.000,0.000,0.000
2,0.0192,0.2232,0.0079,0.0137,0.0006,0.0014,-0.92,0.70,-41.41,0,0.000,0.144,0.272,-0.139,0.014,-0.015,1.000,0.000,0.000,0.000
2,0.0186,0.2240,0.0079,0.0102,0.0047,0.0014,-0.88,0.70,-41.37,0,0.000,-0.088,-0.056,-0.292,0.013,-0.015,1.002,0.000,0.000,0.000
2,0.0166,0.2233,0.0079,-0.0011,0.0012,0.0015,-0.86,0.67,-41.33,0,0.000,-0.001,0.010,-0.031,0.013,-0.016,1.000,0.000,0.000,0.000
2,0.0160,0.2227,0.0080,-0.0041,-0.0025,0.0016,-1.06,0.64,-41.29,0,0.000,-0.189,0.265,0.150,0.013,-0.016,0.999,0.000,0.000,0.000
2,0.0159,0.2219,0.0080,-0.0041,-0.0067,0.0015,-1.05,0.66,-41.25,0,0.000,0.129,0.051,-0.129,0.014,-0.016,1.002,0.000,0.000,0.000
2,0.0196,0.2248,0.0089,0.0164,0.0090,0.0062,-1.00,0.68,-41.21,0,0.000,-0.151,0.103,-0.045,0.013,-0.015,1.002,0.000,0.000,0.000
3,0.0191,0.2249,0.0090,0.0133,0.0093,0.0063,-1.07,0.80,-41.17,0,0.000,0.086,0.048,-0.040,0.013,-0.015,1.002,0.000,0.000,0.000
3,0.0181,0.2247,0.0091,0.0071,0.0077,0.0066,-1.10,0.76,-41.13,0,0.000,-0.297,0.013,0.011,0.015,-0.017,0.998,0.000,0.000,0.000
3,0.0173,0.2277,0.0091,0.0025,0.0236,0.0063,-0.96,0.76,-41.09,0,0.000,0.128,0.026,0.048,0.012,-0.016,0.998,0.000,0.000,0.000
3,0.0183,0.2280,0.0092,0.0081,0.0238,0.0063,-1.04,0.75,-41.05,0,0.000,0.096,-0.230,-0.130,0.014,-0.014,1.000,0.000,0.000,0.000
3,0.0163,0.2257,0.0088,-0.0027,0.0104,0.0043,-1.08,0.79,-41.01,0,0.000,0.034,-0.052,-0.009,0.013,-0.013,1.003,0.000,0.000,0.000
3,0.0176,0.2271,0.0088,0.0043,0.0178,0.0045,-1.00,0.76,-40.97,0,0.000,-0.244,0.285,0.281,0.013,-0.014,1.001,0.000,0.000,0.000
3,0.0175,0.2286,0.0089,0.0037,0.0249,0.0043,-1.04,0.81,-40.93,0,0.000,0.080,-0.387,-0.332,0.014,-0.014,0.999,0.000,0.000,0.000
3,0.0170,0.2271,0.0090,0.0010,0.0154,0.0046,-0.98,0.75,-40.89,0,0.000,0.113,0.153,-0.020,0.015,-0.012,1.000,0.000,0.000,0.000
3,0.0167,0.2287,0.0090,-0.0004,0.0235,0.0042,-1.01,0.72,-40.85,0,0.000,-0.019,0.023,-0.075,0.014,-0.015,1.000,0.000,0.000,0.000
3,0.0168,0.2268,0.0074,0.0005,0.0128,-0.0036,-1.00,0.78,-40.82,0,0.000,-0.139,0.218,-0.033,0.013,-0.016,1.002,0.000,0.000,0.000
4,0.0177,0.2272,0.0074,0.0053,0.0142,-0.0033,-1.01,0.77,-40.77,0,0.000,0.107,-0.079,-0.280,0.013,-0.015,1.003,0.000,0.000,0.000
4,0.0166,0.2282,0.0073,-0.0007,0.0188,-0.0033,-0.95,0.71,-40.73,0,0.000,0.081,-0.061,0.009,0.014,-0.014,1.001,0.000,0.000,0.000
4,0.0169,0.2282,0.0073,0.0013,0.0181,-0.0033,-0.92,0.69,-40.69,0,0.000,0.018,0.146,-0.096,0.014,-0.012,1.001,0.000,0.000,0.000
4,0.0170,0.2267,0.0073,0.0021,0.0094,-0.0030,-0.95,0.74,-40.66,0,0.000,0.236,0.184,0.081,0.011,-0.014,1.004,0.000,0.000,0.000
4,0.0171,0.2259,0.0089,0.0026,0.0044,0.0055,-0.96,0.77,-40.62,0,0.000,0.094,0.052,0.115,0.013,-0.016,1.004,0.000,0.000,0.000
4,0.0165,0.2272,0.0090,-0.0004,0.0110,0.0057,-0.97,0.76,-40.58,0,0.000,-0.165,-0.172,-0.104,0.013,-0.014,1.001,0.000,0.000,0.000
4,0.0162,0.2280,0.0090,-0.0022,0.0152,0.0059,-0.96,0.72,-40.54,0,0.000,0.001,-0.108,0.109,0.011,-0.017,1.000,0.000,0.000,0.000
4,0.0164,0.2283,0.0091,-0.0005,0.0163,0.0060,-0.97,0.71,-40.50,0,0.000,-0.061,0.167,0.052,0.012,-0.017,1.001,0.000,0.000,0.000
4,0.0171,0.2278,0.0091,0.0032,0.0128,0.0063,-0.96,0.74,-40.46,0,0.000,0.211,-0.205,0.114,0.013,-0.015,0.999,0.000,0.000,0.000
4,0.0173,0.2278,0.0083,0.0047,0.0123,0.0022,-0.96,0.73,-40.42,0,0.000,-0.045,0.051,0.172,0.014,-0.015,0.998,0.000,0.000,0.000
4,0.0167,0.2283,0.0083,0.0011,0.0147,0.0025,-0.94,0.74,-40.38,0,0.000,0.264,0.018,-0.108,0.012,-0.014,1.000,0.000,0.000,0.000
4,0.0169,0.2282,0.0084,0.0020,0.0134,0.0027,-0.90,0.73,-40.34,0,0.000,-0.083,0.162,-0.065,0.012,-0.013,1.001,0.000,0.000,0.000
4,0.0166,0.2282,0.0084,0.0001,0.0126,0.0027,-0.98,0.57,-40.30,0,0.000,0.179,-0.354,0.084,0.013,-0.014,1.000,0.000,0.000,0.000
4,0.0161,0.2276,0.0084,-0.0030,0.0085,0.0028,-0.76,0.62,-40.26,0,0.000,0.157,0.095,-0.163,0.012,-0.014,0.998,0.000,0.000,0.000
4,0.0198,0.2267,0.0079,0.0188,0.0032,-0.0005,-0.75,0.62,-40.22,0,0.000,-0.126,0.026,-0.143,0.011,-0.014,1.002,0.000,0.000,0.000
5,0.0161,0.2238,0.0080,-0.0037,-0.0137,0.0002,-0.76,0.59,-40.18,0,0.000,0.027,-0.137,-0.128,0.013,-0.016,1.002,0.000,0.000,0.000
5,0.0159,0.2235,0.0080,-0.0049,-0.0148,0.0002,-0.76,0.61,-40.14,0,0.000,-0.029,0.047,-0.018,0.013,-0.014,1.001,0.000,0.000,0.000
5,0.0165,0.2230,0.0080,-0.0010,-0.0171,0.0002,-0.77,0.61,-40.10,0,0.000,-0.079,-0.266,0.064,0.013,-0.015,1.001,0.000,0.000,0.000
5,0.0160,0.2231,0.0080,-0.0033,-0.0157,0.0002,-0.77,0.63,-40.06,0,0.000,0.219,-0.306,-0.231,0.013,-0.015,1.001,0.000,0.000,0.000
5,0.0163,0.2231,0.0076,-0.0015,-0.0148,-0.0020,-0.77,0.63,-40.03,0,0.000,-0.108,0.329,-0.143,0.012,-0.016,1.001,0.000,0.000,0.000
5,0.0159,0.2232,0.0076,-0.0039,-0.0136,-0.0017,-0.76,0.63,-39.99,0,0.000,0.099,-0.090,-0.068,0.014,-0.014,1.000,0.000,0.000,0.000
5,0.0158,0.2231,0.0075,-0.0039,-0.0139,-0.0015,-0.77,0.59,-39.95,0,0.000,-0.000,-0.307,0.022,0.012,-0.015,0.999,0.000,0.000,0.000
5,0.0158,0.2229,0.0075,-0.0038,-0.0141,-0.0014,-0.48,0.58,-39.91,0,0.000,-0.017,0.039,-0.012,0.013,-0.015,0.999,0.000,0.000,0.000
5,0.0165,0.2224,0.0075,0.0003,-0.0167,-0.0014,-0.46,0.59,-39.87,0,0.000,-0.390,0.002,0.006,0.014,-0.016,0.998,0.000,0.000,0.000
5,0.0165,0.2222,0.0077,0.0004,-0.0170,-0.0001,-0.67,0.57,-39.84,0,0.000,0.196,-0.215,-0.184,0.013,-0.014,0.999,0.000,0.000,0.000
5,0.0122,0.2167,0.0076,-0.0228,-0.0460,-0.0007,-0.69,0.57,-39.80,0,0.000,0.146,-0.013,-0.336,0.012,-0.014,1.000,0.000,0.000,0.000
5,0.0148,0.2194,0.0080,-0.0068,-0.0289,0.0015,-0.70,0.59,-39.76,0,0.000,0.101,0.058,-0.375,0.012,-0.015,1.000,0.000,0.000,0.000
5,0.0150,0.2193,0.0080,-0.0056,-0.0283,0.0015,-0.71,0.55,-39.72,0,0.000,0.079,-0.067,-0.210,0.012,-0.015,0.999,0.000,0.000,0.000
5,0.0148,0.2195,0.0080,-0.0061,-0.0263,0.0015,-0.72,0.60,-39.68,0,0.000,-0.022,-0.281,-0.222,0.014,-0.015,1.002,0.000,0.000,0.000
5,0.0155,0.2189,0.0072,-0.0021,-0.0283,-0.0031,-0.71,0.60,-39.64,0,0.000,0.125,-0.089,-0.076,0.015,-0.017,1.000,0.000,0.000,0.000
5,0.0148,0.2195,0.0072,-0.0055,-0.0240,-0.0030,-0.71,0.60,-39.61,0,0.000,-0.013,-0.069,0.024,0.015,-0.015,1.000,0.000,0.000,0.000
6,0.0148,0.2193,0.0071,-0.0055,-0.0242,-0.0030,-0.88,0.52,-39.57,0,0.000,0.350,0.054,-0.230,0.015,-0.014,0.999,0.000,0.000,0.000
6,0.0147,0.2190,0.0071,-0.0055,-0.0246,-0.0030,-1.05,0.51,-39.53,0,0.000,0.029,0.073,0.200,0.014,-0.014,1.001,0.000,0.000,0.000
6,0.0184,0.2206,0.0072,0.0151,-0.0150,-0.0026,-0.88,0.52,-39.49,0,0.000,-0.204,-0.115,0.131,0.016,-0.015,1.001,0.000,0.000,0.000
6,0.0213,0.2234,0.0075,0.0301,0.0006,-0.0008,-1.13,0.47,-39.46,0,0.000,-0.113,0.224,-0.021,0.013,-0.017,0.999,0.000,0.000,0.000
6,0.0189,0.2205,0.0076,0.0160,-0.0152,0.0003,-1.09,0.47,-39.42,0,0.000,0.147,-0.056,-0.213,0.012,-0.014,1.000,0.000,0.000,0.000
6,0.0236,0.2241,0.0076,0.0410,0.0046,-0.0004,-1.10,0.50,-39.38,0,0.000,0.091,-0.222,-0.130,0.010,-0.018,1.001,0.000,0.000,0.000
6,0.0233,0.2234,0.0076,0.0379,0.0008,0.0001,-1.11,0.49,-39.34,0,0.000,-0.292,0.125,-0.125,0.015,-0.019,0.998,0.000,0.000,0.000
6,0.0235,0.2241,0.0076,0.0378,0.0043,0.0002,-1.09,0.51,-39.31,0,0.000,-0.035,0.065,0.189,0.014,-0.015,0.997,0.000,0.000,0.000
6,0.0241,0.2241,0.0086,0.0397,0.0043,0.0052,-1.07,0.52,-39.27,0,0.000,0.262,0.171,-0.113,0.015,-0.016,1.000,0.000,0.000,0.000
6,0.0239,0.2243,0.0087,0.0370,0.0049,0.0054,-1.06,0.52,-39.23,0,0.000,-0.043,0.119,0.205,0.014,-0.015,1.000,0.000,0.000,0.000
6,0.0237,0.2241,0.0088,0.0345,0.0039,0.0056,-1.08,0.53,-39.19,0,0.000,0.072,0.109,-0.013,0.014,-0.014,0.999,0.000,0.000,0.000
6,0.0239,0.2239,0.0089,0.0336,0.0028,0.0058,-1.33,0.42,-39.16,0,0.000,0.153,0.073,-0.241,0.014,-0.016,1.002,0.000,0.000,0.000
6,0.0243,0.2245,0.0089,0.0344,0.0052,0.0055,-1.27,0.39,-39.12,0,0.000,-0.076,-0.098,-0.030,0.015,-0.014,1.001,0.000,0.000,0.000
6,0.0303,0.2274,0.0079,0.0653,0.0205,-0.0007,-1.39,0.49,-39.09,0,0.000,0.058,0.064,-0.091,0.015,-0.013,0.999,0.000,0.000,0.000
6,0.0307,0.2262,0.0080,0.0650,0.0130,-0.0003,-1.36,0.53,-39.05,0,0.000,0.020,0.234,0.009,0.014,-0.015,1.000,0.000,0.000,0.000
6,0.0312,0.2299,0.0079,0.0651,0.0325,-0.0008,-1.33,0.52,-39.01,0,0.000,-0.110,-0.172,-0.011,0.013,-0.015,1.000,0.000,0.000,0.000
7,0.0306,0.2303,0.0080,0.0597,0.0334,-0.0001,-1.34,0.53,-38.97,0,0.000,0.204,-0.081,0.166,0.012,-0.017,0.998,0.000,0.000,0.000
7,0.0310,0.2301,0.0081,0.0590,0.0304,0.0006,-1.27,0.53,-38.93,0,0.000,0.185,-0.000,-0.134,0.012,-0.016,1.000,0.000,0.000,0.000
7,0.0315,0.2307,0.0064,0.0593,0.0325,-0.0079,-1.28,0.55,-38.89,0,0.000,0.055,-0.164,-0.184,0.012,-0.014,1.001,0.000,0.000,0.000
7,0.0312,0.2298,0.0064,0.0558,0.0261,-0.0071,-1.23,0.55,-38.86,0,0.000,0.203,0.288,-0.078,0.012,-0.013,1.002,0.000,0.000,0.000
7,0.0316,0.2305,0.0063,0.0555,0.0292,-0.0071,-1.21,0.61,-38.82,0,0.000,-0.068,-0.048,0.165,0.011,-0.016,1.001,0.000,0.000,0.000
7,0.0313,0.2299,0.0064,0.0517,0.0246,-0.0065,-1.21,0.57,-38.78,0,0.000,-0.131,0.042,-0.264,0.010,-0.015,1.002,0.000,0.000,0.000
7,0.0306,0.2307,0.0064,0.0455,0.0280,-0.0061,-1.16,0.56,-38.74,0,0.000,0.214,-0.042,-0.170,0.012,-0.016,1.000,0.000,0.000,0.000
7,0.0318,0.2306,0.0062,0.0500,0.0259,-0.0069,-1.16,0.57,-38.71,0,0.000,-0.001,-0.098,-0.193,0.010,-0.016,0.999,0.000,0.000,0.000
7,0.0318,0.2298,0.0061,0.0475,0.0208,-0.0064,-1.11,0.57,-38.67,0,0.000,0.186,-0.185,-0.193,0.012,-0.016,1.000,0.000,0.000,0.000
7,0.0320,0.2301,0.0061,0.0467,0.0217,-0.0061,-1.09,0.60,-38.63,0,0.000,-0.006,-0.215,-0.338,0.015,-0.013,1.001,0.000,0.000,0.000
7,0.0316,0.2296,0.0061,0.0423,0.0182,-0.0055,-1.07,0.63,-38.59,0,0.000,-0.048,0.003,0.154,0.014,-0.016,0.998,0.000,0.000,0.000
7,0.0313,0.2299,0.0061,0.0384,0.0189,-0.0052,-1.08,0.64,-38.55,0,0.000,-0.023,0.387,0.060,0.016,-0.015,0.998,0.000,0.000,0.000
7,0.0310,0.2302,0.0064,0.0347,0.0195,-0.0030,-1.04,0.67,-38.52,0,0.000,-0.218,0.047,-0.124,0.012,-0.016,1.001,0.000,0.000,0.000
7,0.0314,0.2306,0.0064,0.0351,0.0214,-0.0031,-1.02,0.61,-38.48,0,0.000,-0.104,-0.026,-0.135,0.013,-0.017,1.000,0.000,0.000,0.000
7,0.0305,0.2305,0.0064,0.0286,0.0199,-0.0027,-1.01,0.62,-38.44,0,0.000,-0.203,-0.180,-0.241,0.011,-0.016,0.999,0.000,0.000,0.000
7,0.0316,0.2296,0.0064,0.0337,0.0138,-0.0026,-0.95,0.59,-38.40,0,0.000,-0.174,0.285,0.131,0.011,-0.016,1.000,0.000,0.000,0.000
8,0.0315,0.2298,0.0064,0.0313,0.0137,-0.0026,-0.96,0.62,-38.37,0,0.000,-0.239,-0.082,-0.014,0.013,-0.018,1.002,0.000,0.000,0.000
8,0.0318,0.2299,0.0062,0.0318,0.0136,-0.0035,-1.00,0.63,-38.33,0,0.000,-0.109,0.306,-0.115,0.013,-0.015,1.002,0.000,0.000,0.000
8,0.0318,0.2285,0.0062,0.0301,0.0055,-0.0032,-0.94,0.64,-38.29,0,0.000,0.264,0.212,-0.107,0.013,-0.014,1.000,0.000,0.000,0.000
8,0.0318,0.2293,0.0062,0.0289,0.0093,-0.0031,-0.95,0.65,-38.25,0,0.000,-0.167,-0.087,0.313,0.014,-0.013,1.000,0.000,0.000,0.000
8,0.0323,0.2303,0.0061,0.0300,0.0140,-0.0033,-0.98,0.68,-38.22,0,0.000,-0.161,-0.094,-0.339,0.014,-0.015,1.003,0.000,0.000,0.000
8,0.0317,0.2294,0.0061,0.0249,0.0087,-0.0029,-0.93,0.69,-38.18,0,0.000,-0.013,-0.155,-0.063,0.012,-0.015,1.001,0.000,0.000,0.000
8,0.0318,0.2300,0.0082,0.0245,0.0110,0.0080,-0.94,0.68,-38.14,0,0.000,0.176,0.171,-0.219,0.012,-0.015,0.999,0.000,0.000,0.000
8,0.0311,0.2302,0.0083,0.0195,0.0119,0.0084,-0.91,0.72,-38.11,0,0.000,-0.083,0.149,-0.302,0.013,-0.016,1.001,0.000,0.000,0.000
8,0.0317,0.2306,0.0084,0.0217,0.0133,0.0082,-0.98,0.65,-38.07,0,0.000,0.159,-0.034,-0.002,0.012,-0.015,1.001,0.000,0.000,0.000
8,0.0308,0.2308,0.0085,0.0159,0.0137,0.0086,-0.92,0.70,-38.03,0,0.000,-0.153,0.125,-0.134,0.014,-0.017,0.998,0.000,0.000,0.000
8,0.0329,0.2312,0.0085,0.0268,0.0152,0.0085,-0.92,0.69,-38.00,0,0.000,0.128,-0.247,-0.163,0.014,-0.018,1.000,0.000,0.000,0.000
8,0.0316,0.2308,0.0075,0.0184,0.0127,0.0028,-0.88,0.66,-37.96,0,0.000,-0.385,0.132,0.183,0.014,-0.017,1.000,0.000,0.000,0.000
8,0.0318,0.2310,0.0075,0.0185,0.0128,0.0028,-0.89,0.67,-37.92,0,0.000,0.070,0.212,-0.254,0.013,-0.014,1.000,0.000,0.000,0.000
8,0.0321,0.2300,0.0076,0.0190,0.0064,0.0032,-0.88,0.70,-37.88,0,0.000,0.075,0.122,0.126,0.012,-0.016,0.999,0.000,0.000,0.000
8,0.0322,0.2304,0.0076,0.0186,0.0086,0.0031,-0.80,0.71,-37.84,0,0.000,-0.140,-0.240,0.206,0.012,-0.017,1.001,0.000,0.000,0.000
8,0.0318,0.2307,0.0077,0.0157,0.0093,0.0032,-0.87,0.71,-37.81,0,0.000,-0.101,0.110,-0.119,0.011,-0.015,1.002,0.000,0.000,0.000
9,0.0307,0.2295,0.0074,0.0083,0.0020,0.0020,-0.80,0.71,-37.77,0,0.000,-0.162,-0.230,0.015,0.012,-0.015,1.000,0.000,0.000,0.000
9,0.0317,0.2308,0.0075,0.0136,0.0090,0.0020,-0.82,0.70,-37.73,0,0.000,0.117,-0.001,-0.062,0.011,-0.016,1.001,0.000,0.000,0.000
9,0.0308,0.2297,0.0075,0.0079,0.0021,0.0021,-0.86,0.71,-37.70,0,0.000,-0.206,-0.021,0.013,0.011,-0.016,1.001,0.000,0.000,0.000
9,0.0313,0.2300,0.0075,0.0102,0.0039,0.0022,-0.72,0.68,-37.66,0,0.000,-0.168,0.075,-0.088,0.014,-0.019,0.999,0.000,0.000,0.000
9,0.0319,0.2307,0.0075,0.0124,0.0071,0.0023,-0.82,0.70,-37.62,0,0.000,0.045,0.166,0.023,0.013,-0.017,0.999,0.000,0.000,0.000
9,0.0306,0.2280,0.0078,0.0046,-0.0079,0.0037,-0.77,0.70,-37.59,0,0.000,-0.147,0.071,-0.267,0.015,-0.016,1.001,0.000,0.000,0.000
9,0.0315,0.2299,0.0079,0.0094,0.0027,0.0039,-0.80,0.67,-37.55,0,0.000,0.155,-0.288,-0.144,0.013,-0.016,1.002,0.000,0.000,0.000
9,0.0310,0.2292,0.0079,0.0059,-0.0011,0.0040,-0.81,0.73,-37.51,0,0.000,0.177,0.063,-0.228,0.011,-0.014,1.001,0.000,0.000,0.000
9,0.0319,0.2294,0.0079,0.0101,-0.0007,0.0040,-0.82,0.68,-37.48,0,0.000,0.116,0.058,-0.090,0.012,-0.015,1.001,0.000,0.000,0.000
9,0.0310,0.2303,0.0080,0.0047,0.0040,0.0040,-0.83,0.71,-37.44,0,0.000,-0.052,-0.068,0.168,0.014,-0.015,0.999,0.000,0.000,0.000
9,0.0321,0.2299,0.0068,0.0101,0.0018,-0.0022,-0.83,0.72,-37.40,0,0.000,0.000,-0.214,0.042,0.015,-0.016,0.997,0.000,0.000,0.000
9,0.0318,0.2306,0.0068,0.0084,0.0053,-0.0020,-0.76,0.72,-37.37,0,0.000,-0.372,0.180,0.185,0.013,-0.018,1.001,0.000,0.000,0.000
9,0.0317,0.2307,0.0067,0.0070,0.0057,-0.0018,-0.76,0.72,-37.33,0,0.000,0.118,-0.129,-0.152,0.011,-0.015,0.999,0.000,0.000,0.000
9,0.0308,0.2296,0.0067,0.0017,-0.0008,-0.0015,-0.81,0.68,-37.29,0,0.000,0.070,-0.145,0.084,0.011,-0.013,1.000,0.000,0.000,0.000
9,0.0308,0.2296,0.0067,0.0016,-0.0010,-0.0014,-0.80,0.70,-37.26,0,0.000,0.118,-0.141,-0.102,0.012,-0.016,1.003,0.000,0.000,0.000
9,0.0322,0.2300,0.0073,0.0089,0.0007,0.0012,-0.82,0.71,-37.22,0,0.000,-0.178,0.017,-0.006,0.012,-0.016,1.003,0.000,0.000,0.000
9,0.0317,0.2301,0.0073,0.0058,0.0009,0.0012,-0.78,0.72,-37.18,0,0.000,-0.128,-0.096,-0.136,0.012,-0.014,1.000,0.000,0.000,0.000
10,0.0321,0.2306,0.0073,0.0074,0.0034,0.0012,-0.82,0.71,-37.15,0,0.000,0.048,0.207,-0.074,0.011,-0.015,0.998,0.000,0.000,0.000
10,0.0314,0.2300,0.0073,0.0031,0.0003,0.0013,-0.91,0.72,-37.11,0,0.000,-0.121,0.330,0.137,0.013,-0.016,0.999,0.000,0.000,0.000
10,0.0321,0.2306,0.0073,0.0066,0.0034,0.0014,-0.71,0.70,-37.08,0,0.000,0.043,-0.228,-0.024,0.013,-0.010,1.001,0.000,0.000,0.000
10,0.0332,0.2324,0.0080,0.0122,0.0132,0.0050,-0.71,0.72,-37.04,0,0.000,-0.149,0.110,-0.071,0.013,-0.013,1.002,0.000,0.000,0.000
10,0.0309,0.2286,0.0082,-0.0013,-0.0083,0.0060,-0.69,0.71,-37.00,0,0.000,-0.005,-0.091,0.078,0.012,-0.015,1.002,0.000,0.000,0.000
10,0.0305,0.2289,0.0083,-0.0033,-0.0065,0.0060,-0.68,0.67,-36.97,0,0.000,-0.087,-0.180,-0.359,0.015,-0.015,1.000,0.000,0.000,0.000
10,0.0303,0.2282,0.0083,-0.0045,-0.0099,0.0059,-0.86,0.73,-36.93,0,0.000,-0.179,-0.156,-0.416,0.013,-0.016,1.001,0.000,0.000,0.000
10,0.0309,0.2276,0.0084,-0.0011,-0.0132,0.0059,-0.92,0.73,-36.89,0,0.000,-0.027,0.033,-0.046,0.013,-0.017,0.998,0.000,0.000,0.000
10,0.0322,0.2315,0.0079,0.0068,0.0098,0.0030,-0.66,0.76,-36.86,0,0.000,-0.002,0.255,-0.074,0.011,-0.016,0.999,0.000,0.000,0.000
10,0.0331,0.2326,0.0079,0.0114,0.0160,0.0029,-0.67,0.76,-36.82,0,0.000,0.055,0.195,-0.104,0.013,-0.014,1.002,0.000,0.000,0.000
10,0.0293,0.2285,0.0081,-0.0111,-0.0083,0.0043,-0.68,0.76,-36.79,0,0.000,0.176,-0.010,0.061,0.012,-0.016,1.003,0.000,0.000,0.000
10,0.0291,0.2287,0.0082,-0.0115,-0.0074,0.0044,-0.72,0.71,-36.75,0,0.000,-0.171,0.241,-0.008,0.013,-0.017,0.998,0.000,0.000,0.000
10,0.0289,0.2288,0.0082,-0.0121,-0.0067,0.0044,-0.68,0.78,-36.71,0,0.000,-0.061,0.202,-0.279,0.014,-0.016,1.000,0.000,0.000,0.000
10,0.0303,0.2288,0.0069,-0.0044,-0.0065,-0.0027,-0.65,0.75,-36.68,0,0.000,0.280,-0.154,-0.208,0.013,-0.017,0.999,0.000,0.000,0.000
10,0.0286,0.2290,0.0069,-0.0134,-0.0051,-0.0026,-0.66,0.72,-36.64,0,0.000,-0.064,0.025,-0.301,0.013,-0.016,1.002,0.000,0.000,0.000
10,0.0285,0.2281,0.0069,-0.0139,-0.0100,-0.0024,-0.73,0.72,-36.61,0,0.000,-0.117,0.071,0.073,0.013,-0.015,1.001,0.000,0.000,0.000
11,0.0283,0.2280,0.0068,-0.0143,-0.0105,-0.0024,-0.66,0.75,-36.57,0,0.000,-0.077,0.112,-0.089,0.013,-0.014,0.999,0.000,0.000,0.000
11,0.0289,0.2276,0.0068,-0.0109,-0.0124,-0.0024,-0.69,0.70,-36.54,0,0.000,-0.148,0.027,-0.007,0.013,-0.017,1.000,0.000,0.000,0.000
11,0.0298,0.2289,0.0074,-0.0058,-0.0056,0.0005,-0.69,0.70,-36.50,0,0.000,0.029,-0.128,-0.047,0.013,-0.015,1.001,0.000,0.000,0.000
11,0.0295,0.2279,0.0074,-0.0066,-0.0110,0.0007,-0.75,0.71,-36.46,0,0.000,0.158,0.385,-0.171,0.014,-0.016,1.003,0.000,0.000,0.000
11,0.0295,0.2277,0.0074,-0.0068,-0.0113,0.0009,-0.72,0.72,-36.43,0,0.000,0.085,-0.242,-0.545,0.014,-0.018,1.002,0.000,0.000,0.000
11,0.0299,0.2287,0.0074,-0.0039,-0.0053,0.0010,-0.88,0.69,-36.40,0,0.000,0.270,0.047,0.009,0.013,-0.016,0.999,0.000,0.000,0.000
11,0.0292,0.2285,0.0074,-0.0077,-0.0068,0.0009,-0.92,0.71,-36.36,0,0.000,-0.246,0.029,0.330,0.012,-0.015,0.999,0.000,0.000,0.000
11,0.0317,0.2308,0.0086,0.0065,0.0065,0.0067,-0.68,0.81,-36.32,0,0.000,-0.032,-0.122,-0.154,0.011,-0.015,1.001,0.000,0.000,0.000
11,0.0320,0.2319,0.0086,0.0078,0.0121,0.0069,-0.68,0.83,-36.29,0,0.000,-0.045,-0.048,-0.115,0.013,-0.014,1.000,0.000,0.000,0.000
11,0.0270,0.2291,0.0089,-0.0201,-0.0046,0.0082,-0.64,0.78,-36.26,0,0.000,0.255,-0.066,0.051,0.014,-0.015,1.000,0.000,0.000,0.000
11,0.0267,0.2293,0.0089,-0.0211,-0.0033,0.0081,-0.67,0.85,-36.22,0,0.000,-0.068,-0.046,-0.098,0.014,-0.015,0.999,0.000,0.000,0.000
11,0.0267,0.2280,0.0090,-0.0199,-0.0106,0.0081,-0.82,0.84,-36.18,0,0.000,-0.038,-0.077,-0.048,0.013,-0.016,1.001,0.000,0.000,0.000
11,0.0256,0.2293,0.0082,-0.0252,-0.0029,0.0033,-0.79,1.00,-36.14,0,0.000,-0.099,0.143,0.155,0.014,-0.014,1.000,0.000,0.000,0.000
11,0.0275,0.2318,0.0083,-0.0141,0.0110,0.0037,-0.82,0.98,-36.10,0,0.000,-0.056,-0.081,-0.107,0.013,-0.014,1.002,0.000,0.000,0.000
11,0.0241,0.2335,0.0082,-0.0321,0.0198,0.0031,-0.81,1.01,-36.07,0,0.000,-0.257,0.149,0.248,0.012,-0.015,1.000,0.000,0.000,0.000
11,0.0244,0.2340,0.0083,-0.0286,0.0215,0.0032,-0.82,0.96,-36.03,0,0.000,0.065,-0.049,0.064,0.013,-0.015,1.000,0.000,0.000,0.000
12,0.0235,0.2344,0.0083,-0.0327,0.0228,0.0030,-0.75,0.95,-36.00,0,0.000,-0.065,0.183,0.035,0.013,-0.014,1.002,0.000,0.000,0.000
12,0.0241,0.2343,0.0087,-0.0279,0.0207,0.0049,-0.78,0.87,-35.97,0,0.000,0.123,0.120,-0.261,0.014,-0.016,1.002,0.000,0.000,0.000
12,0.0233,0.2331,0.0087,-0.0312,0.0134,0.0052,-0.76,0.91,-35.93,0,0.000,0.003,-0.110,-0.171,0.014,-0.017,1.000,0.000,0.000,0.000
12,0.0245,0.2327,0.0089,-0.0232,0.0106,0.0059,-0.76,0.91,-35.90,0,0.000,-0.014,0.135,-0.212,0.011,-0.016,0.999,0.000,0.000,0.000
12,0.0234,0.2330,0.0089,-0.0280,0.0116,0.0057,-0.75,0.87,-35.86,0,0.000,0.072,-0.340,-0.237,0.013,-0.015,1.001,0.000,0.000,0.000
12,0.0232,0.2331,0.0090,-0.0283,0.0116,0.0058,-0.78,0.91,-35.83,0,0.000,-0.071,0.373,0.185,0.013,-0.016,0.999,0.000,0.000,0.000
12,0.0234,0.2327,0.0086,-0.0257,0.0086,0.0039,-0.80,0.81,-35.79,0,0.000,0.266,-0.240,0.010,0.011,-0.016,0.999,0.000,0.000,0.000
12,0.0229,0.2338,0.0086,-0.0273,0.0141,0.0039,-0.80,0.84,-35.76,0,0.000,0.065,-0.112,-0.152,0.015,-0.014,1.001,0.000,0.000,0.000
12,0.0244,0.2330,0.0087,-0.0179,0.0088,0.0043,-0.82,0.88,-35.72,0,0.000,0.068,-0.085,-0.122,0.012,-0.014,1.000,0.000,0.000,0.000
12,0.0238,0.2335,0.0088,-0.0209,0.0111,0.0043,-0.76,0.78,-35.69,0,0.000,-0.215,-0.209,-0.067,0.013,-0.014,1.000,0.000,0.000,0.000
12,0.0231,0.2344,0.0088,-0.0233,0.0157,0.0040,-0.84,0.81,-35.65,0,0.000,-0.233,-0.053,0.138,0.014,-0.014,1.002,0.000,0.000,0.000
12,0.0240,0.2323,0.0073,-0.0177,0.0028,-0.0035,-0.80,0.81,-35.62,0,0.000,-0.130,0.160,0.223,0.013,-0.014,1.000,0.000,0.000,0.000
12,0.0243,0.2341,0.0073,-0.0152,0.0128,-0.0035,-0.82,0.83,-35.58,0,0.000,0.008,0.134,0.018,0.011,-0.014,1.000,0.000,0.000,0.000
12,0.0236,0.2336,0.0073,-0.0179,0.0090,-0.0034,-0.77,0.80,-35.55,0,0.000,-0.067,0.209,0.139,0.013,-0.014,1.001,0.000,0.000,0.000
12,0.0232,0.2344,0.0072,-0.0195,0.0132,-0.0035,-0.78,0.81,-35.51,0,0.000,-0.088,-0.003,0.019,0.014,-0.015,1.001,0.000,0.000,0.000
12,0.0231,0.2332,0.0072,-0.0190,0.0058,-0.0031,-0.81,0.77,-35.48,0,0.000,-0.036,0.003,0.063,0.013,-0.015,0.999,0.000,0.000,0.000
12,0.0226,0.2335,0.0071,-0.0207,0.0074,-0.0035,-0.81,0.78,-35.44,0,0.000,0.047,-0.009,-0.098,0.013,-0.016,0.999,0.000,0.000,0.000
13,0.0235,0.2337,0.0071,-0.0149,0.0080,-0.0033,-0.82,0.78,-35.40,0,0.000,0.067,-0.099,-0.237,0.014,-0.016,0.998,0.000,0.000,0.000
13,0.0231,0.2339,0.0070,-0.0161,0.0089,-0.0033,-0.82,0.74,-35.37,0,0.000,-0.122,0.139,0.263,0.015,-0.015,1.000,0.000,0.000,0.000
13,0.0231,0.2342,0.0070,-0.0155,0.0099,-0.0031,-0.84,0.72,-35.34,0,0.000,0.004,-0.025,-0.270,0.015,-0.016,0.999,0.000,0.000,0.000
13,0.0238,0.2337,0.0070,-0.0109,0.0065,-0.0029,-0.81,0.72,-35.30,0,0.000,-0.068,-0.117,-0.014,0.013,-0.019,1.003,0.000,0.000,0.000
13,0.0243,0.2341,0.0074,-0.0073,0.0084,-0.0008,-0.81,0.72,-35.27,0,0.000,-0.012,-0.286,-0.245,0.015,-0.017,1.001,0.000,0.000,0.000
13,0.0236,0.2336,0.0074,-0.0106,0.0045,-0.0008,-0.81,0.74,-35.23,0,0.000,0.212,-0.085,-0.088,0.013,-0.017,1.001,0.000,0.000,0.000
13,0.0235,0.2337,0.0074,-0.0109,0.0047,-0.0010,-0.80,0.74,-35.20,0,0.000,0.028,-0.099,-0.061,0.013,-0.015,1.000,0.000,0.000,0.000
13,0.0231,0.2339,0.0074,-0.0121,0.0056,-0.0010,-0.84,0.65,-35.17,0,0.000,-0.023,-0.051,0.063,0.015,-0.013,1.000,0.000,0.000,0.000
13,0.0230,0.2340,0.0074,-0.0122,0.0052,-0.0010,-0.80,0.69,-35.13,0,0.000,0.326,-0.269,-0.190,0.014,-0.014,1.000,0.000,0.000,0.000
13,0.0249,0.2337,0.0085,-0.0009,0.0031,0.0058,-0.80,0.69,-35.10,0,0.000,0.090,-0.151,0.141,0.013,-0.017,1.001,0.000,0.000,0.000
13,0.0237,0.2335,0.0086,-0.0075,0.0015,0.0060,-0.77,0.67,-35.07,0,0.000,0.045,0.180,-0.085,0.012,-0.016,1.001,0.000,0.000,0.000
13,0.0236,0.2335,0.0087,-0.0075,0.0013,0.0061,-0.77,0.67,-35.03,0,0.000,0.109,-0.046,-0.125,0.016,-0.015,1.001,0.000,0.000,0.000
13,0.0236,0.2335,0.0087,-0.0074,0.0011,0.0061,-0.76,0.67,-35.00,0,0.000,-0.090,0.133,0.283,0.014,-0.015,1.001,0.000,0.000,0.000
13,0.0236,0.2327,0.0088,-0.0068,-0.0036,0.0062,-0.81,0.66,-34.96,0,0.000,-0.003,0.075,0.300,0.012,-0.015,1.000,0.000,0.000,0.000
13,0.0234,0.2328,0.0081,-0.0074,-0.0032,0.0023,-0.81,0.68,-34.93,0,0.000,0.191,-0.043,-0.164,0.014,-0.016,1.001,0.000,0.000,0.000
13,0.0239,0.2334,0.0081,-0.0045,-0.0001,0.0025,-0.81,0.71,-34.89,0,0.000,0.011,-0.144,-0.010,0.014,-0.015,1.000,0.000,0.000,0.000
14,0.0235,0.2336,0.0081,-0.0060,0.0011,0.0026,-0.82,0.63,-34.86,0,0.000,0.002,-0.070,-0.106,0.015,-0.015,0.999,0.000,0.000,0.000
14,0.0228,0.2341,0.0082,-0.0093,0.0034,0.0027,-0.85,0.69,-34.82,0,0.000,-0.114,-0.269,0.009,0.014,-0.016,0.999,0.000,0.000,0.000
14,0.0243,0.2333,0.0082,-0.0003,-0.0014,0.0029,-0.83,0.71,-34.79,0,0.000,-0.197,0.040,0.163,0.011,-0.016,1.002,0.000,0.000,0.000
14,0.0236,0.2346,0.0081,-0.0040,0.0054,0.0024,-0.85,0.64,-34.76,0,0.000,-0.062,0.040,0.063,0.013,-0.016,1.002,0.000,0.000,0.000
14,0.0230,0.2345,0.0082,-0.0069,0.0044,0.0025,-0.82,0.65,-34.72,0,0.000,-0.206,-0.185,0.043,0.013,-0.018,1.001,0.000,0.000,0.000
14,0.0245,0.2340,0.0082,0.0017,0.0013,0.0026,-0.82,0.69,-34.69,0,0.000,-0.279,0.096,-0.043,0.015,-0.016,1.003,0.000,0.000,0.000
14,0.0240,0.2336,0.0082,-0.0011,-0.0012,0.0026,-0.82,0.62,-34.65,0,0.000,-0.083,0.054,0.106,0.015,-0.017,1.001,0.000,0.000,0.000
14,0.0231,0.2342,0.0083,-0.0058,0.0019,0.0026,-0.81,0.65,-34.62,0,0.000,0.041,-0.161,-0.063,0.014,-0.015,1.000,0.000,0.000,0.000
14,0.0244,0.2333,0.0086,0.0011,-0.0029,0.0045,-0.85,0.67,-34.59,0,0.000,-0.221,-0.347,0.059,0.013,-0.016,1.001,0.000,0.000,0.000
14,0.0237,0.2335,0.0087,-0.0024,-0.0021,0.0047,-0.79,0.67,-34.55,0,0.000,0.013,0.040,-0.097,0.013,-0.015,1.001,0.000,0.000,0.000
14,0.0238,0.2345,0.0087,-0.0014,0.0028,0.0050,-0.96,0.63,-34.52,0,0.000,0.030,-0.144,-0.191,0.012,-0.017,0.999,0.000,0.000,0.000
14,0.0230,0.2333,0.0088,-0.0057,-0.0042,0.0052,-1.09,0.65,-34.48,0,0.000,-0.018,-0.234,-0.065,0.016,-0.015,0.998,0.000,0.000,0.000
14,0.0258,0.2359,0.0089,0.0101,0.0101,0.0055,-1.11,0.66,-34.45,0,0.000,-0.171,-0.193,-0.067,0.014,-0.015,0.999,0.000,0.000,0.000
14,0.0273,0.2387,0.0076,0.0176,0.0246,-0.0017,-0.98,0.61,-34.42,0,0.000,0.085,0.029,-0.056,0.011,-0.014,1.000,0.000,0.000,0.000
14,0.0274,0.2396,0.0076,0.0177,0.0285,-0.0017,-1.01,0.64,-34.38,0,0.000,0.361,-0.144,-0.127,0.012,-0.015,1.001,0.000,0.000,0.000
14,0.0269,0.2367,0.0077,0.0142,0.0113,-0.0005,-0.93,0.68,-34.35,0,0.000,-0.002,-0.351,-0.041,0.012,-0.017,1.001,0.000,0.000,0.000
15,0.0270,0.2379,0.0077,0.0142,0.0171,-0.0008,-0.94,0.66,-34.31,0,0.000,-0.066,0.285,-0.293,0.012,-0.016,1.002,0.000,0.000,0.000
15,0.0252,0.2371,0.0078,0.0040,0.0120,-0.0003,-0.94,0.65,-34.28,0,0.000,-0.041,-0.290,0.191,0.015,-0.016,1.001,0.000,0.000,0.000
15,0.0259,0.2371,0.0087,0.0079,0.0115,0.0043,-0.90,0.67,-34.25,0,0.000,-0.111,-0.213,0.220,0.014,-0.015,1.000,0.000,0.000,0.000
15,0.0260,0.2372,0.0088,0.0081,0.0116,0.0044,-0.85,0.67,-34.21,0,0.000,-0.033,0.210,-0.141,0.013,-0.017,0.999,0.000,0.000,0.000
15,0.0253,0.2369,0.0088,0.0036,0.0094,0.0046,-0.03,-0.01,0.00,0,0.000,0.316,-0.171,-0.134,0.013,-0.015,1.001,0.000,0.000,0.000
15,0.0247,0.2360,0.0089,0.0001,0.0039,0.0049,-0.02,-0.01,0.00,0,0.000,0.227,-0.054,-0.075,0.012,-0.016,1.001,0.000,0.000,0.000
15,0.0000,0.0000,0.5264,0.0032,0.0083,0.0000,0.01,-0.02,-0.00,0,0.000,0.204,0.005,0.083,0.013,-0.015,1.001,0.000,0.000,0.000
15,0.0001,0.0001,0.0070,0.0054,0.0067,0.0001,0.04,0.14,-0.00,0,0.000,-0.093,-0.056,0.279,0.014,-0.016,0.999,0.000,0.000,0.000
15,0.0001,0.0001,0.0070,0.0074,0.0024,0.0000,0.03,0.08,0.00,0,0.000,0.139,-0.063,-0.132,0.013,-0.016,1.001,0.000,0.000,0.000
15,-0.0000,0.0001,0.0071,0.0000,-0.0004,0.0001,0.03,0.09,-0.00,0,0.000,-0.083,-0.078,0.089,0.012,-0.015,1.002,0.000,0.000,0.000
15,0.0000,0.0001,0.0071,0.0034,-0.0019,0.0002,0.17,-0.05,-0.00,0,0.000,-0.056,-0.146,-0.148,0.011,-0.018,1.003,0.000,0.000,0.000
15,0.0001,0.0001,0.0071,0.0044,-0.0035,0.0003,0.03,0.25,-0.00,0,0.000,0.023,-0.265,-0.171,0.012,-0.018,1.001,0.000,0.000,0.000
15,0.0004,-0.0003,0.0081,0.0110,-0.0104,0.0013,0.03,0.25,-0.00,0,0.000,-0.202,0.152,0.015,0.015,-0.015,0.999,0.000,0.000,0.000
15,0.0004,-0.0003,0.0081,0.0110,-0.0104,0.0013,0.05,0.11,-0.00,0,0.000,-0.070,-0.258,-0.081,0.015,-0.012,0.999,0.000,0.000,0.000
15,-0.0001,-0.0002,0.0081,0.0021,-0.0086,0.0016,-0.23,-0.07,-0.00,0,0.000,-0.209,0.072,-0.189,0.014,-0.015,0.999,0.000,0.000,0.000
15,0.0003,-0.0003,0.0081,0.0077,-0.0111,0.0018,-0.45,0.02,-0.00,0,0.000,-0.055,-0.277,-0.024,0.016,-0.014,0.999,0.000,0.000,0.000
16,0.0008,0.0002,0.0082,0.0149,-0.0029,0.0020,-0.13,0.17,-0.00,0,0.000,0.035,0.311,-0.011,0.014,-0.013,1.001,0.000,0.000,0.000
16,0.0007,0.0008,0.0073,0.0132,0.0035,-0.0007,-0.10,0.35,-0.00,0,0.000,-0.059,0.146,0.331,0.013,-0.014,1.002,0.000,0.000,0.000
16,0.0005,-0.0001,0.0073,0.0095,-0.0084,-0.0006,0.13,0.15,0.00,0,0.000,0.158,-0.104,0.041,0.013,-0.016,1.000,0.000,0.000,0.000
16,0.0001,-0.0002,0.0074,0.0042,-0.0106,-0.0007,-0.13,-0.03,0.00,0,0.000,0.130,0.128,-0.340,0.014,-0.014,1.000,0.000,0.000,0.000
16,0.0007,-0.0010,0.0073,0.0122,-0.0202,-0.0009,-0.48,0.23,0.00,0,0.000,-0.061,0.083,0.125,0.012,-0.014,0.998,0.000,0.000,0.000
16,0.0013,-0.0004,0.0073,0.0199,-0.0121,-0.0008,-0.22,0.31,0.00,0,0.000,0.106,0.214,-0.211,0.011,-0.016,1.001,0.000,0.000,0.000
16,0.0007,0.0006,0.0076,0.0114,-0.0004,0.0010,-0.25,0.29,-0.00,0,0.000,-0.108,0.013,0.244,0.014,-0.016,1.000,0.000,0.000,0.000
16,0.0007,0.0006,0.0076,0.0114,-0.0004,0.0010,-0.23,0.31,-0.00,0,0.000,-0.043,0.253,0.080,0.013,-0.015,0.999,0.000,0.000,0.000
16,0.0007,-0.0003,0.0077,0.0110,-0.0107,0.0012,-0.02,0.24,-0.00,0,0.000,-0.005,-0.240,0.332,0.012,-0.016,0.998,0.000,0.000,0.000
16,0.0007,-0.0003,0.0077,0.0110,-0.0107,0.0012,-0.50,0.42,0.00,0,0.000,0.010,0.177,0.162,0.013,-0.015,1.000,0.000,0.000,0.000
16,0.0007,-0.0005,0.0077,0.0106,-0.0125,0.0010,-0.50,0.41,0.00,0,0.000,0.108,-0.225,-0.054,0.012,-0.017,1.001,0.000,0.000,0.000
16,0.0011,-0.0015,0.0078,0.0141,-0.0222,0.0017,-0.32,0.39,0.00,0,0.000,0.014,-0.241,0.202,0.013,-0.016,0.998,0.000,0.000,0.000
16,0.0006,0.0003,0.0079,0.0081,-0.0043,0.0022,-0.17,0.36,0.00,0,0.000,-0.071,0.031,0.219,0.012,-0.014,1.000,0.000,0.000,0.000
16,0.0006,0.0003,0.0079,0.0081,-0.0043,0.0022,-0.44,0.62,0.01,0,0.000,0.142,-0.203,-0.060,0.012,-0.015,1.001,0.000,0.000,0.000
16,0.0008,-0.0006,0.0079,0.0099,-0.0130,0.0021,-0.46,0.53,0.01,0,0.000,-0.216,0.268,0.146,0.013,-0.013,1.002,0.000,0.000,0.000
16,-0.0001,-0.0003,0.0080,0.0006,-0.0095,0.0025,-0.60,0.37,0.01,0,0.000,0.045,0.095,-0.153,0.013,-0.015,1.000,0.000,0.000,0.000
17,-0.0001,-0.0003,0.0080,0.0006,-0.0095,0.0024,-0.57,0.64,0.01,0,0.000,-0.063,0.064,-0.112,0.013,-0.015,1.001,0.000,0.000,0.000
17,0.0013,0.0004,0.0081,0.0126,-0.0032,0.0023,-0.50,0.48,0.01,0,0.000,-0.289,0.220,0.404,0.013,-0.017,1.000,0.000,0.000,0.000
17,0.0013,0.0004,0.0081,0.0126,-0.0032,0.0023,-0.38,0.39,0.01,0,0.000,-0.235,-0.068,-0.328,0.014,-0.017,1.000,0.000,0.000,0.000
17,0.0008,-0.0003,0.0082,0.0079,-0.0089,0.0027,-0.66,0.48,0.01,0,0.000,-0.013,0.086,0.099,0.011,-0.014,1.002,0.000,0.000,0.000
17,0.0008,-0.0003,0.0082,0.0079,-0.0089,0.0027,-0.42,0.60,0.01,0,0.000,-0.449,-0.039,-0.082,0.011,-0.014,1.002,0.000,0.000,0.000
17,0.0010,0.0005,0.0072,0.0088,-0.0022,-0.0023,-0.42,0.60,0.01,0,0.000,-0.021,-0.082,0.071,0.012,-0.016,1.002,0.000,0.000,0.000
17,0.0010,0.0005,0.0072,0.0088,-0.0022,-0.0023,-0.69,0.57,0.01,0,0.000,-0.023,0.063,-0.091,0.014,-0.016,1.003,0.000,0.000,0.000
17,0.0003,-0.0013,0.0072,0.0031,-0.0164,-0.0021,-0.43,0.54,0.01,0,0.000,0.052,0.040,-0.076,0.015,-0.018,1.003,0.000,0.000,0.000
17,0.0003,-0.0013,0.0072,0.0031,-0.0164,-0.0021,-0.58,0.59,0.01,0,0.000,0.043,0.129,-0.000,0.011,-0.016,1.002,0.000,0.000,0.000
17,0.0008,-0.0015,0.0072,0.0064,-0.0171,-0.0015,-0.50,0.66,0.01,0,0.000,-0.116,-0.203,0.064,0.011,-0.016,0.999,0.000,0.000,0.000
17,0.0008,-0.0015,0.0071,0.0064,-0.0171,-0.0021,-0.61,0.63,0.01,0,0.000,0.008,0.132,0.153,0.013,-0.016,0.999,0.000,0.000,0.000
17,-0.0000,-0.0012,0.0071,0.0004,-0.0140,-0.0015,-0.62,0.69,0.01,0,0.000,0.209,-0.080,0.007,0.015,-0.015,0.999,0.000,0.000,0.000
17,-0.0000,-0.0012,0.0071,0.0004,-0.0140,-0.0015,-0.63,0.60,0.01,0,0.000,-0.147,0.045,0.149,0.013,-0.016,1.001,0.000,0.000,0.000
17,-0.0003,-0.0004,0.0071,-0.0011,-0.0080,-0.0009,-0.72,0.47,0.01,0,0.000,0.003,0.090,0.032,0.012,-0.016,1.001,0.000,0.000,0.000
17,-0.0003,-0.0004,0.0071,-0.0011,-0.0080,-0.0009,-0.75,0.57,0.01,0,0.000,-0.094,-0.047,-0.103,0.014,-0.017,0.999,0.000,0.000,0.000
18,0.0017,0.0004,0.0066,0.0125,-0.0024,-0.0034,-0.73,0.70,0.01,0,0.000,-0.012,0.147,-0.006,0.015,-0.018,1.002,0.000,0.000,0.000
18,0.0017,0.0004,0.0066,0.0125,-0.0024,-0.0034,-0.71,0.69,0.01,0,0.000,-0.262,0.122,0.042,0.013,-0.017,1.001,0.000,0.000,0.000
18,-0.0003,0.0004,0.0066,-0.0015,-0.0025,-0.0033,-0.71,0.71,0.01,0,0.000,0.058,0.315,0.120,0.014,-0.014,1.001,0.000,0.000,0.000
18,-0.0003,0.0004,0.0066,-0.0015,-0.0025,-0.0033,-0.62,0.52,0.01,0,0.000,-0.140,-0.074,0.022,0.013,-0.016,1.002,0.000,0.000,0.000
18,-0.0005,0.0002,0.0065,-0.0029,-0.0039,-0.0032,-0.77,0.58,0.01,0,0.000,-0.123,-0.001,-0.059,0.012,-0.015,1.000,0.000,0.000,0.000
18,-0.0005,0.0002,0.0067,-0.0027,-0.0044,-0.0021,-0.77,0.58,0.01,35695,0.000,-0.193,-0.091,-0.010,0.013,-0.012,1.002,0.000,0.000,0.000
18,0.0009,0.0007,0.0067,0.0069,-0.0010,-0.0017,-0.77,0.63,0.01,35665,0.000,0.059,0.011,0.012,0.012,-0.015,1.003,0.000,0.000,0.000
18,0.0010,0.0007,0.0067,0.0076,-0.0015,-0.0015,-0.73,0.59,0.01,35662,0.000,-0.102,0.036,0.028,0.014,-0.011,0.999,0.000,0.000,0.000
18,0.0004,0.0007,0.0067,0.0038,-0.0013,-0.0015,-0.61,0.57,0.01,35646,0.000,-0.204,-0.142,0.465,0.016,-0.008,1.005,0.000,0.000,0.000
18,0.0005,0.0007,0.0067,0.0041,-0.0015,-0.0013,-0.79,0.64,0.01,35640,0.000,0.388,-0.047,-0.109,0.015,-0.014,1.010,0.000,0.000,0.000
18,0.0012,-0.0014,0.0068,0.0085,-0.0141,-0.0004,-0.73,0.70,0.01,35632,0.000,-0.392,0.371,-0.733,0.012,-0.021,1.000,0.000,0.000,0.000
18,0.0012,-0.0014,0.0068,0.0085,-0.0141,-0.0004,-0.79,0.64,0.01,35456,0.000,-0.138,-0.304,-1.253,0.008,-0.021,1.003,0.000,0.000,0.000
18,-0.0003,0.0000,0.0068,-0.0027,-0.0037,0.0000,-0.79,0.64,0.01,35443,0.000,-0.026,0.185,-1.155,0.009,-0.013,1.001,0.000,0.000,0.000
18,-0.0003,-0.0000,0.0068,-0.0039,-0.0024,0.0001,-0.73,0.64,0.01,35439,0.000,1.737,0.656,-0.336,0.014,-0.015,1.003,0.000,0.000,0.000
18,0.0004,0.0008,0.0068,-0.0011,0.0050,0.0003,-0.74,0.63,0.01,35411,0.000,1.055,0.753,0.096,0.010,-0.019,1.000,0.000,0.000,0.000
18,0.0004,-0.0000,0.0078,-0.0022,0.0011,0.0053,-0.77,0.67,0.01,35407,0.000,0.652,0.586,-0.438,0.004,-0.023,0.999,0.000,0.000,0.000
19,0.0004,0.0002,0.0079,-0.0030,0.0037,0.0055,-0.71,0.60,0.01,35557,0.000,0.183,0.138,-0.210,0.011,-0.026,0.996,0.000,0.000,0.000
19,0.0004,0.0002,0.0079,-0.0030,0.0037,0.0055,-0.67,0.68,0.01,35554,0.000,-0.046,-0.404,-0.247,0.015,-0.020,1.003,0.000,0.000,0.000
19,0.0007,0.0001,0.0080,-0.0027,0.0052,0.0062,-0.59,0.53,0.01,35554,0.000,1.792,-0.639,-0.590,0.026,-0.017,1.000,0.000,0.000,0.000
19,0.0007,0.0001,0.0080,-0.0027,0.0052,0.0062,-0.72,0.62,0.01,35551,0.000,-0.055,0.981,0.699,0.022,-0.047,1.012,0.000,0.000,0.000
19,0.0016,-0.0015,0.0072,0.0007,-0.0025,0.0015,-0.69,0.58,0.01,36536,0.000,0.722,-0.348,-2.786,-0.004,-0.038,1.027,0.000,0.000,0.000
19,0.0016,-0.0015,0.0072,0.0007,-0.0025,0.0015,-0.67,0.59,-0.02,36582,0.000,-0.077,0.057,-1.397,0.009,0.014,0.969,0.000,0.000,0.000
19,0.0008,0.0003,0.0073,-0.0051,0.0094,0.0013,-0.69,0.64,-0.03,36647,0.000,2.885,1.764,-5.060,0.015,0.016,1.007,0.000,0.000,0.000
19,0.0008,0.0003,0.0073,-0.0051,0.0094,0.0013,-0.58,0.58,-0.10,36650,0.000,0.763,0.633,-19.197,0.028,-0.034,1.003,0.000,0.000,0.000
19,-0.0001,0.0005,0.0073,-0.0119,0.0118,0.0020,-0.60,0.60,-0.29,36637,0.000,-2.616,-2.711,-22.016,0.001,-0.060,1.014,0.000,0.000,0.000
19,0.0005,-0.0009,0.0068,-0.0081,0.0038,-0.0008,-0.63,0.62,-0.49,36610,0.000,-2.342,-1.384,-11.860,0.002,-0.037,0.991,0.000,0.000,0.000
19,0.0000,-0.0004,0.0068,-0.0115,0.0075,0.0014,-0.66,0.60,-0.61,36376,0.000,1.000,0.979,-7.785,0.002,-0.031,0.998,0.000,0.000,0.000
19,0.0000,-0.0001,0.0068,-0.0118,0.0095,-0.0009,-0.65,0.52,-0.70,36384,0.000,4.829,3.400,-15.169,-0.001,-0.030,1.009,0.000,0.000,0.000
19,0.0005,0.0001,0.0068,-0.0095,0.0113,-0.0007,-0.62,0.46,-0.85,36364,0.000,0.698,-0.050,-24.157,0.015,-0.044,0.997,0.000,0.000,0.000
19,0.0015,0.0002,0.0068,-0.0042,0.0126,0.0000,-0.61,0.53,-1.10,36346,0.000,-3.752,-2.000,-34.079,-0.005,-0.022,1.008,0.000,0.000,0.000
19,0.0020,0.0004,0.0081,-0.0021,0.0141,0.0083,-0.61,0.60,-1.44,36333,0.000,-4.732,-4.629,-36.432,-0.015,0.000,0.970,0.000,0.000,0.000
19,0.0008,0.0005,0.0082,-0.0094,0.0147,0.0079,-0.55,0.54,-1.80,36516,0.000,-0.833,0.291,-32.112,-0.012,-0.037,1.014,0.000,0.000,0.000
20,0.0000,0.0001,0.0083,-0.0141,0.0126,0.0076,-0.51,0.60,-2.13,36511,0.000,5.447,5.050,-38.538,0.003,-0.040,0.968,0.000,0.000,0.000
20,0.0017,-0.0015,0.0085,-0.0046,0.0040,0.0087,-0.38,0.54,-2.52,36553,0.000,2.682,3.312,-42.591,0.017,-0.028,1.000,0.000,0.000,0.000
20,0.0006,-0.0018,0.0085,-0.0112,0.0029,0.0088,-0.38,0.55,-2.95,36581,0.000,-0.377,-5.095,-40.521,0.016,-0.008,1.030,0.000,0.000,0.000
20,0.0007,-0.0034,0.0080,-0.0112,-0.0053,0.0058,-0.43,0.55,-3.34,37526,0.000,-7.574,-1.850,-24.758,0.007,-0.004,0.934,0.000,0.000,0.000
20,0.0001,-0.0030,0.0080,-0.0150,-0.0018,0.0035,-0.37,0.60,-3.59,37513,0.000,-2.247,1.413,-21.005,-0.018,-0.032,1.034,0.000,0.000,0.000
20,0.0009,-0.0021,0.0081,-0.0104,0.0039,0.0040,-0.38,0.54,-3.81,37501,0.000,-0.645,-0.189,-27.663,-0.014,-0.010,1.005,0.000,0.000,0.000
20,0.0005,-0.0038,0.0081,-0.0128,-0.0054,0.0022,-0.20,0.47,-4.09,37485,0.000,-3.570,-0.576,-29.985,0.007,0.007,1.014,0.000,0.000,0.000
20,0.0014,-0.0039,0.0081,-0.0079,-0.0049,0.0014,-0.26,0.48,-4.38,37496,0.000,5.428,2.846,-17.283,0.008,0.007,0.982,0.000,0.000,0.000
20,0.0027,-0.0075,0.0089,-0.0013,-0.0240,0.0077,-0.04,0.43,-4.55,37501,0.000,0.888,-0.096,-13.409,-0.005,-0.008,1.020,0.000,0.000,0.000
20,0.0028,-0.0068,0.0090,-0.0016,-0.0185,0.0035,0.02,0.44,-4.70,37580,0.000,-4.109,-0.249,-19.409,-0.009,0.006,0.978,0.000,0.000,0.000
20,0.0030,-0.0103,0.0089,-0.0010,-0.0361,0.0035,-0.05,0.45,-4.89,37627,0.000,-3.345,2.132,-20.913,-0.004,0.012,1.010,0.000,0.000,0.000
20,0.0027,-0.0115,0.0089,-0.0035,-0.0409,0.0050,-0.14,0.43,-5.09,37644,0.000,-4.882,0.090,-11.180,0.013,0.015,1.035,0.000,0.000,0.000
20,0.0027,-0.0110,0.0090,-0.0039,-0.0358,0.0059,-0.07,0.50,-5.20,37655,0.000,-1.336,-1.660,1.404,0.008,-0.006,0.971,0.000,0.000,0.000
20,0.0032,-0.0098,0.0087,-0.0015,-0.0268,0.0035,-0.10,0.48,-5.20,37641,0.000,7.763,3.030,-5.706,0.000,-0.024,0.998,0.000,0.000,0.000
20,0.0021,-0.0117,0.0087,-0.0082,-0.0353,0.0032,-0.06,0.44,-5.26,37934,0.000,-7.806,2.715,-9.980,0.006,-0.026,1.045,0.000,0.000,0.000
20,0.0027,-0.0113,0.0088,-0.0056,-0.0313,0.0025,-0.15,0.51,-5.35,37866,0.000,-11.226,-4.215,-8.900,0.008,-0.002,0.953,0.000,0.000,0.000
21,0.0028,-0.0115,0.0088,-0.0052,-0.0301,0.0020,-0.36,0.44,-5.44,37881,0.000,9.681,1.349,-5.426,-0.000,-0.015,1.040,0.000,0.000,0.000
21,0.0016,-0.0109,0.0089,-0.0123,-0.0247,0.0054,-0.23,0.45,-5.49,37898,0.000,6.534,4.273,-1.913,-0.005,-0.030,0.996,0.000,0.000,0.000
21,0.0036,-0.0087,0.0074,-0.0014,-0.0111,-0.0051,-0.18,0.40,-5.51,37917,0.000,-0.452,2.863,-5.603,0.009,-0.023,0.974,0.000,0.000,0.000
21,0.0028,-0.0098,0.0073,-0.0066,-0.0163,-0.0060,-0.18,0.34,-5.58,39104,0.000,3.252,-4.438,-8.336,0.002,0.024,1.052,0.000,0.000,0.000
21,0.0027,-0.0100,0.0073,-0.0074,-0.0156,-0.0016,-0.13,0.35,-5.65,39142,0.000,-6.457,-4.258,-1.743,0.001,0.003,0.966,0.000,0.000,0.000
21,0.0026,-0.0101,0.0072,-0.0049,-0.0148,-0.0043,0.01,0.45,-5.66,39009,0.000,-3.882,-2.752,-0.467,-0.002,-0.012,0.972,0.000,0.000,0.000
21,0.0031,-0.0114,0.0072,-0.0060,-0.0208,-0.0018,0.02,0.53,-5.67,39116,0.000,3.326,-1.250,1.106,-0.002,-0.018,1.009,0.000,0.000,0.000
21,0.0030,-0.0116,0.0067,-0.0065,-0.0205,-0.0038,-0.16,0.50,-5.65,39240,0.000,-5.418,2.081,0.258,0.003,-0.012,1.014,0.000,0.000,0.000
21,0.0002,-0.0167,0.0065,-0.0221,-0.0462,-0.0074,0.02,0.48,-5.65,39373,0.000,-3.068,-1.910,3.753,0.010,-0.011,0.969,0.000,0.000,0.000
21,-0.0001,-0.0172,0.0064,-0.0231,-0.0462,-0.0032,0.08,0.46,-5.61,39345,0.000,11.170,2.003,4.798,0.027,-0.030,1.016,0.000,0.000,0.000
21,0.0011,-0.0178,0.0066,-0.0165,-0.0484,-0.0047,-0.07,0.43,-5.57,39437,0.000,4.946,10.262,0.331,0.024,-0.035,1.001,0.000,0.000,0.000
21,0.0009,-0.0183,0.0065,-0.0172,-0.0484,-0.0075,-0.20,0.30,-5.57,39459,0.000,0.785,1.550,-5.908,0.005,-0.010,1.011,0.000,0.000,0.000
21,0.0009,-0.0156,0.0056,-0.0171,-0.0299,-0.0111,-0.26,0.32,-5.64,39479,0.000,-13.875,-8.511,-8.168,0.014,-0.002,0.958,0.000,0.000,0.000
21,0.0007,-0.0159,0.0055,-0.0179,-0.0295,-0.0098,-0.52,0.40,-5.72,39633,0.000,-10.436,-9.631,-2.360,0.003,-0.025,0.951,0.000,0.000,0.000
21,0.0022,-0.0108,0.0056,-0.0094,-0.0005,-0.0114,-0.59,0.48,-5.74,39768,0.000,4.738,8.118,2.255,0.002,-0.041,1.076,0.000,0.000,0.000
22,0.0021,-0.0108,0.0054,-0.0099,-0.0000,-0.0107,-0.84,0.32,-5.72,39949,0.000,5.431,1.010,2.290,0.011,-0.036,1.020,0.000,0.000,0.000
22,0.0029,-0.0080,0.0053,-0.0059,0.0154,-0.0103,-0.83,0.31,-5.68,39809,0.000,6.282,1.031,6.073,0.010,-0.001,0.926,0.000,0.000,0.000
22,0.0022,-0.0075,0.0047,-0.0096,0.0183,-0.0124,-0.85,0.29,-5.61,39941,0.000,2.788,-1.173,11.349,0.013,-0.026,1.016,0.000,0.000,0.000
22,0.0051,-0.0005,0.0043,0.0055,0.0551,-0.0175,-0.81,0.28,-5.50,41075,0.000,1.420,2.424,9.872,0.013,-0.036,1.054,0.000,0.000,0.000
22,0.0051,0.0006,0.0040,0.0046,0.0595,-0.0221,-1.02,0.27,-5.40,41114,0.000,-2.055,-3.702,8.139,0.001,-0.025,0.961,0.000,0.000,0.000
22,0.0053,0.0028,0.0037,0.0051,0.0693,-0.0165,-1.37,0.26,-5.35,41030,0.000,-3.519,-3.328,-4.766,0.007,-0.026,0.990,0.000,0.000,0.000
22,0.0058,0.0030,0.0036,0.0071,0.0687,-0.0149,-1.44,0.28,-5.40,41032,0.000,6.022,-2.430,-4.243,0.007,-0.002,1.060,0.000,0.000,0.000
22,0.0073,0.0152,0.0032,0.0150,0.1315,-0.0233,-1.39,0.23,-5.42,41041,0.000,0.550,8.493,3.145,0.005,-0.006,0.990,0.000,0.000,0.000
22,0.0075,0.0176,0.0028,0.0151,0.1392,-0.0225,-1.23,0.21,-5.39,40985,0.000,3.641,7.849,0.927,-0.004,-0.007,0.956,0.000,0.000,0.000
22,0.0085,0.0185,0.0027,0.0195,0.1390,-0.0174,-1.12,0.16,-5.37,40954,0.000,3.445,2.773,6.090,0.013,-0.025,0.987,0.000,0.000,0.000
22,0.0078,0.0173,0.0032,0.0143,0.1274,-0.0170,-1.60,0.10,-5.31,41052,0.000,-0.075,-0.679,7.953,0.023,-0.017,1.049,0.000,0.000,0.000
22,0.0079,0.0175,0.0032,0.0137,0.1241,-0.0160,-1.49,0.09,-5.23,40952,0.000,0.919,2.066,6.927,-0.002,-0.007,1.006,0.000,0.000,0.000
22,0.0097,0.0295,0.0033,0.0226,0.1842,-0.0124,-1.46,0.10,-5.19,40766,0.000,-4.554,-2.206,-3.804,-0.015,-0.015,0.975,0.000,0.000,0.000
22,0.0101,0.0294,0.0036,0.0236,0.1763,-0.0104,-1.35,0.15,-5.23,40483,0.000,8.241,-2.820,-4.155,0.026,-0.026,1.020,0.000,0.000,0.000
22,0.0099,0.0303,0.0037,0.0216,0.1739,-0.0131,-1.16,0.13,-5.26,40513,0.000,7.421,13.737,0.767,0.020,-0.015,1.014,0.000,0.000,0.000
22,0.0097,0.0293,0.0043,0.0194,0.1616,-0.0089,-0.96,-0.05,-5.25,40519,0.000,16.547,19.442,2.291,-0.015,-0.018,0.986,0.000,0.000,0.000
23,0.0098,0.0287,0.0048,0.0185,0.1520,-0.0011,-0.83,-0.13,-5.21,40478,0.000,-7.608,-14.556,5.316,-0.001,-0.013,0.935,0.000,0.000,0.000
23,0.0103,0.0285,0.0064,0.0201,0.1443,0.0083,-0.89,0.01,-5.15,40486,0.000,-3.502,-4.488,7.976,0.022,-0.044,1.055,0.000,0.000,0.000
23,0.0097,0.0281,0.0068,0.0161,0.1363,0.0076,-0.89,0.00,-5.07,41662,0.000,-5.419,8.242,11.901,0.003,-0.030,1.097,0.000,0.000,0.000
23,0.0098,0.0298,0.0068,0.0159,0.1395,0.0086,-0.80,-0.06,-4.95,41517,0.000,8.517,8.591,12.039,-0.010,-0.018,0.994,0.000,0.000,0.000
23,0.0103,0.0302,0.0071,0.0180,0.1357,0.0110,-0.69,-0.10,-4.86,41304,0.000,-6.541,-8.498,-2.085,-0.013,-0.017,1.004,0.000,0.000,0.000
23,0.0098,0.0300,0.0074,0.0145,0.1285,0.0111,-0.68,-0.06,-4.87,41317,0.000,11.257,-6.127,3.950,0.011,-0.013,1.007,0.000,0.000,0.000
23,0.0098,0.0292,0.0075,0.0138,0.1186,0.0055,-0.52,0.01,-4.83,41176,0.000,-3.431,9.139,2.099,-0.011,-0.035,1.024,0.000,0.000,0.000
23,0.0102,0.0289,0.0078,0.0152,0.1116,0.0125,-0.50,-0.07,-4.81,41427,0.000,15.315,-1.163,4.468,0.006,-0.014,0.986,0.000,0.000,0.000
23,0.0099,0.0289,0.0080,0.0128,0.1067,0.0219,-0.01,-0.01,-4.74,41416,0.000,15.755,4.432,7.720,-0.003,-0.032,1.016,0.000,0.000,0.000
23,0.0101,0.0295,0.0083,0.0134,0.1052,0.0224,0.70,-0.11,-4.64,41509,0.000,18.716,12.057,11.464,0.001,-0.024,0.983,0.000,0.000,0.000
23,0.0095,0.0246,0.0092,0.0096,0.0732,0.0277,0.95,-0.17,-4.51,41513,0.000,14.321,-8.243,13.970,0.000,-0.012,0.983,0.000,0.000,0.000
23,0.0086,0.0123,0.0079,0.0042,0.0035,0.0218,1.19,-0.06,-4.37,41550,0.000,0.558,-9.544,17.189,-0.003,-0.006,0.962,0.000,0.000,0.000
23,0.0084,0.0118,0.0081,0.0030,-0.0002,0.0234,1.17,0.05,-4.19,41869,0.000,2.496,-7.147,22.193,-0.003,-0.021,0.979,0.000,0.000,0.000
23,0.0076,0.0086,0.0080,-0.0016,-0.0188,0.0214,1.20,0.16,-3.97,41893,0.000,1.896,-5.167,24.857,-0.002,-0.021,0.973,0.000,0.000,0.000
23,0.0073,0.0094,0.0084,-0.0030,-0.0152,0.0231,1.06,0.21,-3.73,42048,0.000,2.649,-4.598,24.182,-0.003,-0.016,0.973,0.000,0.000,0.000
23,0.0066,0.0094,0.0086,-0.0070,-0.0164,0.0216,0.92,0.33,-3.50,42085,0.000,-7.953,-1.205,22.012,0.006,-0.011,0.950,0.000,0.000,0.000
24,0.0067,0.0128,0.0079,-0.0059,0.0015,0.0149,0.84,0.36,-3.27,42321,0.000,-5.404,-5.506,26.581,0.006,-0.010,0.973,0.000,0.000,0.000
24,0.0050,0.0159,0.0082,-0.0154,0.0166,0.0118,0.70,0.35,-3.01,43573,0.000,-12.043,9.547,28.127,0.005,-0.009,0.977,0.000,0.000,0.000
24,0.0050,0.0162,0.0083,-0.0154,0.0160,0.0095,0.52,0.27,-2.73,43764,0.000,-11.349,10.552,26.303,0.004,-0.018,1.004,0.000,0.000,0.000
24,0.0051,0.0174,0.0084,-0.0143,0.0204,0.0069,0.33,0.22,-2.47,43798,0.000,-19.262,5.324,23.214,0.011,-0.030,1.161,0.000,0.000,0.000
24,0.0051,0.0193,0.0085,-0.0140,0.0280,0.0038,0.13,0.16,-2.25,43523,0.000,-17.399,8.236,20.128,0.005,-0.015,1.109,0.000,0.000,0.000
24,0.0039,0.0206,0.0074,-0.0204,0.0330,-0.0069,-0.05,0.10,-2.05,43291,0.000,-13.100,-16.511,14.758,0.010,-0.006,1.028,0.000,0.000,0.000
24,0.0042,0.0213,0.0074,-0.0183,0.0344,-0.0098,-0.24,0.34,-1.93,43064,0.000,-11.360,-21.716,0.491,0.010,-0.015,1.003,0.000,0.000,0.000
24,0.0040,0.0216,0.0073,-0.0186,0.0339,-0.0120,-0.36,0.53,-1.92,43089,0.000,-3.149,-12.976,-1.430,0.007,-0.018,1.004,0.000,0.000,0.000
24,0.0017,0.0225,0.0071,-0.0313,0.0368,-0.0116,-0.19,0.70,-1.93,43147,0.000,17.320,-20.380,-1.908,0.016,-0.006,0.985,0.000,0.000,0.000
24,0.0013,0.0229,0.0070,-0.0317,0.0370,0.0023,-0.00,0.90,-1.94,43214,0.000,13.654,-9.638,-1.285,0.003,-0.015,1.002,0.000,0.000,0.000
24,0.0003,0.0194,0.0080,-0.0368,0.0155,0.0190,-0.05,1.00,-1.95,43372,0.000,9.736,-2.881,1.581,0.007,-0.013,0.990,0.000,0.000,0.000
24,-0.0003,0.0191,0.0082,-0.0387,0.0131,0.0222,0.11,1.08,-1.93,43614,0.000,20.700,-6.341,4.225,0.020,-0.012,0.971,0.000,0.000,0.000
24,-0.0013,0.0228,0.0084,-0.0433,0.0336,0.0217,0.17,1.29,-1.87,43726,0.000,12.569,4.929,5.376,0.009,-0.002,1.031,0.000,0.000,0.000
24,-0.0023,0.0225,0.0086,-0.0481,0.0302,0.0218,0.32,1.21,-1.81,43707,0.000,14.178,-0.018,7.805,-0.002,0.000,1.030,0.000,0.000,0.000
24,-0.0070,0.0253,0.0083,-0.0731,0.0441,0.0171,0.48,1.26,-1.72,43690,0.000,20.719,-8.115,9.029,0.017,-0.004,0.985,0.000,0.000,0.000
24,-0.0069,0.0248,0.0075,-0.0704,0.0392,0.0123,0.77,1.35,-1.64,43741,0.000,11.350,8.404,4.004,0.016,-0.001,0.991,0.000,0.000,0.000
25,-0.0076,0.0252,0.0077,-0.0726,0.0389,0.0109,0.91,1.28,-1.60,44913,0.000,13.560,5.392,2.580,0.010,-0.010,1.002,0.000,0.000,0.000
25,-0.0090,0.0251,0.0077,-0.0783,0.0359,0.0084,1.07,1.17,-1.57,44907,0.000,11.008,9.177,3.985,0.013,-0.016,0.986,0.000,0.000,0.000
25,-0.0111,0.0231,0.0077,-0.0872,0.0229,0.0110,1.43,1.23,-1.53,45076,0.000,10.898,6.845,5.136,0.021,-0.022,0.961,0.000,0.000,0.000
25,-0.0120,0.0227,0.0079,-0.0899,0.0181,0.0135,1.44,1.09,-1.48,45193,0.000,10.083,16.413,4.430,0.010,-0.015,0.970,0.000,0.000,0.000
25,-0.0154,0.0165,0.0077,-0.1058,-0.0174,0.0101,1.72,0.97,-1.44,45487,0.000,13.382,17.457,2.835,0.005,-0.012,1.005,0.000,0.000,0.000
25,-0.0153,0.0185,0.0081,-0.1019,-0.0078,0.0108,1.84,0.75,-1.40,45309,0.000,7.548,19.035,4.303,-0.001,-0.012,0.992,0.000,0.000,0.000
25,-0.0176,0.0147,0.0078,-0.1108,-0.0303,0.0086,1.95,0.74,-1.34,45454,0.000,3.649,24.121,3.744,0.008,-0.010,1.027,0.000,0.000,0.000
25,-0.0177,0.0143,0.0081,-0.1071,-0.0333,0.0080,1.98,0.44,-1.29,45380,0.000,2.732,27.172,5.740,0.003,-0.009,1.021,0.000,0.000,0.000
25,-0.0230,0.0129,0.0073,-0.1316,-0.0417,-0.0008,1.89,0.37,-1.19,45360,0.000,-4.710,21.094,7.300,0.000,-0.015,1.035,0.000,0.000,0.000
25,-0.0235,0.0124,0.0086,-0.1285,-0.0450,0.0035,1.77,0.12,-1.12,45370,0.000,-5.728,16.087,7.472,-0.004,-0.019,1.036,0.000,0.000,0.000
25,-0.0287,0.0143,0.0083,-0.1509,-0.0356,0.0014,1.77,-0.07,-1.04,44905,0.000,-5.617,9.379,9.469,-0.002,-0.011,1.022,0.000,0.000,0.000
25,-0.0290,0.0153,0.0086,-0.1454,-0.0316,0.0029,1.82,-0.15,-0.95,44832,0.000,-0.211,13.741,9.326,-0.001,-0.012,1.030,0.000,0.000,0.000
25,-0.0294,0.0137,0.0088,-0.1403,-0.0414,0.0061,1.83,-0.36,-0.86,44762,0.000,-1.406,20.479,10.795,-0.000,-0.007,1.002,0.000,0.000,0.000
25,-0.0309,0.0115,0.0086,-0.1413,-0.0543,0.0070,1.79,-0.63,-0.75,44790,0.000,1.314,17.658,12.507,-0.005,-0.005,1.011,0.000,0.000,0.000
25,-0.0313,0.0104,0.0110,-0.1355,-0.0603,0.0229,1.76,-0.84,-0.63,44748,0.000,-5.703,13.790,10.046,0.000,-0.009,1.013,0.000,0.000,0.000
25,-0.0312,0.0104,0.0115,-0.1270,-0.0601,0.0278,1.69,-0.98,-0.53,45671,0.000,-14.338,15.491,10.992,0.003,-0.009,1.022,0.000,0.000,0.000
26,-0.0311,0.0104,0.0120,-0.1192,-0.0598,0.0317,1.48,-1.22,-0.42,45659,0.000,-28.514,22.328,13.760,0.000,-0.007,1.013,0.000,0.000,0.000
26,-0.0323,0.0098,0.0124,-0.1180,-0.0629,0.0342,1.08,-1.45,-0.27,45693,0.000,-35.797,20.999,17.322,-0.004,-0.016,0.993,0.000,0.000,0.000
26,-0.0319,0.0098,0.0130,-0.1082,-0.0627,0.0361,0.83,-1.74,-0.09,45735,0.000,-34.085,26.944,19.842,-0.004,-0.014,1.011,0.000,0.000,0.000
26,-0.0328,0.0113,0.0138,-0.1053,-0.0541,0.0396,0.60,-2.05,0.11,46660,0.000,-31.788,24.092,19.039,0.001,-0.014,1.013,0.000,0.000,0.000
26,-0.0323,0.0088,0.0142,-0.0949,-0.0666,0.0411,0.26,-2.31,0.29,46698,0.000,-34.452,20.594,16.203,-0.009,-0.007,1.029,0.000,0.000,0.000
26,-0.0324,0.0060,0.0145,-0.0877,-0.0801,0.0425,0.02,-2.53,0.45,46751,0.000,-35.873,16.057,15.796,-0.011,-0.000,1.008,0.000,0.000,0.000
26,-0.0324,0.0054,0.0149,-0.0801,-0.0809,0.0439,-0.25,-2.85,0.58,46766,0.000,-31.967,16.449,14.055,-0.002,-0.004,1.032,0.000,0.000,0.000
26,-0.0325,0.0026,0.0152,-0.0727,-0.0927,0.0424,-0.40,-3.11,0.72,46903,0.000,-21.906,23.822,12.903,-0.002,-0.022,1.039,0.000,0.000,0.000
26,-0.0288,0.0005,0.0107,-0.0464,-0.1003,0.0178,-0.67,-3.46,0.84,46826,0.000,-10.219,21.961,12.327,-0.003,-0.018,1.019,0.000,0.000,0.000
26,-0.0277,-0.0033,0.0106,-0.0335,-0.1152,0.0175,-0.55,-3.57,1.00,47827,0.000,-7.887,4.584,13.085,-0.008,-0.012,1.028,0.000,0.000,0.000
26,-0.0260,-0.0029,0.0109,-0.0176,-0.1068,0.0204,-0.71,-3.83,1.08,47852,0.000,-9.300,-5.719,9.229,-0.012,-0.014,1.039,0.000,0.000,0.000
26,-0.0276,-0.0083,0.0107,-0.0192,-0.1282,0.0193,-0.79,-3.99,1.13,47999,0.000,-1.304,-13.989,7.920,-0.018,-0.009,1.033,0.000,0.000,0.000
26,-0.0222,-0.0081,0.0107,0.0165,-0.1196,0.0212,-0.83,-3.98,1.19,47870,0.000,8.249,-13.644,7.349,-0.009,-0.016,1.036,0.000,0.000,0.000
26,-0.0159,-0.0083,0.0059,0.0549,-0.1143,-0.0024,-0.81,-3.97,1.24,48545,0.000,9.806,-12.212,8.690,-0.000,-0.020,1.021,0.000,0.000,0.000
26,-0.0125,-0.0084,0.0055,0.0767,-0.1074,-0.0024,-0.74,-3.83,1.31,49639,0.000,14.925,-16.903,9.410,0.002,-0.024,1.017,0.000,0.000,0.000
26,-0.0090,-0.0078,0.0051,0.0986,-0.0968,-0.0019,-0.69,-3.96,1.35,49976,0.000,12.371,-25.025,7.719,0.004,-0.026,1.017,0.000,0.000,0.000
27,-0.0082,-0.0072,0.0053,0.1044,-0.0866,0.0027,-0.68,-3.83,1.39,50219,0.000,2.823,-28.446,5.263,-0.002,-0.015,1.016,0.000,0.000,0.000
27,0.0004,-0.0057,0.0035,0.1518,-0.0729,-0.0047,-0.79,-3.71,1.40,50063,0.000,-1.772,-34.433,3.484,-0.004,-0.011,1.025,0.000,0.000,0.000
27,0.0048,-0.0042,0.0014,0.1744,-0.0600,-0.0125,-0.80,-3.42,1.44,50280,0.000,-3.810,-51.370,5.344,-0.003,-0.015,1.013,0.000,0.000,0.000
27,0.0113,-0.0020,-0.0000,0.2067,-0.0435,-0.0179,-0.90,-2.77,1.48,50618,0.000,1.025,-57.882,2.402,-0.004,-0.026,1.034,0.000,0.000,0.000
27,0.0161,-0.0024,-0.0011,0.2280,-0.0419,-0.0219,-0.94,-2.26,1.49,50757,0.000,5.117,-62.096,0.471,0.000,-0.023,1.048,0.000,0.000,0.000
27,0.0160,-0.0016,-0.0003,0.2212,-0.0333,-0.0139,-1.00,-1.97,1.45,50731,0.000,8.465,-62.108,-0.850,0.004,-0.019,1.049,0.000,0.000,0.000
27,0.0202,-0.0007,-0.0013,0.2380,-0.0253,-0.0171,-0.94,-1.39,1.43,50668,0.000,9.540,-63.514,-0.321,0.011,-0.022,1.075,0.000,0.000,0.000
27,0.0301,0.0019,-0.0029,0.2850,-0.0081,-0.0237,-0.90,-0.73,1.42,50544,0.000,16.683,-63.605,-2.185,0.008,-0.021,1.067,0.000,0.000,0.000
27,0.0338,0.0033,-0.0036,0.2946,0.0016,-0.0244,-0.82,-0.03,1.39,50513,0.000,13.718,-67.508,-0.315,-0.003,-0.014,1.076,0.000,0.000,0.000
27,0.0362,0.0044,-0.0036,0.2947,0.0099,-0.0197,-0.70,0.49,1.38,50453,0.000,21.449,-70.407,-1.432,0.005,-0.022,1.071,0.000,0.000,0.000
27,0.0383,0.0066,-0.0036,0.2925,0.0233,-0.0137,-0.52,1.16,1.36,50474,0.000,24.652,-68.073,-0.155,0.009,-0.032,1.066,0.000,0.000,0.000
27,0.0444,0.0078,-0.0052,0.3115,0.0300,-0.0171,-0.55,1.15,1.35,50219,0.000,19.904,-69.586,1.264,0.012,-0.027,1.054,0.000,0.000,0.000
27,0.0488,0.0093,-0.0035,0.3183,0.0382,-0.0006,-0.40,1.76,1.35,50312,0.000,10.286,-74.957,-0.105,0.009,-0.020,1.045,0.000,0.000,0.000
27,0.0520,0.0097,-0.0035,0.3173,0.0396,0.0060,-0.26,2.59,1.35,50953,0.000,-2.324,-76.643,-1.290,-0.002,-0.017,1.058,0.000,0.000,0.000
27,0.0566,0.0125,-0.0041,0.3236,0.0537,0.0090,-0.32,3.26,1.34,50970,0.000,0.237,-82.013,-2.119,-0.001,-0.023,1.076,0.000,0.000,0.000
28,0.0598,0.0131,-0.0040,0.3203,0.0543,0.0157,-0.36,4.09,1.32,50771,0.000,0.744,-76.158,0.625,-0.005,-0.015,1.081,0.000,0.000,0.000
28,0.0607,0.0141,-0.0030,0.3031,0.0573,0.0268,-0.41,4.86,1.31,50633,0.000,-0.561,-67.115,0.562,-0.005,-0.014,1.078,0.000,0.000,0.000
28,0.0650,0.0174,-0.0019,0.3035,0.0722,0.0358,-0.40,5.71,1.32,49728,0.000,-2.223,-52.788,-0.247,-0.004,-0.015,1.072,0.000,0.000,0.000
28,0.0686,0.0197,-0.0018,0.2994,0.0813,0.0385,-0.46,6.38,1.32,49589,0.000,1.239,-37.118,-2.121,-0.003,-0.015,1.060,0.000,0.000,0.000
28,0.0690,0.0206,-0.0008,0.2760,0.0822,0.0480,-0.47,6.96,1.31,49438,0.000,4.797,-25.370,-1.592,-0.007,-0.019,1.055,0.000,0.000,0.000
28,0.0705,0.0225,-0.0002,0.2587,0.0887,0.0557,-0.55,7.39,1.31,49306,0.000,11.390,-15.391,-2.968,-0.004,-0.018,1.048,0.000,0.000,0.000
28,0.0701,0.0230,0.0010,0.2307,0.0875,0.0663,-0.47,7.72,1.28,49245,0.000,14.119,-2.341,-2.459,-0.004,-0.019,1.041,0.000,0.000,0.000
28,0.0708,0.0265,0.0054,0.2070,0.1025,0.0926,-0.33,7.94,1.25,49244,0.000,18.224,6.406,-2.147,0.003,-0.024,1.029,0.000,0.000,0.000
28,0.0701,0.0278,0.0065,0.1781,0.1043,0.0996,-0.21,8.13,1.23,48436,0.000,24.820,14.651,-1.978,0.007,-0.020,1.028,0.000,0.000,0.000
28,0.0691,0.0285,0.0077,0.1490,0.1031,0.1056,-0.02,8.22,1.21,48467,0.000,23.927,24.621,-1.045,0.005,-0.011,1.022,0.000,0.000,0.000
28,0.0659,0.0305,0.0085,0.1092,0.1089,0.1093,0.25,8.10,1.18,48473,0.000,20.037,29.930,-0.894,0.011,-0.010,1.010,0.000,0.000,0.000
28,0.0625,0.0322,0.0092,0.0705,0.1123,0.1111,0.43,7.98,1.18,48265,0.000,22.181,35.511,-2.130,0.015,-0.017,1.005,0.000,0.000,0.000
28,0.0621,0.0332,0.0144,0.0476,0.1107,0.1358,0.68,7.78,1.15,47252,0.000,18.796,37.368,-3.151,0.017,-0.022,1.000,0.000,0.000,0.000
28,0.0588,0.0352,0.0153,0.0134,0.1148,0.1356,0.81,7.09,1.18,48316,0.000,13.570,40.785,-3.186,0.013,-0.018,0.997,0.000,0.000,0.000
28,0.0563,0.0358,0.0163,-0.0145,0.1107,0.1361,1.00,6.71,1.14,48334,0.000,8.881,41.307,-3.635,0.017,-0.017,0.997,0.000,0.000,0.000
28,0.0635,0.0388,0.0189,0.0123,0.1200,0.1418,1.08,6.60,1.12,48385,0.000,7.064,41.322,-4.075,0.014,-0.015,0.985,0.000,0.000,0.000
29,0.0633,0.0395,0.0204,-0.0016,0.1152,0.1424,1.18,6.25,1.08,48248,0.000,6.694,41.361,-4.293,0.010,-0.013,0.991,0.000,0.000,0.000
29,0.0569,0.0418,0.0268,-0.0500,0.1188,0.1691,1.24,5.89,1.06,48394,0.000,14.190,42.176,-5.951,0.012,-0.011,0.981,0.000,0.000,0.000
29,0.0550,0.0425,0.0283,-0.0688,0.1138,0.1680,1.39,5.32,1.00,48199,0.000,15.712,46.596,-5.775,0.008,-0.013,0.968,0.000,0.000,0.000
29,0.0528,0.0438,0.0297,-0.0872,0.1131,0.1660,1.49,5.02,0.97,48406,0.000,10.707,52.107,-4.511,0.009,-0.013,0.964,0.000,0.000,0.000
29,0.0557,0.0442,0.0323,-0.0767,0.1066,0.1690,1.65,4.61,0.92,48493,0.000,14.164,57.407,-5.249,0.011,-0.019,0.977,0.000,0.000,0.000
29,0.0513,0.0458,0.0332,-0.1049,0.1074,0.1640,1.77,4.31,0.91,48754,0.000,9.530,60.651,-6.425,0.012,-0.019,0.988,0.000,0.000,0.000
29,0.0483,0.0465,0.0360,-0.1238,0.1019,0.1689,1.92,3.74,0.85,48066,0.000,8.221,61.783,-6.824,0.011,-0.015,0.980,0.000,0.000,0.000
29,0.0414,0.0479,0.0366,-0.1619,0.1013,0.1620,2.10,2.69,0.78,48073,0.000,11.265,63.279,-7.337,0.015,-0.011,0.968,0.000,0.000,0.000
29,0.0390,0.0480,0.0381,-0.1727,0.0937,0.1581,2.17,2.68,0.74,48270,0.000,12.660,61.311,-6.894,0.015,-0.014,0.959,0.000,0.000,0.000
29,0.0330,0.0492,0.0384,-0.2021,0.0921,0.1489,2.49,1.47,0.62,48356,0.000,9.429,62.076,-7.126,0.017,-0.012,0.958,0.000,0.000,0.000
29,0.0313,0.0483,0.0402,-0.2055,0.0790,0.1485,2.51,1.61,0.62,48597,0.000,3.906,57.172,-6.067,0.007,-0.014,0.952,0.000,0.000,0.000
29,0.0279,0.0483,0.0456,-0.2173,0.0695,0.1667,2.62,0.44,0.52,48731,0.000,-3.435,55.477,-6.031,0.009,-0.016,0.960,0.000,0.000,0.000
29,0.0225,0.0483,0.0465,-0.2382,0.0625,0.1605,2.64,0.57,0.53,49443,0.000,-8.187,59.282,-5.087,0.005,-0.016,0.965,0.000,0.000,0.000
29,0.0202,0.0481,0.0481,-0.2406,0.0536,0.1573,2.48,-0.64,0.47,49519,0.000,-19.012,63.860,-3.306,0.004,-0.012,0.972,0.000,0.000,0.000
29,0.0146,0.0482,0.0487,-0.2593,0.0471,0.1481,2.52,-0.49,0.48,49677,0.000,-19.476,66.247,-2.698,0.012,-0.006,0.970,0.000,0.000,0.000
30,0.0122,0.0481,0.0502,-0.2593,0.0402,0.1441,2.14,-1.83,0.47,49708,0.000,-20.398,67.120,-0.301,0.009,-0.008,0.977,0.000,0.000,0.000
30,0.0058,0.0477,0.0536,-0.2796,0.0308,0.1499,1.99,-2.42,0.49,49509,0.000,-16.528,63.294,-0.436,0.010,-0.008,0.983,0.000,0.000,0.000
30,0.0036,0.0476,0.0552,-0.2754,0.0245,0.1469,1.86,-3.06,0.50,49529,0.000,-16.529,56.294,1.519,0.016,-0.010,0.980,0.000,0.000,0.000
30,-0.0007,0.0470,0.0562,-0.2823,0.0161,0.1410,1.73,-3.48,0.56,49655,0.000,-10.888,45.297,3.071,0.018,-0.008,0.973,0.000,0.000,0.000
30,-0.0028,0.0466,0.0578,-0.2751,0.0095,0.1395,1.67,-3.93,0.59,49634,0.000,-5.801,34.572,2.802,0.017,-0.009,0.965,0.000,0.000,0.000
30,-0.0078,0.0461,0.0584,-0.2846,0.0031,0.1322,1.65,-4.16,0.63,49757,0.000,-5.638,22.898,2.466,0.015,-0.009,0.965,0.000,0.000,0.000
30,-0.0106,0.0457,0.0622,-0.2783,-0.0029,0.1425,1.59,-4.44,0.65,49770,0.000,-5.575,12.746,2.423,0.007,-0.015,0.976,0.000,0.000,0.000
30,-0.0148,0.0449,0.0632,-0.2801,-0.0100,0.1384,1.57,-4.53,0.68,50222,0.000,-8.420,8.581,3.337,0.006,-0.012,0.975,0.000,0.000,0.000
30,-0.0158,0.0450,0.0651,-0.2635,-0.0119,0.1389,1.48,-4.67,0.71,50264,0.000,-11.546,10.734,4.531,0.009,-0.009,0.972,0.000,0.000,0.000
30,-0.0188,0.0442,0.0663,-0.2588,-0.0182,0.1351,1.38,-4.75,0.76,50296,0.000,-13.262,10.897,4.353,0.014,-0.009,0.983,0.000,0.000,0.000
30,-0.0199,0.0439,0.0680,-0.2435,-0.0211,0.1338,1.38,-4.80,0.75,50345,0.000,-12.432,18.391,4.676,0.005,-0.009,1.000,0.000,0.000,0.000
30,-0.0224,0.0429,0.0674,-0.2377,-0.0280,0.1192,1.26,-4.99,0.78,50195,0.000,-11.691,25.679,3.958,0.001,-0.010,0.994,0.000,0.000,0.000
30,-0.0248,0.0426,0.0687,-0.2237,-0.0302,0.1178,1.12,-5.23,0.83,51196,0.000,-16.602,33.476,3.417,0.012,-0.013,0.988,0.000,0.000,0.000
30,-0.0258,0.0423,0.0699,-0.2157,-0.0324,0.1149,1.01,-5.64,0.85,51215,0.000,-6.489,33.939,2.614,0.018,-0.008,0.987,0.000,0.000,0.000
30,-0.0262,0.0419,0.0713,-0.1981,-0.0352,0.1139,0.91,-6.11,0.88,51274,0.000,-5.052,26.235,3.681,0.023,-0.009,0.992,0.000,0.000,0.000
30,-0.0253,0.0410,0.0728,-0.1738,-0.0393,0.1151,0.81,-6.58,0.87,51303,0.000,-5.154,10.553,3.772,0.020,-0.008,0.981,0.000,0.000,0.000
31,-0.0241,0.0401,0.0745,-0.1481,-0.0439,0.1186,0.77,-6.82,0.91,51384,0.000,-6.813,-3.501,3.365,0.007,-0.010,0.984,0.000,0.000,0.000
31,-0.0223,0.0407,0.0759,-0.1198,-0.0389,0.1189,0.55,-6.82,0.89,51505,0.000,-7.439,-13.090,3.162,-0.001,-0.015,0.989,0.000,0.000,0.000
31,-0.0221,0.0402,0.0770,-0.1016,-0.0408,0.1171,0.53,-6.78,0.93,51567,0.000,-9.818,-15.618,3.876,0.003,-0.013,0.988,0.000,0.000,0.000
31,-0.0241,0.0434,0.0784,-0.0961,-0.0222,0.1161,0.42,-6.64,0.95,51621,0.000,-12.201,-16.900,4.901,0.004,-0.007,0.997,0.000,0.000,0.000
31,-0.0241,0.0421,0.0795,-0.0793,-0.0288,0.1145,0.23,-6.53,0.94,51657,0.000,-17.994,-19.612,6.788,0.003,-0.003,1.001,0.000,0.000,0.000
31,-0.0244,0.0425,0.0804,-0.0662,-0.0257,0.1106,0.07,-6.27,1.00,51881,0.000,-15.492,-23.447,7.159,0.001,-0.006,1.003,0.000,0.000,0.000
31,-0.0238,0.0440,0.0815,-0.0487,-0.0164,0.1087,0.03,-6.13,1.13,51901,0.000,-10.036,-26.585,7.245,-0.001,-0.008,1.009,0.000,0.000,0.000
31,-0.0261,0.0443,0.0826,-0.0472,-0.0145,0.1071,-0.25,-5.85,1.11,51910,0.000,-6.807,-27.554,7.747,0.003,-0.012,1.010,0.000,0.000,0.000
31,-0.0249,0.0414,0.0836,-0.0280,-0.0293,0.1058,-0.25,-5.64,1.23,51918,0.000,-3.891,-28.486,7.915,0.001,-0.010,1.016,0.000,0.000,0.000
31,-0.0258,0.0447,0.0848,-0.0213,-0.0098,0.1055,-0.31,-5.33,1.30,51902,0.000,-1.201,-29.661,7.898,-0.006,-0.007,1.015,0.000,0.000,0.000
31,-0.0244,0.0430,0.0847,-0.0033,-0.0180,0.0995,-0.33,-5.05,1.38,51874,0.000,-0.175,-31.539,8.696,-0.002,-0.008,1.018,0.000,0.000,0.000
31,-0.0251,0.0430,0.0857,0.0025,-0.0161,0.0997,-0.34,-4.70,1.46,52097,0.000,2.005,-30.674,8.654,-0.002,-0.010,1.015,0.000,0.000,0.000
31,-0.0247,0.0428,0.0867,0.0132,-0.0155,0.1001,-0.51,-4.28,1.44,53096,0.000,2.529,-29.002,9.276,-0.007,-0.006,1.007,0.000,0.000,0.000
31,-0.0255,0.0428,0.0878,0.0169,-0.0140,0.1011,-0.48,-3.96,1.54,53118,0.000,0.028,-28.903,10.570,-0.006,-0.005,1.007,0.000,0.000,0.000
31,-0.0279,0.0470,0.0890,0.0113,0.0099,0.1027,-0.42,-3.66,1.67,53123,0.000,-1.075,-29.089,10.142,0.002,-0.011,1.010,0.000,0.000,0.000
32,-0.0282,0.0468,0.0888,0.0161,0.0092,0.0971,-0.40,-3.41,1.77,53491,0.000,2.340,-27.613,9.921,0.003,-0.009,1.013,0.000,0.000,0.000
32,-0.0280,0.0459,0.0898,0.0230,0.0050,0.0988,-0.34,-3.09,1.91,53487,0.000,0.314,-31.793,10.046,-0.003,-0.007,1.025,0.000,0.000,0.000
32,-0.0272,0.0459,0.0907,0.0321,0.0058,0.0999,-0.33,-2.83,2.00,53453,0.000,1.071,-31.422,8.788,-0.004,-0.006,1.038,0.000,0.000,0.000
32,-0.0277,0.0448,0.0918,0.0336,0.0004,0.1007,-0.26,-2.49,2.13,53378,0.000,2.501,-28.625,8.261,-0.000,-0.006,1.035,0.000,0.000,0.000
32,-0.0263,0.0453,0.0928,0.0441,0.0036,0.1012,-0.24,-2.19,2.22,53467,0.000,0.719,-25.573,8.661,-0.005,-0.009,1.043,0.000,0.000,0.000
32,-0.0265,0.0441,0.0919,0.0455,-0.0027,0.0922,-0.19,-1.89,2.32,53235,0.000,-2.060,-22.578,7.859,-0.005,-0.008,1.051,0.000,0.000,0.000
32,-0.0262,0.0441,0.0928,0.0491,-0.0020,0.0936,-0.20,-1.66,2.40,53546,0.000,-4.313,-19.759,8.020,0.002,-0.004,1.047,0.000,0.000,0.000
32,-0.0262,0.0434,0.0938,0.0503,-0.0047,0.0964,-0.19,-1.41,2.50,53281,0.000,-0.921,-17.049,6.875,-0.002,-0.005,1.038,0.000,0.000,0.000
32,-0.0246,0.0435,0.0948,0.0592,-0.0035,0.1003,-0.19,-1.22,2.58,53349,0.000,-0.195,-16.637,6.353,-0.001,-0.007,1.051,0.000,0.000,0.000
32,-0.0248,0.0427,0.0959,0.0582,-0.0072,0.1040,-0.23,-1.02,2.63,53078,0.000,2.013,-15.378,6.022,-0.004,-0.008,1.055,0.000,0.000,0.000
32,-0.0243,0.0424,0.0957,0.0602,-0.0084,0.1019,-0.29,-0.77,2.66,53462,0.000,5.489,-13.772,5.641,-0.004,-0.009,1.043,0.000,0.000,0.000
32,-0.0247,0.0430,0.0968,0.0572,-0.0042,0.1070,-0.25,-0.62,2.71,53199,0.000,7.119,-10.539,5.096,-0.001,-0.009,1.035,0.000,0.000,0.000
32,-0.0260,0.0445,0.0979,0.0483,0.0049,0.1116,0.01,-0.48,2.85,54289,0.000,8.269,-9.309,4.007,0.006,-0.009,1.038,0.000,0.000,0.000
32,-0.0255,0.0446,0.0991,0.0496,0.0055,0.1157,0.08,-0.37,2.89,54209,0.000,8.928,-11.148,2.279,0.011,-0.006,1.036,0.000,0.000,0.000
32,-0.0254,0.0400,0.1003,0.0493,-0.0191,0.1212,0.19,-0.26,2.93,54142,0.000,7.235,-16.169,0.823,0.007,-0.007,1.036,0.000,0.000,0.000
32,-0.0254,0.0399,0.0998,0.0480,-0.0187,0.1171,0.29,-0.11,2.95,54078,0.000,0.813,-23.015,0.232,0.003,-0.011,1.037,0.000,0.000,0.000
33,-0.0249,0.0392,0.1009,0.0485,-0.0220,0.1209,0.32,0.08,2.95,54834,0.000,-6.415,-26.022,-0.754,-0.002,-0.013,1.040,0.000,0.000,0.000
33,-0.0246,0.0386,0.1023,0.0480,-0.0239,0.1248,0.32,0.34,2.96,54770,0.000,-11.381,-26.136,-1.882,-0.003,-0.010,1.045,0.000,0.000,0.000
33,-0.0237,0.0385,0.1035,0.0502,-0.0238,0.1284,0.29,0.58,2.97,54694,0.000,-14.978,-21.222,-2.579,0.001,-0.006,1.053,0.000,0.000,0.000
33,-0.0233,0.0376,0.1048,0.0497,-0.0280,0.1317,0.15,0.81,2.94,54613,0.000,-16.683,-16.349,-2.508,0.004,-0.004,1.053,0.000,0.000,0.000
33,-0.0229,0.0356,0.1017,0.0503,-0.0384,0.1113,-0.02,1.01,2.91,54988,0.000,-16.046,-13.743,-3.548,0.004,-0.005,1.048,0.000,0.000,0.000
33,-0.0224,0.0355,0.1028,0.0493,-0.0373,0.1150,-0.14,1.14,2.89,54886,0.000,-11.028,-11.350,-4.574,0.004,-0.007,1.042,0.000,0.000,0.000
33,-0.0223,0.0352,0.1040,0.0461,-0.0372,0.1192,-0.26,1.27,2.86,54800,0.000,-7.642,-8.136,-4.373,0.002,-0.011,1.040,0.000,0.000,0.000
33,-0.0214,0.0336,0.1052,0.0468,-0.0440,0.1235,-0.36,1.34,2.81,54724,0.000,-5.079,-4.811,-3.799,0.002,-0.010,1.043,0.000,0.000,0.000
33,-0.0211,0.0327,0.1064,0.0439,-0.0463,0.1286,-0.41,1.40,2.77,54631,0.000,-5.933,-0.096,-4.594,0.004,-0.013,1.047,0.000,0.000,0.000
33,-0.0206,0.0326,0.1050,0.0426,-0.0437,0.1198,-0.47,1.44,2.73,54547,0.000,-0.420,7.563,-3.856,0.004,-0.011,1.050,0.000,0.000,0.000
33,-0.0202,0.0322,0.1062,0.0402,-0.0432,0.1242,-0.54,1.40,2.68,54482,0.000,-0.732,10.387,-4.592,0.005,-0.013,1.053,0.000,0.000,0.000
33,-0.0198,0.0318,0.1075,0.0376,-0.0426,0.1281,-0.50,1.22,2.64,54357,0.000,2.237,12.638,-5.529,0.004,-0.011,1.056,0.000,0.000,0.000
33,-0.0198,0.0312,0.1088,0.0332,-0.0427,0.1321,-0.51,1.09,2.59,54225,0.000,-2.714,13.747,-4.430,0.004,-0.007,1.059,0.000,0.000,0.000
33,-0.0197,0.0319,0.1102,0.0295,-0.0360,0.1369,-0.54,0.98,2.54,54077,0.000,-3.008,13.846,-3.982,0.004,-0.007,1.060,0.000,0.000,0.000
33,-0.0169,0.0309,0.1113,0.0403,-0.0385,0.1400,-0.58,0.85,2.50,53810,0.000,-1.645,11.225,-4.094,0.005,-0.006,1.063,0.000,0.000,0.000
33,-0.0173,0.0311,0.1128,0.0342,-0.0345,0.1453,-0.63,0.76,2.46,53664,0.000,-2.235,8.140,-4.128,0.009,-0.007,1.063,0.000,0.000,0.000
34,-0.0173,0.0309,0.1143,0.0308,-0.0328,0.1507,-0.65,0.67,2.41,53496,0.000,-2.132,4.153,-4.184,0.009,-0.007,1.059,0.000,0.000,0.000
34,-0.0177,0.0311,0.1158,0.0253,-0.0290,0.1566,-0.56,0.53,2.38,53327,0.000,0.021,2.109,-3.581,0.006,-0.007,1.059,0.000,0.000,0.000
34,-0.0176,0.0307,0.1174,0.0234,-0.0285,0.1624,-0.57,0.50,2.34,53143,0.000,2.532,0.833,-3.568,0.002,-0.011,1.055,0.000,0.000,0.000
34,-0.0150,0.0279,0.1197,0.0340,-0.0408,0.1713,-0.56,0.48,2.30,52988,0.000,2.609,-1.326,-3.407,0.004,-0.008,1.050,0.000,0.000,0.000
34,-0.0147,0.0275,0.1214,0.0330,-0.0398,0.1774,-0.61,0.51,2.27,53138,0.000,3.632,-1.837,-3.144,0.003,-0.006,1.044,0.000,0.000,0.000
34,-0.0142,0.0272,0.1232,0.0329,-0.0383,0.1834,-0.49,0.51,2.24,52990,0.000,2.613,-3.935,-3.609,0.006,-0.011,1.040,0.000,0.000,0.000
34,-0.0145,0.0286,0.1252,0.0289,-0.0279,0.1896,-0.53,0.56,2.21,52828,0.000,0.869,-5.572,-3.379,0.005,-0.014,1.038,0.000,0.000,0.000
34,-0.0138,0.0260,0.1270,0.0302,-0.0388,0.1948,-0.53,0.62,2.18,52695,0.000,4.735,-6.873,-4.777,0.003,-0.008,1.038,0.000,0.000,0.000
34,-0.0138,0.0268,0.1273,0.0275,-0.0319,0.1910,-0.69,0.77,2.14,52154,0.000,-0.738,-4.084,-2.993,0.000,-0.003,1.036,0.000,0.000,0.000
34,-0.0141,0.0267,0.1292,0.0236,-0.0300,0.1957,-0.68,0.82,2.11,52009,0.000,1.741,-2.821,-3.024,0.002,-0.004,1.036,0.000,0.000,0.000
34,-0.0161,0.0314,0.1313,0.0112,-0.0043,0.2006,-0.68,0.85,2.09,51865,0.000,0.253,-0.287,-2.841,0.007,-0.003,1.037,0.000,0.000,0.000
34,-0.0160,0.0313,0.1334,0.0098,-0.0031,0.2044,-0.62,0.85,2.06,51717,0.000,1.401,2.604,-2.959,0.003,-0.003,1.033,0.000,0.000,0.000
34,-0.0158,0.0316,0.1354,0.0087,-0.0006,0.2082,-0.61,0.82,2.03,51569,0.000,1.453,4.849,-2.590,0.004,-0.007,1.029,0.000,0.000,0.000
34,-0.0153,0.0302,0.1399,0.0093,-0.0062,0.2236,-0.60,0.78,2.00,51427,0.000,4.012,6.875,-3.070,0.002,-0.006,1.025,0.000,0.000,0.000
34,-0.0150,0.0302,0.1421,0.0089,-0.0050,0.2271,-0.56,0.70,1.97,51331,0.000,6.238,7.655,-2.282,0.004,-0.008,1.021,0.000,0.000,0.000
34,-0.0149,0.0301,0.1444,0.0074,-0.0039,0.2307,-0.51,0.63,1.95,51032,0.000,7.020,7.609,-2.472,0.005,-0.009,1.019,0.000,0.000,0.000
35,-0.0145,0.0300,0.1467,0.0075,-0.0031,0.2341,-0.42,0.54,1.92,51084,0.000,9.835,7.613,-2.486,0.009,-0.012,1.015,0.000,0.000,0.000
35,-0.0145,0.0300,0.1491,0.0062,-0.0021,0.2372,-0.35,0.44,1.90,50817,0.000,7.337,6.711,-2.478,0.008,-0.013,1.009,0.000,0.000,0.000
35,-0.0140,0.0294,0.1513,0.0068,-0.0043,0.2388,-0.20,0.34,1.87,50501,0.000,8.113,5.804,-2.491,0.008,-0.006,1.006,0.000,0.000,0.000
35,-0.0137,0.0300,0.1537,0.0072,-0.0005,0.2410,-0.07,0.28,1.84,50258,0.000,7.264,5.779,-2.924,0.003,-0.004,1.002,0.000,0.000,0.000
35,-0.0125,0.0277,0.1561,0.0117,-0.0108,0.2430,0.03,0.22,1.81,50301,0.000,6.532,4.525,-2.789,0.006,-0.010,1.001,0.000,0.000,0.000
35,-0.0123,0.0260,0.1585,0.0115,-0.0178,0.2446,0.12,0.17,1.78,50084,0.000,6.165,3.816,-3.145,0.006,-0.010,0.997,0.000,0.000,0.000
35,-0.0122,0.0256,0.1610,0.0110,-0.0189,0.2457,0.19,0.11,1.75,50125,0.000,2.627,2.111,-2.830,0.004,-0.013,0.997,0.000,0.000,0.000
35,-0.0118,0.0249,0.1655,0.0119,-0.0212,0.2569,0.22,0.08,1.72,49936,0.000,-0.721,1.424,-2.654,0.004,-0.011,0.994,0.000,0.000,0.000
35,-0.0115,0.0245,0.1681,0.0126,-0.0221,0.2573,0.23,0.05,1.69,49999,0.000,-2.401,-0.328,-2.885,0.004,-0.009,0.987,0.000,0.000,0.000
35,-0.0111,0.0242,0.1707,0.0134,-0.0230,0.2574,0.33,0.03,1.65,49837,0.000,-5.171,-1.632,-3.053,0.007,-0.009,0.989,0.000,0.000,0.000
35,-0.0106,0.0241,0.1732,0.0151,-0.0224,0.2574,0.29,0.04,1.62,49773,0.000,-6.089,-2.060,-2.638,0.007,-0.014,0.989,0.000,0.000,0.000
35,-0.0100,0.0202,0.1757,0.0172,-0.0395,0.2565,0.24,0.06,1.60,49714,0.000,-6.968,-2.315,-2.874,0.004,-0.012,0.985,0.000,0.000,0.000
35,-0.0097,0.0199,0.1782,0.0177,-0.0395,0.2556,0.16,0.07,1.57,49535,0.000,-8.294,-2.430,-2.862,0.003,-0.009,0.982,0.000,0.000,0.000
35,-0.0094,0.0192,0.1807,0.0182,-0.0414,0.2546,0.07,0.07,1.55,49486,0.000,-9.106,-1.909,-2.563,0.004,-0.014,0.981,0.000,0.000,0.000
36,-0.0091,0.0190,0.1833,0.0185,-0.0408,0.2534,-0.02,0.10,1.52,49438,0.000,-8.852,-1.238,-2.381,0.003,-0.011,0.982,0.000,0.000,0.000
36,-0.0081,0.0188,0.1858,0.0219,-0.0401,0.2523,-0.12,0.14,1.49,49395,0.000,-9.377,-3.297,-2.610,0.003,-0.007,0.979,0.000,0.000,0.000
36,-0.0079,0.0184,0.1883,0.0218,-0.0402,0.2511,-0.22,0.17,1.47,49357,0.000,-10.387,-0.336,-1.275,0.006,-0.008,0.976,0.000,0.000,0.000
36,-0.0082,0.0185,0.1915,0.0196,-0.0382,0.2532,-0.25,0.21,1.44,49328,0.000,-2.631,-1.755,-3.548,0.006,-0.009,0.973,0.000,0.000,0.000
36,-0.0079,0.0180,0.1941,0.0197,-0.0386,0.2514,-0.33,0.20,1.42,49461,0.000,-3.493,-2.123,-2.151,0.006,-0.010,0.976,0.000,0.000,0.000
36,-0.0084,0.0162,0.1965,0.0165,-0.0443,0.2496,-0.36,0.24,1.39,49461,0.000,-5.488,-2.317,-1.377,0.004,-0.010,0.975,0.000,0.000,0.000
36,-0.0082,0.0157,0.1990,0.0201,-0.0423,0.2477,-0.42,0.25,1.37,49434,0.000,-2.061,0.162,-3.294,0.004,-0.011,0.974,0.000,0.000,0.000
36,-0.0078,0.0155,0.2015,0.0168,-0.0424,0.2455,-0.45,0.26,1.35,49409,0.000,-4.614,1.644,-2.001,0.005,-0.007,0.968,0.000,0.000,0.000
36,-0.0076,0.0151,0.2039,0.0163,-0.0418,0.2430,-0.49,0.26,1.32,49394,0.000,-1.758,1.736,-1.285,0.006,-0.006,0.967,0.000,0.000,0.000
36,-0.0070,0.0151,0.2055,0.0176,-0.0395,0.2359,-0.54,0.23,1.31,48816,0.000,-0.250,-1.591,-2.224,0.007,-0.006,0.970,0.000,0.000,0.000
36,-0.0073,0.0149,0.2078,0.0153,-0.0381,0.2335,-0.58,0.24,1.29,48804,0.000,-1.549,0.458,-1.386,0.003,-0.009,0.975,0.000,0.000,0.000
36,-0.0071,0.0145,0.2101,0.0149,-0.0373,0.2310,-0.44,0.22,1.26,48775,0.000,-0.704,3.596,-2.040,0.005,-0.007,0.970,0.000,0.000,0.000
36,-0.0065,0.0146,0.2124,0.0163,-0.0344,0.2282,-0.44,0.21,1.24,48752,0.000,0.519,0.608,-1.728,0.004,-0.010,0.966,0.000,0.000,0.000
36,-0.0064,0.0100,0.2179,0.0158,-0.0505,0.2412,-0.43,0.18,1.23,48739,0.000,-0.836,1.105,-0.660,0.005,-0.013,0.965,0.000,0.000,0.000
36,-0.0063,0.0095,0.2203,0.0154,-0.0497,0.2381,-0.43,0.15,1.21,48732,0.000,-0.459,-0.406,-1.962,0.004,-0.013,0.970,0.000,0.000,0.000
37,-0.0055,0.0084,0.2227,0.0173,-0.0512,0.2354,-0.44,0.13,1.19,48690,0.000,0.163,0.616,-2.212,0.003,-0.012,0.966,0.000,0.000,0.000
37,-0.0053,0.0079,0.2250,0.0170,-0.0505,0.2327,-0.45,0.11,1.18,48676,0.000,-3.836,1.169,-0.994,0.003,-0.010,0.959,0.000,0.000,0.000
37,-0.0046,0.0078,0.2273,0.0189,-0.0482,0.2295,-0.47,0.11,1.16,48682,0.000,-4.222,0.370,-1.524,0.004,-0.007,0.958,0.000,0.000,0.000
37,-0.0044,0.0073,0.2298,0.0187,-0.0474,0.2271,-0.52,0.10,1.15,48696,0.000,-4.834,-0.626,-1.216,0.004,-0.013,0.961,0.000,0.000,0.000
37,-0.0044,0.0070,0.2320,0.0180,-0.0464,0.2238,-0.55,0.11,1.13,49279,0.000,-4.263,-1.337,-1.944,0.004,-0.015,0.964,0.000,0.000,0.000
37,-0.0040,0.0069,0.2342,0.0185,-0.0442,0.2209,-0.59,0.12,1.11,49299,0.000,-4.808,-1.394,-1.675,0.004,-0.008,0.964,0.000,0.000,0.000
37,-0.0038,0.0065,0.2364,0.0183,-0.0433,0.2170,-0.64,0.14,1.09,49317,0.000,-4.158,-1.577,-1.854,0.002,-0.008,0.965,0.000,0.000,0.000
37,-0.0038,0.0061,0.2386,0.0176,-0.0421,0.2130,-0.70,0.13,1.08,49340,0.000,-4.597,-1.493,-1.420,0.002,-0.008,0.960,0.000,0.000,0.000
37,-0.0038,0.0058,0.2375,0.0167,-0.0408,0.1929,-0.72,0.17,1.06,49362,0.000,-3.103,-1.465,-1.440,0.003,-0.009,0.962,0.000,0.000,0.000
37,-0.0027,0.0059,0.2394,0.0197,-0.0381,0.1892,-0.79,0.19,1.05,49394,0.000,-2.019,-1.688,-1.142,0.002,-0.011,0.969,0.000,0.000,0.000
37,-0.0034,0.0044,0.2413,0.0162,-0.0407,0.1857,-0.82,0.18,1.04,49953,0.000,-1.588,-0.639,-0.654,0.001,-0.009,0.971,0.000,0.000,0.000
37,-0.0035,0.0055,0.2431,0.0152,-0.0344,0.1822,-0.85,0.16,1.04,49977,0.000,0.786,-1.048,-1.569,0.004,-0.010,0.970,0.000,0.000,0.000
37,-0.0020,0.0055,0.2449,0.0195,-0.0319,0.1786,-0.85,0.16,1.02,50000,0.000,1.324,0.207,-1.594,0.005,-0.009,0.966,0.000,0.000,0.000
37,-0.0004,0.0059,0.2438,0.0237,-0.0284,0.1595,-0.85,0.17,1.01,50033,0.000,2.629,0.374,-1.042,0.008,-0.007,0.968,0.000,0.000,0.000
37,0.0000,0.0058,0.2454,0.0241,-0.0264,0.1561,-0.83,0.17,1.00,50136,0.000,3.711,0.951,-1.004,0.008,-0.010,0.973,0.000,0.000,0.000
37,0.0001,0.0061,0.2469,0.0231,-0.0232,0.1531,-0.79,0.16,0.99,50166,0.000,5.955,0.420,-1.815,0.004,-0.014,0.977,0.000,0.000,0.000
38,0.0003,0.0058,0.2484,0.0228,-0.0218,0.1502,-0.76,0.15,0.98,50184,0.000,4.303,0.220,-1.285,0.004,-0.012,0.974,0.000,0.000,0.000
38,0.0011,0.0056,0.2499,0.0245,-0.0204,0.1470,-0.72,0.16,0.96,50201,0.000,3.183,-3.179,-1.341,0.004,-0.016,0.972,0.000,0.000,0.000
38,0.0015,0.0063,0.2510,0.0247,-0.0163,0.1418,-0.66,0.18,0.94,50228,0.000,2.170,-0.032,-0.084,0.006,-0.013,0.974,0.000,0.000,0.000
38,0.0018,0.0061,0.2524,0.0244,-0.0151,0.1389,-0.65,0.19,0.94,50259,0.000,7.331,-4.371,-1.604,0.003,-0.011,0.981,0.000,0.000,0.000
38,0.0020,0.0060,0.2538,0.0241,-0.0139,0.1365,-0.61,0.21,0.94,50433,0.000,5.096,-5.989,-1.369,0.004,-0.012,0.984,0.000,0.000,0.000
38,0.0020,0.0062,0.2553,0.0229,-0.0114,0.1339,-0.54,0.26,0.92,50436,0.000,7.116,-4.633,-2.727,0.002,-0.013,0.978,0.000,0.000,0.000
38,0.0032,0.0068,0.2566,0.0255,-0.0081,0.1311,-0.49,0.32,0.90,50463,0.000,2.642,-2.650,-2.002,0.002,-0.012,0.980,0.000,0.000,0.000
38,0.0034,0.0068,0.2571,0.0252,-0.0071,0.1242,-0.45,0.36,0.88,50470,0.000,1.843,-4.639,-1.661,0.004,-0.014,0.985,0.000,0.000,0.000
38,0.0028,0.0066,0.2583,0.0220,-0.0066,0.1220,-0.42,0.40,0.86,50270,0.000,0.957,0.082,-1.669,0.002,-0.014,0.989,0.000,0.000,0.000
38,0.0032,0.0064,0.2595,0.0219,-0.0062,0.1202,-0.49,0.38,0.86,50247,0.000,0.256,-0.966,-1.596,0.005,-0.011,0.988,0.000,0.000,0.000
38,0.0036,0.0063,0.2607,0.0218,-0.0054,0.1184,-0.48,0.39,0.84,50238,0.000,0.788,0.356,-1.524,0.005,-0.012,0.987,0.000,0.000,0.000
38,0.0054,0.0106,0.2619,0.0260,0.0083,0.1162,-0.48,0.39,0.83,50234,0.000,-2.301,1.162,-1.056,0.008,-0.014,0.991,0.000,0.000,0.000
38,0.0059,0.0106,0.2643,0.0261,0.0089,0.1212,-0.49,0.38,0.82,50228,0.000,0.039,0.872,-0.083,0.004,-0.012,0.992,0.000,0.000,0.000
38,0.0061,0.0107,0.2655,0.0254,0.0097,0.1199,-0.52,0.38,0.81,50214,0.000,1.885,3.478,-0.781,0.003,-0.012,0.989,0.000,0.000,0.000
38,0.0061,0.0112,0.2667,0.0240,0.0117,0.1188,-0.51,0.35,0.81,50629,0.000,2.607,2.969,-0.768,0.004,-0.014,0.988,0.000,0.000,0.000
38,0.0061,0.0128,0.2679,0.0226,0.0169,0.1175,-0.49,0.31,0.80,50632,0.000,6.369,-0.878,-1.859,0.005,-0.012,0.986,0.000,0.000,0.000
38,0.0073,0.0127,0.2691,0.0247,0.0171,0.1164,-0.44,0.31,0.78,50640,0.000,8.515,-0.890,-1.385,0.005,-0.012,0.988,0.000,0.000,0.000
39,0.0073,0.0131,0.2680,0.0236,0.0184,0.1034,-0.35,0.31,0.77,50647,0.000,9.624,-3.138,-0.982,0.004,-0.010,0.991,0.000,0.000,0.000
39,0.0076,0.0133,0.2690,0.0230,0.0192,0.1025,-0.26,0.34,0.76,50272,0.000,11.630,-3.312,-1.570,0.004,-0.014,0.990,0.000,0.000,0.000
39,0.0085,0.0129,0.2700,0.0246,0.0183,0.1014,-0.15,0.39,0.74,50262,0.000,10.452,-3.012,-1.001,0.004,-0.016,0.988,0.000,0.000,0.000
39,0.0088,0.0131,0.2710,0.0241,0.0189,0.1000,-0.06,0.42,0.73,50258,0.000,8.259,-3.503,-0.870,0.002,-0.014,0.989,0.000,0.000,0.000
39,0.0086,0.0132,0.2720,0.0223,0.0190,0.0987,0.03,0.44,0.72,50257,0.000,5.185,-1.750,0.613,0.003,-0.016,0.990,0.000,0.000,0.000
39,0.0091,0.0139,0.2751,0.0224,0.0208,0.1085,0.09,0.46,0.72,50252,0.000,7.811,-3.075,-1.021,0.006,-0.013,0.987,0.000,0.000,0.000
39,0.0093,0.0141,0.2762,0.0217,0.0209,0.1076,0.11,0.49,0.72,50252,0.000,2.260,1.220,0.288,0.001,-0.012,0.987,0.000,0.000,0.000
39,0.0095,0.0143,0.2773,0.0209,0.0208,0.1065,0.15,0.49,0.72,50203,0.000,5.817,-4.200,-0.879,0.001,-0.012,0.985,0.000,0.000,0.000
39,0.0097,0.0145,0.2783,0.0201,0.0206,0.1053,0.17,0.52,0.72,50209,0.000,0.133,1.968,0.476,0.005,-0.014,0.991,0.000,0.000,0.000
39,0.0103,0.0179,0.2794,0.0203,0.0289,0.1042,0.19,0.52,0.72,50205,0.000,0.573,-2.168,-0.209,0.006,-0.011,0.987,0.000,0.000,0.000
39,0.0099,0.0196,0.2807,0.0179,0.0325,0.1044,0.20,0.50,0.72,50203,0.000,2.779,-0.435,-0.314,0.004,-0.013,0.986,0.000,0.000,0.000
39,0.0101,0.0199,0.2817,0.0170,0.0322,0.1032,0.24,0.51,0.72,50038,0.000,0.930,-0.018,-0.195,0.004,-0.013,0.991,0.000,0.000,0.000
39,0.0112,0.0196,0.2827,0.0186,0.0303,0.1017,0.25,0.51,0.72,50033,0.000,1.128,2.691,1.700,0.003,-0.012,0.990,0.000,0.000,0.000
39,0.0112,0.0202,0.2837,0.0173,0.0306,0.1006,0.27,0.49,0.73,50025,0.000,3.924,4.652,0.895,0.003,-0.012,0.989,0.000,0.000,0.000
39,0.0113,0.0205,0.2847,0.0165,0.0302,0.0995,0.28,0.43,0.74,50017,0.000,5.070,4.843,1.277,0.004,-0.011,0.984,0.000,0.000,0.000
39,0.0115,0.0208,0.2867,0.0156,0.0297,0.1029,0.31,0.37,0.76,50020,0.000,5.514,-1.182,0.704,0.008,-0.013,0.985,0.000,0.000,0.000
39,0.0125,0.0218,0.2877,0.0169,0.0312,0.1018,0.37,0.38,0.77,50028,0.000,5.224,0.199,0.793,0.005,-0.013,0.987,0.000,0.000,0.000
40,0.0133,0.0229,0.2887,0.0179,0.0328,0.1008,0.43,0.36,0.77,50168,0.000,8.178,-0.308,-0.610,0.004,-0.016,0.989,0.000,0.000,0.000
40,0.0120,0.0224,0.2897,0.0135,0.0301,0.0999,0.49,0.36,0.77,50170,0.000,6.559,4.434,0.754,0.002,-0.011,0.988,0.000,0.000,0.000
40,0.0133,0.0235,0.2907,0.0157,0.0313,0.0984,0.55,0.33,0.77,50169,0.000,3.801,-0.189,0.819,0.004,-0.012,0.984,0.000,0.000,0.000
40,0.0133,0.0236,0.2910,0.0149,0.0302,0.0930,0.57,0.32,0.79,50175,0.000,4.183,-1.708,0.661,0.003,-0.017,0.986,0.000,0.000,0.000
40,0.0134,0.0254,0.2919,0.0142,0.0331,0.0916,0.60,0.33,0.79,49859,0.000,4.282,-2.324,0.837,0.003,-0.016,0.987,0.000,0.000,0.000
40,0.0134,0.0265,0.2928,0.0133,0.0340,0.0904,0.65,0.35,0.80,49861,0.000,0.978,1.036,0.296,0.004,-0.014,0.989,0.000,0.000,0.000
40,0.0139,0.0274,0.2937,0.0136,0.0346,0.0893,0.66,0.35,0.81,49856,0.000,2.069,1.182,0.952,0.002,-0.012,0.988,0.000,0.000,0.000
40,0.0140,0.0277,0.2946,0.0131,0.0336,0.0880,0.68,0.33,0.81,49854,0.000,0.847,2.773,0.375,0.006,-0.015,0.989,0.000,0.000,0.000
40,0.0141,0.0280,0.2973,0.0125,0.0324,0.0958,0.68,0.31,0.82,49850,0.000,2.434,2.300,0.600,0.005,-0.012,0.988,0.000,0.000,0.000
40,0.0149,0.0294,0.2982,0.0135,0.0339,0.0944,0.70,0.29,0.82,50000,0.000,-1.142,1.478,1.094,0.003,-0.009,0.987,0.000,0.000,0.000
40,0.0151,0.0297,0.2992,0.0130,0.0327,0.0933,0.69,0.25,0.84,50004,0.000,2.305,-1.112,0.274,0.003,-0.009,0.986,0.000,0.000,0.000
40,0.0152,0.0301,0.3001,0.0125,0.0316,0.0921,0.72,0.27,0.84,50011,0.000,-0.728,1.075,1.923,0.006,-0.011,0.984,0.000,0.000,0.000
40,0.0166,0.0307,0.3010,0.0151,0.0312,0.0910,0.71,0.27,0.85,50026,0.000,-1.598,-0.705,1.188,0.008,-0.013,0.986,0.000,0.000,0.000
40,0.0158,0.0305,0.3011,0.0125,0.0288,0.0855,0.69,0.25,0.87,50032,0.000,2.493,-3.510,-0.410,0.006,-0.012,0.987,0.000,0.000,0.000
40,0.0151,0.0313,0.3020,0.0101,0.0289,0.0842,0.70,0.28,0.87,50082,0.000,1.684,-0.736,0.281,0.002,-0.010,0.987,0.000,0.000,0.000
40,0.0165,0.0320,0.3029,0.0126,0.0285,0.0827,0.72,0.30,0.87,50084,0.000,4.574,-1.167,-0.246,0.002,-0.010,0.987,0.000,0.000,0.000
40,0.0162,0.0326,0.3037,0.0114,0.0279,0.0813,0.77,0.30,0.87,50098,0.000,0.627,5.248,1.386,0.008,-0.010,0.983,0.000,0.000,0.000
41,0.0164,0.0329,0.3045,0.0109,0.0267,0.0797,0.77,0.26,0.88,50107,0.000,2.055,1.611,0.270,0.004,-0.011,0.987,0.000,0.000,0.000
41,0.0172,0.0327,0.3051,0.0121,0.0244,0.0774,0.80,0.23,0.89,50121,0.000,-0.619,1.367,1.244,0.004,-0.013,0.989,0.000,0.000,0.000
41,0.0174,0.0341,0.3058,0.0119,0.0260,0.0761,0.81,0.23,0.89,50190,0.000,-2.088,-0.840,-0.309,0.003,-0.013,0.987,0.000,0.000,0.000
41,0.0174,0.0331,0.3066,0.0112,0.0216,0.0748,0.78,0.23,0.89,50204,0.000,-3.689,1.332,-0.065,0.002,-0.009,0.985,0.000,0.000,0.000
41,0.0174,0.0339,0.3073,0.0104,0.0217,0.0733,0.74,0.22,0.90,50213,0.000,-3.694,0.396,0.570,0.007,-0.011,0.985,0.000,0.000,0.000
41,0.0175,0.0341,0.3081,0.0101,0.0203,0.0718,0.70,0.22,0.90,50233,0.000,-2.405,0.385,0.056,0.008,-0.014,0.990,0.000,0.000,0.000
41,0.0176,0.0343,0.3084,0.0097,0.0190,0.0689,0.66,0.21,0.91,50243,0.000,0.770,0.076,-0.473,0.003,-0.013,0.992,0.000,0.000,0.000
41,0.0176,0.0354,0.3091,0.0092,0.0199,0.0678,0.66,0.21,0.90,50103,0.000,-2.777,1.721,1.383,0.005,-0.010,0.992,0.000,0.000,0.000
41,0.0177,0.0356,0.3098,0.0089,0.0187,0.0664,0.67,0.20,0.91,50103,0.000,1.291,0.815,-0.627,0.006,-0.013,0.990,0.000,0.000,0.000
41,0.0178,0.0358,0.3105,0.0085,0.0176,0.0649,0.64,0.19,0.91,50102,0.000,-4.757,0.965,1.569,0.006,-0.013,0.991,0.000,0.000,0.000
41,0.0178,0.0343,0.3111,0.0081,0.0126,0.0638,0.63,0.18,0.92,50106,0.000,-2.982,4.358,1.078,0.007,-0.010,0.994,0.000,0.000,0.000
41,0.0179,0.0368,0.3125,0.0077,0.0169,0.0670,0.59,0.15,0.93,50103,0.000,-1.263,-1.930,0.878,0.009,-0.008,0.994,0.000,0.000,0.000
41,0.0180,0.0352,0.3132,0.0075,0.0119,0.0662,0.56,0.17,0.94,49997,0.000,-0.988,-2.543,0.065,0.008,-0.011,0.990,0.000,0.000,0.000
41,0.0179,0.0363,0.3139,0.0068,0.0130,0.0654,0.56,0.18,0.94,49995,0.000,-1.825,0.413,0.365,0.006,-0.014,0.991,0.000,0.000,0.000
41,0.0179,0.0372,0.3145,0.0065,0.0137,0.0644,0.55,0.17,0.95,49997,0.000,-1.601,0.555,0.719,0.003,-0.014,0.992,0.000,0.000,0.000
41,0.0179,0.0364,0.3151,0.0061,0.0106,0.0637,0.53,0.18,0.95,49997,0.000,-0.788,-3.011,-0.107,0.002,-0.010,0.991,0.000,0.000,0.000
41,0.0180,0.0364,0.3163,0.0058,0.0096,0.0661,0.52,0.20,0.95,49998,0.000,0.891,-0.749,-0.248,0.008,-0.007,0.990,0.000,0.000,0.000
42,0.0180,0.0365,0.3170,0.0055,0.0087,0.0653,0.53,0.22,0.95,49914,0.000,-4.241,2.550,0.819,0.004,-0.011,0.989,0.000,0.000,0.000
42,0.0181,0.0366,0.3176,0.0052,0.0078,0.0644,0.50,0.20,0.96,49917,0.000,-0.223,-3.163,-0.804,0.005,-0.014,0.992,0.000,0.000,0.000
42,0.0181,0.0367,0.3183,0.0049,0.0069,0.0635,0.49,0.22,0.95,49920,0.000,-1.447,3.014,0.318,0.004,-0.011,0.992,0.000,0.000,0.000
42,0.0182,0.0368,0.3189,0.0046,0.0060,0.0626,0.48,0.21,0.95,49917,0.000,-4.472,1.399,1.484,0.005,-0.007,0.988,0.000,0.000,0.000
42,0.0182,0.0368,0.3200,0.0042,0.0051,0.0642,0.44,0.18,0.96,49921,0.000,0.373,0.326,-0.374,0.007,-0.009,0.987,0.000,0.000,0.000
42,0.0183,0.0369,0.3206,0.0039,0.0043,0.0632,0.44,0.18,0.96,50018,0.000,-3.060,0.058,0.847,0.008,-0.013,0.987,0.000,0.000,0.000
42,0.0183,0.0369,0.3212,0.0035,0.0035,0.0622,0.43,0.18,0.97,50032,0.000,-5.177,5.908,1.345,0.006,-0.015,0.989,0.000,0.000,0.000
42,0.0181,0.0359,0.3219,0.0028,0.0005,0.0615,0.39,0.13,0.98,50039,0.000,-1.045,-2.125,-0.533,0.002,-0.010,0.989,0.000,0.000,0.000
42,0.0186,0.0352,0.3225,0.0035,-0.0017,0.0605,0.37,0.14,0.98,50048,0.000,-1.139,0.411,0.086,0.003,-0.010,0.985,0.000,0.000,0.000
42,0.0186,0.0346,0.3226,0.0031,-0.0036,0.0567,0.37,0.13,0.97,50064,0.000,-4.642,3.425,1.353,0.003,-0.010,0.984,0.000,0.000,0.000
42,0.0186,0.0346,0.3232,0.0029,-0.0043,0.0554,0.35,0.14,0.98,50294,0.000,-1.537,-2.545,-0.443,0.008,-0.013,0.988,0.000,0.000,0.000
42,0.0189,0.0338,0.3237,0.0032,-0.0065,0.0544,0.29,0.12,0.98,50317,0.000,-2.282,2.864,-0.248,0.006,-0.010,0.991,0.000,0.000,0.000
42,0.0159,0.0319,0.3243,-0.0033,-0.0109,0.0534,0.29,0.10,0.97,50331,0.000,-3.306,-0.021,0.610,0.005,-0.009,0.992,0.000,0.000,0.000
42,0.0187,0.0361,0.3248,0.0023,-0.0027,0.0521,0.27,0.09,0.97,50342,0.000,-5.460,-0.761,-0.114,0.007,-0.013,0.991,0.000,0.000,0.000
42,0.0190,0.0342,0.3241,0.0027,-0.0070,0.0446,0.19,0.09,0.98,50355,0.000,-0.911,1.430,-1.185,0.006,-0.012,0.989,0.000,0.000,0.000
42,0.0190,0.0341,0.3246,0.0025,-0.0075,0.0433,0.20,0.08,0.97,50366,0.000,-3.537,3.646,1.136,0.009,-0.011,0.993,0.000,0.000,0.000
42,0.0190,0.0365,0.3250,0.0023,-0.0029,0.0423,0.18,0.05,0.97,50639,0.000,-2.712,-1.579,-0.518,0.005,-0.007,0.992,0.000,0.000,0.000
43,0.0190,0.0347,0.3254,0.0021,-0.0069,0.0414,0.16,0.05,0.97,50651,0.000,-3.289,3.990,0.308,0.006,-0.011,0.990,0.000,0.000,0.000
43,0.0194,0.0329,0.3258,0.0027,-0.0106,0.0405,0.09,0.03,0.97,50675,0.000,-2.344,-0.263,-0.735,0.006,-0.014,0.991,0.000,0.000,0.000
43,0.0194,0.0328,0.3248,0.0027,-0.0109,0.0323,0.09,0.03,0.97,50687,0.000,-3.224,1.053,0.933,0.006,-0.012,0.995,0.000,0.000,0.000
43,0.0195,0.0364,0.3251,0.0027,-0.0037,0.0314,0.04,0.02,0.97,50715,0.000,-1.928,-5.273,-0.362,0.006,-0.009,0.995,0.000,0.000,0.000
43,0.0196,0.0335,0.3255,0.0027,-0.0097,0.0307,0.00,0.05,0.97,50727,0.000,1.242,-0.158,0.450,0.006,-0.007,0.994,0.000,0.000,0.000
43,0.0196,0.0349,0.3258,0.0026,-0.0068,0.0297,0.04,0.06,0.97,50736,0.000,1.255,-1.592,-0.837,0.010,-0.013,0.994,0.000,0.000,0.000
43,0.0192,0.0368,0.3260,0.0019,-0.0030,0.0288,0.06,0.09,0.97,50748,0.000,-3.145,-0.709,0.179,0.006,-0.014,0.995,0.000,0.000,0.000
43,0.0194,0.0349,0.3263,0.0020,-0.0067,0.0280,0.03,0.09,0.97,50761,0.000,-1.428,-1.116,1.125,0.007,-0.011,0.998,0.000,0.000,0.000
43,0.0174,0.0329,0.3266,-0.0020,-0.0106,0.0276,0.02,0.10,0.98,50773,0.000,-1.545,0.599,0.735,0.006,-0.008,0.996,0.000,0.000,0.000
43,0.0174,0.0328,0.3269,-0.0021,-0.0107,0.0270,0.01,0.10,0.99,51149,0.000,2.467,0.848,-0.233,0.003,-0.008,0.998,0.000,0.000,0.000
43,0.0183,0.0329,0.3272,-0.0005,-0.0103,0.0264,0.03,0.07,0.98,51164,0.000,-1.345,2.853,-0.020,0.005,-0.016,0.998,0.000,0.000,0.000
43,0.0183,0.0328,0.3274,-0.0007,-0.0104,0.0259,0.02,0.05,0.98,51178,0.000,0.509,2.040,-0.259,0.006,-0.014,1.002,0.000,0.000,0.000
43,0.0207,0.0328,0.3257,0.0039,-0.0101,0.0150,0.02,0.03,0.98,51190,0.000,-0.777,4.459,-0.030,0.008,-0.010,1.004,0.000,0.000,0.000
43,0.0207,0.0327,0.3258,0.0037,-0.0101,0.0146,0.02,-0.00,0.98,50988,0.000,-2.392,2.047,0.830,0.007,-0.015,1.004,0.000,0.000,0.000
43,0.0207,0.0326,0.3259,0.0037,-0.0101,0.0144,-0.00,0.01,0.99,50981,0.000,-0.315,3.394,0.285,0.006,-0.012,1.003,0.000,0.000,0.000
43,0.0198,0.0328,0.3261,0.0017,-0.0096,0.0142,-0.01,-0.05,0.99,50956,0.000,-1.887,1.132,0.242,0.005,-0.010,1.001,0.000,0.000,0.000
43,0.0166,0.0330,0.3262,-0.0046,-0.0092,0.0144,-0.03,-0.03,0.99,50968,0.000,-0.372,1.715,-0.025,0.004,-0.012,1.002,0.000,0.000,0.000
44,0.0200,0.0331,0.3275,0.0022,-0.0087,0.0206,-0.03,-0.05,0.99,50953,0.000,-1.927,0.331,0.463,0.005,-0.009,1.006,0.000,0.000,0.000
44,0.0170,0.0332,0.3277,-0.0038,-0.0083,0.0209,-0.06,-0.08,0.99,50965,0.000,-0.044,1.099,0.557,0.007,-0.009,1.005,0.000,0.000,0.000
44,0.0169,0.0331,0.3280,-0.0038,-0.0083,0.0213,-0.06,-0.09,1.00,50679,0.000,0.763,0.362,-0.032,0.008,-0.013,1.006,0.000,0.000,0.000
44,0.0192,0.0333,0.3282,0.0009,-0.0078,0.0214,-0.06,-0.11,1.00,50630,0.000,-0.277,0.566,0.157,0.005,-0.011,1.002,0.000,0.000,0.000
44,0.0192,0.0332,0.3284,0.0010,-0.0077,0.0215,-0.06,-0.11,1.00,50615,0.000,-0.630,0.549,0.255,0.004,-0.008,1.002,0.000,0.000,0.000
44,0.0215,0.0333,0.3301,0.0056,-0.0073,0.0300,-0.06,-0.12,1.01,50605,0.000,1.740,1.540,-0.356,0.005,-0.014,0.999,0.000,0.000,0.000
44,0.0205,0.0332,0.3304,0.0037,-0.0072,0.0305,-0.05,-0.13,1.00,50563,0.000,0.284,0.328,0.271,0.005,-0.009,0.999,0.000,0.000,0.000
44,0.0205,0.0331,0.3307,0.0039,-0.0071,0.0311,-0.04,-0.14,1.00,50556,0.000,1.254,0.787,-0.455,0.007,-0.006,0.997,0.000,0.000,0.000
44,0.0206,0.0330,0.3310,0.0041,-0.0070,0.0315,-0.00,-0.15,1.00,50551,0.000,0.555,0.044,0.315,0.005,-0.009,0.997,0.000,0.000,0.000
44,0.0206,0.0330,0.3313,0.0043,-0.0069,0.0316,-0.02,-0.16,1.00,50539,0.000,1.019,0.210,-0.490,0.005,-0.013,1.001,0.000,0.000,0.000
44,0.0219,0.0305,0.3319,0.0069,-0.0114,0.0331,-0.01,-0.17,1.00,50529,0.000,0.200,0.105,0.588,0.002,-0.011,1.000,0.000,0.000,0.000
44,0.0219,0.0305,0.3319,0.0069,-0.0114,0.0331,-0.01,-0.17,1.00,51097,0.000,0.154,-1.008,0.410,0.004,-0.014,0.998,0.000,0.000,0.000
44,0.0218,0.0329,0.3323,0.0069,-0.0067,0.0329,-0.01,-0.16,1.01,51100,0.000,1.227,0.344,0.248,0.005,-0.013,0.999,0.000,0.000,0.000
44,0.0230,0.0328,0.3329,0.0094,-0.0064,0.0325,0.00,-0.17,1.01,51107,0.000,-1.230,-2.531,0.638,0.004,-0.007,0.999,0.000,0.000,0.000
44,0.0231,0.0328,0.3332,0.0097,-0.0064,0.0325,-0.00,-0.14,1.01,51107,0.000,0.187,-1.749,0.189,0.005,-0.011,1.004,0.000,0.000,0.000
44,0.0231,0.0328,0.3303,0.0097,-0.0064,0.0162,-0.00,-0.10,1.01,51118,0.000,-0.506,-1.829,0.482,0.003,-0.012,1.004,0.000,0.000,0.000
44,0.0241,0.0328,0.3304,0.0118,-0.0062,0.0163,-0.01,-0.10,1.02,51573,0.000,-1.650,-1.801,0.776,0.005,-0.008,1.003,0.000,0.000,0.000
45,0.0227,0.0328,0.3306,0.0091,-0.0061,0.0161,-0.02,-0.11,1.03,51587,0.000,0.129,-0.999,0.566,0.004,-0.011,1.006,0.000,0.000,0.000
45,0.0212,0.0331,0.3309,0.0064,-0.0053,0.0159,-0.03,-0.06,1.03,51579,0.000,0.097,-2.003,-0.212,0.004,-0.015,1.008,0.000,0.000,0.000
45,0.0212,0.0331,0.3309,0.0064,-0.0053,0.0159,-0.03,-0.08,1.03,51593,0.000,-0.474,-1.743,-0.067,0.003,-0.009,1.008,0.000,0.000,0.000
45,0.0207,0.0332,0.3286,0.0055,-0.0048,0.0030,-0.09,-0.11,1.03,51565,0.000,-0.259,-0.276,0.020,0.004,-0.009,1.008,0.000,0.000,0.000
45,0.0207,0.0332,0.3286,0.0055,-0.0048,0.0030,-0.10,-0.10,1.04,51250,0.000,0.310,0.210,0.436,0.006,-0.011,1.007,0.000,0.000,0.000
45,0.0304,0.0391,0.3286,0.0235,0.0064,0.0038,-0.09,-0.10,1.04,51208,0.000,1.027,-0.066,-0.075,0.004,-0.010,1.009,0.000,0.000,0.000
45,0.0304,0.0391,0.3286,0.0235,0.0064,0.0038,-0.09,-0.09,1.04,51220,0.000,1.325,-0.316,0.416,0.005,-0.006,1.006,0.000,0.000,0.000
45,0.0300,0.0389,0.3287,0.0224,0.0062,0.0052,-0.07,-0.10,1.05,51176,0.000,1.784,-1.565,0.555,0.004,-0.007,1.006,0.000,0.000,0.000
45,0.0300,0.0389,0.3305,0.0224,0.0062,0.0148,-0.05,-0.08,1.05,51187,0.000,1.188,-2.722,1.213,0.005,-0.008,1.011,0.000,0.000,0.000
45,0.0318,0.0396,0.3308,0.0252,0.0076,0.0163,-0.02,-0.06,1.07,51091,0.000,3.674,-2.856,0.798,0.006,-0.012,1.007,0.000,0.000,0.000
45,0.0318,0.0396,0.3308,0.0252,0.0076,0.0163,0.00,-0.03,1.07,51101,0.000,4.301,-3.294,0.599,0.005,-0.009,1.006,0.000,0.000,0.000
45,0.0307,0.0394,0.3312,0.0226,0.0070,0.0177,0.04,-0.00,1.08,51053,0.000,4.325,-4.459,0.754,0.004,-0.009,1.007,0.000,0.000,0.000
45,0.0307,0.0394,0.3312,0.0226,0.0070,0.0177,0.06,0.05,1.09,51035,0.000,2.758,-5.042,0.810,0.008,-0.011,1.007,0.000,0.000,0.000
45,0.0316,0.0402,0.3318,0.0236,0.0084,0.0207,0.10,0.09,1.10,51014,0.000,2.322,-4.266,1.186,0.008,-0.013,1.009,0.000,0.000,0.000
45,0.0316,0.0402,0.3318,0.0236,0.0084,0.0207,0.12,0.13,1.11,51152,0.000,2.186,-4.123,0.841,0.005,-0.012,1.007,0.000,0.000,0.000
45,0.0326,0.0417,0.3322,0.0245,0.0106,0.0221,0.14,0.18,1.12,51101,0.000,1.424,-3.610,0.553,0.004,-0.012,1.005,0.000,0.000,0.000
45,0.0328,0.0418,0.3325,0.0243,0.0104,0.0228,0.16,0.21,1.13,51111,0.000,1.698,-3.063,0.807,0.004,-0.013,1.007,0.000,0.000,0.000
46,0.0331,0.0419,0.3327,0.0241,0.0102,0.0235,0.19,0.25,1.13,51092,0.000,1.713,-1.989,0.927,0.006,-0.009,1.010,0.000,0.000,0.000
46,0.0331,0.0419,0.3320,0.0241,0.0102,0.0198,0.20,0.27,1.14,51039,0.000,1.905,-2.093,0.947,0.006,-0.010,1.010,0.000,0.000,0.000
46,0.0334,0.0403,0.3324,0.0232,0.0063,0.0214,0.22,0.29,1.15,50753,0.000,0.654,-0.326,0.965,0.006,-0.007,1.007,0.000,0.000,0.000
46,0.0334,0.0403,0.3324,0.0232,0.0063,0.0214,0.22,0.30,1.16,50684,0.000,1.223,0.807,1.402,0.002,-0.011,1.002,0.000,0.000,0.000
46,0.0332,0.0412,0.3326,0.0217,0.0075,0.0221,0.22,0.28,1.18,50690,0.000,-0.450,-0.303,1.429,0.001,-0.011,1.004,0.000,0.000,0.000
46,0.0336,0.0414,0.3331,0.0208,0.0068,0.0236,0.22,0.29,1.19,50647,0.000,0.453,-0.341,2.196,0.005,-0.008,1.006,0.000,0.000,0.000
46,0.0353,0.0414,0.3347,0.0241,0.0068,0.0321,0.22,0.30,1.21,50653,0.000,0.073,-0.875,1.986,0.007,-0.010,1.005,0.000,0.000,0.000
46,0.0358,0.0415,0.3354,0.0231,0.0060,0.0338,0.22,0.30,1.23,50396,0.000,2.126,-0.701,1.857,0.007,-0.009,1.005,0.000,0.000,0.000
46,0.0353,0.0425,0.3354,0.0222,0.0079,0.0338,0.24,0.29,1.25,50368,0.000,0.914,-1.469,2.031,0.006,-0.009,1.005,0.000,0.000,0.000
46,0.0357,0.0427,0.3361,0.0212,0.0071,0.0344,0.25,0.31,1.27,50337,0.000,2.770,0.293,1.436,0.006,-0.010,1.004,0.000,0.000,0.000
46,0.0366,0.0424,0.3361,0.0227,0.0067,0.0344,0.26,0.31,1.29,50310,0.000,2.054,-1.234,1.990,0.007,-0.011,1.000,0.000,0.000,0.000
46,0.0370,0.0426,0.3379,0.0217,0.0058,0.0412,0.28,0.33,1.31,50313,0.000,0.126,-3.008,3.093,0.005,-0.008,1.003,0.000,0.000,0.000
46,0.0368,0.0435,0.3383,0.0204,0.0070,0.0417,0.28,0.35,1.34,50468,0.000,1.919,-0.970,1.892,0.006,-0.008,1.002,0.000,0.000,0.000
46,0.0370,0.0435,0.3387,0.0198,0.0065,0.0422,0.28,0.38,1.36,50449,0.000,-0.676,-2.312,2.887,0.006,-0.011,0.998,0.000,0.000,0.000
46,0.0372,0.0436,0.3392,0.0193,0.0061,0.0426,0.28,0.40,1.39,50436,0.000,0.171,-3.876,2.842,0.002,-0.011,1.002,0.000,0.000,0.000
46,0.0372,0.0436,0.3392,0.0193,0.0061,0.0426,0.29,0.43,1.41,50419,0.000,0.230,-2.587,2.871,0.002,-0.007,0.997,0.000,0.000,0.000
47,0.0364,0.0446,0.3389,0.0159,0.0067,0.0371,0.30,0.47,1.44,50406,0.000,2.033,1.773,2.309,0.006,-0.008,0.996,0.000,0.000,0.000
47,0.0365,0.0447,0.3392,0.0152,0.0062,0.0373,0.31,0.46,1.46,50430,0.000,2.657,2.469,2.499,0.005,-0.009,0.999,0.000,0.000,0.000
47,0.0350,0.0446,0.3396,0.0115,0.0055,0.0372,0.32,0.44,1.49,50419,0.000,2.628,0.410,2.693,0.004,-0.010,0.999,0.000,0.000,0.000
47,0.0351,0.0447,0.3400,0.0107,0.0050,0.0373,0.34,0.43,1.52,50406,0.000,3.017,2.969,2.283,0.001,-0.007,0.996,0.000,0.000,0.000
47,0.0351,0.0455,0.3404,0.0097,0.0059,0.0372,0.36,0.41,1.55,50403,0.000,-0.456,4.186,2.736,0.001,-0.006,0.996,0.000,0.000,0.000
47,0.0352,0.0456,0.3406,0.0089,0.0053,0.0359,0.36,0.38,1.57,50397,0.000,0.388,3.444,3.227,0.005,-0.007,0.995,0.000,0.000,0.000
47,0.0352,0.0456,0.3406,0.0089,0.0053,0.0359,0.37,0.34,1.61,50313,0.000,1.416,2.203,2.925,0.008,-0.011,0.997,0.000,0.000,0.000
47,0.0353,0.0456,0.3409,0.0082,0.0047,0.0358,0.39,0.31,1.64,50305,0.000,-0.257,2.620,2.821,0.008,-0.009,0.998,0.000,0.000,0.000
47,0.0354,0.0457,0.3413,0.0075,0.0040,0.0357,0.38,0.28,1.67,50293,0.000,-0.841,2.882,2.774,0.004,-0.005,0.998,0.000,0.000,0.000
47,0.0358,0.0444,0.3416,0.0076,0.0009,0.0352,0.37,0.25,1.70,50282,0.000,-0.867,2.570,2.920,0.006,-0.010,0.997,0.000,0.000,0.000
47,0.0361,0.0457,0.3424,0.0074,0.0027,0.0372,0.35,0.24,1.73,50273,0.000,-2.466,0.134,2.496,0.004,-0.011,0.995,0.000,0.000,0.000
47,0.0351,0.0458,0.3428,0.0049,0.0023,0.0367,0.34,0.22,1.75,50366,0.000,-1.448,0.771,2.789,0.010,-0.009,0.999,0.000,0.000,0.000
47,0.0341,0.0459,0.3432,0.0026,0.0017,0.0364,0.31,0.20,1.78,50355,0.000,-1.448,1.265,3.114,0.006,-0.006,1.001,0.000,0.000,0.000
47,0.0344,0.0449,0.3435,0.0026,-0.0008,0.0362,0.29,0.19,1.81,50340,0.000,-1.427,0.875,3.424,0.004,-0.003,0.998,0.000,0.000,0.000
47,0.0345,0.0464,0.3439,0.0025,0.0013,0.0360,0.27,0.19,1.84,50330,0.000,-0.574,0.729,2.958,0.004,-0.010,0.997,0.000,0.000,0.000
47,0.0346,0.0464,0.3437,0.0021,0.0008,0.0330,0.27,0.18,1.87,50323,0.000,-1.861,0.561,3.241,0.004,-0.013,0.995,0.000,0.000,0.000
47,0.0346,0.0464,0.3440,0.0018,0.0002,0.0325,0.26,0.17,1.90,50191,0.000,-1.929,0.888,3.058,0.004,-0.010,0.998,0.000,0.000,0.000
48,0.0348,0.0453,0.3444,0.0018,-0.0022,0.0324,0.24,0.17,1.94,50181,0.000,-1.433,1.837,3.482,0.005,-0.008,1.000,0.000,0.000,0.000
48,0.0348,0.0453,0.3447,0.0015,-0.0027,0.0324,0.22,0.14,1.97,50164,0.000,1.639,2.384,2.884,0.003,-0.005,1.001,0.000,0.000,0.000
48,0.0336,0.0454,0.3450,-0.0009,-0.0030,0.0322,0.24,0.14,2.00,50146,0.000,-1.357,1.184,2.454,0.005,-0.006,0.996,0.000,0.000,0.000
48,0.0350,0.0470,0.3460,0.0012,-0.0006,0.0356,0.23,0.12,2.02,50136,0.000,-0.169,2.763,2.339,0.009,-0.008,0.995,0.000,0.000,0.000
48,0.0329,0.0455,0.3464,-0.0029,-0.0035,0.0351,0.23,0.09,2.05,50192,0.000,0.916,1.887,2.681,0.010,-0.011,0.996,0.000,0.000,0.000
48,0.0328,0.0455,0.3467,-0.0031,-0.0039,0.0349,0.23,0.08,2.08,50186,0.000,0.741,0.750,2.614,0.003,-0.008,0.997,0.000,0.000,0.000
48,0.0328,0.0455,0.3471,-0.0033,-0.0043,0.0349,0.22,0.06,2.10,50177,0.000,-2.065,-0.083,2.427,0.005,-0.009,0.997,0.000,0.000,0.000
48,0.0328,0.0454,0.3474,-0.0035,-0.0048,0.0349,0.21,0.07,2.13,50168,0.000,-2.543,-0.347,2.519,0.005,-0.010,0.996,0.000,0.000,0.000
48,0.0342,0.0468,0.3475,-0.0011,-0.0025,0.0329,0.19,0.07,2.15,50160,0.000,-4.180,1.150,1.982,0.004,-0.011,0.995,0.000,0.000,0.000
48,0.0330,0.0456,0.3478,-0.0033,-0.0051,0.0323,0.15,0.08,2.17,50084,0.000,-1.245,1.717,1.621,0.005,-0.009,0.996,0.000,0.000,0.000
48,0.0330,0.0455,0.3481,-0.0034,-0.0055,0.0319,0.14,0.07,2.19,50078,0.000,-1.795,0.359,1.606,0.005,-0.009,0.998,0.000,0.000,0.000
48,0.0303,0.0458,0.3484,-0.0082,-0.0052,0.0317,0.12,0.07,2.21,50077,0.000,-3.460,0.605,1.290,0.008,-0.008,1.003,0.000,0.000,0.000
48,0.0303,0.0458,0.3487,-0.0083,-0.0055,0.0314,0.09,0.06,2.22,50045,0.000,-0.496,1.377,1.112,0.006,-0.010,1.001,0.000,0.000,0.000
48,0.0292,0.0458,0.3494,-0.0103,-0.0056,0.0332,0.10,0.04,2.23,50043,0.000,-0.321,2.139,0.216,0.005,-0.009,0.996,0.000,0.000,0.000
48,0.0291,0.0458,0.3498,-0.0104,-0.0058,0.0327,0.08,0.00,2.23,50023,0.000,-1.573,1.944,0.965,0.006,-0.010,0.991,0.000,0.000,0.000
48,0.0294,0.0445,0.3501,-0.0097,-0.0083,0.0321,0.07,-0.01,2.24,50021,0.000,-1.841,1.859,0.577,0.007,-0.010,0.992,0.000,0.000,0.000
49,0.0309,0.0450,0.3504,-0.0068,-0.0074,0.0319,0.05,-0.03,2.25,50029,0.000,0.279,3.628,0.701,0.009,-0.010,0.998,0.000,0.000,0.000
49,0.0301,0.0449,0.3508,-0.0083,-0.0075,0.0321,0.04,-0.06,2.25,50027,0.000,-1.230,2.801,0.277,0.004,-0.007,0.997,0.000,0.000,0.000
49,0.0300,0.0449,0.3511,-0.0084,-0.0076,0.0320,0.04,-0.08,2.26,50010,0.000,0.269,1.892,-0.112,0.003,-0.007,0.994,0.000,0.000,0.000
49,0.0299,0.0448,0.3514,-0.0083,-0.0078,0.0316,0.03,-0.08,2.26,50129,0.000,1.225,1.639,-0.554,0.006,-0.011,0.992,0.000,0.000,0.000
49,0.0298,0.0447,0.3517,-0.0083,-0.0079,0.0308,0.03,-0.10,2.25,50136,0.000,-0.266,0.967,0.421,0.007,-0.012,0.992,0.000,0.000,0.000
49,0.0287,0.0449,0.3520,-0.0101,-0.0075,0.0300,0.03,-0.09,2.25,50145,0.000,-0.052,1.516,-0.275,0.008,-0.009,0.996,0.000,0.000,0.000
49,0.0286,0.0448,0.3523,-0.0100,-0.0075,0.0298,0.03,-0.09,2.25,50142,0.000,-0.075,1.410,-0.490,0.006,-0.009,0.998,0.000,0.000,0.000
49,0.0260,0.0447,0.3519,-0.0143,-0.0077,0.0260,0.03,-0.08,2.25,50134,0.000,0.977,1.153,-1.182,0.003,-0.011,0.996,0.000,0.000,0.000
49,0.0259,0.0446,0.3522,-0.0141,-0.0077,0.0254,0.03,-0.10,2.24,50221,0.000,0.244,1.701,-0.985,0.003,-0.010,0.995,0.000,0.000,0.000
49,0.0245,0.0433,0.3524,-0.0162,-0.0100,0.0246,0.01,-0.10,2.23,50223,0.000,-0.892,0.948,-0.852,0.004,-0.010,0.994,0.000,0.000,0.000
49,0.0243,0.0432,0.3527,-0.0161,-0.0101,0.0238,-0.01,-0.10,2.23,50227,0.000,-0.672,1.000,-0.775,0.004,-0.010,0.997,0.000,0.000,0.000
49,0.0247,0.0449,0.3529,-0.0150,-0.0067,0.0234,-0.02,-0.13,2.22,50226,0.000,-1.046,1.280,-0.229,0.005,-0.011,0.998,0.000,0.000,0.000
49,0.0245,0.0449,0.3527,-0.0148,-0.0068,0.0206,-0.03,-0.15,2.22,50220,0.000,-1.694,1.417,-0.938,0.004,-0.012,1.001,0.000,0.000,0.000
49,0.0250,0.0453,0.3529,-0.0136,-0.0059,0.0202,-0.05,-0.16,2.21,50261,0.000,-1.966,2.991,-0.124,0.002,-0.006,0.998,0.000,0.000,0.000
49,0.0249,0.0452,0.3531,-0.0134,-0.0059,0.0197,-0.05,-0.21,2.21,50254,0.000,0.636,2.878,-0.565,0.004,-0.004,0.996,0.000,0.000,0.000
49,0.0245,0.0443,0.3533,-0.0136,-0.0073,0.0191,-0.05,-0.22,2.21,50252,0.000,0.055,2.283,-0.498,0.008,-0.012,0.998,0.000,0.000,0.000
49,0.0243,0.0443,0.3535,-0.0134,-0.0073,0.0187,-0.04,-0.26,2.20,50248,0.000,1.089,2.380,0.087,0.008,-0.010,0.999,0.000,0.000,0.000
50,0.0260,0.0443,0.3534,-0.0100,-0.0069,0.0170,-0.04,-0.28,2.20,50242,0.000,0.488,2.760,-0.681,0.005,-0.008,0.997,0.000,0.000,0.000
50,0.0238,0.0442,0.3535,-0.0134,-0.0069,0.0170,-0.03,-0.32,2.20,50336,0.000,2.235,2.599,-0.691,0.004,-0.008,0.995,0.000,0.000,0.000
50,0.0254,0.0443,0.3537,-0.0099,-0.0066,0.0169,-0.02,-0.34,2.19,50340,0.000,1.330,0.780,-1.141,0.003,-0.008,0.995,0.000,0.000,0.000
50,0.0253,0.0442,0.3539,-0.0094,-0.0065,0.0167,-0.01,-0.32,2.18,50346,0.000,0.922,-0.990,-0.743,0.004,-0.008,0.994,0.000,0.000,0.000
50,0.0268,0.0443,0.3540,-0.0061,-0.0061,0.0164,0.00,-0.32,2.17,50353,0.000,1.335,-0.981,-0.232,0.003,-0.010,0.996,0.000,0.000,0.000
50,0.0245,0.0453,0.3537,-0.0096,-0.0042,0.0135,0.01,-0.32,2.17,50356,0.000,0.338,-1.745,-0.359,0.001,-0.008,0.998,0.000,0.000,0.000
50,0.0257,0.0451,0.3538,-0.0067,-0.0043,0.0133,0.02,-0.30,2.17,50143,0.000,-0.867,-2.561,-0.566,0.002,-0.008,1.001,0.000,0.000,0.000
50,0.0268,0.0452,0.3540,-0.0041,-0.0040,0.0128,0.01,-0.28,2.16,50131,0.000,0.263,-3.070,-0.309,0.002,-0.010,1.002,0.000,0.000,0.000
50,0.0267,0.0452,0.3541,-0.0036,-0.0040,0.0123,0.01,-0.24,2.16,50115,0.000,-0.243,-3.138,-0.585,0.003,-0.012,0.999,0.000,0.000,0.000
50,0.0265,0.0463,0.3542,-0.0034,-0.0019,0.0117,0.02,-0.21,2.15,50107,0.000,1.130,-1.894,-0.486,0.007,-0.012,0.997,0.000,0.000,0.000
50,0.0252,0.0461,0.3555,-0.0053,-0.0022,0.0174,0.03,-0.18,2.15,50104,0.000,1.432,-1.582,-1.013,0.005,-0.011,0.995,0.000,0.000,0.000
50,0.0251,0.0461,0.3556,-0.0048,-0.0022,0.0172,0.03,-0.17,2.14,50207,0.000,0.155,-2.293,-1.015,0.003,-0.010,0.999,0.000,0.000,0.000
50,0.0248,0.0451,0.3558,-0.0048,-0.0040,0.0173,0.03,-0.15,2.13,50203,0.000,-2.338,-1.846,-1.057,0.002,-0.007,0.999,0.000,0.000,0.000
50,0.0248,0.0451,0.3560,-0.0045,-0.0040,0.0175,0.01,-0.14,2.12,50196,0.000,0.284,0.810,-1.372,0.007,-0.010,0.999,0.000,0.000,0.000
50,0.0247,0.0450,0.3561,-0.0042,-0.0041,0.0173,0.02,-0.14,2.11,50191,0.000,1.437,0.120,-1.087,0.006,-0.008,0.995,0.000,0.000,0.000
50,0.0245,0.0474,0.3558,-0.0042,0.0003,0.0141,0.03,-0.13,2.10,50194,0.000,2.537,0.086,-0.595,0.007,-0.009,0.998,0.000,0.000,0.000
51,0.0245,0.0462,0.3559,-0.0039,-0.0020,0.0136,0.03,-0.13,2.09,50380,0.000,1.819,0.059,-0.619,0.001,-0.016,1.002,0.000,0.000,0.000
51,0.0244,0.0462,0.3560,-0.0037,-0.0020,0.0134,0.05,-0.12,2.09,50371,0.000,0.804,0.412,-0.797,0.004,-0.013,1.001,0.000,0.000,0.000
51,0.0244,0.0461,0.3562,-0.0035,-0.0020,0.0133,0.05,-0.12,2.08,50365,0.000,3.034,0.795,-0.399,0.006,-0.008,0.998,0.000,0.000,0.000
51,0.0244,0.0461,0.3563,-0.0032,-0.0021,0.0132,0.07,-0.12,2.08,50365,0.000,3.971,0.708,-0.761,0.005,-0.007,0.997,0.000,0.000,0.000
51,0.0243,0.0472,0.3554,-0.0031,-0.0001,0.0074,0.10,-0.13,2.07,50367,0.000,1.476,0.489,-0.764,0.003,-0.011,0.997,0.000,0.000,0.000
51,0.0243,0.0472,0.3555,-0.0029,-0.0001,0.0072,0.10,-0.14,2.06,0,0.000,-0.804,1.502,-0.782,0.003,-0.011,0.997,0.000,0.000,0.000
51,0.0244,0.0459,0.3556,-0.0024,-0.0026,0.0073,0.09,-0.15,2.05,0,0.000,0.429,1.442,-0.872,0.004,-0.010,0.947,0.000,0.000,0.000
51,0.0245,0.0472,0.3556,-0.0019,-0.0003,0.0074,0.09,-0.17,2.05,0,0.000,-2.011,1.057,-0.589,0.001,-0.005,0.863,0.000,0.000,0.000
51,0.0245,0.0472,0.3557,-0.0016,-0.0005,0.0072,0.09,-0.18,2.04,0,0.000,1.648,0.333,0.003,0.003,-0.011,0.776,0.000,0.000,0.000
51,0.0245,0.0472,0.3546,-0.0014,-0.0006,0.0008,0.12,-0.19,2.04,0,0.000,-0.602,1.275,-0.156,0.004,-0.006,0.700,0.000,0.000,0.000
51,0.0245,0.0472,0.3546,-0.0012,-0.0008,0.0005,0.09,-0.20,2.05,60000,0.000,-3.368,0.114,1.688,-0.012,-0.009,0.669,0.000,0.000,0.000
51,0.0249,0.0445,0.3546,-0.0002,-0.0057,-0.0000,0.04,-0.21,2.06,60000,0.000,-3.807,0.010,1.443,0.003,-0.029,0.674,0.000,0.000,0.000
51,0.0249,0.0461,0.3546,0.0002,-0.0030,-0.0055,0.00,-0.19,2.08,60000,0.000,-4.748,-3.436,2.399,-0.003,-0.007,0.716,0.000,0.000,0.000
51,0.0248,0.0479,0.3545,0.0003,0.0002,-0.0189,-0.07,-0.15,2.11,60000,0.000,-8.194,-2.372,3.822,-0.004,-0.009,0.791,0.000,0.000,0.000
51,0.0245,0.0470,0.3545,0.0000,-0.0015,-0.0390,-0.15,-0.12,2.15,60000,0.000,-7.654,-5.808,4.019,0.006,-0.025,0.837,0.000,0.000,0.000
51,0.0240,0.0490,0.3540,-0.0006,0.0021,-0.0680,-0.24,-0.05,2.19,60000,0.000,-11.727,-10.392,5.180,0.007,-0.022,0.869,0.000,0.000,0.000
59,0.0237,0.0485,0.3531,-0.0009,0.0010,-0.1003,-0.38,0.07,2.25,60000,0.000,-14.212,-14.542,5.979,0.008,-0.014,0.895,0.000,0.000,0.000
69,0.0237,0.0485,0.3520,-0.0007,0.0011,-0.1324,-0.52,0.22,2.31,60000,0.000,-14.064,-16.011,6.153,0.004,-0.009,0.938,0.000,0.000,0.000
79,0.0224,0.0489,0.3505,-0.0028,0.0019,-0.1602,-0.69,0.34,2.38,60000,0.000,-18.843,-18.071,7.360,0.006,-0.011,0.973,0.000,0.000,0.000
88,0.0224,0.0489,0.3506,-0.0027,0.0021,-0.1717,-0.87,0.54,2.45,60000,0.000,-14.215,-17.393,6.554,0.002,-0.009,1.000,0.000,0.000,0.000
100,0.0258,0.0508,0.3488,0.0034,0.0060,-0.1877,-1.01,0.72,2.52,60000,0.000,-14.143,-15.820,6.678,0.004,-0.008,1.019,0.000,0.000,0.000
108,0.0238,0.0513,0.3468,-0.0005,0.0075,-0.2007,-1.17,0.86,2.60,60000,0.000,-10.830,-13.302,7.000,0.004,-0.008,1.037,0.000,0.000,0.000
120,0.0232,0.0502,0.3448,-0.0022,0.0065,-0.2111,-1.27,0.96,2.67,60000,0.000,-6.608,-7.017,6.095,0.008,-0.012,1.054,0.000,0.000,0.000
128,0.0242,0.0506,0.3426,-0.0012,0.0084,-0.2175,-1.34,1.03,2.74,60000,0.000,-4.152,-3.488,6.351,0.005,-0.012,1.067,0.000,0.000,0.000
138,0.0259,0.0503,0.3402,0.0005,0.0094,-0.2213,-1.36,1.05,2.81,60000,0.000,-4.431,0.900,6.973,0.005,-0.012,1.083,0.000,0.000,0.000
148,0.0259,0.0504,0.3380,-0.0010,0.0113,-0.2215,-1.39,1.01,2.87,60000,0.000,0.057,4.493,6.329,0.007,-0.013,1.094,0.000,0.000,0.000
159,0.0260,0.0480,0.3358,-0.0025,0.0088,-0.2197,-1.41,0.95,2.94,60000,0.000,1.655,6.377,6.957,0.006,-0.012,1.103,0.000,0.000,0.000
168,0.0278,0.0480,0.3337,-0.0011,0.0109,-0.2162,-1.38,0.90,3.00,60000,0.000,3.939,6.909,6.878,0.009,-0.012,1.113,0.000,0.000,0.000
179,0.0284,0.0504,0.3315,-0.0020,0.0173,-0.2111,-1.36,0.81,3.07,60000,0.000,4.633,6.343,6.200,0.010,-0.014,1.120,0.000,0.000,0.000
189,0.0267,0.0497,0.3297,-0.0069,0.0183,-0.2032,-1.32,0.77,3.14,49990,0.000,6.910,4.372,6.224,0.010,-0.012,1.128,0.000,0.000,0.000
198,0.0267,0.0499,0.3277,-0.0088,0.0208,-0.1951,-1.24,0.74,3.20,49954,0.000,6.098,3.089,6.972,0.007,-0.013,1.122,0.000,0.000,0.000
209,0.0287,0.0519,0.3258,-0.0068,0.0264,-0.1860,-1.18,0.72,3.27,49899,0.000,4.062,-0.056,6.927,0.008,-0.012,1.104,0.000,0.000,0.000
219,0.0256,0.0522,0.3240,-0.0139,0.0290,-0.1758,-1.13,0.74,3.34,50073,0.000,0.936,-4.903,6.764,0.007,-0.014,1.090,0.000,0.000,0.000
229,0.0258,0.0525,0.3223,-0.0148,0.0313,-0.1647,-1.11,0.79,3.40,49999,0.000,6.068,-8.459,5.337,0.009,-0.015,1.078,0.000,0.000,0.000
238,0.0246,0.0516,0.3212,-0.0183,0.0314,-0.1499,-1.05,0.88,3.46,49941,0.000,5.755,-7.935,5.192,0.008,-0.012,1.067,0.000,0.000,0.000
249,0.0244,0.0519,0.3198,-0.0198,0.0336,-0.1375,-0.99,0.95,3.51,49767,0.000,0.480,-9.351,5.846,0.005,-0.009,1.059,0.000,0.000,0.000
258,0.0237,0.0521,0.3185,-0.0224,0.0354,-0.1256,-0.97,1.06,3.57,49830,0.000,4.104,-6.904,5.000,0.005,-0.008,1.051,0.000,0.000,0.000
268,0.0234,0.0525,0.3173,-0.0240,0.0373,-0.1155,-1.04,1.11,3.63,50088,0.000,2.371,-4.261,5.026,0.006,-0.011,1.042,0.000,0.000,0.000
279,0.0214,0.0518,0.3162,-0.0291,0.0373,-0.1067,-1.03,1.16,3.68,50431,0.000,0.640,-4.964,5.026,0.006,-0.013,1.036,0.000,0.000,0.000
288,0.0217,0.0624,0.3155,-0.0299,0.0578,-0.0973,-1.03,1.20,3.73,50197,0.000,-2.743,-2.509,4.310,0.008,-0.014,1.033,0.000,0.000,0.000
299,0.0214,0.0630,0.3145,-0.0319,0.0597,-0.0908,-1.06,1.21,3.77,49391,0.000,-2.630,0.172,4.657,0.007,-0.009,1.033,0.000,0.000,0.000
308,0.0212,0.0638,0.3137,-0.0337,0.0617,-0.0851,-1.09,1.20,3.82,50180,0.000,-4.171,3.110,3.557,0.007,-0.011,1.028,0.000,0.000,0.000
