time_ms,pos_x,pos_y,pos_z,vel_x,vel_y,vel_z,roll,pitch,yaw,,vbat,gyro_x,gyro_y,gyro_z,acc_x,acc_y,acc_z,rate_roll,rate_pitch,rate_yaw
0,-0.8336,0.3022,0.0101,0.0002,0.0071,0.0039,-0.20,0.84,-0.39,0,4.112,-0.080,0.076,-0.276,0.018,-0.000,1.001,0.000,0.000,0.000
101,-0.8341,0.3019,0.0102,-0.0023,0.0055,0.0043,-0.20,0.84,-0.39,0,4.112,0.059,-0.112,-0.445,0.017,-0.003,1.004,0.000,0.000,0.000
202,-0.8339,0.3019,0.0102,-0.0010,0.0055,0.0046,-0.23,0.89,-0.39,0,4.112,-0.347,0.024,-0.060,0.017,-0.003,1.003,0.000,0.000,0.000
303,-0.8339,0.3020,0.0106,-0.0008,0.0058,0.0064,-0.16,0.84,-0.40,0,4.107,-0.136,0.096,0.150,0.014,-0.002,1.000,0.000,0.000,0.000
404,-0.8350,0.3027,0.0106,-0.0070,0.0093,0.0065,-0.18,0.83,-0.40,0,4.107,-0.201,0.055,-0.084,0.012,-0.003,1.000,0.000,0.000,0.000
506,-0.8339,0.3013,0.0107,-0.0001,0.0011,0.0069,-0.19,0.83,-0.40,0,4.101,-0.022,-0.123,-0.012,0.015,-0.002,1.001,0.000,0.000,0.000
608,-0.8337,0.3018,0.0108,0.0015,0.0037,0.0070,-0.16,0.83,-0.39,0,4.101,-0.130,0.194,-0.070,0.015,-0.002,1.001,0.000,0.000,0.000
710,-0.8337,0.3020,0.0109,0.0017,0.0049,0.0074,-0.20,0.82,-0.39,0,4.101,-0.451,0.054,-0.207,0.016,-0.003,1.002,0.000,0.000,0.000
811,-0.8337,0.3013,0.0110,0.0018,0.0009,0.0077,-0.16,0.83,-0.39,0,4.107,-0.190,0.068,-0.044,0.016,-0.003,1.000,0.000,0.000,0.000
912,-0.8334,0.3022,0.0106,0.0029,0.0059,0.0056,-0.18,0.82,-0.40,0,4.112,0.002,0.049,-0.061,0.013,-0.000,0.999,0.000,0.000,0.000
1013,-0.8337,0.3013,0.0107,0.0014,0.0009,0.0056,-0.19,0.82,-0.40,0,4.112,0.001,0.077,-0.360,0.012,-0.002,1.001,0.000,0.000,0.000
1114,-0.8337,0.3018,0.0107,0.0013,0.0033,0.0058,-0.17,0.81,-0.40,0,4.112,0.045,0.282,0.144,0.015,-0.002,1.003,0.000,0.000,0.000
1215,-0.8337,0.3020,0.0108,0.0013,0.0045,0.0058,-0.25,0.66,-0.40,0,4.112,-0.193,-0.368,-0.052,0.015,-0.004,1.002,0.000,0.000,0.000
1317,-0.8335,0.3016,0.0108,0.0026,0.0019,0.0060,-0.06,0.67,-0.39,0,4.107,0.092,0.106,0.195,0.014,-0.002,1.002,0.000,0.000,0.000
1418,-0.8300,0.3032,0.0101,0.0216,0.0111,0.0017,-0.05,0.66,-0.39,0,4.107,-0.087,-0.012,-0.080,0.016,-0.001,1.002,0.000,0.000,0.000
1519,-0.8301,0.2993,0.0102,0.0203,-0.0113,0.0021,-0.03,0.67,-0.39,0,4.101,-0.417,-0.000,0.014,0.017,0.002,1.002,0.000,0.000,0.000
1620,-0.8297,0.2988,0.0102,0.0215,-0.0130,0.0021,-0.03,0.67,-0.39,0,4.101,-0.094,-0.122,-0.218,0.016,-0.000,1.001,0.000,0.000,0.000
1721,-0.8301,0.2988,0.0102,0.0184,-0.0125,0.0026,-0.07,0.71,-0.39,0,4.101,-0.348,-0.040,0.003,0.015,-0.003,1.002,0.000,0.000,0.000
1822,-0.8295,0.2980,0.0102,0.0210,-0.0166,0.0026,-0.07,0.71,-0.39,0,4.101,-0.211,-0.225,-0.447,0.014,-0.002,1.003,0.000,0.000,0.000
1923,-0.8299,0.2990,0.0102,0.0179,-0.0101,0.0026,-0.13,0.73,-0.39,0,4.107,0.167,-0.264,0.013,0.016,-0.004,1.000,0.000,0.000,0.000
2024,-0.8301,0.2986,0.0102,0.0162,-0.0117,0.0028,-0.13,0.73,-0.39,0,4.112,-0.235,-0.141,0.116,0.015,-0.002,1.000,0.000,0.000,0.000
2125,-0.8301,0.2982,0.0103,0.0156,-0.0130,0.0029,-0.13,0.74,-0.39,0,4.112,-0.222,-0.179,-0.197,0.013,-0.001,1.000,0.000,0.000,0.000
2226,-0.8301,0.2996,0.0103,0.0150,-0.0044,0.0033,-0.06,0.71,-0.38,0,4.107,-0.031,0.139,-0.068,0.015,0.000,1.002,0.000,0.000,0.000
2327,-0.8303,0.2996,0.0104,0.0133,-0.0041,0.0036,-0.11,0.74,-0.39,0,4.107,-0.152,0.143,-0.228,0.015,-0.004,1.003,0.000,0.000,0.000
2428,-0.8295,0.2980,0.0098,0.0171,-0.0130,0.0007,-0.11,0.74,-0.39,0,4.107,0.064,-0.054,-0.244,0.015,-0.004,1.002,0.000,0.000,0.000
2529,-0.8299,0.2988,0.0098,0.0143,-0.0080,0.0010,-0.11,0.74,-0.39,0,4.101,-0.268,-0.191,-0.072,0.016,-0.003,1.002,0.000,0.000,0.000
2630,-0.8297,0.2988,0.0098,0.0144,-0.0080,0.0010,-0.07,0.73,-0.38,0,4.101,-0.119,-0.304,-0.031,0.013,-0.002,1.001,0.000,0.000,0.000
2731,-0.8296,0.2987,0.0098,0.0145,-0.0078,0.0010,-0.08,0.75,-0.38,0,4.101,-0.271,0.039,-0.037,0.013,-0.002,1.003,0.000,0.000,0.000
2833,-0.8294,0.2978,0.0098,0.0150,-0.0122,0.0012,-0.13,0.76,-0.39,0,4.107,-0.085,0.055,0.152,0.015,-0.001,1.004,0.000,0.000,0.000
2934,-0.8296,0.2978,0.0104,0.0131,-0.0117,0.0041,-0.14,0.78,-0.39,0,4.112,-0.184,-0.187,-0.149,0.013,-0.000,1.002,0.000,0.000,0.000
0,-0.8296,0.2987,0.0104,0.0126,-0.0063,0.0044,-0.14,0.79,-0.38,0,4.112,-0.050,0.152,0.021,0.014,-0.000,1.000,0.000,0.000,0.000
0,-0.8301,0.2989,0.0105,0.0096,-0.0047,0.0046,-0.14,0.79,-0.38,0,4.112,-0.346,-0.201,-0.095,0.014,-0.002,1.001,0.000,0.000,0.000
0,-0.8301,0.2987,0.0105,0.0090,-0.0056,0.0047,-0.07,0.63,-0.39,0,4.112,-0.193,0.031,0.147,0.012,-0.003,1.003,0.000,0.000,0.000
0,-0.8299,0.2987,0.0106,0.0096,-0.0052,0.0050,-0.08,0.67,-0.39,0,4.107,-0.249,0.066,-0.024,0.014,-0.003,1.003,0.000,0.000,0.000
0,-0.8262,0.2972,0.0108,0.0292,-0.0131,0.0061,-0.16,0.74,-0.39,0,4.107,-0.272,-0.139,-0.158,0.016,-0.001,1.000,0.000,0.000,0.000
1,-0.8268,0.2972,0.0109,0.0242,-0.0122,0.0065,-0.16,0.74,-0.39,0,4.101,-0.259,-0.069,-0.098,0.016,0.000,1.000,0.000,0.000,0.000
1,-0.8281,0.2989,0.0110,0.0161,-0.0021,0.0070,-0.17,0.75,-0.39,0,4.101,-0.231,0.156,0.161,0.013,-0.002,1.001,0.000,0.000,0.000
1,-0.8280,0.2989,0.0111,0.0162,-0.0020,0.0072,-0.07,0.75,-0.37,0,4.101,0.115,0.037,-0.219,0.012,-0.001,1.000,0.000,0.000,0.000
1,-0.8282,0.2989,0.0112,0.0140,-0.0019,0.0076,-0.17,0.78,-0.39,0,4.107,-0.228,0.155,-0.072,0.015,-0.001,0.999,0.000,0.000,0.000
1,-0.8281,0.2967,0.0108,0.0144,-0.0141,0.0052,-0.15,0.75,-0.39,0,4.112,-0.064,0.055,-0.132,0.015,-0.001,1.001,0.000,0.000,0.000
1,-0.8287,0.2989,0.0109,0.0103,-0.0012,0.0055,-0.24,0.84,-0.39,0,4.112,-0.348,-0.088,0.029,0.013,0.000,1.003,0.000,0.000,0.000
1,-0.8278,0.2985,0.0109,0.0148,-0.0033,0.0055,-0.24,0.86,-0.39,0,4.112,-0.145,-0.006,-0.117,0.014,-0.000,1.003,0.000,0.000,0.000
1,-0.8298,0.3005,0.0110,0.0032,0.0078,0.0058,-0.23,0.85,-0.39,0,4.112,-0.205,0.210,-0.083,0.015,-0.001,1.003,0.000,0.000,0.000
2,-0.8302,0.3005,0.0111,0.0003,0.0077,0.0058,-0.24,0.85,-0.39,0,4.107,-0.154,-0.002,-0.080,0.013,-0.003,1.003,0.000,0.000,0.000
2,-0.8300,0.3003,0.0098,0.0015,0.0064,-0.0009,-0.24,0.84,-0.39,0,4.107,-0.119,0.028,-0.135,0.013,-0.005,1.002,0.000,0.000,0.000
2,-0.8300,0.3005,0.0098,0.0015,0.0076,-0.0008,-0.24,0.84,-0.39,0,4.101,-0.100,0.164,-0.176,0.015,-0.002,1.001,0.000,0.000,0.000
2,-0.8300,0.3005,0.0098,0.0013,0.0080,-0.0005,-0.25,0.83,-0.40,0,4.101,-0.269,0.034,0.095,0.012,-0.003,1.002,0.000,0.000,0.000
2,-0.8300,0.3006,0.0098,0.0013,0.0083,-0.0002,-0.30,1.07,-0.39,0,4.101,-0.307,-0.057,-0.120,0.012,-0.000,1.000,0.000,0.000,0.000
2,-0.8297,0.3008,0.0098,0.0026,0.0094,0.0001,-0.24,1.09,-0.38,0,4.101,-0.007,-0.092,-0.116,0.014,-0.000,1.001,0.000,0.000,0.000
2,-0.8352,0.3023,0.0090,-0.0281,0.0171,-0.0038,-0.35,1.01,-0.39,0,4.107,-0.172,0.045,0.339,0.015,0.001,1.002,0.000,0.000,0.000
2,-0.8359,0.3009,0.0089,-0.0307,0.0084,-0.0035,-0.28,1.05,-0.39,0,4.112,-0.225,0.127,-0.053,0.018,-0.000,1.002,0.000,0.000,0.000
2,-0.8344,0.3034,0.0090,-0.0214,0.0221,-0.0030,-0.25,0.98,-0.39,0,4.112,-0.109,0.082,-0.037,0.015,-0.001,1.002,0.000,0.000,0.000
3,-0.8355,0.3023,0.0090,-0.0270,0.0148,-0.0027,-0.23,0.95,-0.39,0,4.112,0.275,-0.126,-0.151,0.015,0.002,1.003,0.000,0.000,0.000
3,-0.8344,0.3016,0.0090,-0.0197,0.0106,-0.0022,-0.24,0.99,-0.39,0,4.107,-0.054,0.158,-0.003,0.015,-0.001,1.002,0.000,0.000,0.000
3,-0.8339,0.3013,0.0090,-0.0164,0.0091,-0.0019,-0.24,0.98,-0.39,0,4.107,-0.255,-0.100,-0.011,0.015,-0.002,1.000,0.000,0.000,0.000
3,-0.8350,0.3015,0.0090,-0.0217,0.0102,-0.0019,-0.07,0.97,-0.39,0,4.107,0.001,-0.038,-0.432,0.016,-0.002,1.000,0.000,0.000,0.000
3,-0.8350,0.3018,0.0090,-0.0204,0.0112,-0.0016,-0.07,0.91,-0.39,0,4.101,-0.153,0.041,0.002,0.015,-0.005,1.001,0.000,0.000,0.000
3,-0.8350,0.2978,0.0090,-0.0196,-0.0106,-0.0010,-0.08,1.03,-0.39,0,4.101,0.047,-0.103,0.049,0.014,-0.003,1.002,0.000,0.000,0.000
3,-0.8339,0.2978,0.0091,-0.0127,-0.0098,-0.0005,-0.08,0.95,-0.39,0,4.101,-0.353,-0.076,0.289,0.015,-0.002,1.002,0.000,0.000,0.000
3,-0.8370,0.2978,0.0103,-0.0286,-0.0091,0.0061,-0.08,0.92,-0.39,0,4.107,-0.034,-0.028,-0.060,0.016,-0.002,1.003,0.000,0.000,0.000
3,-0.8352,0.2978,0.0105,-0.0180,-0.0087,0.0065,-0.08,0.96,-0.39,0,4.112,-0.001,-0.061,-0.010,0.015,-0.002,1.002,0.000,0.000,0.000
3,-0.8348,0.2976,0.0106,-0.0147,-0.0095,0.0066,-0.08,0.92,-0.39,0,4.112,-0.230,0.230,-0.127,0.014,-0.002,0.999,0.000,0.000,0.000
3,-0.8359,0.2974,0.0106,-0.0198,-0.0103,0.0066,-0.11,0.92,-0.39,0,4.112,-0.087,-0.292,0.193,0.013,-0.002,1.001,0.000,0.000,0.000
3,-0.8352,0.2974,0.0107,-0.0155,-0.0099,0.0070,-0.10,0.90,-0.39,0,4.112,-0.215,0.002,-0.076,0.014,-0.005,1.004,0.000,0.000,0.000
3,-0.8352,0.2980,0.0100,-0.0146,-0.0060,0.0035,-0.10,0.90,-0.39,0,4.107,-0.326,-0.059,0.041,0.014,-0.002,1.004,0.000,0.000,0.000
4,-0.8350,0.2976,0.0101,-0.0127,-0.0079,0.0037,-0.12,0.89,-0.39,0,4.107,-0.301,0.108,-0.090,0.015,-0.002,1.002,0.000,0.000,0.000
4,-0.8351,0.2975,0.0101,-0.0128,-0.0080,0.0039,-0.08,0.84,-0.40,0,4.101,-0.030,-0.042,-0.206,0.014,-0.000,1.001,0.000,0.000,0.000
4,-0.8351,0.2978,0.0102,-0.0123,-0.0064,0.0039,-0.11,0.84,-0.40,0,4.101,0.025,0.077,0.127,0.012,-0.001,1.003,0.000,0.000,0.000
4,-0.8340,0.2966,0.0102,-0.0060,-0.0119,0.0041,-0.11,0.88,-0.39,0,4.107,0.134,-0.075,-0.072,0.016,-0.005,1.002,0.000,0.000,0.000
4,-0.8339,0.2973,0.0097,-0.0057,-0.0080,0.0020,-0.12,0.86,-0.39,0,4.107,-0.274,0.099,-0.229,0.016,-0.002,1.002,0.000,0.000,0.000
4,-0.8350,0.2973,0.0097,-0.0113,-0.0075,0.0023,-0.12,0.82,-0.40,0,4.112,-0.107,-0.021,-0.302,0.014,-0.003,1.000,0.000,0.000,0.000
4,-0.8348,0.2973,0.0098,-0.0095,-0.0071,0.0024,-0.13,0.86,-0.40,0,4.112,-0.270,0.121,-0.051,0.015,-0.004,1.000,0.000,0.000,0.000
4,-0.8339,0.2973,0.0098,-0.0045,-0.0065,0.0026,-0.19,0.87,-0.39,0,4.112,0.103,0.085,-0.106,0.014,-0.001,1.001,0.000,0.000,0.000
4,-0.8350,0.2974,0.0098,-0.0102,-0.0060,0.0028,-0.14,0.85,-0.40,0,4.112,-0.264,0.230,0.028,0.014,-0.000,1.002,0.000,0.000,0.000
4,-0.8353,0.2987,0.0113,-0.0108,0.0011,0.0100,-0.15,0.84,-0.40,0,4.107,-0.249,0.132,0.208,0.015,-0.002,1.001,0.000,0.000,0.000
4,-0.8351,0.2976,0.0114,-0.0091,-0.0047,0.0102,-0.16,0.84,-0.40,0,4.107,0.300,-0.115,-0.129,0.015,-0.003,1.001,0.000,0.000,0.000
4,-0.8348,0.2978,0.0115,-0.0075,-0.0034,0.0102,-0.12,0.90,-0.39,0,4.101,-0.055,0.154,0.211,0.015,-0.001,1.003,0.000,0.000,0.000
4,-0.8350,0.2978,0.0116,-0.0083,-0.0032,0.0103,-0.12,0.80,-0.40,0,4.101,-0.092,0.102,-0.080,0.016,-0.002,1.003,0.000,0.000,0.000
4,-0.8366,0.2970,0.0117,-0.0160,-0.0073,0.0103,-0.15,0.83,-0.40,0,4.107,0.102,0.213,-0.069,0.014,-0.002,0.999,0.000,0.000,0.000
4,-0.8344,0.2967,0.0120,-0.0038,-0.0080,0.0114,-0.12,0.82,-0.40,0,4.107,-0.225,-0.076,0.177,0.015,-0.001,1.001,0.000,0.000,0.000
4,-0.8350,0.2974,0.0121,-0.0069,-0.0041,0.0116,-0.15,0.81,-0.40,0,4.107,-0.306,0.232,-0.048,0.016,-0.002,1.002,0.000,0.000,0.000
4,-0.8351,0.2967,0.0122,-0.0064,-0.0072,0.0118,-0.17,0.81,-0.40,0,4.112,-0.127,0.132,-0.212,0.018,-0.002,1.005,0.000,0.000,0.000
4,-0.8348,0.2974,0.0123,-0.0048,-0.0033,0.0122,-0.14,0.81,-0.40,0,4.112,-0.164,-0.046,0.070,0.014,-0.001,1.001,0.000,0.000,0.000
5,-0.8350,0.2976,0.0125,-0.0056,-0.0018,0.0124,-0.16,0.81,-0.40,0,4.107,-0.053,-0.148,0.004,0.015,0.000,1.001,0.000,0.000,0.000
5,-0.8350,0.2970,0.0115,-0.0051,-0.0050,0.0070,-0.17,0.81,-0.40,0,4.107,-0.294,-0.069,-0.051,0.012,-0.001,1.000,0.000,0.000,0.000
5,-0.8350,0.2974,0.0116,-0.0048,-0.0023,0.0072,-0.19,0.79,-0.40,0,4.107,-0.060,0.107,0.195,0.012,-0.001,1.001,0.000,0.000,0.000
5,-0.8352,0.2974,0.0116,-0.0054,-0.0021,0.0075,-0.18,0.81,-0.40,0,4.107,-0.283,-0.056,0.113,0.015,-0.002,1.002,0.000,0.000,0.000
5,-0.8348,0.2978,0.0117,-0.0026,0.0005,0.0079,-0.15,0.79,-0.40,0,4.101,-0.400,0.200,0.278,0.014,-0.002,1.002,0.000,0.000,0.000
5,-0.8352,0.2976,0.0118,-0.0048,-0.0004,0.0079,-0.19,0.79,-0.40,0,4.101,-0.026,0.153,-0.081,0.013,0.003,1.002,0.000,0.000,0.000
5,-0.8348,0.2968,0.0107,-0.0021,-0.0047,0.0019,-0.20,0.78,-0.40,0,4.107,-0.185,0.017,-0.020,0.015,0.000,1.003,0.000,0.000,0.000
0,-0.8348,0.2976,0.0107,-0.0022,0.0004,0.0019,-0.20,0.79,-0.40,0,4.112,-0.139,0.140,0.012,0.016,-0.002,1.001,0.000,0.000,0.000
0,-0.8348,0.2978,0.0107,-0.0021,0.0017,0.0020,-0.19,0.82,-0.40,0,4.112,-0.248,-0.171,-0.106,0.014,-0.001,1.002,0.000,0.000,0.000
0,-0.8350,0.2978,0.0107,-0.0031,0.0017,0.0023,-0.15,0.77,-0.40,0,4.112,-0.156,0.157,-0.058,0.013,-0.002,1.002,0.000,0.000,0.000
0,-0.8356,0.2976,0.0108,-0.0065,0.0008,0.0025,-0.17,0.77,-0.40,0,4.112,-0.032,0.083,0.162,0.012,-0.001,1.002,0.000,0.000,0.000
0,-0.8346,0.2968,0.0100,-0.0003,-0.0035,-0.0012,-0.18,0.78,-0.40,0,4.107,-0.175,0.381,0.037,0.014,-0.003,1.005,0.000,0.000,0.000
0,-0.8346,0.2972,0.0100,-0.0001,-0.0007,-0.0009,-0.20,0.78,-0.40,0,4.107,-0.179,0.243,0.323,0.014,-0.003,1.001,0.000,0.000,0.000
0,-0.8350,0.2974,0.0100,-0.0022,0.0007,-0.0008,-0.19,0.80,-0.40,0,4.101,-0.119,-0.099,0.020,0.015,-0.002,1.002,0.000,0.000,0.000
1,-0.8349,0.2978,0.0100,-0.0021,0.0032,-0.0006,-0.08,0.71,-0.39,0,4.101,-0.082,0.356,0.057,0.017,-0.002,1.002,0.000,0.000,0.000
1,-0.8356,0.2974,0.0100,-0.0055,0.0009,-0.0004,-0.12,0.76,-0.39,0,4.101,-0.253,0.013,-0.094,0.017,-0.001,1.001,0.000,0.000,0.000
1,-0.8336,0.2950,0.0113,0.0061,-0.0130,0.0069,-0.16,0.76,-0.40,0,4.107,-0.169,0.051,0.024,0.017,-0.001,1.003,0.000,0.000,0.000
1,-0.8346,0.2959,0.0114,0.0001,-0.0076,0.0071,-0.15,0.81,-0.39,0,4.112,-0.059,0.114,-0.045,0.016,-0.001,1.003,0.000,0.000,0.000
1,-0.8346,0.2966,0.0115,0.0002,-0.0028,0.0076,-0.14,0.75,-0.39,0,4.112,-0.006,0.159,-0.098,0.016,-0.002,1.002,0.000,0.000,0.000
1,-0.8358,0.2963,0.0115,-0.0066,-0.0048,0.0077,-0.17,0.76,-0.40,0,4.112,0.012,-0.036,-0.302,0.014,-0.004,1.001,0.000,0.000,0.000
1,-0.8346,0.2961,0.0116,0.0007,-0.0057,0.0080,-0.15,0.72,-0.40,0,4.112,-0.326,-0.007,-0.094,0.017,-0.001,1.001,0.000,0.000,0.000
2,-0.8347,0.2966,0.0101,0.0001,-0.0019,-0.0004,-0.15,0.72,-0.40,0,4.107,-0.063,-0.145,-0.268,0.018,-0.001,0.999,0.000,0.000,0.000
2,-0.8336,0.2960,0.0101,0.0072,-0.0051,-0.0002,-0.24,0.84,-0.40,0,4.107,0.167,-0.185,-0.315,0.017,-0.001,1.001,0.000,0.000,0.000
2,-0.8338,0.2960,0.0101,0.0060,-0.0046,0.0002,-0.20,0.85,-0.40,0,4.101,-0.195,0.148,-0.261,0.016,-0.003,1.003,0.000,0.000,0.000
2,-0.8363,0.2978,0.0102,-0.0085,0.0059,0.0007,-0.19,0.83,-0.40,0,4.101,-0.202,0.076,0.288,0.013,-0.004,1.004,0.000,0.000,0.000
2,-0.8367,0.2972,0.0102,-0.0103,0.0023,0.0008,-0.23,0.82,-0.41,0,4.101,0.091,0.040,-0.323,0.015,-0.002,1.001,0.000,0.000,0.000
2,-0.8363,0.2968,0.0101,-0.0075,0.0000,0.0006,-0.23,0.82,-0.41,0,4.101,-0.259,0.168,0.070,0.016,-0.001,1.002,0.000,0.000,0.000
2,-0.8363,0.2978,0.0101,-0.0068,0.0059,0.0006,-0.24,0.82,-0.41,0,4.112,-0.126,0.084,0.070,0.014,-0.002,1.003,0.000,0.000,0.000
2,-0.8363,0.2978,0.0101,-0.0064,0.0061,0.0007,-0.23,0.86,-0.41,0,4.112,-0.186,-0.031,-0.061,0.014,-0.003,1.002,0.000,0.000,0.000
3,-0.8364,0.2979,0.0102,-0.0063,0.0065,0.0009,-0.24,0.86,-0.40,0,4.112,-0.052,0.129,-0.105,0.017,-0.003,1.001,0.000,0.000,0.000
3,-0.8373,0.2979,0.0097,-0.0108,0.0061,-0.0012,-0.20,0.82,-0.40,0,4.112,-0.190,-0.029,-0.102,0.017,-0.001,1.003,0.000,0.000,0.000
3,-0.8374,0.2980,0.0097,-0.0110,0.0062,-0.0010,-0.24,0.82,-0.41,0,4.107,-0.105,0.320,0.114,0.014,-0.001,1.005,0.000,0.000,0.000
3,-0.8367,0.2973,0.0097,-0.0064,0.0022,-0.0007,-0.23,0.81,-0.40,0,4.107,0.041,0.408,0.051,0.015,-0.000,1.003,0.000,0.000,0.000
3,-0.8367,0.2982,0.0097,-0.0060,0.0074,-0.0004,-0.18,0.74,-0.40,0,4.107,-0.213,-0.041,0.018,0.015,0.000,1.001,0.000,0.000,0.000
3,-0.8367,0.2980,0.0097,-0.0057,0.0058,-0.0001,-0.20,0.74,-0.40,0,4.101,-0.023,0.088,0.099,0.016,0.001,1.002,0.000,0.000,0.000
3,-0.8354,0.2969,0.0097,0.0022,-0.0008,0.0001,-0.22,0.78,-0.40,0,4.101,-0.154,-0.311,-0.472,0.015,-0.003,1.003,0.000,0.000,0.000
3,-0.8354,0.2973,0.0103,0.0025,0.0019,0.0033,-0.22,0.79,-0.40,0,4.107,-0.074,0.095,-0.074,0.013,-0.004,1.002,0.000,0.000,0.000
3,-0.8362,0.2977,0.0103,-0.0024,0.0044,0.0036,-0.22,0.83,-0.41,0,4.112,0.000,-0.038,-0.192,0.014,-0.001,1.000,0.000,0.000,0.000
4,-0.8364,0.2977,0.0104,-0.0033,0.0045,0.0040,-0.21,0.79,-0.41,0,4.112,-0.211,-0.110,0.098,0.016,-0.000,1.003,0.000,0.000,0.000
4,-0.8373,0.2980,0.0104,-0.0078,0.0058,0.0041,-0.21,0.74,-0.41,0,4.112,0.038,-0.257,-0.390,0.013,-0.002,1.001,0.000,0.000,0.000
4,-0.8367,0.2977,0.0103,-0.0037,0.0046,0.0034,-0.21,0.77,-0.41,0,4.107,-0.260,0.029,0.044,0.014,-0.001,1.001,0.000,0.000,0.000
4,-0.8356,0.2977,0.0103,0.0026,0.0046,0.0037,-0.21,0.77,-0.41,0,4.107,0.047,-0.147,-0.375,0.017,0.000,1.001,0.000,0.000,0.000
4,-0.8363,0.2978,0.0104,-0.0010,0.0044,0.0041,-0.21,0.78,-0.41,0,4.101,-0.383,-0.037,-0.122,0.018,-0.002,1.002,0.000,0.000,0.000
4,-0.8363,0.2978,0.0104,-0.0010,0.0044,0.0041,-0.28,0.80,-0.42,0,4.101,-0.328,0.080,-0.056,0.018,-0.003,1.000,0.000,0.000,0.000
4,-0.8365,0.2978,0.0105,-0.0019,0.0047,0.0045,-0.20,0.98,-0.41,0,4.101,-0.126,0.135,0.218,0.016,-0.001,1.001,0.000,0.000,0.000
4,-0.8369,0.2993,0.0105,-0.0042,0.0131,0.0044,-0.30,1.17,-0.43,0,4.101,-0.077,0.057,0.151,0.015,-0.001,1.003,0.000,0.000,0.000
4,-0.8413,0.2978,0.0090,-0.0273,0.0046,-0.0033,-0.30,1.17,-0.42,0,4.101,-0.058,0.075,-0.037,0.015,0.000,1.004,0.000,0.000,0.000
4,-0.8456,0.3000,0.0088,-0.0510,0.0166,-0.0047,-0.29,1.15,-0.42,0,4.112,-0.065,0.047,-0.209,0.014,0.000,1.001,0.000,0.000,0.000
4,-0.8466,0.3003,0.0087,-0.0516,0.0173,-0.0044,-0.29,1.15,-0.42,0,4.112,-0.191,-0.042,0.250,0.015,-0.001,0.999,0.000,0.000,0.000
4,-0.8463,0.3001,0.0087,-0.0497,0.0163,-0.0042,-0.33,1.12,-0.42,0,4.112,-0.179,0.135,-0.386,0.014,-0.003,1.000,0.000,0.000,0.000
4,-0.8473,0.3005,0.0101,-0.0507,0.0171,0.0035,-0.29,1.10,-0.42,0,4.112,0.112,-0.273,-0.211,0.013,-0.003,1.001,0.000,0.000,0.000
4,-0.8467,0.3012,0.0101,-0.0474,0.0213,0.0037,-0.28,1.07,-0.42,0,4.107,-0.001,0.115,-0.064,0.013,-0.000,1.001,0.000,0.000,0.000
4,-0.8471,0.3007,0.0102,-0.0454,0.0170,0.0046,-0.28,1.06,-0.42,0,4.107,-0.219,-0.204,-0.163,0.014,0.000,1.000,0.000,0.000,0.000
5,-0.8468,0.3006,0.0103,-0.0417,0.0164,0.0050,-0.16,1.01,-0.42,0,4.101,0.037,0.153,-0.226,0.017,-0.001,1.001,0.000,0.000,0.000
5,-0.8472,0.3008,0.0104,-0.0421,0.0167,0.0050,-0.20,0.99,-0.42,0,4.101,-0.184,-0.206,0.210,0.016,-0.000,1.003,0.000,0.000,0.000
5,-0.8463,0.2979,0.0106,-0.0359,0.0006,0.0060,-0.22,1.02,-0.42,0,4.107,-0.115,0.097,-0.072,0.014,-0.003,1.003,0.000,0.000,0.000
5,-0.8462,0.2989,0.0100,-0.0339,0.0060,0.0026,-0.22,1.02,-0.42,0,4.107,-0.033,0.036,0.011,0.015,-0.002,1.001,0.000,0.000,0.000
5,-0.8472,0.2994,0.0100,-0.0374,0.0087,0.0025,-0.25,1.00,-0.42,0,4.107,-0.016,-0.041,0.009,0.015,-0.002,1.002,0.000,0.000,0.000
5,-0.8476,0.2995,0.0100,-0.0377,0.0090,0.0025,-0.25,0.98,-0.41,0,4.112,-0.299,0.253,-0.046,0.014,-0.003,1.004,0.000,0.000,0.000
5,-0.8475,0.3003,0.0100,-0.0353,0.0129,0.0028,-0.19,0.91,-0.41,0,4.112,-0.020,-0.439,-0.245,0.015,-0.003,1.004,0.000,0.000,0.000
5,-0.8474,0.3005,0.0096,-0.0331,0.0136,0.0008,-0.25,0.94,-0.41,0,4.107,0.077,0.166,-0.150,0.018,-0.001,1.004,0.000,0.000,0.000
5,-0.8460,0.2990,0.0097,-0.0247,0.0050,0.0015,-0.20,0.93,-0.42,0,4.107,0.025,0.069,-0.144,0.015,-0.001,1.001,0.000,0.000,0.000
5,-0.8467,0.3004,0.0097,-0.0283,0.0125,0.0013,-0.24,0.92,-0.41,0,4.107,-0.147,-0.242,-0.385,0.015,-0.002,1.003,0.000,0.000,0.000
5,-0.8469,0.2994,0.0097,-0.0280,0.0069,0.0015,-0.24,0.92,-0.41,0,4.107,-0.133,0.267,-0.034,0.015,-0.001,1.004,0.000,0.000,0.000
5,-0.8468,0.3003,0.0097,-0.0264,0.0116,0.0019,-0.23,0.85,-0.41,0,4.101,-0.095,0.011,-0.249,0.013,-0.002,1.003,0.000,0.000,0.000
5,-0.8471,0.3005,0.0098,-0.0266,0.0117,0.0023,-0.22,0.89,-0.41,0,4.101,-0.076,0.241,-0.149,0.014,-0.002,1.001,0.000,0.000,0.000
5,-0.8458,0.3004,0.0103,-0.0185,0.0112,0.0056,-0.22,0.88,-0.41,0,4.107,0.012,0.048,0.366,0.017,-0.003,1.000,0.000,0.000,0.000
5,-0.8470,0.3002,0.0104,-0.0235,0.0095,0.0058,-0.19,0.86,-0.41,0,4.112,-0.361,0.016,0.056,0.015,-0.001,1.003,0.000,0.000,0.000
6,-0.8470,0.3004,0.0104,-0.0222,0.0104,0.0060,-0.19,0.86,-0.41,0,4.112,-0.285,0.056,0.067,0.016,-0.003,0.999,0.000,0.000,0.000
6,-0.8467,0.2997,0.0105,-0.0197,0.0062,0.0065,-0.16,0.70,-0.41,0,4.112,-0.256,0.082,0.166,0.017,-0.003,1.002,0.000,0.000,0.000
6,-0.8469,0.2997,0.0106,-0.0198,0.0060,0.0069,-0.14,0.74,-0.41,0,4.112,-0.360,-0.038,0.259,0.014,-0.000,1.001,0.000,0.000,0.000
6,-0.8433,0.2989,0.0096,-0.0003,0.0020,0.0016,-0.20,0.75,-0.41,0,4.107,-0.352,0.258,-0.205,0.013,-0.003,1.002,0.000,0.000,0.000
6,-0.8443,0.2985,0.0096,-0.0048,-0.0005,0.0017,-0.21,0.74,-0.41,0,4.107,-0.126,0.100,0.157,0.015,-0.003,1.002,0.000,0.000,0.000
6,-0.8447,0.2999,0.0097,-0.0065,0.0068,0.0020,-0.20,0.65,-0.40,0,4.101,0.040,-0.058,-0.227,0.014,-0.002,1.001,0.000,0.000,0.000
6,-0.8445,0.3001,0.0097,-0.0047,0.0078,0.0021,-0.12,0.64,-0.40,0,4.101,-0.125,-0.088,-0.054,0.015,-0.003,1.000,0.000,0.000,0.000
6,-0.8424,0.2998,0.0097,0.0066,0.0061,0.0021,-0.25,0.78,-0.41,0,4.101,-0.139,-0.433,0.068,0.016,-0.002,0.999,0.000,0.000,0.000
6,-0.8422,0.2980,0.0098,0.0076,-0.0035,0.0029,-0.20,0.81,-0.41,0,4.107,-0.215,0.128,0.051,0.014,-0.003,1.000,0.000,0.000,0.000
6,-0.8453,0.3012,0.0100,-0.0090,0.0134,0.0035,-0.20,0.80,-0.41,0,4.112,-0.240,0.229,0.116,0.016,-0.004,1.002,0.000,0.000,0.000
6,-0.8463,0.3001,0.0100,-0.0132,0.0070,0.0037,-0.19,0.80,-0.41,0,4.112,-0.183,0.147,0.224,0.017,-0.002,1.004,0.000,0.000,0.000
6,-0.8460,0.3001,0.0101,-0.0112,0.0068,0.0040,-0.19,0.80,-0.40,0,4.112,-0.341,0.035,0.021,0.015,-0.001,1.003,0.000,0.000,0.000
6,-0.8462,0.2998,0.0089,-0.0115,0.0053,-0.0024,-0.20,0.78,-0.41,0,4.112,-0.106,-0.086,-0.195,0.014,-0.003,1.000,0.000,0.000,0.000
6,-0.8463,0.2999,0.0089,-0.0114,0.0054,-0.0024,-0.20,0.78,-0.41,0,4.107,0.020,-0.237,0.127,0.015,-0.001,0.999,0.000,0.000,0.000
6,-0.8461,0.3001,0.0088,-0.0094,0.0064,-0.0024,-0.19,0.78,-0.40,0,4.107,0.033,0.316,-0.147,0.015,-0.003,1.001,0.000,0.000,0.000
6,-0.8463,0.3001,0.0088,-0.0100,0.0061,-0.0023,-0.19,0.73,-0.40,0,4.101,-0.224,0.140,-0.026,0.018,-0.002,1.005,0.000,0.000,0.000
7,-0.8463,0.2999,0.0088,-0.0092,0.0044,-0.0020,-0.24,0.73,-0.41,0,4.101,-0.003,-0.086,0.219,0.015,-0.004,1.002,0.000,0.000,0.000
7,-0.8454,0.2999,0.0088,-0.0037,0.0044,-0.0016,-0.19,0.77,-0.40,0,4.107,0.023,-0.098,0.109,0.012,-0.001,1.000,0.000,0.000,0.000
7,-0.8453,0.3010,0.0076,-0.0031,0.0102,-0.0077,-0.19,0.77,-0.40,0,4.107,0.206,-0.134,-0.314,0.013,0.001,1.001,0.000,0.000,0.000
7,-0.8462,0.2999,0.0075,-0.0075,0.0040,-0.0077,-0.18,0.77,-0.40,0,4.107,0.140,0.109,-0.142,0.015,-0.001,1.003,0.000,0.000,0.000
7,-0.8463,0.2999,0.0075,-0.0074,0.0041,-0.0077,-0.17,0.77,-0.40,0,4.112,-0.115,-0.217,0.005,0.014,-0.003,1.002,0.000,0.000,0.000
7,-0.8466,0.2999,0.0074,-0.0079,0.0038,-0.0074,-0.14,0.76,-0.39,0,4.112,0.072,0.117,0.027,0.015,-0.001,1.002,0.000,0.000,0.000
7,-0.8465,0.2997,0.0073,-0.0071,0.0024,-0.0070,-0.20,0.76,-0.40,0,4.107,-0.063,0.024,0.021,0.016,-0.002,1.000,0.000,0.000,0.000
7,-0.8466,0.2990,0.0076,-0.0067,-0.0013,-0.0052,-0.15,0.75,-0.40,0,4.107,-0.295,0.177,0.240,0.014,-0.001,1.003,0.000,0.000,0.000
7,-0.8465,0.3003,0.0075,-0.0064,0.0062,-0.0051,-0.19,0.75,-0.40,0,4.107,-0.041,-0.262,-0.044,0.015,-0.002,1.002,0.000,0.000,0.000
7,-0.8463,0.2992,0.0075,-0.0047,0.0002,-0.0048,-0.13,0.70,-0.39,0,4.101,-0.003,0.048,-0.200,0.017,-0.004,0.999,0.000,0.000,0.000
7,-0.8465,0.3001,0.0074,-0.0054,0.0050,-0.0045,-0.13,0.77,-0.39,0,4.101,0.113,0.046,-0.082,0.016,-0.003,1.002,0.000,0.000,0.000
7,-0.8454,0.2988,0.0074,0.0009,-0.0023,-0.0041,-0.17,0.74,-0.40,0,4.101,-0.078,-0.220,-0.139,0.013,-0.001,1.002,0.000,0.000,0.000
7,-0.8470,0.2988,0.0089,-0.0073,-0.0021,0.0040,-0.17,0.72,-0.40,0,4.107,0.054,0.227,0.077,0.014,-0.001,1.003,0.000,0.000,0.000
7,-0.8466,0.2997,0.0089,-0.0043,0.0029,0.0043,-0.19,0.77,-0.40,0,4.112,-0.067,-0.134,-0.232,0.015,-0.002,1.004,0.000,0.000,0.000
7,-0.8461,0.2997,0.0090,-0.0016,0.0029,0.0046,-0.21,0.75,-0.41,0,4.112,-0.016,0.208,-0.092,0.016,-0.002,1.003,0.000,0.000,0.000
7,-0.8472,0.3001,0.0090,-0.0072,0.0052,0.0045,-0.17,0.73,-0.40,0,4.112,0.160,0.173,-0.125,0.013,-0.001,1.002,0.000,0.000,0.000
8,-0.8467,0.3007,0.0091,-0.0040,0.0084,0.0046,-0.14,0.71,-0.40,0,4.112,-0.149,-0.071,0.115,0.013,-0.001,1.003,0.000,0.000,0.000
8,-0.8466,0.2999,0.0095,-0.0026,0.0033,0.0069,-0.17,0.71,-0.40,0,4.107,-0.263,-0.082,-0.054,0.014,0.001,1.002,0.000,0.000,0.000
8,-0.8462,0.2993,0.0096,-0.0000,-0.0002,0.0071,-0.17,0.73,-0.40,0,4.107,-0.096,0.276,-0.298,0.014,0.001,1.002,0.000,0.000,0.000
8,-0.8461,0.2999,0.0097,0.0001,0.0035,0.0074,-0.18,0.72,-0.40,0,4.101,-0.263,-0.145,0.018,0.013,-0.000,1.002,0.000,0.000,0.000
8,-0.8466,0.2999,0.0097,-0.0018,0.0034,0.0078,-0.16,0.67,-0.40,0,4.101,-0.185,-0.040,0.088,0.015,-0.003,1.001,0.000,0.000,0.000
8,-0.8463,0.3001,0.0098,-0.0004,0.0046,0.0080,-0.16,0.70,-0.40,0,4.101,-0.107,-0.319,-0.080,0.016,-0.001,1.003,0.000,0.000,0.000
8,-0.8453,0.2997,0.0104,0.0053,0.0022,0.0110,-0.16,0.71,-0.40,0,4.107,-0.040,-0.124,-0.244,0.016,-0.002,1.003,0.000,0.000,0.000
8,-0.8459,0.2997,0.0105,0.0018,0.0024,0.0113,-0.16,0.71,-0.40,0,4.112,-0.114,0.089,-0.321,0.015,-0.002,1.001,0.000,0.000,0.000
8,-0.8462,0.2997,0.0106,0.0007,0.0027,0.0115,-0.17,0.72,-0.41,0,4.112,-0.246,-0.182,-0.311,0.016,-0.002,1.001,0.000,0.000,0.000
8,-0.8462,0.2997,0.0107,0.0008,0.0029,0.0117,-0.18,0.68,-0.41,0,4.112,-0.159,-0.075,-0.000,0.014,-0.003,1.000,0.000,0.000,0.000
8,-0.8464,0.2999,0.0108,-0.0003,0.0040,0.0118,-0.16,0.73,-0.40,0,4.112,0.114,0.126,-0.076,0.012,-0.001,1.001,0.000,0.000,0.000
8,-0.8455,0.3001,0.0093,0.0048,0.0051,0.0036,-0.16,0.73,-0.40,0,4.107,-0.160,0.096,-0.026,0.013,-0.003,1.001,0.000,0.000,0.000
8,-0.8468,0.2999,0.0094,-0.0021,0.0038,0.0040,-0.16,0.71,-0.40,0,4.107,-0.284,0.173,0.013,0.013,-0.001,1.000,0.000,0.000,0.000
8,-0.8466,0.2997,0.0094,-0.0006,0.0025,0.0042,-0.18,0.71,-0.41,0,4.101,-0.009,0.184,0.110,0.015,-0.002,1.001,0.000,0.000,0.000
8,-0.8462,0.2997,0.0095,0.0020,0.0024,0.0044,-0.12,0.69,-0.39,0,4.101,-0.073,-0.024,0.248,0.014,-0.002,1.002,0.000,0.000,0.000
8,-0.8461,0.3001,0.0095,0.0021,0.0046,0.0044,-0.16,0.73,-0.40,0,4.107,-0.345,0.002,-0.038,0.015,-0.003,1.002,0.000,0.000,0.000
9,-0.8458,0.2989,0.0093,0.0044,-0.0025,0.0032,-0.17,0.73,-0.40,0,4.107,-0.289,0.005,-0.172,0.015,-0.002,1.004,0.000,0.000,0.000
9,-0.8466,0.2997,0.0094,-0.0004,0.0023,0.0033,-0.17,0.73,-0.40,0,4.112,-0.084,-0.234,-0.080,0.014,-0.003,1.004,0.000,0.000,0.000
9,-0.8466,0.3000,0.0094,-0.0003,0.0034,0.0034,-0.18,0.76,-0.40,0,4.112,0.018,0.333,0.055,0.015,-0.003,1.000,0.000,0.000,0.000
9,-0.8466,0.3000,0.0094,-0.0002,0.0035,0.0035,-0.17,0.66,-0.40,0,4.112,-0.086,0.068,-0.241,0.015,-0.002,1.002,0.000,0.000,0.000
9,-0.8472,0.3000,0.0095,-0.0036,0.0034,0.0036,-0.17,0.70,-0.40,0,4.107,0.018,0.056,-0.133,0.015,-0.001,1.004,0.000,0.000,0.000
9,-0.8453,0.3000,0.0097,0.0075,0.0032,0.0051,-0.17,0.72,-0.40,0,4.107,-0.183,-0.075,0.042,0.015,-0.001,1.003,0.000,0.000,0.000
9,-0.8459,0.3000,0.0098,0.0039,0.0031,0.0054,-0.17,0.72,-0.40,0,4.107,-0.082,0.113,-0.239,0.014,-0.002,1.002,0.000,0.000,0.000
9,-0.8464,0.3000,0.0099,0.0015,0.0030,0.0058,-0.13,0.71,-0.39,0,4.107,0.095,0.010,-0.143,0.014,-0.001,1.002,0.000,0.000,0.000
9,-0.8464,0.3000,0.0099,0.0017,0.0029,0.0060,-0.13,0.73,-0.39,0,4.101,-0.201,-0.298,-0.259,0.014,-0.002,1.002,0.000,0.000,0.000
9,-0.8462,0.2991,0.0100,0.0030,-0.0021,0.0061,-0.26,0.88,-0.42,0,4.101,-0.228,0.175,-0.394,0.014,-0.004,1.001,0.000,0.000,0.000
9,-0.8466,0.2991,0.0113,0.0006,-0.0019,0.0131,-0.21,0.87,-0.41,0,4.107,-0.277,0.108,0.151,0.014,-0.003,1.001,0.000,0.000,0.000
9,-0.8499,0.3020,0.0115,-0.0173,0.0143,0.0135,-0.25,0.86,-0.42,0,4.112,-0.067,-0.026,-0.180,0.014,-0.000,1.001,0.000,0.000,0.000
9,-0.8499,0.3009,0.0116,-0.0164,0.0077,0.0139,-0.24,0.85,-0.41,0,4.112,-0.232,0.032,0.242,0.014,-0.002,1.001,0.000,0.000,0.000
9,-0.8499,0.3020,0.0118,-0.0155,0.0134,0.0141,-0.25,0.85,-0.42,0,4.112,0.012,-0.190,-0.215,0.014,-0.000,1.002,0.000,0.000,0.000
9,-0.8499,0.3018,0.0112,-0.0147,0.0117,0.0103,-0.25,0.69,-0.42,0,4.112,-0.234,0.141,-0.167,0.016,-0.000,1.004,0.000,0.000,0.000
9,-0.8501,0.3022,0.0113,-0.0151,0.0136,0.0104,-0.23,0.69,-0.42,0,4.107,-0.109,0.084,-0.366,0.014,-0.001,1.004,0.000,0.000,0.000
9,-0.8466,0.3022,0.0114,0.0044,0.0127,0.0110,-0.23,0.69,-0.42,0,4.107,-0.047,-0.000,-0.106,0.013,-0.003,1.000,0.000,0.000,0.000
10,-0.8466,0.3020,0.0116,0.0044,0.0112,0.0112,-0.09,0.68,-0.39,0,4.101,-0.285,0.204,-0.071,0.014,-0.003,1.001,0.000,0.000,0.000
10,-0.8466,0.3021,0.0117,0.0046,0.0115,0.0113,-0.17,0.67,-0.40,0,4.101,-0.009,0.078,0.245,0.017,0.000,1.002,0.000,0.000,0.000
10,-0.8462,0.2990,0.0119,0.0068,-0.0061,0.0118,-0.19,0.66,-0.41,0,4.101,-0.122,0.170,-0.028,0.017,-0.001,1.002,0.000,0.000,0.000
10,-0.8460,0.3005,0.0120,0.0080,0.0030,0.0122,-0.20,0.71,-0.41,0,4.107,-0.214,0.130,0.268,0.014,-0.002,1.002,0.000,0.000,0.000
10,-0.8457,0.3009,0.0121,0.0090,0.0054,0.0126,-0.14,0.72,-0.40,0,4.112,-0.386,0.353,-0.009,0.015,-0.001,1.001,0.000,0.000,0.000
10,-0.8468,0.3014,0.0123,0.0027,0.0076,0.0128,-0.15,0.70,-0.40,0,4.112,-0.067,0.069,-0.398,0.012,-0.002,1.002,0.000,0.000,0.000
10,-0.8471,0.3001,0.0124,0.0014,0.0001,0.0130,-0.18,0.70,-0.41,0,4.112,-0.048,0.233,0.089,0.014,-0.001,1.005,0.000,0.000,0.000
10,-0.8467,0.3001,0.0125,0.0041,0.0002,0.0131,-0.15,0.67,-0.40,0,4.112,-0.179,0.153,-0.192,0.017,-0.002,1.004,0.000,0.000,0.000
10,-0.8466,0.3010,0.0116,0.0043,0.0052,0.0080,-0.15,0.71,-0.40,0,4.107,-0.178,-0.227,-0.198,0.016,-0.003,1.000,0.000,0.000,0.000
10,-0.8458,0.3003,0.0117,0.0092,0.0014,0.0082,-0.05,0.64,-0.38,0,4.107,-0.183,0.017,0.284,0.013,-0.001,1.001,0.000,0.000,0.000
10,-0.8467,0.3003,0.0118,0.0040,0.0015,0.0084,-0.11,0.70,-0.39,0,4.101,0.032,0.181,-0.135,0.015,-0.001,1.002,0.000,0.000,0.000
10,-0.8452,0.2980,0.0119,0.0123,-0.0119,0.0084,-0.13,0.67,-0.40,0,4.101,-0.246,0.391,0.040,0.016,-0.002,1.001,0.000,0.000,0.000
10,-0.8463,0.2991,0.0120,0.0057,-0.0052,0.0092,-0.01,0.74,-0.36,0,4.101,0.009,-0.118,0.089,0.016,-0.002,1.002,0.000,0.000,0.000
10,-0.8456,0.2995,0.0108,0.0094,-0.0025,0.0024,-0.16,0.68,-0.40,0,4.101,-0.213,-0.030,-0.015,0.013,-0.000,1.002,0.000,0.000,0.000
10,-0.8472,0.2968,0.0108,0.0010,-0.0177,0.0025,-0.16,0.68,-0.40,0,4.107,-0.093,-0.168,-0.251,0.014,-0.001,1.001,0.000,0.000,0.000
10,-0.8464,0.3009,0.0110,0.0046,0.0067,0.0034,-0.01,0.67,-0.37,0,4.112,-0.205,-0.015,0.211,0.015,-0.002,1.002,0.000,0.000,0.000
10,-0.8458,0.3001,0.0110,0.0080,0.0019,0.0036,-0.13,0.67,-0.39,0,4.112,-0.043,-0.142,-0.243,0.016,-0.001,1.002,0.000,0.000,0.000
11,-0.8455,0.2968,0.0111,0.0101,-0.0167,0.0039,-0.13,0.67,-0.39,0,4.107,-0.172,0.252,-0.391,0.013,-0.003,1.004,0.000,0.000,0.000
11,-0.8469,0.2993,0.0120,0.0019,-0.0020,0.0087,-0.20,0.74,-0.41,0,4.107,-0.028,-0.041,-0.184,0.010,-0.002,1.003,0.000,0.000,0.000
11,-0.8453,0.2990,0.0121,0.0110,-0.0030,0.0090,-0.12,0.72,-0.39,0,4.107,-0.150,0.042,-0.234,0.014,0.000,1.003,0.000,0.000,0.000
11,-0.8469,0.3007,0.0122,0.0015,0.0065,0.0094,-0.12,0.72,-0.39,0,4.107,0.157,0.153,-0.125,0.018,-0.000,1.003,0.000,0.000,0.000
11,-0.8469,0.3001,0.0123,0.0015,0.0029,0.0096,-0.08,0.66,-0.39,0,4.101,0.044,-0.001,-0.109,0.016,-0.002,1.000,0.000,0.000,0.000
11,-0.8463,0.2989,0.0124,0.0051,-0.0039,0.0099,-0.15,0.72,-0.40,0,4.101,-0.232,0.066,0.143,0.014,0.001,1.000,0.000,0.000,0.000
11,-0.8451,0.2981,0.0101,0.0117,-0.0083,-0.0029,-0.12,0.75,-0.39,0,4.107,0.003,-0.287,-0.326,0.013,0.000,1.003,0.000,0.000,0.000
11,-0.8463,0.2995,0.0101,0.0043,0.0000,-0.0024,-0.09,0.76,-0.38,0,4.112,-0.014,-0.308,-0.036,0.016,-0.001,1.002,0.000,0.000,0.000
11,-0.8471,0.2989,0.0101,-0.0005,-0.0031,-0.0020,-0.25,0.74,-0.42,0,4.112,-0.286,-0.016,0.074,0.014,-0.002,0.999,0.000,0.000,0.000
11,-0.8472,0.2981,0.0101,-0.0002,-0.0072,-0.0017,-0.14,0.75,-0.39,0,4.112,-0.043,-0.147,0.056,0.015,-0.002,1.001,0.000,0.000,0.000
11,-0.8466,0.3016,0.0101,0.0024,0.0131,-0.0013,-0.24,0.74,-0.42,0,4.112,0.013,0.073,0.241,0.016,-0.003,1.001,0.000,0.000,0.000
11,-0.8469,0.2992,0.0097,0.0013,-0.0008,-0.0033,-0.26,0.74,-0.42,0,4.107,-0.030,0.077,-0.031,0.017,-0.002,1.000,0.000,0.000,0.000
11,-0.8466,0.3014,0.0097,0.0024,0.0116,-0.0031,-0.26,0.74,-0.42,0,4.107,-0.164,-0.256,0.316,0.017,-0.001,1.001,0.000,0.000,0.000
11,-0.8466,0.3020,0.0096,0.0025,0.0147,-0.0030,-0.19,0.68,-0.41,0,4.101,0.009,0.258,-0.151,0.015,-0.003,1.003,0.000,0.000,0.000
11,-0.8466,0.3021,0.0096,0.0026,0.0150,-0.0030,-0.25,0.84,-0.41,0,4.101,0.072,-0.167,-0.211,0.015,-0.000,1.005,0.000,0.000,0.000
11,-0.8454,0.3006,0.0096,0.0096,0.0061,-0.0026,-0.25,0.75,-0.42,0,4.101,-0.018,0.059,-0.123,0.016,-0.001,1.003,0.000,0.000,0.000
12,-0.8487,0.3021,0.0098,-0.0092,0.0141,-0.0015,-0.26,0.72,-0.42,0,4.107,-0.305,-0.236,0.004,0.015,0.000,1.000,0.000,0.000,0.000
12,-0.8468,0.3021,0.0098,0.0020,0.0134,-0.0013,-0.26,0.73,-0.42,0,4.112,0.107,-0.032,-0.350,0.014,0.001,0.998,0.000,0.000,0.000
12,-0.8462,0.3025,0.0098,0.0057,0.0152,-0.0012,-0.22,0.75,-0.41,0,4.112,-0.174,0.091,-0.231,0.014,-0.004,1.002,0.000,0.000,0.000
12,-0.8464,0.3025,0.0098,0.0045,0.0146,-0.0009,-0.18,0.75,-0.40,0,4.112,0.122,-0.129,-0.251,0.015,-0.004,1.003,0.000,0.000,0.000
12,-0.8468,0.3019,0.0098,0.0021,0.0107,-0.0004,-0.22,0.75,-0.41,0,4.112,-0.152,0.171,0.055,0.016,-0.003,1.001,0.000,0.000,0.000
12,-0.8469,0.3011,0.0086,0.0023,0.0057,-0.0059,-0.22,0.74,-0.41,0,4.107,-0.209,0.034,-0.037,0.015,-0.004,1.001,0.000,0.000,0.000
12,-0.8466,0.3021,0.0086,0.0035,0.0113,-0.0058,-0.19,0.75,-0.41,0,4.107,-0.347,0.042,-0.166,0.014,-0.001,1.002,0.000,0.000,0.000
12,-0.8466,0.3023,0.0085,0.0035,0.0123,-0.0060,-0.19,0.71,-0.41,0,4.101,-0.140,-0.116,0.014,0.012,-0.001,1.004,0.000,0.000,0.000
12,-0.8466,0.3017,0.0085,0.0034,0.0083,-0.0058,-0.23,0.71,-0.41,0,4.101,0.009,0.207,-0.208,0.013,-0.002,1.001,0.000,0.000,0.000
12,-0.8458,0.3017,0.0084,0.0079,0.0078,-0.0055,-0.21,0.76,-0.41,0,4.101,-0.234,-0.260,-0.339,0.014,-0.002,1.000,0.000,0.000,0.000
12,-0.8458,0.3025,0.0108,0.0077,0.0120,0.0073,-0.20,0.75,-0.41,0,4.101,-0.190,0.102,-0.047,0.016,-0.001,1.002,0.000,0.000,0.000
12,-0.8468,0.3024,0.0109,0.0019,0.0103,0.0076,-0.20,0.79,-0.41,0,4.107,-0.102,-0.026,-0.109,0.014,-0.001,0.999,0.000,0.000,0.000
12,-0.8466,0.3022,0.0110,0.0029,0.0087,0.0078,-0.18,0.76,-0.41,0,4.112,-0.064,0.101,-0.019,0.014,-0.001,1.000,0.000,0.000,0.000
12,-0.8475,0.3022,0.0110,-0.0018,0.0085,0.0081,-0.22,0.74,-0.41,0,4.112,-0.032,0.022,-0.114,0.012,-0.002,1.002,0.000,0.000,0.000
12,-0.8469,0.3020,0.0099,0.0015,0.0069,0.0017,-0.20,0.74,-0.41,0,4.107,-0.031,0.134,-0.079,0.014,-0.002,1.002,0.000,0.000,0.000
12,-0.8464,0.3028,0.0099,0.0038,0.0112,0.0017,-0.18,0.75,-0.41,0,4.107,-0.086,0.011,0.062,0.014,-0.001,1.001,0.000,0.000,0.000
13,-0.8464,0.3024,0.0099,0.0038,0.0086,0.0019,-0.18,0.75,-0.41,0,4.107,-0.106,0.139,-0.036,0.014,-0.002,1.003,0.000,0.000,0.000
13,-0.8466,0.3022,0.0099,0.0026,0.0071,0.0020,-0.17,0.76,-0.41,0,4.101,-0.079,-0.063,0.043,0.013,-0.003,1.003,0.000,0.000,0.000
13,-0.8464,0.3022,0.0100,0.0037,0.0070,0.0019,-0.12,0.73,-0.40,0,4.101,-0.098,-0.104,0.150,0.016,-0.003,1.004,0.000,0.000,0.000
13,-0.8469,0.3020,0.0100,0.0012,0.0056,0.0021,-0.19,0.75,-0.41,0,4.101,-0.009,-0.027,-0.010,0.014,-0.001,1.002,0.000,0.000,0.000
13,-0.8463,0.3010,0.0083,0.0046,-0.0005,-0.0068,-0.19,0.75,-0.41,0,4.107,0.000,0.112,-0.063,0.014,0.001,1.002,0.000,0.000,0.000
13,-0.8464,0.3025,0.0082,0.0034,0.0088,-0.0067,-0.17,0.76,-0.40,0,4.112,-0.167,-0.152,-0.234,0.014,-0.001,1.003,0.000,0.000,0.000
13,-0.8466,0.3024,0.0082,0.0022,0.0073,-0.0064,-0.16,0.75,-0.40,0,4.112,-0.195,-0.088,-0.082,0.016,-0.002,1.004,0.000,0.000,0.000
13,-0.8468,0.3020,0.0081,0.0008,0.0047,-0.0061,-0.16,0.75,-0.40,0,4.112,-0.139,-0.049,0.115,0.017,-0.001,1.002,0.000,0.000,0.000
13,-0.8466,0.3018,0.0080,0.0021,0.0033,-0.0059,-0.17,0.75,-0.40,0,4.107,-0.131,-0.267,-0.029,0.015,-0.002,1.001,0.000,0.000,0.000
13,-0.8466,0.3018,0.0080,0.0022,0.0033,-0.0055,-0.17,0.76,-0.40,0,4.107,-0.159,0.046,-0.199,0.014,-0.001,1.000,0.000,0.000,0.000
13,-0.8466,0.3022,0.0079,0.0021,0.0059,-0.0053,-0.17,0.75,-0.40,0,4.101,0.024,-0.180,-0.298,0.014,-0.001,1.000,0.000,0.000,0.000
13,-0.8466,0.3023,0.0079,0.0022,0.0061,-0.0050,-0.13,0.75,-0.40,0,4.101,-0.244,-0.177,0.100,0.014,-0.002,1.002,0.000,0.000,0.000
13,-0.8464,0.3023,0.0078,0.0035,0.0059,-0.0047,-0.15,0.76,-0.40,0,4.101,-0.134,-0.096,-0.224,0.013,-0.002,0.999,0.000,0.000,0.000
13,-0.8464,0.3014,0.0078,0.0035,0.0006,-0.0043,-0.18,0.79,-0.40,0,4.101,-0.253,0.050,-0.106,0.014,-0.003,1.000,0.000,0.000,0.000
13,-0.8466,0.3019,0.0092,0.0022,0.0032,0.0035,-0.18,0.76,-0.40,0,4.107,-0.235,-0.386,-0.248,0.016,-0.004,1.001,0.000,0.000,0.000
13,-0.8473,0.3025,0.0092,-0.0014,0.0068,0.0036,-0.19,0.76,-0.40,0,4.112,-0.100,0.176,-0.128,0.015,-0.001,1.004,0.000,0.000,0.000
13,-0.8466,0.3025,0.0092,0.0023,0.0066,0.0036,-0.16,0.75,-0.40,0,4.112,-0.129,-0.273,-0.264,0.015,-0.002,1.004,0.000,0.000,0.000
14,-0.8466,0.3027,0.0093,0.0022,0.0076,0.0037,-0.16,0.73,-0.41,0,4.112,-0.250,-0.010,-0.059,0.014,-0.005,1.002,0.000,0.000,0.000
14,-0.8464,0.3021,0.0093,0.0031,0.0037,0.0038,-0.17,0.78,-0.41,0,4.112,-0.042,0.087,0.242,0.016,-0.004,1.002,0.000,0.000,0.000
14,-0.8458,0.3021,0.0079,0.0066,0.0034,-0.0035,-0.17,0.77,-0.40,0,4.107,-0.027,0.084,-0.019,0.016,-0.000,1.002,0.000,0.000,0.000
14,-0.8468,0.3023,0.0079,0.0007,0.0044,-0.0034,-0.16,0.78,-0.40,0,4.107,-0.029,-0.041,-0.229,0.011,0.000,1.002,0.000,0.000,0.000
14,-0.8466,0.3023,0.0079,0.0020,0.0043,-0.0031,-0.16,0.77,-0.41,0,4.101,-0.196,0.256,-0.110,0.013,-0.002,1.002,0.000,0.000,0.000
14,-0.8468,0.3021,0.0079,0.0009,0.0030,-0.0026,-0.19,0.76,-0.41,0,4.101,-0.158,0.145,-0.101,0.012,-0.003,1.000,0.000,0.000,0.000
14,-0.8466,0.3023,0.0078,0.0021,0.0038,-0.0024,-0.17,0.77,-0.41,0,4.107,0.082,-0.348,-0.238,0.014,-0.002,1.001,0.000,0.000,0.000
14,-0.8464,0.3029,0.0096,0.0033,0.0070,0.0074,-0.17,0.77,-0.41,0,4.107,-0.102,0.367,-0.377,0.015,-0.002,1.002,0.000,0.000,0.000
14,-0.8466,0.3025,0.0097,0.0023,0.0046,0.0076,-0.17,0.81,-0.41,0,4.107,-0.282,0.047,-0.040,0.016,-0.001,1.002,0.000,0.000,0.000
14,-0.8466,0.3026,0.0098,0.0022,0.0049,0.0078,-0.11,0.78,-0.41,0,4.112,-0.267,-0.103,-0.162,0.014,-0.001,1.001,0.000,0.000,0.000
14,-0.8475,0.3026,0.0099,-0.0029,0.0048,0.0081,-0.12,0.71,-0.41,0,4.112,-0.211,0.143,0.158,0.016,-0.002,1.002,0.000,0.000,0.000
14,-0.8469,0.3013,0.0100,0.0007,-0.0026,0.0082,-0.16,0.80,-0.41,0,4.107,-0.108,-0.219,-0.120,0.015,-0.001,1.001,0.000,0.000,0.000
14,-0.8453,0.3015,0.0096,0.0089,-0.0014,0.0063,-0.14,0.80,-0.41,0,4.107,-0.245,-0.211,-0.133,0.013,-0.001,1.004,0.000,0.000,0.000
14,-0.8473,0.3022,0.0097,-0.0019,0.0024,0.0067,-0.16,0.77,-0.41,0,4.107,-0.203,0.150,0.054,0.012,-0.001,1.005,0.000,0.000,0.000
14,-0.8473,0.3019,0.0098,-0.0016,0.0013,0.0069,-0.18,0.77,-0.41,0,4.107,0.001,-0.061,-0.303,0.015,-0.001,1.004,0.000,0.000,0.000
14,-0.8466,0.3021,0.0099,0.0020,0.0026,0.0071,-0.16,0.79,-0.41,0,4.101,0.034,0.109,-0.105,0.013,-0.004,1.001,0.000,0.000,0.000
15,-0.8466,0.3028,0.0100,0.0022,0.0059,0.0072,-0.16,0.77,-0.41,0,4.101,-0.118,-0.051,0.013,0.016,-0.002,0.999,0.000,0.000,0.000
15,-0.8473,0.3024,0.0092,-0.0012,0.0035,0.0028,-0.17,0.77,-0.41,0,4.107,-0.148,-0.268,0.014,0.014,-0.001,1.001,0.000,0.000,0.000
15,-0.8468,0.3024,0.0092,0.0011,0.0035,0.0031,-0.18,0.78,-0.41,0,4.112,-0.034,-0.064,-0.252,0.014,-0.001,1.001,0.000,0.000,0.000
15,-0.8468,0.3026,0.0092,0.0010,0.0047,0.0036,-0.16,0.76,-0.41,0,4.112,-0.161,-0.070,-0.281,0.016,-0.001,1.003,0.000,0.000,0.000
15,-0.8468,0.3028,0.0093,0.0009,0.0057,0.0040,-0.17,0.73,-0.42,0,4.112,0.102,-0.030,-0.278,0.017,-0.001,1.002,0.000,0.000,0.000
15,-0.8466,0.3024,0.0092,0.0019,0.0031,0.0036,0.00,-0.00,-0.00,0,4.112,0.031,0.147,-0.391,0.015,-0.004,1.002,0.000,0.000,0.000
15,-0.8458,0.3026,0.0092,0.0066,0.0040,0.0035,-0.00,0.00,-0.00,0,4.107,-0.095,-0.175,-0.154,0.016,-0.002,1.002,0.000,0.000,0.000
15,0.0000,0.0000,0.0000,-0.0080,-0.0011,0.0000,-0.00,-0.01,-0.00,0,4.107,-0.410,0.271,0.154,0.012,-0.002,1.002,0.000,0.000,0.000
