time_ms,vel_x,vel_y,vel_z,roll,pitch,yaw,range_z,gyro_x,gyro_y,gyro_z
0,0.0139,0.0101,0.0023,-0.43,0.91,-38.54,0.010,-0.113,0.054,0.060
0,0.0130,0.0129,0.0023,-0.44,0.93,-38.51,0.010,-0.018,-0.114,0.124
0,0.0066,0.0068,0.0027,-0.36,0.94,-38.47,0.010,0.108,-0.264,-0.264
0,0.0067,0.0109,0.0028,-0.39,0.96,-38.43,0.010,0.014,0.152,0.138
0,0.0040,0.0094,0.0030,-0.36,0.96,-38.40,0.010,-0.076,0.090,-0.171
0,0.0042,0.0132,0.0036,-0.39,0.98,-38.36,0.010,0.076,0.209,0.202
0,0.0043,0.0051,0.0038,-0.34,0.94,-38.32,0.010,-0.262,-0.192,0.385
0,0.0054,0.0082,0.0036,-0.36,0.95,-38.28,0.010,-0.091,0.110,0.250
0,0.0032,0.0052,0.0036,-0.33,0.95,-38.24,0.009,-0.012,-0.100,0.076
0,0.0080,0.0130,0.0036,-0.40,0.95,-38.20,0.009,-0.222,-0.018,-0.261
1,0.0107,0.0104,0.0013,-0.40,0.92,-38.16,0.009,0.243,-0.241,-0.280
1,0.0035,-0.0049,0.0015,-0.26,0.90,-38.13,0.009,-0.081,-0.013,-0.135
1,0.0089,0.0111,0.0017,-0.39,0.94,-38.09,0.009,-0.067,0.270,0.029
1,0.0063,0.0079,0.0018,-0.36,0.95,-38.06,0.012,0.107,0.053,-0.092
1,0.0033,0.0098,0.0018,-0.35,0.97,-38.02,0.012,0.018,-0.015,-0.036
1,0.0072,0.0108,0.0066,-0.38,0.95,-37.98,0.012,0.204,0.240,0.019
1,0.0087,0.0031,0.0068,-0.34,0.90,-37.95,0.012,0.037,0.056,0.094
1,0.0089,0.0031,0.0070,-0.34,0.90,-37.91,0.012,0.167,-0.040,-0.206
1,0.0078,0.0096,0.0071,-0.37,0.94,-37.87,0.012,0.259,0.183,0.047
1,-0.0000,0.0075,0.0073,-0.32,0.98,-37.84,0.012,0.196,-0.024,-0.172
1,0.0032,-0.0060,0.0095,-0.25,0.89,-37.80,0.012,0.050,0.074,-0.052
1,-0.0097,-0.0302,0.0091,-0.03,0.85,-37.76,0.012,-0.215,-0.046,0.086
1,-0.0105,-0.0308,0.0089,-0.03,0.85,-37.73,0.012,-0.044,0.192,-0.272
1,-0.0171,-0.0314,0.0086,0.00,0.89,-37.69,0.011,-0.136,-0.022,0.140
1,-0.0136,-0.0307,0.0087,-0.02,0.88,-37.65,0.011,-0.152,-0.059,0.016
1,-0.0135,-0.0312,0.0070,-0.03,0.87,-37.62,0.011,0.018,-0.182,0.084
2,0.0005,-0.0245,0.0076,-0.14,0.82,-37.58,0.011,-0.334,-0.160,0.215
2,-0.0118,-0.0275,0.0074,-0.06,0.88,-37.54,0.011,-0.021,-0.185,-0.225
2,-0.0119,-0.0272,0.0074,-0.06,0.88,-37.50,0.010,0.091,0.070,0.518
2,-0.0045,-0.0174,0.0081,-0.16,0.89,-37.47,0.010,-0.076,0.185,0.120
2,-0.0035,-0.0156,0.0033,-0.18,0.89,-37.43,0.010,0.054,-0.042,0.001
2,-0.0098,-0.0233,0.0032,-0.10,0.89,-37.39,0.010,0.073,-0.012,-0.064
2,-0.0012,-0.0075,0.0037,-0.25,0.91,-37.36,0.010,-0.129,0.026,0.096
2,-0.0093,-0.0218,0.0036,-0.12,0.89,-37.32,0.008,-0.027,0.244,0.160
2,-0.0032,-0.0251,0.0036,-0.13,0.84,-37.28,0.008,0.047,-0.153,0.045
2,-0.0036,-0.0115,-0.0036,-0.21,0.91,-37.24,0.008,-0.255,0.180,0.369
2,0.0020,-0.0182,-0.0036,-0.20,0.84,-37.21,0.008,-0.255,0.134,-0.111
2,-0.0105,-0.0199,-0.0036,-0.13,0.91,-37.17,0.008,0.042,0.211,0.139
2,-0.0087,-0.0154,-0.0034,-0.17,0.92,-37.13,0.010,0.016,0.026,-0.078
2,-0.0086,-0.0157,-0.0033,-0.18,0.92,-37.09,0.010,0.186,0.249,0.064
2,-0.0148,-0.0239,-0.0033,-0.10,0.92,-37.06,0.010,-0.238,0.299,0.127
2,-0.0258,-0.0323,-0.0037,0.00,0.95,-37.02,0.010,-0.255,0.434,0.253
2,-0.0242,-0.0264,-0.0034,-0.04,0.96,-36.98,0.010,0.084,0.188,-0.142
2,-0.0234,-0.0276,-0.0037,-0.04,0.95,-36.94,0.010,-0.098,-0.273,0.029
2,-0.0140,-0.0176,-0.0032,-0.16,0.94,-36.91,0.010,-0.053,0.127,-0.106
3,-0.0149,-0.0215,-0.0029,-0.13,0.92,-36.87,0.010,0.038,0.251,0.103
3,-0.0214,-0.0285,-0.0032,-0.06,0.93,-36.83,0.010,0.246,-0.108,0.102
3,-0.0121,-0.0144,-0.0024,-0.20,0.94,-36.80,0.010,0.065,0.040,-0.189
3,-0.0140,-0.0175,-0.0024,-0.17,0.94,-36.76,0.011,0.038,0.255,-0.260
3,-0.0154,-0.0255,-0.0026,-0.11,0.91,-36.73,0.011,-0.211,-0.085,0.194
3,-0.0112,-0.0199,0.0004,-0.17,0.91,-36.69,0.011,0.155,-0.090,-0.091
3,-0.0143,-0.0164,0.0005,-0.18,0.94,-36.66,0.011,-0.190,-0.109,-0.320
3,-0.0094,-0.0198,0.0006,-0.18,0.90,-36.62,0.011,0.064,0.155,-0.062
3,-0.0128,-0.0145,0.0007,-0.20,0.95,-36.58,0.012,-0.215,-0.057,0.198
3,-0.0072,-0.0147,0.0010,-0.23,0.91,-36.55,0.012,-0.103,0.232,0.114
3,-0.0106,-0.0113,0.0043,-0.24,0.94,-36.51,0.012,-0.226,-0.009,-0.009
3,-0.0154,-0.0237,0.0040,-0.14,0.92,-36.48,0.012,-0.190,-0.002,0.032
3,-0.0187,-0.0281,0.0037,-0.09,0.92,-36.44,0.012,0.039,0.160,0.037
3,-0.0203,-0.0306,0.0036,-0.07,0.91,-36.41,0.012,-0.121,0.225,0.167
3,-0.0153,-0.0279,0.0038,-0.12,0.90,-36.37,0.010,-0.050,0.019,0.099
3,-0.0213,-0.0343,0.0003,-0.05,0.90,-36.34,0.010,0.177,0.048,-0.241
3,-0.0093,-0.0198,0.0014,-0.21,0.89,-36.30,0.010,0.035,-0.237,-0.042
3,-0.0128,-0.0189,0.0013,-0.20,0.92,-36.26,0.010,0.104,-0.064,-0.084
3,-0.0123,-0.0221,0.0011,-0.18,0.90,-36.23,0.010,0.079,-0.130,-0.319
3,-0.0106,-0.0217,0.0011,-0.19,0.90,-36.20,0.010,-0.200,-0.077,-0.232
3,-0.0130,-0.0155,-0.0007,-0.22,0.94,-36.16,0.010,-0.097,-0.089,0.059
3,-0.0151,-0.0208,-0.0007,-0.17,0.93,-36.13,0.010,0.199,-0.118,-0.531
3,-0.0077,-0.0108,-0.0001,-0.27,0.93,-36.10,0.010,-0.085,0.057,0.008
3,-0.0094,-0.0174,-0.0002,-0.23,0.91,-36.06,0.010,-0.038,-0.039,0.035
3,-0.0114,-0.0163,-0.0004,-0.23,0.93,-36.03,0.007,0.168,0.052,0.083
3,-0.0174,-0.0230,-0.0087,-0.15,0.94,-35.99,0.007,0.112,0.093,0.314
3,-0.0149,-0.0218,-0.0086,-0.18,0.93,-35.96,0.007,-0.113,0.069,0.057
3,-0.0022,-0.0099,-0.0079,-0.31,0.90,-35.92,0.007,-0.164,0.002,-0.113
3,-0.0021,-0.0099,-0.0081,-0.31,0.90,-35.88,0.010,-0.123,0.006,0.157
3,-0.0017,-0.0110,-0.0081,-0.31,0.89,-35.85,0.010,-0.111,-0.030,-0.173
4,-0.0055,-0.0119,-0.0056,-0.29,0.91,-35.81,0.010,0.061,-0.043,-0.059
4,-0.0028,-0.0144,-0.0055,-0.28,0.88,-35.78,0.010,0.131,0.162,0.029
4,0.0002,-0.0097,-0.0054,-0.33,0.89,-35.74,0.010,-0.096,-0.195,-0.016
4,0.0003,-0.0134,-0.0053,-0.31,0.87,-35.71,0.007,-0.045,0.268,-0.139
4,-0.0066,-0.0149,-0.0052,-0.26,0.91,-35.67,0.007,-0.155,-0.149,-0.258
4,-0.0013,-0.0116,-0.0096,-0.31,0.89,-35.64,0.007,0.013,-0.064,-0.060
4,-0.0011,-0.0116,-0.0095,-0.31,0.89,-35.60,0.007,-0.167,0.078,-0.040
4,-0.0037,-0.0089,-0.0094,-0.31,0.92,-35.57,0.007,0.196,0.042,-0.084
4,-0.0005,-0.0047,-0.0093,-0.36,0.92,-35.53,0.009,-0.032,0.341,0.084
4,-0.0026,-0.0075,-0.0094,-0.33,0.92,-35.50,0.009,0.103,0.041,-0.111
4,-0.0061,-0.0124,-0.0067,-0.28,0.92,-35.47,0.009,0.269,0.109,-0.136
4,-0.0082,-0.0157,-0.0070,-0.25,0.92,-35.43,0.009,0.225,-0.064,-0.150
4,-0.0080,-0.0158,-0.0067,-0.25,0.92,-35.40,0.009,0.121,-0.163,-0.085
4,0.0013,-0.0068,-0.0060,-0.35,0.90,-35.36,0.012,-0.082,0.092,0.305
4,0.0039,0.0050,-0.0058,-0.44,0.94,-35.33,0.012,0.254,0.055,-0.159
4,-0.0030,0.0056,0.0036,-0.41,0.99,-35.29,0.012,0.036,0.188,0.017
4,0.0065,0.0121,0.0036,-0.49,0.95,-35.26,0.012,-0.079,-0.042,-0.042
4,0.0007,0.0032,0.0039,-0.40,0.95,-35.22,0.012,-0.220,-0.092,0.041
4,0.0022,0.0050,0.0038,-0.42,0.95,-35.19,0.010,-0.221,0.095,0.258
4,0.0056,0.0098,0.0037,-0.46,0.95,-35.15,0.010,-0.249,-0.064,0.163
4,0.0074,0.0085,0.0040,-0.46,0.93,-35.12,0.010,-0.037,-0.085,-0.239
4,0.0031,0.0042,0.0042,-0.41,0.94,-35.08,0.010,-0.163,0.164,0.151
4,0.0029,0.0017,0.0042,-0.39,0.93,-35.05,0.010,-0.205,0.147,0.203
4,0.0048,0.0045,0.0041,-0.41,0.93,-35.02,0.010,0.205,0.040,0.066
4,0.0030,0.0017,0.0038,-0.39,0.93,-34.98,0.009,0.031,0.029,-0.024
4,0.0063,-0.0016,0.0010,-0.38,0.89,-34.94,0.009,-0.326,-0.174,0.157
4,0.0016,0.0017,0.0011,-0.38,0.94,-34.91,0.009,0.082,0.216,0.032
4,0.0010,0.0023,0.0012,-0.38,0.94,-34.88,0.009,-0.250,0.077,0.506
4,0.0072,0.0091,0.0013,-0.45,0.93,-34.84,0.009,0.144,0.095,0.087
4,0.0036,0.0016,0.0017,-0.38,0.92,-34.81,0.009,-0.338,-0.019,0.085
4,0.0062,0.0069,0.0002,-0.43,0.93,-34.77,0.009,0.141,-0.170,-0.297
4,0.0038,0.0014,0.0005,-0.38,0.92,-34.73,0.009,0.164,-0.096,0.126
4,0.0026,0.0022,0.0006,-0.38,0.93,-34.70,0.009,0.016,-0.049,-0.075
4,0.0054,0.0002,0.0006,-0.37,0.91,-34.66,0.009,-0.259,0.208,0.075
4,0.0025,0.0020,0.0004,-0.37,0.93,-34.63,0.009,-0.070,-0.115,0.168
5,0.0029,0.0021,-0.0007,-0.37,0.93,-34.60,0.009,0.100,0.266,-0.155
5,0.0066,0.0113,-0.0008,-0.45,0.95,-34.56,0.009,-0.055,0.034,0.070
5,0.0075,0.0102,-0.0008,-0.44,0.94,-34.53,0.009,0.010,0.180,-0.207
5,0.0029,0.0014,-0.0005,-0.36,0.93,-34.50,0.011,-0.097,-0.070,-0.093
5,0.0032,0.0014,-0.0006,-0.36,0.93,-34.46,0.011,0.382,-0.033,-0.003
5,0.0043,0.0008,0.0030,-0.36,0.92,-34.43,0.011,-0.200,-0.222,-0.027
5,0.0048,-0.0024,0.0030,-0.34,0.90,-34.40,0.011,-0.314,-0.010,0.222
5,0.0034,0.0092,0.0030,-0.40,0.96,-34.36,0.011,-0.015,0.063,-0.076
5,0.0038,0.0010,0.0030,-0.35,0.92,-34.33,0.009,-0.114,0.035,0.198
5,0.0069,0.0033,0.0029,-0.38,0.91,-34.29,0.009,0.087,0.095,0.018
5,0.0047,-0.0001,0.0003,-0.35,0.91,-34.26,0.009,-0.157,-0.092,0.051
5,0.0091,0.0175,0.0002,-0.49,0.96,-34.22,0.009,0.153,0.182,0.023
5,0.0047,0.0016,0.0007,-0.36,0.92,-34.19,0.009,-0.190,-0.045,0.077
5,-0.0003,0.0051,0.0005,-0.36,0.97,-34.16,0.009,0.033,0.099,-0.162
5,-0.0003,0.0054,0.0004,-0.36,0.97,-34.13,0.009,0.058,0.026,-0.163
5,0.0093,0.0080,-0.0012,-0.42,0.91,-34.09,0.009,-0.109,-0.033,-0.335
5,0.0054,-0.0021,-0.0007,-0.34,0.89,-34.06,0.009,0.062,-0.088,-0.244
5,0.0072,0.0072,-0.0004,-0.40,0.93,-34.03,0.009,0.308,0.020,-0.081
5,0.0034,-0.0007,-0.0001,-0.33,0.92,-33.99,0.009,-0.240,0.046,0.177
5,0.0024,0.0001,-0.0002,-0.33,0.93,-33.96,0.010,0.103,-0.077,0.181
5,-0.0015,0.0029,0.0010,-0.33,0.97,-33.93,0.010,0.071,0.171,-0.052
5,0.0050,0.0058,0.0010,-0.38,0.94,-33.89,0.010,0.019,-0.158,-0.005
5,0.0006,0.0055,0.0009,-0.35,0.96,-33.86,0.010,-0.176,0.025,-0.061
5,0.0098,0.0061,0.0006,-0.40,0.90,-33.83,0.008,0.084,0.104,-0.249
5,0.0023,-0.0004,0.0008,-0.32,0.92,-33.80,0.008,-0.061,0.053,0.029
5,0.0001,0.0026,-0.0030,-0.32,0.95,-33.76,0.008,0.038,0.221,0.205
5,0.0016,-0.0013,-0.0027,-0.30,0.92,-33.73,0.008,0.166,0.218,0.115
5,0.0091,-0.0004,-0.0025,-0.34,0.88,-33.70,0.008,-0.006,0.136,-0.267
5,0.0083,-0.0014,-0.0023,-0.33,0.88,-33.66,0.008,0.041,0.014,-0.122
5,0.0011,0.0005,-0.0020,-0.31,0.93,-33.63,0.011,-0.143,-0.080,-0.098
5,0.0053,0.0089,0.0028,-0.38,0.94,-33.60,0.011,-0.178,0.275,-0.038
5,0.0007,0.0018,0.0029,-0.32,0.94,-33.56,0.011,-0.062,0.150,-0.244
5,0.0044,0.0007,0.0029,-0.33,0.91,-33.53,0.011,-0.203,-0.239,-0.024
5,0.0052,0.0016,0.0030,-0.34,0.91,-33.50,0.009,0.070,0.358,0.186
5,0.0080,-0.0005,0.0028,-0.34,0.88,-33.46,0.009,0.315,-0.055,0.065
5,0.0040,0.0020,0.0008,-0.34,0.92,-33.43,0.009,-0.064,0.109,-0.155
6,0.0051,0.0012,0.0010,-0.33,0.91,-33.40,0.009,0.075,-0.012,-0.091
6,0.0066,0.0055,0.0012,-0.37,0.92,-33.36,0.009,0.160,-0.339,0.348
6,0.0030,-0.0020,0.0013,-0.30,0.91,-33.33,0.009,0.040,-0.048,-0.018
6,0.0040,0.0015,0.0010,-0.33,0.92,-33.30,0.009,-0.008,-0.097,0.021
6,0.0076,-0.0010,-0.0008,-0.32,0.89,-33.26,0.009,-0.031,0.003,-0.108
6,0.0022,-0.0029,-0.0006,-0.29,0.92,-33.23,0.009,-0.140,-0.044,0.144
6,0.0040,-0.0039,-0.0007,-0.29,0.90,-33.20,0.009,0.056,-0.051,-0.294
6,0.0028,-0.0031,-0.0008,-0.29,0.91,-33.16,0.011,-0.048,-0.058,0.245
6,0.0037,0.0005,-0.0010,-0.32,0.92,-33.13,0.011,-0.009,-0.246,-0.041
6,0.0035,0.0022,0.0025,-0.33,0.93,-33.10,0.011,-0.150,0.146,0.113
6,0.0066,0.0027,0.0025,-0.34,0.92,-33.07,0.011,-0.036,-0.012,-0.093
6,0.0031,-0.0022,0.0024,-0.30,0.92,-33.03,0.011,-0.121,0.131,0.136
6,0.0035,-0.0023,0.0024,-0.30,0.92,-33.00,0.011,-0.121,-0.012,0.167
6,0.0061,0.0062,0.0025,-0.37,0.94,-32.97,0.011,-0.114,0.037,-0.109
6,0.0092,0.0021,0.0045,-0.35,0.90,-32.94,0.011,-0.201,0.108,-0.055
6,-0.0087,-0.0116,0.0046,-0.19,0.96,-32.90,0.011,-0.112,-0.003,0.135
6,-0.0216,-0.0256,0.0039,-0.05,0.99,-32.87,0.011,-0.214,0.162,0.047
6,-0.0211,-0.0256,0.0038,-0.05,0.98,-32.84,0.011,0.166,-0.010,-0.122
6,-0.0176,-0.0206,0.0042,-0.10,0.98,-32.81,0.011,-0.042,-0.001,-0.122
6,-0.0177,-0.0210,0.0049,-0.10,0.98,-32.77,0.011,-0.081,-0.043,0.053
6,-0.0203,-0.0119,0.0051,-0.16,1.04,-32.74,0.011,-0.318,-0.004,-0.311
6,-0.0201,-0.0197,0.0050,-0.11,1.00,-32.71,0.011,-0.194,-0.178,0.283
6,-0.0147,-0.0186,0.0052,-0.14,0.97,-32.68,0.011,0.001,-0.028,0.242
6,-0.0193,-0.0170,0.0052,-0.13,1.01,-32.65,0.010,0.032,0.140,-0.060
6,-0.0191,-0.0243,0.0022,-0.09,0.98,-32.62,0.010,0.057,0.128,0.193
6,-0.0093,-0.0094,0.0029,-0.23,0.97,-32.58,0.010,-0.323,-0.266,0.069
6,-0.0119,-0.0140,0.0029,-0.19,0.97,-32.55,0.010,-0.101,-0.204,-0.208
6,-0.0173,-0.0207,0.0027,-0.13,0.98,-32.52,0.011,-0.184,-0.028,0.098
6,-0.0157,-0.0145,0.0028,-0.18,0.99,-32.49,0.011,-0.250,0.330,0.142
6,-0.0139,-0.0145,0.0031,-0.19,0.98,-32.45,0.011,-0.079,0.246,-0.276
6,-0.0121,-0.0161,0.0032,-0.19,0.96,-32.42,0.011,-0.033,0.035,-0.178
6,-0.0109,-0.0143,0.0033,-0.21,0.95,-32.39,0.011,0.126,0.175,-0.242
6,-0.0133,-0.0118,0.0034,-0.22,0.98,-32.35,0.011,0.174,-0.234,-0.088
6,-0.0098,-0.0089,0.0035,-0.25,0.97,-32.33,0.012,-0.009,0.221,-0.118
6,-0.0090,-0.0209,0.0056,-0.18,0.91,-32.30,0.012,-0.339,0.050,0.101
7,-0.0114,-0.0181,0.0059,-0.19,0.94,-32.27,0.012,0.128,-0.041,0.030
7,-0.0071,-0.0073,0.0063,-0.28,0.95,-32.23,0.012,-0.155,-0.083,-0.009
7,-0.0097,-0.0144,0.0067,-0.22,0.94,-32.20,0.009,-0.398,0.173,0.058
7,-0.0100,-0.0132,0.0070,-0.23,0.95,-32.17,0.009,-0.173,-0.179,0.042
7,-0.0074,-0.0095,0.0012,-0.27,0.95,-32.14,0.009,-0.116,0.217,0.138
7,-0.0055,-0.0044,0.0011,-0.31,0.96,-32.11,0.009,0.000,0.031,0.128
7,-0.0049,-0.0081,0.0011,-0.29,0.94,-32.08,0.009,-0.008,-0.367,-0.029
7,-0.0036,-0.0040,0.0013,-0.32,0.94,-32.04,0.009,-0.041,0.085,0.036
7,-0.0033,-0.0040,0.0012,-0.32,0.94,-32.01,0.008,0.102,-0.094,-0.334
7,-0.0018,-0.0044,-0.0052,-0.32,0.93,-31.98,0.008,0.136,0.096,-0.014
7,0.0022,-0.0094,-0.0050,-0.30,0.88,-31.95,0.008,-0.102,-0.065,0.146
7,-0.0018,-0.0065,-0.0050,-0.31,0.92,-31.92,0.008,-0.014,-0.173,-0.179
7,-0.0021,-0.0071,-0.0051,-0.30,0.93,-31.89,0.009,0.020,-0.154,0.090
7,-0.0047,-0.0064,-0.0051,-0.29,0.94,-31.86,0.009,0.266,-0.255,-0.075
7,-0.0064,-0.0045,-0.0057,-0.30,0.96,-31.83,0.009,-0.247,-0.091,-0.003
7,-0.0038,-0.0095,-0.0057,-0.27,0.92,-31.80,0.009,-0.004,0.207,0.167
7,-0.0010,-0.0007,-0.0056,-0.34,0.94,-31.76,0.009,-0.228,-0.074,0.028
7,-0.0017,-0.0042,-0.0055,-0.32,0.93,-31.73,0.004,-0.025,-0.160,-0.125
7,-0.0049,-0.0006,-0.0055,-0.33,0.97,-31.70,0.004,-0.012,-0.081,0.022
7,-0.0008,-0.0041,-0.0167,-0.32,0.93,-31.67,0.004,0.048,-0.400,-0.119
7,0.0025,0.0010,-0.0167,-0.37,0.93,-31.64,0.004,-0.054,0.090,0.302
7,-0.0001,0.0012,-0.0167,-0.36,0.95,-31.61,0.004,-0.042,0.194,-0.098
7,0.0019,0.0000,-0.0166,-0.36,0.93,-31.58,0.012,0.292,0.307,0.015
7,-0.0001,-0.0029,-0.0165,-0.33,0.93,-31.54,0.012,-0.061,0.391,-0.195
7,-0.0029,-0.0050,-0.0038,-0.31,0.94,-31.52,0.012,-0.002,0.275,0.060
7,-0.0016,-0.0054,-0.0037,-0.31,0.93,-31.48,0.012,-0.156,-0.054,0.150
7,0.0017,-0.0001,-0.0037,-0.36,0.93,-31.45,0.012,0.068,0.057,0.167
7,0.0001,-0.0030,-0.0036,-0.33,0.93,-31.42,0.012,-0.133,-0.260,-0.178
7,0.0003,0.0013,-0.0039,-0.36,0.94,-31.39,0.008,0.042,0.029,0.180
7,-0.0014,0.0024,-0.0047,-0.36,0.96,-31.36,0.008,-0.342,0.138,0.146
7,0.0019,-0.0102,-0.0045,-0.29,0.88,-31.33,0.008,-0.105,-0.113,0.113
7,-0.0020,-0.0073,-0.0042,-0.29,0.92,-31.30,0.008,-0.046,0.141,-0.061
7,0.0028,0.0008,-0.0042,-0.37,0.92,-31.26,0.010,-0.168,-0.065,-0.300
7,0.0016,0.0011,-0.0044,-0.37,0.93,-31.23,0.010,-0.179,-0.188,0.456
8,0.0024,0.0003,-0.0002,-0.37,0.92,-31.20,0.010,-0.040,-0.238,0.193
8,0.0081,0.0007,-0.0001,-0.40,0.89,-31.17,0.010,0.121,-0.148,0.110
8,0.0029,0.0011,0.0001,-0.38,0.93,-31.14,0.010,-0.042,-0.300,-0.564
8,0.0001,-0.0036,0.0000,-0.33,0.93,-31.11,0.010,-0.120,0.066,0.202
8,0.0026,0.0006,0.0001,-0.37,0.93,-31.08,0.009,0.101,-0.232,0.156
8,0.0027,-0.0058,0.0004,-0.33,0.90,-31.05,0.009,-0.111,-0.251,0.158
8,-0.0005,-0.0086,0.0002,-0.29,0.91,-31.02,0.009,-0.081,-0.168,0.129
8,0.0008,-0.0021,0.0004,-0.34,0.93,-30.99,0.009,0.097,0.169,-0.269
8,0.0042,0.0013,0.0003,-0.38,0.92,-30.95,0.011,0.055,-0.187,-0.410
8,0.0025,-0.0015,0.0004,-0.35,0.92,-30.92,0.011,-0.019,0.080,0.159
8,0.0001,-0.0012,0.0050,-0.34,0.94,-30.89,0.011,0.003,0.297,0.051
8,0.0047,0.0014,0.0052,-0.38,0.93,-30.86,0.011,0.112,-0.063,0.005
8,0.0050,0.0014,0.0050,-0.38,0.92,-30.83,0.011,-0.328,0.087,-0.023
8,0.0031,-0.0019,0.0049,-0.35,0.93,-30.80,0.006,-0.135,0.079,0.065
8,0.0033,-0.0019,0.0049,-0.35,0.93,-30.77,0.006,-0.082,0.203,0.129
8,0.0021,-0.0040,-0.0043,-0.33,0.93,-30.74,0.006,0.130,-0.063,-0.394
8,0.0180,0.0181,-0.0044,-0.55,0.91,-30.71,0.006,0.122,-0.018,0.106
8,0.0187,0.0195,-0.0043,-0.56,0.91,-30.68,0.006,-0.100,0.025,-0.197
8,0.0107,0.0063,-0.0035,-0.43,0.91,-30.65,0.007,-0.090,-0.187,0.096
8,0.0162,0.0206,-0.0037,-0.55,0.93,-30.62,0.007,-0.164,0.072,0.128
8,0.0131,0.0129,-0.0059,-0.48,0.92,-30.59,0.007,0.067,0.023,-0.225
8,0.0030,-0.0040,-0.0053,-0.31,0.92,-30.56,0.007,-0.008,-0.199,0.065
8,-0.0008,0.0039,-0.0053,-0.35,0.98,-30.53,0.007,-0.087,0.101,0.016
8,-0.0010,-0.0016,-0.0052,-0.31,0.96,-30.50,0.007,0.281,-0.181,0.141
8,0.0059,0.0052,-0.0049,-0.39,0.94,-30.47,0.009,-0.109,-0.297,0.062
8,0.0060,-0.0061,-0.0016,-0.31,0.89,-30.44,0.009,-0.108,0.054,0.053
8,0.0064,0.0021,-0.0014,-0.37,0.93,-30.41,0.009,0.079,-0.085,0.122
8,0.0007,0.0040,-0.0016,-0.36,0.97,-30.38,0.009,0.057,0.015,-0.333
8,0.0021,0.0060,-0.0017,-0.37,0.97,-30.35,0.011,-0.075,0.079,0.094
8,0.0031,0.0095,-0.0017,-0.40,0.98,-30.32,0.011,0.074,-0.287,-0.290
8,0.0020,0.0071,0.0047,-0.38,0.98,-30.29,0.011,-0.115,-0.095,-0.231
8,0.0009,-0.0048,0.0049,-0.29,0.94,-30.26,0.011,0.078,-0.085,-0.028
8,-0.0023,0.0109,0.0050,-0.38,1.03,-30.24,0.011,-0.188,0.123,0.045
8,0.0019,0.0057,0.0052,-0.36,0.98,-30.21,0.010,0.183,-0.196,0.002
8,0.0022,0.0060,0.0050,-0.36,0.97,-30.18,0.010,-0.059,-0.093,0.022
8,0.0108,0.0009,0.0056,-0.36,0.90,-30.14,0.010,-0.242,0.190,0.156
9,0.0060,0.0033,0.0055,-0.36,0.94,-30.11,0.010,-0.231,0.045,0.187
9,0.0089,0.0164,0.0052,-0.46,0.97,-30.08,0.010,-0.208,0.325,0.092
9,0.0079,0.0118,0.0053,-0.42,0.95,-30.05,0.012,-0.178,-0.167,0.255
9,0.0089,0.0133,0.0055,-0.44,0.95,-30.02,0.012,-0.124,0.162,0.215
9,0.0116,0.0139,0.0098,-0.45,0.93,-29.99,0.012,-0.072,0.032,-0.063
9,0.0090,0.0093,0.0098,-0.40,0.93,-29.96,0.012,0.014,-0.431,-0.124
9,0.0118,0.0124,0.0097,-0.44,0.93,-29.93,0.012,-0.084,-0.093,0.179
9,0.0070,0.0090,0.0099,-0.39,0.95,-29.90,0.007,-0.212,-0.195,-0.078
9,0.0066,0.0130,0.0098,-0.41,0.97,-29.88,0.007,-0.087,-0.189,0.085
9,0.0093,0.0174,-0.0002,-0.46,0.97,-29.85,0.007,0.120,-0.019,-0.106
9,0.0056,0.0083,-0.0002,-0.37,0.96,-29.82,0.007,-0.190,-0.263,-0.111
9,0.0084,0.0157,-0.0004,-0.44,0.97,-29.79,0.007,-0.216,-0.028,0.194
9,0.0040,0.0080,-0.0001,-0.36,0.97,-29.79,0.007,-0.213,0.147,-0.171
9,0.0059,0.0092,-0.0000,-0.38,0.96,-29.76,0.007,-0.222,-0.123,0.021
9,0.0079,0.0150,-0.0060,-0.43,0.97,-29.73,0.007,0.109,-0.013,0.346
9,0.0041,0.0059,-0.0057,-0.35,0.96,-29.70,0.007,0.031,-0.182,0.020
9,0.0057,0.0084,-0.0058,-0.38,0.96,-29.67,0.007,0.097,0.028,0.121
9,0.0093,0.0123,-0.0058,-0.42,0.95,-29.64,0.007,-0.136,-0.017,0.087
9,0.0064,0.0095,-0.0056,-0.38,0.96,-29.61,0.008,0.120,0.123,0.211
9,0.0097,0.0111,-0.0061,-0.40,0.94,-29.58,0.008,-0.028,0.252,-0.159
9,0.0082,0.0113,-0.0059,-0.40,0.95,-29.55,0.008,0.087,-0.132,-0.164
9,0.0036,0.0031,-0.0056,-0.32,0.95,-29.52,0.008,-0.097,-0.107,-0.098
9,0.0068,0.0063,-0.0055,-0.35,0.94,-29.49,0.010,0.018,0.217,0.037
9,0.0060,0.0051,-0.0054,-0.34,0.94,-29.46,0.010,0.041,-0.086,-0.273
9,0.0030,0.0092,-0.0008,-0.36,0.97,-29.43,0.010,-0.076,-0.327,-0.002
9,0.0035,0.0097,-0.0007,-0.35,0.97,-29.38,0.010,-0.002,0.086,0.301
9,0.0037,0.0075,-0.0007,-0.34,0.96,-29.38,0.010,-0.064,-0.192,-0.099
9,0.0055,0.0099,-0.0005,-0.36,0.96,-29.32,0.010,-0.280,0.149,0.204
9,0.0058,0.0104,-0.0005,-0.36,0.96,-29.32,0.011,-0.108,0.006,0.033
9,0.0027,-0.0003,0.0052,-0.28,0.94,-29.26,0.011,-0.098,0.216,0.039
9,0.0059,0.0033,0.0052,-0.32,0.93,-29.26,0.011,0.033,-0.200,-0.116
9,0.0016,0.0057,0.0053,-0.32,0.97,-29.20,0.011,0.047,0.152,-0.046
9,0.0016,0.0057,0.0053,-0.32,0.97,-29.20,0.007,-0.157,-0.147,-0.051
9,0.0045,0.0054,0.0053,-0.32,0.95,-29.17,0.007,0.237,-0.151,-0.038
9,0.0050,0.0106,-0.0012,-0.36,0.97,-29.14,0.007,-0.085,0.158,-0.056
9,0.0069,0.0033,-0.0011,-0.32,0.93,-29.11,0.007,-0.282,-0.068,-0.149
10,0.0057,0.0064,-0.0012,-0.33,0.95,-29.08,0.007,-0.242,0.120,0.043
10,0.0054,0.0088,-0.0012,-0.35,0.95,-29.05,0.009,-0.038,0.079,0.209
10,0.0050,0.0058,-0.0009,-0.33,0.94,-29.02,0.009,0.173,0.222,-0.460
10,0.0031,0.0049,-0.0002,-0.31,0.95,-29.00,0.009,-0.055,-0.295,-0.024
10,0.0010,-0.0011,0.0000,-0.27,0.94,-28.96,0.009,-0.116,-0.338,0.079
10,0.0032,0.0030,0.0001,-0.30,0.94,-28.94,0.009,0.076,0.255,0.221
10,0.0033,0.0031,0.0003,-0.30,0.94,-28.91,0.009,-0.042,-0.063,-0.014
10,0.0020,0.0036,0.0004,-0.30,0.95,-28.88,0.009,0.111,0.172,-0.054
10,0.0031,0.0029,0.0008,-0.30,0.94,-28.85,0.009,0.003,0.442,-0.116
10,0.0029,-0.0026,0.0008,-0.26,0.92,-28.82,0.009,0.192,-0.052,-0.155
10,0.0025,0.0018,0.0008,-0.29,0.94,-28.80,0.009,0.161,-0.030,-0.164
10,0.0003,0.0029,0.0010,-0.29,0.96,-28.77,0.010,0.144,0.133,0.090
10,0.0081,0.0048,0.0015,-0.33,0.91,-28.71,0.010,-0.145,0.038,0.222
10,0.0080,0.0048,0.0038,-0.33,0.91,-28.71,0.010,-0.059,0.171,-0.027
10,0.0046,0.0062,0.0037,-0.33,0.94,-28.68,0.010,-0.037,0.085,0.193
10,0.0000,0.0000,0.0000,0.00,0.00,0.00,0.010,-0.215,-0.408,-0.037
10,0.0009,-0.0001,-0.0000,-0.00,-0.00,-0.00,0.009,0.189,0.007,0.005
10,0.0022,-0.0029,-0.0001,0.02,0.00,0.00,0.009,-0.033,-0.050,-0.121
10,0.0085,0.0008,-0.0001,-0.04,-0.06,0.00,0.009,-0.054,-0.090,0.101
10,0.0098,-0.0045,0.0001,0.04,-0.05,-0.00,0.009,0.043,0.091,0.029
10,0.0059,-0.0034,0.0002,0.01,0.07,-0.00,0.009,0.255,0.319,0.008
10,0.0056,-0.0036,0.0004,0.00,0.12,-0.00,0.009,0.264,-0.104,0.024
10,0.0070,-0.0041,0.0003,0.00,0.12,-0.00,0.012,0.209,0.115,-0.367
10,0.0126,-0.0029,0.0019,-0.04,0.01,-0.00,0.012,-0.076,0.082,-0.126
10,0.0116,-0.0093,0.0017,0.13,0.08,-0.00,0.012,0.031,-0.172,-0.057
10,0.0089,-0.0044,0.0017,-0.03,0.20,-0.00,0.012,0.127,0.148,-0.012
10,0.0096,-0.0128,0.0017,0.20,0.22,-0.00,0.011,-0.188,-0.070,0.224
10,0.0100,-0.0023,0.0019,-0.14,0.25,-0.00,0.011,-0.080,-0.072,-0.165
10,0.0113,-0.0024,0.0024,-0.14,0.25,-0.00,0.011,-0.368,-0.042,0.118
10,0.0115,-0.0141,0.0024,0.19,0.29,0.00,0.011,-0.194,-0.026,-0.279
10,0.0095,-0.0056,0.0025,-0.07,0.38,0.00,0.011,0.107,0.034,-0.036
10,0.0174,0.0027,0.0023,-0.31,0.19,0.00,0.012,-0.180,0.090,0.280
10,0.0109,-0.0036,0.0025,-0.14,0.40,0.00,0.012,-0.030,-0.165,0.009
10,0.0109,-0.0015,0.0044,-0.20,0.42,0.00,0.012,-0.157,-0.126,0.216
10,0.0127,-0.0137,0.0044,0.10,0.40,0.00,0.012,-0.031,0.071,0.255
10,0.0125,-0.0028,0.0045,-0.18,0.44,0.00,0.012,0.147,0.345,-0.002
11,0.0102,-0.0026,0.0045,-0.19,0.52,0.00,0.013,-0.143,-0.258,0.002
11,0.0081,0.0034,0.0046,-0.34,0.59,0.00,0.013,-0.019,-0.145,-0.219
11,0.0079,-0.0050,0.0080,-0.14,0.61,0.00,0.013,-0.008,0.055,-0.178
11,0.0086,-0.0051,0.0080,-0.14,0.61,0.00,0.013,-0.077,0.112,0.062
11,0.0095,-0.0051,0.0081,-0.14,0.61,0.00,0.013,0.053,0.129,-0.031
11,0.0114,-0.0047,0.0082,-0.16,0.59,-0.00,0.012,-0.087,-0.098,0.224
11,0.0133,-0.0135,0.0082,0.01,0.56,-0.00,0.012,-0.145,0.153,-0.052
11,0.0125,-0.0057,0.0065,-0.16,0.59,-0.00,0.012,0.008,0.199,-0.055
11,0.0132,-0.0059,0.0061,-0.16,0.60,0.00,0.012,-0.253,0.108,0.040
11,0.0122,0.0062,0.0061,-0.40,0.62,0.01,0.012,-0.012,0.171,0.150
11,0.0092,-0.0033,0.0063,-0.22,0.68,0.00,0.010,-0.023,-0.014,-0.202
11,0.0108,0.0058,0.0063,-0.40,0.66,0.01,0.010,-0.247,0.038,0.081
11,0.0079,-0.0007,-0.0004,-0.28,0.72,0.00,0.010,-0.028,0.162,-0.138
11,0.0074,-0.0153,-0.0005,-0.02,0.73,0.00,0.010,-0.104,-0.082,0.093
11,0.0092,0.0056,-0.0004,-0.38,0.71,0.01,0.010,0.195,-0.044,-0.045
11,0.0032,-0.0079,-0.0003,-0.15,0.82,0.00,0.008,-0.054,-0.169,0.121
11,0.0052,-0.0037,-0.0002,-0.23,0.79,0.00,0.008,0.207,0.088,0.037
11,0.0125,-0.0239,-0.0090,0.10,0.68,-0.00,0.008,-0.083,0.320,-0.204
11,0.0118,-0.0205,-0.0090,0.04,0.70,-0.00,0.008,0.026,-0.160,-0.112
11,0.0059,0.0078,-0.0087,-0.41,0.79,0.01,0.008,-0.022,-0.273,0.189
11,0.0063,0.0081,-0.0087,-0.41,0.79,0.01,0.007,-0.148,0.284,0.194
11,0.0061,0.0019,-0.0086,-0.31,0.80,0.00,0.007,0.023,0.085,0.128
11,0.0079,0.0036,-0.0150,-0.34,0.78,0.00,0.007,-0.269,0.089,-0.097
11,0.0057,0.0159,-0.0151,-0.52,0.82,0.01,0.007,0.211,-0.043,0.026
11,0.0055,-0.0044,-0.0148,-0.22,0.82,0.00,0.007,-0.005,-0.031,0.290
11,0.0058,-0.0045,-0.0150,-0.22,0.82,0.00,0.010,0.100,0.166,-0.143
11,0.0057,0.0068,-0.0153,-0.38,0.83,0.01,0.010,-0.074,0.001,0.168
11,0.0127,-0.0295,-0.0107,0.13,0.73,-0.00,0.010,0.292,0.085,0.006
11,0.0190,-0.0417,-0.0114,0.29,0.65,-0.00,0.010,0.119,-0.400,-0.192
11,0.0059,-0.0304,-0.0105,0.12,0.83,-0.00,0.010,0.063,0.142,0.006
22,0.0091,-0.0321,-0.0105,0.13,0.79,-0.00,0.010,-0.170,-0.090,-0.009
32,0.0040,-0.0205,-0.0098,-0.03,0.87,0.00,0.010,0.021,0.161,0.199
42,0.0119,-0.0276,-0.0065,0.05,0.77,-0.00,0.010,-0.407,0.201,-0.296
52,0.0032,-0.0242,-0.0064,0.01,0.88,0.00,0.010,0.434,0.118,-0.193
62,0.0079,-0.0242,-0.0064,0.00,0.82,0.00,0.010,-0.141,-0.116,0.328
71,0.0076,-0.0165,-0.0064,-0.10,0.83,0.01,0.009,-0.108,0.010,0.059
81,0.0072,-0.0232,-0.0065,-0.02,0.83,0.00,0.009,0.117,-0.012,0.040
91,0.0054,-0.0067,-0.0057,-0.22,0.86,0.01,0.009,0.079,-0.064,-0.277
102,0.0176,-0.0157,-0.0058,-0.12,0.71,0.01,0.009,0.166,0.021,-0.361
111,0.0095,-0.0223,-0.0058,-0.04,0.81,0.01,0.009,0.157,-0.004,-0.296
121,0.0094,-0.0239,-0.0058,-0.03,0.82,0.00,0.011,0.210,0.027,-0.164
131,0.0006,-0.0038,-0.0051,-0.26,0.93,0.01,0.011,0.066,-0.055,0.037
142,0.0051,-0.0183,-0.0001,-0.09,0.88,0.00,0.011,-0.021,-0.168,0.064
151,0.0064,-0.0131,0.0002,-0.15,0.86,0.01,0.011,-0.047,0.114,-0.135
161,0.0019,-0.0023,0.0002,-0.27,0.91,0.01,0.011,-0.104,-0.003,0.041
171,0.0034,-0.0107,0.0003,-0.18,0.90,0.01,0.012,0.112,-0.112,-0.152
182,0.0019,-0.0159,0.0004,-0.13,0.92,0.00,0.012,-0.044,0.194,-0.001
192,0.0018,-0.0096,0.0055,-0.20,0.92,0.01,0.012,-0.046,-0.110,-0.317
201,0.0060,-0.0061,0.0057,-0.23,0.87,0.01,0.012,0.062,-0.246,-0.146
212,0.0086,-0.0125,0.0058,-0.17,0.85,0.00,0.012,-0.055,0.012,-0.034
221,0.0096,-0.0146,0.0058,-0.15,0.84,0.00,0.005,-0.195,-0.110,0.133
232,0.0012,-0.0031,0.0061,-0.27,0.93,0.01,0.005,-0.231,0.109,0.015
241,0.0014,-0.0041,-0.0076,-0.26,0.93,0.01,0.005,0.052,-0.129,-0.202
251,0.0056,0.0014,-0.0073,-0.32,0.89,0.01,0.005,0.350,-0.276,-0.221
262,0.0029,-0.0105,-0.0071,-0.20,0.92,0.00,0.005,-0.168,-0.041,-0.038
271,0.0081,-0.0192,-0.0072,-0.11,0.86,-0.00,0.014,-0.086,0.132,-0.059
282,0.0027,-0.0080,-0.0066,-0.23,0.92,0.00,0.014,-0.228,0.035,0.263
292,0.0025,-0.0102,0.0064,-0.21,0.92,0.00,0.014,0.058,-0.034,0.197
301,0.0062,0.0018,0.0064,-0.33,0.89,0.01,0.014,-0.056,-0.177,-0.199
311,0.0044,0.0017,0.0063,-0.33,0.90,0.01,0.014,-0.203,0.177,-0.033
321,0.0018,-0.0098,0.0064,-0.22,0.93,0.00,0.009,-0.099,0.033,0.156
331,0.0056,-0.0066,0.0063,-0.25,0.89,0.00,0.009,-0.000,-0.173,0.014
342,0.0018,0.0028,0.0017,-0.34,0.93,0.01,0.009,-0.155,0.173,0.242
351,0.0105,-0.0146,0.0016,-0.17,0.85,0.00,0.009,-0.175,-0.131,-0.028
361,0.0023,-0.0087,0.0017,-0.22,0.93,0.00,0.009,-0.156,0.224,-0.026
372,-0.0001,-0.0082,0.0018,-0.23,0.95,0.00,0.008,-0.115,-0.006,-0.050
381,0.0000,-0.0017,0.0021,-0.29,0.95,0.00,0.008,-0.080,-0.104,-0.062
391,0.0041,-0.0026,-0.0030,-0.28,0.91,0.00,0.008,-0.275,-0.022,-0.094
401,0.0053,-0.0174,-0.0030,-0.15,0.90,-0.00,0.008,-0.099,-0.207,-0.112
411,0.0025,-0.0191,-0.0033,-0.13,0.93,-0.00,0.008,0.062,-0.218,-0.150
421,0.0001,-0.0229,-0.0036,-0.10,0.95,-0.00,0.011,-0.123,0.046,0.208
431,0.0015,-0.0194,-0.0035,-0.14,0.94,-0.00,0.011,-0.063,-0.140,0.004
441,0.0014,-0.0175,0.0002,-0.16,0.94,-0.00,0.011,-0.200,0.194,0.182
451,0.0064,-0.0167,0.0000,-0.17,0.90,0.00,0.011,0.007,0.243,-0.094
462,0.0050,-0.0255,-0.0003,-0.09,0.91,-0.00,0.011,-0.038,0.240,0.057
471,0.0033,-0.0145,-0.0000,-0.19,0.92,0.00,0.012,-0.019,0.266,0.045
481,0.0033,-0.0147,0.0001,-0.19,0.92,0.00,0.012,-0.007,0.166,0.246
491,0.0019,-0.0141,0.0042,-0.20,0.93,0.00,0.012,-0.058,0.000,-0.037
501,0.0020,-0.0057,0.0043,-0.28,0.93,0.01,0.012,0.002,0.141,0.223
511,0.0046,-0.0117,0.0044,-0.22,0.91,0.01,0.012,-0.107,0.104,-0.213
521,0.0046,-0.0118,0.0045,-0.22,0.91,0.01,0.008,0.023,0.027,-0.100
531,-0.0008,-0.0191,0.0046,-0.16,0.95,0.01,0.008,0.135,0.319,-0.166
541,-0.0005,-0.0144,-0.0020,-0.21,0.95,0.01,0.008,0.039,-0.111,-0.302
551,-0.0003,-0.0125,-0.0021,-0.23,0.95,0.01,0.008,-0.078,-0.023,0.183
561,0.0010,-0.0144,-0.0022,-0.21,0.93,0.01,0.008,-0.188,-0.015,0.085
571,-0.0004,-0.0150,-0.0023,-0.21,0.94,0.01,0.009,0.064,-0.204,0.118
581,0.0060,-0.0103,-0.0021,-0.25,0.89,0.01,0.009,-0.211,-0.034,0.295
591,0.0072,0.0058,-0.0035,-0.38,0.88,0.01,0.009,-0.010,0.174,0.122
601,0.0070,-0.0199,-0.0031,-0.16,0.89,0.01,0.009,0.140,0.177,0.076
611,0.0132,-0.0136,-0.0030,-0.22,0.84,0.01,0.009,-0.204,0.060,0.081
621,0.0126,-0.0193,-0.0029,-0.17,0.84,0.01,0.008,-0.150,-0.084,-0.099
631,0.0120,-0.0170,-0.0027,-0.19,0.85,0.01,0.008,0.016,0.150,-0.105
641,0.0030,-0.0212,-0.0059,-0.16,0.92,0.01,0.008,0.038,-0.054,-0.158
651,0.0103,-0.0191,-0.0059,-0.18,0.86,0.01,0.008,-0.035,0.096,0.056
661,0.0099,-0.0171,-0.0057,-0.20,0.87,0.01,0.008,0.132,0.161,0.112
671,0.0085,-0.0092,-0.0054,-0.27,0.88,0.01,0.011,0.066,-0.411,-0.142
681,0.0011,0.0020,-0.0053,-0.37,0.94,0.01,0.011,0.256,0.219,-0.279
691,0.0011,0.0042,0.0001,-0.38,0.94,0.01,0.011,-0.278,-0.042,0.122
701,-0.0001,0.0077,-0.0000,-0.41,0.95,0.02,0.011,-0.169,0.429,0.244
711,-0.0001,0.0052,0.0002,-0.39,0.95,0.01,0.011,0.086,0.053,-0.035
721,0.0014,0.0086,0.0003,-0.42,0.94,0.02,0.008,0.239,-0.243,-0.062
731,0.0005,0.0085,0.0005,-0.41,0.94,0.02,0.008,-0.019,0.123,0.182
741,0.0008,0.0058,-0.0031,-0.39,0.94,0.01,0.008,-0.196,0.137,0.130
751,0.0047,0.0080,-0.0033,-0.40,0.91,0.02,0.008,-0.115,-0.012,-0.089
761,-0.0012,-0.0014,-0.0032,-0.32,0.96,0.02,0.008,-0.090,-0.011,0.352
771,0.0013,0.0058,-0.0031,-0.38,0.94,0.02,0.009,0.395,-0.077,-0.268
780,-0.0011,0.0079,-0.0031,-0.40,0.96,0.02,0.009,-0.065,0.124,-0.119
791,-0.0011,0.0065,-0.0027,-0.39,0.96,0.02,0.009,-0.045,-0.305,0.130
802,-0.0010,-0.0087,-0.0025,-0.26,0.96,0.01,0.009,0.004,-0.117,0.194
811,0.0015,0.0068,-0.0021,-0.39,0.94,0.02,0.009,-0.026,-0.155,-0.095
822,0.0014,0.0032,-0.0016,-0.35,0.94,0.02,0.007,-0.231,-0.078,-0.025
831,0.0025,0.0030,-0.0015,-0.35,0.93,0.02,0.007,-0.062,0.003,-0.084
841,0.0013,0.0064,-0.0053,-0.38,0.94,0.02,0.007,0.183,-0.004,-0.298
851,0.0047,0.0016,-0.0051,-0.34,0.91,0.02,0.007,-0.153,-0.179,0.608
861,0.0012,0.0073,-0.0051,-0.39,0.94,0.02,0.007,0.031,-0.124,-0.103
870,0.0012,0.0061,-0.0053,-0.37,0.94,0.01,0.007,0.069,-0.104,-0.051
880,-0.0011,-0.0020,-0.0052,-0.31,0.96,0.02,0.011,-0.014,-0.115,-0.193
890,0.0024,0.0141,0.0019,-0.44,0.93,0.02,0.011,-0.314,0.060,0.137
900,0.0013,0.0022,0.0023,-0.34,0.94,0.02,0.011,0.085,-0.096,-0.136
911,0.0046,0.0020,0.0025,-0.34,0.92,0.02,0.011,-0.069,0.040,-0.007
920,0.0031,0.0065,0.0027,-0.37,0.93,0.02,0.009,-0.124,-0.230,-0.222
931,0.0019,0.0028,0.0028,-0.34,0.94,0.01,0.009,-0.249,-0.069,0.080
941,0.0008,0.0015,0.0020,-0.33,0.95,0.01,0.009,0.042,0.277,0.477
951,-0.0003,-0.0031,0.0021,-0.29,0.96,0.01,0.009,-0.108,0.165,-0.005
960,-0.0002,0.0052,0.0023,-0.36,0.96,0.01,0.009,-0.041,-0.129,-0.122
971,0.0025,0.0063,0.0023,-0.37,0.93,0.02,0.012,-0.057,0.027,-0.333
980,0.0025,-0.0044,0.0022,-0.28,0.93,0.02,0.012,-0.367,0.203,0.294
991,-0.0034,0.0060,0.0080,-0.37,0.98,0.02,0.012,-0.033,0.207,-0.236
1001,-0.0030,0.0070,0.0080,-0.37,0.98,0.02,0.012,0.186,-0.232,-0.021
1010,0.0007,0.0011,0.0080,-0.33,0.95,0.02,0.012,-0.036,0.174,-0.219
1021,0.0016,0.0047,0.0081,-0.35,0.93,0.02,0.010,-0.259,-0.224,-0.038
1031,0.0017,0.0032,0.0081,-0.34,0.94,0.02,0.010,-0.173,-0.084,-0.058
1041,-0.0006,0.0042,0.0062,-0.35,0.95,0.02,0.010,-0.125,0.171,-0.243
1051,0.0018,0.0041,0.0061,-0.35,0.93,0.02,0.010,-0.163,0.016,-0.152
1061,0.0017,0.0053,0.0060,-0.36,0.93,0.02,0.010,-0.122,0.151,0.173
1071,0.0028,0.0054,0.0059,-0.36,0.92,0.01,0.011,0.227,0.083,-0.046
1081,0.0017,-0.0049,0.0060,-0.27,0.93,0.01,0.011,-0.077,-0.097,0.095
1090,0.0017,0.0127,0.0063,-0.41,0.93,0.02,0.011,-0.240,0.215,0.008
1100,0.0019,0.0065,0.0063,-0.36,0.93,0.02,0.011,-0.255,-0.003,0.302
1111,-0.0004,0.0062,0.0063,-0.36,0.95,0.02,0.011,-0.215,0.518,0.222
1121,0.0007,0.0060,0.0064,-0.35,0.94,0.01,0.011,0.160,0.040,-0.180
1130,0.0008,0.0046,0.0063,-0.34,0.94,0.02,0.011,0.190,-0.001,-0.088
1141,0.0008,0.0001,0.0057,-0.31,0.94,0.01,0.011,0.080,0.253,-0.054
1150,0.0019,0.0003,0.0057,-0.31,0.93,0.01,0.011,-0.251,0.223,0.175
1161,0.0041,0.0048,0.0058,-0.34,0.91,0.01,0.011,-0.058,0.090,0.086
1170,0.0006,0.0046,0.0060,-0.34,0.93,0.01,0.011,0.034,0.091,0.305
1180,-0.0018,-0.0056,0.0061,-0.26,0.95,0.01,0.009,0.058,-0.074,-0.165
1191,-0.0006,0.0025,0.0003,-0.32,0.94,0.01,0.009,-0.123,-0.168,-0.002
1200,-0.0028,0.0056,0.0002,-0.35,0.95,0.01,0.009,-0.002,0.028,-0.084
1211,0.0007,0.0050,0.0003,-0.35,0.93,0.01,0.009,-0.052,-0.035,-0.083
1220,0.0018,-0.0020,0.0005,-0.29,0.92,0.01,0.009,-0.182,0.104,0.319
1230,-0.0026,-0.0019,0.0003,-0.29,0.95,0.01,0.009,0.223,-0.008,-0.052
1241,0.0032,-0.0008,-0.0028,-0.30,0.91,0.01,0.009,0.151,-0.179,-0.163
1250,0.0077,-0.0065,-0.0030,-0.26,0.87,0.01,0.009,-0.259,-0.103,-0.058
1260,0.0009,-0.0006,-0.0028,-0.30,0.93,0.01,0.009,0.179,0.147,-0.194
1270,0.0021,-0.0006,-0.0026,-0.30,0.92,0.01,0.009,0.152,0.012,-0.069
1280,0.0022,0.0040,-0.0026,-0.34,0.92,0.01,0.007,-0.007,0.046,-0.054
1290,-0.0022,-0.0064,-0.0086,-0.26,0.96,0.01,0.007,-0.186,-0.095,0.007
1300,0.0057,0.0116,-0.0084,-0.41,0.89,0.01,0.007,-0.096,-0.063,-0.170
1310,0.0022,-0.0022,-0.0080,-0.29,0.92,0.01,0.007,0.001,-0.056,-0.053
1321,0.0057,-0.0011,-0.0080,-0.30,0.89,0.01,0.010,0.083,0.266,0.007
1330,0.0046,-0.0010,-0.0078,-0.30,0.90,0.01,0.010,-0.316,-0.059,0.290
1340,0.0010,0.0038,-0.0045,-0.34,0.93,0.01,0.010,-0.150,-0.180,-0.079
1350,0.0067,-0.0019,-0.0045,-0.29,0.88,0.01,0.010,0.149,-0.111,-0.159
1360,0.0042,0.0037,-0.0043,-0.34,0.91,0.01,0.010,-0.093,-0.009,-0.151
1370,0.0017,0.0035,-0.0043,-0.34,0.93,0.01,0.012,0.216,0.016,0.116
1380,0.0005,-0.0069,-0.0043,-0.26,0.93,0.01,0.012,0.204,0.182,-0.351
1391,-0.0029,0.0153,0.0030,-0.43,0.96,0.01,0.012,0.007,-0.240,-0.046
1400,-0.0072,-0.0025,0.0033,-0.29,1.00,0.01,0.012,-0.105,0.033,0.294
1411,-0.0055,0.0033,0.0034,-0.33,0.98,0.01,0.012,-0.045,0.105,-0.061
1420,-0.0108,0.0019,0.0034,-0.32,1.03,0.01,0.012,0.062,0.041,-0.045
1430,-0.0089,-0.0086,0.0034,-0.24,1.01,0.02,0.012,-0.226,0.028,-0.031
1441,-0.0062,0.0011,0.0070,-0.32,0.99,0.02,0.012,0.279,-0.042,-0.354
1450,-0.0012,0.0022,0.0071,-0.32,0.95,0.02,0.012,-0.054,-0.061,-0.160
1461,-0.0012,-0.0218,0.0072,-0.13,0.94,0.01,0.012,0.111,-0.135,0.084
1471,0.0012,-0.0171,0.0074,-0.17,0.92,0.01,0.006,-0.213,0.028,0.212
1480,0.0036,-0.0218,0.0073,-0.13,0.91,0.01,0.006,-0.201,-0.190,0.244
0,-0.0029,-0.0251,-0.0059,-0.11,0.96,0.01,0.006,-0.294,-0.022,0.271
10,0.0043,-0.0239,-0.0056,-0.12,0.91,0.01,0.006,-0.131,0.068,-0.100
20,0.0020,-0.0172,-0.0052,-0.17,0.92,0.01,0.006,-0.444,-0.290,0.038
30,0.0010,-0.0119,-0.0048,-0.22,0.93,0.02,0.009,0.785,1.129,0.190
40,-0.0007,-0.0165,-0.0048,-0.18,0.93,0.01,0.009,-0.137,-0.140,-0.379
50,0.0011,-0.0153,-0.0045,-0.19,0.91,0.01,0.009,0.207,-0.095,-1.143
60,-0.0015,-0.0187,-0.0045,-0.16,0.91,0.01,0.009,0.159,0.024,0.140
69,-0.0075,-0.0118,-0.0040,-0.21,0.95,0.01,0.009,0.005,-0.040,0.962
80,-0.0109,-0.0142,-0.0035,-0.19,0.96,0.01,0.008,1.123,-0.035,-0.715
90,-0.0074,-0.0053,-0.0037,-0.25,0.92,0.01,0.008,2.382,0.451,-1.220
99,-0.0085,-0.0203,-0.0054,-0.13,0.91,0.01,0.008,0.709,1.161,-0.537
110,-0.0119,-0.0125,-0.0047,-0.18,0.93,0.00,0.008,0.893,-0.386,-0.920
120,-0.0072,-0.0062,-0.0045,-0.20,0.87,-0.01,0.008,1.508,-2.658,-4.264
129,-0.0116,-0.0110,-0.0048,-0.16,0.89,-0.01,0.010,-2.071,-11.158,-2.062
140,-0.0182,-0.0070,-0.0031,-0.18,0.94,-0.03,0.010,-8.077,-17.553,-7.595
149,-0.0192,-0.0098,0.0021,-0.14,0.98,-0.07,0.010,-13.959,-16.750,-9.489
160,-0.0210,-0.0176,0.0036,-0.12,1.10,-0.11,0.010,-15.458,-11.232,-8.456
170,-0.0246,-0.0190,0.0024,-0.20,1.29,-0.19,0.010,-9.074,-8.727,-8.617
179,-0.0315,-0.0173,0.0019,-0.36,1.49,-0.28,0.011,-11.463,-13.952,-7.371
190,-0.0335,-0.0188,0.0089,-0.47,1.58,-0.37,0.011,-13.374,-19.708,-8.783
200,-0.0366,-0.0179,0.0202,-0.56,1.68,-0.45,0.011,-16.980,-28.305,-5.967
210,-0.0676,-0.0356,0.0232,-0.53,2.06,-0.52,0.011,-18.316,-30.386,-4.253
220,-0.0733,-0.0275,0.0334,-0.72,2.29,-0.60,0.011,-14.070,-16.585,-4.027
230,-0.0817,-0.0531,0.0473,-0.68,2.61,-0.66,0.013,-16.368,-15.528,-4.986
239,-0.0866,-0.0515,0.0632,-0.85,2.89,-0.70,0.013,-21.750,-28.310,-7.392
249,-0.0906,-0.0572,0.0842,-0.92,3.02,-0.75,0.013,-32.221,-30.428,-5.680
260,-0.1018,-0.0511,0.1018,-1.13,3.24,-0.80,0.013,-39.603,-20.298,-5.672
269,-0.1062,-0.0537,0.1199,-1.33,3.52,-0.87,0.013,-42.253,-9.082,-5.338
280,-0.1130,-0.0477,0.1382,-1.70,3.81,-0.92,0.013,-39.348,-3.813,-7.713
289,-0.1216,-0.0485,0.1576,-2.07,3.99,-0.97,0.000,-28.919,1.210,-9.771
299,-0.1250,-0.0416,0.1345,-2.50,4.05,-1.02,0.000,-22.379,2.790,-9.984
309,-0.1269,-0.0310,0.1544,-2.90,4.04,-1.10,0.000,-19.662,0.948,-7.963
320,-0.1642,-0.0196,0.1689,-3.23,4.25,-1.21,0.000,0.915,3.747,-7.641
329,-0.1709,-0.0099,0.1871,-3.46,4.22,-1.30,0.003,11.648,3.474,-5.980
339,-0.1397,0.0043,0.2178,-3.66,3.90,-1.35,0.003,15.778,3.255,-5.472
350,-0.1719,0.0315,0.1973,-3.76,4.07,-1.40,0.003,23.239,7.331,-4.562
359,-0.1810,0.0457,0.2146,-3.67,4.05,-1.46,0.003,23.713,9.122,-3.169
369,-0.1943,0.0574,0.2298,-3.52,4.05,-1.51,0.003,26.015,9.411,-2.866
380,-0.2202,0.0727,0.2398,-3.35,4.12,-1.56,0.022,29.014,9.585,-3.845
389,-0.2372,0.0876,0.2513,-3.16,4.09,-1.59,0.022,26.625,13.170,-4.781
399,-0.2449,0.1040,0.2630,-2.97,4.00,-1.61,0.022,22.886,14.074,-3.317
409,-0.2480,0.1117,0.2788,-2.69,3.86,-1.64,0.022,20.375,9.491,-2.703
419,-0.2647,0.1250,0.2867,-2.50,3.80,-1.69,0.022,16.595,5.755,-1.236
429,-0.2707,0.1289,0.2982,-2.26,3.66,-1.73,0.048,5.836,5.067,0.579
440,-0.2807,0.1370,0.3067,-2.08,3.61,-1.75,0.048,-4.282,11.666,3.117
449,-0.2887,0.1432,0.3487,-1.96,3.55,-1.75,0.048,-5.630,22.567,4.896
459,-0.2962,0.1539,0.3537,-1.99,3.49,-1.73,0.048,-5.672,30.416,5.648
469,-0.3017,0.1565,0.3588,-2.03,3.32,-1.70,0.048,-3.328,32.994,6.552
479,-0.2803,0.1592,0.3759,-2.09,2.85,-1.61,0.068,0.864,29.633,8.275
489,-0.2735,0.1512,0.3890,-2.04,2.44,-1.57,0.068,4.859,21.660,8.707
499,-0.2625,0.1767,0.4041,-2.22,1.99,-1.44,0.068,6.226,11.646,9.741
510,-0.2586,0.1765,0.4113,-2.17,1.65,-1.36,0.068,8.605,6.584,9.623
519,-0.2628,0.1840,0.4141,-2.15,1.47,-1.27,0.068,11.613,5.794,10.469
530,-0.2507,0.1885,0.4212,-2.08,1.26,-1.15,0.096,11.862,6.860,10.083
539,-0.2435,0.1888,0.4256,-1.95,1.13,-1.04,0.096,15.171,8.885,9.359
549,-0.2394,0.1606,0.4587,-1.57,0.99,-0.99,0.096,14.918,10.211,9.325
560,-0.2345,0.1551,0.4600,-1.38,0.86,-0.89,0.096,14.026,10.595,8.713
569,-0.2223,0.1514,0.4625,-1.19,0.65,-0.79,0.096,12.522,10.876,9.088
579,-0.1766,0.1447,0.4727,-0.97,0.19,-0.64,0.116,7.405,8.403,9.161
589,-0.1711,0.1398,0.4719,-0.78,0.04,-0.56,0.116,3.806,5.071,10.056
599,-0.1626,0.1327,0.4594,-0.62,-0.13,-0.47,0.116,4.805,2.695,9.478
610,-0.1807,0.1603,0.4517,-0.76,-0.06,-0.38,0.116,9.540,7.665,9.191
619,-0.1762,0.1501,0.4499,-0.64,-0.13,-0.28,0.116,13.719,13.752,9.174
630,-0.1769,0.1553,0.4445,-0.61,-0.16,-0.18,0.146,23.606,25.177,8.925
639,-0.1754,0.1608,0.4387,-0.54,-0.27,-0.09,0.146,34.985,35.865,8.595
649,-0.1767,0.1595,0.4534,-0.34,-0.44,-0.00,0.146,44.524,48.841,9.001
659,-0.1729,0.1578,0.4483,-0.05,-0.75,0.09,0.146,51.988,58.027,9.338
669,-0.1746,0.1560,0.4419,0.35,-1.14,0.18,0.146,62.279,66.301,8.759
679,-0.1682,0.1519,0.4357,0.86,-1.70,0.28,0.157,64.605,72.079,7.441
689,-0.1670,0.1467,0.4283,1.43,-2.28,0.38,0.157,66.431,73.310,7.157
699,-0.1590,0.1434,0.3978,2.08,-2.99,0.49,0.157,64.281,71.394,6.270
709,-0.1589,0.1439,0.3890,2.70,-3.68,0.59,0.157,57.029,66.038,5.650
719,-0.1481,0.1368,0.3807,3.40,-4.44,0.70,0.157,47.368,56.262,4.709
729,-0.1394,0.1300,0.3718,4.04,-5.15,0.81,0.183,39.874,46.486,4.827
739,-0.1353,0.1253,0.3612,4.63,-5.80,0.92,0.183,27.466,33.276,5.123
749,-0.1231,0.1161,0.3611,5.11,-6.35,1.03,0.183,15.773,20.170,5.149
759,-0.1172,0.1103,0.3503,5.46,-6.73,1.11,0.183,7.172,8.534,3.915
769,-0.1025,0.1033,0.3392,5.70,-7.04,1.19,0.183,-1.994,-3.503,3.703
779,-0.0915,0.0943,0.3282,5.83,-7.20,1.25,0.195,-8.213,-12.649,3.657
789,-0.0796,0.0841,0.3175,5.88,-7.24,1.30,0.195,-14.204,-20.160,3.118
799,-0.0726,0.0783,0.2940,5.82,-7.14,1.32,0.195,-16.938,-25.932,2.790
810,-0.0610,0.0687,0.2836,5.73,-6.98,1.34,0.195,-17.321,-28.133,3.252
819,-0.0495,0.0550,0.2733,5.64,-6.76,1.37,0.195,-18.556,-29.723,2.927
829,-0.0373,0.0452,0.2631,5.46,-6.49,1.37,0.212,-21.221,-30.279,3.069
839,-0.0269,0.0369,0.2527,5.29,-6.21,1.38,0.212,-19.111,-29.598,2.454
849,-0.0170,0.0289,0.2488,5.08,-5.90,1.38,0.212,-20.408,-27.899,3.329
859,-0.0063,0.0239,0.2386,4.86,-5.61,1.37,0.212,-17.519,-27.570,2.196
869,0.0049,0.0152,0.2287,4.67,-5.34,1.37,0.212,-18.421,-25.077,2.961
879,0.0144,0.0081,0.2190,4.48,-5.06,1.38,0.221,-17.858,-23.922,2.542
890,0.0139,0.0022,0.2097,4.29,-4.74,1.40,0.221,-18.803,-23.322,2.869
899,0.0359,-0.0028,0.1937,4.11,-4.60,1.37,0.221,-21.595,-24.248,1.549
909,0.0428,-0.0098,0.1848,3.93,-4.36,1.38,0.221,-22.295,-24.077,1.594
919,0.0525,-0.0173,0.1763,3.74,-4.15,1.39,0.221,-23.820,-26.349,1.718
929,0.0572,-0.0221,0.1682,3.52,-3.89,1.39,0.226,-26.324,-28.219,1.405
939,0.0689,-0.0294,0.1599,3.31,-3.68,1.39,0.226,-27.557,-31.836,0.763
949,0.0706,-0.0359,0.1441,3.07,-3.37,1.41,0.226,-29.285,-34.168,0.778
959,0.0774,-0.0395,0.1360,2.79,-3.08,1.40,0.226,-30.290,-34.811,-0.129
969,0.0822,-0.0406,0.1285,2.49,-2.75,1.38,0.226,-28.833,-37.564,0.627
979,0.0885,-0.0464,0.1216,2.20,-2.42,1.37,0.226,-29.184,-39.653,0.448
989,0.0930,-0.0516,0.1150,1.92,-2.06,1.37,0.238,-31.269,-40.316,0.362
999,0.0943,-0.0544,0.1137,1.63,-1.66,1.37,0.238,-30.466,-40.120,0.309
1009,0.1039,-0.0597,0.1080,1.35,-1.31,1.35,0.238,-31.037,-40.270,0.893
1019,0.1032,-0.0598,0.1025,1.03,-0.89,1.35,0.238,-28.863,-38.439,0.760
1029,0.1090,-0.0640,0.0973,0.74,-0.51,1.35,0.230,-27.662,-36.149,1.090
1039,0.1058,-0.0643,0.0924,0.44,-0.09,1.36,0.230,-25.101,-34.123,1.088
1049,0.1089,-0.0641,0.0651,0.15,0.25,1.35,0.230,-25.679,-34.587,1.126
1059,0.1083,-0.0637,0.0605,-0.11,0.62,1.36,0.230,-21.266,-29.225,0.548
1069,0.1073,-0.0643,0.0561,-0.36,0.96,1.38,0.230,-21.370,-28.063,0.694
1079,0.1057,-0.0632,0.0521,-0.60,1.28,1.39,0.238,-17.182,-22.912,0.644
1090,0.1091,-0.0645,0.0483,-0.80,1.54,1.40,0.238,-15.722,-21.302,0.812
1099,0.1007,-0.0617,0.0407,-1.01,1.84,1.42,0.238,-12.082,-18.220,0.562
1109,0.1003,-0.0617,0.0381,-1.16,2.03,1.43,0.238,-8.602,-16.314,0.310
1119,0.0971,-0.0578,0.0353,-1.33,2.23,1.44,0.238,-16.194,-16.451,1.528
1129,0.0941,-0.0590,0.0325,-1.44,2.40,1.46,0.241,-11.621,-13.138,1.827
1139,0.0893,-0.0552,0.0296,-1.57,2.58,1.46,0.241,-9.625,-11.109,2.170
1149,0.0862,-0.0521,0.0284,-1.72,2.71,1.48,0.241,-7.140,-10.713,0.225
1159,0.0805,-0.0507,0.0266,-1.81,2.84,1.51,0.241,-4.468,-7.508,2.262
1169,0.0764,-0.0466,0.0246,-1.91,2.94,1.52,0.241,-3.337,-6.465,1.860
1180,0.0694,-0.0416,0.0224,-1.97,3.05,1.53,0.244,-4.221,-4.223,2.226
1190,0.0629,-0.0394,0.0204,-2.01,3.13,1.55,0.244,-2.242,-2.513,1.774
1199,0.0608,-0.0413,0.0232,-2.01,3.17,1.57,0.244,-0.327,-0.991,2.373
1209,0.0553,-0.0381,0.0215,-2.05,3.20,1.59,0.244,0.661,0.832,2.671
1219,0.0522,-0.0348,0.0199,-2.06,3.21,1.61,0.244,1.831,2.642,2.541
1229,0.0465,-0.0304,0.0183,-2.07,3.21,1.64,0.245,1.781,4.478,2.624
1239,0.0413,-0.0276,0.0168,-2.07,3.19,1.66,0.245,1.893,6.505,3.158
1249,0.0350,-0.0249,0.0179,-2.06,3.16,1.69,0.245,3.613,8.102,2.635
1259,0.0296,-0.0216,0.0163,-2.04,3.10,1.71,0.245,4.763,9.538,3.242
1269,0.0258,-0.0207,0.0147,-2.00,3.02,1.74,0.245,6.675,10.797,3.377
1279,0.0208,-0.0159,0.0135,-1.97,2.92,1.77,0.245,6.152,11.408,3.785
1289,0.0135,-0.0128,0.0124,-1.92,2.84,1.80,0.245,7.316,12.710,3.031
1299,0.0086,-0.0097,0.0108,-1.86,2.72,1.83,0.245,8.199,12.595,2.825
1309,0.0035,-0.0058,0.0096,-1.79,2.60,1.85,0.245,7.842,14.580,3.262
1319,-0.0010,-0.0029,0.0087,-1.71,2.47,1.88,0.245,9.783,14.829,4.075
1329,-0.0050,-0.0025,0.0078,-1.62,2.34,1.91,0.245,10.073,15.788,4.146
1339,-0.0118,0.0037,0.0067,-1.56,2.20,1.94,0.245,8.131,14.441,3.079
1349,-0.0133,0.0080,0.0047,-1.47,2.04,1.98,0.245,10.457,14.966,3.636
1359,-0.0206,0.0089,0.0038,-1.37,1.91,2.01,0.245,9.201,16.170,3.479
1369,-0.0228,0.0095,0.0032,-1.27,1.75,2.04,0.245,11.032,17.187,3.807
1379,-0.0278,0.0129,0.0026,-1.18,1.60,2.07,0.246,8.712,16.714,4.279
1389,-0.0307,0.0131,0.0022,-1.07,1.44,2.11,0.246,10.449,17.707,3.301
1399,-0.0332,0.0145,0.0026,-0.97,1.27,2.14,0.246,11.978,18.605,3.174
1409,-0.0353,0.0174,0.0019,-0.88,1.09,2.18,0.246,11.393,18.422,3.044
1419,-0.0372,0.0188,0.0013,-0.77,0.91,2.20,0.246,11.616,18.377,2.640
1429,-0.0400,0.0210,0.0008,-0.67,0.73,2.23,0.245,12.735,18.841,2.475
1439,-0.0406,0.0198,0.0004,-0.53,0.54,2.26,0.245,11.701,18.509,2.438
1449,-0.0425,0.0184,-0.0018,-0.40,0.36,2.29,0.245,11.413,17.587,2.519
1460,-0.0459,0.0230,-0.0024,-0.31,0.20,2.31,0.245,11.074,17.063,1.991
1469,-0.0488,0.0259,-0.0029,-0.22,0.03,2.33,0.245,10.830,16.636,3.061
1479,-0.0513,0.0268,-0.0032,-0.10,-0.13,2.35,0.245,10.400,15.341,3.181
1489,-0.0489,0.0263,-0.0036,0.02,-0.31,2.38,0.245,10.191,15.232,3.565
1499,-0.0479,0.0257,-0.0044,0.12,-0.47,2.41,0.245,6.500,14.136,2.773
1509,-0.0500,0.0265,-0.0044,0.20,-0.60,2.44,0.245,8.014,13.589,3.119
1519,-0.0485,0.0240,-0.0047,0.30,-0.75,2.48,0.245,8.729,13.650,2.873
1529,-0.0486,0.0248,-0.0048,0.38,-0.88,2.51,0.248,7.146,11.564,3.776
1539,-0.0454,0.0241,-0.0048,0.46,-1.02,2.54,0.248,7.874,11.816,4.218
1549,-0.0484,0.0243,0.0014,0.53,-1.12,2.58,0.248,6.100,10.353,3.685
1559,-0.0463,0.0234,0.0010,0.62,-1.25,2.62,0.248,8.255,10.288,3.636
1569,-0.0460,0.0237,0.0009,0.68,-1.34,2.66,0.248,4.539,8.564,3.946
1579,-0.0424,0.0210,0.0009,0.77,-1.45,2.70,0.248,6.288,8.095,3.802
1589,-0.0399,0.0198,0.0009,0.82,-1.54,2.74,0.247,2.302,6.420,4.254
1599,-0.0364,0.0188,0.0023,0.89,-1.63,2.78,0.247,4.690,5.785,3.789
1609,-0.0380,0.0190,0.0019,0.91,-1.67,2.82,0.247,1.142,4.721,3.990
1619,-0.0328,0.0133,0.0012,0.98,-1.74,2.86,0.247,3.139,3.609,4.564
1629,-0.0281,0.0141,0.0006,0.99,-1.80,2.90,0.246,0.580,1.807,3.807
1639,-0.0266,0.0118,-0.0003,1.02,-1.84,2.95,0.246,-1.315,-0.613,5.022
1648,-0.0222,0.0112,-0.0023,1.03,-1.87,2.99,0.246,-0.964,-1.755,4.235
1659,-0.0189,0.0096,-0.0028,1.02,-1.87,3.04,0.246,-1.474,-2.883,4.305
1669,-0.0156,0.0080,-0.0033,1.01,-1.86,3.08,0.246,-0.634,-3.585,4.416
1678,-0.0138,0.0061,-0.0039,1.01,-1.82,3.12,0.246,-0.149,-4.896,4.481
1689,-0.0106,0.0046,-0.0047,1.00,-1.79,3.16,0.244,-2.874,-6.117,4.735
1698,-0.0076,0.0031,-0.0103,1.00,-1.74,3.21,0.244,-3.109,-6.958,4.292
1708,-0.0045,0.0015,-0.0109,0.99,-1.69,3.26,0.244,-2.142,-8.404,3.978
1718,-0.0045,0.0015,-0.0109,0.99,-1.69,3.26,0.244,-1.919,-8.380,3.664
1729,-0.0015,0.0000,-0.0116,0.95,-1.62,3.30,0.244,-2.599,-8.749,3.541
1739,0.0066,-0.0022,-0.0129,0.92,-1.48,3.37,0.244,-4.524,-9.163,3.626
1748,0.0052,-0.0054,-0.0146,0.93,-1.47,3.37,0.244,-5.681,-9.395,3.248
1759,0.0103,-0.0082,-0.0158,0.85,-1.29,3.44,0.244,-5.489,-9.971,2.857
1768,0.0125,-0.0095,-0.0161,0.80,-1.20,3.47,0.244,-4.751,-9.609,2.527
1779,0.0185,-0.0118,-0.0162,0.82,-1.23,3.47,0.242,-4.779,-10.435,2.888
1788,0.0202,-0.0118,-0.0166,0.75,-1.13,3.50,0.242,-5.743,-10.743,2.854
1799,0.0236,-0.0116,-0.0205,0.70,-1.04,3.52,0.242,-5.165,-11.124,1.952
1808,0.0246,-0.0114,-0.0207,0.65,-0.94,3.55,0.242,-5.826,-11.227,2.185
1818,0.0255,-0.0130,-0.0210,0.59,-0.83,3.58,0.242,-5.450,-11.621,2.312
1829,0.0261,-0.0144,-0.0213,0.54,-0.72,3.60,0.242,-5.234,-11.800,1.951
1839,0.0247,-0.0157,-0.0216,0.49,-0.59,3.62,0.242,-6.639,-11.927,1.928
1848,0.0251,-0.0187,-0.0218,0.44,-0.47,3.64,0.242,-6.572,-11.540,1.423
1858,0.0305,-0.0194,-0.0219,0.39,-0.39,3.66,0.242,-6.761,-11.345,1.156
1869,0.0300,-0.0183,-0.0222,0.32,-0.26,3.68,0.242,-7.446,-11.077,0.817
1879,0.0305,-0.0188,-0.0220,0.26,-0.14,3.69,0.243,-6.279,-9.182,0.439
1888,0.0307,-0.0193,-0.0215,0.19,-0.03,3.70,0.243,-7.757,-8.748,0.444
1898,0.0355,-0.0192,-0.0167,0.12,0.05,3.71,0.243,-7.676,-9.185,0.814
1908,0.0366,-0.0212,-0.0167,0.06,0.15,3.72,0.243,-6.058,-7.268,1.041
1919,0.0363,-0.0213,-0.0164,-0.01,0.24,3.72,0.243,-7.482,-7.971,0.888
1928,0.0366,-0.0228,-0.0157,-0.15,0.40,3.74,0.243,-5.799,-7.744,0.435
1939,0.0359,-0.0210,-0.0157,-0.16,0.40,3.73,0.243,-6.810,-7.652,-0.138
1948,0.0340,-0.0222,-0.0112,-0.28,0.55,3.74,0.243,-5.918,-7.302,-0.762
1958,0.0353,-0.0221,-0.0112,-0.28,0.54,3.74,0.243,-4.968,-6.990,0.128
1969,0.0312,-0.0250,-0.0109,-0.37,0.69,3.75,0.243,-1.370,-6.701,-0.491
1978,0.0287,-0.0215,-0.0109,-0.39,0.71,3.75,0.238,-3.154,-6.304,-1.037
1988,0.0272,-0.0211,-0.0106,-0.44,0.79,3.74,0.238,0.977,-5.760,-1.716
1998,0.0276,-0.0227,-0.0176,-0.46,0.84,3.74,0.238,0.191,-3.719,-0.746
2009,0.0277,-0.0206,-0.0175,-0.50,0.90,3.74,0.238,-3.411,-3.683,-0.955
2019,0.0245,-0.0211,-0.0176,-0.50,0.97,3.72,0.238,-1.954,-2.581,-1.719
2028,0.0233,-0.0211,-0.0177,-0.50,1.02,3.71,0.238,-2.190,-1.132,-1.393
2038,0.0216,-0.0203,-0.0177,-0.53,1.05,3.70,0.238,-0.487,1.480,-1.773
2048,0.0206,-0.0218,-0.0199,-0.54,1.08,3.69,0.238,-0.162,2.375,-1.123
2058,0.0187,-0.0210,-0.0198,-0.57,1.09,3.68,0.238,-0.917,1.848,-2.297
2069,0.0168,-0.0230,-0.0196,-0.58,1.09,3.66,0.238,0.958,1.950,-2.108
2078,0.0148,-0.0222,-0.0195,-0.59,1.07,3.65,0.238,-0.460,1.833,-2.058
2088,0.0129,-0.0213,-0.0194,-0.59,1.05,3.63,0.241,-1.767,3.118,-1.004
2098,0.0110,-0.0204,-0.0115,-0.59,1.03,3.61,0.241,0.198,4.652,-2.117
2109,0.0092,-0.0195,-0.0113,-0.58,1.00,3.58,0.241,-0.739,4.464,-2.482
2118,0.0058,-0.0178,-0.0108,-0.61,0.98,3.57,0.241,-6.404,2.561,-2.060
2128,0.0048,-0.0199,-0.0104,-0.59,0.94,3.56,0.241,-2.651,4.301,-2.501
2138,-0.0022,-0.0182,-0.0100,-0.61,0.93,3.53,0.241,-2.394,2.126,-3.003
2148,-0.0039,-0.0173,-0.0040,-0.66,0.90,3.51,0.241,-1.012,4.515,-2.505
2158,-0.0065,-0.0155,-0.0036,-0.67,0.85,3.48,0.241,-2.630,3.285,-2.641
2168,-0.0080,-0.0145,-0.0032,-0.68,0.82,3.45,0.241,2.334,4.692,-2.878
2178,-0.0095,-0.0134,-0.0028,-0.70,0.79,3.42,0.241,0.001,5.123,-2.322
2188,-0.0118,-0.0135,-0.0022,-0.71,0.75,3.40,0.238,1.780,5.980,-1.814
2198,-0.0157,-0.0123,-0.0049,-0.70,0.73,3.37,0.238,1.804,7.448,-1.454
2208,-0.0170,-0.0112,-0.0045,-0.70,0.68,3.35,0.238,2.643,8.039,-1.606
2217,-0.0204,-0.0100,-0.0043,-0.68,0.63,3.33,0.238,3.243,9.301,-1.545
2228,-0.0216,-0.0089,-0.0038,-0.66,0.56,3.31,0.235,2.112,10.054,-0.749
2239,-0.0264,-0.0081,-0.0036,-0.64,0.50,3.30,0.235,3.418,10.788,-0.438
2247,-0.0266,-0.0072,-0.0114,-0.62,0.42,3.28,0.235,3.099,10.503,-0.317
2258,-0.0284,-0.0084,-0.0113,-0.58,0.33,3.27,0.235,3.895,10.900,-0.333
2268,-0.0300,-0.0078,-0.0111,-0.55,0.22,3.27,0.235,3.632,11.043,-0.273
2278,-0.0275,-0.0053,-0.0109,-0.51,0.10,3.26,0.235,3.187,10.098,-0.029
2288,-0.0269,-0.0049,-0.0105,-0.48,-0.01,3.26,0.234,4.834,10.478,0.134
2298,-0.0261,-0.0007,-0.0154,-0.46,-0.12,3.25,0.234,3.526,10.258,0.461
2308,-0.0271,-0.0005,-0.0151,-0.42,-0.22,3.25,0.234,1.840,9.978,0.952
2318,-0.0259,-0.0004,-0.0147,-0.39,-0.33,3.25,0.234,2.516,9.497,1.046
2328,-0.0254,0.0003,-0.0145,-0.35,-0.43,3.26,0.236,1.840,8.024,1.597
2337,-0.0241,0.0005,-0.0144,-0.33,-0.53,3.27,0.236,3.059,5.582,1.076
2349,-0.0266,0.0042,-0.0116,-0.33,-0.61,3.27,0.236,3.696,6.403,1.277
2358,-0.0271,0.0041,-0.0112,-0.30,-0.68,3.28,0.236,2.068,5.181,0.988
2368,-0.0260,0.0047,-0.0107,-0.28,-0.75,3.30,0.236,4.737,4.532,1.058
2377,-0.0284,0.0042,-0.0100,-0.25,-0.79,3.31,0.236,4.418,4.611,2.126
2388,-0.0290,0.0058,-0.0095,-0.23,-0.83,3.31,0.236,3.780,3.889,2.132
2397,-0.0259,0.0074,-0.0061,-0.19,-0.89,3.33,0.236,5.011,2.863,2.027
2408,-0.0246,0.0084,-0.0054,-0.15,-0.94,3.34,0.236,5.480,3.005,1.909
2418,-0.0230,0.0088,-0.0049,-0.10,-0.98,3.36,0.236,5.697,3.526,1.818
2427,-0.0213,0.0090,-0.0042,-0.05,-1.01,3.39,0.235,3.900,3.610,2.303
2438,-0.0196,0.0092,-0.0035,-0.00,-1.04,3.40,0.235,5.069,3.681,2.409
2448,-0.0186,0.0099,-0.0029,0.05,-1.07,3.42,0.235,4.999,3.109,3.733
2458,-0.0191,0.0086,-0.0021,0.11,-1.09,3.44,0.235,3.862,3.313,2.741
2468,-0.0121,0.0077,-0.0012,0.16,-1.16,3.47,0.235,4.165,1.372,3.658
2478,-0.0101,0.0076,-0.0003,0.21,-1.19,3.50,0.234,4.213,1.538,2.928
2488,-0.0091,0.0064,0.0005,0.26,-1.22,3.53,0.234,4.206,1.746,2.862
2498,-0.0089,0.0143,-0.0010,0.25,-1.23,3.57,0.234,3.510,0.458,3.526
2508,-0.0064,0.0148,-0.0004,0.30,-1.24,3.60,0.234,3.762,-1.202,3.663
2518,-0.0031,0.0040,0.0002,0.40,-1.26,3.63,0.234,2.460,-1.643,3.481
2527,-0.0009,0.0035,0.0005,0.44,-1.27,3.66,0.239,2.328,-3.174,3.411
2538,0.0013,0.0029,0.0007,0.48,-1.26,3.70,0.239,2.463,-4.882,4.002
2548,0.0053,0.0017,0.0110,0.51,-1.26,3.73,0.239,2.807,-4.699,3.834
2557,0.0064,0.0059,0.0115,0.51,-1.22,3.77,0.239,1.826,-5.519,3.880
2568,0.0096,0.0028,0.0121,0.55,-1.18,3.80,0.239,-0.894,-6.687,3.723
2577,0.0123,0.0035,0.0125,0.56,-1.14,3.84,0.235,-1.448,-6.546,3.533
2587,0.0128,0.0058,0.0129,0.56,-1.08,3.88,0.235,-3.824,-7.025,3.648
2598,0.0130,0.0083,0.0087,0.54,-1.00,3.91,0.235,-2.117,-7.836,4.315
2608,0.0147,0.0075,0.0089,0.54,-0.94,3.95,0.235,-3.435,-6.892,4.225
2618,0.0154,-0.0004,0.0089,0.56,-0.86,3.98,0.235,-1.948,-7.833,3.768
2627,0.0170,-0.0028,0.0087,0.55,-0.79,4.02,0.235,-2.296,-8.737,3.961
2638,0.0223,-0.0064,0.0087,0.54,-0.74,4.06,0.235,-1.970,-8.005,4.015
2648,0.0251,-0.0064,0.0052,0.52,-0.67,4.10,0.235,-0.581,-7.350,3.726
2658,0.0260,-0.0067,0.0054,0.49,-0.58,4.14,0.235,-0.153,-7.639,4.027
2667,0.0271,-0.0075,0.0054,0.47,-0.50,4.19,0.235,-1.008,-7.491,4.781
2678,0.0280,-0.0082,0.0053,0.46,-0.42,4.23,0.235,-4.130,-8.291,4.865
2687,0.0288,-0.0090,0.0054,0.45,-0.35,4.27,0.235,-2.785,-9.398,4.426
2697,0.0290,-0.0092,0.0031,0.43,-0.27,4.32,0.235,-6.322,-9.599,5.653
2708,0.0308,-0.0069,0.0031,0.38,-0.20,4.36,0.235,-6.074,-8.499,4.578
2717,0.0306,-0.0086,0.0030,0.35,-0.10,4.41,0.235,-3.572,-8.464,4.849
2727,0.0317,-0.0079,0.0029,0.30,-0.02,4.46,0.237,-5.178,-9.526,5.284
2738,0.0294,-0.0091,0.0029,0.25,0.08,4.51,0.237,-2.764,-8.999,5.282
2747,0.0305,-0.0082,0.0054,0.20,0.16,4.55,0.237,-2.854,-9.013,4.990
2757,0.0329,-0.0071,0.0055,0.14,0.24,4.60,0.237,-1.707,-7.556,5.685
2768,0.0325,-0.0074,0.0056,0.10,0.33,4.66,0.237,-2.282,-8.066,5.505
2777,0.0353,-0.0120,0.0057,0.09,0.40,4.71,0.238,-4.509,-7.896,6.428
2787,0.0343,-0.0148,0.0058,0.07,0.49,4.77,0.238,-0.705,-6.541,5.963
2798,0.0348,-0.0142,0.0088,0.03,0.56,4.83,0.238,-0.951,-6.164,5.506
2807,0.0348,-0.0129,0.0090,-0.00,0.63,4.89,0.238,-0.719,-5.829,5.963
2817,0.0318,-0.0141,0.0091,-0.01,0.71,4.95,0.238,-3.665,-4.716,6.469
2827,0.0304,-0.0142,0.0091,-0.04,0.77,5.01,0.236,-7.057,-5.432,6.638
2837,0.0310,-0.0169,0.0090,-0.03,0.82,5.07,0.236,-5.097,-5.239,6.090
2847,0.0278,-0.0177,0.0054,-0.07,0.88,5.13,0.236,-3.619,-3.587,5.996
2858,0.0298,-0.0174,0.0055,-0.12,0.92,5.20,0.236,-4.239,-3.631,6.603
2867,0.0230,-0.0164,0.0056,-0.19,1.00,5.26,0.236,-4.531,-3.923,6.690
2877,0.0213,-0.0162,0.0057,-0.23,1.03,5.32,0.234,-0.891,-1.775,5.990
2888,0.0195,-0.0160,0.0060,-0.27,1.07,5.39,0.234,-0.324,-1.142,5.689
2897,0.0239,-0.0175,-0.0012,-0.31,1.07,5.46,0.234,-1.892,-1.338,5.200
2907,0.0227,-0.0164,-0.0013,-0.33,1.08,5.52,0.234,-1.986,-0.612,5.697
2917,0.0126,-0.0161,-0.0014,-0.34,1.14,5.57,0.234,-3.477,-0.177,6.364
2927,0.0098,-0.0130,-0.0015,-0.37,1.16,5.62,0.236,-5.270,0.049,6.371
2937,0.0092,-0.0132,-0.0020,-0.39,1.16,5.68,0.236,-6.910,0.722,6.347
2947,0.0072,-0.0127,-0.0020,-0.43,1.16,5.74,0.236,-8.141,0.745,7.040
2957,0.0076,-0.0214,-0.0024,-0.43,1.15,5.80,0.236,-4.944,2.764,6.227
2968,0.0054,-0.0207,-0.0027,-0.49,1.14,5.86,0.236,-0.939,3.887,5.677
2978,0.0034,-0.0200,-0.0029,-0.57,1.13,5.93,0.236,-4.140,3.461,6.847
2987,0.0022,-0.0230,-0.0030,-0.60,1.10,5.99,0.237,-1.464,5.340,5.908
2997,-0.0011,-0.0213,-0.0003,-0.63,1.07,6.05,0.237,-0.321,5.987,5.925
3007,-0.0030,-0.0205,-0.0003,-0.66,1.03,6.12,0.237,2.480,5.828,5.520
3017,-0.0059,-0.0184,-0.0006,-0.69,0.99,6.18,0.237,-1.253,6.180,6.916
3027,-0.0083,-0.0171,-0.0011,-0.70,0.93,6.24,0.237,-2.416,6.474,6.517
3037,-0.0123,-0.0158,-0.0016,-0.68,0.88,6.29,0.237,-1.433,7.253,5.829
3047,-0.0144,-0.0143,-0.0001,-0.70,0.82,6.36,0.237,-4.098,7.529,6.893
3057,-0.0159,-0.0133,-0.0002,-0.71,0.75,6.42,0.237,-2.369,8.346,6.325
3067,-0.0174,-0.0115,-0.0005,-0.73,0.68,6.48,0.237,-2.532,6.587,6.342
3078,-0.0186,-0.0115,-0.0008,-0.76,0.60,6.55,0.236,-1.243,7.649,6.878
3087,-0.0197,-0.0103,-0.0010,-0.78,0.51,6.61,0.236,-1.862,8.277,6.708
3097,-0.0278,-0.0111,-0.0024,-0.80,0.49,6.67,0.236,-2.235,7.174,6.759
3108,-0.0288,-0.0099,-0.0024,-0.82,0.41,6.74,0.236,-2.307,6.108,7.124
3118,-0.0296,-0.0086,-0.0024,-0.83,0.33,6.80,0.236,0.952,8.018,7.341
3127,-0.0299,-0.0068,-0.0028,-0.85,0.26,6.87,0.237,1.504,7.655,7.282
3137,-0.0305,-0.0054,-0.0030,-0.86,0.19,6.93,0.237,0.468,7.216,7.540
3147,-0.0290,-0.0017,-0.0013,-0.87,0.10,7.01,0.237,4.842,8.530,7.022
3157,-0.0306,-0.0011,-0.0018,-0.86,0.03,7.08,0.237,3.426,7.768,7.535
3167,-0.0340,-0.0002,-0.0023,-0.84,-0.03,7.15,0.237,7.305,9.490,6.465
3177,-0.0342,0.0012,-0.0026,-0.80,-0.12,7.22,0.235,3.764,7.444,7.549
3187,-0.0335,0.0019,-0.0028,-0.76,-0.20,7.29,0.235,4.502,7.122,7.774
3197,-0.0325,0.0035,-0.0064,-0.70,-0.29,7.35,0.235,2.961,7.010,7.081
3207,-0.0341,0.0094,-0.0068,-0.67,-0.36,7.43,0.235,6.480,6.492,6.792
3217,-0.0336,0.0106,-0.0072,-0.63,-0.44,7.50,0.235,5.485,6.448,6.680
3227,-0.0330,0.0117,-0.0078,-0.60,-0.50,7.57,0.233,6.431,6.327,7.427
3237,-0.0336,0.0108,-0.0083,-0.53,-0.56,7.64,0.233,2.745,6.299,7.551
3247,-0.0321,0.0104,-0.0139,-0.45,-0.63,7.71,0.233,-1.089,4.360,7.383
3257,-0.0346,0.0111,-0.0144,-0.38,-0.68,7.78,0.233,4.349,4.268,6.113
3267,-0.0353,0.0127,-0.0151,-0.36,-0.73,7.85,0.233,3.935,2.901,6.449
3277,-0.0342,0.0135,-0.0157,-0.36,-0.77,7.93,0.233,1.759,2.465,7.844
3287,-0.0346,0.0126,-0.0158,-0.31,-0.81,7.99,0.233,3.998,2.676,6.868
3297,-0.0297,0.0144,-0.0177,-0.28,-0.86,8.06,0.233,6.439,4.102,6.303
3307,-0.0292,0.0175,-0.0182,-0.26,-0.89,8.13,0.233,3.942,2.312,7.345
3317,-0.0261,0.0183,-0.0187,-0.21,-0.93,8.20,0.233,6.739,3.706,6.917
3327,-0.0246,0.0188,-0.0190,-0.15,-0.97,8.27,0.234,6.389,3.689,6.915
3337,-0.0234,0.0179,-0.0191,-0.10,-0.99,8.34,0.234,9.696,3.187,6.926
3347,-0.0225,0.0200,-0.0156,-0.04,-1.02,8.41,0.234,10.149,2.623,7.282
3357,-0.0192,0.0199,-0.0155,0.04,-1.07,8.48,0.234,10.326,3.487,6.935
3367,-0.0162,0.0196,-0.0153,0.14,-1.11,8.54,0.234,5.146,2.145,6.929
3377,-0.0133,0.0193,-0.0153,0.25,-1.14,8.62,0.244,2.954,0.207,8.238
3387,-0.0113,0.0192,-0.0154,0.34,-1.17,8.69,0.244,4.841,-1.275,7.060
3397,-0.0087,0.0210,0.0111,0.38,-1.20,8.76,0.244,3.095,-1.979,7.984
3407,-0.0066,0.0207,0.0108,0.43,-1.20,8.84,0.244,3.151,-2.705,6.759
3417,-0.0064,0.0201,0.0108,0.49,-1.18,8.91,0.244,1.564,-3.644,6.442
3427,-0.0046,0.0203,0.0107,0.53,-1.16,8.99,0.230,0.790,-4.841,7.623
3437,-0.0032,0.0207,0.0107,0.54,-1.13,9.06,0.230,4.451,-4.663,6.797
3447,-0.0018,0.0203,-0.0068,0.56,-1.09,9.12,0.230,1.868,-6.917,8.189
3457,0.0009,0.0210,-0.0073,0.56,-1.04,9.20,0.230,2.896,-7.168,6.990
3467,0.0028,0.0204,-0.0078,0.60,-0.99,9.27,0.230,0.118,-7.839,7.540
3477,0.0089,0.0192,-0.0081,0.63,-0.95,9.35,0.230,2.575,-6.625,7.505
3487,0.0107,0.0184,-0.0084,0.66,-0.88,9.42,0.239,5.891,-6.211,6.539
3497,0.0154,0.0231,0.0021,0.64,-0.82,9.49,0.239,3.270,-7.343,7.516
3507,0.0173,0.0210,0.0021,0.68,-0.75,9.57,0.239,3.163,-7.189,7.673
3517,0.0188,0.0201,0.0021,0.73,-0.69,9.64,0.239,3.342,-5.959,7.170
3526,0.0201,0.0180,0.0018,0.77,-0.62,9.71,0.229,-0.235,-7.147,7.838
3538,0.0214,0.0159,0.0018,0.81,-0.54,9.79,0.229,1.162,-7.051,7.071
3547,0.0244,0.0141,-0.0130,0.84,-0.49,9.86,0.229,2.065,-6.293,7.607
3556,0.0270,0.0127,-0.0130,0.85,-0.43,9.93,0.229,1.626,-6.845,7.464
3567,0.0278,0.0108,-0.0132,0.86,-0.36,10.00,0.229,1.972,-7.676,6.530
3576,0.0296,0.0127,-0.0132,0.87,-0.30,10.08,0.236,0.751,-7.114,7.489
3587,0.0316,0.0127,-0.0131,0.88,-0.24,10.15,0.236,0.055,-7.618,6.952
3597,0.0318,0.0109,-0.0056,0.90,-0.16,10.21,0.236,1.921,-6.940,6.985
3607,0.0323,0.0095,-0.0053,0.91,-0.09,10.29,0.236,-0.714,-8.405,6.041
3617,0.0346,0.0046,-0.0049,0.94,-0.02,10.36,0.236,-1.762,-8.681,7.170
3627,0.0343,0.0028,-0.0046,0.95,0.06,10.42,0.227,-1.239,-7.757,6.945
3637,0.0356,0.0015,-0.0045,0.95,0.13,10.49,0.227,-1.658,-7.790,6.834
3646,0.0363,0.0004,-0.0186,0.94,0.23,10.56,0.227,-3.213,-8.071,6.596
3657,0.0387,-0.0002,-0.0185,0.92,0.29,10.63,0.227,-3.005,-7.594,6.095
3667,0.0380,-0.0032,-0.0183,0.91,0.38,10.70,0.227,-3.341,-7.096,6.869
3676,0.0368,-0.0042,-0.0179,0.88,0.46,10.77,0.235,-4.257,-7.286,7.689
3687,0.0376,-0.0065,-0.0176,0.85,0.53,10.83,0.235,-4.649,-7.265,7.355
3697,0.0363,-0.0073,-0.0058,0.80,0.61,10.90,0.235,-6.263,-7.155,7.427
3706,0.0387,-0.0106,-0.0051,0.78,0.66,10.98,0.235,-5.915,-6.416,7.601
3717,0.0378,-0.0122,-0.0046,0.73,0.74,11.05,0.235,-6.775,-6.566,7.309
3726,0.0380,-0.0136,-0.0042,0.68,0.81,11.13,0.225,-5.686,-5.650,8.303
3737,0.0369,-0.0150,-0.0040,0.62,0.88,11.20,0.225,-5.124,-4.963,8.158
3747,0.0352,-0.0163,-0.0188,0.55,0.94,11.28,0.225,-6.187,-5.056,8.315
3757,0.0356,-0.0189,-0.0183,0.49,0.99,11.36,0.225,-4.737,-3.114,8.274
3766,0.0364,-0.0231,-0.0178,0.46,1.03,11.44,0.225,-5.087,-2.418,8.777
3777,0.0330,-0.0243,-0.0172,0.40,1.09,11.53,0.225,-5.168,-2.084,9.071
3786,0.0323,-0.0286,-0.0167,0.37,1.12,11.61,0.232,-5.961,-1.674,8.942
3796,0.0306,-0.0279,-0.0070,0.31,1.14,11.70,0.232,-5.670,-1.585,9.236
3806,0.0289,-0.0270,-0.0064,0.25,1.16,11.79,0.232,-6.278,-0.216,9.917
3817,0.0225,-0.0269,-0.0057,0.19,1.20,11.88,0.232,-8.702,-0.176,9.298
3827,0.0214,-0.0272,-0.0049,0.12,1.21,11.97,0.221,-6.522,0.103,10.203
3836,0.0188,-0.0277,-0.0043,0.06,1.22,12.07,0.221,-8.150,1.062,9.995
3846,0.0144,-0.0262,-0.0220,-0.04,1.23,12.17,0.221,-8.185,1.587,10.335
3856,0.0143,-0.0293,-0.0214,-0.09,1.21,12.26,0.221,-7.614,2.013,10.417
3867,0.0121,-0.0291,-0.0206,-0.17,1.20,12.37,0.221,-9.260,3.161,11.364
3877,0.0113,-0.0349,-0.0198,-0.21,1.18,12.47,0.235,-8.737,3.179,10.782
3886,0.0092,-0.0342,-0.0189,-0.30,1.16,12.58,0.235,-6.557,3.681,12.177
3896,0.0072,-0.0337,0.0049,-0.39,1.13,12.69,0.235,-6.977,3.940,12.256
3907,0.0061,-0.0357,0.0061,-0.46,1.09,12.80,0.235,-5.564,3.624,12.305
3916,0.0026,-0.0335,0.0072,-0.55,1.07,12.92,0.235,-4.028,4.582,12.066
3926,-0.0020,-0.0332,0.0082,-0.61,1.05,13.05,0.222,-3.661,5.484,11.697
3936,-0.0063,-0.0329,0.0094,-0.67,1.02,13.17,0.222,-1.564,5.898,11.287
3947,-0.0071,-0.0319,-0.0054,-0.71,0.97,13.29,0.222,-1.639,6.603,12.105
3957,-0.0078,-0.0309,-0.0048,-0.75,0.90,13.41,0.222,-1.469,7.029,11.582
3966,-0.0079,-0.0316,-0.0041,-0.77,0.84,13.52,0.222,-1.426,8.493,12.469
3976,-0.0119,-0.0284,-0.0038,-0.81,0.78,13.65,0.222,-2.177,8.486,12.802
3987,-0.0135,-0.0274,-0.0034,-0.82,0.71,13.76,0.230,-1.185,8.890,12.599
3996,-0.0176,-0.0357,0.0055,-0.79,0.65,13.88,0.230,-1.472,9.639,12.950
4006,-0.0190,-0.0346,0.0060,-0.81,0.56,14.01,0.230,-3.032,9.847,12.276
4017,-0.0200,-0.0323,0.0065,-0.83,0.46,14.13,0.230,-3.205,9.887,12.628
4027,-0.0239,-0.0307,0.0072,-0.85,0.38,14.26,0.218,-1.050,10.731,12.481
4036,-0.0225,-0.0294,0.0078,-0.87,0.26,14.38,0.218,0.472,9.896,12.505
4046,-0.0249,-0.0306,-0.0129,-0.88,0.17,14.50,0.218,0.465,9.161,13.099
4056,-0.0238,-0.0260,-0.0121,-0.91,0.05,14.63,0.218,-1.374,9.750,13.399
4067,-0.0249,-0.0257,-0.0114,-0.90,-0.04,14.75,0.218,-1.256,9.444,12.634
4076,-0.0247,-0.0235,-0.0108,-0.90,-0.14,14.88,0.229,-0.064,9.454,12.987
4086,-0.0283,-0.0216,-0.0100,-0.91,-0.23,15.03,0.229,-0.350,8.789,13.702
4097,-0.0284,-0.0200,0.0035,-0.91,-0.33,15.16,0.229,1.012,8.531,13.495
4106,-0.0283,-0.0183,0.0044,-0.90,-0.43,15.29,0.229,0.413,7.289,13.992
4116,-0.0322,-0.0173,0.0054,-0.90,-0.49,15.42,0.229,0.004,6.233,14.209
4127,-0.0311,-0.0153,0.0064,-0.90,-0.58,15.56,0.217,1.352,5.582,14.271
4136,-0.0297,-0.0148,0.0075,-0.88,-0.65,15.69,0.217,1.951,5.713,13.803
4146,-0.0309,-0.0102,-0.0109,-0.89,-0.70,15.84,0.217,5.072,5.765,14.058
4156,-0.0302,-0.0084,-0.0101,-0.87,-0.76,15.98,0.217,3.873,5.397,13.385
4166,-0.0291,-0.0067,-0.0094,-0.85,-0.82,16.12,0.217,3.897,6.198,13.805
4176,-0.0278,-0.0053,-0.0085,-0.81,-0.88,16.26,0.230,4.071,5.805,14.454
4187,-0.0285,-0.0031,-0.0076,-0.78,-0.93,16.40,0.230,4.908,5.751,14.227
4196,-0.0259,0.0002,0.0124,-0.75,-1.00,16.53,0.230,4.755,4.526,14.768
4206,-0.0258,-0.0001,0.0133,-0.70,-1.04,16.68,0.230,6.035,4.014,15.010
4216,-0.0244,0.0016,0.0146,-0.65,-1.09,16.82,0.230,5.969,3.179,14.860
4226,-0.0229,0.0022,0.0161,-0.58,-1.14,16.96,0.218,6.686,3.806,15.399
4236,-0.0202,0.0047,0.0172,-0.52,-1.18,17.11,0.218,7.179,2.886,15.373
4246,-0.0187,0.0047,0.0006,-0.44,-1.21,17.26,0.218,5.741,2.140,15.544
4256,-0.0170,0.0099,0.0011,-0.40,-1.26,17.41,0.218,6.874,1.883,16.108
4267,-0.0153,0.0096,0.0014,-0.32,-1.29,17.57,0.218,7.269,-0.043,15.946
4277,-0.0109,0.0102,0.0018,-0.25,-1.32,17.73,0.218,6.472,-0.619,16.128
4286,-0.0096,0.0097,0.0025,-0.17,-1.33,17.89,0.229,5.692,-1.548,16.275
4296,-0.0079,0.0126,0.0172,-0.11,-1.32,18.05,0.229,6.660,-2.332,16.259
4306,-0.0040,0.0128,0.0178,-0.04,-1.32,18.21,0.229,5.525,-3.658,17.198
4316,-0.0018,0.0136,0.0184,0.02,-1.30,18.38,0.229,7.202,-3.505,16.565
4326,0.0003,0.0143,0.0191,0.09,-1.28,18.54,0.222,4.509,-6.073,17.180
4336,0.0024,0.0148,0.0198,0.15,-1.24,18.71,0.222,6.224,-6.378,16.783
4346,0.0045,0.0152,0.0114,0.22,-1.20,18.88,0.222,5.194,-6.736,17.331
4356,0.0033,0.0316,0.0120,0.16,-1.14,19.05,0.222,2.340,-7.849,18.160
4366,0.0051,0.0281,0.0125,0.24,-1.07,19.22,0.222,6.633,-6.702,17.095
4376,0.0045,0.0310,0.0131,0.27,-0.99,19.39,0.222,4.021,-6.904,17.663
4386,0.0089,0.0289,0.0136,0.33,-0.92,19.57,0.230,3.477,-8.132,18.077
4396,0.0129,0.0279,0.0245,0.41,-0.86,19.75,0.230,5.120,-7.150,17.904
4406,0.0127,0.0276,0.0250,0.44,-0.78,19.93,0.230,8.353,-7.062,17.965
4416,0.0145,0.0259,0.0254,0.49,-0.70,20.11,0.230,10.427,-7.536,17.539
4427,0.0157,0.0258,0.0257,0.55,-0.62,20.28,0.222,7.810,-7.315,17.663
4436,0.0154,0.0244,0.0260,0.64,-0.54,20.46,0.222,6.837,-5.766,18.268
4446,0.0186,0.0222,0.0128,0.76,-0.47,20.64,0.222,9.430,-4.960,18.031
4456,0.0216,0.0205,0.0128,0.84,-0.41,20.82,0.222,2.527,-5.467,18.777
4466,0.0266,0.0226,0.0129,0.91,-0.37,21.00,0.222,4.145,-6.348,18.357
4476,0.0261,0.0208,0.0130,1.00,-0.31,21.18,0.222,1.944,-5.566,18.699
4486,0.0267,0.0200,0.0129,1.03,-0.24,21.39,0.235,3.624,-5.174,17.993
4496,0.0316,0.0175,0.0317,1.07,-0.20,21.58,0.235,-1.747,-6.242,20.180
4506,0.0304,0.0161,0.0315,1.10,-0.12,21.76,0.235,-2.521,-7.264,19.749
4516,0.0303,0.0119,0.0316,1.13,-0.06,21.95,0.235,0.907,-7.846,19.586
4527,0.0316,0.0122,0.0318,1.11,0.01,22.14,0.227,-2.250,-9.280,19.680
4536,0.0323,0.0105,0.0320,1.09,0.08,22.34,0.227,-1.042,-9.661,19.301
4546,0.0328,0.0087,0.0222,1.09,0.17,22.53,0.227,-3.806,-10.441,19.559
4556,0.0383,0.0097,0.0218,1.05,0.23,22.73,0.227,-2.552,-8.648,20.006
4567,0.0368,0.0055,0.0215,1.05,0.35,22.92,0.227,-3.620,-9.748,19.657
4576,0.0338,0.0084,0.0212,0.98,0.46,23.12,0.227,-4.134,-8.911,20.518
4586,0.0350,0.0058,0.0210,0.97,0.55,23.31,0.239,-7.137,-8.814,20.298
4596,0.0345,0.0026,0.0395,0.94,0.65,23.51,0.239,-5.157,-7.604,20.403
4607,0.0337,-0.0001,0.0391,0.88,0.74,23.71,0.239,-6.777,-7.612,20.401
4616,0.0336,-0.0005,0.0387,0.81,0.83,23.92,0.239,-2.957,-5.853,20.008
4626,0.0327,-0.0030,0.0381,0.75,0.90,24.12,0.229,-5.096,-5.021,20.404
4636,0.0302,-0.0058,0.0376,0.69,0.99,24.32,0.229,-4.170,-3.782,20.012
4645,0.0306,-0.0071,0.0218,0.64,1.04,24.52,0.229,-3.643,-3.029,20.487
4656,0.0295,-0.0089,0.0210,0.59,1.09,24.73,0.229,-5.967,-3.084,20.400
4666,0.0279,-0.0092,0.0203,0.53,1.12,24.93,0.229,-5.612,-2.789,20.106
4676,0.0265,-0.0096,0.0195,0.48,1.15,25.13,0.239,-3.559,-2.032,20.086
4686,0.0251,-0.0112,0.0187,0.42,1.19,25.33,0.239,-4.608,-1.053,20.113
4696,0.0242,-0.0163,0.0285,0.38,1.22,25.54,0.239,-5.960,-1.620,20.193
4706,0.0256,-0.0184,0.0280,0.34,1.22,25.74,0.239,-4.638,0.267,20.523
4716,0.0179,-0.0159,0.0274,0.24,1.26,25.95,0.239,-6.196,0.850,21.329
4726,0.0229,-0.0247,0.0265,0.24,1.25,26.15,0.228,-6.042,0.074,20.978
4735,0.0215,-0.0274,0.0258,0.19,1.25,26.35,0.228,-6.242,1.317,21.037
4745,0.0198,-0.0284,0.0049,0.12,1.25,26.56,0.228,-4.542,2.667,21.080
4756,0.0184,-0.0306,0.0041,0.07,1.24,26.77,0.228,-6.984,3.309,21.463
4766,0.0166,-0.0317,0.0033,0.01,1.23,26.98,0.228,-7.277,3.830,21.202
4775,0.0149,-0.0322,0.0027,-0.04,1.20,27.19,0.232,-6.281,2.999,21.697
4786,0.0148,-0.0317,0.0024,-0.11,1.15,27.41,0.232,-11.253,3.825,22.109
4797,0.0118,-0.0360,-0.0023,-0.17,1.13,27.62,0.232,-10.488,4.937,22.639
4805,0.0080,-0.0351,-0.0027,-0.27,1.10,27.84,0.232,-11.380,4.776,22.756
4816,0.0071,-0.0355,-0.0030,-0.39,1.06,28.07,0.232,-7.924,4.038,22.530
4827,0.0028,-0.0361,-0.0030,-0.50,1.02,28.29,0.235,-8.162,4.107,22.513
4836,0.0005,-0.0369,-0.0030,-0.61,0.98,28.52,0.235,-6.942,1.826,23.009
4846,-0.0022,-0.0331,0.0012,-0.71,0.93,28.74,0.235,-5.561,2.789,22.367
4856,-0.0017,-0.0383,0.0012,-0.75,0.90,28.97,0.235,-5.528,3.000,23.620
4866,-0.0054,-0.0364,0.0013,-0.85,0.88,29.20,0.235,-9.057,3.241,23.414
4876,-0.0057,-0.0367,0.0013,-0.90,0.84,29.43,0.235,-4.368,5.051,23.082
4886,-0.0094,-0.0370,0.0013,-0.95,0.82,29.66,0.232,-4.251,4.901,23.664
4895,-0.0114,-0.0363,-0.0027,-1.03,0.77,29.89,0.232,-4.704,6.552,24.152
4905,-0.0143,-0.0375,-0.0027,-1.09,0.73,30.15,0.232,-2.530,5.920,24.491
4915,-0.0168,-0.0353,-0.0027,-1.14,0.67,30.39,0.232,-3.782,7.244,25.101
4926,-0.0206,-0.0336,-0.0025,-1.20,0.60,30.64,0.245,-1.720,8.064,25.128
4936,-0.0240,-0.0322,-0.0022,-1.24,0.54,30.88,0.245,-2.380,7.819,25.330
4945,-0.0277,-0.0307,0.0237,-1.28,0.47,31.13,0.245,-1.383,8.844,25.456
4956,-0.0265,-0.0266,0.0239,-1.32,0.36,31.38,0.245,-2.354,9.942,24.862
4966,-0.0335,-0.0274,0.0238,-1.36,0.31,31.64,0.245,0.359,10.321,25.378
4976,-0.0367,-0.0244,0.0240,-1.38,0.22,31.89,0.231,-1.639,10.720,26.642
4986,-0.0381,-0.0236,0.0244,-1.40,0.12,32.14,0.231,-0.509,10.667,26.633
4995,-0.0393,-0.0217,0.0053,-1.41,0.01,32.39,0.231,2.333,10.880,25.995
5005,-0.0410,-0.0196,0.0054,-1.42,-0.11,32.66,0.231,0.675,10.447,26.935
5016,-0.0424,-0.0177,0.0054,-1.41,-0.22,32.91,0.231,2.038,11.643,26.710
5025,-0.0414,-0.0130,0.0054,-1.40,-0.36,33.17,0.245,5.624,12.495,25.774
5035,-0.0476,-0.0149,0.0054,-1.38,-0.43,33.44,0.245,4.736,11.730,26.493
5046,-0.0506,-0.0068,0.0249,-1.39,-0.56,33.70,0.245,4.994,11.309,26.574
5056,-0.0491,-0.0046,0.0246,-1.33,-0.70,33.96,0.245,5.820,10.842,26.963
5065,-0.0492,-0.0055,0.0244,-1.25,-0.81,34.22,0.245,3.293,9.043,27.708
5076,-0.0474,-0.0032,0.0243,-1.19,-0.94,34.48,0.230,4.555,8.221,28.338
5086,-0.0478,-0.0007,0.0240,-1.14,-1.05,34.75,0.230,6.096,8.175,28.092
5095,-0.0451,0.0031,-0.0016,-1.08,-1.16,35.02,0.230,6.415,8.462,28.081
5105,-0.0457,0.0086,-0.0021,-1.03,-1.25,35.30,0.230,7.861,9.419,28.112
5116,-0.0402,0.0085,-0.0026,-0.93,-1.36,35.58,0.230,11.370,9.999,27.453
5125,-0.0450,0.0065,-0.0030,-0.83,-1.42,35.86,0.237,11.175,8.463,27.116
5136,-0.0445,0.0138,-0.0035,-0.76,-1.53,36.14,0.237,9.004,6.154,28.299
5145,-0.0435,0.0150,-0.0017,-0.65,-1.61,36.41,0.237,5.970,3.618,28.788
5156,-0.0422,0.0159,-0.0019,-0.54,-1.68,36.69,0.237,7.878,3.336,28.937
5165,-0.0405,0.0184,-0.0019,-0.45,-1.73,36.97,0.237,7.769,2.641,28.975
5175,-0.0407,0.0204,-0.0016,-0.38,-1.76,37.26,0.239,7.668,0.503,29.206
5186,-0.0381,0.0240,-0.0015,-0.28,-1.81,37.55,0.239,7.853,-0.346,29.749
5196,-0.0398,0.0325,0.0047,-0.24,-1.83,37.84,0.239,9.051,-1.392,29.847
5206,-0.0375,0.0348,0.0052,-0.14,-1.84,38.13,0.239,8.827,-0.697,28.548
5215,-0.0375,0.0401,0.0056,-0.08,-1.82,38.43,0.239,5.606,-1.259,30.113
5226,-0.0351,0.0421,0.0059,0.01,-1.82,38.72,0.231,9.932,-0.375,29.243
5235,-0.0316,0.0452,0.0059,0.10,-1.82,39.01,0.231,7.975,-1.457,30.069
5245,-0.0291,0.0468,-0.0082,0.19,-1.81,39.31,0.231,8.051,-1.677,30.581
5255,-0.0273,0.0571,-0.0083,0.23,-1.82,39.60,0.231,9.510,-0.485,30.321
5265,-0.0264,0.0572,-0.0081,0.33,-1.79,39.90,0.231,10.358,-0.692,30.957
5276,-0.0264,0.0608,-0.0079,0.42,-1.78,40.21,0.237,12.100,-1.011,31.115
5286,-0.0216,0.0614,-0.0076,0.55,-1.78,40.51,0.237,13.399,-1.949,30.219
5295,-0.0193,0.0620,-0.0020,0.67,-1.76,40.82,0.237,11.950,-2.943,31.230
5305,-0.0163,0.0631,-0.0016,0.80,-1.74,41.13,0.237,13.290,-2.555,31.260
5316,-0.0098,0.0661,-0.0012,0.95,-1.74,41.44,0.237,14.474,-4.910,31.097
5325,-0.0074,0.0657,-0.0007,1.10,-1.69,41.78,0.228,13.762,-5.108,30.880
5335,-0.0039,0.0635,-0.0002,1.26,-1.64,42.09,0.228,12.576,-5.972,31.466
5345,-0.0016,0.0666,-0.0157,1.38,-1.59,42.40,0.228,14.235,-6.324,31.027
5355,0.0018,0.0661,-0.0151,1.52,-1.53,42.71,0.228,12.493,-6.169,30.951
5365,0.0050,0.0678,-0.0145,1.64,-1.46,43.02,0.228,12.693,-8.051,30.465
5375,0.0094,0.0654,-0.0138,1.78,-1.38,43.33,0.228,10.485,-7.780,31.103
5385,0.0147,0.0642,-0.0132,1.91,-1.31,43.64,0.243,10.577,-10.037,31.206
5395,0.0190,0.0666,0.0136,2.02,-1.23,43.94,0.243,6.349,-11.174,30.921
5405,0.0225,0.0685,0.0143,2.11,-1.13,44.24,0.243,7.066,-11.354,31.229
5415,0.0313,0.0574,0.0150,2.26,-1.00,44.56,0.243,4.480,-11.085,30.880
5425,0.0327,0.0602,0.0159,2.30,-0.88,44.86,0.229,3.489,-12.507,31.154
5435,0.0371,0.0572,0.0166,2.36,-0.75,45.17,0.229,2.053,-13.572,31.819
5445,0.0430,0.0563,-0.0008,2.39,-0.63,45.48,0.229,2.121,-14.511,32.071
5455,0.0444,0.0531,-0.0003,2.42,-0.47,45.78,0.229,-0.825,-14.850,31.900
5466,0.0484,0.0499,0.0001,2.46,-0.32,46.09,0.229,-0.273,-14.727,31.729
5475,0.0518,0.0474,0.0006,2.47,-0.16,46.40,0.231,1.999,-15.109,31.627
5485,0.0585,0.0487,0.0009,2.47,-0.03,46.71,0.231,-2.199,-15.013,31.581
5496,0.0601,0.0451,-0.0052,2.47,0.14,47.02,0.231,-4.165,-15.945,32.786
5505,0.0638,0.0438,-0.0049,2.44,0.30,47.33,0.231,-3.683,-15.517,32.724
5515,0.0642,0.0367,-0.0046,2.43,0.50,47.65,0.231,-3.448,-16.003,32.730
5525,0.0713,0.0380,-0.0045,2.39,0.63,47.96,0.242,-4.074,-17.436,32.858
5535,0.0714,0.0345,-0.0043,2.32,0.82,48.28,0.242,-6.037,-16.097,33.433
5545,0.0719,0.0309,0.0160,2.26,1.01,48.61,0.242,-5.055,-16.298,33.084
5555,0.0739,0.0272,0.0160,2.20,1.18,48.93,0.242,-5.742,-15.089,33.079
5566,0.0768,0.0184,0.0158,2.17,1.37,49.25,0.242,-7.404,-15.006,33.740
5575,0.0777,0.0172,0.0160,2.08,1.54,49.58,0.242,-8.854,-14.470,33.952
5585,0.0800,0.0127,0.0162,2.03,1.69,49.90,0.231,-7.405,-13.450,33.500
5595,0.0842,0.0101,0.0021,1.94,1.83,50.23,0.231,-6.809,-13.305,33.827
5605,0.0848,0.0056,0.0019,1.85,1.98,50.56,0.231,-8.329,-13.148,34.397
5615,0.0848,0.0005,0.0017,1.76,2.13,50.90,0.231,-5.423,-11.177,34.121
5626,0.0827,-0.0049,0.0012,1.68,2.28,51.23,0.229,-10.689,-10.766,34.738
5635,0.0858,-0.0125,0.0003,1.61,2.41,51.57,0.229,-11.121,-10.390,34.113
5646,0.0865,-0.0180,-0.0121,1.52,2.53,51.91,0.229,-9.374,-10.253,33.992
5655,0.0894,-0.0250,-0.0128,1.44,2.64,52.25,0.229,-11.565,-9.390,33.937
5665,0.0846,-0.0282,-0.0132,1.30,2.76,52.59,0.229,-16.100,-10.320,34.830
5675,0.0856,-0.0337,-0.0137,1.17,2.86,52.93,0.240,-13.692,-10.291,34.267
5685,0.0804,-0.0364,-0.0142,0.97,2.97,53.27,0.240,-17.675,-9.967,34.283
5695,0.0802,-0.0432,0.0042,0.83,3.08,53.62,0.240,-20.431,-7.849,34.361
5705,0.0781,-0.0483,0.0041,0.65,3.18,53.96,0.240,-18.551,-8.435,34.921
5715,0.0758,-0.0552,0.0038,0.46,3.28,54.30,0.240,-21.504,-8.621,35.291
5725,0.0723,-0.0570,0.0034,0.23,3.35,54.64,0.232,-22.096,-7.540,35.291
5735,0.0705,-0.0639,0.0026,0.01,3.44,54.99,0.232,-22.110,-6.779,35.644
5745,0.0668,-0.0699,-0.0052,-0.24,3.53,55.38,0.232,-20.276,-5.944,34.715
5755,0.0639,-0.0737,-0.0056,-0.49,3.59,55.74,0.232,-19.321,-4.177,35.305
5765,0.0581,-0.0754,-0.0061,-0.75,3.64,56.09,0.232,-18.414,-1.943,35.863
5775,0.0536,-0.0798,-0.0067,-0.98,3.68,56.45,0.231,-18.078,-0.882,35.431
5785,0.0495,-0.0875,-0.0076,-1.18,3.71,56.80,0.231,-17.271,1.642,35.396
5795,0.0472,-0.0918,-0.0143,-1.38,3.71,57.15,0.231,-18.492,3.571,35.520
5805,0.0438,-0.0970,-0.0149,-1.59,3.70,57.50,0.231,-15.125,6.774,34.823
5815,0.0381,-0.1009,-0.0155,-1.79,3.65,57.85,0.231,-16.183,7.983,35.175
5825,0.0313,-0.1084,-0.0162,-1.96,3.61,58.19,0.234,-16.748,8.854,34.639
5835,0.0243,-0.1072,-0.0166,-2.17,3.50,58.54,0.234,-13.879,11.967,34.492
5845,0.0219,-0.1141,-0.0124,-2.30,3.41,58.87,0.234,-16.413,11.545,34.212
5855,0.0170,-0.1151,-0.0127,-2.46,3.27,59.21,0.234,-12.928,13.252,33.946
5865,0.0085,-0.1187,-0.0129,-2.65,3.15,59.55,0.234,-12.260,14.777,33.704
5875,0.0013,-0.1170,-0.0129,-2.83,2.99,59.89,0.232,-12.030,16.501,33.012
5886,-0.0023,-0.1162,-0.0130,-2.85,2.83,60.23,0.232,-14.911,17.186,32.205
5895,-0.0089,-0.1209,-0.0134,-2.98,2.85,60.22,0.232,-12.136,19.202,31.844
5905,-0.0166,-0.1242,-0.0133,-3.12,2.68,60.55,0.232,-13.153,19.849,31.814
5915,-0.0221,-0.1193,-0.0129,-3.29,2.45,60.87,0.232,-10.623,20.827,31.908
5925,-0.0337,-0.1297,-0.0130,-3.43,2.31,61.17,0.232,-9.161,21.909,31.502
5935,-0.0464,-0.1253,-0.0120,-3.72,1.84,61.79,0.232,-8.580,22.881,32.252
5944,-0.0522,-0.1251,-0.0099,-3.82,1.60,62.08,0.232,-9.562,22.265,32.575
5955,-0.0506,-0.1195,-0.0098,-3.83,1.57,62.09,0.232,-7.288,22.588,31.353
5965,-0.0642,-0.1169,-0.0084,-4.02,1.07,62.70,0.232,-3.356,23.379,30.870
5975,-0.0679,-0.1225,-0.0086,-4.02,1.12,62.69,0.241,-6.903,24.312,31.820
5985,-0.0741,-0.1148,-0.0080,-4.10,0.83,63.00,0.241,-3.660,24.181,30.218
5995,-0.0840,-0.1182,0.0141,-4.16,0.61,63.29,0.241,-7.310,26.432,31.227
6004,-0.0916,-0.1139,0.0149,-4.22,0.34,63.59,0.241,-3.948,26.660,29.708
6014,-0.0992,-0.1109,0.0156,-4.27,0.08,63.88,0.241,-3.991,26.444,30.311
6025,-0.1052,-0.1079,0.0161,-4.34,-0.20,64.16,0.229,-1.542,27.386,30.440
6035,-0.1134,-0.1033,0.0163,-4.39,-0.49,64.45,0.229,-3.048,27.508,30.098
6045,-0.1195,-0.0936,0.0011,-4.45,-0.81,64.74,0.229,-2.466,28.150,29.663
6056,-0.1297,-0.0954,0.0014,-4.46,-1.05,65.01,0.229,-1.003,27.361,29.935
6065,-0.1358,-0.0887,0.0015,-4.47,-1.36,65.29,0.229,2.101,27.331,29.107
6075,-0.1426,-0.0845,0.0014,-4.47,-1.65,65.56,0.230,5.008,27.796,28.811
6085,-0.1464,-0.0781,0.0014,-4.45,-1.96,65.84,0.230,6.392,27.156,28.569
6095,-0.1593,-0.0644,-0.0061,-4.39,-2.55,66.38,0.230,6.175,27.720,29.001
6105,-0.1589,-0.0631,-0.0061,-4.39,-2.56,66.38,0.230,7.072,27.679,28.756
6115,-0.1710,-0.0500,-0.0063,-4.25,-3.14,66.91,0.230,8.178,27.749,28.661
6125,-0.1702,-0.0459,-0.0064,-4.26,-3.16,66.92,0.241,10.660,27.959,28.311
6134,-0.1844,-0.0335,-0.0073,-4.09,-3.73,67.44,0.241,12.723,28.029,28.244
6144,-0.1805,-0.0284,0.0128,-4.07,-3.77,67.46,0.241,14.750,28.469,27.299
6155,-0.1908,-0.0063,0.0119,-3.86,-4.38,68.00,0.241,16.494,27.581,27.587
6165,-0.1897,-0.0100,0.0121,-3.85,-4.37,67.99,0.241,17.272,27.254,27.110
6174,-0.1940,-0.0012,0.0118,-3.68,-4.69,68.27,0.229,20.465,27.359,26.757
6185,-0.1918,0.0123,0.0112,-3.48,-5.02,68.54,0.229,21.333,27.091,27.178
6195,-0.1952,0.0232,-0.0051,-3.30,-5.31,68.80,0.229,22.320,25.739,27.576
6205,-0.2004,0.0350,-0.0061,-3.09,-5.60,69.05,0.229,24.614,24.530,27.321
6215,-0.1944,0.0442,-0.0068,-2.81,-5.90,69.32,0.229,26.102,23.148,26.606
6225,-0.2019,0.0585,-0.0087,-2.60,-6.17,69.57,0.230,27.018,21.660,27.565
6235,-0.1935,0.0699,-0.0096,-2.28,-6.46,69.85,0.230,28.284,18.267,27.540
6245,-0.1989,0.0797,-0.0171,-2.02,-6.69,70.10,0.230,29.396,16.384,27.589
6255,-0.1962,0.0898,-0.0183,-1.70,-6.91,70.36,0.230,31.834,15.015,26.921
6265,-0.1955,0.1005,-0.0192,-1.38,-7.11,70.63,0.230,30.130,12.793,27.714
6274,-0.1909,0.1124,-0.0201,-1.04,-7.30,70.91,0.230,32.893,11.376,27.439
6285,-0.1905,0.1270,-0.0213,-0.71,-7.47,71.18,0.242,33.287,8.954,28.042
6294,-0.1858,0.1396,0.0040,-0.34,-7.60,71.47,0.242,35.529,6.159,26.548
6304,-0.1870,0.1555,0.0030,-0.01,-7.73,71.73,0.242,34.746,4.461,27.495
6314,-0.1789,0.1692,0.0023,0.37,-7.84,72.03,0.242,38.080,4.065,27.060
6325,-0.1796,0.1822,0.0015,0.72,-7.90,72.28,0.224,35.380,1.817,27.765
6334,-0.1662,0.1885,0.0014,1.17,-7.93,72.58,0.224,39.586,0.538,27.459
6345,-0.1541,0.2069,-0.0254,1.98,-7.95,73.12,0.224,43.058,0.231,26.791
6355,-0.1541,0.2069,-0.0254,1.98,-7.95,73.12,0.224,40.996,-0.458,28.267
6365,-0.1516,0.2257,-0.0266,2.35,-7.98,73.38,0.224,40.925,-1.194,28.075
6375,-0.1381,0.2332,-0.0267,2.86,-7.95,73.67,0.224,42.947,-2.454,28.655
6385,-0.1228,0.2242,-0.0251,3.40,-7.83,73.98,0.226,43.148,-4.109,28.530
6395,-0.1162,0.2291,-0.0331,3.84,-7.76,74.25,0.226,41.887,-6.933,28.390
6405,-0.1050,0.2389,-0.0327,4.32,-7.71,74.54,0.226,39.718,-9.484,28.975
6415,-0.0965,0.2536,-0.0324,4.77,-7.67,74.81,0.226,38.583,-11.450,28.329
6425,-0.0841,0.2586,-0.0314,5.25,-7.56,75.10,0.226,37.503,-14.589,27.676
6434,-0.0711,0.2643,-0.0302,5.71,-7.42,75.39,0.226,36.384,-16.843,28.556
6445,-0.0540,0.2326,-0.0290,6.26,-7.04,75.73,0.226,31.202,-20.930,29.174
6454,-0.0398,0.2385,-0.0278,6.70,-6.85,76.00,0.226,29.364,-23.334,27.629
6464,-0.0226,0.2367,-0.0262,7.12,-6.60,76.29,0.226,27.526,-25.360,28.722
6474,-0.0031,0.2334,-0.0246,7.53,-6.30,76.60,0.226,24.414,-27.451,28.276
6484,0.0124,0.2411,-0.0229,7.85,-6.03,76.85,0.223,18.775,-29.230,28.760
6494,0.0324,0.2348,-0.0274,8.21,-5.68,77.14,0.223,16.571,-31.364,28.703
6504,0.0525,0.2300,-0.0257,8.53,-5.31,77.43,0.223,13.241,-33.339,29.104
6515,0.0664,0.2714,-0.0256,8.67,-5.20,77.57,0.223,9.316,-35.604,29.299
6524,0.0810,0.2810,-0.0240,8.83,-4.88,77.79,0.227,10.711,-38.094,28.329
6534,0.0987,0.2808,-0.0222,9.01,-4.48,78.04,0.227,3.599,-41.844,28.966
6544,0.1132,0.2877,-0.0127,9.10,-4.09,78.25,0.227,8.529,-44.029,28.652
6554,0.1339,0.2848,-0.0114,9.25,-3.64,78.52,0.227,7.994,-49.493,29.953
6564,0.1486,0.2879,-0.0099,9.30,-3.19,78.72,0.227,12.406,-51.681,28.983
6574,0.1708,0.2815,-0.0077,9.42,-2.62,79.01,0.232,12.907,-54.716,29.302
6584,0.1849,0.2837,-0.0054,9.48,-2.09,79.21,0.232,17.233,-56.003,29.863
6594,0.2071,0.2947,0.0119,9.60,-1.60,79.40,0.232,19.389,-57.688,30.622
6604,0.2204,0.2849,0.0141,9.73,-0.95,79.62,0.232,21.559,-58.555,30.605
6614,0.2341,0.2836,0.0159,9.86,-0.35,79.81,0.232,24.555,-58.696,31.515
6625,0.2512,0.2894,0.0165,10.04,0.21,79.97,0.238,21.259,-59.341,31.289
6634,0.2643,0.2765,0.0176,10.22,0.91,80.21,0.238,18.396,-60.071,31.912
6644,0.2878,0.2801,0.0377,10.47,1.50,80.40,0.238,20.927,-57.954,31.824
6654,0.3074,0.2770,0.0367,10.68,2.12,80.59,0.238,18.458,-58.348,30.808
6664,0.3248,0.2706,0.0354,10.87,2.76,80.79,0.238,10.442,-56.698,32.486
6674,0.3394,0.2559,0.0341,11.05,3.45,81.03,0.240,5.611,-57.411,32.302
6684,0.3588,0.2527,0.0314,11.22,4.05,81.20,0.240,4.515,-56.359,32.415
6694,0.3735,0.2305,0.0410,11.31,4.77,81.48,0.240,2.337,-58.614,32.811
6705,0.3948,0.2485,0.0375,11.35,5.20,81.53,0.240,-0.307,-60.034,33.457
6715,0.4079,0.2325,0.0339,11.37,5.86,81.76,0.240,-4.281,-61.051,32.986
6724,0.4334,0.2116,0.0275,11.42,6.55,82.03,0.238,-4.921,-63.008,33.430
6734,0.4466,0.1912,0.0222,11.38,7.26,82.28,0.238,-9.496,-61.983,33.247
6744,0.4707,0.1680,0.0119,11.38,7.98,82.54,0.238,-10.121,-63.079,34.056
6754,0.4878,0.1407,0.0040,11.31,8.74,82.83,0.238,-9.335,-65.303,33.096
6764,0.5093,0.1202,-0.0048,11.22,9.44,83.06,0.238,-14.177,-65.183,34.686
6774,0.5232,0.0924,-0.0132,11.07,10.20,83.35,0.244,-17.299,-65.517,34.511
6784,0.5456,0.0695,-0.0235,10.98,10.94,83.58,0.244,-21.855,-66.158,34.674
6795,0.5563,0.0473,-0.0206,10.75,11.68,83.85,0.244,-27.761,-64.758,34.883
6804,0.5818,0.0236,-0.0331,10.61,12.40,84.07,0.244,-35.970,-62.617,34.707
6814,0.5903,-0.0005,-0.0437,10.31,13.14,84.34,0.244,-43.136,-61.812,34.446
6824,0.5975,-0.0246,-0.0542,9.95,13.87,84.62,0.238,-50.403,-61.000,34.685
6834,0.6203,-0.0434,-0.0672,9.60,14.51,84.80,0.238,-57.376,-59.572,35.226
6844,0.6231,-0.0661,-0.0813,9.05,15.18,85.08,0.238,-65.573,-57.527,35.542
6854,0.6465,-0.0851,-0.0948,8.57,15.78,85.24,0.238,-70.068,-57.150,34.875
6864,0.6471,-0.1079,-0.1056,7.85,16.42,85.56,0.238,-72.292,-53.169,34.569
6874,0.6661,-0.1267,-0.1191,7.19,16.98,85.74,0.238,-75.802,-52.433,35.145
6884,0.6657,-0.1481,-0.1296,6.33,17.57,86.06,0.234,-76.298,-47.595,35.397
6894,0.6836,-0.1667,-0.1443,5.59,18.07,86.23,0.234,-79.579,-45.233,35.481
6904,0.6809,-0.1905,-0.1547,4.66,18.60,86.59,0.234,-78.332,-42.259,36.010
6914,0.6960,-0.2077,-0.1665,3.88,19.02,86.76,0.234,-77.193,-37.125,36.105
6924,0.6897,-0.2293,-0.1755,2.89,19.45,87.14,0.223,-76.601,-33.599,36.946
6934,0.7018,-0.2458,-0.1861,2.07,19.79,87.32,0.223,-74.819,-27.548,37.508
6944,0.6927,-0.2757,-0.2071,1.10,20.19,87.76,0.223,-71.788,-25.858,36.880
6954,0.7044,-0.3043,-0.2186,0.29,20.50,88.00,0.223,-71.234,-21.549,36.460
6964,0.6924,-0.3269,-0.2252,-0.70,20.73,88.48,0.223,-69.261,-19.356,36.721
6974,0.6973,-0.3538,-0.2338,-1.49,20.93,88.76,0.218,-66.560,-15.562,34.706
6984,0.6786,-0.3733,-0.2362,-2.49,21.05,89.28,0.218,-67.569,-15.395,35.535
6994,0.6846,-0.4103,-0.2422,-3.32,21.23,89.59,0.218,-68.949,-16.718,35.632
7004,0.6624,-0.4351,-0.2449,-4.27,21.31,90.14,0.218,-75.410,-16.465,36.082
7014,0.6572,-0.4588,-0.2478,-5.06,21.36,90.44,0.218,-69.238,-16.096,34.617
7024,0.6358,-0.4874,-0.2491,-6.00,21.43,90.97,0.202,-76.875,-16.312,33.947
7034,0.6126,-0.4963,-0.2433,-7.00,21.37,91.44,0.202,-77.585,-15.941,34.626
7044,0.5850,-0.5129,-0.2559,-7.97,21.37,91.91,0.202,-77.901,-14.853,34.918
7054,0.5648,-0.5357,-0.2540,-8.92,21.38,92.34,0.202,-77.947,-12.915,34.971
7064,0.5501,-0.5744,-0.2553,-9.83,21.48,92.73,0.202,-76.824,-12.012,34.439
7074,0.5136,-0.5867,-0.2478,-10.94,21.37,93.37,0.189,-72.907,-8.678,34.233
7084,0.4983,-0.6251,-0.2480,-11.84,21.43,93.72,0.189,-70.085,-4.142,34.903
7094,0.4613,-0.6433,-0.2633,-12.88,21.36,94.26,0.189,-67.592,0.744,35.183
7104,0.4339,-0.6647,-0.2587,-13.80,21.24,94.71,0.189,-68.361,5.240,34.488
7114,0.3980,-0.6873,-0.2541,-14.76,21.05,95.28,0.189,-61.001,13.916,32.938
7124,0.3570,-0.6981,-0.2450,-15.72,20.72,95.90,0.177,-59.108,20.571,34.098
7134,0.3137,-0.7103,-0.2361,-16.66,20.33,96.54,0.177,-52.326,26.986,32.054
7144,0.2614,-0.7064,-0.2522,-17.59,19.81,97.17,0.177,-53.403,32.021,31.697
7154,0.2160,-0.7132,-0.2454,-18.41,19.24,97.75,0.177,-44.630,40.283,29.713
7164,0.1543,-0.6823,-0.2298,-19.26,18.28,98.61,0.177,-44.781,44.935,31.076
7174,0.1233,-0.7199,-0.2294,-19.85,17.87,98.81,0.158,-34.482,51.355,29.317
7184,0.0739,-0.7242,-0.2215,-20.49,17.09,99.33,0.158,-29.368,58.612,30.936
7194,0.0564,-0.7083,-0.2512,-20.82,16.39,99.17,0.158,-29.877,63.816,29.984
7203,-0.0238,-0.7029,-0.2500,-21.58,15.31,100.17,0.158,-21.145,68.682,28.973
7214,-0.0642,-0.7051,-0.2422,-21.93,14.39,100.44,0.158,-16.287,73.425,29.438
7224,-0.1223,-0.7052,-0.2390,-22.40,13.34,100.98,0.140,-11.368,77.060,30.289
7234,-0.1711,-0.7004,-0.2316,-22.69,12.25,101.35,0.140,-7.292,81.728,30.942
7244,-0.2300,-0.6761,-0.2754,-23.04,11.06,101.82,0.140,-1.585,86.667,30.569
7254,-0.2785,-0.6708,-0.2702,-23.20,9.91,102.14,0.140,-1.226,92.495,33.622
7263,-0.3244,-0.6592,-0.2624,-23.27,8.69,102.44,0.140,-0.228,99.137,32.623
7273,-0.3922,-0.6440,-0.2643,-23.44,7.28,103.10,0.140,5.424,108.758,30.994
7283,-0.4335,-0.6331,-0.2552,-23.41,6.00,103.30,0.115,7.661,116.218,31.056
7295,-0.4900,-0.5743,-0.3107,-23.50,4.32,103.93,0.115,10.314,124.892,32.270
7304,-0.5327,-0.5500,-0.3051,-23.37,2.81,104.18,0.115,14.203,129.041,30.405
7314,-0.6278,-0.4838,-0.3273,-23.43,0.57,105.51,0.115,23.815,131.150,31.343
7323,-0.6542,-0.4728,-0.3142,-23.17,-0.84,105.34,0.101,28.174,131.470,30.559
7334,-0.7239,-0.4532,-0.3390,-23.15,-2.57,105.78,0.101,38.374,133.068,33.915
7344,-0.7130,-0.4033,-0.3301,-22.49,-4.13,105.48,0.101,44.477,128.720,30.863
7353,-0.7997,-0.3889,-0.3688,-22.47,-5.90,106.02,0.101,50.668,129.847,32.890
7363,-0.8219,-0.3693,-0.3535,-21.89,-7.38,105.93,0.101,62.139,128.081,33.468
7374,-0.8561,-0.3556,-0.3518,-21.37,-8.81,105.88,0.095,69.653,127.830,34.488
7383,-0.8683,-0.3228,-0.3205,-20.50,-10.35,106.03,0.095,72.419,123.471,36.700
7394,-0.8934,-0.3224,-0.3250,-19.89,-11.53,105.64,0.095,75.119,118.794,37.459
7403,-0.9242,-0.3042,-0.3261,-19.11,-12.93,105.68,0.095,73.250,115.605,39.002
7413,-0.9778,-0.2774,-0.3561,-18.38,-14.55,105.87,0.095,71.505,106.267,39.937
7423,-0.9852,-0.2538,-0.3201,-17.21,-15.85,106.23,0.077,69.544,92.330,38.058
7433,-0.9901,-0.2329,-0.2766,-15.99,-17.08,106.71,0.077,57.462,73.418,36.886
7444,-0.9494,-0.1895,-0.2729,-14.63,-18.21,107.06,0.077,48.968,60.545,37.106
7454,-0.9427,-0.1567,-0.2464,-13.38,-19.23,107.74,0.077,37.160,50.059,35.315
7464,-0.9361,-0.1272,-0.2151,-12.21,-20.03,108.47,0.077,26.327,36.902,33.654
7474,-0.9283,-0.0955,-0.1810,-11.07,-20.68,109.37,0.077,18.100,29.025,31.635
7484,-0.9293,-0.0674,-0.1532,-10.18,-21.18,110.16,0.059,10.047,22.772,29.995
7494,-0.8343,-0.0210,-0.2129,-9.22,-21.39,110.31,0.059,17.302,20.367,28.690
7504,-0.8204,0.0105,-0.1883,-8.43,-21.62,111.18,0.059,24.840,16.173,28.421
7513,-0.8471,0.0387,-0.1955,-8.21,-21.90,111.46,0.059,34.748,17.040,25.007
7523,-0.8467,0.0600,-0.1596,-7.59,-21.95,112.12,0.037,38.862,25.553,25.075
7533,-0.8733,0.0895,-0.1649,-7.22,-22.15,112.40,0.037,42.287,28.926,22.518
7543,-0.7644,0.1200,-0.2455,-6.17,-22.06,112.64,0.037,48.768,35.288,20.938
7554,-0.7819,0.1515,-0.2441,-5.61,-22.31,113.00,0.037,54.315,31.236,18.339
7563,-0.7205,0.2073,-0.1830,-3.81,-22.40,115.17,0.037,54.226,25.155,15.197
7574,-0.7439,0.2406,-0.1840,-3.26,-22.76,115.37,0.019,53.882,23.642,15.408
7583,-0.7415,0.2569,-0.1337,-2.43,-22.76,115.77,0.019,301.224,-295.634,-19.396
7593,-0.6312,0.2893,-0.2543,-1.13,-22.78,116.29,0.019,271.556,-287.643,-18.926
7603,-0.5895,0.3390,-0.1999,0.35,-22.51,117.55,0.019,241.564,-269.629,-17.464
7613,-0.6163,0.3999,-0.1297,3.00,-19.86,117.29,0.019,190.643,-241.731,-17.899
7624,-0.5772,0.4077,-0.0490,5.90,-16.43,117.22,0.005,120.740,-217.126,-17.225
7633,-0.5390,0.4037,0.0040,8.35,-13.27,116.88,0.005,33.919,-196.140,-13.563
7644,-0.3841,0.3282,-0.0787,10.48,-9.93,116.03,0.005,-294.209,-3.652,24.772
7654,-0.2961,0.3173,-0.0594,11.98,-7.19,116.04,0.005,-324.626,1.420,27.700
7663,-0.2280,0.3056,-0.0364,12.23,-4.97,115.83,0.005,-154.039,167.072,41.757
7673,-0.2352,0.3008,0.0187,9.18,-4.76,115.39,0.005,29.663,91.974,21.045
7684,-0.2228,0.3187,0.0500,5.99,-4.77,115.67,0.017,-46.265,76.397,-13.603
7693,-0.1730,0.3066,0.0363,4.68,-6.03,116.22,0.017,-295.789,-97.610,-192.558
7704,-0.1691,0.3281,0.0938,4.91,-7.01,116.54,0.017,-162.949,-217.550,139.101
7714,-0.1669,0.3392,0.0715,4.13,-7.85,116.00,0.017,-84.025,-251.294,309.075
7724,-0.1646,0.3494,0.0248,1.14,-6.55,114.33,0.009,182.778,-158.421,401.458
