time_ms,pos_x,pos_y,pos_z,vel_x,vel_y,vel_z,roll,pitch,yaw,thrust,motor_m1,gyro_x,gyro_y,gyro_z,acc_x,acc_y,acc_z,rate_roll,rate_pitch,rate_yaw
0,0.0247,-0.2710,0.0087,-0.0192,-0.0734,-0.0070,-0.09,-0.25,-24.04,0,0.000,-0.032,0.136,0.095,-0.001,-0.009,1.002,0.000,0.000,0.000
101,0.0244,-0.2708,0.0087,-0.0200,-0.0683,-0.0061,-0.20,-0.24,-24.01,0,0.000,-0.010,-0.031,0.293,-0.003,-0.009,1.001,0.000,0.000,0.000
203,0.0251,-0.2711,0.0087,-0.0150,-0.0674,-0.0056,-0.17,-0.25,-23.99,0,0.000,-0.101,-0.117,0.221,-0.003,-0.009,1.001,0.000,0.000,0.000
305,0.0245,-0.2720,0.0086,-0.0176,-0.0693,-0.0060,-0.17,-0.24,-23.96,0,0.000,-0.089,-0.075,0.227,-0.000,-0.011,1.002,0.000,0.000,0.000
406,0.0253,-0.2703,0.0089,-0.0127,-0.0569,-0.0041,-0.20,-0.22,-23.94,0,0.000,0.111,-0.134,-0.302,-0.000,-0.010,1.001,0.000,0.000,0.000
507,0.0249,-0.2715,0.0084,-0.0138,-0.0608,-0.0062,-0.31,-0.20,-23.92,0,0.000,-0.086,0.075,0.077,-0.003,-0.009,1.000,0.000,0.000,0.000
608,0.0247,-0.2721,0.0083,-0.0144,-0.0613,-0.0060,-0.28,-0.21,-23.89,0,0.000,0.125,-0.082,-0.102,-0.002,-0.011,1.000,0.000,0.000,0.000
710,0.0243,-0.2719,0.0083,-0.0158,-0.0574,-0.0054,-0.28,-0.21,-23.87,0,0.000,0.025,0.286,-0.028,-0.001,-0.011,1.002,0.000,0.000,0.000
811,0.0248,-0.2702,0.0085,-0.0119,-0.0453,-0.0041,-0.32,-0.19,-23.84,0,0.000,-0.071,-0.192,0.057,-0.003,-0.009,1.000,0.000,0.000,0.000
912,0.0246,-0.2711,0.0074,-0.0124,-0.0487,-0.0095,-0.34,-0.22,-23.82,0,0.000,-0.077,0.046,0.125,-0.005,-0.009,0.999,0.000,0.000,0.000
1014,0.0245,-0.2715,0.0073,-0.0125,-0.0487,-0.0094,-0.36,-0.19,-23.80,0,0.000,-0.184,-0.021,0.082,-0.003,-0.011,1.000,0.000,0.000,0.000
1115,0.0243,-0.2710,0.0073,-0.0131,-0.0433,-0.0090,-0.35,-0.19,-23.77,0,0.000,0.007,-0.238,-0.043,-0.004,-0.008,1.002,0.000,0.000,0.000
1216,0.0250,-0.2713,0.0072,-0.0082,-0.0433,-0.0089,-0.28,-0.23,-23.75,0,0.000,-0.093,-0.149,0.020,-0.003,-0.009,1.003,0.000,0.000,0.000
1317,0.0244,-0.2711,0.0071,-0.0108,-0.0400,-0.0085,-0.28,-0.23,-23.73,0,0.000,0.106,0.092,-0.343,-0.002,-0.011,0.999,0.000,0.000,0.000
1419,0.0243,-0.2719,0.0070,-0.0111,-0.0427,-0.0086,-0.25,-0.26,-23.71,0,0.000,0.002,0.164,-0.233,-0.004,-0.011,0.999,0.000,0.000,0.000
1520,0.0245,-0.2741,0.0086,-0.0096,-0.0526,-0.0002,-0.25,-0.26,-23.71,0,0.000,0.004,0.031,0.030,-0.006,-0.010,0.997,0.000,0.000,0.000
1621,0.0244,-0.2746,0.0086,-0.0097,-0.0531,-0.0001,-0.36,-0.22,-23.69,0,0.000,-0.210,-0.004,-0.096,-0.004,-0.011,0.998,0.000,0.000,0.000
1722,0.0246,-0.2761,0.0086,-0.0077,-0.0589,-0.0004,-0.29,-0.24,-23.64,0,0.000,-0.015,-0.134,0.016,-0.004,-0.011,1.001,0.000,0.000,0.000
1823,0.0246,-0.2740,0.0088,-0.0073,-0.0445,0.0014,-0.29,-0.24,-23.64,0,0.000,-0.309,-0.075,0.020,-0.003,-0.008,1.001,0.000,0.000,0.000
1924,0.0242,-0.2755,0.0088,-0.0092,-0.0504,0.0010,-0.48,-0.22,-23.62,0,0.000,-0.128,-0.026,-0.139,-0.002,-0.008,0.999,0.000,0.000,0.000
2025,0.0242,-0.2766,0.0102,-0.0091,-0.0545,0.0080,-0.26,-0.22,-23.59,0,0.000,-0.150,0.120,-0.091,-0.003,-0.011,0.999,0.000,0.000,0.000
2126,0.0255,-0.2732,0.0105,-0.0016,-0.0324,0.0096,-0.35,-0.22,-23.55,0,0.000,-0.028,-0.430,0.224,-0.004,-0.011,0.997,0.000,0.000,0.000
2227,0.0234,-0.2779,0.0105,-0.0133,-0.0574,0.0085,-0.35,-0.22,-23.55,0,0.000,-0.101,0.056,-0.210,-0.002,-0.011,0.999,0.000,0.000,0.000
2328,0.0236,-0.2774,0.0107,-0.0114,-0.0516,0.0093,-0.52,-0.16,-23.50,0,0.000,-0.027,-0.047,-0.390,-0.003,-0.008,1.001,0.000,0.000,0.000
2429,0.0239,-0.2773,0.0109,-0.0092,-0.0484,0.0097,-0.52,-0.16,-23.50,0,0.000,-0.010,-0.071,-0.069,-0.003,-0.009,1.002,0.000,0.000,0.000
2530,0.0245,-0.2755,0.0102,-0.0056,-0.0361,0.0063,-0.63,-0.15,-23.46,0,0.000,-0.080,-0.094,0.090,-0.004,-0.008,1.003,0.000,0.000,0.000
2631,0.0241,-0.2742,0.0103,-0.0073,-0.0272,0.0066,-0.63,-0.15,-23.43,0,0.000,-0.134,-0.127,-0.093,-0.002,-0.010,1.004,0.000,0.000,0.000
2732,0.0248,-0.2727,0.0104,-0.0034,-0.0176,0.0066,-0.68,-0.15,-23.41,0,0.000,-0.321,0.166,0.163,-0.002,-0.014,1.000,0.000,0.000,0.000
2834,0.0249,-0.2723,0.0105,-0.0022,-0.0145,0.0066,-0.68,-0.15,-23.41,0,0.000,0.199,0.081,0.057,-0.001,-0.012,0.999,0.000,0.000,0.000
2935,0.0249,-0.2725,0.0106,-0.0021,-0.0143,0.0067,-0.65,-0.15,-23.36,0,0.000,0.013,0.249,-0.026,-0.003,-0.013,1.002,0.000,0.000,0.000
0,0.0253,-0.2716,0.0095,-0.0001,-0.0087,0.0012,-0.65,-0.15,-23.34,0,0.000,-0.054,0.038,0.333,-0.006,-0.010,1.001,0.000,0.000,0.000
0,0.0253,-0.2730,0.0095,0.0004,-0.0158,0.0016,-0.67,-0.13,-23.31,0,0.000,-0.077,0.076,0.067,-0.006,-0.009,0.999,0.000,0.000,0.000
0,0.0249,-0.2724,0.0096,-0.0019,-0.0113,0.0019,-0.67,-0.13,-23.31,0,0.000,-0.039,-0.018,-0.182,-0.005,-0.011,1.001,0.000,0.000,0.000
0,0.0249,-0.2725,0.0096,-0.0019,-0.0115,0.0019,-0.27,-0.21,-23.27,0,0.000,-0.213,0.118,-0.131,-0.003,-0.012,0.999,0.000,0.000,0.000
0,0.0247,-0.2719,0.0096,-0.0030,-0.0077,0.0020,-0.27,-0.21,-23.27,0,0.000,0.011,-0.072,-0.306,-0.002,-0.009,1.001,0.000,0.000,0.000
0,0.0241,-0.2799,0.0103,-0.0059,-0.0510,0.0048,-0.27,-0.20,-23.23,0,0.000,-0.258,-0.074,0.009,-0.002,-0.009,1.001,0.000,0.000,0.000
0,0.0227,-0.2816,0.0102,-0.0139,-0.0580,0.0043,-0.27,-0.20,-23.20,0,0.000,-0.132,0.021,0.311,-0.002,-0.011,1.000,0.000,0.000,0.000
0,0.0226,-0.2818,0.0103,-0.0139,-0.0561,0.0045,-0.28,-0.20,-23.18,0,0.000,0.210,0.296,0.203,-0.002,-0.010,1.000,0.000,0.000,0.000
1,0.0223,-0.2825,0.0103,-0.0153,-0.0576,0.0044,-0.28,-0.20,-23.18,0,0.000,0.053,0.074,0.052,-0.003,-0.011,0.999,0.000,0.000,0.000
1,0.0221,-0.2831,0.0104,-0.0155,-0.0582,0.0043,-0.37,-0.19,-23.13,0,0.000,0.015,-0.156,-0.039,-0.003,-0.012,1.000,0.000,0.000,0.000
1,0.0219,-0.2837,0.0107,-0.0155,-0.0587,0.0057,-0.37,-0.19,-23.13,0,0.000,-0.261,0.037,-0.151,-0.003,-0.010,1.001,0.000,0.000,0.000
1,0.0223,-0.2829,0.0109,-0.0130,-0.0519,0.0065,-0.41,-0.17,-23.09,0,0.000,-0.270,0.194,-0.098,-0.006,-0.011,1.000,0.000,0.000,0.000
1,0.0224,-0.2826,0.0110,-0.0117,-0.0479,0.0069,-0.41,-0.17,-23.09,0,0.000,0.077,0.143,-0.085,-0.003,-0.010,0.998,0.000,0.000,0.000
1,0.0220,-0.2834,0.0110,-0.0129,-0.0500,0.0067,-0.41,-0.19,-23.07,0,0.000,-0.113,-0.038,0.180,-0.002,-0.010,0.999,0.000,0.000,0.000
1,0.0221,-0.2826,0.0112,-0.0119,-0.0435,0.0073,-0.41,-0.19,-23.04,0,0.000,-0.292,0.236,-0.392,-0.005,-0.010,1.002,0.000,0.000,0.000
1,0.0223,-0.2834,0.0090,-0.0105,-0.0454,-0.0040,-0.43,-0.18,-23.02,0,0.000,-0.054,-0.217,0.037,-0.005,-0.011,1.002,0.000,0.000,0.000
1,0.0222,-0.2838,0.0090,-0.0107,-0.0457,-0.0039,-0.43,-0.18,-22.97,0,0.000,-0.043,0.007,-0.180,-0.004,-0.013,1.002,0.000,0.000,0.000
2,0.0220,-0.2837,0.0089,-0.0115,-0.0426,-0.0038,-0.39,-0.17,-22.97,0,0.000,-0.118,0.116,0.074,-0.004,-0.009,1.003,0.000,0.000,0.000
2,0.0218,-0.2841,0.0089,-0.0115,-0.0428,-0.0040,-0.39,-0.17,-22.95,0,0.000,0.017,-0.290,-0.070,-0.004,-0.010,1.001,0.000,0.000,0.000
2,0.0217,-0.2845,0.0089,-0.0115,-0.0430,-0.0040,-0.49,-0.16,-22.92,0,0.000,-0.034,0.229,-0.046,-0.004,-0.012,1.000,0.000,0.000,0.000
2,0.0211,-0.2859,0.0097,-0.0143,-0.0480,0.0007,-0.49,-0.16,-22.88,0,0.000,0.039,-0.082,-0.115,-0.003,-0.013,1.001,0.000,0.000,0.000
2,0.0217,-0.2845,0.0098,-0.0109,-0.0388,0.0015,-0.58,-0.20,-22.86,0,0.000,-0.192,-0.019,-0.087,-0.003,-0.012,1.000,0.000,0.000,0.000
2,0.0215,-0.2844,0.0099,-0.0117,-0.0360,0.0019,-0.58,-0.20,-22.86,0,0.000,-0.176,-0.257,0.025,-0.002,-0.011,0.997,0.000,0.000,0.000
2,0.0214,-0.2847,0.0099,-0.0118,-0.0360,0.0021,-0.59,-0.16,-22.81,0,0.000,0.030,0.071,0.252,-0.002,-0.009,1.001,0.000,0.000,0.000
2,0.0230,-0.2835,0.0100,-0.0024,-0.0278,0.0027,-0.59,-0.16,-22.81,0,0.000,0.025,-0.042,-0.052,-0.002,-0.011,1.002,0.000,0.000,0.000
3,0.0229,-0.2845,0.0091,-0.0032,-0.0317,-0.0017,-0.58,-0.15,-22.77,0,0.000,-0.067,0.311,0.153,-0.005,-0.010,1.001,0.000,0.000,0.000
3,0.0221,-0.2835,0.0092,-0.0070,-0.0252,-0.0014,-0.58,-0.15,-22.77,0,0.000,-0.071,-0.138,-0.205,-0.005,-0.011,1.002,0.000,0.000,0.000
3,0.0221,-0.2843,0.0091,-0.0070,-0.0280,-0.0015,-0.60,-0.16,-22.72,0,0.000,-0.053,-0.015,0.342,-0.003,-0.009,1.000,0.000,0.000,0.000
3,0.0219,-0.2841,0.0091,-0.0077,-0.0257,-0.0017,-0.60,-0.16,-22.72,0,0.000,0.058,0.130,-0.068,-0.002,-0.011,0.999,0.000,0.000,0.000
3,0.0216,-0.2840,0.0091,-0.0083,-0.0235,-0.0015,-0.61,-0.13,-22.70,0,0.000,-0.062,-0.175,-0.248,-0.003,-0.010,0.999,0.000,0.000,0.000
3,0.0221,-0.2841,0.0086,-0.0054,-0.0230,-0.0039,-0.63,-0.14,-22.68,0,0.000,0.016,0.223,0.077,-0.003,-0.009,1.002,0.000,0.000,0.000
3,0.0214,-0.2838,0.0086,-0.0088,-0.0201,-0.0037,-0.68,-0.13,-22.65,0,0.000,0.009,-0.252,-0.141,-0.002,-0.011,1.000,0.000,0.000,0.000
3,0.0221,-0.2827,0.0086,-0.0049,-0.0135,-0.0033,-0.55,-0.18,-22.63,0,0.000,-0.062,0.087,0.319,-0.001,-0.009,1.000,0.000,0.000,0.000
3,0.0217,-0.2838,0.0085,-0.0069,-0.0182,-0.0035,-0.67,-0.18,-22.61,0,0.000,-0.039,-0.041,0.044,-0.003,-0.008,0.999,0.000,0.000,0.000
3,0.0221,-0.2829,0.0085,-0.0045,-0.0126,-0.0034,-0.69,-0.15,-22.58,0,0.000,-0.190,0.147,0.196,-0.002,-0.009,1.001,0.000,0.000,0.000
3,0.0218,-0.2866,0.0078,-0.0057,-0.0306,-0.0070,-0.65,-0.13,-22.56,0,0.000,-0.209,-0.077,0.093,-0.002,-0.011,1.001,0.000,0.000,0.000
3,0.0229,-0.2839,0.0078,0.0002,-0.0156,-0.0062,-0.63,-0.13,-22.54,0,0.000,-0.005,-0.009,0.256,-0.004,-0.010,1.001,0.000,0.000,0.000
3,0.0224,-0.2832,0.0078,-0.0020,-0.0111,-0.0062,-0.47,-0.21,-22.52,0,0.000,0.074,-0.070,-0.134,-0.004,-0.011,1.002,0.000,0.000,0.000
4,0.0216,-0.2841,0.0077,-0.0062,-0.0148,-0.0062,-0.53,-0.19,-22.49,0,0.000,0.074,0.274,0.262,-0.004,-0.012,0.999,0.000,0.000,0.000
4,0.0213,-0.2847,0.0076,-0.0071,-0.0169,-0.0063,-0.38,-0.24,-22.47,0,0.000,-0.014,0.311,0.007,-0.004,-0.011,0.998,0.000,0.000,0.000
4,0.0215,-0.2895,0.0081,-0.0054,-0.0405,-0.0036,-0.37,-0.24,-22.45,0,0.000,0.002,0.138,0.092,-0.005,-0.011,1.001,0.000,0.000,0.000
4,0.0216,-0.2883,0.0082,-0.0050,-0.0322,-0.0030,-0.39,-0.25,-22.43,0,0.000,-0.127,-0.140,-0.371,-0.006,-0.011,1.003,0.000,0.000,0.000
4,0.0213,-0.2924,0.0080,-0.0063,-0.0520,-0.0038,-0.31,-0.27,-22.41,0,0.000,-0.155,-0.054,0.277,-0.005,-0.009,0.999,0.000,0.000,0.000
4,0.0209,-0.2932,0.0079,-0.0078,-0.0537,-0.0038,-0.42,-0.23,-22.38,0,0.000,-0.289,-0.122,0.069,-0.002,-0.010,0.999,0.000,0.000,0.000
4,0.0214,-0.2934,0.0080,-0.0054,-0.0521,-0.0036,-0.22,-0.23,-22.36,0,0.000,0.094,0.180,0.042,-0.002,-0.010,0.998,0.000,0.000,0.000
4,0.0210,-0.2961,0.0087,-0.0073,-0.0637,-0.0000,-0.24,-0.22,-22.34,0,0.000,-0.184,-0.018,0.371,-0.003,-0.009,1.000,0.000,0.000,0.000
4,0.0212,-0.2937,0.0089,-0.0060,-0.0488,0.0016,-0.29,-0.22,-22.31,0,0.000,-0.063,-0.097,0.045,-0.002,-0.010,1.000,0.000,0.000,0.000
4,0.0191,-0.2988,0.0087,-0.0166,-0.0726,-0.0000,-0.29,-0.25,-22.29,0,0.000,0.007,0.121,0.264,-0.004,-0.009,1.000,0.000,0.000,0.000
4,0.0190,-0.2991,0.0087,-0.0168,-0.0712,0.0001,-0.34,-0.19,-22.27,0,0.000,-0.012,-0.142,-0.097,-0.004,-0.011,1.002,0.000,0.000,0.000
4,0.0191,-0.2987,0.0097,-0.0150,-0.0660,0.0056,-0.39,-0.18,-22.24,0,0.000,-0.385,-0.258,0.210,-0.005,-0.010,1.001,0.000,0.000,0.000
4,0.0197,-0.2996,0.0098,-0.0113,-0.0677,0.0054,-0.40,-0.18,-22.22,0,0.000,0.022,-0.370,-0.209,-0.003,-0.008,1.001,0.000,0.000,0.000
4,0.0187,-0.2987,0.0100,-0.0162,-0.0597,0.0062,-0.42,-0.18,-22.20,0,0.000,-0.087,0.223,0.038,-0.004,-0.010,1.001,0.000,0.000,0.000
4,0.0188,-0.2983,0.0101,-0.0145,-0.0548,0.0066,-0.47,-0.19,-22.18,0,0.000,0.009,-0.040,-0.333,-0.003,-0.011,1.002,0.000,0.000,0.000
4,0.0187,-0.2984,0.0102,-0.0143,-0.0531,0.0069,-0.47,-0.18,-22.16,0,0.000,0.033,0.055,-0.102,-0.004,-0.009,1.000,0.000,0.000,0.000
4,0.0189,-0.2985,0.0103,-0.0128,-0.0510,0.0073,-0.49,-0.16,-22.14,0,0.000,-0.061,0.097,0.231,-0.001,-0.009,1.002,0.000,0.000,0.000
5,0.0195,-0.2983,0.0103,-0.0093,-0.0471,0.0070,-0.54,-0.18,-22.11,0,0.000,-0.295,-0.192,-0.046,0.000,-0.011,1.001,0.000,0.000,0.000
5,0.0191,-0.2985,0.0104,-0.0106,-0.0462,0.0072,-0.54,-0.17,-22.09,0,0.000,-0.087,-0.119,0.029,-0.002,-0.009,1.001,0.000,0.000,0.000
5,0.0187,-0.2984,0.0105,-0.0122,-0.0430,0.0075,-0.57,-0.17,-22.07,0,0.000,-0.088,-0.012,0.087,-0.004,-0.008,1.001,0.000,0.000,0.000
5,0.0194,-0.2980,0.0106,-0.0083,-0.0384,0.0079,-0.57,-0.17,-22.05,0,0.000,-0.105,-0.130,0.192,-0.003,-0.011,1.000,0.000,0.000,0.000
5,0.0193,-0.2982,0.0108,-0.0082,-0.0374,0.0087,-0.60,-0.16,-22.03,0,0.000,0.175,-0.055,-0.313,-0.004,-0.010,0.998,0.000,0.000,0.000
0,0.0194,-0.2980,0.0109,-0.0071,-0.0344,0.0090,-0.61,-0.13,-22.00,0,0.000,0.081,-0.170,0.083,-0.003,-0.008,1.000,0.000,0.000,0.000
0,0.0192,-0.2984,0.0110,-0.0073,-0.0347,0.0090,-0.59,-0.17,-21.98,0,0.000,-0.037,-0.154,-0.031,-0.003,-0.008,1.001,0.000,0.000,0.000
0,0.0194,-0.2980,0.0111,-0.0060,-0.0306,0.0093,-0.59,-0.17,-21.96,0,0.000,-0.198,0.213,0.100,-0.003,-0.008,1.001,0.000,0.000,0.000
0,0.0185,-0.2978,0.0112,-0.0103,-0.0281,0.0094,-0.69,-0.14,-21.94,0,0.000,-0.369,0.167,0.150,-0.003,-0.010,1.001,0.000,0.000,0.000
0,0.0193,-0.2988,0.0113,-0.0059,-0.0319,0.0093,-0.70,-0.14,-21.91,0,0.000,-0.076,0.036,0.169,-0.004,-0.009,0.998,0.000,0.000,0.000
0,0.0198,-0.2958,0.0109,-0.0027,-0.0138,0.0069,-0.76,-0.18,-21.89,0,0.000,-0.140,-0.079,-0.046,-0.005,-0.009,1.001,0.000,0.000,0.000
1,0.0194,-0.2968,0.0110,-0.0046,-0.0180,0.0068,-0.76,-0.18,-21.87,0,0.000,0.183,0.032,-0.102,-0.006,-0.009,1.002,0.000,0.000,0.000
1,0.0204,-0.2959,0.0110,0.0017,-0.0114,0.0070,-0.71,-0.13,-21.85,0,0.000,-0.375,0.075,0.187,-0.003,-0.008,1.001,0.000,0.000,0.000
1,0.0208,-0.2962,0.0111,0.0035,-0.0123,0.0071,-0.71,-0.13,-21.83,0,0.000,-0.082,0.089,0.040,-0.001,-0.009,1.002,0.000,0.000,0.000
1,0.0200,-0.2970,0.0103,-0.0009,-0.0158,0.0022,-0.64,-0.16,-21.80,0,0.000,-0.030,-0.036,0.018,-0.002,-0.010,1.001,0.000,0.000,0.000
1,0.0193,-0.2970,0.0103,-0.0045,-0.0144,0.0021,-0.64,-0.16,-21.78,0,0.000,-0.079,0.076,-0.221,-0.003,-0.011,1.001,0.000,0.000,0.000
1,0.0190,-0.2966,0.0103,-0.0062,-0.0112,0.0023,-0.62,-0.16,-21.76,0,0.000,-0.199,-0.223,0.204,-0.003,-0.010,1.000,0.000,0.000,0.000
1,0.0192,-0.2989,0.0104,-0.0049,-0.0231,0.0023,-0.46,-0.18,-21.74,0,0.000,-0.221,0.239,0.037,-0.004,-0.008,1.001,0.000,0.000,0.000
1,0.0189,-0.2997,0.0104,-0.0062,-0.0259,0.0024,-0.49,-0.20,-21.72,0,0.000,-0.098,-0.024,0.308,-0.004,-0.009,1.002,0.000,0.000,0.000
2,0.0181,-0.3033,0.0103,-0.0101,-0.0449,0.0015,-0.41,-0.17,-21.69,0,0.000,0.095,0.153,0.223,-0.004,-0.010,0.999,0.000,0.000,0.000
2,0.0188,-0.3034,0.0089,-0.0058,-0.0428,-0.0056,-0.41,-0.16,-21.67,0,0.000,-0.182,-0.101,0.190,-0.004,-0.011,0.998,0.000,0.000,0.000
2,0.0174,-0.3052,0.0087,-0.0134,-0.0510,-0.0062,-0.41,-0.16,-21.65,0,0.000,-0.067,-0.186,-0.250,-0.004,-0.010,1.000,0.000,0.000,0.000
2,0.0168,-0.3061,0.0086,-0.0158,-0.0533,-0.0065,-0.44,-0.18,-21.63,0,0.000,-0.107,0.035,-0.183,-0.003,-0.011,1.000,0.000,0.000,0.000
2,0.0167,-0.3063,0.0086,-0.0155,-0.0515,-0.0061,-0.43,-0.17,-21.61,0,0.000,0.010,-0.064,0.238,-0.004,-0.012,0.999,0.000,0.000,0.000
2,0.0166,-0.3068,0.0085,-0.0156,-0.0516,-0.0060,-0.46,-0.17,-21.58,0,0.000,0.150,0.227,-0.345,-0.003,-0.010,1.000,0.000,0.000,0.000
2,0.0170,-0.3068,0.0083,-0.0122,-0.0486,-0.0070,-0.50,-0.17,-21.56,0,0.000,-0.188,0.057,0.099,-0.003,-0.011,0.998,0.000,0.000,0.000
3,0.0167,-0.3075,0.0082,-0.0135,-0.0505,-0.0073,-0.58,-0.14,-21.54,0,0.000,0.204,-0.069,0.032,-0.003,-0.010,0.999,0.000,0.000,0.000
3,0.0168,-0.3073,0.0082,-0.0123,-0.0468,-0.0069,-0.59,-0.18,-21.52,0,0.000,-0.105,-0.237,-0.138,-0.002,-0.010,0.999,0.000,0.000,0.000
3,0.0170,-0.3069,0.0082,-0.0109,-0.0423,-0.0066,-0.61,-0.12,-21.50,0,0.000,0.075,0.021,-0.016,-0.001,-0.011,1.003,0.000,0.000,0.000
3,0.0169,-0.3055,0.0082,-0.0112,-0.0324,-0.0059,-0.56,-0.18,-21.48,0,0.000,-0.153,0.186,0.091,-0.004,-0.012,1.003,0.000,0.000,0.000
3,0.0178,-0.3058,0.0067,-0.0051,-0.0325,-0.0131,-0.55,-0.12,-21.46,0,0.000,-0.003,0.015,0.038,-0.002,-0.012,0.999,0.000,0.000,0.000
3,0.0167,-0.3054,0.0066,-0.0113,-0.0282,-0.0131,-0.58,-0.17,-21.43,0,0.000,-0.205,0.316,0.149,-0.002,-0.011,1.000,0.000,0.000,0.000
3,0.0174,-0.3070,0.0065,-0.0068,-0.0355,-0.0134,-0.57,-0.17,-21.41,0,0.000,0.054,-0.083,-0.002,-0.002,-0.011,1.000,0.000,0.000,0.000
3,0.0160,-0.3071,0.0063,-0.0140,-0.0344,-0.0133,-0.66,-0.15,-21.39,0,0.000,0.086,-0.080,-0.007,-0.002,-0.010,0.999,0.000,0.000,0.000
3,0.0171,-0.3071,0.0063,-0.0070,-0.0326,-0.0128,-0.62,-0.12,-21.37,0,0.000,-0.140,-0.029,-0.156,-0.003,-0.010,0.999,0.000,0.000,0.000
3,0.0169,-0.3077,0.0069,-0.0080,-0.0343,-0.0088,-0.65,-0.12,-21.35,0,0.000,-0.239,-0.027,0.397,-0.003,-0.009,0.999,0.000,0.000,0.000
3,0.0171,-0.3060,0.0069,-0.0063,-0.0233,-0.0084,-0.66,-0.18,-21.33,0,0.000,-0.033,-0.190,-0.031,-0.003,-0.010,1.002,0.000,0.000,0.000
3,0.0161,-0.3069,0.0068,-0.0115,-0.0271,-0.0085,-0.69,-0.16,-21.31,0,0.000,-0.081,0.015,-0.144,-0.002,-0.008,1.002,0.000,0.000,0.000
4,0.0162,-0.3065,0.0067,-0.0101,-0.0234,-0.0084,-0.69,-0.14,-21.29,0,0.000,0.069,-0.039,0.183,-0.001,-0.010,1.001,0.000,0.000,0.000
4,0.0174,-0.3070,0.0066,-0.0032,-0.0244,-0.0083,-0.80,-0.14,-21.26,0,0.000,-0.137,0.014,0.133,-0.001,-0.012,1.000,0.000,0.000,0.000
4,0.0173,-0.3065,0.0063,-0.0032,-0.0204,-0.0097,-0.77,-0.15,-21.24,0,0.000,0.312,-0.127,-0.018,-0.001,-0.010,1.000,0.000,0.000,0.000
4,0.0169,-0.3066,0.0062,-0.0054,-0.0193,-0.0097,-0.83,-0.12,-21.22,0,0.000,0.094,-0.135,-0.228,-0.003,-0.010,1.002,0.000,0.000,0.000
4,0.0177,-0.3044,0.0061,-0.0005,-0.0063,-0.0092,-0.80,-0.18,-21.20,0,0.000,-0.188,0.006,0.012,-0.003,-0.009,1.001,0.000,0.000,0.000
4,0.0177,-0.3051,0.0060,-0.0004,-0.0092,-0.0090,-0.81,-0.15,-21.18,0,0.000,-0.265,-0.058,0.152,-0.003,-0.009,0.999,0.000,0.000,0.000
4,0.0175,-0.3037,0.0072,-0.0008,-0.0009,-0.0022,-0.81,-0.15,-21.16,0,0.000,-0.047,0.164,0.206,-0.004,-0.009,1.000,0.000,0.000,0.000
4,0.0187,-0.3048,0.0072,0.0057,-0.0066,-0.0022,-0.83,-0.13,-21.14,0,0.000,-0.206,0.043,-0.058,-0.005,-0.009,0.999,0.000,0.000,0.000
4,0.0182,-0.3044,0.0072,0.0030,-0.0036,-0.0021,-0.75,-0.09,-21.12,0,0.000,0.118,0.166,-0.004,-0.003,-0.011,1.000,0.000,0.000,0.000
4,0.0182,-0.3044,0.0072,0.0030,-0.0036,-0.0021,-0.76,-0.18,-21.09,0,0.000,0.021,0.043,0.249,-0.005,-0.013,1.002,0.000,0.000,0.000
4,0.0179,-0.3039,0.0071,0.0017,0.0007,-0.0020,-0.83,-0.15,-21.07,0,0.000,-0.230,0.039,0.383,-0.006,-0.011,1.003,0.000,0.000,0.000
4,0.0165,-0.3053,0.0072,-0.0066,-0.0076,-0.0018,-0.81,-0.18,-21.05,0,0.000,0.121,0.115,-0.152,-0.004,-0.011,1.001,0.000,0.000,0.000
4,0.0183,-0.3059,0.0071,0.0040,-0.0091,-0.0022,-0.76,-0.16,-21.03,0,0.000,-0.092,0.148,-0.059,-0.003,-0.009,0.999,0.000,0.000,0.000
4,0.0182,-0.3042,0.0071,0.0035,0.0004,-0.0021,-0.77,-0.13,-21.01,0,0.000,-0.055,-0.011,-0.169,-0.003,-0.010,1.002,0.000,0.000,0.000
4,0.0187,-0.3049,0.0071,0.0058,-0.0024,-0.0021,-0.77,-0.15,-20.98,0,0.000,-0.106,-0.033,-0.129,-0.002,-0.011,1.002,0.000,0.000,0.000
5,0.0179,-0.3056,0.0071,0.0012,-0.0069,-0.0020,-0.80,-0.15,-20.96,0,0.000,-0.094,-0.339,-0.211,-0.003,-0.008,0.999,0.000,0.000,0.000
5,0.0174,-0.3053,0.0070,-0.0021,-0.0037,-0.0014,-0.80,-0.12,-20.95,0,0.000,-0.078,0.045,-0.071,-0.002,-0.009,1.002,0.000,0.000,0.000
5,0.0177,-0.3056,0.0074,-0.0002,-0.0054,0.0007,-0.83,-0.13,-20.92,0,0.000,-0.205,-0.156,0.119,-0.001,-0.011,1.001,0.000,0.000,0.000
5,0.0180,-0.3050,0.0075,0.0012,-0.0010,0.0008,-0.66,-0.13,-20.90,0,0.000,0.160,-0.214,-0.295,-0.002,-0.009,0.999,0.000,0.000,0.000
5,0.0174,-0.3048,0.0075,-0.0021,0.0007,0.0010,-0.70,-0.17,-20.88,0,0.000,-0.174,-0.121,-0.016,-0.003,-0.009,0.998,0.000,0.000,0.000
5,0.0178,-0.3043,0.0075,0.0006,0.0040,0.0011,-0.70,-0.17,-20.86,0,0.000,0.146,0.152,-0.258,-0.004,-0.007,1.002,0.000,0.000,0.000
5,0.0164,-0.3078,0.0075,-0.0070,-0.0157,0.0014,-0.76,-0.09,-20.84,0,0.000,-0.071,-0.016,0.004,-0.003,-0.010,1.001,0.000,0.000,0.000
5,0.0175,-0.3073,0.0073,-0.0004,-0.0120,0.0004,-0.70,-0.11,-20.82,0,0.000,-0.336,-0.153,0.255,-0.002,-0.010,0.999,0.000,0.000,0.000
5,0.0164,-0.3055,0.0074,-0.0064,-0.0013,0.0007,-0.62,-0.17,-20.80,0,0.000,-0.092,0.234,0.200,-0.002,-0.011,1.000,0.000,0.000,0.000
5,0.0163,-0.3071,0.0074,-0.0067,-0.0093,0.0005,-0.63,-0.18,-20.78,0,0.000,0.064,0.006,0.014,-0.002,-0.008,1.001,0.000,0.000,0.000
5,0.0168,-0.3093,0.0074,-0.0036,-0.0207,0.0003,-0.71,-0.13,-20.76,0,0.000,-0.246,0.026,-0.025,-0.002,-0.010,1.000,0.000,0.000,0.000
5,0.0170,-0.3092,0.0074,-0.0023,-0.0199,0.0003,-0.74,-0.12,-20.74,0,0.000,-0.008,-0.062,-0.166,-0.004,-0.011,1.001,0.000,0.000,0.000
5,0.0166,-0.3075,0.0073,-0.0046,-0.0090,-0.0001,-0.84,-0.09,-20.72,0,0.000,-0.099,0.003,-0.061,-0.002,-0.010,1.001,0.000,0.000,0.000
5,0.0165,-0.3071,0.0073,-0.0047,-0.0058,-0.0001,-0.79,-0.10,-20.70,0,0.000,-0.198,0.216,0.176,-0.004,-0.009,0.999,0.000,0.000,0.000
5,0.0166,-0.3069,0.0073,-0.0040,-0.0043,-0.0001,-0.59,-0.17,-20.67,0,0.000,-0.224,-0.068,0.388,-0.004,-0.009,1.000,0.000,0.000,0.000
5,0.0168,-0.3047,0.0073,-0.0023,0.0091,-0.0001,-0.56,-0.17,-20.65,0,0.000,0.005,0.113,-0.010,-0.004,-0.010,1.001,0.000,0.000,0.000
6,0.0164,-0.3056,0.0073,-0.0040,0.0039,0.0001,-0.48,-0.19,-20.63,0,0.000,0.181,0.165,0.039,-0.003,-0.013,1.000,0.000,0.000,0.000
6,0.0164,-0.3102,0.0072,-0.0041,-0.0223,-0.0004,-0.45,-0.19,-20.61,0,0.000,-0.003,0.092,0.132,-0.002,-0.011,1.002,0.000,0.000,0.000
6,0.0160,-0.3111,0.0072,-0.0059,-0.0263,-0.0004,-0.48,-0.18,-20.59,0,0.000,0.138,-0.241,-0.217,-0.003,-0.010,1.000,0.000,0.000,0.000
6,0.0157,-0.3131,0.0071,-0.0074,-0.0362,-0.0009,-0.47,-0.18,-20.57,0,0.000,-0.173,-0.209,0.363,-0.002,-0.013,1.002,0.000,0.000,0.000
6,0.0154,-0.3141,0.0071,-0.0091,-0.0394,-0.0012,-0.51,-0.18,-20.55,0,0.000,-0.011,-0.174,0.017,-0.003,-0.010,1.001,0.000,0.000,0.000
6,0.0155,-0.3137,0.0071,-0.0080,-0.0354,-0.0008,-0.56,-0.17,-20.53,0,0.000,-0.155,0.015,0.151,-0.001,-0.012,1.001,0.000,0.000,0.000
6,0.0153,-0.3143,0.0062,-0.0088,-0.0368,-0.0055,-0.56,-0.17,-20.51,0,0.000,-0.173,0.003,0.012,-0.003,-0.012,1.001,0.000,0.000,0.000
6,0.0155,-0.3138,0.0062,-0.0073,-0.0320,-0.0050,-0.61,-0.22,-20.48,0,0.000,-0.031,-0.151,0.164,-0.004,-0.009,1.000,0.000,0.000,0.000
6,0.0157,-0.3132,0.0062,-0.0057,-0.0274,-0.0047,-0.54,-0.28,-20.46,0,0.000,-0.086,-0.139,0.061,-0.003,-0.011,0.998,0.000,0.000,0.000
6,0.0156,-0.3134,0.0062,-0.0058,-0.0272,-0.0046,-0.42,-0.26,-20.44,0,0.000,0.065,-0.252,0.015,-0.003,-0.010,1.001,0.000,0.000,0.000
6,0.0168,-0.3130,0.0061,0.0013,-0.0236,-0.0042,-0.42,-0.26,-20.42,0,0.000,0.098,0.051,0.157,-0.004,-0.011,1.000,0.000,0.000,0.000
6,0.0175,-0.3150,0.0073,0.0056,-0.0336,0.0020,-0.47,-0.26,-20.40,0,0.000,-0.329,0.059,0.154,-0.002,-0.012,1.000,0.000,0.000,0.000
6,0.0163,-0.3177,0.0072,-0.0015,-0.0473,0.0015,-0.42,-0.26,-20.38,0,0.000,-0.320,-0.084,0.024,-0.001,-0.009,1.002,0.000,0.000,0.000
6,0.0163,-0.3182,0.0072,-0.0015,-0.0476,0.0016,-0.40,-0.25,-20.36,0,0.000,0.177,0.071,-0.325,-0.003,-0.008,1.002,0.000,0.000,0.000
6,0.0167,-0.3177,0.0073,0.0009,-0.0423,0.0020,-0.53,-0.22,-20.34,0,0.000,-0.198,-0.055,0.387,-0.002,-0.009,1.003,0.000,0.000,0.000
6,0.0164,-0.3191,0.0073,-0.0008,-0.0481,0.0015,-0.53,-0.22,-20.32,0,0.000,-0.148,-0.130,-0.246,-0.003,-0.012,1.002,0.000,0.000,0.000
7,0.0161,-0.3199,0.0080,-0.0024,-0.0502,0.0052,-0.48,-0.21,-20.30,0,0.000,-0.194,-0.085,0.115,-0.003,-0.010,0.999,0.000,0.000,0.000
7,0.0163,-0.3176,0.0082,-0.0012,-0.0348,0.0062,-0.52,-0.21,-20.28,0,0.000,0.005,0.311,-0.042,-0.004,-0.010,0.999,0.000,0.000,0.000
7,0.0163,-0.3179,0.0083,-0.0009,-0.0349,0.0064,-0.54,-0.22,-20.26,0,0.000,0.054,0.031,0.011,-0.003,-0.010,1.000,0.000,0.000,0.000
7,0.0158,-0.3193,0.0083,-0.0037,-0.0408,0.0063,-0.60,-0.21,-20.24,0,0.000,-0.301,-0.068,0.271,-0.002,-0.008,1.000,0.000,0.000,0.000
7,0.0160,-0.3189,0.0084,-0.0025,-0.0362,0.0068,-0.58,-0.19,-20.22,0,0.000,0.094,0.007,0.200,-0.003,-0.009,1.001,0.000,0.000,0.000
7,0.0164,-0.3188,0.0075,0.0004,-0.0339,0.0018,-0.60,-0.19,-20.20,0,0.000,0.008,0.125,-0.216,-0.002,-0.009,1.000,0.000,0.000,0.000
7,0.0165,-0.3180,0.0075,0.0011,-0.0273,0.0022,-0.56,-0.17,-20.18,0,0.000,0.018,-0.012,0.204,-0.003,-0.009,1.001,0.000,0.000,0.000
7,0.0161,-0.3185,0.0075,-0.0013,-0.0286,0.0020,-0.64,-0.22,-20.16,0,0.000,-0.184,-0.086,-0.091,-0.005,-0.009,1.002,0.000,0.000,0.000
7,0.0162,-0.3183,0.0076,-0.0008,-0.0258,0.0021,-0.61,-0.18,-20.14,0,0.000,0.131,-0.280,-0.287,-0.004,-0.011,1.001,0.000,0.000,0.000
7,0.0156,-0.3192,0.0074,-0.0038,-0.0294,0.0008,-0.66,-0.17,-20.12,0,0.000,0.087,-0.003,-0.070,-0.005,-0.009,1.002,0.000,0.000,0.000
7,0.0171,-0.3182,0.0074,0.0049,-0.0219,0.0011,-0.66,-0.17,-20.10,0,0.000,0.019,0.012,-0.348,-0.006,-0.010,1.002,0.000,0.000,0.000
7,0.0161,-0.3189,0.0074,-0.0006,-0.0248,0.0012,-0.62,-0.21,-20.08,0,0.000,-0.102,0.050,-0.183,-0.003,-0.011,1.001,0.000,0.000,0.000
7,0.0163,-0.3179,0.0074,0.0005,-0.0173,0.0014,-0.70,-0.17,-20.06,0,0.000,-0.038,-0.013,-0.003,-0.004,-0.010,1.000,0.000,0.000,0.000
7,0.0163,-0.3180,0.0075,0.0005,-0.0171,0.0016,-0.65,-0.17,-20.05,0,0.000,-0.135,0.185,-0.169,-0.003,-0.010,1.002,0.000,0.000,0.000
7,0.0168,-0.3194,0.0075,0.0030,-0.0234,0.0016,-0.69,-0.17,-20.03,0,0.000,0.067,0.023,-0.065,-0.003,-0.011,1.002,0.000,0.000,0.000
7,0.0167,-0.3177,0.0082,0.0022,-0.0123,0.0055,-0.67,-0.18,-20.01,0,0.000,0.059,-0.026,0.283,-0.004,-0.009,1.001,0.000,0.000,0.000
8,0.0163,-0.3187,0.0082,-0.0002,-0.0171,0.0056,-0.68,-0.16,-19.99,0,0.000,0.162,0.232,0.233,-0.005,-0.007,1.000,0.000,0.000,0.000
8,0.0165,-0.3181,0.0083,0.0009,-0.0125,0.0058,-0.70,-0.17,-19.97,0,0.000,0.002,0.070,0.038,-0.002,-0.012,1.000,0.000,0.000,0.000
8,0.0166,-0.3186,0.0083,0.0012,-0.0143,0.0058,-0.70,-0.17,-19.95,0,0.000,0.008,-0.229,0.158,-0.002,-0.010,1.000,0.000,0.000,0.000
8,0.0164,-0.3185,0.0084,0.0001,-0.0130,0.0060,-0.70,-0.15,-19.93,0,0.000,0.043,-0.034,-0.429,-0.004,-0.011,1.001,0.000,0.000,0.000
8,0.0167,-0.3182,0.0087,0.0021,-0.0103,0.0075,-0.64,-0.15,-19.91,0,0.000,-0.102,0.129,0.230,-0.003,-0.011,0.999,0.000,0.000,0.000
8,0.0163,-0.3180,0.0088,-0.0003,-0.0087,0.0076,-0.69,-0.16,-19.89,0,0.000,-0.178,0.124,0.115,-0.003,-0.010,1.001,0.000,0.000,0.000
8,0.0158,-0.3194,0.0089,-0.0032,-0.0155,0.0077,-0.50,-0.18,-19.86,0,0.000,0.055,-0.286,-0.007,-0.002,-0.011,0.999,0.000,0.000,0.000
8,0.0165,-0.3188,0.0090,0.0009,-0.0108,0.0078,-0.38,-0.20,-19.84,0,0.000,-0.135,-0.349,-0.145,-0.003,-0.011,1.000,0.000,0.000,0.000
8,0.0154,-0.3231,0.0090,-0.0052,-0.0341,0.0074,-0.44,-0.18,-19.83,0,0.000,-0.084,0.012,-0.215,-0.003,-0.010,1.000,0.000,0.000,0.000
8,0.0154,-0.3266,0.0080,-0.0048,-0.0521,0.0016,-0.38,-0.24,-19.81,0,0.000,0.138,-0.286,-0.229,-0.003,-0.010,1.000,0.000,0.000,0.000
8,0.0148,-0.3266,0.0081,-0.0082,-0.0495,0.0018,-0.40,-0.23,-19.79,0,0.000,-0.084,0.180,0.154,-0.001,-0.009,1.001,0.000,0.000,0.000
8,0.0149,-0.3257,0.0082,-0.0073,-0.0424,0.0024,-0.44,-0.24,-19.77,0,0.000,0.187,-0.096,-0.074,-0.003,-0.009,1.000,0.000,0.000,0.000
8,0.0157,-0.3278,0.0081,-0.0025,-0.0516,0.0019,-0.53,-0.21,-19.75,0,0.000,0.039,0.064,0.101,-0.004,-0.011,1.000,0.000,0.000,0.000
8,0.0154,-0.3279,0.0082,-0.0038,-0.0499,0.0020,-0.54,-0.16,-19.73,0,0.000,-0.015,0.275,0.112,-0.004,-0.009,1.000,0.000,0.000,0.000
8,0.0159,-0.3277,0.0095,-0.0008,-0.0463,0.0087,-0.64,-0.16,-19.71,0,0.000,-0.087,0.074,0.191,-0.002,-0.010,1.004,0.000,0.000,0.000
8,0.0159,-0.3259,0.0097,-0.0008,-0.0343,0.0095,-0.69,-0.13,-19.69,0,0.000,0.083,0.151,-0.069,-0.000,-0.009,1.002,0.000,0.000,0.000
9,0.0151,-0.3257,0.0098,-0.0048,-0.0309,0.0097,-0.67,-0.15,-19.67,0,0.000,-0.043,0.067,-0.009,-0.003,-0.012,1.000,0.000,0.000,0.000
9,0.0158,-0.3239,0.0100,-0.0011,-0.0196,0.0102,-0.67,-0.19,-19.65,0,0.000,0.054,-0.065,-0.113,-0.002,-0.013,1.000,0.000,0.000,0.000
9,0.0155,-0.3228,0.0101,-0.0023,-0.0120,0.0104,-0.72,-0.18,-19.63,0,0.000,-0.087,-0.296,-0.082,-0.002,-0.012,1.002,0.000,0.000,0.000
9,0.0157,-0.3235,0.0093,-0.0013,-0.0149,0.0055,-0.72,-0.15,-19.61,0,0.000,-0.116,-0.343,0.041,-0.002,-0.011,1.000,0.000,0.000,0.000
9,0.0165,-0.3237,0.0093,0.0031,-0.0154,0.0057,-0.64,-0.15,-19.60,0,0.000,-0.029,0.061,-0.112,-0.003,-0.011,1.002,0.000,0.000,0.000
9,0.0167,-0.3230,0.0094,0.0046,-0.0102,0.0061,-0.65,-0.18,-19.58,0,0.000,-0.078,-0.020,0.125,-0.004,-0.012,0.999,0.000,0.000,0.000
9,0.0161,-0.3228,0.0094,0.0014,-0.0084,0.0063,-0.66,-0.14,-19.56,0,0.000,-0.002,-0.289,0.043,-0.004,-0.010,1.000,0.000,0.000,0.000
9,0.0155,-0.3245,0.0105,-0.0020,-0.0175,0.0115,-0.75,-0.15,-19.54,0,0.000,0.035,0.138,0.113,-0.005,-0.010,1.000,0.000,0.000,0.000
9,0.0161,-0.3247,0.0106,0.0013,-0.0177,0.0116,-0.71,-0.14,-19.52,0,0.000,0.050,-0.055,-0.180,-0.005,-0.010,1.000,0.000,0.000,0.000
9,0.0155,-0.3245,0.0107,-0.0019,-0.0157,0.0118,-0.71,-0.17,-19.50,0,0.000,-0.211,-0.379,0.083,-0.004,-0.011,1.000,0.000,0.000,0.000
9,0.0163,-0.3229,0.0109,0.0027,-0.0057,0.0121,-0.44,-0.13,-19.48,0,0.000,-0.175,-0.326,0.292,-0.003,-0.010,0.999,0.000,0.000,0.000
9,0.0159,-0.3236,0.0110,-0.0000,-0.0091,0.0122,-0.34,-0.17,-19.46,0,0.000,0.028,0.230,0.005,-0.004,-0.009,1.000,0.000,0.000,0.000
9,0.0165,-0.3238,0.0111,0.0030,-0.0095,0.0121,-0.40,-0.16,-19.44,0,0.000,0.360,-0.173,0.267,-0.003,-0.010,1.001,0.000,0.000,0.000
9,0.0138,-0.3294,0.0099,-0.0119,-0.0400,0.0045,-0.34,-0.18,-19.42,0,0.000,0.041,0.083,-0.009,-0.003,-0.011,1.002,0.000,0.000,0.000
9,0.0138,-0.3319,0.0098,-0.0118,-0.0520,0.0037,-0.41,-0.17,-19.40,0,0.000,-0.218,0.165,0.189,-0.003,-0.009,1.000,0.000,0.000,0.000
9,0.0138,-0.3311,0.0099,-0.0110,-0.0451,0.0045,-0.41,-0.17,-19.38,0,0.000,0.006,0.005,0.129,-0.004,-0.010,1.003,0.000,0.000,0.000
10,0.0136,-0.3330,0.0099,-0.0118,-0.0531,0.0038,-0.42,-0.17,-19.36,0,0.000,-0.160,-0.042,0.254,-0.002,-0.012,1.001,0.000,0.000,0.000
10,0.0139,-0.3321,0.0085,-0.0094,-0.0451,-0.0038,-0.45,-0.16,-19.34,0,0.000,-0.069,0.104,-0.055,-0.004,-0.012,1.001,0.000,0.000,0.000
10,0.0138,-0.3325,0.0084,-0.0095,-0.0453,-0.0037,-0.51,-0.17,-19.32,0,0.000,-0.124,0.177,0.118,-0.003,-0.011,1.000,0.000,0.000,0.000
10,0.0138,-0.3327,0.0084,-0.0094,-0.0441,-0.0034,-0.54,-0.17,-19.30,0,0.000,-0.101,-0.084,0.044,-0.003,-0.013,1.001,0.000,0.000,0.000
10,0.0136,-0.3326,0.0084,-0.0101,-0.0414,-0.0031,-0.56,-0.18,-19.28,0,0.000,-0.094,0.013,0.072,-0.003,-0.008,1.001,0.000,0.000,0.000
10,0.0143,-0.3320,0.0084,-0.0059,-0.0356,-0.0025,-0.91,-0.09,-19.26,0,0.000,0.046,0.066,-0.077,-0.002,-0.010,1.002,0.000,0.000,0.000
10,0.0144,-0.3316,0.0085,-0.0048,-0.0316,-0.0020,-0.91,-0.08,-19.24,0,0.000,0.007,0.133,0.011,-0.003,-0.011,1.001,0.000,0.000,0.000
10,0.0146,-0.3317,0.0091,-0.0035,-0.0305,0.0017,-0.91,-0.09,-19.22,0,0.000,-0.028,0.048,0.096,-0.002,-0.009,0.999,0.000,0.000,0.000
10,0.0153,-0.3240,0.0094,0.0005,0.0144,0.0030,-0.86,-0.08,-19.20,0,0.000,-0.328,0.043,-0.071,-0.002,-0.009,1.000,0.000,0.000,0.000
10,0.0152,-0.3237,0.0094,-0.0002,0.0155,0.0031,-0.86,-0.11,-19.18,0,0.000,0.017,0.169,-0.231,-0.002,-0.011,1.003,0.000,0.000,0.000
10,0.0152,-0.3236,0.0094,-0.0002,0.0161,0.0032,-0.90,-0.08,-19.16,0,0.000,0.034,0.078,-0.380,-0.005,-0.010,1.002,0.000,0.000,0.000
10,0.0147,-0.3243,0.0097,-0.0029,0.0114,0.0048,-0.88,-0.09,-19.15,0,0.000,-0.041,0.075,-0.055,-0.004,-0.012,1.002,0.000,0.000,0.000
10,0.0153,-0.3246,0.0098,0.0009,0.0098,0.0050,-0.89,-0.10,-19.13,0,0.000,-0.265,-0.268,0.285,-0.004,-0.010,1.003,0.000,0.000,0.000
10,0.0150,-0.3233,0.0098,-0.0005,0.0167,0.0048,-1.06,-0.16,-19.10,0,0.000,-0.014,0.053,-0.161,-0.003,-0.010,1.001,0.000,0.000,0.000
10,0.0150,-0.3235,0.0098,-0.0007,0.0153,0.0048,-1.28,-0.11,-19.08,0,0.000,-0.011,0.145,0.213,-0.003,-0.011,1.000,0.000,0.000,0.000
10,0.0152,-0.3234,0.0099,0.0009,0.0156,0.0049,-1.28,-0.11,-19.07,0,0.000,0.014,-0.044,0.027,-0.002,-0.011,1.000,0.000,0.000,0.000
11,0.0178,-0.3200,0.0098,0.0151,0.0342,0.0043,-1.28,-0.11,-19.05,0,0.000,-0.326,-0.285,0.239,-0.003,-0.010,1.000,0.000,0.000,0.000
11,0.0185,-0.3145,0.0087,0.0188,0.0641,-0.0018,-1.24,-0.15,-19.03,0,0.000,-0.086,0.226,0.347,-0.005,-0.011,0.998,0.000,0.000,0.000
11,0.0187,-0.3138,0.0087,0.0190,0.0652,-0.0015,-1.25,-0.09,-19.01,0,0.000,0.049,0.004,0.085,-0.002,-0.011,0.997,0.000,0.000,0.000
11,0.0195,-0.3144,0.0088,0.0224,0.0598,-0.0006,-1.21,-0.16,-18.99,0,0.000,-0.353,0.065,0.214,-0.004,-0.009,0.997,0.000,0.000,0.000
11,0.0191,-0.3134,0.0088,0.0194,0.0630,-0.0007,-1.17,-0.10,-18.97,0,0.000,0.127,-0.199,0.047,-0.005,-0.008,1.000,0.000,0.000,0.000
11,0.0187,-0.3126,0.0088,0.0163,0.0649,-0.0006,-1.25,-0.08,-18.95,0,0.000,-0.198,0.038,-0.475,-0.003,-0.011,1.000,0.000,0.000,0.000
11,0.0200,-0.3131,0.0085,0.0224,0.0597,-0.0019,-1.26,-0.07,-18.94,0,0.000,-0.205,-0.094,0.313,-0.003,-0.012,1.000,0.000,0.000,0.000
11,0.0186,-0.3129,0.0086,0.0141,0.0585,-0.0015,-1.15,-0.08,-18.92,0,0.000,0.073,0.057,0.080,-0.003,-0.010,1.001,0.000,0.000,0.000
11,0.0190,-0.3105,0.0084,0.0154,0.0691,-0.0027,-1.17,-0.23,-18.89,0,0.000,0.188,-0.017,-0.050,-0.002,-0.009,1.000,0.000,0.000,0.000
11,0.0191,-0.3097,0.0084,0.0151,0.0711,-0.0031,-1.16,-0.23,-18.87,0,0.000,-0.050,-0.027,0.027,-0.002,-0.012,0.998,0.000,0.000,0.000
11,0.0185,-0.3113,0.0087,0.0114,0.0596,-0.0012,-1.17,-0.20,-18.85,0,0.000,0.023,0.109,-0.250,-0.003,-0.010,1.000,0.000,0.000,0.000
11,0.0219,-0.3113,0.0097,0.0293,0.0573,0.0042,-1.10,-0.21,-18.83,0,0.000,0.028,-0.063,0.012,-0.003,-0.011,1.001,0.000,0.000,0.000
11,0.0222,-0.3107,0.0097,0.0296,0.0581,0.0042,-1.08,-0.21,-18.81,0,0.000,0.181,-0.118,-0.202,-0.003,-0.012,0.999,0.000,0.000,0.000
11,0.0220,-0.3098,0.0098,0.0275,0.0609,0.0043,-1.10,-0.19,-18.80,0,0.000,-0.092,0.205,-0.076,-0.002,-0.010,1.001,0.000,0.000,0.000
11,0.0220,-0.3107,0.0100,0.0260,0.0535,0.0053,-0.98,-0.19,-18.78,0,0.000,-0.093,0.107,-0.098,-0.004,-0.009,1.001,0.000,0.000,0.000
11,0.0222,-0.3106,0.0100,0.0263,0.0518,0.0054,-1.04,-0.20,-18.76,0,0.000,-0.093,-0.080,0.032,-0.004,-0.008,0.999,0.000,0.000,0.000
12,0.0221,-0.3095,0.0092,0.0248,0.0556,0.0008,-1.02,-0.07,-18.75,0,0.000,0.099,0.064,0.295,-0.003,-0.008,0.999,0.000,0.000,0.000
12,0.0215,-0.3114,0.0094,0.0203,0.0432,0.0020,-0.95,-0.08,-18.73,0,0.000,-0.024,0.225,-0.047,-0.002,-0.009,1.002,0.000,0.000,0.000
12,0.0222,-0.3099,0.0093,0.0234,0.0498,0.0015,-1.03,-0.09,-18.71,0,0.000,-0.192,0.161,0.030,-0.003,-0.009,1.000,0.000,0.000,0.000
12,0.0196,-0.3088,0.0094,0.0084,0.0536,0.0019,-1.01,-0.08,-18.70,0,0.000,0.228,0.318,-0.210,-0.005,-0.011,0.998,0.000,0.000,0.000
12,0.0195,-0.3099,0.0096,0.0072,0.0456,0.0028,-0.98,-0.06,-18.68,0,0.000,-0.351,0.106,0.590,-0.003,-0.011,1.000,0.000,0.000,0.000
12,0.0202,-0.3077,0.0084,0.0108,0.0556,-0.0036,-0.90,-0.07,-18.66,0,0.000,0.006,0.031,-0.048,-0.003,-0.010,1.002,0.000,0.000,0.000
12,0.0200,-0.3077,0.0084,0.0092,0.0538,-0.0034,-0.89,-0.09,-18.64,0,0.000,-0.397,-0.221,-0.019,-0.002,-0.010,0.999,0.000,0.000,0.000
12,0.0194,-0.3075,0.0084,0.0056,0.0527,-0.0032,-0.83,-0.13,-18.62,0,0.000,-0.193,0.273,0.257,-0.002,-0.010,0.998,0.000,0.000,0.000
12,0.0192,-0.3088,0.0085,0.0043,0.0437,-0.0023,-0.87,-0.10,-18.60,0,0.000,-0.223,0.253,-0.001,-0.002,-0.009,0.998,0.000,0.000,0.000
12,0.0194,-0.3088,0.0075,0.0053,0.0423,-0.0075,-0.85,-0.07,-18.58,0,0.000,-0.190,-0.169,0.160,-0.003,-0.007,1.001,0.000,0.000,0.000
12,0.0199,-0.3100,0.0075,0.0076,0.0336,-0.0071,-0.87,-0.11,-18.56,0,0.000,-0.282,-0.245,0.130,-0.003,-0.011,1.000,0.000,0.000,0.000
12,0.0197,-0.3086,0.0074,0.0062,0.0397,-0.0071,-0.81,-0.11,-18.54,0,0.000,-0.020,-0.047,0.137,-0.002,-0.010,0.999,0.000,0.000,0.000
12,0.0189,-0.3084,0.0073,0.0016,0.0394,-0.0070,-0.82,-0.10,-18.53,0,0.000,0.116,-0.081,0.153,-0.002,-0.010,1.001,0.000,0.000,0.000
12,0.0200,-0.3078,0.0072,0.0074,0.0406,-0.0072,-0.81,-0.13,-18.50,0,0.000,0.026,-0.039,-0.279,-0.004,-0.009,0.999,0.000,0.000,0.000
12,0.0196,-0.3088,0.0072,0.0053,0.0336,-0.0069,-0.80,-0.11,-18.49,0,0.000,0.087,-0.181,-0.080,-0.003,-0.009,1.001,0.000,0.000,0.000
12,0.0194,-0.3081,0.0075,0.0041,0.0363,-0.0050,-0.74,-0.12,-18.47,0,0.000,-0.034,-0.017,-0.180,-0.003,-0.010,1.001,0.000,0.000,0.000
13,0.0201,-0.3081,0.0075,0.0075,0.0347,-0.0049,-0.73,-0.11,-18.45,0,0.000,-0.170,0.243,0.188,-0.003,-0.009,1.000,0.000,0.000,0.000
13,0.0198,-0.3077,0.0074,0.0054,0.0350,-0.0050,-0.71,-0.11,-18.44,0,0.000,-0.225,0.177,-0.185,-0.004,-0.010,1.000,0.000,0.000,0.000
13,0.0196,-0.3088,0.0074,0.0045,0.0277,-0.0046,-0.71,-0.11,-18.42,0,0.000,0.007,-0.085,0.140,-0.003,-0.012,1.000,0.000,0.000,0.000
13,0.0194,-0.3087,0.0072,0.0032,0.0269,-0.0054,-0.74,-0.12,-18.40,0,0.000,0.081,-0.259,-0.084,-0.001,-0.012,1.001,0.000,0.000,0.000
13,0.0192,-0.3088,0.0072,0.0015,0.0251,-0.0053,-0.70,-0.13,-18.38,0,0.000,0.018,-0.234,-0.141,-0.002,-0.010,1.001,0.000,0.000,0.000
13,0.0192,-0.3086,0.0071,0.0018,0.0251,-0.0052,-0.69,-0.14,-18.36,0,0.000,-0.178,-0.096,0.045,-0.001,-0.006,1.001,0.000,0.000,0.000
13,0.0198,-0.3077,0.0071,0.0045,0.0290,-0.0053,-0.70,-0.14,-18.35,0,0.000,-0.204,-0.023,0.251,-0.002,-0.008,1.000,0.000,0.000,0.000
13,0.0198,-0.3084,0.0070,0.0043,0.0241,-0.0051,-0.66,-0.14,-18.33,0,0.000,0.390,-0.059,-0.038,-0.003,-0.010,0.999,0.000,0.000,0.000
13,0.0200,-0.3084,0.0070,0.0050,0.0225,-0.0050,-0.69,-0.12,-18.31,0,0.000,-0.230,0.106,-0.001,-0.003,-0.010,1.001,0.000,0.000,0.000
13,0.0201,-0.3081,0.0065,0.0055,0.0234,-0.0072,-0.68,-0.14,-18.29,0,0.000,-0.095,-0.255,0.031,-0.003,-0.009,1.002,0.000,0.000,0.000
13,0.0199,-0.3086,0.0065,0.0043,0.0189,-0.0069,-0.68,-0.14,-18.27,0,0.000,-0.067,0.043,-0.297,-0.004,-0.009,1.002,0.000,0.000,0.000
13,0.0198,-0.3077,0.0064,0.0035,0.0232,-0.0070,-0.68,-0.14,-18.25,0,0.000,0.268,-0.087,0.125,-0.005,-0.011,1.001,0.000,0.000,0.000
13,0.0200,-0.3078,0.0063,0.0046,0.0221,-0.0069,-0.62,-0.11,-18.24,0,0.000,-0.234,-0.029,0.155,-0.003,-0.009,0.999,0.000,0.000,0.000
13,0.0200,-0.3075,0.0082,0.0047,0.0226,0.0033,-0.62,-0.11,-18.22,0,0.000,-0.056,0.084,0.056,-0.003,-0.008,1.001,0.000,0.000,0.000
13,0.0202,-0.3076,0.0082,0.0055,0.0211,0.0034,-0.64,-0.14,-18.20,0,0.000,0.154,0.265,0.039,-0.004,-0.011,1.001,0.000,0.000,0.000
13,0.0192,-0.3081,0.0083,-0.0006,0.0171,0.0037,-0.58,-0.13,-18.18,0,0.000,-0.246,-0.085,0.027,-0.003,-0.010,1.001,0.000,0.000,0.000
14,0.0196,-0.3076,0.0083,0.0015,0.0193,0.0039,-0.55,-0.16,-18.16,0,0.000,0.036,-0.083,0.158,-0.004,-0.010,1.003,0.000,0.000,0.000
14,0.0200,-0.3075,0.0083,0.0039,0.0187,0.0040,-0.57,-0.18,-18.14,0,0.000,-0.032,0.185,-0.031,-0.003,-0.010,1.002,0.000,0.000,0.000
14,0.0192,-0.3086,0.0084,-0.0008,0.0120,0.0043,-0.58,-0.14,-18.12,0,0.000,-0.133,-0.178,-0.099,-0.001,-0.012,1.001,0.000,0.000,0.000
14,0.0197,-0.3092,0.0074,0.0017,0.0081,-0.0013,-0.61,-0.14,-18.11,0,0.000,0.130,-0.019,-0.252,-0.002,-0.011,1.001,0.000,0.000,0.000
14,0.0202,-0.3089,0.0074,0.0044,0.0091,-0.0013,-0.56,-0.14,-18.09,0,0.000,-0.147,0.192,-0.135,-0.006,-0.011,1.001,0.000,0.000,0.000
14,0.0196,-0.3083,0.0074,0.0005,0.0121,-0.0012,-0.54,-0.14,-18.07,0,0.000,-0.170,0.077,0.157,-0.004,-0.012,1.000,0.000,0.000,0.000
14,0.0197,-0.3077,0.0074,0.0015,0.0148,-0.0011,-0.56,-0.14,-18.05,0,0.000,0.019,-0.173,-0.122,-0.002,-0.011,1.000,0.000,0.000,0.000
14,0.0195,-0.3085,0.0074,-0.0000,0.0098,-0.0007,-0.56,-0.15,-18.04,0,0.000,-0.008,0.036,0.034,-0.002,-0.011,1.001,0.000,0.000,0.000
14,0.0194,-0.3088,0.0076,-0.0007,0.0070,0.0008,-0.60,-0.14,-18.02,0,0.000,-0.240,-0.181,0.277,-0.002,-0.010,1.000,0.000,0.000,0.000
14,0.0195,-0.3084,0.0076,0.0000,0.0086,0.0009,-0.52,-0.17,-18.00,0,0.000,-0.166,0.038,0.262,-0.003,-0.006,1.000,0.000,0.000,0.000
14,0.0196,-0.3082,0.0076,0.0001,0.0092,0.0010,-0.53,-0.18,-17.98,0,0.000,-0.112,-0.023,-0.176,-0.003,-0.008,1.002,0.000,0.000,0.000
14,0.0196,-0.3074,0.0076,0.0002,0.0132,0.0010,-0.59,-0.16,-17.96,0,0.000,-0.004,-0.175,0.115,-0.001,-0.008,1.001,0.000,0.000,0.000
14,0.0199,-0.3092,0.0077,0.0017,0.0024,0.0013,-0.59,-0.15,-17.94,0,0.000,0.299,0.191,-0.255,-0.003,-0.009,1.002,0.000,0.000,0.000
14,0.0201,-0.3091,0.0078,0.0030,0.0029,0.0020,-0.58,-0.14,-17.93,0,0.000,0.032,-0.169,-0.153,-0.002,-0.012,1.001,0.000,0.000,0.000
14,0.0202,-0.3076,0.0079,0.0032,0.0107,0.0020,-0.53,-0.14,-17.91,0,0.000,0.110,-0.069,0.060,-0.004,-0.010,1.001,0.000,0.000,0.000
14,0.0200,-0.3075,0.0079,0.0021,0.0107,0.0021,-0.57,-0.18,-17.89,0,0.000,-0.440,-0.086,0.191,-0.003,-0.011,1.000,0.000,0.000,0.000
15,0.0196,-0.3074,0.0079,-0.0000,0.0111,0.0022,-0.56,-0.14,-17.87,0,0.000,0.252,-0.102,-0.367,-0.004,-0.011,1.001,0.000,0.000,0.000
15,0.0193,-0.3084,0.0084,-0.0016,0.0053,0.0047,-0.56,-0.14,-17.86,0,0.000,-0.004,-0.006,-0.246,-0.003,-0.009,1.003,0.000,0.000,0.000
15,0.0206,-0.3077,0.0084,0.0055,0.0087,0.0049,-0.54,-0.14,-17.84,0,0.000,-0.355,-0.026,0.039,-0.004,-0.009,1.001,0.000,0.000,0.000
15,0.0196,-0.3076,0.0085,-0.0004,0.0087,0.0051,-0.55,-0.17,-17.82,0,0.000,-0.066,-0.083,-0.071,-0.002,-0.010,0.998,0.000,0.000,0.000
15,0.0196,-0.3074,0.0085,-0.0000,0.0093,0.0052,0.00,0.00,0.00,0,0.000,-0.153,0.177,0.181,-0.003,-0.010,1.001,0.000,0.000,0.000
15,0.0196,-0.3076,0.0086,-0.0005,0.0077,0.0053,-0.01,0.01,0.00,0,0.000,0.064,-0.000,0.054,-0.002,-0.009,1.002,0.000,0.000,0.000
15,0.0204,-0.3076,0.0086,0.0039,0.0068,0.0054,-0.02,-0.00,0.00,0,0.000,0.105,-0.096,0.066,-0.002,-0.011,1.002,0.000,0.000,0.000
15,0.0000,0.0000,0.0000,-0.0011,0.0149,0.0000,0.00,0.00,0.00,0,0.000,-0.238,-0.334,-0.286,-0.002,-0.012,1.001,0.000,0.000,0.000
15,-0.0000,0.0001,-2.7422,-0.0037,0.0159,0.0001,0.00,0.01,-0.00,0,0.000,0.234,-0.176,-0.194,-0.003,-0.011,1.001,0.000,0.000,0.000
15,-0.0000,0.0003,-3.0222,-0.0030,0.0154,-0.0000,-0.42,0.11,-0.00,0,0.000,0.030,0.151,-0.085,-0.004,-0.011,0.997,0.000,0.000,0.000
15,-0.0001,0.0004,-2.8612,-0.0038,0.0139,0.0000,-0.31,-0.01,-0.00,0,0.000,-0.102,0.216,-0.039,-0.003,-0.012,0.998,0.000,0.000,0.000
15,-0.0006,0.0029,0.0054,-0.0171,0.0786,-0.0003,-0.20,0.04,-0.00,0,0.000,0.177,-0.173,-0.461,-0.004,-0.013,0.999,0.000,0.000,0.000
15,-0.0007,0.0034,0.0057,-0.0165,0.0713,0.0003,-0.12,0.05,-0.01,0,0.000,-0.001,-0.191,0.075,-0.004,-0.012,1.000,0.000,0.000,0.000
15,-0.0007,0.0039,0.0059,-0.0118,0.0663,0.0008,-0.18,0.20,-0.01,0,0.000,-0.138,0.006,-0.091,-0.004,-0.011,1.002,0.000,0.000,0.000
15,-0.0009,0.0043,0.0061,-0.0141,0.0614,0.0012,-0.05,0.01,-0.01,0,0.000,-0.058,-0.160,0.286,-0.002,-0.012,1.003,0.000,0.000,0.000
16,-0.0010,0.0048,0.0061,-0.0150,0.0580,0.0011,0.17,-0.07,-0.01,0,0.000,-0.042,0.035,-0.345,-0.003,-0.008,1.001,0.000,0.000,0.000
16,-0.0015,0.0054,0.0061,-0.0204,0.0589,0.0007,0.61,-0.15,-0.01,0,0.000,-0.095,-0.262,-0.103,-0.003,-0.010,1.000,0.000,0.000,0.000
16,-0.0013,0.0058,0.0066,-0.0147,0.0536,0.0017,0.61,-0.15,-0.01,0,0.000,0.135,0.129,0.167,-0.004,-0.011,1.000,0.000,0.000,0.000
16,-0.0013,0.0058,0.0067,-0.0122,0.0449,0.0021,0.51,-0.17,-0.01,0,0.000,-0.055,0.149,0.077,-0.004,-0.011,1.000,0.000,0.000,0.000
16,-0.0012,0.0051,0.0068,-0.0098,0.0279,0.0027,0.31,-0.20,-0.01,0,0.000,0.054,0.011,0.042,-0.003,-0.009,1.000,0.000,0.000,0.000
16,-0.0013,0.0054,0.0068,-0.0098,0.0258,0.0031,0.39,-0.27,-0.01,0,0.000,-0.160,0.065,-0.096,-0.003,-0.009,1.000,0.000,0.000,0.000
16,-0.0013,0.0060,0.0081,-0.0089,0.0276,0.0076,0.39,-0.27,-0.01,0,0.000,-0.132,-0.113,0.038,-0.002,-0.011,1.001,0.000,0.000,0.000
16,-0.0013,0.0068,0.0082,-0.0081,0.0333,0.0074,0.56,-0.23,-0.01,0,0.000,0.047,-0.184,-0.182,-0.004,-0.010,1.000,0.000,0.000,0.000
16,-0.0012,0.0069,0.0082,-0.0053,0.0287,0.0076,0.71,-0.19,-0.01,0,0.000,-0.169,-0.110,0.103,-0.002,-0.010,1.001,0.000,0.000,0.000
16,-0.0014,0.0066,0.0083,-0.0067,0.0203,0.0077,0.84,-0.21,-0.01,0,0.000,0.030,0.099,-0.171,-0.003,-0.010,1.002,0.000,0.000,0.000
16,-0.0016,0.0063,0.0084,-0.0080,0.0126,0.0077,0.89,-0.33,-0.01,0,0.000,-0.146,-0.035,-0.259,-0.002,-0.011,1.001,0.000,0.000,0.000
16,-0.0016,0.0059,0.0085,-0.0073,0.0056,0.0077,0.54,-0.29,-0.01,0,0.000,-0.287,0.147,0.194,-0.002,-0.008,1.001,0.000,0.000,0.000
16,-0.0012,0.0058,0.0083,-0.0024,0.0008,0.0064,0.65,-0.39,-0.01,0,0.000,-0.063,0.246,-0.105,-0.003,-0.009,1.000,0.000,0.000,0.000
16,-0.0012,0.0056,0.0084,-0.0020,-0.0036,0.0063,0.70,-0.26,-0.01,0,0.000,-0.130,-0.108,0.158,-0.006,-0.010,1.000,0.000,0.000,0.000
16,-0.0014,0.0072,0.0085,-0.0035,0.0103,0.0066,0.52,-0.18,-0.01,0,0.000,-0.037,-0.026,0.289,-0.004,-0.009,0.999,0.000,0.000,0.000
16,-0.0010,0.0068,0.0086,0.0011,0.0036,0.0068,0.86,-0.20,-0.01,0,0.000,0.197,0.112,0.074,-0.003,-0.010,0.999,0.000,0.000,0.000
17,-0.0016,0.0066,0.0086,-0.0045,-0.0007,0.0069,0.83,-0.33,-0.01,0,0.000,-0.094,0.123,0.131,-0.004,-0.011,0.999,0.000,0.000,0.000
17,-0.0020,0.0074,0.0085,-0.0078,0.0053,0.0055,0.83,-0.33,-0.00,0,0.000,0.036,-0.425,-0.238,-0.004,-0.009,1.002,0.000,0.000,0.000
17,-0.0020,0.0057,0.0085,-0.0070,-0.0123,0.0055,0.71,-0.45,-0.01,0,0.000,-0.006,-0.066,0.229,-0.003,-0.011,1.001,0.000,0.000,0.000
17,-0.0014,0.0058,0.0086,-0.0008,-0.0134,0.0056,0.80,-0.13,-0.00,0,0.000,0.053,-0.058,-0.151,-0.003,-0.009,1.002,0.000,0.000,0.000
17,-0.0014,0.0056,0.0086,-0.0006,-0.0157,0.0054,0.49,-0.45,-0.01,0,0.000,-0.228,0.091,-0.159,-0.006,-0.009,1.000,0.000,0.000,0.000
17,-0.0007,0.0061,0.0087,0.0059,-0.0122,0.0055,0.73,-0.29,-0.01,0,0.000,-0.077,0.116,-0.234,-0.005,-0.010,1.003,0.000,0.000,0.000
17,-0.0026,0.0055,0.0080,-0.0103,-0.0190,0.0007,0.38,-0.40,-0.01,0,0.000,-0.449,-0.088,0.299,-0.004,-0.008,1.000,0.000,0.000,0.000
17,-0.0006,0.0072,0.0081,0.0063,-0.0054,0.0014,0.67,-0.29,-0.01,0,0.000,-0.184,-0.124,-0.090,-0.003,-0.011,1.002,0.000,0.000,0.000
17,-0.0016,0.0055,0.0081,-0.0016,-0.0201,0.0015,0.47,-0.39,-0.01,0,0.000,0.103,-0.036,-0.139,-0.005,-0.010,1.002,0.000,0.000,0.000
17,-0.0009,0.0078,0.0082,0.0045,-0.0031,0.0021,0.60,-0.35,-0.01,0,0.000,-0.040,-0.207,0.115,-0.003,-0.011,1.003,0.000,0.000,0.000
17,-0.0016,0.0056,0.0085,-0.0014,-0.0211,0.0040,0.42,-0.28,-0.01,0,0.000,0.041,0.048,-0.130,-0.002,-0.010,1.001,0.000,0.000,0.000
17,-0.0009,0.0068,0.0086,0.0043,-0.0119,0.0045,0.54,-0.28,-0.01,0,0.000,0.074,-0.068,-0.093,-0.003,-0.007,0.999,0.000,0.000,0.000
17,-0.0011,0.0057,0.0087,0.0024,-0.0214,0.0045,0.34,-0.28,-0.01,0,0.000,0.005,-0.252,-0.097,-0.003,-0.008,1.000,0.000,0.000,0.000
17,-0.0016,0.0069,0.0088,-0.0011,-0.0125,0.0050,0.07,-0.14,-0.01,0,0.000,-0.134,-0.087,0.029,-0.007,-0.012,1.000,0.000,0.000,0.000
17,-0.0016,0.0058,0.0088,-0.0009,-0.0218,0.0051,0.45,-0.31,-0.01,0,0.000,-0.105,-0.116,-0.114,-0.004,-0.010,1.001,0.000,0.000,0.000
17,-0.0016,0.0072,0.0089,-0.0007,-0.0114,0.0057,0.32,-0.36,-0.01,0,0.000,-0.165,-0.430,0.031,-0.004,-0.010,0.999,0.000,0.000,0.000
18,-0.0028,0.0095,0.0081,-0.0090,0.0036,0.0011,0.32,-0.28,-0.01,0,0.000,-0.069,0.038,0.052,-0.003,-0.009,1.001,0.000,0.000,0.000
18,-0.0014,0.0061,0.0082,0.0018,-0.0211,0.0015,0.37,-0.28,-0.01,0,0.000,-0.238,0.136,0.070,-0.004,-0.012,1.000,0.000,0.000,0.000
18,-0.0009,0.0071,0.0082,0.0052,-0.0142,0.0017,0.37,-0.28,-0.01,0,0.000,0.113,0.184,-0.365,-0.003,-0.011,1.000,0.000,0.000,0.000
18,-0.0016,0.0069,0.0082,-0.0001,-0.0162,0.0017,0.22,-0.33,-0.01,0,0.000,-0.274,-0.097,0.038,-0.002,-0.012,1.000,0.000,0.000,0.000
18,-0.0016,0.0062,0.0086,-0.0001,-0.0213,0.0033,0.20,-0.25,-0.01,0,0.000,0.001,-0.170,-0.011,-0.002,-0.013,1.000,0.000,0.000,0.000
18,-0.0016,0.0060,0.0086,0.0000,-0.0229,0.0032,0.20,-0.25,-0.01,0,0.000,0.007,0.052,-0.017,-0.004,-0.011,1.000,0.000,0.000,0.000
18,-0.0012,0.0072,0.0087,0.0033,-0.0145,0.0035,0.53,-0.34,-0.01,35506,0.000,-0.009,-0.121,-0.057,-0.001,-0.009,1.002,0.000,0.000,0.000
18,-0.0019,0.0073,0.0087,-0.0015,-0.0148,0.0036,0.86,-0.49,-0.01,35456,0.000,0.107,0.202,0.135,-0.003,-0.014,1.000,0.000,0.000,0.000
18,-0.0019,0.0071,0.0087,-0.0014,-0.0162,0.0036,0.70,-0.41,-0.01,35479,0.000,0.024,-0.059,-0.188,-0.004,-0.009,1.001,0.000,0.000,0.000
18,-0.0009,0.0033,0.0087,0.0056,-0.0413,0.0031,0.80,-0.57,-0.01,35438,0.000,0.093,0.220,0.862,0.001,-0.006,1.004,0.000,0.000,0.000
18,0.0009,-0.0009,0.0087,0.0170,-0.0679,0.0022,0.74,-0.42,-0.01,35410,0.000,0.703,-0.577,0.243,-0.007,-0.011,1.006,0.000,0.000,0.000
18,0.0001,0.0003,0.0089,0.0113,-0.0585,0.0034,0.66,-0.39,-0.01,35391,0.000,-1.850,2.007,0.026,-0.011,-0.022,1.003,0.000,0.000,0.000
18,0.0021,-0.0016,0.0088,0.0237,-0.0687,0.0026,0.61,-0.42,-0.01,35372,0.000,-1.056,1.241,-0.681,0.001,-0.014,1.018,0.000,0.000,0.000
18,0.0005,-0.0015,0.0090,0.0133,-0.0648,0.0036,0.60,-0.32,-0.01,35338,0.000,0.455,-0.403,-0.932,-0.005,-0.019,0.991,0.000,0.000,0.000
18,0.0003,-0.0011,0.0091,0.0115,-0.0594,0.0042,0.55,-0.33,-0.01,35316,0.000,1.162,-0.248,-0.202,-0.007,-0.024,0.989,0.000,0.000,0.000
18,0.0007,-0.0012,0.0091,0.0144,-0.0575,0.0047,0.49,-0.32,-0.02,35417,0.000,-0.020,0.322,0.779,-0.014,-0.013,1.002,0.000,0.000,0.000
19,-0.0005,-0.0016,0.0092,0.0063,-0.0574,0.0052,0.48,-0.33,-0.02,35403,0.000,-1.372,0.177,0.110,-0.013,-0.023,1.003,0.000,0.000,0.000
19,-0.0003,-0.0015,0.0093,0.0078,-0.0542,0.0056,0.32,-0.33,-0.02,35404,0.000,0.226,0.725,-0.197,-0.010,-0.018,1.002,0.000,0.000,0.000
19,-0.0003,-0.0011,0.0094,0.0078,-0.0497,0.0067,0.24,-0.33,-0.02,35369,0.000,-0.088,-0.318,-0.329,-0.003,-0.017,0.993,0.000,0.000,0.000
19,-0.0003,0.0005,0.0096,0.0079,-0.0379,0.0075,0.38,-0.35,-0.02,35375,0.000,-0.547,-0.735,-0.256,-0.006,-0.022,1.009,0.000,0.000,0.000
19,-0.0003,0.0013,0.0090,0.0079,-0.0313,0.0038,0.22,-0.29,-0.03,35440,0.000,-0.348,0.670,-0.367,0.009,0.001,1.001,0.000,0.000,0.000
19,0.0001,-0.0011,0.0090,0.0107,-0.0439,0.0036,0.28,-0.29,-0.03,36437,0.000,-1.244,0.696,-0.172,-0.022,-0.006,1.006,0.000,0.000,0.000
19,-0.0006,0.0009,0.0091,0.0062,-0.0301,0.0043,0.22,-0.34,-0.03,36418,0.000,-2.370,2.581,-0.616,-0.032,-0.020,0.993,0.000,0.000,0.000
19,-0.0006,-0.0005,0.0091,0.0063,-0.0368,0.0044,0.09,-0.33,-0.04,36432,0.000,1.572,-1.393,-0.442,0.007,-0.011,0.992,0.000,0.000,0.000
19,-0.0006,-0.0006,0.0092,0.0064,-0.0360,0.0041,0.17,-0.31,-0.05,36458,0.000,1.492,-3.513,-1.114,0.021,-0.016,1.015,0.000,0.000,0.000
19,0.0001,-0.0005,0.0087,0.0109,-0.0337,0.0023,0.16,-0.30,-0.06,36186,0.000,-1.489,1.048,-5.386,0.009,-0.030,0.990,0.000,0.000,0.000
19,-0.0002,0.0010,0.0088,0.0092,-0.0238,0.0028,0.07,-0.31,-0.12,36192,0.000,-2.331,1.992,-1.862,-0.014,-0.004,1.004,0.000,0.000,0.000
19,-0.0000,-0.0002,0.0088,0.0100,-0.0295,0.0031,-0.11,-0.32,-0.13,36196,0.000,-1.715,0.691,5.512,-0.019,-0.002,1.002,0.000,0.000,0.000
19,0.0002,-0.0002,0.0089,0.0113,-0.0276,0.0028,-0.24,-0.31,-0.07,36228,0.000,0.817,-1.728,7.638,-0.014,-0.010,0.995,0.000,0.000,0.000
19,0.0003,0.0009,0.0089,0.0114,-0.0205,0.0021,-0.53,-0.31,0.01,36239,0.000,5.950,-7.546,9.841,-0.022,-0.024,1.007,0.000,0.000,0.000
19,0.0003,0.0032,0.0103,0.0114,-0.0062,0.0102,-0.46,-0.27,0.10,36186,0.000,4.557,-6.121,7.972,-0.007,-0.034,0.988,0.000,0.000,0.000
19,0.0002,0.0051,0.0103,0.0110,0.0049,0.0096,-0.41,-0.19,0.18,36228,0.000,4.954,-6.028,5.425,-0.001,-0.011,0.989,0.000,0.000,0.000
20,0.0008,0.0105,0.0102,0.0139,0.0356,0.0084,-0.51,-0.19,0.23,36244,0.000,-1.870,4.577,0.114,-0.010,-0.024,1.034,0.000,0.000,0.000
20,0.0013,0.0108,0.0103,0.0168,0.0363,0.0086,-0.50,-0.27,0.23,36168,0.000,-2.323,5.086,1.959,0.001,-0.014,0.968,0.000,0.000,0.000
20,0.0012,0.0112,0.0104,0.0155,0.0369,0.0082,-0.55,-0.27,0.25,36301,0.000,-3.346,3.262,3.183,-0.019,-0.005,1.038,0.000,0.000,0.000
20,0.0019,0.0137,0.0106,0.0191,0.0496,0.0088,-0.83,-0.21,0.28,36568,0.000,-0.867,3.887,4.438,-0.030,-0.016,0.988,0.000,0.000,0.000
20,0.0029,0.0137,0.0107,0.0238,0.0476,0.0084,-0.76,-0.27,0.33,37610,0.000,-0.842,-0.837,2.993,-0.031,-0.033,0.980,0.000,0.000,0.000
20,0.0023,0.0146,0.0108,0.0194,0.0508,0.0074,-0.81,-0.22,0.36,37649,0.000,-2.597,1.769,5.727,-0.036,-0.025,1.012,0.000,0.000,0.000
20,0.0007,0.0194,0.0105,0.0100,0.0756,0.0082,-0.76,-0.26,0.42,37647,0.000,-3.913,2.936,12.649,-0.017,-0.021,1.003,0.000,0.000,0.000
20,0.0014,0.0187,0.0108,0.0135,0.0687,0.0072,-0.79,-0.29,0.56,37603,0.000,-2.952,-0.300,18.000,0.007,-0.036,1.017,0.000,0.000,0.000
20,0.0004,0.0202,0.0087,0.0081,0.0745,-0.0014,-0.71,-0.29,0.74,37778,0.000,2.371,-3.771,16.614,-0.004,-0.037,1.000,0.000,0.000,0.000
20,0.0007,0.0195,0.0088,0.0096,0.0678,-0.0011,-0.68,-0.17,0.90,37781,0.000,10.152,-6.571,5.554,-0.011,-0.006,0.985,0.000,0.000,0.000
20,0.0008,0.0202,0.0088,0.0100,0.0691,-0.0033,-0.59,-0.11,0.94,37801,0.000,14.104,-12.131,-1.381,0.000,-0.004,0.960,0.000,0.000,0.000
20,0.0007,0.0191,0.0090,0.0092,0.0611,-0.0015,-0.36,-0.00,0.93,37897,0.000,-6.686,2.304,2.348,0.007,-0.024,1.041,0.000,0.000,0.000
20,-0.0007,0.0196,0.0078,0.0017,0.0613,-0.0067,-0.39,-0.02,0.96,37817,0.000,2.136,-0.180,7.850,0.014,-0.013,0.988,0.000,0.000,0.000
20,-0.0001,0.0202,0.0077,0.0055,0.0624,-0.0046,-0.31,0.00,1.05,37804,0.000,0.133,0.952,11.059,-0.005,-0.007,0.990,0.000,0.000,0.000
20,-0.0000,0.0185,0.0079,0.0056,0.0510,-0.0031,-0.10,-0.04,1.16,37846,0.000,0.819,0.287,6.919,-0.013,-0.007,1.011,0.000,0.000,0.000
20,0.0002,0.0186,0.0078,0.0066,0.0496,-0.0044,-0.01,-0.03,1.23,37837,0.000,2.744,-2.912,5.718,-0.020,-0.025,1.018,0.000,0.000,0.000
21,-0.0002,0.0181,0.0078,0.0037,0.0444,-0.0073,-0.05,-0.02,1.29,37804,0.000,-2.977,5.311,6.158,-0.006,-0.049,1.018,0.000,0.000,0.000
21,0.0003,0.0143,0.0080,0.0066,0.0224,-0.0027,-0.01,-0.04,1.36,37815,0.000,0.907,-0.411,10.009,0.005,-0.025,0.931,0.000,0.000,0.000
21,0.0005,0.0131,0.0080,0.0073,0.0146,-0.0032,-0.08,0.02,1.47,38033,0.000,6.376,-6.505,16.045,0.005,0.001,1.017,0.000,0.000,0.000
21,0.0004,0.0140,0.0079,0.0061,0.0190,-0.0042,-0.17,0.06,1.63,39059,0.000,-3.964,3.312,15.216,-0.001,0.007,1.023,0.000,0.000,0.000
21,0.0002,0.0129,0.0079,0.0047,0.0119,-0.0032,-0.21,0.02,1.78,39009,0.000,-0.513,4.340,13.191,-0.025,-0.002,0.972,0.000,0.000,0.000
21,-0.0005,0.0152,0.0079,0.0008,0.0239,-0.0012,-0.21,-0.00,1.91,39092,0.000,-0.393,-2.429,12.381,-0.030,-0.031,1.011,0.000,0.000,0.000
21,-0.0005,0.0176,0.0075,0.0006,0.0354,-0.0026,-0.20,0.03,2.03,39086,0.000,5.120,-3.835,11.971,-0.001,-0.036,1.022,0.000,0.000,0.000
21,-0.0003,0.0182,0.0074,0.0019,0.0373,-0.0085,-0.09,0.04,2.15,38991,0.000,-4.141,7.015,8.281,0.008,-0.025,0.989,0.000,0.000,0.000
21,-0.0005,0.0182,0.0074,0.0005,0.0356,-0.0074,-0.09,-0.06,2.23,39023,0.000,-6.198,5.869,5.909,-0.008,-0.030,1.003,0.000,0.000,0.000
21,-0.0005,0.0186,0.0073,0.0005,0.0360,-0.0053,-0.00,-0.09,2.29,39049,0.000,5.960,-6.919,8.538,-0.006,-0.012,0.959,0.000,0.000,0.000
21,-0.0001,0.0176,0.0073,0.0024,0.0290,-0.0071,-0.03,0.00,2.39,39146,0.000,3.707,-5.621,12.248,-0.008,-0.009,1.037,0.000,0.000,0.000
21,0.0005,0.0168,0.0073,0.0058,0.0232,-0.0061,0.14,-0.02,2.50,39118,0.000,-4.942,5.047,8.526,-0.030,-0.023,1.017,0.000,0.000,0.000
21,0.0005,0.0144,0.0076,0.0055,0.0087,-0.0019,0.20,-0.08,2.58,38975,0.000,1.752,-0.957,7.503,-0.023,-0.027,0.989,0.000,0.000,0.000
21,0.0002,0.0165,0.0076,0.0038,0.0199,-0.0025,0.22,-0.07,2.65,39016,0.000,0.573,-0.155,7.836,-0.017,-0.030,1.008,0.000,0.000,0.000
21,0.0014,0.0132,0.0076,0.0100,0.0008,-0.0023,0.22,-0.06,2.75,39018,0.000,3.941,-1.910,12.962,-0.006,-0.018,0.956,0.000,0.000,0.000
21,0.0019,0.0111,0.0075,0.0125,-0.0108,-0.0059,0.26,-0.03,2.88,39142,0.000,0.600,-0.811,16.467,-0.002,-0.010,0.983,0.000,0.000,0.000
22,0.0022,0.0109,0.0081,0.0131,-0.0117,0.0000,0.20,-0.04,3.06,39176,0.000,-4.918,4.793,17.338,-0.003,0.010,1.073,0.000,0.000,0.000
22,0.0023,0.0108,0.0081,0.0135,-0.0115,0.0020,0.17,-0.07,3.22,39130,0.000,-1.650,3.884,13.002,-0.011,0.002,1.001,0.000,0.000,0.000
22,0.0025,0.0115,0.0081,0.0137,-0.0076,0.0014,0.20,-0.01,3.33,40153,0.000,3.885,-3.798,5.564,-0.016,-0.027,0.969,0.000,0.000,0.000
22,0.0021,0.0112,0.0082,0.0111,-0.0096,0.0020,0.20,0.05,3.38,40247,0.000,7.229,-7.203,6.625,-0.012,-0.013,0.956,0.000,0.000,0.000
22,0.0026,0.0119,0.0082,0.0132,-0.0053,-0.0019,0.34,0.08,3.45,40395,0.000,0.765,1.055,4.269,0.008,0.007,1.028,0.000,0.000,0.000
22,0.0008,0.0102,0.0082,0.0033,-0.0144,-0.0024,0.26,0.07,3.48,40374,0.000,-2.966,3.491,0.471,0.010,-0.002,1.069,0.000,0.000,0.000
22,0.0006,0.0112,0.0077,0.0021,-0.0088,0.0012,0.28,-0.00,3.48,40229,0.000,-3.696,6.098,-1.123,-0.009,-0.009,0.993,0.000,0.000,0.000
22,0.0017,0.0092,0.0077,0.0073,-0.0191,0.0016,0.39,-0.01,3.47,40254,0.000,-2.124,1.576,0.415,-0.018,-0.028,0.981,0.000,0.000,0.000
22,0.0016,0.0102,0.0077,0.0067,-0.0134,-0.0010,0.41,-0.03,3.49,40324,0.000,0.216,-5.435,5.009,-0.023,-0.032,0.979,0.000,0.000,0.000
22,0.0018,0.0094,0.0077,0.0072,-0.0173,-0.0055,0.37,0.02,3.55,40393,0.000,6.134,-6.705,8.594,-0.010,-0.014,0.985,0.000,0.000,0.000
22,0.0011,0.0061,0.0075,0.0033,-0.0343,-0.0030,0.39,0.09,3.64,40420,0.000,-1.577,0.595,13.701,-0.009,0.019,1.023,0.000,0.000,0.000
22,0.0018,0.0048,0.0077,0.0066,-0.0398,0.0037,0.29,0.08,3.78,40490,0.000,-6.507,7.587,14.679,-0.016,0.015,1.023,0.000,0.000,0.000
22,0.0018,0.0058,0.0078,0.0065,-0.0331,0.0037,0.07,-0.00,3.93,40477,0.000,-2.135,2.619,13.178,-0.010,0.011,0.999,0.000,0.000,0.000
22,0.0018,0.0060,0.0079,0.0059,-0.0308,0.0021,-0.15,0.06,4.06,40597,0.000,1.613,-3.506,14.534,0.006,-0.011,0.984,0.000,0.000,0.000
22,0.0014,0.0069,0.0079,0.0035,-0.0256,0.0004,-0.19,0.16,4.21,40651,0.000,-0.374,-1.538,16.350,0.010,-0.019,0.981,0.000,0.000,0.000
22,0.0014,0.0107,0.0081,0.0034,-0.0047,0.0003,-0.48,0.18,4.38,40710,0.000,3.941,-3.385,13.402,-0.007,-0.021,0.986,0.000,0.000,0.000
23,-0.0001,0.0154,0.0076,-0.0048,0.0201,-0.0002,-0.39,0.21,4.49,40801,0.000,8.074,-5.753,6.185,-0.029,-0.013,1.010,0.000,0.000,0.000
23,-0.0015,0.0164,0.0076,-0.0122,0.0246,0.0017,-0.33,0.18,4.55,41825,0.000,-7.083,7.666,2.225,-0.024,-0.017,1.045,0.000,0.000,0.000
23,-0.0019,0.0233,0.0072,-0.0138,0.0600,-0.0011,-0.55,0.14,4.57,41721,0.000,0.952,1.966,3.195,-0.001,-0.031,1.015,0.000,0.000,0.000
23,-0.0018,0.0231,0.0073,-0.0128,0.0566,-0.0021,-0.55,0.14,4.61,41680,0.000,2.468,-3.932,6.267,-0.001,-0.027,0.998,0.000,0.000,0.000
23,-0.0010,0.0230,0.0076,-0.0083,0.0540,-0.0020,-0.45,0.12,4.67,41705,0.000,-3.476,-1.845,4.214,-0.012,-0.016,0.994,0.000,0.000,0.000
23,-0.0019,0.0277,0.0073,-0.0133,0.0761,-0.0054,-0.39,0.15,4.70,41823,0.000,0.397,-2.717,1.438,-0.017,-0.031,0.990,0.000,0.000,0.000
23,-0.0021,0.0287,0.0072,-0.0137,0.0783,-0.0045,-0.36,0.05,4.72,41919,0.000,1.831,-1.441,-0.209,-0.010,-0.024,0.965,0.000,0.000,0.000
23,-0.0010,0.0279,0.0074,-0.0076,0.0711,0.0009,-0.35,0.11,4.71,42068,0.000,1.763,-2.585,-2.670,-0.012,-0.011,1.022,0.000,0.000,0.000
23,-0.0012,0.0268,0.0077,-0.0084,0.0622,0.0036,-0.39,0.14,4.68,41958,0.000,1.145,1.455,-2.015,-0.006,-0.013,1.038,0.000,0.000,0.000
23,0.0014,0.0270,0.0078,0.0053,0.0603,0.0039,-0.47,0.14,4.67,41933,0.000,-1.657,5.468,0.179,0.003,-0.022,1.003,0.000,0.000,0.000
23,0.0006,0.0277,0.0075,0.0009,0.0616,0.0015,-0.32,0.06,4.67,42162,0.000,-4.094,1.339,-0.435,0.001,-0.029,1.002,0.000,0.000,0.000
23,0.0001,0.0295,0.0074,-0.0023,0.0687,-0.0005,-0.39,0.06,4.66,42170,0.000,4.101,-5.048,-4.344,0.003,-0.021,1.008,0.000,0.000,0.000
23,-0.0006,0.0319,0.0072,-0.0064,0.0781,-0.0044,-0.33,0.10,4.62,42200,0.000,2.407,-0.414,-2.323,-0.004,-0.028,1.046,0.000,0.000,0.000
23,0.0002,0.0291,0.0077,-0.0015,0.0592,0.0007,-0.25,0.11,4.60,42163,0.000,-0.775,-1.899,-2.116,-0.003,-0.034,1.035,0.000,0.000,0.000
23,0.0001,0.0304,0.0065,-0.0024,0.0640,-0.0022,-0.31,0.19,4.58,42041,0.000,-0.020,-6.506,-4.605,-0.004,-0.030,1.011,0.000,0.000,0.000
23,0.0004,0.0310,0.0065,-0.0006,0.0643,-0.0017,-0.34,0.27,4.51,42178,0.000,0.118,-11.073,-8.098,0.002,-0.021,0.973,0.000,0.000,0.000
24,0.0005,0.0296,0.0066,-0.0003,0.0536,-0.0007,-0.24,0.33,4.43,43237,0.000,-1.246,-11.655,-9.774,0.003,-0.012,0.983,0.000,0.000,0.000
24,-0.0006,0.0318,0.0065,-0.0065,0.0631,0.0000,-0.39,0.53,4.31,43328,0.000,-0.040,-15.825,-15.876,-0.013,-0.006,0.990,0.000,0.000,0.000
24,-0.0011,0.0334,0.0065,-0.0092,0.0688,0.0033,-0.31,0.65,4.14,43378,0.000,-1.757,-10.032,-17.970,-0.017,0.003,0.980,0.000,0.000,0.000
24,0.0006,0.0312,0.0069,-0.0002,0.0539,0.0090,-0.28,0.77,3.96,43476,0.000,1.580,-10.488,-18.254,-0.011,-0.009,0.979,0.000,0.000,0.000
24,-0.0011,0.0356,0.0064,-0.0099,0.0751,0.0062,-0.23,0.85,3.77,43636,0.000,-2.956,-6.399,-18.641,-0.001,-0.010,0.984,0.000,0.000,0.000
24,-0.0009,0.0338,0.0067,-0.0094,0.0615,0.0053,-0.23,0.92,3.59,43738,0.000,2.740,-3.190,-14.431,0.005,-0.019,0.979,0.000,0.000,0.000
24,-0.0016,0.0341,0.0067,-0.0133,0.0602,0.0035,-0.17,0.93,3.45,43834,0.000,1.015,-2.533,-12.723,0.007,-0.024,0.992,0.000,0.000,0.000
24,-0.0014,0.0331,0.0069,-0.0130,0.0519,0.0032,-0.19,0.93,3.33,43893,0.000,-0.038,-0.191,-10.817,0.005,-0.020,1.002,0.000,0.000,0.000
24,-0.0017,0.0337,0.0065,-0.0154,0.0523,-0.0007,-0.12,0.99,3.22,43917,0.000,-5.684,2.039,-10.055,-0.004,-0.027,1.020,0.000,0.000,0.000
24,-0.0013,0.0330,0.0066,-0.0138,0.0463,-0.0023,-0.14,0.95,3.11,43962,0.000,0.397,1.743,-10.129,-0.000,-0.017,1.006,0.000,0.000,0.000
24,-0.0013,0.0339,0.0065,-0.0148,0.0486,-0.0043,-0.14,0.95,3.11,43998,0.000,7.971,-5.532,-7.763,0.006,-0.011,1.007,0.000,0.000,0.000
24,-0.0029,0.0328,0.0065,-0.0241,0.0402,-0.0059,-0.01,0.93,3.02,44054,0.000,-11.189,-0.529,-6.741,0.005,-0.016,0.996,0.000,0.000,0.000
24,-0.0024,0.0325,0.0065,-0.0219,0.0363,-0.0062,0.20,0.99,2.92,44110,0.000,-3.361,0.187,-8.717,0.004,-0.021,1.010,0.000,0.000,0.000
24,-0.0022,0.0311,0.0065,-0.0212,0.0268,-0.0051,0.04,1.03,2.86,44160,0.000,1.417,-7.189,-9.248,0.024,-0.022,1.011,0.000,0.000,0.000
24,-0.0028,0.0269,0.0063,-0.0249,0.0022,-0.0042,0.32,1.03,2.75,43958,0.000,3.199,-5.916,-9.205,0.010,-0.011,1.032,0.000,0.000,0.000
25,-0.0039,0.0279,0.0062,-0.0309,0.0074,-0.0035,0.38,1.08,2.64,44066,0.000,4.926,-11.469,-7.506,0.004,-0.020,0.993,0.000,0.000,0.000
25,-0.0037,0.0214,0.0061,-0.0297,-0.0286,-0.0033,0.41,1.20,2.56,45095,0.000,-2.215,-5.669,-8.335,0.003,-0.028,1.006,0.000,0.000,0.000
25,-0.0029,0.0204,0.0060,-0.0257,-0.0333,-0.0034,0.62,1.32,2.46,45151,0.000,-3.280,-13.114,-3.622,0.008,-0.027,1.006,0.000,0.000,0.000
25,-0.0047,0.0202,0.0059,-0.0360,-0.0331,-0.0030,0.81,1.38,2.37,45349,0.000,-0.475,-6.583,-0.468,0.005,-0.028,1.015,0.000,0.000,0.000
25,-0.0045,0.0160,0.0070,-0.0347,-0.0553,0.0049,0.74,1.57,2.34,45327,0.000,-6.966,-7.132,-2.684,0.005,-0.032,1.012,0.000,0.000,0.000
25,-0.0044,0.0105,0.0065,-0.0348,-0.0837,0.0037,0.74,1.57,2.34,45385,0.000,-10.654,-5.209,-3.006,0.005,-0.031,0.998,0.000,0.000,0.000
25,-0.0054,0.0108,0.0067,-0.0403,-0.0787,0.0045,0.89,1.73,2.25,45469,0.000,-11.021,-2.652,0.697,0.004,-0.029,0.995,0.000,0.000,0.000
25,-0.0056,0.0097,0.0067,-0.0420,-0.0820,0.0047,0.89,1.73,2.25,45522,0.000,-18.410,2.048,1.927,0.014,-0.026,1.010,0.000,0.000,0.000
25,-0.0055,0.0044,0.0060,-0.0415,-0.1078,0.0008,0.54,1.81,2.28,45862,0.000,-23.349,10.504,2.448,0.017,-0.023,1.023,0.000,0.000,0.000
25,-0.0072,0.0004,0.0063,-0.0515,-0.1253,0.0034,0.54,1.81,2.28,45310,0.000,-26.067,6.815,0.572,0.018,-0.036,1.008,0.000,0.000,0.000
25,-0.0086,-0.0010,0.0063,-0.0588,-0.1277,0.0036,0.18,1.87,2.29,45390,0.000,-24.340,5.759,-0.818,0.005,-0.029,1.027,0.000,0.000,0.000
25,-0.0108,-0.0017,0.0062,-0.0708,-0.1260,0.0027,0.18,1.87,2.29,45379,0.000,-29.246,6.879,-2.123,0.005,-0.026,1.028,0.000,0.000,0.000
25,-0.0117,-0.0026,0.0063,-0.0746,-0.1250,0.0029,-0.40,1.81,2.25,45109,0.000,-34.771,7.971,-2.741,0.020,-0.031,1.039,0.000,0.000,0.000
25,-0.0168,-0.0076,0.0048,-0.1015,-0.1459,-0.0051,-0.72,1.71,2.21,44905,0.000,-30.881,9.481,-4.440,0.020,-0.030,1.020,0.000,0.000,0.000
26,-0.0185,-0.0085,0.0080,-0.1082,-0.1430,0.0130,-1.23,1.52,2.18,44709,0.000,-36.811,2.900,-8.760,0.020,-0.034,1.007,0.000,0.000,0.000
26,-0.0205,-0.0104,0.0079,-0.1166,-0.1457,0.0124,-1.23,1.52,2.18,44742,0.000,-29.060,0.263,-11.951,0.014,-0.035,1.018,0.000,0.000,0.000
26,-0.0217,-0.0118,0.0080,-0.1198,-0.1451,0.0149,-2.20,1.62,2.03,45695,0.000,-28.809,-6.182,-10.677,0.014,-0.034,1.011,0.000,0.000,0.000
26,-0.0207,-0.0093,0.0094,-0.1105,-0.1218,0.0251,-2.20,1.62,2.03,45878,0.000,-30.924,-12.850,-10.023,0.019,-0.036,0.985,0.000,0.000,0.000
26,-0.0215,-0.0054,0.0106,-0.1114,-0.0917,0.0332,-2.95,1.82,1.86,45901,0.000,-28.848,-11.594,-10.395,0.002,-0.033,0.999,0.000,0.000,0.000
26,-0.0255,-0.0041,0.0121,-0.1299,-0.0762,0.0401,-2.95,1.82,1.86,47006,0.000,-21.979,-10.397,-10.434,0.009,-0.025,0.998,0.000,0.000,0.000
26,-0.0275,-0.0025,0.0125,-0.1362,-0.0600,0.0402,-3.56,2.11,1.70,47095,0.000,-13.535,-6.793,-6.952,0.020,-0.019,1.009,0.000,0.000,0.000
26,-0.0277,-0.0018,0.0131,-0.1331,-0.0485,0.0433,-3.56,2.09,1.70,47329,0.000,-3.539,-5.447,-5.673,0.007,-0.020,0.994,0.000,0.000,0.000
26,-0.0319,0.0005,0.0128,-0.1518,-0.0288,0.0390,-4.11,2.42,1.66,47436,0.000,-2.172,-9.205,-1.684,0.007,-0.018,0.995,0.000,0.000,0.000
26,-0.0317,0.0013,0.0096,-0.1467,-0.0183,0.0189,-4.11,2.42,1.66,48009,0.000,-1.498,-4.928,-2.979,-0.000,-0.022,1.001,0.000,0.000,0.000
26,-0.0387,0.0088,0.0083,-0.1805,0.0291,0.0082,-4.38,2.48,1.70,48588,0.000,12.046,-0.749,-3.995,0.001,-0.021,1.011,0.000,0.000,0.000
26,-0.0399,0.0107,0.0083,-0.1814,0.0442,0.0074,-4.36,2.51,1.67,49285,0.000,27.334,6.336,-4.836,0.002,-0.017,1.007,0.000,0.000,0.000
26,-0.0420,0.0156,0.0075,-0.1870,0.0753,0.0025,-4.60,2.48,1.72,49510,0.000,45.590,13.294,-4.292,0.014,-0.015,1.011,0.000,0.000,0.000
26,-0.0429,0.0178,0.0075,-0.1863,0.0900,0.0011,-4.25,2.40,1.66,48995,0.000,53.428,23.516,0.045,0.007,-0.015,1.006,0.000,0.000,0.000
27,-0.0455,0.0258,0.0050,-0.1952,0.1354,-0.0139,-4.26,2.25,1.73,48742,0.000,65.107,34.513,-0.579,-0.004,-0.016,0.999,0.000,0.000,0.000
27,-0.0464,0.0303,0.0021,-0.1944,0.1589,-0.0281,-3.68,1.98,1.71,49601,0.000,62.216,45.697,-0.364,-0.001,-0.017,1.008,0.000,0.000,0.000
27,-0.0498,0.0406,-0.0012,-0.2077,0.2130,-0.0460,-2.79,1.23,1.71,49239,0.000,75.051,53.667,-2.244,0.001,-0.032,1.039,0.000,0.000,0.000
27,-0.0511,0.0451,-0.0024,-0.2078,0.2321,-0.0493,-2.13,0.75,1.69,49936,0.000,80.343,62.921,-3.346,0.010,-0.031,1.062,0.000,0.000,0.000
27,-0.0488,0.0441,0.0001,-0.1867,0.2211,-0.0306,-0.80,-0.44,1.63,49662,0.000,84.013,62.753,-2.726,0.006,-0.033,1.063,0.000,0.000,0.000
27,-0.0471,0.0443,0.0009,-0.1695,0.2148,-0.0236,-0.80,-0.44,1.63,50093,0.000,75.669,50.388,-1.426,-0.003,-0.033,1.048,0.000,0.000,0.000
27,-0.0531,0.0565,-0.0025,-0.1965,0.2742,-0.0431,1.01,-1.73,1.62,50040,0.000,67.295,31.828,-1.023,0.001,-0.034,1.048,0.000,0.000,0.000
27,-0.0518,0.0553,-0.0008,-0.1778,0.2552,-0.0288,1.01,-1.73,1.62,50293,0.000,66.056,23.815,-4.695,0.002,-0.024,1.062,0.000,0.000,0.000
27,-0.0501,0.0552,0.0004,-0.1570,0.2414,-0.0157,1.87,-2.15,1.59,50195,0.000,62.035,16.993,-5.434,0.002,-0.021,1.049,0.000,0.000,0.000
27,-0.0495,0.0550,0.0014,-0.1422,0.2264,-0.0034,1.87,-2.15,1.59,49983,0.000,48.329,5.775,-3.988,-0.003,-0.021,1.033,0.000,0.000,0.000
27,-0.0532,0.0652,-0.0012,-0.1530,0.2701,-0.0119,2.66,-2.31,1.52,49861,0.000,30.062,-1.601,-2.613,-0.001,-0.012,1.051,0.000,0.000,0.000
27,-0.0541,0.0695,-0.0011,-0.1461,0.2768,-0.0065,2.66,-2.31,1.52,49671,0.000,13.041,2.578,-3.501,0.001,-0.006,1.072,0.000,0.000,0.000
27,-0.0561,0.0772,-0.0026,-0.1463,0.3012,-0.0102,3.11,-2.52,1.48,49468,0.000,-8.756,6.175,-3.013,-0.002,-0.009,1.068,0.000,0.000,0.000
27,-0.0569,0.0797,-0.0025,-0.1383,0.2948,-0.0031,3.17,-2.56,1.49,49203,0.000,-18.124,8.073,-1.339,0.001,-0.011,1.055,0.000,0.000,0.000
27,-0.0559,0.0810,-0.0016,-0.1205,0.2805,0.0070,3.12,-2.66,1.48,49047,0.000,-28.024,8.679,-2.069,0.001,-0.003,1.057,0.000,0.000,0.000
27,-0.0557,0.0825,-0.0010,-0.1085,0.2680,0.0139,3.07,-2.79,1.48,48792,0.000,-31.823,5.324,-0.133,0.003,-0.007,1.065,0.000,0.000,0.000
28,-0.0560,0.0840,-0.0001,-0.0989,0.2562,0.0231,2.86,-2.87,1.47,49046,0.000,-34.746,-1.161,0.418,0.004,-0.004,1.061,0.000,0.000,0.000
28,-0.0560,0.0845,0.0006,-0.0890,0.2397,0.0330,2.69,-2.98,1.49,49043,0.000,-26.776,-12.044,0.267,0.000,-0.001,1.051,0.000,0.000,0.000
28,-0.0560,0.0832,0.0018,-0.0785,0.2139,0.0444,2.30,-2.88,1.48,49886,0.000,-17.096,-16.520,0.019,-0.001,-0.000,1.042,0.000,0.000,0.000
28,-0.0564,0.0834,0.0026,-0.0713,0.1987,0.0521,1.95,-2.61,1.47,49739,0.000,-1.959,-22.270,-1.144,-0.005,-0.004,1.045,0.000,0.000,0.000
28,-0.0551,0.0819,0.0038,-0.0548,0.1751,0.0628,1.92,-2.47,1.47,49583,0.000,12.488,-21.941,-1.600,-0.007,-0.012,1.037,0.000,0.000,0.000
28,-0.0567,0.0855,0.0026,-0.0557,0.1817,0.0580,2.05,-2.35,1.45,49957,0.000,27.039,-16.648,-1.525,-0.006,-0.015,1.032,0.000,0.000,0.000
28,-0.0600,0.0898,0.0029,-0.0661,0.1918,0.0606,2.34,-2.19,1.44,49891,0.000,39.880,-7.962,-2.088,-0.000,-0.019,1.031,0.000,0.000,0.000
28,-0.0596,0.0898,0.0039,-0.0556,0.1783,0.0682,2.77,-2.21,1.42,49891,0.000,44.588,-6.194,-2.632,0.002,-0.021,1.026,0.000,0.000,0.000
28,-0.0575,0.0899,0.0049,-0.0377,0.1654,0.0753,3.29,-2.15,1.41,49834,0.000,48.191,-5.820,-2.906,-0.005,-0.016,1.024,0.000,0.000,0.000
28,-0.0568,0.0892,0.0061,-0.0278,0.1487,0.0824,3.66,-2.03,1.37,49817,0.000,44.939,-6.071,-1.537,0.001,-0.016,1.017,0.000,0.000,0.000
28,-0.0533,0.0880,0.0044,-0.0043,0.1312,0.0742,4.24,-2.02,1.36,50028,0.000,32.619,-8.419,-1.925,-0.000,-0.012,1.015,0.000,0.000,0.000
28,-0.0529,0.0871,0.0052,0.0020,0.1134,0.0784,4.82,-2.05,1.37,50042,0.000,18.533,-6.878,-2.355,0.007,-0.015,1.009,0.000,0.000,0.000
28,-0.0545,0.0906,0.0060,-0.0032,0.1199,0.0799,5.06,-1.96,1.33,50060,0.000,-0.689,-13.545,-2.122,0.004,-0.014,0.995,0.000,0.000,0.000
28,-0.0533,0.0888,0.0070,0.0070,0.0970,0.0836,5.08,-1.88,1.27,50122,0.000,-24.759,-18.368,-3.360,0.001,-0.015,0.996,0.000,0.000,0.000
28,-0.0505,0.0854,0.0077,0.0251,0.0652,0.0860,4.85,-1.63,1.23,49781,0.000,-44.008,-24.003,-3.226,-0.001,-0.015,1.009,0.000,0.000,0.000
28,-0.0505,0.0869,0.0074,0.0272,0.0619,0.0813,4.46,-1.38,1.18,49761,0.000,-58.824,-25.764,-2.743,0.002,-0.010,1.011,0.000,0.000,0.000
29,-0.0500,0.0895,0.0083,0.0318,0.0638,0.0822,4.00,-1.17,1.13,49766,0.000,-63.343,-23.508,-2.429,0.004,-0.004,1.006,0.000,0.000,0.000
29,-0.0519,0.0926,0.0093,0.0228,0.0690,0.0826,3.52,-0.94,1.12,50805,0.000,-66.865,-24.629,-1.845,-0.001,-0.005,1.014,0.000,0.000,0.000
29,-0.0526,0.0944,0.0102,0.0202,0.0673,0.0815,2.87,-0.68,1.10,50740,0.000,-66.029,-25.190,-1.535,0.000,-0.002,1.031,0.000,0.000,0.000
29,-0.0513,0.0941,0.0131,0.0285,0.0552,0.0926,2.07,-0.35,1.07,50713,0.000,-58.125,-28.448,-1.222,0.001,0.000,1.037,0.000,0.000,0.000
29,-0.0507,0.0916,0.0140,0.0313,0.0330,0.0945,1.58,-0.14,1.06,49989,0.000,-48.690,-27.942,-1.061,-0.002,-0.002,1.028,0.000,0.000,0.000
29,-0.0510,0.0916,0.0150,0.0297,0.0268,0.0954,0.97,0.22,1.05,49946,0.000,-35.592,-27.690,-0.501,-0.003,-0.004,1.020,0.000,0.000,0.000
29,-0.0528,0.0948,0.0160,0.0190,0.0386,0.0951,0.69,0.43,1.05,49939,0.000,-14.234,-26.491,-1.209,0.001,-0.005,1.011,0.000,0.000,0.000
29,-0.0511,0.0920,0.0171,0.0272,0.0192,0.0989,0.36,0.77,1.04,49891,0.000,-1.782,-17.410,-0.542,0.000,-0.007,1.012,0.000,0.000,0.000
29,-0.0527,0.0938,0.0181,0.0168,0.0257,0.1013,0.11,0.85,0.96,49379,0.000,9.760,-11.946,-0.267,0.002,-0.011,1.012,0.000,0.000,0.000
29,-0.0506,0.0901,0.0227,0.0259,0.0033,0.1242,0.24,0.97,0.96,49350,0.000,20.429,-9.302,-1.727,-0.005,-0.007,1.006,0.000,0.000,0.000
29,-0.0521,0.0921,0.0241,0.0153,0.0129,0.1262,0.56,0.99,0.94,49347,0.000,24.492,-4.616,-1.437,0.001,-0.010,0.997,0.000,0.000,0.000
30,-0.0479,0.0959,0.0253,0.0351,0.0320,0.1270,0.85,1.06,0.93,49357,0.000,27.514,-1.661,-1.639,0.009,-0.013,0.996,0.000,0.000,0.000
30,-0.0470,0.0942,0.0267,0.0363,0.0212,0.1292,1.24,1.08,0.93,49339,0.000,20.029,-0.712,-1.113,0.009,-0.014,0.998,0.000,0.000,0.000
30,-0.0443,0.0906,0.0306,0.0464,-0.0004,0.1448,1.49,1.09,0.91,49337,0.000,16.373,-4.744,-0.652,0.007,-0.018,0.994,0.000,0.000,0.000
30,-0.0437,0.0890,0.0320,0.0453,-0.0103,0.1460,1.59,1.14,0.90,48844,0.000,11.178,-7.997,-0.504,0.007,-0.020,0.983,0.000,0.000,0.000
30,-0.0431,0.0860,0.0334,0.0445,-0.0280,0.1461,1.71,1.20,0.89,48898,0.000,0.890,-13.821,-0.022,0.007,-0.019,0.980,0.000,0.000,0.000
30,-0.0423,0.0856,0.0348,0.0443,-0.0308,0.1456,1.96,1.41,0.92,49897,0.000,-11.730,-21.996,-0.951,0.001,-0.015,0.968,0.000,0.000,0.000
30,-0.0425,0.0873,0.0364,0.0389,-0.0228,0.1459,1.92,1.59,0.91,49975,0.000,-17.231,-18.969,-1.269,-0.006,-0.011,0.958,0.000,0.000,0.000
30,-0.0437,0.0866,0.0379,0.0285,-0.0284,0.1458,1.71,1.93,0.92,49843,0.000,-29.387,-11.888,-1.707,-0.007,-0.007,0.964,0.000,0.000,0.000
30,-0.0438,0.0819,0.0423,0.0231,-0.0558,0.1594,1.46,2.09,0.90,49930,0.000,-34.497,-1.767,-2.615,-0.003,-0.004,0.971,0.000,0.000,0.000
30,-0.0440,0.0800,0.0437,0.0183,-0.0665,0.1569,1.05,1.88,0.82,50007,0.000,-38.695,6.661,-4.067,-0.002,-0.004,0.969,0.000,0.000,0.000
30,-0.0465,0.0823,0.0456,0.0005,-0.0527,0.1561,0.67,1.85,0.78,50114,0.000,-39.882,14.087,-3.150,0.002,-0.000,0.970,0.000,0.000,0.000
31,-0.0457,0.0818,0.0472,0.0012,-0.0549,0.1528,0.39,1.72,0.73,50114,0.000,-38.925,16.945,-2.273,0.009,0.001,0.974,0.000,0.000,0.000
31,-0.0399,0.0838,0.0500,0.0297,-0.0428,0.1554,-0.02,1.56,0.71,50186,0.000,-33.426,19.173,-0.982,0.002,-0.005,0.981,0.000,0.000,0.000
31,-0.0397,0.0822,0.0514,0.0261,-0.0506,0.1518,-0.26,1.33,0.68,50294,0.000,-25.742,16.868,-0.428,-0.001,-0.004,0.987,0.000,0.000,0.000
31,-0.0386,0.0806,0.0529,0.0279,-0.0573,0.1487,-0.56,1.13,0.67,50245,0.000,-17.403,16.491,-0.778,0.006,-0.004,1.000,0.000,0.000,0.000
31,-0.0372,0.0772,0.0542,0.0314,-0.0729,0.1447,-0.64,0.95,0.65,50300,0.000,-14.778,19.875,-0.318,0.012,-0.009,1.005,0.000,0.000,0.000
31,-0.0365,0.0766,0.0556,0.0312,-0.0716,0.1419,-0.70,0.76,0.64,50371,0.000,-8.675,15.106,-1.075,0.010,-0.013,0.981,0.000,0.000,0.000
31,-0.0358,0.0729,0.0567,0.0315,-0.0868,0.1382,-0.75,0.58,0.63,50371,0.000,0.380,3.743,-2.422,0.001,-0.008,0.972,0.000,0.000,0.000
31,-0.0356,0.0713,0.0586,0.0289,-0.0899,0.1392,-0.71,0.47,0.60,50161,0.000,6.934,-5.120,-2.834,-0.008,-0.006,0.971,0.000,0.000,0.000
31,-0.0351,0.0687,0.0598,0.0288,-0.0976,0.1374,-0.66,0.50,0.57,50284,0.000,6.186,-2.490,-0.788,-0.005,-0.012,0.969,0.000,0.000,0.000
31,-0.0348,0.0665,0.0611,0.0278,-0.1033,0.1368,-0.50,0.49,0.54,50360,0.000,4.153,1.928,0.352,0.001,-0.017,0.971,0.000,0.000,0.000
31,-0.0338,0.0639,0.0622,0.0307,-0.1105,0.1355,-0.45,0.49,0.54,51510,0.000,0.449,3.429,-0.221,0.011,-0.015,0.984,0.000,0.000,0.000
31,-0.0337,0.0628,0.0635,0.0291,-0.1095,0.1333,-0.34,0.45,0.53,51577,0.000,-3.952,3.954,-0.477,0.013,-0.012,0.988,0.000,0.000,0.000
31,-0.0321,0.0594,0.0661,0.0349,-0.1205,0.1366,-0.37,0.40,0.53,51674,0.000,-6.537,-1.643,-0.224,0.009,-0.012,0.974,0.000,0.000,0.000
31,-0.0316,0.0581,0.0675,0.0347,-0.1200,0.1337,-0.37,0.39,0.52,51175,0.000,-10.016,-9.389,-0.061,0.014,-0.012,0.968,0.000,0.000,0.000
31,-0.0309,0.0551,0.0685,0.0359,-0.1293,0.1287,-0.45,0.43,0.52,51317,0.000,-17.013,-17.126,-1.088,0.008,-0.018,0.968,0.000,0.000,0.000
31,-0.0305,0.0540,0.0698,0.0355,-0.1277,0.1266,-0.50,0.56,0.51,51374,0.000,-18.339,-18.844,-2.680,0.001,-0.016,0.970,0.000,0.000,0.000
31,-0.0300,0.0515,0.0708,0.0355,-0.1338,0.1238,-0.72,0.75,0.49,51483,0.000,-22.632,-20.506,-3.449,-0.004,-0.014,0.970,0.000,0.000,0.000
32,-0.0293,0.0497,0.0752,0.0360,-0.1347,0.1380,-0.90,0.92,0.46,51572,0.000,-29.034,-12.359,-2.969,-0.008,-0.009,0.977,0.000,0.000,0.000
32,-0.0286,0.0462,0.0762,0.0371,-0.1449,0.1332,-1.18,1.09,0.44,51681,0.000,-29.734,-5.366,-1.872,-0.001,-0.008,0.990,0.000,0.000,0.000
32,-0.0286,0.0456,0.0777,0.0341,-0.1398,0.1310,-1.43,1.19,0.41,51723,0.000,-31.238,2.638,-1.260,0.010,-0.006,1.004,0.000,0.000,0.000
32,-0.0276,0.0438,0.0789,0.0361,-0.1403,0.1272,-1.78,1.18,0.40,51725,0.000,-32.154,7.433,-1.408,0.014,-0.005,1.001,0.000,0.000,0.000
32,-0.0273,0.0427,0.0801,0.0338,-0.1368,0.1242,-2.15,1.11,0.39,51746,0.000,-28.873,1.776,-0.892,0.010,-0.001,0.986,0.000,0.000,0.000
32,-0.0273,0.0402,0.0812,0.0300,-0.1407,0.1206,-2.43,1.04,0.38,51765,0.000,-24.978,-4.916,-0.469,0.011,-0.007,0.978,0.000,0.000,0.000
32,-0.0268,0.0396,0.0825,0.0292,-0.1336,0.1193,-2.71,1.07,0.37,52164,0.000,-18.528,-6.030,-1.186,0.005,-0.009,0.977,0.000,0.000,0.000
32,-0.0263,0.0393,0.0838,0.0282,-0.1241,0.1195,-2.88,1.11,0.36,52236,0.000,-12.521,-5.216,-1.275,0.007,-0.006,0.982,0.000,0.000,0.000
32,-0.0256,0.0376,0.0850,0.0289,-0.1228,0.1194,-3.05,1.19,0.35,53332,0.000,-6.346,-1.364,-2.298,0.006,-0.010,0.986,0.000,0.000,0.000
32,-0.0255,0.0368,0.0862,0.0259,-0.1162,0.1191,-3.13,1.19,0.34,53402,0.000,1.148,7.447,-2.616,0.012,-0.009,1.000,0.000,0.000,0.000
32,-0.0248,0.0348,0.0855,0.0265,-0.1162,0.1076,-3.17,1.14,0.31,53821,0.000,6.935,11.975,-3.128,0.017,-0.013,1.005,0.000,0.000,0.000
32,-0.0251,0.0342,0.0866,0.0216,-0.1083,0.1055,-3.12,1.01,0.29,53852,0.000,9.448,14.906,-2.351,0.014,-0.014,1.000,0.000,0.000,0.000
32,-0.0242,0.0328,0.0876,0.0234,-0.1047,0.1030,-3.04,0.88,0.25,53889,0.000,14.194,8.521,-3.348,0.005,-0.011,0.988,0.000,0.000,0.000
32,-0.0236,0.0324,0.0887,0.0234,-0.0961,0.1015,-2.89,0.76,0.21,53932,0.000,17.696,4.517,-2.306,0.000,-0.013,0.991,0.000,0.000,0.000
32,-0.0227,0.0313,0.0877,0.0251,-0.0921,0.0901,-2.76,0.71,0.18,54002,0.000,15.832,0.900,-2.558,-0.001,-0.012,1.005,0.000,0.000,0.000
33,-0.0228,0.0303,0.0887,0.0218,-0.0869,0.0903,-2.60,0.70,0.15,54056,0.000,13.921,3.669,-3.117,0.007,-0.014,1.021,0.000,0.000,0.000
33,-0.0227,0.0300,0.0887,0.0222,-0.0881,0.0902,-2.46,0.66,0.13,54404,0.000,9.849,6.004,-2.306,0.007,-0.013,1.027,0.000,0.000,0.000
33,-0.0225,0.0292,0.0906,0.0185,-0.0741,0.0903,-2.34,0.60,0.10,54387,0.000,7.804,4.339,-2.063,0.006,-0.009,1.021,0.000,0.000,0.000
33,-0.0226,0.0293,0.0906,0.0177,-0.0734,0.0904,-2.27,0.55,0.08,54371,0.000,3.566,-1.887,-1.794,0.007,-0.016,1.012,0.000,0.000,0.000
33,-0.0219,0.0281,0.0924,0.0173,-0.0641,0.0886,-2.23,0.56,0.05,54380,0.000,0.159,-7.822,-1.288,0.009,-0.019,1.015,0.000,0.000,0.000
33,-0.0220,0.0284,0.0906,0.0168,-0.0631,0.0791,-2.19,0.60,0.04,54452,0.000,-2.320,-12.296,-2.008,0.007,-0.019,1.020,0.000,0.000,0.000
33,-0.0219,0.0275,0.0922,0.0138,-0.0532,0.0826,-2.21,0.71,0.03,54454,0.000,-4.708,-10.246,-2.831,0.004,-0.017,1.020,0.000,0.000,0.000
33,-0.0222,0.0277,0.0922,0.0123,-0.0524,0.0827,-2.24,0.83,0.01,54446,0.000,-6.222,-6.075,-1.751,0.001,-0.018,1.025,0.000,0.000,0.000
33,-0.0214,0.0264,0.0939,0.0130,-0.0463,0.0864,-2.33,0.91,-0.00,55442,0.000,-1.254,-0.342,-1.933,0.002,-0.013,1.030,0.000,0.000,0.000
33,-0.0210,0.0261,0.0944,0.0134,-0.0416,0.0858,-2.39,0.92,-0.01,55422,0.000,2.632,4.374,-0.759,0.005,-0.015,1.032,0.000,0.000,0.000
33,-0.0211,0.0257,0.0953,0.0105,-0.0380,0.0874,-2.38,0.90,-0.02,55394,0.000,9.573,8.387,-1.462,0.005,-0.017,1.036,0.000,0.000,0.000
33,-0.0210,0.0258,0.0962,0.0093,-0.0313,0.0894,-2.32,0.83,-0.04,55750,0.000,14.367,8.215,-1.593,0.007,-0.019,1.041,0.000,0.000,0.000
33,-0.0205,0.0258,0.0971,0.0098,-0.0254,0.0914,-2.20,0.75,-0.06,55702,0.000,20.142,10.128,-1.194,0.008,-0.021,1.040,0.000,0.000,0.000
33,-0.0204,0.0256,0.0980,0.0082,-0.0212,0.0940,-2.01,0.66,-0.08,55646,0.000,21.196,7.681,-1.056,0.005,-0.021,1.033,0.000,0.000,0.000
33,-0.0203,0.0254,0.0990,0.0068,-0.0171,0.0969,-1.83,0.57,-0.09,55597,0.000,23.853,6.719,-0.361,0.008,-0.019,1.026,0.000,0.000,0.000
33,-0.0202,0.0254,0.0978,0.0060,-0.0127,0.0888,-1.61,0.55,-0.11,55612,0.000,23.427,6.606,0.602,0.008,-0.017,1.025,0.000,0.000,0.000
34,-0.0200,0.0260,0.0987,0.0053,-0.0054,0.0926,-1.37,0.45,-0.11,55583,0.000,24.611,10.122,-0.553,0.008,-0.017,1.029,0.000,0.000,0.000
34,-0.0211,0.0263,0.0987,-0.0006,-0.0036,0.0927,-1.08,0.36,-0.11,55555,0.000,15.991,8.976,0.433,0.011,-0.016,1.034,0.000,0.000,0.000
34,-0.0205,0.0263,0.0996,0.0015,-0.0001,0.0966,-1.01,0.28,-0.11,55511,0.000,13.686,11.663,0.499,0.008,-0.022,1.038,0.000,0.000,0.000
34,-0.0206,0.0256,0.1006,0.0003,-0.0012,0.1002,-0.85,0.17,-0.10,55455,0.000,15.863,15.389,-0.994,0.009,-0.020,1.045,0.000,0.000,0.000
34,-0.0204,0.0287,0.1014,0.0004,0.0177,0.1021,-0.70,0.04,-0.11,55384,0.000,8.384,14.399,-0.060,0.011,-0.021,1.048,0.000,0.000,0.000
34,-0.0209,0.0284,0.1024,-0.0026,0.0174,0.1045,-0.63,-0.09,-0.11,55912,0.000,5.902,12.501,0.117,0.010,-0.020,1.046,0.000,0.000,0.000
34,-0.0206,0.0283,0.1035,-0.0015,0.0178,0.1070,-0.58,-0.22,-0.11,55834,0.000,3.964,7.686,1.010,0.011,-0.016,1.046,0.000,0.000,0.000
34,-0.0207,0.0284,0.1046,-0.0026,0.0187,0.1101,-0.57,-0.29,-0.11,55753,0.000,4.477,1.774,0.968,0.011,-0.014,1.050,0.000,0.000,0.000
34,-0.0209,0.0292,0.1057,-0.0036,0.0231,0.1136,-0.52,-0.32,-0.10,55665,0.000,6.632,-2.957,0.184,0.010,-0.019,1.051,0.000,0.000,0.000
34,-0.0209,0.0293,0.1035,-0.0033,0.0238,0.1000,-0.47,-0.30,-0.10,55649,0.000,7.738,-7.306,0.403,0.009,-0.020,1.050,0.000,0.000,0.000
34,-0.0216,0.0304,0.1045,-0.0061,0.0291,0.1046,-0.41,-0.26,-0.09,55547,0.000,9.702,-10.560,0.368,0.005,-0.021,1.050,0.000,0.000,0.000
34,-0.0218,0.0305,0.1056,-0.0066,0.0292,0.1091,-0.33,-0.16,-0.08,55442,0.000,8.900,-11.664,1.494,0.005,-0.019,1.049,0.000,0.000,0.000
34,-0.0219,0.0308,0.1067,-0.0061,0.0301,0.1136,-0.21,-0.05,-0.07,55338,0.000,11.555,-8.100,0.146,0.005,-0.017,1.044,0.000,0.000,0.000
34,-0.0216,0.0313,0.1079,-0.0038,0.0321,0.1182,-0.11,0.05,-0.07,55237,0.000,11.297,-6.649,0.628,0.003,-0.017,1.047,0.000,0.000,0.000
34,-0.0216,0.0315,0.1086,-0.0032,0.0325,0.1208,0.01,0.12,-0.06,55137,0.000,15.730,0.896,-0.101,0.005,-0.018,1.047,0.000,0.000,0.000
34,-0.0216,0.0313,0.1099,-0.0024,0.0302,0.1259,0.11,0.13,-0.06,55205,0.000,8.276,4.057,0.641,0.008,-0.021,1.045,0.000,0.000,0.000
34,-0.0216,0.0316,0.1112,-0.0023,0.0306,0.1308,0.20,0.10,-0.05,55094,0.000,11.101,8.378,0.933,0.005,-0.019,1.042,0.000,0.000,0.000
35,-0.0216,0.0321,0.1125,-0.0024,0.0314,0.1356,0.33,0.04,-0.04,54991,0.000,15.046,12.024,-0.103,0.006,-0.019,1.043,0.000,0.000,0.000
35,-0.0213,0.0328,0.1139,-0.0010,0.0337,0.1401,0.47,-0.11,-0.04,54887,0.000,9.056,8.503,-0.015,0.006,-0.018,1.045,0.000,0.000,0.000
35,-0.0211,0.0337,0.1143,-0.0003,0.0366,0.1395,0.59,-0.21,-0.04,54286,0.000,2.347,6.179,1.609,0.009,-0.017,1.045,0.000,0.000,0.000
35,-0.0216,0.0335,0.1158,-0.0029,0.0330,0.1441,0.63,-0.27,-0.02,54157,0.000,5.551,5.375,0.470,0.007,-0.019,1.040,0.000,0.000,0.000
35,-0.0207,0.0337,0.1172,0.0017,0.0320,0.1487,0.65,-0.33,-0.02,54034,0.000,4.348,4.737,0.990,0.008,-0.018,1.037,0.000,0.000,0.000
35,-0.0209,0.0342,0.1187,0.0012,0.0318,0.1529,0.65,-0.40,-0.00,53916,0.000,3.353,1.382,1.515,0.008,-0.020,1.036,0.000,0.000,0.000
35,-0.0209,0.0346,0.1229,0.0015,0.0311,0.1709,0.70,-0.43,0.01,53800,0.000,1.908,2.054,1.088,0.009,-0.019,1.031,0.000,0.000,0.000
35,-0.0213,0.0358,0.1246,0.0000,0.0341,0.1753,0.71,-0.46,0.02,53667,0.000,4.089,3.083,1.144,0.010,-0.022,1.028,0.000,0.000,0.000
35,-0.0205,0.0373,0.1264,0.0043,0.0390,0.1796,0.76,-0.48,0.03,53727,0.000,5.053,2.402,1.284,0.005,-0.019,1.031,0.000,0.000,0.000
35,-0.0205,0.0377,0.1282,0.0051,0.0379,0.1839,0.82,-0.51,0.05,53624,0.000,4.595,2.887,0.962,0.007,-0.018,1.029,0.000,0.000,0.000
35,-0.0201,0.0381,0.1300,0.0071,0.0370,0.1876,0.87,-0.55,0.06,53512,0.000,0.596,2.342,2.081,0.012,-0.017,1.027,0.000,0.000,0.000
35,-0.0203,0.0381,0.1320,0.0068,0.0335,0.1912,0.91,-0.55,0.07,53407,0.000,5.112,2.858,0.863,0.008,-0.015,1.026,0.000,0.000,0.000
35,-0.0202,0.0384,0.1332,0.0077,0.0320,0.1901,0.94,-0.57,0.08,53302,0.000,2.013,1.428,1.950,0.007,-0.016,1.028,0.000,0.000,0.000
35,-0.0196,0.0386,0.1351,0.0110,0.0301,0.1930,1.01,-0.57,0.10,53194,0.000,4.149,1.276,1.282,0.008,-0.015,1.023,0.000,0.000,0.000
35,-0.0203,0.0385,0.1371,0.0082,0.0268,0.1959,1.03,-0.58,0.12,53087,0.000,2.215,2.224,1.377,0.010,-0.017,1.018,0.000,0.000,0.000
35,-0.0202,0.0388,0.1390,0.0091,0.0252,0.1989,1.06,-0.60,0.13,52991,0.000,1.269,1.837,0.630,0.010,-0.019,1.014,0.000,0.000,0.000
36,-0.0207,0.0377,0.1410,0.0075,0.0171,0.2016,0.99,-0.61,0.13,52900,0.000,0.145,2.020,1.061,0.005,-0.016,1.012,0.000,0.000,0.000
36,-0.0206,0.0386,0.1431,0.0084,0.0190,0.2042,1.00,-0.63,0.14,52817,0.000,-1.029,2.015,0.844,0.003,-0.016,1.010,0.000,0.000,0.000
36,-0.0205,0.0388,0.1451,0.0095,0.0172,0.2068,0.97,-0.63,0.15,53276,0.000,-1.345,1.838,0.553,0.006,-0.018,1.009,0.000,0.000,0.000
36,-0.0207,0.0415,0.1472,0.0091,0.0271,0.2093,0.96,-0.70,0.16,53208,0.000,-1.892,2.558,1.150,0.007,-0.023,1.005,0.000,0.000,0.000
36,-0.0206,0.0417,0.1493,0.0102,0.0254,0.2112,0.96,-0.72,0.17,53147,0.000,-0.669,1.913,0.806,0.008,-0.023,1.005,0.000,0.000,0.000
36,-0.0208,0.0423,0.1514,0.0098,0.0253,0.2129,0.93,-0.72,0.18,53090,0.000,-0.529,0.373,1.130,0.009,-0.017,1.007,0.000,0.000,0.000
36,-0.0194,0.0426,0.1507,0.0173,0.0238,0.1989,0.94,-0.73,0.19,52781,0.000,0.608,-0.643,0.617,0.005,-0.015,1.008,0.000,0.000,0.000
36,-0.0193,0.0423,0.1527,0.0181,0.0200,0.1999,0.94,-0.73,0.20,52710,0.000,0.325,-0.169,0.726,0.006,-0.018,1.005,0.000,0.000,0.000
36,-0.0195,0.0429,0.1547,0.0173,0.0201,0.2009,0.93,-0.72,0.21,52638,0.000,0.768,-2.374,0.607,0.008,-0.020,1.006,0.000,0.000,0.000
36,-0.0192,0.0426,0.1567,0.0192,0.0163,0.2015,0.94,-0.71,0.21,52568,0.000,2.008,-2.329,0.892,0.007,-0.015,1.007,0.000,0.000,0.000
36,-0.0190,0.0428,0.1601,0.0206,0.0147,0.2092,0.96,-0.66,0.22,52497,0.000,1.277,-2.480,0.996,0.003,-0.014,1.005,0.000,0.000,0.000
36,-0.0190,0.0433,0.1622,0.0209,0.0149,0.2097,0.97,-0.61,0.23,52427,0.000,0.403,-3.427,1.040,0.004,-0.015,1.000,0.000,0.000,0.000
36,-0.0193,0.0433,0.1643,0.0199,0.0125,0.2105,0.99,-0.60,0.24,52508,0.000,-0.317,-4.214,1.241,0.008,-0.018,1.001,0.000,0.000,0.000
36,-0.0202,0.0435,0.1664,0.0165,0.0115,0.2113,1.14,-0.65,0.25,52453,0.000,2.032,-2.700,0.600,0.008,-0.015,1.000,0.000,0.000,0.000
36,-0.0190,0.0432,0.1685,0.0216,0.0081,0.2117,1.16,-0.61,0.26,52397,0.000,-0.053,-3.509,1.316,0.008,-0.015,0.995,0.000,0.000,0.000
36,-0.0188,0.0453,0.1706,0.0228,0.0147,0.2124,1.17,-0.58,0.27,52346,0.000,-2.158,-4.843,1.496,0.008,-0.019,0.995,0.000,0.000,0.000
36,-0.0156,0.0388,0.1720,0.0363,-0.0145,0.2087,1.15,-0.53,0.28,51944,0.000,-1.722,-4.728,0.387,0.004,-0.019,0.996,0.000,0.000,0.000
37,-0.0156,0.0385,0.1741,0.0359,-0.0173,0.2090,1.11,-0.48,0.29,51885,0.000,-5.079,-4.390,0.604,0.005,-0.015,0.991,0.000,0.000,0.000
37,-0.0150,0.0382,0.1761,0.0377,-0.0198,0.2089,1.06,-0.43,0.29,51834,0.000,-6.949,-4.197,-0.192,0.007,-0.015,0.992,0.000,0.000,0.000
37,-0.0145,0.0382,0.1782,0.0394,-0.0209,0.2089,1.01,-0.37,0.30,51789,0.000,-9.425,-4.475,0.351,0.006,-0.016,0.995,0.000,0.000,0.000
37,-0.0142,0.0382,0.1803,0.0398,-0.0218,0.2086,0.91,-0.32,0.30,51735,0.000,-11.662,-4.032,0.567,0.005,-0.013,0.992,0.000,0.000,0.000
37,-0.0142,0.0386,0.1844,0.0391,-0.0213,0.2183,0.81,-0.27,0.31,51681,0.000,-10.513,-1.604,-0.026,0.004,-0.013,0.992,0.000,0.000,0.000
37,-0.0142,0.0379,0.1866,0.0383,-0.0251,0.2180,0.70,-0.23,0.30,51575,0.000,-8.135,-3.543,-1.206,0.006,-0.015,0.992,0.000,0.000,0.000
37,-0.0142,0.0377,0.1888,0.0374,-0.0263,0.2174,0.58,-0.28,0.29,51524,0.000,-9.544,-1.344,0.348,0.006,-0.015,0.992,0.000,0.000,0.000
37,-0.0142,0.0376,0.1909,0.0366,-0.0272,0.2165,0.48,-0.27,0.29,51478,0.000,-11.089,-2.696,-1.089,0.003,-0.014,0.990,0.000,0.000,0.000
37,-0.0142,0.0375,0.1931,0.0356,-0.0281,0.2159,0.39,-0.26,0.28,51427,0.000,-7.928,-2.183,-1.997,0.003,-0.011,0.988,0.000,0.000,0.000
37,-0.0110,0.0379,0.1956,0.0467,-0.0264,0.2169,0.28,-0.22,0.26,51102,0.000,-8.216,-0.055,-1.116,0.004,-0.011,0.988,0.000,0.000,0.000
37,-0.0106,0.0377,0.1977,0.0471,-0.0273,0.2162,0.18,-0.21,0.25,51053,0.000,-6.338,-3.364,-2.507,0.005,-0.014,0.989,0.000,0.000,0.000
37,-0.0099,0.0375,0.1999,0.0484,-0.0277,0.2154,0.12,-0.19,0.23,51003,0.000,-3.760,-0.531,-1.835,0.005,-0.014,0.988,0.000,0.000,0.000
37,-0.0098,0.0374,0.2021,0.0474,-0.0278,0.2145,0.08,-0.16,0.21,50954,0.000,-1.501,-3.318,-3.277,0.004,-0.014,0.987,0.000,0.000,0.000
37,-0.0091,0.0375,0.2042,0.0485,-0.0269,0.2137,0.02,-0.13,0.18,50906,0.000,-2.465,-1.723,-2.026,0.003,-0.015,0.982,0.000,0.000,0.000
37,-0.0087,0.0375,0.2079,0.0487,-0.0262,0.2207,0.01,-0.10,0.16,50866,0.000,-1.612,-3.300,-1.804,0.007,-0.013,0.978,0.000,0.000,0.000
37,-0.0086,0.0368,0.2101,0.0475,-0.0278,0.2196,0.01,-0.05,0.13,51441,0.000,-0.105,-3.637,-2.197,0.006,-0.015,0.978,0.000,0.000,0.000
38,-0.0085,0.0378,0.2123,0.0463,-0.0234,0.2185,0.02,-0.03,0.11,51427,0.000,0.831,-3.077,-2.526,0.008,-0.013,0.977,0.000,0.000,0.000
38,-0.0085,0.0374,0.2145,0.0449,-0.0240,0.2174,0.03,0.03,0.08,51418,0.000,1.289,-3.097,-2.682,0.007,-0.013,0.978,0.000,0.000,0.000
38,-0.0085,0.0370,0.2166,0.0436,-0.0247,0.2162,0.04,0.06,0.05,51409,0.000,2.065,-2.171,-2.733,0.006,-0.013,0.983,0.000,0.000,0.000
38,-0.0075,0.0366,0.2155,0.0455,-0.0251,0.1977,0.06,0.11,0.03,50554,0.000,1.508,-1.059,-1.928,0.004,-0.014,0.978,0.000,0.000,0.000
38,-0.0082,0.0365,0.2175,0.0416,-0.0246,0.1957,0.07,0.12,0.00,50523,0.000,1.793,-0.362,-2.176,0.004,-0.014,0.979,0.000,0.000,0.000
38,-0.0077,0.0363,0.2196,0.0416,-0.0246,0.1933,0.08,0.14,-0.01,50499,0.000,0.788,1.199,-1.942,0.009,-0.014,0.980,0.000,0.000,0.000
38,-0.0080,0.0358,0.2216,0.0390,-0.0255,0.1911,0.07,0.14,-0.03,50473,0.000,-2.499,0.633,-1.526,0.006,-0.016,0.979,0.000,0.000,0.000
38,-0.0075,0.0356,0.2280,0.0392,-0.0252,0.2128,0.05,0.05,-0.06,50447,0.000,0.368,1.724,-1.762,0.004,-0.015,0.978,0.000,0.000,0.000
38,-0.0077,0.0349,0.2301,0.0368,-0.0269,0.2110,0.05,0.04,-0.07,50422,0.000,-0.853,1.350,-1.859,0.006,-0.012,0.974,0.000,0.000,0.000
38,-0.0076,0.0352,0.2322,0.0356,-0.0250,0.2091,0.04,0.02,-0.09,51156,0.000,-0.776,1.218,-1.846,0.007,-0.016,0.972,0.000,0.000,0.000
38,-0.0036,0.0352,0.2343,0.0481,-0.0244,0.2068,0.03,-0.00,-0.11,51164,0.000,0.015,1.281,-1.650,0.004,-0.017,0.973,0.000,0.000,0.000
38,-0.0030,0.0351,0.2363,0.0482,-0.0239,0.2048,0.02,-0.01,-0.13,51174,0.000,-5.612,-0.803,-1.332,0.007,-0.015,0.977,0.000,0.000,0.000
38,-0.0025,0.0351,0.2384,0.0483,-0.0232,0.2028,-0.02,-0.02,-0.14,51178,0.000,-0.236,-1.048,-1.295,0.004,-0.012,0.975,0.000,0.000,0.000
38,-0.0017,0.0351,0.2364,0.0495,-0.0225,0.1794,-0.04,-0.00,-0.16,51280,0.000,-2.731,-2.737,-1.260,0.004,-0.014,0.975,0.000,0.000,0.000
38,-0.0012,0.0349,0.2382,0.0495,-0.0226,0.1770,-0.05,0.02,-0.17,51286,0.000,0.544,-4.045,-1.040,0.005,-0.012,0.974,0.000,0.000,0.000
38,-0.0007,0.0347,0.2399,0.0495,-0.0226,0.1743,-0.07,0.07,-0.18,51297,0.000,1.215,-3.991,-0.402,0.004,-0.011,0.980,0.000,0.000,0.000
39,-0.0002,0.0345,0.2416,0.0495,-0.0226,0.1715,-0.07,0.12,-0.18,51301,0.000,-0.923,-4.410,0.388,0.003,-0.013,0.978,0.000,0.000,0.000
39,0.0002,0.0345,0.2428,0.0490,-0.0218,0.1662,-0.06,0.18,-0.18,51299,0.000,-1.897,-5.982,0.847,0.003,-0.016,0.976,0.000,0.000,0.000
39,0.0001,0.0348,0.2445,0.0472,-0.0200,0.1639,-0.10,0.25,-0.17,51305,0.000,1.178,-4.909,0.295,0.006,-0.011,0.975,0.000,0.000,0.000
39,0.0000,0.0352,0.2461,0.0453,-0.0179,0.1616,-0.10,0.30,-0.17,51760,0.000,-1.569,-4.814,0.364,0.009,-0.013,0.981,0.000,0.000,0.000
39,-0.0001,0.0344,0.2477,0.0432,-0.0198,0.1590,-0.10,0.35,-0.17,51775,0.000,-0.125,-3.321,1.243,0.006,-0.015,0.980,0.000,0.000,0.000
39,-0.0002,0.0352,0.2493,0.0413,-0.0166,0.1568,-0.13,0.39,-0.16,51782,0.000,-0.775,-2.509,0.685,0.005,-0.014,0.980,0.000,0.000,0.000
39,0.0001,0.0351,0.2508,0.0406,-0.0159,0.1548,-0.15,0.40,-0.15,51795,0.000,-0.920,-2.116,0.720,0.004,-0.016,0.981,0.000,0.000,0.000
39,0.0000,0.0356,0.2500,0.0386,-0.0138,0.1399,-0.16,0.46,-0.15,51840,0.000,0.536,-0.811,0.962,0.006,-0.013,0.984,0.000,0.000,0.000
39,0.0013,0.0365,0.2514,0.0407,-0.0104,0.1374,-0.15,0.47,-0.14,51844,0.000,0.926,-0.072,1.318,0.004,-0.013,0.983,0.000,0.000,0.000
39,-0.0001,0.0366,0.2528,0.0347,-0.0097,0.1353,-0.15,0.42,-0.13,51849,0.000,2.680,0.657,0.933,0.009,-0.013,0.984,0.000,0.000,0.000
39,0.0003,0.0365,0.2541,0.0339,-0.0094,0.1334,-0.12,0.41,-0.12,51858,0.000,3.115,1.506,1.116,0.010,-0.014,0.985,0.000,0.000,0.000
39,0.0006,0.0364,0.2555,0.0331,-0.0092,0.1314,-0.09,0.40,-0.11,51862,0.000,3.513,2.311,1.040,0.008,-0.017,0.985,0.000,0.000,0.000
39,0.0040,0.0363,0.2566,0.0416,-0.0090,0.1285,-0.10,0.39,-0.10,51867,0.000,1.766,2.726,2.235,0.007,-0.013,0.986,0.000,0.000,0.000
39,0.0046,0.0361,0.2578,0.0413,-0.0089,0.1270,-0.07,0.36,-0.08,51932,0.000,4.902,1.795,0.170,0.010,-0.014,0.988,0.000,0.000,0.000
39,0.0050,0.0360,0.2591,0.0406,-0.0087,0.1254,-0.03,0.34,-0.07,51931,0.000,3.150,0.256,0.395,0.008,-0.015,0.989,0.000,0.000,0.000
39,0.0051,0.0379,0.2604,0.0392,-0.0027,0.1236,0.00,0.34,-0.07,51929,0.000,2.720,1.277,1.310,0.006,-0.015,0.988,0.000,0.000,0.000
39,0.0055,0.0379,0.2616,0.0385,-0.0025,0.1221,0.03,0.33,-0.06,51929,0.000,0.874,2.177,2.420,0.009,-0.011,0.990,0.000,0.000,0.000
40,0.0060,0.0378,0.2624,0.0384,-0.0027,0.1187,0.02,0.30,-0.03,51784,0.000,-1.018,-0.783,2.500,0.009,-0.011,0.990,0.000,0.000,0.000
40,0.0061,0.0382,0.2636,0.0369,-0.0014,0.1174,0.02,0.30,-0.01,51775,0.000,2.108,-2.081,1.087,0.007,-0.013,0.988,0.000,0.000,0.000
40,0.0065,0.0381,0.2648,0.0363,-0.0014,0.1162,0.04,0.32,0.00,51770,0.000,0.891,-1.669,1.643,0.003,-0.013,0.990,0.000,0.000,0.000
40,0.0076,0.0387,0.2660,0.0378,0.0002,0.1150,0.05,0.34,0.02,51763,0.000,-0.829,-1.147,3.291,0.007,-0.017,0.992,0.000,0.000,0.000
40,0.0079,0.0387,0.2671,0.0373,0.0002,0.1138,0.04,0.35,0.05,51751,0.000,0.213,-2.085,3.252,0.005,-0.017,0.994,0.000,0.000,0.000
40,0.0083,0.0387,0.2690,0.0368,0.0001,0.1168,0.02,0.38,0.08,51733,0.000,1.952,-3.995,1.818,0.010,-0.013,0.992,0.000,0.000,0.000
40,0.0087,0.0387,0.2702,0.0363,0.0001,0.1158,0.02,0.42,0.10,51779,0.000,2.523,-2.661,1.635,0.009,-0.019,0.991,0.000,0.000,0.000
40,0.0092,0.0393,0.2713,0.0360,0.0016,0.1147,0.06,0.44,0.12,51769,0.000,2.756,-0.543,2.659,0.007,-0.016,0.993,0.000,0.000,0.000
40,0.0090,0.0404,0.2725,0.0339,0.0045,0.1137,0.09,0.45,0.14,51756,0.000,2.873,0.627,3.507,0.006,-0.014,0.992,0.000,0.000,0.000
40,0.0088,0.0415,0.2736,0.0319,0.0072,0.1128,0.11,0.45,0.17,51743,0.000,3.869,1.878,3.226,0.008,-0.015,0.988,0.000,0.000,0.000
40,0.0094,0.0407,0.2744,0.0318,0.0049,0.1106,0.14,0.44,0.21,51500,0.000,2.548,1.825,3.736,0.010,-0.017,0.989,0.000,0.000,0.000
40,0.0097,0.0408,0.2755,0.0311,0.0048,0.1098,0.17,0.43,0.24,51494,0.000,5.013,0.190,2.347,0.008,-0.017,0.992,0.000,0.000,0.000
40,0.0097,0.0412,0.2766,0.0297,0.0057,0.1090,0.20,0.42,0.27,51481,0.000,3.258,2.660,3.565,0.005,-0.015,0.991,0.000,0.000,0.000
40,0.0098,0.0416,0.2777,0.0283,0.0066,0.1082,0.23,0.40,0.30,51462,0.000,3.189,2.675,3.099,0.008,-0.013,0.991,0.000,0.000,0.000
40,0.0098,0.0420,0.2801,0.0268,0.0071,0.1142,0.25,0.38,0.33,51450,0.000,2.487,1.175,2.172,0.009,-0.016,0.991,0.000,0.000,0.000
40,0.0099,0.0431,0.2812,0.0256,0.0094,0.1132,0.27,0.36,0.36,51436,0.000,2.240,0.794,2.578,0.006,-0.019,0.991,0.000,0.000,0.000
40,0.0101,0.0431,0.2823,0.0249,0.0091,0.1121,0.30,0.34,0.39,51332,0.000,2.355,1.756,2.526,0.008,-0.014,0.990,0.000,0.000,0.000
41,0.0102,0.0443,0.2834,0.0236,0.0114,0.1112,0.33,0.32,0.41,51318,0.000,2.485,2.769,3.073,0.004,-0.014,0.987,0.000,0.000,0.000
41,0.0109,0.0454,0.2847,0.0242,0.0136,0.1103,0.36,0.31,0.44,51313,0.000,3.334,3.287,3.029,0.011,-0.015,0.985,0.000,0.000,0.000
41,0.0112,0.0456,0.2858,0.0236,0.0132,0.1094,0.40,0.29,0.47,51310,0.000,4.499,0.577,2.328,0.011,-0.016,0.986,0.000,0.000,0.000
41,0.0113,0.0460,0.2873,0.0228,0.0136,0.1111,0.44,0.28,0.49,50993,0.000,2.189,1.275,2.046,0.007,-0.018,0.988,0.000,0.000,0.000
41,0.0115,0.0462,0.2885,0.0222,0.0130,0.1102,0.46,0.26,0.52,50984,0.000,3.685,0.884,2.839,0.007,-0.016,0.989,0.000,0.000,0.000
41,0.0115,0.0466,0.2895,0.0210,0.0131,0.1093,0.46,0.25,0.54,50970,0.000,1.322,3.605,2.541,0.009,-0.012,0.983,0.000,0.000,0.000
41,0.0117,0.0467,0.2906,0.0205,0.0124,0.1080,0.48,0.22,0.57,50965,0.000,2.605,-0.206,2.313,0.011,-0.015,0.982,0.000,0.000,0.000
41,0.0119,0.0468,0.2934,0.0201,0.0117,0.1157,0.51,0.23,0.59,50971,0.000,3.737,-0.904,1.424,0.007,-0.015,0.986,0.000,0.000,0.000
41,0.0120,0.0488,0.2946,0.0195,0.0156,0.1143,0.52,0.23,0.61,50968,0.000,1.169,1.398,1.730,0.009,-0.012,0.987,0.000,0.000,0.000
41,0.0119,0.0493,0.2957,0.0184,0.0157,0.1130,0.52,0.23,0.62,51051,0.000,2.430,0.942,1.105,0.006,-0.013,0.983,0.000,0.000,0.000
41,0.0121,0.0495,0.2968,0.0180,0.0149,0.1119,0.55,0.22,0.63,51051,0.000,1.407,1.493,2.111,0.007,-0.014,0.981,0.000,0.000,0.000
41,0.0122,0.0508,0.2979,0.0174,0.0170,0.1104,0.56,0.22,0.66,51060,0.000,1.096,1.262,1.025,0.007,-0.012,0.982,0.000,0.000,0.000
41,0.0114,0.0521,0.2990,0.0147,0.0188,0.1086,0.57,0.20,0.67,51070,0.000,0.947,3.135,0.645,0.006,-0.011,0.984,0.000,0.000,0.000
41,0.0116,0.0522,0.2996,0.0143,0.0179,0.1045,0.57,0.17,0.67,51129,0.000,2.745,0.752,1.149,0.004,-0.015,0.987,0.000,0.000,0.000
41,0.0108,0.0529,0.3007,0.0118,0.0181,0.1032,0.60,0.16,0.68,51130,0.000,0.738,3.729,1.505,0.009,-0.013,0.982,0.000,0.000,0.000
41,0.0110,0.0535,0.3017,0.0116,0.0182,0.1017,0.60,0.13,0.70,51136,0.000,-0.445,5.609,2.333,0.009,-0.014,0.984,0.000,0.000,0.000
41,0.0111,0.0547,0.3027,0.0111,0.0198,0.0999,0.60,0.08,0.72,51146,0.000,-0.407,4.324,1.767,0.007,-0.015,0.982,0.000,0.000,0.000
42,0.0112,0.0554,0.3037,0.0109,0.0200,0.0981,0.60,0.03,0.74,51157,0.000,3.560,-0.314,-0.490,0.007,-0.016,0.984,0.000,0.000,0.000
42,0.0113,0.0556,0.3044,0.0107,0.0190,0.0949,0.63,0.03,0.74,51168,0.000,5.469,0.822,1.119,0.004,-0.015,0.985,0.000,0.000,0.000
42,0.0108,0.0556,0.3053,0.0090,0.0175,0.0936,0.68,0.02,0.75,51250,0.000,2.517,2.028,1.497,0.004,-0.017,0.985,0.000,0.000,0.000
42,0.0108,0.0561,0.3062,0.0087,0.0174,0.0920,0.70,0.03,0.77,51259,0.000,2.972,3.275,2.576,0.007,-0.019,0.985,0.000,0.000,0.000
42,0.0109,0.0563,0.3072,0.0086,0.0164,0.0903,0.74,-0.00,0.79,51269,0.000,6.358,-1.185,0.200,0.006,-0.017,0.985,0.000,0.000,0.000
42,0.0110,0.0564,0.3080,0.0086,0.0153,0.0886,0.78,0.00,0.80,51278,0.000,1.570,1.069,1.233,0.007,-0.015,0.986,0.000,0.000,0.000
42,0.0096,0.0577,0.3085,0.0050,0.0168,0.0848,0.80,-0.00,0.81,51347,0.000,0.227,0.157,1.942,0.008,-0.014,0.984,0.000,0.000,0.000
42,0.0095,0.0581,0.3094,0.0047,0.0161,0.0833,0.81,-0.00,0.83,51362,0.000,-0.181,0.581,2.368,0.008,-0.016,0.986,0.000,0.000,0.000
42,0.0095,0.0587,0.3102,0.0047,0.0160,0.0819,0.82,-0.01,0.85,51374,0.000,-2.094,2.504,1.877,0.008,-0.016,0.988,0.000,0.000,0.000
42,0.0095,0.0589,0.3110,0.0047,0.0147,0.0804,0.78,-0.03,0.87,51384,0.000,-0.828,-0.938,0.739,0.008,-0.014,0.991,0.000,0.000,0.000
42,0.0096,0.0590,0.3118,0.0047,0.0133,0.0789,0.79,-0.05,0.88,51386,0.000,-2.791,4.344,1.254,0.005,-0.016,0.990,0.000,0.000,0.000
42,0.0096,0.0592,0.3122,0.0047,0.0120,0.0758,0.74,-0.09,0.89,51388,0.000,-1.954,3.151,0.184,0.005,-0.017,0.989,0.000,0.000,0.000
42,0.0096,0.0609,0.3130,0.0046,0.0142,0.0742,0.72,-0.12,0.90,51221,0.000,-0.667,3.630,1.050,0.007,-0.016,0.990,0.000,0.000,0.000
42,0.0099,0.0593,0.3137,0.0053,0.0090,0.0728,0.71,-0.16,0.91,51221,0.000,-3.222,1.137,0.936,0.005,-0.017,0.991,0.000,0.000,0.000
42,0.0101,0.0612,0.3144,0.0057,0.0117,0.0715,0.67,-0.17,0.92,51219,0.000,-0.282,-1.247,0.085,0.004,-0.016,0.992,0.000,0.000,0.000
42,0.0095,0.0612,0.3152,0.0044,0.0102,0.0705,0.68,-0.16,0.92,51215,0.000,1.071,-0.181,0.060,0.006,-0.013,0.992,0.000,0.000,0.000
42,0.0096,0.0612,0.3168,0.0046,0.0089,0.0744,0.69,-0.16,0.92,51187,0.000,-1.348,-0.975,1.327,0.004,-0.012,0.987,0.000,0.000,0.000
43,0.0095,0.0621,0.3175,0.0047,0.0095,0.0733,0.67,-0.15,0.93,51191,0.000,0.715,-0.215,0.473,0.008,-0.013,0.988,0.000,0.000,0.000
43,0.0095,0.0611,0.3183,0.0048,0.0060,0.0724,0.67,-0.14,0.93,51197,0.000,-1.603,2.356,0.408,0.006,-0.013,0.994,0.000,0.000,0.000
43,0.0095,0.0612,0.3190,0.0051,0.0048,0.0714,0.66,-0.16,0.94,51193,0.000,-2.362,3.012,0.657,0.006,-0.011,0.993,0.000,0.000,0.000
43,0.0095,0.0629,0.3198,0.0051,0.0073,0.0713,0.64,-0.19,0.94,51185,0.000,-3.648,2.511,0.770,0.006,-0.011,0.989,0.000,0.000,0.000
43,0.0095,0.0630,0.3205,0.0054,0.0062,0.0705,0.61,-0.21,0.95,51187,0.000,-3.073,0.376,-0.017,0.007,-0.014,0.989,0.000,0.000,0.000
43,0.0096,0.0630,0.3212,0.0056,0.0050,0.0693,0.59,-0.22,0.95,51423,0.000,1.665,-2.927,-0.318,0.008,-0.015,0.991,0.000,0.000,0.000
43,0.0096,0.0631,0.3219,0.0059,0.0039,0.0682,0.60,-0.19,0.95,51428,0.000,0.461,-3.418,-0.647,0.009,-0.015,0.991,0.000,0.000,0.000
43,0.0097,0.0624,0.3226,0.0064,0.0013,0.0673,0.59,-0.17,0.94,51433,0.000,1.071,0.766,-1.520,0.007,-0.015,0.989,0.000,0.000,0.000
43,0.0098,0.0624,0.3233,0.0067,0.0003,0.0667,0.60,-0.18,0.93,51442,0.000,-1.167,-2.072,-0.747,0.008,-0.016,0.989,0.000,0.000,0.000
43,0.0099,0.0624,0.3227,0.0071,-0.0007,0.0591,0.58,-0.17,0.93,51527,0.000,0.206,-2.064,-1.122,0.007,-0.016,0.989,0.000,0.000,0.000
43,0.0099,0.0634,0.3232,0.0073,0.0004,0.0580,0.58,-0.15,0.92,51541,0.000,-1.687,-0.160,-1.148,0.007,-0.014,0.993,0.000,0.000,0.000
43,0.0100,0.0634,0.3239,0.0077,-0.0007,0.0570,0.56,-0.16,0.91,51546,0.000,-1.787,3.098,-1.384,0.006,-0.016,0.995,0.000,0.000,0.000
43,0.0100,0.0634,0.3244,0.0080,-0.0017,0.0561,0.54,-0.20,0.90,51543,0.000,-0.847,1.442,-1.960,0.007,-0.014,0.995,0.000,0.000,0.000
43,0.0101,0.0634,0.3246,0.0083,-0.0027,0.0530,0.52,-0.21,0.88,51541,0.000,-0.346,1.244,-1.247,0.008,-0.013,0.991,0.000,0.000,0.000
43,0.0102,0.0633,0.3251,0.0086,-0.0037,0.0519,0.52,-0.21,0.87,51545,0.000,-2.157,-0.382,-1.447,0.009,-0.013,0.991,0.000,0.000,0.000
43,0.0103,0.0633,0.3256,0.0089,-0.0046,0.0508,0.51,-0.21,0.86,51685,0.000,-1.322,0.151,-1.112,0.007,-0.015,0.994,0.000,0.000,0.000
43,0.0104,0.0632,0.3261,0.0092,-0.0055,0.0500,0.49,-0.21,0.84,51690,0.000,-1.330,-2.714,-1.608,0.006,-0.015,0.995,0.000,0.000,0.000
44,0.0105,0.0632,0.3266,0.0096,-0.0064,0.0495,0.48,-0.19,0.82,51693,0.000,-0.726,0.616,-2.267,0.009,-0.014,0.992,0.000,0.000,0.000
44,0.0106,0.0631,0.3271,0.0099,-0.0073,0.0491,0.47,-0.19,0.80,51701,0.000,-0.870,-2.419,-1.980,0.009,-0.017,0.992,0.000,0.000,0.000
44,0.0107,0.0630,0.3269,0.0103,-0.0081,0.0446,0.46,-0.18,0.78,51456,0.000,-1.884,0.257,-1.325,0.008,-0.012,0.998,0.000,0.000,0.000
44,0.0108,0.0629,0.3274,0.0107,-0.0090,0.0437,0.45,-0.17,0.77,51450,0.000,-0.917,-0.665,-1.217,0.005,-0.012,0.993,0.000,0.000,0.000
44,0.0109,0.0628,0.3278,0.0110,-0.0098,0.0431,0.44,-0.16,0.75,51449,0.000,-0.458,-1.278,-1.699,0.006,-0.014,0.993,0.000,0.000,0.000
44,0.0110,0.0627,0.3282,0.0114,-0.0106,0.0426,0.43,-0.15,0.74,51452,0.000,-2.587,-2.069,-1.106,0.006,-0.015,0.992,0.000,0.000,0.000
44,0.0111,0.0626,0.3300,0.0117,-0.0114,0.0492,0.40,-0.14,0.73,51457,0.000,-3.344,-1.727,-1.690,0.008,-0.016,0.993,0.000,0.000,0.000
44,0.0112,0.0625,0.3305,0.0120,-0.0121,0.0483,0.39,-0.12,0.71,51448,0.000,-3.225,-1.248,-0.970,0.010,-0.009,0.996,0.000,0.000,0.000
44,0.0109,0.0616,0.3310,0.0114,-0.0145,0.0480,0.41,-0.17,0.70,51440,0.000,-4.933,-0.363,-0.617,0.008,-0.011,0.995,0.000,0.000,0.000
44,0.0107,0.0593,0.3314,0.0110,-0.0194,0.0474,0.37,-0.22,0.68,51440,0.000,-4.882,0.936,-1.040,0.005,-0.013,0.993,0.000,0.000,0.000
44,0.0173,0.0546,0.3319,0.0241,-0.0291,0.0467,0.24,-0.10,0.67,51441,0.000,-5.067,0.220,-1.021,0.008,-0.015,0.995,0.000,0.000,0.000
44,0.0225,0.0541,0.3324,0.0340,-0.0301,0.0459,0.24,-0.16,0.66,51438,0.000,-3.637,-1.167,-1.530,0.010,-0.016,0.996,0.000,0.000,0.000
44,0.0115,0.0628,0.3329,0.0123,-0.0132,0.0458,0.17,-0.09,0.64,51412,0.000,-4.066,-2.529,-1.387,0.010,-0.012,0.993,0.000,0.000,0.000
44,0.0221,0.0570,0.3334,0.0328,-0.0247,0.0453,0.14,-0.08,0.63,51413,0.000,-4.804,-3.105,-1.442,0.009,-0.012,0.991,0.000,0.000,0.000
45,0.0179,0.0576,0.3338,0.0244,-0.0235,0.0448,0.07,-0.03,0.62,51420,0.000,-4.818,-3.232,-0.979,0.010,-0.014,0.995,0.000,0.000,0.000
45,0.0110,0.0608,0.3343,0.0109,-0.0175,0.0442,0.05,-0.06,0.60,51418,0.000,-2.411,-2.354,-1.758,0.007,-0.014,0.996,0.000,0.000,0.000
45,0.0132,0.0589,0.3347,0.0151,-0.0211,0.0437,-0.02,0.04,0.58,51415,0.000,-2.878,-4.312,-1.702,0.005,-0.012,0.996,0.000,0.000,0.000
45,0.0103,0.0620,0.3353,0.0094,-0.0149,0.0439,-0.02,0.02,0.56,51761,0.000,-0.953,-3.738,-1.347,0.007,-0.013,0.993,0.000,0.000,0.000
45,0.0173,0.0599,0.3357,0.0227,-0.0187,0.0433,-0.04,0.04,0.55,51772,0.000,-1.344,-1.877,-0.398,0.009,-0.016,0.997,0.000,0.000,0.000
45,0.0094,0.0628,0.3361,0.0072,-0.0130,0.0425,-0.06,0.07,0.54,51776,0.000,-2.457,-2.723,-0.843,0.006,-0.015,0.994,0.000,0.000,0.000
45,0.0161,0.0606,0.3366,0.0199,-0.0168,0.0420,-0.09,0.08,0.53,51782,0.000,-1.589,-1.858,-1.394,0.006,-0.015,0.995,0.000,0.000,0.000
45,0.0182,0.0609,0.3370,0.0234,-0.0159,0.0415,-0.09,0.11,0.52,51789,0.000,-0.016,-2.694,-2.572,0.008,-0.013,0.995,0.000,0.000,0.000
45,0.0166,0.0613,0.3355,0.0198,-0.0148,0.0311,-0.09,0.14,0.49,51401,0.000,2.715,-2.464,-2.711,0.010,-0.014,0.998,0.000,0.000,0.000
45,0.0185,0.0617,0.3358,0.0230,-0.0138,0.0304,-0.06,0.16,0.47,51395,0.000,0.234,-0.756,-1.103,0.008,-0.015,0.999,0.000,0.000,0.000
45,0.0181,0.0606,0.3361,0.0215,-0.0153,0.0300,-0.06,0.17,0.45,51384,0.000,1.529,-2.526,-2.147,0.005,-0.015,0.997,0.000,0.000,0.000
45,0.0183,0.0605,0.3364,0.0214,-0.0151,0.0295,-0.04,0.19,0.43,51377,0.000,0.476,0.231,-1.122,0.006,-0.014,0.996,0.000,0.000,0.000
45,0.0185,0.0603,0.3388,0.0211,-0.0150,0.0403,-0.05,0.20,0.42,51373,0.000,0.941,-1.737,-2.467,0.008,-0.014,0.993,0.000,0.000,0.000
45,0.0187,0.0602,0.3392,0.0209,-0.0149,0.0397,-0.05,0.22,0.40,51624,0.000,0.319,-1.068,-1.726,0.009,-0.014,0.999,0.000,0.000,0.000
45,0.0185,0.0590,0.3396,0.0198,-0.0168,0.0394,-0.05,0.24,0.38,51621,0.000,-1.567,-0.072,-0.728,0.007,-0.014,0.998,0.000,0.000,0.000
45,0.0181,0.0602,0.3400,0.0184,-0.0141,0.0393,-0.06,0.28,0.37,51617,0.000,-0.659,-0.934,-1.982,0.007,-0.014,0.995,0.000,0.000,0.000
46,0.0181,0.0615,0.3404,0.0176,-0.0114,0.0391,-0.02,0.25,0.35,51620,0.000,-2.026,0.364,-1.539,0.005,-0.017,0.993,0.000,0.000,0.000
46,0.0167,0.0617,0.3408,0.0144,-0.0107,0.0387,-0.08,0.26,0.34,51629,0.000,-1.807,0.563,-1.735,0.008,-0.014,0.995,0.000,0.000,0.000
46,0.0128,0.0618,0.3398,0.0066,-0.0103,0.0309,-0.10,0.26,0.32,51637,0.000,-3.858,1.941,-0.318,0.008,-0.016,1.000,0.000,0.000,0.000
46,0.0164,0.0562,0.3401,0.0126,-0.0202,0.0307,-0.13,0.22,0.32,51631,0.000,-4.159,0.560,-1.062,0.006,-0.015,0.996,0.000,0.000,0.000
46,0.0151,0.0611,0.3404,0.0095,-0.0109,0.0305,-0.16,0.21,0.30,51632,0.000,-0.788,-0.161,-1.773,0.008,-0.013,0.996,0.000,0.000,0.000
46,0.0152,0.0610,0.3407,0.0091,-0.0107,0.0300,-0.19,0.31,0.29,51634,0.000,-0.976,1.320,-0.806,0.006,-0.013,0.996,0.000,0.000,0.000
46,0.0176,0.0603,0.3410,0.0129,-0.0116,0.0292,-0.23,0.29,0.28,51635,0.000,-1.480,2.619,0.298,0.005,-0.014,0.996,0.000,0.000,0.000
46,0.0178,0.0602,0.3413,0.0125,-0.0114,0.0287,-0.21,0.20,0.29,51615,0.000,0.994,-0.200,-1.111,0.005,-0.015,0.995,0.000,0.000,0.000
46,0.0070,0.0615,0.3416,-0.0077,-0.0084,0.0286,-0.20,0.23,0.28,51618,0.000,1.573,1.033,-0.779,0.005,-0.016,0.994,0.000,0.000,0.000
46,0.0073,0.0653,0.3419,-0.0076,-0.0012,0.0283,-0.18,0.22,0.27,51625,0.000,2.357,3.161,-0.514,0.005,-0.012,0.994,0.000,0.000,0.000
46,0.0144,0.0618,0.3422,0.0051,-0.0071,0.0280,-0.16,0.21,0.26,51632,0.000,1.435,3.855,0.504,0.003,-0.012,0.996,0.000,0.000,0.000
46,0.0110,0.0616,0.3425,-0.0016,-0.0069,0.0275,-0.14,0.14,0.27,51635,0.000,3.840,1.699,-0.562,0.006,-0.012,0.996,0.000,0.000,0.000
46,0.0110,0.0615,0.3428,-0.0020,-0.0066,0.0278,-0.08,0.07,0.26,51780,0.000,4.500,4.324,-0.283,0.008,-0.017,0.996,0.000,0.000,0.000
46,0.0091,0.0614,0.3431,-0.0057,-0.0064,0.0274,-0.05,0.04,0.26,51787,0.000,3.774,2.545,-0.610,0.004,-0.018,0.996,0.000,0.000,0.000
46,0.0129,0.0612,0.3434,0.0009,-0.0065,0.0268,-0.02,0.02,0.25,51794,0.000,2.875,2.996,-0.070,0.007,-0.017,0.998,0.000,0.000,0.000
46,0.0178,0.0583,0.3437,0.0097,-0.0112,0.0262,0.01,-0.00,0.25,51795,0.000,2.844,3.120,-0.191,0.006,-0.013,0.999,0.000,0.000,0.000
46,0.0168,0.0592,0.3432,0.0075,-0.0093,0.0217,0.04,-0.05,0.24,51793,0.000,2.287,2.850,-0.389,0.005,-0.010,1.000,0.000,0.000,0.000
47,0.0159,0.0601,0.3434,0.0057,-0.0074,0.0214,0.06,-0.06,0.24,51824,0.000,0.447,2.650,-0.277,0.005,-0.013,0.997,0.000,0.000,0.000
47,0.0151,0.0599,0.3436,0.0040,-0.0077,0.0209,0.07,-0.08,0.24,51826,0.000,-1.247,1.606,-0.787,0.005,-0.015,0.999,0.000,0.000,0.000
47,0.0164,0.0597,0.3438,0.0064,-0.0080,0.0205,0.00,-0.13,0.23,51826,0.000,-1.232,0.405,-0.250,0.007,-0.013,0.998,0.000,0.000,0.000
47,0.0155,0.0596,0.3440,0.0046,-0.0080,0.0203,0.03,-0.11,0.23,51828,0.000,-1.270,-0.172,-0.477,0.006,-0.013,0.994,0.000,0.000,0.000
47,0.0190,0.0653,0.3442,0.0110,0.0025,0.0202,0.01,-0.06,0.23,51838,0.000,-0.913,0.175,-0.198,0.007,-0.014,0.999,0.000,0.000,0.000
47,0.0168,0.0610,0.3442,0.0070,-0.0054,0.0192,-0.00,-0.08,0.23,51764,0.000,-1.550,-0.816,0.311,0.007,-0.016,1.002,0.000,0.000,0.000
47,0.0112,0.0611,0.3444,-0.0031,-0.0052,0.0190,-0.02,-0.05,0.23,51756,0.000,-1.374,-1.014,0.589,0.004,-0.014,1.001,0.000,0.000,0.000
47,0.0145,0.0612,0.3446,0.0030,-0.0050,0.0189,-0.03,-0.05,0.23,51750,0.000,-0.608,-2.718,0.516,0.004,-0.015,0.999,0.000,0.000,0.000
47,0.0122,0.0613,0.3448,-0.0009,-0.0047,0.0187,-0.06,-0.07,0.24,51747,0.000,-0.423,-1.572,0.901,0.008,-0.014,1.002,0.000,0.000,0.000
47,0.0132,0.0615,0.3454,0.0010,-0.0043,0.0203,-0.06,-0.05,0.25,51737,0.000,0.420,0.553,1.143,0.004,-0.014,1.004,0.000,0.000,0.000
47,0.0132,0.0615,0.3456,0.0011,-0.0043,0.0201,-0.02,-0.01,0.25,51933,0.000,0.403,0.276,0.869,0.004,-0.015,1.000,0.000,0.000,0.000
47,0.0186,0.0648,0.3458,0.0108,0.0019,0.0202,-0.02,-0.01,0.26,51930,0.000,1.309,2.381,1.364,0.005,-0.013,1.004,0.000,0.000,0.000
47,0.0153,0.0615,0.3460,0.0048,-0.0040,0.0203,-0.08,-0.02,0.27,51921,0.000,2.290,0.419,1.175,0.009,-0.010,0.998,0.000,0.000,0.000
47,0.0142,0.0614,0.3462,0.0027,-0.0040,0.0202,-0.06,-0.02,0.29,51922,0.000,1.727,1.015,1.811,0.012,-0.011,0.996,0.000,0.000,0.000
47,0.0142,0.0614,0.3464,0.0027,-0.0039,0.0204,-0.04,-0.03,0.30,51930,0.000,2.416,2.567,1.838,0.007,-0.018,0.998,0.000,0.000,0.000
47,0.0141,0.0699,0.3455,0.0026,0.0116,0.0147,-0.02,-0.04,0.32,51938,0.000,2.596,1.218,0.970,0.005,-0.016,1.000,0.000,0.000,0.000
47,0.0131,0.0697,0.3456,0.0008,0.0111,0.0147,0.00,-0.05,0.33,51937,0.000,2.835,2.156,0.988,0.007,-0.014,1.001,0.000,0.000,0.000
48,0.0131,0.0698,0.3458,0.0008,0.0112,0.0150,0.03,-0.07,0.35,51933,0.000,3.227,1.616,1.140,0.009,-0.014,1.001,0.000,0.000,0.000
48,0.0122,0.0706,0.3459,-0.0010,0.0125,0.0149,0.06,-0.09,0.36,51928,0.000,2.549,2.824,1.025,0.008,-0.013,1.002,0.000,0.000,0.000
48,0.0113,0.0714,0.3461,-0.0024,0.0138,0.0146,0.09,-0.12,0.37,51921,0.000,3.241,1.104,0.739,0.006,-0.014,1.001,0.000,0.000,0.000
48,0.0113,0.0716,0.3462,-0.0024,0.0138,0.0142,0.12,-0.13,0.37,51910,0.000,3.130,1.807,0.860,0.002,-0.014,1.000,0.000,0.000,0.000
48,0.0112,0.0717,0.3463,-0.0022,0.0137,0.0142,0.14,-0.15,0.38,51907,0.000,2.991,2.216,0.623,0.005,-0.014,0.998,0.000,0.000,0.000
48,0.0114,0.0724,0.3465,-0.0018,0.0147,0.0144,0.17,-0.16,0.39,51909,0.000,2.836,-0.330,0.986,0.011,-0.016,1.003,0.000,0.000,0.000
48,0.0113,0.0726,0.3466,-0.0016,0.0146,0.0145,0.19,-0.17,0.40,51901,0.000,2.526,2.077,1.273,0.007,-0.016,1.006,0.000,0.000,0.000
48,0.0116,0.0734,0.3468,-0.0009,0.0155,0.0147,0.22,-0.17,0.41,51885,0.000,1.603,-1.073,1.236,0.008,-0.013,1.001,0.000,0.000,0.000
48,0.0116,0.0742,0.3469,-0.0007,0.0165,0.0150,0.23,-0.16,0.42,51772,0.000,1.808,0.196,1.484,0.006,-0.015,1.001,0.000,0.000,0.000
48,0.0116,0.0744,0.3471,-0.0004,0.0162,0.0150,0.25,-0.16,0.44,51766,0.000,1.504,-2.383,1.882,0.005,-0.016,1.000,0.000,0.000,0.000
48,0.0104,0.0741,0.3472,-0.0023,0.0151,0.0148,0.27,-0.14,0.45,51760,0.000,2.222,-1.583,1.395,0.008,-0.013,0.998,0.000,0.000,0.000
48,0.0103,0.0743,0.3474,-0.0020,0.0148,0.0150,0.29,-0.13,0.47,51759,0.000,2.545,-1.065,0.885,0.009,-0.013,0.999,0.000,0.000,0.000
48,0.0103,0.0744,0.3481,-0.0017,0.0143,0.0186,0.31,-0.12,0.48,51755,0.000,2.723,-0.487,0.962,0.006,-0.016,0.998,0.000,0.000,0.000
48,0.0103,0.0745,0.3483,-0.0014,0.0139,0.0187,0.34,-0.12,0.49,51853,0.000,1.931,0.084,0.544,0.009,-0.017,1.000,0.000,0.000,0.000
48,0.0102,0.0754,0.3485,-0.0013,0.0148,0.0187,0.35,-0.13,0.49,51851,0.000,2.890,0.864,0.578,0.008,-0.016,1.001,0.000,0.000,0.000
48,0.0102,0.0755,0.3487,-0.0011,0.0143,0.0187,0.37,-0.14,0.50,51845,0.000,1.799,-0.908,1.405,0.006,-0.012,0.999,0.000,0.000,0.000
48,0.0102,0.0757,0.3489,-0.0009,0.0137,0.0185,0.37,-0.12,0.51,51849,0.000,0.433,-1.335,0.931,0.006,-0.015,0.999,0.000,0.000,0.000
49,0.0102,0.0758,0.3491,-0.0007,0.0132,0.0185,0.37,-0.11,0.52,51843,0.000,0.125,-2.178,0.718,0.007,-0.016,1.000,0.000,0.000,0.000
49,0.0101,0.0768,0.3487,-0.0006,0.0140,0.0154,0.36,-0.09,0.53,51936,0.000,-0.329,-2.664,0.511,0.007,-0.015,1.001,0.000,0.000,0.000
49,0.0086,0.0779,0.3489,-0.0030,0.0151,0.0153,0.35,-0.07,0.54,51931,0.000,0.555,-1.265,0.878,0.006,-0.016,1.002,0.000,0.000,0.000
49,0.0086,0.0780,0.3490,-0.0028,0.0145,0.0154,0.36,-0.06,0.55,51923,0.000,-0.038,-0.467,1.191,0.008,-0.014,1.003,0.000,0.000,0.000
49,0.0084,0.0792,0.3492,-0.0028,0.0158,0.0154,0.36,-0.06,0.56,51927,0.000,0.432,2.182,0.844,0.008,-0.014,1.002,0.000,0.000,0.000
49,0.0084,0.0794,0.3488,-0.0027,0.0152,0.0124,0.37,-0.08,0.56,51917,0.000,0.654,0.854,0.313,0.007,-0.015,1.005,0.000,0.000,0.000
49,0.0084,0.0795,0.3489,-0.0026,0.0146,0.0124,0.38,-0.09,0.57,51712,0.000,0.814,2.003,1.221,0.011,-0.012,1.003,0.000,0.000,0.000
49,0.0084,0.0797,0.3490,-0.0024,0.0140,0.0126,0.39,-0.12,0.58,51696,0.000,1.152,1.996,1.075,0.009,-0.014,0.999,0.000,0.000,0.000
49,0.0083,0.0798,0.3492,-0.0023,0.0133,0.0128,0.40,-0.14,0.60,51684,0.000,2.119,1.358,0.929,0.008,-0.014,1.000,0.000,0.000,0.000
49,0.0083,0.0800,0.3493,-0.0022,0.0126,0.0130,0.41,-0.15,0.61,51678,0.000,1.127,1.558,1.234,0.007,-0.012,1.001,0.000,0.000,0.000
49,0.0083,0.0801,0.3495,-0.0020,0.0119,0.0133,0.42,-0.17,0.62,51670,0.000,0.927,1.791,0.856,0.007,-0.010,1.001,0.000,0.000,0.000
49,0.0083,0.0802,0.3507,-0.0018,0.0112,0.0194,0.43,-0.19,0.63,51696,0.000,0.700,0.903,0.940,0.008,-0.010,0.999,0.000,0.000,0.000
49,0.0085,0.0814,0.3509,-0.0011,0.0125,0.0195,0.45,-0.21,0.63,51687,0.000,2.689,0.966,1.134,0.008,-0.012,0.997,0.000,0.000,0.000
49,0.0085,0.0815,0.3511,-0.0008,0.0118,0.0194,0.47,-0.21,0.64,51683,0.000,3.114,1.300,0.766,0.009,-0.013,0.998,0.000,0.000,0.000
49,0.0085,0.0816,0.3513,-0.0005,0.0111,0.0194,0.47,-0.21,0.64,51683,0.000,1.759,0.796,0.728,0.010,-0.012,1.001,0.000,0.000,0.000
49,0.0085,0.0818,0.3513,-0.0002,0.0104,0.0185,0.48,-0.22,0.65,51676,0.000,1.959,-0.508,-0.094,0.008,-0.010,1.001,0.000,0.000,0.000
49,0.0085,0.0819,0.3515,0.0002,0.0096,0.0186,0.49,-0.22,0.66,51837,0.000,0.759,-1.894,-0.288,0.006,-0.010,0.998,0.000,0.000,0.000
50,0.0085,0.0819,0.3516,0.0006,0.0088,0.0184,0.50,-0.21,0.66,51831,0.000,0.110,-2.105,0.003,0.009,-0.014,0.997,0.000,0.000,0.000
50,0.0085,0.0820,0.3518,0.0009,0.0080,0.0181,0.51,-0.18,0.66,51833,0.000,2.764,-1.010,-0.035,0.011,-0.015,1.002,0.000,0.000,0.000
50,0.0085,0.0821,0.3520,0.0013,0.0072,0.0181,0.51,-0.16,0.65,51832,0.000,-0.260,-1.205,-0.006,0.005,-0.013,0.998,0.000,0.000,0.000
50,0.0085,0.0822,0.3522,0.0017,0.0063,0.0183,0.51,-0.15,0.66,51825,0.000,-1.261,0.295,0.300,0.007,-0.015,0.997,0.000,0.000,0.000
50,0.0085,0.0822,0.3514,0.0020,0.0055,0.0133,0.51,-0.15,0.66,51743,0.000,-0.125,-2.284,0.338,0.009,-0.012,0.996,0.000,0.000,0.000
50,0.0084,0.0840,0.3515,0.0019,0.0076,0.0131,0.51,-0.13,0.65,51745,0.000,-0.415,0.157,-0.097,0.008,-0.008,0.997,0.000,0.000,0.000
50,0.0084,0.0841,0.3517,0.0022,0.0067,0.0129,0.49,-0.13,0.66,51748,0.000,-3.052,3.099,0.457,0.008,-0.009,1.001,0.000,0.000,0.000
50,0.0084,0.0841,0.3518,0.0025,0.0058,0.0130,0.52,-0.15,0.66,51748,0.000,-2.444,1.203,0.332,0.006,-0.013,1.003,0.000,0.000,0.000
50,0.0084,0.0842,0.3519,0.0027,0.0050,0.0128,0.50,-0.16,0.66,51736,0.000,-1.712,2.685,0.101,0.005,-0.011,0.999,0.000,0.000,0.000
50,0.0085,0.0842,0.3525,0.0029,0.0041,0.0149,0.48,-0.17,0.66,51965,0.000,-1.578,2.509,-0.322,0.006,-0.013,1.001,0.000,0.000,0.000
50,0.0087,0.0808,0.3527,0.0035,-0.0028,0.0146,0.46,-0.20,0.66,51967,0.000,-2.203,0.844,0.054,0.010,-0.013,1.002,0.000,0.000,0.000
50,0.0087,0.0807,0.3528,0.0038,-0.0036,0.0143,0.44,-0.22,0.66,51963,0.000,-1.490,0.268,0.175,0.007,-0.012,1.001,0.000,0.000,0.000
50,0.0087,0.0807,0.3530,0.0041,-0.0044,0.0146,0.43,-0.21,0.66,51956,0.000,-2.072,1.254,-0.035,0.005,-0.011,0.998,0.000,0.000,0.000
50,0.0088,0.0806,0.3531,0.0044,-0.0052,0.0147,0.40,-0.21,0.66,51955,0.000,-0.932,1.372,-0.090,0.005,-0.012,0.999,0.000,0.000,0.000
50,0.0088,0.0806,0.3519,0.0048,-0.0059,0.0077,0.39,-0.22,0.66,51973,0.000,-2.194,0.357,-0.211,0.004,-0.012,1.003,0.000,0.000,0.000
50,0.0069,0.0791,0.3520,0.0019,-0.0091,0.0078,0.38,-0.23,0.66,51970,0.000,-2.112,-0.975,-0.890,0.004,-0.011,1.004,0.000,0.000,0.000
50,0.0069,0.0790,0.3520,0.0022,-0.0098,0.0080,0.36,-0.23,0.66,51961,0.000,-1.903,-1.517,-0.799,0.008,-0.014,1.003,0.000,0.000,0.000
51,0.0070,0.0776,0.3521,0.0026,-0.0127,0.0080,0.35,-0.22,0.65,51950,0.000,-3.242,-3.114,-0.700,0.007,-0.011,1.001,0.000,0.000,0.000
51,0.0070,0.0774,0.3522,0.0030,-0.0133,0.0079,0.34,-0.19,0.64,51944,0.000,-3.914,-1.420,-0.577,0.004,-0.012,1.001,0.000,0.000,0.000
51,0.0070,0.0773,0.3522,0.0035,-0.0140,0.0075,0.30,-0.16,0.64,51905,0.000,-4.280,-2.209,-0.647,0.005,-0.014,1.003,0.000,0.000,0.000
51,0.0064,0.0760,0.3523,0.0027,-0.0165,0.0078,0.26,-0.15,0.63,51896,0.000,-3.467,-0.511,-0.325,0.005,-0.011,1.002,0.000,0.000,0.000
51,0.0061,0.0750,0.3523,0.0024,-0.0184,0.0081,0.21,-0.16,0.63,51886,0.000,-4.519,-1.464,-0.463,0.007,-0.012,1.005,0.000,0.000,0.000
51,0.0061,0.0748,0.3524,0.0027,-0.0189,0.0083,0.16,-0.14,0.63,51877,0.000,-4.874,1.413,-0.603,0.006,-0.014,1.005,0.000,0.000,0.000
51,0.0061,0.0746,0.3525,0.0029,-0.0194,0.0083,0.12,-0.14,0.62,51861,0.000,-5.057,-0.575,-0.567,0.004,-0.010,1.003,0.000,0.000,0.000
51,0.0098,0.0757,0.3528,0.0094,-0.0177,0.0096,0.08,-0.14,0.62,51862,0.000,-3.369,0.955,-0.804,0.005,-0.011,1.003,0.000,0.000,0.000
51,0.0080,0.0768,0.3529,0.0063,-0.0159,0.0098,0.03,-0.14,0.61,51852,0.000,-3.516,-0.239,-0.569,0.009,-0.016,1.007,0.000,0.000,0.000
51,0.0077,0.0759,0.3530,0.0060,-0.0172,0.0101,-0.00,-0.14,0.61,51838,0.000,-1.910,-0.092,-1.067,0.007,-0.013,1.009,0.000,0.000,0.000
51,0.0078,0.0750,0.3531,0.0064,-0.0187,0.0106,-0.03,-0.14,0.60,51816,0.000,-2.559,-0.866,-0.675,0.002,-0.012,1.004,0.000,0.000,0.000
51,0.0079,0.0748,0.3531,0.0066,-0.0187,0.0105,-0.03,-0.14,0.59,51792,0.000,-2.667,-1.338,-0.793,0.004,-0.011,1.002,0.000,0.000,0.000
51,0.0080,0.0746,0.3532,0.0068,-0.0187,0.0108,-0.06,-0.14,0.58,51830,0.000,-1.102,-0.840,-0.136,0.007,-0.010,1.001,0.000,0.000,0.000
51,0.0080,0.0744,0.3533,0.0071,-0.0186,0.0112,-0.07,-0.12,0.58,51822,0.000,-1.832,-2.059,-0.005,0.007,-0.012,1.001,0.000,0.000,0.000
51,0.0097,0.0713,0.3535,0.0100,-0.0234,0.0118,-0.08,-0.13,0.58,0,0.000,-1.179,-0.462,-0.134,0.004,-0.014,1.001,0.000,0.000,0.000
51,0.0098,0.0710,0.3536,0.0103,-0.0233,0.0126,-0.09,-0.11,0.58,0,0.000,-2.476,-2.687,-0.312,0.004,-0.010,0.945,0.000,0.000,0.000
51,0.0099,0.0708,0.3537,0.0105,-0.0232,0.0130,-0.11,-0.09,0.57,0,0.000,-3.405,-0.450,-0.211,0.005,-0.009,0.851,0.000,0.000,0.000
52,0.0116,0.0695,0.3535,0.0133,-0.0247,0.0115,-0.13,-0.07,0.57,0,0.000,0.157,-1.454,-1.251,-0.003,-0.004,0.775,0.000,0.000,0.000
52,0.0111,0.0683,0.3537,0.0124,-0.0261,0.0116,-0.16,-0.09,0.57,0,0.000,-2.767,-2.015,-0.273,-0.004,-0.008,0.726,0.000,0.000,0.000
52,0.0112,0.0680,0.3538,0.0125,-0.0259,0.0117,-0.17,-0.07,0.56,49846,0.000,-4.924,-2.613,-0.506,0.007,-0.020,0.676,0.000,0.000,0.000
52,0.0109,0.0666,0.3539,0.0120,-0.0276,0.0108,-0.20,-0.04,0.55,50209,0.000,-5.905,-3.035,-0.069,-0.005,-0.010,0.668,0.000,0.000,0.000
52,0.0123,0.0675,0.3536,0.0142,-0.0255,0.0009,-0.28,-0.02,0.55,50440,0.000,-9.818,-2.791,-0.444,-0.004,-0.030,0.718,0.000,0.000,0.000
52,0.0117,0.0667,0.3535,0.0129,-0.0262,-0.0156,-0.36,0.02,0.55,50172,0.000,-10.414,-4.649,1.103,0.007,-0.027,0.730,0.000,0.000,0.000
52,0.0118,0.0664,0.3532,0.0130,-0.0260,-0.0389,-0.46,0.06,0.55,50103,0.000,-13.841,-10.426,2.691,-0.007,0.000,0.746,0.000,0.000,0.000
52,0.0130,0.0682,0.3527,0.0148,-0.0223,-0.0668,-0.56,0.10,0.57,50126,0.000,-16.345,-16.542,3.325,-0.005,0.002,0.799,0.000,0.000,0.000
61,0.0122,0.0683,0.3518,0.0132,-0.0215,-0.0996,-0.71,0.23,0.60,50096,0.000,-20.840,-21.591,4.603,0.000,-0.012,0.841,0.000,0.000,0.000
71,0.0123,0.0681,0.3507,0.0132,-0.0210,-0.1305,-0.87,0.43,0.64,50084,0.000,-24.395,-27.735,5.514,-0.000,-0.018,0.859,0.000,0.000,0.000
81,0.0171,0.0655,0.3503,0.0205,-0.0242,-0.1528,-1.10,0.68,0.69,49978,0.000,-26.163,-34.197,5.574,0.002,-0.013,0.874,0.000,0.000,0.000
92,0.0154,0.0670,0.3486,0.0174,-0.0206,-0.1789,-1.36,0.99,0.76,49891,0.000,-29.242,-34.016,7.441,0.005,-0.011,0.880,0.000,0.000,0.000
101,0.0166,0.0620,0.3467,0.0184,-0.0271,-0.2021,-1.67,1.36,0.84,49758,0.000,-28.179,-35.294,7.255,0.006,-0.011,0.892,0.000,0.000,0.000
111,0.0149,0.0643,0.3446,0.0147,-0.0217,-0.2203,-1.95,1.70,0.92,50149,0.000,-27.318,-35.410,8.350,0.002,-0.010,0.903,0.000,0.000,0.000
121,0.0168,0.0619,0.3423,0.0161,-0.0233,-0.2352,-2.21,2.03,1.01,50077,0.000,-23.692,-29.670,7.866,0.005,-0.005,0.915,0.000,0.000,0.000
131,0.0134,0.0643,0.3411,0.0084,-0.0167,-0.2425,-2.49,2.37,1.11,49923,0.000,-23.760,-25.380,8.417,0.005,-0.003,0.921,0.000,0.000,0.000
142,0.0118,0.0649,0.3386,0.0032,-0.0127,-0.2549,-2.72,2.61,1.20,50136,0.000,-20.607,-18.986,7.922,0.001,-0.007,0.931,0.000,0.000,0.000
150,0.0175,0.0602,0.3360,0.0092,-0.0167,-0.2662,-2.94,2.82,1.29,50231,0.000,-17.115,-12.808,8.560,0.003,-0.013,0.938,0.000,0.000,0.000
161,0.0157,0.0632,0.3333,0.0026,-0.0080,-0.2767,-3.12,2.98,1.38,50021,0.000,-10.856,-9.049,7.771,0.004,-0.008,0.941,0.000,0.000,0.000
171,0.0196,0.0627,0.3305,0.0047,-0.0046,-0.2859,-3.26,3.07,1.47,50092,0.000,-3.734,-1.050,7.608,0.007,-0.008,0.947,0.000,0.000,0.000
181,0.0181,0.0616,0.3287,-0.0023,-0.0018,-0.2886,-3.34,3.11,1.55,50000,0.000,4.111,3.965,7.082,0.007,-0.015,0.953,0.000,0.000,0.000
191,0.0180,0.0616,0.3258,-0.0072,0.0030,-0.2963,-3.34,3.09,1.62,49895,0.000,9.472,8.318,6.732,0.008,-0.019,0.960,0.000,0.000,0.000
201,0.0184,0.0603,0.3228,-0.0116,0.0059,-0.3029,-3.28,3.00,1.68,49739,0.000,15.295,10.696,6.184,0.007,-0.019,0.966,0.000,0.000,0.000
211,0.0182,0.0604,0.3197,-0.0167,0.0111,-0.3092,-3.20,2.93,1.74,49789,0.000,16.087,10.326,6.671,0.005,-0.017,0.967,0.000,0.000,0.000
