time_ms,vel_x,vel_y,vel_z,roll,pitch,yaw,range_z,gyro_x,gyro_y,gyro_z
0,-0.0125,0.1048,0.0069,-1.02,0.65,0.18,0.011,0.078,0.011,-0.393
0,-0.0121,0.0890,0.0096,-0.89,0.64,0.18,0.013,-0.027,0.006,-0.161
0,-0.0128,0.0850,0.0102,-0.85,0.64,0.18,0.013,-0.132,0.216,0.058
0,-0.0144,0.0766,0.0121,-0.77,0.66,0.17,0.013,0.092,-0.301,-0.050
0,-0.0124,0.0729,0.0125,-0.74,0.64,0.17,0.013,0.042,-0.073,-0.001
0,-0.0116,0.0786,0.0118,-0.78,0.63,0.18,0.013,-0.027,0.058,0.265
0,-0.0110,0.0654,0.0130,-0.67,0.63,0.17,0.011,-0.024,0.060,0.403
0,-0.0103,0.0657,0.0131,-0.67,0.63,0.18,0.011,0.117,0.235,0.051
0,-0.0027,0.0644,0.0075,-0.66,0.57,0.18,0.011,-0.036,-0.071,0.274
0,-0.0088,0.0619,0.0082,-0.63,0.61,0.18,0.011,-0.036,0.096,0.151
0,-0.0088,0.0619,0.0082,-0.63,0.61,0.18,0.011,0.098,0.249,0.095
0,-0.0083,0.0498,0.0093,-0.53,0.61,0.18,0.008,-0.283,-0.268,0.026
1,-0.0079,0.0563,0.0090,-0.58,0.60,0.18,0.008,0.027,0.018,0.198
1,-0.0014,0.0483,-0.0020,-0.52,0.55,0.19,0.008,-0.102,-0.179,0.038
1,0.0008,0.0583,-0.0026,-0.60,0.54,0.19,0.008,-0.138,0.125,0.256
1,-0.0061,0.0408,-0.0010,-0.45,0.59,0.18,0.008,-0.130,0.063,0.008
1,-0.0056,0.0410,-0.0010,-0.46,0.59,0.18,0.012,0.079,-0.244,-0.178
1,-0.0063,0.0391,-0.0009,-0.44,0.60,0.19,0.012,-0.240,0.065,-0.123
1,0.0042,0.0123,0.0021,-0.22,0.51,0.19,0.012,-0.299,0.022,0.052
1,-0.0048,-0.0033,0.0021,-0.10,0.58,0.18,0.012,0.045,0.197,0.001
1,-0.0043,-0.0161,0.0018,0.00,0.58,0.18,0.012,0.041,0.158,-0.042
1,-0.0030,-0.0127,0.0022,-0.03,0.57,0.18,0.010,-0.010,0.127,-0.008
1,-0.0030,-0.0127,0.0022,-0.03,0.57,0.18,0.010,0.168,-0.302,-0.069
1,-0.0019,0.0064,-0.0008,-0.20,0.56,0.18,0.010,-0.164,0.005,0.261
1,-0.0016,-0.0059,-0.0009,-0.10,0.56,0.18,0.010,-0.215,-0.076,0.100
2,-0.0016,-0.0059,-0.0009,-0.10,0.56,0.18,0.010,-0.228,0.005,0.108
2,-0.0016,0.0009,-0.0007,-0.16,0.56,0.18,0.010,-0.347,-0.040,-0.192
2,-0.0049,0.0121,-0.0008,-0.26,0.58,0.18,0.010,-0.042,0.105,-0.122
2,-0.0023,-0.0073,-0.0026,-0.11,0.56,0.18,0.010,0.085,-0.228,-0.058
2,0.0048,-0.0039,-0.0024,-0.14,0.50,0.18,0.010,-0.121,-0.502,-0.002
2,-0.0043,-0.0190,-0.0023,-0.02,0.58,0.18,0.010,0.042,0.304,0.066
2,-0.0051,-0.0152,-0.0022,-0.06,0.59,0.18,0.006,0.118,0.103,0.226
2,-0.0049,-0.0157,-0.0023,-0.06,0.59,0.18,0.006,0.039,-0.253,0.258
2,-0.0034,-0.0153,-0.0120,-0.07,0.58,0.18,0.006,-0.035,0.086,-0.181
2,-0.0019,-0.0493,-0.0126,0.21,0.56,0.18,0.006,-0.122,0.153,0.351
2,0.0020,-0.0585,-0.0130,0.26,0.53,0.18,0.006,-0.036,0.014,-0.135
2,0.0068,-0.0562,-0.0126,0.24,0.49,0.18,0.011,-0.257,0.052,-0.006
2,0.0033,-0.0587,-0.0126,0.25,0.52,0.18,0.011,0.080,-0.118,-0.315
2,0.0032,-0.0589,-0.0057,0.25,0.52,0.18,0.011,0.117,0.208,-0.042
3,0.0115,-0.0693,-0.0064,0.32,0.46,0.17,0.011,-0.173,-0.227,0.086
3,0.0077,-0.0561,-0.0046,0.21,0.49,0.18,0.011,0.120,0.351,0.006
3,0.0098,-0.0769,-0.0065,0.37,0.48,0.18,0.011,0.206,0.181,-0.150
3,0.0106,-0.0705,-0.0052,0.30,0.47,0.18,0.011,0.205,-0.008,-0.009
3,0.0103,-0.0691,-0.0003,0.28,0.47,0.18,0.011,-0.188,-0.022,0.020
3,0.0100,-0.0687,-0.0004,0.27,0.48,0.18,0.011,0.341,-0.217,-0.240
3,0.0097,-0.0706,-0.0004,0.28,0.48,0.18,0.011,0.064,-0.150,-0.032
3,0.0090,-0.0619,0.0012,0.19,0.49,0.17,0.011,0.039,-0.135,-0.252
3,0.0098,-0.0561,0.0019,0.13,0.49,0.17,0.012,-0.007,-0.049,0.125
3,0.0095,-0.0563,0.0059,0.13,0.49,0.17,0.012,0.020,0.351,0.042
3,0.0095,-0.0563,0.0059,0.13,0.49,0.17,0.012,-0.047,0.197,-0.028
3,0.0079,-0.0493,0.0062,0.07,0.50,0.17,0.012,0.098,-0.170,-0.205
3,0.0076,-0.0601,0.0056,0.14,0.50,0.17,0.013,0.066,-0.215,-0.004
3,0.0109,-0.0565,0.0062,0.11,0.48,0.17,0.013,0.063,-0.059,0.124
3,0.0130,-0.0812,0.0086,0.30,0.46,0.17,0.013,-0.100,-0.283,0.123
3,0.0121,-0.0824,0.0087,0.29,0.48,0.17,0.013,-0.057,0.074,0.144
3,0.0106,-0.0757,0.0098,0.22,0.49,0.17,0.013,0.107,-0.109,-0.148
3,0.0106,-0.0757,0.0098,0.22,0.49,0.17,0.013,-0.063,-0.039,0.228
3,0.0114,-0.0669,0.0110,0.14,0.49,0.17,0.010,-0.084,0.197,-0.083
3,0.0075,-0.0740,0.0044,0.20,0.52,0.18,0.010,0.161,-0.200,0.095
3,0.0155,-0.1366,-0.0025,0.69,0.46,0.18,0.010,-0.052,-0.259,-0.086
4,0.0197,-0.1667,-0.0097,0.91,0.43,0.18,0.010,0.022,-0.158,-0.383
4,0.0156,-0.1600,-0.0068,0.84,0.46,0.18,0.011,0.223,-0.236,-0.064
4,0.0149,-0.1494,-0.0026,0.73,0.47,0.18,0.011,-0.032,0.244,0.024
4,0.0177,-0.1434,0.0001,0.67,0.45,0.18,0.011,0.088,-0.041,-0.368
4,0.0181,-0.1378,0.0015,0.61,0.45,0.17,0.011,0.108,0.043,-0.032
4,0.0187,-0.1409,0.0014,0.62,0.45,0.18,0.011,0.085,0.210,-0.026
4,0.0160,-0.1317,0.0039,0.54,0.47,0.18,0.014,-0.026,0.220,0.142
4,0.0189,-0.1296,0.0046,0.51,0.45,0.17,0.014,0.147,-0.091,0.181
4,0.0182,-0.1259,0.0105,0.46,0.46,0.17,0.014,0.120,0.009,0.041
4,0.0197,-0.1327,0.0096,0.51,0.45,0.17,0.014,0.239,0.119,-0.325
4,0.0165,-0.1076,0.0145,0.29,0.47,0.17,0.014,0.082,-0.231,-0.235
4,0.0158,-0.1000,0.0159,0.23,0.48,0.17,0.014,-0.158,-0.157,0.250
4,0.0152,-0.1013,0.0160,0.23,0.48,0.17,0.014,0.120,0.189,0.057
4,0.0146,-0.0992,0.0158,0.20,0.49,0.17,0.014,-0.127,-0.087,0.395
4,0.0162,-0.0826,0.0175,0.06,0.48,0.17,0.014,0.091,-0.087,0.087
4,0.0123,-0.0667,0.0191,-0.07,0.51,0.17,0.014,-0.009,0.275,-0.352
4,0.0108,-0.0671,0.0193,-0.07,0.53,0.17,0.014,0.022,-0.085,0.045
4,0.0111,-0.0676,0.0192,-0.07,0.53,0.17,0.013,-0.051,-0.105,0.284
4,0.0144,-0.0838,0.0125,0.06,0.50,0.17,0.013,-0.129,-0.064,0.225
4,0.0186,-0.0739,0.0136,-0.03,0.47,0.16,0.013,0.033,0.072,0.155
4,0.0168,-0.1123,0.0099,0.27,0.49,0.17,0.013,0.102,-0.328,0.140
4,0.0160,-0.1095,0.0103,0.24,0.50,0.17,0.014,-0.022,0.079,-0.187
4,0.0153,-0.1067,0.0110,0.21,0.50,0.18,0.014,0.085,-0.081,0.073
4,0.0159,-0.1027,0.0097,0.17,0.50,0.18,0.014,0.113,-0.162,0.100
4,0.0140,-0.0957,0.0108,0.11,0.52,0.18,0.014,0.100,0.228,0.319
5,0.0133,-0.0902,0.0116,0.06,0.52,0.18,0.014,-0.080,-0.003,0.006
5,0.0135,-0.0908,0.0117,0.06,0.52,0.18,0.012,-0.355,-0.009,0.413
5,0.0140,-0.0863,0.0123,0.02,0.52,0.18,0.012,-0.044,0.181,0.028
5,0.0131,-0.0838,0.0049,-0.01,0.53,0.18,0.012,-0.120,0.218,0.112
5,0.0160,-0.0878,0.0046,0.02,0.50,0.18,0.012,-0.010,-0.090,-0.070
5,0.0127,-0.0701,0.0067,-0.13,0.53,0.18,0.012,-0.183,0.095,0.357
5,0.0107,-0.0664,0.0072,-0.16,0.54,0.18,0.009,-0.055,0.188,0.028
5,0.0089,-0.0630,0.0074,-0.19,0.56,0.19,0.009,-0.094,-0.117,0.237
5,0.0095,-0.0648,-0.0053,-0.18,0.55,0.19,0.009,-0.166,0.209,-0.124
5,0.0097,-0.0652,-0.0053,-0.18,0.55,0.19,0.009,0.251,-0.203,-0.450
5,0.0098,-0.0657,-0.0052,-0.18,0.55,0.19,0.009,-0.025,-0.034,-0.038
5,0.0081,-0.0567,-0.0044,-0.25,0.56,0.19,0.009,-0.053,-0.271,-0.164
5,0.0091,-0.0532,-0.0039,-0.28,0.55,0.18,0.011,0.069,0.083,-0.187
5,0.0086,-0.0447,-0.0063,-0.34,0.56,0.18,0.011,-0.139,-0.143,-0.015
5,0.0080,-0.0601,-0.0071,-0.23,0.56,0.18,0.011,-0.134,-0.208,0.048
5,0.0046,-0.0554,-0.0070,-0.26,0.58,0.18,0.011,0.115,0.049,0.078
5,0.0055,-0.0409,-0.0059,-0.38,0.58,0.18,0.010,-0.342,-0.008,0.632
5,0.0068,-0.0436,-0.0059,-0.36,0.57,0.18,0.010,0.262,-0.136,-0.142
5,0.0103,-0.0472,-0.0095,-0.33,0.54,0.18,0.010,-0.166,-0.314,-0.033
5,0.0072,-0.0385,-0.0089,-0.40,0.57,0.18,0.010,0.134,-0.108,-0.251
5,0.0073,-0.0386,-0.0090,-0.40,0.57,0.18,0.010,0.195,-0.062,-0.158
5,0.0055,-0.0361,-0.0089,-0.42,0.58,0.18,0.012,-0.154,0.100,0.122
5,0.0053,-0.0290,-0.0086,-0.48,0.59,0.18,0.012,0.122,0.036,-0.113
5,0.0075,-0.0311,-0.0051,-0.46,0.57,0.18,0.012,0.313,-0.067,-0.272
5,0.0047,-0.0242,-0.0047,-0.51,0.59,0.18,0.012,0.036,-0.099,0.106
6,0.0047,-0.0328,-0.0047,-0.44,0.59,0.18,0.012,-0.224,0.047,0.109
6,0.0033,-0.0282,-0.0044,-0.48,0.60,0.18,0.009,0.061,-0.120,-0.228
6,0.0035,-0.0281,-0.0043,-0.47,0.60,0.18,0.009,0.290,0.101,0.040
6,0.0021,-0.0248,-0.0086,-0.50,0.61,0.18,0.009,-0.020,-0.250,0.050
6,0.0020,-0.0255,-0.0086,-0.49,0.61,0.18,0.009,-0.013,0.153,-0.260
6,0.0018,-0.0254,-0.0085,-0.49,0.61,0.18,0.009,0.012,0.047,0.347
6,0.0040,-0.0153,-0.0081,-0.56,0.59,0.18,0.009,-0.011,0.158,-0.174
6,0.0026,-0.0144,-0.0082,-0.57,0.60,0.18,0.009,0.117,-0.026,0.057
6,0.0050,-0.0133,-0.0097,-0.58,0.58,0.18,0.009,-0.168,-0.214,0.056
6,0.0049,-0.0292,-0.0099,-0.45,0.59,0.18,0.009,0.121,0.157,-0.023
6,0.0012,-0.0182,-0.0094,-0.53,0.62,0.18,0.009,-0.316,0.063,0.210
6,0.0012,-0.0182,-0.0094,-0.53,0.62,0.18,0.008,-0.091,0.034,-0.201
6,0.0011,-0.0133,-0.0093,-0.57,0.62,0.18,0.008,-0.122,-0.152,-0.015
6,0.0010,-0.0078,-0.0116,-0.61,0.62,0.18,0.008,-0.186,0.120,0.351
6,0.0068,-0.0046,-0.0114,-0.64,0.57,0.18,0.008,-0.017,0.150,0.030
6,0.0019,-0.0120,-0.0112,-0.57,0.61,0.18,0.008,0.149,-0.280,0.093
6,0.0019,-0.0116,-0.0112,-0.58,0.61,0.18,0.007,0.005,-0.205,-0.037
6,0.0006,-0.0045,-0.0111,-0.63,0.62,0.18,0.007,-0.195,-0.136,0.021
6,0.0006,-0.0098,-0.0135,-0.58,0.62,0.18,0.007,0.081,-0.100,-0.098
6,0.0066,-0.0063,-0.0134,-0.61,0.57,0.18,0.007,0.094,0.003,0.021
6,-0.0007,-0.0080,-0.0133,-0.59,0.63,0.18,0.007,-0.290,-0.068,-0.010
6,0.0019,-0.0060,-0.0132,-0.60,0.61,0.18,0.010,0.263,-0.201,-0.154
6,-0.0004,-0.0053,-0.0133,-0.60,0.63,0.18,0.010,-0.124,-0.074,-0.101
6,0.0031,0.0012,-0.0069,-0.65,0.60,0.18,0.010,-0.076,0.211,-0.016
6,0.0053,-0.0104,-0.0070,-0.56,0.58,0.18,0.010,-0.151,-0.022,0.054
7,0.0015,-0.0040,-0.0070,-0.61,0.61,0.18,0.010,0.000,-0.256,-0.217
7,0.0017,-0.0038,-0.0071,-0.61,0.61,0.18,0.012,0.191,0.074,0.077
7,0.0016,0.0016,-0.0070,-0.65,0.61,0.18,0.012,-0.012,-0.081,0.123
7,0.0037,0.0351,0.0017,-0.91,0.59,0.18,0.012,-0.010,-0.255,0.469
7,0.0083,0.0171,0.0025,-0.76,0.56,0.19,0.012,0.214,0.138,-0.291
7,0.0029,0.0411,0.0019,-0.94,0.60,0.18,0.012,-0.085,0.036,0.153
7,0.0029,0.0446,0.0017,-0.96,0.60,0.19,0.010,0.365,0.030,-0.146
7,0.0031,0.0457,0.0018,-0.96,0.60,0.19,0.010,0.002,0.200,-0.387
7,0.0030,0.0389,0.0032,-0.89,0.60,0.19,0.010,0.125,0.180,0.256
7,-0.0008,0.0690,0.0014,-1.12,0.63,0.19,0.010,-0.138,-0.127,-0.147
7,0.0029,0.1003,-0.0020,-1.35,0.60,0.19,0.010,-0.094,0.149,0.006
7,0.0027,0.0919,-0.0002,-1.27,0.60,0.19,0.012,-0.035,0.063,0.109
7,0.0036,0.0978,-0.0009,-1.30,0.59,0.19,0.012,-0.094,-0.086,0.220
7,0.0085,0.0975,0.0053,-1.29,0.55,0.20,0.012,0.047,-0.048,0.020
7,-0.0029,0.1227,0.0022,-1.47,0.64,0.19,0.012,-0.095,0.098,0.015
7,-0.0078,0.1501,-0.0027,-1.67,0.68,0.19,0.012,0.059,0.253,0.155
7,-0.0074,0.1497,-0.0023,-1.64,0.67,0.19,0.013,0.048,0.087,-0.124
7,-0.0070,0.1338,0.0024,-1.50,0.67,0.19,0.013,0.098,-0.142,-0.120
7,-0.0055,0.1288,0.0098,-1.44,0.65,0.19,0.013,-0.013,-0.162,0.164
7,-0.0042,0.1233,0.0109,-1.38,0.64,0.19,0.013,0.085,-0.211,-0.330
7,-0.0065,0.1216,0.0114,-1.35,0.66,0.19,0.013,-0.153,0.160,0.062
7,-0.0051,0.1133,0.0131,-1.27,0.65,0.19,0.012,-0.387,-0.061,0.085
7,-0.0024,0.1131,0.0133,-1.25,0.63,0.19,0.012,-0.071,-0.119,0.053
7,-0.0024,0.1145,0.0115,-1.25,0.63,0.19,0.012,-0.113,-0.142,0.001
7,-0.0068,0.1030,0.0133,-1.15,0.66,0.18,0.012,-0.035,-0.054,0.050
8,-0.0069,0.1044,0.0132,-1.15,0.66,0.18,0.012,0.194,-0.118,-0.172
8,-0.0052,0.0930,0.0150,-1.05,0.65,0.19,0.011,0.305,-0.030,-0.116
8,-0.0055,0.0941,0.0149,-1.05,0.65,0.19,0.011,-0.106,0.048,0.249
8,-0.0053,0.0857,0.0100,-0.97,0.64,0.18,0.011,-0.206,0.286,0.287
8,-0.0055,0.0866,0.0102,-0.97,0.64,0.18,0.011,0.095,0.018,-0.313
8,-0.0056,0.0875,0.0103,-0.97,0.64,0.18,0.011,0.199,-0.123,-0.076
8,-0.0054,0.0885,0.0103,-0.97,0.64,0.18,0.010,-0.150,0.011,0.329
8,-0.0049,0.0863,0.0108,-0.94,0.64,0.18,0.010,-0.166,-0.031,-0.029
8,-0.0050,0.0864,0.0036,-0.94,0.64,0.18,0.010,-0.009,0.119,0.532
8,-0.0047,0.0792,0.0043,-0.88,0.64,0.18,0.010,-0.085,-0.143,-0.010
8,-0.0048,0.0800,0.0043,-0.88,0.64,0.18,0.010,-0.071,0.190,-0.216
8,-0.0043,0.0646,0.0060,-0.75,0.63,0.18,0.010,0.105,-0.090,0.012
8,-0.0045,0.0652,0.0060,-0.75,0.63,0.18,0.010,0.270,-0.102,-0.123
8,-0.0037,0.0572,0.0015,-0.68,0.62,0.18,0.010,-0.069,0.313,0.285
8,-0.0037,0.0577,0.0015,-0.68,0.62,0.18,0.010,0.050,0.157,0.308
8,-0.0045,0.0585,0.0016,-0.68,0.63,0.18,0.010,0.023,0.090,-0.156
8,-0.0044,0.0590,0.0017,-0.68,0.62,0.18,0.009,-0.023,-0.113,-0.013
8,-0.0014,0.0686,0.0012,-0.75,0.60,0.19,0.009,0.175,-0.023,-0.192
8,-0.0012,0.0687,-0.0045,-0.75,0.60,0.19,0.009,0.069,-0.266,0.169
8,-0.0013,0.0686,-0.0047,-0.75,0.60,0.19,0.009,0.311,0.015,0.144
8,-0.0012,0.0693,-0.0050,-0.74,0.60,0.18,0.009,0.130,-0.047,-0.140
8,0.0015,0.0273,-0.0018,-0.40,0.58,0.18,0.013,0.136,-0.052,0.119
8,0.0017,0.0273,-0.0019,-0.40,0.58,0.18,0.013,0.238,0.212,-0.018
8,0.0005,0.0246,0.0028,-0.38,0.59,0.18,0.013,-0.009,-0.133,-0.162
9,0.0006,0.0246,0.0028,-0.38,0.59,0.18,0.013,-0.096,-0.016,-0.058
9,-0.0006,0.0212,0.0028,-0.35,0.60,0.18,0.013,-0.027,0.271,0.155
9,-0.0007,0.0214,0.0029,-0.35,0.60,0.18,0.012,0.110,0.055,-0.142
9,-0.0007,0.0216,0.0033,-0.35,0.60,0.18,0.012,-0.014,-0.085,-0.139
9,0.0007,0.0191,0.0040,-0.33,0.59,0.18,0.012,0.017,0.082,0.041
9,0.0069,-0.0054,0.0045,-0.13,0.54,0.18,0.012,-0.111,0.028,0.114
9,0.0030,-0.0106,0.0045,-0.10,0.57,0.18,0.012,-0.146,0.018,0.051
9,0.0030,-0.0129,0.0045,-0.08,0.57,0.18,0.013,0.082,-0.070,0.048
9,0.0031,-0.0151,0.0042,-0.07,0.57,0.18,0.013,-0.192,0.042,0.247
9,0.0068,-0.0442,0.0054,0.15,0.54,0.18,0.013,-0.167,0.092,0.055
9,0.0090,-0.0425,0.0055,0.13,0.53,0.18,0.013,-0.018,0.066,0.103
9,0.0073,-0.0409,0.0058,0.10,0.54,0.18,0.013,0.067,0.361,0.263
9,0.0071,-0.0418,0.0056,0.10,0.54,0.18,0.009,0.069,-0.013,-0.122
9,0.0069,-0.0340,0.0063,0.04,0.54,0.19,0.009,0.034,0.118,0.134
9,0.0067,-0.0387,-0.0027,0.07,0.54,0.19,0.009,0.046,-0.113,-0.175
9,0.0017,-0.0325,-0.0021,0.02,0.58,0.19,0.009,-0.014,-0.239,-0.015
10,0.0052,-0.0347,-0.0023,0.03,0.55,0.18,0.009,-0.011,0.358,-0.175
10,0.0054,-0.0354,-0.0025,0.03,0.55,0.18,0.010,-0.111,-0.052,0.287
10,0.0065,-0.0341,-0.0025,0.02,0.54,0.18,0.010,-0.064,-0.268,-0.124
10,0.0067,-0.0345,-0.0049,0.02,0.54,0.18,0.010,0.207,-0.128,-0.255
10,0.0103,-0.0316,-0.0047,-0.01,0.51,0.18,0.010,-0.233,0.069,0.119
10,0.0060,-0.0326,-0.0046,-0.01,0.55,0.19,0.010,-0.210,0.243,0.105
10,0.0044,-0.0250,-0.0041,-0.07,0.56,0.18,0.012,-0.039,0.137,-0.172
10,0.0067,-0.0339,-0.0043,-0.01,0.54,0.18,0.012,0.086,-0.022,-0.109
10,0.0088,-0.0338,-0.0005,-0.01,0.53,0.18,0.012,-0.015,0.008,-0.190
10,0.0072,-0.0128,0.0003,-0.18,0.54,0.18,0.012,-0.116,-0.101,0.109
10,0.0057,-0.0222,0.0003,-0.11,0.55,0.18,0.012,0.064,-0.039,0.042
10,0.0054,-0.0238,0.0001,-0.10,0.55,0.18,0.007,-0.150,-0.159,0.077
10,0.0030,-0.0289,-0.0001,-0.07,0.58,0.18,0.007,0.203,0.080,0.096
10,0.0054,-0.0228,-0.0090,-0.12,0.56,0.18,0.007,0.056,-0.396,-0.169
10,0.0052,-0.0325,-0.0092,-0.05,0.56,0.19,0.007,-0.166,0.150,0.016
10,0.0051,-0.0161,-0.0085,-0.18,0.56,0.19,0.007,0.002,-0.070,-0.065
11,0.0049,-0.0250,-0.0086,-0.11,0.56,0.18,0.011,0.104,-0.010,0.186
11,0.0024,-0.0196,-0.0083,-0.16,0.58,0.19,0.011,-0.243,-0.171,0.275
11,0.0021,-0.0131,-0.0040,-0.22,0.59,0.19,0.011,0.014,-0.114,-0.162
11,-0.0053,0.0547,-0.0044,-0.76,0.64,0.19,0.011,0.113,0.023,-0.078
11,-0.0108,0.0663,-0.0058,-0.85,0.69,0.20,0.011,-0.218,0.087,0.250
11,-0.0092,0.0691,-0.0063,-0.86,0.67,0.19,0.010,0.106,0.151,0.075
11,-0.0099,0.0647,-0.0056,-0.82,0.68,0.19,0.010,0.178,0.253,-0.126
11,-0.0085,0.0619,-0.0044,-0.79,0.66,0.19,0.010,-0.439,-0.051,0.034
11,-0.0103,0.0650,-0.0048,-0.81,0.67,0.19,0.010,-0.223,0.209,0.053
11,-0.0086,0.0621,-0.0044,-0.78,0.66,0.19,0.010,-0.149,-0.012,0.006
11,-0.0082,0.0572,-0.0036,-0.74,0.66,0.19,0.010,0.095,-0.115,0.236
11,-0.0067,0.0526,-0.0029,-0.69,0.64,0.19,0.010,0.148,0.049,0.025
11,-0.0018,0.0504,-0.0022,-0.67,0.60,0.19,0.010,-0.023,-0.357,-0.083
11,-0.0038,0.0515,-0.0021,-0.67,0.62,0.19,0.010,0.094,-0.021,-0.099
11,-0.0046,0.0504,-0.0018,-0.66,0.63,0.19,0.010,-0.121,0.267,0.021
11,-0.0066,0.0435,-0.0011,-0.60,0.64,0.19,0.012,0.103,0.030,-0.164
11,-0.0066,0.0440,-0.0012,-0.60,0.64,0.19,0.012,-0.006,-0.006,0.048
11,-0.0064,0.0455,0.0028,-0.61,0.64,0.19,0.012,-0.059,-0.129,-0.015
12,-0.0061,0.0408,0.0030,-0.57,0.63,0.19,0.012,-0.094,0.058,-0.038
12,-0.0059,0.0424,0.0031,-0.58,0.63,0.19,0.012,0.135,0.385,-0.134
12,-0.0045,0.0404,0.0033,-0.56,0.62,0.19,0.009,-0.212,-0.486,0.008
12,-0.0054,0.0359,0.0033,-0.52,0.63,0.19,0.009,0.245,-0.039,-0.027
12,-0.0016,0.0079,-0.0008,-0.30,0.59,0.19,0.009,-0.193,-0.074,-0.022
12,-0.0015,0.0012,-0.0010,-0.25,0.59,0.19,0.009,0.011,-0.156,0.005
12,-0.0048,-0.0221,-0.0014,-0.07,0.62,0.18,0.009,0.127,0.201,0.028
12,-0.0035,-0.0167,-0.0008,-0.12,0.61,0.18,0.010,-0.089,-0.170,0.216
12,0.0002,-0.0212,-0.0010,-0.08,0.58,0.18,0.010,0.005,-0.404,-0.057
12,0.0003,-0.0228,-0.0013,-0.07,0.58,0.18,0.010,0.044,-0.094,0.056
12,-0.0089,-0.0386,-0.0019,0.04,0.65,0.18,0.010,0.224,-0.195,-0.241
12,-0.0158,-0.0432,-0.0025,0.07,0.70,0.19,0.010,-0.036,0.250,0.073
12,-0.0140,-0.0415,-0.0023,0.05,0.69,0.18,0.014,-0.158,-0.326,-0.126
12,-0.0109,-0.0689,-0.0046,0.26,0.66,0.18,0.014,-0.114,-0.102,0.013
12,-0.0059,-0.0743,0.0060,0.29,0.62,0.18,0.014,0.114,-0.152,-0.104
12,-0.0052,-0.1238,-0.0008,0.68,0.62,0.17,0.014,-0.304,-0.198,0.074
12,-0.0052,-0.1256,-0.0007,0.67,0.62,0.17,0.014,-0.168,-0.125,-0.031
12,-0.0058,-0.1138,0.0028,0.56,0.62,0.18,0.009,0.130,-0.006,-0.204
12,-0.0059,-0.1155,0.0029,0.56,0.62,0.18,0.009,0.085,-0.099,0.119
12,-0.0044,-0.1105,-0.0003,0.51,0.61,0.17,0.009,-0.147,-0.333,-0.153
12,-0.0042,-0.1014,0.0010,0.43,0.61,0.18,0.009,-0.121,-0.132,0.105
12,-0.0040,-0.1027,0.0010,0.43,0.61,0.18,0.009,0.041,0.356,0.039
12,-0.0040,-0.1038,0.0012,0.43,0.61,0.18,0.009,-0.026,-0.199,0.439
12,-0.0024,-0.0991,0.0024,0.37,0.60,0.17,0.009,0.061,0.080,-0.080
12,0.0016,-0.0955,-0.0011,0.34,0.56,0.17,0.009,0.069,-0.197,-0.101
12,-0.0046,-0.0912,-0.0005,0.29,0.61,0.18,0.009,-0.170,0.293,0.099
12,-0.0046,-0.0923,-0.0005,0.29,0.61,0.18,0.009,-0.050,-0.168,-0.052
13,-0.0030,-0.0864,0.0004,0.24,0.60,0.17,0.011,-0.212,-0.295,0.184
13,-0.0028,-0.0871,0.0003,0.23,0.60,0.18,0.011,-0.109,0.210,0.217
13,-0.0027,-0.0845,0.0020,0.20,0.60,0.18,0.011,0.129,-0.210,-0.238
13,-0.0001,-0.0844,0.0022,0.19,0.58,0.17,0.011,0.075,0.029,0.056
13,-0.0014,-0.0758,0.0031,0.11,0.59,0.18,0.011,0.030,-0.264,-0.012
13,-0.0011,-0.0772,0.0030,0.11,0.59,0.17,0.007,-0.118,-0.118,-0.154
13,-0.0010,-0.0638,0.0045,-0.00,0.59,0.17,0.007,-0.073,-0.180,-0.010
13,0.0027,-0.0624,-0.0050,-0.01,0.56,0.17,0.007,0.155,0.144,0.214
13,0.0049,-0.0570,-0.0045,-0.06,0.54,0.17,0.007,-0.185,-0.290,0.091
13,-0.0025,-0.0541,-0.0041,-0.09,0.60,0.17,0.007,0.060,-0.075,-0.147
13,-0.0011,-0.0551,-0.0043,-0.08,0.59,0.17,0.012,-0.234,-0.006,0.269
13,-0.0012,-0.0561,-0.0045,-0.08,0.59,0.18,0.012,0.100,0.105,0.290
13,-0.0014,-0.0570,0.0010,-0.08,0.59,0.18,0.012,0.101,0.131,-0.071
13,-0.0112,-0.0714,-0.0003,0.03,0.67,0.19,0.012,-0.059,-0.421,-0.025
13,-0.0069,-0.0824,-0.0016,0.11,0.63,0.18,0.012,-0.169,0.246,-0.062
13,-0.0100,-0.0772,-0.0009,0.06,0.66,0.19,0.011,0.131,0.176,-0.083
13,-0.0106,-0.1044,-0.0041,0.28,0.66,0.19,0.011,-0.306,0.234,0.293
13,-0.0077,-0.0946,0.0003,0.19,0.64,0.18,0.011,0.042,0.097,0.072
13,-0.0096,-0.0994,-0.0001,0.22,0.65,0.19,0.011,-0.187,0.241,0.339
13,-0.0091,-0.0863,0.0019,0.11,0.65,0.19,0.011,-0.003,-0.134,0.004
13,-0.0085,-0.0905,0.0017,0.13,0.64,0.18,0.010,-0.306,0.185,-0.226
13,-0.0079,-0.0768,0.0040,0.02,0.63,0.19,0.010,-0.015,-0.013,0.195
13,-0.0072,-0.0790,0.0019,0.03,0.63,0.18,0.010,0.037,0.093,0.116
13,-0.0032,-0.0694,0.0028,-0.06,0.60,0.18,0.010,-0.134,0.139,0.179
13,-0.0091,-0.0755,0.0021,-0.01,0.64,0.18,0.010,0.076,0.095,-0.069
13,-0.0075,-0.0695,0.0028,-0.07,0.63,0.18,0.010,0.166,-0.018,-0.023
13,-0.0058,-0.0684,0.0031,-0.08,0.61,0.18,0.010,-0.259,0.119,0.062
13,-0.0088,-0.0600,0.0016,-0.14,0.63,0.19,0.010,0.242,0.054,0.303
13,-0.0010,-0.0594,0.0017,-0.15,0.57,0.18,0.010,0.100,-0.190,-0.122
13,-0.0066,-0.0530,0.0022,-0.21,0.62,0.18,0.010,-0.130,0.017,0.033
13,-0.0026,-0.0561,0.0021,-0.18,0.59,0.18,0.012,0.215,0.070,-0.090
13,-0.0038,-0.0519,0.0027,-0.22,0.60,0.18,0.012,-0.061,-0.156,0.086
13,-0.0023,-0.0505,0.0055,-0.23,0.59,0.18,0.012,-0.072,0.062,-0.193
13,0.0016,-0.0480,0.0056,-0.25,0.56,0.18,0.012,-0.017,-0.157,-0.163
14,-0.0021,-0.0433,0.0059,-0.29,0.59,0.18,0.012,0.027,-0.127,-0.031
14,-0.0022,-0.0387,0.0060,-0.33,0.59,0.18,0.012,0.075,-0.003,-0.162
14,-0.0033,-0.0367,0.0061,-0.34,0.60,0.18,0.012,-0.114,0.159,0.033
14,-0.0008,-0.0176,0.0074,-0.50,0.58,0.18,0.012,0.098,-0.208,0.140
14,-0.0051,-0.0323,0.0071,-0.38,0.61,0.18,0.012,-0.016,-0.462,0.128
14,-0.0035,-0.0431,0.0065,-0.29,0.60,0.18,0.012,0.006,-0.043,0.040
14,0.0012,-0.0478,0.0057,-0.25,0.56,0.18,0.009,0.091,0.148,0.005
14,0.0000,0.0000,0.0000,0.00,0.00,0.00,0.009,0.093,0.294,-0.077
14,0.0091,0.0130,0.0000,0.00,0.00,-0.00,0.009,-0.396,-0.282,0.342
14,0.0108,0.0114,-0.0000,0.00,0.00,-0.00,0.009,0.123,0.142,-0.094
14,0.0077,0.0087,-0.0001,0.02,0.04,-0.00,0.009,-0.139,-0.113,0.319
14,0.0106,0.0051,-0.0002,0.06,0.02,0.00,0.009,0.263,0.049,0.128
14,0.0112,0.0052,-0.0003,0.04,0.03,0.00,0.013,0.169,0.075,0.064
14,0.0191,0.0004,0.0021,0.14,-0.13,0.00,0.013,-0.150,-0.190,-0.096
14,0.0178,-0.0348,0.0017,0.99,-0.07,0.00,0.013,-0.001,-0.083,-0.082
14,0.0123,-0.0205,0.0025,0.55,0.11,0.00,0.013,0.028,0.322,-0.009
14,0.0125,0.0031,0.0029,-0.14,0.14,0.00,0.013,0.084,-0.111,0.378
14,0.0093,0.0103,0.0028,-0.35,0.25,0.00,0.013,-0.306,0.197,0.305
14,0.0108,-0.0050,0.0045,0.09,0.23,0.00,0.013,-0.044,0.107,-0.250
14,0.0104,-0.0004,0.0043,-0.07,0.25,0.00,0.013,-0.225,0.166,0.048
14,0.0101,0.0027,0.0044,-0.17,0.27,0.00,0.013,0.107,0.167,0.304
14,0.0062,0.0022,0.0048,-0.16,0.39,0.00,0.013,-0.122,0.301,0.398
14,0.0061,0.0036,0.0050,-0.21,0.41,0.00,0.011,0.009,0.019,0.046
14,0.0042,0.0031,0.0023,-0.20,0.47,0.01,0.011,-0.333,0.234,0.161
14,0.0367,-0.0610,0.0004,1.49,-0.39,0.01,0.011,-0.018,-0.005,0.115
14,0.0329,-0.0566,0.0011,1.29,-0.25,0.01,0.011,0.067,-0.283,-0.414
14,0.0312,-0.0914,-0.0025,2.10,-0.17,0.01,0.008,-0.145,-0.076,-0.101
14,0.0256,-0.0851,-0.0008,1.83,0.00,0.00,0.008,0.135,0.212,-0.285
14,0.0241,-0.0825,-0.0084,1.68,0.06,0.00,0.008,-0.168,0.204,0.159
14,0.0286,-0.0783,-0.0076,1.49,-0.02,0.00,0.008,0.139,-0.007,-0.108
14,0.0189,-0.0718,-0.0063,1.27,0.22,-0.00,0.008,-0.035,-0.125,0.063
14,0.0217,-0.0737,-0.0062,1.25,0.17,-0.00,0.008,0.034,0.321,-0.071
14,0.0184,-0.0635,-0.0051,0.96,0.26,-0.00,0.011,-0.158,-0.159,-0.116
14,0.0174,-0.0161,-0.0024,-0.10,0.30,0.00,0.011,-0.304,0.029,0.009
15,0.0181,-0.0030,-0.0027,-0.38,0.29,0.01,0.011,-0.151,0.051,0.339
15,0.0287,0.0248,-0.0041,-0.95,0.09,0.01,0.011,0.027,-0.067,-0.127
15,0.0270,0.0176,-0.0035,-0.79,0.14,0.01,0.011,0.044,-0.003,-0.201
15,0.0256,0.0150,-0.0032,-0.72,0.19,0.01,0.011,-0.033,-0.219,-0.044
15,0.0238,0.0200,-0.0032,-0.80,0.23,0.01,0.011,-0.030,-0.199,-0.008
15,0.0163,0.0226,-0.0034,-0.84,0.38,0.01,0.011,-0.007,-0.298,-0.252
15,0.0226,0.0135,-0.0028,-0.66,0.27,0.01,0.011,-0.024,0.248,0.124
15,0.0193,0.0166,-0.0029,-0.71,0.34,0.01,0.011,0.282,-0.219,-0.088
15,0.0198,0.0173,-0.0029,-0.71,0.34,0.01,0.011,0.010,-0.099,0.160
15,0.0124,-0.0214,-0.0013,-0.04,0.47,0.01,0.011,-0.029,0.046,0.118
15,0.0056,-0.0122,-0.0010,-0.20,0.59,0.01,0.011,0.058,0.237,0.041
15,0.0129,-0.0398,-0.0013,0.24,0.47,0.01,0.011,0.038,0.018,-0.143
15,0.0126,-0.0337,-0.0006,0.12,0.48,0.01,0.009,-0.048,-0.240,-0.056
15,0.0129,-0.0347,-0.0006,0.12,0.48,0.01,0.009,-0.097,0.104,-0.019
15,0.0130,-0.0356,-0.0053,0.12,0.48,0.01,0.009,-0.048,-0.102,-0.083
15,0.0122,-0.0409,-0.0055,0.19,0.50,0.01,0.009,-0.063,0.049,0.213
15,0.0113,-0.0324,-0.0050,0.05,0.51,0.01,0.009,0.072,0.013,-0.189
15,0.0114,-0.0333,-0.0049,0.04,0.51,0.01,0.010,0.100,-0.207,0.185
15,0.0116,-0.0341,-0.0050,0.04,0.51,0.01,0.010,0.026,0.107,0.072
15,0.0126,-0.0091,-0.0044,-0.32,0.50,0.01,0.010,0.255,-0.042,-0.206
15,0.0055,-0.0203,-0.0044,-0.17,0.60,0.01,0.010,0.072,0.112,0.270
15,0.0068,-0.0264,-0.0046,-0.09,0.58,0.01,0.010,-0.018,0.105,0.424
15,0.0045,-0.0154,-0.0043,-0.24,0.61,0.01,0.010,0.096,0.064,-0.034
15,0.0060,-0.0180,-0.0042,-0.21,0.59,0.01,0.010,-0.134,-0.207,0.162
20,0.0055,-0.0151,-0.0041,-0.26,0.60,0.01,0.010,0.074,-0.223,0.305
30,0.0050,-0.0226,-0.0043,-0.16,0.60,0.01,0.010,-0.128,0.018,0.061
41,0.0051,-0.0227,-0.0042,-0.16,0.60,0.01,0.010,0.019,0.185,-0.081
51,0.0050,-0.0229,-0.0043,-0.16,0.60,0.01,0.010,0.016,-0.300,-0.131
60,0.0044,-0.0117,-0.0042,-0.31,0.61,0.01,0.012,-0.068,0.204,-0.020
71,0.0112,-0.0127,0.0010,-0.30,0.52,0.01,0.012,0.167,-0.047,0.103
81,-0.0057,0.0466,0.0007,-1.01,0.72,0.03,0.012,0.160,-0.085,0.078
90,-0.0071,0.0541,0.0002,-1.09,0.74,0.03,0.012,0.054,0.065,0.013
100,0.0033,0.0075,0.0045,-0.52,0.61,0.01,0.008,-0.016,-0.169,-0.063
111,0.0029,0.0005,0.0047,-0.44,0.62,0.01,0.008,-0.115,-0.301,0.093
120,0.0028,0.0006,-0.0027,-0.44,0.62,0.01,0.008,-0.074,0.241,0.284
130,0.0109,0.0245,-0.0028,-0.71,0.53,0.02,0.008,0.024,0.232,-0.253
140,0.0066,0.0065,-0.0020,-0.50,0.57,0.02,0.008,-0.239,-0.020,0.383
151,0.0029,0.0061,-0.0020,-0.49,0.61,0.02,0.013,-0.128,0.034,0.160
161,-0.0007,0.0105,-0.0019,-0.54,0.65,0.02,0.013,0.078,-0.063,0.200
171,0.0085,0.0365,0.0042,-0.82,0.55,0.03,0.013,-0.238,0.126,-0.003
180,-0.0042,0.0438,0.0039,-0.89,0.68,0.03,0.013,0.035,0.034,-0.171
190,-0.0069,0.0671,0.0023,-1.12,0.71,0.03,0.013,-0.250,-0.099,0.328
200,-0.0081,0.0653,0.0025,-1.09,0.72,0.03,0.009,0.282,0.120,-0.183
210,-0.0078,0.0678,0.0026,-1.10,0.71,0.04,0.009,-0.202,-0.059,-0.079
221,-0.0060,0.0641,-0.0015,-1.05,0.69,0.04,0.009,-0.226,-0.066,0.174
230,-0.0043,0.0580,-0.0009,-0.98,0.67,0.03,0.009,0.164,-0.035,-0.239
241,-0.0056,0.0564,-0.0007,-0.95,0.68,0.03,0.009,0.011,0.019,-0.088
251,-0.0054,0.0479,0.0001,-0.86,0.68,0.03,0.014,-0.257,-0.088,0.466
260,-0.0037,0.0414,0.0005,-0.79,0.66,0.03,0.014,-0.062,0.005,0.055
270,-0.0022,0.0507,0.0080,-0.87,0.65,0.03,0.014,-0.174,-0.032,0.290
282,-0.0104,0.0726,0.0070,-1.07,0.72,0.03,0.014,0.054,0.410,-0.190
291,-0.0060,0.0636,0.0082,-0.98,0.68,0.03,0.014,0.058,0.048,0.139
300,-0.0098,0.0631,0.0084,-0.96,0.71,0.03,0.009,0.026,0.252,0.098
311,-0.0065,0.0408,0.0105,-0.75,0.68,0.03,0.009,-0.014,-0.063,0.221
322,-0.0062,0.0261,0.0031,-0.61,0.67,0.03,0.009,-0.046,-0.214,0.148
331,-0.0046,0.0353,0.0030,-0.69,0.66,0.03,0.009,0.073,0.137,0.114
341,-0.0043,0.0296,0.0033,-0.63,0.65,0.03,0.009,0.086,0.089,0.095
350,-0.0039,0.0308,0.0034,-0.64,0.65,0.03,0.012,0.058,-0.119,0.048
360,-0.0024,0.0243,0.0036,-0.57,0.64,0.03,0.012,-0.064,-0.066,0.004
370,0.0039,0.0193,0.0048,-0.53,0.58,0.03,0.012,-0.079,-0.010,-0.170
380,0.0037,0.0132,0.0049,-0.47,0.58,0.03,0.012,0.005,-0.182,-0.101
390,-0.0002,0.0177,0.0049,-0.50,0.61,0.03,0.012,-0.229,-0.082,0.210
400,-0.0001,0.0243,0.0047,-0.56,0.62,0.03,0.011,-0.025,-0.111,0.097
411,-0.0024,0.0205,0.0049,-0.53,0.64,0.03,0.011,0.138,0.088,-0.019
420,-0.0012,0.0195,0.0030,-0.52,0.62,0.03,0.011,0.047,0.153,-0.256
431,-0.0024,0.0140,0.0033,-0.46,0.64,0.03,0.011,0.107,0.153,-0.298
440,-0.0022,0.0218,0.0031,-0.53,0.63,0.03,0.011,-0.197,-0.012,0.233
450,-0.0021,0.0220,0.0030,-0.53,0.63,0.03,0.014,-0.203,-0.114,-0.013
460,-0.0020,0.0223,0.0029,-0.53,0.63,0.03,0.014,-0.235,0.124,0.257
470,-0.0004,0.0162,0.0082,-0.47,0.62,0.03,0.014,-0.013,-0.008,0.140
480,-0.0003,0.0026,0.0085,-0.35,0.62,0.03,0.014,-0.058,0.081,-0.028
491,0.0000,0.0026,0.0084,-0.35,0.62,0.03,0.014,-0.076,-0.229,0.209
500,0.0042,0.0051,0.0083,-0.37,0.58,0.03,0.009,0.071,-0.261,-0.032
511,0.0013,-0.0042,0.0085,-0.29,0.60,0.03,0.009,0.054,0.234,0.360
520,0.0013,-0.0276,-0.0004,-0.09,0.61,0.03,0.009,0.082,0.058,0.206
530,0.0024,-0.0314,-0.0006,-0.06,0.59,0.03,0.009,-0.090,-0.115,0.224
540,-0.0002,-0.0248,-0.0003,-0.12,0.62,0.03,0.009,-0.091,0.077,0.037
550,-0.0003,-0.0287,-0.0004,-0.09,0.62,0.03,0.009,0.083,0.099,-0.037
560,-0.0003,-0.0288,-0.0002,-0.09,0.62,0.03,0.014,-0.237,-0.290,-0.067
570,0.0045,-0.0610,0.0045,0.19,0.57,0.02,0.014,-0.118,-0.122,0.161
581,0.0043,-0.0819,0.0026,0.36,0.57,0.02,0.014,-0.109,-0.076,0.123
590,-0.0045,-0.0660,0.0048,0.21,0.65,0.02,0.014,-0.144,-0.233,0.262
600,-0.0032,-0.0487,0.0069,0.05,0.64,0.02,0.009,-0.198,0.117,-0.138
610,-0.0033,-0.0516,0.0068,0.07,0.63,0.03,0.009,-0.169,0.184,-0.033
620,-0.0067,-0.0442,-0.0009,-0.00,0.66,0.03,0.009,-0.257,0.032,0.132
630,-0.0067,-0.0450,-0.0008,-0.00,0.66,0.03,0.009,0.029,0.059,0.125
640,-0.0025,-0.0430,-0.0006,-0.03,0.63,0.03,0.009,0.447,0.123,-0.027
650,-0.0036,-0.0409,-0.0006,-0.05,0.63,0.03,0.012,-0.172,-0.060,0.230
660,-0.0033,-0.0427,-0.0008,-0.04,0.63,0.03,0.012,-0.223,-0.052,0.289
670,0.0031,-0.0422,0.0005,-0.05,0.58,0.03,0.012,0.003,0.025,0.247
680,0.0043,-0.0377,0.0007,-0.09,0.57,0.03,0.012,-0.476,-0.251,0.114
690,-0.0176,-0.0211,0.0014,-0.23,0.75,0.04,0.012,-0.098,0.017,-0.020
700,-0.0154,-0.0311,0.0014,-0.15,0.74,0.04,0.011,0.071,-0.095,0.023
710,-0.0124,-0.0344,0.0015,-0.13,0.71,0.04,0.011,-0.155,-0.149,0.028
720,-0.0126,-0.0347,-0.0001,-0.13,0.71,0.04,0.011,0.062,-0.130,-0.087
730,-0.0018,-0.0624,-0.0006,0.10,0.62,0.03,0.011,0.109,-0.086,-0.314
740,-0.0132,-0.0403,0.0014,-0.09,0.71,0.04,0.011,-0.025,-0.004,0.011
750,-0.0138,-0.0256,0.0022,-0.21,0.71,0.04,0.009,-0.021,-0.063,0.091
760,-0.0140,-0.0258,0.0021,-0.21,0.71,0.04,0.009,0.063,-0.100,-0.257
770,-0.0158,-0.0429,-0.0050,-0.08,0.73,0.04,0.009,-0.355,0.112,0.214
780,-0.0149,-0.0208,-0.0038,-0.25,0.72,0.04,0.009,-0.160,-0.131,-0.075
790,-0.0113,-0.0277,-0.0038,-0.20,0.69,0.04,0.009,-0.012,0.129,0.036
800,-0.0107,-0.0237,-0.0035,-0.24,0.69,0.04,0.012,0.165,-0.166,-0.258
810,-0.0102,-0.0238,-0.0033,-0.24,0.68,0.04,0.012,-0.140,-0.130,0.202
820,-0.0098,-0.0187,-0.0002,-0.28,0.68,0.05,0.012,-0.109,0.062,0.077
830,-0.0079,-0.0228,-0.0000,-0.25,0.66,0.04,0.012,-0.158,-0.157,-0.073
840,-0.0074,-0.0190,0.0001,-0.28,0.66,0.05,0.012,0.168,0.006,0.195
849,-0.0067,-0.0166,0.0001,-0.30,0.66,0.05,0.012,0.135,-0.214,-0.257
860,-0.0062,-0.0194,-0.0000,-0.28,0.65,0.05,0.010,-0.144,0.158,0.107
870,-0.0069,-0.0221,-0.0028,-0.26,0.66,0.05,0.010,-0.106,-0.067,-0.351
880,-0.0041,-0.0149,-0.0025,-0.32,0.64,0.05,0.010,-0.257,0.182,0.097
890,-0.0043,-0.0149,-0.0026,-0.32,0.64,0.05,0.010,-0.099,-0.028,0.303
900,-0.0063,-0.0122,-0.0026,-0.34,0.65,0.05,0.011,0.019,-0.273,-0.340
910,-0.0064,-0.0123,-0.0027,-0.34,0.65,0.05,0.011,0.075,0.105,-0.223
920,-0.0050,-0.0116,-0.0017,-0.35,0.64,0.05,0.011,-0.153,0.115,0.082
930,-0.0023,-0.0180,-0.0018,-0.30,0.62,0.04,0.011,-0.073,-0.046,-0.077
939,-0.0056,-0.0102,-0.0015,-0.36,0.64,0.05,0.011,-0.192,-0.013,0.052
950,-0.0053,-0.0109,-0.0014,-0.36,0.64,0.05,0.008,0.197,0.227,-0.342
960,-0.0050,-0.0059,-0.0012,-0.40,0.64,0.05,0.008,0.011,-0.092,0.073
970,-0.0068,0.0074,-0.0073,-0.51,0.65,0.05,0.008,0.183,0.184,0.191
980,-0.0085,0.0311,-0.0079,-0.70,0.66,0.06,0.008,-0.285,0.146,0.180
990,-0.0104,0.0357,-0.0081,-0.73,0.68,0.06,0.008,-0.101,0.201,0.013
1000,-0.0110,0.0240,-0.0070,-0.63,0.68,0.06,0.013,-0.104,0.084,-0.048
1009,-0.0139,0.0244,-0.0071,-0.63,0.70,0.06,0.013,0.038,-0.054,-0.139
1019,-0.0123,0.0292,0.0011,-0.67,0.68,0.06,0.013,-0.019,0.072,0.011
1029,-0.0061,0.0462,0.0005,-0.80,0.63,0.06,0.013,-0.090,0.129,0.168
1040,-0.0081,0.0488,0.0003,-0.82,0.64,0.06,0.013,-0.049,0.043,0.013
1049,-0.0043,0.0433,0.0010,-0.77,0.61,0.06,0.011,0.100,-0.028,-0.097
1060,-0.0041,0.0471,0.0008,-0.79,0.61,0.06,0.011,-0.191,-0.148,0.211
1070,-0.0096,0.0498,0.0015,-0.81,0.65,0.06,0.011,-0.049,-0.152,-0.031
1080,-0.0045,0.0478,0.0020,-0.79,0.61,0.06,0.011,0.175,0.001,0.402
1090,-0.0032,0.0459,0.0023,-0.77,0.60,0.06,0.011,0.187,0.171,-0.436
1099,-0.0020,0.0439,0.0025,-0.74,0.59,0.06,0.012,0.131,0.053,-0.054
1110,-0.0031,0.0350,0.0032,-0.67,0.60,0.06,0.012,-0.331,0.205,0.056
1120,-0.0041,0.0335,0.0050,-0.65,0.60,0.06,0.012,0.090,0.107,-0.036
1129,-0.0050,0.0321,0.0050,-0.64,0.61,0.06,0.012,-0.051,0.291,0.130
1140,-0.0069,0.0393,0.0047,-0.70,0.62,0.06,0.012,0.027,0.099,-0.225
1149,-0.0032,0.0237,0.0059,-0.56,0.59,0.06,0.011,0.065,0.060,0.241
1160,-0.0041,0.0247,0.0059,-0.57,0.60,0.06,0.011,0.015,-0.147,-0.075
1170,-0.0028,0.0380,0.0037,-0.67,0.58,0.06,0.011,-0.114,-0.243,0.298
1180,-0.0025,0.0397,0.0037,-0.68,0.58,0.06,0.011,0.014,-0.195,0.084
1190,-0.0012,0.0631,0.0022,-0.86,0.57,0.06,0.011,-0.177,-0.096,-0.079
1199,-0.0046,0.0648,0.0020,-0.87,0.60,0.07,0.013,-0.049,0.286,-0.031
1210,-0.0066,0.0563,0.0032,-0.80,0.61,0.06,0.013,0.137,-0.130,-0.173
1220,-0.0027,0.0601,0.0061,-0.82,0.58,0.06,0.013,-0.097,-0.045,0.012
1230,-0.0038,0.0585,0.0060,-0.80,0.59,0.06,0.013,-0.308,0.031,0.105
1239,-0.0037,0.0534,0.0063,-0.76,0.58,0.06,0.013,-0.049,-0.033,0.021
1250,-0.0024,0.0534,0.0065,-0.75,0.57,0.06,0.013,-0.154,0.060,0.119
1260,-0.0045,0.0428,0.0076,-0.66,0.59,0.06,0.013,-0.135,0.031,0.199
1270,-0.0054,0.0410,0.0086,-0.65,0.60,0.06,0.013,-0.125,0.174,-0.475
1280,-0.0006,0.0382,0.0089,-0.62,0.56,0.06,0.013,0.068,0.259,-0.256
1290,-0.0028,0.0444,0.0085,-0.67,0.58,0.06,0.013,0.124,0.133,-0.056
1300,-0.0039,0.0434,0.0085,-0.66,0.58,0.06,0.010,-0.046,0.164,0.057
1310,-0.0048,0.0358,0.0092,-0.59,0.59,0.06,0.010,0.086,-0.121,0.038
1319,-0.0020,0.0270,0.0019,-0.52,0.57,0.06,0.010,-0.335,0.319,-0.128
1330,0.0049,0.0394,0.0016,-0.61,0.51,0.07,0.010,-0.083,0.286,0.281
1339,0.0024,0.0317,0.0021,-0.55,0.53,0.07,0.010,0.013,0.049,-0.295
1350,0.0001,0.0256,0.0026,-0.50,0.55,0.06,0.013,0.023,0.179,0.463
1359,-0.0043,0.0289,0.0025,-0.53,0.58,0.06,0.013,0.037,0.128,0.153
1369,-0.0028,0.0331,0.0043,-0.56,0.57,0.06,0.013,0.088,0.085,-0.065
1379,0.0066,0.0205,0.0048,-0.45,0.50,0.07,0.013,0.091,0.035,-0.089
1389,0.0011,0.0232,0.0051,-0.47,0.55,0.07,0.013,-0.088,-0.134,0.090
1399,0.0010,0.0166,0.0053,-0.41,0.55,0.07,0.011,0.332,-0.226,-0.274
1410,-0.0025,0.0158,0.0053,-0.41,0.57,0.07,0.011,-0.015,-0.245,0.335
1420,-0.0036,0.0246,0.0010,-0.48,0.58,0.06,0.011,0.175,0.006,-0.085
1430,0.0010,0.0154,0.0014,-0.40,0.54,0.07,0.011,0.037,-0.100,0.048
1439,0.0010,0.0154,0.0014,-0.40,0.54,0.07,0.011,-0.141,0.259,0.215
1449,0.0011,0.0159,0.0009,-0.41,0.54,0.07,0.010,-0.053,0.259,0.245
1459,0.0080,0.0128,0.0008,-0.38,0.49,0.07,0.010,0.150,0.053,0.006
1470,0.0002,0.0251,-0.0043,-0.49,0.55,0.07,0.010,0.094,-0.091,-0.326
1479,-0.0052,0.0574,-0.0060,-0.75,0.60,0.07,0.010,-0.316,0.031,0.413
0,-0.0048,0.0417,-0.0039,-0.61,0.59,0.07,0.010,-0.070,0.054,0.179
9,-0.0079,0.0564,-0.0050,-0.73,0.62,0.07,0.009,-0.024,-0.127,0.083
20,-0.0062,0.0539,-0.0045,-0.71,0.61,0.07,0.009,-0.200,-0.465,0.208
30,-0.0068,0.0464,-0.0083,-0.64,0.60,0.07,0.009,-0.333,-1.075,-0.494
39,-0.0074,0.0516,-0.0086,-0.67,0.60,0.07,0.009,0.762,1.010,-1.064
50,-0.0074,0.0516,-0.0086,-0.67,0.60,0.07,0.009,0.108,0.069,-0.747
60,-0.0082,0.0545,-0.0088,-0.69,0.60,0.07,0.010,-1.952,-1.722,-1.013
70,-0.0058,0.0441,-0.0074,-0.59,0.57,0.07,0.010,-0.172,-0.155,0.579
79,-0.0065,0.0572,-0.0085,-0.70,0.59,0.06,0.010,-1.215,-1.624,1.050
89,-0.0104,0.0476,-0.0079,-0.62,0.61,0.07,0.010,-1.576,-1.892,-1.753
99,-0.0104,0.0476,-0.0079,-0.62,0.61,0.07,0.010,-3.350,-2.186,-10.966
110,-0.0120,0.0530,-0.0067,-0.67,0.63,0.06,0.011,-0.110,-1.129,-10.663
119,-0.0126,0.0492,-0.0039,-0.65,0.65,-0.03,0.011,-1.966,0.158,-9.598
130,-0.0166,0.0267,-0.0014,-0.48,0.69,-0.15,0.011,-1.942,-2.766,-21.151
140,-0.0263,0.0030,0.0012,-0.28,0.76,-0.24,0.011,-2.108,-1.416,-26.682
150,-0.0275,0.0138,0.0034,-0.38,0.79,-0.43,0.011,-0.883,-2.706,-23.733
159,-0.0275,0.0138,0.0034,-0.38,0.79,-0.43,0.011,-2.730,-2.314,-18.259
169,-0.0603,0.0300,-0.0024,-0.52,1.08,-0.96,0.010,-9.125,-11.732,-17.817
179,-0.0938,0.0525,-0.0043,-0.71,1.36,-1.15,0.010,-7.185,-14.838,-13.982
190,-0.0966,0.0530,0.0005,-0.78,1.47,-1.33,0.010,-11.615,-21.888,-11.901
200,-0.1048,0.0501,0.0074,-0.82,1.65,-1.47,0.010,-20.973,-24.503,-5.183
209,-0.1087,0.0515,0.0175,-0.92,1.86,-1.59,0.012,-30.333,-31.104,-1.502
219,-0.1056,0.0386,0.0354,-1.00,2.05,-1.66,0.012,-24.722,-30.583,0.940
229,-0.1058,0.0388,0.0391,-1.00,2.05,-1.66,0.012,-24.923,-27.327,3.373
239,-0.1064,0.0582,0.0555,-1.42,2.32,-1.67,0.012,-16.946,-19.322,5.447
250,-0.0844,0.0510,0.0805,-1.60,2.42,-1.66,0.012,-9.691,-14.577,8.151
260,-0.0815,0.0469,0.1031,-1.79,2.65,-1.62,0.002,-3.708,-14.828,6.217
270,-0.0590,0.0072,0.1344,-1.65,2.62,-1.60,0.002,1.631,-20.253,5.429
280,-0.0484,-0.0034,0.1203,-1.66,2.66,-1.52,0.002,2.738,-22.784,4.694
289,-0.0498,-0.0133,0.1430,-1.61,2.77,-1.46,0.002,3.328,-26.483,5.807
299,-0.0411,-0.0095,0.1655,-1.61,2.85,-1.39,0.002,-6.795,-15.433,6.590
309,-0.0710,-0.0225,0.1838,-1.45,3.26,-1.36,0.000,-11.565,-2.324,7.478
320,-0.0823,-0.0188,0.2030,-1.43,3.56,-1.30,0.000,-9.945,0.429,8.098
330,-0.0830,-0.0201,0.1767,-1.46,3.69,-1.23,0.000,-5.155,2.999,6.904
339,-0.0923,-0.0086,0.1964,-1.65,3.75,-1.15,0.000,-0.224,9.767,8.874
349,-0.1358,-0.0290,0.2095,-1.57,4.02,-1.12,0.000,2.801,19.262,7.145
360,-0.1437,-0.0256,0.2291,-1.63,3.99,-1.05,0.013,5.804,22.439,7.646
370,-0.1312,-0.0136,0.2550,-1.71,3.74,-0.94,0.013,6.670,31.559,7.707
379,-0.1409,-0.0324,0.2508,-1.51,3.57,-0.92,0.013,5.111,37.467,6.233
389,-0.1517,-0.0445,0.2667,-1.34,3.38,-0.88,0.013,8.117,39.159,6.005
399,-0.1648,-0.0439,0.2821,-1.27,3.13,-0.82,0.013,9.901,32.933,5.687
410,-0.1819,-0.0374,0.2967,-1.25,2.85,-0.76,0.042,7.400,22.748,7.549
422,-0.1973,-0.0433,0.3088,-1.11,2.54,-0.73,0.042,6.700,10.470,7.906
430,-0.2107,-0.0391,0.3437,-1.03,2.25,-0.68,0.042,6.946,1.549,5.160
439,-0.2114,-0.0316,0.3566,-1.00,1.98,-0.60,0.042,3.330,-3.233,4.049
449,-0.2124,-0.0211,0.3686,-1.00,1.83,-0.50,0.042,-0.854,-6.166,3.983
459,-0.2196,-0.0074,0.3780,-1.02,1.83,-0.42,0.042,-4.779,-7.180,5.462
469,-0.2177,-0.0013,0.3882,-1.02,1.81,-0.37,0.068,-10.816,-4.826,6.967
480,-0.2463,0.0192,0.4186,-1.17,2.05,-0.30,0.068,-5.120,-5.053,6.581
490,-0.2426,0.0225,0.4253,-1.23,2.07,-0.24,0.068,-7.445,-6.699,8.840
499,-0.2456,0.0287,0.4299,-1.36,2.12,-0.17,0.068,-3.137,-8.176,8.595
509,-0.2453,0.0320,0.4367,-1.44,2.13,-0.09,0.096,1.262,-6.470,9.244
519,-0.2453,0.0316,0.4444,-1.49,2.17,-0.01,0.096,6.467,0.929,9.863
529,-0.2526,0.0434,0.4796,-1.60,2.25,0.10,0.096,9.431,9.367,10.372
540,-0.2500,0.0479,0.4844,-1.61,2.27,0.20,0.096,11.491,18.544,10.805
550,-0.2501,0.0478,0.4870,-1.54,2.24,0.29,0.096,12.988,24.195,11.061
559,-0.2470,0.0498,0.4890,-1.44,2.10,0.40,0.116,11.376,30.065,11.469
569,-0.2368,0.0515,0.4925,-1.32,1.82,0.51,0.116,5.335,32.623,12.663
579,-0.2530,0.0549,0.4931,-1.20,1.68,0.61,0.116,3.202,35.109,12.472
589,-0.2478,0.0560,0.4924,-1.08,1.33,0.72,0.116,0.651,44.302,13.029
599,-0.2353,0.0545,0.4931,-1.00,0.89,0.85,0.116,1.776,55.662,12.617
609,-0.2250,0.0461,0.4925,-0.88,0.45,0.96,0.150,4.587,69.472,12.560
619,-0.2020,0.0464,0.4931,-0.85,-0.17,1.10,0.150,10.544,80.175,12.961
629,-0.1934,0.0442,0.5108,-0.80,-0.78,1.22,0.150,14.041,87.917,12.628
639,-0.1811,0.0411,0.5076,-0.73,-1.54,1.34,0.150,16.367,92.789,13.379
649,-0.1793,0.0366,0.5027,-0.58,-2.32,1.45,0.150,16.919,90.349,12.636
659,-0.1640,0.0385,0.4978,-0.45,-3.28,1.58,0.163,17.798,83.858,12.959
670,-0.1691,0.0414,0.4903,-0.29,-4.21,1.71,0.163,18.696,72.706,13.237
679,-0.1564,0.0420,0.4672,-0.11,-5.15,1.84,0.163,16.716,57.735,13.122
689,-0.1516,0.0415,0.4594,0.09,-5.98,1.96,0.163,14.878,41.532,13.367
699,-0.1381,0.0429,0.4509,0.29,-6.76,2.10,0.163,13.147,25.188,11.982
709,-0.1289,0.0431,0.4417,0.47,-7.35,2.24,0.190,14.791,11.472,11.358
720,-0.1119,0.0435,0.4315,0.63,-7.83,2.38,0.190,11.676,-1.332,11.271
730,-0.1027,0.0481,0.4222,0.75,-8.09,2.49,0.190,11.913,-11.339,10.670
739,-0.0877,0.0452,0.4119,0.93,-8.25,2.62,0.190,10.764,-21.452,9.021
749,-0.0738,0.0460,0.4014,1.05,-8.26,2.73,0.190,7.418,-27.224,8.844
759,-0.0602,0.0438,0.3904,1.19,-8.15,2.84,0.190,8.450,-30.713,7.348
769,-0.0472,0.0454,0.3786,1.29,-7.96,2.92,0.211,9.079,-31.676,6.511
779,-0.0342,0.0424,0.3703,1.39,-7.69,3.01,0.211,6.150,-32.050,6.579
789,-0.0154,0.0489,0.3584,1.42,-7.44,3.06,0.211,5.665,-30.953,5.428
799,-0.0027,0.0467,0.3467,1.52,-7.13,3.12,0.211,5.605,-30.228,3.979
809,0.0130,0.0456,0.3349,1.59,-6.85,3.18,0.230,6.422,-28.466,3.189
819,0.0236,0.0438,0.3233,1.66,-6.53,3.22,0.230,5.690,-28.739,1.859
830,0.0337,0.0415,0.3186,1.72,-6.23,3.26,0.230,5.004,-29.319,1.334
839,0.0458,0.0391,0.3073,1.79,-5.96,3.28,0.230,5.742,-32.139,0.256
850,0.0589,0.0401,0.2965,1.82,-5.70,3.27,0.230,4.682,-34.158,-0.041
859,0.0679,0.0379,0.2858,1.87,-5.40,3.28,0.232,4.779,-37.068,-1.255
869,0.0754,0.0390,0.2747,1.90,-5.08,3.26,0.232,4.121,-40.298,-1.224
879,0.0851,0.0353,0.2397,1.96,-4.76,3.24,0.232,3.332,-45.221,-2.073
889,0.0930,0.0335,0.2289,2.01,-4.39,3.22,0.232,4.415,-47.469,-3.950
899,0.1029,0.0337,0.2181,2.03,-4.01,3.17,0.232,3.766,-50.687,-4.318
909,0.1086,0.0320,0.2073,2.06,-3.56,3.12,0.242,1.735,-52.965,-3.886
919,0.1123,0.0280,0.1969,2.11,-3.08,3.08,0.242,-0.288,-53.590,-4.519
929,0.1158,0.0283,0.1725,2.12,-2.57,3.01,0.242,-1.632,-54.198,-4.460
939,0.1258,0.0257,0.1639,2.13,-2.09,2.94,0.242,-5.087,-53.343,-4.402
949,0.1326,0.0253,0.1558,2.12,-1.58,2.86,0.242,-4.617,-52.378,-4.391
959,0.1319,0.0227,0.1477,2.10,-1.01,2.79,0.250,-6.441,-49.726,-4.435
969,0.1381,0.0208,0.1398,2.05,-0.51,2.72,0.250,-9.177,-45.587,-4.256
979,0.1377,0.0176,0.1266,2.00,0.01,2.65,0.250,-9.761,-43.735,-4.719
989,0.1426,0.0150,0.1197,1.93,0.47,2.58,0.250,-8.256,-39.279,-4.580
999,0.1403,0.0123,0.1132,1.84,0.94,2.52,0.250,-6.947,-36.015,-5.154
1009,0.1419,0.0123,0.1070,1.73,1.35,2.45,0.257,-3.831,-30.730,-5.722
1019,0.1374,0.0100,0.1011,1.64,1.77,2.39,0.257,-5.264,-28.815,-4.519
1029,0.1375,0.0078,0.0930,1.57,2.11,2.32,0.257,-2.956,-26.531,-6.639
1039,0.1328,0.0053,0.0871,1.52,2.42,2.26,0.257,1.994,-22.360,-5.864
1050,0.1302,0.0043,0.0817,1.46,2.71,2.20,0.257,-0.566,-22.933,-6.915
1059,0.1263,0.0031,0.0768,1.43,2.97,2.12,0.262,-0.951,-21.890,-7.053
1069,0.1235,0.0018,0.0723,1.44,3.18,2.05,0.262,-3.324,-21.822,-6.479
1078,0.1169,0.0003,0.0685,1.43,3.42,1.98,0.262,-2.690,-18.823,-7.464
1089,0.1126,0.0003,0.0637,1.41,3.63,1.89,0.262,-4.131,-17.725,-7.347
1099,0.1057,-0.0019,0.0589,1.40,3.85,1.82,0.262,-5.066,-16.183,-8.058
1109,0.0989,-0.0040,0.0546,1.38,4.03,1.75,0.264,-6.527,-11.810,-7.690
1119,0.0950,-0.0048,0.0499,1.34,4.19,1.65,0.264,-8.758,-12.406,-8.320
1129,0.0841,-0.0053,0.0441,1.28,4.38,1.57,0.264,-8.920,-6.888,-8.455
1139,0.0814,-0.0091,0.0397,1.23,4.47,1.49,0.264,-9.848,-4.784,-8.638
1149,0.0721,-0.0101,0.0357,1.14,4.60,1.40,0.264,-8.657,0.415,-8.565
1158,0.0646,-0.0097,0.0320,1.04,4.68,1.32,0.267,-13.259,3.481,-6.897
1169,0.0569,-0.0115,0.0286,0.94,4.72,1.23,0.267,-12.103,8.450,-6.826
1179,0.0533,-0.0120,0.0270,0.85,4.69,1.14,0.267,-9.645,9.445,-6.821
1189,0.0456,-0.0135,0.0234,0.73,4.65,1.07,0.267,-8.885,13.973,-6.366
1199,0.0380,-0.0143,0.0203,0.62,4.57,1.00,0.267,-9.242,14.209,-6.916
1209,0.0304,-0.0155,0.0173,0.52,4.47,0.93,0.274,-7.458,18.090,-5.828
1218,0.0211,-0.0165,0.0144,0.43,4.35,0.87,0.274,-8.444,16.215,-5.323
1229,0.0134,-0.0160,0.0264,0.33,4.20,0.81,0.274,-7.879,17.519,-5.183
1239,0.0052,-0.0154,0.0237,0.24,4.04,0.75,0.274,-6.083,17.654,-4.590
1249,-0.0015,-0.0159,0.0208,0.16,3.87,0.70,0.274,-5.346,17.320,-4.188
1259,-0.0074,-0.0161,0.0182,0.08,3.69,0.65,0.273,-6.072,18.139,-3.062
1268,-0.0142,-0.0150,0.0158,0.00,3.52,0.60,0.273,-4.604,19.371,-3.078
1279,-0.0180,-0.0129,0.0176,-0.07,3.33,0.56,0.273,-5.135,20.530,-2.741
1289,-0.0236,-0.0129,0.0153,-0.13,3.15,0.53,0.273,-6.398,21.235,-2.680
1298,-0.0313,-0.0108,0.0130,-0.20,2.97,0.51,0.273,-5.988,22.643,-2.891
1308,-0.0363,-0.0105,0.0109,-0.24,2.77,0.48,0.268,-7.003,23.066,-3.198
1319,-0.0437,-0.0083,0.0090,-0.31,2.57,0.45,0.268,-7.936,24.179,-3.104
1329,-0.0477,-0.0077,-0.0024,-0.37,2.34,0.42,0.268,-5.008,25.245,-4.564
1338,-0.0534,-0.0052,-0.0036,-0.44,2.12,0.39,0.268,-7.988,25.261,-4.228
1349,-0.0570,-0.0045,-0.0050,-0.51,1.88,0.35,0.268,-1.421,25.197,-5.311
1359,-0.0586,-0.0027,-0.0057,-0.57,1.62,0.30,0.268,-5.292,25.694,-4.701
1368,-0.0656,-0.0022,-0.0061,-0.65,1.40,0.26,0.269,-0.226,25.724,-5.279
1379,-0.0704,-0.0004,-0.0092,-0.68,1.17,0.21,0.269,-1.116,26.819,-5.654
1389,-0.0724,0.0008,-0.0090,-0.72,0.91,0.16,0.269,1.563,27.798,-5.347
1399,-0.0785,0.0083,-0.0092,-0.76,0.68,0.11,0.269,1.472,27.328,-5.782
1408,-0.0796,0.0096,-0.0093,-0.76,0.42,0.04,0.269,2.219,27.482,-5.744
1418,-0.0791,0.0104,-0.0091,-0.75,0.13,-0.02,0.269,3.143,27.319,-5.106
1429,-0.0813,0.0111,-0.0096,-0.73,-0.13,-0.07,0.269,4.602,26.902,-4.427
1439,-0.0804,0.0140,-0.0087,-0.71,-0.41,-0.13,0.269,7.362,26.568,-4.699
1448,-0.0797,0.0152,-0.0079,-0.68,-0.68,-0.19,0.269,6.221,25.662,-3.385
1459,-0.0774,0.0155,-0.0070,-0.63,-0.95,-0.24,0.267,8.397,23.984,-3.635
1468,-0.0779,0.0183,-0.0061,-0.57,-1.20,-0.28,0.267,11.054,21.938,-3.385
1478,-0.0750,0.0195,-0.0089,-0.51,-1.46,-0.32,0.267,7.783,18.985,-2.825
1489,-0.0734,0.0232,-0.0076,-0.44,-1.69,-0.36,0.267,7.323,16.749,-2.032
1499,-0.0691,0.0234,-0.0065,-0.33,-1.91,-0.40,0.267,8.905,13.835,-2.032
1509,-0.0658,0.0240,-0.0055,-0.25,-2.10,-0.42,0.266,4.593,11.654,-1.428
1518,-0.0609,0.0224,-0.0043,-0.16,-2.28,-0.45,0.266,6.312,9.595,-0.296
1528,-0.0569,0.0227,-0.0067,-0.08,-2.42,-0.47,0.266,3.815,7.027,-0.447
1538,-0.0532,0.0261,-0.0057,-0.05,-2.53,-0.48,0.266,2.845,5.482,0.063
1549,-0.0488,0.0261,-0.0047,0.02,-2.62,-0.49,0.266,4.501,3.504,0.885
1559,-0.0419,0.0279,-0.0035,0.05,-2.71,-0.49,0.270,1.921,1.741,0.794
1569,-0.0384,0.0265,-0.0021,0.09,-2.76,-0.49,0.270,6.675,1.238,1.134
1578,-0.0352,0.0282,0.0066,0.10,-2.78,-0.48,0.270,3.487,-1.004,2.145
1588,-0.0307,0.0299,0.0080,0.13,-2.80,-0.48,0.270,2.181,-3.346,2.945
1599,-0.0259,0.0263,0.0096,0.21,-2.81,-0.46,0.270,2.598,-4.535,3.223
1608,-0.0236,0.0263,0.0111,0.24,-2.78,-0.44,0.268,8.083,-5.430,4.061
1618,-0.0185,0.0261,0.0125,0.27,-2.76,-0.41,0.268,6.717,-6.706,5.383
1629,-0.0138,0.0259,0.0124,0.31,-2.71,-0.38,0.268,5.130,-8.792,4.275
1639,-0.0079,0.0265,0.0134,0.38,-2.66,-0.35,0.268,6.169,-9.172,5.338
1649,-0.0033,0.0259,0.0145,0.45,-2.59,-0.30,0.268,6.228,-9.592,5.612
1658,0.0034,0.0283,0.0155,0.49,-2.52,-0.26,0.268,3.284,-9.502,6.559
1669,0.0097,0.0274,0.0166,0.56,-2.44,-0.20,0.265,3.475,-10.276,6.319
1679,0.0122,0.0280,0.0074,0.62,-2.34,-0.15,0.265,0.597,-12.411,6.461
1688,0.0145,0.0274,0.0079,0.66,-2.23,-0.09,0.265,3.762,-13.063,5.614
1698,0.0166,0.0236,0.0084,0.70,-2.12,-0.02,0.265,2.512,-14.759,5.729
1708,0.0245,0.0247,0.0088,0.71,-2.02,0.03,0.272,0.547,-16.374,6.187
1718,0.0254,0.0255,0.0095,0.74,-1.87,0.09,0.272,-2.990,-16.905,6.132
1729,0.0293,0.0249,0.0195,0.76,-1.72,0.14,0.272,-3.556,-17.608,6.632
1738,0.0308,0.0244,0.0201,0.76,-1.54,0.20,0.272,-1.289,-15.725,6.700
1748,0.0352,0.0230,0.0206,0.73,-1.38,0.26,0.272,-3.252,-13.933,7.041
1759,0.0376,0.0212,0.0212,0.71,-1.21,0.33,0.274,1.616,-15.173,6.062
1768,0.0397,0.0199,0.0215,0.69,-1.06,0.39,0.274,2.302,-14.036,6.352
1778,0.0418,0.0200,0.0297,0.66,-0.92,0.46,0.274,1.644,-14.253,7.091
1788,0.0466,0.0199,0.0304,0.66,-0.79,0.52,0.274,3.872,-15.670,7.179
1798,0.0480,0.0177,0.0308,0.69,-0.65,0.58,0.274,3.754,-13.881,8.432
1808,0.0489,0.0173,0.0311,0.70,-0.50,0.65,0.270,3.959,-15.042,7.937
1819,0.0480,0.0150,0.0313,0.75,-0.34,0.73,0.270,2.242,-14.825,8.470
1828,0.0499,0.0161,0.0243,0.77,-0.20,0.81,0.270,1.707,-15.436,9.051
1839,0.0485,0.0139,0.0243,0.81,-0.04,0.89,0.270,-0.102,-16.774,8.798
1849,0.0515,0.0150,0.0244,0.81,0.09,0.98,0.270,-2.923,-14.477,8.933
1858,0.0514,0.0136,0.0244,0.82,0.24,1.07,0.270,-1.342,-15.591,9.215
1868,0.0505,0.0119,0.0244,0.81,0.41,1.16,0.273,-3.977,-13.860,9.220
1879,0.0496,0.0104,0.0235,0.79,0.56,1.25,0.273,-1.766,-14.821,9.234
1889,0.0484,0.0091,0.0234,0.77,0.71,1.34,0.273,-0.512,-13.784,9.905
1898,0.0455,0.0080,0.0233,0.73,0.86,1.43,0.273,-3.064,-12.214,10.458
1908,0.0456,0.0067,0.0232,0.71,1.00,1.52,0.272,-3.054,-9.963,10.768
1918,0.0441,0.0055,0.0233,0.70,1.13,1.62,0.272,-3.262,-9.035,11.307
1928,0.0439,0.0046,0.0186,0.67,1.24,1.72,0.272,-2.622,-7.109,11.405
1939,0.0408,0.0037,0.0184,0.63,1.35,1.83,0.272,-1.212,-5.729,11.740
1948,0.0394,0.0029,0.0183,0.60,1.44,1.94,0.272,0.155,-3.804,11.915
1958,0.0379,0.0037,0.0184,0.57,1.51,2.06,0.272,0.984,-3.656,12.118
1968,0.0354,0.0026,0.0185,0.55,1.56,2.17,0.274,2.534,-1.936,12.256
1978,0.0345,0.0016,0.0175,0.54,1.60,2.29,0.274,2.748,-1.703,12.635
1989,0.0287,0.0004,0.0172,0.55,1.65,2.41,0.274,3.055,0.231,12.540
1998,0.0260,-0.0007,0.0170,0.56,1.67,2.53,0.274,1.551,-1.006,11.982
2008,0.0231,-0.0018,0.0169,0.58,1.69,2.66,0.277,-1.610,-0.408,12.012
2018,0.0203,-0.0029,0.0165,0.60,1.69,2.79,0.277,0.331,1.924,12.747
2028,0.0184,-0.0026,0.0204,0.60,1.69,2.91,0.277,-1.560,1.830,13.078
2038,0.0156,-0.0038,0.0198,0.59,1.69,3.03,0.277,-4.276,1.739,13.812
2048,0.0108,-0.0050,0.0196,0.58,1.69,3.16,0.277,-2.960,3.334,13.604
2058,0.0079,-0.0061,0.0195,0.56,1.67,3.30,0.276,-2.886,4.163,14.236
2068,0.0050,-0.0083,0.0188,0.51,1.65,3.45,0.276,-0.845,5.186,14.408
2079,0.0023,-0.0094,0.0159,0.48,1.62,3.59,0.276,-0.171,6.570,14.678
2088,-0.0004,-0.0104,0.0151,0.45,1.57,3.73,0.276,-0.967,8.675,15.018
2098,-0.0030,-0.0113,0.0146,0.43,1.52,3.87,0.276,-2.074,9.004,15.776
2108,-0.0063,-0.0119,0.0141,0.41,1.45,4.02,0.277,-2.250,10.208,15.074
2118,-0.0129,-0.0124,0.0130,0.39,1.39,4.18,0.277,1.638,10.796,13.570
2128,-0.0131,-0.0163,0.0117,0.39,1.29,4.34,0.277,-4.085,10.336,13.841
2138,-0.0171,-0.0162,0.0107,0.36,1.21,4.49,0.277,-3.441,10.609,14.383
2148,-0.0186,-0.0165,0.0100,0.35,1.10,4.63,0.277,-4.353,10.243,13.230
2158,-0.0238,-0.0165,0.0096,0.31,1.02,4.77,0.277,-0.316,8.509,12.351
2168,-0.0255,-0.0172,0.0095,0.27,0.91,4.91,0.276,-3.814,7.977,12.997
2178,-0.0264,-0.0186,0.0052,0.24,0.82,5.05,0.276,-4.017,9.245,13.372
2188,-0.0277,-0.0191,0.0051,0.22,0.73,5.17,0.276,-1.815,9.723,13.217
2198,-0.0364,-0.0211,0.0046,0.18,0.70,5.30,0.276,-0.468,9.236,13.288
2208,-0.0376,-0.0215,0.0035,0.14,0.61,5.44,0.280,0.560,12.789,13.811
2218,-0.0376,-0.0208,0.0023,0.12,0.50,5.57,0.280,3.599,13.959,12.126
2229,-0.0417,-0.0207,0.0075,0.10,0.43,5.70,0.280,1.253,14.102,13.151
2238,-0.0407,-0.0205,0.0067,0.11,0.29,5.84,0.280,2.404,15.272,12.538
2248,-0.0450,-0.0213,0.0065,0.14,0.17,5.97,0.280,3.438,15.058,12.149
2258,-0.0430,-0.0232,0.0064,0.18,0.01,6.10,0.279,2.630,16.025,12.028
2268,-0.0448,-0.0237,0.0062,0.21,-0.13,6.22,0.279,0.489,13.578,12.273
2278,-0.0446,-0.0240,0.0064,0.24,-0.28,6.34,0.279,0.384,11.905,12.331
2288,-0.0440,-0.0243,0.0058,0.26,-0.44,6.46,0.279,0.059,11.405,9.972
2298,-0.0493,-0.0248,0.0048,0.26,-0.54,6.58,0.279,-0.289,11.044,10.633
2308,-0.0450,-0.0222,0.0037,0.25,-0.68,6.70,0.278,0.825,11.905,9.775
2318,-0.0500,-0.0227,0.0023,0.25,-0.76,6.80,0.278,-2.167,9.547,7.932
2328,-0.0471,-0.0223,-0.0016,0.25,-0.88,6.91,0.278,-0.965,12.041,8.227
2338,-0.0476,-0.0243,-0.0030,0.27,-0.98,7.00,0.278,-2.933,11.855,6.697
2348,-0.0459,-0.0246,-0.0040,0.25,-1.09,7.08,0.278,-2.696,11.696,5.731
2358,-0.0445,-0.0239,-0.0049,0.23,-1.20,7.15,0.279,-5.196,10.051,5.769
2368,-0.0424,-0.0240,-0.0055,0.20,-1.32,7.22,0.279,-3.416,9.577,4.296
2378,-0.0465,-0.0240,-0.0047,0.18,-1.39,7.27,0.279,-4.007,7.987,3.930
2388,-0.0429,-0.0225,-0.0051,0.12,-1.50,7.33,0.279,-4.048,6.412,3.498
2398,-0.0426,-0.0254,-0.0052,0.11,-1.59,7.37,0.279,-0.755,6.373,2.884
2408,-0.0399,-0.0252,-0.0053,0.07,-1.66,7.41,0.278,-1.163,4.245,2.715
2418,-0.0366,-0.0236,-0.0056,0.03,-1.74,7.45,0.278,-1.051,3.641,2.672
2428,-0.0336,-0.0233,-0.0069,0.03,-1.80,7.48,0.278,1.512,3.677,2.209
2438,-0.0306,-0.0229,-0.0069,0.02,-1.85,7.51,0.278,3.734,2.915,1.427
2448,-0.0292,-0.0260,-0.0066,0.03,-1.87,7.53,0.278,0.861,2.206,1.871
2458,-0.0263,-0.0252,-0.0062,0.05,-1.91,7.55,0.275,1.196,0.121,2.063
2468,-0.0230,-0.0249,-0.0064,0.07,-1.93,7.57,0.275,0.503,-0.299,1.815
2478,-0.0208,-0.0240,-0.0132,0.08,-1.95,7.59,0.275,0.118,-0.911,1.353
2489,-0.0148,-0.0227,-0.0138,0.08,-1.97,7.61,0.275,-2.213,-3.014,1.877
2498,-0.0113,-0.0196,-0.0146,0.07,-1.97,7.62,0.275,-1.041,-4.193,1.268
2508,-0.0075,-0.0206,-0.0151,0.08,-1.96,7.64,0.276,-1.092,-7.036,1.949
2518,-0.0025,-0.0190,-0.0158,0.05,-1.93,7.66,0.276,-3.340,-6.948,1.306
2528,0.0023,-0.0177,-0.0164,0.04,-1.89,7.68,0.276,-3.598,-9.984,2.753
2538,0.0055,-0.0173,-0.0173,0.02,-1.82,7.70,0.276,-3.320,-9.258,1.907
2548,0.0113,-0.0173,-0.0178,-0.01,-1.76,7.71,0.276,-0.390,-10.921,1.976
2558,0.0124,-0.0180,-0.0185,-0.03,-1.65,7.74,0.276,-1.219,-10.900,1.773
2568,0.0184,-0.0152,-0.0195,-0.07,-1.57,7.76,0.276,0.046,-12.789,2.005
2578,0.0211,-0.0147,-0.0179,-0.08,-1.46,7.78,0.276,0.222,-13.561,2.153
2588,0.0266,-0.0132,-0.0187,-0.10,-1.36,7.80,0.276,0.942,-14.020,2.061
2598,0.0285,-0.0180,-0.0195,-0.07,-1.22,7.82,0.276,1.715,-14.051,0.853
2608,0.0296,-0.0191,-0.0205,-0.04,-1.09,7.85,0.274,2.437,-15.264,0.383
2618,0.0336,-0.0159,-0.0213,-0.05,-0.96,7.86,0.274,0.436,-16.279,-0.255
2628,0.0393,-0.0148,-0.0238,-0.02,-0.84,7.87,0.274,-0.046,-15.729,-0.394
2638,0.0408,-0.0144,-0.0248,-0.00,-0.69,7.87,0.274,4.857,-14.761,-1.054
2648,0.0436,-0.0134,-0.0257,-0.00,-0.54,7.87,0.274,-0.730,-14.461,-1.247
2658,0.0424,-0.0130,-0.0265,0.00,-0.36,7.86,0.274,-0.439,-14.989,-1.161
2667,0.0503,-0.0120,-0.0277,0.04,-0.26,7.85,0.277,-0.824,-13.633,-2.458
2677,0.0509,-0.0121,-0.0188,0.03,-0.11,7.83,0.277,0.336,-13.732,-1.868
2688,0.0492,-0.0119,-0.0192,0.03,0.03,7.81,0.277,-3.114,-13.180,-2.271
2698,0.0529,-0.0125,-0.0200,0.03,0.15,7.79,0.277,-1.735,-11.923,-2.517
2708,0.0527,-0.0126,-0.0207,0.03,0.28,7.77,0.273,0.010,-11.234,-3.096
2718,0.0559,-0.0114,-0.0213,0.01,0.39,7.74,0.273,0.119,-11.318,-3.685
2728,0.0533,-0.0109,-0.0237,-0.00,0.52,7.71,0.273,-0.353,-11.263,-3.977
2738,0.0546,-0.0116,-0.0238,-0.01,0.62,7.68,0.273,-0.790,-10.300,-4.388
2748,0.0519,-0.0111,-0.0242,-0.02,0.74,7.64,0.273,-0.940,-10.352,-5.005
2757,0.0491,-0.0107,-0.0249,-0.03,0.86,7.60,0.273,-1.176,-10.456,-5.598
2768,0.0465,-0.0120,-0.0253,-0.04,0.97,7.56,0.272,-1.003,-8.901,-5.902
2778,0.0506,-0.0106,-0.0254,-0.05,1.05,7.50,0.272,-0.294,-8.734,-7.154
2788,0.0495,-0.0118,-0.0254,-0.05,1.14,7.45,0.272,-0.943,-7.732,-7.817
2798,0.0485,-0.0130,-0.0257,-0.06,1.22,7.39,0.272,0.445,-7.237,-9.118
2808,0.0438,-0.0146,-0.0259,-0.06,1.32,7.32,0.267,-2.637,-5.608,-9.209
2818,0.0443,-0.0137,-0.0262,-0.06,1.38,7.23,0.267,-0.868,-5.275,-10.459
2827,0.0416,-0.0149,-0.0351,-0.06,1.45,7.14,0.267,-2.113,-4.324,-10.535
2838,0.0403,-0.0140,-0.0353,-0.09,1.50,7.05,0.267,-1.032,-4.254,-11.191
2848,0.0378,-0.0141,-0.0356,-0.10,1.55,6.95,0.267,-0.134,-3.484,-11.691
2858,0.0352,-0.0150,-0.0357,-0.12,1.60,6.84,0.267,-1.247,-2.295,-12.040
2867,0.0310,-0.0163,-0.0355,-0.12,1.64,6.73,0.265,-2.854,-3.198,-10.901
2877,0.0282,-0.0164,-0.0404,-0.13,1.67,6.61,0.265,-3.787,-2.236,-10.278
2887,0.0254,-0.0165,-0.0407,-0.14,1.70,6.50,0.265,-3.070,-0.742,-11.044
2898,0.0231,-0.0154,-0.0406,-0.18,1.72,6.39,0.265,-3.056,0.552,-11.379
2908,0.0208,-0.0140,-0.0405,-0.22,1.73,6.28,0.263,-2.800,0.840,-11.372
2917,0.0178,-0.0139,-0.0404,-0.25,1.73,6.17,0.263,-0.348,2.708,-11.858
2928,0.0149,-0.0138,-0.0439,-0.27,1.73,6.06,0.263,0.938,3.682,-11.609
2937,0.0117,-0.0145,-0.0435,-0.29,1.71,5.94,0.263,1.053,4.750,-10.346
2947,0.0070,-0.0139,-0.0430,-0.29,1.69,5.82,0.263,0.772,5.527,-11.251
2958,0.0064,-0.0131,-0.0426,-0.28,1.64,5.71,0.263,-1.380,7.133,-9.955
2968,-0.0015,-0.0131,-0.0422,-0.27,1.61,5.60,0.260,1.954,6.950,-11.310
2977,-0.0029,-0.0163,-0.0451,-0.23,1.55,5.49,0.260,-0.804,8.632,-10.175
2987,-0.0084,-0.0156,-0.0444,-0.24,1.49,5.37,0.260,-0.785,9.113,-11.470
2997,-0.0113,-0.0152,-0.0440,-0.23,1.41,5.26,0.260,-0.205,9.973,-10.485
3008,-0.0139,-0.0144,-0.0438,-0.23,1.32,5.16,0.262,-2.271,11.703,-10.846
3017,-0.0139,-0.0171,-0.0435,-0.22,1.22,5.05,0.262,-3.218,11.834,-10.931
3027,-0.0158,-0.0181,-0.0365,-0.23,1.11,4.94,0.262,-2.992,12.383,-10.118
3037,-0.0176,-0.0115,-0.0357,-0.29,0.99,4.83,0.262,-3.494,12.352,-9.184
3047,-0.0213,-0.0233,-0.0346,-0.25,0.89,4.72,0.262,-3.187,12.134,-10.252
3057,-0.0239,-0.0218,-0.0334,-0.30,0.77,4.62,0.262,-2.313,11.310,-10.739
3067,-0.0253,-0.0214,-0.0315,-0.33,0.65,4.52,0.260,-2.341,11.177,-9.562
3078,-0.0291,-0.0237,-0.0249,-0.35,0.55,4.42,0.260,-3.600,10.317,-9.497
3087,-0.0292,-0.0220,-0.0228,-0.38,0.43,4.32,0.260,-0.807,9.721,-9.357
3097,-0.0309,-0.0205,-0.0206,-0.41,0.32,4.22,0.260,0.815,8.566,-9.541
3107,-0.0306,-0.0190,-0.0183,-0.42,0.22,4.13,0.259,1.599,9.003,-9.354
3117,-0.0340,-0.0178,-0.0156,-0.43,0.14,4.03,0.259,-0.244,8.444,-7.818
3128,-0.0352,-0.0203,-0.0111,-0.40,0.06,3.93,0.259,2.458,7.659,-8.065
3138,-0.0363,-0.0194,-0.0091,-0.38,-0.03,3.85,0.259,3.457,7.204,-7.506
3147,-0.0383,-0.0219,-0.0072,-0.36,-0.09,3.76,0.259,2.990,7.874,-7.469
3158,-0.0381,-0.0212,-0.0052,-0.32,-0.17,3.68,0.257,2.315,7.839,-6.829
3168,-0.0391,-0.0187,-0.0033,-0.30,-0.24,3.61,0.257,2.344,8.474,-6.686
3177,-0.0396,-0.0181,-0.0038,-0.28,-0.32,3.54,0.257,2.523,8.889,-6.758
3187,-0.0385,-0.0176,-0.0021,-0.24,-0.40,3.47,0.257,3.289,8.983,-7.014
3197,-0.0353,-0.0185,-0.0004,-0.20,-0.49,3.40,0.257,0.064,8.379,-5.832
3207,-0.0355,-0.0177,0.0014,-0.19,-0.57,3.33,0.255,-2.644,8.715,-5.931
3217,-0.0356,-0.0154,0.0031,-0.19,-0.66,3.27,0.255,-0.013,8.808,-6.243
3227,-0.0370,-0.0165,-0.0013,-0.18,-0.73,3.21,0.255,1.333,8.674,-6.493
3238,-0.0352,-0.0152,-0.0001,-0.20,-0.81,3.14,0.255,-1.455,6.834,-6.213
3247,-0.0332,-0.0141,0.0014,-0.22,-0.90,3.08,0.255,0.194,6.308,-6.996
3257,-0.0327,-0.0135,0.0034,-0.22,-0.97,3.01,0.257,2.317,6.505,-7.383
3267,-0.0306,-0.0125,0.0054,-0.23,-1.04,2.95,0.257,0.994,5.053,-7.100
3278,-0.0286,-0.0135,0.0086,-0.21,-1.10,2.88,0.257,3.584,5.326,-7.779
3287,-0.0298,-0.0146,0.0106,-0.19,-1.14,2.81,0.257,1.083,3.720,-7.504
3297,-0.0261,-0.0156,0.0123,-0.16,-1.20,2.74,0.257,1.754,2.224,-7.495
3307,-0.0240,-0.0153,0.0139,-0.14,-1.25,2.66,0.259,0.094,1.340,-7.142
3318,-0.0206,-0.0130,0.0157,-0.13,-1.30,2.59,0.259,-0.463,1.341,-6.503
3327,-0.0223,-0.0127,0.0210,-0.12,-1.30,2.52,0.259,-0.513,-0.283,-6.271
3337,-0.0192,-0.0136,0.0227,-0.11,-1.31,2.45,0.259,-0.579,0.208,-7.167
3347,-0.0144,-0.0143,0.0247,-0.11,-1.33,2.39,0.259,-1.023,-2.122,-6.100
3357,-0.0100,-0.0150,0.0266,-0.12,-1.35,2.32,0.260,-0.389,-0.472,-6.480
3367,-0.0076,-0.0147,0.0287,-0.12,-1.34,2.26,0.260,-0.178,-1.566,-5.561
3377,-0.0070,-0.0136,0.0318,-0.15,-1.31,2.19,0.260,-0.571,-2.036,-6.354
3387,-0.0079,-0.0130,0.0335,-0.16,-1.28,2.13,0.260,4.313,-1.415,-6.264
3397,-0.0023,-0.0121,0.0352,-0.17,-1.28,2.08,0.260,4.795,-4.193,-6.014
3407,-0.0001,-0.0117,0.0372,-0.15,-1.27,2.01,0.265,2.960,-5.461,-5.881
3417,0.0019,-0.0134,0.0386,-0.10,-1.24,1.95,0.265,3.847,-6.817,-5.645
3427,0.0052,-0.0135,0.0478,-0.05,-1.20,1.89,0.265,4.231,-7.239,-6.706
3437,0.0048,-0.0152,0.0487,0.01,-1.13,1.83,0.265,3.149,-6.537,-5.585
3447,0.0072,-0.0135,0.0493,0.05,-1.07,1.77,0.265,2.403,-7.014,-5.533
3457,0.0091,-0.0135,0.0499,0.09,-1.00,1.71,0.265,1.609,-6.681,-5.135
3468,0.0110,-0.0136,0.0499,0.11,-0.93,1.64,0.265,-0.368,-6.495,-5.644
3477,0.0147,-0.0154,0.0477,0.14,-0.87,1.59,0.265,-2.940,-6.962,-4.765
3488,0.0162,-0.0156,0.0467,0.14,-0.80,1.54,0.265,-1.902,-6.691,-4.398
3498,0.0177,-0.0152,0.0457,0.13,-0.73,1.49,0.265,-3.131,-6.585,-4.639
3507,0.0192,-0.0144,0.0449,0.09,-0.67,1.45,0.265,-4.204,-7.626,-4.828
3517,0.0204,-0.0145,0.0444,0.07,-0.60,1.40,0.265,-4.219,-6.941,-3.982
3527,0.0214,-0.0146,0.0395,0.03,-0.53,1.36,0.265,-2.895,-6.619,-4.282
3537,0.0224,-0.0191,0.0399,0.02,-0.47,1.31,0.265,-3.019,-6.988,-4.365
3547,0.0232,-0.0191,0.0402,-0.01,-0.40,1.28,0.265,-1.295,-7.002,-4.247
3557,0.0222,-0.0217,0.0401,-0.03,-0.32,1.23,0.265,-1.201,-7.159,-3.663
3567,0.0208,-0.0186,0.0402,-0.06,-0.24,1.19,0.268,-0.565,-7.173,-3.851
3577,0.0270,-0.0230,0.0385,-0.05,-0.20,1.15,0.268,-0.864,-6.724,-3.487
3587,0.0273,-0.0237,0.0380,-0.06,-0.13,1.12,0.268,-0.032,-7.013,-3.494
3597,0.0275,-0.0236,0.0368,-0.07,-0.06,1.08,0.268,0.423,-6.956,-3.279
3607,0.0295,-0.0227,0.0352,-0.08,-0.01,1.05,0.269,0.409,-6.656,-3.329
3617,0.0277,-0.0259,0.0334,-0.05,0.06,1.02,0.269,-0.693,-5.417,-3.246
3627,0.0274,-0.0232,0.0304,-0.05,0.13,0.98,0.269,-1.772,-5.166,-3.880
3637,0.0272,-0.0260,0.0301,-0.04,0.18,0.95,0.269,-0.888,-4.513,-3.360
3647,0.0252,-0.0266,0.0298,-0.05,0.25,0.92,0.269,-2.226,-4.643,-3.593
3657,0.0249,-0.0254,0.0300,-0.07,0.30,0.88,0.266,-2.988,-4.790,-3.143
3667,0.0245,-0.0240,0.0305,-0.10,0.35,0.85,0.266,-2.773,-4.467,-3.475
3677,0.0241,-0.0243,0.0185,-0.13,0.40,0.82,0.266,-3.730,-3.347,-3.402
3687,0.0218,-0.0261,0.0185,-0.15,0.46,0.79,0.266,-4.557,-3.810,-2.907
3697,0.0211,-0.0259,0.0177,-0.19,0.50,0.75,0.266,-4.678,-2.808,-2.620
3707,0.0202,-0.0256,0.0163,-0.24,0.54,0.72,0.273,-3.694,-1.187,-3.370
3717,0.0182,-0.0256,0.0147,-0.28,0.57,0.69,0.273,-2.575,-0.278,-3.795
3727,0.0199,-0.0274,0.0204,-0.30,0.58,0.66,0.273,-0.986,-0.138,-4.745
3737,0.0181,-0.0291,0.0195,-0.32,0.60,0.62,0.273,-1.378,0.518,-4.946
3747,0.0145,-0.0273,0.0194,-0.35,0.62,0.58,0.273,-0.222,1.201,-5.852
3757,0.0134,-0.0267,0.0202,-0.36,0.62,0.53,0.270,-0.033,1.903,-6.345
3766,0.0121,-0.0323,0.0209,-0.33,0.61,0.48,0.270,-0.256,3.098,-6.462
3776,0.0127,-0.0306,0.0164,-0.34,0.58,0.41,0.270,-2.182,2.966,-6.918
3787,0.0117,-0.0300,0.0162,-0.34,0.56,0.35,0.270,-3.058,3.138,-7.308
3797,0.0109,-0.0303,0.0149,-0.35,0.53,0.28,0.270,-3.624,2.894,-7.318
3806,0.0101,-0.0320,0.0131,-0.36,0.50,0.21,0.272,-5.323,2.265,-7.441
3818,0.0075,-0.0298,0.0115,-0.41,0.48,0.14,0.272,-5.871,2.806,-8.026
3826,0.0069,-0.0294,0.0110,-0.45,0.46,0.06,0.272,-6.434,1.692,-8.572
3837,0.0061,-0.0286,0.0103,-0.51,0.43,-0.02,0.272,-4.662,1.928,-9.194
3847,0.0074,-0.0277,0.0100,-0.57,0.40,-0.10,0.272,-3.835,3.004,-8.980
3856,0.0048,-0.0285,0.0101,-0.61,0.40,-0.19,0.269,-2.691,3.162,-9.298
3866,0.0025,-0.0276,0.0105,-0.66,0.38,-0.28,0.269,-1.169,4.195,-9.937
3877,0.0022,-0.0269,0.0028,-0.70,0.35,-0.37,0.269,-0.542,5.068,-9.844
3887,0.0003,-0.0263,0.0030,-0.72,0.32,-0.47,0.269,-0.637,5.214,-10.064
3897,0.0004,-0.0259,0.0027,-0.73,0.28,-0.56,0.269,1.375,5.690,-10.349
3906,-0.0011,-0.0239,0.0021,-0.73,0.23,-0.67,0.272,2.951,5.815,-10.523
3917,-0.0015,-0.0227,0.0009,-0.73,0.18,-0.77,0.272,1.128,5.950,-10.527
3927,-0.0018,-0.0213,0.0018,-0.71,0.12,-0.89,0.272,3.554,5.751,-11.380
3937,-0.0031,-0.0217,0.0009,-0.68,0.07,-1.00,0.272,0.660,3.948,-11.124
3946,-0.0032,-0.0205,-0.0002,-0.66,0.01,-1.11,0.272,0.265,3.032,-11.522
3957,-0.0024,-0.0211,-0.0014,-0.63,-0.03,-1.22,0.271,1.071,5.684,-12.368
3967,-0.0023,-0.0200,-0.0023,-0.63,-0.06,-1.33,0.271,1.783,4.508,-12.772
3977,-0.0074,-0.0201,-0.0037,-0.62,-0.07,-1.45,0.271,0.813,2.787,-12.051
3987,-0.0061,-0.0206,-0.0036,-0.59,-0.13,-1.57,0.271,2.104,4.530,-13.478
3997,-0.0088,-0.0210,-0.0037,-0.57,-0.15,-1.70,0.271,2.510,2.045,-13.572
4007,-0.0077,-0.0216,-0.0042,-0.55,-0.19,-1.83,0.271,3.606,2.002,-13.564
4017,-0.0074,-0.0206,-0.0041,-0.52,-0.21,-1.97,0.271,2.852,2.698,-12.967
4027,-0.0070,-0.0198,-0.0042,-0.49,-0.25,-2.10,0.271,1.327,3.773,-13.689
4037,-0.0071,-0.0207,-0.0043,-0.46,-0.27,-2.23,0.271,0.095,2.649,-13.537
4047,-0.0066,-0.0199,-0.0040,-0.43,-0.31,-2.37,0.271,-1.115,2.751,-14.210
4057,-0.0073,-0.0184,-0.0035,-0.43,-0.33,-2.50,0.271,-1.476,2.205,-14.024
4066,-0.0079,-0.0168,-0.0031,-0.45,-0.36,-2.64,0.272,-1.423,2.037,-13.840
4076,-0.0049,-0.0171,0.0000,-0.46,-0.38,-2.77,0.272,-2.017,1.880,-13.868
4086,-0.0042,-0.0164,0.0006,-0.48,-0.40,-2.92,0.272,-1.105,1.796,-14.084
4096,-0.0049,-0.0147,0.0008,-0.50,-0.41,-3.05,0.272,-1.431,1.855,-13.758
4106,-0.0042,-0.0139,0.0014,-0.52,-0.42,-3.19,0.274,-0.085,2.080,-13.443
4117,-0.0034,-0.0130,0.0018,-0.54,-0.44,-3.33,0.274,-0.109,2.019,-13.067
4126,-0.0025,-0.0121,0.0076,-0.54,-0.47,-3.47,0.274,2.105,1.433,-13.150
4136,-0.0035,-0.0149,0.0080,-0.52,-0.47,-3.60,0.274,1.943,0.366,-13.016
4147,-0.0027,-0.0141,0.0085,-0.51,-0.49,-3.73,0.274,3.694,-0.267,-12.247
4157,-0.0018,-0.0132,0.0086,-0.49,-0.49,-3.86,0.274,2.613,-1.964,-12.200
4166,-0.0007,-0.0102,0.0085,-0.48,-0.49,-3.98,0.274,0.955,-1.632,-11.754
4176,-0.0003,-0.0160,0.0108,-0.42,-0.48,-4.10,0.274,1.409,-1.884,-11.935
4186,0.0006,-0.0154,0.0103,-0.41,-0.47,-4.22,0.274,2.760,-3.156,-11.586
4196,0.0033,-0.0126,0.0094,-0.39,-0.46,-4.34,0.274,5.039,-2.129,-9.948
4206,0.0041,-0.0120,0.0088,-0.38,-0.43,-4.45,0.272,4.515,-3.430,-10.546
4217,0.0018,-0.0136,0.0080,-0.32,-0.39,-4.55,0.272,1.682,-2.700,-8.940
4227,0.0021,-0.0115,0.0033,-0.28,-0.35,-4.65,0.272,-1.048,-3.343,-9.694
4237,0.0014,-0.0196,0.0025,-0.21,-0.32,-4.75,0.272,-3.417,-2.951,-8.348
4247,0.0017,-0.0146,0.0020,-0.24,-0.28,-4.84,0.272,-1.886,-4.021,-7.917
4257,0.0037,-0.0136,0.0019,-0.27,-0.26,-4.93,0.272,-0.689,-3.326,-7.256
4266,0.0052,-0.0163,0.0022,-0.28,-0.22,-5.01,0.272,1.372,-2.431,-6.976
4276,0.0046,-0.0171,-0.0001,-0.27,-0.18,-5.08,0.272,2.646,-1.690,-7.196
4286,0.0062,-0.0163,-0.0001,-0.26,-0.16,-5.15,0.272,-4.432,-1.209,-7.507
4296,0.0120,-0.0140,-0.0001,-0.25,-0.17,-5.22,0.272,-3.070,-0.618,-6.627
4307,0.0172,-0.0157,-0.0001,-0.27,-0.19,-5.29,0.274,-1.585,0.537,-4.508
4317,0.0111,-0.0135,0.0001,-0.32,-0.14,-5.36,0.274,-5.776,-0.068,-4.179
4327,0.0167,-0.0128,0.0035,-0.34,-0.17,-5.41,0.274,-3.993,-0.518,-3.948
4336,0.0141,-0.0156,0.0035,-0.32,-0.16,-5.41,0.274,-1.789,-2.213,-3.805
4346,0.0138,-0.0154,0.0044,-0.36,-0.16,-5.45,0.274,-6.146,-2.958,-3.766
4356,0.0137,-0.0150,0.0059,-0.43,-0.14,-5.53,0.274,-2.915,-3.452,-3.815
4366,0.0137,-0.0150,0.0059,-0.43,-0.14,-5.53,0.271,-0.138,-4.617,-4.355
4376,0.0146,-0.0167,0.0012,-0.46,-0.12,-5.57,0.271,-3.728,-5.911,-3.139
4387,0.0155,-0.0171,0.0015,-0.50,-0.09,-5.61,0.271,-1.581,-5.238,-3.349
4396,0.0163,-0.0157,0.0017,-0.50,-0.05,-5.65,0.271,-1.772,-5.245,-2.580
4406,0.0169,-0.0138,0.0018,-0.53,0.01,-5.69,0.275,-4.991,-4.256,-1.818
4417,0.0155,-0.0141,0.0016,-0.55,0.07,-5.72,0.275,-5.234,-4.161,-1.512
4426,0.0139,-0.0141,0.0068,-0.55,0.14,-5.74,0.275,-4.296,-3.384,-1.599
4436,0.0146,-0.0119,0.0065,-0.60,0.18,-5.76,0.275,-4.347,-3.697,-0.672
4446,0.0149,-0.0117,0.0061,-0.65,0.23,-5.77,0.275,-1.369,-3.083,0.417
4456,0.0172,-0.0098,0.0062,-0.70,0.25,-5.79,0.275,0.236,-3.182,0.406
4466,0.0152,-0.0099,0.0071,-0.76,0.33,-5.80,0.275,-2.117,-2.782,0.378
4476,0.0152,-0.0099,0.0096,-0.76,0.33,-5.80,0.275,-3.137,-3.392,1.292
4486,0.0171,-0.0123,0.0103,-0.74,0.35,-5.79,0.275,-3.945,-2.757,1.134
4496,0.0143,-0.0079,0.0123,-0.78,0.42,-5.78,0.275,-1.125,-4.027,1.175
4506,0.0143,-0.0079,0.0123,-0.78,0.42,-5.78,0.273,-3.586,-2.977,1.070
4516,0.0163,-0.0079,0.0128,-0.81,0.44,-5.77,0.273,-0.054,-2.628,1.873
4526,0.0180,-0.0061,0.0088,-0.84,0.49,-5.74,0.273,-2.979,-3.051,1.749
4537,0.0182,-0.0045,0.0089,-0.86,0.52,-5.72,0.273,-1.267,-2.370,1.540
4546,0.0182,-0.0045,0.0089,-0.86,0.52,-5.72,0.273,-0.005,-1.993,1.941
4556,0.0175,-0.0030,0.0088,-0.88,0.55,-5.71,0.278,1.595,-3.410,2.089
4566,0.0159,0.0005,0.0082,-0.89,0.59,-5.67,0.278,3.449,-2.140,1.773
4576,0.0159,0.0006,0.0159,-0.89,0.59,-5.67,0.278,1.152,-2.010,1.764
4586,0.0159,0.0021,0.0161,-0.89,0.62,-5.65,0.278,1.222,-1.590,1.185
4596,0.0150,0.0037,0.0164,-0.87,0.65,-5.64,0.278,4.263,-0.493,1.523
4606,0.0141,0.0053,0.0165,-0.86,0.66,-5.62,0.275,0.801,-0.987,1.585
4616,0.0133,0.0072,0.0176,-0.82,0.68,-5.58,0.275,4.673,-0.650,1.945
4626,0.0136,0.0082,0.0141,-0.79,0.68,-5.57,0.275,6.751,0.174,2.019
4636,0.0136,0.0082,0.0141,-0.79,0.68,-5.57,0.275,4.089,-0.759,2.121
4646,0.0125,0.0097,0.0146,-0.76,0.69,-5.55,0.275,3.698,-0.016,1.751
4656,0.0115,0.0111,0.0149,-0.70,0.69,-5.53,0.275,2.369,-0.917,1.863
4666,0.0104,0.0124,0.0150,-0.66,0.70,-5.51,0.275,1.287,-1.018,1.245
4676,0.0081,0.0179,0.0110,-0.61,0.71,-5.47,0.275,1.147,-0.692,2.326
4687,0.0081,0.0179,0.0110,-0.61,0.71,-5.47,0.275,3.993,-1.339,2.111
4696,0.0070,0.0190,0.0108,-0.59,0.72,-5.45,0.275,7.125,-0.456,2.397
4706,0.0059,0.0201,0.0104,-0.58,0.72,-5.44,0.276,5.684,-0.826,2.047
4716,0.0044,0.0216,0.0102,-0.54,0.74,-5.42,0.276,5.674,-0.515,1.383
4727,0.0042,0.0258,0.0097,-0.41,0.74,-5.38,0.276,2.802,0.347,1.372
4736,0.0042,0.0258,0.0097,-0.41,0.74,-5.38,0.276,6.640,-0.495,0.785
4746,0.0030,0.0266,0.0105,-0.36,0.74,-5.36,0.276,5.882,1.732,1.914
4756,0.0041,0.0276,0.0113,-0.33,0.72,-5.35,0.276,3.859,3.461,1.828
4766,-0.0018,0.0241,0.0124,-0.25,0.74,-5.34,0.276,6.624,1.892,-0.498
4776,-0.0026,0.0247,0.0112,-0.17,0.73,-5.32,0.276,6.756,3.450,1.743
4786,-0.0029,0.0257,0.0119,-0.12,0.70,-5.31,0.276,9.037,2.130,-0.369
4796,-0.0041,0.0260,0.0128,-0.07,0.68,-5.31,0.276,11.717,4.346,0.302
4806,-0.0053,0.0262,0.0135,-0.00,0.65,-5.30,0.277,8.279,2.690,-0.529
4816,-0.0061,0.0278,0.0136,0.19,0.58,-5.29,0.277,5.891,4.778,1.478
4826,-0.0060,0.0291,0.0133,0.25,0.54,-5.29,0.277,5.873,2.905,-1.477
4836,-0.0058,0.0287,0.0133,0.32,0.49,-5.28,0.277,4.909,5.165,0.260
4846,-0.0079,0.0284,0.0138,0.38,0.46,-5.29,0.277,1.440,5.927,0.772
4856,-0.0079,0.0284,0.0138,0.38,0.46,-5.29,0.277,0.644,6.866,-0.222
4865,-0.0088,0.0278,0.0147,0.42,0.42,-5.29,0.278,1.929,7.298,-0.694
4876,-0.0096,0.0271,0.0163,0.45,0.35,-5.28,0.278,2.563,6.248,-3.078
4886,-0.0127,0.0300,0.0176,0.44,0.29,-5.28,0.278,0.305,4.135,-3.126
4896,-0.0144,0.0270,0.0196,0.48,0.16,-5.31,0.278,1.172,5.071,-2.292
4906,-0.0144,0.0270,0.0196,0.48,0.16,-5.31,0.280,1.317,4.974,-2.902
4916,-0.0167,0.0216,0.0206,0.51,0.07,-5.36,0.280,-0.116,4.802,-2.731
4926,-0.0168,0.0216,0.0233,0.51,0.07,-5.36,0.280,1.702,5.600,-3.287
4936,-0.0176,0.0200,0.0236,0.52,0.02,-5.39,0.280,2.939,4.652,-3.095
4946,-0.0161,0.0203,0.0237,0.52,-0.03,-5.41,0.280,2.371,4.856,-3.204
4956,-0.0149,0.0163,0.0239,0.55,-0.10,-5.44,0.277,3.994,6.067,-3.538
4966,-0.0177,0.0146,0.0246,0.58,-0.13,-5.47,0.277,2.122,5.647,-3.891
4976,-0.0160,0.0146,0.0176,0.60,-0.18,-5.50,0.277,3.251,5.602,-4.173
4986,-0.0158,0.0136,0.0182,0.63,-0.24,-5.53,0.277,0.255,5.789,-4.424
4996,-0.0162,0.0096,0.0185,0.66,-0.29,-5.57,0.277,-2.586,7.442,-3.635
5006,-0.0158,0.0085,0.0187,0.69,-0.35,-5.61,0.280,-1.421,5.389,-4.698
5016,-0.0157,0.0071,0.0187,0.69,-0.41,-5.65,0.280,-4.054,6.464,-3.821
5026,-0.0138,0.0019,0.0186,0.69,-0.49,-5.69,0.280,-6.125,4.015,-3.740
5036,-0.0131,0.0006,0.0186,0.68,-0.55,-5.73,0.280,-6.965,2.570,-3.821
5046,-0.0126,0.0003,0.0190,0.64,-0.62,-5.77,0.280,-4.995,2.487,-4.113
5056,-0.0150,-0.0037,0.0195,0.60,-0.65,-5.81,0.282,-5.253,1.195,-3.601
5066,-0.0090,-0.0041,0.0200,0.53,-0.70,-5.84,0.282,-3.668,2.105,-3.830
5076,-0.0089,-0.0040,0.0230,0.46,-0.72,-5.88,0.282,-4.258,1.914,-3.231
5086,-0.0110,-0.0036,0.0234,0.41,-0.72,-5.92,0.282,-3.918,-0.148,-2.798
5095,-0.0076,-0.0098,0.0234,0.39,-0.76,-5.95,0.282,-4.165,-0.793,-2.674
5106,-0.0064,-0.0106,0.0240,0.35,-0.78,-5.98,0.283,-5.761,-0.852,-2.523
5116,-0.0051,-0.0123,0.0248,0.31,-0.79,-6.01,0.283,-4.324,-0.848,-3.477
5125,-0.0038,-0.0129,0.0263,0.26,-0.78,-6.04,0.283,-4.491,-1.703,-3.384
5135,-0.0025,-0.0141,0.0266,0.21,-0.77,-6.06,0.283,-5.207,-2.110,-3.797
5146,0.0025,-0.0158,0.0264,0.16,-0.79,-6.10,0.283,-7.267,-2.534,-2.798
5156,0.0033,-0.0168,0.0265,0.12,-0.77,-6.13,0.286,-6.919,-3.103,-2.728
5165,0.0036,-0.0214,0.0270,0.09,-0.75,-6.17,0.286,-7.532,-3.505,-3.002
5176,0.0044,-0.0218,0.0313,0.02,-0.72,-6.20,0.286,-8.082,-5.410,-2.720
5186,0.0049,-0.0220,0.0317,-0.04,-0.69,-6.23,0.286,-8.655,-5.501,-2.897
5196,0.0053,-0.0219,0.0314,-0.12,-0.66,-6.26,0.286,-8.253,-5.820,-2.485
5206,0.0072,-0.0218,0.0308,-0.20,-0.61,-6.28,0.287,-8.528,-5.437,-1.835
5215,0.0072,-0.0213,0.0300,-0.28,-0.55,-6.31,0.287,-8.165,-4.583,-1.940
5225,0.0069,-0.0226,0.0307,-0.36,-0.48,-6.33,0.287,-8.078,-4.002,-1.736
5236,0.0081,-0.0255,0.0306,-0.43,-0.43,-6.35,0.287,-6.160,-3.592,-1.778
5246,0.0119,-0.0215,0.0304,-0.53,-0.39,-6.37,0.287,-5.357,-3.463,-1.494
5255,0.0126,-0.0207,0.0297,-0.61,-0.35,-6.39,0.286,-3.851,-3.416,-1.039
5266,0.0139,-0.0218,0.0289,-0.66,-0.31,-6.40,0.286,-3.266,-2.900,-0.892
5276,0.0149,-0.0248,0.0238,-0.69,-0.28,-6.41,0.286,-3.565,-2.380,-0.951
5285,0.0163,-0.0243,0.0236,-0.74,-0.25,-6.42,0.286,-0.763,-1.599,-0.606
5296,0.0168,-0.0231,0.0231,-0.77,-0.22,-6.43,0.286,-1.169,-1.835,-0.111
5306,0.0217,-0.0229,0.0225,-0.80,-0.22,-6.44,0.292,0.849,-1.808,-0.178
5315,0.0207,-0.0260,0.0217,-0.80,-0.19,-6.44,0.292,1.579,-1.521,-0.273
5325,0.0213,-0.0247,0.0287,-0.81,-0.17,-6.44,0.292,-2.809,-3.089,0.272
5335,0.0218,-0.0232,0.0282,-0.81,-0.15,-6.45,0.292,-1.899,-4.094,-0.062
5346,0.0228,-0.0236,0.0278,-0.80,-0.14,-6.44,0.292,-0.922,-4.073,0.024
5356,0.0232,-0.0222,0.0272,-0.82,-0.11,-6.44,0.289,2.153,-5.076,-0.210
5365,0.0242,-0.0201,0.0264,-0.84,-0.06,-6.44,0.289,-4.023,-6.601,0.140
5375,0.0266,-0.0201,0.0203,-0.84,-0.04,-6.44,0.289,-2.689,-7.879,0.091
5386,0.0266,-0.0224,0.0198,-0.81,0.01,-6.44,0.289,-0.646,-9.660,0.379
5395,0.0267,-0.0195,0.0192,-0.84,0.08,-6.44,0.289,-1.231,-9.720,0.380
5406,0.0268,-0.0181,0.0183,-0.87,0.16,-6.44,0.292,-0.865,-9.334,-0.318
5416,0.0299,-0.0164,0.0172,-0.89,0.23,-6.43,0.292,0.655,-9.676,0.575
5425,0.0291,-0.0141,0.0180,-0.89,0.33,-6.43,0.292,2.983,-7.589,0.988
5436,0.0302,-0.0122,0.0172,-0.90,0.42,-6.43,0.292,1.080,-7.675,0.942
5445,0.0292,-0.0106,0.0165,-0.90,0.52,-6.42,0.292,-0.954,-5.235,1.297
5455,0.0283,-0.0073,0.0158,-0.88,0.59,-6.41,0.292,-0.005,-4.442,-0.130
5465,0.0290,-0.0078,0.0150,-0.86,0.66,-6.40,0.292,0.381,-2.717,0.291
5475,0.0264,-0.0091,0.0130,-0.85,0.72,-6.39,0.292,0.722,-3.056,1.196
5486,0.0254,-0.0075,0.0123,-0.85,0.77,-6.39,0.292,5.191,-2.583,0.386
5496,0.0250,-0.0041,0.0118,-0.86,0.79,-6.38,0.292,6.093,-3.115,-0.192
5505,0.0244,-0.0027,0.0113,-0.85,0.82,-6.37,0.290,10.289,-1.708,-0.539
5515,0.0237,-0.0022,0.0105,-0.81,0.85,-6.37,0.290,8.042,-2.040,-0.046
5525,0.0224,-0.0007,0.0033,-0.74,0.88,-6.37,0.290,5.697,-0.528,-0.281
5535,0.0217,-0.0007,0.0025,-0.65,0.90,-6.37,0.290,4.712,-1.161,-1.145
5545,0.0194,0.0015,0.0018,-0.57,0.93,-6.37,0.290,4.364,-2.441,-0.431
5555,0.0212,0.0050,0.0014,-0.53,0.92,-6.38,0.290,2.918,0.156,-1.176
5566,0.0197,0.0060,0.0007,-0.48,0.93,-6.39,0.288,1.662,-0.680,-1.531
5576,0.0183,0.0069,-0.0083,-0.43,0.95,-6.40,0.288,1.538,0.614,-1.721
5585,0.0167,0.0079,-0.0089,-0.40,0.95,-6.40,0.288,2.607,0.863,-1.969
5595,0.0152,0.0087,-0.0093,-0.38,0.95,-6.42,0.288,2.224,1.354,-2.028
5605,0.0135,0.0110,-0.0096,-0.37,0.95,-6.44,0.289,2.066,1.175,-2.269
5615,0.0120,0.0118,-0.0100,-0.34,0.94,-6.46,0.289,2.750,2.257,-2.758
5625,0.0105,0.0125,-0.0117,-0.32,0.93,-6.47,0.289,4.786,2.254,-2.905
5636,0.0089,0.0132,-0.0116,-0.30,0.92,-6.50,0.289,6.136,1.300,-2.497
5645,0.0076,0.0148,-0.0115,-0.26,0.90,-6.53,0.289,4.230,4.334,-3.524
5655,0.0061,0.0154,-0.0115,-0.21,0.88,-6.56,0.289,4.713,3.237,-2.743
5665,0.0028,0.0164,-0.0116,-0.14,0.87,-6.58,0.291,4.718,4.655,-3.076
5675,0.0013,0.0169,-0.0065,-0.09,0.83,-6.62,0.291,6.167,2.548,-3.062
5685,-0.0001,0.0172,-0.0059,-0.05,0.79,-6.65,0.291,4.147,4.223,-2.938
5695,-0.0030,0.0161,-0.0056,0.01,0.75,-6.68,0.291,4.357,4.374,-2.231
5706,-0.0043,0.0163,-0.0053,0.07,0.72,-6.71,0.291,6.404,6.523,-2.915
5715,-0.0064,0.0172,-0.0050,0.12,0.67,-6.74,0.291,3.841,5.448,-2.664
5725,-0.0076,0.0172,-0.0015,0.16,0.62,-6.76,0.291,4.959,7.411,-2.497
5735,-0.0087,0.0170,-0.0011,0.22,0.56,-6.79,0.291,2.318,6.246,-2.530
5745,-0.0103,0.0176,-0.0008,0.26,0.51,-6.81,0.291,1.511,5.913,-2.090
5755,-0.0119,0.0158,-0.0003,0.31,0.43,-6.84,0.289,0.816,7.024,-1.994
5765,-0.0131,0.0167,0.0000,0.32,0.37,-6.86,0.289,-0.117,6.830,-0.633
5776,-0.0138,0.0162,-0.0020,0.34,0.31,-6.88,0.289,0.683,8.844,-0.626
5785,-0.0176,0.0110,-0.0014,0.37,0.26,-6.90,0.289,-0.671,5.737,-0.050
5795,-0.0181,0.0103,-0.0005,0.37,0.18,-6.91,0.289,-0.063,8.285,-0.113
5805,-0.0184,0.0093,0.0002,0.39,0.09,-6.92,0.291,-1.566,5.921,0.189
5815,-0.0214,0.0090,0.0007,0.38,0.04,-6.92,0.291,-1.353,7.355,1.031
5825,-0.0216,0.0084,0.0043,0.38,-0.03,-6.92,0.291,-1.711,5.793,0.277
5835,-0.0219,0.0077,0.0050,0.37,-0.10,-6.92,0.291,-0.640,5.171,0.829
5845,-0.0199,0.0047,0.0056,0.37,-0.18,-6.91,0.291,-1.588,7.074,0.740
5855,-0.0198,0.0043,0.0064,0.35,-0.24,-6.91,0.292,-5.193,6.212,1.212
5865,-0.0226,0.0025,0.0071,0.35,-0.28,-6.90,0.292,-6.170,4.886,1.107
5875,-0.0222,0.0018,0.0114,0.33,-0.35,-6.89,0.292,-3.051,5.202,0.975
5885,-0.0203,-0.0012,0.0124,0.30,-0.42,-6.88,0.292,-5.980,4.109,2.494
5895,-0.0196,-0.0018,0.0132,0.25,-0.47,-6.86,0.292,-3.318,4.459,2.000
5905,-0.0181,-0.0028,0.0139,0.22,-0.54,-6.85,0.289,-2.642,3.563,2.437
5915,-0.0172,-0.0033,0.0145,0.17,-0.58,-6.82,0.289,-2.705,3.134,2.985
5925,-0.0170,-0.0051,0.0088,0.15,-0.62,-6.80,0.289,-5.139,2.622,3.169
5935,-0.0170,-0.0063,0.0091,0.12,-0.66,-6.78,0.289,-5.513,1.501,3.018
5945,-0.0153,-0.0099,0.0099,0.10,-0.69,-6.75,0.289,-6.144,2.066,3.445
5955,-0.0172,-0.0106,0.0107,0.05,-0.71,-6.71,0.287,-7.101,1.198,3.974
5965,-0.0134,-0.0117,0.0115,0.00,-0.74,-6.68,0.287,-9.776,-0.762,4.853
5975,-0.0122,-0.0119,0.0029,-0.06,-0.76,-6.64,0.287,-8.595,-0.895,5.662
5984,-0.0127,-0.0135,0.0034,-0.13,-0.75,-6.60,0.287,-8.275,-1.456,5.717
5995,-0.0114,-0.0134,0.0041,-0.22,-0.74,-6.55,0.287,-7.405,-0.836,6.333
6005,-0.0084,-0.0154,0.0050,-0.30,-0.74,-6.49,0.289,-7.448,-3.126,6.709
6015,-0.0071,-0.0150,0.0059,-0.39,-0.72,-6.43,0.289,-6.282,-3.346,6.864
6024,-0.0060,-0.0166,0.0053,-0.45,-0.72,-6.37,0.289,-3.804,-0.642,7.328
6035,-0.0052,-0.0161,0.0064,-0.53,-0.69,-6.30,0.289,-5.021,0.731,8.072
6045,-0.0045,-0.0177,0.0076,-0.57,-0.66,-6.23,0.289,-4.921,0.365,8.321
6055,-0.0032,-0.0175,0.0086,-0.61,-0.65,-6.16,0.289,-3.743,-0.204,8.361
6065,0.0018,-0.0178,0.0094,-0.66,-0.68,-6.08,0.292,-3.841,-2.180,7.822
6075,0.0031,-0.0168,0.0152,-0.70,-0.69,-6.00,0.292,-6.354,-1.791,8.563
6085,0.0040,-0.0184,0.0160,-0.72,-0.68,-5.91,0.292,-3.682,-3.155,7.795
6095,0.0053,-0.0173,0.0169,-0.75,-0.67,-5.83,0.292,-8.696,-3.435,9.487
6105,0.0040,-0.0160,0.0179,-0.81,-0.64,-5.75,0.291,-4.715,-3.814,9.141
6115,0.0052,-0.0148,0.0188,-0.86,-0.61,-5.67,0.291,-5.008,-2.864,8.985
6125,0.0064,-0.0134,0.0188,-0.94,-0.57,-5.57,0.291,-1.021,-3.461,8.897
6135,0.0086,-0.0128,0.0196,-0.98,-0.54,-5.48,0.291,-1.920,-1.772,9.423
6145,0.0097,-0.0112,0.0205,-1.02,-0.51,-5.39,0.291,-1.328,-2.390,8.993
6155,0.0107,-0.0095,0.0212,-1.04,-0.49,-5.30,0.291,-0.403,-3.467,9.208
6165,0.0136,-0.0152,0.0220,-1.01,-0.49,-5.20,0.292,-1.481,-3.719,8.947
6175,0.0145,-0.0135,0.0217,-1.03,-0.46,-5.11,0.292,-0.345,-3.865,8.860
6185,0.0155,-0.0118,0.0221,-1.04,-0.43,-5.02,0.292,0.043,-5.925,9.654
6195,0.0173,-0.0095,0.0224,-1.05,-0.39,-4.93,0.292,-0.999,-7.484,10.220
6205,0.0181,-0.0078,0.0229,-1.05,-0.35,-4.84,0.292,-0.695,-7.682,10.187
6215,0.0173,-0.0035,0.0232,-1.06,-0.28,-4.75,0.292,-1.963,-7.233,10.348
6225,0.0158,-0.0051,0.0203,-1.05,-0.20,-4.64,0.292,1.913,-3.881,10.517
6235,0.0163,-0.0034,0.0205,-1.06,-0.13,-4.54,0.292,1.210,-5.025,10.662
6245,0.0172,0.0007,0.0205,-1.09,-0.06,-4.43,0.292,1.773,-5.242,10.881
6254,0.0182,0.0020,0.0206,-1.07,-0.02,-4.32,0.295,4.484,-3.676,9.977
6265,0.0289,0.0027,0.0209,-1.06,-0.02,-4.22,0.295,2.584,-4.453,10.004
6275,0.0275,0.0063,0.0235,-1.04,0.04,-4.10,0.295,4.247,-3.016,9.887
6284,0.0276,0.0081,0.0234,-1.01,0.08,-4.00,0.295,3.730,-4.995,11.008
6295,0.0276,0.0098,0.0232,-0.98,0.11,-3.89,0.295,5.281,-4.245,10.252
6305,0.0279,0.0104,0.0234,-0.93,0.14,-3.79,0.298,6.041,-3.262,10.672
6314,0.0277,0.0120,0.0233,-0.89,0.19,-3.68,0.298,8.035,-3.334,10.355
6325,0.0282,0.0184,0.0292,-0.86,0.23,-3.58,0.298,8.925,-5.192,9.889
6335,0.0305,0.0178,0.0290,-0.78,0.24,-3.47,0.298,7.753,-7.071,10.336
6345,0.0305,0.0171,0.0287,-0.69,0.27,-3.36,0.298,7.228,-8.724,9.604
6354,0.0301,0.0183,0.0285,-0.60,0.32,-3.26,0.297,8.024,-7.492,9.537
6365,0.0297,0.0193,0.0285,-0.53,0.39,-3.16,0.297,9.753,-7.460,9.780
6375,0.0354,0.0243,0.0257,-0.48,0.44,-3.06,0.297,5.958,-7.404,10.318
6385,0.0302,0.0254,0.0252,-0.41,0.53,-2.96,0.297,8.805,-6.761,9.162
6394,0.0294,0.0262,0.0249,-0.31,0.61,-2.86,0.297,11.272,-6.375,9.153
6405,0.0305,0.0268,0.0243,-0.26,0.67,-2.76,0.299,10.817,-4.377,9.059
6415,0.0293,0.0289,0.0235,-0.17,0.74,-2.67,0.299,5.909,-2.375,9.165
6425,0.0263,0.0347,0.0236,-0.09,0.81,-2.58,0.299,4.847,-1.767,9.111
6434,0.0213,0.0343,0.0229,0.01,0.87,-2.49,0.299,6.728,-5.342,8.551
6445,0.0207,0.0346,0.0223,0.06,0.90,-2.39,0.299,6.520,-3.190,8.680
6455,0.0192,0.0345,0.0216,0.11,0.92,-2.30,0.299,8.230,-0.512,8.998
6464,0.0181,0.0320,0.0211,0.19,0.97,-2.21,0.296,6.215,-2.645,8.245
6474,0.0157,0.0334,0.0113,0.25,1.00,-2.13,0.296,10.242,0.431,7.968
6485,0.0132,0.0328,0.0109,0.32,1.01,-2.04,0.296,8.986,-2.628,8.353
6494,0.0126,0.0298,0.0104,0.41,1.03,-1.96,0.296,7.307,4.297,8.836
6504,0.0109,0.0292,0.0096,0.50,1.03,-1.87,0.299,7.494,0.458,8.001
6515,0.0085,0.0279,0.0090,0.58,1.04,-1.79,0.299,7.447,2.709,8.405
6525,0.0091,0.0268,0.0090,0.66,1.00,-1.70,0.299,3.514,2.794,7.536
6535,0.0091,0.0276,0.0084,0.71,0.98,-1.62,0.299,2.047,5.510,7.853
6544,0.0057,0.0244,0.0079,0.79,0.96,-1.53,0.299,-0.160,3.740,7.677
6555,0.0024,0.0220,0.0076,0.82,0.94,-1.46,0.299,3.656,1.289,7.372
6565,0.0035,0.0216,0.0071,0.83,0.88,-1.38,0.299,-2.281,4.488,8.315
6574,-0.0014,0.0214,0.0062,0.83,0.86,-1.30,0.299,-1.158,3.159,7.023
6584,-0.0025,0.0169,0.0063,0.87,0.84,-1.22,0.299,-1.168,2.690,7.058
6595,-0.0032,0.0134,0.0064,0.86,0.79,-1.14,0.299,-1.977,3.643,6.598
6604,-0.0040,0.0133,0.0061,0.84,0.77,-1.07,0.298,-1.036,5.006,6.277
6614,-0.0053,0.0119,0.0056,0.82,0.74,-1.00,0.298,1.861,2.828,4.996
6625,-0.0077,0.0085,0.0025,0.82,0.71,-0.94,0.298,0.332,4.565,5.718
6634,-0.0099,0.0070,0.0027,0.81,0.66,-0.88,0.298,-3.897,5.292,5.909
6645,-0.0103,0.0032,0.0029,0.84,0.63,-0.83,0.298,-2.210,7.070,5.280
6654,-0.0104,-0.0019,0.0027,0.85,0.58,-0.77,0.298,-3.199,5.473,5.527
6664,-0.0121,-0.0027,0.0029,0.81,0.52,-0.71,0.301,-4.371,4.442,5.204
6674,-0.0130,-0.0041,0.0077,0.80,0.46,-0.65,0.301,-7.872,6.272,5.838
6684,-0.0144,-0.0045,0.0077,0.76,0.40,-0.60,0.301,-4.587,5.863,5.032
6694,-0.0151,-0.0058,0.0077,0.72,0.35,-0.54,0.301,-9.718,6.537,5.349
6704,-0.0157,-0.0070,0.0078,0.65,0.29,-0.49,0.301,-7.348,3.752,4.924
6715,-0.0188,-0.0110,0.0078,0.60,0.25,-0.44,0.301,-9.447,5.422,5.244
6724,-0.0176,-0.0119,0.0098,0.50,0.18,-0.38,0.301,-8.508,6.013,5.439
6734,-0.0185,-0.0129,0.0099,0.42,0.14,-0.33,0.301,-9.686,5.610,5.610
6744,-0.0188,-0.0137,0.0100,0.33,0.08,-0.27,0.301,-8.009,5.369,5.129
6755,-0.0174,-0.0185,0.0098,0.27,0.02,-0.22,0.300,-5.692,3.896,4.282
6764,-0.0174,-0.0190,0.0098,0.19,-0.04,-0.16,0.300,-8.852,5.297,4.674
6774,-0.0219,-0.0252,0.0074,0.14,-0.07,-0.11,0.300,-8.147,5.890,4.333
6785,-0.0223,-0.0232,0.0076,0.05,-0.11,-0.06,0.300,-7.572,3.083,4.978
6795,-0.0166,-0.0233,0.0079,-0.03,-0.19,-0.02,0.300,-6.553,5.457,4.250
6804,-0.0110,-0.0212,0.0082,-0.12,-0.27,0.03,0.302,-7.290,2.563,4.640
6814,-0.0095,-0.0208,0.0083,-0.20,-0.31,0.08,0.302,-9.341,5.173,4.567
6824,-0.0099,-0.0248,0.0105,-0.24,-0.35,0.12,0.302,-6.433,1.867,4.297
6834,-0.0085,-0.0241,0.0100,-0.32,-0.39,0.17,0.302,-4.681,2.131,3.951
6844,-0.0136,-0.0252,0.0098,-0.39,-0.40,0.21,0.302,-6.540,2.584,4.464
6855,-0.0129,-0.0246,0.0100,-0.46,-0.43,0.25,0.302,-5.717,-0.206,4.147
6865,-0.0117,-0.0259,0.0099,-0.51,-0.44,0.30,0.301,-6.470,-0.330,4.178
6875,-0.0110,-0.0251,0.0075,-0.56,-0.46,0.34,0.301,-2.773,-3.003,4.591
6884,-0.0098,-0.0261,0.0076,-0.61,-0.46,0.38,0.301,-2.950,-4.188,4.731
6894,-0.0107,-0.0254,0.0077,-0.66,-0.44,0.43,0.301,-2.230,-0.455,4.632
6904,-0.0099,-0.0242,0.0076,-0.69,-0.41,0.47,0.304,-5.293,-1.908,5.166
6914,-0.0076,-0.0216,0.0073,-0.73,-0.39,0.52,0.304,-1.771,-1.443,4.453
6924,-0.0067,-0.0211,0.0115,-0.76,-0.38,0.57,0.304,-2.971,-1.746,4.544
6934,-0.0044,-0.0185,0.0110,-0.81,-0.37,0.62,0.304,-4.604,0.607,4.632
6944,-0.0037,-0.0199,0.0108,-0.82,-0.36,0.66,0.304,-1.438,-2.447,3.812
6954,-0.0031,-0.0185,0.0108,-0.85,-0.35,0.71,0.304,-3.563,-0.046,4.502
6964,-0.0023,-0.0138,0.0108,-0.91,-0.35,0.75,0.304,0.974,-1.582,3.537
6975,-0.0019,-0.0192,0.0122,-0.89,-0.33,0.79,0.304,-1.030,-2.274,3.498
6984,0.0042,-0.0165,0.0120,-0.92,-0.35,0.83,0.304,-1.012,-0.858,3.172
6994,0.0043,-0.0106,0.0122,-0.96,-0.33,0.87,0.304,1.206,-2.636,3.225
7004,0.0043,-0.0106,0.0123,-0.95,-0.30,0.91,0.302,2.457,-3.427,2.384
7015,0.0048,-0.0090,0.0119,-0.96,-0.28,0.94,0.302,2.851,-4.512,2.073
7024,0.0048,-0.0128,0.0071,-0.92,-0.25,0.97,0.302,2.360,-4.446,1.972
7034,0.0064,-0.0110,0.0068,-0.91,-0.22,1.00,0.302,2.811,-4.953,1.841
7044,0.0067,-0.0094,0.0069,-0.90,-0.17,1.03,0.302,3.137,-5.719,1.653
7054,0.0070,-0.0079,0.0067,-0.89,-0.13,1.05,0.303,2.658,-5.933,1.027
7064,0.0072,-0.0063,0.0064,-0.88,-0.08,1.07,0.303,1.201,-6.087,0.903
7074,0.0142,-0.0089,0.0050,-0.84,-0.07,1.09,0.303,2.845,-6.401,0.470
7085,0.0143,-0.0074,0.0052,-0.82,-0.01,1.10,0.303,0.753,-5.910,0.532
7094,0.0168,-0.0062,0.0053,-0.80,0.03,1.11,0.303,3.019,-5.494,-0.467
7104,0.0168,-0.0048,0.0052,-0.78,0.09,1.11,0.306,-0.280,-5.628,-0.509
7114,0.0212,-0.0037,0.0053,-0.76,0.11,1.11,0.306,0.435,-4.186,-0.780
7124,0.0210,-0.0024,0.0104,-0.73,0.17,1.11,0.306,3.591,-4.804,-1.264
7134,0.0210,-0.0012,0.0104,-0.72,0.22,1.10,0.306,0.401,-3.670,-0.872
7144,0.0212,0.0000,0.0105,-0.71,0.27,1.10,0.306,1.295,-7.281,-1.390
7154,0.0255,0.0008,0.0108,-0.67,0.28,1.08,0.302,1.975,-7.966,-1.490
7164,0.0249,0.0019,0.0110,-0.67,0.33,1.07,0.302,3.949,-6.493,-1.693
7174,0.0244,0.0030,0.0038,-0.66,0.41,1.06,0.302,-0.803,-4.565,-0.579
7184,0.0236,0.0041,0.0039,-0.63,0.49,1.05,0.302,0.716,-4.491,-1.389
7194,0.0275,0.0045,0.0040,-0.60,0.52,1.04,0.302,4.700,-3.762,-1.832
7204,0.0245,0.0077,0.0040,-0.61,0.59,1.03,0.304,8.852,-7.946,-2.508
7214,0.0263,0.0082,0.0038,-0.59,0.61,1.02,0.304,7.175,-8.183,-2.314
7224,0.0256,0.0100,0.0037,-0.53,0.66,1.00,0.304,5.976,-7.492,-1.949
7234,0.0221,0.0111,0.0036,-0.45,0.75,0.97,0.304,3.988,-5.683,-2.593
7244,0.0249,0.0105,0.0036,-0.37,0.81,0.95,0.304,2.932,-5.516,-2.145
7254,0.0236,0.0097,0.0032,-0.31,0.88,0.93,0.302,3.139,-5.973,-2.971
7264,0.0220,0.0102,0.0026,-0.28,0.94,0.90,0.302,1.885,-6.077,-2.336
7274,0.0205,0.0107,-0.0028,-0.25,1.00,0.88,0.302,1.098,-4.856,-1.673
7284,0.0191,0.0101,-0.0032,-0.22,1.06,0.85,0.302,-1.867,-2.253,-2.126
7294,0.0177,0.0118,-0.0038,-0.21,1.11,0.83,0.302,4.280,-3.084,-2.648
7304,0.0158,0.0121,-0.0039,-0.20,1.16,0.81,0.300,3.356,-1.608,-2.773
7314,0.0172,0.0144,-0.0040,-0.21,1.16,0.79,0.300,3.359,0.894,-2.640
7324,0.0143,0.0158,-0.0111,-0.19,1.18,0.77,0.300,4.861,0.851,-3.137
7334,0.0123,0.0161,-0.0114,-0.15,1.20,0.74,0.300,6.272,0.973,-2.990
7344,0.0141,0.0171,-0.0116,-0.11,1.17,0.71,0.300,6.066,3.153,-2.619
7354,0.0096,0.0155,-0.0117,-0.05,1.18,0.68,0.308,7.753,3.859,-3.269
7364,0.0075,0.0156,-0.0118,0.01,1.16,0.65,0.308,5.795,4.027,-3.232
7374,0.0054,0.0156,0.0041,0.08,1.13,0.63,0.308,6.255,3.893,-3.612
7384,0.0038,0.0157,0.0043,0.15,1.10,0.59,0.308,5.465,4.900,-2.992
7394,0.0024,0.0162,0.0047,0.21,1.06,0.56,0.308,4.460,3.571,-3.673
7404,-0.0010,0.0145,0.0048,0.27,1.03,0.53,0.304,4.621,4.312,-3.927
7414,-0.0040,0.0148,0.0050,0.31,0.99,0.50,0.304,1.819,2.952,-3.580
7423,-0.0057,0.0143,0.0044,0.37,0.94,0.46,0.304,4.427,5.650,-4.087
7434,-0.0066,0.0148,0.0043,0.39,0.90,0.42,0.304,3.476,5.354,-3.724
7444,-0.0095,0.0132,0.0044,0.42,0.87,0.38,0.304,1.854,4.806,-4.308
7454,-0.0110,0.0124,0.0047,0.47,0.81,0.35,0.304,1.760,3.913,-3.569
7464,-0.0132,0.0107,0.0048,0.49,0.76,0.31,0.304,2.798,6.516,-3.502
7474,-0.0133,0.0177,0.0038,0.47,0.71,0.27,0.304,2.990,8.104,-3.334
7484,-0.0145,0.0169,0.0040,0.49,0.67,0.23,0.304,1.602,6.416,-3.747
7494,-0.0182,0.0191,0.0042,0.51,0.61,0.20,0.304,3.482,10.210,-3.899
7504,-0.0192,0.0182,0.0043,0.54,0.53,0.16,0.302,2.322,7.720,-3.990
7514,-0.0226,0.0163,0.0044,0.57,0.46,0.12,0.302,3.993,6.571,-4.416
7524,-0.0233,0.0153,-0.0005,0.60,0.37,0.09,0.302,4.671,7.768,-3.991
7534,-0.0282,0.0132,-0.0004,0.63,0.31,0.05,0.302,3.682,7.454,-3.852
7544,-0.0287,0.0121,-0.0002,0.67,0.24,0.00,0.302,4.580,6.628,-3.385
7554,-0.0291,0.0141,0.0000,0.70,0.18,-0.04,0.302,2.919,6.996,-2.718
7564,-0.0272,0.0138,0.0002,0.73,0.10,-0.08,0.302,3.168,6.624,-1.991
7573,-0.0274,0.0126,-0.0031,0.77,0.05,-0.11,0.302,3.188,6.589,-1.725
7583,-0.0297,0.0126,-0.0028,0.78,-0.00,-0.13,0.302,2.717,8.000,-1.368
7594,-0.0297,0.0113,-0.0025,0.80,-0.06,-0.14,0.302,-0.987,7.640,-0.499
7604,-0.0317,0.0089,-0.0022,0.83,-0.12,-0.16,0.304,-2.737,6.488,-0.219
7613,-0.0310,0.0045,-0.0019,0.86,-0.20,-0.17,0.304,-1.835,6.717,0.118
7624,-0.0307,0.0030,0.0009,0.84,-0.27,-0.17,0.304,-3.840,7.311,0.719
7634,-0.0277,-0.0003,0.0010,0.83,-0.36,-0.17,0.304,-3.676,6.603,0.856
7643,-0.0274,-0.0032,0.0010,0.79,-0.42,-0.16,0.304,-6.261,3.622,1.151
7654,-0.0308,-0.0082,0.0013,0.77,-0.47,-0.15,0.304,-5.696,2.776,1.145
7664,-0.0300,-0.0095,0.0020,0.74,-0.52,-0.14,0.300,-3.893,4.145,2.053
7673,-0.0296,-0.0137,-0.0050,0.69,-0.56,-0.13,0.300,-2.546,5.293,1.526
7684,-0.0270,-0.0176,-0.0047,0.65,-0.60,-0.11,0.300,-2.996,4.934,2.246
7694,-0.0260,-0.0188,-0.0048,0.61,-0.64,-0.09,0.300,-4.027,4.525,2.817
7704,-0.0249,-0.0198,-0.0049,0.59,-0.69,-0.07,0.302,-7.169,2.875,3.041
7714,-0.0219,-0.0218,-0.0044,0.56,-0.75,-0.05,0.302,-6.414,2.347,3.229
7724,-0.0212,-0.0233,-0.0032,0.51,-0.79,-0.02,0.302,-10.433,0.393,3.466
7734,-0.0230,-0.0243,-0.0032,0.45,-0.80,0.01,0.302,-10.572,0.872,3.438
7744,-0.0161,-0.0254,-0.0029,0.38,-0.84,0.04,0.302,-12.004,-0.188,3.245
7754,-0.0146,-0.0261,-0.0028,0.27,-0.84,0.07,0.303,-11.896,0.160,3.624
7764,-0.0146,-0.0281,-0.0028,0.17,-0.84,0.11,0.303,-12.155,-0.616,3.527
7774,-0.0125,-0.0298,0.0010,0.06,-0.84,0.14,0.303,-10.101,-0.736,3.065
7784,-0.0105,-0.0333,0.0016,-0.03,-0.85,0.17,0.303,-9.857,-1.446,2.860
7794,-0.0088,-0.0343,0.0017,-0.15,-0.84,0.21,0.303,-9.949,-2.141,2.536
7804,-0.0072,-0.0353,0.0019,-0.24,-0.83,0.23,0.302,-6.301,-1.592,2.627
7813,-0.0037,-0.0343,0.0021,-0.33,-0.82,0.26,0.302,-5.365,-1.648,2.644
7823,-0.0046,-0.0333,0.0017,-0.41,-0.79,0.29,0.302,-4.508,-1.637,1.713
7833,-0.0032,-0.0326,0.0017,-0.47,-0.77,0.31,0.302,-3.229,-2.127,1.691
7844,-0.0000,-0.0340,0.0019,-0.50,-0.76,0.33,0.302,-5.259,-2.902,1.732
7854,0.0009,-0.0330,0.0021,-0.56,-0.74,0.35,0.306,-6.692,-3.928,1.455
7863,0.0021,-0.0321,0.0021,-0.61,-0.71,0.37,0.306,-3.377,-2.341,0.252
7873,0.0072,-0.0335,0.0107,-0.65,-0.70,0.38,0.306,-6.419,-4.634,0.316
7884,0.0117,-0.0322,0.0106,-0.70,-0.69,0.39,0.306,-4.280,-4.053,-0.046
7894,0.0129,-0.0310,0.0105,-0.75,-0.65,0.40,0.306,-1.301,-3.855,-0.721
7903,0.0140,-0.0297,0.0104,-0.80,-0.60,0.40,0.304,-2.413,-4.405,-1.354
7913,0.0181,-0.0308,0.0103,-0.82,-0.58,0.40,0.304,-5.347,-8.680,-1.505
7924,0.0179,-0.0303,0.0093,-0.83,-0.54,0.39,0.304,-1.218,-6.856,-1.816
7934,0.0173,-0.0294,0.0089,-0.87,-0.46,0.38,0.304,-2.818,-10.877,-1.681
7943,0.0181,-0.0261,0.0086,-0.92,-0.39,0.36,0.304,-0.290,-8.296,-1.610
7954,0.0190,-0.0235,0.0084,-0.93,-0.30,0.34,0.304,-0.621,-10.923,-1.993
7964,0.0211,-0.0227,0.0081,-0.95,-0.21,0.33,0.304,-0.771,-9.559,-1.802
7973,0.0213,-0.0204,0.0059,-0.96,-0.11,0.31,0.304,1.187,-6.689,-2.126
7983,0.0252,-0.0201,0.0053,-0.95,-0.03,0.30,0.304,0.798,-8.436,-1.980
7994,0.0252,-0.0185,0.0048,-0.96,0.06,0.28,0.304,1.150,-7.515,-1.783
8004,0.0251,-0.0168,0.0042,-0.95,0.14,0.26,0.304,3.539,-7.044,-1.421
8013,0.0248,-0.0149,0.0037,-0.94,0.22,0.24,0.304,1.032,-6.362,-1.211
8023,0.0246,-0.0133,0.0019,-0.92,0.29,0.23,0.304,3.127,-6.149,-1.729
8034,0.0283,-0.0099,0.0013,-0.90,0.33,0.22,0.304,4.365,-5.588,-1.185
8044,0.0239,-0.0085,0.0007,-0.87,0.41,0.20,0.304,4.813,-4.931,-1.547
8053,0.0275,-0.0073,0.0003,-0.84,0.45,0.19,0.302,5.914,-5.397,-1.402
8064,0.0267,-0.0059,-0.0001,-0.79,0.50,0.17,0.302,5.431,-4.744,-1.175
8073,0.0281,-0.0031,-0.0060,-0.75,0.54,0.16,0.302,6.121,-5.600,-1.404
8084,0.0314,-0.0007,-0.0066,-0.70,0.57,0.15,0.302,5.613,-4.397,-1.966
8094,0.0304,0.0005,-0.0070,-0.65,0.63,0.14,0.302,6.554,-6.137,-2.080
8103,0.0293,0.0016,-0.0075,-0.58,0.68,0.12,0.302,6.432,-5.403,-2.106
8114,0.0282,0.0026,-0.0079,-0.52,0.73,0.10,0.302,6.437,-6.210,-1.596
8123,0.0271,0.0042,-0.0105,-0.46,0.78,0.08,0.302,5.492,-6.413,-0.781
8133,0.0279,0.0038,-0.0109,-0.38,0.84,0.06,0.302,5.242,-6.910,-1.044
8143,0.0245,0.0051,-0.0112,-0.32,0.91,0.05,0.302,4.973,-6.435,-0.926
8153,0.0210,0.0068,-0.0112,-0.28,0.99,0.04,0.303,4.194,-6.909,-0.817
8164,0.0216,0.0062,-0.0113,-0.22,1.04,0.03,0.303,5.456,-4.995,-0.875
8174,0.0198,0.0065,-0.0091,-0.17,1.10,0.02,0.303,4.794,-3.944,-0.636
8183,0.0203,0.0121,-0.0091,-0.15,1.16,0.01,0.303,5.309,-2.526,-0.947
8193,0.0127,0.0110,-0.0090,-0.10,1.24,0.00,0.303,5.767,-0.774,-0.847
8203,0.0095,0.0142,-0.0089,-0.06,1.28,-0.00,0.303,3.400,-0.304,-0.410
8213,0.0073,0.0143,-0.0089,-0.01,1.30,-0.01,0.303,2.840,0.571,-0.435
8223,0.0051,0.0143,-0.0068,0.03,1.30,-0.02,0.303,3.742,1.446,-0.079
8233,0.0070,0.0151,-0.0069,0.07,1.27,-0.02,0.303,3.394,2.397,-0.392
8243,0.0049,0.0199,-0.0069,0.09,1.26,-0.03,0.303,3.776,3.414,-0.229
8253,0.0011,0.0183,-0.0064,0.14,1.24,-0.03,0.302,4.630,5.220,0.173
8263,-0.0010,0.0181,-0.0061,0.18,1.19,-0.04,0.302,5.589,6.307,0.524
8273,-0.0031,0.0178,-0.0059,0.23,1.15,-0.04,0.302,6.671,5.993,0.131
8283,-0.0051,0.0174,-0.0053,0.28,1.09,-0.03,0.302,5.553,5.723,0.569
8293,-0.0145,0.0153,-0.0048,0.35,1.07,-0.03,0.302,5.599,6.212,0.750
8303,-0.0147,0.0151,-0.0045,0.41,1.00,-0.03,0.301,4.732,6.078,1.205
8313,-0.0148,0.0171,-0.0045,0.45,0.93,-0.02,0.301,4.615,6.621,0.459
8323,-0.0170,0.0191,-0.0061,0.49,0.87,-0.01,0.301,5.098,7.152,0.179
8333,-0.0209,0.0170,-0.0060,0.54,0.82,-0.00,0.301,3.342,7.184,1.113
8343,-0.0246,0.0169,-0.0056,0.58,0.76,0.00,0.301,2.719,7.514,1.285
8353,-0.0219,0.0145,-0.0048,0.63,0.67,0.00,0.298,2.466,8.127,1.268
8363,-0.0231,0.0123,-0.0040,0.66,0.60,0.02,0.298,2.000,8.373,1.273
8373,-0.0240,0.0112,-0.0107,0.69,0.52,0.03,0.298,1.162,9.782,1.096
8383,-0.0248,0.0093,-0.0104,0.71,0.43,0.04,0.298,0.276,10.161,1.332
8393,-0.0252,0.0074,-0.0101,0.73,0.34,0.06,0.298,-1.834,9.588,2.207
8403,-0.0313,0.0077,-0.0098,0.72,0.27,0.07,0.300,-2.539,9.627,2.212
8413,-0.0318,0.0064,-0.0094,0.72,0.17,0.09,0.300,-1.336,9.686,1.634
8423,-0.0334,0.0054,-0.0077,0.70,0.08,0.11,0.300,-1.681,9.134,2.099
8433,-0.0348,0.0042,-0.0075,0.68,-0.01,0.13,0.300,-5.720,5.814,2.259
8443,-0.0341,0.0053,-0.0070,0.64,-0.10,0.15,0.300,-4.858,8.883,2.797
8453,-0.0332,0.0044,-0.0063,0.60,-0.17,0.18,0.297,-5.638,5.245,2.467
8463,-0.0308,0.0020,-0.0058,0.57,-0.26,0.20,0.297,-3.299,8.126,2.615
8473,-0.0338,-0.0002,-0.0102,0.53,-0.32,0.23,0.297,-1.647,8.615,2.386
8483,-0.0333,-0.0041,-0.0095,0.51,-0.38,0.25,0.297,-1.514,8.409,3.237
8493,-0.0327,-0.0049,-0.0090,0.47,-0.46,0.28,0.297,-1.534,5.467,2.218
8504,-0.0352,-0.0055,-0.0087,0.46,-0.54,0.31,0.300,-0.609,7.622,3.281
8513,-0.0339,-0.0059,-0.0084,0.45,-0.60,0.33,0.300,-2.902,5.165,3.348
8523,-0.0309,-0.0083,-0.0037,0.44,-0.67,0.36,0.300,-4.253,3.501,2.974
8534,-0.0294,-0.0088,-0.0035,0.43,-0.74,0.39,0.300,-4.214,4.367,3.285
8543,-0.0323,-0.0127,-0.0034,0.41,-0.75,0.42,0.300,-2.499,5.186,3.499
8553,-0.0310,-0.0134,-0.0030,0.38,-0.80,0.45,0.299,-3.996,4.206,4.045
8563,-0.0299,-0.0128,-0.0022,0.34,-0.84,0.49,0.299,-5.298,3.245,3.897
8573,-0.0286,-0.0163,-0.0007,0.32,-0.89,0.53,0.299,-4.061,3.746,4.522
8583,-0.0271,-0.0168,-0.0002,0.26,-0.92,0.57,0.299,-8.418,1.276,4.923
8593,-0.0254,-0.0173,0.0005,0.21,-0.96,0.62,0.299,-6.287,2.195,4.410
8603,-0.0244,-0.0163,0.0006,0.14,-0.99,0.66,0.297,-7.680,1.226,4.493
8613,-0.0236,-0.0165,0.0008,0.07,-1.01,0.71,0.297,-8.604,-0.578,5.273
8623,-0.0219,-0.0166,-0.0026,0.00,-1.02,0.76,0.297,-5.833,-1.058,4.307
8633,-0.0234,-0.0210,-0.0023,-0.06,-1.00,0.80,0.297,-4.786,0.850,4.965
8643,-0.0216,-0.0209,-0.0020,-0.12,-1.01,0.85,0.297,-2.748,0.641,4.863
8653,-0.0195,-0.0229,-0.0018,-0.17,-1.01,0.90,0.299,-3.338,-0.161,5.163
8663,-0.0170,-0.0230,-0.0013,-0.21,-1.01,0.95,0.299,-5.099,0.343,4.858
8673,-0.0168,-0.0273,0.0017,-0.24,-1.00,1.00,0.299,-3.320,0.887,4.940
8683,-0.0151,-0.0269,0.0021,-0.27,-1.00,1.05,0.299,-1.668,-0.780,5.117
8693,-0.0128,-0.0286,0.0025,-0.31,-1.01,1.10,0.299,-3.928,-4.132,4.800
8703,-0.0110,-0.0280,0.0031,-0.33,-1.00,1.15,0.298,-1.713,-2.881,5.248
8713,-0.0091,-0.0282,0.0033,-0.37,-0.97,1.20,0.298,-3.804,-0.157,5.207
8723,-0.0075,-0.0275,0.0027,-0.37,-0.94,1.24,0.298,-5.902,-4.521,5.221
8733,-0.0061,-0.0297,0.0031,-0.39,-0.93,1.30,0.298,-9.564,-4.244,5.693
8743,-0.0045,-0.0290,0.0035,-0.45,-0.89,1.35,0.298,-8.375,-2.454,5.249
8753,-0.0032,-0.0284,0.0038,-0.52,-0.86,1.40,0.300,-6.376,-5.214,4.859
8763,-0.0017,-0.0275,0.0041,-0.59,-0.83,1.45,0.300,-7.714,-5.749,5.855
8773,-0.0003,-0.0264,0.0083,-0.67,-0.78,1.51,0.300,-6.683,-5.900,5.028
8783,0.0025,-0.0271,0.0089,-0.74,-0.74,1.56,0.300,-6.589,-6.206,5.196
8793,0.0037,-0.0258,0.0088,-0.81,-0.69,1.62,0.300,-4.268,-6.080,5.060
8803,0.0059,-0.0269,0.0090,-0.86,-0.64,1.67,0.298,-3.234,-6.431,4.445
8813,0.0057,-0.0279,0.0097,-0.89,-0.57,1.72,0.298,-3.440,-5.406,5.267
8823,0.0096,-0.0222,0.0068,-0.96,-0.52,1.77,0.298,-0.371,-5.213,5.208
8832,0.0091,-0.0236,0.0070,-0.96,-0.46,1.82,0.298,-0.558,-5.277,5.053
8843,0.0085,-0.0227,0.0070,-0.98,-0.40,1.87,0.298,-0.474,-5.958,4.979
8853,0.0091,-0.0210,0.0074,-0.98,-0.34,1.92,0.298,-0.386,-6.045,4.778
8863,0.0105,-0.0184,0.0079,-0.99,-0.29,1.97,0.301,-0.746,-6.763,4.325
8873,0.0109,-0.0167,0.0116,-0.99,-0.23,2.02,0.301,-0.910,-7.134,4.253
8883,0.0140,-0.0122,0.0116,-1.00,-0.18,2.07,0.301,-0.336,-7.356,4.307
8892,0.0142,-0.0104,0.0121,-1.01,-0.11,2.11,0.301,0.428,-7.347,4.205
8903,0.0144,-0.0087,0.0124,-1.02,-0.04,2.15,0.298,-0.410,-7.597,4.458
8913,0.0191,-0.0062,0.0124,-1.03,0.01,2.20,0.298,1.608,-6.900,3.790
8922,0.0214,-0.0063,0.0065,-1.02,0.07,2.24,0.298,2.055,-6.935,4.310
8933,0.0170,-0.0042,0.0062,-1.03,0.15,2.28,0.298,4.369,-6.313,4.253
8943,0.0105,-0.0027,0.0066,-1.01,0.25,2.32,0.298,4.283,-6.582,3.966
8953,0.0170,-0.0007,0.0070,-0.98,0.27,2.36,0.299,4.132,-6.065,4.083
8963,0.0168,0.0005,0.0072,-0.95,0.33,2.40,0.299,4.746,-6.041,4.052
8973,0.0186,0.0016,0.0053,-0.92,0.38,2.45,0.299,3.906,-4.547,4.066
8983,0.0179,0.0031,0.0054,-0.88,0.44,2.49,0.299,6.611,-4.580,3.829
8992,0.0152,0.0054,0.0057,-0.84,0.51,2.53,0.299,5.308,-5.351,4.992
9002,0.0130,0.0100,0.0059,-0.80,0.55,2.57,0.298,4.350,-3.882,4.437
9012,0.0148,0.0100,0.0058,-0.73,0.59,2.62,0.298,5.566,-3.081,3.379
9023,0.0148,0.0100,0.0020,-0.73,0.59,2.62,0.298,7.818,-3.848,2.608
9032,0.0115,0.0131,0.0013,-0.65,0.67,2.70,0.298,5.639,-3.209,3.081
9043,0.0115,0.0131,0.0013,-0.65,0.67,2.70,0.298,4.515,-2.442,3.354
9053,0.0093,0.0163,0.0017,-0.60,0.71,2.73,0.299,3.943,-1.745,3.524
9063,0.0113,0.0178,0.0021,-0.54,0.72,2.76,0.299,6.159,-2.325,3.588
9072,0.0090,0.0216,0.0021,-0.49,0.75,2.80,0.299,4.809,-0.591,4.325
9082,0.0069,0.0230,0.0022,-0.45,0.77,2.83,0.299,1.447,-3.116,4.150
9092,0.0036,0.0243,0.0030,-0.33,0.81,2.90,0.299,2.189,-2.099,5.046
9103,0.0022,0.0248,0.0033,-0.31,0.83,2.95,0.301,9.371,-0.973,3.835
9113,0.0022,0.0248,0.0033,-0.31,0.83,2.95,0.301,7.791,-0.004,2.460
9122,-0.0018,0.0259,0.0074,-0.30,0.87,2.99,0.301,8.864,1.533,2.486
9132,-0.0053,0.0302,0.0076,-0.16,0.90,3.06,0.301,5.388,4.541,2.931
9143,-0.0053,0.0302,0.0076,-0.16,0.90,3.06,0.301,12.306,4.610,1.818
9153,-0.0064,0.0318,0.0078,-0.10,0.88,3.09,0.301,5.645,4.262,1.997
9163,-0.0071,0.0339,0.0084,-0.04,0.84,3.12,0.300,3.815,6.220,2.162
9173,-0.0086,0.0339,0.0075,0.06,0.79,3.14,0.300,7.727,7.448,1.206
9183,-0.0132,0.0357,0.0072,0.13,0.77,3.16,0.300,7.735,6.442,1.843
9193,-0.0174,0.0371,0.0072,0.16,0.73,3.18,0.300,9.040,6.632,0.312
9202,-0.0186,0.0347,0.0077,0.32,0.59,3.21,0.301,10.366,5.231,0.071
9213,-0.0186,0.0347,0.0077,0.32,0.59,3.21,0.301,7.070,6.914,-0.029
9223,-0.0201,0.0376,0.0086,0.40,0.54,3.22,0.301,3.905,6.940,-0.206
9233,-0.0210,0.0369,0.0082,0.49,0.49,3.22,0.301,6.860,4.675,-0.961
9243,-0.0241,0.0351,0.0079,0.56,0.43,3.22,0.301,3.842,7.728,-1.154
9252,-0.0256,0.0311,0.0084,0.69,0.32,3.21,0.301,4.816,6.357,-1.134
9262,-0.0265,0.0323,0.0087,0.72,0.25,3.20,0.298,1.817,7.050,-1.416
9272,-0.0265,0.0323,0.0016,0.72,0.25,3.20,0.298,2.175,6.924,-1.954
9282,-0.0250,0.0285,0.0010,0.81,0.11,3.17,0.298,2.936,6.288,-1.846
9293,-0.0312,0.0276,0.0009,0.83,0.07,3.15,0.298,4.610,7.430,-1.992
9302,-0.0312,0.0276,0.0009,0.83,0.07,3.15,0.298,3.132,5.588,-2.361
9312,-0.0310,0.0230,0.0010,0.89,-0.06,3.12,0.298,7.144,6.880,-3.429
9323,-0.0310,0.0230,-0.0032,0.89,-0.06,3.12,0.298,8.383,6.265,-3.952
9332,-0.0308,0.0215,-0.0033,0.93,-0.11,3.10,0.298,-0.898,9.481,-4.743
9342,-0.0305,0.0199,-0.0035,0.99,-0.18,3.07,0.298,-0.540,6.912,-4.483
9353,-0.0403,0.0198,-0.0034,1.06,-0.19,3.03,0.299,-3.602,7.441,-5.265
9362,-0.0382,0.0157,-0.0027,1.07,-0.36,2.95,0.299,-0.890,4.933,-4.254
9373,-0.0392,0.0135,-0.0024,1.03,-0.43,2.90,0.299,-1.273,5.130,-5.782
9383,-0.0392,0.0135,-0.0024,1.03,-0.43,2.90,0.299,-5.763,6.502,-4.040
9392,-0.0396,0.0097,-0.0018,1.01,-0.52,2.81,0.299,-3.321,2.886,-4.934
9402,-0.0396,0.0097,-0.0018,1.01,-0.52,2.81,0.301,-1.135,5.026,-5.751
9413,-0.0386,0.0080,-0.0012,0.98,-0.58,2.76,0.301,-4.027,4.643,-5.567
9422,-0.0375,0.0064,0.0040,0.94,-0.62,2.71,0.301,-2.109,6.999,-6.043
9432,-0.0364,0.0048,0.0043,0.91,-0.68,2.66,0.301,-6.048,5.869,-6.224
9442,-0.0379,-0.0004,0.0049,0.85,-0.75,2.56,0.301,-5.042,6.685,-6.024
9452,-0.0379,-0.0004,0.0049,0.85,-0.75,2.56,0.301,-2.846,7.060,-6.823
9462,-0.0365,-0.0018,0.0053,0.80,-0.81,2.50,0.299,-5.607,7.237,-6.496
9472,-0.0373,-0.0045,0.0034,0.70,-0.92,2.38,0.299,-5.917,7.542,-7.199
9482,-0.0373,-0.0067,0.0035,0.65,-0.99,2.31,0.299,-5.191,6.532,-7.193
9492,-0.0353,-0.0065,0.0039,0.58,-1.06,2.24,0.299,-5.175,5.580,-6.853
9503,-0.0310,-0.0083,0.0042,0.54,-1.15,2.18,0.300,-5.594,5.065,-6.901
9512,-0.0310,-0.0083,0.0042,0.54,-1.15,2.18,0.300,-6.735,4.198,-6.365
9522,-0.0292,-0.0096,0.0044,0.40,-1.25,2.04,0.300,-7.259,2.215,-6.294
9532,-0.0292,-0.0096,0.0044,0.40,-1.25,2.04,0.300,-6.278,1.340,-6.124
9542,-0.0274,-0.0109,0.0044,0.34,-1.29,1.97,0.300,-7.423,0.497,-6.171
9552,-0.0252,-0.0114,0.0045,0.27,-1.32,1.91,0.305,-6.264,-0.388,-6.662
9562,-0.0229,-0.0111,0.0043,0.12,-1.34,1.79,0.305,-6.461,-1.688,-6.322
9572,-0.0228,-0.0111,0.0154,0.12,-1.34,1.79,0.305,-6.363,-1.196,-5.237
9582,-0.0199,-0.0119,0.0154,0.05,-1.34,1.73,0.305,-5.771,-2.145,-5.541
9592,-0.0152,-0.0105,0.0157,-0.02,-1.34,1.66,0.305,-6.319,-2.902,-5.843
9602,-0.0127,-0.0130,0.0159,-0.07,-1.33,1.61,0.302,-5.046,-2.178,-5.096
9613,-0.0104,-0.0134,0.0157,-0.13,-1.31,1.55,0.302,-6.072,-1.715,-5.267
9623,-0.0083,-0.0136,0.0136,-0.19,-1.28,1.49,0.302,-6.306,-2.176,-6.315
9632,-0.0061,-0.0132,0.0138,-0.25,-1.26,1.44,0.302,-4.804,-3.416,-5.648
9642,-0.0040,-0.0153,0.0139,-0.29,-1.24,1.38,0.302,-3.740,-4.002,-5.098
9652,-0.0019,-0.0148,0.0136,-0.35,-1.22,1.32,0.302,-3.574,-4.695,-4.922
9662,0.0002,-0.0141,0.0132,-0.41,-1.19,1.26,0.299,-3.235,-5.191,-4.960
9672,0.0014,-0.0143,0.0037,-0.45,-1.15,1.21,0.299,-2.588,-6.248,-3.994
9682,0.0045,-0.0125,0.0034,-0.50,-1.11,1.16,0.299,-2.597,-6.549,-3.992
9692,0.0113,-0.0106,0.0027,-0.53,-1.09,1.11,0.299,-2.929,-7.334,-3.494
9702,0.0118,-0.0109,0.0023,-0.55,-1.02,1.07,0.298,-3.532,-8.204,-3.077
9712,0.0135,-0.0099,0.0021,-0.58,-0.95,1.03,0.298,-3.597,-7.785,-3.206
9722,0.0134,-0.0101,-0.0059,-0.60,-0.88,1.00,0.298,-2.603,-9.925,-3.369
9732,0.0170,-0.0080,-0.0061,-0.64,-0.81,0.96,0.298,-1.723,-8.983,-2.293
9742,0.0184,-0.0069,-0.0064,-0.67,-0.73,0.93,0.298,-0.398,-9.330,-2.996
9752,0.0235,-0.0069,-0.0067,-0.69,-0.66,0.90,0.298,-0.377,-10.717,-2.452
9762,0.0246,-0.0057,-0.0066,-0.72,-0.56,0.88,0.300,-0.846,-10.916,-1.345
9772,0.0252,-0.0062,-0.0059,-0.71,-0.47,0.85,0.300,0.401,-10.016,-1.522
9782,0.0253,-0.0047,-0.0060,-0.72,-0.37,0.83,0.300,-0.535,-10.422,-1.275
9792,0.0293,-0.0032,-0.0059,-0.73,-0.27,0.81,0.300,1.962,-10.034,-1.866
9802,0.0298,-0.0019,-0.0055,-0.73,-0.17,0.80,0.301,2.296,-9.940,-1.805
9812,0.0273,0.0013,-0.0053,-0.74,-0.05,0.78,0.301,1.713,-9.487,-1.400
9822,0.0207,0.0041,-0.0020,-0.73,0.08,0.77,0.301,2.938,-8.332,-0.709
9832,0.0363,0.0050,-0.0019,-0.71,0.09,0.75,0.301,2.659,-8.405,0.020
9842,0.0361,0.0062,-0.0015,-0.69,0.19,0.74,0.301,0.652,-9.678,-0.288
9852,0.0394,0.0069,-0.0009,-0.67,0.26,0.73,0.299,-0.116,-8.395,-0.628
9862,0.0389,0.0080,-0.0002,-0.65,0.34,0.73,0.299,5.317,-7.022,-0.654
9873,0.0383,0.0091,-0.0022,-0.64,0.43,0.72,0.299,4.241,-8.022,-0.422
9882,0.0389,0.0097,-0.0017,-0.63,0.51,0.72,0.299,3.653,-8.212,-0.641
9892,0.0375,0.0160,-0.0013,-0.61,0.59,0.71,0.299,3.104,-8.301,-0.419
9902,0.0360,0.0157,-0.0007,-0.57,0.67,0.70,0.301,3.309,-8.461,0.018
9912,0.0344,0.0156,-0.0004,-0.53,0.75,0.70,0.301,3.875,-9.055,-0.875
9922,0.0331,0.0165,0.0029,-0.50,0.83,0.69,0.301,4.770,-7.145,-0.659
9933,0.0312,0.0183,0.0037,-0.47,0.92,0.69,0.301,2.434,-8.014,0.752
9942,0.0290,0.0177,0.0045,-0.43,1.01,0.69,0.301,5.526,-5.137,0.415
9952,0.0273,0.0184,0.0050,-0.38,1.08,0.68,0.301,2.593,-4.914,-0.040
9962,0.0273,0.0177,0.0054,-0.35,1.15,0.69,0.300,5.386,-3.943,0.610
9972,0.0255,0.0209,0.0049,-0.30,1.20,0.69,0.300,5.303,-2.289,0.012
9982,0.0238,0.0223,0.0053,-0.28,1.25,0.69,0.300,3.509,-2.259,-0.082
9992,0.0201,0.0231,0.0055,-0.23,1.31,0.70,0.300,3.897,0.233,1.000
10003,0.0168,0.0239,0.0055,-0.17,1.33,0.70,0.303,2.824,0.438,1.128
10012,0.0146,0.0242,0.0055,-0.14,1.35,0.70,0.303,5.343,1.509,1.205
10022,0.0118,0.0272,0.0113,-0.11,1.36,0.70,0.303,5.615,2.814,0.603
10032,0.0095,0.0274,0.0118,-0.08,1.35,0.71,0.303,2.795,2.596,0.977
10042,0.0071,0.0275,0.0120,-0.03,1.34,0.72,0.303,6.537,3.698,0.572
10052,0.0048,0.0275,0.0123,0.03,1.31,0.73,0.303,4.912,4.661,-0.651
10062,0.0007,0.0279,0.0129,0.06,1.29,0.74,0.303,7.634,5.068,-0.535
10072,-0.0008,0.0278,0.0154,0.12,1.25,0.74,0.303,4.815,5.787,-0.378
10083,-0.0065,0.0300,0.0155,0.16,1.22,0.74,0.303,6.761,7.206,0.291
10092,-0.0094,0.0295,0.0152,0.23,1.18,0.73,0.303,6.136,8.621,0.414
10102,-0.0124,0.0291,0.0150,0.29,1.12,0.73,0.302,3.909,6.963,-0.138
10113,-0.0127,0.0329,0.0150,0.33,1.04,0.74,0.302,4.748,8.811,-0.867
10122,-0.0145,0.0323,0.0121,0.39,0.96,0.74,0.302,5.628,9.225,-0.954
10132,-0.0206,0.0299,0.0120,0.44,0.91,0.74,0.302,5.424,10.949,-0.850
10142,-0.0220,0.0315,0.0117,0.48,0.83,0.73,0.302,3.708,11.849,-0.121
10152,-0.0234,0.0306,0.0118,0.53,0.74,0.73,0.302,1.413,10.665,-0.849
10162,-0.0240,0.0321,0.0121,0.57,0.63,0.72,0.302,2.614,11.009,-0.717
10172,-0.0285,0.0298,0.0091,0.61,0.54,0.72,0.302,3.248,9.871,-1.627
10182,-0.0294,0.0287,0.0090,0.63,0.43,0.72,0.302,2.942,9.245,-1.116
10192,-0.0274,0.0281,0.0091,0.66,0.31,0.71,0.302,3.260,10.709,-1.163
10203,-0.0334,0.0252,0.0093,0.71,0.24,0.70,0.304,1.825,10.680,-0.852
10212,-0.0351,0.0247,0.0093,0.74,0.15,0.69,0.304,1.602,10.628,-0.548
10222,-0.0345,0.0222,0.0110,0.78,0.04,0.68,0.304,2.314,10.025,-0.653
10231,-0.0396,0.0216,0.0109,0.80,-0.04,0.67,0.304,2.120,9.426,-1.137
10241,-0.0364,0.0213,0.0111,0.81,-0.17,0.67,0.304,1.130,10.917,-0.403
10252,-0.0354,0.0189,0.0115,0.83,-0.27,0.67,0.302,0.674,10.746,-0.418
10261,-0.0380,0.0167,0.0118,0.85,-0.35,0.66,0.302,0.180,10.101,-1.113
10271,-0.0383,0.0147,0.0073,0.86,-0.45,0.65,0.302,0.234,10.240,-0.553
10282,-0.0366,0.0146,0.0076,0.86,-0.56,0.65,0.302,-2.717,8.859,0.269
10292,-0.0356,0.0132,0.0077,0.87,-0.67,0.64,0.302,-2.557,8.490,-0.395
10301,-0.0375,0.0113,0.0078,0.87,-0.75,0.64,0.303,-1.633,8.661,-0.366
10312,-0.0356,0.0100,0.0078,0.84,-0.84,0.64,0.303,-4.115,6.826,0.063
10322,-0.0373,0.0086,0.0065,0.81,-0.91,0.64,0.303,-0.926,7.263,-0.153
10331,-0.0353,0.0093,0.0067,0.78,-1.00,0.64,0.303,-4.301,5.649,0.086
10342,-0.0333,0.0081,0.0067,0.74,-1.07,0.64,0.303,-2.567,5.216,0.403
10352,-0.0330,0.0050,0.0064,0.73,-1.13,0.64,0.305,-4.406,4.615,1.051
10362,-0.0311,0.0044,0.0061,0.69,-1.19,0.65,0.305,-2.989,2.811,0.335
10372,-0.0290,0.0032,0.0091,0.66,-1.24,0.65,0.305,-4.654,2.956,0.863
10381,-0.0269,0.0021,0.0093,0.62,-1.28,0.66,0.305,-2.216,0.740,0.430
10391,-0.0254,-0.0023,0.0092,0.60,-1.30,0.67,0.305,-3.971,0.807,0.008
10402,-0.0220,-0.0062,0.0089,0.57,-1.33,0.67,0.304,-4.323,-1.280,0.756
10412,-0.0228,-0.0065,0.0089,0.54,-1.32,0.68,0.304,-4.831,-0.497,0.915
10421,-0.0197,-0.0048,0.0073,0.48,-1.33,0.68,0.304,-4.318,-1.849,-0.016
10431,-0.0225,-0.0050,0.0072,0.44,-1.29,0.69,0.304,-3.584,-1.713,0.791
10441,-0.0199,-0.0066,0.0070,0.40,-1.29,0.70,0.304,-7.503,-4.051,1.119
10452,-0.0177,-0.0073,0.0072,0.35,-1.27,0.70,0.305,-2.983,-1.379,-0.049
10462,-0.0149,-0.0092,0.0072,0.32,-1.25,0.71,0.305,-4.399,-3.928,0.094
10472,-0.0128,-0.0097,0.0074,0.26,-1.22,0.72,0.305,-4.070,-4.020,1.280
10481,-0.0107,-0.0101,0.0072,0.22,-1.20,0.72,0.305,-6.847,-2.914,1.079
10492,-0.0090,-0.0132,0.0070,0.19,-1.16,0.72,0.305,-3.713,-4.672,0.810
10502,-0.0070,-0.0135,0.0070,0.15,-1.12,0.73,0.304,-5.261,-2.338,1.104
10512,-0.0051,-0.0137,0.0068,0.10,-1.09,0.74,0.304,-6.587,-2.682,1.927
10522,-0.0033,-0.0139,0.0037,0.06,-1.04,0.75,0.304,-4.085,-5.824,1.373
10531,-0.0004,-0.0132,0.0033,-0.00,-1.01,0.76,0.304,-3.733,-5.563,1.225
10542,0.0013,-0.0132,0.0032,-0.07,-0.98,0.78,0.304,-2.271,-5.281,1.038
10552,0.0040,-0.0121,0.0034,-0.12,-0.93,0.80,0.307,-4.241,-5.273,1.568
10562,0.0056,-0.0119,0.0034,-0.15,-0.87,0.81,0.307,-4.977,-6.018,1.210
10572,0.0072,-0.0117,0.0081,-0.16,-0.82,0.82,0.307,-9.576,-5.717,2.713
10582,0.0085,-0.0114,0.0077,-0.19,-0.76,0.83,0.307,-7.081,-4.982,1.735
10591,0.0138,-0.0113,0.0076,-0.24,-0.73,0.84,0.307,-4.336,-4.804,1.872
10601,0.0151,-0.0109,0.0077,-0.33,-0.68,0.86,0.307,-3.446,-5.333,2.382
10611,0.0169,-0.0110,0.0076,-0.39,-0.63,0.88,0.307,-0.922,-7.162,1.657
10622,0.0180,-0.0103,0.0093,-0.44,-0.57,0.90,0.307,0.275,-8.675,2.148
10631,0.0194,-0.0085,0.0092,-0.48,-0.52,0.93,0.307,1.327,-10.803,2.468
10641,0.0181,-0.0097,0.0094,-0.48,-0.44,0.95,0.307,-0.959,-9.627,1.715
10651,0.0188,-0.0089,0.0093,-0.47,-0.36,0.96,0.307,-0.207,-11.413,1.661
10662,0.0191,-0.0076,0.0091,-0.46,-0.26,0.98,0.304,-2.375,-11.234,2.208
10671,0.0209,-0.0038,0.0021,-0.48,-0.16,1.00,0.304,1.379,-10.877,2.320
10681,0.0212,-0.0030,0.0020,-0.49,-0.06,1.02,0.304,-4.648,-8.389,3.082
10691,0.0230,-0.0017,0.0023,-0.51,0.04,1.04,0.304,-1.102,-10.394,2.597
10701,0.0225,-0.0008,0.0022,-0.50,0.14,1.07,0.304,-0.399,-8.244,2.783
10712,0.0237,0.0053,0.0018,-0.57,0.22,1.10,0.304,2.126,-7.278,2.439
10722,0.0233,0.0063,-0.0026,-0.59,0.31,1.12,0.304,2.280,-5.087,2.486
10732,0.0228,0.0045,-0.0028,-0.58,0.39,1.15,0.304,1.101,-4.676,2.123
10741,0.0221,0.0055,-0.0027,-0.56,0.47,1.18,0.304,1.817,-4.864,2.578
10751,0.0213,0.0065,-0.0025,-0.54,0.52,1.20,0.304,5.780,-3.680,1.811
10761,0.0209,0.0071,-0.0026,-0.54,0.56,1.23,0.304,6.733,-3.330,2.170
10771,0.0185,0.0093,-0.0048,-0.52,0.62,1.25,0.304,4.985,-3.000,2.030
10782,0.0182,0.0088,-0.0045,-0.46,0.65,1.27,0.304,3.741,-3.667,2.878
10792,0.0166,0.0111,-0.0042,-0.40,0.69,1.29,0.304,4.485,-4.825,2.733
10802,0.0154,0.0118,-0.0040,-0.35,0.72,1.31,0.303,6.905,-2.533,1.906
10811,0.0131,0.0134,-0.0038,-0.32,0.76,1.34,0.303,4.920,-2.991,2.460
10821,0.0125,0.0146,-0.0067,-0.26,0.80,1.37,0.303,4.767,-1.701,2.201
10832,0.0111,0.0150,-0.0064,-0.20,0.83,1.39,0.303,6.342,-0.209,2.562
10842,0.0089,0.0178,-0.0057,-0.15,0.86,1.41,0.303,2.186,1.754,2.460
10851,0.0068,0.0209,-0.0051,-0.13,0.87,1.44,0.302,4.893,1.747,1.635
10861,0.0053,0.0211,-0.0050,-0.07,0.88,1.46,0.302,1.919,3.547,2.556
10871,0.0037,0.0239,-0.0085,-0.06,0.86,1.49,0.302,3.824,2.031,2.436
10881,0.0022,0.0240,-0.0085,-0.01,0.85,1.50,0.302,5.847,3.618,1.757
10891,0.0012,0.0249,-0.0079,0.01,0.82,1.53,0.302,4.623,5.405,1.471
10901,-0.0002,0.0248,-0.0074,0.05,0.80,1.55,0.304,2.338,5.422,1.647
10911,-0.0049,0.0227,-0.0074,0.11,0.78,1.57,0.304,7.082,5.281,0.890
10921,-0.0063,0.0225,-0.0043,0.16,0.73,1.59,0.304,7.250,3.885,1.628
10931,-0.0066,0.0272,-0.0042,0.16,0.66,1.60,0.304,7.834,3.366,1.856
10941,-0.0067,0.0267,-0.0036,0.24,0.61,1.61,0.304,8.673,5.002,1.510
10951,-0.0110,0.0261,-0.0028,0.31,0.59,1.63,0.303,3.777,6.152,1.258
10962,-0.0120,0.0256,-0.0022,0.39,0.55,1.64,0.303,4.132,5.108,2.420
10972,-0.0117,0.0268,-0.0017,0.46,0.49,1.66,0.303,6.582,4.553,1.640
10981,-0.0133,0.0265,-0.0017,0.50,0.43,1.67,0.303,3.987,5.449,1.645
10991,-0.0148,0.0280,-0.0013,0.53,0.39,1.70,0.303,6.301,6.637,0.434
11001,-0.0154,0.0271,-0.0006,0.60,0.34,1.71,0.304,4.868,5.429,1.206
11011,-0.0167,0.0265,-0.0001,0.64,0.28,1.73,0.304,2.794,7.423,0.676
11021,-0.0175,0.0256,0.0023,0.70,0.22,1.74,0.304,4.729,7.664,0.767
11031,-0.0225,0.0244,0.0020,0.74,0.18,1.75,0.304,1.846,8.171,0.635
11041,-0.0208,0.0240,0.0022,0.77,0.10,1.76,0.304,2.174,5.989,1.339
11051,-0.0229,0.0210,0.0026,0.82,0.03,1.77,0.304,4.249,6.004,0.711
11061,-0.0209,0.0208,0.0026,0.83,-0.06,1.77,0.302,1.576,5.426,1.532
11071,-0.0211,0.0181,-0.0008,0.87,-0.12,1.79,0.302,0.340,6.883,0.332
11081,-0.0230,0.0157,-0.0010,0.90,-0.17,1.80,0.302,2.517,6.256,-0.782
11091,-0.0227,0.0141,-0.0011,0.91,-0.22,1.81,0.302,1.766,3.878,0.126
11101,-0.0206,0.0140,-0.0008,0.91,-0.30,1.82,0.306,1.588,4.795,-0.039
11111,-0.0200,0.0125,-0.0004,0.93,-0.35,1.81,0.306,0.789,4.829,-0.804
11121,-0.0240,0.0122,0.0063,0.93,-0.37,1.82,0.306,-0.937,5.037,-0.524
11131,-0.0236,0.0100,0.0059,0.94,-0.43,1.81,0.306,-3.094,5.130,-1.413
11141,-0.0212,0.0100,0.0056,0.94,-0.49,1.80,0.306,-2.232,4.670,-2.014
11151,-0.0247,0.0080,0.0059,0.94,-0.52,1.80,0.306,-0.601,4.040,-2.955
11161,-0.0222,0.0046,0.0063,0.92,-0.57,1.78,0.308,-4.329,1.675,-1.093
11171,-0.0198,0.0054,0.0144,0.89,-0.63,1.76,0.308,-3.888,3.870,-2.546
11181,-0.0193,0.0019,0.0139,0.88,-0.66,1.74,0.308,-1.805,3.316,-2.217
11191,-0.0181,0.0004,0.0131,0.85,-0.68,1.72,0.308,-3.906,1.992,-1.918
11201,-0.0158,-0.0022,0.0126,0.82,-0.72,1.70,0.304,-3.077,1.887,-1.785
11211,-0.0154,-0.0030,0.0123,0.80,-0.75,1.68,0.304,-3.473,1.561,-2.169
11220,-0.0141,-0.0043,0.0065,0.76,-0.77,1.66,0.304,-4.579,1.219,-2.300
11231,-0.0128,-0.0056,0.0060,0.72,-0.79,1.64,0.304,-2.236,2.473,-3.347
11241,-0.0127,-0.0082,0.0052,0.69,-0.81,1.61,0.304,-7.640,0.828,-1.638
11251,-0.0127,-0.0085,0.0045,0.64,-0.82,1.59,0.304,-5.288,-0.999,-2.369
11261,-0.0113,-0.0095,0.0040,0.60,-0.84,1.56,0.304,-7.475,-1.033,-2.446
11271,-0.0155,-0.0134,-0.0004,0.55,-0.80,1.54,0.304,-10.637,-2.727,-1.121
11281,-0.0141,-0.0143,-0.0008,0.50,-0.79,1.52,0.304,-6.080,-2.975,-2.207
11291,-0.0123,-0.0174,-0.0016,0.44,-0.78,1.49,0.304,-6.809,-2.050,-2.780
11301,-0.0132,-0.0161,-0.0024,0.34,-0.74,1.48,0.302,-9.321,-3.063,-1.516
11311,-0.0120,-0.0171,-0.0030,0.28,-0.71,1.46,0.302,-5.250,-1.877,-2.734
11320,-0.0108,-0.0175,-0.0096,0.20,-0.69,1.43,0.302,-8.694,0.324,-2.614
11331,-0.0098,-0.0200,-0.0100,0.13,-0.66,1.42,0.302,-10.275,-0.112,-1.944
11341,-0.0086,-0.0202,-0.0106,0.08,-0.64,1.39,0.302,-5.705,1.137,-3.235
11351,-0.0075,-0.0203,-0.0112,-0.01,-0.64,1.36,0.302,-8.268,-1.056,-1.886
11360,-0.0064,-0.0202,-0.0117,-0.11,-0.65,1.34,0.302,-7.368,1.418,-3.358
11371,-0.0049,-0.0228,-0.0142,-0.15,-0.66,1.31,0.302,-8.474,0.545,-2.396
11381,-0.0038,-0.0225,-0.0144,-0.24,-0.65,1.29,0.302,-7.847,-1.024,-2.468
11391,-0.0023,-0.0246,-0.0148,-0.29,-0.66,1.26,0.302,-7.303,-1.979,-2.839
11401,-0.0011,-0.0240,-0.0151,-0.37,-0.66,1.23,0.302,-6.452,-2.762,-2.516
11410,0.0001,-0.0278,-0.0151,-0.41,-0.65,1.20,0.302,-5.340,-3.490,-3.358
11421,0.0012,-0.0271,-0.0150,-0.47,-0.63,1.17,0.302,-4.851,-3.834,-3.119
11431,0.0023,-0.0263,-0.0149,-0.52,-0.60,1.14,0.302,-4.177,-4.278,-3.075
11441,0.0048,-0.0235,-0.0149,-0.58,-0.57,1.11,0.302,-5.987,-4.206,-4.126
11450,0.0058,-0.0225,-0.0149,-0.63,-0.53,1.08,0.300,-5.404,-4.627,-4.088
11461,0.0079,-0.0197,-0.0144,-0.69,-0.49,1.04,0.300,-6.968,-5.739,-3.513
11471,0.0074,-0.0193,-0.0166,-0.74,-0.44,1.01,0.300,-4.760,-5.598,-3.774
11481,0.0071,-0.0208,-0.0163,-0.78,-0.38,0.97,0.300,-3.561,-4.509,-4.103
11491,0.0078,-0.0195,-0.0163,-0.84,-0.33,0.94,0.300,-2.193,-4.183,-4.095
11501,0.0115,-0.0161,-0.0160,-0.90,-0.30,0.90,0.298,-2.384,-4.213,-3.888
11511,0.0107,-0.0178,-0.0156,-0.92,-0.24,0.86,0.298,-1.198,-4.961,-3.795
11521,0.0110,-0.0163,-0.0196,-0.94,-0.19,0.82,0.298,-2.255,-4.398,-3.930
11530,0.0113,-0.0146,-0.0193,-0.96,-0.15,0.78,0.298,-1.418,-2.869,-3.717
11541,0.0116,-0.0130,-0.0189,-0.98,-0.10,0.74,0.298,2.229,-3.052,-4.198
11551,0.0155,-0.0104,-0.0182,-1.00,-0.08,0.71,0.299,1.901,-3.334,-4.003
11561,0.0168,-0.0060,-0.0178,-1.02,-0.06,0.67,0.299,2.339,-2.873,-4.134
11571,0.0169,-0.0042,-0.0151,-1.00,-0.03,0.62,0.299,2.845,-2.629,-4.730
11581,0.0169,-0.0025,-0.0146,-0.97,0.00,0.58,0.299,3.368,-2.683,-5.545
11590,0.0169,-0.0009,-0.0140,-0.95,0.03,0.54,0.299,1.847,-3.447,-5.241
11601,0.0179,0.0027,-0.0134,-0.93,0.05,0.49,0.300,1.945,-3.800,-4.439
11611,0.0178,0.0043,-0.0129,-0.90,0.09,0.44,0.300,3.405,-3.175,-4.818
11621,0.0161,0.0102,-0.0081,-0.90,0.13,0.39,0.300,3.711,-2.265,-4.863
11630,0.0144,0.0132,-0.0074,-0.88,0.18,0.34,0.300,3.446,-1.498,-5.153
11640,0.0176,0.0181,-0.0067,-0.85,0.19,0.29,0.300,8.498,-3.475,-5.736
11651,0.0172,0.0196,-0.0066,-0.80,0.22,0.24,0.300,5.606,-2.795,-4.705
11661,0.0134,0.0196,-0.0063,-0.75,0.26,0.19,0.298,10.067,-2.726,-5.515
11670,0.0119,0.0231,-0.0065,-0.69,0.29,0.13,0.298,10.195,-2.115,-5.279
11680,0.0103,0.0245,-0.0061,-0.61,0.33,0.08,0.298,7.271,-1.173,-5.060
11691,0.0090,0.0276,-0.0062,-0.53,0.36,0.03,0.298,11.633,-1.885,-4.886
11700,0.0079,0.0299,-0.0063,-0.44,0.37,-0.02,0.299,11.610,-0.728,-5.153
11710,0.0111,0.0348,-0.0061,-0.37,0.37,-0.07,0.299,9.754,0.653,-4.063
11720,0.0121,0.0345,-0.0036,-0.27,0.37,-0.12,0.299,12.947,0.312,-3.696
11731,0.0108,0.0397,-0.0035,-0.15,0.39,-0.17,0.299,11.449,1.237,-3.390
11740,0.0101,0.0399,-0.0035,-0.06,0.38,-0.21,0.299,6.638,2.406,-3.249
11750,0.0095,0.0401,-0.0031,0.07,0.37,-0.25,0.297,8.885,2.105,-2.751
11761,0.0089,0.0410,-0.0028,0.17,0.35,-0.28,0.297,12.720,1.384,-2.546
11771,0.0083,0.0468,-0.0053,0.20,0.34,-0.31,0.297,14.743,0.744,-2.463
11781,0.0079,0.0473,-0.0053,0.31,0.31,-0.34,0.297,15.989,0.319,-2.692
11790,0.0073,0.0514,-0.0051,0.41,0.30,-0.36,0.297,10.761,0.125,-1.467
11801,0.0066,0.0482,-0.0049,0.58,0.30,-0.39,0.298,10.857,0.419,-1.202
11811,0.0039,0.0472,-0.0051,0.72,0.30,-0.41,0.298,17.234,-0.405,-1.893
11820,0.0031,0.0445,-0.0041,0.84,0.30,-0.43,0.298,12.783,-0.097,-0.936
11830,0.0026,0.0479,-0.0040,0.94,0.30,-0.44,0.298,9.231,-0.465,-0.510
11841,0.0020,0.0440,-0.0037,1.10,0.30,-0.45,0.298,8.196,0.202,-0.007
11850,0.0014,0.0407,-0.0039,1.22,0.30,-0.46,0.297,10.929,-0.682,-0.092
11860,0.0008,0.0398,-0.0042,1.29,0.30,-0.46,0.297,5.532,0.038,0.623
11871,0.0002,0.0386,-0.0052,1.37,0.30,-0.46,0.297,3.384,1.587,0.751
11881,-0.0023,0.0353,-0.0050,1.47,0.32,-0.46,0.297,6.292,1.547,0.678
11890,-0.0028,0.0328,-0.0048,1.52,0.32,-0.45,0.297,3.813,2.333,0.760
11901,-0.0030,0.0305,-0.0050,1.56,0.30,-0.44,0.297,5.428,3.325,0.939
11911,-0.0036,0.0278,-0.0053,1.62,0.29,-0.43,0.297,3.654,2.424,0.817
11920,-0.0055,0.0275,-0.0055,1.64,0.27,-0.43,0.297,2.714,3.997,1.288
11930,-0.0060,0.0247,-0.0057,1.70,0.25,-0.42,0.297,0.434,3.860,0.901
11941,-0.0097,0.0204,-0.0061,1.74,0.24,-0.41,0.297,-0.482,3.812,1.613
11951,-0.0091,0.0183,-0.0062,1.77,0.20,-0.40,0.297,-0.313,1.564,1.713
11960,-0.0105,0.0169,-0.0062,1.75,0.16,-0.39,0.297,-3.191,2.159,1.235
11970,-0.0117,0.0173,-0.0054,1.73,0.13,-0.37,0.297,-2.837,1.000,1.399
11980,-0.0120,0.0143,-0.0056,1.71,0.12,-0.35,0.297,-3.985,1.437,0.641
11990,-0.0116,0.0094,-0.0061,1.70,0.10,-0.34,0.297,-6.187,2.743,1.802
12001,-0.0169,0.0069,-0.0063,1.65,0.11,-0.32,0.295,-6.174,3.736,0.391
12010,-0.0171,0.0041,-0.0064,1.60,0.10,-0.31,0.295,-6.892,3.780,1.019
12020,-0.0159,0.0004,-0.0100,1.53,0.04,-0.30,0.295,-7.271,5.692,1.216
12031,-0.0168,-0.0012,-0.0101,1.47,0.01,-0.30,0.295,-9.962,7.638,0.932
12040,-0.0168,-0.0038,-0.0100,1.40,-0.04,-0.28,0.295,-9.129,4.614,1.433
12050,-0.0151,-0.0087,-0.0099,1.34,-0.11,-0.27,0.294,-8.816,4.156,1.866
12060,-0.0135,-0.0111,-0.0096,1.24,-0.18,-0.26,0.294,-9.352,5.400,1.772
12071,-0.0180,-0.0115,-0.0127,1.15,-0.20,-0.24,0.294,-9.044,5.008,1.767
12080,-0.0183,-0.0135,-0.0125,1.06,-0.24,-0.22,0.294,-10.579,2.017,1.443
12090,-0.0184,-0.0153,-0.0121,0.97,-0.29,-0.20,0.294,-10.831,2.576,1.448
12100,-0.0186,-0.0191,-0.0117,0.88,-0.33,-0.18,0.293,-9.250,-0.221,1.188
12110,-0.0171,-0.0220,-0.0119,0.78,-0.36,-0.16,0.293,-10.310,-0.097,1.814
12120,-0.0157,-0.0229,-0.0147,0.68,-0.37,-0.15,0.293,-9.789,2.143,1.688
12130,-0.0164,-0.0237,-0.0145,0.59,-0.36,-0.14,0.293,-9.947,-0.390,2.604
12140,-0.0171,-0.0222,-0.0141,0.46,-0.36,-0.12,0.293,-10.064,3.190,2.143
12150,-0.0176,-0.0265,-0.0139,0.38,-0.37,-0.10,0.292,-8.533,2.616,1.538
12160,-0.0170,-0.0271,-0.0134,0.28,-0.38,-0.07,0.292,-7.684,1.957,2.062
12170,-0.0172,-0.0329,-0.0147,0.22,-0.41,-0.06,0.292,-8.128,2.344,1.732
12180,-0.0174,-0.0309,-0.0140,0.13,-0.43,-0.04,0.292,-9.267,2.502,1.613
12190,-0.0158,-0.0326,-0.0136,0.05,-0.45,-0.02,0.292,-8.826,2.119,0.972
12200,-0.0160,-0.0323,-0.0134,-0.03,-0.48,-0.00,0.292,-8.336,2.328,0.839
12210,-0.0143,-0.0353,-0.0126,-0.11,-0.50,0.01,0.292,-9.001,2.617,0.659
12220,-0.0135,-0.0351,-0.0116,-0.20,-0.52,0.02,0.292,-10.569,3.211,0.230
12230,-0.0137,-0.0343,-0.0108,-0.28,-0.54,0.03,0.292,-12.025,2.072,0.600
12240,-0.0127,-0.0338,-0.0102,-0.38,-0.57,0.03,0.292,-10.236,0.592,0.762
12250,-0.0109,-0.0322,-0.0093,-0.48,-0.59,0.03,0.293,-9.026,0.161,0.401
12260,-0.0112,-0.0286,-0.0085,-0.61,-0.60,0.04,0.293,-6.958,-0.285,0.101
12270,-0.0117,-0.0327,-0.0040,-0.67,-0.60,0.05,0.293,-5.740,-1.993,0.254
12280,-0.0122,-0.0312,-0.0034,-0.75,-0.59,0.05,0.293,-5.098,-2.274,0.749
12290,-0.0112,-0.0299,-0.0027,-0.82,-0.58,0.05,0.293,-4.945,-1.030,0.072
12300,-0.0102,-0.0285,-0.0016,-0.87,-0.56,0.06,0.291,-5.347,-1.772,1.057
12310,-0.0073,-0.0329,-0.0006,-0.89,-0.55,0.06,0.291,-2.851,-2.881,0.669
12320,-0.0064,-0.0314,-0.0020,-0.94,-0.54,0.07,0.291,-2.427,-0.406,0.506
12330,-0.0053,-0.0296,-0.0009,-1.00,-0.52,0.08,0.291,-3.713,0.472,0.892
12340,-0.0046,-0.0304,0.0003,-1.01,-0.50,0.09,0.291,-3.749,-0.257,-0.209
12350,-0.0037,-0.0286,0.0014,-1.04,-0.49,0.09,0.292,-3.831,-1.261,0.785
12360,-0.0007,-0.0272,0.0022,-1.08,-0.51,0.10,0.292,-3.864,-0.155,0.029
12370,-0.0019,-0.0218,0.0038,-1.13,-0.49,0.10,0.292,-2.182,-0.552,0.481
