time_ms,vel_x,vel_y,vel_z,roll,pitch,yaw,range_z,gyro_x,gyro_y,gyro_z
0,-0.4358,-2.2066,-0.0005,-0.27,0.17,0.11,0.008,-0.095,0.110,0.232
0,-0.4361,-2.2084,-0.0002,-0.27,0.17,0.11,0.008,0.034,0.019,-0.020
0,-0.4367,-2.2108,-0.0001,-0.27,0.17,0.11,0.008,-0.099,0.061,0.026
0,-0.4374,-2.2133,0.0000,-0.27,0.17,0.11,0.008,-0.273,0.057,0.023
0,-0.4381,-2.2159,-0.0000,-0.27,0.17,0.11,0.010,0.105,-0.013,0.144
0,-0.4386,-2.2188,0.0000,-0.27,0.17,0.11,0.010,-0.229,-0.216,-0.082
0,-0.4363,-2.2065,0.0047,-0.29,0.16,0.11,0.010,0.245,0.172,0.143
0,-0.4370,-2.2093,0.0048,-0.29,0.16,0.11,0.010,-0.077,-0.181,-0.115
0,-0.4378,-2.2119,0.0048,-0.29,0.16,0.11,0.010,-0.368,-0.054,0.168
0,-0.4385,-2.2145,0.0049,-0.29,0.16,0.11,0.009,0.183,-0.354,-0.112
0,-0.4394,-2.2175,0.0051,-0.29,0.16,0.11,0.009,-0.100,0.131,0.024
1,-0.4403,-2.2206,0.0050,-0.29,0.16,0.11,0.009,-0.137,0.078,-0.063
1,-0.4412,-2.2233,0.0052,-0.29,0.17,0.11,0.009,-0.135,-0.089,-0.036
1,-0.4420,-2.2259,0.0055,-0.29,0.17,0.11,0.009,-0.174,-0.271,0.153
1,-0.4427,-2.2285,0.0057,-0.29,0.16,0.11,0.008,0.268,-0.047,-0.375
1,-0.4436,-2.2311,0.0057,-0.29,0.17,0.11,0.008,-0.178,0.101,0.127
1,-0.4453,-2.2379,0.0029,-0.29,0.17,0.11,0.008,-0.211,0.247,-0.093
1,-0.4461,-2.2405,0.0030,-0.29,0.17,0.10,0.008,0.184,-0.021,-0.106
1,-0.4468,-2.2433,0.0033,-0.29,0.17,0.10,0.008,-0.231,-0.136,-0.240
1,-0.4474,-2.2460,0.0036,-0.29,0.17,0.10,0.007,-0.176,-0.310,0.112
1,-0.4481,-2.2487,0.0038,-0.29,0.17,0.10,0.007,-0.255,-0.248,0.116
1,-0.4501,-2.2583,-0.0006,-0.28,0.17,0.10,0.007,-0.455,-0.128,-0.312
1,-0.4510,-2.2609,-0.0003,-0.28,0.17,0.10,0.007,0.097,-0.012,0.016
1,-0.4517,-2.2638,-0.0004,-0.28,0.17,0.10,0.007,0.017,0.189,-0.233
1,-0.4523,-2.2666,-0.0004,-0.28,0.18,0.10,0.009,-0.096,0.177,0.543
1,-0.4525,-2.2653,0.0017,-0.29,0.17,0.10,0.009,-0.241,-0.076,-0.175
1,-0.4534,-2.2679,0.0019,-0.29,0.17,0.10,0.009,-0.318,0.076,-0.104
2,-0.4544,-2.2706,0.0021,-0.29,0.17,0.10,0.009,0.106,-0.139,-0.160
2,-0.4554,-2.2732,0.0021,-0.29,0.17,0.10,0.009,-0.245,-0.355,-0.062
2,-0.4563,-2.2759,0.0023,-0.29,0.17,0.10,0.009,-0.096,0.186,-0.368
2,-0.4570,-2.2785,0.0026,-0.29,0.17,0.10,0.009,0.001,0.300,-0.136
2,-0.4573,-2.2789,0.0038,-0.29,0.17,0.10,0.009,-0.028,-0.329,-0.114
2,-0.4581,-2.2815,0.0040,-0.29,0.17,0.10,0.009,-0.190,-0.060,-0.135
2,-0.4590,-2.2843,0.0042,-0.29,0.17,0.10,0.009,-0.097,-0.072,-0.115
2,-0.4599,-2.2871,0.0044,-0.29,0.17,0.10,0.009,0.089,0.032,0.271
2,-0.4605,-2.2895,0.0045,-0.29,0.17,0.10,0.009,0.021,-0.340,0.004
2,-0.4612,-2.2924,0.0047,-0.29,0.17,0.10,0.009,-0.176,-0.162,-0.271
2,-0.4619,-2.2950,0.0051,-0.29,0.17,0.10,0.009,0.007,-0.359,0.067
2,-0.4626,-2.2976,0.0055,-0.29,0.17,0.10,0.009,0.250,-0.180,-0.240
2,-0.4634,-2.3003,0.0056,-0.29,0.17,0.09,0.011,-0.295,0.233,0.248
2,-0.4641,-2.3033,0.0057,-0.29,0.18,0.10,0.011,-0.112,0.021,0.150
2,-0.4629,-2.2961,0.0100,-0.30,0.18,0.10,0.011,-0.055,0.261,0.094
2,-0.4636,-2.2988,0.0102,-0.31,0.17,0.10,0.011,0.147,-0.030,0.026
2,-0.4643,-2.3015,0.0104,-0.31,0.17,0.10,0.011,-0.060,0.075,-0.064
3,-0.4651,-2.3042,0.0105,-0.31,0.17,0.10,0.009,-0.252,0.132,0.511
3,-0.4672,-2.3134,0.0073,-0.30,0.17,0.10,0.009,-0.178,-0.166,0.276
3,-0.4678,-2.3161,0.0075,-0.30,0.17,0.10,0.009,-0.327,0.374,0.190
3,-0.4684,-2.3188,0.0076,-0.30,0.17,0.10,0.009,-0.015,0.160,-0.114
3,-0.4693,-2.3216,0.0078,-0.30,0.17,0.10,0.009,-0.412,0.132,0.177
3,-0.4702,-2.3244,0.0079,-0.30,0.17,0.10,0.009,-0.287,0.120,-0.197
3,-0.4708,-2.3270,0.0078,-0.30,0.17,0.10,0.009,0.077,0.073,-0.008
3,-0.4726,-2.3367,0.0047,-0.29,0.17,0.10,0.009,-0.011,-0.216,0.037
3,-0.4732,-2.3394,0.0049,-0.29,0.17,0.10,0.009,-0.234,-0.197,0.110
3,-0.4738,-2.3420,0.0052,-0.29,0.17,0.10,0.009,-0.138,0.217,0.200
3,-0.4744,-2.3445,0.0055,-0.29,0.17,0.10,0.009,0.019,-0.080,-0.130
3,-0.4761,-2.3527,0.0036,-0.29,0.18,0.10,0.009,-0.129,0.020,0.156
3,-0.4768,-2.3552,0.0037,-0.29,0.17,0.10,0.009,-0.106,-0.150,-0.009
3,-0.4773,-2.3579,0.0039,-0.29,0.17,0.10,0.009,-0.258,-0.076,-0.143
3,-0.4781,-2.3606,0.0040,-0.29,0.17,0.10,0.009,-0.176,-0.090,-0.448
3,-0.4790,-2.3633,0.0039,-0.29,0.18,0.11,0.009,-0.197,0.053,0.096
3,-0.4797,-2.3658,0.0039,-0.29,0.18,0.10,0.009,-0.038,-0.074,-0.124
3,-0.4814,-2.3749,0.0023,-0.29,0.18,0.10,0.009,-0.044,0.225,0.092
3,-0.4819,-2.3776,0.0025,-0.29,0.18,0.10,0.009,-0.163,-0.088,-0.283
3,-0.4826,-2.3802,0.0025,-0.29,0.18,0.10,0.009,-0.198,0.072,-0.084
3,-0.4834,-2.3827,0.0027,-0.29,0.18,0.10,0.006,0.044,-0.076,0.161
3,-0.4892,-2.4150,-0.0048,-0.25,0.19,0.10,0.006,0.025,-0.202,-0.300
3,-0.4900,-2.4177,-0.0046,-0.25,0.19,0.10,0.006,0.118,-0.014,0.109
3,-0.4908,-2.4204,-0.0045,-0.26,0.19,0.10,0.006,-0.425,0.086,0.054
3,-0.4915,-2.4232,-0.0043,-0.26,0.19,0.10,0.006,0.108,-0.173,-0.027
4,-0.4921,-2.4258,-0.0041,-0.25,0.19,0.10,0.010,-0.248,0.001,0.101
4,-0.4928,-2.4284,-0.0041,-0.26,0.19,0.10,0.010,-0.006,-0.103,0.137
4,-0.4886,-2.4017,0.0011,-0.29,0.18,0.10,0.010,0.077,-0.337,0.069
4,-0.4895,-2.4043,0.0013,-0.29,0.18,0.10,0.010,-0.161,0.143,-0.087
4,-0.4902,-2.4069,0.0015,-0.29,0.19,0.10,0.010,-0.135,0.215,-0.006
4,-0.4908,-2.4094,0.0018,-0.29,0.19,0.10,0.010,-0.256,0.017,0.154
4,-0.4892,-2.3992,0.0045,-0.30,0.19,0.10,0.010,-0.195,0.239,-0.097
4,-0.4901,-2.4018,0.0046,-0.30,0.18,0.10,0.010,-0.028,-0.114,0.099
4,-0.4908,-2.4045,0.0047,-0.31,0.19,0.10,0.010,-0.033,-0.103,0.067
4,-0.4915,-2.4072,0.0048,-0.31,0.19,0.10,0.010,-0.099,-0.193,-0.366
4,-0.4923,-2.4099,0.0050,-0.31,0.19,0.10,0.011,-0.176,-0.127,0.044
4,-0.4932,-2.4129,0.0052,-0.31,0.19,0.10,0.011,-0.224,-0.089,0.146
4,-0.4921,-2.4040,0.0084,-0.32,0.19,0.10,0.011,0.003,-0.059,-0.092
4,-0.4930,-2.4067,0.0083,-0.32,0.19,0.10,0.011,-0.109,0.198,-0.094
4,-0.4938,-2.4094,0.0084,-0.32,0.19,0.10,0.011,-0.131,0.190,0.099
4,-0.4946,-2.4120,0.0085,-0.32,0.19,0.10,0.012,0.081,-0.132,-0.140
4,-0.4940,-2.4071,0.0120,-0.33,0.19,0.10,0.012,-0.037,-0.111,0.099
4,-0.4945,-2.4096,0.0123,-0.34,0.19,0.10,0.012,-0.101,-0.369,-0.215
4,-0.4952,-2.4123,0.0124,-0.34,0.19,0.10,0.012,-0.474,-0.053,0.314
4,-0.4957,-2.4149,0.0125,-0.34,0.19,0.10,0.012,0.036,-0.127,-0.016
4,-0.4963,-2.4174,0.0128,-0.34,0.19,0.10,0.012,-0.303,-0.082,-0.182
4,-0.4970,-2.4199,0.0129,-0.34,0.19,0.10,0.012,-0.056,-0.174,0.040
4,-0.4979,-2.4223,0.0135,-0.34,0.19,0.10,0.012,-0.191,0.084,0.131
4,-0.4987,-2.4249,0.0138,-0.34,0.19,0.10,0.012,0.082,0.106,-0.378
4,-0.4994,-2.4274,0.0140,-0.34,0.19,0.10,0.012,0.191,-0.169,0.035
4,-0.5001,-2.4299,0.0140,-0.34,0.19,0.10,0.009,0.032,0.045,0.092
4,-0.5008,-2.4324,0.0141,-0.34,0.19,0.10,0.009,-0.086,-0.156,0.089
4,-0.5018,-2.4383,0.0065,-0.33,0.19,0.10,0.009,-0.031,0.095,-0.109
4,-0.5025,-2.4411,0.0067,-0.33,0.19,0.10,0.009,0.042,0.002,-0.015
4,-0.5033,-2.4439,0.0067,-0.33,0.19,0.10,0.009,-0.029,-0.102,-0.129
4,-0.5041,-2.4466,0.0067,-0.33,0.19,0.10,0.008,0.046,-0.157,0.073
4,-0.5048,-2.4494,0.0069,-0.33,0.19,0.10,0.008,0.000,-0.114,-0.056
4,-0.5064,-2.4593,-0.0012,-0.31,0.20,0.10,0.008,-0.141,0.109,-0.023
5,-0.5071,-2.4622,-0.0011,-0.31,0.20,0.10,0.008,-0.066,-0.338,0.002
5,-0.5079,-2.4650,-0.0010,-0.31,0.20,0.10,0.008,0.052,0.082,0.171
5,-0.5086,-2.4678,-0.0008,-0.31,0.20,0.10,0.008,-0.088,-0.179,0.166
5,-0.5104,-2.4780,-0.0046,-0.30,0.20,0.10,0.008,-0.007,0.012,0.105
5,-0.5112,-2.4807,-0.0044,-0.30,0.20,0.10,0.008,-0.186,-0.004,-0.024
5,-0.5120,-2.4834,-0.0042,-0.30,0.20,0.10,0.008,0.019,-0.055,-0.198
5,-0.5128,-2.4860,-0.0040,-0.30,0.20,0.10,0.008,-0.038,0.075,0.132
5,-0.5137,-2.4886,-0.0040,-0.30,0.20,0.10,0.011,-0.105,0.100,0.230
5,-0.5145,-2.4913,-0.0038,-0.30,0.20,0.10,0.011,-0.110,-0.079,0.106
5,-0.5126,-2.4777,0.0012,-0.32,0.20,0.10,0.011,-0.287,-0.045,0.161
5,-0.5134,-2.4805,0.0013,-0.32,0.20,0.10,0.011,-0.273,-0.024,0.159
5,-0.5141,-2.4830,0.0018,-0.32,0.20,0.10,0.011,-0.271,0.139,-0.040
5,-0.5147,-2.4857,0.0020,-0.32,0.20,0.10,0.012,0.004,0.092,-0.123
5,-0.5131,-2.4741,0.0067,-0.34,0.20,0.10,0.012,0.043,-0.083,-0.044
5,-0.5140,-2.4767,0.0068,-0.34,0.19,0.10,0.012,-0.013,-0.077,-0.189
5,-0.5148,-2.4791,0.0069,-0.34,0.19,0.10,0.012,-0.081,0.153,0.104
5,-0.5155,-2.4818,0.0069,-0.34,0.19,0.10,0.012,-0.149,-0.163,0.236
5,-0.5163,-2.4845,0.0069,-0.34,0.19,0.10,0.007,0.052,-0.170,-0.034
5,-0.5171,-2.4872,0.0070,-0.34,0.19,0.10,0.007,-0.064,0.277,0.276
5,-0.5211,-2.5095,-0.0025,-0.31,0.20,0.10,0.007,-0.170,-0.020,-0.140
5,-0.5220,-2.5120,-0.0022,-0.31,0.20,0.10,0.007,-0.180,0.171,-0.170
6,-0.5229,-2.5147,-0.0020,-0.31,0.20,0.10,0.007,0.231,0.144,-0.008
6,-0.5237,-2.5172,-0.0019,-0.31,0.20,0.10,0.011,0.031,0.131,0.017
6,-0.5245,-2.5197,-0.0020,-0.32,0.20,0.10,0.011,-0.038,0.246,-0.240
6,-0.5236,-2.5118,0.0019,-0.33,0.20,0.10,0.011,-0.274,0.026,0.021
6,-0.5244,-2.5145,0.0023,-0.33,0.20,0.10,0.011,0.001,-0.240,-0.010
6,-0.5252,-2.5170,0.0024,-0.33,0.20,0.10,0.011,-0.033,-0.089,0.055
6,-0.5258,-2.5195,0.0024,-0.33,0.20,0.10,0.010,0.122,-0.115,0.043
6,-0.5264,-2.5222,0.0024,-0.33,0.20,0.10,0.010,-0.335,-0.288,-0.245
6,-0.5271,-2.5255,0.0024,-0.33,0.20,0.10,0.010,-0.259,0.047,-0.171
6,-0.5278,-2.5281,0.0026,-0.33,0.20,0.10,0.010,0.021,-0.189,-0.073
6,-0.5287,-2.5306,0.0025,-0.33,0.20,0.10,0.010,-0.096,0.025,-0.134
6,-0.5295,-2.5331,0.0026,-0.34,0.20,0.10,0.008,-0.170,0.149,0.144
6,-0.5304,-2.5356,0.0026,-0.34,0.20,0.09,0.008,-0.022,-0.197,-0.054
6,-0.5332,-2.5507,-0.0023,-0.32,0.20,0.09,0.008,-0.150,-0.032,-0.093
6,-0.5339,-2.5532,-0.0023,-0.32,0.20,0.10,0.008,0.021,-0.285,-0.043
7,-0.5346,-2.5558,-0.0023,-0.32,0.20,0.10,0.008,0.028,0.034,0.212
7,-0.5355,-2.5584,-0.0022,-0.32,0.20,0.10,0.009,0.077,-0.238,-0.167
7,-0.5362,-2.5611,-0.0020,-0.32,0.20,0.10,0.009,0.089,-0.262,-0.280
7,-0.5371,-2.5650,-0.0020,-0.32,0.20,0.10,0.009,-0.229,-0.054,-0.056
7,-0.5379,-2.5677,-0.0019,-0.32,0.21,0.10,0.009,0.152,0.080,-0.102
7,-0.5388,-2.5703,-0.0017,-0.32,0.21,0.10,0.009,-0.084,0.114,-0.124
7,-0.5396,-2.5727,-0.0015,-0.32,0.21,0.10,0.008,-0.165,-0.313,0.143
7,-0.5417,-2.5840,-0.0036,-0.31,0.21,0.10,0.008,-0.094,-0.230,0.004
7,-0.5425,-2.5868,-0.0036,-0.31,0.21,0.09,0.008,-0.171,-0.070,0.334
7,-0.5433,-2.5894,-0.0036,-0.31,0.21,0.09,0.008,0.050,0.022,0.208
7,-0.5442,-2.5920,-0.0033,-0.32,0.21,0.09,0.008,-0.241,-0.083,-0.159
7,-0.5451,-2.5947,-0.0030,-0.32,0.21,0.10,0.007,-0.002,0.027,-0.031
7,-0.5458,-2.5973,-0.0029,-0.32,0.21,0.10,0.007,-0.057,0.099,-0.296
7,-0.5491,-2.6151,-0.0063,-0.30,0.21,0.10,0.007,0.028,-0.153,-0.067
7,-0.5498,-2.6177,-0.0063,-0.30,0.21,0.10,0.007,0.219,0.173,-0.086
7,-0.5506,-2.6204,-0.0062,-0.30,0.21,0.10,0.007,-0.190,-0.442,-0.118
7,-0.5515,-2.6229,-0.0061,-0.30,0.21,0.10,0.006,-0.175,-0.011,0.085
7,-0.5556,-2.6443,-0.0092,-0.28,0.22,0.10,0.006,-0.015,-0.003,-0.117
8,-0.5563,-2.6471,-0.0089,-0.28,0.22,0.09,0.006,-0.147,-0.286,-0.223
8,-0.5570,-2.6496,-0.0086,-0.28,0.22,0.10,0.006,-0.045,-0.108,-0.016
8,-0.5577,-2.6522,-0.0088,-0.28,0.22,0.10,0.006,-0.201,0.067,0.041
8,-0.5585,-2.6549,-0.0090,-0.29,0.22,0.09,0.013,0.154,0.031,-0.023
8,-0.5593,-2.6576,-0.0091,-0.29,0.22,0.09,0.013,-0.261,-0.090,0.135
8,-0.5407,-2.5490,0.0066,-0.40,0.20,0.09,0.013,-0.248,0.129,0.130
8,-0.5415,-2.5515,0.0068,-0.39,0.20,0.10,0.013,-0.243,0.061,0.336
8,-0.5422,-2.5545,0.0069,-0.40,0.20,0.10,0.013,0.069,-0.059,0.091
8,-0.5428,-2.5572,0.0069,-0.40,0.20,0.10,0.011,0.035,-0.168,0.008
8,-0.5427,-2.5525,0.0102,-0.41,0.19,0.10,0.011,0.066,-0.137,-0.173
8,-0.5434,-2.5552,0.0103,-0.41,0.19,0.10,0.011,0.012,-0.167,0.060
8,-0.5441,-2.5579,0.0104,-0.41,0.20,0.10,0.011,0.243,-0.086,0.052
8,-0.5450,-2.5604,0.0106,-0.41,0.20,0.10,0.011,0.111,0.039,0.012
8,-0.5459,-2.5629,0.0107,-0.41,0.20,0.10,0.010,-0.140,0.034,0.027
8,-0.5466,-2.5653,0.0108,-0.41,0.20,0.10,0.010,0.166,-0.238,-0.016
8,-0.5463,-2.5638,0.0092,-0.41,0.20,0.10,0.010,-0.188,0.013,0.184
8,-0.5472,-2.5663,0.0094,-0.41,0.20,0.10,0.010,0.052,-0.261,0.227
8,-0.5481,-2.5685,0.0095,-0.41,0.20,0.10,0.010,-0.204,0.084,0.058
8,-0.5488,-2.5709,0.0097,-0.41,0.20,0.10,0.011,-0.111,0.079,0.168
8,-0.5495,-2.5735,0.0097,-0.41,0.20,0.10,0.011,-0.112,0.281,-0.052
8,-0.5506,-2.5774,0.0101,-0.41,0.20,0.10,0.011,-0.411,0.032,0.116
8,-0.5516,-2.5799,0.0101,-0.41,0.20,0.10,0.011,0.083,-0.052,-0.100
8,-0.5524,-2.5824,0.0103,-0.41,0.20,0.10,0.011,-0.012,0.208,-0.095
8,-0.5530,-2.5849,0.0105,-0.41,0.20,0.10,0.007,-0.173,0.031,0.028
8,-0.5538,-2.5874,0.0109,-0.41,0.20,0.10,0.007,0.072,0.031,0.035
8,-0.5467,-2.5494,0.0004,-0.43,0.19,0.10,0.007,0.206,-0.047,-0.448
8,-0.5476,-2.5519,0.0007,-0.43,0.19,0.10,0.007,-0.153,0.040,0.074
8,-0.5482,-2.5542,0.0008,-0.43,0.19,0.10,0.007,-0.061,-0.079,0.056
9,-0.5488,-2.5566,0.0009,-0.42,0.19,0.10,0.009,0.083,0.019,0.170
9,-0.5495,-2.5590,0.0011,-0.42,0.19,0.10,0.009,-0.081,-0.126,0.278
9,-0.5494,-2.5562,-0.0000,-0.42,0.19,0.10,0.009,0.156,-0.136,-0.533
9,-0.5503,-2.5587,0.0000,-0.42,0.19,0.10,0.009,-0.088,0.089,0.042
9,-0.5511,-2.5611,0.0001,-0.42,0.19,0.10,0.009,0.098,-0.161,-0.196
9,-0.5519,-2.5634,0.0000,-0.42,0.20,0.10,0.013,0.242,0.133,0.092
9,-0.5526,-2.5659,0.0002,-0.42,0.19,0.10,0.013,-0.135,-0.076,0.200
9,-0.5606,-2.6043,0.0090,-0.41,0.20,0.09,0.013,-0.112,-0.023,-0.019
9,-0.5614,-2.6066,0.0091,-0.41,0.20,0.09,0.013,0.109,-0.066,-0.322
9,-0.5621,-2.6090,0.0092,-0.41,0.20,0.09,0.013,-0.170,0.130,-0.211
9,-0.5628,-2.6113,0.0095,-0.41,0.20,0.09,0.010,-0.074,-0.264,-0.071
9,-0.5621,-2.6074,0.0069,-0.41,0.20,0.09,0.010,0.198,0.099,-0.131
9,-0.5629,-2.6097,0.0071,-0.41,0.20,0.09,0.010,-0.043,-0.130,0.125
9,-0.5635,-2.6118,0.0072,-0.41,0.20,0.09,0.010,-0.187,0.056,-0.027
9,-0.5643,-2.6142,0.0073,-0.41,0.20,0.09,0.010,-0.396,0.253,0.245
9,-0.5650,-2.6167,0.0075,-0.41,0.20,0.09,0.009,-0.172,-0.138,0.013
9,-0.5657,-2.6191,0.0077,-0.41,0.20,0.09,0.009,-0.144,-0.068,0.089
9,-0.5659,-2.6212,0.0025,-0.40,0.20,0.09,0.009,-0.001,0.165,-0.190
9,-0.5667,-2.6237,0.0024,-0.41,0.20,0.09,0.009,-0.202,0.176,0.406
9,-0.5675,-2.6263,0.0026,-0.41,0.20,0.09,0.009,0.077,-0.002,-0.214
9,-0.5684,-2.6290,0.0029,-0.41,0.20,0.09,0.010,0.224,-0.148,-0.089
9,-0.5691,-2.6327,0.0022,-0.41,0.20,0.09,0.010,-0.131,-0.181,0.054
9,-0.5698,-2.6353,0.0024,-0.41,0.20,0.09,0.010,-0.038,-0.210,-0.029
9,-0.5705,-2.6376,0.0026,-0.41,0.20,0.09,0.010,0.104,-0.233,0.206
9,-0.5711,-2.6400,0.0027,-0.41,0.20,0.09,0.010,-0.157,0.047,0.143
9,-0.5718,-2.6424,0.0028,-0.40,0.20,0.09,0.011,0.063,0.212,-0.158
9,-0.5725,-2.6449,0.0028,-0.40,0.20,0.09,0.011,-0.060,-0.010,-0.001
9,-0.5726,-2.6434,0.0042,-0.41,0.20,0.10,0.011,-0.024,0.077,0.028
9,-0.5733,-2.6458,0.0044,-0.40,0.20,0.10,0.011,0.094,-0.053,0.061
9,-0.5740,-2.6483,0.0045,-0.41,0.20,0.09,0.011,-0.171,0.221,0.331
9,-0.5746,-2.6507,0.0047,-0.41,0.20,0.10,0.010,-0.275,0.007,-0.013
9,-0.5754,-2.6530,0.0048,-0.41,0.20,0.10,0.010,-0.305,-0.117,0.222
9,-0.5772,-2.6620,0.0029,-0.40,0.20,0.10,0.010,-0.196,-0.263,-0.211
9,-0.5782,-2.6646,0.0030,-0.40,0.20,0.10,0.010,0.099,-0.371,-0.037
9,-0.5789,-2.6671,0.0030,-0.40,0.20,0.10,0.010,-0.078,-0.198,0.102
9,-0.5797,-2.6696,0.0032,-0.40,0.20,0.10,0.009,0.022,0.038,0.019
10,-0.5805,-2.6722,0.0035,-0.40,0.20,0.10,0.009,-0.058,0.130,-0.096
10,-0.5836,-2.6905,-0.0002,-0.39,0.20,0.10,0.009,-0.250,-0.001,0.040
10,-0.5844,-2.6931,0.0001,-0.39,0.20,0.10,0.009,0.012,0.103,-0.032
10,-0.5852,-2.6957,0.0003,-0.39,0.20,0.10,0.009,-0.021,-0.123,-0.084
10,-0.5860,-2.6984,0.0005,-0.39,0.20,0.10,0.008,-0.280,-0.282,-0.078
10,-0.5867,-2.7010,0.0009,-0.39,0.20,0.10,0.008,-0.126,0.119,0.074
10,-0.5913,-2.7282,-0.0034,-0.36,0.21,0.10,0.008,0.407,0.131,-0.292
10,-0.5923,-2.7308,-0.0034,-0.36,0.21,0.09,0.008,-0.167,0.020,0.174
10,-0.5932,-2.7332,-0.0033,-0.36,0.21,0.09,0.008,0.199,0.204,-0.052
10,-0.5940,-2.7357,-0.0031,-0.36,0.21,0.09,0.010,-0.273,0.062,0.096
10,-0.5948,-2.7382,-0.0030,-0.36,0.20,0.10,0.010,0.036,0.069,0.176
10,-0.5926,-2.7227,-0.0005,-0.38,0.20,0.09,0.010,-0.119,0.001,0.098
10,-0.5933,-2.7252,-0.0004,-0.38,0.20,0.10,0.010,-0.141,-0.044,-0.121
10,-0.5939,-2.7278,-0.0000,-0.38,0.20,0.10,0.010,-0.096,-0.114,0.115
10,-0.5947,-2.7303,0.0003,-0.38,0.20,0.10,0.010,0.056,-0.198,-0.133
10,-0.5940,-2.7228,0.0019,-0.39,0.20,0.10,0.010,-0.113,-0.289,-0.102
10,-0.5947,-2.7252,0.0021,-0.39,0.20,0.10,0.010,-0.028,-0.036,0.052
10,-0.5955,-2.7276,0.0022,-0.39,0.20,0.10,0.010,-0.178,-0.299,-0.185
10,-0.5965,-2.7301,0.0023,-0.39,0.20,0.10,0.010,-0.194,-0.034,0.056
10,-0.5972,-2.7327,0.0024,-0.39,0.20,0.10,0.013,-0.073,-0.185,0.341
10,-0.5981,-2.7354,0.0025,-0.39,0.20,0.10,0.013,-0.265,-0.190,-0.107
10,-0.5917,-2.6934,0.0098,-0.43,0.19,0.10,0.013,-0.187,-0.407,-0.111
10,-0.5924,-2.6959,0.0099,-0.43,0.19,0.10,0.013,-0.005,-0.058,-0.116
10,-0.5931,-2.6986,0.0101,-0.44,0.19,0.10,0.013,-0.062,0.139,-0.319
10,-0.5941,-2.7014,0.0103,-0.44,0.20,0.10,0.011,-0.093,-0.124,-0.085
10,-0.5955,-2.7071,0.0095,-0.44,0.19,0.10,0.011,0.029,-0.130,-0.186
10,-0.5963,-2.7095,0.0096,-0.44,0.19,0.10,0.011,-0.007,0.268,-0.300
10,-0.5970,-2.7121,0.0099,-0.44,0.19,0.10,0.011,0.054,-0.217,-0.054
10,-0.5977,-2.7145,0.0102,-0.44,0.19,0.10,0.011,0.183,-0.324,-0.202
10,-0.5984,-2.7169,0.0103,-0.44,0.19,0.10,0.008,0.058,-0.111,0.191
10,-0.5992,-2.7193,0.0103,-0.44,0.19,0.10,0.008,-0.193,-0.059,-0.021
10,-0.6001,-2.7260,0.0014,-0.42,0.20,0.09,0.008,0.051,0.159,0.024
10,-0.6010,-2.7286,0.0016,-0.42,0.20,0.10,0.008,-0.297,-0.097,0.117
10,-0.6019,-2.7311,0.0017,-0.42,0.20,0.09,0.008,0.281,-0.057,-0.363
10,-0.6026,-2.7336,0.0020,-0.42,0.20,0.09,0.008,-0.088,-0.125,-0.013
10,-0.6034,-2.7382,-0.0032,-0.41,0.20,0.10,0.008,-0.130,0.075,-0.005
11,-0.6040,-2.7405,-0.0032,-0.41,0.20,0.10,0.008,-0.003,-0.087,0.259
11,-0.6046,-2.7429,-0.0031,-0.41,0.20,0.09,0.008,-0.331,-0.031,0.032
11,-0.6053,-2.7454,-0.0029,-0.41,0.20,0.10,0.008,-0.218,-0.072,0.026
11,-0.6062,-2.7479,-0.0029,-0.41,0.20,0.10,0.012,-0.171,-0.100,0.010
11,-0.6073,-2.7504,-0.0029,-0.41,0.20,0.10,0.012,0.112,-0.041,0.022
11,-0.6069,-2.7453,0.0036,-0.43,0.20,0.10,0.012,0.037,-0.263,0.093
11,-0.6075,-2.7478,0.0035,-0.43,0.20,0.10,0.012,0.045,-0.113,0.099
11,-0.6082,-2.7501,0.0035,-0.43,0.20,0.10,0.012,-0.386,-0.017,0.186
11,-0.6089,-2.7526,0.0036,-0.43,0.20,0.10,0.010,0.386,0.295,-0.187
11,-0.6095,-2.7553,0.0039,-0.43,0.20,0.10,0.010,0.041,0.019,0.120
11,-0.6103,-2.7592,0.0028,-0.43,0.20,0.10,0.010,-0.188,-0.099,0.147
11,-0.6111,-2.7617,0.0028,-0.43,0.20,0.10,0.010,-0.185,0.155,0.014
11,-0.6119,-2.7643,0.0030,-0.43,0.20,0.10,0.010,0.057,-0.018,-0.118
11,-0.6128,-2.7669,0.0032,-0.43,0.20,0.10,0.006,-0.273,-0.056,0.101
11,-0.6136,-2.7693,0.0033,-0.43,0.20,0.10,0.006,0.121,-0.051,-0.276
11,-0.6160,-2.7859,-0.0068,-0.41,0.20,0.10,0.006,-0.382,-0.207,0.293
11,-0.6169,-2.7884,-0.0067,-0.41,0.20,0.10,0.006,-0.202,0.027,-0.039
11,-0.6177,-2.7909,-0.0066,-0.41,0.20,0.10,0.006,-0.198,-0.265,0.190
11,-0.6186,-2.7932,-0.0063,-0.41,0.20,0.10,0.009,0.094,0.019,0.321
11,-0.6186,-2.7901,-0.0043,-0.42,0.20,0.10,0.009,-0.101,-0.021,-0.075
11,-0.6192,-2.7926,-0.0042,-0.42,0.20,0.11,0.009,-0.070,-0.355,0.169
11,-0.6199,-2.7951,-0.0039,-0.42,0.20,0.11,0.009,0.008,-0.023,0.080
11,-0.6208,-2.7978,-0.0037,-0.42,0.20,0.10,0.009,-0.175,-0.161,0.171
11,-0.6214,-2.8005,-0.0036,-0.42,0.20,0.11,0.011,0.053,-0.149,0.190
11,-0.6220,-2.8031,-0.0034,-0.42,0.20,0.11,0.011,-0.144,0.303,-0.030
11,-0.6195,-2.7820,0.0027,-0.44,0.20,0.11,0.011,-0.165,-0.301,0.110
11,-0.6204,-2.7843,0.0029,-0.44,0.19,0.11,0.011,-0.125,0.167,0.293
11,-0.6213,-2.7868,0.0030,-0.44,0.19,0.11,0.011,-0.307,0.079,-0.346
11,-0.6221,-2.7892,0.0030,-0.45,0.20,0.11,0.009,-0.094,-0.111,0.052
11,-0.6237,-2.7956,0.0020,-0.45,0.20,0.11,0.009,-0.275,-0.005,0.464
11,-0.6246,-2.7980,0.0021,-0.45,0.20,0.11,0.009,-0.070,-0.201,-0.000
11,-0.6255,-2.8005,0.0023,-0.45,0.20,0.11,0.009,-0.002,0.159,-0.119
11,-0.6262,-2.8029,0.0025,-0.45,0.19,0.11,0.009,-0.250,-0.165,0.249
11,-0.6270,-2.8051,0.0027,-0.45,0.20,0.11,0.010,-0.124,-0.106,-0.054
11,-0.6279,-2.8075,0.0028,-0.45,0.19,0.11,0.010,-0.141,-0.200,0.052
11,-0.6284,-2.8073,0.0039,-0.45,0.20,0.11,0.010,-0.284,-0.174,-0.036
12,-0.6292,-2.8095,0.0039,-0.45,0.20,0.11,0.010,0.203,0.032,-0.009
12,-0.6300,-2.8117,0.0039,-0.45,0.20,0.11,0.010,0.076,-0.124,-0.061
12,-0.6310,-2.8141,0.0040,-0.45,0.20,0.11,0.006,-0.284,0.005,0.085
12,-0.6317,-2.8165,0.0041,-0.45,0.20,0.11,0.006,-0.018,-0.219,-0.310
12,-0.6348,-2.8358,-0.0052,-0.43,0.20,0.11,0.006,-0.065,0.058,0.232
12,-0.6356,-2.8380,-0.0051,-0.43,0.21,0.10,0.006,-0.192,0.001,-0.157
12,-0.6366,-2.8405,-0.0050,-0.43,0.20,0.10,0.006,-0.018,0.123,0.049
12,-0.6377,-2.8433,-0.0050,-0.43,0.20,0.10,0.009,-0.201,-0.044,0.070
12,-0.6386,-2.8457,-0.0049,-0.43,0.20,0.10,0.009,-0.349,-0.031,0.173
12,-0.6379,-2.8401,-0.0024,-0.44,0.20,0.11,0.009,-0.138,-0.129,0.052
12,-0.0001,-0.0007,0.0000,-0.00,-0.00,0.00,0.009,0.054,-0.078,0.159
12,-0.0006,-0.0041,0.0002,-0.00,0.00,0.00,0.009,0.167,-0.021,-0.065
12,-0.0010,-0.0071,0.0004,-0.00,-0.00,0.00,0.012,-0.278,-0.146,0.118
12,-0.0014,-0.0100,0.0006,-0.00,0.00,0.00,0.012,-0.335,-0.210,0.217
12,-0.0018,-0.0131,0.0006,-0.00,-0.00,0.00,0.012,-0.382,0.189,0.335
12,-0.0020,-0.0163,0.0007,-0.00,0.00,0.00,0.012,-0.127,-0.131,-0.417
12,-0.0023,-0.0195,0.0010,-0.00,0.00,0.01,0.012,-0.139,-0.143,0.218
12,-0.0027,-0.0227,0.0012,-0.01,0.00,0.01,0.011,-0.009,0.044,-0.146
12,-0.0032,-0.0258,0.0014,-0.01,0.00,0.00,0.011,-0.037,0.037,-0.325
12,-0.0035,-0.0292,0.0009,-0.01,0.00,0.01,0.011,-0.235,0.112,0.091
12,-0.0039,-0.0325,0.0011,-0.01,0.00,0.01,0.011,-0.198,-0.197,-0.142
12,-0.0044,-0.0354,0.0013,-0.01,0.00,0.01,0.011,0.018,0.035,-0.303
12,-0.0048,-0.0383,0.0016,-0.01,0.00,0.01,0.009,0.335,-0.367,-0.125
12,-0.0052,-0.0414,-0.0017,-0.01,0.00,0.01,0.009,0.156,-0.373,0.220
12,-0.0057,-0.0446,-0.0017,-0.01,0.00,0.00,0.009,0.087,-0.082,0.109
12,-0.0062,-0.0479,-0.0016,-0.01,0.00,0.00,0.009,-0.054,-0.154,-0.060
12,-0.0067,-0.0513,-0.0014,-0.01,0.01,0.00,0.009,-0.219,-0.017,-0.088
12,-0.0071,-0.0547,-0.0015,-0.01,0.01,0.00,0.008,-0.061,0.056,-0.017
12,-0.0076,-0.0580,-0.0014,-0.01,0.01,0.00,0.008,-0.002,-0.273,-0.006
12,-0.0082,-0.0614,-0.0063,-0.02,0.01,0.00,0.008,0.062,0.117,0.036
12,-0.0087,-0.0645,-0.0062,-0.02,0.01,0.00,0.008,-0.257,-0.129,-0.032
12,-0.0092,-0.0677,-0.0060,-0.02,0.01,0.00,0.008,-0.105,-0.314,0.035
12,-0.0096,-0.0706,-0.0061,-0.02,0.01,0.00,0.009,-0.196,0.121,0.099
12,-0.0102,-0.0736,-0.0066,-0.02,0.01,0.00,0.009,-0.011,-0.314,-0.034
12,-0.0108,-0.0770,-0.0067,-0.02,0.01,0.00,0.009,-0.085,-0.085,0.014
13,-0.0114,-0.0802,-0.0067,-0.02,0.01,0.00,0.009,0.043,-0.178,-0.190
13,-0.0120,-0.0834,-0.0066,-0.02,0.02,0.00,0.009,-0.141,-0.097,-0.310
13,-0.0123,-0.0865,-0.0065,-0.02,0.02,0.00,0.013,-0.145,-0.406,0.016
13,-0.0128,-0.0897,-0.0064,-0.02,0.02,-0.00,0.013,-0.150,0.241,0.263
13,-0.0134,-0.0921,0.0043,-0.04,0.02,-0.00,0.013,0.067,-0.296,-0.006
13,-0.0141,-0.0954,0.0043,-0.04,0.02,0.00,0.013,0.084,-0.029,-0.220
13,-0.0148,-0.0987,0.0044,-0.04,0.02,0.00,0.013,-0.251,-0.019,0.086
13,-0.0153,-0.1019,0.0045,-0.04,0.02,-0.00,0.008,-0.078,0.337,0.014
13,-0.0158,-0.1055,-0.0024,-0.03,0.02,0.00,0.008,0.031,-0.013,0.106
13,-0.0164,-0.1086,-0.0024,-0.03,0.02,0.00,0.008,-0.134,0.120,-0.083
13,-0.0170,-0.1120,-0.0024,-0.03,0.02,0.00,0.008,0.020,-0.325,0.169
13,-0.0175,-0.1154,-0.0023,-0.03,0.02,0.00,0.008,-0.337,-0.112,0.130
13,-0.0180,-0.1185,-0.0022,-0.03,0.02,0.00,0.009,-0.111,-0.147,0.120
13,-0.0184,-0.1216,-0.0020,-0.03,0.02,0.00,0.009,-0.014,-0.015,0.295
13,-0.0190,-0.1247,-0.0031,-0.03,0.02,0.00,0.009,-0.095,0.145,0.147
13,-0.0195,-0.1276,-0.0030,-0.03,0.02,0.00,0.009,-0.092,-0.218,-0.055
13,-0.0199,-0.1307,-0.0027,-0.04,0.02,0.00,0.009,-0.154,-0.105,0.402
13,-0.0204,-0.1339,-0.0025,-0.04,0.02,0.00,0.009,-0.017,0.094,0.219
13,-0.0209,-0.1370,-0.0023,-0.04,0.03,0.01,0.009,-0.175,-0.014,-0.077
13,-0.0213,-0.1403,-0.0024,-0.04,0.02,0.01,0.009,-0.229,-0.022,-0.142
13,-0.0218,-0.1434,-0.0022,-0.04,0.03,0.01,0.009,0.010,-0.032,-0.136
13,-0.0224,-0.1463,-0.0020,-0.04,0.02,0.01,0.009,-0.060,-0.063,-0.159
13,-0.0230,-0.1493,-0.0018,-0.04,0.03,0.01,0.009,-0.129,0.016,-0.120
13,-0.0234,-0.1525,-0.0016,-0.04,0.03,0.01,0.009,-0.206,-0.067,0.113
13,-0.0240,-0.1556,-0.0013,-0.04,0.03,0.01,0.009,0.013,-0.310,-0.146
13,-0.0248,-0.1586,-0.0014,-0.04,0.03,0.01,0.009,-0.138,0.098,0.402
21,-0.0255,-0.1617,-0.0017,-0.04,0.03,0.01,0.009,-0.160,-0.179,0.204
31,-0.0260,-0.1647,-0.0016,-0.04,0.03,0.01,0.007,0.011,0.111,-0.046
40,-0.0267,-0.1683,-0.0057,-0.04,0.03,0.01,0.007,-0.095,-0.062,-0.117
51,-0.0272,-0.1713,-0.0055,-0.04,0.03,0.01,0.007,-0.026,0.091,0.065
61,-0.0278,-0.1743,-0.0055,-0.04,0.03,0.01,0.007,-0.060,-0.021,0.192
71,-0.0283,-0.1775,-0.0054,-0.04,0.03,0.01,0.007,-0.160,0.223,0.132
81,-0.0288,-0.1806,-0.0054,-0.04,0.03,0.01,0.008,0.099,-0.181,-0.022
90,-0.0292,-0.1838,-0.0055,-0.04,0.03,0.01,0.008,-0.408,-0.071,0.212
101,-0.0295,-0.1870,-0.0050,-0.04,0.03,0.01,0.008,-0.154,0.025,-0.217
111,-0.0299,-0.1902,-0.0047,-0.04,0.03,0.01,0.008,-0.124,-0.237,0.067
121,-0.0305,-0.1934,-0.0045,-0.04,0.03,0.01,0.008,0.195,0.270,0.024
131,-0.0310,-0.1965,-0.0045,-0.04,0.03,0.01,0.009,-0.282,0.042,0.308
140,-0.0314,-0.1991,-0.0015,-0.04,0.03,0.01,0.009,-0.296,0.215,0.219
151,-0.0319,-0.2021,-0.0013,-0.04,0.03,0.01,0.009,-0.103,-0.081,-0.009
161,-0.0324,-0.2052,-0.0014,-0.05,0.03,0.01,0.009,-0.322,-0.150,0.200
171,-0.0330,-0.2087,-0.0014,-0.05,0.03,0.01,0.009,-0.058,0.293,0.101
180,-0.0336,-0.2117,-0.0013,-0.05,0.03,0.01,0.009,-0.020,-0.095,0.160
191,-0.0342,-0.2145,-0.0014,-0.05,0.03,0.02,0.009,-0.222,-0.187,-0.185
200,-0.0345,-0.2172,0.0005,-0.05,0.03,0.02,0.009,-0.214,0.201,0.355
211,-0.0350,-0.2202,0.0005,-0.05,0.03,0.02,0.009,-0.033,0.105,-0.311
221,-0.0355,-0.2230,0.0007,-0.05,0.03,0.02,0.009,-0.003,0.185,0.150
231,-0.0361,-0.2260,0.0007,-0.05,0.03,0.02,0.011,-0.029,-0.147,-0.204
241,-0.0364,-0.2276,0.0066,-0.06,0.03,0.02,0.011,-0.038,-0.072,0.078
251,-0.0370,-0.2305,0.0069,-0.06,0.03,0.02,0.011,-0.323,-0.044,0.177
261,-0.0370,-0.2305,0.0069,-0.06,0.03,0.02,0.011,-0.032,0.113,-0.074
271,-0.0374,-0.2336,0.0071,-0.07,0.03,0.02,0.011,0.078,-0.131,0.161
281,-0.0376,-0.2366,0.0072,-0.07,0.03,0.02,0.009,-0.368,-0.179,-0.060
290,-0.0381,-0.2398,0.0071,-0.07,0.03,0.02,0.009,0.135,-0.134,-0.086
301,-0.0387,-0.2435,0.0051,-0.07,0.03,0.02,0.009,-0.053,0.068,0.070
311,-0.0392,-0.2467,0.0052,-0.07,0.03,0.02,0.009,-0.245,-0.269,0.342
320,-0.0394,-0.2498,0.0053,-0.07,0.03,0.02,0.009,0.108,-0.114,0.061
331,-0.0399,-0.2529,0.0055,-0.07,0.03,0.02,0.009,0.357,0.152,0.232
341,-0.0403,-0.2563,0.0058,-0.07,0.03,0.02,0.009,0.063,0.012,-0.029
350,-0.0409,-0.2598,0.0044,-0.07,0.03,0.03,0.009,-0.033,-0.090,-0.076
362,-0.0413,-0.2628,0.0047,-0.07,0.03,0.03,0.009,-0.060,0.043,0.003
371,-0.0417,-0.2660,0.0049,-0.07,0.03,0.03,0.009,-0.332,-0.192,0.127
380,-0.0422,-0.2690,0.0050,-0.07,0.03,0.03,0.009,-0.201,-0.081,-0.139
391,-0.0427,-0.2722,0.0052,-0.07,0.03,0.03,0.009,0.011,0.072,0.015
401,-0.0433,-0.2757,0.0038,-0.08,0.03,0.03,0.009,0.027,-0.124,0.052
410,-0.0439,-0.2788,0.0039,-0.08,0.03,0.03,0.009,0.140,-0.050,-0.196
420,-0.0445,-0.2819,0.0041,-0.08,0.03,0.03,0.009,-0.011,-0.472,0.298
430,-0.0450,-0.2850,0.0042,-0.08,0.03,0.03,0.010,-0.074,-0.199,0.140
440,-0.0454,-0.2878,0.0051,-0.08,0.04,0.03,0.010,-0.227,-0.235,0.066
450,-0.0459,-0.2909,0.0054,-0.07,0.04,0.03,0.010,-0.171,-0.148,-0.129
460,-0.0464,-0.2942,0.0057,-0.08,0.04,0.03,0.010,-0.140,0.151,0.019
471,-0.0470,-0.2973,0.0059,-0.08,0.04,0.03,0.010,0.044,-0.053,-0.090
481,-0.0475,-0.3003,0.0061,-0.08,0.04,0.03,0.008,0.071,-0.262,-0.303
490,-0.0478,-0.3034,0.0063,-0.08,0.04,0.03,0.008,-0.263,0.307,0.349
500,-0.0485,-0.3081,0.0016,-0.07,0.04,0.03,0.008,0.124,0.049,0.073
511,-0.0490,-0.3114,0.0017,-0.07,0.05,0.03,0.008,0.040,-0.176,0.320
520,-0.0495,-0.3145,0.0019,-0.07,0.04,0.03,0.008,0.030,0.081,-0.313
531,-0.0502,-0.3174,0.0022,-0.07,0.04,0.03,0.012,0.205,-0.045,0.167
540,-0.0505,-0.3186,0.0081,-0.08,0.04,0.03,0.012,-0.271,0.041,-0.141
551,-0.0510,-0.3216,0.0082,-0.08,0.04,0.03,0.012,-0.083,0.080,0.214
560,-0.0515,-0.3246,0.0082,-0.08,0.04,0.03,0.012,-0.074,-0.172,0.115
571,-0.0520,-0.3277,0.0082,-0.09,0.04,0.03,0.012,-0.112,0.095,0.014
580,-0.0525,-0.3309,0.0083,-0.09,0.04,0.03,0.006,-0.199,-0.055,0.038
590,-0.0530,-0.3341,0.0084,-0.09,0.04,0.03,0.006,-0.204,-0.061,0.151
601,-0.0542,-0.3408,-0.0026,-0.07,0.05,0.03,0.006,-0.269,0.040,0.027
611,-0.0548,-0.3440,-0.0026,-0.07,0.05,0.03,0.006,0.057,0.086,-0.056
620,-0.0552,-0.3473,-0.0024,-0.07,0.05,0.03,0.006,-0.237,0.088,0.165
631,-0.0558,-0.3503,-0.0023,-0.07,0.05,0.03,0.011,0.173,0.048,-0.226
640,-0.0560,-0.3515,0.0029,-0.08,0.05,0.03,0.011,0.239,-0.110,0.011
651,-0.0564,-0.3545,0.0031,-0.08,0.04,0.03,0.011,-0.001,-0.112,-0.066
660,-0.0570,-0.3572,0.0033,-0.08,0.04,0.03,0.011,-0.025,0.208,-0.019
670,-0.0577,-0.3600,0.0035,-0.08,0.05,0.03,0.011,-0.024,-0.273,-0.244
681,-0.0583,-0.3631,0.0038,-0.08,0.05,0.03,0.008,-0.066,0.275,0.044
690,-0.0588,-0.3662,0.0039,-0.08,0.04,0.03,0.008,0.073,-0.101,0.165
700,-0.0596,-0.3708,-0.0002,-0.07,0.05,0.03,0.008,-0.106,-0.010,-0.018
710,-0.0603,-0.3739,-0.0001,-0.07,0.05,0.03,0.008,-0.198,-0.048,0.115
720,-0.0609,-0.3769,0.0002,-0.07,0.04,0.03,0.008,-0.251,-0.001,0.276
730,-0.0614,-0.3802,0.0004,-0.07,0.04,0.04,0.007,-0.223,-0.229,0.004
740,-0.0620,-0.3832,0.0005,-0.07,0.05,0.04,0.007,-0.164,0.099,0.199
750,-0.0629,-0.3879,-0.0040,-0.07,0.05,0.04,0.007,0.205,-0.068,0.156
760,-0.0634,-0.3909,-0.0041,-0.07,0.05,0.04,0.007,-0.300,0.099,0.633
770,-0.0637,-0.3940,-0.0043,-0.07,0.05,0.04,0.007,0.103,-0.125,-0.110
781,-0.0641,-0.3971,-0.0042,-0.07,0.05,0.04,0.011,-0.181,-0.303,0.265
790,-0.0644,-0.3999,-0.0041,-0.07,0.05,0.04,0.011,0.017,-0.231,0.057
801,-0.0645,-0.3999,0.0028,-0.08,0.05,0.04,0.011,-0.031,-0.167,-0.103
810,-0.0650,-0.4031,0.0028,-0.08,0.05,0.04,0.011,0.054,-0.092,-0.031
820,-0.0654,-0.4063,0.0029,-0.09,0.05,0.04,0.011,-0.071,0.166,0.182
830,-0.0659,-0.4093,0.0030,-0.09,0.05,0.04,0.010,-0.296,-0.033,0.189
840,-0.0664,-0.4118,0.0044,-0.09,0.05,0.04,0.010,-0.202,0.003,0.062
851,-0.0669,-0.4147,0.0046,-0.09,0.05,0.04,0.010,-0.183,0.086,0.409
860,-0.0676,-0.4177,0.0046,-0.09,0.05,0.04,0.010,-0.071,-0.051,-0.330
870,-0.0681,-0.4207,0.0049,-0.09,0.05,0.04,0.010,-0.076,0.398,0.032
881,-0.0686,-0.4238,0.0052,-0.09,0.05,0.05,0.012,-0.104,-0.057,-0.023
890,-0.0690,-0.4268,0.0053,-0.09,0.05,0.05,0.012,-0.085,-0.039,-0.014
900,-0.0692,-0.4277,0.0099,-0.10,0.05,0.04,0.012,-0.126,-0.137,-0.081
910,-0.0698,-0.4306,0.0098,-0.10,0.05,0.04,0.012,-0.153,0.260,-0.261
921,-0.0703,-0.4334,0.0099,-0.10,0.05,0.04,0.012,-0.330,-0.032,0.103
930,-0.0709,-0.4364,0.0098,-0.10,0.05,0.04,0.007,0.266,0.121,-0.248
941,-0.0721,-0.4432,0.0010,-0.09,0.05,0.04,0.007,-0.117,0.021,-0.112
950,-0.0726,-0.4462,0.0013,-0.09,0.05,0.04,0.007,-0.235,-0.127,-0.030
960,-0.0730,-0.4492,0.0015,-0.09,0.05,0.04,0.007,-0.104,-0.274,0.106
970,-0.0734,-0.4523,0.0017,-0.09,0.05,0.04,0.007,-0.117,0.049,-0.057
980,-0.0739,-0.4553,0.0021,-0.09,0.05,0.04,0.012,-0.280,-0.003,0.117
990,-0.0746,-0.4583,0.0022,-0.09,0.05,0.04,0.012,-0.084,-0.417,0.188
1001,-0.0749,-0.4593,0.0076,-0.10,0.05,0.04,0.012,-0.044,0.113,-0.139
1011,-0.0756,-0.4622,0.0077,-0.11,0.05,0.04,0.012,0.143,0.062,0.009
1020,-0.0761,-0.4650,0.0079,-0.11,0.05,0.04,0.012,0.124,-0.103,-0.148
1031,-0.0765,-0.4678,0.0080,-0.11,0.05,0.04,0.007,-0.134,-0.006,-0.021
1040,-0.0776,-0.4746,-0.0005,-0.09,0.05,0.05,0.007,-0.044,0.024,0.318
1052,-0.0780,-0.4777,-0.0005,-0.09,0.05,0.05,0.007,-0.380,-0.059,0.002
1060,-0.0784,-0.4810,-0.0005,-0.09,0.05,0.04,0.007,-0.182,0.264,-0.019
1070,-0.0788,-0.4840,-0.0002,-0.09,0.05,0.05,0.007,-0.121,-0.304,-0.044
1080,-0.0794,-0.4871,0.0000,-0.09,0.05,0.05,0.009,0.262,0.176,-0.090
1090,-0.0800,-0.4903,0.0002,-0.09,0.05,0.05,0.009,-0.374,-0.142,0.181
1100,-0.0807,-0.4941,-0.0004,-0.09,0.06,0.05,0.009,-0.343,-0.091,0.345
1110,-0.0810,-0.4971,-0.0001,-0.09,0.06,0.05,0.009,0.034,-0.166,0.062
1120,-0.0815,-0.5001,0.0001,-0.10,0.06,0.05,0.009,-0.154,0.044,-0.144
1130,-0.0822,-0.5031,0.0000,-0.10,0.06,0.05,0.007,-0.233,0.228,0.082
1140,-0.0828,-0.5063,0.0000,-0.10,0.06,0.05,0.007,-0.117,-0.021,-0.181
1150,-0.0838,-0.5118,-0.0047,-0.09,0.06,0.05,0.007,0.047,-0.175,-0.000
1160,-0.0845,-0.5146,-0.0044,-0.09,0.06,0.05,0.007,0.005,-0.024,-0.211
1170,-0.0851,-0.5173,-0.0044,-0.09,0.06,0.05,0.007,-0.108,-0.064,0.012
1180,-0.0856,-0.5201,-0.0044,-0.09,0.06,0.05,0.010,-0.112,-0.191,-0.088
1190,-0.0860,-0.5231,-0.0043,-0.09,0.06,0.05,0.010,-0.082,0.032,-0.349
1200,-0.0861,-0.5236,0.0003,-0.10,0.06,0.05,0.010,-0.318,-0.110,0.095
1210,-0.0865,-0.5268,0.0003,-0.10,0.06,0.05,0.010,-0.058,0.085,-0.156
1220,-0.0868,-0.5301,0.0004,-0.10,0.06,0.05,0.010,0.044,0.020,0.089
1230,-0.0874,-0.5333,0.0006,-0.10,0.06,0.05,0.009,0.130,-0.006,-0.133
1240,-0.0879,-0.5362,0.0011,-0.11,0.06,0.05,0.009,-0.277,-0.002,0.159
1250,-0.0886,-0.5392,0.0011,-0.11,0.06,0.05,0.009,-0.233,-0.185,0.131
1260,-0.0893,-0.5423,0.0009,-0.10,0.06,0.05,0.009,0.070,0.216,0.000
1270,-0.0899,-0.5456,0.0010,-0.11,0.06,0.05,0.009,0.016,-0.003,-0.118
1280,-0.0905,-0.5488,0.0011,-0.11,0.06,0.05,0.007,0.182,0.245,-0.058
1290,-0.0911,-0.5518,0.0013,-0.11,0.06,0.05,0.007,-0.305,0.002,0.214
1299,-0.0923,-0.5577,-0.0030,-0.10,0.07,0.05,0.007,-0.150,-0.393,-0.127
1310,-0.0930,-0.5610,-0.0027,-0.09,0.06,0.05,0.007,-0.031,0.143,-0.355
1321,-0.0937,-0.5641,-0.0025,-0.10,0.06,0.05,0.007,-0.114,-0.156,-0.396
1330,-0.0943,-0.5671,-0.0025,-0.10,0.06,0.05,0.008,0.171,-0.031,0.087
1340,-0.0947,-0.5704,-0.0024,-0.10,0.06,0.04,0.008,-0.097,0.074,-0.293
1349,-0.0954,-0.5735,-0.0022,-0.10,0.06,0.04,0.008,-0.064,0.209,-0.099
1360,-0.0962,-0.5764,-0.0019,-0.10,0.06,0.04,0.008,0.141,-0.134,0.203
1369,-0.0967,-0.5792,-0.0017,-0.10,0.06,0.04,0.008,-0.261,-0.232,-0.068
1380,-0.0973,-0.5822,-0.0016,-0.10,0.06,0.04,0.008,-0.213,0.054,0.238
1390,-0.0979,-0.5853,-0.0014,-0.10,0.06,0.04,0.008,0.070,-0.010,0.035
1399,-0.0984,-0.5881,-0.0011,-0.10,0.06,0.04,0.008,-0.287,0.068,0.257
1409,-0.0989,-0.5910,-0.0008,-0.10,0.06,0.04,0.008,0.103,-0.052,-0.163
1420,-0.0995,-0.5943,-0.0007,-0.10,0.06,0.04,0.008,-0.177,-0.365,0.156
1430,-0.1000,-0.5974,-0.0005,-0.10,0.06,0.05,0.009,-0.340,0.162,-0.022
1440,-0.1002,-0.5989,0.0021,-0.10,0.06,0.05,0.009,-0.013,0.097,-0.107
1450,-0.1006,-0.6018,0.0022,-0.10,0.06,0.05,0.009,-0.012,-0.036,-0.173
1460,-0.1014,-0.6047,0.0022,-0.10,0.06,0.05,0.009,-0.213,-0.389,-0.101
1470,-0.1023,-0.6075,0.0023,-0.10,0.06,0.05,0.009,-0.072,-0.060,0.068
1480,-0.1030,-0.6103,0.0023,-0.10,0.06,0.05,0.009,-0.005,0.011,-0.008
0,-0.1038,-0.6133,0.0022,-0.11,0.07,0.05,0.009,-0.174,0.058,-0.197
9,-0.1043,-0.6154,0.0034,-0.11,0.07,0.05,0.009,-0.027,0.114,-0.114
19,-0.1049,-0.6183,0.0035,-0.11,0.07,0.05,0.009,-0.067,0.195,-0.270
29,-0.1055,-0.6215,0.0037,-0.11,0.07,0.04,0.009,-0.181,0.160,0.733
39,-0.1061,-0.6245,0.0038,-0.11,0.07,0.04,0.011,0.341,-0.254,1.399
49,-0.1067,-0.6277,0.0037,-0.11,0.07,0.04,0.011,-0.051,-0.109,0.693
60,-0.1062,-0.6245,0.0087,-0.12,0.06,0.04,0.011,1.429,0.199,-0.035
69,-0.1063,-0.6243,0.0089,-0.12,0.07,0.04,0.011,0.968,0.324,0.650
79,-0.1064,-0.6241,0.0091,-0.12,0.07,0.04,0.011,0.578,0.034,-0.199
89,-0.1066,-0.6239,0.0087,-0.11,0.06,0.04,0.009,-2.385,-0.442,-3.423
99,-0.1067,-0.6237,0.0093,-0.10,0.06,0.04,0.009,-0.357,0.868,-4.137
109,-0.1071,-0.6252,0.0070,-0.09,0.07,0.03,0.009,0.451,0.895,-6.006
120,-0.1072,-0.6251,0.0081,-0.11,0.07,0.00,0.009,-2.716,-0.249,-9.323
129,-0.1073,-0.6249,0.0077,-0.11,0.06,-0.04,0.009,-2.132,-1.014,-6.071
139,-0.1074,-0.6247,0.0081,-0.11,0.06,-0.10,0.009,-1.093,-5.053,-9.027
149,-0.1075,-0.6245,0.0068,-0.13,0.07,-0.19,0.009,-0.693,-9.713,-7.268
159,-0.1079,-0.6254,0.0078,-0.14,0.08,-0.26,0.009,0.967,-4.148,0.165
169,-0.1080,-0.6251,0.0103,-0.15,0.13,-0.34,0.009,-0.915,-10.111,4.230
179,-0.1083,-0.6249,0.0110,-0.17,0.23,-0.41,0.009,2.905,-16.634,2.651
189,-0.1086,-0.6246,0.0104,-0.16,0.27,-0.42,0.009,-4.275,-20.327,6.676
199,-0.1091,-0.6243,0.0115,-0.17,0.37,-0.38,0.009,-15.069,-31.358,5.123
209,-0.1100,-0.6251,0.0134,-0.14,0.53,-0.34,0.009,-24.078,-37.243,5.660
219,-0.1110,-0.6248,0.0216,-0.17,0.74,-0.28,0.009,-36.315,-47.252,6.835
229,-0.1125,-0.6245,0.0315,-0.31,1.04,-0.23,0.009,-54.062,-55.674,11.758
239,-0.1146,-0.6238,0.0450,-0.56,1.42,-0.17,0.014,-52.561,-57.858,11.762
249,-0.1170,-0.6207,0.0672,-0.92,1.88,-0.09,0.014,-43.935,-55.557,10.331
259,-0.1209,-0.6187,0.0836,-1.45,2.44,0.03,0.014,-26.663,-39.716,10.392
269,-0.1259,-0.6157,0.1001,-1.97,3.01,0.17,0.014,-16.960,-27.555,8.856
279,-0.1321,-0.6117,0.1165,-2.42,3.56,0.30,0.014,-10.216,-25.961,6.377
289,-0.1395,-0.6067,0.1350,-2.70,3.96,0.42,0.000,-7.929,-23.027,5.240
299,-0.1477,-0.6012,0.1534,-2.88,4.24,0.52,0.000,-4.750,-12.507,4.422
309,-0.1667,-0.5994,0.1285,-2.96,4.52,0.58,0.000,-4.705,-3.051,2.968
319,-0.1760,-0.5935,0.1464,-3.05,4.75,0.64,0.000,-4.642,11.399,2.099
331,-0.1857,-0.5874,0.1637,-3.09,4.87,0.69,0.000,-2.696,25.794,1.972
339,-0.1966,-0.5806,0.1829,-3.13,4.90,0.72,0.001,1.621,31.240,1.350
349,-0.2276,-0.5716,0.1654,-3.17,4.85,0.72,0.001,2.509,31.264,2.303
359,-0.2375,-0.5653,0.1835,-3.20,4.60,0.72,0.001,4.618,24.887,2.162
368,-0.2467,-0.5590,0.2005,-3.19,4.29,0.72,0.001,9.629,19.582,2.471
385,-0.2553,-0.5527,0.2174,-3.17,3.99,0.72,0.001,11.214,16.642,3.404
389,-0.2633,-0.5464,0.2337,-3.12,3.73,0.73,0.015,13.043,16.281,3.470
399,-0.2708,-0.5403,0.2497,-3.03,3.54,0.75,0.015,13.258,17.153,4.073
408,-0.3067,-0.5259,0.2441,-2.94,3.45,0.77,0.015,11.587,16.309,5.237
419,-0.3135,-0.5202,0.2585,-2.82,3.29,0.80,0.015,9.252,14.514,5.807
429,-0.3199,-0.5149,0.2721,-2.69,3.12,0.83,0.015,6.760,13.051,6.409
439,-0.3260,-0.5097,0.2851,-2.58,2.95,0.88,0.041,7.207,11.472,4.923
448,-0.3317,-0.5049,0.2965,-2.49,2.80,0.93,0.041,2.289,12.085,4.975
459,-0.2929,-0.5158,0.3288,-2.39,2.55,1.00,0.041,4.112,15.419,3.824
469,-0.2978,-0.5114,0.3377,-2.32,2.43,1.04,0.041,4.802,16.204,4.126
478,-0.3023,-0.5073,0.3445,-2.29,2.31,1.09,0.041,3.985,17.681,4.034
489,-0.3065,-0.5032,0.3492,-2.26,2.16,1.12,0.065,4.783,21.504,4.937
498,-0.3105,-0.4993,0.3540,-2.21,1.99,1.15,0.065,11.426,22.452,4.170
508,-0.2711,-0.5142,0.3805,-2.12,1.69,1.19,0.065,17.181,19.311,4.553
519,-0.2742,-0.5105,0.3845,-2.06,1.47,1.23,0.065,17.983,15.102,4.605
529,-0.2769,-0.5069,0.3880,-1.95,1.25,1.27,0.065,18.516,9.094,4.317
538,-0.2791,-0.5036,0.3912,-1.78,1.05,1.31,0.091,16.907,1.208,4.874
549,-0.2337,-0.5262,0.4271,-1.54,0.78,1.35,0.091,18.046,-6.086,4.937
559,-0.2351,-0.5236,0.4291,-1.37,0.70,1.40,0.091,18.571,-13.548,5.553
568,-0.2364,-0.5212,0.4312,-1.20,0.69,1.45,0.091,21.906,-19.632,5.456
578,-0.2377,-0.5192,0.4315,-1.02,0.76,1.50,0.091,18.223,-21.785,6.372
589,-0.2390,-0.5175,0.4296,-0.83,0.89,1.56,0.110,16.882,-19.502,6.080
598,-0.2405,-0.5162,0.4270,-0.62,1.08,1.62,0.110,10.355,-14.338,7.050
609,-0.2416,-0.5172,0.4306,-0.44,1.29,1.68,0.110,-0.988,-5.051,7.930
619,-0.2438,-0.5166,0.4275,-0.29,1.48,1.75,0.110,-24.597,11.299,8.652
628,-0.2462,-0.5162,0.4230,-0.19,1.62,1.82,0.110,-57.911,33.901,8.770
638,-0.2488,-0.5159,0.4172,-0.21,1.66,1.90,0.136,-99.753,56.463,7.620
648,-0.2602,-0.5189,0.4329,-0.47,1.54,1.98,0.136,-132.405,78.682,7.312
659,-0.2627,-0.5184,0.4260,-1.07,1.19,2.06,0.136,-166.337,94.691,7.476
668,-0.2648,-0.5170,0.4188,-2.08,0.61,2.12,0.136,-189.812,109.042,7.722
678,-0.2661,-0.5142,0.4106,-3.43,-0.18,2.15,0.136,-201.350,116.028,8.308
689,-0.2663,-0.5094,0.4012,-5.10,-1.14,2.15,0.152,-205.285,117.670,9.573
699,-0.2652,-0.5022,0.3914,-7.01,-2.24,2.12,0.152,-194.919,113.497,8.961
708,-0.2596,-0.4918,0.3773,-9.03,-3.40,2.04,0.152,-176.769,103.783,9.633
719,-0.2552,-0.4782,0.3682,-11.08,-4.57,1.92,0.152,-150.129,90.457,9.575
729,-0.2490,-0.4611,0.3591,-13.03,-5.69,1.77,0.152,-123.572,74.125,9.328
739,-0.2403,-0.4386,0.3486,-14.97,-6.82,1.60,0.183,-87.319,58.120,8.380
748,-0.2509,-0.4230,0.3643,-16.46,-7.67,1.44,0.183,-54.027,42.118,8.276
759,-0.2399,-0.3968,0.3536,-17.69,-8.41,1.32,0.183,-23.167,24.208,7.320
769,-0.2278,-0.3686,0.3423,-18.57,-8.98,1.22,0.183,1.016,11.191,7.560
779,-0.2150,-0.3392,0.3300,-19.12,-9.39,1.17,0.183,22.596,2.858,6.811
789,-0.2016,-0.3090,0.3170,-19.35,-9.64,1.16,0.196,35.071,-6.288,6.402
799,-0.1878,-0.2785,0.3036,-19.33,-9.77,1.19,0.196,43.143,-9.452,6.333
808,-0.1684,-0.2402,0.2841,-19.11,-9.82,1.25,0.196,49.118,-13.162,5.657
818,-0.1545,-0.2103,0.2702,-18.74,-9.78,1.34,0.196,52.643,-12.899,4.349
828,-0.1408,-0.1811,0.2559,-18.29,-9.71,1.43,0.196,50.907,-13.141,3.986
838,-0.1272,-0.1527,0.2413,-17.77,-9.61,1.52,0.215,50.538,-12.784,2.806
849,-0.1139,-0.1253,0.2261,-17.24,-9.49,1.60,0.215,47.681,-13.527,1.608
858,-0.1271,-0.1475,0.2302,-16.61,-9.32,1.69,0.215,48.196,-13.564,0.777
868,-0.1142,-0.1220,0.2151,-16.09,-9.20,1.76,0.215,49.696,-14.239,-0.237
878,-0.1015,-0.0972,0.2002,-15.61,-9.08,1.81,0.215,50.340,-15.180,-1.296
888,-0.0889,-0.0732,0.1855,-15.12,-8.95,1.85,0.210,52.392,-17.886,-0.954
898,-0.0765,-0.0499,0.1708,-14.62,-8.82,1.89,0.210,56.064,-19.112,-1.880
908,-0.0241,0.0554,0.1317,-14.30,-8.75,1.89,0.210,59.510,-21.132,-2.559
918,-0.0118,0.0775,0.1176,-13.76,-8.58,1.92,0.210,63.967,-23.665,-3.137
928,0.0002,0.0988,0.1038,-13.19,-8.38,1.95,0.210,70.337,-27.253,-2.726
938,0.0120,0.1193,0.0902,-12.59,-8.17,1.97,0.239,80.247,-34.498,-3.503
948,0.0236,0.1390,0.0771,-11.93,-7.92,2.00,0.239,89.675,-39.554,-4.538
958,-0.0750,-0.0690,0.1103,-10.70,-7.39,2.08,0.239,99.752,-44.321,-4.408
968,-0.0643,-0.0519,0.0991,-9.88,-7.03,2.10,0.239,109.693,-50.213,-5.261
979,-0.0540,-0.0361,0.0885,-8.97,-6.63,2.12,0.239,115.204,-53.588,-5.009
988,-0.0442,-0.0216,0.0788,-7.95,-6.18,2.14,0.221,109.198,-53.568,-4.669
998,-0.0350,-0.0086,0.0696,-6.84,-5.67,2.15,0.221,98.846,-49.648,-3.475
1009,0.0083,0.0703,0.0389,-5.85,-5.22,2.16,0.221,80.821,-41.489,-3.815
1018,0.0162,0.0799,0.0305,-4.77,-4.69,2.16,0.221,59.994,-33.991,-4.023
1028,0.0234,0.0879,0.0225,-3.81,-4.20,2.16,0.221,40.807,-27.106,-4.057
1038,0.0298,0.0942,0.0142,-3.03,-3.80,2.15,0.201,26.660,-21.158,-4.687
1049,0.1316,0.2711,-0.0514,-2.85,-3.69,2.11,0.201,19.367,-16.624,-4.771
1058,0.1373,0.2759,-0.0595,-2.46,-3.43,2.09,0.201,16.118,-16.968,-5.205
1068,0.1426,0.2800,-0.0663,-2.21,-3.23,2.05,0.201,18.589,-19.606,-5.095
1078,0.1477,0.2838,-0.0721,-2.03,-3.06,2.01,0.201,30.493,-26.431,-5.519
1088,0.1526,0.2873,-0.0770,-1.87,-2.88,1.96,0.196,49.119,-37.449,-6.201
1098,0.1573,0.2905,-0.0806,-1.66,-2.68,1.91,0.196,71.744,-48.967,-6.381
1108,0.2913,0.5095,-0.1271,-1.79,-2.69,1.85,0.196,88.486,-63.700,-6.323
1118,0.2958,0.5128,-0.1277,-1.27,-2.30,1.80,0.196,106.897,-71.471,-7.387
1128,0.2997,0.5151,-0.1271,-0.54,-1.78,1.75,0.196,121.779,-76.409,-6.964
1138,0.3028,0.5162,-0.1258,0.37,-1.14,1.68,0.192,132.960,-82.389,-7.128
1148,0.3966,0.6646,-0.1479,1.16,-0.62,1.60,0.192,140.936,-88.222,-6.890
1158,0.3980,0.6626,-0.1459,2.52,0.23,1.50,0.192,142.945,-91.006,-5.951
1168,0.3978,0.6583,-0.1432,3.87,1.06,1.38,0.192,142.003,-96.870,-6.371
1178,0.3962,0.6516,-0.1401,5.28,1.94,1.25,0.192,142.883,-100.915,-6.907
1188,0.3930,0.6423,-0.1367,6.72,2.84,1.09,0.197,140.112,-102.084,-6.715
1199,0.3883,0.6304,-0.1331,8.15,3.80,0.90,0.197,131.874,-101.025,-5.819
1208,0.2682,0.4348,-0.1073,9.96,5.02,0.63,0.197,123.320,-97.424,-4.723
1218,0.2595,0.4167,-0.1033,11.38,6.00,0.38,0.197,111.636,-93.154,-3.795
1228,0.2488,0.3960,-0.0998,12.72,6.97,0.11,0.197,96.817,-84.279,-2.701
1238,0.2365,0.3730,-0.0969,13.97,7.90,-0.16,0.208,75.211,-70.350,-0.550
1248,0.2223,0.3477,-0.0947,15.09,8.77,-0.43,0.208,54.356,-49.669,0.643
1259,0.0003,-0.0055,-0.0572,16.69,9.94,-0.78,0.208,24.155,-31.440,2.281
1268,-0.0175,-0.0353,-0.0570,17.43,10.57,-0.98,0.208,-1.084,-10.869,3.362
1278,-0.0364,-0.0663,-0.0574,17.92,11.00,-1.11,0.208,-27.325,11.496,4.766
1288,-0.0560,-0.0980,-0.0583,18.11,11.26,-1.17,0.207,-56.330,34.840,5.746
1298,-0.0759,-0.1300,-0.0594,18.04,11.33,-1.15,0.207,-91.565,58.863,6.166
1308,-0.1178,-0.1975,-0.0435,17.75,11.22,-1.07,0.207,-124.018,81.502,5.304
1318,-0.1373,-0.2284,-0.0456,17.07,10.85,-0.89,0.207,-146.104,106.243,4.632
1328,-0.1560,-0.2578,-0.0483,16.03,10.24,-0.64,0.207,-166.690,119.282,3.984
1338,-0.1734,-0.2853,-0.0513,14.69,9.41,-0.36,0.198,-180.971,129.929,3.625
1348,-0.1893,-0.3105,-0.0541,13.12,8.36,-0.05,0.198,-187.456,134.268,2.555
1358,-0.1928,-0.3169,-0.0514,11.35,7.15,0.26,0.198,-187.497,135.310,2.665
1368,-0.2049,-0.3366,-0.0529,9.50,5.85,0.53,0.198,-182.174,130.243,0.806
1378,-0.2148,-0.3532,-0.0542,7.60,4.53,0.76,0.198,-169.067,124.744,0.631
1388,-0.2225,-0.3665,-0.0553,5.71,3.19,0.94,0.177,-159.954,109.903,0.059
1398,-0.2279,-0.3766,-0.0560,3.92,1.91,1.06,0.177,-138.319,99.131,-1.643
1408,-0.3755,-0.6060,-0.0991,2.67,0.98,1.12,0.177,-123.134,86.500,-1.619
1418,-0.3773,-0.6109,-0.0996,1.11,-0.09,1.16,0.177,-108.608,72.527,-1.466
1428,-0.3773,-0.6130,-0.0998,-0.25,-1.05,1.15,0.177,-96.212,64.114,-2.055
1438,-0.3756,-0.6128,-0.0998,-1.45,-1.87,1.12,0.164,-94.879,60.104,-1.618
1448,-0.6062,-0.9689,-0.1576,-1.83,-2.11,1.11,0.164,-97.826,59.541,-1.035
1458,-0.6028,-0.9659,-0.1576,-2.79,-2.74,1.06,0.164,-104.583,64.856,-1.580
1469,-0.5983,-0.9612,-0.1576,-3.74,-3.34,1.02,0.164,-117.703,71.137,0.043
1478,-0.5928,-0.9548,-0.1577,-4.74,-3.94,0.96,0.164,-125.545,85.301,-0.321
1488,-0.5863,-0.9468,-0.1579,-5.81,-4.60,0.89,0.181,-135.420,99.434,0.415
1499,-0.5787,-0.9370,-0.1584,-7.02,-5.34,0.80,0.181,-141.228,113.811,1.165
1508,-0.2837,-0.4885,-0.1065,-9.10,-6.75,0.58,0.181,-142.680,122.506,1.668
1518,-0.2722,-0.4725,-0.1060,-10.51,-7.76,0.41,0.181,-136.609,126.841,2.221
1528,-0.2589,-0.4540,-0.1055,-11.96,-8.91,0.20,0.181,-126.367,122.494,4.573
1538,-0.2436,-0.4329,-0.1053,-13.43,-10.12,-0.06,0.181,-103.043,106.619,5.683
1548,-0.1058,-0.2201,-0.0846,-15.18,-11.56,-0.41,0.181,-76.818,81.924,5.646
1558,-0.0856,-0.1931,-0.0854,-16.44,-12.72,-0.70,0.181,-48.586,51.151,5.978
1568,-0.0609,-0.1609,-0.0868,-17.57,-13.80,-0.97,0.181,-15.760,18.331,5.783
1578,-0.0366,-0.1298,-0.0885,-18.31,-14.53,-1.15,0.181,18.531,-18.881,5.359
1588,-0.0110,-0.0973,-0.0906,-18.74,-14.95,-1.24,0.185,53.158,-54.160,4.912
1598,0.0153,-0.0642,-0.0930,-18.81,-15.06,-1.21,0.185,82.587,-86.671,4.166
1608,0.0872,0.0520,-0.0759,-18.65,-14.88,-1.10,0.185,108.535,-110.534,4.129
1618,0.1131,0.0848,-0.0784,-17.98,-14.30,-0.85,0.185,126.896,-127.662,3.353
1628,0.1377,0.1162,-0.0810,-17.00,-13.43,-0.52,0.185,137.899,-138.053,1.985
1638,0.1607,0.1461,-0.0828,-15.78,-12.34,-0.15,0.166,147.135,-142.252,1.780
1648,0.1945,0.1827,-0.0960,-14.42,-11.11,0.22,0.166,150.335,-142.061,1.227
1658,0.2133,0.2081,-0.0973,-12.94,-9.75,0.58,0.166,150.244,-137.894,-0.851
1668,0.2297,0.2308,-0.0985,-11.40,-8.36,0.90,0.166,144.276,-130.320,-1.027
1677,0.2437,0.2509,-0.0992,-9.87,-6.97,1.18,0.166,137.564,-119.969,-1.509
1688,0.2554,0.2684,-0.0993,-8.36,-5.64,1.38,0.157,126.254,-107.512,-3.347
1698,0.2649,0.2833,-0.0987,-6.94,-4.37,1.54,0.157,118.978,-97.786,-4.103
1707,0.3043,0.3310,-0.1086,-5.66,-3.28,1.64,0.157,109.813,-86.757,-4.969
1718,0.3098,0.3411,-0.1072,-4.41,-2.24,1.69,0.157,102.839,-79.172,-5.656
1728,0.3135,0.3490,-0.1052,-3.26,-1.30,1.71,0.157,96.780,-73.515,-5.720
1738,0.3157,0.3549,-0.1029,-2.18,-0.46,1.70,0.134,93.034,-68.570,-6.815
1748,0.3164,0.3588,-0.1004,-1.18,0.31,1.67,0.134,93.469,-71.013,-6.223
1758,0.5317,0.6070,-0.1528,-0.66,0.63,1.62,0.134,99.685,-70.469,-5.987
1768,0.5306,0.6082,-0.1473,0.29,1.32,1.55,0.134,101.451,-73.752,-4.883
1778,0.5282,0.6076,-0.1409,1.26,2.02,1.48,0.134,102.908,-77.836,-4.267
1788,0.5246,0.6053,-0.1341,2.26,2.74,1.40,0.136,115.477,-83.943,-5.970
1797,0.5197,0.6010,-0.1271,3.27,3.48,1.32,0.136,119.618,-95.349,-3.829
1807,0.5462,0.6296,-0.1267,4.28,4.21,1.23,0.136,133.070,-105.280,-5.214
1817,0.5386,0.6215,-0.1191,5.46,5.09,1.10,0.136,129.358,-114.243,-2.453
1828,0.5294,0.6112,-0.1116,6.72,6.07,0.95,0.136,128.082,-117.195,-1.486
1838,0.5185,0.5987,-0.1049,8.06,7.15,0.77,0.137,125.473,-116.987,-0.352
1848,0.4244,0.5004,-0.0855,9.53,8.43,0.55,0.137,115.419,-108.340,2.032
1858,0.4095,0.4829,-0.0817,10.84,9.58,0.32,0.137,101.772,-98.422,3.918
1868,0.3926,0.4633,-0.0791,12.12,10.70,0.09,0.137,86.747,-89.459,5.995
1878,0.3738,0.4414,-0.0776,13.26,11.73,-0.11,0.137,65.328,-79.181,8.753
1888,0.3531,0.4175,-0.0767,14.27,12.66,-0.30,0.150,51.988,-66.800,10.726
1897,0.3307,0.3918,-0.0761,15.09,13.51,-0.45,0.150,38.384,-50.885,13.152
1908,0.1009,0.1411,-0.0398,16.11,14.60,-0.66,0.150,23.644,-34.728,15.853
1918,0.0753,0.1122,-0.0409,16.60,15.22,-0.72,0.150,9.229,-15.078,17.270
1927,0.0486,0.0826,-0.0424,16.92,15.69,-0.71,0.150,-5.070,6.362,18.440
1938,0.0211,0.0523,-0.0440,17.08,16.01,-0.63,0.129,-25.251,31.567,18.679
1948,0.0341,0.1006,-0.0698,16.96,16.07,-0.45,0.129,-46.575,57.391,18.049
1958,0.0064,0.0703,-0.0721,16.78,15.98,-0.22,0.129,-66.719,78.069,17.396
1968,-0.0208,0.0405,-0.0749,16.37,15.64,0.08,0.129,-86.913,95.329,17.427
1978,-0.0498,0.0086,-0.0779,15.68,15.00,0.48,0.129,-96.659,109.952,16.655
1987,-0.0749,-0.0193,-0.0806,14.83,14.24,0.89,0.126,-106.654,117.503,16.982
1997,-0.0986,-0.0458,-0.0828,13.83,13.30,1.31,0.126,-109.450,127.429,15.674
2008,-0.1306,-0.0617,-0.0906,12.70,12.26,1.75,0.126,-110.904,132.335,13.128
2017,-0.1511,-0.0850,-0.0903,11.53,11.11,2.17,0.126,-104.426,132.304,10.009
2027,-0.1697,-0.1063,-0.0891,10.35,9.88,2.57,0.126,-102.365,130.343,6.526
2038,-0.1861,-0.1256,-0.0870,9.21,8.58,2.92,0.124,-96.501,129.030,7.143
2048,-0.1759,-0.1428,-0.0775,8.12,7.25,3.21,0.124,-94.072,122.933,6.412
2057,-0.1878,-0.1580,-0.0748,7.10,5.97,3.46,0.124,-85.002,115.630,3.728
2068,-0.1975,-0.1712,-0.0721,6.13,4.72,3.68,0.124,-81.723,104.616,0.560
2077,-0.2051,-0.1826,-0.0695,5.21,3.52,3.85,0.124,-74.284,94.007,-2.693
2087,-0.2107,-0.1922,-0.0662,4.38,2.42,3.97,0.109,-71.098,79.796,-5.173
2097,-0.2144,-0.2003,-0.0621,3.60,1.43,4.03,0.109,-66.623,67.793,-6.838
2107,-0.3122,-0.2287,-0.0800,2.91,0.72,4.04,0.109,-64.355,60.401,-8.468
2117,-0.3131,-0.2340,-0.0748,2.22,-0.02,4.01,0.109,-65.040,54.470,-10.360
2127,-0.3127,-0.2380,-0.0688,1.57,-0.67,3.95,0.109,-68.689,49.600,-13.291
2137,-0.3113,-0.2407,-0.0623,0.92,-1.24,3.87,0.110,-72.097,49.493,-12.920
2148,-0.3088,-0.2422,-0.0552,0.25,-1.75,3.76,0.110,-72.743,55.087,-15.858
2157,-0.3179,-0.2452,-0.0502,-0.44,-2.22,3.63,0.110,-71.161,69.368,-14.272
2167,-0.3139,-0.2441,-0.0427,-1.18,-2.74,3.48,0.110,-71.956,76.321,-17.007
2177,-0.3089,-0.2415,-0.0354,-1.91,-3.36,3.31,0.110,-78.038,85.908,-16.844
2188,-0.3029,-0.2377,-0.0286,-2.65,-4.07,3.13,0.106,-72.139,83.493,-17.682
2197,-0.2957,-0.2324,-0.0221,-3.40,-4.86,2.91,0.106,-71.182,81.272,-16.688
2207,-0.3217,-0.2337,-0.0218,-4.16,-5.64,2.69,0.106,-63.436,73.876,-16.165
2217,-0.3117,-0.2256,-0.0159,-4.89,-6.46,2.46,0.106,-55.332,63.830,-16.466
2228,-0.3004,-0.2162,-0.0108,-5.61,-7.22,2.22,0.106,-51.057,51.982,-16.618
2237,-0.2877,-0.2056,-0.0063,-6.23,-7.90,1.99,0.117,-38.952,42.275,-16.523
2247,-0.1462,-0.1675,0.0199,-6.83,-8.66,1.74,0.117,-27.070,30.517,-16.875
2257,-0.1310,-0.1547,0.0234,-7.32,-9.11,1.52,0.117,-11.251,23.793,-18.436
2267,-0.1150,-0.1411,0.0268,-7.69,-9.46,1.30,0.117,-2.996,15.711,-17.958
2277,-0.0983,-0.1269,0.0301,-7.93,-9.71,1.08,0.117,13.812,7.426,-20.227
2287,-0.0812,-0.1123,0.0331,-8.04,-9.89,0.87,0.115,16.851,-3.246,-19.348
2297,-0.0639,-0.0977,0.0354,-8.02,-9.99,0.66,0.115,22.367,-11.086,-18.075
2307,-0.0345,-0.0770,0.0418,-7.92,-10.00,0.46,0.115,20.359,-21.355,-17.217
2317,-0.0170,-0.0629,0.0433,-7.75,-9.91,0.28,0.115,19.446,-31.536,-16.374
2328,0.0002,-0.0492,0.0440,-7.57,-9.73,0.12,0.115,17.086,-41.372,-14.874
2337,0.0171,-0.0360,0.0444,-7.39,-9.46,-0.01,0.123,17.079,-51.361,-14.401
2347,0.0310,-0.0033,0.0600,-7.25,-9.08,-0.13,0.123,18.474,-61.070,-14.276
2357,0.0467,0.0092,0.0601,-7.10,-8.61,-0.22,0.123,21.346,-69.572,-11.743
2367,0.0617,0.0216,0.0606,-6.94,-8.03,-0.29,0.123,22.723,-79.145,-9.662
2377,0.0757,0.0336,0.0613,-6.76,-7.37,-0.34,0.123,36.656,-84.894,-8.478
2387,0.0898,0.0465,0.0624,-6.50,-6.55,-0.37,0.110,41.965,-87.320,-6.868
2397,0.1013,0.0578,0.0637,-6.22,-5.73,-0.37,0.110,46.108,-83.459,-2.880
2408,0.1638,0.0521,0.0397,-5.82,-4.94,-0.36,0.110,57.168,-74.220,-2.046
2418,0.1725,0.0623,0.0421,-5.39,-4.08,-0.32,0.110,63.205,-64.323,-1.756
2428,0.1797,0.0718,0.0445,-4.85,-3.29,-0.28,0.110,65.084,-54.348,-1.904
2437,0.1856,0.0803,0.0475,-4.24,-2.58,-0.25,0.118,58.292,-44.200,-0.284
2448,0.1988,0.0865,0.0485,-3.61,-1.99,-0.23,0.118,58.183,-41.988,-1.055
2458,0.2023,0.0928,0.0519,-2.99,-1.50,-0.21,0.118,48.014,-40.087,0.157
2467,0.2050,0.0981,0.0556,-2.40,-1.08,-0.20,0.118,35.378,-42.469,1.041
2477,0.2069,0.1024,0.0595,-1.86,-0.67,-0.19,0.118,31.431,-47.208,0.605
2488,0.2081,0.1056,0.0631,-1.45,-0.25,-0.17,0.125,25.046,-50.649,0.761
2497,0.2085,0.1082,0.0670,-1.13,0.20,-0.15,0.125,19.018,-53.819,0.936
2507,0.1676,0.1142,0.0796,-0.87,0.75,-0.13,0.125,15.484,-54.963,1.208
2517,0.1662,0.1157,0.0839,-0.66,1.28,-0.11,0.125,17.402,-53.426,0.481
2527,0.1639,0.1169,0.0887,-0.50,1.83,-0.10,0.125,19.974,-50.189,-0.133
2537,0.1606,0.1178,0.0933,-0.34,2.37,-0.09,0.124,24.279,-47.110,-0.375
2548,0.1563,0.1184,0.0974,-0.17,2.89,-0.08,0.124,28.600,-43.442,-1.643
2557,0.1823,0.1189,0.0932,0.03,3.33,-0.08,0.124,27.785,-34.635,-1.504
2567,0.1764,0.1189,0.0960,0.31,3.78,-0.10,0.124,29.852,-26.708,-2.375
2577,0.1698,0.1183,0.0985,0.60,4.17,-0.12,0.124,31.524,-20.123,-3.056
2587,0.1625,0.1173,0.1006,0.89,4.47,-0.14,0.113,33.356,-14.897,-3.837
2597,0.1546,0.1157,0.1027,1.21,4.70,-0.18,0.113,33.811,-10.260,-4.829
2607,0.2923,0.1227,0.0644,1.51,4.65,-0.21,0.113,33.816,-7.522,-4.920
2617,0.2842,0.1201,0.0658,1.85,4.78,-0.26,0.113,35.995,-4.757,-6.560
2627,0.2758,0.1169,0.0671,2.19,4.86,-0.32,0.113,31.394,-4.075,-7.180
2637,0.2674,0.1132,0.0680,2.55,4.91,-0.38,0.133,28.698,-8.737,-8.503
2647,0.1848,0.1157,0.0832,2.88,5.05,-0.45,0.133,23.391,-15.676,-8.396
2657,0.1760,0.1108,0.0838,3.19,5.11,-0.53,0.133,20.723,-24.937,-7.872
2667,0.1671,0.1054,0.0842,3.45,5.23,-0.62,0.133,19.540,-37.470,-7.898
2677,0.1581,0.0996,0.0846,3.66,5.44,-0.71,0.133,18.697,-42.216,-7.753
2687,0.1486,0.0934,0.0852,3.88,5.75,-0.81,0.126,8.689,-42.054,-6.713
2697,0.1386,0.0868,0.0855,4.06,6.15,-0.92,0.126,10.256,-35.632,-7.763
2707,0.1927,0.0760,0.0688,4.22,6.47,-1.02,0.126,1.273,-28.172,-6.711
2717,0.1815,0.0690,0.0682,4.34,6.85,-1.12,0.126,-4.878,-17.409,-6.163
2727,0.1697,0.0618,0.0674,4.41,7.16,-1.21,0.126,-3.094,-2.462,-7.376
2737,0.1573,0.0546,0.0663,4.41,7.38,-1.30,0.133,-11.592,5.873,-5.627
2747,0.1507,0.0463,0.0633,4.38,7.45,-1.38,0.133,-8.565,15.870,-6.518
2757,0.1378,0.0391,0.0626,4.31,7.42,-1.44,0.133,-9.054,20.167,-5.974
2767,0.1249,0.0321,0.0621,4.19,7.30,-1.48,0.133,-10.472,22.867,-6.239
2777,0.1122,0.0252,0.0614,4.13,7.11,-1.53,0.133,-11.549,23.697,-5.345
2787,0.0999,0.0185,0.0604,4.01,6.89,-1.58,0.132,-13.256,22.025,-4.889
2797,0.0880,0.0120,0.0598,3.90,6.65,-1.62,0.132,-13.429,20.336,-4.594
2807,0.1024,-0.0030,0.0493,3.79,6.36,-1.66,0.132,-12.047,20.133,-4.363
2817,0.0913,-0.0092,0.0490,3.66,6.14,-1.70,0.132,-9.964,20.494,-3.580
2827,0.0806,-0.0152,0.0489,3.54,5.93,-1.73,0.132,-6.664,22.356,-3.585
2837,0.0702,-0.0210,0.0490,3.43,5.73,-1.76,0.142,-9.225,22.588,-2.922
2847,0.0377,-0.0141,0.0599,3.32,5.54,-1.78,0.142,-11.076,23.360,-1.249
2857,0.0280,-0.0195,0.0601,3.25,5.31,-1.80,0.142,-12.928,23.567,-0.654
2867,0.0187,-0.0248,0.0603,3.15,5.07,-1.81,0.142,-16.036,23.908,-0.051
2878,0.0098,-0.0300,0.0608,3.03,4.84,-1.80,0.142,-18.376,25.036,-0.352
2887,0.0098,-0.0300,0.0608,3.03,4.84,-1.80,0.150,-19.617,25.024,-0.689
2896,0.0013,-0.0350,0.0614,2.89,4.60,-1.79,0.150,-24.203,26.318,0.195
2907,-0.0186,-0.0242,0.0798,2.68,4.36,-1.78,0.150,-24.308,29.830,-0.179
2917,-0.0262,-0.0286,0.0807,2.49,4.11,-1.77,0.150,-24.851,29.563,0.082
2927,-0.0335,-0.0327,0.0817,2.26,3.85,-1.76,0.150,-24.388,32.065,-0.751
2937,-0.0403,-0.0364,0.0827,2.03,3.58,-1.75,0.152,-24.355,31.315,-0.922
2947,-0.0465,-0.0397,0.0834,1.78,3.29,-1.74,0.152,-21.768,31.941,-0.346
2957,-0.0481,-0.0408,0.0895,1.53,2.96,-1.74,0.152,-14.264,34.332,-1.154
2967,-0.0534,-0.0433,0.0906,1.29,2.65,-1.74,0.152,-11.837,36.401,-1.720
2977,-0.0580,-0.0454,0.0919,1.06,2.34,-1.74,0.152,-8.416,37.535,-1.734
2986,-0.0621,-0.0471,0.0933,0.89,2.00,-1.74,0.137,-5.309,38.215,-1.145
2997,-0.0656,-0.0485,0.0947,0.77,1.64,-1.76,0.137,-2.848,39.894,-1.208
3007,-0.1352,-0.0487,0.0554,0.68,1.38,-1.77,0.137,-0.332,40.446,-1.752
3017,-0.1376,-0.0498,0.0571,0.62,1.00,-1.78,0.137,-1.216,40.319,-1.544
3027,-0.1394,-0.0509,0.0584,0.59,0.61,-1.79,0.137,-4.674,39.299,-2.109
3037,-0.1404,-0.0519,0.0596,0.58,0.20,-1.80,0.157,-11.164,40.345,-2.185
3046,-0.0922,-0.0631,0.0757,0.57,-0.27,-1.81,0.157,-10.954,41.117,-3.097
3056,-0.0918,-0.0641,0.0769,0.53,-0.67,-1.82,0.157,-13.642,41.772,-4.733
3067,-0.0906,-0.0650,0.0780,0.46,-1.07,-1.84,0.157,-14.754,40.605,-4.885
3077,-0.0888,-0.0659,0.0793,0.35,-1.48,-1.87,0.157,-15.903,38.596,-5.894
3087,-0.0862,-0.0666,0.0808,0.22,-1.89,-1.91,0.148,-20.658,33.169,-5.881
3097,-0.0830,-0.0671,0.0820,0.06,-2.30,-1.96,0.148,-21.036,26.668,-6.339
3106,-0.1438,-0.0564,0.0616,-0.11,-2.60,-2.01,0.148,-21.688,19.760,-6.693
3117,-0.1393,-0.0563,0.0629,-0.30,-2.96,-2.07,0.148,-20.033,15.092,-5.884
3127,-0.1342,-0.0560,0.0639,-0.52,-3.24,-2.14,0.148,-17.045,8.728,-6.722
3136,-0.1285,-0.0553,0.0649,-0.73,-3.46,-2.21,0.158,-18.448,7.131,-5.266
3146,-0.1067,-0.0581,0.0703,-0.94,-3.65,-2.27,0.158,-13.580,4.987,-4.602
3157,-0.1003,-0.0568,0.0711,-1.13,-3.76,-2.34,0.158,-10.929,6.151,-4.260
3166,-0.0938,-0.0551,0.0717,-1.30,-3.84,-2.40,0.158,-7.513,8.820,-3.732
3176,-0.0871,-0.0531,0.0723,-1.45,-3.89,-2.45,0.158,-2.351,11.029,-3.560
3186,-0.0802,-0.0509,0.0729,-1.57,-3.95,-2.50,0.159,-0.476,9.958,-2.521
3196,-0.0733,-0.0485,0.0734,-1.66,-4.03,-2.54,0.159,0.182,8.924,-0.966
3206,-0.0812,-0.0419,0.0690,-1.72,-4.11,-2.57,0.159,3.017,8.890,0.216
3216,-0.0740,-0.0393,0.0691,-1.73,-4.21,-2.61,0.159,9.884,7.493,0.665
3226,-0.0659,-0.0364,0.0691,-1.73,-4.31,-2.63,0.159,3.622,3.131,2.977
3236,-0.0584,-0.0338,0.0690,-1.72,-4.40,-2.63,0.170,3.206,0.942,2.221
3247,-0.0120,-0.0437,0.0837,-1.65,-4.53,-2.63,0.170,-2.172,-3.050,3.710
3256,-0.0042,-0.0413,0.0831,-1.59,-4.58,-2.61,0.170,-2.191,-8.028,2.782
3266,0.0037,-0.0389,0.0823,-1.56,-4.59,-2.58,0.170,-0.753,-7.810,4.187
3277,0.0116,-0.0366,0.0811,-1.55,-4.58,-2.55,0.170,6.236,-8.261,2.500
3287,0.0196,-0.0343,0.0806,-1.58,-4.51,-2.52,0.171,11.311,-6.814,0.339
3296,0.0274,-0.0319,0.0806,-1.59,-4.44,-2.48,0.171,13.795,-8.550,-0.642
3306,0.0355,-0.0296,0.0813,-1.55,-4.36,-2.44,0.171,15.581,-10.534,-1.779
3316,0.0431,-0.0273,0.0817,-1.45,-4.28,-2.43,0.171,11.832,-16.926,-1.081
3326,0.0506,-0.0251,0.0824,-1.31,-4.21,-2.43,0.171,12.858,-23.329,-1.821
3336,0.0579,-0.0231,0.0824,-1.16,-4.11,-2.44,0.177,9.219,-30.140,-1.446
3346,0.0649,-0.0215,0.0815,-1.03,-3.95,-2.45,0.177,2.452,-39.291,-0.600
3356,0.0677,-0.0184,0.0864,-0.89,-3.74,-2.47,0.177,1.631,-41.798,-0.117
3367,0.0741,-0.0172,0.0851,-0.80,-3.45,-2.47,0.177,-2.307,-48.403,2.162
3377,0.0800,-0.0161,0.0840,-0.76,-3.08,-2.48,0.177,-3.617,-51.324,3.046
3386,0.0853,-0.0150,0.0829,-0.75,-2.66,-2.47,0.178,-5.275,-52.907,4.677
3397,0.0899,-0.0139,0.0818,-0.77,-2.20,-2.45,0.178,-7.065,-51.975,6.213
3406,0.1031,-0.0158,0.0754,-0.80,-1.70,-2.42,0.178,-9.822,-51.989,8.016
3416,0.1060,-0.0145,0.0742,-0.85,-1.18,-2.37,0.178,-3.947,-48.471,7.658
3426,0.1081,-0.0132,0.0727,-0.92,-0.66,-2.30,0.178,2.156,-45.531,6.704
3436,0.1093,-0.0117,0.0708,-1.02,-0.14,-2.22,0.181,6.486,-41.492,7.591
3446,0.1096,-0.0100,0.0690,-1.07,0.35,-2.13,0.181,7.471,-40.325,8.307
3456,0.1152,-0.0102,0.0647,-1.08,0.81,-2.05,0.181,7.449,-36.036,8.824
3466,0.1139,-0.0083,0.0630,-1.04,1.25,-1.96,0.181,7.362,-28.309,8.616
3476,0.1119,-0.0065,0.0608,-0.96,1.65,-1.87,0.181,7.564,-22.907,8.986
3486,0.1092,-0.0048,0.0585,-0.89,2.02,-1.78,0.190,5.156,-15.122,7.486
3496,0.1059,-0.0032,0.0564,-0.81,2.33,-1.69,0.190,-1.410,-15.905,6.857
3507,0.0731,0.0075,0.0651,-0.72,2.60,-1.61,0.190,0.987,-11.062,5.781
3516,0.0688,0.0088,0.0634,-0.68,2.77,-1.53,0.190,-2.225,-12.114,5.412
3526,0.0641,0.0101,0.0618,-0.67,2.94,-1.45,0.190,-0.566,-10.336,3.693
3536,0.0592,0.0114,0.0598,-0.67,3.06,-1.39,0.193,-0.030,-10.851,2.571
3546,0.0420,0.0151,0.0639,-0.69,3.19,-1.33,0.193,-1.227,-13.505,1.265
3556,0.0367,0.0164,0.0610,-0.71,3.31,-1.29,0.193,3.163,-10.993,0.036
3567,0.0312,0.0177,0.0583,-0.71,3.41,-1.25,0.193,4.294,-6.917,-0.408
3577,0.0256,0.0190,0.0557,-0.71,3.54,-1.23,0.193,6.421,-1.579,-0.728
3586,0.0197,0.0203,0.0529,-0.70,3.66,-1.23,0.195,9.669,5.128,-1.704
3596,0.0137,0.0216,0.0501,-0.67,3.75,-1.23,0.195,13.126,12.316,-1.008
3606,0.0073,0.0222,0.0488,-0.62,3.79,-1.23,0.195,14.197,16.227,-1.245
3616,0.0010,0.0234,0.0463,-0.54,3.76,-1.25,0.195,12.400,20.723,0.482
3626,-0.0053,0.0244,0.0438,-0.44,3.66,-1.26,0.195,12.226,22.774,0.567
3636,-0.0120,0.0254,0.0415,-0.29,3.49,-1.27,0.197,11.143,23.416,1.089
3646,-0.0169,0.0250,0.0404,-0.15,3.29,-1.27,0.197,10.304,22.648,1.539
3656,-0.0224,0.0254,0.0380,-0.03,3.06,-1.26,0.197,8.949,18.732,2.607
3666,-0.0275,0.0255,0.0352,0.08,2.82,-1.25,0.197,7.326,15.921,3.262
3676,-0.0322,0.0255,0.0322,0.19,2.59,-1.24,0.197,7.356,11.672,2.645
3686,-0.0365,0.0253,0.0291,0.28,2.39,-1.21,0.197,7.557,8.000,3.614
3696,-0.0405,0.0249,0.0261,0.35,2.23,-1.18,0.197,9.879,8.654,3.602
3707,-0.0513,0.0292,0.0195,0.42,2.11,-1.15,0.197,5.315,6.542,3.756
3716,-0.0548,0.0286,0.0164,0.50,2.02,-1.12,0.197,6.473,10.107,1.834
3726,-0.0581,0.0278,0.0130,0.59,1.93,-1.08,0.197,0.841,13.327,2.893
3736,-0.0614,0.0269,0.0095,0.65,1.87,-1.04,0.193,2.963,18.148,2.724
3747,-0.0645,0.0259,0.0065,0.69,1.78,-1.02,0.193,0.474,21.912,2.207
3756,-0.0961,0.0424,-0.0078,0.68,1.70,-0.98,0.193,-0.306,26.269,2.325
3766,-0.0990,0.0413,-0.0100,0.70,1.52,-0.96,0.193,2.559,33.564,1.307
3776,-0.1016,0.0402,-0.0120,0.71,1.30,-0.93,0.193,1.488,37.299,1.584
3786,-0.1038,0.0390,-0.0138,0.70,1.04,-0.90,0.200,5.358,41.851,0.862
3796,-0.1056,0.0379,-0.0152,0.73,0.72,-0.88,0.200,6.139,42.068,1.495
3806,-0.0689,0.0143,-0.0058,0.78,0.30,-0.86,0.200,10.412,44.417,1.253
3816,-0.0694,0.0129,-0.0060,0.83,-0.11,-0.85,0.200,11.223,43.482,0.493
3826,-0.0693,0.0115,-0.0059,0.88,-0.53,-0.83,0.200,13.292,41.577,-0.058
3836,-0.0684,0.0100,-0.0057,0.99,-0.98,-0.81,0.193,11.168,36.864,-0.829
3846,-0.0935,0.0226,-0.0148,1.09,-1.38,-0.80,0.193,10.246,29.516,-2.695
3856,-0.0911,0.0207,-0.0147,1.22,-1.80,-0.80,0.193,5.245,18.624,-2.525
3866,-0.0881,0.0186,-0.0146,1.34,-2.17,-0.80,0.193,0.100,9.583,-3.173
3877,-0.0844,0.0162,-0.0148,1.43,-2.48,-0.81,0.193,-7.820,0.441,-2.436
3886,-0.0802,0.0137,-0.0153,1.48,-2.69,-0.83,0.191,-6.692,-4.116,-3.570
3896,-0.0757,0.0111,-0.0158,1.48,-2.80,-0.86,0.191,-8.853,-7.407,-3.685
3906,-0.0926,0.0193,-0.0245,1.40,-2.79,-0.88,0.191,-10.463,-9.482,-4.129
3916,-0.0879,0.0168,-0.0250,1.32,-2.75,-0.92,0.191,-11.252,-10.703,-3.473
3926,-0.0833,0.0145,-0.0259,1.24,-2.69,-0.96,0.191,-11.535,-5.331,-2.346
3936,-0.0788,0.0123,-0.0266,1.14,-2.60,-1.00,0.194,-12.756,-2.787,-2.274
3946,-0.0640,0.0052,-0.0232,1.04,-2.52,-1.03,0.194,-9.779,2.463,-2.172
3956,-0.0597,0.0034,-0.0239,0.92,-2.46,-1.06,0.194,-8.066,7.633,-2.307
3966,-0.0556,0.0017,-0.0244,0.80,-2.43,-1.09,0.194,-5.314,13.032,-2.940
3976,-0.0514,0.0003,-0.0245,0.69,-2.44,-1.11,0.194,-12.304,14.100,-0.131
3986,-0.0473,-0.0010,-0.0242,0.59,-2.51,-1.13,0.192,-5.633,17.740,0.033
3996,-0.0430,-0.0021,-0.0238,0.52,-2.63,-1.15,0.192,-8.906,13.307,0.773
4006,-0.0364,-0.0039,-0.0219,0.40,-2.77,-1.15,0.192,-2.488,12.507,-0.300
4015,-0.0316,-0.0047,-0.0215,0.33,-2.95,-1.15,0.192,-3.277,6.857,0.807
4026,-0.0266,-0.0054,-0.0210,0.26,-3.09,-1.15,0.192,-1.677,0.611,0.750
4036,-0.0212,-0.0059,-0.0205,0.22,-3.22,-1.15,0.193,-0.843,-5.143,2.327
4046,-0.0127,-0.0071,-0.0153,0.20,-3.30,-1.14,0.193,0.812,-11.626,1.678
4056,-0.0065,-0.0076,-0.0144,0.19,-3.32,-1.13,0.193,-1.762,-17.335,3.223
4066,-0.0007,-0.0081,-0.0137,0.18,-3.28,-1.11,0.193,-0.099,-19.114,3.762
4076,0.0049,-0.0085,-0.0135,0.19,-3.16,-1.09,0.193,-7.447,-23.738,4.619
4086,0.0103,-0.0089,-0.0130,0.18,-2.99,-1.07,0.190,-4.184,-19.003,3.197
4096,0.0155,-0.0093,-0.0126,0.16,-2.80,-1.03,0.190,-9.465,-20.605,3.988
4105,0.0214,-0.0106,-0.0144,0.10,-2.57,-0.98,0.190,-8.872,-17.432,4.273
4116,0.0258,-0.0108,-0.0141,0.06,-2.37,-0.95,0.190,-11.537,-16.168,4.621
4126,0.0299,-0.0110,-0.0139,-0.02,-2.17,-0.91,0.190,-6.826,-13.004,3.342
4136,0.0336,-0.0110,-0.0137,-0.12,-1.99,-0.87,0.189,-5.516,-12.330,2.764
4146,0.0370,-0.0108,-0.0134,-0.22,-1.83,-0.82,0.189,-2.310,-11.401,2.523
4156,0.0426,-0.0120,-0.0152,-0.30,-1.71,-0.78,0.189,-3.653,-11.554,2.689
4166,0.0455,-0.0115,-0.0146,-0.35,-1.58,-0.75,0.189,-3.443,-11.521,3.630
4176,0.0483,-0.0110,-0.0138,-0.38,-1.46,-0.72,0.189,-9.001,-11.426,3.736
4186,0.0508,-0.0103,-0.0131,-0.41,-1.35,-0.70,0.188,-10.801,-12.354,4.409
4196,0.0532,-0.0096,-0.0118,-0.44,-1.24,-0.66,0.188,-10.822,-15.165,4.090
4206,0.0585,-0.0107,-0.0125,-0.53,-1.13,-0.62,0.188,-8.851,-16.604,3.509
4216,0.0605,-0.0097,-0.0115,-0.63,-1.01,-0.58,0.188,-8.888,-20.610,2.599
4226,0.0622,-0.0087,-0.0101,-0.73,-0.86,-0.54,0.188,-4.507,-24.755,2.226
4235,0.0637,-0.0074,-0.0089,-0.82,-0.69,-0.50,0.186,1.427,-28.146,0.903
4246,0.0649,-0.0060,-0.0080,-0.89,-0.49,-0.48,0.186,5.195,-30.916,-0.186
4255,0.0748,-0.0091,-0.0118,-0.93,-0.25,-0.45,0.186,1.980,-33.537,-0.027
4265,0.0752,-0.0075,-0.0112,-0.93,0.03,-0.44,0.186,1.812,-30.930,-0.474
4276,0.0752,-0.0059,-0.0108,-0.90,0.34,-0.43,0.186,5.302,-26.157,-2.176
4286,0.0746,-0.0044,-0.0105,-0.87,0.66,-0.43,0.190,5.129,-22.066,-2.445
4295,0.0735,-0.0029,-0.0102,-0.84,0.97,-0.43,0.190,4.623,-18.079,-2.083
4305,0.0532,0.0077,-0.0018,-0.81,1.27,-0.44,0.190,5.457,-12.604,-1.301
4316,0.0510,0.0091,-0.0014,-0.76,1.49,-0.46,0.190,4.355,-7.235,-1.302
4325,0.0485,0.0104,-0.0009,-0.71,1.67,-0.48,0.190,2.316,-2.652,-0.845
4335,0.0456,0.0117,-0.0005,-0.66,1.80,-0.49,0.186,2.688,2.447,0.146
4345,0.0494,0.0100,-0.0040,-0.62,1.87,-0.51,0.186,5.308,6.833,0.353
4355,0.0462,0.0111,-0.0036,-0.58,1.90,-0.51,0.186,-0.390,6.612,2.718
4366,0.0430,0.0122,-0.0032,-0.54,1.87,-0.52,0.186,8.866,12.916,1.122
4376,0.0398,0.0131,-0.0024,-0.49,1.80,-0.51,0.186,2.491,11.568,1.828
4385,0.0366,0.0140,-0.0013,-0.48,1.73,-0.49,0.186,0.542,14.595,2.271
4395,0.0337,0.0148,-0.0002,-0.42,1.62,-0.48,0.186,-0.688,12.497,2.675
4406,0.0329,0.0152,-0.0014,-0.39,1.50,-0.46,0.186,-3.406,12.354,3.186
4416,0.0303,0.0159,-0.0003,-0.37,1.35,-0.44,0.186,-2.317,10.162,2.899
4426,0.0279,0.0166,0.0010,-0.38,1.22,-0.41,0.186,-0.708,9.036,4.141
4435,0.0258,0.0173,0.0026,-0.41,1.10,-0.38,0.184,1.822,7.842,5.411
4445,0.0239,0.0180,0.0042,-0.43,1.00,-0.35,0.184,1.659,6.852,4.209
4455,0.0236,0.0196,-0.0000,-0.45,0.92,-0.31,0.184,-1.376,5.545,5.233
4465,0.0219,0.0205,0.0020,-0.43,0.83,-0.26,0.184,1.908,3.899,5.507
4475,0.0204,0.0212,0.0040,-0.42,0.76,-0.21,0.184,-1.713,4.739,5.150
4486,0.0191,0.0220,0.0059,-0.43,0.70,-0.16,0.185,1.500,5.656,4.936
4495,0.0179,0.0227,0.0081,-0.41,0.66,-0.10,0.185,-1.145,4.490,5.639
4505,0.0160,0.0244,0.0084,-0.41,0.61,-0.06,0.185,2.421,5.122,5.692
4516,0.0149,0.0251,0.0105,-0.41,0.56,-0.01,0.185,2.526,5.413,4.754
4525,0.0140,0.0259,0.0129,-0.41,0.51,0.05,0.185,-0.804,5.732,5.614
4535,0.0131,0.0266,0.0153,-0.40,0.46,0.11,0.186,1.111,7.552,6.105
4546,0.0123,0.0273,0.0179,-0.38,0.40,0.15,0.186,3.027,5.099,6.114
4555,0.0116,0.0279,0.0205,-0.37,0.34,0.21,0.186,2.348,5.593,6.570
4565,0.0110,0.0286,0.0235,-0.36,0.27,0.27,0.186,4.938,3.257,7.274
4576,0.0105,0.0292,0.0263,-0.34,0.21,0.33,0.186,3.191,2.333,7.670
4585,0.0101,0.0298,0.0291,-0.32,0.16,0.40,0.187,6.898,0.464,5.649
4595,0.0098,0.0304,0.0315,-0.28,0.12,0.47,0.187,7.115,-0.359,6.661
4605,0.0084,0.0318,0.0324,-0.24,0.10,0.54,0.187,7.649,-2.065,5.453
4615,0.0082,0.0322,0.0347,-0.18,0.09,0.60,0.187,8.194,-2.715,5.667
4625,0.0081,0.0325,0.0367,-0.10,0.10,0.67,0.187,11.749,-1.567,5.913
4635,0.0079,0.0327,0.0385,-0.04,0.12,0.73,0.188,10.467,-2.217,5.771
4645,0.0077,0.0328,0.0402,0.05,0.14,0.78,0.188,9.425,-1.937,6.811
4655,0.0059,0.0339,0.0400,0.16,0.16,0.85,0.188,8.778,0.123,6.304
4665,0.0056,0.0336,0.0413,0.27,0.18,0.90,0.188,8.623,0.569,6.568
4675,0.0053,0.0332,0.0427,0.36,0.19,0.97,0.188,9.495,0.922,6.849
4685,0.0049,0.0325,0.0441,0.45,0.20,1.04,0.188,8.134,-0.403,7.372
4695,0.0046,0.0318,0.0454,0.54,0.19,1.10,0.188,6.880,-0.703,7.045
4705,-0.0021,0.0356,0.0391,0.63,0.19,1.18,0.188,7.554,-1.539,6.767
4715,-0.0024,0.0345,0.0398,0.72,0.20,1.25,0.188,5.087,-2.062,6.633
4726,-0.0027,0.0333,0.0408,0.80,0.21,1.32,0.188,12.271,-3.192,4.221
4735,-0.0031,0.0319,0.0414,0.87,0.22,1.39,0.191,7.079,-2.930,4.446
4746,-0.0041,0.0309,0.0407,0.93,0.24,1.45,0.191,10.659,-3.781,3.978
4755,-0.0045,0.0293,0.0405,1.04,0.27,1.49,0.191,8.987,-2.671,3.448
4765,-0.0049,0.0275,0.0405,1.12,0.30,1.54,0.191,8.702,-2.121,3.512
4775,-0.0054,0.0256,0.0406,1.21,0.34,1.57,0.191,8.307,-0.383,3.622
4785,-0.0059,0.0235,0.0406,1.30,0.36,1.61,0.196,7.219,0.936,3.843
4796,-0.0064,0.0212,0.0406,1.38,0.37,1.65,0.196,7.411,2.143,3.662
4805,-0.0017,0.0157,0.0457,1.46,0.38,1.68,0.196,5.915,3.501,4.105
4815,-0.0023,0.0132,0.0458,1.54,0.37,1.72,0.196,3.789,3.521,3.547
4826,-0.0029,0.0106,0.0459,1.61,0.35,1.76,0.196,-0.188,4.401,3.477
4835,-0.0034,0.0078,0.0457,1.67,0.32,1.80,0.195,-2.919,4.829,2.813
4845,-0.0062,0.0059,0.0420,1.71,0.28,1.84,0.195,-7.846,3.308,2.725
4855,-0.0066,0.0030,0.0412,1.71,0.24,1.88,0.195,-10.055,2.717,1.760
4865,-0.0069,0.0001,0.0400,1.67,0.19,1.91,0.195,-12.435,1.073,0.986
4875,-0.0072,-0.0030,0.0385,1.58,0.16,1.94,0.195,-12.867,-0.385,0.578
4885,-0.0073,-0.0057,0.0375,1.48,0.13,1.96,0.196,-9.039,-2.438,-0.953
4896,-0.0075,-0.0082,0.0366,1.36,0.13,1.97,0.196,-9.689,-2.710,-1.150
4905,-0.0101,-0.0109,0.0307,1.23,0.14,1.97,0.196,-9.382,-1.904,-1.028
4915,-0.0102,-0.0130,0.0300,1.13,0.16,1.96,0.196,-6.642,-1.754,-1.508
4925,-0.0105,-0.0150,0.0290,1.04,0.19,1.95,0.196,-6.347,-1.571,-2.093
4935,-0.0107,-0.0167,0.0283,0.95,0.21,1.94,0.202,-3.382,-0.446,-3.015
4945,-0.0088,-0.0160,0.0354,0.87,0.23,1.92,0.202,-4.440,-0.937,-2.064
4956,-0.0091,-0.0175,0.0348,0.81,0.25,1.90,0.202,-5.053,0.548,-1.173
4965,-0.0095,-0.0188,0.0344,0.77,0.25,1.87,0.202,-6.849,2.220,-1.465
4975,-0.0099,-0.0202,0.0337,0.73,0.25,1.85,0.202,-7.418,3.654,-1.071
4985,-0.0103,-0.0214,0.0329,0.69,0.24,1.84,0.198,-8.018,5.336,-0.724
4995,-0.0106,-0.0226,0.0324,0.62,0.22,1.82,0.198,-11.352,5.257,-0.585
5005,-0.0116,-0.0286,0.0228,0.54,0.18,1.81,0.198,-12.171,3.925,-0.778
5015,-0.0119,-0.0295,0.0222,0.46,0.13,1.81,0.198,-14.515,3.138,0.218
5026,-0.0120,-0.0303,0.0215,0.35,0.07,1.80,0.198,-15.933,2.122,0.659
5035,-0.0122,-0.0309,0.0206,0.23,0.04,1.80,0.200,-20.072,2.147,-0.052
5045,-0.0122,-0.0313,0.0194,0.09,0.01,1.79,0.200,-12.600,-0.084,-0.962
5056,-0.0120,-0.0331,0.0160,-0.05,-0.01,1.79,0.200,-18.955,-2.103,-0.071
5065,-0.0120,-0.0330,0.0148,-0.23,-0.03,1.79,0.200,-20.290,-1.033,-0.386
5075,-0.0120,-0.0326,0.0136,-0.36,-0.02,1.78,0.200,-15.941,-1.025,-1.306
5085,-0.0120,-0.0320,0.0123,-0.56,-0.01,1.78,0.204,-18.680,-1.501,-0.978
5095,-0.0120,-0.0311,0.0110,-0.76,0.00,1.77,0.204,-11.504,-1.527,-2.577
5105,-0.0132,-0.0250,0.0158,-0.92,0.01,1.76,0.204,-11.451,-1.176,-2.592
5115,-0.0133,-0.0234,0.0144,-1.09,0.03,1.74,0.204,-11.286,-0.961,-2.810
5125,-0.0134,-0.0216,0.0129,-1.22,0.05,1.72,0.204,-6.864,-0.815,-3.427
5135,-0.0135,-0.0195,0.0115,-1.33,0.06,1.70,0.203,1.709,0.682,-4.629
5145,-0.0136,-0.0174,0.0103,-1.41,0.07,1.66,0.203,4.517,0.611,-4.489
5155,-0.0138,-0.0150,0.0095,-1.47,0.07,1.63,0.203,8.719,0.404,-5.447
5165,-0.0140,-0.0125,0.0091,-1.46,0.07,1.59,0.203,14.724,-0.110,-6.224
5175,-0.0142,-0.0100,0.0087,-1.40,0.06,1.54,0.203,15.292,-0.184,-5.236
5185,-0.0144,-0.0076,0.0084,-1.31,0.06,1.49,0.204,17.552,-0.464,-5.069
5195,-0.0145,-0.0053,0.0086,-1.15,0.07,1.42,0.204,19.371,-0.658,-4.990
5205,-0.0146,-0.0032,0.0098,-1.00,0.07,1.37,0.204,17.980,-2.145,-4.809
5215,-0.0148,-0.0015,0.0101,-0.82,0.08,1.32,0.204,14.447,-0.627,-4.257
5225,-0.0150,-0.0001,0.0105,-0.63,0.09,1.27,0.204,15.975,1.009,-4.449
5235,-0.0151,0.0010,0.0107,-0.45,0.10,1.22,0.201,14.666,5.307,-4.904
5245,-0.0165,0.0024,0.0040,-0.30,0.10,1.18,0.201,12.297,5.356,-5.734
5254,-0.0167,0.0029,0.0046,-0.15,0.07,1.13,0.201,7.401,4.680,-7.061
5265,-0.0168,0.0031,0.0054,-0.01,0.02,1.08,0.201,6.501,5.999,-9.106
5275,-0.0168,0.0031,0.0060,0.14,-0.04,1.01,0.201,3.567,7.690,-9.674
5285,-0.0168,0.0029,0.0062,0.22,-0.09,0.94,0.202,1.846,9.472,-11.325
5294,-0.0166,0.0025,0.0059,0.28,-0.16,0.84,0.202,-3.009,10.121,-10.966
5305,-0.0171,0.0030,0.0035,0.32,-0.24,0.74,0.202,0.573,8.365,-12.252
5315,-0.0167,0.0024,0.0044,0.35,-0.35,0.63,0.202,0.469,8.831,-13.249
5325,-0.0161,0.0018,0.0051,0.33,-0.44,0.52,0.202,0.210,7.984,-14.895
5334,-0.0153,0.0012,0.0055,0.33,-0.53,0.39,0.203,1.845,9.178,-15.626
5345,-0.0144,0.0006,0.0057,0.33,-0.62,0.26,0.203,4.355,6.797,-17.189
5354,-0.0133,0.0001,0.0055,0.34,-0.70,0.11,0.203,5.033,4.787,-19.160
5365,-0.0121,-0.0005,0.0057,0.35,-0.79,-0.05,0.203,-2.350,0.520,-18.774
5375,-0.0107,-0.0011,0.0064,0.39,-0.85,-0.22,0.203,-1.496,-2.805,-20.246
5385,-0.0093,-0.0018,0.0067,0.42,-0.89,-0.42,0.199,-3.310,-7.081,-20.496
5395,-0.0078,-0.0026,0.0065,0.42,-0.90,-0.61,0.199,-4.854,-12.289,-21.799
5404,-0.0081,0.0001,-0.0032,0.40,-0.87,-0.81,0.199,-9.395,-17.297,-21.861
5415,-0.0066,-0.0006,-0.0033,0.36,-0.79,-1.02,0.199,-17.612,-19.787,-23.582
5425,-0.0053,-0.0012,-0.0033,0.29,-0.65,-1.24,0.199,-22.839,-23.395,-24.345
5434,-0.0042,-0.0018,-0.0035,0.16,-0.47,-1.46,0.197,-25.640,-23.184,-24.691
5444,-0.0034,-0.0021,-0.0040,-0.02,-0.27,-1.70,0.197,-24.168,-19.258,-25.613
5455,-0.0032,0.0004,-0.0142,-0.26,-0.04,-1.95,0.197,-20.026,-17.293,-27.262
5465,-0.0031,0.0008,-0.0144,-0.51,0.17,-2.19,0.197,-13.357,-10.750,-28.267
5475,-0.0034,0.0017,-0.0143,-0.74,0.36,-2.45,0.197,-6.789,-7.298,-29.690
5484,-0.0039,0.0030,-0.0143,-0.93,0.53,-2.72,0.202,3.608,-2.464,-30.431
5494,-0.0047,0.0046,-0.0144,-1.05,0.63,-3.01,0.202,14.123,2.988,-30.012
5505,-0.0064,0.0051,-0.0070,-1.09,0.70,-3.30,0.202,20.799,8.515,-30.729
5514,-0.0075,0.0070,-0.0063,-1.05,0.72,-3.60,0.202,30.766,10.311,-32.308
5524,-0.0086,0.0089,-0.0054,-0.89,0.69,-3.91,0.202,32.765,10.703,-31.242
5534,-0.0097,0.0106,-0.0040,-0.66,0.60,-4.22,0.196,35.433,8.660,-30.031
5545,-0.0102,0.0140,-0.0110,-0.34,0.50,-4.54,0.196,36.194,13.916,-28.565
5555,-0.0110,0.0147,-0.0094,0.01,0.40,-4.85,0.196,38.895,16.593,-28.530
5565,-0.0117,0.0147,-0.0079,0.37,0.29,-5.15,0.196,36.583,17.292,-29.538
5575,-0.0122,0.0141,-0.0067,0.73,0.15,-5.43,0.196,37.740,15.284,-28.026
5585,-0.0126,0.0129,-0.0056,1.11,-0.02,-5.71,0.198,33.958,12.514,-25.972
5594,-0.0128,0.0109,-0.0037,1.48,-0.19,-6.00,0.198,25.648,7.726,-23.086
5605,-0.0127,0.0082,-0.0016,1.85,-0.35,-6.27,0.198,19.167,4.355,-20.865
5614,-0.0124,0.0049,0.0004,2.18,-0.47,-6.53,0.198,10.800,2.304,-18.216
5624,-0.0121,0.0010,0.0028,2.43,-0.54,-6.75,0.198,1.685,1.895,-16.394
5634,-0.0116,-0.0033,0.0047,2.58,-0.58,-6.95,0.200,-3.316,3.997,-14.927
5645,-0.0104,-0.0089,0.0104,2.66,-0.62,-7.12,0.200,-10.243,5.162,-12.838
5655,-0.0099,-0.0136,0.0115,2.66,-0.64,-7.28,0.200,-15.014,5.595,-11.282
5664,-0.0094,-0.0184,0.0124,2.61,-0.69,-7.42,0.200,-18.687,5.322,-9.473
5674,-0.0088,-0.0230,0.0134,2.50,-0.76,-7.55,0.200,-18.614,1.185,-6.885
5685,-0.0081,-0.0274,0.0142,2.35,-0.81,-7.65,0.199,-20.487,-5.255,-5.327
5694,-0.0072,-0.0316,0.0150,2.16,-0.86,-7.74,0.199,-27.196,-11.111,-2.310
5705,-0.0062,-0.0361,0.0145,1.95,-0.85,-7.81,0.199,-20.798,-14.837,-1.759
5715,-0.0052,-0.0396,0.0154,1.73,-0.78,-7.86,0.199,-21.585,-16.176,0.245
5725,-0.0043,-0.0428,0.0166,1.46,-0.65,-7.88,0.199,-20.471,-13.295,2.239
5734,-0.0035,-0.0454,0.0179,1.23,-0.50,-7.90,0.198,-14.532,-8.884,2.426
5745,-0.0014,-0.0509,0.0147,1.02,-0.35,-7.89,0.198,-14.317,-7.995,5.549
5755,-0.0011,-0.0527,0.0158,0.83,-0.22,-7.87,0.198,-9.033,-2.794,7.317
5764,-0.0009,-0.0542,0.0167,0.68,-0.14,-7.84,0.198,-5.400,-1.483,9.662
5775,-0.0008,-0.0554,0.0178,0.55,-0.06,-7.78,0.198,-11.041,-4.636,12.057
5784,-0.0008,-0.0564,0.0182,0.49,-0.05,-7.70,0.199,-8.288,-4.793,13.172
5794,-0.0009,-0.0572,0.0181,0.40,-0.02,-7.59,0.199,-12.112,-4.528,13.425
5804,0.0005,-0.0605,0.0157,0.30,0.04,-7.47,0.199,-18.913,-14.524,13.922
5814,0.0004,-0.0610,0.0158,0.19,0.09,-7.34,0.199,-22.932,-18.167,13.700
5825,0.0002,-0.0613,0.0165,0.06,0.16,-7.21,0.199,-28.151,-19.079,14.625
5834,-0.0001,-0.0614,0.0177,-0.14,0.30,-7.07,0.200,-28.152,-21.069,14.535
5844,-0.0006,-0.0611,0.0190,-0.39,0.49,-6.93,0.200,-30.346,-16.982,15.558
5854,-0.0006,-0.0616,0.0194,-0.68,0.68,-6.78,0.200,-26.302,-12.874,16.363
5864,-0.0016,-0.0602,0.0209,-0.99,0.87,-6.63,0.200,-27.319,-8.841,18.402
5874,-0.0029,-0.0584,0.0223,-1.29,1.02,-6.46,0.200,-20.147,-0.057,20.054
5884,-0.0044,-0.0559,0.0240,-1.55,1.14,-6.29,0.202,-13.039,6.428,20.924
5894,-0.0061,-0.0530,0.0260,-1.80,1.19,-6.10,0.202,-3.633,13.865,19.601
5905,-0.0089,-0.0479,0.0291,-1.98,1.17,-5.90,0.202,3.542,21.267,19.964
5914,-0.0105,-0.0443,0.0304,-2.09,1.06,-5.70,0.202,6.753,26.730,19.832
5925,-0.0120,-0.0405,0.0315,-2.10,0.89,-5.51,0.202,4.556,29.564,20.555
5935,-0.0132,-0.0368,0.0325,-2.05,0.65,-5.32,0.004,7.727,30.376,20.750
5945,0.0957,-0.3542,-0.4079,-1.65,0.26,-5.14,0.004,7.374,30.039,20.498
5954,0.0955,-0.3513,-0.4070,-1.59,-0.05,-4.94,0.004,9.531,26.924,20.362
5965,0.0958,-0.3486,-0.4057,-1.52,-0.36,-4.74,0.004,6.297,21.655,20.669
5974,0.0966,-0.3460,-0.4038,-1.42,-0.65,-4.55,0.004,-6.962,10.316,20.459
5984,0.0980,-0.3436,-0.4018,-1.34,-0.91,-4.35,0.023,-25.178,-1.581,18.578
5994,0.0998,-0.3413,-0.3986,-1.31,-1.10,-4.15,0.023,-47.436,-15.464,20.740
6004,1.4486,-2.2254,-0.6686,0.30,-2.36,-3.94,0.023,-62.881,-22.379,19.750
