time_ms,vel_x,vel_y,vel_z,roll,pitch,yaw,range_z,gyro_x,gyro_y,gyro_z
0,-0.0130,-0.0103,0.0033,-0.22,0.90,-59.11,0.013,-0.071,0.054,0.093
0,-0.0167,-0.0112,0.0035,-0.19,0.91,-59.06,0.013,-0.119,-0.009,0.086
0,-0.0149,-0.0074,0.0037,-0.22,0.93,-59.00,0.013,-0.264,-0.091,0.114
0,-0.0091,-0.0040,0.0039,-0.28,0.93,-58.94,0.013,-0.254,-0.296,-0.141
0,-0.0076,-0.0047,0.0036,-0.28,0.91,-58.88,0.010,0.243,0.103,0.059
0,0.0108,0.0036,0.0036,-0.45,0.90,-58.83,0.010,-0.408,0.156,0.076
0,0.0019,0.0007,-0.0039,-0.37,0.92,-58.77,0.010,-0.124,0.161,0.041
0,0.0247,0.0157,-0.0040,-0.59,0.92,-58.71,0.010,-0.047,-0.013,-0.114
0,0.0254,0.0160,-0.0038,-0.59,0.92,-58.66,0.014,-0.335,0.029,0.004
0,0.0193,0.0150,-0.0033,-0.54,0.94,-58.60,0.014,-0.101,0.313,0.189
1,0.0245,0.0167,0.0009,-0.58,0.93,-58.55,0.014,-0.082,0.131,-0.121
1,0.0296,0.0156,0.0008,-0.60,0.90,-58.49,0.014,0.053,0.223,-0.184
1,0.0228,0.0155,0.0013,-0.55,0.92,-58.43,0.014,-0.029,-0.061,-0.268
1,0.0179,0.0124,0.0017,-0.50,0.92,-58.38,0.014,-0.541,0.224,0.175
1,0.0186,0.0099,0.0020,-0.49,0.90,-58.32,0.011,0.047,0.315,0.230
1,0.0250,0.0139,0.0019,-0.55,0.90,-58.27,0.011,-0.161,-0.082,0.183
1,0.0231,0.0195,-0.0022,-0.55,0.94,-58.22,0.011,-0.269,-0.152,0.208
1,0.0198,0.0079,-0.0016,-0.48,0.88,-58.16,0.011,0.026,-0.133,0.084
1,0.0158,0.0138,-0.0012,-0.47,0.93,-58.10,0.008,-0.081,0.020,0.232
1,0.0192,0.0142,-0.0011,-0.49,0.92,-58.05,0.008,-0.133,0.050,0.160
1,0.0185,0.0092,-0.0095,-0.47,0.89,-57.99,0.008,0.006,-0.021,0.145
1,0.0193,0.0069,-0.0094,-0.46,0.88,-57.93,0.008,-0.125,0.235,-0.174
1,0.0175,0.0088,-0.0092,-0.45,0.90,-57.88,0.008,-0.055,0.164,0.115
1,0.0174,0.0058,-0.0088,-0.43,0.88,-57.82,0.008,-0.178,-0.089,0.030
1,0.0159,0.0091,-0.0086,-0.43,0.90,-57.77,0.013,-0.246,-0.232,-0.013
1,0.0142,0.0038,-0.0081,-0.40,0.88,-57.71,0.013,-0.176,-0.023,0.295
1,0.0196,0.0075,-0.0009,-0.45,0.88,-57.66,0.013,-0.161,-0.160,-0.160
1,0.0180,0.0108,-0.0007,-0.45,0.91,-57.60,0.013,-0.032,0.043,-0.323
2,0.0102,0.0046,-0.0002,-0.37,0.90,-57.54,0.012,0.194,-0.066,-0.193
2,0.0172,0.0118,-0.0002,-0.45,0.91,-57.49,0.012,0.079,0.011,-0.133
2,0.0103,0.0045,0.0016,-0.37,0.89,-57.43,0.012,0.055,-0.221,0.134
2,0.0131,0.0061,0.0018,-0.39,0.89,-57.38,0.012,0.016,0.023,0.151
2,0.0166,0.0081,0.0020,-0.42,0.89,-57.32,0.012,0.029,-0.093,-0.100
2,0.0123,0.0054,0.0023,-0.38,0.90,-57.27,0.012,-0.348,-0.272,0.187
2,0.0069,0.0048,0.0025,-0.34,0.91,-57.22,0.012,0.133,0.189,0.101
2,0.0036,-0.0028,0.0028,-0.28,0.88,-57.16,0.012,-0.014,0.248,-0.021
2,0.0059,0.0228,0.0034,-0.41,1.04,-57.11,0.012,-0.036,-0.122,0.032
2,-0.0020,0.0157,0.0040,-0.32,1.02,-57.05,0.012,-0.044,-0.079,-0.435
2,0.0046,0.0154,0.0044,-0.36,0.99,-57.00,0.010,-0.152,-0.052,0.043
2,0.0000,0.0118,0.0048,-0.31,0.98,-56.94,0.010,-0.217,-0.247,0.088
2,0.0149,0.0193,0.0003,-0.45,0.97,-56.89,0.010,-0.070,0.162,-0.290
2,0.0072,0.0178,0.0007,-0.39,0.99,-56.84,0.010,-0.258,0.198,0.258
2,-0.0166,0.0123,0.0011,-0.20,1.06,-56.79,0.010,-0.189,-0.203,-0.318
2,-0.0196,0.0092,0.0011,-0.17,1.05,-56.73,0.010,0.021,0.026,-0.278
2,-0.0123,0.0131,0.0015,-0.24,1.04,-56.68,0.011,-0.481,0.154,0.184
2,-0.0072,0.0103,0.0019,-0.26,1.00,-56.62,0.011,-0.205,0.144,0.106
2,-0.0146,0.0060,0.0006,-0.19,1.00,-56.57,0.011,0.168,0.082,-0.011
2,-0.0152,0.0061,0.0007,-0.19,1.00,-56.51,0.011,-0.375,-0.023,-0.005
2,-0.0134,0.0104,0.0010,-0.22,1.02,-56.46,0.008,0.161,-0.060,-0.021
2,-0.0154,0.0083,0.0010,-0.20,1.01,-56.41,0.008,-0.043,-0.057,0.239
2,-0.0124,0.0107,-0.0060,-0.23,1.01,-56.36,0.008,-0.128,-0.117,0.144
2,-0.0138,0.0076,-0.0060,-0.21,0.99,-56.30,0.008,-0.367,0.310,0.317
2,-0.0138,0.0076,-0.0058,-0.21,0.99,-56.25,0.008,-0.015,-0.105,-0.061
3,-0.0138,0.0076,-0.0055,-0.21,0.99,-56.19,0.008,-0.205,-0.069,-0.095
3,-0.0121,0.0061,-0.0052,-0.22,0.98,-56.14,0.009,-0.075,0.296,0.069
3,-0.0028,0.0086,-0.0048,-0.29,0.95,-56.08,0.009,-0.190,0.071,0.104
3,0.0009,0.0078,-0.0063,-0.31,0.92,-56.03,0.009,-0.132,0.101,0.247
3,-0.0105,0.0055,-0.0062,-0.22,0.96,-55.97,0.009,-0.339,-0.066,0.092
3,-0.0110,0.0071,-0.0061,-0.23,0.97,-55.92,0.009,-0.259,-0.092,0.072
3,-0.0108,0.0072,-0.0059,-0.23,0.97,-55.86,0.009,-0.221,0.173,0.233
3,-0.0108,0.0073,-0.0061,-0.23,0.97,-55.81,0.009,-0.024,-0.437,-0.096
3,-0.0008,0.0052,-0.0058,-0.29,0.91,-55.76,0.009,0.017,0.009,-0.129
3,-0.0075,0.0110,-0.0057,-0.27,0.98,-55.70,0.009,0.209,0.035,0.042
3,-0.0011,0.0112,-0.0054,-0.31,0.95,-55.65,0.009,-0.207,0.103,0.029
3,-0.0071,0.0111,-0.0051,-0.27,0.98,-55.60,0.009,-0.220,0.065,0.178
3,-0.0004,-0.0006,-0.0046,-0.26,0.87,-55.55,0.009,-0.201,-0.143,-0.155
3,-0.0040,-0.0018,-0.0042,-0.23,0.88,-55.49,0.009,-0.106,0.159,0.305
3,-0.0050,0.0003,-0.0041,-0.24,0.89,-55.44,0.009,-0.349,0.012,-0.114
3,-0.0059,0.0024,-0.0040,-0.24,0.91,-55.39,0.012,-0.215,-0.050,-0.065
3,-0.0074,0.0053,-0.0038,-0.24,0.94,-55.33,0.012,-0.129,-0.068,0.234
3,-0.0055,0.0033,0.0034,-0.25,0.91,-55.28,0.012,-0.360,-0.175,-0.095
3,-0.0035,-0.0031,0.0036,-0.23,0.86,-55.23,0.012,-0.031,-0.256,-0.257
3,-0.0017,0.0053,0.0039,-0.28,0.91,-55.17,0.012,-0.171,-0.055,-0.129
3,-0.0041,0.0046,0.0043,-0.27,0.92,-55.12,0.012,-0.120,0.198,0.090
3,-0.0030,0.0035,0.0046,-0.27,0.91,-55.07,0.011,-0.041,-0.103,-0.001
3,0.0087,0.0055,0.0047,-0.36,0.87,-55.01,0.011,-0.190,0.136,-0.049
3,0.0092,0.0056,0.0062,-0.36,0.87,-54.96,0.011,0.131,0.052,0.018
3,-0.0033,0.0044,0.0064,-0.27,0.91,-54.91,0.011,-0.052,0.186,0.060
3,-0.0034,0.0027,0.0064,-0.26,0.90,-54.86,0.011,-0.175,-0.178,-0.191
3,-0.0039,0.0037,0.0064,-0.26,0.91,-54.81,0.011,0.125,-0.041,-0.196
3,-0.0038,0.0040,0.0067,-0.26,0.91,-54.75,0.011,-0.347,0.153,-0.135
3,-0.0019,0.0018,0.0070,-0.26,0.88,-54.70,0.011,-0.008,0.411,-0.033
3,-0.0023,0.0026,0.0073,-0.26,0.89,-54.65,0.011,-0.059,0.200,0.139
3,-0.0011,0.0015,0.0075,-0.27,0.88,-54.60,0.011,-0.116,0.008,0.129
3,-0.0019,0.0036,0.0077,-0.27,0.90,-54.54,0.011,-0.045,-0.059,0.252
4,-0.0017,0.0036,0.0079,-0.27,0.89,-54.49,0.011,-0.174,-0.292,-0.178
4,-0.0032,-0.0027,0.0072,-0.23,0.86,-54.44,0.011,0.037,0.073,-0.105
4,-0.0009,0.0034,0.0074,-0.27,0.89,-54.38,0.011,-0.247,-0.056,0.170
4,-0.0007,0.0034,0.0077,-0.27,0.89,-54.33,0.008,0.131,-0.002,0.054
4,0.0012,0.0011,0.0079,-0.27,0.87,-54.28,0.008,-0.223,-0.201,-0.128
4,0.0016,0.0011,0.0008,-0.28,0.87,-54.23,0.008,-0.179,0.155,-0.135
4,0.0018,0.0012,0.0012,-0.28,0.87,-54.17,0.008,-0.107,-0.046,-0.244
4,0.0065,0.0045,0.0014,-0.32,0.87,-54.12,0.008,-0.445,0.116,0.130
4,0.0039,0.0007,0.0015,-0.29,0.85,-54.07,0.008,-0.130,-0.003,-0.127
4,0.0010,0.0067,0.0014,-0.30,0.91,-54.02,0.011,0.077,0.028,-0.107
4,0.0034,-0.0035,0.0016,-0.27,0.83,-53.96,0.011,-0.103,-0.158,0.067
4,0.0029,-0.0023,0.0033,-0.27,0.84,-53.91,0.011,-0.211,-0.072,-0.053
4,0.0026,0.0008,0.0034,-0.28,0.86,-53.86,0.011,0.065,-0.118,0.198
4,0.0039,0.0016,0.0036,-0.29,0.87,-53.81,0.009,-0.163,0.318,0.105
4,0.0033,0.0027,0.0037,-0.29,0.88,-53.76,0.009,-0.173,-0.134,-0.066
4,0.0037,0.0027,0.0003,-0.29,0.87,-53.71,0.009,-0.219,0.155,-0.158
4,0.0295,0.0118,0.0004,-0.50,0.81,-53.66,0.009,-0.036,-0.071,-0.073
4,0.0316,0.0154,0.0004,-0.52,0.82,-53.61,0.009,0.068,0.169,-0.246
4,0.0252,0.0173,0.0010,-0.49,0.86,-53.56,0.009,-0.164,-0.132,0.076
4,0.0281,0.0176,0.0012,-0.50,0.85,-53.51,0.010,-0.007,-0.053,0.034
4,0.0119,-0.0071,0.0032,-0.28,0.78,-53.45,0.010,-0.233,-0.062,-0.170
4,0.0208,0.0015,0.0023,-0.38,0.79,-53.40,0.010,-0.122,-0.121,0.336
4,0.0160,-0.0032,0.0024,-0.32,0.79,-53.35,0.010,-0.127,0.054,0.099
4,0.0138,-0.0106,0.0025,-0.27,0.75,-53.30,0.017,-0.169,-0.011,-0.315
4,0.0178,-0.0053,0.0027,-0.32,0.77,-53.25,0.017,-0.047,-0.023,0.039
4,0.0071,-0.0093,0.0172,-0.23,0.80,-53.19,0.017,-0.105,-0.139,-0.229
4,0.0059,-0.0095,0.0174,-0.22,0.80,-53.14,0.017,-0.395,0.162,-0.127
4,0.0122,-0.0013,0.0178,-0.30,0.83,-53.09,0.017,-0.136,0.153,-0.138
4,0.0144,-0.0006,0.0181,-0.31,0.82,-53.04,0.017,0.159,0.317,-0.115
4,0.0111,-0.0028,0.0183,-0.28,0.82,-52.99,0.012,-0.169,-0.242,-0.269
4,0.0141,-0.0033,0.0185,-0.30,0.81,-52.94,0.012,-0.217,-0.144,0.150
4,0.0145,-0.0035,0.0136,-0.30,0.81,-52.89,0.012,0.071,0.044,-0.053
4,0.0145,-0.0042,0.0137,-0.30,0.81,-52.84,0.012,0.067,0.328,-0.105
4,0.0062,-0.0081,0.0139,-0.23,0.82,-52.79,0.011,-0.078,-0.007,-0.309
4,0.0135,-0.0020,0.0142,-0.31,0.83,-52.74,0.011,-0.444,-0.270,0.094
5,0.0092,0.0031,0.0144,-0.30,0.88,-52.69,0.011,-0.160,0.053,0.204
5,0.0106,0.0045,0.0084,-0.32,0.88,-52.64,0.011,-0.084,-0.201,0.261
5,0.0042,-0.0092,0.0088,-0.21,0.83,-52.59,0.011,0.136,0.208,-0.309
5,0.0071,-0.0083,0.0090,-0.23,0.82,-52.54,0.011,-0.052,0.033,-0.059
5,0.0038,-0.0077,0.0093,-0.21,0.84,-52.48,0.010,-0.168,0.027,0.309
5,0.0095,-0.0013,0.0096,-0.28,0.85,-52.43,0.010,-0.123,-0.256,0.269
5,0.0062,-0.0050,0.0024,-0.24,0.85,-52.38,0.010,-0.117,0.278,-0.108
5,0.0027,-0.0060,0.0025,-0.22,0.86,-52.33,0.010,-0.344,-0.044,-0.172
5,0.0108,-0.0009,0.0025,-0.29,0.85,-52.28,0.009,0.199,-0.247,-0.085
5,0.0045,-0.0041,0.0026,-0.23,0.86,-52.23,0.009,0.006,0.271,-0.036
5,0.0120,-0.0025,-0.0038,-0.29,0.84,-52.18,0.009,-0.260,0.247,0.090
5,0.0109,-0.0014,-0.0037,-0.29,0.85,-52.13,0.009,0.212,0.185,-0.139
5,0.0095,0.0023,-0.0034,-0.29,0.88,-52.08,0.009,-0.277,-0.135,0.397
5,0.0013,-0.0038,-0.0031,-0.21,0.88,-52.03,0.009,-0.106,-0.000,0.217
5,0.0042,-0.0014,-0.0029,-0.24,0.88,-51.98,0.010,-0.248,-0.133,-0.012
5,0.0041,0.0001,-0.0028,-0.25,0.89,-51.93,0.010,-0.122,-0.009,-0.036
5,0.0067,0.0021,-0.0042,-0.28,0.89,-51.88,0.010,-0.064,-0.036,0.307
5,0.0162,0.0025,-0.0039,-0.34,0.85,-51.83,0.010,-0.292,0.184,0.197
5,0.0114,0.0006,-0.0036,-0.30,0.86,-51.78,0.009,-0.001,0.078,-0.079
5,0.0085,-0.0013,-0.0035,-0.27,0.86,-51.73,0.009,0.021,0.086,0.275
5,0.0060,0.0000,-0.0060,-0.26,0.88,-51.68,0.009,-0.221,0.059,0.117
5,0.0014,-0.0048,-0.0057,-0.20,0.87,-51.63,0.009,-0.253,-0.094,0.099
5,0.0025,-0.0024,-0.0055,-0.22,0.88,-51.57,0.009,0.029,0.045,-0.118
5,0.0023,0.0033,-0.0055,-0.25,0.92,-51.52,0.009,0.117,-0.103,-0.075
5,0.0082,-0.0021,-0.0053,-0.26,0.85,-51.47,0.016,-0.035,0.217,0.090
5,0.0073,-0.0009,-0.0051,-0.26,0.87,-51.42,0.016,0.179,-0.221,-0.189
5,0.0059,0.0043,0.0096,-0.28,0.90,-51.37,0.016,-0.052,-0.085,-0.149
5,0.0053,0.0011,0.0097,-0.26,0.88,-51.32,0.016,0.024,0.144,-0.036
5,0.0084,0.0009,0.0099,-0.27,0.87,-51.27,0.010,-0.099,0.037,-0.184
5,0.0062,0.0036,0.0102,-0.27,0.90,-51.22,0.010,-0.320,-0.115,-0.015
5,0.0077,0.0017,0.0047,-0.27,0.88,-51.18,0.010,-0.074,0.356,-0.046
5,0.0116,0.0093,0.0047,-0.33,0.91,-51.13,0.010,-0.404,-0.182,0.376
5,-0.0013,-0.0043,0.0054,-0.18,0.89,-51.08,0.010,-0.162,0.072,0.160
5,0.0013,-0.0036,0.0054,-0.20,0.88,-51.03,0.010,-0.150,0.318,-0.133
6,0.0052,-0.0005,0.0053,-0.24,0.88,-50.98,0.011,-0.171,-0.105,-0.044
6,0.0057,0.0062,0.0055,-0.28,0.91,-50.92,0.011,-0.145,0.065,-0.037
6,0.0437,0.0357,0.0024,-0.66,0.90,-50.88,0.011,-0.004,-0.135,-0.089
6,0.0368,0.0331,0.0033,-0.60,0.92,-50.83,0.011,-0.275,0.114,0.024
6,0.0348,0.0343,0.0036,-0.59,0.94,-50.78,0.011,-0.306,-0.157,0.006
6,0.0398,0.0338,0.0036,-0.61,0.91,-50.73,0.011,-0.073,0.385,0.217
6,0.0386,0.0356,0.0021,-0.61,0.92,-50.68,0.011,-0.466,0.058,-0.188
6,0.0387,0.0340,0.0023,-0.60,0.91,-50.63,0.011,-0.149,-0.332,-0.074
6,0.0293,0.0260,0.0036,-0.49,0.91,-50.58,0.011,-0.400,-0.162,0.287
6,0.0311,0.0216,0.0039,-0.48,0.87,-50.53,0.011,-0.114,0.069,0.184
6,0.0341,0.0299,0.0038,-0.54,0.91,-50.48,0.011,-0.262,-0.276,-0.085
6,0.0417,0.0317,0.0034,-0.59,0.88,-50.43,0.011,-0.112,0.111,-0.218
6,0.0421,0.0279,0.0022,-0.57,0.85,-50.38,0.011,-0.183,-0.213,0.094
6,0.0356,0.0256,0.0029,-0.51,0.88,-50.33,0.011,-0.378,0.038,0.052
6,0.0147,0.0202,0.0044,-0.35,0.95,-50.29,0.015,-0.094,0.105,-0.164
6,0.0148,0.0207,0.0046,-0.35,0.95,-50.24,0.015,0.055,-0.316,0.010
6,0.0115,0.0162,0.0117,-0.30,0.93,-50.19,0.015,-0.114,0.163,-0.013
6,0.0117,0.0163,0.0118,-0.30,0.93,-50.14,0.015,-0.214,-0.184,0.252
6,0.0104,0.0164,0.0120,-0.30,0.94,-50.09,0.015,-0.239,-0.355,0.106
6,0.0105,0.0167,0.0123,-0.30,0.94,-50.05,0.015,-0.274,0.563,-0.136
6,0.0108,0.0168,0.0126,-0.30,0.94,-50.00,0.009,-0.012,-0.009,0.055
6,0.0067,0.0074,0.0132,-0.23,0.91,-49.95,0.009,0.027,0.193,-0.010
6,0.0236,0.0262,0.0017,-0.43,0.93,-49.90,0.009,-0.107,-0.267,-0.021
6,0.0134,0.0154,0.0024,-0.31,0.92,-49.85,0.009,0.008,-0.302,0.070
6,0.0089,0.0114,0.0028,-0.26,0.92,-49.80,0.010,-0.149,0.212,-0.185
6,0.0063,0.0136,0.0029,-0.25,0.94,-49.76,0.010,0.134,0.070,0.053
6,0.0161,0.0146,-0.0013,-0.32,0.90,-49.71,0.010,-0.100,0.254,0.414
6,0.0088,0.0084,-0.0008,-0.24,0.90,-49.66,0.010,-0.073,-0.040,0.038
6,0.0071,0.0098,-0.0007,-0.23,0.92,-49.61,0.010,-0.285,-0.032,0.159
6,0.0141,0.0138,-0.0007,-0.30,0.90,-49.56,0.010,-0.139,-0.082,0.018
6,0.0161,0.0120,-0.0005,-0.30,0.88,-49.52,0.009,-0.239,0.143,0.203
6,-0.0009,-0.0041,0.0003,-0.11,0.87,-49.47,0.009,0.096,-0.103,-0.189
6,-0.0052,-0.0081,-0.0049,-0.07,0.88,-49.42,0.009,-0.131,0.105,0.011
7,0.0016,0.0008,-0.0044,-0.16,0.89,-49.37,0.009,-0.254,-0.119,0.182
7,0.0024,-0.0003,-0.0043,-0.16,0.89,-49.32,0.009,-0.324,-0.094,-0.064
7,0.0001,0.0023,-0.0040,-0.16,0.91,-49.27,0.009,0.111,0.072,-0.357
7,0.0007,0.0011,-0.0063,-0.16,0.90,-49.22,0.009,0.006,-0.022,0.044
7,0.0036,-0.0027,-0.0061,-0.17,0.86,-49.17,0.009,-0.321,0.109,0.229
7,0.0007,0.0024,-0.0060,-0.18,0.91,-49.13,0.009,0.050,-0.102,-0.123
7,-0.0034,-0.0016,-0.0058,-0.13,0.91,-49.08,0.009,0.076,0.032,-0.120
7,-0.0027,0.0047,-0.0057,-0.17,0.95,-49.03,0.013,-0.422,0.138,0.120
7,-0.0003,0.0018,-0.0057,-0.17,0.92,-48.98,0.013,-0.163,0.027,0.209
7,0.0082,0.0029,0.0025,-0.23,0.88,-48.94,0.013,-0.244,0.031,-0.020
7,0.0054,0.0003,0.0028,-0.20,0.88,-48.89,0.013,-0.409,-0.158,-0.185
7,0.0013,0.0012,0.0032,-0.18,0.90,-48.84,0.010,-0.195,0.163,-0.416
7,0.0012,-0.0006,0.0035,-0.17,0.89,-48.79,0.010,-0.321,0.049,0.102
7,0.0020,-0.0016,0.0015,-0.18,0.89,-48.75,0.010,0.053,0.182,0.073
7,-0.0019,-0.0111,0.0015,-0.11,0.85,-48.70,0.010,-0.208,-0.131,-0.113
7,-0.0002,0.0001,0.0015,-0.18,0.91,-48.65,0.010,-0.325,0.102,-0.230
7,0.0011,0.0010,0.0015,-0.19,0.90,-48.60,0.010,-0.037,0.057,0.341
7,0.0074,0.0062,0.0013,-0.25,0.90,-48.56,0.011,-0.585,0.322,0.409
7,0.0044,-0.0012,0.0016,-0.19,0.87,-48.51,0.011,-0.131,0.085,-0.145
7,0.0009,-0.0090,0.0023,-0.13,0.85,-48.46,0.011,0.047,-0.065,0.002
7,0.0025,-0.0000,0.0026,-0.19,0.89,-48.41,0.011,-0.265,0.023,-0.148
7,0.0026,-0.0002,0.0027,-0.20,0.89,-48.37,0.013,-0.119,0.120,0.058
7,0.0018,-0.0009,0.0026,-0.19,0.89,-48.32,0.013,-0.098,-0.240,-0.332
7,-0.0091,-0.0137,0.0072,-0.06,0.87,-48.27,0.013,0.188,-0.158,0.354
7,-0.0029,-0.0128,0.0076,-0.11,0.85,-48.23,0.013,-0.219,0.036,-0.079
7,-0.0074,-0.0057,0.0081,-0.12,0.92,-48.18,0.013,-0.356,-0.085,0.030
7,0.0018,0.0024,0.0084,-0.22,0.92,-48.13,0.013,0.063,0.004,0.094
7,0.0036,0.0038,0.0087,-0.24,0.91,-48.08,0.011,-0.046,0.025,-0.211
7,0.0004,-0.0117,0.0092,-0.14,0.84,-48.04,0.011,0.107,-0.002,0.158
7,0.0024,-0.0097,0.0063,-0.16,0.84,-47.99,0.011,-0.172,-0.009,0.040
7,0.0062,0.0051,0.0067,-0.26,0.91,-47.94,0.011,0.089,-0.083,-0.168
7,-0.0033,-0.0050,0.0074,-0.15,0.90,-47.89,0.012,-0.538,0.034,0.223
7,0.0048,0.0021,0.0076,-0.24,0.90,-47.85,0.012,-0.167,0.012,-0.192
7,0.0125,0.0104,0.0070,-0.33,0.91,-47.80,0.012,-0.219,0.118,0.211
7,0.0128,0.0107,0.0072,-0.33,0.91,-47.76,0.012,-0.150,0.121,-0.095
8,0.0150,0.0125,0.0074,-0.35,0.91,-47.71,0.012,-0.337,0.043,0.056
8,0.0133,0.0135,0.0078,-0.35,0.93,-47.66,0.012,-0.198,0.200,-0.250
8,0.0136,0.0090,0.0081,-0.32,0.90,-47.62,0.011,-0.095,0.023,-0.112
8,0.0128,0.0158,0.0083,-0.35,0.94,-47.57,0.011,-0.081,-0.133,0.209
8,0.0127,0.0032,0.0057,-0.28,0.87,-47.52,0.011,-0.199,0.035,0.056
8,0.0069,0.0041,0.0061,-0.25,0.90,-47.48,0.011,-0.252,0.110,-0.087
8,0.0077,0.0030,0.0061,-0.25,0.90,-47.43,0.009,-0.057,-0.066,-0.065
8,0.0118,0.0065,0.0062,-0.29,0.90,-47.38,0.009,-0.268,0.125,0.527
8,0.0108,0.0055,-0.0006,-0.28,0.90,-47.34,0.009,-0.287,0.170,0.100
8,0.0079,0.0031,-0.0003,-0.25,0.90,-47.29,0.009,-0.268,-0.290,0.144
8,0.0096,0.0061,-0.0002,-0.27,0.91,-47.24,0.009,-0.167,0.150,-0.038
8,0.0061,0.0027,-0.0001,-0.23,0.91,-47.20,0.009,-0.124,-0.170,0.117
8,0.0090,0.0055,0.0000,-0.27,0.91,-47.15,0.014,-0.158,0.011,0.111
8,0.0118,0.0037,0.0001,-0.28,0.88,-47.11,0.014,0.122,0.124,-0.197
8,0.0134,0.0084,0.0070,-0.31,0.90,-47.06,0.014,0.021,-0.264,0.125
8,0.0055,0.0011,0.0074,-0.22,0.90,-47.02,0.014,-0.136,0.066,-0.067
8,0.0078,0.0036,0.0075,-0.25,0.91,-46.97,0.010,-0.276,0.228,0.010
8,0.0080,0.0035,0.0077,-0.25,0.91,-46.92,0.010,-0.268,0.105,0.135
8,0.0121,0.0073,0.0021,-0.29,0.91,-46.88,0.010,0.230,0.105,0.084
8,0.0009,-0.0064,0.0026,-0.15,0.89,-46.83,0.010,-0.219,-0.228,0.300
8,0.0054,-0.0003,0.0027,-0.21,0.90,-46.79,0.010,0.180,0.046,-0.320
8,0.0069,0.0047,0.0028,-0.25,0.92,-46.74,0.010,0.051,0.141,0.085
8,0.0102,0.0078,0.0029,-0.28,0.92,-46.69,0.012,-0.193,-0.153,-0.055
8,0.0094,0.0101,0.0030,-0.29,0.93,-46.65,0.012,-0.145,-0.205,-0.131
8,0.0134,0.0104,0.0038,-0.31,0.91,-46.60,0.012,-0.045,0.115,-0.165
8,0.0093,0.0050,0.0042,-0.26,0.91,-46.56,0.012,-0.263,-0.000,-0.050
8,0.0089,0.0066,0.0042,-0.26,0.92,-46.51,0.015,-0.200,-0.242,-0.125
8,0.0025,0.0007,0.0045,-0.20,0.92,-46.47,0.015,-0.133,0.153,0.262
8,0.0099,0.0064,0.0116,-0.27,0.91,-46.42,0.015,-0.276,-0.027,0.050
8,0.0087,0.0069,0.0118,-0.27,0.92,-46.38,0.015,-0.129,0.106,-0.055
8,0.0060,0.0042,0.0120,-0.24,0.92,-46.33,0.015,-0.142,-0.006,-0.232
8,0.0066,0.0064,0.0123,-0.25,0.93,-46.29,0.015,-0.190,0.076,-0.082
8,0.0056,0.0038,0.0126,-0.23,0.92,-46.24,0.011,-0.213,0.135,0.107
8,0.0063,0.0027,0.0128,-0.23,0.91,-46.20,0.011,-0.008,0.204,-0.082
9,0.0077,0.0056,0.0063,-0.26,0.92,-46.16,0.011,0.070,-0.248,-0.164
9,0.0009,-0.0012,0.0068,-0.18,0.92,-46.11,0.011,-0.306,-0.125,0.146
9,0.0073,0.0051,0.0072,-0.26,0.92,-46.07,0.009,-0.453,-0.389,-0.175
9,0.0012,-0.0021,0.0075,-0.18,0.91,-46.02,0.009,-0.051,-0.146,0.207
9,0.0044,0.0012,-0.0013,-0.22,0.91,-45.98,0.009,-0.069,-0.008,-0.200
9,0.0066,0.0003,-0.0011,-0.23,0.89,-45.93,0.009,-0.133,0.053,0.040
9,0.0040,0.0027,-0.0008,-0.23,0.92,-45.88,0.009,-0.071,0.021,0.094
9,0.0052,0.0042,-0.0007,-0.25,0.92,-45.84,0.009,-0.201,-0.250,-0.001
9,0.0002,-0.0021,-0.0002,-0.18,0.91,-45.79,0.012,-0.165,0.030,0.194
9,0.0066,0.0044,0.0001,-0.26,0.91,-45.75,0.012,0.082,-0.071,-0.110
9,-0.0048,-0.0082,0.0018,-0.12,0.90,-45.71,0.012,-0.184,0.112,-0.095
9,0.0004,-0.0032,0.0022,-0.18,0.90,-45.66,0.012,-0.006,0.063,0.042
9,0.0037,-0.0001,0.0024,-0.22,0.90,-45.62,0.010,-0.137,0.093,-0.023
9,0.0069,0.0045,0.0024,-0.27,0.91,-45.57,0.010,-0.027,0.096,0.267
9,0.0036,0.0028,-0.0013,-0.24,0.92,-45.53,0.010,-0.089,0.229,0.359
9,0.0060,0.0051,-0.0011,-0.26,0.92,-45.48,0.010,0.044,0.307,-0.024
9,-0.0004,-0.0032,-0.0009,-0.18,0.90,-45.44,0.010,0.006,-0.030,0.181
9,0.0060,0.0046,-0.0005,-0.26,0.91,-45.39,0.010,0.211,0.197,-0.054
9,0.0052,-0.0010,-0.0002,-0.22,0.88,-45.35,0.013,0.039,-0.047,-0.248
9,0.0068,0.0037,-0.0003,-0.26,0.90,-45.31,0.013,-0.226,-0.042,0.020
10,0.0034,-0.0026,0.0041,-0.20,0.88,-45.26,0.013,-0.176,-0.239,0.396
10,0.0004,-0.0023,0.0043,-0.18,0.90,-45.22,0.013,-0.183,-0.343,-0.125
10,0.0037,0.0011,0.0047,-0.22,0.90,-45.17,0.011,0.155,-0.014,-0.160
10,0.0052,-0.0005,0.0049,-0.22,0.89,-45.13,0.011,-0.218,-0.259,0.012
10,0.0066,0.0044,0.0024,-0.26,0.91,-45.08,0.011,-0.293,-0.424,0.092
10,0.0024,-0.0060,0.0026,-0.17,0.87,-45.04,0.011,-0.074,-0.051,-0.039
10,0.0040,-0.0026,0.0029,-0.20,0.88,-45.00,0.011,-0.174,-0.189,0.049
10,0.0044,-0.0026,0.0031,-0.21,0.89,-44.95,0.011,-0.045,-0.019,-0.066
10,0.0068,0.0050,0.0032,-0.27,0.92,-44.91,0.010,-0.072,-0.081,-0.307
10,0.0071,0.0051,0.0034,-0.27,0.92,-44.86,0.010,-0.244,0.111,0.073
10,0.0033,-0.0075,-0.0002,-0.17,0.87,-44.82,0.010,-0.143,-0.122,0.125
10,-0.0003,-0.0034,0.0001,-0.17,0.91,-44.78,0.010,-0.148,0.063,0.049
10,0.0016,0.0023,0.0004,-0.22,0.93,-44.73,0.014,-0.019,0.086,-0.042
10,0.0060,0.0067,0.0005,-0.27,0.93,-44.69,0.014,-0.081,-0.038,0.123
10,0.0043,-0.0004,0.0074,-0.21,0.90,-44.65,0.014,0.108,0.074,-0.011
11,0.0112,0.0118,0.0072,-0.32,0.92,-44.60,0.014,0.039,-0.135,-0.290
11,-0.0008,-0.0004,0.0078,-0.19,0.92,-44.56,0.014,-0.358,0.302,0.373
11,0.0060,0.0050,0.0081,-0.26,0.91,-44.51,0.014,-0.013,0.017,-0.014
11,0.0059,0.0014,0.0084,-0.24,0.89,-44.47,0.012,0.010,0.169,-0.113
11,0.0108,0.0031,0.0085,-0.27,0.87,-44.43,0.012,-0.133,0.019,0.141
11,0.0006,0.0028,0.0069,-0.21,0.93,-44.38,0.012,-0.368,0.224,0.036
11,0.0049,0.0002,0.0071,-0.22,0.89,-44.34,0.012,-0.239,0.020,-0.070
11,0.0050,0.0003,0.0073,-0.22,0.89,-44.30,0.012,-0.390,-0.307,0.195
11,0.0048,0.0053,0.0076,-0.25,0.92,-44.25,0.012,-0.042,-0.004,-0.126
11,-0.0012,-0.0010,0.0060,-0.19,0.91,-44.21,0.012,-0.134,0.048,0.308
11,-0.0010,-0.0009,0.0061,-0.19,0.92,-44.17,0.012,-0.100,0.015,-0.071
11,0.0000,0.0000,0.0000,0.00,0.00,0.00,0.012,0.151,0.040,-0.291
11,0.0017,0.0031,0.0002,-0.00,0.00,0.00,0.012,-0.127,-0.224,0.336
11,0.0036,0.0010,0.0005,0.01,-0.00,0.00,0.011,-0.304,-0.224,-0.069
11,0.0063,0.0048,0.0008,-0.04,-0.01,0.00,0.011,-0.179,0.028,0.087
12,0.0084,0.0001,0.0011,0.02,-0.03,0.00,0.011,-0.122,0.102,0.093
12,0.0044,-0.0091,0.0014,0.19,0.08,0.00,0.011,-0.146,0.338,-0.080
12,0.0043,-0.0196,0.0015,0.40,0.12,0.00,0.013,0.002,0.234,0.157
12,0.0067,-0.0248,0.0015,0.50,0.09,0.00,0.013,0.105,-0.011,0.021
12,0.0005,-0.0199,0.0030,0.34,0.29,0.00,0.013,-0.002,0.178,0.129
12,0.0121,-0.0194,0.0032,0.30,0.00,0.00,0.013,-0.214,-0.094,-0.062
12,0.0064,-0.0123,0.0035,0.08,0.20,0.01,0.013,-0.005,-0.094,-0.075
12,0.0019,-0.0184,0.0034,0.24,0.36,0.01,0.013,-0.093,0.093,-0.113
12,0.0095,-0.0105,0.0036,0.00,0.17,0.01,0.009,-0.084,0.018,0.196
12,0.0102,0.0201,0.0037,-0.86,0.19,0.01,0.009,-0.063,-0.015,0.158
12,0.0053,0.0669,-0.0034,-2.12,0.37,0.02,0.009,-0.251,0.227,0.139
12,-0.0052,0.0736,-0.0039,-2.21,0.68,0.03,0.009,-0.244,-0.048,0.022
12,0.0032,0.0703,-0.0030,-2.03,0.47,0.02,0.012,-0.034,-0.103,-0.140
12,-0.0138,0.0516,-0.0008,-1.45,0.93,0.02,0.012,-0.075,0.052,-0.137
12,-0.0009,0.0649,0.0004,-1.73,0.59,0.02,0.012,0.030,0.451,-0.214
12,-0.0003,0.0656,0.0005,-1.67,0.59,0.02,0.012,0.126,0.265,-0.336
12,-0.0015,0.0779,0.0001,-1.91,0.64,0.02,0.012,-0.096,0.094,-0.095
12,-0.0028,0.0774,0.0009,-1.82,0.68,0.02,0.012,-0.060,-0.243,-0.216
12,-0.0021,0.0769,0.0015,-1.74,0.67,0.02,0.014,-0.193,-0.189,0.227
12,-0.0034,0.0663,0.0031,-1.43,0.71,0.01,0.014,-0.043,-0.169,0.031
12,-0.0048,0.0725,0.0086,-1.51,0.75,0.01,0.014,0.009,-0.031,0.111
12,0.0001,0.0661,0.0095,-1.32,0.66,0.01,0.014,-0.176,0.112,-0.123
12,0.0006,0.0539,0.0105,-1.01,0.65,0.01,0.011,-0.308,0.073,0.077
13,0.0013,0.0565,0.0107,-1.03,0.66,0.01,0.011,-0.236,-0.007,0.007
13,0.0019,0.0576,0.0053,-1.03,0.65,0.01,0.011,-0.136,-0.080,0.032
13,0.0479,0.0552,0.0049,-0.96,-0.23,0.01,0.011,-0.034,-0.225,-0.187
13,0.0366,0.0424,0.0065,-0.69,0.02,0.01,0.011,-0.079,-0.147,-0.360
13,0.0367,0.0432,0.0067,-0.69,0.05,0.01,0.011,-0.067,-0.177,-0.155
13,0.0325,0.0402,0.0072,-0.61,0.15,0.01,0.008,0.052,-0.023,-0.082
13,0.0328,0.0333,0.0076,-0.47,0.17,0.01,0.008,0.022,0.226,-0.041
13,0.0427,0.0438,-0.0049,-0.64,0.02,0.01,0.008,-0.168,0.051,0.104
13,0.0292,0.0522,-0.0041,-0.77,0.29,0.00,0.008,-0.153,-0.055,0.161
13,0.0353,0.0242,-0.0029,-0.27,0.20,0.00,0.011,0.217,0.138,0.092
13,0.0260,0.0261,-0.0022,-0.30,0.38,0.00,0.011,-0.185,0.013,0.078
13,0.0390,0.0023,-0.0020,0.09,0.18,0.00,0.011,-0.062,0.046,0.031
13,0.0296,-0.0035,-0.0016,0.18,0.35,-0.00,0.011,-0.250,0.098,-0.036
13,0.0337,0.0070,-0.0012,0.01,0.30,-0.00,0.011,-0.027,0.179,0.043
13,0.0322,-0.0043,-0.0014,0.18,0.35,-0.00,0.011,-0.067,-0.229,0.108
13,0.0272,0.0008,-0.0008,0.09,0.44,-0.00,0.011,-0.085,-0.280,-0.011
13,0.0377,-0.0080,-0.0009,0.22,0.30,-0.00,0.011,0.179,0.082,-0.209
13,0.0325,-0.0061,-0.0001,0.18,0.39,-0.00,0.011,-0.551,-0.042,-0.016
13,0.0127,-0.0061,0.0004,0.17,0.69,0.00,0.011,-0.207,0.121,0.144
13,0.0271,-0.0010,0.0008,0.09,0.49,0.00,0.015,-0.332,-0.196,-0.066
13,0.0260,0.0052,0.0009,-0.00,0.52,0.00,0.015,0.135,-0.036,0.270
13,0.0217,-0.0081,0.0096,0.18,0.59,0.00,0.015,-0.031,0.323,0.219
13,0.0223,0.0045,0.0101,-0.00,0.59,0.01,0.015,-0.275,-0.361,-0.088
13,0.0230,0.0044,0.0105,-0.00,0.59,0.01,0.015,0.053,0.349,-0.051
22,0.0217,-0.0097,0.0106,0.18,0.62,0.01,0.015,-0.038,0.248,0.038
32,0.0191,-0.0095,0.0108,0.17,0.66,0.01,0.012,0.009,-0.034,-0.053
42,0.0197,-0.0158,0.0108,0.24,0.66,0.00,0.012,-0.118,0.015,0.249
52,0.0167,-0.0105,0.0081,0.16,0.69,0.00,0.012,-0.393,-0.152,-0.134
61,0.0126,-0.0023,0.0083,0.06,0.75,0.01,0.012,-0.021,-0.036,-0.097
72,0.0120,-0.0070,0.0086,0.11,0.76,0.01,0.011,0.017,-0.002,-0.061
82,0.0191,-0.0070,0.0089,0.10,0.67,0.01,0.011,-0.197,0.381,0.088
92,0.0167,-0.0025,0.0044,0.04,0.71,0.01,0.011,-0.102,-0.367,-0.095
102,0.0129,-0.0011,0.0046,0.02,0.76,0.01,0.011,-0.426,0.213,0.112
111,0.0094,-0.0013,0.0048,0.02,0.80,0.01,0.011,-0.346,0.009,0.201
121,0.0096,-0.0016,0.0049,0.02,0.80,0.01,0.011,-0.267,0.163,0.173
132,0.0153,0.0031,0.0049,-0.04,0.74,0.01,0.013,-0.404,-0.076,0.224
141,0.0100,-0.0078,0.0052,0.08,0.80,0.01,0.013,-0.113,0.089,0.300
151,0.0126,0.0029,0.0063,-0.05,0.77,0.01,0.013,-0.022,0.021,-0.091
161,0.0181,0.0025,0.0067,-0.05,0.72,0.01,0.013,-0.364,0.036,-0.060
171,0.0086,-0.0023,0.0073,-0.00,0.83,0.01,0.012,-0.123,-0.119,-0.077
181,0.0069,-0.0054,0.0075,0.03,0.85,0.01,0.012,-0.225,0.024,-0.164
191,0.0070,-0.0057,0.0052,0.02,0.85,0.01,0.012,-0.342,0.286,0.249
201,0.0202,-0.0099,0.0053,0.07,0.71,0.01,0.012,-0.259,-0.116,-0.045
212,0.0089,-0.0093,0.0057,0.06,0.83,0.01,0.012,-0.355,0.063,-0.023
222,0.0057,-0.0089,0.0059,0.05,0.87,0.02,0.012,-0.067,0.175,-0.019
232,0.0054,-0.0028,0.0059,-0.02,0.87,0.02,0.010,-0.261,0.144,-0.008
241,0.0081,-0.0028,0.0059,-0.02,0.84,0.02,0.010,-0.187,-0.132,-0.025
251,0.0118,-0.0028,-0.0006,-0.03,0.80,0.02,0.010,-0.352,-0.075,0.191
261,0.0055,-0.0085,-0.0003,0.02,0.87,0.02,0.010,-0.002,0.163,-0.107
271,0.0066,0.0031,0.0000,-0.09,0.86,0.02,0.014,-0.297,0.019,-0.230
281,0.0091,0.0013,0.0002,-0.08,0.83,0.02,0.014,-0.269,-0.539,0.150
292,0.0130,0.0066,0.0054,-0.13,0.80,0.02,0.014,-0.250,-0.129,-0.355
301,0.0139,0.0117,0.0056,-0.19,0.79,0.03,0.014,-0.279,0.015,-0.048
311,0.0120,-0.0093,0.0063,0.01,0.81,0.02,0.014,-0.387,0.116,0.180
322,0.0063,0.0016,0.0066,-0.10,0.87,0.02,0.014,-0.175,-0.042,-0.059
331,0.0049,-0.0090,0.0068,0.00,0.88,0.02,0.010,-0.326,0.112,0.069
341,0.0061,-0.0006,0.0071,-0.08,0.87,0.03,0.010,0.082,-0.220,-0.123
351,0.0062,-0.0083,0.0002,-0.01,0.87,0.02,0.010,-0.231,0.140,0.172
361,0.0059,0.0022,0.0005,-0.11,0.87,0.03,0.010,0.127,0.137,-0.216
372,0.0055,-0.0003,0.0005,-0.09,0.88,0.03,0.010,-0.017,0.136,-0.297
382,0.0040,0.0035,0.0005,-0.13,0.89,0.03,0.010,-0.176,-0.238,-0.225
392,0.0076,-0.0019,-0.0034,-0.08,0.86,0.03,0.010,-0.372,-0.241,0.386
401,0.0070,-0.0083,-0.0031,-0.03,0.86,0.02,0.010,-0.404,0.013,0.067
411,0.0055,-0.0080,-0.0027,-0.03,0.88,0.03,0.010,-0.057,0.060,-0.017
422,0.0028,0.0022,-0.0021,-0.13,0.90,0.03,0.010,-0.176,-0.021,0.058
431,0.0015,0.0020,-0.0016,-0.13,0.91,0.03,0.014,0.029,-0.059,-0.007
441,0.0014,-0.0092,-0.0013,-0.03,0.91,0.03,0.014,-0.178,0.172,-0.063
451,0.0014,-0.0124,0.0052,-0.00,0.91,0.02,0.014,-0.328,0.063,-0.154
461,0.0063,0.0029,0.0055,-0.14,0.87,0.03,0.014,-0.097,-0.093,-0.039
472,0.0036,-0.0058,0.0056,-0.06,0.89,0.02,0.012,0.027,-0.042,0.067
481,0.0035,-0.0067,0.0057,-0.06,0.89,0.02,0.012,0.109,-0.043,0.142
491,0.0023,-0.0063,0.0049,-0.06,0.90,0.02,0.012,-0.024,-0.026,-0.012
501,0.0022,-0.0024,0.0053,-0.10,0.90,0.02,0.012,-0.119,0.298,-0.337
512,0.0047,0.0036,0.0054,-0.15,0.88,0.03,0.012,-0.026,0.020,0.014
522,0.0069,0.0034,0.0056,-0.15,0.86,0.02,0.012,-0.034,0.034,0.082
531,0.0053,-0.0028,0.0058,-0.10,0.88,0.02,0.011,-0.168,0.001,-0.235
541,0.0038,-0.0088,0.0060,-0.05,0.89,0.02,0.011,0.005,-0.148,-0.127
551,0.0016,-0.0072,0.0025,-0.06,0.91,0.02,0.011,-0.166,0.084,0.134
561,0.0016,-0.0011,0.0026,-0.12,0.91,0.02,0.011,-0.150,-0.130,0.114
571,0.0015,-0.0058,0.0027,-0.08,0.91,0.02,0.012,0.161,-0.024,0.099
582,0.0013,-0.0033,0.0027,-0.10,0.91,0.02,0.012,0.167,-0.099,-0.217
592,-0.0012,0.0025,0.0027,-0.16,0.93,0.02,0.012,-0.211,0.146,-0.010
602,0.0012,0.0035,0.0028,-0.17,0.91,0.02,0.012,-0.279,0.168,0.140
612,0.0010,-0.0025,0.0029,-0.12,0.91,0.02,0.012,-0.095,-0.289,-0.156
622,0.0032,-0.0060,0.0032,-0.09,0.89,0.02,0.012,-0.398,0.117,0.128
632,-0.0014,0.0013,0.0037,-0.15,0.93,0.02,0.012,-0.066,0.065,0.186
641,0.0034,-0.0001,0.0039,-0.14,0.89,0.02,0.012,-0.500,-0.160,0.072
651,0.0032,-0.0060,0.0035,-0.10,0.89,0.02,0.012,-0.088,-0.083,0.134
661,0.0075,-0.0011,0.0037,-0.14,0.85,0.02,0.012,-0.049,0.195,0.248
671,0.0077,-0.0011,0.0037,-0.14,0.85,0.02,0.011,-0.131,-0.356,-0.042
681,-0.0028,-0.0010,0.0039,-0.15,0.94,0.02,0.011,0.184,0.153,-0.227
691,0.0024,-0.0012,0.0009,-0.15,0.90,0.02,0.011,-0.090,0.141,-0.230
702,0.0061,0.0038,0.0010,-0.19,0.87,0.02,0.011,-0.139,0.110,-0.196
712,0.0021,0.0040,0.0013,-0.19,0.90,0.02,0.011,0.040,-0.144,-0.017
721,0.0020,-0.0058,0.0016,-0.11,0.90,0.01,0.011,-0.174,0.050,-0.127
731,0.0019,-0.0018,0.0018,-0.14,0.90,0.01,0.011,-0.073,-0.080,0.041
741,0.0055,-0.0005,0.0021,-0.15,0.87,0.01,0.011,-0.182,-0.082,-0.099
751,0.0053,0.0249,-0.0000,-0.36,0.87,0.02,0.011,0.065,0.183,-0.109
761,0.0014,0.0116,0.0006,-0.25,0.90,0.02,0.011,-0.325,-0.234,0.033
771,0.0048,0.0370,-0.0001,-0.46,0.87,0.02,0.011,-0.119,-0.156,0.051
781,0.0092,0.0393,-0.0005,-0.47,0.83,0.02,0.011,-0.271,-0.047,0.029
791,0.0066,0.0330,-0.0011,-0.41,0.86,0.02,0.011,-0.145,-0.035,-0.051
801,0.0053,0.0361,-0.0011,-0.44,0.87,0.02,0.011,-0.048,0.148,-0.026
811,0.0075,0.0344,-0.0008,-0.42,0.85,0.02,0.011,-0.125,-0.180,-0.025
822,0.0038,0.0283,-0.0001,-0.37,0.88,0.02,0.011,-0.085,-0.048,0.112
831,0.0084,0.0248,0.0003,-0.34,0.85,0.02,0.010,-0.177,0.076,-0.130
841,0.0048,0.0204,0.0005,-0.30,0.88,0.01,0.010,-0.047,-0.134,-0.045
851,0.0127,0.0197,-0.0029,-0.29,0.81,0.01,0.010,0.120,0.199,-0.003
861,0.0063,0.0292,-0.0030,-0.37,0.87,0.02,0.010,-0.451,0.223,-0.079
871,0.0070,0.0281,-0.0030,-0.36,0.86,0.02,0.011,-0.273,-0.025,0.068
881,0.0058,0.0245,-0.0027,-0.33,0.87,0.02,0.011,-0.223,0.113,0.208
892,0.0056,0.0211,-0.0021,-0.30,0.87,0.02,0.011,-0.041,0.086,-0.371
901,0.0076,0.0202,-0.0020,-0.29,0.85,0.02,0.011,-0.177,-0.260,-0.210
911,0.0039,0.0238,-0.0018,-0.32,0.88,0.02,0.011,-0.134,0.090,-0.066
921,0.0064,0.0183,-0.0014,-0.27,0.86,0.01,0.011,-0.430,-0.050,0.221
931,0.0052,0.0166,-0.0013,-0.26,0.88,0.01,0.011,0.193,-0.010,-0.193
941,0.0096,0.0115,-0.0011,-0.21,0.84,0.01,0.011,-0.439,0.290,0.020
951,0.0057,0.0279,-0.0008,-0.35,0.87,0.02,0.011,-0.242,-0.110,0.209
961,-0.0001,0.0033,0.0004,-0.14,0.92,0.01,0.011,-0.128,0.012,-0.045
971,0.0056,0.0042,0.0006,-0.15,0.87,0.01,0.011,-0.296,-0.023,-0.033
981,0.0057,0.0040,0.0006,-0.16,0.87,0.01,0.011,-0.330,0.098,0.142
991,0.0045,0.0039,0.0006,-0.16,0.88,0.01,0.011,0.300,0.194,-0.209
1001,0.0058,-0.0077,0.0008,-0.06,0.87,0.01,0.011,0.018,0.154,-0.294
1011,0.0033,0.0021,0.0011,-0.14,0.89,0.01,0.011,-0.189,0.012,-0.097
1021,0.0032,0.0009,0.0014,-0.13,0.89,0.01,0.011,-0.249,-0.175,0.253
1031,0.0145,0.0044,0.0016,-0.16,0.80,0.01,0.013,-0.125,-0.131,-0.325
1041,0.0024,0.0090,0.0021,-0.20,0.90,0.01,0.013,-0.012,-0.257,-0.117
1051,0.0023,0.0016,0.0063,-0.14,0.90,0.01,0.013,-0.168,0.035,-0.152
1061,0.0059,-0.0078,0.0065,-0.06,0.87,0.01,0.013,-0.643,0.261,0.439
1071,0.0116,-0.0041,0.0068,-0.10,0.83,0.01,0.013,-0.095,-0.046,0.001
1082,0.0077,-0.0087,0.0071,-0.06,0.86,0.01,0.013,-0.133,0.115,0.206
1091,0.0086,0.0042,0.0088,-0.17,0.85,0.01,0.013,-0.311,0.128,-0.046
1101,0.0050,-0.0063,0.0091,-0.09,0.88,0.01,0.013,-0.184,-0.131,-0.140
1111,0.0026,0.0034,0.0094,-0.17,0.90,0.02,0.013,-0.012,0.009,-0.326
1121,0.0013,0.0031,0.0094,-0.17,0.91,0.02,0.013,-0.177,0.250,0.069
1131,0.0002,0.0028,0.0094,-0.17,0.92,0.01,0.011,-0.025,0.232,-0.036
1141,0.0040,0.0334,0.0091,-0.41,0.89,0.02,0.011,0.092,-0.174,0.045
1151,0.0029,0.0693,0.0019,-0.69,0.90,0.02,0.011,-0.185,-0.253,0.263
1161,-0.0019,0.0547,0.0040,-0.57,0.93,0.02,0.011,-0.133,-0.244,0.001
1171,0.0038,0.0685,0.0026,-0.67,0.89,0.02,0.015,0.101,-0.078,-0.071
1181,0.0035,0.0492,0.0055,-0.51,0.89,0.02,0.015,-0.135,-0.127,0.103
1191,0.0008,0.0758,0.0087,-0.72,0.91,0.02,0.015,-0.222,-0.063,0.001
1201,0.0042,0.0611,0.0108,-0.59,0.88,0.02,0.015,-0.129,-0.012,-0.135
1211,-0.0007,0.0699,0.0101,-0.66,0.92,0.02,0.015,-0.071,-0.562,-0.298
1221,-0.0007,0.0626,0.0111,-0.59,0.92,0.02,0.015,-0.067,-0.136,0.231
1231,-0.0007,0.0690,0.0105,-0.64,0.92,0.02,0.013,-0.119,0.050,0.100
1240,-0.0005,0.0773,0.0094,-0.70,0.92,0.02,0.013,-0.122,-0.036,0.148
1251,-0.0050,0.0694,0.0082,-0.63,0.96,0.02,0.013,0.020,0.079,-0.116
1261,-0.0059,0.0653,0.0087,-0.59,0.96,0.02,0.013,-0.210,0.369,0.064
1271,0.0034,0.0669,0.0088,-0.59,0.89,0.02,0.013,0.060,0.396,0.138
1280,-0.0021,0.0707,0.0086,-0.62,0.93,0.02,0.013,-0.304,-0.139,0.062
1290,-0.0063,0.0677,0.0068,-0.59,0.97,0.02,0.013,-0.273,0.331,0.330
1300,0.0005,0.0639,0.0075,-0.55,0.91,0.02,0.013,-0.164,-0.037,0.036
1310,-0.0063,0.0667,0.0072,-0.57,0.96,0.02,0.013,-0.457,0.129,0.202
1321,-0.0059,0.0705,0.0067,-0.59,0.95,0.02,0.013,-0.144,-0.058,0.120
1331,-0.0067,0.0729,0.0069,-0.61,0.96,0.02,0.012,0.073,0.207,-0.313
1341,-0.0074,0.0598,0.0086,-0.49,0.96,0.02,0.012,-0.290,0.380,0.390
1350,0.0020,0.0492,0.0041,-0.41,0.89,0.02,0.012,0.252,-0.027,-0.330
1361,-0.0058,0.0637,0.0035,-0.52,0.95,0.02,0.012,-0.287,-0.106,-0.012
1371,-0.0053,0.0576,0.0044,-0.46,0.95,0.02,0.014,0.038,-0.104,0.018
1381,-0.0050,0.0580,0.0046,-0.46,0.95,0.02,0.014,-0.109,0.032,0.004
1391,-0.0046,0.0587,0.0054,-0.46,0.95,0.02,0.014,0.139,-0.107,-0.175
1400,-0.0042,0.0479,0.0064,-0.37,0.94,0.02,0.014,-0.049,-0.116,0.338
1411,-0.0039,0.0490,0.0063,-0.38,0.94,0.01,0.014,-0.246,-0.238,0.131
1421,-0.0037,0.0513,0.0062,-0.39,0.94,0.01,0.014,-0.096,0.193,0.140
1431,-0.0037,0.0500,0.0064,-0.38,0.94,0.01,0.014,-0.207,-0.071,0.059
1440,0.0056,0.0487,0.0069,-0.37,0.86,0.02,0.014,-0.088,-0.034,0.110
1450,-0.0062,0.0358,0.0073,-0.26,0.96,0.01,0.014,-0.260,-0.042,0.161
1460,-0.0059,0.0397,0.0074,-0.29,0.95,0.01,0.014,0.136,0.141,0.017
1470,-0.0021,0.0366,0.0080,-0.27,0.92,0.01,0.008,-0.365,-0.015,0.013
1481,-0.0040,0.0303,0.0084,-0.21,0.94,0.01,0.008,-0.230,-0.309,-0.060
0,-0.0024,0.0372,-0.0056,-0.28,0.93,0.01,0.008,-0.195,0.093,-0.007
10,-0.0026,0.0372,-0.0055,-0.28,0.93,0.01,0.008,-1.195,-0.022,-0.057
19,-0.0013,0.0305,-0.0053,-0.22,0.92,0.01,0.008,0.043,-0.089,0.148
29,-0.0059,0.0291,-0.0053,-0.21,0.95,0.01,0.008,-0.083,-0.157,0.512
39,-0.0043,0.0231,-0.0050,-0.16,0.94,0.01,0.009,0.281,-0.337,-0.015
49,-0.0033,0.0209,-0.0047,-0.15,0.92,0.02,0.009,0.007,-1.620,-0.017
59,0.0025,0.0352,-0.0111,-0.27,0.86,0.02,0.009,0.969,-0.051,-0.157
69,-0.0050,0.0264,-0.0102,-0.19,0.91,0.02,0.009,0.661,-0.334,-0.881
79,-0.0075,0.0168,-0.0096,-0.12,0.93,0.02,0.013,0.108,0.519,0.272
89,-0.0122,0.0232,-0.0097,-0.16,0.96,0.03,0.013,-1.170,-1.971,-1.287
99,-0.0036,0.0225,-0.0032,-0.16,0.88,0.02,0.013,-1.389,-0.536,-2.284
109,-0.0096,0.0119,-0.0029,-0.08,0.91,0.02,0.013,0.494,-0.581,-3.638
119,-0.0118,0.0197,-0.0026,-0.14,0.93,0.01,0.013,-3.832,0.977,0.260
129,-0.0104,0.0188,-0.0028,-0.14,0.91,-0.01,0.013,-2.330,-3.572,2.595
139,-0.0158,0.0195,-0.0020,-0.14,0.95,-0.04,0.011,4.012,-6.299,0.334
149,-0.0108,0.0234,-0.0019,-0.20,0.89,-0.04,0.011,2.742,-7.881,0.474
159,-0.0134,0.0233,-0.0016,-0.22,0.91,-0.02,0.011,-4.886,-4.065,0.519
169,-0.0206,0.0164,0.0002,-0.14,1.02,-0.02,0.011,-3.939,-11.504,-0.489
179,-0.0223,0.0167,-0.0004,-0.12,1.09,-0.01,0.010,-9.885,-16.298,-2.247
189,-0.0153,0.0200,0.0015,-0.16,1.06,-0.00,0.010,-15.675,-22.046,-1.499
199,-0.0167,0.0461,0.0001,-0.42,1.15,-0.00,0.010,-21.229,-37.393,-3.485
209,-0.0244,0.0504,0.0067,-0.53,1.36,-0.02,0.010,-38.506,-38.622,-1.893
219,-0.0229,0.0492,0.0190,-0.65,1.53,-0.03,0.010,-36.698,-32.894,-2.146
229,-0.0260,0.0534,0.0317,-0.87,1.86,-0.05,0.010,-31.185,-25.130,-4.764
239,-0.0298,0.0552,0.0465,-1.21,2.25,-0.07,0.019,-19.618,-34.088,-4.639
249,-0.0438,0.0518,0.0614,-1.55,2.67,-0.07,0.019,-5.072,-44.127,-4.875
258,-0.0889,0.0486,0.0881,-1.83,3.25,-0.12,0.019,4.109,-41.433,-2.119
269,-0.0948,0.0569,0.1081,-2.07,3.56,-0.15,0.019,7.959,-30.134,-2.534
279,-0.0822,0.0686,0.1333,-2.22,3.82,-0.17,0.000,3.965,-15.301,-2.526
289,-0.0831,0.0821,0.1531,-2.26,4.19,-0.17,0.000,5.674,-2.354,-1.689
299,-0.0912,0.0850,0.1295,-2.19,4.53,-0.18,0.000,6.858,16.854,-0.396
308,-0.1327,0.0960,0.1423,-2.19,4.98,-0.20,0.000,9.324,35.754,0.068
319,-0.1452,0.0981,0.1603,-2.11,5.05,-0.23,0.000,11.723,45.142,-0.673
329,-0.1738,0.0952,0.1742,-1.99,5.08,-0.26,0.000,12.514,46.737,-0.638
339,-0.1660,0.0979,0.1989,-1.90,4.62,-0.26,0.002,4.244,50.325,-2.873
349,-0.1603,0.1267,0.2156,-1.98,4.07,-0.22,0.002,1.574,45.160,-3.330
359,-0.1595,0.1193,0.1864,-1.77,3.55,-0.25,0.002,0.300,41.390,-2.293
368,-0.1788,0.1079,0.2012,-1.59,3.15,-0.34,0.002,-0.596,33.790,-1.343
379,-0.1873,0.1055,0.2175,-1.52,2.71,-0.40,0.023,1.050,25.521,-1.187
389,-0.1758,0.0972,0.2402,-1.43,2.15,-0.44,0.023,2.815,13.574,-0.367
399,-0.1604,0.0994,0.2572,-1.42,1.64,-0.45,0.023,2.803,2.417,-0.287
409,-0.1459,0.1014,0.2750,-1.41,1.23,-0.45,0.023,3.297,-4.602,-0.207
419,-0.1454,0.0998,0.2893,-1.36,1.04,-0.46,0.023,2.534,-7.737,0.676
428,-0.1256,0.0978,0.3040,-1.30,0.81,-0.46,0.023,2.949,-8.244,0.597
439,-0.1224,0.0890,0.3164,-1.17,0.80,-0.47,0.043,3.157,-12.854,1.571
449,-0.1001,0.1025,0.3287,-1.23,0.69,-0.43,0.043,4.952,-13.845,1.851
459,-0.1013,0.0989,0.3375,-1.16,0.77,-0.43,0.043,5.355,-19.415,3.653
469,-0.0765,0.0717,0.3519,-0.91,0.68,-0.43,0.043,5.838,-17.146,4.553
479,-0.0873,0.0724,0.3585,-0.86,0.88,-0.42,0.072,5.049,-8.007,4.699
488,-0.0671,0.0706,0.3669,-0.76,0.92,-0.37,0.072,4.324,1.041,4.474
499,-0.0708,0.0605,0.3993,-0.61,1.09,-0.33,0.072,4.377,9.209,3.641
509,-0.0741,0.0553,0.4023,-0.52,1.19,-0.29,0.072,3.966,11.506,3.062
519,-0.0788,0.0552,0.4036,-0.47,1.22,-0.25,0.072,5.836,11.308,3.497
529,-0.0704,0.0437,0.4061,-0.34,1.06,-0.21,0.072,5.538,7.166,2.270
539,-0.0978,0.0426,0.4044,-0.29,1.13,-0.19,0.096,3.724,4.283,2.399
549,-0.1007,0.0388,0.4050,-0.20,1.02,-0.16,0.096,2.055,5.101,2.978
559,-0.1088,0.0352,0.4229,-0.11,0.99,-0.14,0.096,1.756,4.836,3.887
569,-0.1088,0.0306,0.4232,-0.04,0.92,-0.12,0.096,1.475,2.279,3.015
579,-0.1112,0.0287,0.4222,0.00,0.88,-0.09,0.112,-1.458,1.878,3.333
588,-0.1124,0.0271,0.4200,0.03,0.83,-0.05,0.112,-3.157,4.363,1.926
599,-0.1089,0.0251,0.4237,0.05,0.75,-0.02,0.112,-2.795,4.328,1.391
609,-0.1052,0.0198,0.4185,0.07,0.70,0.01,0.112,-0.605,9.494,0.414
618,-0.1027,0.0191,0.4126,0.06,0.64,0.03,0.112,2.909,17.439,0.013
629,-0.0992,0.0173,0.4071,0.04,0.57,0.05,0.112,3.785,24.378,-0.131
639,-0.1001,0.0173,0.4013,0.02,0.48,0.05,0.136,8.142,31.702,-1.158
649,-0.0868,-0.0034,0.3970,0.20,0.22,0.05,0.136,4.333,34.377,-0.433
659,-0.0868,-0.0040,0.3933,0.24,-0.02,0.05,0.136,6.742,36.980,-1.160
669,-0.0899,-0.0048,0.3863,0.31,-0.30,0.05,0.136,8.516,41.143,-1.627
678,-0.0891,-0.0058,0.3794,0.38,-0.64,0.04,0.156,8.057,41.359,-1.541
689,-0.0798,-0.0029,0.3728,0.42,-1.08,0.04,0.156,4.555,36.517,-1.253
699,-0.0795,-0.0050,0.3771,0.51,-1.49,0.03,0.156,0.623,30.276,-0.215
708,-0.0660,-0.0042,0.3694,0.57,-1.98,0.01,0.156,-7.739,23.597,1.506
718,-0.0493,-0.0081,0.3609,0.64,-2.45,0.00,0.156,-4.377,18.165,0.413
728,-0.0418,-0.0141,0.3515,0.69,-2.80,0.01,0.156,-12.042,11.192,1.310
739,-0.0375,-0.0152,0.3421,0.62,-3.04,0.02,0.170,-8.810,6.927,1.118
748,-0.0303,-0.0083,0.3328,0.51,-3.25,0.02,0.170,-8.887,2.317,2.207
759,-0.0220,-0.0082,0.3150,0.40,-3.40,0.03,0.170,-10.794,-4.106,2.943
769,-0.0213,-0.0107,0.3062,0.33,-3.45,0.05,0.170,-5.917,-6.324,3.109
778,-0.0162,-0.0112,0.2969,0.23,-3.47,0.07,0.190,-3.757,-11.157,3.728
788,-0.0035,-0.0391,0.2867,0.35,-3.50,0.15,0.190,-3.876,-13.623,4.061
798,0.0033,-0.0384,0.2897,0.27,-3.45,0.18,0.190,-7.335,-15.822,4.495
809,0.0059,-0.0356,0.2805,0.21,-3.32,0.21,0.190,-6.235,-17.165,5.372
818,0.0119,-0.0316,0.2715,0.14,-3.20,0.24,0.190,-7.066,-19.477,5.744
828,0.0125,-0.0296,0.2625,0.06,-3.01,0.28,0.190,-8.807,-20.623,6.376
839,0.0204,-0.0314,0.2531,0.02,-2.86,0.33,0.200,-10.799,-20.433,6.968
849,0.0180,-0.0271,0.2441,-0.08,-2.62,0.38,0.200,-10.862,-21.257,7.662
858,0.0220,-0.0270,0.2302,-0.16,-2.42,0.44,0.200,-11.535,-20.355,8.481
868,0.0286,-0.0270,0.2214,-0.25,-2.24,0.51,0.200,-12.578,-19.791,8.813
879,0.0287,-0.0320,0.2132,-0.32,-1.99,0.60,0.213,-11.271,-19.102,9.364
889,0.0319,-0.0315,0.2052,-0.44,-1.79,0.69,0.213,-6.215,-17.587,8.532
899,0.0345,-0.0269,0.2044,-0.59,-1.59,0.77,0.213,-10.005,-17.442,10.087
908,0.0331,0.0014,0.1968,-0.89,-1.37,0.79,0.213,-6.047,-17.190,8.893
918,0.0353,0.0029,0.1893,-0.97,-1.19,0.88,0.213,-4.394,-12.841,9.920
929,0.0373,0.0046,0.1811,-1.06,-1.00,0.99,0.213,0.780,-12.991,8.918
938,0.0402,0.0068,0.1735,-1.12,-0.85,1.09,0.221,1.304,-12.390,8.507
949,0.0402,0.0108,0.1663,-1.18,-0.71,1.18,0.221,6.434,-13.156,9.266
959,0.0412,0.0127,0.1569,-1.18,-0.58,1.28,0.221,9.380,-12.996,9.424
968,0.0396,0.0152,0.1503,-1.18,-0.44,1.37,0.221,15.928,-12.797,8.345
979,0.0379,0.0182,0.1439,-1.13,-0.29,1.46,0.223,18.265,-13.175,7.991
989,0.0360,0.0205,0.1379,-1.04,-0.15,1.56,0.223,18.501,-13.196,9.136
998,0.0337,0.0211,0.1223,-0.88,-0.01,1.65,0.223,17.649,-13.539,8.572
1008,0.0328,0.0264,0.1165,-0.73,0.12,1.72,0.223,14.179,-10.861,9.148
1018,0.0312,0.0315,0.1104,-0.58,0.25,1.81,0.223,13.517,-9.870,6.504
1029,0.0298,0.0311,0.1043,-0.41,0.40,1.90,0.223,11.417,-8.118,7.138
1038,0.0288,0.0297,0.0980,-0.24,0.52,1.99,0.220,8.407,-7.441,7.353
1048,0.0262,0.0333,0.0918,-0.14,0.62,2.05,0.220,8.659,-4.671,6.710
1059,0.0228,0.0381,0.0580,-0.08,0.71,2.12,0.220,5.733,-7.001,6.823
1069,0.0216,0.0397,0.0531,-0.00,0.78,2.19,0.220,6.051,-5.279,5.989
1078,0.0230,0.0381,0.0488,0.10,0.82,2.26,0.236,5.517,-2.643,6.461
1089,0.0191,0.0387,0.0449,0.15,0.90,2.33,0.236,9.821,-1.992,5.426
1098,0.0157,0.0368,0.0577,0.22,0.97,2.39,0.236,10.199,-0.345,5.240
1108,0.0132,0.0395,0.0546,0.25,1.00,2.45,0.236,11.212,0.330,4.268
1118,0.0109,0.0430,0.0519,0.33,1.03,2.50,0.236,13.242,-0.046,3.828
1129,0.0076,0.0424,0.0491,0.44,1.04,2.55,0.236,12.422,3.359,3.330
1139,0.0069,0.0431,0.0462,0.55,1.04,2.59,0.223,10.679,4.718,3.656
1148,0.0014,0.0409,0.0434,0.69,1.06,2.63,0.223,10.252,5.342,3.010
1158,-0.0004,0.0396,0.0144,0.80,1.03,2.67,0.223,9.086,5.971,2.017
1168,-0.0046,0.0442,0.0123,0.86,1.00,2.70,0.223,8.553,6.913,2.824
1178,-0.0054,0.0419,0.0108,0.95,0.95,2.73,0.225,7.748,8.060,2.006
1188,-0.0104,0.0446,0.0092,1.01,0.91,2.75,0.225,5.411,9.122,2.083
1198,-0.0118,0.0428,-0.0025,1.10,0.84,2.78,0.225,5.402,9.313,1.641
1208,-0.0134,0.0446,-0.0040,1.15,0.76,2.80,0.225,5.705,9.851,0.945
1219,-0.0144,0.0405,-0.0056,1.22,0.67,2.82,0.225,6.029,9.694,0.958
1228,-0.0243,0.0449,-0.0071,1.23,0.63,2.84,0.225,3.300,9.536,0.337
1238,-0.0253,0.0428,-0.0079,1.29,0.53,2.85,0.228,-0.806,8.376,0.756
1248,-0.0303,0.0457,-0.0080,1.32,0.45,2.86,0.228,1.795,10.624,0.239
1258,-0.0309,0.0434,-0.0068,1.36,0.36,2.86,0.228,2.225,8.652,0.016
1268,-0.0314,0.0411,-0.0067,1.36,0.28,2.87,0.228,1.814,7.753,-0.640
1278,-0.0323,0.0366,-0.0064,1.41,0.17,2.87,0.231,4.388,10.069,-0.849
1288,-0.0325,0.0342,-0.0061,1.44,0.07,2.88,0.231,4.765,7.434,-1.420
1298,-0.0325,0.0316,0.0018,1.47,-0.01,2.88,0.231,6.810,10.295,-1.907
1308,-0.0333,0.0291,0.0028,1.51,-0.09,2.87,0.231,1.764,4.870,-2.008
1318,-0.0287,0.0249,0.0040,1.56,-0.20,2.86,0.231,0.648,9.301,-2.206
1328,-0.0256,0.0191,0.0048,1.64,-0.32,2.84,0.231,1.992,9.516,-2.137
1338,-0.0282,0.0153,0.0056,1.68,-0.37,2.82,0.227,-1.885,9.601,-2.499
1348,-0.0265,0.0115,0.0063,1.70,-0.46,2.80,0.227,-1.704,10.114,-3.634
1358,-0.0297,0.0078,0.0024,1.73,-0.54,2.78,0.227,-1.559,8.246,-2.830
1368,-0.0294,0.0041,0.0036,1.74,-0.64,2.76,0.227,-3.617,8.419,-2.220
1378,-0.0327,0.0072,0.0046,1.70,-0.72,2.72,0.231,-9.304,2.484,-3.339
1388,-0.0313,0.0043,0.0049,1.68,-0.81,2.69,0.231,-7.938,2.678,-2.916
1398,-0.0334,0.0086,0.0107,1.59,-0.86,2.67,0.231,-9.006,3.788,-2.722
1408,-0.0299,0.0018,0.0113,1.54,-0.91,2.64,0.231,-11.112,0.166,-2.487
1418,-0.0247,-0.0078,0.0122,1.50,-0.96,2.62,0.231,-11.047,0.054,-2.300
1428,-0.0229,-0.0103,0.0130,1.41,-1.00,2.59,0.231,-11.677,0.480,-2.184
1438,-0.0237,-0.0108,0.0139,1.28,-0.98,2.57,0.231,-8.969,0.763,-3.410
1448,-0.0219,-0.0130,0.0146,1.17,-0.99,2.55,0.231,-8.373,0.719,-2.345
1458,-0.0247,-0.0131,0.0173,1.05,-0.96,2.52,0.231,-4.794,2.214,-2.642
1468,-0.0234,-0.0163,0.0179,0.96,-0.96,2.50,0.231,-6.128,1.027,-1.858
1478,-0.0244,-0.0111,0.0185,0.82,-0.96,2.47,0.235,-6.927,2.798,-1.027
1488,-0.0216,-0.0155,0.0188,0.77,-0.98,2.46,0.235,-6.220,-0.176,-0.939
1498,-0.0223,-0.0154,0.0272,0.69,-0.98,2.44,0.235,-7.588,3.227,-0.970
1508,-0.0206,-0.0165,0.0273,0.64,-1.01,2.43,0.235,-4.091,1.512,-0.917
1518,-0.0188,-0.0175,0.0276,0.58,-1.02,2.42,0.235,1.151,4.717,-1.640
1528,-0.0170,-0.0184,0.0279,0.51,-1.05,2.41,0.235,-4.785,1.259,-0.391
1538,-0.0213,-0.0154,0.0282,0.44,-1.03,2.40,0.235,-1.187,0.676,-1.042
1548,-0.0183,-0.0184,0.0284,0.46,-1.07,2.38,0.235,-3.477,0.149,-1.282
1558,-0.0156,-0.0200,0.0302,0.42,-1.09,2.38,0.235,-2.633,1.507,-1.087
1568,-0.0137,-0.0207,0.0299,0.40,-1.10,2.37,0.235,-6.001,-0.121,-1.533
1578,-0.0118,-0.0213,0.0292,0.37,-1.11,2.36,0.235,-4.548,-0.931,-2.319
1588,-0.0099,-0.0218,0.0288,0.33,-1.12,2.34,0.235,-8.881,-0.554,-1.531
1598,-0.0080,-0.0223,0.0264,0.27,-1.12,2.33,0.235,-5.774,2.348,-1.804
1608,-0.0057,-0.0283,0.0262,0.25,-1.11,2.31,0.235,-7.448,-2.644,-2.137
1618,-0.0038,-0.0206,0.0257,0.11,-1.11,2.29,0.235,-9.308,-2.259,-2.285
1628,-0.0022,-0.0168,0.0251,0.02,-1.12,2.26,0.235,-1.630,0.709,-2.210
1638,-0.0003,-0.0168,0.0246,-0.05,-1.10,2.24,0.235,-7.070,-2.385,-2.243
1648,0.0020,-0.0342,0.0242,-0.02,-1.09,2.24,0.235,-4.026,-2.306,-2.205
1658,0.0055,-0.0389,0.0194,-0.03,-1.09,2.22,0.235,-4.928,-1.809,-1.486
1668,0.0105,-0.0366,0.0189,-0.11,-1.09,2.19,0.235,-5.155,-5.003,-2.314
1678,0.0097,-0.0362,0.0189,-0.15,-1.05,2.17,0.234,-3.520,-5.409,-2.042
1687,0.0100,-0.0262,0.0187,-0.26,-1.02,2.15,0.234,-6.639,-8.346,-2.047
1698,0.0145,-0.0297,0.0110,-0.28,-0.99,2.13,0.234,-4.593,-5.644,-1.960
1708,0.0146,-0.0290,0.0098,-0.32,-0.93,2.11,0.234,-2.065,-5.187,-2.412
1718,0.0171,-0.0271,0.0091,-0.38,-0.88,2.09,0.234,-6.620,-6.930,-2.495
1728,0.0186,-0.0264,0.0087,-0.44,-0.82,2.07,0.234,-4.789,-7.379,-2.561
1738,0.0200,-0.0256,0.0083,-0.47,-0.76,2.05,0.240,-1.867,-5.687,-2.481
1748,0.0218,-0.0265,0.0080,-0.52,-0.71,2.03,0.240,-4.687,-3.923,-1.800
1758,0.0214,-0.0257,0.0155,-0.58,-0.64,2.01,0.240,-7.407,-5.935,-2.328
1768,0.0206,-0.0195,0.0147,-0.64,-0.57,1.99,0.240,-6.800,-6.252,-2.240
1778,0.0248,-0.0184,0.0140,-0.69,-0.53,1.97,0.237,-2.190,-4.761,-2.046
1788,0.0217,-0.0139,0.0137,-0.78,-0.44,1.95,0.237,2.647,-5.457,-2.082
1797,0.0336,-0.0268,0.0102,-0.76,-0.43,1.93,0.237,1.073,-5.311,-1.605
1808,0.0341,-0.0246,0.0098,-0.78,-0.38,1.91,0.237,3.275,-3.959,-2.811
1818,0.0346,-0.0226,0.0094,-0.76,-0.33,1.89,0.237,2.071,-3.731,-1.206
1827,0.0311,-0.0159,0.0086,-0.77,-0.25,1.87,0.237,3.540,-5.024,-0.653
1838,0.0369,-0.0193,0.0081,-0.71,-0.24,1.85,0.237,-0.997,-6.356,-0.448
1848,0.0373,-0.0181,0.0076,-0.69,-0.19,1.84,0.237,-3.776,-5.780,0.075
1858,0.0411,-0.0252,0.0043,-0.62,-0.16,1.84,0.237,-4.916,-6.302,0.068
1868,0.0354,-0.0160,0.0043,-0.68,-0.07,1.83,0.237,-3.075,-6.510,0.416
1877,0.0355,-0.0149,0.0040,-0.71,-0.02,1.83,0.240,0.907,-5.477,0.069
1888,0.0331,-0.0091,0.0036,-0.78,0.06,1.83,0.240,2.661,-7.100,0.222
1898,0.0326,-0.0056,0.0076,-0.82,0.13,1.83,0.240,3.380,-7.314,1.406
1908,0.0446,-0.0125,0.0074,-0.76,0.11,1.83,0.240,2.769,-6.323,0.925
1919,0.0485,-0.0095,0.0078,-0.75,0.16,1.84,0.240,4.295,-6.098,2.553
1928,0.0482,-0.0082,0.0080,-0.72,0.23,1.85,0.240,3.322,-6.334,2.873
1938,0.0478,-0.0070,0.0079,-0.68,0.29,1.86,0.235,4.731,-5.153,2.164
1947,0.0483,-0.0059,0.0072,-0.64,0.35,1.89,0.235,4.624,-5.213,3.102
1958,0.0476,-0.0049,-0.0032,-0.62,0.41,1.92,0.235,4.197,-5.019,3.122
1968,0.0469,-0.0038,-0.0038,-0.58,0.45,1.94,0.235,5.637,-6.649,2.777
1977,0.0454,-0.0034,-0.0044,-0.53,0.50,1.97,0.237,5.811,-6.983,2.802
1988,0.0455,-0.0014,-0.0046,-0.49,0.55,2.01,0.237,5.713,-8.157,2.825
1998,0.0419,0.0004,-0.0050,-0.44,0.63,2.03,0.237,6.237,-8.016,2.370
2008,0.0399,0.0020,-0.0050,-0.38,0.70,2.06,0.237,5.495,-7.557,2.544
2017,0.0398,0.0017,-0.0052,-0.32,0.77,2.09,0.237,4.847,-6.804,2.414
2027,0.0394,0.0032,-0.0056,-0.27,0.84,2.12,0.237,4.306,-6.523,2.306
2037,0.0407,0.0029,-0.0056,-0.22,0.90,2.14,0.241,2.768,-4.729,3.332
2048,0.0367,0.0077,-0.0053,-0.20,0.98,2.17,0.241,4.355,-3.727,2.994
2058,0.0348,0.0071,0.0044,-0.16,1.04,2.19,0.241,3.523,-1.445,3.249
2067,0.0329,0.0065,0.0049,-0.12,1.09,2.22,0.241,4.417,0.021,3.425
2078,0.0312,0.0060,0.0053,-0.08,1.13,2.25,0.238,5.281,1.745,3.350
2088,0.0293,0.0060,0.0055,-0.05,1.14,2.29,0.238,2.679,2.490,3.489
2097,0.0301,0.0018,0.0034,0.02,1.13,2.32,0.238,4.282,1.385,3.162
2108,0.0257,0.0043,0.0029,0.06,1.12,2.35,0.238,6.021,2.913,2.383
2118,0.0232,0.0048,0.0026,0.10,1.10,2.39,0.238,2.191,2.492,3.185
2127,0.0214,0.0045,0.0024,0.15,1.08,2.42,0.238,6.648,4.882,1.876
2138,0.0211,0.0002,0.0024,0.22,1.04,2.45,0.237,3.979,4.120,2.025
2148,0.0190,0.0027,0.0025,0.23,1.02,2.48,0.237,2.017,2.718,2.423
2158,0.0175,-0.0019,-0.0005,0.31,0.97,2.50,0.237,2.042,0.820,1.969
2167,0.0139,0.0003,-0.0004,0.33,0.94,2.52,0.237,-0.453,1.140,1.761
2178,0.0124,-0.0003,-0.0003,0.35,0.92,2.54,0.235,-5.096,-0.247,2.457
2188,0.0124,-0.0010,-0.0003,0.37,0.90,2.56,0.235,-1.398,0.424,2.128
2198,0.0088,-0.0012,-0.0066,0.36,0.91,2.58,0.235,-0.338,0.329,1.586
2208,0.0091,-0.0098,-0.0068,0.36,0.90,2.61,0.235,-1.166,1.297,0.973
2219,0.0054,-0.0036,-0.0069,0.31,0.91,2.63,0.235,-4.219,0.975,1.686
2228,0.0022,-0.0035,-0.0071,0.29,0.91,2.64,0.235,-0.732,3.423,0.846
2237,0.0007,-0.0041,-0.0068,0.28,0.90,2.65,0.237,-1.453,5.321,0.762
2248,0.0034,-0.0128,-0.0060,0.30,0.86,2.67,0.237,-6.056,5.736,1.174
2258,-0.0012,-0.0108,-0.0038,0.26,0.84,2.68,0.237,-1.871,7.002,0.505
2268,-0.0055,-0.0036,-0.0030,0.19,0.80,2.69,0.237,-4.494,6.815,1.215
2277,-0.0054,-0.0087,-0.0022,0.17,0.73,2.69,0.236,-0.331,8.357,-0.154
2287,-0.0054,-0.0113,-0.0014,0.16,0.66,2.70,0.236,-5.898,6.308,1.449
2297,-0.0066,-0.0162,-0.0022,0.15,0.59,2.71,0.236,-2.294,7.504,0.476
2307,-0.0097,-0.0153,-0.0021,0.12,0.52,2.71,0.236,-5.674,6.034,0.816
2317,-0.0092,-0.0164,-0.0021,0.08,0.45,2.72,0.236,-0.541,5.636,-0.770
2327,-0.0100,-0.0166,-0.0019,0.05,0.38,2.73,0.236,-5.348,5.149,0.414
2337,-0.0107,-0.0167,-0.0015,-0.00,0.32,2.73,0.237,-4.226,5.091,-0.369
2348,-0.0135,-0.0162,-0.0007,-0.01,0.28,2.73,0.237,-1.592,5.879,-1.161
2357,-0.0123,-0.0222,0.0020,-0.01,0.22,2.73,0.237,-4.094,4.557,-0.844
2367,-0.0127,-0.0221,0.0029,-0.05,0.17,2.73,0.237,-3.314,4.727,-1.883
2377,-0.0120,-0.0186,0.0036,-0.11,0.11,2.72,0.235,-2.454,4.943,-2.482
2387,-0.0166,-0.0136,0.0042,-0.19,0.09,2.71,0.235,-4.119,5.353,-2.908
2397,-0.0134,-0.0224,0.0009,-0.17,0.03,2.69,0.235,-5.247,4.885,-3.314
2408,-0.0155,-0.0239,0.0013,-0.20,-0.01,2.67,0.235,-7.341,4.791,-3.175
2417,-0.0141,-0.0285,0.0015,-0.22,-0.07,2.64,0.235,-1.579,5.932,-5.061
2427,-0.0147,-0.0214,0.0015,-0.30,-0.12,2.60,0.235,-7.598,4.158,-4.378
2437,-0.0130,-0.0264,0.0014,-0.33,-0.17,2.57,0.234,-2.597,5.122,-6.134
2447,-0.0165,-0.0243,0.0015,-0.37,-0.21,2.52,0.234,-5.425,5.929,-5.604
2457,-0.0166,-0.0224,-0.0027,-0.43,-0.25,2.47,0.234,-8.004,4.904,-6.046
2467,-0.0165,-0.0204,-0.0022,-0.47,-0.30,2.41,0.234,-4.207,6.170,-6.446
2477,-0.0147,-0.0195,-0.0016,-0.53,-0.36,2.35,0.234,-9.110,4.828,-5.494
2487,-0.0144,-0.0171,-0.0008,-0.61,-0.42,2.29,0.234,-7.047,4.674,-6.833
2497,-0.0138,-0.0160,-0.0029,-0.67,-0.47,2.22,0.234,-5.858,3.010,-6.747
2507,-0.0169,-0.0137,-0.0027,-0.75,-0.49,2.16,0.234,-4.899,3.993,-6.578
2517,-0.0161,-0.0124,-0.0022,-0.82,-0.54,2.09,0.234,-3.435,2.617,-7.049
2527,-0.0088,-0.0182,-0.0019,-0.83,-0.60,2.02,0.234,-0.707,2.841,-7.512
2537,-0.0141,-0.0107,-0.0015,-0.91,-0.60,1.95,0.236,-0.016,3.099,-7.594
2547,-0.0121,-0.0118,-0.0009,-0.92,-0.63,1.88,0.236,1.732,2.704,-7.705
2557,-0.0138,-0.0065,0.0030,-0.96,-0.64,1.80,0.236,2.939,1.555,-7.648
2567,-0.0086,-0.0062,0.0039,-0.95,-0.69,1.73,0.236,3.373,1.234,-7.434
2577,-0.0001,-0.0110,0.0044,-0.89,-0.75,1.65,0.235,2.381,0.777,-6.701
2587,-0.0055,0.0001,0.0045,-0.92,-0.73,1.58,0.235,3.277,1.064,-7.067
2597,-0.0008,0.0014,0.0039,-0.88,-0.76,1.50,0.235,4.443,-0.344,-7.047
2607,0.0025,-0.0057,0.0045,-0.80,-0.78,1.43,0.235,2.949,-0.690,-5.881
2617,-0.0030,0.0033,0.0050,-0.81,-0.74,1.36,0.235,3.524,-0.103,-6.307
2628,-0.0018,0.0047,0.0055,-0.78,-0.73,1.29,0.235,4.246,-1.192,-5.972
2637,-0.0022,0.0055,0.0062,-0.74,-0.72,1.23,0.237,3.873,-2.880,-6.224
2647,-0.0043,0.0010,0.0070,-0.68,-0.69,1.17,0.237,4.788,-2.081,-6.093
2657,-0.0048,0.0015,0.0107,-0.63,-0.66,1.10,0.237,4.827,-2.203,-6.445
2668,-0.0037,0.0026,0.0105,-0.59,-0.63,1.04,0.237,4.234,-2.939,-6.299
2677,-0.0029,0.0078,0.0104,-0.56,-0.61,0.98,0.238,3.598,-1.945,-6.588
2687,-0.0020,0.0094,0.0107,-0.51,-0.59,0.91,0.238,4.214,-1.578,-6.586
2697,0.0005,0.0093,0.0141,-0.46,-0.57,0.85,0.238,4.368,-1.306,-6.518
2707,-0.0004,0.0092,0.0147,-0.41,-0.54,0.79,0.238,3.927,-1.083,-6.456
2717,0.0054,0.0089,0.0154,-0.35,-0.55,0.71,0.238,4.481,-0.711,-6.870
2727,0.0060,0.0101,0.0157,-0.31,-0.54,0.65,0.238,4.935,-1.056,-6.878
2737,0.0051,0.0098,0.0156,-0.26,-0.52,0.58,0.237,5.513,-0.391,-7.224
2747,0.0060,0.0102,0.0153,-0.22,-0.52,0.51,0.237,5.488,-1.183,-7.152
2757,0.0068,0.0106,0.0130,-0.17,-0.52,0.44,0.237,6.704,-0.671,-7.829
2767,0.0109,0.0099,0.0130,-0.12,-0.53,0.37,0.237,6.060,-1.807,-7.936
2777,0.0118,0.0101,0.0133,-0.06,-0.53,0.30,0.234,3.821,-2.738,-8.134
2787,0.0121,0.0127,0.0136,-0.02,-0.51,0.22,0.234,4.258,-3.061,-7.749
2797,0.0139,0.0135,0.0040,0.02,-0.50,0.14,0.234,4.545,-4.034,-8.773
2807,0.0147,0.0135,0.0040,0.07,-0.46,0.06,0.234,3.680,-3.033,-8.554
2817,0.0155,0.0134,0.0040,0.10,-0.44,-0.03,0.234,1.341,-5.669,-9.676
2827,0.0163,0.0132,0.0040,0.14,-0.40,-0.11,0.234,3.673,-7.516,-8.835
2837,0.0157,0.0179,0.0043,0.13,-0.36,-0.21,0.233,4.393,-4.372,-9.975
2847,0.0163,0.0177,0.0048,0.16,-0.29,-0.30,0.233,2.346,-3.454,-9.037
2857,0.0171,0.0159,-0.0030,0.21,-0.22,-0.40,0.233,1.326,-7.972,-9.589
2867,0.0174,0.0155,-0.0029,0.24,-0.18,-0.49,0.233,-3.753,-5.079,-9.267
2877,0.0177,0.0151,-0.0028,0.27,-0.13,-0.58,0.235,-1.944,-5.410,-9.245
2887,0.0205,0.0226,-0.0028,0.20,-0.08,-0.68,0.235,-0.260,-5.578,-10.244
2897,0.0209,0.0234,-0.0023,0.18,-0.03,-0.78,0.235,0.552,-5.936,-9.881
2907,0.0209,0.0231,-0.0016,0.17,0.02,-0.88,0.235,3.099,-4.124,-10.165
2917,0.0250,0.0175,-0.0006,0.21,0.05,-0.98,0.235,3.960,-3.274,-10.032
2927,0.0198,0.0259,0.0001,0.17,0.12,-1.08,0.235,5.174,-3.952,-9.749
2937,0.0200,0.0242,0.0006,0.21,0.16,-1.18,0.232,4.309,-4.756,-9.141
2946,0.0197,0.0239,0.0013,0.25,0.19,-1.28,0.232,5.772,-2.531,-9.195
2957,0.0213,0.0158,-0.0042,0.34,0.23,-1.38,0.232,6.717,-2.740,-9.213
2967,0.0178,0.0196,-0.0033,0.37,0.28,-1.47,0.232,7.248,-3.099,-9.135
2977,0.0142,0.0172,-0.0026,0.44,0.32,-1.57,0.231,5.240,-2.978,-8.879
2986,0.0136,0.0165,-0.0019,0.50,0.36,-1.66,0.231,4.726,-1.403,-9.500
2997,0.0163,0.0135,-0.0066,0.59,0.35,-1.75,0.231,2.608,-0.680,-9.819
3007,0.0156,0.0125,-0.0056,0.65,0.37,-1.84,0.231,1.466,0.434,-9.804
3017,0.0142,0.0121,-0.0050,0.70,0.38,-1.94,0.231,-0.189,-0.506,-9.490
3027,0.0135,0.0109,-0.0046,0.73,0.38,-2.04,0.231,-2.594,1.872,-8.910
3036,0.0128,0.0097,-0.0039,0.75,0.38,-2.14,0.234,-4.826,1.414,-9.029
3047,0.0121,0.0084,-0.0027,0.74,0.37,-2.23,0.234,-1.113,1.131,-9.403
3057,0.0114,0.0072,0.0021,0.71,0.35,-2.32,0.234,-2.622,1.279,-8.245
3066,0.0103,0.0040,0.0031,0.68,0.34,-2.41,0.234,-2.709,1.667,-7.616
3077,0.0097,0.0028,0.0041,0.66,0.33,-2.50,0.235,-1.031,1.973,-8.092
3087,0.0090,0.0017,0.0050,0.64,0.31,-2.58,0.235,-1.311,2.182,-7.984
3096,0.0062,0.0008,0.0102,0.63,0.31,-2.66,0.235,-2.533,-0.090,-8.233
3106,0.0057,0.0022,0.0110,0.60,0.29,-2.74,0.235,0.898,3.173,-7.778
3117,0.0072,-0.0010,0.0117,0.61,0.26,-2.82,0.235,-2.900,0.287,-7.844
3127,0.0067,-0.0020,0.0128,0.59,0.25,-2.90,0.235,-2.985,2.308,-7.487
3136,0.0038,-0.0020,0.0139,0.57,0.24,-2.98,0.235,0.961,3.766,-7.726
3147,0.0052,-0.0065,0.0148,0.56,0.23,-3.05,0.235,-3.754,3.796,-6.428
3156,0.0050,-0.0092,0.0167,0.54,0.19,-3.14,0.235,-5.567,-1.021,-6.632
3167,0.0048,-0.0138,0.0175,0.56,0.15,-3.21,0.235,-2.862,2.479,-5.999
3177,0.0044,-0.0148,0.0183,0.52,0.13,-3.28,0.235,-4.594,-1.704,-5.960
3187,0.0042,-0.0157,0.0190,0.48,0.13,-3.34,0.235,-2.149,1.659,-6.368
3196,0.0036,-0.0194,0.0183,0.46,0.11,-3.40,0.235,-4.124,0.735,-7.134
3207,0.0012,-0.0204,0.0188,0.42,0.13,-3.46,0.235,-6.532,3.420,-5.220
3217,0.0029,-0.0214,0.0193,0.38,0.11,-3.53,0.235,-5.924,3.105,-4.172
3226,0.0026,-0.0220,0.0201,0.33,0.08,-3.59,0.235,-5.299,2.947,-4.538
3236,-0.0011,-0.0203,0.0207,0.25,0.07,-3.64,0.236,-6.398,3.585,-3.300
3247,-0.0029,-0.0190,0.0213,0.19,0.06,-3.68,0.236,-6.535,4.091,-3.749
3257,-0.0031,-0.0271,0.0209,0.16,0.04,-3.72,0.236,-7.075,2.786,-3.700
3266,0.0036,-0.0218,0.0213,0.07,-0.02,-3.76,0.236,-7.218,1.812,-3.391
3277,0.0036,-0.0219,0.0215,-0.00,-0.05,-3.79,0.238,-8.251,3.005,-2.863
3287,0.0038,-0.0218,0.0215,-0.07,-0.08,-3.83,0.238,-5.865,4.103,-2.835
3296,-0.0101,-0.0012,0.0232,-0.26,-0.02,-3.85,0.238,-6.176,3.011,-2.591
3306,0.0025,-0.0295,0.0237,-0.19,-0.13,-3.89,0.238,-5.650,1.052,-2.025
3317,0.0026,-0.0346,0.0241,-0.22,-0.16,-3.92,0.238,-5.574,0.791,-1.463
3327,0.0069,-0.0341,0.0243,-0.28,-0.21,-3.94,0.238,-3.285,1.030,-1.790
3337,0.0055,-0.0314,0.0245,-0.35,-0.21,-3.96,0.239,-1.055,1.282,-1.535
3347,0.0041,-0.0288,0.0250,-0.40,-0.22,-3.97,0.239,-0.691,0.837,-1.142
3356,0.0008,-0.0285,0.0258,-0.42,-0.21,-3.98,0.239,-2.336,-0.075,-0.349
3367,0.0013,-0.0278,0.0260,-0.43,-0.22,-4.00,0.239,-3.363,-0.589,0.053
3376,0.0017,-0.0271,0.0262,-0.44,-0.23,-4.01,0.237,-4.960,-0.118,0.290
3387,-0.0016,-0.0264,0.0266,-0.47,-0.22,-4.01,0.237,-5.601,-0.666,0.592
3397,0.0008,-0.0239,0.0195,-0.53,-0.23,-4.01,0.237,-7.412,-1.004,0.679
3406,-0.0010,-0.0264,0.0192,-0.57,-0.21,-4.01,0.237,-8.228,-1.568,1.391
3416,-0.0005,-0.0215,0.0191,-0.66,-0.20,-4.00,0.237,-6.662,-0.592,1.449
3426,0.0028,-0.0295,0.0193,-0.69,-0.21,-3.99,0.237,-5.878,0.154,2.158
3436,0.0028,-0.0296,0.0196,-0.75,-0.20,-3.98,0.238,-3.763,0.256,2.250
3447,0.0029,-0.0281,0.0199,-0.82,-0.19,-3.96,0.238,-4.324,-0.854,2.582
3457,0.0030,-0.0268,0.0163,-0.87,-0.19,-3.94,0.238,-2.290,0.206,2.523
3467,0.0034,-0.0258,0.0169,-0.90,-0.19,-3.91,0.238,-1.784,0.431,3.016
3477,0.0037,-0.0247,0.0175,-0.93,-0.19,-3.89,0.245,-2.780,1.075,3.566
3486,0.0041,-0.0231,0.0176,-0.96,-0.19,-3.86,0.245,-1.727,-0.105,4.033
3497,0.0046,-0.0215,0.0287,-0.97,-0.20,-3.83,0.245,-0.519,0.887,4.232
3507,0.0051,-0.0198,0.0290,-0.99,-0.21,-3.79,0.245,-0.863,0.929,4.248
3516,0.0036,-0.0171,0.0294,-1.01,-0.20,-3.75,0.245,-0.223,-0.264,4.176
3526,0.0041,-0.0154,0.0296,-1.01,-0.20,-3.71,0.245,-0.203,-1.758,4.302
3537,0.0024,-0.0131,0.0297,-1.01,-0.19,-3.66,0.244,2.150,-1.698,4.379
3546,0.0007,-0.0148,0.0297,-0.99,-0.17,-3.62,0.244,1.314,-2.451,4.254
3556,0.0011,-0.0131,0.0304,-0.99,-0.17,-3.58,0.244,-0.085,0.085,4.741
3566,0.0016,-0.0092,0.0301,-0.99,-0.16,-3.54,0.244,1.182,0.222,4.719
3576,0.0038,-0.0076,0.0297,-0.97,-0.16,-3.49,0.245,3.176,-0.765,4.909
3586,0.0018,-0.0074,0.0291,-0.97,-0.14,-3.44,0.245,-0.471,0.261,5.135
3596,0.0021,-0.0040,0.0286,-0.95,-0.14,-3.39,0.245,5.042,0.430,4.171
3606,0.0008,-0.0042,0.0282,-0.92,-0.14,-3.35,0.245,5.062,2.442,3.902
3616,0.0028,-0.0012,0.0276,-0.91,-0.14,-3.30,0.245,5.093,5.099,3.421
3626,0.0031,0.0003,0.0270,-0.85,-0.17,-3.26,0.245,1.651,0.667,3.775
3637,0.0035,0.0017,0.0266,-0.80,-0.19,-3.22,0.244,4.847,0.464,3.513
3646,0.0006,0.0028,0.0260,-0.76,-0.22,-3.19,0.244,2.378,-0.259,4.335
3656,0.0010,0.0040,0.0191,-0.74,-0.22,-3.15,0.244,7.095,0.948,3.309
3666,0.0017,0.0086,0.0185,-0.73,-0.23,-3.11,0.244,3.698,1.513,4.866
3676,0.0021,0.0125,0.0181,-0.70,-0.23,-3.07,0.246,7.853,0.971,3.630
3686,0.0026,0.0107,0.0177,-0.63,-0.24,-3.03,0.246,7.714,2.124,4.152
3696,0.0027,0.0112,0.0172,-0.63,-0.24,-3.03,0.246,7.620,2.898,3.497
3706,0.0032,0.0123,0.0166,-0.57,-0.25,-2.99,0.246,7.471,0.076,3.795
3716,0.0036,0.0132,0.0160,-0.48,-0.27,-2.95,0.246,8.551,-2.766,3.359
3726,0.0043,0.0139,0.0158,-0.41,-0.29,-2.91,0.246,5.546,0.878,4.767
3737,0.0048,0.0146,0.0159,-0.32,-0.31,-2.88,0.245,8.034,-3.606,4.453
3746,0.0054,0.0151,0.0160,-0.25,-0.29,-2.84,0.245,6.780,-3.526,4.445
3756,0.0059,0.0155,0.0109,-0.18,-0.29,-2.80,0.245,5.650,-4.268,5.090
3766,0.0059,0.0179,0.0107,-0.14,-0.25,-2.75,0.245,2.543,-1.823,4.059
3776,0.0063,0.0181,0.0109,-0.05,-0.23,-2.71,0.246,8.789,-0.193,3.115
3786,0.0061,0.0209,0.0108,0.00,-0.18,-2.66,0.246,4.192,-1.887,4.559
3797,0.0078,0.0187,0.0091,0.05,-0.15,-2.62,0.246,3.981,-3.781,4.581
3806,0.0054,0.0213,0.0087,0.10,-0.12,-2.58,0.246,2.922,-0.737,4.728
3816,0.0056,0.0211,0.0086,0.15,-0.10,-2.54,0.246,3.743,-2.871,4.556
3827,0.0057,0.0208,0.0086,0.19,-0.08,-2.49,0.246,5.431,0.529,4.865
3836,0.0059,0.0205,0.0084,0.23,-0.07,-2.45,0.245,9.073,-1.497,4.086
3846,0.0058,0.0224,0.0085,0.25,-0.05,-2.40,0.245,5.023,-0.379,3.916
3857,0.0059,0.0219,0.0045,0.30,-0.04,-2.36,0.245,7.651,0.414,4.192
3866,0.0055,0.0171,0.0048,0.39,-0.01,-2.31,0.245,5.799,-1.062,4.484
3876,0.0055,0.0167,0.0049,0.46,-0.00,-2.27,0.246,4.519,0.805,4.760
3886,0.0051,0.0118,0.0050,0.55,-0.01,-2.23,0.246,6.328,0.163,3.917
3896,0.0070,0.0097,0.0044,0.63,-0.02,-2.18,0.246,4.237,-1.184,3.927
3907,0.0070,0.0086,0.0047,0.67,-0.02,-2.14,0.246,0.544,0.805,4.925
3916,0.0068,0.0080,0.0052,0.73,-0.04,-2.09,0.246,1.143,2.010,3.973
3926,0.0068,0.0068,0.0055,0.79,-0.04,-2.05,0.246,1.251,1.868,3.549
3936,0.0064,0.0075,0.0058,0.80,-0.03,-2.01,0.246,1.496,0.535,2.981
3947,0.0056,0.0020,0.0063,0.82,-0.03,-1.97,0.246,-2.452,-1.045,3.905
3956,0.0034,0.0070,0.0059,0.78,-0.02,-1.93,0.246,-4.585,-2.271,3.883
3966,0.0028,0.0038,0.0065,0.79,-0.01,-1.89,0.246,-7.351,-1.326,4.792
3976,0.0028,0.0024,0.0067,0.78,0.00,-1.86,0.248,-6.158,-1.123,4.011
3985,0.0024,-0.0000,0.0068,0.74,0.03,-1.82,0.248,-3.882,-1.529,3.529
3996,0.0024,-0.0013,0.0101,0.68,0.04,-1.78,0.248,-0.145,2.350,2.251
4006,0.0023,-0.0025,0.0105,0.61,0.06,-1.74,0.248,-0.115,2.453,2.941
4016,0.0018,-0.0051,0.0106,0.57,0.07,-1.70,0.248,-5.958,4.944,2.948
4026,0.0017,-0.0061,0.0106,0.56,0.07,-1.67,0.248,-5.934,0.133,3.089
4036,0.0015,-0.0071,0.0107,0.55,0.04,-1.64,0.245,-4.022,3.923,2.742
4046,-0.0069,-0.0066,0.0108,0.52,0.04,-1.62,0.245,-4.856,1.440,2.126
4056,-0.0105,-0.0085,0.0046,0.47,0.04,-1.58,0.245,-8.075,-2.334,2.893
4066,0.0028,-0.0148,0.0048,0.45,-0.06,-1.55,0.245,-3.410,-0.662,1.994
4076,0.0007,-0.0096,0.0054,0.38,-0.07,-1.53,0.248,-3.596,1.676,0.978
4086,0.0003,-0.0148,0.0058,0.33,-0.06,-1.51,0.248,-7.637,2.643,1.366
4096,0.0004,-0.0225,0.0086,0.31,-0.04,-1.48,0.248,-4.480,3.716,0.426
4106,-0.0053,-0.0230,0.0084,0.28,-0.02,-1.47,0.248,-6.474,0.556,1.548
4116,0.0029,-0.0177,0.0083,0.20,-0.08,-1.46,0.248,-6.300,-2.190,2.286
4126,0.0031,-0.0181,0.0085,0.12,-0.09,-1.45,0.248,-4.719,-1.552,0.814
4136,0.0030,-0.0183,0.0088,0.05,-0.10,-1.44,0.245,-6.604,-0.154,0.754
4146,-0.0087,-0.0204,0.0091,0.00,-0.04,-1.42,0.245,-4.844,1.846,0.788
4156,-0.0123,-0.0225,0.0027,-0.03,-0.01,-1.41,0.245,-4.391,0.191,0.185
4166,-0.0123,-0.0225,0.0030,-0.08,-0.01,-1.40,0.245,-4.601,-0.377,1.206
4176,-0.0119,-0.0227,0.0035,-0.14,-0.01,-1.40,0.245,-5.701,0.021,0.967
4186,-0.0117,-0.0282,0.0038,-0.16,-0.01,-1.39,0.245,-4.777,3.262,0.034
4196,-0.0117,-0.0279,0.0003,-0.22,-0.00,-1.38,0.245,-1.762,3.006,-0.085
4206,-0.0109,-0.0280,0.0003,-0.27,-0.00,-1.37,0.245,-3.106,3.392,-0.257
4216,-0.0109,-0.0276,0.0004,-0.31,-0.01,-1.37,0.245,-6.781,4.614,-0.333
4226,-0.0109,-0.0270,0.0006,-0.35,-0.03,-1.37,0.245,-5.828,3.711,-0.681
4236,-0.0138,-0.0264,0.0007,-0.39,-0.04,-1.37,0.248,-6.142,5.270,-1.684
4246,-0.0124,-0.0297,0.0011,-0.42,-0.09,-1.38,0.248,-6.033,5.722,-0.600
4256,-0.0111,-0.0291,0.0060,-0.48,-0.14,-1.38,0.248,-5.396,4.499,-1.177
4265,-0.0097,-0.0358,0.0065,-0.49,-0.19,-1.40,0.248,-5.486,3.279,-0.642
4276,-0.0083,-0.0386,0.0066,-0.54,-0.26,-1.41,0.244,-5.040,3.346,-0.992
4286,-0.0088,-0.0370,0.0068,-0.59,-0.31,-1.42,0.244,-2.638,2.183,-1.739
4296,-0.0082,-0.0360,0.0004,-0.66,-0.35,-1.43,0.244,-4.892,2.412,-0.854
4305,-0.0076,-0.0349,0.0006,-0.70,-0.37,-1.44,0.244,-3.720,-1.117,-0.817
4315,-0.0081,-0.0315,0.0008,-0.75,-0.40,-1.45,0.244,-5.768,-0.761,-1.518
4325,-0.0070,-0.0304,0.0014,-0.80,-0.42,-1.46,0.244,-4.852,-2.545,-0.690
4336,-0.0062,-0.0291,0.0018,-0.83,-0.43,-1.47,0.246,-6.340,-2.060,-0.752
4346,-0.0054,-0.0277,0.0019,-0.88,-0.42,-1.49,0.246,-5.732,-2.131,-0.780
4356,-0.0049,-0.0261,0.0022,-0.94,-0.41,-1.50,0.246,-5.150,-1.704,-0.980
4365,-0.0025,-0.0267,0.0027,-0.98,-0.39,-1.51,0.246,-4.078,-1.461,-0.865
4375,-0.0021,-0.0272,0.0032,-1.03,-0.37,-1.52,0.245,-2.471,-1.050,-0.794
4385,-0.0015,-0.0255,0.0033,-1.08,-0.35,-1.52,0.245,-0.732,-0.391,-0.976
4396,0.0008,-0.0282,0.0010,-1.09,-0.34,-1.53,0.245,0.711,-0.111,-1.087
4405,0.0015,-0.0264,0.0013,-1.12,-0.33,-1.54,0.245,1.282,-0.424,-0.544
4416,0.0039,-0.0256,0.0020,-1.13,-0.33,-1.55,0.245,1.874,-0.059,-1.035
4425,0.0045,-0.0237,0.0027,-1.13,-0.33,-1.56,0.245,1.679,-0.564,-0.848
4435,0.0049,-0.0191,0.0033,-1.13,-0.32,-1.56,0.245,0.300,-2.236,-0.704
4445,0.0055,-0.0172,0.0037,-1.11,-0.32,-1.57,0.245,0.914,-2.235,-0.375
4455,0.0061,-0.0153,0.0021,-1.09,-0.31,-1.58,0.245,1.730,-2.760,-0.498
4466,0.0067,-0.0135,0.0022,-1.08,-0.29,-1.59,0.245,3.087,-4.346,-1.323
4476,0.0085,-0.0116,0.0024,-1.07,-0.27,-1.59,0.249,1.362,-4.526,-1.296
4485,0.0091,-0.0096,0.0027,-1.05,-0.24,-1.60,0.249,3.011,-5.618,-1.274
4495,0.0084,-0.0056,0.0102,-1.04,-0.19,-1.61,0.249,3.877,-4.799,-1.139
4506,0.0088,-0.0039,0.0103,-1.02,-0.15,-1.62,0.249,4.352,-5.150,-1.279
4516,0.0144,-0.0031,0.0105,-0.99,-0.13,-1.63,0.249,5.015,-5.752,-1.451
4525,0.0146,-0.0014,0.0108,-0.95,-0.08,-1.64,0.249,5.456,-5.257,-1.822
4536,0.0148,0.0002,0.0108,-0.90,-0.03,-1.65,0.244,7.061,-4.364,-1.721
4545,0.0132,0.0054,0.0109,-0.87,0.03,-1.67,0.244,6.008,-4.033,-2.227
4556,0.0140,0.0074,0.0029,-0.83,0.09,-1.68,0.244,7.249,-3.029,-2.022
4566,0.0139,0.0089,0.0032,-0.76,0.13,-1.70,0.244,6.714,-2.799,-2.273
4576,0.0137,0.0102,0.0034,-0.70,0.18,-1.71,0.246,6.952,-2.535,-2.057
4586,0.0145,0.0095,0.0035,-0.62,0.21,-1.73,0.246,6.821,-3.082,-2.262
4595,0.0176,0.0087,0.0034,-0.54,0.21,-1.75,0.246,5.990,-2.949,-1.969
4605,0.0143,0.0190,0.0036,-0.53,0.26,-1.77,0.246,6.793,-1.900,-1.572
4615,0.0148,0.0113,0.0036,-0.41,0.28,-1.79,0.246,5.850,-2.899,-1.633
4625,0.0113,0.0124,0.0037,-0.35,0.32,-1.81,0.246,5.771,-2.312,-2.021
4636,0.0078,0.0157,0.0042,-0.29,0.35,-1.83,0.246,6.021,-3.108,-2.184
4646,0.0066,0.0206,0.0046,-0.25,0.38,-1.85,0.246,5.724,-2.581,-1.689
4655,0.0094,0.0231,0.0041,-0.20,0.39,-1.87,0.246,7.344,-3.735,-2.346
4666,0.0079,0.0235,0.0046,-0.13,0.42,-1.89,0.246,6.579,-0.610,-1.784
4676,0.0072,0.0238,0.0049,-0.07,0.44,-1.91,0.245,6.771,0.148,-1.600
4685,0.0064,0.0320,0.0049,-0.05,0.46,-1.93,0.245,4.958,0.029,-1.159
4695,0.0029,0.0297,0.0021,0.03,0.49,-1.95,0.245,6.204,1.745,-0.996
4705,0.0021,0.0296,0.0026,0.10,0.50,-1.97,0.245,7.715,2.077,-1.081
4716,0.0033,0.0269,0.0031,0.17,0.49,-1.99,0.245,5.429,3.355,-0.323
4726,0.0044,0.0247,0.0034,0.25,0.47,-2.00,0.245,7.193,2.254,-1.235
4735,0.0035,0.0241,0.0040,0.31,0.45,-2.01,0.245,8.109,2.882,-1.486
4746,0.0032,0.0272,0.0046,0.36,0.43,-2.02,0.245,7.141,-0.516,-0.610
4756,0.0024,0.0266,0.0029,0.43,0.41,-2.03,0.245,8.885,1.766,-1.118
4766,-0.0001,0.0276,0.0035,0.50,0.39,-2.04,0.245,6.607,2.627,-0.402
4775,-0.0024,0.0302,0.0037,0.56,0.40,-2.05,0.247,10.223,2.579,-1.440
4786,-0.0025,0.0285,0.0042,0.64,0.39,-2.06,0.247,5.663,1.799,-0.907
4795,-0.0065,0.0326,0.0073,0.70,0.38,-2.06,0.247,4.470,0.569,-0.605
4805,-0.0072,0.0314,0.0076,0.79,0.36,-2.07,0.247,2.358,0.728,-0.258
4816,-0.0078,0.0301,0.0081,0.86,0.34,-2.08,0.247,3.458,1.534,-0.919
4825,-0.0085,0.0286,0.0089,0.90,0.33,-2.09,0.247,4.553,3.309,-0.930
4835,-0.0091,0.0271,0.0095,0.93,0.32,-2.09,0.247,1.410,2.907,0.334
4845,-0.0097,0.0255,0.0100,0.96,0.32,-2.10,0.247,6.662,3.703,0.199
4855,-0.0103,0.0239,0.0112,1.02,0.30,-2.10,0.247,2.552,5.819,-0.765
4865,-0.0109,0.0222,0.0117,1.04,0.28,-2.10,0.247,3.184,5.819,-0.808
4875,-0.0114,0.0204,0.0121,1.09,0.24,-2.10,0.246,2.860,3.124,-0.401
4886,-0.0119,0.0185,0.0128,1.12,0.18,-2.10,0.246,3.273,6.045,0.134
4895,-0.0123,0.0166,0.0104,1.15,0.13,-2.11,0.246,0.761,4.502,0.508
4905,-0.0126,0.0147,0.0107,1.19,0.10,-2.11,0.246,0.691,3.761,0.259
4915,-0.0128,0.0127,0.0109,1.23,0.05,-2.11,0.246,0.780,3.138,0.441
4925,-0.0188,0.0098,0.0112,1.25,0.04,-2.10,0.246,-2.984,4.166,0.828
4935,-0.0190,0.0075,0.0115,1.27,-0.01,-2.10,0.247,-1.690,2.712,0.076
4945,-0.0247,0.0054,0.0119,1.28,-0.00,-2.09,0.247,-4.000,3.270,0.628
4955,-0.0205,0.0009,0.0113,1.28,-0.06,-2.09,0.247,-6.879,4.544,1.257
4965,-0.0205,-0.0013,0.0119,1.26,-0.09,-2.08,0.247,-2.151,3.625,0.892
4975,-0.0188,-0.0048,0.0125,1.23,-0.14,-2.07,0.247,-5.970,3.818,0.878
4985,-0.0152,-0.0109,0.0127,1.20,-0.19,-2.06,0.247,-5.907,5.554,0.341
4997,-0.0133,-0.0137,0.0113,1.17,-0.23,-2.05,0.247,-6.168,5.345,1.915
5005,-0.0130,-0.0157,0.0116,1.11,-0.27,-2.04,0.247,-6.697,4.856,0.893
5015,-0.0114,-0.0205,0.0118,1.07,-0.34,-2.04,0.247,-8.446,5.736,0.890
5025,-0.0091,-0.0244,0.0120,1.02,-0.40,-2.02,0.247,-8.783,4.919,1.210
5035,-0.0115,-0.0237,0.0124,0.93,-0.44,-2.01,0.249,-8.318,3.307,1.407
5045,-0.0097,-0.0314,0.0127,0.89,-0.50,-2.00,0.249,-10.686,2.904,2.442
5055,-0.0104,-0.0347,0.0152,0.82,-0.54,-1.98,0.249,-12.452,0.571,2.569
5065,-0.0045,-0.0333,0.0157,0.73,-0.59,-1.97,0.249,-12.028,-2.223,2.034
5075,-0.0055,-0.0394,0.0158,0.66,-0.60,-1.95,0.249,-12.477,-1.177,2.765
5085,-0.0045,-0.0468,0.0159,0.57,-0.61,-1.93,0.249,-10.082,-3.110,1.134
5095,-0.0035,-0.0478,0.0158,0.44,-0.60,-1.91,0.249,-9.780,-4.256,3.037
5105,-0.0027,-0.0469,0.0159,0.31,-0.59,-1.88,0.249,-13.969,-2.003,2.406
5115,-0.0044,-0.0439,0.0159,0.19,-0.54,-1.87,0.249,-10.493,-5.579,2.241
5126,-0.0017,-0.0404,0.0160,0.07,-0.50,-1.84,0.249,-14.154,-4.816,3.728
5135,-0.0020,-0.0468,0.0162,-0.03,-0.47,-1.82,0.248,-16.496,-2.096,3.305
5145,-0.0003,-0.0526,0.0163,-0.11,-0.42,-1.79,0.248,-14.805,-2.333,3.653
5155,0.0001,-0.0536,0.0115,-0.24,-0.37,-1.76,0.248,-10.559,-4.022,2.287
5165,0.0003,-0.0508,0.0116,-0.42,-0.35,-1.72,0.248,-12.907,-0.688,1.010
5175,0.0003,-0.0482,0.0116,-0.58,-0.32,-1.69,0.249,-13.697,-1.306,2.280
5185,0.0008,-0.0472,0.0115,-0.69,-0.29,-1.66,0.249,-9.493,-1.355,3.010
5195,0.0031,-0.0461,0.0099,-0.82,-0.28,-1.65,0.249,-8.216,-4.437,2.418
5205,0.0065,-0.0581,0.0099,-0.88,-0.29,-1.63,0.249,-9.102,-3.700,1.402
5215,0.0062,-0.0587,0.0099,-0.97,-0.27,-1.60,0.249,-9.386,-2.579,1.327
5225,0.0068,-0.0570,0.0098,-1.06,-0.23,-1.57,0.249,-8.170,-0.727,2.676
5235,0.0063,-0.0558,0.0097,-1.13,-0.19,-1.56,0.250,-6.975,-0.676,2.931
5245,0.0067,-0.0539,0.0097,-1.22,-0.16,-1.55,0.250,-8.177,-1.740,2.732
5255,0.0070,-0.0518,0.0118,-1.30,-0.15,-1.52,0.250,-6.442,-4.144,2.093
5265,0.0074,-0.0496,0.0113,-1.38,-0.14,-1.49,0.250,-4.858,-4.236,2.314
5275,0.0110,-0.0522,0.0113,-1.43,-0.15,-1.46,0.249,-2.962,-7.275,2.987
5285,0.0100,-0.0512,0.0114,-1.49,-0.11,-1.44,0.249,-5.345,-4.770,3.376
5295,0.0085,-0.0541,0.0075,-1.50,-0.06,-1.41,0.249,-7.393,-3.020,3.692
5305,0.0056,-0.0488,0.0069,-1.54,0.03,-1.38,0.249,-9.300,0.170,2.964
5315,0.0064,-0.0435,0.0068,-1.61,0.08,-1.34,0.249,-6.446,-2.324,1.921
5324,0.0080,-0.0378,0.0068,-1.70,0.11,-1.31,0.249,-2.313,-6.347,2.344
5335,0.0073,-0.0398,0.0068,-1.76,0.11,-1.27,0.252,-3.099,-5.193,3.444
5345,0.0060,-0.0366,0.0070,-1.83,0.14,-1.25,0.252,-2.023,-4.342,3.424
5355,0.0058,-0.0335,0.0106,-1.86,0.19,-1.23,0.252,-0.367,-1.143,1.949
5365,0.0085,-0.0288,0.0108,-1.90,0.23,-1.19,0.252,-1.738,0.872,2.038
5375,0.0081,-0.0255,0.0108,-1.92,0.27,-1.16,0.250,-1.094,2.693,2.700
5385,0.0077,-0.0219,0.0110,-1.93,0.28,-1.13,0.250,0.506,3.384,2.509
5395,0.0073,-0.0186,0.0099,-1.95,0.28,-1.12,0.250,1.900,3.803,2.772
5405,0.0069,-0.0152,0.0100,-1.96,0.25,-1.09,0.250,6.177,-1.047,2.432
5415,0.0065,-0.0119,0.0100,-1.96,0.22,-1.07,0.250,8.269,-3.704,4.085
5425,0.0062,-0.0085,0.0103,-1.94,0.18,-1.04,0.250,8.378,-0.695,2.785
5435,0.0059,-0.0052,0.0108,-1.89,0.18,-1.02,0.252,9.411,-2.176,1.951
5444,0.0057,-0.0019,0.0114,-1.81,0.22,-0.98,0.252,10.570,-4.178,3.216
5455,0.0074,-0.0003,0.0141,-1.72,0.22,-0.95,0.252,8.908,0.729,2.615
5465,0.0071,0.0026,0.0142,-1.63,0.23,-0.92,0.252,10.417,-3.970,1.575
5475,0.0063,0.0057,0.0143,-1.53,0.26,-0.89,0.248,10.686,-0.904,3.308
5484,0.0053,0.0129,0.0144,-1.46,0.27,-0.86,0.248,7.748,0.073,3.362
5495,0.0049,0.0152,0.0035,-1.36,0.30,-0.84,0.248,9.765,0.597,1.803
5505,0.0043,0.0197,0.0035,-1.26,0.32,-0.81,0.248,8.625,0.791,3.724
5515,0.0037,0.0172,0.0034,-1.16,0.31,-0.78,0.248,9.166,2.111,1.778
5525,0.0031,0.0188,0.0032,-1.06,0.31,-0.76,0.248,10.629,3.352,2.811
5534,0.0026,0.0206,0.0032,-0.98,0.30,-0.72,0.252,11.736,1.648,1.886
5545,0.0002,0.0258,0.0032,-0.91,0.29,-0.70,0.252,10.674,0.464,2.113
5555,-0.0003,0.0275,0.0076,-0.81,0.26,-0.68,0.252,10.468,3.132,1.969
5565,-0.0003,0.0283,0.0080,-0.71,0.23,-0.66,0.252,11.065,-0.262,2.491
5575,-0.0007,0.0295,0.0084,-0.60,0.22,-0.63,0.252,11.051,1.416,2.229
5585,-0.0010,0.0292,0.0085,-0.48,0.20,-0.61,0.252,11.084,-0.620,2.480
5595,-0.0013,0.0300,0.0100,-0.36,0.20,-0.58,0.252,10.675,2.645,2.795
5604,-0.0016,0.0306,0.0103,-0.24,0.20,-0.56,0.252,10.464,-0.454,1.943
5615,-0.0040,0.0341,0.0107,-0.14,0.22,-0.53,0.252,10.496,1.657,1.687
5624,-0.0042,0.0242,0.0108,0.03,0.20,-0.50,0.252,8.830,3.384,1.475
5634,-0.0067,0.0211,0.0111,0.16,0.22,-0.49,0.246,8.469,1.133,1.970
5645,-0.0064,0.0372,0.0114,0.17,0.20,-0.47,0.246,6.741,4.324,1.294
5654,-0.0062,0.0359,-0.0050,0.27,0.18,-0.45,0.246,5.969,2.073,1.257
5665,-0.0059,0.0408,-0.0053,0.32,0.17,-0.43,0.246,4.384,4.092,1.956
5674,-0.0077,0.0374,-0.0052,0.41,0.15,-0.41,0.254,5.878,2.171,1.978
5685,-0.0080,0.0367,-0.0048,0.48,0.13,-0.40,0.254,7.412,3.194,1.540
5695,-0.0082,0.0360,0.0039,0.53,0.09,-0.38,0.254,5.714,3.893,1.990
5705,-0.0095,0.0350,0.0040,0.59,0.08,-0.36,0.254,7.299,2.970,1.400
5714,-0.0097,0.0340,0.0046,0.66,0.04,-0.35,0.254,6.130,3.350,1.847
5725,-0.0108,0.0303,0.0049,0.73,0.01,-0.33,0.254,8.191,1.523,1.097
5735,-0.0108,0.0290,0.0051,0.80,-0.03,-0.32,0.252,5.582,0.387,1.280
5745,-0.0118,0.0296,0.0056,0.84,-0.06,-0.30,0.252,6.867,3.765,1.003
5755,-0.0129,0.0303,0.0089,0.91,-0.08,-0.28,0.252,4.237,4.999,1.159
5764,-0.0118,0.0243,0.0092,0.99,-0.09,-0.27,0.252,5.182,3.564,1.332
5774,-0.0105,0.0165,0.0092,1.10,-0.13,-0.26,0.252,2.981,4.159,1.906
5784,-0.0095,0.0153,0.0094,1.15,-0.18,-0.24,0.252,1.288,3.530,1.991
5794,-0.0121,0.0143,0.0100,1.19,-0.19,-0.22,0.252,-0.447,3.590,1.693
5805,-0.0125,0.0133,0.0100,1.22,-0.23,-0.20,0.252,-2.249,3.829,1.523
5814,-0.0092,0.0046,0.0098,1.27,-0.29,-0.18,0.252,-3.774,3.502,1.022
5824,-0.0087,0.0024,0.0100,1.27,-0.32,-0.16,0.252,-5.599,1.498,0.437
5834,-0.0081,0.0002,0.0101,1.25,-0.35,-0.15,0.252,-7.795,1.791,0.950
5845,-0.0109,-0.0009,0.0099,1.21,-0.37,-0.14,0.252,-8.940,1.579,1.143
5855,-0.0134,-0.0017,0.0070,1.15,-0.37,-0.13,0.252,-8.504,0.934,0.554
5865,-0.0101,-0.0042,0.0073,1.07,-0.41,-0.12,0.252,-9.421,0.625,-0.864
5874,-0.0094,-0.0061,0.0072,0.99,-0.42,-0.12,0.250,-9.799,-0.176,1.188
5885,-0.0122,-0.0059,0.0070,0.89,-0.41,-0.11,0.250,-10.155,1.124,-0.591
5895,-0.0130,-0.0113,0.0000,0.82,-0.40,-0.11,0.250,-6.980,0.388,-1.682
5905,-0.0119,-0.0126,0.0004,0.72,-0.40,-0.10,0.250,-5.514,0.465,-1.417
5914,-0.0106,-0.0135,0.0004,0.62,-0.41,-0.11,0.250,-7.959,-1.685,1.002
5925,-0.0095,-0.0189,0.0003,0.56,-0.42,-0.12,0.250,-9.102,2.273,1.327
5935,-0.0104,-0.0181,0.0007,0.50,-0.41,-0.13,0.252,-9.226,5.849,0.184
5944,-0.0097,-0.0190,0.0010,0.42,-0.40,-0.12,0.252,-9.180,3.059,-0.390
5954,-0.0098,-0.0194,0.0015,0.33,-0.43,-0.11,0.252,-8.618,1.952,0.519
5965,-0.0099,-0.0178,0.0016,0.23,-0.48,-0.11,0.252,-9.594,4.878,-0.847
5974,-0.0091,-0.0182,0.0021,0.14,-0.51,-0.11,0.252,-5.530,1.647,0.261
5985,-0.0071,-0.0316,0.0025,0.13,-0.54,-0.11,0.252,-9.732,1.867,-0.485
5994,-0.0038,-0.0391,0.0029,0.08,-0.59,-0.11,0.252,-4.343,0.135,0.022
6005,-0.0028,-0.0392,0.0033,0.01,-0.61,-0.11,0.252,-6.715,0.483,-1.147
6015,-0.0017,-0.0392,0.0040,-0.08,-0.63,-0.11,0.252,-7.096,-0.701,-1.251
6024,-0.0042,-0.0403,0.0044,-0.12,-0.61,-0.11,0.252,-9.311,-0.415,-0.249
6034,-0.0033,-0.0353,0.0050,-0.22,-0.61,-0.12,0.249,-9.079,-0.655,-0.777
6045,-0.0023,-0.0459,0.0056,-0.22,-0.60,-0.13,0.249,-11.892,-1.420,-0.161
6055,-0.0014,-0.0455,-0.0008,-0.31,-0.58,-0.13,0.249,-11.071,-4.603,0.125
6064,-0.0010,-0.0495,0.0001,-0.37,-0.56,-0.13,0.249,-13.895,-0.384,-1.372
6075,0.0015,-0.0452,0.0009,-0.51,-0.55,-0.14,0.250,-11.792,-5.737,-0.110
6084,0.0021,-0.0446,0.0015,-0.62,-0.51,-0.14,0.250,-13.257,-0.504,0.287
6094,0.0024,-0.0437,0.0003,-0.75,-0.50,-0.15,0.250,-13.932,-3.192,-1.249
6104,0.0032,-0.0424,0.0009,-0.87,-0.46,-0.15,0.250,-10.638,-7.218,-0.073
6115,0.0037,-0.0389,0.0015,-1.02,-0.45,-0.15,0.250,-9.527,-4.635,-0.953
6124,0.0044,-0.0371,0.0022,-1.15,-0.41,-0.16,0.250,-10.055,-0.502,0.040
6134,0.0058,-0.0498,0.0031,-1.17,-0.34,-0.15,0.250,-4.882,-3.371,0.340
6144,0.0082,-0.0444,0.0038,-1.29,-0.32,-0.16,0.250,-3.689,-1.138,-1.126
6154,0.0059,-0.0394,0.0053,-1.40,-0.29,-0.16,0.250,-4.004,-0.604,-0.331
6164,0.0077,-0.0368,0.0058,-1.45,-0.26,-0.16,0.250,-2.688,0.036,-0.470
6174,0.0096,-0.0380,0.0062,-1.47,-0.26,-0.17,0.250,-0.174,-2.263,0.131
6184,0.0078,-0.0338,0.0066,-1.52,-0.24,-0.17,0.250,-3.322,-1.501,0.479
6194,0.0083,-0.0311,0.0073,-1.54,-0.24,-0.18,0.250,-0.794,-3.768,1.122
6204,0.0087,-0.0285,0.0079,-1.55,-0.22,-0.17,0.250,-0.768,-3.751,-0.170
6214,0.0104,-0.0248,0.0086,-1.58,-0.21,-0.17,0.250,-3.080,-1.042,-0.143
6224,0.0107,-0.0221,0.0093,-1.59,-0.18,-0.16,0.250,-0.834,-5.522,1.156
6234,0.0103,-0.0203,0.0101,-1.60,-0.14,-0.15,0.249,-2.259,-2.064,0.293
6244,0.0106,-0.0175,0.0107,-1.63,-0.12,-0.15,0.249,-1.074,-2.357,0.055
6254,0.0108,-0.0148,0.0059,-1.64,-0.07,-0.14,0.249,0.486,-2.090,0.588
6264,0.0121,-0.0111,0.0067,-1.67,-0.06,-0.14,0.249,2.839,-2.436,0.481
6274,0.0122,-0.0079,0.0071,-1.68,-0.03,-0.14,0.252,5.008,-4.094,0.806
6284,0.0155,-0.0052,0.0076,-1.66,-0.03,-0.13,0.252,5.867,-4.684,0.797
6294,0.0156,-0.0023,0.0107,-1.63,-0.00,-0.13,0.252,9.150,-4.821,-0.034
6304,0.0156,0.0005,0.0115,-1.58,0.03,-0.12,0.252,10.792,-4.999,0.318
6314,0.0160,0.0017,0.0121,-1.51,0.08,-0.11,0.252,9.850,-4.382,1.723
6324,0.0144,0.0066,0.0126,-1.43,0.14,-0.11,0.252,6.888,-1.741,0.906
6334,0.0189,0.0046,0.0131,-1.30,0.16,-0.10,0.252,12.123,-6.032,0.398
6344,0.0155,0.0095,0.0134,-1.22,0.22,-0.08,0.252,8.721,-0.279,1.665
6354,0.0157,0.0134,0.0138,-1.16,0.24,-0.07,0.252,8.361,-3.157,0.013
6364,0.0124,0.0132,0.0143,-1.03,0.31,-0.06,0.252,7.792,-1.239,2.532
6374,0.0118,0.0150,0.0147,-0.95,0.31,-0.05,0.255,6.177,-0.720,0.337
6384,0.0125,0.0145,0.0149,-0.85,0.34,-0.04,0.255,6.756,-2.108,1.491
6394,0.0090,0.0186,0.0202,-0.80,0.37,-0.02,0.255,6.415,-3.433,2.291
6404,0.0099,0.0238,0.0203,-0.75,0.37,-0.02,0.255,7.358,-1.144,2.430
6414,0.0093,0.0251,0.0203,-0.69,0.40,0.00,0.255,8.832,1.020,2.019
6424,0.0086,0.0263,0.0207,-0.62,0.42,0.02,0.255,7.167,3.873,1.533
6434,0.0096,0.0248,0.0209,-0.53,0.42,0.05,0.254,6.161,1.305,0.742
6444,0.0071,0.0233,0.0209,-0.42,0.42,0.07,0.254,10.773,2.220,0.093
6455,0.0045,0.0322,0.0192,-0.40,0.40,0.08,0.254,12.284,0.880,1.330
6464,0.0021,0.0300,0.0190,-0.32,0.39,0.08,0.254,11.381,1.761,1.086
6474,0.0031,0.0201,0.0186,-0.15,0.37,0.09,0.254,9.874,0.907,0.432
6484,0.0024,0.0273,0.0181,-0.07,0.36,0.10,0.254,9.285,1.176,1.643
6494,0.0040,0.0213,0.0149,0.07,0.33,0.11,0.254,9.173,0.692,0.548
6504,0.0033,0.0313,0.0148,0.13,0.33,0.12,0.254,6.226,2.576,-0.061
6514,0.0049,0.0287,0.0148,0.24,0.30,0.13,0.254,4.742,3.608,1.190
6524,0.0045,0.0336,0.0148,0.29,0.29,0.14,0.254,2.673,2.800,2.089
6534,0.0040,0.0331,0.0148,0.35,0.27,0.14,0.252,4.399,0.597,2.022
6544,0.0018,0.0326,0.0149,0.40,0.25,0.16,0.252,1.856,2.023,1.090
6554,-0.0002,0.0301,0.0091,0.44,0.23,0.17,0.252,4.624,2.157,2.515
6564,-0.0006,0.0294,0.0090,0.47,0.22,0.19,0.252,4.670,2.894,0.862
6574,0.0010,0.0267,0.0090,0.51,0.19,0.21,0.252,4.872,0.816,2.395
6584,-0.0009,0.0243,0.0091,0.57,0.18,0.23,0.252,7.266,1.098,1.306
6594,-0.0029,0.0219,0.0049,0.62,0.17,0.24,0.252,5.698,0.652,1.622
6604,-0.0045,0.0247,0.0048,0.64,0.16,0.26,0.252,4.273,-0.522,2.248
6614,-0.0047,0.0236,0.0046,0.71,0.15,0.28,0.252,5.115,1.509,2.105
6624,-0.0082,0.0264,0.0045,0.75,0.16,0.30,0.252,2.806,-0.912,1.571
6634,-0.0084,0.0251,0.0046,0.79,0.16,0.32,0.252,2.208,0.807,2.314
6644,-0.0083,0.0244,0.0047,0.84,0.15,0.34,0.252,-0.121,3.393,2.380
6654,-0.0086,0.0229,-0.0003,0.86,0.15,0.36,0.252,-0.654,3.114,1.764
6664,-0.0088,0.0215,-0.0001,0.88,0.14,0.38,0.252,-1.925,2.183,2.315
6674,-0.0081,0.0175,0.0000,0.88,0.10,0.40,0.255,0.365,4.493,2.043
6684,-0.0113,0.0158,0.0003,0.87,0.08,0.43,0.255,-1.692,3.631,1.868
6694,-0.0114,0.0143,0.0040,0.85,0.06,0.45,0.255,1.993,1.542,1.717
6704,-0.0142,0.0127,0.0044,0.85,0.03,0.47,0.255,-0.563,5.666,2.158
6714,-0.0133,0.0086,0.0048,0.85,-0.01,0.49,0.255,0.602,3.907,1.582
6724,-0.0132,0.0071,0.0054,0.86,-0.04,0.51,0.255,-2.096,2.274,1.789
6734,-0.0198,0.0054,0.0061,0.86,-0.05,0.54,0.250,-0.967,2.427,1.516
6744,-0.0225,0.0056,0.0067,0.86,-0.07,0.55,0.250,-3.740,4.135,1.666
6754,-0.0223,0.0042,-0.0003,0.84,-0.09,0.57,0.250,-5.015,6.548,1.930
6764,-0.0208,0.0013,0.0001,0.83,-0.13,0.59,0.250,-4.758,5.437,1.405
6774,-0.0205,-0.0001,0.0005,0.79,-0.17,0.61,0.250,-7.765,2.942,1.565
6784,-0.0184,-0.0088,0.0008,0.78,-0.24,0.62,0.250,-6.365,5.994,0.616
6794,-0.0247,-0.0029,-0.0033,0.69,-0.26,0.64,0.250,-8.411,3.966,1.337
6804,-0.0225,-0.0050,-0.0028,0.63,-0.30,0.65,0.250,-6.044,5.165,0.565
6814,-0.0205,-0.0065,-0.0022,0.56,-0.36,0.66,0.250,-6.086,5.302,1.578
6824,-0.0180,-0.0080,-0.0017,0.49,-0.43,0.67,0.250,-4.722,4.808,0.990
6834,-0.0172,-0.0088,-0.0012,0.43,-0.48,0.68,0.257,-3.157,3.907,1.004
6843,-0.0265,-0.0123,-0.0005,0.38,-0.47,0.70,0.257,-3.006,4.296,1.060
6854,-0.0257,-0.0130,0.0116,0.34,-0.51,0.71,0.257,-5.327,3.358,1.251
6863,-0.0212,-0.0126,0.0124,0.30,-0.57,0.72,0.257,-3.601,1.766,0.938
6874,-0.0203,-0.0131,0.0130,0.26,-0.60,0.73,0.257,-1.859,3.728,0.186
6884,-0.0101,-0.0182,0.0136,0.24,-0.68,0.74,0.257,-5.540,3.282,1.529
6893,-0.0089,-0.0187,0.0190,0.21,-0.71,0.75,0.257,-5.188,4.660,0.668
6904,-0.0227,-0.0236,0.0194,0.21,-0.65,0.76,0.257,-3.727,1.828,0.676
6914,-0.0216,-0.0239,0.0197,0.16,-0.69,0.77,0.257,-7.218,1.197,1.530
6924,-0.0192,-0.0284,0.0199,0.13,-0.74,0.78,0.257,-5.582,1.430,1.267
6934,-0.0208,-0.0286,0.0203,0.08,-0.74,0.79,0.255,-6.303,1.881,1.167
6944,-0.0186,-0.0285,0.0204,0.01,-0.75,0.81,0.255,-7.903,1.733,1.397
6953,-0.0184,-0.0264,0.0167,-0.06,-0.76,0.82,0.255,-8.617,2.310,1.220
6964,-0.0159,-0.0335,0.0166,-0.09,-0.78,0.83,0.255,-10.380,2.281,0.982
6974,-0.0157,-0.0250,0.0164,-0.22,-0.80,0.85,0.255,-8.973,2.349,0.410
6983,-0.0134,-0.0278,0.0162,-0.30,-0.83,0.86,0.255,-8.648,-0.073,0.674
6994,-0.0109,-0.0359,0.0121,-0.35,-0.86,0.87,0.255,-8.281,-2.035,0.572
7003,-0.0071,-0.0325,0.0120,-0.46,-0.89,0.88,0.255,-8.546,-0.084,1.495
7013,-0.0055,-0.0346,0.0117,-0.53,-0.88,0.89,0.255,-6.868,-2.514,0.824
7024,-0.0041,-0.0330,0.0118,-0.61,-0.86,0.89,0.255,-6.225,-0.457,0.919
7034,-0.0026,-0.0320,0.0120,-0.69,-0.85,0.91,0.252,-5.903,-3.555,0.817
7043,-0.0032,-0.0288,0.0121,-0.76,-0.82,0.92,0.252,-6.200,-1.700,1.074
7053,-0.0019,-0.0274,0.0019,-0.81,-0.80,0.92,0.252,-6.602,-3.702,0.475
7064,-0.0005,-0.0260,0.0019,-0.87,-0.77,0.93,0.252,-6.205,-5.785,-0.136
7073,0.0024,-0.0244,0.0017,-0.93,-0.77,0.94,0.252,-5.895,-4.066,0.178
7083,0.0037,-0.0228,0.0015,-0.99,-0.72,0.94,0.252,-6.237,-3.548,0.396
7094,0.0060,-0.0192,-0.0024,-1.07,-0.68,0.94,0.252,-5.207,-4.205,0.302
7103,0.0072,-0.0174,-0.0024,-1.12,-0.63,0.95,0.252,-2.029,-3.929,0.642
7113,0.0032,-0.0141,-0.0022,-1.19,-0.56,0.95,0.252,-2.119,-4.893,0.853
7124,0.0132,-0.0186,-0.0020,-1.20,-0.57,0.96,0.252,-1.193,-5.321,0.798
7134,0.0090,-0.0136,-0.0018,-1.24,-0.49,0.96,0.257,1.526,-6.153,0.260
7143,0.0127,-0.0223,-0.0015,-1.19,-0.46,0.98,0.257,4.849,-6.127,0.139
7154,0.0141,-0.0193,0.0058,-1.20,-0.41,0.98,0.257,4.454,-6.014,0.576
7163,0.0152,-0.0171,0.0065,-1.17,-0.34,0.99,0.257,3.497,-6.438,0.919
7173,0.0161,-0.0129,0.0071,-1.14,-0.28,0.99,0.254,3.429,-6.866,0.553
7184,0.0168,-0.0110,0.0077,-1.10,-0.22,1.00,0.254,2.170,-6.984,0.411
7193,0.0172,-0.0092,0.0047,-1.06,-0.15,1.01,0.254,1.531,-6.960,0.288
7204,0.0195,-0.0074,0.0052,-1.03,-0.09,1.02,0.254,1.051,-6.462,-0.421
7213,0.0196,-0.0057,0.0059,-1.01,-0.02,1.02,0.254,1.003,-4.846,-0.677
7224,0.0200,-0.0077,0.0065,-0.98,0.04,1.02,0.254,2.054,-5.464,-0.927
7233,0.0183,-0.0041,0.0069,-0.98,0.11,1.02,0.255,1.632,-4.775,-0.261
7244,0.0204,-0.0025,0.0075,-0.96,0.14,1.01,0.255,1.321,-5.091,-0.472
7253,0.0201,-0.0008,0.0075,-0.95,0.20,1.01,0.255,2.699,-4.831,-0.266
7263,0.0197,0.0008,0.0076,-0.93,0.25,1.01,0.255,2.240,-4.543,0.061
7273,0.0196,0.0099,0.0080,-0.96,0.30,1.00,0.256,4.134,-5.491,-0.579
7283,0.0214,0.0108,0.0083,-0.92,0.33,1.00,0.256,5.460,-5.022,-0.585
7294,0.0208,0.0124,0.0096,-0.90,0.38,1.00,0.256,5.686,-4.930,-0.474
7303,0.0246,0.0089,0.0098,-0.82,0.40,1.00,0.256,6.317,-4.646,-0.482
7314,0.0241,0.0072,0.0101,-0.75,0.45,1.00,0.256,7.569,-3.568,-0.295
7324,0.0235,0.0110,0.0106,-0.70,0.50,0.99,0.256,8.225,-4.666,-0.567
7333,0.0212,0.0087,0.0109,-0.62,0.55,0.99,0.256,7.822,-3.997,-0.482
7343,0.0207,0.0157,0.0110,-0.57,0.59,0.98,0.256,7.469,-4.056,-0.195
7354,0.0196,0.0167,0.0107,-0.49,0.63,0.98,0.256,7.554,-3.447,-0.911
7363,0.0231,0.0158,0.0109,-0.40,0.63,0.97,0.256,5.610,-2.080,-0.401
7373,0.0190,0.0147,0.0112,-0.32,0.68,0.97,0.257,4.168,-2.072,-0.633
7383,0.0178,0.0152,0.0114,-0.25,0.72,0.96,0.257,3.665,-2.793,-0.189
7393,0.0174,0.0142,0.0124,-0.19,0.74,0.96,0.257,3.691,-2.571,-0.566
7403,0.0151,0.0152,0.0126,-0.15,0.77,0.95,0.257,3.550,-2.256,-0.591
7413,0.0131,0.0161,0.0129,-0.11,0.78,0.95,0.257,3.369,-1.805,-0.939
7424,0.0117,0.0163,0.0130,-0.07,0.80,0.94,0.257,4.322,-0.822,-0.574
7433,0.0104,0.0164,0.0133,-0.04,0.81,0.94,0.256,3.339,-0.011,-0.280
7443,0.0085,0.0171,0.0137,-0.00,0.82,0.93,0.256,2.538,0.663,-0.578
7453,0.0071,0.0171,0.0105,0.04,0.82,0.92,0.256,3.472,1.861,-0.539
7463,0.0057,0.0170,0.0103,0.07,0.81,0.92,0.256,2.856,2.140,-0.398
7473,0.0043,0.0169,0.0102,0.10,0.80,0.91,0.254,2.521,1.503,-0.605
7483,0.0029,0.0167,0.0102,0.13,0.79,0.91,0.254,2.950,1.703,-0.344
7494,0.0016,0.0164,0.0027,0.16,0.76,0.91,0.254,3.142,2.344,-0.417
7503,-0.0015,0.0149,0.0027,0.20,0.75,0.90,0.254,2.722,2.754,-0.739
7513,-0.0022,0.0155,0.0028,0.23,0.73,0.90,0.254,3.871,3.811,-0.631
7523,-0.0026,0.0160,0.0031,0.26,0.69,0.89,0.254,3.220,3.715,-0.383
7533,-0.0029,0.0103,0.0033,0.32,0.65,0.88,0.254,2.836,4.755,-0.244
7543,-0.0052,0.0169,0.0038,0.31,0.61,0.88,0.254,2.337,3.889,-0.467
7553,-0.0070,0.0151,-0.0003,0.35,0.57,0.87,0.254,0.576,4.999,-0.009
7563,-0.0066,0.0115,-0.0000,0.40,0.51,0.87,0.254,1.372,6.181,-0.565
7573,-0.0060,0.0022,0.0001,0.46,0.44,0.86,0.254,0.426,5.888,-0.181
7583,-0.0068,0.0014,0.0005,0.48,0.39,0.86,0.254,0.260,4.755,-0.734
7593,-0.0145,0.0064,-0.0017,0.45,0.38,0.86,0.254,-0.536,4.067,-0.895
7603,-0.0118,-0.0007,-0.0013,0.49,0.31,0.85,0.254,-0.378,2.972,-0.466
7613,-0.0130,-0.0014,-0.0009,0.49,0.26,0.84,0.254,-2.374,3.455,-0.238
7623,-0.0135,-0.0022,-0.0000,0.47,0.22,0.84,0.254,-2.840,3.196,-0.228
7633,-0.0167,0.0013,0.0009,0.44,0.20,0.83,0.258,-4.083,3.143,0.013
7643,-0.0200,0.0049,0.0017,0.39,0.18,0.83,0.258,-3.956,4.005,-0.120
7654,-0.0204,0.0042,0.0099,0.36,0.15,0.83,0.258,-3.573,4.841,-0.812
7663,-0.0232,0.0062,0.0108,0.30,0.13,0.83,0.258,-4.273,5.545,-0.488
7673,-0.0218,0.0100,0.0116,0.24,0.07,0.82,0.255,-3.355,6.143,-1.116
7683,-0.0202,0.0041,0.0124,0.23,0.02,0.81,0.255,-3.248,6.125,-1.004
7693,-0.0223,0.0002,0.0093,0.21,-0.03,0.81,0.255,-2.039,7.212,-0.785
7703,-0.0243,0.0003,0.0099,0.18,-0.08,0.79,0.255,0.601,7.981,-1.041
7713,-0.0241,0.0003,0.0106,0.15,-0.14,0.79,0.255,0.216,6.537,-0.979
7723,-0.0237,0.0002,0.0113,0.14,-0.22,0.78,0.255,1.050,6.072,-0.810
7733,-0.0233,-0.0000,0.0122,0.14,-0.29,0.77,0.257,0.980,6.681,-0.407
7743,-0.0229,0.0015,0.0129,0.14,-0.35,0.76,0.257,0.042,6.559,-0.455
7753,-0.0224,0.0011,0.0147,0.15,-0.42,0.76,0.257,-1.457,6.650,0.408
7763,-0.0201,-0.0011,0.0152,0.16,-0.49,0.75,0.257,-2.350,5.500,0.510
7773,-0.0192,-0.0013,0.0156,0.15,-0.55,0.75,0.257,-1.767,4.406,0.853
7783,-0.0243,-0.0015,0.0159,0.14,-0.57,0.76,0.257,-2.793,2.544,0.810
7793,-0.0233,-0.0017,0.0148,0.12,-0.62,0.77,0.257,-2.981,2.084,1.322
7803,-0.0209,-0.0071,0.0149,0.14,-0.67,0.77,0.257,-3.338,1.093,0.703
7813,-0.0198,-0.0073,0.0153,0.11,-0.70,0.78,0.257,-3.746,1.820,0.827
7823,-0.0176,-0.0087,0.0157,0.09,-0.72,0.79,0.257,-3.578,1.950,0.560
7833,-0.0153,-0.0157,0.0159,0.11,-0.75,0.79,0.258,-3.462,1.185,0.569
7843,-0.0131,-0.0169,0.0162,0.08,-0.76,0.80,0.258,-3.830,1.133,0.146
7853,-0.0110,-0.0213,0.0166,0.07,-0.78,0.80,0.258,-5.437,0.753,0.101
7863,-0.0112,-0.0164,0.0170,0.00,-0.78,0.80,0.258,-3.953,1.934,-0.595
7874,-0.0091,-0.0206,0.0170,-0.02,-0.80,0.80,0.256,-6.370,-0.998,-0.442
7883,-0.0078,-0.0205,0.0169,-0.07,-0.80,0.80,0.256,-5.716,0.383,-0.273
7893,-0.0064,-0.0204,0.0114,-0.12,-0.81,0.80,0.256,-7.170,-1.841,-0.123
7903,-0.0066,-0.0185,0.0116,-0.20,-0.79,0.80,0.256,-7.118,-2.307,0.106
7913,-0.0050,-0.0185,0.0115,-0.26,-0.79,0.80,0.256,-7.010,-2.091,0.674
7923,-0.0036,-0.0180,0.0116,-0.33,-0.77,0.80,0.256,-7.315,-3.568,0.452
7933,-0.0023,-0.0174,0.0118,-0.39,-0.76,0.80,0.257,-5.409,-3.697,-0.008
7943,0.0006,-0.0247,0.0119,-0.42,-0.73,0.81,0.257,-3.483,-2.454,-0.016
7953,0.0012,-0.0298,0.0092,-0.45,-0.69,0.81,0.257,-4.958,-3.852,0.143
7963,0.0020,-0.0292,0.0094,-0.49,-0.66,0.81,0.257,-3.493,-4.878,0.342
7973,0.0063,-0.0321,0.0095,-0.52,-0.65,0.81,0.258,-3.500,-2.015,-0.365
7983,0.0064,-0.0275,0.0098,-0.58,-0.60,0.81,0.258,-4.357,-4.179,0.085
7993,0.0048,-0.0251,0.0097,-0.62,-0.55,0.81,0.258,-4.975,-3.960,-0.327
8004,0.0069,-0.0241,0.0101,-0.67,-0.52,0.81,0.258,-6.750,-4.613,0.579
8013,0.0089,-0.0234,0.0106,-0.71,-0.49,0.81,0.258,-7.478,-4.322,-0.120
8023,0.0088,-0.0222,0.0107,-0.77,-0.45,0.81,0.258,-7.139,-5.545,-0.626
8033,0.0105,-0.0190,0.0110,-0.84,-0.42,0.81,0.259,-5.503,-4.381,-0.170
8043,0.0112,-0.0176,0.0114,-0.92,-0.36,0.81,0.259,-4.291,-4.318,-0.265
8053,0.0145,-0.0180,0.0128,-0.97,-0.33,0.81,0.259,-2.736,-5.187,-1.000
8063,0.0140,-0.0187,0.0134,-1.01,-0.28,0.81,0.259,-0.844,-6.092,-0.776
8073,0.0170,-0.0248,0.0138,-1.00,-0.25,0.81,0.261,-0.161,-5.090,-0.612
8083,0.0178,-0.0219,0.0144,-1.03,-0.19,0.80,0.261,0.766,-4.472,-0.653
8093,0.0169,-0.0213,0.0186,-1.02,-0.13,0.79,0.261,1.014,-5.117,-1.249
8103,0.0157,-0.0117,0.0190,-1.06,-0.08,0.79,0.261,1.327,-5.315,-1.030
8113,0.0181,-0.0148,0.0193,-1.03,-0.04,0.78,0.261,1.721,-5.392,-1.554
8123,0.0185,-0.0160,0.0198,-1.01,0.02,0.77,0.261,1.243,-3.464,-1.159
8132,0.0189,-0.0139,0.0201,-0.99,0.06,0.76,0.259,1.104,-3.810,-0.957
8143,0.0189,-0.0139,0.0201,-0.99,0.06,0.76,0.259,1.774,-3.040,-0.902
8152,0.0173,-0.0137,0.0152,-0.97,0.11,0.74,0.259,3.190,-2.659,-1.019
8163,0.0178,-0.0101,0.0153,-0.98,0.15,0.73,0.259,0.461,-4.030,-1.225
8172,0.0175,-0.0084,0.0153,-0.96,0.18,0.73,0.258,0.360,-1.368,-1.082
8182,0.0172,-0.0068,0.0153,-0.94,0.22,0.72,0.258,-0.362,-4.211,-0.800
8193,0.0175,-0.0053,0.0090,-0.92,0.24,0.71,0.258,1.231,-2.827,-1.199
8202,0.0171,-0.0037,0.0086,-0.92,0.28,0.70,0.258,1.098,-0.603,-1.338
8212,0.0194,-0.0058,0.0084,-0.90,0.28,0.69,0.258,0.705,-3.134,-1.810
8222,0.0189,-0.0043,0.0081,-0.89,0.32,0.68,0.258,3.297,-1.489,-1.353
8232,0.0170,0.0028,0.0082,-0.91,0.34,0.66,0.259,4.396,-3.480,-1.955
8242,0.0172,0.0037,0.0084,-0.90,0.37,0.65,0.259,5.091,-2.150,-1.935
8252,0.0171,0.0082,0.0061,-0.89,0.40,0.63,0.259,6.154,-2.367,-2.076
8263,0.0164,0.0097,0.0065,-0.85,0.43,0.62,0.259,5.814,0.072,-1.531
8272,0.0129,0.0137,0.0067,-0.81,0.47,0.60,0.258,5.014,-2.505,-1.592
8282,0.0133,0.0156,0.0066,-0.76,0.48,0.58,0.258,5.509,-0.149,-2.092
8293,0.0125,0.0169,0.0025,-0.70,0.50,0.57,0.258,6.888,0.156,-1.881
8302,0.0130,0.0166,0.0025,-0.63,0.51,0.55,0.258,7.275,0.080,-2.148
8313,0.0122,0.0176,0.0025,-0.58,0.52,0.53,0.258,7.428,-0.009,-1.568
8323,0.0127,0.0169,0.0026,-0.51,0.52,0.51,0.258,7.424,2.288,-1.938
8333,0.0118,0.0178,0.0027,-0.44,0.52,0.49,0.258,8.458,-0.035,-1.889
8342,0.0109,0.0185,0.0030,-0.36,0.51,0.47,0.258,8.864,2.002,-1.706
8353,0.0101,0.0191,0.0002,-0.29,0.50,0.46,0.258,9.435,-0.579,-1.794
8363,0.0092,0.0196,0.0005,-0.21,0.49,0.44,0.258,8.446,-0.611,-1.997
8373,0.0062,0.0177,0.0011,-0.12,0.49,0.42,0.259,6.687,-0.641,-2.319
8383,0.0053,0.0179,0.0017,-0.03,0.48,0.40,0.259,6.836,1.082,-2.533
8392,0.0041,0.0220,0.0024,0.03,0.49,0.38,0.259,4.827,2.371,-2.072
8403,0.0032,0.0241,0.0024,0.10,0.50,0.36,0.259,4.438,2.883,-2.914
8412,0.0007,0.0301,0.0026,0.13,0.50,0.34,0.259,4.291,2.415,-2.003
8423,-0.0017,0.0278,0.0030,0.20,0.49,0.31,0.259,2.930,0.477,-2.140
8432,-0.0020,0.0239,0.0033,0.27,0.46,0.29,0.260,2.248,0.330,-2.059
8442,-0.0025,0.0240,0.0037,0.31,0.43,0.27,0.260,3.370,3.556,-2.177
8453,-0.0013,0.0221,0.0063,0.35,0.41,0.25,0.260,2.956,2.601,-1.567
8463,-0.0033,0.0205,0.0068,0.39,0.42,0.22,0.260,5.203,4.315,-1.878
8473,-0.0036,0.0168,0.0072,0.43,0.39,0.20,0.258,4.701,2.253,-1.515
8482,-0.0053,0.0149,0.0077,0.47,0.37,0.19,0.258,4.799,4.242,-1.623
8492,-0.0052,0.0148,0.0045,0.50,0.33,0.17,0.258,3.740,4.985,-0.723
8502,-0.0072,0.0125,0.0051,0.56,0.30,0.15,0.258,3.983,4.254,-0.920
8513,-0.0067,0.0123,0.0055,0.61,0.28,0.14,0.258,3.225,3.704,-1.651
8523,-0.0098,0.0120,0.0063,0.65,0.24,0.13,0.258,-0.220,5.518,-0.514
8532,-0.0094,0.0116,0.0069,0.69,0.20,0.11,0.260,-0.146,2.966,-1.921
8543,-0.0102,0.0117,0.0072,0.73,0.16,0.10,0.260,-2.567,4.513,-1.194
8552,-0.0105,0.0105,0.0091,0.74,0.11,0.09,0.260,-2.793,2.814,-2.037
8562,-0.0095,0.0074,0.0096,0.75,0.07,0.08,0.260,-3.741,5.149,-1.282
8572,-0.0090,0.0044,0.0102,0.75,0.02,0.07,0.264,-3.586,3.276,-0.619
8582,-0.0097,0.0018,0.0105,0.73,-0.01,0.05,0.264,-2.375,2.083,-1.522
8593,-0.0088,-0.0022,0.0195,0.71,-0.06,0.04,0.264,-2.607,3.302,-1.355
8602,-0.0099,-0.0010,0.0200,0.65,-0.09,0.03,0.264,-4.122,4.047,-0.645
8612,-0.0107,-0.0032,0.0205,0.62,-0.11,0.02,0.264,-4.408,0.786,-0.378
8622,-0.0096,-0.0072,0.0208,0.60,-0.15,0.01,0.264,-3.487,2.021,-0.750
8632,-0.0105,-0.0091,0.0214,0.58,-0.18,0.00,0.263,-4.312,3.449,-0.254
8642,-0.0114,-0.0094,0.0222,0.54,-0.19,-0.00,0.263,-3.586,2.459,-0.944
8652,-0.0110,-0.0103,0.0229,0.51,-0.21,-0.01,0.263,-4.769,1.593,-0.494
8663,-0.0119,-0.0103,0.0233,0.46,-0.23,-0.02,0.263,-6.114,0.320,-0.806
8673,-0.0161,-0.0117,0.0235,0.43,-0.23,-0.02,0.257,-7.260,1.743,-0.644
8682,-0.0167,-0.0112,0.0235,0.37,-0.24,-0.03,0.257,-7.915,2.839,-0.637
8693,-0.0139,-0.0121,0.0087,0.32,-0.27,-0.04,0.257,-6.518,1.496,-0.555
8702,-0.0134,-0.0127,0.0086,0.25,-0.28,-0.04,0.257,-8.428,3.749,-0.394
8712,-0.0140,-0.0168,0.0086,0.20,-0.29,-0.05,0.257,-7.616,1.173,-0.133
8722,-0.0135,-0.0172,0.0089,0.12,-0.31,-0.06,0.257,-7.448,1.975,-0.011
8733,-0.0140,-0.0193,0.0091,0.06,-0.34,-0.06,0.261,-6.468,3.088,-0.327
8743,-0.0134,-0.0194,0.0091,-0.02,-0.36,-0.06,0.261,-5.847,3.375,-0.035
8752,-0.0138,-0.0177,0.0078,-0.10,-0.37,-0.06,0.261,-4.843,1.586,-0.654
8762,-0.0131,-0.0176,0.0082,-0.17,-0.40,-0.07,0.261,-3.485,-0.684,-0.571
8772,-0.0115,-0.0214,0.0083,-0.20,-0.44,-0.07,0.263,-3.660,-0.313,-0.340
8782,-0.0141,-0.0197,0.0086,-0.26,-0.45,-0.07,0.263,-4.447,1.413,-0.769
8792,-0.0075,-0.0308,0.0117,-0.24,-0.48,-0.08,0.263,-4.246,1.651,-0.105
8802,-0.0067,-0.0304,0.0121,-0.27,-0.48,-0.08,0.263,-4.532,-1.412,0.410
8812,-0.0053,-0.0337,0.0124,-0.29,-0.49,-0.09,0.263,-4.786,1.175,-0.023
8822,-0.0045,-0.0332,0.0130,-0.33,-0.51,-0.09,0.263,-7.610,0.041,-0.250
8832,-0.0036,-0.0326,0.0135,-0.38,-0.50,-0.09,0.259,-7.520,0.499,-0.511
8842,-0.0043,-0.0298,0.0138,-0.44,-0.49,-0.09,0.259,-7.683,-0.674,-0.152
8852,-0.0034,-0.0290,0.0050,-0.51,-0.50,-0.09,0.259,-9.249,-0.741,0.075
8862,-0.0024,-0.0278,0.0053,-0.58,-0.50,-0.10,0.259,-8.251,-1.167,-0.069
8873,-0.0016,-0.0268,0.0055,-0.66,-0.50,-0.10,0.260,-8.915,-1.999,0.400
8883,-0.0007,-0.0257,0.0057,-0.75,-0.49,-0.10,0.260,-6.856,-4.423,0.037
8892,0.0001,-0.0300,0.0030,-0.80,-0.48,-0.10,0.260,-6.976,-4.782,0.308
8902,0.0022,-0.0262,0.0034,-0.90,-0.47,-0.10,0.260,-5.843,-3.928,0.474
8912,0.0022,-0.0324,0.0037,-0.94,-0.43,-0.09,0.260,-4.289,-1.429,0.716
8922,0.0021,-0.0306,0.0040,-1.00,-0.39,-0.09,0.260,-2.326,-1.732,0.489
8933,0.0042,-0.0327,0.0046,-1.04,-0.35,-0.09,0.259,-1.656,-3.220,1.171
8943,0.0045,-0.0312,0.0056,-1.09,-0.33,-0.08,0.259,-1.144,-4.869,1.653
8952,0.0051,-0.0292,0.0015,-1.12,-0.32,-0.08,0.259,-0.824,-5.032,1.736
8963,0.0057,-0.0272,0.0024,-1.14,-0.29,-0.06,0.259,-1.976,-4.736,2.004
8973,0.0062,-0.0253,0.0030,-1.15,-0.25,-0.05,0.260,-1.959,-3.663,2.344
8982,0.0074,-0.0222,0.0037,-1.16,-0.20,-0.03,0.260,-3.598,-0.445,2.718
8992,0.0078,-0.0202,0.0035,-1.17,-0.15,-0.01,0.260,-2.354,-2.226,2.999
9002,0.0080,-0.0182,0.0041,-1.20,-0.11,0.01,0.260,-3.166,-2.365,2.981
9012,0.0082,-0.0161,0.0049,-1.23,-0.09,0.04,0.260,-1.735,-2.901,1.999
9023,0.0084,-0.0140,0.0057,-1.25,-0.08,0.07,0.260,-1.591,-1.990,2.103
9033,0.0101,-0.0109,0.0064,-1.28,-0.06,0.09,0.258,-0.923,-2.365,2.299
9042,0.0102,-0.0087,0.0071,-1.31,-0.04,0.12,0.258,0.812,-2.319,2.480
9052,0.0116,-0.0060,0.0024,-1.33,-0.03,0.14,0.258,2.971,-4.249,2.722
9062,0.0117,-0.0037,0.0033,-1.34,-0.01,0.16,0.258,4.254,-4.306,2.263
9072,0.0117,-0.0014,0.0038,-1.34,0.02,0.19,0.262,5.061,-4.058,2.057
9082,0.0125,0.0002,0.0044,-1.31,0.06,0.22,0.262,5.630,-3.996,2.213
9092,0.0111,0.0039,0.0105,-1.28,0.12,0.25,0.262,5.866,-3.593,2.163
9102,0.0139,0.0029,0.0114,-1.22,0.14,0.27,0.262,5.221,-4.046,3.199
9112,0.0103,0.0102,0.0120,-1.19,0.21,0.29,0.262,5.129,-2.202,2.717
9122,0.0112,0.0043,0.0129,-1.09,0.24,0.32,0.262,5.250,-1.671,2.326
9132,0.0079,0.0176,0.0136,-1.10,0.29,0.35,0.263,7.759,-3.130,2.508
9142,0.0068,0.0242,0.0140,-1.07,0.31,0.37,0.263,9.067,-2.352,2.471
9152,0.0077,0.0179,0.0183,-0.98,0.31,0.40,0.263,8.362,-1.001,2.769
9162,0.0066,0.0235,0.0189,-0.93,0.33,0.42,0.263,7.905,0.290,2.755
9172,0.0060,0.0251,0.0194,-0.85,0.35,0.44,0.261,9.698,0.529,2.638
9182,0.0054,0.0266,0.0198,-0.78,0.37,0.47,0.261,10.644,-0.291,3.473
9193,0.0086,0.0273,0.0162,-0.69,0.36,0.50,0.261,14.074,2.491,2.488
9202,0.0080,0.0285,0.0162,-0.60,0.36,0.53,0.261,12.830,-0.373,2.575
9213,0.0074,0.0282,0.0166,-0.49,0.35,0.56,0.261,11.716,0.397,3.075
9223,0.0043,0.0256,0.0167,-0.34,0.34,0.59,0.261,9.970,0.163,2.683
9232,0.0037,0.0394,0.0166,-0.28,0.35,0.61,0.265,10.078,1.922,2.148
9243,0.0029,0.0405,0.0167,-0.16,0.34,0.64,0.265,8.731,0.169,2.857
9253,0.0024,0.0438,0.0212,-0.07,0.34,0.67,0.265,9.088,2.336,1.905
9262,0.0018,0.0439,0.0211,0.02,0.32,0.70,0.265,9.084,2.460,2.213
9272,0.0015,0.0428,0.0210,0.12,0.31,0.72,0.261,8.019,-1.811,2.134
9283,0.0009,0.0426,0.0205,0.21,0.30,0.74,0.261,8.429,1.717,2.871
9293,0.0004,0.0421,0.0126,0.30,0.27,0.76,0.261,8.605,-0.742,1.905
9303,-0.0000,0.0416,0.0128,0.38,0.28,0.78,0.261,8.807,1.728,1.664
9313,-0.0005,0.0410,0.0128,0.46,0.27,0.81,0.261,9.690,1.120,0.835
9322,0.0015,0.0392,0.0127,0.55,0.26,0.83,0.261,11.521,0.346,1.162
9332,0.0011,0.0382,0.0128,0.64,0.24,0.85,0.260,8.549,2.166,1.960
9342,-0.0060,0.0512,0.0129,0.65,0.26,0.86,0.260,8.865,0.838,1.469
9353,-0.0061,0.0509,0.0039,0.76,0.26,0.87,0.260,7.600,2.375,1.524
9363,-0.0066,0.0495,0.0037,0.85,0.25,0.89,0.260,6.827,2.457,1.661
9372,-0.0082,0.0515,0.0032,0.91,0.23,0.91,0.261,7.089,1.883,1.399
9381,-0.0086,0.0499,0.0029,0.98,0.20,0.93,0.261,4.364,4.460,1.963
9392,-0.0081,0.0477,0.0001,1.05,0.18,0.95,0.261,5.292,5.763,1.615
9402,-0.0085,0.0457,0.0004,1.11,0.16,0.96,0.261,5.541,6.534,2.659
9412,-0.0087,0.0438,0.0006,1.16,0.11,0.98,0.261,6.196,3.848,1.807
9422,-0.0096,0.0389,0.0006,1.24,0.07,1.00,0.261,3.433,3.363,2.878
9432,-0.0154,0.0384,0.0009,1.29,0.04,1.02,0.262,3.925,6.702,2.643
9442,-0.0143,0.0362,0.0012,1.35,0.00,1.04,0.262,4.971,3.261,1.723
9453,-0.0142,0.0339,0.0018,1.38,-0.03,1.07,0.262,2.351,2.864,2.705
9462,-0.0151,0.0360,0.0020,1.39,-0.09,1.10,0.262,1.100,1.940,2.165
9472,-0.0149,0.0336,0.0022,1.44,-0.12,1.12,0.266,0.881,3.547,2.296
9482,-0.0146,0.0311,0.0027,1.48,-0.16,1.15,0.266,-1.149,2.517,2.481
9492,-0.0132,0.0250,0.0117,1.51,-0.18,1.17,0.266,-1.247,3.432,1.549
9502,-0.0128,0.0224,0.0120,1.51,-0.21,1.19,0.266,-3.778,2.506,1.603
9512,-0.0111,0.0103,0.0123,1.55,-0.25,1.21,0.266,-4.359,3.452,1.810
9522,-0.0106,0.0076,0.0126,1.53,-0.28,1.23,0.266,-6.033,3.579,2.198
9533,-0.0113,0.0125,0.0130,1.45,-0.31,1.26,0.265,-5.588,3.914,1.526
9542,-0.0095,0.0038,0.0133,1.44,-0.35,1.28,0.265,-6.497,3.127,1.703
9551,-0.0101,0.0021,0.0150,1.38,-0.38,1.30,0.265,-6.624,3.304,0.954
9562,-0.0085,-0.0014,0.0151,1.34,-0.42,1.31,0.265,-6.389,1.919,0.184
9572,-0.0111,-0.0048,0.0153,1.29,-0.43,1.33,0.259,-7.213,1.205,0.348
9582,-0.0103,-0.0070,0.0155,1.23,-0.46,1.34,0.259,-9.024,0.120,0.627
9591,-0.0066,-0.0157,0.0020,1.20,-0.50,1.34,0.259,-9.545,0.311,0.656
9602,-0.0057,-0.0177,0.0019,1.12,-0.51,1.34,0.259,-9.766,-0.352,0.508
9612,-0.0044,-0.0216,0.0016,1.05,-0.52,1.35,0.259,-10.696,-0.767,1.037
9622,-0.0032,-0.0251,0.0015,0.97,-0.52,1.36,0.259,-11.565,-0.511,0.796
9631,-0.0022,-0.0260,0.0014,0.87,-0.52,1.36,0.268,-12.307,-0.005,0.608
9643,-0.0014,-0.0265,0.0014,0.77,-0.52,1.37,0.268,-13.011,-0.378,0.558
9652,-0.0004,-0.0310,0.0131,0.67,-0.51,1.38,0.268,-14.228,-0.795,0.954
9662,0.0002,-0.0308,0.0133,0.54,-0.50,1.38,0.268,-14.721,-1.583,1.170
9671,-0.0009,-0.0383,0.0136,0.45,-0.48,1.39,0.261,-14.948,-3.055,0.927
9681,0.0016,-0.0373,0.0139,0.30,-0.48,1.40,0.261,-14.253,-3.413,0.566
9692,0.0039,-0.0397,0.0041,0.17,-0.47,1.41,0.261,-13.714,-4.055,0.547
9701,0.0040,-0.0382,0.0041,0.02,-0.44,1.42,0.261,-12.358,-3.854,0.547
9712,0.0048,-0.0382,0.0042,-0.13,-0.40,1.42,0.261,-12.932,-3.665,0.323
9722,0.0086,-0.0401,0.0043,-0.26,-0.38,1.43,0.261,-12.117,-3.866,-0.283
9731,0.0082,-0.0399,0.0043,-0.39,-0.34,1.44,0.263,-12.914,-3.887,0.553
9741,0.0080,-0.0416,0.0045,-0.51,-0.29,1.44,0.263,-12.068,-4.336,0.139
9752,0.0077,-0.0430,0.0022,-0.62,-0.25,1.44,0.263,-11.438,-4.223,-0.096
9761,0.0112,-0.0460,0.0024,-0.72,-0.23,1.44,0.263,-8.476,-4.466,-0.136
9772,0.0116,-0.0447,0.0027,-0.84,-0.20,1.45,0.260,-8.582,-3.710,0.438
9781,0.0109,-0.0421,0.0029,-0.96,-0.16,1.45,0.260,-7.893,-4.051,0.746
9792,0.0111,-0.0404,-0.0049,-1.05,-0.12,1.45,0.260,-8.252,-3.722,0.755
9801,0.0101,-0.0397,-0.0050,-1.13,-0.08,1.45,0.260,-6.659,-3.787,0.785
9813,0.0101,-0.0377,-0.0050,-1.22,-0.03,1.46,0.260,-9.174,-5.742,0.915
9821,0.0149,-0.0406,-0.0046,-1.27,-0.01,1.47,0.260,-5.909,-2.673,0.996
9831,0.0135,-0.0375,-0.0044,-1.36,0.04,1.48,0.266,-7.141,-3.662,0.915
9842,0.0143,-0.0387,-0.0044,-1.42,0.09,1.49,0.266,-6.783,-4.700,0.471
9852,0.0133,-0.0358,0.0051,-1.49,0.12,1.50,0.266,-6.250,-4.101,1.050
9861,0.0137,-0.0365,0.0057,-1.54,0.15,1.51,0.266,-5.542,-3.517,0.853
9871,0.0160,-0.0316,0.0061,-1.62,0.19,1.51,0.263,-2.799,-3.212,0.759
9881,0.0145,-0.0288,0.0064,-1.69,0.23,1.52,0.263,-2.608,-3.191,1.052
9892,0.0130,-0.0262,0.0044,-1.74,0.27,1.53,0.263,-2.594,-3.864,0.470
9901,0.0125,-0.0233,0.0048,-1.78,0.30,1.54,0.263,-1.601,-3.124,0.512
9911,0.0119,-0.0202,0.0053,-1.80,0.33,1.55,0.263,1.399,-2.511,0.886
9921,0.0141,-0.0161,0.0058,-1.83,0.35,1.56,0.263,2.256,-1.330,0.762
9931,0.0134,-0.0130,0.0060,-1.85,0.39,1.57,0.262,1.184,-3.207,0.670
9941,0.0126,-0.0098,0.0061,-1.84,0.41,1.58,0.262,4.134,-1.727,0.833
9951,0.0118,-0.0068,0.0019,-1.81,0.42,1.58,0.262,6.121,0.232,0.630
9961,0.0110,-0.0037,0.0021,-1.80,0.45,1.59,0.262,5.104,-1.633,1.131
9971,0.0102,-0.0006,0.0025,-1.76,0.47,1.60,0.262,6.418,-1.644,0.115
9981,0.0109,0.0014,0.0027,-1.70,0.47,1.61,0.262,7.158,-0.821,0.220
9991,0.0100,0.0042,0.0003,-1.64,0.48,1.62,0.262,10.114,0.835,0.770
10001,0.0105,0.0057,0.0004,-1.57,0.49,1.63,0.262,8.323,0.218,0.967
10011,0.0096,0.0084,0.0010,-1.50,0.50,1.63,0.262,5.956,-1.479,1.047
10021,0.0087,0.0109,0.0013,-1.40,0.49,1.64,0.262,8.024,-0.256,1.168
10031,0.0049,0.0180,0.0015,-1.35,0.50,1.65,0.260,8.669,0.702,1.431
10041,0.0103,0.0139,0.0017,-1.24,0.48,1.66,0.260,8.302,0.097,1.364
10051,0.0094,0.0159,-0.0045,-1.16,0.48,1.68,0.260,7.996,-0.198,1.087
10061,0.0034,0.0290,-0.0043,-1.15,0.51,1.69,0.260,8.868,-0.564,0.929
10071,0.0025,0.0310,-0.0040,-1.07,0.51,1.70,0.264,11.135,1.051,0.554
10081,-0.0005,0.0337,-0.0036,-0.98,0.52,1.71,0.264,11.065,1.763,0.404
10091,0.0010,0.0343,0.0020,-0.88,0.50,1.72,0.264,11.784,2.219,0.505
10101,0.0001,0.0357,0.0019,-0.77,0.49,1.72,0.264,12.934,2.404,0.437
10111,0.0015,0.0361,0.0021,-0.66,0.46,1.73,0.264,12.015,2.739,0.906
10121,0.0006,0.0372,0.0027,-0.55,0.45,1.74,0.264,10.413,1.211,0.426
10131,-0.0002,0.0381,0.0033,-0.44,0.43,1.74,0.260,10.577,2.126,0.622
10141,0.0021,0.0347,0.0036,-0.29,0.39,1.75,0.260,11.395,2.247,-0.690
10151,-0.0029,0.0510,-0.0023,-0.26,0.38,1.75,0.260,8.851,2.768,-0.006
10161,-0.0053,0.0555,-0.0021,-0.15,0.36,1.75,0.260,10.987,2.393,0.374
10171,-0.0059,0.0557,-0.0018,-0.02,0.33,1.75,0.259,11.722,2.335,0.141
10181,-0.0065,0.0557,-0.0015,0.09,0.29,1.75,0.259,11.235,1.590,0.327
10191,-0.0039,0.0510,-0.0062,0.23,0.25,1.75,0.259,10.507,2.136,0.211
10201,-0.0061,0.0509,-0.0062,0.35,0.23,1.75,0.259,11.632,3.048,-0.052
10211,-0.0065,0.0503,-0.0061,0.46,0.22,1.76,0.259,12.183,3.907,-0.582
10221,-0.0062,0.0562,-0.0059,0.53,0.19,1.76,0.259,12.208,3.363,-1.704
10231,-0.0081,0.0575,-0.0053,0.64,0.16,1.76,0.261,12.184,2.069,-1.161
10241,-0.0099,0.0543,-0.0045,0.76,0.14,1.75,0.261,10.832,2.764,-0.743
10251,-0.0117,0.0508,-0.0020,0.89,0.13,1.74,0.261,10.029,1.031,-1.033
10261,-0.0112,0.0517,-0.0016,0.99,0.11,1.73,0.261,9.612,2.604,-0.717
10271,-0.0113,0.0500,-0.0011,1.10,0.08,1.72,0.261,8.223,3.916,-1.043
10281,-0.0106,0.0466,-0.0006,1.20,0.06,1.71,0.261,8.027,4.467,-1.650
10292,-0.0107,0.0445,0.0013,1.30,0.04,1.70,0.261,5.098,3.335,-0.583
10301,-0.0107,0.0420,0.0017,1.39,0.00,1.69,0.261,3.810,3.710,-1.256
10311,-0.0117,0.0366,0.0020,1.48,-0.03,1.68,0.261,4.238,3.645,-0.758
10321,-0.0115,0.0341,0.0022,1.53,-0.07,1.67,0.261,2.256,3.729,-1.374
10331,-0.0083,0.0296,0.0027,1.59,-0.12,1.66,0.259,1.914,4.928,-0.797
10341,-0.0137,0.0338,0.0032,1.58,-0.13,1.66,0.259,0.887,3.575,-1.247
10351,-0.0134,0.0312,-0.0004,1.60,-0.16,1.65,0.259,-2.332,2.666,-1.389
10361,-0.0121,0.0251,-0.0001,1.63,-0.20,1.64,0.259,-3.300,0.150,-1.310
10371,-0.0117,0.0223,0.0003,1.63,-0.23,1.63,0.262,-3.554,3.267,-1.331
10381,-0.0127,0.0192,0.0004,1.62,-0.25,1.62,0.262,-3.154,2.748,-2.484
10391,-0.0110,0.0140,0.0050,1.61,-0.26,1.60,0.262,-5.070,-1.346,-1.885
10401,-0.0099,0.0096,0.0056,1.58,-0.29,1.59,0.262,-5.021,1.132,-1.595
10411,-0.0089,0.0055,0.0061,1.55,-0.31,1.57,0.262,-5.678,2.263,-1.465
10421,-0.0075,-0.0027,0.0061,1.53,-0.32,1.55,0.262,-6.535,0.883,-1.226
10431,-0.0069,-0.0053,0.0062,1.48,-0.32,1.53,0.259,-8.936,-0.938,-1.160
10441,-0.0061,-0.0103,0.0068,1.43,-0.34,1.52,0.259,-7.768,1.777,-1.823
10451,-0.0054,-0.0127,0.0026,1.36,-0.35,1.51,0.259,-11.661,-1.507,-2.147
10460,-0.0046,-0.0151,0.0031,1.27,-0.34,1.50,0.259,-9.918,1.584,-2.700
10471,-0.0038,-0.0186,0.0030,1.20,-0.36,1.48,0.257,-14.906,1.883,-1.721
10481,-0.0031,-0.0201,0.0030,1.08,-0.34,1.46,0.257,-16.869,-1.206,-2.362
10491,-0.0058,-0.0230,-0.0042,0.98,-0.34,1.43,0.257,-16.520,-2.950,-1.868
10501,-0.0051,-0.0246,-0.0040,0.84,-0.36,1.41,0.257,-15.685,-3.650,-2.423
10511,-0.0025,-0.0282,-0.0038,0.68,-0.36,1.39,0.257,-14.850,-4.383,-1.200
10520,-0.0025,-0.0277,-0.0036,0.51,-0.32,1.37,0.257,-12.724,-3.749,-1.429
10531,-0.0023,-0.0347,-0.0034,0.38,-0.29,1.35,0.258,-8.157,0.789,-2.269
10541,-0.0021,-0.0395,-0.0030,0.25,-0.24,1.34,0.258,-10.616,0.784,-0.905
10551,-0.0017,-0.0387,-0.0041,0.12,-0.22,1.32,0.258,-11.908,-4.360,-1.149
10561,-0.0013,-0.0388,-0.0037,0.03,-0.23,1.30,0.258,-9.758,-0.850,-1.258
10570,-0.0009,-0.0389,-0.0033,-0.08,-0.23,1.29,0.256,-10.708,-2.444,-1.632
10581,-0.0010,-0.0374,-0.0030,-0.20,-0.19,1.28,0.256,-10.140,0.439,-2.181
10591,-0.0027,-0.0342,-0.0076,-0.32,-0.17,1.27,0.256,-13.001,-2.979,-0.698
10601,0.0035,-0.0482,-0.0069,-0.34,-0.18,1.25,0.256,-11.382,-0.006,-1.002
10610,0.0035,-0.0475,-0.0061,-0.45,-0.18,1.23,0.256,-12.063,-4.092,-0.391
10620,0.0035,-0.0471,-0.0056,-0.58,-0.15,1.22,0.256,-9.311,0.094,-1.946
10631,0.0050,-0.0443,-0.0052,-0.70,-0.15,1.21,0.261,-13.416,-3.940,-0.261
10640,0.0049,-0.0477,-0.0045,-0.79,-0.11,1.21,0.261,-9.728,-0.813,-0.663
10651,0.0065,-0.0445,0.0050,-0.90,-0.12,1.19,0.261,-11.504,-2.437,-0.617
10661,0.0061,-0.0416,0.0059,-1.04,-0.08,1.18,0.261,-10.347,-5.089,0.382
10670,0.0078,-0.0441,0.0065,-1.12,-0.08,1.18,0.259,-8.941,-4.734,-1.447
10681,0.0086,-0.0389,0.0069,-1.25,-0.06,1.17,0.259,-6.960,-3.856,-0.391
10690,0.0087,-0.0368,0.0078,-1.35,-0.01,1.18,0.259,-6.135,-2.482,-1.332
10701,0.0078,-0.0393,0.0087,-1.41,0.05,1.17,0.259,-2.982,-2.936,-0.990
10710,0.0085,-0.0346,0.0095,-1.50,0.08,1.16,0.259,-3.800,-2.751,-1.772
10720,0.0059,-0.0321,0.0102,-1.55,0.12,1.15,0.259,-1.645,-0.802,-0.604
10730,0.0057,-0.0294,0.0108,-1.59,0.15,1.14,0.254,1.490,-1.313,-1.366
10741,0.0049,-0.0269,0.0114,-1.63,0.18,1.13,0.254,2.443,1.615,-1.838
10751,0.0046,-0.0242,-0.0001,-1.64,0.19,1.12,0.254,1.674,3.093,-1.839
10761,0.0059,-0.0205,0.0005,-1.64,0.19,1.10,0.254,2.438,0.563,-1.466
10770,0.0056,-0.0177,0.0010,-1.62,0.18,1.09,0.258,0.715,-2.457,-0.240
10781,0.0074,-0.0146,0.0012,-1.61,0.14,1.07,0.258,0.745,-1.095,-0.451
10791,0.0029,-0.0117,0.0029,-1.59,0.15,1.05,0.258,2.614,0.642,-0.520
10800,0.0040,-0.0090,0.0032,-1.58,0.17,1.05,0.258,1.248,-2.336,-0.948
10811,0.0037,-0.0063,0.0037,-1.56,0.18,1.05,0.258,2.492,-3.892,-1.590
10820,0.0070,-0.0075,0.0044,-1.52,0.16,1.04,0.258,0.845,-4.508,-1.178
10831,0.0078,-0.0051,0.0048,-1.50,0.17,1.03,0.260,3.878,-3.094,-0.627
10840,0.0082,-0.0026,0.0052,-1.48,0.21,1.02,0.260,6.957,-2.817,-1.797
10851,0.0110,-0.0098,0.0112,-1.40,0.23,1.01,0.260,5.053,-0.334,-0.593
10860,0.0097,-0.0099,0.0120,-1.33,0.27,1.00,0.260,9.971,0.630,-0.996
10871,0.0067,-0.0046,0.0123,-1.28,0.31,0.98,0.260,10.019,2.611,-1.256
10880,0.0062,-0.0024,0.0127,-1.21,0.30,0.97,0.260,6.663,-0.394,-1.442
10890,0.0094,-0.0016,0.0144,-1.11,0.27,0.96,0.260,2.911,-1.564,-1.577
10900,0.0087,0.0007,0.0147,-1.01,0.25,0.95,0.260,3.414,0.654,-2.652
10911,0.0095,0.0018,0.0153,-0.95,0.25,0.94,0.260,5.547,-2.057,-2.817
10921,0.0105,0.0049,0.0159,-0.93,0.25,0.92,0.260,2.193,-5.425,-1.185
10930,0.0101,0.0064,0.0163,-0.89,0.25,0.89,0.261,3.820,-3.830,-1.926
10941,0.0103,0.0074,0.0164,-0.84,0.28,0.87,0.261,4.401,-3.479,-1.456
10951,0.0105,0.0099,0.0180,-0.82,0.32,0.86,0.261,2.212,-5.591,-1.505
10960,0.0110,0.0104,0.0182,-0.78,0.36,0.84,0.261,4.470,-0.753,-2.095
10970,0.0090,0.0144,0.0185,-0.76,0.41,0.82,0.262,5.732,1.961,-2.410
10980,0.0112,0.0093,0.0188,-0.69,0.44,0.81,0.262,7.177,-1.716,-1.832
10991,0.0103,0.0112,0.0197,-0.65,0.44,0.79,0.262,9.456,0.455,-1.838
11000,0.0108,0.0111,0.0196,-0.59,0.43,0.77,0.262,5.301,-2.608,-1.536
11010,0.0117,0.0140,0.0193,-0.52,0.42,0.76,0.262,8.269,0.763,-2.263
11021,0.0101,0.0202,0.0192,-0.47,0.43,0.74,0.262,8.005,0.607,-2.323
11030,0.0091,0.0143,0.0193,-0.37,0.45,0.72,0.261,3.100,-1.370,-1.274
11040,0.0066,0.0199,0.0196,-0.32,0.45,0.69,0.261,5.398,0.216,-3.190
11050,0.0058,0.0204,0.0159,-0.25,0.45,0.67,0.261,5.356,-0.281,-2.658
11061,0.0051,0.0227,0.0155,-0.22,0.46,0.66,0.261,2.456,-1.671,-2.836
11070,0.0023,0.0269,0.0151,-0.19,0.47,0.63,0.259,5.126,-4.756,-2.940
11080,0.0015,0.0272,0.0147,-0.14,0.48,0.61,0.259,5.891,-1.227,-2.652
11090,0.0021,0.0257,0.0068,-0.09,0.49,0.58,0.259,11.251,0.075,-3.322
11100,0.0025,0.0260,0.0073,-0.04,0.53,0.55,0.259,12.264,2.806,-3.963
11110,0.0014,0.0257,0.0074,0.03,0.54,0.52,0.259,5.054,2.683,-2.561
11120,0.0005,0.0256,0.0074,0.14,0.53,0.49,0.259,2.975,-1.137,-3.281
11131,0.0021,0.0233,0.0074,0.27,0.48,0.45,0.260,6.056,2.113,-3.624
11140,0.0011,0.0268,0.0074,0.29,0.47,0.42,0.260,9.769,7.550,-3.865
11150,-0.0032,0.0337,0.0042,0.28,0.49,0.39,0.260,9.248,4.740,-2.835
11160,-0.0048,0.0344,0.0044,0.33,0.47,0.36,0.260,3.849,-0.447,-3.386
11170,-0.0056,0.0339,0.0045,0.43,0.39,0.32,0.262,3.200,4.959,-3.687
11180,-0.0059,0.0362,0.0044,0.50,0.35,0.30,0.262,4.620,0.896,-3.531
11190,-0.0065,0.0353,0.0060,0.55,0.34,0.26,0.262,6.632,3.197,-3.697
11200,-0.0064,0.0347,0.0061,0.58,0.30,0.23,0.262,4.234,4.082,-3.751
11210,-0.0069,0.0337,0.0068,0.62,0.29,0.19,0.262,5.741,2.632,-2.961
11220,-0.0074,0.0327,0.0074,0.68,0.25,0.15,0.262,7.110,6.052,-3.383
11230,-0.0079,0.0315,0.0077,0.73,0.21,0.12,0.263,4.757,2.019,-2.634
11241,-0.0088,0.0277,0.0080,0.82,0.18,0.08,0.263,5.552,4.130,-3.770
11250,-0.0092,0.0263,0.0108,0.89,0.13,0.05,0.263,8.508,4.627,-3.194
11260,-0.0143,0.0322,0.0110,0.91,0.13,0.02,0.263,9.927,5.612,-2.722
11270,-0.0134,0.0319,0.0112,0.97,0.09,-0.01,0.261,4.256,3.422,-3.115
11280,-0.0125,0.0264,0.0115,1.06,0.04,-0.04,0.261,2.534,2.442,-2.693
11290,-0.0137,0.0252,0.0076,1.13,0.00,-0.07,0.261,4.318,4.785,-3.014
11300,-0.0137,0.0233,0.0079,1.17,-0.04,-0.10,0.261,-0.503,3.968,-2.485
11310,-0.0137,0.0213,0.0081,1.19,-0.06,-0.12,0.261,0.008,1.359,-2.636
11320,-0.0147,0.0243,0.0087,1.19,-0.08,-0.15,0.261,1.372,2.501,-1.962
11330,-0.0146,0.0222,0.0092,1.20,-0.12,-0.18,0.262,-0.105,3.725,-2.768
11340,-0.0153,0.0193,0.0096,1.19,-0.14,-0.21,0.262,-1.733,3.780,-3.186
11350,-0.0151,0.0172,0.0087,1.19,-0.17,-0.23,0.262,-1.037,3.255,-3.255
11360,-0.0134,0.0125,0.0088,1.20,-0.21,-0.26,0.262,-2.481,2.231,-3.432
11371,-0.0119,0.0062,0.0092,1.20,-0.25,-0.29,0.260,-3.729,3.029,-2.560
11381,-0.0114,0.0042,0.0098,1.19,-0.29,-0.32,0.260,-2.122,3.311,-2.869
11390,-0.0099,0.0002,0.0043,1.18,-0.34,-0.35,0.260,-1.730,3.778,-3.321
11400,-0.0126,-0.0014,0.0046,1.15,-0.35,-0.37,0.260,-1.560,3.917,-3.461
11410,-0.0120,-0.0034,0.0045,1.12,-0.39,-0.40,0.260,-5.663,1.441,-2.236
11420,-0.0145,0.0014,0.0046,1.06,-0.40,-0.43,0.260,-3.689,1.691,-3.386
11430,-0.0127,-0.0020,0.0050,1.04,-0.44,-0.47,0.262,-7.877,1.370,-2.652
11440,-0.0115,-0.0067,0.0057,1.01,-0.46,-0.49,0.262,-11.117,-1.388,-3.050
11450,-0.0107,-0.0085,0.0065,0.96,-0.48,-0.52,0.262,-9.391,0.365,-2.885
11460,-0.0099,-0.0101,0.0067,0.87,-0.48,-0.55,0.262,-8.895,0.920,-2.491
11470,-0.0091,-0.0116,0.0069,0.78,-0.48,-0.58,0.259,-6.608,0.334,-3.280
11480,-0.0081,-0.0153,0.0072,0.70,-0.48,-0.61,0.259,-7.178,0.058,-2.988
11490,-0.0073,-0.0164,0.0008,0.60,-0.48,-0.64,0.259,-7.510,-0.774,-3.066
11500,-0.0044,-0.0344,0.0012,0.62,-0.49,-0.67,0.259,-8.275,-1.805,-2.625
11510,-0.0036,-0.0355,0.0014,0.54,-0.49,-0.70,0.259,-8.028,-0.494,-3.189
11520,-0.0028,-0.0364,0.0016,0.47,-0.48,-0.73,0.259,-8.915,-1.521,-2.980
11530,-0.0020,-0.0389,0.0020,0.40,-0.47,-0.76,0.263,-8.676,-1.314,-3.144
11540,-0.0012,-0.0409,0.0028,0.33,-0.47,-0.79,0.263,-10.093,-1.967,-3.185
11550,-0.0026,-0.0385,0.0078,0.23,-0.44,-0.82,0.263,-12.918,-1.947,-3.279
11560,-0.0001,-0.0355,0.0082,0.11,-0.43,-0.85,0.263,-15.196,-3.338,-3.252
11571,0.0006,-0.0346,0.0087,0.00,-0.42,-0.88,0.261,-13.288,-1.320,-3.140
11580,0.0014,-0.0346,0.0093,-0.13,-0.40,-0.91,0.261,-14.253,-2.080,-3.197
11590,0.0037,-0.0370,0.0071,-0.26,-0.38,-0.94,0.261,-14.324,-3.035,-3.271
11600,0.0036,-0.0448,0.0074,-0.36,-0.36,-0.97,0.261,-13.894,-1.787,-2.706
11610,0.0059,-0.0419,0.0076,-0.52,-0.35,-1.01,0.261,-9.832,-3.725,-4.052
11620,0.0080,-0.0435,0.0084,-0.64,-0.34,-1.04,0.261,-10.413,-2.881,-3.170
11630,0.0079,-0.0412,0.0094,-0.76,-0.31,-1.07,0.259,-4.414,-3.258,-3.358
11640,0.0078,-0.0388,0.0105,-0.87,-0.27,-1.11,0.259,-8.243,-4.822,-3.700
11650,0.0056,-0.0348,0.0043,-0.97,-0.23,-1.14,0.259,-2.898,-3.383,-3.120
11660,0.0060,-0.0332,0.0047,-1.02,-0.19,-1.18,0.259,-3.286,-2.443,-2.751
11670,0.0095,-0.0293,0.0050,-1.11,-0.16,-1.21,0.264,-5.813,-2.665,-2.493
11680,0.0071,-0.0257,0.0058,-1.15,-0.12,-1.24,0.264,-5.212,-5.450,-3.170
11690,0.0122,-0.0361,0.0132,-1.11,-0.12,-1.27,0.264,-3.673,-3.082,-2.601
11700,0.0133,-0.0320,0.0139,-1.18,-0.09,-1.30,0.264,-1.598,-4.390,-3.212
11710,0.0141,-0.0322,0.0145,-1.21,-0.04,-1.33,0.264,-2.269,-3.990,-2.419
11720,0.0152,-0.0305,0.0153,-1.24,-0.01,-1.35,0.264,-2.855,-3.340,-2.636
11730,0.0142,-0.0290,0.0161,-1.25,0.03,-1.38,0.263,-1.930,-4.572,-2.381
11740,0.0149,-0.0253,0.0170,-1.29,0.07,-1.40,0.263,-1.254,-3.508,-2.702
11750,0.0171,-0.0275,0.0174,-1.29,0.10,-1.43,0.263,-3.755,-6.005,-2.561
11760,0.0162,-0.0205,0.0179,-1.33,0.13,-1.45,0.263,0.395,-3.456,-1.801
11770,0.0164,-0.0189,0.0184,-1.35,0.18,-1.48,0.261,-2.662,-3.670,-1.508
11780,0.0162,-0.0166,0.0188,-1.37,0.23,-1.50,0.261,1.471,-1.874,-1.874
11790,0.0165,-0.0134,0.0123,-1.38,0.27,-1.52,0.261,-0.974,-5.203,-1.958
11800,0.0166,-0.0145,0.0124,-1.36,0.31,-1.53,0.261,2.578,-3.909,-2.941
11809,0.0168,-0.0115,0.0127,-1.36,0.33,-1.55,0.261,3.411,-2.655,-2.091
11820,0.0163,-0.0091,0.0133,-1.36,0.38,-1.58,0.261,2.739,-3.083,-2.528
11830,0.0157,-0.0068,0.0137,-1.32,0.41,-1.60,0.263,7.355,-0.709,-2.662
11840,0.0158,-0.0024,0.0140,-1.32,0.44,-1.62,0.263,5.104,-3.899,-2.442
11850,0.0162,-0.0012,0.0137,-1.26,0.46,-1.64,0.263,4.400,-1.634,-1.547
11860,0.0130,0.0036,0.0143,-1.20,0.48,-1.67,0.263,6.445,0.048,-2.499
11870,0.0136,0.0085,0.0146,-1.17,0.50,-1.69,0.260,6.390,-0.864,-2.152
11880,0.0125,0.0111,0.0148,-1.11,0.50,-1.71,0.260,6.188,-0.715,-1.238
11890,0.0094,0.0132,0.0068,-1.04,0.52,-1.73,0.260,6.735,-1.372,-1.506
11899,0.0083,0.0171,0.0076,-0.99,0.53,-1.75,0.260,8.778,-2.034,-1.400
11909,0.0074,0.0189,0.0084,-0.93,0.54,-1.77,0.260,7.951,-1.718,-1.629
11920,0.0078,0.0206,0.0091,-0.86,0.55,-1.78,0.260,8.767,-1.751,-0.693
11930,0.0069,0.0221,0.0095,-0.77,0.57,-1.80,0.266,7.086,-2.050,-0.601
11939,0.0096,0.0285,0.0102,-0.70,0.55,-1.81,0.266,9.415,-2.049,-0.406
11949,0.0087,0.0298,0.0182,-0.62,0.56,-1.82,0.266,10.840,0.394,-0.761
11960,0.0056,0.0320,0.0191,-0.54,0.58,-1.82,0.266,11.698,2.927,-1.208
11969,0.0026,0.0379,0.0197,-0.47,0.61,-1.83,0.264,11.275,1.581,-0.203
11980,0.0015,0.0378,0.0204,-0.37,0.61,-1.84,0.264,10.468,1.718,-1.032
11990,-0.0012,0.0356,0.0190,-0.24,0.60,-1.85,0.264,12.684,2.100,-1.109
11999,-0.0018,0.0405,0.0198,-0.16,0.58,-1.85,0.264,12.193,3.285,0.002
12009,-0.0006,0.0375,0.0202,-0.03,0.55,-1.86,0.264,14.182,2.698,-1.000
12021,-0.0010,0.0362,0.0202,0.11,0.52,-1.87,0.264,11.536,4.282,0.180
12030,-0.0032,0.0328,0.0208,0.26,0.49,-1.87,0.267,9.608,4.224,1.420
12039,-0.0041,0.0324,0.0213,0.39,0.46,-1.87,0.267,6.940,7.573,1.395
12049,-0.0049,0.0318,0.0245,0.50,0.42,-1.87,0.267,7.445,5.247,1.339
12060,-0.0057,0.0452,0.0244,0.51,0.37,-1.85,0.267,7.802,7.280,0.847
12070,-0.0072,0.0436,0.0247,0.58,0.30,-1.84,0.264,9.086,5.043,0.491
12080,-0.0077,0.0426,0.0251,0.65,0.24,-1.82,0.264,7.846,3.319,0.200
12090,-0.0086,0.0461,0.0178,0.72,0.17,-1.81,0.264,6.986,3.587,1.679
12100,-0.0089,0.0448,0.0178,0.80,0.13,-1.81,0.264,4.471,3.044,1.417
12110,-0.0084,0.0427,0.0179,0.87,0.10,-1.80,0.264,7.311,3.169,1.773
12119,-0.0096,0.0390,0.0182,0.95,0.07,-1.78,0.264,5.842,2.356,1.034
12130,-0.0126,0.0388,0.0185,1.00,0.05,-1.77,0.268,4.384,3.716,2.178
12140,-0.0127,0.0371,0.0188,1.07,0.02,-1.75,0.268,7.231,2.939,1.521
12149,-0.0117,0.0368,0.0213,1.12,-0.01,-1.74,0.268,4.829,4.467,2.156
12159,-0.0117,0.0348,0.0212,1.17,-0.05,-1.72,0.268,6.678,2.646,2.009
12170,-0.0108,0.0347,0.0215,1.22,-0.08,-1.70,0.269,5.576,3.667,2.151
12180,-0.0116,0.0303,0.0217,1.29,-0.12,-1.68,0.269,4.542,5.114,2.598
12189,-0.0139,0.0339,0.0227,1.32,-0.14,-1.65,0.269,3.584,5.189,2.569
12199,-0.0145,0.0278,0.0222,1.40,-0.18,-1.63,0.269,2.912,5.127,2.599
12209,-0.0169,0.0221,0.0221,1.45,-0.21,-1.61,0.269,0.765,4.368,3.046
12220,-0.0166,0.0196,0.0223,1.49,-0.26,-1.58,0.269,-0.004,4.878,2.907
12229,-0.0114,0.0104,0.0221,1.55,-0.33,-1.55,0.268,-1.372,4.129,2.889
12240,-0.0109,0.0077,0.0215,1.56,-0.38,-1.52,0.268,-3.060,3.317,3.401
12249,-0.0112,0.0050,0.0171,1.56,-0.42,-1.49,0.268,-4.595,3.642,3.294
12260,-0.0105,0.0023,0.0169,1.54,-0.46,-1.46,0.268,-5.983,2.527,3.526
12270,-0.0144,0.0081,0.0168,1.46,-0.47,-1.43,0.267,-7.266,1.183,3.226
12280,-0.0137,0.0056,0.0162,1.41,-0.50,-1.39,0.267,-7.859,-0.446,2.817
12289,-0.0122,0.0002,0.0092,1.36,-0.52,-1.36,0.267,-8.735,-0.397,2.989
12299,-0.0114,-0.0022,0.0088,1.28,-0.53,-1.33,0.267,-9.743,-0.732,3.570
12310,-0.0122,-0.0047,0.0083,1.20,-0.51,-1.30,0.267,-9.113,-0.324,2.912
12319,-0.0109,-0.0074,0.0080,1.12,-0.51,-1.27,0.267,-9.398,0.031,3.447
12330,-0.0098,-0.0098,0.0077,1.03,-0.50,-1.24,0.269,-8.240,1.098,3.120
12340,-0.0108,-0.0117,0.0075,0.94,-0.48,-1.20,0.269,-8.594,-0.431,3.051
12349,-0.0079,-0.0135,0.0072,0.85,-0.49,-1.17,0.269,-10.524,-1.560,3.058
12359,-0.0070,-0.0147,0.0073,0.76,-0.48,-1.14,0.269,-10.215,-0.255,2.923
12369,-0.0060,-0.0159,0.0073,0.67,-0.48,-1.10,0.268,-8.195,1.374,3.198
12379,-0.0049,-0.0171,0.0068,0.58,-0.48,-1.07,0.268,-8.749,0.515,3.944
12389,-0.0024,-0.0253,0.0035,0.52,-0.48,-1.04,0.268,-7.589,0.235,3.313
