time_ms,vel_x,vel_y,vel_z,roll,pitch,yaw,range_z,gyro_x,gyro_y,gyro_z
0,0.0046,0.0171,0.0030,-0.97,0.86,-0.01,0.009,0.047,0.127,0.152
0,0.0020,0.0161,0.0034,-0.96,0.88,-0.01,0.009,0.020,-0.360,-0.098
0,-0.0041,0.0052,0.0039,-0.87,0.92,-0.00,0.010,0.056,-0.133,-0.157
0,-0.0102,-0.0127,0.0039,-0.73,0.97,0.01,0.010,-0.176,0.134,0.058
0,-0.0035,-0.0110,0.0025,-0.75,0.92,0.00,0.010,0.029,-0.117,0.050
0,-0.0118,-0.0057,0.0028,-0.79,0.98,0.00,0.010,-0.081,0.031,-0.092
0,-0.0089,-0.0055,0.0031,-0.80,0.96,0.00,0.010,-0.452,0.170,0.040
0,-0.0035,-0.0006,0.0035,-0.83,0.91,-0.00,0.009,-0.238,-0.013,0.158
0,-0.0091,0.0056,0.0038,-0.88,0.96,0.00,0.009,0.015,0.022,-0.253
0,-0.0107,0.0124,0.0000,-0.94,0.97,0.00,0.009,0.088,0.220,0.016
0,-0.0105,0.0125,0.0002,-0.94,0.97,0.00,0.009,-0.018,0.074,-0.262
0,-0.0072,0.0069,0.0005,-0.89,0.95,-0.00,0.009,0.036,-0.017,0.106
0,-0.0041,0.0078,0.0006,-0.90,0.92,-0.00,0.009,-0.218,0.187,-0.069
1,-0.0085,0.0172,0.0005,-0.97,0.96,-0.00,0.009,0.014,-0.274,-0.253
1,-0.0043,0.0011,-0.0012,-0.84,0.92,-0.00,0.009,-0.128,0.039,-0.024
1,-0.0074,0.0057,-0.0012,-0.88,0.95,-0.00,0.009,0.011,0.091,-0.004
1,-0.0034,0.0077,-0.0009,-0.89,0.92,-0.01,0.009,-0.010,0.247,-0.163
1,-0.0041,0.0098,-0.0007,-0.91,0.92,-0.01,0.009,-0.099,-0.075,-0.013
1,-0.0048,0.0083,-0.0006,-0.90,0.93,-0.01,0.009,-0.156,-0.139,-0.036
1,-0.0056,0.0101,-0.0016,-0.91,0.93,-0.01,0.009,-0.181,0.068,0.055
1,-0.0006,0.0062,-0.0010,-0.88,0.89,-0.01,0.009,-0.205,0.169,0.252
1,-0.0004,-0.0011,-0.0005,-0.82,0.89,-0.01,0.009,0.071,0.115,0.220
1,-0.0001,0.0024,-0.0001,-0.85,0.89,-0.01,0.009,-0.056,0.024,0.054
1,0.0082,0.0091,0.0001,-0.91,0.83,-0.01,0.009,-0.208,-0.191,0.269
1,0.0023,0.0031,-0.0003,-0.86,0.87,-0.00,0.009,-0.301,0.194,0.125
1,0.0001,-0.0014,0.0000,-0.82,0.89,-0.00,0.009,-0.084,-0.144,0.081
1,0.0004,0.0069,0.0003,-0.88,0.89,-0.00,0.009,0.106,-0.236,0.111
2,0.0006,-0.0014,0.0007,-0.82,0.89,-0.00,0.011,0.205,0.075,0.002
2,0.0005,0.0019,0.0046,-0.85,0.89,-0.00,0.011,-0.165,0.227,-0.177
2,0.0005,-0.0018,0.0047,-0.82,0.89,-0.00,0.011,0.186,0.059,-0.013
2,-0.0008,0.0016,0.0049,-0.85,0.90,-0.00,0.011,-0.210,0.392,0.090
2,-0.0008,0.0016,0.0052,-0.85,0.89,-0.00,0.011,-0.101,0.020,0.253
2,-0.0006,0.0016,0.0054,-0.85,0.89,-0.00,0.008,-0.077,0.021,0.119
2,-0.0016,0.0066,0.0055,-0.89,0.90,-0.00,0.008,0.130,-0.087,0.077
2,0.0074,-0.0285,0.0010,-0.60,0.83,-0.00,0.008,0.013,-0.010,0.186
2,-0.0051,-0.0224,0.0016,-0.66,0.93,0.00,0.008,-0.347,0.020,-0.150
2,-0.0194,-0.0336,0.0012,-0.57,1.04,0.01,0.008,-0.199,-0.125,0.076
2,-0.0196,-0.0272,0.0019,-0.63,1.04,0.01,0.010,-0.240,-0.027,0.154
2,-0.0160,-0.0260,0.0034,-0.64,1.02,0.01,0.010,0.241,0.058,-0.056
2,-0.0091,-0.0031,0.0043,-0.83,0.96,0.01,0.010,-0.180,-0.129,0.370
3,-0.0073,-0.0102,0.0046,-0.77,0.95,0.01,0.010,-0.052,0.217,-0.082
3,-0.0068,-0.0288,0.0047,-0.62,0.94,0.01,0.010,-0.402,-0.041,0.445
3,-0.0063,-0.0323,0.0046,-0.60,0.94,0.01,0.009,-0.151,-0.108,0.041
3,-0.0033,-0.0138,0.0058,-0.75,0.91,0.01,0.009,-0.112,0.399,-0.014
3,-0.0030,-0.0206,0.0029,-0.70,0.91,0.01,0.009,-0.212,-0.287,-0.167
3,-0.0075,-0.0271,0.0027,-0.65,0.95,0.01,0.009,-0.241,0.089,-0.003
3,-0.0071,-0.0282,0.0028,-0.65,0.94,0.01,0.009,-0.261,-0.122,-0.199
3,-0.0042,-0.0211,0.0033,-0.71,0.92,0.01,0.008,-0.441,-0.216,0.320
3,-0.0049,-0.0251,-0.0011,-0.68,0.93,0.01,0.008,-0.002,-0.228,0.102
3,-0.0046,-0.0276,-0.0010,-0.67,0.92,0.01,0.008,-0.081,0.098,-0.113
3,-0.0030,-0.0217,-0.0006,-0.72,0.91,0.01,0.008,-0.119,-0.029,0.385
3,-0.0039,-0.0230,-0.0004,-0.71,0.92,0.01,0.008,-0.393,0.178,0.056
3,-0.0034,-0.0127,0.0001,-0.79,0.92,0.01,0.010,-0.027,-0.181,-0.202
3,-0.0078,-0.0146,0.0001,-0.78,0.95,0.02,0.010,-0.119,0.094,-0.090
3,-0.0121,0.0243,0.0023,-1.09,0.98,0.02,0.010,-0.445,-0.029,-0.073
3,-0.0161,0.0279,0.0021,-1.12,1.01,0.02,0.010,-0.343,0.093,0.288
3,-0.0072,0.0336,0.0022,-1.16,0.94,0.02,0.010,-0.269,-0.213,0.149
3,-0.0055,0.0300,0.0025,-1.13,0.93,0.02,0.011,-0.057,0.195,-0.255
3,-0.0074,0.0277,0.0027,-1.11,0.94,0.02,0.011,-0.163,-0.019,0.246
3,0.0009,0.0278,0.0059,-1.11,0.87,0.01,0.011,0.068,0.181,0.282
3,-0.0036,0.0336,0.0058,-1.15,0.91,0.02,0.011,-0.128,-0.017,-0.030
3,-0.0036,0.0341,0.0060,-1.15,0.91,0.02,0.011,-0.150,0.221,-0.011
3,-0.0035,0.0292,0.0067,-1.11,0.91,0.02,0.009,-0.143,-0.027,0.292
3,0.0003,0.0362,0.0065,-1.16,0.87,0.02,0.009,0.024,-0.111,-0.222
4,-0.0008,0.0086,0.0048,-0.93,0.88,0.02,0.009,-0.310,0.219,0.185
4,0.0005,0.0001,0.0051,-0.87,0.87,0.02,0.009,-0.287,-0.235,-0.047
4,-0.0064,0.0245,0.0053,-1.06,0.92,0.02,0.009,-0.094,0.073,-0.016
4,-0.0059,0.0188,0.0056,-1.01,0.92,0.02,0.014,-0.090,0.176,0.165
4,-0.0057,0.0195,0.0136,-1.01,0.92,0.02,0.014,-0.171,-0.077,0.030
4,-0.0016,0.0185,0.0141,-1.00,0.88,0.02,0.014,-0.122,0.204,-0.159
4,-0.0050,0.0178,0.0143,-1.00,0.91,0.02,0.014,0.106,0.065,-0.009
4,-0.0045,0.0280,0.0142,-1.07,0.91,0.02,0.014,-0.283,-0.107,0.328
4,-0.0052,0.0172,0.0150,-0.98,0.91,0.02,0.011,0.134,0.012,-0.115
4,-0.0046,0.0463,0.0144,-1.22,0.91,0.02,0.011,-0.070,0.167,0.103
4,-0.0019,0.0808,0.0088,-1.49,0.89,0.01,0.011,-0.354,-0.091,0.307
4,0.0041,0.1020,0.0063,-1.65,0.84,0.02,0.011,-0.029,-0.235,-0.208
4,0.0088,0.1000,0.0071,-1.62,0.80,0.02,0.011,-0.175,-0.232,-0.332
4,0.0089,0.0994,0.0077,-1.61,0.80,0.02,0.008,-0.030,0.127,-0.017
4,0.0039,0.0899,0.0011,-1.52,0.85,0.02,0.008,0.032,0.096,-0.085
4,0.0037,0.0871,0.0017,-1.49,0.85,0.01,0.008,0.021,0.063,0.236
4,0.0049,0.0820,0.0026,-1.44,0.84,0.01,0.008,0.007,-0.248,-0.360
4,0.0061,0.0819,0.0031,-1.43,0.83,0.02,0.008,-0.222,-0.123,0.134
4,0.0060,0.0794,0.0037,-1.41,0.83,0.01,0.012,-0.070,0.018,-0.119
4,0.0060,0.0783,0.0038,-1.39,0.83,0.01,0.012,-0.249,-0.169,-0.073
4,0.0094,0.0673,0.0076,-1.29,0.81,0.02,0.012,0.100,0.225,-0.006
4,0.0034,0.0704,0.0078,-1.31,0.86,0.01,0.012,-0.370,-0.213,0.042
4,0.0034,0.0583,0.0091,-1.20,0.86,0.01,0.012,-0.160,-0.110,-0.132
4,0.0047,0.0649,0.0087,-1.25,0.85,0.01,0.014,-0.068,0.020,0.137
4,0.0047,0.0613,0.0135,-1.21,0.85,0.01,0.014,-0.100,-0.095,-0.010
4,0.0033,0.0529,0.0144,-1.14,0.86,0.02,0.014,-0.354,-0.191,0.006
4,0.0045,0.0586,0.0144,-1.18,0.85,0.02,0.014,-0.246,-0.003,-0.089
4,0.0045,0.0544,0.0152,-1.15,0.86,0.02,0.014,-0.298,-0.034,0.025
4,0.0049,0.0547,0.0155,-1.15,0.86,0.02,0.010,0.021,0.173,0.484
4,0.0097,0.0517,0.0160,-1.12,0.82,0.02,0.010,0.193,-0.154,-0.072
4,-0.0063,0.0683,0.0069,-1.25,0.95,0.00,0.010,-0.117,-0.216,-0.117
4,0.0053,0.0404,0.0100,-1.03,0.86,0.02,0.010,-0.193,-0.054,-0.067
4,0.0065,0.0334,0.0106,-0.97,0.85,0.03,0.010,-0.052,-0.247,-0.010
5,0.0063,0.0354,0.0108,-0.99,0.85,0.02,0.008,-0.054,0.279,-0.025
5,0.0014,0.0354,-0.0004,-0.99,0.89,0.02,0.008,-0.318,0.145,0.246
5,0.0096,0.0499,-0.0011,-1.10,0.83,0.02,0.008,-0.058,-0.095,-0.116
5,0.0057,0.0370,0.0003,-1.00,0.86,0.02,0.008,-0.090,-0.034,-0.185
5,0.0066,0.0387,0.0005,-1.01,0.85,0.02,0.008,-0.139,0.163,0.069
5,0.0005,0.0377,0.0010,-1.00,0.90,0.02,0.009,-0.212,-0.048,-0.175
5,0.0108,0.0380,0.0012,-1.00,0.82,0.02,0.009,-0.049,-0.155,-0.127
5,0.0139,0.0476,-0.0036,-1.08,0.79,0.02,0.009,-0.278,-0.067,0.057
5,0.0044,0.0545,-0.0035,-1.14,0.87,0.01,0.009,0.061,0.159,-0.143
5,0.0045,0.0550,-0.0032,-1.14,0.87,0.01,0.009,-0.171,0.003,-0.191
5,0.0017,0.0584,-0.0035,-1.16,0.89,0.01,0.013,-0.132,0.038,-0.043
5,0.0040,0.0544,-0.0030,-1.12,0.87,0.01,0.013,-0.416,0.399,0.016
5,0.0062,0.0535,0.0042,-1.10,0.85,0.02,0.013,-0.102,-0.020,-0.193
5,0.0036,0.0414,0.0053,-1.01,0.88,0.02,0.013,0.001,0.114,-0.178
5,0.0035,0.0405,0.0054,-1.00,0.87,0.02,0.013,-0.200,-0.242,0.024
5,0.0035,0.0430,0.0056,-1.02,0.87,0.02,0.007,-0.186,-0.047,-0.029
5,0.0012,0.0306,0.0067,-0.91,0.89,0.02,0.007,0.097,-0.133,-0.290
5,0.0048,0.0203,-0.0033,-0.84,0.87,0.03,0.007,-0.201,0.016,0.360
5,0.0034,0.0283,-0.0032,-0.90,0.88,0.02,0.007,-0.304,-0.112,0.195
5,0.0092,0.0234,-0.0028,-0.86,0.83,0.03,0.007,0.042,0.207,-0.035
5,-0.0013,0.0301,-0.0027,-0.92,0.92,0.02,0.007,-0.314,0.195,-0.003
5,0.0090,0.0091,-0.0074,-0.75,0.84,0.03,0.007,-0.170,0.063,-0.090
5,0.0007,0.0153,-0.0072,-0.80,0.91,0.03,0.007,0.067,0.117,-0.062
5,0.0008,0.0291,-0.0073,-0.92,0.90,0.03,0.007,0.047,-0.001,0.105
5,0.0010,0.0244,-0.0069,-0.88,0.90,0.03,0.007,-0.115,-0.186,0.205
5,0.0000,0.0219,-0.0068,-0.86,0.91,0.03,0.009,-0.278,0.121,0.146
5,0.0048,0.0218,-0.0065,-0.86,0.87,0.03,0.009,-0.437,0.028,0.225
5,-0.0031,0.0285,-0.0051,-0.91,0.94,0.03,0.009,0.032,-0.103,0.090
5,-0.0016,0.0214,-0.0046,-0.85,0.93,0.03,0.009,-0.059,-0.141,0.047
5,0.0010,0.0258,-0.0045,-0.89,0.91,0.03,0.009,-0.171,0.191,-0.009
5,0.0010,0.0211,-0.0041,-0.85,0.91,0.03,0.009,-0.138,0.056,0.057
5,0.0053,0.0176,-0.0027,-0.83,0.87,0.03,0.009,-0.054,0.241,0.140
5,-0.0051,0.0244,-0.0026,-0.88,0.96,0.03,0.009,-0.065,0.313,0.118
6,0.0019,0.0118,-0.0018,-0.78,0.90,0.03,0.009,0.060,0.132,-0.142
6,0.0021,0.0116,-0.0015,-0.78,0.89,0.03,0.009,-0.314,0.105,0.226
6,-0.0001,0.0155,-0.0015,-0.82,0.91,0.03,0.008,-0.264,-0.392,0.114
6,0.0024,0.0206,-0.0015,-0.86,0.89,0.03,0.008,0.029,-0.034,-0.154
6,-0.0012,0.0252,-0.0030,-0.90,0.92,0.03,0.008,-0.066,-0.240,-0.135
6,0.0025,0.0074,-0.0021,-0.75,0.89,0.03,0.008,-0.243,0.063,0.526
6,0.0013,0.0162,-0.0021,-0.82,0.90,0.03,0.008,-0.057,0.184,-0.092
6,0.0014,0.0115,-0.0018,-0.79,0.90,0.03,0.008,-0.060,-0.209,-0.038
6,0.0027,0.0165,-0.0025,-0.83,0.89,0.03,0.008,-0.166,0.056,-0.280
6,0.0084,0.0024,-0.0020,-0.72,0.84,0.03,0.008,0.132,-0.119,0.072
6,-0.0003,0.0020,-0.0016,-0.72,0.91,0.04,0.008,-0.044,0.097,-0.228
6,-0.0001,0.0015,-0.0013,-0.72,0.91,0.04,0.008,-0.483,0.250,0.138
6,0.0063,0.0071,-0.0011,-0.77,0.86,0.03,0.010,-0.145,-0.171,0.035
6,0.0025,0.0114,-0.0011,-0.80,0.89,0.03,0.010,-0.146,-0.364,-0.222
6,-0.0001,0.0074,0.0034,-0.77,0.91,0.03,0.010,-0.187,0.310,0.066
6,0.0013,0.0009,0.0037,-0.72,0.90,0.03,0.010,-0.050,0.023,-0.167
6,0.0014,0.0006,0.0040,-0.72,0.90,0.03,0.010,-0.012,0.054,-0.017
6,0.0015,0.0004,0.0040,-0.72,0.90,0.03,0.009,-0.149,-0.103,-0.147
6,0.0027,0.0107,0.0042,-0.81,0.89,0.03,0.009,-0.223,0.041,0.025
6,-0.0025,-0.0081,0.0045,-0.66,0.93,0.04,0.009,0.177,0.268,0.092
6,0.0041,-0.0015,0.0049,-0.71,0.88,0.03,0.009,0.053,0.130,0.113
6,0.0001,-0.0016,0.0054,-0.71,0.91,0.03,0.009,-0.021,0.257,0.136
6,0.0014,-0.0006,0.0057,-0.72,0.90,0.03,0.007,-0.081,-0.261,-0.022
6,0.0039,-0.0083,0.0058,-0.66,0.88,0.03,0.007,-0.004,-0.105,0.114
7,0.0147,-0.0255,-0.0000,-0.53,0.79,0.02,0.007,-0.200,0.245,-0.258
7,0.0213,-0.0569,-0.0014,-0.28,0.74,0.02,0.007,-0.284,0.304,0.250
7,0.0230,-0.0663,-0.0021,-0.21,0.73,0.02,0.007,-0.154,-0.100,-0.049
7,0.0223,-0.0765,-0.0031,-0.14,0.74,0.02,0.013,-0.356,0.047,0.046
7,0.0240,-0.0712,-0.0017,-0.20,0.73,0.02,0.013,-0.108,0.058,0.104
7,0.0231,-0.0755,0.0091,-0.18,0.74,0.02,0.013,-0.293,-0.040,0.324
7,0.0221,-0.0735,0.0097,-0.20,0.75,0.02,0.013,0.076,0.062,0.217
7,0.0235,-0.0705,0.0102,-0.24,0.74,0.02,0.013,-0.073,-0.251,0.021
7,0.0204,-0.0630,0.0115,-0.31,0.77,0.03,0.008,-0.059,-0.236,0.048
7,0.0242,-0.0363,0.0146,-0.53,0.74,0.00,0.008,-0.150,-0.020,-0.158
7,0.0198,-0.0358,0.0074,-0.54,0.78,0.02,0.008,-0.101,0.068,-0.382
7,0.0202,-0.0412,0.0077,-0.50,0.78,0.02,0.008,-0.030,0.231,-0.339
7,0.0184,-0.0657,0.0068,-0.31,0.80,0.03,0.008,-0.152,-0.066,-0.160
7,0.0187,-0.0688,0.0067,-0.29,0.80,0.03,0.011,-0.113,0.001,0.032
7,0.0156,-0.0615,0.0096,-0.36,0.82,0.03,0.011,-0.029,0.212,0.108
7,0.0136,-0.0620,0.0097,-0.36,0.84,0.04,0.011,-0.053,-0.124,-0.052
8,0.0129,-0.0605,0.0101,-0.38,0.84,0.04,0.011,-0.179,0.034,0.017
8,0.0132,-0.0612,0.0103,-0.38,0.84,0.04,0.011,-0.177,-0.038,-0.058
8,0.0175,-0.0584,0.0109,-0.41,0.81,0.03,0.008,-0.061,0.050,-0.150
8,0.0155,-0.0450,0.0125,-0.52,0.82,0.03,0.008,-0.122,0.056,-0.077
8,0.0114,-0.0531,0.0046,-0.46,0.86,0.04,0.008,-0.077,0.306,0.307
8,0.0134,-0.0414,0.0056,-0.56,0.84,0.03,0.008,-0.039,0.227,-0.232
8,0.0082,-0.0430,0.0060,-0.55,0.89,0.04,0.008,-0.309,-0.014,-0.089
8,0.0079,-0.0456,0.0064,-0.53,0.89,0.05,0.012,-0.014,0.349,0.085
8,0.0100,-0.0377,0.0105,-0.60,0.87,0.04,0.012,-0.095,-0.043,0.061
8,0.0098,-0.0394,0.0104,-0.59,0.87,0.04,0.012,-0.047,0.112,0.103
8,0.0084,-0.0399,0.0105,-0.59,0.89,0.04,0.012,-0.195,-0.026,0.031
8,0.0091,-0.0347,0.0111,-0.63,0.88,0.04,0.012,-0.327,0.380,0.133
8,0.0088,-0.0286,0.0116,-0.69,0.88,0.04,0.009,-0.288,0.004,0.386
8,0.0062,-0.0076,0.0125,-0.86,0.90,0.04,0.009,0.110,0.099,-0.293
8,0.0015,-0.0011,0.0062,-0.91,0.94,0.05,0.009,-0.252,-0.057,0.083
9,0.0039,0.0121,0.0062,-1.01,0.92,0.04,0.009,-0.146,0.288,0.266
9,0.0041,0.0124,0.0062,-1.01,0.92,0.04,0.009,0.114,0.012,-0.315
9,0.0027,0.0118,0.0065,-1.01,0.93,0.04,0.011,-0.169,-0.197,-0.018
9,0.0113,0.0063,0.0075,-0.96,0.86,0.03,0.011,-0.310,0.128,0.310
9,0.0095,0.0059,0.0078,-0.96,0.88,0.03,0.011,-0.232,0.188,-0.116
9,0.0029,0.0106,0.0080,-0.99,0.93,0.04,0.011,-0.184,0.135,0.136
9,0.0030,0.0116,0.0082,-1.00,0.93,0.04,0.011,-0.098,-0.127,0.081
9,0.0030,0.0159,0.0084,-1.03,0.93,0.04,0.011,0.078,-0.139,-0.073
9,-0.0207,0.0270,0.0080,-1.12,1.11,0.06,0.011,-0.083,-0.090,-0.210
9,-0.0209,0.0222,0.0079,-1.08,1.11,0.06,0.011,-0.488,-0.142,0.016
9,-0.0385,-0.0010,0.0082,-0.89,1.25,0.07,0.011,-0.111,-0.187,0.093
9,-0.0367,-0.0055,0.0087,-0.86,1.23,0.07,0.011,-0.408,0.186,-0.160
9,-0.0361,-0.0063,0.0089,-0.85,1.22,0.07,0.008,-0.103,-0.042,-0.068
9,-0.0346,-0.0002,0.0095,-0.90,1.21,0.07,0.008,-0.140,-0.046,-0.002
9,-0.0307,-0.0050,0.0020,-0.87,1.17,0.07,0.008,-0.015,-0.038,-0.011
9,-0.0307,0.0033,0.0023,-0.93,1.17,0.07,0.008,0.110,0.119,-0.350
9,-0.0316,0.0031,0.0025,-0.93,1.17,0.07,0.008,-0.150,-0.047,-0.077
9,-0.0301,-0.0049,0.0028,-0.87,1.15,0.06,0.008,-0.302,0.529,0.713
9,-0.0277,0.0170,0.0033,-1.04,1.13,0.07,0.008,-0.042,0.086,-0.526
9,-0.0219,0.0109,-0.0017,-0.99,1.08,0.07,0.008,-0.094,-0.263,0.163
10,-0.0210,0.0340,-0.0019,-1.17,1.07,0.08,0.008,-0.243,0.040,-0.014
10,-0.0166,0.0373,-0.0018,-1.19,1.03,0.08,0.008,-0.112,-0.216,-0.079
10,-0.0190,0.0371,-0.0016,-1.19,1.05,0.08,0.011,0.085,0.108,-0.042
10,-0.0180,0.0301,-0.0007,-1.12,1.04,0.07,0.011,-0.219,-0.007,-0.030
10,-0.0128,-0.0002,0.0042,-0.87,1.00,0.06,0.011,-0.112,-0.099,-0.101
10,-0.0342,-0.0036,0.0041,-0.85,1.17,0.05,0.011,-0.017,-0.120,-0.286
10,-0.0349,0.0010,0.0044,-0.89,1.17,0.06,0.011,-0.150,-0.255,0.093
10,-0.0345,0.0021,0.0047,-0.90,1.17,0.06,0.010,0.184,-0.166,0.032
10,-0.0296,0.0020,0.0053,-0.89,1.12,0.05,0.010,-0.139,-0.103,-0.241
10,-0.0326,0.0019,0.0042,-0.89,1.15,0.05,0.010,-0.165,-0.020,0.263
10,-0.0331,0.0020,0.0045,-0.89,1.14,0.06,0.010,-0.159,0.186,-0.250
10,-0.0305,-0.0085,0.0049,-0.81,1.12,0.05,0.010,0.030,-0.077,-0.102
10,-0.0267,0.0001,0.0056,-0.88,1.08,0.06,0.010,0.004,-0.031,-0.199
10,-0.0288,-0.0047,0.0047,-0.84,1.10,0.05,0.010,-0.130,0.422,0.198
10,-0.0251,-0.0276,0.0050,-0.65,1.07,0.03,0.010,0.148,0.063,0.081
10,-0.0262,-0.0424,0.0046,-0.53,1.07,0.02,0.010,0.036,-0.016,0.047
10,-0.0250,-0.0382,0.0052,-0.57,1.06,0.03,0.010,0.057,0.000,-0.007
10,-0.0248,-0.0422,0.0050,-0.54,1.05,0.02,0.008,-0.193,0.059,0.101
10,-0.0235,-0.0599,0.0037,-0.40,1.04,0.01,0.008,-0.154,0.152,0.037
10,-0.0198,-0.1292,-0.0076,0.15,1.01,-0.04,0.008,-0.235,0.038,0.120
10,-0.0209,-0.1543,-0.0126,0.34,1.02,-0.05,0.008,-0.095,0.114,-0.085
10,-0.0210,-0.1443,-0.0088,0.24,1.01,-0.04,0.008,-0.286,0.100,0.214
10,-0.0200,-0.1427,-0.0075,0.21,1.00,-0.04,0.009,-0.348,0.126,0.042
10,-0.0225,-0.1189,0.0001,0.00,1.02,-0.02,0.009,-0.350,0.044,-0.078
10,-0.0055,-0.1105,0.0024,-0.08,0.88,-0.04,0.009,-0.397,0.002,0.092
10,-0.0087,-0.0876,0.0064,-0.28,0.91,-0.03,0.009,-0.232,0.104,0.150
10,-0.0088,-0.0884,0.0066,-0.28,0.91,-0.03,0.009,0.011,-0.283,-0.249
10,-0.0081,-0.0779,0.0083,-0.37,0.90,-0.02,0.008,-0.216,0.164,-0.079
10,0.0048,-0.0542,0.0113,-0.56,0.80,-0.04,0.008,-0.245,-0.173,-0.002
10,0.0112,-0.0328,0.0051,-0.73,0.76,-0.04,0.008,-0.038,0.043,0.123
10,0.0110,-0.0237,0.0053,-0.80,0.76,-0.04,0.008,0.058,0.140,-0.121
10,0.0167,-0.0222,0.0055,-0.82,0.72,-0.05,0.008,0.000,0.108,0.108
11,0.0077,-0.0211,0.0063,-0.83,0.79,-0.03,0.011,0.010,0.064,-0.008
11,0.0074,-0.0211,0.0087,-0.82,0.79,-0.03,0.011,-0.139,-0.024,-0.141
11,0.0132,-0.0188,0.0089,-0.84,0.74,-0.04,0.011,-0.183,-0.105,0.104
11,0.0136,-0.0189,0.0091,-0.84,0.74,-0.04,0.011,0.182,0.080,-0.226
11,0.0132,-0.0192,0.0094,-0.84,0.75,-0.04,0.011,0.045,0.075,-0.003
11,0.0043,-0.0168,0.0099,-0.86,0.82,-0.03,0.008,0.015,-0.034,-0.155
11,0.0152,-0.0110,0.0101,-0.91,0.74,-0.04,0.008,-0.186,0.104,-0.151
11,0.0099,-0.0152,0.0032,-0.87,0.78,-0.03,0.008,0.109,0.001,-0.082
11,0.0084,0.0010,0.0037,-1.00,0.79,-0.04,0.008,-0.308,0.255,0.216
11,-0.0167,-0.0132,0.0043,-0.89,1.00,-0.01,0.008,-0.026,0.448,-0.052
11,-0.0159,-0.0089,0.0044,-0.92,0.99,-0.02,0.010,-0.150,-0.146,0.053
11,-0.0162,-0.0085,0.0047,-0.92,0.98,-0.02,0.010,-0.169,0.102,-0.171
11,-0.0162,-0.0084,0.0050,-0.92,0.98,-0.02,0.010,0.016,0.412,-0.013
11,-0.0152,-0.0116,0.0053,-0.90,0.97,-0.01,0.010,0.066,0.227,0.064
11,-0.0131,-0.0170,0.0054,-0.86,0.95,-0.01,0.010,-0.137,0.006,-0.236
11,-0.0170,-0.0101,0.0056,-0.91,0.98,-0.02,0.009,-0.005,0.045,0.219
11,-0.0077,-0.0095,0.0060,-0.92,0.91,-0.02,0.009,-0.279,-0.017,-0.172
11,-0.0048,-0.0421,0.0025,-0.65,0.88,-0.01,0.009,0.014,0.143,-0.008
11,-0.0068,-0.0695,0.0006,-0.44,0.90,-0.00,0.009,-0.082,0.286,0.062
11,-0.0097,-0.0629,0.0017,-0.50,0.92,-0.00,0.009,-0.302,-0.063,-0.357
11,-0.0079,-0.0647,0.0020,-0.49,0.91,-0.01,0.011,-0.238,0.084,-0.074
11,-0.0074,-0.0571,0.0057,-0.56,0.90,-0.01,0.011,-0.064,0.111,0.158
11,-0.0047,-0.0349,0.0076,-0.74,0.88,-0.02,0.011,-0.074,0.183,-0.032
11,-0.0034,-0.0043,0.0089,-0.99,0.87,-0.03,0.011,0.095,-0.169,-0.196
11,-0.0032,-0.0074,0.0090,-0.97,0.86,-0.03,0.011,-0.203,0.104,0.088
11,-0.0017,-0.0035,0.0089,-1.00,0.85,-0.03,0.011,-0.161,-0.253,-0.291
11,-0.0082,-0.0054,0.0091,-0.98,0.90,-0.03,0.011,0.073,-0.124,-0.182
11,0.0094,0.0224,0.0087,-1.21,0.76,-0.05,0.011,-0.068,-0.189,0.448
11,0.0047,0.0570,0.0071,-1.49,0.80,-0.06,0.011,-0.017,-0.047,0.203
11,0.0047,0.0516,0.0081,-1.43,0.80,-0.06,0.011,-0.019,-0.059,-0.089
11,0.0060,0.0498,0.0087,-1.41,0.80,-0.06,0.009,-0.194,-0.260,0.013
11,0.0038,0.0558,0.0038,-1.45,0.82,-0.06,0.009,-0.281,0.005,0.220
11,0.0027,0.0537,0.0044,-1.42,0.83,-0.06,0.009,-0.416,0.266,0.363
11,0.0050,0.0483,0.0052,-1.37,0.81,-0.05,0.009,-0.246,-0.227,-0.118
12,0.0017,0.0499,0.0053,-1.38,0.84,-0.05,0.009,-0.145,0.053,-0.010
12,0.0031,0.0491,0.0055,-1.37,0.83,-0.05,0.009,-0.389,-0.131,-0.074
12,0.0043,0.0483,0.0057,-1.35,0.82,-0.05,0.009,-0.131,0.127,0.395
12,0.0111,0.0351,0.0024,-1.24,0.77,-0.03,0.009,0.031,-0.102,-0.179
12,0.0076,0.0338,0.0027,-1.23,0.80,-0.04,0.009,-0.089,-0.152,0.096
12,0.0075,0.0359,0.0029,-1.24,0.80,-0.04,0.009,-0.063,0.166,0.144
12,0.0075,0.0323,0.0034,-1.20,0.80,-0.04,0.010,-0.216,0.031,0.065
12,0.0086,0.0347,0.0027,-1.21,0.80,-0.04,0.010,0.078,0.095,0.062
12,0.0073,0.0345,0.0030,-1.21,0.81,-0.04,0.010,-0.072,-0.155,-0.216
12,0.0049,0.0366,0.0029,-1.22,0.83,-0.04,0.010,-0.254,0.107,0.267
12,0.0001,0.0341,0.0030,-1.19,0.87,-0.05,0.010,-0.181,0.024,-0.016
12,0.0013,0.0354,0.0031,-1.19,0.86,-0.05,0.011,0.062,-0.228,0.167
12,0.0139,0.0052,0.0054,-0.95,0.76,-0.01,0.011,-0.276,-0.025,0.251
12,0.0157,-0.0007,0.0061,-0.91,0.74,-0.00,0.011,0.034,-0.196,0.006
12,0.0174,0.0109,0.0065,-1.00,0.73,-0.01,0.011,-0.084,0.263,-0.011
12,0.0100,0.0402,0.0067,-1.23,0.80,-0.04,0.011,-0.108,0.010,0.015
12,0.0054,0.0386,0.0071,-1.21,0.84,-0.04,0.010,0.014,0.109,-0.132
12,0.0056,0.0389,0.0073,-1.21,0.84,-0.04,0.010,0.035,-0.184,-0.165
12,0.0081,0.0325,0.0053,-1.15,0.82,-0.04,0.010,-0.277,0.034,-0.111
12,0.0083,0.0332,0.0057,-1.15,0.82,-0.04,0.010,-0.214,0.097,-0.166
12,0.0087,0.0338,0.0059,-1.15,0.82,-0.04,0.010,0.003,0.045,-0.164
12,0.0098,0.0322,0.0060,-1.13,0.81,-0.04,0.007,-0.149,0.214,-0.200
12,0.0135,-0.0040,0.0082,-0.84,0.78,-0.01,0.007,-0.099,0.171,0.194
12,0.0054,0.0009,-0.0020,-0.88,0.85,-0.02,0.007,0.103,0.221,-0.090
12,0.0091,-0.0154,-0.0019,-0.75,0.82,-0.01,0.007,0.076,0.147,-0.047
12,0.0075,-0.0208,-0.0020,-0.71,0.83,-0.00,0.007,-0.095,-0.247,-0.230
12,0.0084,-0.0198,-0.0018,-0.72,0.82,-0.01,0.011,-0.466,0.034,0.121
12,0.0087,-0.0202,-0.0014,-0.72,0.82,-0.01,0.011,0.200,-0.108,0.068
12,0.0096,-0.0191,0.0025,-0.73,0.81,-0.01,0.011,0.068,0.206,0.151
12,0.0098,-0.0194,0.0028,-0.73,0.81,-0.01,0.011,0.032,-0.004,-0.210
12,0.0082,-0.0146,0.0032,-0.77,0.83,-0.01,0.011,0.115,0.052,0.119
12,0.0000,0.0000,0.0000,0.00,0.00,0.00,0.009,-0.330,-0.006,-0.006
12,0.0011,-0.0044,0.0003,0.01,0.00,-0.00,0.009,-0.082,-0.049,0.099
12,0.0053,-0.0394,0.0004,0.34,-0.02,0.00,0.009,-0.161,0.283,-0.059
12,0.0076,-0.0248,0.0008,0.10,-0.03,0.00,0.009,-0.002,0.077,-0.154
12,-0.0151,-0.0536,0.0002,0.60,0.43,0.00,0.009,-0.397,-0.277,-0.012
13,-0.0144,-0.0478,0.0009,0.42,0.44,0.00,0.010,-0.085,0.106,-0.389
13,-0.0101,-0.0519,0.0014,0.47,0.35,0.00,0.010,-0.153,-0.165,-0.062
13,-0.0152,-0.0331,0.0023,-0.10,0.52,0.00,0.010,0.168,-0.239,-0.043
13,-0.0078,-0.0391,0.0026,0.03,0.33,0.00,0.010,-0.275,0.015,-0.087
13,-0.0076,-0.0498,0.0026,0.29,0.36,0.00,0.010,0.081,0.100,0.103
13,-0.0013,-0.0495,0.0032,0.22,0.21,-0.00,0.009,-0.171,0.187,0.042
13,-0.0032,-0.0249,0.0049,-0.57,0.30,0.00,0.009,-0.017,-0.077,-0.003
13,0.0031,-0.0484,0.0028,0.11,0.15,-0.00,0.009,-0.189,-0.077,-0.170
13,0.0025,-0.0443,0.0035,-0.06,0.21,0.00,0.009,-0.083,-0.036,-0.167
13,0.0001,-0.0279,0.0044,-0.58,0.32,0.00,0.009,0.113,0.282,-0.136
13,0.0014,-0.0313,0.0045,-0.50,0.32,0.00,0.009,-0.024,0.085,-0.173
13,0.0005,-0.0290,0.0028,-0.57,0.38,-0.00,0.009,-0.089,0.044,-0.300
13,0.0014,-0.0295,0.0028,-0.57,0.38,-0.00,0.009,-0.004,0.066,0.151
13,0.0022,-0.0373,0.0028,-0.38,0.38,-0.00,0.009,-0.254,0.068,0.162
13,0.0071,-0.0262,0.0032,-0.69,0.29,-0.00,0.009,-0.103,0.183,0.004
13,0.0075,-0.0279,0.0032,-0.65,0.31,-0.00,0.013,0.049,0.076,-0.091
13,0.0058,-0.0254,0.0034,-0.72,0.38,-0.00,0.013,0.121,0.027,-0.102
13,0.0062,-0.0272,0.0112,-0.69,0.39,-0.00,0.013,-0.210,0.056,-0.213
13,0.0086,-0.0247,0.0113,-0.75,0.36,-0.00,0.013,-0.353,0.033,0.235
13,0.0064,-0.0222,0.0114,-0.80,0.42,-0.00,0.013,-0.075,0.134,0.103
13,0.0064,-0.0139,0.0115,-0.98,0.44,-0.00,0.007,0.010,-0.152,-0.145
13,0.0066,-0.0182,0.0005,-0.88,0.45,-0.00,0.007,-0.005,-0.067,-0.020
13,0.0067,-0.0107,0.0008,-1.04,0.47,-0.00,0.007,0.111,-0.295,0.126
13,0.0049,-0.0075,0.0010,-1.10,0.52,-0.00,0.007,0.030,-0.112,-0.194
13,0.0051,0.0011,0.0009,-1.27,0.53,-0.00,0.007,-0.192,0.061,0.115
13,0.0056,-0.0041,0.0011,-1.15,0.54,-0.00,0.008,0.049,0.200,-0.250
13,0.0097,-0.0351,0.0016,-0.55,0.48,-0.01,0.008,-0.182,-0.122,-0.109
13,-0.0070,-0.0712,-0.0049,0.11,0.81,-0.02,0.008,-0.120,-0.245,-0.004
13,-0.0133,-0.0866,-0.0063,0.36,0.93,-0.03,0.008,-0.351,0.086,-0.091
13,-0.0048,-0.0810,-0.0048,0.22,0.78,-0.02,0.008,-0.242,0.073,-0.014
13,-0.0046,-0.0827,-0.0046,0.22,0.78,-0.02,0.010,-0.171,-0.035,-0.052
13,-0.0058,-0.0787,-0.0037,0.12,0.80,-0.02,0.010,-0.165,-0.014,0.123
13,-0.0105,-0.1103,-0.0035,0.62,0.89,-0.03,0.010,-0.051,-0.104,-0.063
13,-0.0167,-0.0758,0.0018,0.00,0.99,-0.02,0.010,-0.035,-0.128,0.248
13,-0.0100,-0.1172,-0.0017,0.65,0.88,-0.03,0.010,-0.008,-0.266,-0.316
14,-0.0091,-0.1079,0.0004,0.46,0.87,-0.03,0.010,-0.011,0.068,-0.160
14,-0.0012,-0.1113,0.0006,0.48,0.75,-0.03,0.010,-0.300,0.130,0.087
14,-0.0093,-0.1044,0.0031,0.33,0.88,-0.03,0.010,-0.130,-0.007,0.143
14,-0.0069,-0.0997,0.0041,0.22,0.84,-0.03,0.010,-0.039,0.092,-0.190
14,-0.0061,-0.1247,0.0018,0.57,0.83,-0.03,0.010,-0.249,-0.044,-0.051
14,-0.0054,-0.1126,0.0040,0.35,0.83,-0.03,0.013,0.029,0.038,0.044
14,-0.0047,-0.1185,0.0035,0.41,0.82,-0.03,0.013,-0.181,0.144,-0.111
14,0.0278,-0.1118,0.0112,0.28,0.36,-0.03,0.013,-0.129,0.093,0.167
14,0.0599,-0.1190,0.0092,0.36,-0.07,-0.03,0.013,-0.167,0.049,0.206
14,0.0554,-0.1073,0.0117,0.17,0.01,-0.03,0.013,-0.102,-0.252,0.349
14,0.0570,-0.1089,0.0118,0.16,0.01,-0.03,0.008,-0.098,0.121,-0.007
21,0.0606,-0.1052,0.0125,0.09,-0.01,-0.03,0.008,-0.117,0.080,0.296
31,0.0380,-0.0928,0.0062,-0.09,0.31,-0.02,0.008,-0.055,0.148,-0.070
41,0.0489,-0.0870,0.0064,-0.19,0.18,-0.03,0.008,-0.076,-0.123,0.060
51,0.0504,-0.0882,0.0066,-0.19,0.18,-0.02,0.008,-0.227,0.015,-0.160
61,0.0518,-0.0893,0.0068,-0.19,0.18,-0.02,0.010,0.105,-0.036,-0.026
71,0.0532,-0.0902,0.0051,-0.19,0.18,-0.02,0.010,0.027,-0.112,0.026
81,0.0459,-0.1199,0.0036,0.16,0.28,-0.02,0.010,0.034,-0.055,-0.307
91,0.0485,-0.0756,0.0084,-0.40,0.27,-0.02,0.010,0.074,-0.098,-0.341
101,0.0457,-0.0630,0.0096,-0.56,0.32,-0.02,0.010,-0.060,0.090,0.006
111,0.0471,-0.0633,0.0098,-0.56,0.32,-0.02,0.011,-0.215,0.283,-0.048
121,0.0475,-0.0565,0.0104,-0.64,0.33,-0.02,0.011,-0.001,0.117,0.176
131,0.0485,-0.0568,0.0090,-0.65,0.32,-0.02,0.011,-0.168,0.185,0.295
141,0.0418,-0.0521,0.0098,-0.70,0.41,-0.02,0.011,-0.042,-0.205,0.141
151,0.0429,-0.0524,0.0098,-0.70,0.41,-0.02,0.011,-0.160,0.031,0.111
161,0.0382,-0.0478,0.0102,-0.76,0.47,-0.02,0.010,0.087,0.053,0.062
171,0.0389,-0.0476,0.0064,-0.75,0.47,-0.02,0.010,-0.049,0.050,-0.307
181,0.0455,-0.0923,0.0050,-0.28,0.41,-0.02,0.010,-0.089,-0.169,0.107
191,0.0370,-0.0583,0.0085,-0.65,0.51,-0.01,0.010,-0.103,0.169,0.035
201,0.0310,-0.0397,0.0095,-0.85,0.58,-0.01,0.010,-0.163,0.215,0.152
211,0.0308,-0.0414,0.0097,-0.83,0.59,-0.01,0.008,-0.083,-0.192,-0.025
221,0.0188,-0.0176,0.0108,-1.07,0.72,-0.01,0.008,-0.212,0.159,-0.128
231,0.0419,-0.0466,0.0015,-0.78,0.49,-0.01,0.008,-0.183,-0.271,-0.081
241,0.0250,-0.0351,0.0028,-0.89,0.67,-0.01,0.008,0.007,0.168,-0.129
251,0.0234,-0.0247,0.0032,-1.00,0.68,-0.01,0.008,-0.046,-0.189,-0.144
261,0.0220,-0.0288,0.0034,-0.96,0.70,-0.01,0.013,-0.215,0.122,-0.003
271,0.0227,-0.0288,0.0084,-0.96,0.70,-0.01,0.013,0.006,0.005,0.043
281,0.0339,-0.0264,0.0084,-0.98,0.60,-0.01,0.013,-0.220,0.421,0.214
291,0.0196,-0.0228,0.0093,-1.01,0.74,-0.01,0.013,0.071,-0.112,-0.166
301,0.0186,-0.0225,0.0097,-1.01,0.75,-0.01,0.013,-0.199,0.234,0.133
311,0.0192,-0.0221,0.0099,-1.01,0.75,-0.01,0.009,-0.167,-0.149,0.038
320,0.0181,-0.0079,0.0103,-1.14,0.76,-0.01,0.009,0.081,-0.060,-0.347
330,0.0169,0.0156,0.0032,-1.36,0.77,-0.01,0.009,-0.100,-0.193,-0.028
341,0.0189,0.0095,0.0038,-1.29,0.76,-0.01,0.009,-0.115,-0.157,0.105
351,0.0050,0.0453,0.0028,-1.62,0.89,-0.01,0.009,-0.262,-0.122,0.008
361,0.0020,0.0434,0.0033,-1.59,0.92,-0.01,0.008,-0.103,-0.105,0.180
371,0.0020,0.0445,0.0036,-1.59,0.92,-0.01,0.008,-0.058,0.095,0.161
381,0.0337,0.0482,-0.0027,-1.62,0.63,-0.00,0.008,0.201,0.088,-0.269
390,0.0235,0.0531,-0.0022,-1.65,0.73,-0.00,0.008,0.067,0.001,-0.201
401,0.0237,0.0675,-0.0030,-1.77,0.73,-0.00,0.008,-0.219,-0.085,-0.246
411,0.0239,0.0604,-0.0017,-1.68,0.73,-0.00,0.010,-0.160,0.353,0.051
421,0.0228,0.0430,0.0007,-1.51,0.74,-0.01,0.010,-0.216,-0.007,-0.047
431,0.0259,0.0110,0.0022,-1.21,0.72,-0.02,0.010,-0.112,-0.223,-0.221
440,0.0091,0.0096,0.0028,-1.20,0.87,-0.03,0.010,-0.255,-0.126,-0.182
450,0.0350,-0.0217,0.0027,-0.91,0.64,-0.02,0.010,0.043,-0.064,0.006
460,0.0355,-0.0217,0.0030,-0.91,0.65,-0.02,0.009,0.010,-0.054,-0.248
471,0.0294,-0.0203,0.0037,-0.92,0.70,-0.03,0.009,-0.018,0.095,-0.026
481,0.0306,-0.0205,0.0005,-0.92,0.70,-0.03,0.009,0.029,-0.233,0.025
490,0.0305,-0.0192,0.0009,-0.93,0.70,-0.03,0.009,-0.306,0.053,0.180
500,0.0278,-0.0217,0.0011,-0.91,0.73,-0.03,0.009,-0.213,-0.033,0.142
511,0.0240,-0.0151,0.0017,-0.97,0.76,-0.03,0.006,-0.379,-0.040,0.112
521,0.0331,-0.0205,0.0014,-0.92,0.69,-0.03,0.006,0.065,-0.056,-0.462
530,0.0189,-0.0005,-0.0060,-1.09,0.81,-0.03,0.006,-0.176,0.134,0.049
540,0.0255,-0.0126,-0.0058,-0.99,0.76,-0.03,0.006,0.100,-0.005,0.026
551,0.0229,-0.0178,-0.0056,-0.94,0.78,-0.04,0.006,-0.042,-0.148,-0.264
560,0.0218,-0.0055,-0.0051,-1.04,0.79,-0.03,0.009,0.162,0.362,0.004
570,0.0244,-0.0070,-0.0037,-1.02,0.77,-0.03,0.009,-0.160,-0.126,0.182
580,0.0208,-0.0149,-0.0034,-0.96,0.80,-0.04,0.009,0.122,-0.175,-0.120
591,0.0186,-0.0091,-0.0031,-1.00,0.82,-0.04,0.009,-0.051,0.120,0.172
600,0.0176,-0.0071,-0.0027,-1.02,0.83,-0.04,0.009,-0.147,-0.063,0.265
611,0.0178,-0.0068,-0.0024,-1.02,0.83,-0.04,0.006,-0.184,-0.032,-0.191
621,0.0258,0.0116,-0.0022,-1.17,0.76,-0.03,0.006,-0.094,-0.037,0.248
631,0.0272,0.0378,-0.0083,-1.39,0.75,-0.02,0.006,-0.061,0.237,0.332
641,0.0284,0.0500,-0.0090,-1.48,0.75,-0.02,0.006,-0.129,-0.044,0.183
650,0.0272,0.0429,-0.0080,-1.42,0.76,-0.02,0.006,-0.196,0.063,0.057
660,0.0284,0.0472,-0.0082,-1.45,0.75,-0.02,0.009,-0.164,0.025,0.235
670,0.0260,0.0417,-0.0025,-1.39,0.78,-0.02,0.009,-0.284,0.023,0.280
681,0.0223,0.0426,-0.0024,-1.39,0.81,-0.02,0.009,-0.169,0.157,-0.099
690,0.0212,0.0370,-0.0016,-1.34,0.82,-0.02,0.009,-0.314,0.175,-0.012
700,0.0203,0.0380,-0.0012,-1.34,0.83,-0.02,0.009,-0.326,-0.108,0.191
711,0.0218,0.0329,-0.0005,-1.30,0.82,-0.03,0.011,-0.326,-0.026,0.049
721,0.0244,0.0316,-0.0003,-1.28,0.80,-0.02,0.011,-0.009,0.077,-0.550
730,0.0149,0.0405,0.0069,-1.35,0.87,-0.03,0.011,0.047,-0.129,-0.286
740,0.0177,0.0293,0.0079,-1.25,0.85,-0.03,0.011,-0.102,0.357,-0.002
751,0.0167,0.0317,0.0081,-1.26,0.86,-0.03,0.011,-0.147,-0.402,0.176
760,0.0158,0.0338,0.0081,-1.28,0.86,-0.03,0.010,0.140,0.019,-0.135
770,0.0115,0.0302,0.0084,-1.24,0.90,-0.03,0.010,-0.253,0.092,-0.103
780,0.0201,0.0245,0.0095,-1.19,0.83,-0.03,0.010,-0.085,0.107,0.137
791,0.0144,0.0237,0.0100,-1.18,0.88,-0.04,0.010,-0.250,-0.052,0.061
801,0.0151,0.0242,0.0101,-1.18,0.87,-0.04,0.010,-0.014,0.245,0.364
810,0.0134,0.0317,0.0098,-1.23,0.89,-0.04,0.010,-0.270,0.049,0.005
820,0.0140,0.0295,0.0101,-1.21,0.88,-0.04,0.010,-0.060,-0.143,0.242
831,0.0168,0.0237,0.0096,-1.16,0.86,-0.04,0.010,-0.289,-0.325,-0.154
841,0.0113,0.0195,0.0100,-1.12,0.90,-0.04,0.010,-0.204,-0.053,0.136
851,0.0084,0.0189,0.0101,-1.11,0.93,-0.04,0.010,-0.471,-0.008,-0.012
860,0.0085,0.0193,0.0101,-1.11,0.93,-0.04,0.013,-0.277,0.037,-0.042
871,0.0140,0.0293,0.0099,-1.19,0.88,-0.03,0.013,-0.106,0.156,-0.147
880,0.0047,0.0249,0.0158,-1.15,0.96,-0.04,0.013,0.159,-0.114,-0.080
890,0.0068,0.0192,0.0164,-1.10,0.94,-0.04,0.013,-0.079,0.175,-0.085
900,0.0075,0.0172,0.0169,-1.08,0.93,-0.04,0.013,-0.435,-0.093,0.174
910,0.0075,0.0176,0.0172,-1.08,0.93,-0.04,0.008,0.082,-0.207,-0.139
920,0.0134,0.0133,0.0175,-1.04,0.88,-0.04,0.008,-0.277,-0.354,0.276
930,-0.0042,0.0151,0.0079,-1.06,1.03,-0.05,0.008,-0.201,0.021,0.082
940,0.0044,0.0608,0.0070,-1.43,0.95,-0.03,0.008,-0.123,-0.233,0.245
950,0.0043,0.0640,0.0068,-1.45,0.96,-0.02,0.008,-0.092,0.104,-0.136
960,0.0042,0.0515,0.0087,-1.34,0.96,-0.03,0.007,0.100,-0.192,0.175
970,0.0030,0.0524,-0.0004,-1.35,0.97,-0.03,0.007,-0.270,0.283,0.007
980,0.0041,0.0571,-0.0006,-1.38,0.96,-0.03,0.007,0.026,-0.282,-0.311
990,0.0038,0.0500,0.0003,-1.32,0.96,-0.03,0.007,0.047,-0.207,-0.105
1000,0.0059,0.0478,0.0007,-1.29,0.94,-0.03,0.007,-0.126,-0.023,-0.032
1010,0.0057,0.0491,0.0008,-1.30,0.95,-0.03,0.009,0.049,0.015,-0.121
1020,-0.0004,0.0435,0.0015,-1.24,1.00,-0.04,0.009,-0.191,0.065,0.367
1031,0.0055,0.0417,0.0001,-1.22,0.95,-0.04,0.009,0.077,0.348,0.102
1041,0.0053,0.0458,0.0003,-1.25,0.95,-0.03,0.009,-0.133,0.120,0.250
1050,0.0017,0.0381,0.0013,-1.18,0.98,-0.04,0.009,0.060,-0.112,0.005
1061,0.0019,0.0386,0.0016,-1.18,0.98,-0.04,0.010,-0.329,-0.141,0.035
1070,0.0081,0.0431,0.0027,-1.21,0.93,-0.03,0.010,-0.207,-0.483,0.111
1080,-0.0007,0.0304,0.0035,-1.10,1.00,-0.04,0.010,0.053,0.145,0.195
1090,-0.0078,0.0014,0.0047,-0.86,1.06,-0.05,0.010,-0.145,-0.164,0.015
1100,-0.0086,0.0027,0.0050,-0.88,1.07,-0.05,0.010,-0.155,-0.012,0.025
1110,-0.0083,0.0003,0.0055,-0.85,1.06,-0.05,0.010,-0.144,0.116,0.076
1120,-0.0086,0.0003,0.0057,-0.85,1.06,-0.05,0.010,-0.157,0.017,0.345
1130,-0.0047,0.0052,0.0056,-0.89,1.03,-0.05,0.010,-0.054,-0.175,0.076
1140,-0.0057,0.0011,0.0059,-0.86,1.03,-0.05,0.010,-0.076,0.270,-0.035
1150,-0.0053,0.0048,0.0063,-0.89,1.03,-0.05,0.010,0.183,-0.091,0.011
1160,-0.0077,0.0059,0.0066,-0.90,1.04,-0.04,0.011,-0.239,0.089,-0.023
1170,-0.0075,0.0033,0.0081,-0.88,1.04,-0.05,0.011,-0.175,0.247,0.185
1181,-0.0035,-0.0254,0.0082,-0.65,1.00,-0.06,0.011,-0.199,-0.169,-0.021
1191,-0.0022,-0.0207,0.0086,-0.70,0.99,-0.05,0.011,0.090,0.189,-0.352
1200,-0.0095,0.0010,0.0097,-0.87,1.05,-0.04,0.011,0.097,0.180,-0.151
1210,-0.0149,-0.0001,0.0097,-0.86,1.09,-0.05,0.011,-0.158,0.044,-0.125
1220,-0.0119,-0.0153,0.0102,-0.74,1.06,-0.05,0.011,-0.331,-0.108,-0.235
1230,-0.0103,-0.0062,0.0099,-0.81,1.04,-0.05,0.011,0.004,0.355,-0.118
1240,-0.0098,-0.0271,0.0099,-0.65,1.04,-0.06,0.011,-0.058,-0.107,0.133
1250,-0.0137,-0.0224,0.0101,-0.69,1.07,-0.06,0.011,0.027,0.052,0.090
1260,-0.0129,-0.0015,0.0110,-0.86,1.06,-0.05,0.010,-0.216,0.125,-0.122
1270,-0.0044,-0.0059,0.0115,-0.82,0.99,-0.05,0.010,-0.089,-0.192,0.221
1280,-0.0050,-0.0238,0.0073,-0.68,1.00,-0.06,0.010,-0.233,0.066,-0.023
1290,-0.0069,-0.0181,0.0077,-0.73,1.01,-0.06,0.010,-0.244,-0.128,-0.043
1300,-0.0145,-0.0160,0.0078,-0.75,1.07,-0.05,0.010,-0.212,0.140,0.151
1310,-0.0072,-0.0288,0.0080,-0.65,1.01,-0.06,0.010,-0.212,0.154,-0.179
1320,0.0100,-0.0208,0.0087,-0.72,0.87,-0.06,0.010,-0.271,-0.089,-0.173
1330,0.0028,-0.0492,0.0047,-0.49,0.93,-0.06,0.010,-0.238,0.224,0.177
1340,-0.0087,-0.0357,0.0060,-0.61,1.02,-0.06,0.010,-0.351,0.180,0.019
1350,-0.0005,-0.0105,0.0078,-0.81,0.95,-0.05,0.010,-0.144,-0.160,-0.163
1360,0.0016,-0.0099,0.0082,-0.82,0.93,-0.05,0.009,0.093,0.322,0.033
1370,0.0004,-0.0140,0.0084,-0.79,0.94,-0.05,0.009,-0.253,0.099,-0.294
1380,0.0016,-0.0560,0.0022,-0.45,0.93,-0.07,0.009,-0.106,0.199,0.108
1390,0.0026,-0.0524,0.0029,-0.49,0.92,-0.06,0.009,0.002,-0.100,-0.250
1400,0.0027,-0.0480,0.0036,-0.53,0.92,-0.06,0.009,0.020,-0.035,-0.009
1410,0.0027,-0.0495,0.0035,-0.52,0.92,-0.06,0.011,-0.055,0.245,0.083
1420,0.0073,-0.0374,0.0047,-0.62,0.89,-0.06,0.011,0.079,-0.132,-0.128
1430,0.0017,-0.0457,0.0046,-0.56,0.94,-0.06,0.011,0.037,-0.116,-0.076
1441,0.0039,-0.0392,0.0049,-0.62,0.92,-0.06,0.011,0.010,0.106,-0.064
1450,0.0048,-0.0374,0.0050,-0.63,0.91,-0.06,0.011,-0.333,0.162,-0.207
1460,0.0025,-0.0355,0.0053,-0.65,0.93,-0.06,0.010,-0.045,0.197,-0.135
1471,0.0028,-0.0356,0.0029,-0.65,0.93,-0.06,0.010,0.094,0.161,-0.161
1480,0.0030,-0.0328,0.0033,-0.68,0.93,-0.06,0.010,-0.586,-0.044,0.170
0,0.0006,-0.0311,0.0036,-0.69,0.94,-0.06,0.010,-0.004,0.040,0.136
10,0.0053,-0.0294,0.0038,-0.71,0.90,-0.06,0.010,-0.945,-0.113,0.162
20,0.0039,-0.0277,0.0041,-0.72,0.91,-0.06,0.008,-0.100,-0.103,-0.270
30,-0.0011,-0.0564,0.0032,-0.49,0.95,-0.06,0.008,-1.166,-1.592,0.537
40,-0.0009,-0.0630,-0.0029,-0.45,0.95,-0.06,0.008,-1.446,-0.274,1.746
50,0.0043,-0.0656,-0.0024,-0.43,0.91,-0.06,0.008,-1.352,0.302,0.715
60,0.0025,-0.0601,-0.0021,-0.47,0.92,-0.06,0.008,-2.404,-2.560,0.821
70,0.0009,-0.0593,-0.0018,-0.49,0.92,-0.06,0.007,-0.239,-0.170,-0.238
80,-0.0009,-0.0496,-0.0050,-0.57,0.94,-0.05,0.007,-1.664,-1.264,0.435
90,0.0023,-0.0203,-0.0040,-0.82,0.93,-0.05,0.007,-1.807,-1.954,2.056
100,0.0163,-0.0153,-0.0054,-0.85,0.80,-0.05,0.007,-2.642,-3.965,2.947
110,0.0150,-0.0091,-0.0038,-0.91,0.82,-0.05,0.007,-2.111,1.669,1.507
120,0.0086,-0.0054,-0.0021,-0.95,0.89,-0.02,0.006,1.495,-0.727,2.694
130,0.0115,0.0042,-0.0040,-1.04,0.88,0.01,0.006,5.943,-5.577,4.076
140,0.0374,0.0119,-0.0108,-1.08,0.65,0.01,0.006,10.145,-0.630,6.610
150,0.0395,0.0259,-0.0074,-1.13,0.66,0.05,0.006,10.594,-4.641,9.579
160,0.0360,0.0291,-0.0034,-1.07,0.70,0.10,0.006,8.475,-13.145,11.235
170,0.0324,0.0317,-0.0023,-0.98,0.73,0.18,0.007,-6.153,-17.360,13.602
180,0.0244,0.0557,-0.0042,-1.05,0.86,0.29,0.007,-8.342,-23.220,12.814
190,0.0185,0.0617,-0.0023,-1.07,1.06,0.42,0.007,-10.821,-20.132,14.666
200,0.0191,0.0658,0.0034,-1.17,1.25,0.56,0.007,-20.956,-20.793,12.945
210,0.0204,0.0897,0.0084,-1.42,1.44,0.70,0.007,-20.823,-19.097,8.354
220,0.0191,0.0929,0.0167,-1.60,1.62,0.84,0.018,-18.011,-6.218,5.938
230,0.0103,0.0940,0.0314,-1.81,1.88,0.95,0.018,-19.072,2.492,1.273
240,0.0004,0.0965,0.0739,-1.99,2.03,1.03,0.018,-3.741,0.566,-1.440
250,0.0285,0.1001,0.0947,-2.16,1.80,1.06,0.018,1.747,-15.024,-1.095
260,0.0229,0.1056,0.1161,-2.31,1.79,1.05,0.018,4.485,-20.383,-0.234
270,0.0221,0.1069,0.1373,-2.27,1.83,1.04,0.000,9.590,-13.788,0.699
280,-0.0029,0.1075,0.1586,-2.23,2.20,1.04,0.000,4.088,-9.770,1.136
290,0.0281,0.1102,0.1424,-2.14,2.09,1.06,0.000,3.937,-12.154,1.245
300,0.0104,0.1138,0.1620,-2.08,2.30,1.07,0.000,1.766,-15.074,0.178
309,-0.0317,0.1155,0.1805,-2.03,2.70,1.07,0.000,6.331,-12.915,0.333
320,-0.0478,0.0981,0.2027,-1.83,2.92,1.06,0.000,9.905,-4.139,-1.314
330,-0.0734,0.1312,0.2139,-2.02,3.22,1.09,0.000,16.366,4.970,-1.595
339,-0.0820,0.1315,0.1920,-1.92,3.33,1.08,0.000,22.967,11.449,-0.257
349,-0.0853,0.1078,0.2153,-1.57,3.29,1.03,0.000,29.131,27.185,0.169
360,-0.0828,0.1127,0.2340,-1.40,3.15,1.03,0.000,26.605,36.391,0.697
370,-0.1133,0.1242,0.2467,-1.19,3.13,1.03,0.019,24.218,39.973,2.450
380,-0.1163,0.1230,0.2644,-0.90,2.78,1.02,0.019,24.546,37.541,1.955
390,-0.1591,0.0974,0.2692,-0.45,2.70,0.98,0.019,21.650,31.618,1.651
399,-0.1630,0.0950,0.2837,-0.19,2.29,1.00,0.019,17.078,26.133,0.554
410,-0.1743,0.0944,0.2959,0.05,2.01,1.02,0.019,10.016,21.712,0.294
420,-0.1733,0.0881,0.3105,0.30,1.68,1.02,0.037,0.423,17.418,0.215
430,-0.1526,0.0786,0.3285,0.50,1.26,1.02,0.037,-3.432,16.964,1.393
440,-0.1511,0.0681,0.3409,0.63,1.05,1.01,0.037,-4.690,12.169,1.504
449,-0.1828,0.0621,0.3451,0.64,1.11,1.01,0.037,-6.554,5.697,2.183
459,-0.1842,0.0634,0.3520,0.57,0.97,1.03,0.037,-3.628,1.737,2.957
470,-0.1651,0.0620,0.3621,0.52,0.72,1.05,0.064,-1.185,0.756,3.527
480,-0.1651,0.0819,0.3866,0.31,0.67,1.09,0.064,-2.945,2.576,3.820
490,-0.1642,0.0824,0.3900,0.29,0.64,1.13,0.064,-1.849,5.286,4.909
500,-0.1377,0.0791,0.3973,0.30,0.41,1.15,0.064,-3.813,6.475,5.718
510,-0.1182,0.0555,0.4039,0.45,0.22,1.17,0.064,-3.388,12.408,6.561
520,-0.1125,0.0518,0.4061,0.44,0.11,1.22,0.087,0.361,17.939,6.832
530,-0.1281,0.0714,0.4046,0.25,0.13,1.30,0.087,3.941,17.434,7.639
540,-0.1261,0.0678,0.4230,0.26,-0.05,1.36,0.087,5.472,18.061,7.609
550,-0.1432,0.0695,0.4212,0.26,-0.11,1.45,0.087,6.483,10.298,7.186
560,-0.1399,0.0666,0.4213,0.33,-0.31,1.52,0.087,5.081,1.598,6.684
570,-0.1266,0.0653,0.4220,0.40,-0.55,1.59,0.121,3.719,-9.041,4.520
580,-0.1125,0.0627,0.4581,0.47,-0.71,1.66,0.121,4.468,-11.585,3.700
590,-0.1095,0.0594,0.4550,0.55,-0.70,1.71,0.121,-1.859,-15.424,3.047
600,-0.1025,0.0494,0.4527,0.67,-0.64,1.74,0.121,-0.208,-10.967,2.420
609,-0.1052,0.0290,0.4490,0.81,-0.45,1.78,0.121,-0.904,-0.311,1.860
620,-0.1064,0.0272,0.4434,0.81,-0.30,1.81,0.132,2.211,10.123,1.156
630,-0.1059,0.0259,0.4373,0.80,-0.24,1.83,0.132,6.801,20.818,1.151
639,-0.1053,-0.0119,0.4261,1.07,-0.27,1.87,0.132,8.978,32.709,1.228
650,-0.1024,-0.0151,0.4189,1.14,-0.45,1.88,0.132,10.150,40.792,1.147
660,-0.0984,-0.0143,0.4118,1.20,-0.77,1.89,0.132,11.831,46.697,1.076
670,-0.0976,-0.0150,0.4042,1.30,-1.14,1.91,0.148,7.436,48.396,1.120
679,-0.0992,-0.0140,0.4041,1.40,-1.57,1.93,0.148,1.206,47.314,0.648
689,-0.0926,-0.0187,0.3740,1.50,-2.06,1.95,0.148,-4.466,44.433,0.604
699,-0.0943,-0.0177,0.3739,1.49,-2.05,1.95,0.148,-11.154,37.975,0.318
709,-0.0901,-0.0184,0.3649,1.52,-2.54,1.97,0.148,-13.385,27.094,-0.125
719,-0.0860,-0.0195,0.3554,1.49,-3.00,1.98,0.165,-18.197,19.867,-0.405
729,-0.0800,-0.0231,0.3452,1.42,-3.40,2.00,0.165,-21.120,15.276,-0.253
740,-0.0760,-0.0214,0.3248,1.27,-3.70,2.00,0.165,-17.963,6.201,-1.011
749,-0.0704,-0.0210,0.3147,1.10,-3.92,2.00,0.165,-20.309,0.313,-0.581
759,-0.0643,-0.0225,0.3050,0.90,-4.09,2.00,0.165,-19.986,-4.098,-0.342
769,-0.0575,-0.0255,0.2957,0.72,-4.18,1.99,0.187,-13.474,-5.409,-0.464
779,-0.0504,-0.0241,0.2863,0.50,-4.21,1.98,0.187,-10.963,-13.054,-0.261
789,-0.0417,-0.0229,0.2865,0.28,-4.20,1.97,0.187,-6.716,-10.180,0.312
799,-0.0352,-0.0231,0.2772,0.12,-4.14,1.97,0.187,-5.398,-10.912,0.315
809,-0.0279,-0.0391,0.2676,0.13,-4.04,2.00,0.187,-3.651,-9.456,0.078
819,-0.0204,-0.0417,0.2578,0.05,-3.93,2.01,0.199,-3.490,-7.882,0.535
829,-0.0134,-0.0400,0.2482,-0.02,-3.83,2.01,0.199,-3.145,-7.214,0.490
839,-0.0045,-0.0363,0.2420,-0.10,-3.76,2.00,0.199,-3.135,-7.409,1.482
850,0.0011,-0.0379,0.2329,-0.12,-3.67,2.01,0.199,-5.374,-7.782,1.872
859,0.0068,-0.0375,0.2238,-0.15,-3.59,2.01,0.199,-8.609,-10.155,1.399
869,0.0118,-0.0369,0.2147,-0.18,-3.52,2.03,0.209,-7.611,-12.466,1.277
879,0.0173,-0.0365,0.2091,-0.21,-3.45,2.04,0.209,-9.419,-15.971,2.194
890,0.0222,-0.0309,0.1996,-0.33,-3.35,2.04,0.209,-12.479,-17.294,2.226
899,0.0274,-0.0302,0.1902,-0.41,-3.23,2.06,0.209,-12.347,-20.532,2.909
909,0.0294,-0.0071,0.1807,-0.67,-3.07,2.01,0.209,-9.309,-23.310,2.642
919,0.0341,-0.0059,0.1716,-0.78,-2.89,2.03,0.217,-7.936,-25.306,2.259
929,0.0414,-0.0043,0.1630,-0.90,-2.72,2.06,0.217,-1.494,-28.371,1.693
939,0.0468,-0.0051,0.1512,-0.99,-2.50,2.10,0.217,2.372,-29.138,2.125
950,0.0508,-0.0034,0.1437,-1.08,-2.25,2.13,0.217,4.173,-25.691,3.313
959,0.0608,0.0047,0.1361,-1.15,-2.03,2.13,0.217,6.914,-25.217,3.057
969,0.0646,0.0051,0.1287,-1.13,-1.74,2.16,0.213,11.683,-24.540,3.014
979,0.0671,0.0065,0.0996,-1.10,-1.47,2.19,0.213,12.630,-22.351,3.814
989,0.0725,0.0072,0.0923,-1.04,-1.25,2.23,0.213,16.047,-22.994,3.598
1000,0.0775,0.0102,0.0853,-0.93,-1.02,2.26,0.213,13.938,-22.012,3.906
1009,0.0770,0.0125,0.0785,-0.81,-0.77,2.30,0.213,13.915,-19.672,3.578
1019,0.0838,0.0134,0.0726,-0.66,-0.59,2.33,0.227,12.108,-19.874,4.022
1029,0.0841,0.0153,0.0673,-0.51,-0.36,2.37,0.227,8.246,-19.748,4.417
1039,0.0868,0.0171,0.0687,-0.38,-0.18,2.41,0.227,9.283,-21.126,4.297
1049,0.0851,0.0178,0.0630,-0.24,0.06,2.46,0.227,5.672,-21.180,3.542
1059,0.0870,0.0169,0.0579,-0.15,0.25,2.50,0.227,5.385,-21.125,3.933
1070,0.0870,0.0189,0.0529,-0.07,0.45,2.54,0.219,3.361,-23.756,4.316
1079,0.0887,0.0192,0.0291,-0.01,0.64,2.58,0.219,3.544,-22.960,3.997
1089,0.0877,0.0195,0.0248,0.06,0.86,2.62,0.219,3.863,-21.167,4.430
1099,0.0838,0.0183,0.0212,0.12,1.11,2.66,0.219,5.774,-19.153,5.051
1109,0.0852,0.0199,0.0179,0.15,1.32,2.69,0.219,6.826,-17.024,3.971
1119,0.0838,0.0186,0.0147,0.21,1.53,2.73,0.234,7.068,-14.871,4.613
1129,0.0837,0.0184,0.0117,0.26,1.71,2.78,0.234,7.375,-11.534,4.786
1139,0.0801,0.0155,0.0294,0.33,1.90,2.82,0.234,7.350,-9.371,4.418
1149,0.0733,0.0149,0.0267,0.40,2.08,2.87,0.234,6.151,-6.748,4.091
1159,0.0776,0.0133,0.0247,0.47,2.16,2.91,0.234,6.733,-5.050,3.499
1169,0.0764,0.0142,0.0229,0.53,2.24,2.95,0.222,5.010,-3.447,4.038
1179,0.0728,0.0107,0.0213,0.60,2.32,3.00,0.222,6.249,-2.119,3.601
1189,0.0678,0.0086,0.0019,0.67,2.38,3.04,0.222,3.505,-1.330,3.394
1199,0.0658,0.0080,-0.0001,0.72,2.41,3.07,0.222,3.541,-0.844,3.963
1209,0.0619,0.0066,-0.0023,0.77,2.43,3.11,0.222,2.606,-0.562,3.939
1219,0.0589,0.0046,-0.0046,0.82,2.44,3.14,0.231,0.943,0.161,2.940
1229,0.0589,0.0029,-0.0062,0.86,2.42,3.18,0.231,0.046,0.193,3.217
1239,0.0546,0.0011,0.0028,0.88,2.43,3.22,0.231,-1.664,-0.905,3.460
1249,0.0519,-0.0004,0.0016,0.89,2.43,3.25,0.231,-0.373,0.874,2.828
1259,0.0477,-0.0004,0.0004,0.87,2.43,3.28,0.231,-3.892,-0.134,2.894
1269,0.0454,-0.0033,-0.0009,0.86,2.42,3.31,0.217,-3.118,0.811,2.838
1279,0.0403,-0.0058,-0.0023,0.86,2.42,3.34,0.217,-4.389,1.698,2.179
1289,0.0364,-0.0074,-0.0278,0.83,2.42,3.37,0.217,-5.808,1.697,2.324
1299,0.0347,-0.0110,-0.0282,0.81,2.40,3.40,0.217,-4.238,2.410,1.993
1309,0.0307,-0.0127,-0.0284,0.77,2.39,3.42,0.217,-3.909,3.964,1.787
1319,0.0279,-0.0163,-0.0289,0.73,2.36,3.45,0.232,-5.105,5.491,1.726
1329,0.0240,-0.0178,-0.0296,0.69,2.34,3.47,0.232,-5.839,6.438,1.598
1339,0.0197,-0.0194,-0.0081,0.66,2.30,3.48,0.232,-3.079,7.063,1.645
1349,0.0163,-0.0223,-0.0084,0.63,2.25,3.50,0.232,-4.698,7.581,1.520
1359,0.0131,-0.0254,-0.0083,0.58,2.19,3.52,0.232,-4.812,8.552,1.416
1369,0.0102,-0.0267,-0.0079,0.54,2.12,3.54,0.216,-5.712,9.830,0.704
1379,0.0071,-0.0277,-0.0284,0.50,2.04,3.55,0.216,-6.392,9.870,0.408
1389,0.0017,-0.0304,-0.0281,0.46,1.97,3.57,0.216,-7.919,9.795,-0.123
1399,0.0001,-0.0342,-0.0281,0.42,1.87,3.57,0.216,-6.959,9.641,-1.055
1409,-0.0033,-0.0328,-0.0278,0.34,1.77,3.58,0.216,-9.907,8.933,-1.399
1419,-0.0043,-0.0379,-0.0271,0.30,1.66,3.58,0.227,-11.036,9.725,-1.437
1429,-0.0074,-0.0360,-0.0262,0.21,1.57,3.57,0.227,-12.417,8.307,-1.423
1438,-0.0135,-0.0375,-0.0105,0.12,1.49,3.56,0.227,-9.776,8.945,-2.514
1449,-0.0160,-0.0378,-0.0095,0.02,1.40,3.54,0.227,-9.598,7.729,-2.545
1458,-0.0163,-0.0387,-0.0086,-0.09,1.31,3.53,0.227,-8.814,6.402,-2.998
1469,-0.0182,-0.0412,-0.0075,-0.17,1.23,3.50,0.219,-8.472,7.005,-3.235
1479,-0.0214,-0.0435,-0.0142,-0.25,1.16,3.48,0.219,-8.293,8.179,-3.405
1490,-0.0230,-0.0423,-0.0125,-0.34,1.08,3.45,0.219,-7.624,8.685,-3.682
1498,-0.0246,-0.0408,-0.0109,-0.43,1.01,3.41,0.219,-7.984,5.930,-3.668
1509,-0.0240,-0.0425,-0.0097,-0.49,0.92,3.38,0.219,-5.821,8.961,-3.356
1519,-0.0271,-0.0393,-0.0086,-0.58,0.84,3.34,0.222,-3.403,12.231,-4.394
1528,-0.0280,-0.0410,-0.0070,-0.65,0.76,3.30,0.222,-7.365,7.800,-3.658
1539,-0.0283,-0.0397,-0.0029,-0.71,0.67,3.26,0.222,-3.766,13.369,-4.347
1548,-0.0306,-0.0379,-0.0013,-0.76,0.56,3.22,0.222,-6.463,9.999,-3.985
1559,-0.0319,-0.0366,0.0003,-0.82,0.47,3.18,0.222,-5.474,8.178,-4.641
1569,-0.0333,-0.0349,0.0015,-0.87,0.35,3.14,0.212,-3.183,11.650,-5.324
1579,-0.0311,-0.0360,-0.0178,-0.90,0.22,3.09,0.212,-3.058,10.831,-5.893
1589,-0.0321,-0.0329,-0.0170,-0.97,0.14,3.04,0.212,-1.975,7.285,-5.559
1599,-0.0329,-0.0314,-0.0154,-1.01,0.03,2.99,0.212,-1.477,6.988,-6.167
1609,-0.0341,-0.0299,-0.0135,-1.03,-0.07,2.93,0.212,-2.051,6.492,-6.569
1619,-0.0318,-0.0285,-0.0119,-1.05,-0.16,2.87,0.222,-0.701,5.251,-6.914
1628,-0.0310,-0.0288,-0.0105,-1.06,-0.24,2.81,0.222,-1.229,5.746,-7.102
1639,-0.0307,-0.0260,0.0035,-1.08,-0.30,2.74,0.222,0.403,5.348,-7.507
1648,-0.0285,-0.0247,0.0053,-1.09,-0.36,2.68,0.222,0.369,5.144,-7.285
1659,-0.0279,-0.0228,0.0075,-1.10,-0.41,2.61,0.222,2.138,4.242,-7.886
1669,-0.0273,-0.0202,0.0096,-1.11,-0.46,2.53,0.215,0.781,4.265,-7.434
1679,-0.0265,-0.0180,0.0021,-1.11,-0.50,2.46,0.215,0.197,3.239,-7.914
1688,-0.0257,-0.0160,0.0037,-1.10,-0.54,2.38,0.215,1.680,2.319,-8.116
1699,-0.0251,-0.0137,0.0050,-1.09,-0.58,2.31,0.215,1.679,1.939,-7.864
1709,-0.0244,-0.0164,0.0063,-1.05,-0.61,2.23,0.215,2.523,2.277,-7.435
1718,-0.0239,-0.0110,0.0080,-1.05,-0.63,2.14,0.224,2.757,2.089,-7.546
1728,-0.0217,-0.0107,0.0099,-1.02,-0.66,2.06,0.224,3.854,2.160,-7.690
1739,-0.0226,-0.0121,0.0255,-0.97,-0.67,1.99,0.224,4.124,1.515,-8.257
1749,-0.0233,-0.0123,0.0269,-0.92,-0.68,1.91,0.224,4.563,1.277,-8.529
1758,-0.0210,-0.0124,0.0281,-0.86,-0.71,1.83,0.224,4.526,2.043,-8.547
1768,-0.0198,-0.0109,0.0292,-0.81,-0.72,1.75,0.215,2.622,1.018,-7.772
1779,-0.0194,-0.0083,0.0165,-0.77,-0.73,1.66,0.215,4.187,0.651,-8.073
1789,-0.0182,-0.0069,0.0181,-0.73,-0.74,1.58,0.215,4.759,2.379,-7.724
1798,-0.0169,-0.0056,0.0191,-0.70,-0.75,1.50,0.215,3.897,0.785,-7.719
1808,-0.0156,-0.0044,0.0199,-0.65,-0.77,1.42,0.215,1.767,1.232,-7.842
1818,-0.0153,-0.0038,0.0204,-0.61,-0.78,1.34,0.229,6.809,3.258,-8.452
1829,-0.0116,-0.0029,0.0211,-0.56,-0.80,1.26,0.229,7.177,1.529,-7.824
1838,-0.0111,-0.0023,0.0417,-0.54,-0.82,1.18,0.229,6.497,2.236,-7.912
1848,-0.0097,-0.0014,0.0428,-0.49,-0.84,1.10,0.229,7.078,2.558,-8.531
1859,-0.0059,-0.0015,0.0438,-0.42,-0.87,1.02,0.229,6.768,0.113,-9.289
1869,-0.0055,-0.0000,0.0443,-0.36,-0.89,0.94,0.218,8.006,1.450,-9.028
1879,-0.0038,0.0010,0.0285,-0.29,-0.91,0.86,0.218,7.369,-0.200,-9.031
1888,-0.0022,0.0015,0.0286,-0.21,-0.92,0.77,0.218,5.620,-1.222,-8.976
1898,-0.0004,-0.0010,0.0288,-0.12,-0.94,0.68,0.218,4.801,-1.932,-9.077
1909,0.0009,0.0002,0.0289,-0.04,-0.94,0.59,0.218,4.148,-2.599,-9.115
1919,0.0039,-0.0004,0.0288,0.01,-0.93,0.50,0.229,2.748,-4.450,-9.145
1928,0.0083,-0.0010,0.0285,0.06,-0.93,0.41,0.229,1.068,-6.048,-9.153
1940,0.0100,-0.0010,0.0386,0.11,-0.91,0.32,0.229,0.364,-6.419,-8.143
1949,0.0115,-0.0012,0.0381,0.13,-0.87,0.23,0.229,0.112,-8.341,-9.668
1958,0.0151,-0.0016,0.0381,0.14,-0.82,0.14,0.229,1.188,-9.618,-8.787
1968,0.0149,-0.0036,0.0383,0.16,-0.75,0.05,0.222,1.197,-9.481,-9.445
1979,0.0159,-0.0040,0.0260,0.17,-0.67,-0.04,0.222,1.446,-8.632,-9.960
1989,0.0169,-0.0026,0.0260,0.18,-0.56,-0.14,0.222,-0.960,-9.277,-9.095
1998,0.0178,-0.0031,0.0254,0.19,-0.47,-0.23,0.222,0.012,-8.988,-9.056
2008,0.0200,-0.0033,0.0248,0.20,-0.39,-0.33,0.222,-0.048,-9.484,-9.791
2018,0.0186,-0.0049,0.0246,0.21,-0.29,-0.42,0.230,-1.280,-8.669,-9.295
2029,0.0237,-0.0050,0.0243,0.19,-0.23,-0.51,0.230,-1.898,-8.623,-9.594
2039,0.0253,-0.0048,0.0312,0.18,-0.14,-0.61,0.230,-3.919,-6.908,-8.780
2048,0.0268,-0.0062,0.0314,0.17,-0.06,-0.70,0.230,0.876,-6.670,-9.156
2058,0.0269,-0.0065,0.0315,0.15,0.02,-0.79,0.230,-2.990,-5.245,-8.246
2069,0.0300,-0.0082,0.0312,0.13,0.06,-0.88,0.223,-4.600,-6.492,-7.765
2079,0.0279,-0.0111,0.0166,0.14,0.14,-0.97,0.223,-5.190,-6.683,-7.354
2088,0.0308,-0.0103,0.0168,0.11,0.18,-1.06,0.223,-1.819,-4.954,-7.653
2098,0.0284,-0.0110,0.0166,0.06,0.26,-1.14,0.223,-0.045,-7.250,-6.820
2108,0.0279,-0.0104,0.0161,0.01,0.32,-1.21,0.223,-4.972,-6.273,-6.185
2118,0.0274,-0.0104,0.0155,-0.01,0.37,-1.28,0.233,-2.173,-7.692,-5.993
2129,0.0299,-0.0127,0.0153,0.00,0.43,-1.35,0.233,-3.484,-6.126,-6.055
2139,0.0305,-0.0121,0.0273,-0.05,0.48,-1.42,0.233,-7.052,-7.013,-5.173
2149,0.0278,-0.0126,0.0276,-0.07,0.57,-1.48,0.233,-4.213,-7.394,-5.253
2158,0.0281,-0.0144,0.0278,-0.10,0.62,-1.54,0.233,-2.845,-5.829,-5.453
2168,0.0267,-0.0133,0.0278,-0.15,0.69,-1.59,0.225,-7.601,-6.247,-4.645
2179,0.0254,-0.0168,0.0278,-0.17,0.76,-1.64,0.225,-2.213,-4.144,-5.137
2188,0.0256,-0.0150,0.0145,-0.22,0.82,-1.70,0.225,-7.300,-3.740,-4.764
2198,0.0228,-0.0153,0.0144,-0.28,0.88,-1.74,0.225,-2.450,-2.753,-5.148
2208,0.0200,-0.0149,0.0147,-0.31,0.94,-1.79,0.225,-3.757,-0.958,-5.067
2218,0.0191,-0.0136,0.0149,-0.37,0.98,-1.84,0.233,-3.566,-0.645,-4.181
2229,0.0166,-0.0149,0.0145,-0.40,1.01,-1.89,0.233,-4.561,0.256,-3.731
2238,0.0160,-0.0131,0.0223,-0.45,1.01,-1.94,0.233,-4.396,0.593,-3.457
2248,0.0142,-0.0123,0.0225,-0.50,1.02,-1.98,0.233,-4.109,1.351,-3.145
2258,0.0121,-0.0120,0.0228,-0.55,1.02,-2.02,0.233,-4.675,2.148,-2.913
2268,0.0104,-0.0110,0.0229,-0.59,1.01,-2.05,0.227,-3.095,1.892,-2.763
2279,0.0083,-0.0187,0.0231,-0.58,1.00,-2.08,0.227,-2.824,3.171,-1.995
2288,0.0067,-0.0183,0.0129,-0.62,0.98,-2.11,0.227,-2.623,3.707,-2.372
2298,0.0052,-0.0178,0.0131,-0.65,0.96,-2.14,0.227,-2.471,4.344,-1.773
2308,0.0038,-0.0190,0.0133,-0.66,0.93,-2.16,0.227,-2.956,4.786,-2.043
2318,0.0027,-0.0185,0.0135,-0.69,0.89,-2.18,0.237,-4.333,4.917,-1.599
2328,0.0003,-0.0162,0.0139,-0.72,0.86,-2.20,0.237,-4.523,4.560,-1.619
2338,-0.0013,-0.0149,0.0286,-0.75,0.81,-2.22,0.237,-5.698,4.543,-0.707
2348,-0.0034,-0.0124,0.0292,-0.80,0.77,-2.24,0.237,-7.103,3.656,-0.277
2358,-0.0047,-0.0110,0.0296,-0.85,0.72,-2.25,0.237,-5.613,4.846,-0.126
2368,-0.0068,-0.0082,0.0300,-0.91,0.68,-2.26,0.227,-5.941,3.311,0.123
2378,-0.0070,-0.0089,0.0144,-0.96,0.64,-2.26,0.227,-4.289,3.074,0.224
2388,-0.0090,-0.0094,0.0148,-1.00,0.60,-2.27,0.227,-1.392,3.403,0.910
2398,-0.0109,-0.0083,0.0151,-1.06,0.57,-2.27,0.227,0.588,5.661,0.826
2408,-0.0118,-0.0064,0.0154,-1.10,0.54,-2.26,0.227,2.015,6.217,1.418
2418,-0.0116,-0.0060,0.0159,-1.11,0.50,-2.26,0.235,3.543,6.368,1.970
2428,-0.0177,-0.0056,0.0165,-1.10,0.48,-2.25,0.235,4.900,6.779,1.165
2438,-0.0170,-0.0057,0.0228,-1.07,0.41,-2.23,0.235,2.460,4.922,2.121
2448,-0.0177,-0.0027,0.0234,-1.03,0.34,-2.22,0.235,2.487,5.828,2.604
2458,-0.0185,-0.0012,0.0240,-0.98,0.28,-2.20,0.235,3.602,6.919,2.655
2468,-0.0225,0.0020,0.0247,-0.96,0.24,-2.18,0.229,1.329,6.997,3.271
2478,-0.0228,0.0036,0.0256,-0.92,0.18,-2.16,0.229,-0.494,5.391,3.708
2488,-0.0229,0.0048,0.0145,-0.89,0.12,-2.13,0.229,1.446,6.300,3.257
2498,-0.0249,0.0059,0.0151,-0.86,0.06,-2.11,0.229,2.601,6.204,3.686
2508,-0.0247,0.0067,0.0154,-0.85,-0.00,-2.07,0.229,3.788,6.140,3.681
2518,-0.0245,0.0073,0.0155,-0.83,-0.08,-2.04,0.226,2.947,6.339,4.379
2528,-0.0243,0.0087,0.0160,-0.80,-0.14,-2.00,0.226,5.206,7.091,4.091
2537,-0.0255,0.0091,-0.0007,-0.78,-0.20,-1.96,0.226,5.727,5.825,3.553
2548,-0.0251,0.0105,-0.0003,-0.76,-0.26,-1.92,0.226,6.862,6.206,3.654
2558,-0.0262,0.0122,0.0001,-0.71,-0.33,-1.88,0.226,8.502,7.505,3.628
2568,-0.0256,0.0134,0.0009,-0.67,-0.39,-1.84,0.234,6.247,8.157,5.021
2578,-0.0264,0.0129,0.0017,-0.60,-0.45,-1.80,0.234,5.875,7.873,5.010
2588,-0.0256,0.0140,0.0110,-0.53,-0.52,-1.76,0.234,4.945,6.805,5.238
2598,-0.0260,0.0207,0.0117,-0.50,-0.58,-1.71,0.234,3.986,5.253,4.335
2608,-0.0250,0.0216,0.0123,-0.44,-0.65,-1.66,0.234,2.674,3.883,5.644
2618,-0.0239,0.0208,0.0132,-0.37,-0.72,-1.61,0.229,5.783,2.851,3.688
2628,-0.0249,0.0201,0.0144,-0.31,-0.76,-1.57,0.229,2.789,3.370,4.653
2638,-0.0222,0.0208,0.0075,-0.28,-0.80,-1.51,0.229,7.436,0.667,4.576
2648,-0.0231,0.0219,0.0082,-0.23,-0.82,-1.48,0.229,3.902,2.965,4.375
2658,-0.0216,0.0223,0.0087,-0.20,-0.85,-1.43,0.229,10.209,2.500,2.949
2668,-0.0202,0.0226,0.0094,-0.14,-0.86,-1.38,0.227,9.910,-0.057,3.425
2678,-0.0187,0.0228,0.0106,-0.09,-0.88,-1.34,0.227,9.691,3.216,4.686
2688,-0.0172,0.0228,0.0026,0.01,-0.90,-1.31,0.227,3.077,1.086,4.305
2698,-0.0183,0.0261,0.0033,0.10,-0.89,-1.27,0.227,0.129,1.675,5.009
2708,-0.0168,0.0259,0.0037,0.20,-0.92,-1.23,0.227,1.354,1.907,4.739
2718,-0.0152,0.0255,0.0042,0.23,-0.93,-1.18,0.231,7.204,2.453,3.376
2728,-0.0129,0.0258,0.0049,0.23,-0.95,-1.13,0.231,2.934,-0.268,5.392
2738,-0.0112,0.0254,0.0088,0.25,-0.97,-1.09,0.231,-0.389,0.276,4.956
2748,-0.0112,0.0232,0.0098,0.33,-0.98,-1.05,0.231,3.734,1.404,4.443
2758,-0.0096,0.0226,0.0102,0.36,-0.97,-0.99,0.231,5.903,-1.959,3.263
2768,-0.0073,0.0247,0.0105,0.35,-0.97,-0.95,0.228,3.680,-3.095,3.454
2778,-0.0058,0.0199,0.0054,0.42,-0.98,-0.91,0.228,4.162,-3.411,2.535
2788,-0.0041,0.0191,0.0065,0.47,-0.96,-0.88,0.228,2.574,-1.937,2.581
2798,-0.0024,0.0183,0.0072,0.51,-0.93,-0.84,0.228,0.932,-1.935,2.326
2808,-0.0008,0.0174,0.0075,0.56,-0.91,-0.82,0.228,0.437,-2.535,2.556
2818,0.0007,0.0164,0.0077,0.59,-0.89,-0.79,0.234,-0.535,-4.526,2.386
2828,0.0062,0.0143,0.0080,0.61,-0.90,-0.77,0.234,-3.400,-4.994,2.752
2838,0.0078,0.0133,0.0175,0.62,-0.88,-0.74,0.234,-7.879,-4.227,3.306
2848,0.0093,0.0122,0.0182,0.62,-0.83,-0.72,0.234,-2.090,-3.188,1.185
2858,0.0107,0.0111,0.0185,0.58,-0.78,-0.69,0.234,-5.620,-3.646,2.676
2868,0.0156,0.0103,0.0185,0.51,-0.76,-0.66,0.232,-1.562,-4.987,1.940
2878,0.0153,0.0078,0.0179,0.49,-0.72,-0.65,0.232,1.189,-4.056,1.434
2888,0.0172,0.0044,0.0186,0.46,-0.69,-0.62,0.232,-2.442,-4.630,1.871
2898,0.0168,0.0014,0.0193,0.45,-0.63,-0.60,0.232,-2.275,-6.627,2.676
2908,0.0183,-0.0010,0.0197,0.46,-0.59,-0.58,0.232,1.450,-5.150,1.538
2918,0.0214,-0.0038,0.0195,0.46,-0.55,-0.56,0.239,-2.128,-8.356,1.949
2928,0.0223,-0.0046,0.0195,0.45,-0.49,-0.54,0.239,-3.941,-8.146,1.766
2938,0.0209,-0.0072,0.0327,0.46,-0.41,-0.52,0.239,-3.018,-7.590,1.410
2948,0.0213,-0.0049,0.0329,0.42,-0.32,-0.51,0.239,-8.195,-6.656,1.549
2958,0.0194,-0.0091,0.0329,0.41,-0.23,-0.49,0.239,-9.446,-8.275,1.504
2968,0.0199,-0.0084,0.0326,0.37,-0.15,-0.48,0.237,-7.102,-7.024,0.771
2978,0.0219,-0.0128,0.0319,0.31,-0.10,-0.46,0.237,-11.075,-6.552,1.518
2988,0.0258,-0.0116,0.0319,0.20,-0.04,-0.45,0.237,-14.913,-8.173,1.087
2998,0.0238,-0.0120,0.0320,0.13,0.05,-0.44,0.237,-14.599,-7.442,1.468
3008,0.0237,-0.0122,0.0317,0.02,0.11,-0.43,0.237,-10.578,-5.695,0.581
3018,0.0234,-0.0173,0.0313,-0.10,0.18,-0.41,0.240,-3.080,-5.902,0.627
3028,0.0269,-0.0165,0.0310,-0.24,0.24,-0.40,0.240,-3.602,-4.439,1.183
3038,0.0228,-0.0187,0.0331,-0.32,0.31,-0.39,0.240,-3.897,-6.316,1.197
3048,0.0226,-0.0168,0.0332,-0.36,0.36,-0.38,0.240,-4.195,-4.680,1.662
3058,0.0239,-0.0186,0.0332,-0.39,0.40,-0.37,0.240,-3.194,-3.483,1.026
3068,0.0234,-0.0167,0.0329,-0.43,0.46,-0.36,0.239,-9.852,-4.935,2.417
3078,0.0230,-0.0166,0.0321,-0.48,0.51,-0.34,0.239,-5.694,-3.768,1.692
3088,0.0225,-0.0156,0.0275,-0.52,0.54,-0.33,0.239,-8.256,-4.764,2.718
3098,0.0219,-0.0152,0.0271,-0.60,0.59,-0.31,0.239,-8.054,-1.547,2.251
3108,0.0194,-0.0140,0.0271,-0.68,0.64,-0.29,0.239,-2.472,-0.085,1.838
3118,0.0174,-0.0131,0.0271,-0.75,0.68,-0.26,0.241,-1.047,2.349,1.910
3128,0.0158,-0.0126,0.0270,-0.83,0.69,-0.24,0.241,-5.636,-0.491,2.499
3138,0.0178,-0.0124,0.0253,-0.85,0.67,-0.22,0.241,0.573,0.562,2.461
3148,0.0143,-0.0097,0.0253,-0.89,0.68,-0.19,0.241,-2.867,-2.173,2.997
3158,0.0132,-0.0081,0.0254,-0.93,0.69,-0.17,0.241,-2.641,-0.883,3.229
3168,0.0132,-0.0075,0.0256,-0.93,0.69,-0.14,0.238,-0.448,-1.626,3.142
3178,0.0120,-0.0059,0.0254,-0.94,0.70,-0.11,0.238,0.566,-0.526,2.199
3188,0.0102,-0.0060,0.0155,-0.94,0.71,-0.08,0.238,0.923,-0.504,2.828
3198,0.0104,-0.0026,0.0150,-0.95,0.73,-0.05,0.238,2.660,0.079,3.097
3208,0.0054,-0.0010,0.0147,-0.94,0.76,-0.03,0.238,2.512,0.338,2.799
3218,0.0041,0.0007,0.0149,-0.93,0.76,0.00,0.241,3.712,3.082,2.619
3228,0.0029,-0.0001,0.0153,-0.89,0.76,0.03,0.241,3.681,3.989,3.020
3238,0.0039,0.0008,0.0143,-0.86,0.73,0.06,0.241,3.773,4.171,2.939
3248,0.0015,0.0051,0.0140,-0.84,0.71,0.09,0.241,3.617,4.574,3.422
3258,0.0010,0.0074,0.0138,-0.81,0.67,0.12,0.241,3.508,5.763,3.417
3268,-0.0001,0.0088,0.0138,-0.77,0.62,0.15,0.244,4.440,5.093,3.160
3278,-0.0012,0.0101,0.0186,-0.74,0.57,0.18,0.244,4.180,4.804,3.136
3288,-0.0050,0.0139,0.0192,-0.71,0.53,0.21,0.244,3.683,4.751,3.412
3298,-0.0059,0.0151,0.0197,-0.67,0.49,0.24,0.244,3.845,4.429,3.391
3308,-0.0093,0.0169,0.0198,-0.63,0.45,0.27,0.244,4.563,4.335,3.383
3318,-0.0110,0.0185,0.0197,-0.60,0.41,0.31,0.244,5.860,3.712,3.418
3328,-0.0117,0.0195,0.0201,-0.56,0.36,0.34,0.244,6.712,3.742,3.338
3338,-0.0132,0.0189,0.0210,-0.50,0.33,0.37,0.244,8.325,2.917,3.597
3348,-0.0138,0.0197,0.0217,-0.44,0.29,0.41,0.244,8.625,4.442,3.713
3358,-0.0151,0.0185,0.0223,-0.37,0.25,0.44,0.244,9.664,5.186,3.544
3368,-0.0142,0.0245,0.0223,-0.31,0.21,0.48,0.245,9.446,6.490,4.049
3378,-0.0150,0.0229,0.0223,-0.21,0.16,0.51,0.245,8.503,7.845,4.042
3388,-0.0153,0.0232,0.0218,-0.11,0.11,0.55,0.245,11.131,7.470,4.498
3398,-0.0174,0.0249,0.0216,-0.03,0.05,0.59,0.245,5.515,9.797,4.521
3407,-0.0175,0.0240,0.0219,0.08,-0.03,0.63,0.245,12.266,8.763,3.442
3417,-0.0153,0.0258,0.0220,0.17,-0.13,0.68,0.245,3.370,9.405,5.164
3428,-0.0151,0.0255,0.0218,0.24,-0.23,0.72,0.245,8.195,6.932,3.955
3437,-0.0145,0.0272,0.0186,0.32,-0.31,0.76,0.245,6.620,5.821,4.391
3448,-0.0141,0.0247,0.0178,0.37,-0.40,0.81,0.245,5.822,4.484,4.226
3458,-0.0138,0.0222,0.0170,0.47,-0.47,0.86,0.245,4.832,2.390,4.142
3468,-0.0118,0.0234,0.0166,0.52,-0.53,0.90,0.243,7.226,1.428,3.048
3478,-0.0137,0.0246,0.0164,0.56,-0.56,0.94,0.243,2.570,1.502,4.081
3487,-0.0119,0.0164,0.0090,0.66,-0.58,0.98,0.243,4.892,0.711,3.315
3498,-0.0109,0.0153,0.0090,0.72,-0.60,1.01,0.243,1.275,0.263,4.136
3508,-0.0095,0.0182,0.0088,0.73,-0.61,1.05,0.243,1.102,0.462,3.510
3518,-0.0079,0.0109,0.0085,0.80,-0.62,1.09,0.244,-0.825,-0.310,3.276
3528,-0.0084,0.0159,0.0083,0.79,-0.62,1.12,0.244,0.339,-0.694,2.831
3537,-0.0071,0.0158,0.0045,0.79,-0.62,1.16,0.244,-1.224,1.345,2.886
3547,-0.0060,0.0121,0.0039,0.79,-0.61,1.19,0.244,-1.216,0.290,2.166
3557,-0.0030,0.0158,0.0035,0.75,-0.62,1.22,0.244,-2.057,-0.567,1.961
3568,-0.0019,0.0146,0.0034,0.73,-0.63,1.25,0.244,-3.010,0.980,1.713
3577,-0.0008,0.0133,0.0037,0.71,-0.63,1.27,0.244,0.030,0.626,0.618
3588,0.0004,0.0121,0.0019,0.68,-0.64,1.29,0.244,-3.987,-0.673,1.033
3598,0.0015,0.0110,0.0023,0.67,-0.65,1.30,0.244,-4.084,-0.595,0.794
3608,0.0043,0.0101,0.0025,0.66,-0.66,1.31,0.244,0.551,-1.699,0.071
3618,0.0033,0.0094,0.0026,0.61,-0.64,1.32,0.245,-0.255,-4.211,0.549
3627,0.0059,0.0065,0.0024,0.58,-0.64,1.33,0.245,-0.549,-3.037,-0.116
3638,0.0071,0.0056,0.0028,0.59,-0.62,1.33,0.245,-0.286,-1.711,-0.611
3647,0.0092,0.0044,0.0034,0.59,-0.58,1.33,0.245,0.658,-4.155,-0.506
3658,0.0097,-0.0005,0.0042,0.62,-0.55,1.33,0.245,-0.411,-4.882,-1.014
3668,0.0115,0.0001,0.0047,0.61,-0.54,1.32,0.243,-2.554,-3.385,-1.282
3678,0.0113,-0.0026,0.0004,0.63,-0.49,1.31,0.243,-4.431,-2.230,-1.768
3687,0.0148,-0.0013,0.0003,0.61,-0.46,1.30,0.243,-4.056,-3.711,-1.316
3697,0.0147,-0.0034,-0.0001,0.58,-0.43,1.29,0.243,-9.563,-3.629,-1.428
3707,0.0155,-0.0044,-0.0005,0.53,-0.40,1.27,0.243,-3.811,-3.970,-2.203
3718,0.0149,-0.0057,-0.0004,0.49,-0.35,1.26,0.247,-4.073,-2.958,-2.790
3727,0.0181,-0.0071,0.0001,0.40,-0.33,1.24,0.247,-2.366,-3.319,-3.189
3737,0.0187,-0.0078,0.0071,0.35,-0.29,1.22,0.247,-4.573,-4.797,-2.113
3748,0.0199,-0.0074,0.0078,0.30,-0.27,1.19,0.247,-2.671,-4.172,-2.672
3757,0.0210,-0.0124,0.0083,0.29,-0.24,1.16,0.247,-3.348,-3.942,-2.368
3767,0.0214,-0.0129,0.0085,0.24,-0.19,1.14,0.245,-4.469,-2.363,-2.871
3778,0.0217,-0.0133,0.0069,0.20,-0.15,1.11,0.245,-3.538,-1.726,-2.768
3788,0.0226,-0.0143,0.0068,0.16,-0.12,1.08,0.245,-3.514,-3.312,-2.755
3797,0.0228,-0.0146,0.0069,0.12,-0.10,1.06,0.245,-2.888,-1.479,-2.987
3808,0.0235,-0.0136,0.0073,0.08,-0.08,1.03,0.245,-3.657,-1.973,-3.180
3817,0.0265,-0.0204,0.0077,0.09,-0.07,1.00,0.242,-3.082,-3.407,-2.959
3828,0.0266,-0.0206,0.0080,0.06,-0.05,0.97,0.242,-5.083,-2.636,-3.430
3838,0.0272,-0.0231,-0.0003,0.04,-0.03,0.94,0.242,-4.538,-2.854,-3.590
3847,0.0272,-0.0232,-0.0006,0.00,-0.01,0.91,0.242,-2.534,-3.407,-4.048
3858,0.0272,-0.0232,-0.0008,-0.04,0.02,0.87,0.242,-4.893,-4.683,-4.155
3868,0.0255,-0.0258,-0.0007,-0.07,0.06,0.83,0.245,-5.411,-4.526,-3.963
3877,0.0257,-0.0238,0.0014,-0.11,0.10,0.79,0.245,-5.670,-4.879,-4.025
3887,0.0257,-0.0238,0.0017,-0.16,0.14,0.75,0.245,-7.042,-4.861,-4.222
3898,0.0257,-0.0215,0.0018,-0.24,0.18,0.72,0.245,-6.147,-5.286,-4.742
3907,0.0275,-0.0192,0.0017,-0.30,0.22,0.67,0.245,-6.044,-4.395,-5.010
3917,0.0290,-0.0169,0.0013,-0.38,0.26,0.63,0.246,-6.250,-2.999,-4.619
3928,0.0268,-0.0166,0.0013,-0.43,0.32,0.58,0.246,-5.161,-3.427,-4.844
3938,0.0286,-0.0143,0.0048,-0.50,0.34,0.54,0.246,-2.931,-2.958,-5.115
3948,0.0246,-0.0122,0.0051,-0.56,0.39,0.49,0.246,-3.117,-1.503,-5.367
3958,0.0245,-0.0103,0.0053,-0.60,0.42,0.44,0.246,-3.311,-2.074,-5.313
3967,0.0227,-0.0102,0.0053,-0.62,0.45,0.38,0.245,1.205,-0.967,-5.784
3978,0.0263,-0.0119,0.0053,-0.62,0.44,0.32,0.245,0.207,-2.974,-5.037
3987,0.0209,-0.0090,0.0044,-0.64,0.49,0.27,0.245,3.917,-0.887,-6.516
3997,0.0207,-0.0058,0.0049,-0.65,0.50,0.22,0.245,1.983,-1.841,-5.628
4007,0.0198,-0.0047,0.0055,-0.62,0.52,0.16,0.245,4.643,-0.115,-6.811
4017,0.0189,-0.0036,0.0061,-0.60,0.54,0.10,0.244,1.237,-1.466,-5.910
4027,0.0210,-0.0033,0.0060,-0.56,0.53,0.04,0.244,5.819,0.484,-7.113
4037,0.0201,-0.0023,0.0022,-0.54,0.54,-0.02,0.244,0.744,-0.015,-6.100
4048,0.0148,-0.0004,0.0021,-0.50,0.57,-0.09,0.244,6.257,-0.202,-6.962
4057,0.0138,0.0004,0.0022,-0.46,0.57,-0.16,0.244,4.750,1.472,-7.717
4067,0.0128,0.0012,0.0025,-0.42,0.57,-0.23,0.247,0.285,1.874,-6.473
4077,0.0118,0.0019,0.0025,-0.36,0.57,-0.30,0.247,2.807,0.936,-7.438
4087,0.0128,0.0022,0.0063,-0.32,0.54,-0.38,0.247,0.707,0.346,-6.458
4097,0.0119,0.0027,0.0059,-0.31,0.52,-0.44,0.247,4.694,1.406,-7.487
4106,0.0110,0.0033,0.0063,-0.27,0.52,-0.52,0.247,1.000,0.220,-7.434
4117,0.0121,0.0050,0.0068,-0.27,0.50,-0.58,0.246,1.613,-0.557,-6.768
4127,0.0110,0.0071,0.0072,-0.25,0.50,-0.66,0.246,3.957,2.145,-7.502
4137,0.0101,0.0075,0.0067,-0.21,0.50,-0.73,0.246,2.663,-1.487,-6.874
4147,0.0091,0.0111,0.0062,-0.21,0.51,-0.81,0.246,6.286,-0.473,-8.079
4157,0.0096,0.0125,0.0061,-0.19,0.50,-0.88,0.246,0.983,-0.290,-6.685
4167,0.0088,0.0129,0.0062,-0.16,0.48,-0.95,0.244,4.989,3.685,-7.049
4177,0.0080,0.0132,0.0008,-0.13,0.50,-1.02,0.244,2.172,-1.961,-6.122
4187,0.0071,0.0134,0.0005,-0.11,0.48,-1.09,0.244,1.469,0.069,-7.157
4197,0.0063,0.0136,0.0004,-0.06,0.46,-1.16,0.244,2.656,0.495,-6.060
4206,0.0051,0.0152,0.0003,-0.06,0.48,-1.22,0.244,5.649,0.159,-5.641
4216,0.0043,0.0153,0.0006,-0.03,0.47,-1.29,0.245,7.457,1.794,-6.401
4226,-0.0009,0.0183,0.0010,-0.01,0.49,-1.35,0.245,6.706,1.813,-5.986
4237,-0.0015,0.0183,0.0003,0.05,0.49,-1.40,0.245,7.205,4.730,-6.554
4247,-0.0018,0.0184,0.0005,0.12,0.47,-1.47,0.245,4.256,4.604,-6.337
4257,-0.0059,0.0203,0.0006,0.19,0.46,-1.53,0.245,3.378,4.940,-5.829
4266,-0.0067,0.0200,0.0008,0.25,0.43,-1.59,0.243,2.220,4.525,-5.467
4278,-0.0063,0.0204,-0.0041,0.27,0.38,-1.65,0.243,1.628,3.703,-5.678
4287,-0.0101,0.0231,-0.0043,0.27,0.36,-1.71,0.243,3.365,5.143,-6.253
4296,-0.0097,0.0257,-0.0042,0.27,0.32,-1.76,0.243,6.072,6.845,-4.757
4306,-0.0103,0.0252,-0.0038,0.29,0.28,-1.82,0.243,6.544,5.386,-5.570
4317,-0.0135,0.0231,-0.0030,0.33,0.24,-1.88,0.245,4.171,5.559,-3.192
4326,-0.0125,0.0247,-0.0024,0.38,0.18,-1.93,0.245,3.061,4.236,-3.710
4336,-0.0136,0.0222,-0.0000,0.46,0.13,-1.98,0.245,3.899,6.350,-2.885
4347,-0.0145,0.0220,0.0009,0.50,0.07,-2.02,0.245,0.017,3.245,-3.666
4357,-0.0149,0.0196,0.0017,0.54,0.02,-2.05,0.245,0.483,4.070,-2.699
4367,-0.0159,0.0200,0.0021,0.56,-0.02,-2.08,0.241,4.764,4.654,-2.671
4376,-0.0159,0.0191,-0.0054,0.56,-0.05,-2.11,0.241,3.217,4.125,-2.416
4388,-0.0164,0.0166,-0.0047,0.58,-0.10,-2.13,0.241,1.966,2.109,-2.603
4396,-0.0162,0.0156,-0.0039,0.63,-0.14,-2.16,0.241,1.814,3.585,-1.773
4407,-0.0171,0.0136,-0.0033,0.67,-0.17,-2.19,0.241,4.350,4.708,-1.700
4417,-0.0168,0.0125,-0.0027,0.68,-0.19,-2.21,0.243,1.762,2.559,-1.531
4427,-0.0171,0.0142,-0.0017,0.70,-0.23,-2.23,0.243,-1.164,4.130,-1.992
4437,-0.0176,0.0100,-0.0006,0.75,-0.27,-2.24,0.243,-1.740,3.217,-0.747
4446,-0.0177,0.0126,-0.0001,0.72,-0.30,-2.26,0.243,-3.091,3.842,-1.923
4456,-0.0172,0.0114,0.0005,0.72,-0.33,-2.27,0.243,-4.070,2.763,-1.022
4466,-0.0175,0.0063,0.0012,0.71,-0.36,-2.28,0.242,-4.164,4.075,-1.382
4476,-0.0138,0.0053,0.0020,0.68,-0.42,-2.30,0.242,-6.247,2.390,-0.875
4487,-0.0139,0.0047,0.0005,0.63,-0.45,-2.31,0.242,-5.679,1.969,-1.341
4496,-0.0160,0.0046,0.0012,0.56,-0.47,-2.31,0.242,-2.565,0.995,-2.563
4507,-0.0162,0.0024,0.0020,0.51,-0.47,-2.33,0.242,-5.113,1.738,-0.832
4516,-0.0165,-0.0001,0.0030,0.47,-0.48,-2.34,0.243,-4.720,-0.767,-1.690
4527,-0.0157,-0.0009,0.0041,0.42,-0.49,-2.36,0.243,-3.567,-0.905,-1.541
4536,-0.0149,-0.0017,0.0059,0.36,-0.49,-2.37,0.243,-1.391,-2.182,-2.000
4547,-0.0138,-0.0075,0.0073,0.35,-0.48,-2.38,0.243,-2.006,-2.051,-2.474
4557,-0.0130,-0.0081,0.0086,0.32,-0.46,-2.40,0.243,-5.320,-2.864,-2.073
4567,-0.0122,-0.0100,0.0095,0.31,-0.44,-2.42,0.242,-5.057,-2.016,-1.206
4577,-0.0094,-0.0095,0.0102,0.28,-0.43,-2.44,0.242,-6.851,-1.061,-1.059
4587,-0.0087,-0.0100,0.0084,0.24,-0.40,-2.46,0.242,-7.699,-1.190,-1.069
4597,-0.0081,-0.0105,0.0094,0.17,-0.38,-2.47,0.242,-5.990,-1.160,-2.746
4607,-0.0074,-0.0108,0.0104,0.09,-0.37,-2.48,0.242,-5.598,0.819,-2.523
4617,-0.0088,-0.0091,0.0112,0.00,-0.34,-2.50,0.242,-7.745,-1.391,-2.415
4626,-0.0059,-0.0119,0.0122,-0.03,-0.36,-2.53,0.242,-7.710,-0.244,-2.326
4636,-0.0054,-0.0159,0.0108,-0.08,-0.35,-2.55,0.242,-4.320,-0.150,-2.387
4646,-0.0048,-0.0158,0.0117,-0.14,-0.35,-2.57,0.242,-3.720,-0.291,-2.782
4656,-0.0042,-0.0156,0.0125,-0.20,-0.35,-2.60,0.242,-4.800,-2.900,-2.656
4666,-0.0057,-0.0158,0.0136,-0.26,-0.33,-2.62,0.247,-5.194,-3.685,-2.688
4676,-0.0035,-0.0223,0.0228,-0.26,-0.32,-2.65,0.247,-4.841,-4.387,-2.724
4687,-0.0029,-0.0218,0.0235,-0.32,-0.29,-2.68,0.247,-3.149,-3.967,-3.420
4696,-0.0024,-0.0213,0.0240,-0.36,-0.25,-2.71,0.247,-5.494,-5.286,-3.120
4706,-0.0026,-0.0211,0.0250,-0.41,-0.21,-2.73,0.247,-4.008,-3.952,-2.661
4716,-0.0022,-0.0204,0.0260,-0.45,-0.16,-2.77,0.242,-5.306,-3.600,-2.510
4727,-0.0007,-0.0244,0.0267,-0.48,-0.12,-2.80,0.242,-7.523,-3.498,-2.940
4737,-0.0010,-0.0239,0.0184,-0.51,-0.08,-2.82,0.242,-6.605,-2.218,-3.039
4747,0.0007,-0.0191,0.0187,-0.59,-0.05,-2.85,0.242,-7.104,-1.898,-3.133
4756,0.0009,-0.0181,0.0189,-0.66,-0.02,-2.88,0.242,-5.702,-1.025,-3.198
4766,0.0005,-0.0170,0.0193,-0.74,0.00,-2.91,0.245,-2.544,-0.160,-2.823
4776,0.0025,-0.0141,0.0188,-0.82,0.01,-2.94,0.245,-1.687,-0.714,-3.200
4786,0.0026,-0.0127,0.0194,-0.85,0.01,-2.98,0.245,-2.954,-2.987,-3.571
4796,0.0026,-0.0112,0.0197,-0.87,0.02,-3.01,0.245,-2.241,-4.632,-3.005
4807,0.0027,-0.0096,0.0200,-0.90,0.04,-3.04,0.245,-1.323,-4.474,-3.163
4816,0.0027,-0.0080,0.0206,-0.93,0.07,-3.07,0.245,2.352,-2.312,-2.545
4826,0.0063,-0.0060,0.0212,-0.95,0.09,-3.10,0.245,0.935,-3.732,-2.776
4836,0.0053,-0.0067,0.0187,-0.93,0.14,-3.13,0.245,5.220,-2.544,-2.642
4847,0.0052,-0.0051,0.0191,-0.91,0.17,-3.15,0.245,2.170,-4.638,-3.178
4857,0.0050,-0.0035,0.0196,-0.89,0.21,-3.18,0.245,2.024,-2.865,-2.760
4867,0.0047,-0.0020,0.0198,-0.84,0.24,-3.21,0.247,2.854,-2.510,-1.954
4876,0.0044,-0.0005,0.0203,-0.82,0.28,-3.24,0.247,4.802,-1.175,-2.575
4886,0.0080,0.0026,0.0203,-0.82,0.29,-3.26,0.247,2.916,-0.425,-1.490
4896,0.0046,0.0055,0.0204,-0.79,0.33,-3.28,0.247,2.372,-2.100,-1.755
4906,0.0061,0.0060,0.0205,-0.75,0.32,-3.30,0.247,1.067,-1.716,-0.728
4916,0.0051,0.0089,0.0204,-0.73,0.33,-3.31,0.245,2.958,-2.031,-1.150
4927,0.0042,0.0118,0.0203,-0.72,0.35,-3.33,0.245,2.790,-0.828,-0.315
4936,0.0037,0.0130,0.0139,-0.69,0.36,-3.33,0.245,4.119,0.325,-0.147
4946,0.0033,0.0196,0.0140,-0.69,0.37,-3.34,0.245,6.574,2.878,-0.341
4956,0.0027,0.0208,0.0142,-0.65,0.38,-3.34,0.245,6.527,1.568,-0.257
4966,0.0022,0.0219,0.0144,-0.60,0.37,-3.35,0.248,7.387,-0.922,0.504
4976,-0.0006,0.0208,0.0143,-0.52,0.36,-3.35,0.248,6.489,-0.632,0.551
4986,-0.0012,0.0217,0.0160,-0.45,0.36,-3.35,0.248,7.851,-1.099,0.282
4996,-0.0019,0.0226,0.0163,-0.39,0.38,-3.35,0.248,10.513,0.283,0.250
5006,-0.0025,0.0234,0.0168,-0.32,0.38,-3.34,0.248,8.035,-2.322,0.842
5016,-0.0030,0.0233,0.0170,-0.23,0.39,-3.34,0.246,10.360,-0.114,-0.250
5026,-0.0039,0.0237,0.0171,-0.15,0.40,-3.33,0.246,10.152,0.698,0.182
5036,-0.0043,0.0252,0.0118,-0.05,0.41,-3.33,0.246,6.349,0.465,1.022
5046,-0.0068,0.0248,0.0119,0.04,0.41,-3.33,0.246,7.190,1.864,0.048
5056,-0.0071,0.0247,0.0121,0.13,0.41,-3.33,0.246,5.686,2.866,-0.242
5066,-0.0069,0.0261,0.0122,0.19,0.38,-3.32,0.247,4.992,2.352,0.525
5076,-0.0075,0.0258,0.0100,0.26,0.36,-3.32,0.247,6.405,3.389,-0.124
5086,-0.0072,0.0275,0.0097,0.30,0.33,-3.31,0.247,5.004,2.718,-0.542
5096,-0.0109,0.0270,0.0099,0.35,0.32,-3.31,0.247,2.337,2.545,-0.508
5106,-0.0115,0.0265,0.0103,0.40,0.29,-3.32,0.247,0.455,2.482,0.192
5116,-0.0121,0.0258,0.0106,0.44,0.27,-3.32,0.250,4.456,2.342,0.580
5126,-0.0114,0.0279,0.0112,0.45,0.23,-3.32,0.250,2.866,2.567,0.044
5136,-0.0131,0.0255,0.0184,0.48,0.21,-3.32,0.250,3.582,3.467,0.356
5146,-0.0122,0.0271,0.0191,0.51,0.17,-3.32,0.250,3.992,4.022,0.538
5156,-0.0114,0.0265,0.0195,0.54,0.14,-3.31,0.250,4.766,3.402,-0.132
5166,-0.0117,0.0256,0.0200,0.58,0.11,-3.31,0.250,2.484,3.662,0.555
5176,-0.0131,0.0230,0.0221,0.63,0.08,-3.31,0.250,3.526,4.192,-0.176
5186,-0.0141,0.0206,0.0225,0.67,0.05,-3.31,0.250,3.199,4.738,-0.045
5196,-0.0131,0.0180,0.0231,0.72,-0.00,-3.31,0.250,4.040,4.401,-0.308
5205,-0.0158,0.0157,0.0238,0.76,-0.03,-3.30,0.250,2.462,4.528,-0.144
5216,-0.0158,0.0144,0.0243,0.79,-0.08,-3.31,0.249,1.758,3.725,-0.822
5226,-0.0164,0.0123,0.0247,0.81,-0.12,-3.31,0.249,-0.212,2.781,-0.761
5236,-0.0168,0.0120,0.0193,0.83,-0.15,-3.31,0.249,-0.183,2.556,-0.750
5246,-0.0166,0.0105,0.0199,0.84,-0.19,-3.32,0.249,-2.282,2.188,0.048
5256,-0.0164,0.0091,0.0201,0.83,-0.22,-3.32,0.249,-2.721,2.519,-0.344
5266,-0.0171,0.0078,0.0201,0.81,-0.24,-3.33,0.250,-3.221,1.899,-0.873
5276,-0.0168,0.0064,0.0166,0.79,-0.26,-3.33,0.250,-3.721,1.784,-0.667
5286,-0.0164,0.0050,0.0167,0.77,-0.28,-3.34,0.250,-3.073,2.456,0.019
5296,-0.0151,0.0019,0.0168,0.75,-0.30,-3.35,0.250,-3.525,1.847,-0.719
5307,-0.0157,0.0011,0.0169,0.71,-0.32,-3.35,0.250,-3.564,2.355,-0.619
5316,-0.0147,-0.0077,0.0171,0.71,-0.35,-3.35,0.250,-5.466,2.241,-0.213
5326,-0.0152,-0.0079,0.0174,0.67,-0.36,-3.36,0.250,-5.182,1.940,-0.163
5336,-0.0157,-0.0079,0.0156,0.62,-0.38,-3.36,0.250,-5.220,1.523,-0.553
5346,-0.0121,-0.0079,0.0158,0.55,-0.42,-3.37,0.250,-4.981,1.193,0.112
5356,-0.0109,-0.0117,0.0163,0.52,-0.44,-3.37,0.250,-5.672,0.964,-0.675
5365,-0.0098,-0.0152,0.0167,0.48,-0.45,-3.37,0.252,-4.541,0.836,-0.188
5376,-0.0074,-0.0158,0.0167,0.48,-0.47,-3.37,0.252,-7.204,0.529,0.380
5386,-0.0067,-0.0167,0.0187,0.43,-0.48,-3.38,0.252,-7.751,-1.022,0.243
5396,-0.0056,-0.0175,0.0191,0.38,-0.49,-3.38,0.252,-8.206,-1.555,0.345
5406,-0.0048,-0.0182,0.0195,0.31,-0.49,-3.38,0.252,-9.056,-1.986,0.217
5416,-0.0060,-0.0185,0.0198,0.24,-0.48,-3.38,0.256,-10.528,-3.078,0.589
5426,-0.0056,-0.0225,0.0203,0.18,-0.46,-3.38,0.256,-11.500,-3.245,0.267
5436,-0.0052,-0.0242,0.0262,0.10,-0.44,-3.37,0.256,-11.012,-2.766,0.023
5446,-0.0045,-0.0244,0.0265,0.01,-0.42,-3.37,0.256,-10.381,-3.355,0.379
5456,-0.0024,-0.0276,0.0268,-0.09,-0.39,-3.37,0.256,-10.438,-3.762,-0.233
5466,-0.0017,-0.0274,0.0272,-0.20,-0.36,-3.37,0.250,-8.671,-3.083,-0.344
5476,-0.0020,-0.0321,0.0272,-0.28,-0.33,-3.36,0.250,-8.344,-2.213,-0.006
5486,-0.0000,-0.0310,0.0163,-0.38,-0.30,-3.36,0.250,-7.017,-1.680,0.560
5496,0.0005,-0.0304,0.0165,-0.48,-0.27,-3.36,0.250,-5.204,-1.317,-0.163
5505,0.0006,-0.0293,0.0166,-0.57,-0.24,-3.36,0.250,-6.769,-0.481,0.773
5516,0.0028,-0.0264,0.0169,-0.65,-0.23,-3.36,0.254,-6.038,-0.345,1.949
5526,0.0047,-0.0290,0.0169,-0.69,-0.22,-3.35,0.254,-5.288,-0.298,1.228
5536,0.0067,-0.0280,0.0154,-0.76,-0.23,-3.35,0.254,-5.238,-0.980,0.894
5545,0.0050,-0.0248,0.0154,-0.83,-0.21,-3.33,0.254,-4.483,-1.695,1.095
5555,0.0054,-0.0234,0.0152,-0.89,-0.20,-3.32,0.254,-4.236,-1.640,1.382
5565,0.0072,-0.0223,0.0151,-0.94,-0.20,-3.31,0.254,-3.571,-3.168,1.047
5575,0.0086,-0.0305,0.0131,-0.93,-0.20,-3.29,0.254,-3.777,-5.203,1.284
5586,0.0090,-0.0289,0.0134,-0.98,-0.19,-3.28,0.254,-2.786,-5.963,0.950
5596,0.0094,-0.0273,0.0140,-1.02,-0.16,-3.26,0.254,-2.827,-5.752,0.909
5606,0.0098,-0.0256,0.0144,-1.05,-0.12,-3.25,0.254,-2.058,-5.742,0.203
5615,0.0108,-0.0225,0.0145,-1.09,-0.07,-3.24,0.257,-2.130,-4.467,1.048
5626,0.0111,-0.0207,0.0146,-1.12,-0.02,-3.23,0.257,-0.206,-5.302,0.341
5636,0.0158,-0.0199,0.0179,-1.14,0.01,-3.21,0.257,-0.634,-1.830,1.389
5645,0.0159,-0.0180,0.0179,-1.16,0.07,-3.21,0.257,0.189,-2.775,0.127
5655,0.0169,-0.0153,0.0178,-1.16,0.11,-3.20,0.257,1.594,-3.661,0.128
5666,0.0156,-0.0147,0.0183,-1.16,0.15,-3.19,0.256,1.670,-2.882,1.139
5676,0.0154,-0.0127,0.0168,-1.16,0.18,-3.18,0.256,2.443,-3.864,-0.475
5685,0.0161,-0.0127,0.0169,-1.14,0.21,-3.19,0.256,3.202,-5.700,-0.107
5695,0.0167,-0.0108,0.0172,-1.12,0.23,-3.18,0.256,3.561,-5.033,-0.063
5706,0.0164,-0.0088,0.0180,-1.10,0.26,-3.18,0.256,3.398,-4.232,0.051
5715,0.0167,-0.0074,0.0185,-1.07,0.30,-3.18,0.259,3.052,-3.103,-0.727
5725,0.0172,-0.0060,0.0188,-1.04,0.35,-3.18,0.259,3.832,-5.272,-0.268
5735,0.0197,-0.0008,0.0223,-1.03,0.37,-3.18,0.259,5.903,-4.443,-2.239
5745,0.0176,0.0022,0.0228,-1.00,0.43,-3.18,0.259,2.062,-5.960,-0.192
5755,0.0157,0.0050,0.0232,-0.96,0.49,-3.19,0.259,4.599,-0.819,-1.130
5765,0.0149,0.0067,0.0235,-0.92,0.54,-3.20,0.255,5.575,-3.958,-0.935
5775,0.0172,0.0091,0.0148,-0.89,0.57,-3.20,0.255,5.820,-2.576,-0.783
5785,0.0154,0.0113,0.0147,-0.86,0.61,-3.22,0.255,6.421,-2.610,-1.132
5795,0.0144,0.0129,0.0147,-0.80,0.63,-3.23,0.255,7.335,-0.117,-1.292
5806,0.0134,0.0143,0.0146,-0.74,0.66,-3.23,0.255,6.923,-0.822,-0.670
5815,0.0124,0.0156,0.0147,-0.68,0.69,-3.25,0.255,8.646,-1.521,-0.897
5826,0.0110,0.0212,0.0148,-0.63,0.70,-3.26,0.255,9.315,-1.142,-0.528
5836,0.0093,0.0221,0.0070,-0.57,0.70,-3.27,0.255,7.582,1.207,0.205
5845,0.0081,0.0231,0.0072,-0.49,0.72,-3.27,0.255,8.870,0.291,0.270
5856,0.0068,0.0239,0.0072,-0.40,0.73,-3.28,0.255,6.919,0.148,1.399
5866,0.0076,0.0220,0.0073,-0.30,0.71,-3.27,0.258,10.745,0.522,0.545
5875,0.0064,0.0265,0.0073,-0.23,0.69,-3.27,0.258,9.323,1.926,1.140
5885,0.0053,0.0270,0.0090,-0.16,0.69,-3.26,0.258,8.463,-0.725,2.101
5896,0.0043,0.0289,0.0087,-0.08,0.69,-3.25,0.258,9.949,0.886,2.292
5906,0.0031,0.0291,0.0088,0.01,0.68,-3.24,0.258,9.388,4.079,2.423
5916,0.0023,0.0324,0.0090,0.08,0.67,-3.22,0.261,9.307,3.930,2.433
5926,0.0018,0.0315,0.0093,0.18,0.66,-3.20,0.261,10.144,4.493,2.974
5935,-0.0023,0.0368,0.0163,0.25,0.64,-3.18,0.261,9.251,3.556,3.136
5945,-0.0034,0.0364,0.0165,0.35,0.59,-3.15,0.261,10.582,7.269,2.675
5955,-0.0037,0.0349,0.0167,0.45,0.55,-3.12,0.261,8.468,6.551,3.936
5965,-0.0046,0.0342,0.0167,0.55,0.49,-3.09,0.257,10.743,8.707,3.309
5975,-0.0064,0.0308,0.0165,0.66,0.42,-3.07,0.257,9.506,7.366,3.348
5985,-0.0071,0.0297,0.0099,0.75,0.36,-3.03,0.257,9.766,6.625,2.568
5995,-0.0121,0.0301,0.0097,0.84,0.29,-2.99,0.257,8.058,5.743,4.301
6005,-0.0127,0.0287,0.0094,0.94,0.21,-2.96,0.257,4.898,3.008,3.617
6016,-0.0132,0.0271,0.0090,1.03,0.14,-2.93,0.260,2.660,1.519,4.669
6025,-0.0144,0.0277,0.0087,1.10,0.09,-2.89,0.260,3.182,3.087,4.590
6035,-0.0158,0.0244,0.0099,1.17,0.06,-2.85,0.260,3.112,5.300,4.324
6046,-0.0170,0.0212,0.0096,1.21,0.04,-2.80,0.260,3.247,7.083,4.376
6055,-0.0156,0.0198,0.0092,1.23,0.00,-2.76,0.260,2.497,7.111,4.921
6066,-0.0159,0.0165,0.0087,1.27,-0.04,-2.72,0.262,0.027,5.047,4.876
6075,-0.0144,0.0075,0.0122,1.35,-0.11,-2.68,0.262,-0.054,5.898,5.830
6085,-0.0168,0.0088,0.0120,1.35,-0.16,-2.63,0.262,-2.634,5.142,5.452
6095,-0.0153,0.0024,0.0117,1.39,-0.22,-2.58,0.262,-0.180,9.008,5.402
6105,-0.0158,0.0003,0.0114,1.38,-0.27,-2.52,0.262,-3.002,7.279,5.658
6115,-0.0155,-0.0020,0.0109,1.36,-0.32,-2.46,0.257,-3.102,6.711,4.897
6126,-0.0152,-0.0039,0.0107,1.35,-0.39,-2.41,0.257,-4.824,3.505,5.244
6137,-0.0168,-0.0072,0.0001,1.34,-0.46,-2.35,0.257,-7.146,4.172,6.640
6145,-0.0170,-0.0121,-0.0008,1.33,-0.52,-2.29,0.257,-6.901,1.970,5.562
6155,-0.0162,-0.0144,-0.0015,1.28,-0.56,-2.24,0.257,-9.748,2.444,7.382
6165,-0.0145,-0.0187,-0.0020,1.24,-0.62,-2.18,0.259,-8.818,1.052,6.282
6176,-0.0135,-0.0209,-0.0032,1.17,-0.65,-2.12,0.259,-10.010,1.047,7.388
6185,-0.0158,-0.0263,-0.0036,1.11,-0.65,-2.05,0.259,-9.442,-2.177,6.581
6195,-0.0148,-0.0283,-0.0037,1.02,-0.65,-1.99,0.259,-10.981,-0.137,6.356
6205,-0.0137,-0.0313,-0.0039,0.92,-0.66,-1.92,0.259,-12.394,0.032,7.622
6215,-0.0123,-0.0338,-0.0040,0.81,-0.64,-1.85,0.260,-13.112,0.164,7.694
6225,-0.0108,-0.0357,-0.0039,0.69,-0.63,-1.78,0.260,-12.448,0.239,7.369
6235,-0.0096,-0.0413,-0.0018,0.60,-0.63,-1.71,0.260,-11.615,0.441,6.648
6245,-0.0083,-0.0409,-0.0018,0.47,-0.63,-1.64,0.260,-12.289,1.520,7.294
6255,-0.0069,-0.0402,-0.0017,0.34,-0.64,-1.56,0.260,-12.464,0.800,7.674
6266,-0.0054,-0.0394,-0.0014,0.22,-0.66,-1.49,0.259,-10.609,1.065,6.761
6275,-0.0040,-0.0457,-0.0020,0.13,-0.68,-1.42,0.259,-10.891,-0.425,7.065
6285,-0.0027,-0.0500,-0.0022,0.04,-0.70,-1.35,0.259,-10.633,-0.824,7.129
6295,-0.0014,-0.0540,-0.0020,-0.06,-0.71,-1.28,0.259,-11.041,-2.501,7.046
6305,-0.0019,-0.0505,-0.0013,-0.18,-0.71,-1.20,0.259,-12.397,-2.558,7.679
6315,-0.0011,-0.0505,-0.0009,-0.30,-0.71,-1.13,0.257,-12.838,-3.358,7.160
6325,0.0015,-0.0501,-0.0002,-0.41,-0.69,-1.06,0.257,-12.478,-4.334,6.930
6335,0.0020,-0.0493,-0.0047,-0.53,-0.67,-0.98,0.257,-12.849,-4.510,7.456
6345,0.0032,-0.0484,-0.0039,-0.65,-0.64,-0.91,0.257,-13.527,-4.776,7.236
6355,0.0034,-0.0509,-0.0035,-0.75,-0.59,-0.84,0.257,-11.777,-4.940,6.977
6365,0.0035,-0.0496,-0.0033,-0.87,-0.55,-0.77,0.254,-10.082,-5.174,6.601
6375,0.0071,-0.0501,-0.0030,-0.98,-0.52,-0.70,0.254,-9.592,-4.487,6.473
6385,0.0051,-0.0470,-0.0112,-1.11,-0.45,-0.63,0.254,-9.255,-4.419,6.877
6396,0.0103,-0.0491,-0.0104,-1.20,-0.43,-0.56,0.254,-8.030,-4.998,6.986
6405,0.0110,-0.0471,-0.0097,-1.30,-0.38,-0.49,0.254,-6.560,-4.283,6.609
6415,0.0123,-0.0474,-0.0087,-1.37,-0.35,-0.42,0.256,-4.398,-2.881,6.911
6425,0.0118,-0.0461,-0.0077,-1.44,-0.30,-0.36,0.256,-2.345,-3.060,6.174
6435,0.0114,-0.0451,-0.0066,-1.49,-0.25,-0.29,0.256,-3.578,-3.776,6.276
6445,0.0092,-0.0407,-0.0059,-1.54,-0.21,-0.22,0.256,-0.486,-3.450,5.424
6455,0.0105,-0.0362,-0.0052,-1.59,-0.18,-0.16,0.256,-3.861,-4.170,5.899
6465,0.0134,-0.0374,-0.0044,-1.60,-0.17,-0.09,0.259,-2.713,-4.534,5.469
6475,0.0109,-0.0331,-0.0036,-1.62,-0.12,-0.04,0.259,-0.736,-5.328,5.348
6485,0.0119,-0.0289,0.0040,-1.66,-0.08,0.02,0.259,-1.274,-5.388,4.532
6495,0.0127,-0.0268,0.0047,-1.69,-0.04,0.08,0.259,-2.855,-5.528,4.797
6505,0.0149,-0.0262,0.0053,-1.68,-0.00,0.13,0.259,-2.883,-5.281,4.394
6515,0.0153,-0.0223,0.0059,-1.70,0.04,0.18,0.252,-1.863,-5.038,4.622
6525,0.0152,-0.0194,0.0063,-1.73,0.10,0.23,0.252,0.280,-4.566,4.162
6536,0.0150,-0.0165,-0.0050,-1.75,0.15,0.28,0.252,1.885,-4.099,4.099
6545,0.0171,-0.0132,-0.0043,-1.77,0.19,0.33,0.252,3.101,-4.418,3.292
6555,0.0156,-0.0118,-0.0036,-1.75,0.24,0.37,0.252,3.723,-4.065,3.581
6565,0.0141,-0.0072,-0.0028,-1.74,0.28,0.42,0.257,5.207,-3.706,3.327
6575,0.0144,-0.0045,0.0023,-1.71,0.32,0.45,0.257,7.496,-3.357,2.785
6585,0.0146,-0.0005,0.0030,-1.67,0.35,0.49,0.257,10.557,-2.421,2.273
6595,0.0139,0.0023,0.0040,-1.61,0.39,0.52,0.257,8.701,-2.025,2.822
6605,0.0125,0.0051,0.0050,-1.53,0.42,0.56,0.257,10.558,-1.863,2.101
6615,0.0128,0.0063,0.0060,-1.42,0.43,0.58,0.252,10.768,-1.108,1.789
6625,0.0114,0.0120,0.0069,-1.35,0.46,0.61,0.252,8.066,-1.385,2.395
6635,0.0101,0.0138,-0.0012,-1.24,0.47,0.63,0.252,10.747,-0.792,2.626
6645,0.0088,0.0159,-0.0007,-1.13,0.49,0.65,0.252,9.950,-0.316,2.396
6655,0.0092,0.0191,-0.0002,-1.05,0.49,0.67,0.252,9.283,0.139,2.909
6665,0.0080,0.0206,0.0003,-0.95,0.50,0.70,0.254,11.811,1.141,1.756
6675,0.0086,0.0219,0.0001,-0.85,0.50,0.72,0.254,9.481,1.453,2.222
6685,0.0077,0.0233,0.0000,-0.75,0.50,0.75,0.254,11.057,2.471,1.574
6695,0.0050,0.0259,0.0005,-0.64,0.50,0.77,0.254,11.418,3.119,2.060
6705,0.0026,0.0245,0.0013,-0.52,0.49,0.79,0.254,11.030,3.222,2.072
6715,0.0020,0.0298,0.0021,-0.44,0.47,0.81,0.257,10.915,3.430,1.988
6726,0.0016,0.0314,0.0028,-0.33,0.44,0.83,0.257,12.738,3.360,1.468
6735,0.0012,0.0328,0.0096,-0.21,0.41,0.85,0.257,11.238,4.203,2.110
6745,0.0009,0.0320,0.0100,-0.09,0.37,0.87,0.257,10.930,2.989,1.366
6755,-0.0009,0.0346,0.0105,0.01,0.34,0.88,0.257,8.622,3.190,1.365
6765,-0.0010,0.0336,0.0108,0.13,0.31,0.90,0.255,10.035,3.286,1.357
6775,-0.0015,0.0333,0.0091,0.24,0.27,0.92,0.255,10.054,3.182,0.784
6785,-0.0032,0.0321,0.0094,0.33,0.25,0.93,0.255,8.506,3.780,1.558
6795,-0.0031,0.0341,0.0096,0.42,0.21,0.94,0.255,10.422,4.240,0.625
6805,-0.0028,0.0295,0.0098,0.54,0.18,0.95,0.255,7.338,3.646,0.580
6815,-0.0041,0.0295,0.0098,0.62,0.15,0.96,0.257,6.663,3.205,0.692
6825,-0.0043,0.0284,0.0099,0.72,0.10,0.97,0.257,6.314,3.781,0.263
6835,-0.0055,0.0253,0.0121,0.80,0.07,0.98,0.257,6.045,2.842,-0.194
6845,-0.0067,0.0256,0.0123,0.87,0.04,0.99,0.257,4.738,2.707,-0.293
6855,-0.0077,0.0224,0.0125,0.94,0.02,0.99,0.257,2.682,2.496,-0.104
6864,-0.0071,0.0227,0.0126,0.99,-0.02,0.98,0.255,1.342,3.487,-0.443
6875,-0.0071,0.0210,0.0125,1.04,-0.05,0.98,0.255,-0.299,3.965,-0.188
6885,-0.0098,0.0218,0.0083,1.05,-0.06,0.98,0.255,-1.489,3.359,-0.068
6894,-0.0097,0.0200,0.0084,1.06,-0.10,0.97,0.255,1.250,2.398,-0.865
6905,-0.0122,0.0178,0.0087,1.06,-0.12,0.97,0.255,-0.414,2.611,-0.348
6915,-0.0120,0.0159,0.0091,1.05,-0.14,0.97,0.257,-2.688,2.467,-0.250
6925,-0.0117,0.0141,0.0094,1.06,-0.17,0.97,0.257,-0.022,2.345,-0.582
6935,-0.0088,0.0123,0.0104,1.05,-0.21,0.96,0.257,-1.928,2.164,0.229
6945,-0.0095,0.0102,0.0108,1.03,-0.23,0.96,0.257,-1.284,2.667,-0.913
6955,-0.0091,0.0085,0.0108,1.03,-0.26,0.96,0.257,-2.025,2.811,-0.059
6964,-0.0079,0.0048,0.0109,1.02,-0.28,0.96,0.256,-2.471,2.086,-0.352
6976,-0.0086,0.0033,0.0110,1.01,-0.30,0.95,0.256,-1.798,2.548,0.279
6984,-0.0109,0.0019,0.0086,0.99,-0.31,0.95,0.256,-4.510,1.872,0.598
6994,-0.0095,-0.0050,0.0089,0.99,-0.34,0.95,0.256,-2.020,2.118,-0.418
7004,-0.0100,-0.0060,0.0091,0.97,-0.36,0.95,0.256,-4.709,1.476,0.223
7014,-0.0089,-0.0052,0.0094,0.92,-0.39,0.95,0.256,-4.119,1.036,-0.237
7025,-0.0077,-0.0113,0.0097,0.92,-0.41,0.95,0.256,-6.693,2.459,0.697
7035,-0.0066,-0.0153,0.0073,0.89,-0.43,0.96,0.256,-6.038,1.444,-0.012
7045,-0.0058,-0.0168,0.0077,0.85,-0.44,0.95,0.256,-8.843,2.217,0.618
7054,-0.0050,-0.0182,0.0076,0.79,-0.46,0.96,0.256,-8.456,2.004,1.199
7064,-0.0038,-0.0231,0.0077,0.75,-0.47,0.96,0.257,-8.713,1.023,0.622
7074,-0.0027,-0.0241,0.0078,0.68,-0.49,0.96,0.257,-9.079,0.409,0.388
7085,-0.0034,-0.0267,0.0080,0.60,-0.49,0.97,0.257,-9.351,-0.757,0.512
7095,-0.0041,-0.0292,0.0085,0.52,-0.48,0.98,0.257,-10.287,-1.517,0.670
7104,-0.0032,-0.0294,0.0089,0.44,-0.48,0.99,0.257,-10.716,-1.508,0.649
7114,-0.0023,-0.0312,0.0093,0.34,-0.47,0.99,0.256,-10.761,-2.360,0.708
7125,0.0001,-0.0309,0.0095,0.24,-0.47,1.00,0.256,-10.198,-1.207,0.445
7134,0.0005,-0.0339,0.0060,0.15,-0.45,1.01,0.256,-12.144,-1.536,0.848
7145,0.0010,-0.0331,0.0061,0.04,-0.43,1.01,0.256,-10.791,-1.202,0.617
7154,0.0014,-0.0390,0.0065,-0.04,-0.41,1.02,0.256,-8.722,-1.391,-0.007
7164,0.0002,-0.0379,0.0067,-0.17,-0.38,1.03,0.257,-9.539,-2.246,0.131
7174,0.0006,-0.0365,0.0065,-0.29,-0.36,1.03,0.257,-8.392,-1.599,0.174
7185,0.0026,-0.0370,0.0065,-0.37,-0.35,1.03,0.257,-7.273,-2.134,-0.240
7195,0.0030,-0.0372,0.0066,-0.46,-0.34,1.04,0.257,-7.597,-1.710,0.143
7205,0.0035,-0.0364,0.0065,-0.55,-0.33,1.04,0.257,-5.675,-1.755,-0.680
7214,0.0038,-0.0383,0.0067,-0.60,-0.31,1.04,0.258,-6.757,-1.962,0.036
7225,0.0039,-0.0404,0.0073,-0.66,-0.29,1.04,0.258,-5.426,-1.687,-0.519
7235,0.0044,-0.0392,0.0089,-0.72,-0.28,1.04,0.258,-7.279,-2.097,-0.418
7245,0.0048,-0.0380,0.0090,-0.79,-0.26,1.03,0.258,-7.279,-1.970,-0.392
7254,0.0085,-0.0378,0.0093,-0.84,-0.25,1.03,0.258,-5.062,-1.751,-0.804
7264,0.0083,-0.0376,0.0098,-0.90,-0.24,1.03,0.254,-6.305,-1.926,-0.210
7274,0.0082,-0.0376,0.0101,-0.96,-0.21,1.02,0.254,-6.370,-1.579,-0.773
7284,0.0079,-0.0356,0.0014,-1.02,-0.19,1.02,0.254,-5.204,-2.397,-1.562
7294,0.0082,-0.0338,0.0016,-1.09,-0.17,1.01,0.254,-2.459,-2.365,-1.780
7305,0.0096,-0.0300,0.0017,-1.16,-0.17,1.01,0.254,-4.376,-3.088,-1.341
7315,0.0098,-0.0280,0.0016,-1.21,-0.14,0.99,0.257,-2.103,-2.990,-2.431
7324,0.0093,-0.0262,0.0020,-1.24,-0.12,0.97,0.257,-1.744,-3.206,-2.137
7334,0.0104,-0.0228,0.0033,-1.29,-0.09,0.96,0.257,-3.048,-3.982,-1.610
7344,0.0098,-0.0214,0.0036,-1.31,-0.06,0.94,0.257,-1.717,-3.694,-1.173
7354,0.0098,-0.0192,0.0039,-1.33,-0.02,0.92,0.257,0.957,-3.092,-1.105
7364,0.0127,-0.0197,0.0044,-1.34,-0.00,0.91,0.254,3.389,-2.492,-1.776
7374,0.0135,-0.0169,0.0046,-1.36,0.03,0.89,0.254,5.239,-2.758,-2.115
7384,0.0134,-0.0146,-0.0013,-1.35,0.06,0.88,0.254,8.060,-2.114,-1.604
7395,0.0132,-0.0123,-0.0009,-1.31,0.09,0.87,0.254,6.130,-0.729,-0.785
7404,0.0143,-0.0127,-0.0008,-1.24,0.10,0.85,0.254,6.922,-0.633,-1.019
7414,0.0134,-0.0095,-0.0005,-1.17,0.12,0.84,0.254,6.199,-1.476,-0.706
7424,0.0162,-0.0082,-0.0000,-1.10,0.11,0.83,0.254,5.800,-2.674,-1.324
7434,0.0159,-0.0063,-0.0036,-1.03,0.12,0.82,0.254,3.408,-1.430,-0.789
7445,0.0157,-0.0046,-0.0033,-0.97,0.13,0.81,0.254,5.165,-2.442,-1.489
7454,0.0147,0.0005,-0.0030,-0.93,0.16,0.80,0.254,3.158,-3.724,-1.137
7465,0.0144,0.0021,-0.0029,-0.89,0.18,0.79,0.255,2.970,-5.068,-1.339
7475,0.0169,0.0049,-0.0022,-0.85,0.19,0.77,0.255,1.356,-5.152,-1.612
7485,0.0165,0.0063,-0.0016,-0.82,0.22,0.76,0.255,3.276,-4.532,-1.335
7494,0.0126,0.0072,-0.0010,-0.78,0.29,0.75,0.255,3.113,-5.288,-1.553
7504,0.0120,0.0085,-0.0004,-0.76,0.33,0.73,0.255,2.609,-5.179,-0.547
7515,0.0122,0.0089,0.0004,-0.73,0.38,0.72,0.256,3.342,-4.909,-0.663
7524,0.0124,0.0094,0.0012,-0.70,0.44,0.71,0.256,4.293,-3.762,-0.490
7534,0.0143,0.0117,0.0044,-0.68,0.47,0.70,0.256,7.883,-2.417,-0.620
7544,0.0123,0.0157,0.0052,-0.66,0.52,0.69,0.256,8.589,-1.905,-0.592
7554,0.0143,0.0150,0.0062,-0.60,0.54,0.69,0.256,9.177,-0.131,-0.677
7564,0.0133,0.0161,0.0068,-0.53,0.57,0.68,0.254,9.650,1.047,-0.302
7574,0.0117,0.0226,0.0042,-0.47,0.59,0.68,0.254,10.159,1.051,-0.059
7584,0.0106,0.0234,0.0052,-0.38,0.59,0.67,0.254,9.486,2.190,-0.048
7594,0.0096,0.0241,0.0058,-0.28,0.58,0.67,0.254,8.979,2.302,0.545
7604,0.0106,0.0241,0.0065,-0.18,0.55,0.67,0.254,9.342,1.868,0.001
7614,0.0097,0.0239,0.0072,-0.08,0.53,0.66,0.254,8.778,0.853,-0.025
7624,0.0069,0.0215,0.0077,0.03,0.51,0.66,0.254,8.071,2.041,-0.231
7634,0.0059,0.0252,0.0052,0.11,0.49,0.66,0.254,6.574,0.855,0.257
7644,0.0051,0.0250,0.0059,0.20,0.48,0.66,0.254,5.683,0.462,0.328
7654,0.0062,0.0225,0.0066,0.29,0.46,0.66,0.254,4.976,-0.612,0.916
7664,0.0032,0.0219,0.0068,0.36,0.47,0.67,0.259,6.867,0.102,0.039
7674,0.0041,0.0178,0.0157,0.44,0.46,0.67,0.259,5.142,0.770,0.072
7684,0.0011,0.0250,0.0162,0.45,0.48,0.68,0.259,5.322,1.360,0.238
7694,0.0003,0.0244,0.0168,0.52,0.49,0.68,0.259,3.368,2.070,0.803
7704,-0.0004,0.0236,0.0172,0.57,0.49,0.68,0.259,2.714,2.254,0.634
7714,-0.0028,0.0212,0.0178,0.63,0.49,0.68,0.256,2.813,2.526,-0.004
7724,-0.0036,0.0201,0.0182,0.67,0.47,0.69,0.256,3.513,2.573,-0.277
7734,-0.0044,0.0189,0.0146,0.70,0.45,0.69,0.256,3.374,2.562,0.031
7744,-0.0051,0.0177,0.0151,0.73,0.42,0.69,0.256,3.519,2.591,0.520
7754,-0.0091,0.0152,0.0155,0.76,0.41,0.69,0.256,2.952,3.939,0.498
7764,-0.0098,0.0139,0.0155,0.80,0.37,0.69,0.258,3.056,4.634,0.365
7774,-0.0113,0.0115,0.0153,0.83,0.34,0.70,0.258,2.087,5.536,0.951
7784,-0.0126,0.0092,0.0163,0.86,0.30,0.70,0.258,1.518,4.691,0.363
7794,-0.0131,0.0077,0.0161,0.88,0.26,0.71,0.258,1.961,6.295,0.279
7804,-0.0143,0.0056,0.0156,0.91,0.20,0.72,0.258,-0.587,7.666,0.066
7814,-0.0149,0.0055,0.0152,0.91,0.15,0.72,0.258,-0.834,9.666,-0.174
7824,-0.0173,0.0039,0.0149,0.93,0.10,0.72,0.258,-2.082,8.210,-0.415
7834,-0.0172,0.0023,0.0131,0.92,0.02,0.73,0.258,-3.452,8.024,-0.123
7844,-0.0152,-0.0028,0.0128,0.93,-0.09,0.73,0.258,-6.578,6.931,0.243
7854,-0.0151,-0.0037,0.0124,0.91,-0.17,0.72,0.258,-5.266,6.733,0.763
7864,-0.0148,-0.0052,0.0120,0.87,-0.25,0.72,0.256,-4.434,4.575,0.108
7874,-0.0147,-0.0093,0.0114,0.82,-0.32,0.73,0.256,-5.037,2.423,-0.053
7884,-0.0146,-0.0134,0.0050,0.78,-0.38,0.73,0.256,-6.982,-0.457,0.382
7894,-0.0149,-0.0135,0.0048,0.73,-0.41,0.74,0.256,-7.086,2.450,0.141
7904,-0.0137,-0.0151,0.0044,0.68,-0.43,0.74,0.256,-7.697,-0.094,0.145
7914,-0.0158,-0.0182,0.0041,0.62,-0.42,0.74,0.256,-8.084,-1.136,0.333
7924,-0.0165,-0.0175,0.0035,0.54,-0.43,0.74,0.256,-7.643,-0.682,-0.384
7933,-0.0134,-0.0221,-0.0012,0.49,-0.44,0.74,0.256,-9.223,-0.230,0.552
7944,-0.0122,-0.0228,-0.0016,0.41,-0.44,0.74,0.256,-8.409,-0.079,0.002
7954,-0.0127,-0.0232,-0.0020,0.32,-0.43,0.74,0.256,-9.097,0.545,0.711
7965,-0.0132,-0.0218,-0.0018,0.22,-0.43,0.75,0.256,-7.821,1.476,0.550
7974,-0.0120,-0.0253,-0.0037,0.15,-0.43,0.75,0.256,-8.149,2.382,0.706
7984,-0.0107,-0.0253,-0.0037,0.07,-0.44,0.75,0.256,-7.747,2.396,0.478
7994,-0.0092,-0.0304,-0.0037,0.02,-0.47,0.76,0.256,-6.744,2.313,0.307
8004,-0.0095,-0.0300,-0.0036,-0.07,-0.48,0.77,0.256,-7.365,2.178,0.352
8014,-0.0079,-0.0348,-0.0035,-0.12,-0.51,0.77,0.254,-6.070,1.702,0.673
8024,-0.0070,-0.0346,-0.0031,-0.18,-0.54,0.78,0.254,-7.117,1.082,0.540
8034,-0.0074,-0.0322,-0.0081,-0.27,-0.55,0.78,0.254,-6.497,0.101,0.388
8043,-0.0044,-0.0314,-0.0077,-0.33,-0.58,0.79,0.254,-6.967,-1.177,0.283
8054,-0.0049,-0.0289,-0.0074,-0.41,-0.58,0.80,0.254,-6.824,-1.519,0.301
8064,-0.0039,-0.0279,-0.0071,-0.48,-0.58,0.80,0.254,-7.682,-0.872,0.440
8074,-0.0031,-0.0304,-0.0091,-0.53,-0.57,0.80,0.254,-6.780,-2.293,-0.140
8084,-0.0021,-0.0291,-0.0087,-0.61,-0.55,0.80,0.254,-7.064,-3.013,0.396
8094,-0.0013,-0.0329,-0.0085,-0.65,-0.54,0.81,0.254,-6.310,-2.458,0.263
8104,-0.0007,-0.0365,-0.0081,-0.69,-0.51,0.81,0.254,-4.329,-2.171,0.278
8114,0.0001,-0.0353,-0.0074,-0.75,-0.48,0.81,0.257,-3.356,-1.507,0.682
8124,-0.0012,-0.0323,-0.0070,-0.82,-0.45,0.82,0.257,-2.838,-0.983,0.029
8134,-0.0006,-0.0311,-0.0006,-0.86,-0.43,0.82,0.257,-1.719,-0.747,0.103
8144,0.0001,-0.0296,-0.0000,-0.88,-0.41,0.83,0.257,-2.328,-0.618,0.110
8155,0.0008,-0.0280,0.0005,-0.91,-0.41,0.83,0.257,-2.092,-1.081,-0.036
8164,0.0013,-0.0270,0.0008,-0.93,-0.40,0.83,0.250,-2.671,-1.801,-0.363
8174,0.0019,-0.0254,0.0009,-0.95,-0.39,0.83,0.250,-2.735,-2.358,-0.284
8184,0.0025,-0.0238,-0.0088,-0.97,-0.38,0.83,0.250,-3.544,-2.066,-0.680
8194,0.0032,-0.0221,-0.0087,-1.00,-0.35,0.83,0.250,-3.688,-1.865,-0.472
8204,0.0052,-0.0190,-0.0084,-1.04,-0.34,0.83,0.250,-4.002,-2.974,-0.670
8214,0.0058,-0.0172,-0.0078,-1.08,-0.32,0.82,0.252,-3.796,-4.128,-1.113
8223,0.0063,-0.0153,-0.0072,-1.11,-0.30,0.82,0.252,-2.169,-4.361,-0.397
8233,0.0068,-0.0134,-0.0072,-1.16,-0.26,0.81,0.252,-1.972,-4.605,-0.597
8244,0.0082,-0.0105,-0.0065,-1.20,-0.23,0.80,0.252,-0.492,-4.450,-0.530
8254,0.0086,-0.0084,-0.0055,-1.22,-0.19,0.80,0.252,2.496,-4.015,-0.646
8264,0.0089,-0.0063,-0.0047,-1.23,-0.14,0.79,0.250,3.704,-4.058,-0.455
8274,0.0124,-0.0173,-0.0039,-1.15,-0.12,0.79,0.250,3.796,-4.206,-0.136
8284,0.0126,-0.0153,-0.0094,-1.13,-0.07,0.79,0.250,4.587,-3.739,0.082
8293,0.0127,-0.0134,-0.0088,-1.10,-0.03,0.78,0.250,3.993,-3.828,0.107
8304,0.0137,-0.0117,-0.0080,-1.06,0.01,0.79,0.250,4.343,-4.207,0.204
8313,0.0136,-0.0099,-0.0072,-1.02,0.05,0.79,0.252,3.518,-2.899,-0.164
8323,0.0144,-0.0064,-0.0066,-0.99,0.08,0.79,0.252,2.017,-3.211,-0.656
8334,0.0175,-0.0137,-0.0042,-0.89,0.09,0.79,0.252,1.628,-3.721,-0.765
8344,0.0174,-0.0122,-0.0031,-0.86,0.13,0.79,0.252,1.806,-3.832,-1.431
8354,0.0171,-0.0107,-0.0020,-0.84,0.16,0.78,0.252,-0.190,-3.740,-0.164
8363,0.0176,-0.0091,-0.0011,-0.82,0.20,0.77,0.250,0.447,-4.191,-1.265
8374,0.0157,-0.0008,-0.0011,-0.84,0.24,0.75,0.250,-1.605,-5.316,-0.284
8384,0.0153,0.0006,-0.0004,-0.84,0.28,0.75,0.250,-0.269,-4.925,-0.985
8394,0.0148,0.0021,0.0002,-0.85,0.32,0.74,0.250,-0.332,-4.633,-0.190
8403,0.0148,0.0059,0.0012,-0.88,0.37,0.74,0.250,1.196,-3.257,-0.467
8414,0.0142,0.0074,0.0022,-0.88,0.42,0.73,0.249,2.942,-3.918,-0.445
8424,0.0134,0.0089,0.0031,-0.87,0.46,0.73,0.249,3.121,-3.220,-0.108
8434,0.0126,0.0104,-0.0007,-0.85,0.50,0.72,0.249,5.252,-2.301,-0.688
8443,0.0117,0.0118,0.0005,-0.82,0.54,0.72,0.249,7.733,-1.010,-0.920
8453,0.0148,0.0116,0.0017,-0.77,0.54,0.72,0.249,8.267,-0.400,-0.680
8464,0.0138,0.0129,0.0028,-0.71,0.56,0.71,0.252,9.081,-0.040,-0.562
8473,0.0128,0.0142,0.0092,-0.63,0.57,0.71,0.252,9.338,1.395,-0.043
8483,0.0112,0.0152,0.0101,-0.55,0.57,0.70,0.252,9.916,2.318,-0.722
8494,0.0102,0.0162,0.0109,-0.46,0.57,0.70,0.252,8.479,1.627,0.027
8504,0.0091,0.0241,0.0116,-0.41,0.56,0.70,0.252,7.236,2.083,-0.712
8514,0.0057,0.0218,0.0122,-0.30,0.55,0.69,0.250,6.428,1.180,-0.523
8523,0.0026,0.0246,0.0126,-0.23,0.54,0.69,0.250,5.160,1.120,-1.328
8534,0.0018,0.0296,0.0107,-0.18,0.52,0.68,0.250,4.878,0.689,-0.737
8543,-0.0012,0.0277,0.0113,-0.12,0.52,0.67,0.250,4.194,1.563,-1.343
8553,0.0004,0.0282,0.0118,-0.07,0.50,0.66,0.250,3.877,0.441,-1.242
8563,-0.0025,0.0264,0.0122,-0.01,0.50,0.65,0.252,3.815,0.459,-0.709
8573,-0.0033,0.0311,0.0121,0.00,0.49,0.64,0.252,5.169,0.350,-0.632
8583,-0.0060,0.0312,0.0125,0.04,0.49,0.63,0.252,6.275,1.468,-0.537
8593,-0.0087,0.0288,0.0133,0.10,0.50,0.62,0.252,5.951,2.348,-0.204
8603,-0.0090,0.0286,0.0139,0.15,0.49,0.62,0.252,6.457,3.517,-0.326
8613,-0.0111,0.0261,0.0144,0.22,0.48,0.61,0.255,6.904,4.200,-0.699
8623,-0.0130,0.0237,0.0151,0.30,0.46,0.61,0.255,7.038,3.663,-0.600
8633,-0.0127,0.0251,0.0206,0.36,0.42,0.61,0.255,5.995,5.004,-0.908
8643,-0.0142,0.0244,0.0209,0.42,0.38,0.60,0.255,4.547,4.337,-0.343
8654,-0.0136,0.0237,0.0213,0.49,0.33,0.59,0.255,2.807,5.504,-0.696
8663,-0.0187,0.0212,0.0216,0.56,0.31,0.59,0.256,1.005,4.968,-0.221
8673,-0.0176,0.0209,0.0216,0.59,0.25,0.58,0.256,0.974,4.572,-0.763
8683,-0.0204,0.0190,0.0248,0.62,0.21,0.58,0.256,-0.333,4.709,-0.233
8694,-0.0175,0.0172,0.0249,0.63,0.14,0.57,0.256,-0.212,4.228,-0.958
8703,-0.0182,0.0156,0.0248,0.64,0.10,0.57,0.256,-1.120,4.198,-0.040
8713,-0.0171,0.0159,0.0248,0.62,0.04,0.56,0.257,-2.542,5.016,-0.477
8723,-0.0177,0.0127,0.0249,0.63,0.00,0.56,0.257,-2.428,3.896,-0.432
8733,-0.0234,0.0133,0.0257,0.60,-0.01,0.56,0.257,-2.320,4.582,-0.269
8744,-0.0234,0.0123,0.0253,0.58,-0.06,0.55,0.257,-1.224,4.463,-0.261
8754,-0.0219,0.0095,0.0248,0.57,-0.11,0.55,0.257,-2.247,4.402,0.372
8764,-0.0221,0.0084,0.0248,0.55,-0.16,0.55,0.260,-1.383,4.711,0.305
8774,-0.0223,0.0076,0.0244,0.53,-0.20,0.55,0.260,-1.807,4.734,0.782
8783,-0.0241,0.0084,0.0284,0.50,-0.24,0.55,0.260,-1.538,4.978,0.565
8793,-0.0240,0.0076,0.0282,0.49,-0.29,0.56,0.260,-2.583,4.787,0.715
8803,-0.0238,0.0068,0.0282,0.48,-0.34,0.56,0.260,-1.558,5.808,-0.719
8813,-0.0252,0.0061,0.0280,0.46,-0.38,0.57,0.254,-1.293,5.252,-0.037
8823,-0.0245,0.0053,0.0274,0.44,-0.44,0.57,0.254,-3.061,4.559,-0.349
8833,-0.0237,0.0046,0.0134,0.41,-0.48,0.57,0.254,-3.831,2.487,-0.418
8843,-0.0232,0.0024,0.0131,0.39,-0.53,0.57,0.254,-5.336,3.706,0.292
8854,-0.0211,-0.0011,0.0123,0.36,-0.58,0.57,0.254,-4.637,5.502,0.942
8864,-0.0225,-0.0026,0.0113,0.33,-0.59,0.57,0.252,-3.725,4.735,0.308
8873,-0.0200,-0.0042,-0.0007,0.30,-0.64,0.57,0.252,-2.991,3.800,0.147
8883,-0.0193,-0.0040,-0.0012,0.26,-0.70,0.57,0.252,-2.464,1.961,0.197
8893,-0.0204,-0.0055,-0.0020,0.23,-0.73,0.58,0.252,-2.246,2.155,0.863
8903,-0.0192,-0.0059,-0.0026,0.20,-0.76,0.58,0.252,-3.271,1.435,0.369
8913,-0.0205,-0.0074,-0.0029,0.18,-0.76,0.58,0.257,-4.352,0.923,1.243
8923,-0.0183,-0.0088,-0.0033,0.17,-0.79,0.59,0.257,-3.183,0.913,1.010
8933,-0.0170,-0.0091,-0.0015,0.14,-0.81,0.59,0.257,-3.755,-0.588,1.427
8943,-0.0156,-0.0093,-0.0015,0.10,-0.82,0.61,0.257,-5.734,-0.757,0.883
8953,-0.0137,-0.0141,-0.0013,0.09,-0.81,0.62,0.257,-6.186,-0.905,0.453
8963,-0.0123,-0.0142,-0.0013,0.05,-0.81,0.63,0.254,-6.523,-0.822,1.299
8973,-0.0110,-0.0143,-0.0066,-0.00,-0.79,0.64,0.254,-7.623,-1.902,0.911
8983,-0.0096,-0.0143,-0.0065,-0.07,-0.78,0.65,0.254,-6.316,-1.055,1.612
8993,-0.0083,-0.0141,-0.0063,-0.13,-0.77,0.66,0.254,-5.535,-1.163,1.419
9003,-0.0068,-0.0143,-0.0062,-0.20,-0.76,0.67,0.254,-4.870,-1.110,1.054
9013,-0.0055,-0.0140,-0.0061,-0.26,-0.74,0.69,0.259,-3.787,-0.370,0.540
9023,-0.0041,-0.0142,-0.0058,-0.32,-0.73,0.70,0.259,-4.244,-0.440,1.281
9033,-0.0028,-0.0136,0.0032,-0.37,-0.71,0.71,0.259,-2.424,-0.095,1.078
9043,-0.0016,-0.0130,0.0031,-0.41,-0.69,0.72,0.259,-3.080,-2.461,1.703
9053,-0.0004,-0.0199,0.0031,-0.41,-0.68,0.74,0.259,-1.856,-3.485,0.351
9063,0.0003,-0.0157,0.0035,-0.46,-0.66,0.75,0.257,-0.874,-2.405,0.959
9073,0.0015,-0.0149,0.0042,-0.48,-0.64,0.76,0.257,-0.457,-1.818,1.121
9083,0.0021,-0.0092,0.0042,-0.52,-0.61,0.76,0.257,-1.161,-2.740,1.062
9093,0.0026,-0.0138,0.0043,-0.50,-0.58,0.77,0.257,-2.190,-3.048,0.870
9103,0.0036,-0.0129,0.0044,-0.51,-0.55,0.79,0.257,-1.903,-3.671,0.373
9113,0.0059,-0.0195,0.0045,-0.49,-0.53,0.80,0.257,0.011,-1.541,0.808
9123,0.0061,-0.0219,0.0045,-0.48,-0.51,0.81,0.257,-0.275,-3.562,0.385
9133,0.0070,-0.0211,0.0043,-0.50,-0.48,0.81,0.257,-0.845,-1.472,0.032
9143,0.0078,-0.0202,0.0043,-0.51,-0.45,0.82,0.257,1.405,-3.777,-0.468
9153,0.0086,-0.0193,0.0043,-0.50,-0.43,0.83,0.257,-2.422,-2.769,0.352
9163,0.0093,-0.0185,0.0045,-0.51,-0.40,0.82,0.252,-1.330,-3.060,0.513
9173,0.0100,-0.0176,0.0046,-0.51,-0.37,0.82,0.252,-5.742,-5.380,0.443
9183,0.0140,-0.0156,-0.0053,-0.54,-0.36,0.83,0.252,-5.380,-4.962,0.396
9193,0.0129,-0.0106,-0.0056,-0.60,-0.31,0.83,0.252,-3.785,-4.354,-0.409
9203,0.0164,-0.0083,-0.0054,-0.64,-0.28,0.83,0.252,-4.861,-5.736,0.028
9212,0.0155,-0.0148,-0.0051,-0.66,-0.22,0.84,0.252,-3.771,-5.512,-0.662
9223,0.0141,-0.0079,-0.0048,-0.74,-0.16,0.83,0.252,-2.379,-7.610,-0.972
9233,0.0170,-0.0077,-0.0096,-0.78,-0.13,0.83,0.252,-1.456,-6.893,-1.384
9243,0.0152,-0.0076,-0.0092,-0.82,-0.04,0.82,0.252,0.943,-5.904,-1.130
9253,0.0156,-0.0057,-0.0087,-0.82,0.02,0.81,0.252,2.949,-5.629,-1.091
9263,0.0159,-0.0043,-0.0082,-0.82,0.09,0.80,0.252,2.620,-5.924,-1.608
9273,0.0157,-0.0029,-0.0078,-0.82,0.16,0.79,0.252,4.903,-5.660,-1.269
9283,0.0159,-0.0019,-0.0112,-0.79,0.21,0.78,0.252,4.552,-3.889,-1.908
9292,0.0155,-0.0005,-0.0105,-0.76,0.28,0.77,0.252,4.177,-2.560,-1.753
9303,0.0158,-0.0001,-0.0099,-0.71,0.32,0.75,0.252,2.167,-4.493,-2.049
9313,0.0153,0.0011,-0.0091,-0.67,0.36,0.74,0.252,2.668,-1.261,-2.311
9323,0.0132,0.0061,-0.0079,-0.66,0.40,0.71,0.252,4.567,-0.487,-2.075
9333,0.0160,0.0064,-0.0082,-0.62,0.40,0.69,0.252,2.653,-1.788,-2.441
9343,0.0143,0.0189,-0.0075,-0.66,0.42,0.67,0.252,3.741,-0.666,-2.532
9353,0.0127,0.0149,-0.0065,-0.60,0.44,0.65,0.252,3.782,-0.838,-2.413
9363,0.0113,0.0187,-0.0055,-0.59,0.46,0.62,0.254,3.922,-1.159,-2.824
9372,0.0105,0.0197,-0.0004,-0.56,0.47,0.59,0.254,4.554,-3.049,-3.557
9383,0.0096,0.0207,0.0005,-0.52,0.49,0.57,0.254,6.220,-3.826,-2.764
9393,0.0088,0.0216,0.0016,-0.49,0.52,0.54,0.254,5.538,-3.592,-3.412
9402,0.0079,0.0224,0.0029,-0.44,0.55,0.51,0.254,8.643,-1.090,-3.668
9413,0.0105,0.0235,0.0039,-0.38,0.55,0.48,0.252,9.729,-1.171,-4.344
9423,0.0109,0.0216,0.0046,-0.29,0.58,0.45,0.252,8.345,-0.073,-3.608
9433,0.0099,0.0221,0.0057,-0.21,0.59,0.41,0.252,8.113,1.265,-3.370
9443,0.0106,0.0264,0.0064,-0.14,0.59,0.37,0.252,8.200,1.596,-3.343
9453,0.0095,0.0266,0.0068,-0.06,0.59,0.33,0.252,7.354,1.563,-2.909
9463,0.0085,0.0267,0.0073,0.02,0.57,0.30,0.250,6.629,1.793,-3.493
9473,0.0052,0.0285,0.0009,0.09,0.57,0.27,0.250,5.487,0.717,-4.083
9483,0.0043,0.0284,0.0014,0.16,0.55,0.24,0.250,5.375,0.404,-3.901
9492,0.0055,0.0259,0.0019,0.23,0.53,0.20,0.250,6.422,-0.611,-3.264
9503,0.0045,0.0254,0.0023,0.30,0.52,0.16,0.250,5.234,-0.896,-2.941
9513,0.0011,0.0293,0.0029,0.33,0.54,0.12,0.255,4.867,-0.538,-3.170
9523,0.0002,0.0287,0.0035,0.39,0.54,0.09,0.255,2.748,0.702,-2.833
9534,-0.0008,0.0281,0.0108,0.44,0.54,0.05,0.255,4.146,1.602,-3.376
9543,-0.0018,0.0273,0.0115,0.49,0.53,0.02,0.255,3.436,1.243,-2.624
9553,-0.0027,0.0265,0.0121,0.52,0.52,-0.01,0.255,4.644,2.006,-2.201
9563,-0.0036,0.0256,0.0131,0.57,0.51,-0.04,0.252,5.033,3.486,-1.628
9573,-0.0060,0.0224,0.0117,0.62,0.49,-0.06,0.252,6.653,4.786,-1.515
9583,-0.0082,0.0240,0.0121,0.66,0.47,-0.08,0.252,5.189,5.601,-2.110
9592,-0.0077,0.0251,0.0126,0.70,0.42,-0.09,0.252,4.964,7.029,-2.114
9603,-0.0092,0.0240,0.0131,0.75,0.37,-0.11,0.252,4.433,4.984,-2.451
9613,-0.0099,0.0227,0.0131,0.79,0.32,-0.12,0.255,2.415,5.850,-1.787
9622,-0.0113,0.0218,0.0134,0.83,0.26,-0.14,0.255,1.295,6.644,-1.302
9632,-0.0146,0.0233,0.0158,0.85,0.22,-0.16,0.255,1.246,5.140,-1.835
9643,-0.0131,0.0163,0.0162,0.90,0.15,-0.18,0.255,-0.614,5.254,-1.393
9653,-0.0141,0.0139,0.0163,0.91,0.10,-0.19,0.255,-0.159,4.674,-1.414
9662,-0.0148,0.0119,0.0164,0.91,0.05,-0.21,0.252,-0.642,3.657,-1.686
9672,-0.0149,0.0103,0.0167,0.91,0.00,-0.22,0.252,-1.040,4.107,-1.099
9682,-0.0149,0.0088,0.0116,0.90,-0.04,-0.24,0.252,-1.588,4.130,-1.795
9692,-0.0178,0.0070,0.0119,0.90,-0.07,-0.25,0.252,-2.600,3.652,-0.947
9702,-0.0184,0.0033,0.0123,0.90,-0.10,-0.27,0.252,-2.495,4.865,-1.343
9713,-0.0189,-0.0022,0.0123,0.89,-0.14,-0.28,0.257,-2.049,4.788,-1.527
9722,-0.0187,-0.0037,0.0125,0.87,-0.18,-0.29,0.257,-3.981,3.960,-1.243
9733,-0.0189,-0.0088,0.0174,0.86,-0.23,-0.30,0.257,-5.168,5.145,-0.392
9743,-0.0170,-0.0113,0.0176,0.84,-0.28,-0.32,0.257,-4.807,5.279,-0.771
9753,-0.0165,-0.0128,0.0178,0.79,-0.33,-0.32,0.257,-5.929,5.605,-0.384
9763,-0.0166,-0.0148,0.0179,0.74,-0.38,-0.33,0.258,-5.751,4.791,-0.141
9772,-0.0145,-0.0186,0.0210,0.70,-0.43,-0.34,0.258,-8.170,2.520,-0.148
9782,-0.0186,-0.0181,0.0212,0.63,-0.46,-0.33,0.258,-8.725,3.816,0.756
9792,-0.0166,-0.0233,0.0211,0.59,-0.50,-0.34,0.258,-9.315,4.310,-0.007
9802,-0.0158,-0.0243,0.0210,0.50,-0.55,-0.33,0.258,-9.526,4.078,0.521
9812,-0.0154,-0.0246,0.0209,0.41,-0.58,-0.33,0.255,-10.077,2.530,0.299
9823,-0.0173,-0.0247,0.0207,0.31,-0.59,-0.32,0.255,-9.474,1.693,0.666
9832,-0.0153,-0.0325,0.0132,0.26,-0.63,-0.32,0.255,-8.133,1.811,0.699
9842,-0.0142,-0.0329,0.0132,0.17,-0.65,-0.31,0.255,-7.392,1.937,0.530
9853,-0.0162,-0.0307,0.0129,0.07,-0.66,-0.31,0.255,-7.926,2.801,1.667
9863,-0.0140,-0.0384,0.0124,0.03,-0.70,-0.30,0.257,-8.213,3.008,1.381
9872,-0.0098,-0.0396,0.0108,-0.04,-0.74,-0.29,0.257,-8.389,2.594,1.200
9882,-0.0077,-0.0387,0.0103,-0.12,-0.76,-0.27,0.257,-9.113,1.258,1.513
9893,-0.0077,-0.0377,0.0096,-0.21,-0.78,-0.26,0.257,-9.532,0.343,1.909
9902,-0.0064,-0.0374,0.0094,-0.28,-0.80,-0.25,0.257,-9.914,-0.882,1.189
9912,-0.0046,-0.0361,0.0093,-0.37,-0.82,-0.23,0.252,-11.950,-0.577,1.387
9922,-0.0030,-0.0382,0.0089,-0.46,-0.83,-0.22,0.252,-12.043,-3.556,0.906
9933,-0.0014,-0.0437,-0.0019,-0.54,-0.82,-0.21,0.252,-13.170,-5.449,1.452
9942,-0.0003,-0.0413,-0.0019,-0.67,-0.80,-0.19,0.252,-11.212,-6.757,1.588
9952,0.0023,-0.0442,-0.0018,-0.77,-0.76,-0.18,0.252,-8.690,-7.452,0.723
9962,0.0027,-0.0415,-0.0018,-0.90,-0.70,-0.16,0.256,-9.189,-7.365,0.666
9973,0.0040,-0.0399,-0.0011,-1.00,-0.63,-0.15,0.256,-8.129,-7.819,1.051
9982,0.0057,-0.0353,-0.0011,-1.10,-0.55,-0.15,0.256,-6.368,-7.589,1.170
9992,0.0072,-0.0327,-0.0009,-1.19,-0.48,-0.14,0.256,-6.139,-8.133,0.360
10002,0.0080,-0.0307,-0.0006,-1.26,-0.41,-0.13,0.256,-5.861,-6.340,1.133
10012,0.0109,-0.0359,-0.0002,-1.28,-0.34,-0.11,0.255,-4.128,-5.257,1.007
10023,0.0138,-0.0390,0.0002,-1.31,-0.28,-0.10,0.255,-4.511,-4.658,1.026
10032,0.0148,-0.0423,-0.0015,-1.32,-0.23,-0.09,0.255,-2.523,-5.207,1.532
10042,0.0177,-0.0379,-0.0013,-1.38,-0.19,-0.08,0.255,-0.900,-4.651,0.454
10052,0.0180,-0.0355,-0.0011,-1.41,-0.15,-0.06,0.255,-1.033,-5.262,0.442
10062,0.0169,-0.0354,-0.0011,-1.42,-0.09,-0.05,0.258,-1.479,-5.924,1.022
10072,0.0173,-0.0322,-0.0011,-1.43,-0.09,-0.05,0.258,-2.273,-5.042,1.195
10082,0.0179,-0.0284,0.0050,-1.45,-0.05,-0.04,0.258,-2.204,-6.567,1.352
10092,0.0165,-0.0240,0.0056,-1.47,0.07,-0.02,0.258,-3.191,-5.259,1.332
10102,0.0186,-0.0229,0.0056,-1.48,0.06,-0.02,0.258,-3.289,-5.581,1.485
10112,0.0189,-0.0192,0.0057,-1.51,0.11,-0.01,0.257,-2.475,-6.072,1.410
10122,0.0187,-0.0166,0.0059,-1.54,0.17,0.01,0.257,-1.279,-4.849,1.763
10133,0.0187,-0.0132,0.0069,-1.57,0.22,0.02,0.257,1.050,-5.017,1.041
10142,0.0187,-0.0100,0.0072,-1.59,0.29,0.04,0.257,4.014,-4.775,0.604
10152,0.0183,-0.0072,0.0073,-1.61,0.34,0.05,0.257,5.333,-5.003,0.922
10162,0.0177,-0.0045,0.0076,-1.60,0.39,0.07,0.255,5.526,-3.955,0.358
10172,0.0170,-0.0017,0.0079,-1.58,0.45,0.08,0.255,7.992,-3.204,0.003
10182,0.0150,0.0019,0.0027,-1.54,0.50,0.09,0.255,9.236,-1.994,-0.140
10192,0.0141,0.0045,0.0026,-1.48,0.54,0.09,0.255,7.693,-1.546,0.555
10202,0.0132,0.0071,0.0028,-1.40,0.56,0.10,0.255,9.610,-1.448,0.092
10213,0.0136,0.0078,0.0027,-1.30,0.58,0.10,0.252,9.992,-0.596,-0.058
10223,0.0138,0.0083,0.0024,-1.21,0.59,0.11,0.252,7.837,-0.161,0.771
10232,0.0121,0.0121,-0.0054,-1.13,0.61,0.11,0.252,8.429,0.387,0.946
10242,0.0145,0.0140,-0.0052,-1.03,0.60,0.11,0.252,7.300,0.091,0.804
10252,0.0130,0.0158,-0.0049,-0.94,0.60,0.12,0.252,8.462,0.329,0.610
10262,0.0097,0.0232,-0.0049,-0.89,0.62,0.12,0.256,8.351,0.238,0.879
10272,0.0083,0.0243,-0.0049,-0.81,0.62,0.13,0.256,7.886,0.523,1.009
10282,0.0072,0.0257,-0.0021,-0.73,0.61,0.14,0.256,7.053,0.221,0.083
10292,0.0062,0.0269,-0.0019,-0.65,0.61,0.15,0.256,8.268,-0.350,0.534
10302,0.0051,0.0280,-0.0016,-0.56,0.60,0.16,0.256,8.239,-0.409,0.581
10312,0.0040,0.0286,-0.0013,-0.49,0.60,0.16,0.252,7.485,0.051,0.667
10322,0.0028,0.0349,-0.0009,-0.44,0.60,0.17,0.252,9.135,0.735,0.938
10332,-0.0001,0.0349,-0.0079,-0.35,0.61,0.17,0.252,9.203,2.328,0.978
10342,-0.0028,0.0404,-0.0078,-0.29,0.61,0.18,0.252,9.773,3.506,1.367
10352,-0.0071,0.0454,-0.0078,-0.22,0.62,0.18,0.252,10.269,3.355,1.708
10362,-0.0081,0.0458,-0.0078,-0.12,0.60,0.19,0.252,11.296,4.576,1.660
10372,-0.0081,0.0444,-0.0110,-0.01,0.56,0.21,0.252,13.549,5.290,0.886
10382,-0.0091,0.0444,-0.0106,0.09,0.52,0.23,0.252,14.395,6.702,1.427
10392,-0.0100,0.0443,-0.0102,0.21,0.48,0.24,0.252,11.623,6.392,1.802
10402,-0.0094,0.0418,-0.0101,0.35,0.42,0.25,0.252,10.933,7.189,0.853
10412,-0.0107,0.0378,-0.0098,0.50,0.37,0.26,0.250,11.642,7.078,0.652
10422,-0.0116,0.0415,-0.0093,0.60,0.31,0.28,0.250,11.816,8.422,1.484
10432,-0.0143,0.0408,-0.0120,0.71,0.24,0.29,0.250,10.718,9.049,1.154
10442,-0.0128,0.0399,-0.0118,0.84,0.15,0.30,0.250,8.304,8.715,1.528
10453,-0.0150,0.0392,-0.0117,0.96,0.08,0.32,0.250,7.666,7.828,1.550
10462,-0.0150,0.0366,-0.0117,1.07,-0.01,0.33,0.250,6.438,7.690,1.655
10472,-0.0150,0.0322,-0.0123,1.18,-0.10,0.34,0.250,6.070,6.895,1.782
10482,-0.0149,0.0302,-0.0122,1.26,-0.18,0.36,0.250,4.741,6.381,0.841
10492,-0.0168,0.0318,-0.0119,1.32,-0.24,0.37,0.250,2.909,5.417,1.430
10502,-0.0147,0.0257,-0.0117,1.40,-0.32,0.39,0.250,1.089,5.021,1.541
10512,-0.0128,0.0238,-0.0115,1.45,-0.39,0.41,0.249,-1.007,3.821,0.963
10523,-0.0146,0.0222,-0.0111,1.48,-0.44,0.42,0.249,-2.002,2.360,1.255
10533,-0.0163,0.0189,-0.0142,1.50,-0.48,0.44,0.249,-2.211,1.613,1.150
10542,-0.0127,0.0161,-0.0140,1.50,-0.54,0.45,0.249,-2.816,1.281,0.781
10552,-0.0118,0.0135,-0.0133,1.48,-0.56,0.46,0.249,-3.657,1.944,1.300
10562,-0.0121,0.0110,-0.0124,1.46,-0.57,0.47,0.250,-4.533,1.296,1.142
10572,-0.0085,0.0032,-0.0120,1.47,-0.60,0.48,0.250,-4.622,1.243,1.257
10582,-0.0088,0.0013,-0.0100,1.43,-0.61,0.49,0.250,-4.288,2.359,1.422
10591,-0.0077,-0.0012,-0.0093,1.40,-0.62,0.51,0.250,-4.680,2.698,1.486
10602,-0.0059,-0.0083,-0.0088,1.39,-0.64,0.52,0.250,-5.876,1.294,0.919
10612,-0.0041,-0.0151,-0.0084,1.37,-0.66,0.54,0.250,-8.269,-0.367,0.333
10622,-0.0029,-0.0175,-0.0080,1.32,-0.68,0.55,0.250,-10.423,-3.487,-0.959
10632,-0.0017,-0.0197,-0.0029,1.27,-0.70,0.56,0.250,-13.613,-4.919,-1.103
10642,-0.0005,-0.0218,-0.0022,1.20,-0.70,0.57,0.250,-15.660,-8.325,-1.402
10652,-0.0020,-0.0209,-0.0015,1.08,-0.66,0.57,0.250,-19.714,-11.454,-1.311
10662,-0.0020,-0.0288,-0.0006,0.99,-0.61,0.55,0.250,-20.787,-11.451,-1.391
10672,-0.0007,-0.0355,0.0004,0.87,-0.54,0.54,0.250,-25.611,-11.493,-1.166
10681,0.0004,-0.0400,0.0017,0.69,-0.44,0.53,0.250,-24.698,-12.089,-1.330
10692,-0.0006,-0.0376,0.0029,0.47,-0.32,0.51,0.250,-22.168,-10.161,-1.199
10702,-0.0018,-0.0352,0.0042,0.21,-0.19,0.50,0.250,-20.970,-9.036,-1.334
10712,-0.0015,-0.0356,0.0060,-0.03,-0.07,0.48,0.250,-18.177,-7.354,-1.164
10722,0.0029,-0.0492,0.0075,-0.18,0.01,0.47,0.250,-15.694,-5.565,-1.605
10731,0.0052,-0.0497,0.0109,-0.39,0.09,0.46,0.250,-14.139,-4.135,-1.375
10742,0.0040,-0.0485,0.0128,-0.59,0.17,0.45,0.250,-11.768,-2.388,-1.544
10752,0.0037,-0.0475,0.0146,-0.75,0.23,0.43,0.250,-10.941,-1.697,-1.240
10761,0.0046,-0.0427,0.0163,-0.92,0.27,0.42,0.250,-9.113,0.362,-1.581
10772,0.0037,-0.0398,0.0158,-1.05,0.30,0.40,0.250,-9.760,0.111,-1.224
10783,0.0031,-0.0442,0.0173,-1.12,0.31,0.39,0.250,-11.350,-0.889,-0.957
10792,0.0025,-0.0465,0.0186,-1.19,0.32,0.37,0.250,-9.962,-1.247,-1.305
10801,0.0018,-0.0485,0.0199,-1.27,0.32,0.36,0.250,-9.861,-1.692,-1.652
10811,0.0012,-0.0451,0.0216,-1.38,0.32,0.35,0.255,-10.829,-3.048,-2.156
10822,0.0006,-0.0427,0.0230,-1.48,0.33,0.33,0.255,-10.637,-3.565,-1.864
10831,-0.0004,-0.0389,0.0313,-1.59,0.35,0.32,0.255,-6.842,-3.235,-1.670
10842,-0.0010,-0.0361,0.0328,-1.70,0.38,0.30,0.255,-9.094,-3.007,-2.084
10851,-0.0020,-0.0380,0.0339,-1.77,0.41,0.28,0.255,-7.738,-3.381,-1.525
10862,-0.0050,-0.0270,0.0346,-1.90,0.45,0.27,0.255,-4.426,-0.953,-1.871
10872,-0.0042,-0.0360,0.0363,-1.92,0.48,0.25,0.255,-4.705,-1.347,-1.780
10882,-0.0033,-0.0309,0.0372,-2.00,0.49,0.23,0.255,-4.234,0.574,-1.082
10891,-0.0042,-0.0327,0.0380,-2.02,0.51,0.22,0.255,0.426,1.539,-1.824
10902,-0.0051,-0.0292,0.0385,-2.07,0.53,0.20,0.255,3.490,3.520,-1.749
10911,-0.0057,-0.0262,0.0391,-2.11,0.52,0.18,0.252,4.574,5.056,-1.778
10922,-0.0066,-0.0226,0.0397,-2.12,0.51,0.17,0.252,3.727,5.641,-2.109
10932,-0.0075,-0.0191,0.0308,-2.10,0.49,0.15,0.252,5.176,4.304,-1.458
10941,-0.0091,-0.0155,0.0308,-2.05,0.44,0.13,0.252,4.839,2.993,-1.609
10951,-0.0098,-0.0120,0.0307,-2.02,0.38,0.11,0.252,1.093,3.279,-1.318
10962,-0.0115,-0.0087,0.0307,-1.98,0.33,0.09,0.252,4.265,3.831,-1.696
10972,-0.0148,0.0002,0.0207,-1.97,0.30,0.08,0.252,4.787,3.521,-2.410
10982,-0.0142,0.0065,0.0207,-1.96,0.25,0.06,0.252,3.527,3.738,-1.573
10992,-0.0155,0.0088,0.0207,-1.91,0.21,0.04,0.252,5.239,2.827,-1.068
11001,-0.0158,0.0121,0.0209,-1.86,0.17,0.01,0.252,7.932,3.131,-1.175
11011,-0.0161,0.0153,0.0209,-1.81,0.13,-0.00,0.258,7.383,2.176,-0.697
11022,-0.0191,0.0243,0.0209,-1.79,0.12,-0.02,0.258,9.910,2.265,-0.848
11032,-0.0193,0.0275,0.0261,-1.72,0.08,-0.03,0.258,12.017,4.907,-1.180
11041,-0.0195,0.0304,0.0264,-1.64,0.05,-0.04,0.258,14.465,4.278,-1.588
11051,-0.0196,0.0332,0.0262,-1.54,0.02,-0.05,0.258,15.871,4.537,-0.775
11061,-0.0201,0.0341,0.0263,-1.41,-0.02,-0.06,0.252,17.745,5.571,-0.918
11071,-0.0185,0.0382,0.0135,-1.28,-0.06,-0.08,0.252,18.287,5.518,-0.549
11082,-0.0207,0.0519,0.0133,-1.20,-0.09,-0.09,0.252,17.695,5.445,-0.844
11092,-0.0189,0.0529,0.0133,-1.03,-0.15,-0.09,0.252,18.311,6.203,-0.842
11101,-0.0190,0.0518,0.0135,-0.84,-0.20,-0.10,0.252,17.477,5.421,-1.091
11111,-0.0189,0.0504,0.0135,-0.65,-0.26,-0.11,0.255,18.073,5.533,-0.788
11121,-0.0169,0.0489,0.0134,-0.45,-0.33,-0.12,0.255,17.294,5.221,-0.760
11132,-0.0164,0.0496,0.0106,-0.27,-0.38,-0.13,0.255,15.571,4.160,-0.251
11141,-0.0201,0.0629,0.0111,-0.17,-0.42,-0.14,0.255,14.847,3.120,-0.685
11151,-0.0179,0.0660,0.0115,-0.02,-0.47,-0.14,0.255,14.618,1.439,-0.730
11161,-0.0159,0.0631,0.0118,0.16,-0.52,-0.15,0.255,13.168,1.029,-0.243
11171,-0.0142,0.0602,0.0098,0.33,-0.56,-0.15,0.255,12.055,0.173,-0.603
11182,-0.0132,0.0597,0.0102,0.47,-0.58,-0.16,0.255,10.404,-0.791,-0.368
11191,-0.0117,0.0605,0.0105,0.59,-0.60,-0.16,0.255,11.071,-1.244,-0.184
11201,-0.0103,0.0575,0.0108,0.72,-0.60,-0.17,0.255,10.728,-1.930,-0.433
11211,-0.0090,0.0619,0.0114,0.80,-0.60,-0.17,0.257,10.925,-1.409,-0.213
11221,-0.0098,0.0584,0.0121,0.92,-0.58,-0.18,0.257,11.332,-0.669,-0.545
11231,-0.0088,0.0605,0.0140,1.02,-0.57,-0.18,0.257,10.030,-0.913,-0.640
11241,-0.0078,0.0588,0.0144,1.13,-0.56,-0.18,0.257,9.630,-0.710,-0.629
11252,-0.0049,0.0531,0.0148,1.26,-0.56,-0.19,0.257,9.378,-0.702,-1.187
11261,-0.0038,0.0496,0.0151,1.37,-0.55,-0.19,0.255,8.457,-0.946,-1.025
11271,-0.0029,0.0472,0.0105,1.47,-0.54,-0.19,0.255,6.608,-0.891,-0.929
11281,-0.0019,0.0474,0.0109,1.55,-0.54,-0.21,0.255,4.950,-1.279,-0.767
11291,-0.0012,0.0439,0.0114,1.63,-0.53,-0.22,0.255,2.602,-1.741,-0.379
11301,-0.0003,0.0411,0.0118,1.70,-0.52,-0.23,0.255,2.209,-2.076,-0.469
11312,0.0004,0.0382,0.0118,1.75,-0.51,-0.24,0.261,0.509,-1.909,-0.226
11321,0.0009,0.0411,0.0124,1.75,-0.49,-0.24,0.261,-1.310,-3.283,-0.461
11331,-0.0004,0.0367,0.0219,1.78,-0.46,-0.25,0.261,-2.738,-3.332,-0.226
11341,0.0003,0.0336,0.0222,1.79,-0.44,-0.25,0.261,-1.578,-3.435,-0.671
11351,0.0024,0.0297,0.0225,1.78,-0.42,-0.26,0.261,-2.633,-4.197,-0.318
11361,0.0031,0.0266,0.0230,1.76,-0.38,-0.27,0.258,-1.654,-4.402,-0.623
11372,0.0038,0.0236,0.0198,1.74,-0.35,-0.27,0.258,-4.241,-4.141,0.327
11382,0.0073,0.0145,0.0202,1.75,-0.32,-0.28,0.258,-4.108,-3.028,0.431
11391,0.0079,0.0115,0.0206,1.72,-0.28,-0.28,0.258,-3.826,-2.997,-0.243
11402,0.0115,0.0044,0.0209,1.71,-0.25,-0.28,0.258,-5.374,-2.113,0.158
11411,0.0119,0.0015,0.0210,1.67,-0.22,-0.28,0.259,-5.343,-2.288,-0.166
11421,0.0114,-0.0043,0.0212,1.66,-0.18,-0.29,0.259,-5.859,-1.820,-0.811
11432,0.0117,-0.0072,0.0185,1.61,-0.16,-0.29,0.259,-7.385,-2.151,-0.804
11441,0.0132,-0.0126,0.0185,1.56,-0.15,-0.29,0.259,-10.048,-2.751,-0.493
11452,0.0135,-0.0153,0.0183,1.50,-0.13,-0.29,0.259,-11.786,-3.433,-0.759
11461,0.0137,-0.0178,0.0184,1.42,-0.11,-0.30,0.260,-13.766,-3.598,-0.456
11472,0.0168,-0.0277,0.0176,1.36,-0.10,-0.30,0.260,-15.370,-4.959,0.488
11481,0.0178,-0.0347,0.0174,1.26,-0.07,-0.31,0.260,-15.347,-5.602,0.177
11491,0.0163,-0.0348,0.0173,1.12,-0.02,-0.31,0.260,-16.274,-4.986,0.415
11501,0.0149,-0.0348,0.0174,0.95,0.03,-0.31,0.260,-17.321,-5.092,0.767
11511,0.0148,-0.0365,0.0178,0.79,0.08,-0.30,0.261,-17.100,-5.898,0.996
11521,0.0172,-0.0436,0.0179,0.66,0.12,-0.30,0.261,-15.986,-4.726,1.334
11531,0.0154,-0.0422,0.0171,0.47,0.19,-0.29,0.261,-16.446,-4.718,0.613
11542,0.0176,-0.0507,0.0173,0.34,0.23,-0.28,0.261,-17.395,-5.086,1.619
11551,0.0177,-0.0526,0.0173,0.18,0.28,-0.27,0.261,-18.036,-4.203,1.992
11561,0.0157,-0.0520,0.0173,-0.00,0.34,-0.26,0.265,-14.374,-3.812,1.105
11571,0.0151,-0.0519,0.0173,-0.18,0.38,-0.24,0.265,-14.478,-2.358,0.412
11581,0.0145,-0.0517,0.0241,-0.36,0.42,-0.22,0.265,-13.384,-2.362,1.134
11591,0.0149,-0.0650,0.0240,-0.42,0.45,-0.21,0.265,-14.329,-3.319,1.044
11601,0.0132,-0.0695,0.0235,-0.53,0.48,-0.20,0.265,-11.533,0.392,0.819
11611,0.0134,-0.0638,0.0233,-0.70,0.49,-0.19,0.265,-14.713,-1.697,0.810
11621,0.0126,-0.0626,0.0233,-0.84,0.52,-0.18,0.265,-12.451,-1.142,0.448
11631,0.0111,-0.0588,0.0242,-0.98,0.52,-0.17,0.265,-13.480,-1.641,0.325
11641,0.0097,-0.0607,0.0240,-1.09,0.54,-0.16,0.265,-11.861,1.828,-0.569
11651,0.0082,-0.0565,0.0240,-1.23,0.55,-0.15,0.265,-13.530,-0.092,0.001
11661,0.0091,-0.0582,0.0237,-1.34,0.55,-0.15,0.267,-18.966,-1.366,1.717
11671,0.0079,-0.0557,0.0260,-1.46,0.54,-0.15,0.267,-16.389,-1.667,1.402
11681,0.0066,-0.0542,0.0256,-1.59,0.54,-0.16,0.267,-13.107,-0.011,0.745
11691,0.0035,-0.0490,0.0254,-1.78,0.57,-0.14,0.267,-10.911,0.412,0.913
11701,0.0025,-0.0459,0.0253,-1.95,0.58,-0.12,0.267,-6.467,0.730,0.543
11711,0.0033,-0.0486,0.0252,-2.05,0.57,-0.12,0.265,-6.554,-0.426,1.500
11721,0.0042,-0.0500,0.0252,-2.14,0.56,-0.11,0.265,-2.082,1.262,1.236
11731,0.0051,-0.0512,0.0186,-2.18,0.54,-0.10,0.265,-0.492,1.743,1.152
11741,0.0042,-0.0475,0.0181,-2.23,0.54,-0.09,0.265,4.878,2.313,0.383
11751,0.0033,-0.0437,0.0177,-2.25,0.54,-0.08,0.265,3.241,1.400,0.787
11761,0.0007,-0.0392,0.0175,-2.25,0.53,-0.07,0.265,1.891,5.068,1.062
11771,-0.0002,-0.0355,0.0122,-2.21,0.51,-0.06,0.265,3.541,4.786,-0.121
11781,-0.0022,-0.0309,0.0116,-2.18,0.50,-0.06,0.265,2.645,6.106,0.981
11791,-0.0031,-0.0272,0.0107,-2.16,0.46,-0.05,0.265,-2.936,4.562,1.870
11801,-0.0048,-0.0232,0.0100,-2.12,0.41,-0.05,0.265,0.430,3.367,1.270
11811,-0.0055,-0.0196,0.0094,-2.10,0.35,-0.05,0.266,-2.052,2.449,1.682
11821,-0.0054,-0.0174,0.0091,-2.11,0.30,-0.03,0.266,0.834,1.277,0.700
11832,-0.0091,-0.0093,0.0064,-2.14,0.28,-0.02,0.266,1.820,3.377,1.252
11841,-0.0090,-0.0014,0.0061,-2.18,0.25,-0.01,0.266,3.828,1.789,1.987
11851,-0.0094,0.0023,0.0058,-2.17,0.23,-0.00,0.266,4.418,1.142,2.282
11861,-0.0111,0.0094,0.0055,-2.17,0.20,0.01,0.267,11.737,3.413,1.015
11870,-0.0149,0.0179,0.0052,-2.15,0.20,0.03,0.267,12.291,2.029,2.041
11881,-0.0152,0.0216,0.0057,-2.11,0.19,0.05,0.267,14.196,3.535,2.447
11891,-0.0146,0.0244,0.0057,-2.00,0.15,0.06,0.267,15.238,4.566,2.654
11901,-0.0149,0.0278,0.0056,-1.88,0.13,0.08,0.267,21.499,7.016,0.726
11911,-0.0151,0.0310,0.0056,-1.73,0.09,0.11,0.266,17.524,5.347,1.430
11921,-0.0157,0.0477,0.0056,-1.65,0.05,0.13,0.266,14.157,2.940,1.880
11931,-0.0182,0.0535,0.0030,-1.46,-0.00,0.14,0.266,18.086,7.465,2.211
11941,-0.0182,0.0560,0.0027,-1.28,-0.06,0.15,0.266,19.049,6.203,0.630
11951,-0.0162,0.0571,0.0026,-1.12,-0.10,0.17,0.266,21.132,5.376,1.275
11961,-0.0163,0.0535,0.0028,-0.91,-0.17,0.19,0.260,19.044,4.816,1.406
11971,-0.0160,0.0550,0.0030,-0.72,-0.23,0.19,0.260,19.509,2.680,2.320
11981,-0.0162,0.0671,-0.0119,-0.57,-0.29,0.21,0.260,21.880,4.701,2.045
11991,-0.0147,0.0746,-0.0121,-0.42,-0.33,0.22,0.260,17.249,3.489,2.479
12001,-0.0149,0.0689,-0.0119,-0.19,-0.36,0.24,0.260,18.282,3.985,2.373
12010,-0.0143,0.0692,-0.0116,0.02,-0.40,0.26,0.260,16.454,0.878,1.570
12021,-0.0124,0.0655,-0.0112,0.22,-0.45,0.29,0.260,19.119,3.577,1.970
12031,-0.0132,0.0841,-0.0188,0.30,-0.47,0.31,0.260,23.305,0.478,1.318
12041,-0.0124,0.0836,-0.0185,0.47,-0.48,0.33,0.260,20.424,0.588,2.045
12050,-0.0110,0.0798,-0.0177,0.67,-0.52,0.35,0.260,21.935,0.521,1.402
12061,-0.0101,0.0787,-0.0171,0.90,-0.52,0.36,0.262,19.706,-1.755,0.419
12070,-0.0088,0.0890,-0.0166,1.05,-0.53,0.39,0.262,16.336,2.370,2.030
12080,-0.0120,0.0804,-0.0140,1.30,-0.51,0.40,0.262,17.980,0.758,0.191
12091,-0.0083,0.0827,-0.0132,1.46,-0.52,0.41,0.262,13.822,0.846,1.208
12101,-0.0070,0.0761,-0.0126,1.66,-0.54,0.42,0.262,12.484,-1.710,0.526
12111,-0.0061,0.0732,-0.0120,1.83,-0.54,0.43,0.260,14.242,0.025,0.043
12121,-0.0072,0.0773,-0.0111,1.93,-0.54,0.44,0.260,8.233,0.958,0.936
12131,-0.0061,0.0648,-0.0118,2.11,-0.53,0.44,0.260,5.946,-2.600,0.879
12141,-0.0029,0.0675,-0.0110,2.20,-0.54,0.44,0.260,6.984,-1.692,0.040
12151,-0.0023,0.0663,-0.0104,2.27,-0.54,0.45,0.260,6.238,-3.722,0.581
12161,-0.0017,0.0608,-0.0097,2.35,-0.51,0.46,0.256,2.411,-3.429,1.809
12171,0.0008,0.0534,-0.0173,2.45,-0.51,0.46,0.256,4.283,-3.864,0.279
12181,0.0017,0.0492,-0.0164,2.51,-0.48,0.47,0.256,2.271,-4.208,1.074
12191,0.0016,0.0442,-0.0158,2.54,-0.44,0.48,0.256,3.389,-3.781,0.939
12200,0.0037,0.0380,-0.0149,2.59,-0.41,0.48,0.256,-0.276,-1.828,1.388
12211,0.0044,0.0335,-0.0141,2.61,-0.37,0.49,0.261,0.030,-4.204,0.217
12221,0.0051,0.0290,-0.0131,2.64,-0.33,0.50,0.261,-0.448,-0.421,0.030
12231,0.0058,0.0244,-0.0042,2.64,-0.30,0.51,0.261,-4.133,-0.457,0.365
12240,0.0080,0.0192,-0.0031,2.64,-0.28,0.51,0.261,-8.222,-3.305,0.354
12251,0.0085,0.0146,-0.0022,2.63,-0.27,0.51,0.261,-5.735,-3.697,-1.593
12260,0.0104,0.0069,-0.0015,2.60,-0.27,0.51,0.259,-12.303,-1.695,0.211
12270,0.0098,0.0014,-0.0007,2.53,-0.24,0.52,0.259,-9.676,-3.215,-0.955
12280,0.0096,-0.0030,0.0000,2.47,-0.20,0.50,0.259,-13.772,-2.627,0.671
12290,0.0111,-0.0071,0.0007,2.36,-0.19,0.50,0.259,-13.729,-2.440,-0.134
12300,0.0107,-0.0145,0.0013,2.27,-0.16,0.50,0.259,-15.199,-3.898,-0.592
12311,0.0140,-0.0195,0.0023,2.13,-0.14,0.50,0.260,-17.562,-4.506,-0.666
12320,0.0130,-0.0237,0.0034,1.99,-0.10,0.49,0.260,-17.904,-4.624,-0.563
12330,0.0121,-0.0314,0.0066,1.83,-0.05,0.49,0.260,-17.778,-3.972,-0.501
12340,0.0132,-0.0419,0.0074,1.70,-0.01,0.48,0.260,-15.936,-4.105,-1.274
12351,0.0121,-0.0424,0.0085,1.51,0.04,0.48,0.260,-20.362,-4.998,-0.276
12360,0.0129,-0.0428,0.0094,1.32,0.08,0.47,0.261,-15.935,-3.084,-1.511
12371,0.0137,-0.0425,0.0128,1.14,0.11,0.46,0.261,-19.213,-3.375,-0.720
12381,0.0108,-0.0407,0.0133,0.93,0.17,0.45,0.261,-18.172,-3.126,-1.338
