time_ms,pos_x,pos_y,pos_z,vel_x,vel_y,vel_z,roll,pitch,yaw,thrust,range_z,gyro_x,gyro_y,gyro_z,acc_x,acc_y,acc_z,rate_roll,rate_pitch,rate_yaw
0,2.2436,0.4452,0.0090,-0.0101,-0.0131,0.0057,-0.18,1.10,-33.60,0,0.011,-0.323,0.086,0.068,0.020,-0.001,1.001,0.000,0.000,0.000
0,2.2435,0.4451,0.0090,-0.0098,-0.0131,0.0059,-0.21,1.14,-33.56,0,0.011,0.033,0.122,-0.060,0.022,-0.001,1.001,0.000,0.000,0.000
0,2.2430,0.4459,0.0099,-0.0116,-0.0077,0.0102,-0.28,1.14,-33.53,0,0.009,0.064,0.096,-0.084,0.022,-0.004,0.999,0.000,0.000,0.000
0,2.2438,0.4443,0.0100,-0.0065,-0.0156,0.0103,-0.26,1.16,-33.50,0,0.009,-0.229,-0.198,-0.045,0.019,-0.004,1.000,0.000,0.000,0.000
0,2.2434,0.4454,0.0101,-0.0080,-0.0092,0.0102,-0.26,1.15,-33.47,0,0.009,-0.189,-0.297,-0.196,0.024,-0.003,1.002,0.000,0.000,0.000
0,2.2439,0.4466,0.0102,-0.0045,-0.0023,0.0101,-0.25,0.99,-33.44,0,0.009,0.384,-0.110,-0.394,0.023,-0.003,1.000,0.000,0.000,0.000
0,2.2433,0.4464,0.0103,-0.0072,-0.0026,0.0100,-0.24,0.99,-33.41,0,0.009,0.133,0.101,0.023,0.023,-0.003,1.000,0.000,0.000,0.000
0,2.2435,0.4463,0.0104,-0.0056,-0.0028,0.0102,-0.25,0.97,-33.37,0,0.008,0.127,0.206,0.098,0.019,-0.003,0.999,0.000,0.000,0.000
1,2.2463,0.4440,0.0099,0.0102,-0.0154,0.0073,-0.28,0.99,-33.34,0,0.008,0.159,-0.173,-0.147,0.021,-0.002,1.000,0.000,0.000,0.000
1,2.2464,0.4438,0.0100,0.0104,-0.0156,0.0072,-0.18,0.98,-33.31,0,0.008,-0.189,-0.120,-0.227,0.025,-0.001,1.000,0.000,0.000,0.000
1,2.2468,0.4436,0.0101,0.0122,-0.0162,0.0073,-0.21,0.99,-33.28,0,0.008,-0.104,0.158,0.048,0.022,-0.002,1.000,0.000,0.000,0.000
1,2.2470,0.4443,0.0102,0.0131,-0.0118,0.0076,-0.06,1.02,-33.24,0,0.008,-0.018,0.054,-0.037,0.021,-0.001,0.999,0.000,0.000,0.000
1,2.2461,0.4422,0.0093,0.0083,-0.0228,0.0027,-0.04,1.05,-33.21,0,0.007,0.013,-0.095,-0.106,0.022,-0.002,0.999,0.000,0.000,0.000
1,2.2463,0.4429,0.0094,0.0091,-0.0181,0.0028,-0.04,1.05,-33.18,0,0.007,-0.048,0.032,0.042,0.022,-0.003,1.000,0.000,0.000,0.000
1,2.2440,0.4402,0.0094,-0.0039,-0.0319,0.0026,0.21,1.02,-33.14,0,0.007,0.017,0.235,-0.182,0.020,-0.004,0.999,0.000,0.000,0.000
1,2.2432,0.4397,0.0094,-0.0077,-0.0331,0.0025,0.22,0.95,-33.11,0,0.007,0.012,-0.193,-0.084,0.020,-0.001,1.000,0.000,0.000,0.000
2,2.2431,0.4396,0.0094,-0.0076,-0.0325,0.0026,0.24,1.10,-33.08,0,0.007,-0.028,0.058,0.050,0.021,-0.002,1.000,0.000,0.000,0.000
2,2.2407,0.4342,0.0091,-0.0206,-0.0606,0.0003,0.45,1.04,-33.05,0,0.008,-0.052,-0.115,-0.109,0.022,-0.002,0.999,0.000,0.000,0.000
2,2.2417,0.4325,0.0082,-0.0139,-0.0670,-0.0047,0.38,1.08,-33.02,0,0.008,0.064,-0.125,-0.153,0.020,-0.002,1.000,0.000,0.000,0.000
2,2.2384,0.4331,0.0082,-0.0310,-0.0606,-0.0045,0.34,1.02,-32.99,0,0.008,0.155,-0.140,-0.108,0.020,-0.001,0.999,0.000,0.000,0.000
2,2.2367,0.4280,0.0076,-0.0398,-0.0869,-0.0080,0.31,1.05,-32.95,0,0.008,-0.216,0.054,0.258,0.022,-0.002,0.999,0.000,0.000,0.000
2,2.2364,0.4287,0.0078,-0.0396,-0.0789,-0.0063,0.25,1.07,-32.92,0,0.008,-0.198,0.215,0.026,0.022,-0.002,0.999,0.000,0.000,0.000
2,2.2374,0.4280,0.0079,-0.0316,-0.0791,-0.0051,0.25,1.07,-32.89,0,0.005,-0.345,-0.251,0.148,0.022,-0.002,1.000,0.000,0.000,0.000
2,2.2371,0.4283,0.0080,-0.0319,-0.0741,-0.0045,0.25,1.07,-32.86,0,0.005,0.097,0.179,0.018,0.022,-0.002,1.001,0.000,0.000,0.000
2,2.2369,0.4289,0.0081,-0.0310,-0.0676,-0.0038,0.08,1.04,-32.82,0,0.005,-0.115,0.292,-0.225,0.022,-0.004,1.001,0.000,0.000,0.000
3,2.2366,0.4282,0.0080,-0.0312,-0.0682,-0.0038,0.24,1.06,-32.79,0,0.005,-0.313,0.016,0.496,0.021,-0.002,0.998,0.000,0.000,0.000
3,2.2362,0.4275,0.0080,-0.0321,-0.0689,-0.0039,0.33,1.06,-32.76,0,0.005,-0.181,-0.052,0.157,0.020,-0.001,0.999,0.000,0.000,0.000
3,2.2384,0.4298,0.0084,-0.0181,-0.0534,-0.0011,0.33,1.09,-32.72,0,0.008,0.243,0.240,-0.132,0.021,-0.002,1.000,0.000,0.000,0.000
3,2.2359,0.4263,0.0067,-0.0307,-0.0701,-0.0102,0.56,1.10,-32.69,0,0.008,-0.079,0.188,0.174,0.023,-0.002,0.999,0.000,0.000,0.000
3,2.2343,0.4238,0.0064,-0.0377,-0.0805,-0.0114,0.45,1.12,-32.66,0,0.008,0.139,-0.173,-0.218,0.022,-0.002,0.998,0.000,0.000,0.000
3,2.2333,0.4234,0.0063,-0.0412,-0.0789,-0.0112,0.39,1.12,-32.63,0,0.008,0.058,0.074,-0.329,0.019,-0.000,0.999,0.000,0.000,0.000
3,2.2297,0.4181,0.0055,-0.0589,-0.1040,-0.0158,0.43,1.13,-32.60,0,0.008,0.232,0.064,-0.009,0.022,-0.003,1.001,0.000,0.000,0.000
3,2.2301,0.4196,0.0068,-0.0539,-0.0915,-0.0079,0.34,1.10,-32.57,0,0.006,0.098,-0.193,0.034,0.023,-0.002,1.001,0.000,0.000,0.000
3,2.2304,0.4197,0.0069,-0.0497,-0.0870,-0.0069,0.30,1.12,-32.53,0,0.006,-0.036,-0.148,-0.069,0.023,-0.002,1.001,0.000,0.000,0.000
3,2.2292,0.4182,0.0067,-0.0536,-0.0912,-0.0076,0.32,1.12,-32.50,0,0.006,0.050,-0.429,0.072,0.019,-0.000,1.001,0.000,0.000,0.000
3,2.2303,0.4188,0.0069,-0.0450,-0.0842,-0.0059,0.13,1.14,-32.47,0,0.006,-0.178,-0.156,0.207,0.020,-0.002,1.002,0.000,0.000,0.000
3,2.2299,0.4190,0.0070,-0.0448,-0.0789,-0.0052,0.15,1.13,-32.44,0,0.006,0.118,0.159,-0.117,0.020,-0.001,1.002,0.000,0.000,0.000
3,2.2291,0.4178,0.0069,-0.0468,-0.0820,-0.0056,0.15,1.13,-32.41,0,0.009,-0.005,0.146,0.404,0.022,-0.002,1.000,0.000,0.000,0.000
3,2.2309,0.4209,0.0068,-0.0351,-0.0616,-0.0047,0.12,1.15,-32.37,0,0.009,-0.042,-0.159,0.182,0.023,-0.004,1.002,0.000,0.000,0.000
4,2.2304,0.4198,0.0067,-0.0358,-0.0650,-0.0047,0.11,1.11,-32.34,0,0.009,0.109,0.236,-0.170,0.022,-0.005,1.001,0.000,0.000,0.000
4,2.2300,0.4191,0.0067,-0.0359,-0.0655,-0.0046,0.04,1.10,-32.31,0,0.009,-0.070,-0.102,-0.246,0.020,-0.003,1.000,0.000,0.000,0.000
4,2.2296,0.4194,0.0067,-0.0361,-0.0607,-0.0040,0.01,1.13,-32.28,0,0.009,-0.003,-0.001,-0.278,0.020,-0.001,1.000,0.000,0.000,0.000
4,2.2300,0.4183,0.0076,-0.0322,-0.0634,0.0014,0.03,1.10,-32.25,0,0.008,-0.011,-0.074,-0.044,0.022,-0.002,1.000,0.000,0.000,0.000
4,2.2307,0.4190,0.0077,-0.0269,-0.0568,0.0022,0.05,1.13,-32.22,0,0.008,0.079,-0.028,0.356,0.022,-0.002,1.002,0.000,0.000,0.000
4,2.2301,0.4194,0.0078,-0.0282,-0.0522,0.0025,-0.11,1.10,-32.18,0,0.008,-0.130,-0.004,-0.476,0.022,-0.002,1.001,0.000,0.000,0.000
4,2.2302,0.4183,0.0078,-0.0262,-0.0556,0.0027,-0.33,1.05,-32.15,0,0.008,-0.070,-0.327,-0.072,0.021,-0.001,1.001,0.000,0.000,0.000
4,2.2290,0.4176,0.0078,-0.0314,-0.0570,0.0025,-0.54,1.09,-32.11,0,0.008,0.106,0.070,-0.161,0.023,-0.001,1.001,0.000,0.000,0.000
4,2.2315,0.4199,0.0081,-0.0166,-0.0418,0.0045,-0.58,1.09,-32.08,0,0.010,-0.187,0.271,-0.046,0.021,-0.002,1.001,0.000,0.000,0.000
4,2.2348,0.4233,0.0082,0.0024,-0.0219,0.0052,-0.50,1.11,-32.05,0,0.010,-0.065,0.123,0.080,0.021,-0.004,1.000,0.000,0.000,0.000
4,2.2366,0.4278,0.0082,0.0124,0.0034,0.0053,-0.50,1.11,-32.02,0,0.010,0.143,0.143,0.076,0.023,-0.004,0.999,0.000,0.000,0.000
4,2.2372,0.4285,0.0082,0.0158,0.0070,0.0052,-0.48,1.11,-31.99,0,0.010,-0.149,-0.109,-0.267,0.021,-0.003,0.998,0.000,0.000,0.000
4,2.2358,0.4273,0.0084,0.0078,0.0012,0.0060,-0.49,1.15,-31.96,0,0.010,0.135,0.133,-0.040,0.022,-0.004,1.001,0.000,0.000,0.000
4,2.2359,0.4272,0.0091,0.0089,0.0010,0.0095,-0.50,1.13,-31.93,0,0.010,0.022,-0.177,-0.099,0.022,-0.004,1.003,0.000,0.000,0.000
4,2.2358,0.4270,0.0092,0.0083,0.0005,0.0096,-0.50,1.11,-31.90,0,0.010,-0.240,-0.189,0.204,0.021,-0.003,1.001,0.000,0.000,0.000
4,2.2352,0.4276,0.0093,0.0049,0.0042,0.0096,-0.48,1.06,-31.86,0,0.010,0.164,0.072,-0.201,0.021,-0.001,1.000,0.000,0.000,0.000
4,2.2358,0.4278,0.0094,0.0082,0.0050,0.0096,-0.55,1.13,-31.83,0,0.010,-0.103,0.132,0.210,0.022,-0.001,0.998,0.000,0.000,0.000
4,2.2362,0.4276,0.0095,0.0102,0.0039,0.0094,-0.55,1.13,-31.80,0,0.010,-0.118,0.029,0.139,0.021,-0.003,1.000,0.000,0.000,0.000
5,2.2370,0.4265,0.0096,0.0147,-0.0016,0.0094,-0.54,1.12,-31.77,0,0.006,-0.075,-0.055,0.096,0.019,-0.003,0.998,0.000,0.000,0.000
5,2.2366,0.4288,0.0098,0.0124,0.0108,0.0105,-0.51,1.13,-31.74,0,0.006,0.153,0.077,0.360,0.021,-0.004,0.999,0.000,0.000,0.000
5,2.2368,0.4289,0.0100,0.0129,0.0112,0.0107,-0.53,1.13,-31.71,0,0.006,0.186,0.041,0.071,0.021,-0.003,0.998,0.000,0.000,0.000
5,2.2369,0.4288,0.0101,0.0136,0.0105,0.0108,-0.52,1.10,-31.67,0,0.006,-0.091,-0.139,-0.159,0.023,-0.001,0.999,0.000,0.000,0.000
5,2.2364,0.4283,0.0102,0.0106,0.0081,0.0108,-0.48,1.15,-31.65,0,0.006,0.035,-0.091,-0.118,0.022,-0.002,0.999,0.000,0.000,0.000
5,2.2368,0.4289,0.0085,0.0125,0.0111,0.0011,-0.43,1.15,-31.62,0,0.007,0.048,-0.053,-0.068,0.020,-0.003,1.001,0.000,0.000,0.000
5,2.2373,0.4285,0.0085,0.0151,0.0091,0.0010,-0.43,1.15,-31.59,0,0.007,0.042,0.398,0.096,0.021,-0.002,1.003,0.000,0.000,0.000
5,2.2359,0.4283,0.0086,0.0068,0.0080,0.0011,-0.46,1.12,-31.55,0,0.007,0.013,-0.401,-0.376,0.022,-0.002,1.000,0.000,0.000,0.000
5,2.2354,0.4276,0.0086,0.0041,0.0037,0.0010,-0.50,1.09,-31.52,0,0.007,-0.054,-0.137,-0.043,0.022,-0.002,1.000,0.000,0.000,0.000
5,2.2355,0.4276,0.0086,0.0046,0.0041,0.0009,-0.57,1.12,-31.49,0,0.007,0.073,-0.098,0.206,0.022,-0.003,0.999,0.000,0.000,0.000
5,2.2364,0.4278,0.0086,0.0100,0.0055,0.0009,-0.51,1.15,-31.46,0,0.005,-0.049,0.200,-0.032,0.022,-0.001,1.001,0.000,0.000,0.000
5,2.2376,0.4284,0.0079,0.0163,0.0089,-0.0028,-0.57,1.17,-31.43,0,0.005,0.192,0.114,-0.035,0.023,-0.004,1.002,0.000,0.000,0.000
5,2.2382,0.4302,0.0078,0.0189,0.0186,-0.0028,-0.74,1.15,-31.40,0,0.005,-0.105,0.053,-0.026,0.023,-0.002,1.001,0.000,0.000,0.000
5,2.2368,0.4294,0.0079,0.0113,0.0137,-0.0022,-0.43,1.05,-31.36,0,0.005,0.136,-0.023,-0.136,0.023,-0.002,1.003,0.000,0.000,0.000
5,2.2374,0.4312,0.0078,0.0141,0.0229,-0.0024,-0.45,1.05,-31.33,0,0.005,-0.155,-0.058,0.123,0.023,-0.000,1.001,0.000,0.000,0.000
5,2.2400,0.4346,0.0065,0.0279,0.0402,-0.0095,-0.45,1.05,-31.30,0,0.006,0.204,-0.239,-0.186,0.021,-0.003,1.000,0.000,0.000,0.000
5,2.2384,0.4276,0.0069,0.0185,0.0018,-0.0070,-0.45,1.05,-31.27,0,0.006,0.020,0.126,-0.240,0.019,-0.005,1.001,0.000,0.000,0.000
5,2.2389,0.4278,0.0068,0.0203,0.0033,-0.0068,-0.61,1.05,-31.24,0,0.006,-0.096,-0.289,0.011,0.020,-0.005,0.999,0.000,0.000,0.000
5,2.2390,0.4280,0.0067,0.0204,0.0043,-0.0065,-0.40,1.09,-31.21,0,0.006,-0.098,-0.004,0.088,0.020,-0.002,0.998,0.000,0.000,0.000
6,2.2392,0.4280,0.0067,0.0211,0.0046,-0.0063,-0.40,1.11,-31.18,0,0.006,-0.245,0.043,0.056,0.023,-0.003,0.998,0.000,0.000,0.000
6,2.2414,0.4313,0.0065,0.0325,0.0220,-0.0066,-0.43,1.12,-31.15,0,0.008,0.145,-0.227,0.077,0.022,-0.003,0.999,0.000,0.000,0.000
6,2.2384,0.4277,0.0064,0.0155,0.0024,-0.0065,-0.17,1.13,-31.12,0,0.008,0.022,0.098,0.026,0.022,-0.004,1.001,0.000,0.000,0.000
6,2.2379,0.4280,0.0064,0.0127,0.0037,-0.0063,-0.22,1.14,-31.09,0,0.008,-0.205,-0.136,-0.257,0.023,-0.003,1.001,0.000,0.000,0.000
6,2.2382,0.4289,0.0063,0.0136,0.0083,-0.0063,0.02,1.10,-31.06,0,0.008,-0.103,0.061,0.135,0.021,-0.001,1.000,0.000,0.000,0.000
6,2.2351,0.4237,0.0063,-0.0030,-0.0185,-0.0060,0.03,1.12,-31.03,0,0.008,0.004,-0.001,-0.215,0.021,0.000,1.002,0.000,0.000,0.000
6,2.2354,0.4247,0.0070,-0.0012,-0.0127,-0.0025,0.05,1.12,-31.00,0,0.006,0.094,0.039,-0.233,0.023,-0.002,1.002,0.000,0.000,0.000
6,2.2334,0.4190,0.0068,-0.0116,-0.0415,-0.0035,0.02,1.10,-30.97,0,0.006,-0.042,0.049,0.137,0.020,-0.002,1.001,0.000,0.000,0.000
6,2.2325,0.4185,0.0068,-0.0153,-0.0424,-0.0036,0.02,1.10,-30.94,0,0.006,-0.129,0.035,0.050,0.023,-0.001,0.999,0.000,0.000,0.000
6,2.2321,0.4178,0.0067,-0.0168,-0.0446,-0.0036,-0.07,1.09,-30.91,0,0.006,-0.089,-0.179,-0.120,0.020,-0.003,0.998,0.000,0.000,0.000
6,2.2328,0.4177,0.0067,-0.0121,-0.0431,-0.0032,-0.03,1.12,-30.88,0,0.006,-0.007,-0.263,-0.000,0.019,-0.001,1.000,0.000,0.000,0.000
6,2.2327,0.4172,0.0067,-0.0121,-0.0433,-0.0030,-0.07,1.11,-30.85,0,0.008,-0.106,-0.017,-0.105,0.018,-0.003,1.001,0.000,0.000,0.000
6,2.2337,0.4186,0.0065,-0.0057,-0.0344,-0.0038,-0.07,1.10,-30.82,0,0.008,-0.014,0.343,0.069,0.019,-0.000,1.001,0.000,0.000,0.000
6,2.2326,0.4177,0.0064,-0.0111,-0.0376,-0.0039,-0.06,1.14,-30.79,0,0.008,-0.289,-0.315,-0.082,0.021,-0.003,1.000,0.000,0.000,0.000
6,2.2331,0.4180,0.0064,-0.0080,-0.0341,-0.0037,0.19,1.10,-30.76,0,0.008,0.171,0.068,-0.168,0.020,-0.003,1.000,0.000,0.000,0.000
6,2.2332,0.4177,0.0064,-0.0070,-0.0340,-0.0038,0.38,1.12,-30.73,0,0.008,0.033,-0.047,-0.120,0.022,-0.003,1.002,0.000,0.000,0.000
6,2.2322,0.4175,0.0070,-0.0116,-0.0334,-0.0005,0.38,1.11,-30.70,0,0.013,-0.041,0.327,0.176,0.022,-0.002,1.001,0.000,0.000,0.000
6,2.2298,0.4116,0.0068,-0.0239,-0.0624,-0.0019,0.33,1.16,-30.67,0,0.013,-0.283,0.207,0.036,0.024,-0.001,0.999,0.000,0.000,0.000
7,2.2268,0.4074,0.0063,-0.0386,-0.0812,-0.0043,0.31,1.10,-30.64,0,0.013,0.042,0.001,-0.004,0.022,-0.001,0.999,0.000,0.000,0.000
7,2.2266,0.4062,0.0063,-0.0377,-0.0836,-0.0044,0.31,1.12,-30.61,0,0.013,-0.299,0.262,0.193,0.021,-0.001,0.999,0.000,0.000,0.000
7,2.2258,0.4071,0.0064,-0.0404,-0.0758,-0.0032,0.21,1.13,-30.58,0,0.013,0.030,-0.307,-0.260,0.020,-0.002,1.002,0.000,0.000,0.000
7,2.2267,0.4061,0.0065,-0.0336,-0.0779,-0.0026,0.15,1.15,-30.55,0,0.005,0.109,-0.104,-0.177,0.020,-0.003,0.999,0.000,0.000,0.000
7,2.2258,0.4055,0.0094,-0.0367,-0.0776,0.0123,0.11,1.15,-30.52,0,0.005,-0.171,-0.133,-0.122,0.020,-0.003,0.999,0.000,0.000,0.000
7,2.2263,0.4068,0.0098,-0.0321,-0.0675,0.0136,0.16,1.18,-30.49,0,0.005,0.071,-0.266,-0.166,0.022,-0.003,1.001,0.000,0.000,0.000
7,2.2265,0.4076,0.0100,-0.0296,-0.0606,0.0143,0.14,1.13,-30.46,0,0.005,-0.224,-0.273,-0.062,0.022,-0.003,1.001,0.000,0.000,0.000
7,2.2266,0.4078,0.0103,-0.0274,-0.0566,0.0148,0.03,1.17,-30.43,0,0.005,-0.191,-0.096,0.004,0.022,-0.006,0.999,0.000,0.000,0.000
7,2.2253,0.4067,0.0081,-0.0333,-0.0595,0.0026,0.00,1.19,-30.40,0,0.009,-0.193,0.004,0.318,0.020,-0.004,0.999,0.000,0.000,0.000
7,2.2263,0.4059,0.0081,-0.0263,-0.0611,0.0029,0.02,1.21,-30.37,0,0.009,0.219,-0.054,-0.195,0.022,-0.002,0.996,0.000,0.000,0.000
7,2.2265,0.4081,0.0083,-0.0239,-0.0469,0.0040,0.13,1.03,-30.34,0,0.009,-0.002,0.038,0.225,0.021,-0.003,0.998,0.000,0.000,0.000
7,2.2262,0.4083,0.0084,-0.0247,-0.0434,0.0042,0.12,1.05,-30.31,0,0.009,0.090,0.070,-0.068,0.020,-0.003,0.999,0.000,0.000,0.000
7,2.2252,0.4076,0.0084,-0.0283,-0.0451,0.0041,0.10,1.08,-30.28,0,0.009,-0.013,-0.108,0.027,0.020,-0.003,1.000,0.000,0.000,0.000
7,2.2273,0.4030,0.0084,-0.0158,-0.0688,0.0034,0.10,1.08,-30.25,0,0.006,-0.071,-0.386,-0.030,0.020,-0.003,1.001,0.000,0.000,0.000
7,2.2267,0.4025,0.0087,-0.0178,-0.0680,0.0048,-0.00,1.09,-30.22,0,0.006,-0.025,0.207,0.175,0.021,-0.001,1.001,0.000,0.000,0.000
7,2.2261,0.4027,0.0088,-0.0204,-0.0639,0.0048,-0.12,1.09,-30.19,0,0.006,-0.092,-0.243,-0.184,0.022,0.000,1.001,0.000,0.000,0.000
7,2.2259,0.4020,0.0088,-0.0204,-0.0644,0.0046,-0.29,1.07,-30.16,0,0.006,-0.101,-0.018,0.020,0.022,-0.001,0.999,0.000,0.000,0.000
7,2.2268,0.4037,0.0091,-0.0144,-0.0526,0.0059,-0.33,1.10,-30.13,0,0.006,0.112,-0.160,-0.054,0.024,-0.002,1.002,0.000,0.000,0.000
7,2.2282,0.4056,0.0079,-0.0061,-0.0396,-0.0005,-0.16,1.11,-30.10,0,0.010,-0.119,-0.199,-0.188,0.022,-0.006,1.001,0.000,0.000,0.000
8,2.2305,0.4084,0.0080,0.0072,-0.0225,0.0003,-0.20,1.12,-30.07,0,0.010,-0.085,-0.223,-0.320,0.022,-0.002,0.999,0.000,0.000,0.000
8,2.2304,0.4095,0.0080,0.0064,-0.0150,0.0005,-0.37,1.10,-30.04,0,0.010,0.312,0.061,-0.019,0.021,-0.001,1.000,0.000,0.000,0.000
8,2.2283,0.4059,0.0081,-0.0048,-0.0334,0.0008,-0.24,1.07,-30.02,0,0.010,-0.059,-0.186,0.056,0.022,-0.001,1.001,0.000,0.000,0.000
8,2.2285,0.4066,0.0081,-0.0035,-0.0277,0.0010,-0.31,1.10,-29.98,0,0.010,0.135,0.004,-0.207,0.020,-0.002,0.999,0.000,0.000,0.000
8,2.2309,0.4096,0.0082,0.0102,-0.0106,0.0017,-0.39,1.08,-29.96,0,0.007,0.184,-0.364,-0.316,0.023,-0.003,1.000,0.000,0.000,0.000
8,2.2300,0.4063,0.0091,0.0052,-0.0275,0.0060,-0.34,1.10,-29.93,0,0.007,-0.169,-0.053,-0.158,0.023,-0.002,1.001,0.000,0.000,0.000
8,2.2302,0.4079,0.0092,0.0063,-0.0172,0.0063,-0.33,1.12,-29.90,0,0.007,-0.001,0.045,0.175,0.021,-0.001,1.001,0.000,0.000,0.000
8,2.2316,0.4092,0.0092,0.0140,-0.0095,0.0063,-0.34,1.12,-29.87,0,0.007,-0.259,0.140,0.306,0.021,-0.004,1.003,0.000,0.000,0.000
8,2.2308,0.4081,0.0093,0.0093,-0.0141,0.0066,-0.39,1.14,-29.84,0,0.007,0.331,0.015,-0.257,0.021,-0.003,1.000,0.000,0.000,0.000
8,2.2303,0.4082,0.0084,0.0066,-0.0128,0.0012,-0.40,1.12,-29.81,0,0.008,0.041,0.264,-0.234,0.021,-0.003,1.000,0.000,0.000,0.000
8,2.2306,0.4083,0.0084,0.0082,-0.0115,0.0012,-0.26,1.14,-29.78,0,0.008,-0.051,0.191,0.116,0.021,-0.001,1.000,0.000,0.000,0.000
8,2.2308,0.4095,0.0084,0.0091,-0.0047,0.0014,-0.25,1.11,-29.75,0,0.008,0.021,0.048,0.290,0.022,-0.004,1.001,0.000,0.000,0.000
8,2.2312,0.4094,0.0084,0.0115,-0.0041,0.0015,-0.12,1.03,-29.72,0,0.008,-0.073,0.085,-0.008,0.024,-0.003,1.001,0.000,0.000,0.000
8,2.2294,0.4066,0.0085,0.0012,-0.0188,0.0019,0.20,1.08,-29.70,0,0.008,0.037,0.274,0.041,0.022,-0.001,1.000,0.000,0.000,0.000
8,2.2298,0.4061,0.0085,0.0037,-0.0205,0.0020,0.20,1.07,-29.67,0,0.010,-0.165,-0.348,0.036,0.021,-0.001,1.002,0.000,0.000,0.000
8,2.2298,0.4022,0.0082,0.0036,-0.0399,0.0003,0.14,1.11,-29.64,0,0.010,-0.047,-0.073,-0.052,0.021,-0.001,0.999,0.000,0.000,0.000
8,2.2253,0.3959,0.0080,-0.0205,-0.0713,-0.0019,0.11,1.12,-29.61,0,0.010,0.038,0.111,0.204,0.022,-0.001,0.998,0.000,0.000,0.000
8,2.2251,0.3951,0.0079,-0.0207,-0.0727,-0.0019,0.03,1.08,-29.58,0,0.010,-0.088,-0.003,-0.356,0.020,-0.003,1.002,0.000,0.000,0.000
9,2.2248,0.3960,0.0081,-0.0209,-0.0648,-0.0006,0.05,1.12,-29.55,0,0.010,0.007,-0.007,0.051,0.019,-0.002,0.999,0.000,0.000,0.000
9,2.2246,0.3961,0.0089,-0.0207,-0.0613,0.0037,0.04,1.17,-29.52,0,0.009,0.005,-0.155,-0.032,0.023,-0.002,1.001,0.000,0.000,0.000
9,2.2262,0.3967,0.0091,-0.0112,-0.0551,0.0048,0.01,1.14,-29.49,0,0.009,-0.165,0.240,0.058,0.023,-0.001,1.001,0.000,0.000,0.000
9,2.2250,0.3959,0.0091,-0.0168,-0.0565,0.0046,-0.01,1.13,-29.46,0,0.009,0.117,0.232,-0.017,0.023,-0.004,0.999,0.000,0.000,0.000
9,2.2238,0.3963,0.0092,-0.0222,-0.0514,0.0047,0.25,1.10,-29.44,0,0.009,-0.032,0.150,-0.132,0.023,-0.005,1.002,0.000,0.000,0.000
9,2.2245,0.3959,0.0093,-0.0173,-0.0510,0.0051,0.29,1.12,-29.41,0,0.009,-0.219,-0.331,0.455,0.020,-0.005,1.000,0.000,0.000,0.000
9,2.2249,0.3957,0.0094,-0.0146,-0.0496,0.0054,0.22,1.12,-29.38,0,0.007,-0.003,0.056,-0.089,0.021,-0.003,0.999,0.000,0.000,0.000
9,2.2223,0.3897,0.0090,-0.0279,-0.0793,0.0023,0.19,1.14,-29.35,0,0.007,-0.135,0.110,0.172,0.021,-0.003,0.999,0.000,0.000,0.000
9,2.2212,0.3882,0.0089,-0.0322,-0.0839,0.0018,0.16,1.10,-29.32,0,0.007,0.156,-0.215,-0.091,0.023,-0.003,1.001,0.000,0.000,0.000
9,2.2215,0.3888,0.0091,-0.0289,-0.0773,0.0030,0.16,1.10,-29.29,0,0.007,0.244,0.062,-0.006,0.022,-0.003,1.002,0.000,0.000,0.000
9,2.2213,0.3889,0.0093,-0.0284,-0.0735,0.0037,0.13,1.13,-29.26,0,0.007,-0.302,-0.150,0.222,0.023,-0.003,1.000,0.000,0.000,0.000
9,2.2219,0.3882,0.0084,-0.0237,-0.0733,-0.0006,0.05,1.14,-29.23,0,0.007,-0.094,-0.234,-0.210,0.020,-0.003,1.001,0.000,0.000,0.000
9,2.2218,0.3876,0.0084,-0.0233,-0.0734,-0.0006,0.03,1.16,-29.20,0,0.007,-0.150,0.105,0.074,0.021,-0.002,1.000,0.000,0.000,0.000
9,2.2212,0.3879,0.0085,-0.0251,-0.0683,-0.0002,-0.15,1.14,-29.17,0,0.007,0.014,-0.395,0.199,0.021,-0.002,1.002,0.000,0.000,0.000
9,2.2217,0.3888,0.0086,-0.0209,-0.0602,0.0009,0.01,1.11,-29.14,0,0.007,-0.080,0.059,-0.051,0.022,-0.003,1.001,0.000,0.000,0.000
9,2.2213,0.3888,0.0087,-0.0223,-0.0573,0.0013,-0.04,1.14,-29.11,0,0.007,0.005,0.149,-0.004,0.020,-0.002,1.000,0.000,0.000,0.000
9,2.2234,0.3918,0.0090,-0.0096,-0.0388,0.0035,-0.17,1.18,-29.08,0,0.010,-0.051,0.215,-0.038,0.021,-0.001,1.000,0.000,0.000,0.000
9,2.2223,0.3876,0.0081,-0.0150,-0.0592,-0.0018,-0.16,1.18,-29.05,0,0.010,0.093,-0.143,0.235,0.021,-0.001,1.002,0.000,0.000,0.000
9,2.2220,0.3885,0.0081,-0.0154,-0.0517,-0.0012,-0.18,1.19,-29.02,0,0.010,-0.081,-0.280,-0.040,0.022,-0.003,1.001,0.000,0.000,0.000
10,2.2224,0.3909,0.0083,-0.0124,-0.0357,0.0001,-0.19,1.19,-28.99,0,0.010,-0.147,-0.124,-0.001,0.023,-0.003,1.002,0.000,0.000,0.000
10,2.2221,0.3904,0.0083,-0.0133,-0.0368,0.0002,-0.23,1.19,-28.97,0,0.010,-0.160,-0.040,-0.336,0.021,-0.004,1.002,0.000,0.000,0.000
10,2.2220,0.3906,0.0090,-0.0130,-0.0332,0.0040,-0.24,1.17,-28.94,0,0.008,0.036,-0.227,0.114,0.022,-0.001,0.998,0.000,0.000,0.000
10,2.2219,0.3904,0.0091,-0.0127,-0.0322,0.0041,-0.23,1.20,-28.91,0,0.008,0.190,-0.268,0.064,0.022,-0.001,0.998,0.000,0.000,0.000
10,2.2222,0.3910,0.0091,-0.0102,-0.0272,0.0044,-0.24,1.16,-28.88,0,0.008,0.009,0.213,0.020,0.021,-0.003,1.000,0.000,0.000,0.000
10,2.2225,0.3906,0.0092,-0.0080,-0.0277,0.0046,-0.26,1.16,-28.85,0,0.008,0.097,-0.085,0.186,0.021,-0.002,0.999,0.000,0.000,0.000
10,2.2217,0.3905,0.0092,-0.0115,-0.0264,0.0047,-0.25,1.21,-28.82,0,0.008,-0.367,-0.106,0.058,0.022,-0.002,1.001,0.000,0.000,0.000
10,2.2226,0.3900,0.0093,-0.0058,-0.0277,0.0050,-0.27,1.20,-28.80,0,0.007,0.266,-0.004,-0.327,0.021,-0.000,1.002,0.000,0.000,0.000
10,2.2227,0.3902,0.0087,-0.0046,-0.0250,0.0020,-0.32,1.21,-28.77,0,0.007,0.040,-0.001,-0.078,0.020,-0.000,1.000,0.000,0.000,0.000
10,2.2216,0.3904,0.0088,-0.0102,-0.0226,0.0018,-0.32,1.21,-28.74,0,0.007,0.082,0.374,-0.124,0.019,-0.001,1.000,0.000,0.000,0.000
10,2.2218,0.3903,0.0088,-0.0085,-0.0218,0.0018,-0.31,1.16,-28.71,0,0.007,-0.086,-0.157,-0.031,0.018,-0.001,0.999,0.000,0.000,0.000
10,2.2221,0.3913,0.0088,-0.0061,-0.0149,0.0020,-0.30,1.19,-28.69,0,0.007,-0.144,-0.316,0.051,0.021,-0.002,0.998,0.000,0.000,0.000
10,2.2221,0.3912,0.0081,-0.0058,-0.0145,-0.0019,-0.32,1.21,-28.66,0,0.012,-0.134,0.083,0.226,0.022,-0.003,0.999,0.000,0.000,0.000
10,2.2228,0.3903,0.0081,-0.0011,-0.0183,-0.0017,-0.32,1.23,-28.63,0,0.012,0.066,-0.006,-0.027,0.022,-0.001,0.999,0.000,0.000,0.000
10,2.2221,0.3902,0.0080,-0.0050,-0.0172,-0.0016,-0.39,1.18,-28.60,0,0.012,0.083,-0.011,-0.114,0.020,-0.001,0.999,0.000,0.000,0.000
10,2.2218,0.3906,0.0080,-0.0061,-0.0136,-0.0015,-0.33,1.20,-28.57,0,0.012,-0.290,-0.167,0.185,0.020,-0.000,1.001,0.000,0.000,0.000
10,2.2213,0.3907,0.0080,-0.0084,-0.0122,-0.0015,-0.34,1.21,-28.54,0,0.012,0.084,0.034,-0.036,0.022,-0.001,1.001,0.000,0.000,0.000
10,2.2230,0.3915,0.0080,0.0013,-0.0067,-0.0015,-0.38,1.21,-28.52,0,0.008,0.105,0.125,0.062,0.026,-0.002,1.001,0.000,0.000,0.000
11,2.2219,0.3904,0.0098,-0.0045,-0.0121,0.0076,-0.33,1.18,-28.49,0,0.008,-0.282,-0.064,0.064,0.024,-0.004,0.999,0.000,0.000,0.000
11,2.2218,0.3907,0.0099,-0.0044,-0.0094,0.0076,-0.37,1.21,-28.46,0,0.008,-0.171,-0.051,-0.035,0.021,-0.004,1.003,0.000,0.000,0.000
11,2.2222,0.3914,0.0100,-0.0018,-0.0043,0.0076,-0.37,1.16,-28.43,0,0.008,0.042,0.010,0.068,0.019,-0.003,1.001,0.000,0.000,0.000
11,2.2221,0.3900,0.0101,-0.0017,-0.0112,0.0077,-0.39,1.18,-28.40,0,0.008,-0.072,0.118,0.168,0.020,-0.002,1.000,0.000,0.000,0.000
11,2.2220,0.3910,0.0093,-0.0021,-0.0045,0.0034,-0.35,1.18,-28.38,0,0.008,0.054,0.120,-0.111,0.021,-0.000,1.002,0.000,0.000,0.000
11,2.2229,0.3903,0.0093,0.0031,-0.0078,0.0036,-0.36,1.21,-28.35,0,0.008,0.081,-0.200,-0.456,0.019,-0.001,1.000,0.000,0.000,0.000
11,2.2227,0.3909,0.0094,0.0025,-0.0043,0.0036,-0.57,1.16,-28.32,0,0.008,0.152,-0.097,-0.021,0.019,-0.003,1.001,0.000,0.000,0.000
11,2.2223,0.3902,0.0094,0.0004,-0.0079,0.0038,-0.67,1.15,-28.29,0,0.008,-0.161,0.221,-0.035,0.022,-0.002,1.002,0.000,0.000,0.000
11,2.2218,0.3907,0.0095,-0.0020,-0.0046,0.0040,-0.68,1.18,-28.26,0,0.008,0.068,-0.187,-0.154,0.022,-0.003,1.000,0.000,0.000,0.000
11,2.2251,0.3945,0.0095,0.0156,0.0164,0.0041,-0.61,1.21,-28.24,0,0.009,-0.203,-0.128,0.302,0.022,-0.001,0.999,0.000,0.000,0.000
11,2.2265,0.3963,0.0088,0.0232,0.0263,0.0004,-0.81,1.05,-28.20,0,0.009,-0.018,-0.213,0.044,0.019,-0.001,0.999,0.000,0.000,0.000
11,2.2263,0.3972,0.0088,0.0209,0.0304,0.0004,-0.83,1.09,-28.17,0,0.009,-0.261,0.072,0.172,0.020,-0.003,1.001,0.000,0.000,0.000
11,2.2250,0.3967,0.0089,0.0133,0.0268,0.0010,-0.68,1.01,-28.14,0,0.009,0.121,0.053,-0.035,0.020,-0.003,1.000,0.000,0.000,0.000
11,2.2307,0.3991,0.0086,0.0433,0.0393,-0.0002,-0.73,1.07,-28.12,0,0.009,0.071,-0.011,-0.153,0.022,-0.004,1.002,0.000,0.000,0.000
11,2.2305,0.4005,0.0088,0.0405,0.0452,0.0006,-0.76,1.06,-28.09,0,0.008,-0.105,-0.059,0.082,0.020,-0.002,1.002,0.000,0.000,0.000
11,2.2310,0.3968,0.0090,0.0417,0.0244,0.0021,-0.74,1.09,-28.07,0,0.008,-0.052,-0.261,-0.009,0.022,-0.002,1.000,0.000,0.000,0.000
11,2.2306,0.3989,0.0091,0.0384,0.0351,0.0018,-0.72,1.06,-28.07,0,0.008,0.223,-0.057,-0.332,0.022,-0.002,0.996,0.000,0.000,0.000
11,2.2316,0.3998,0.0090,0.0420,0.0389,0.0015,-0.62,1.13,-28.01,0,0.008,-0.134,-0.124,0.272,0.022,-0.005,0.999,0.000,0.000,0.000
11,2.2312,0.4001,0.0091,0.0384,0.0388,0.0019,-0.67,1.12,-28.01,0,0.008,0.045,-0.015,0.017,0.021,-0.005,1.002,0.000,0.000,0.000
12,2.2317,0.3995,0.0091,0.0408,0.0356,0.0020,-0.62,1.10,-27.96,0,0.007,0.143,0.120,-0.219,0.020,-0.003,1.002,0.000,0.000,0.000
12,2.2299,0.3989,0.0088,0.0280,0.0298,0.0009,-0.57,1.11,-27.96,0,0.007,-0.027,0.075,0.034,0.021,-0.001,1.002,0.000,0.000,0.000
12,2.2304,0.3997,0.0088,0.0311,0.0346,0.0006,-0.62,1.12,-27.90,0,0.007,-0.039,0.017,-0.421,0.023,-0.003,1.001,0.000,0.000,0.000
12,2.2310,0.3992,0.0088,0.0320,0.0296,0.0007,-0.56,1.15,-27.91,0,0.007,0.165,0.280,-0.273,0.021,-0.003,0.999,0.000,0.000,0.000
12,2.2302,0.3983,0.0089,0.0272,0.0246,0.0011,-0.54,1.14,-27.88,0,0.007,-0.132,0.212,0.042,0.023,-0.001,0.999,0.000,0.000,0.000
12,2.2312,0.4000,0.0081,0.0307,0.0319,-0.0031,-0.56,1.13,-27.85,0,0.011,-0.175,-0.129,0.028,0.022,-0.000,1.000,0.000,0.000,0.000
12,2.2299,0.3991,0.0082,0.0234,0.0268,-0.0027,-0.55,1.11,-27.82,0,0.011,0.287,0.094,-0.090,0.022,-0.003,0.998,0.000,0.000,0.000
12,2.2301,0.3991,0.0081,0.0234,0.0254,-0.0024,-0.47,1.16,-27.80,0,0.011,-0.290,-0.125,0.119,0.020,-0.003,1.000,0.000,0.000,0.000
12,2.2307,0.3997,0.0081,0.0257,0.0281,-0.0023,-0.53,1.13,-27.77,0,0.011,-0.164,-0.267,-0.244,0.019,-0.003,1.001,0.000,0.000,0.000
12,2.2312,0.3994,0.0081,0.0279,0.0254,-0.0020,-0.48,1.11,-27.74,0,0.011,-0.119,0.125,0.290,0.020,-0.001,1.002,0.000,0.000,0.000
12,2.2297,0.3987,0.0082,0.0179,0.0200,-0.0014,-0.48,1.11,-27.72,0,0.008,0.206,-0.008,0.005,0.021,-0.002,1.001,0.000,0.000,0.000
12,2.2312,0.3998,0.0094,0.0258,0.0256,0.0049,-0.42,1.15,-27.69,0,0.008,-0.231,-0.080,0.196,0.021,-0.004,1.000,0.000,0.000,0.000
12,2.2312,0.3991,0.0095,0.0253,0.0207,0.0051,-0.47,1.19,-27.66,0,0.008,-0.303,0.080,0.179,0.022,-0.002,0.999,0.000,0.000,0.000
12,2.2315,0.3993,0.0095,0.0258,0.0211,0.0050,-0.46,1.15,-27.63,0,0.008,0.033,0.148,0.283,0.021,-0.003,0.999,0.000,0.000,0.000
12,2.2304,0.3986,0.0096,0.0186,0.0167,0.0054,-0.46,1.15,-27.60,0,0.008,0.129,0.031,-0.440,0.021,-0.003,1.000,0.000,0.000,0.000
13,2.2302,0.4001,0.0090,0.0167,0.0246,0.0017,-0.38,1.19,-27.58,0,0.007,0.058,-0.162,0.003,0.021,-0.004,0.999,0.000,0.000,0.000
13,2.2310,0.3997,0.0090,0.0202,0.0217,0.0020,-0.44,1.14,-27.55,0,0.007,-0.022,-0.032,0.054,0.022,-0.004,1.000,0.000,0.000,0.000
13,2.2311,0.3999,0.0090,0.0199,0.0220,0.0021,-0.35,1.15,-27.52,0,0.007,-0.038,-0.032,-0.470,0.023,-0.003,1.000,0.000,0.000,0.000
13,2.2297,0.3990,0.0091,0.0111,0.0160,0.0026,-0.33,1.17,-27.50,0,0.007,-0.059,0.114,-0.034,0.024,-0.005,0.999,0.000,0.000,0.000
13,2.2313,0.3998,0.0091,0.0196,0.0199,0.0025,-0.37,1.17,-27.47,0,0.007,-0.141,-0.138,-0.250,0.024,-0.004,1.000,0.000,0.000,0.000
13,2.2305,0.3983,0.0092,0.0145,0.0110,0.0029,-0.34,1.18,-27.44,0,0.006,-0.080,-0.043,-0.114,0.022,-0.004,0.999,0.000,0.000,0.000
13,2.2300,0.3983,0.0083,0.0113,0.0105,-0.0022,-0.39,1.17,-27.42,0,0.006,-0.045,-0.073,-0.296,0.022,-0.002,1.000,0.000,0.000,0.000
13,2.2305,0.3992,0.0082,0.0135,0.0151,-0.0023,-0.38,1.15,-27.39,0,0.006,-0.032,0.370,0.229,0.023,-0.003,0.999,0.000,0.000,0.000
13,2.2300,0.3988,0.0082,0.0104,0.0119,-0.0022,-0.32,1.19,-27.37,0,0.006,0.050,-0.089,0.065,0.022,-0.004,1.000,0.000,0.000,0.000
13,2.2309,0.3999,0.0082,0.0148,0.0178,-0.0023,-0.38,1.16,-27.34,0,0.006,-0.066,-0.017,0.159,0.023,-0.002,1.001,0.000,0.000,0.000
13,2.2312,0.3997,0.0073,0.0164,0.0157,-0.0070,-0.38,1.16,-27.31,0,0.009,0.116,-0.032,-0.012,0.023,-0.002,1.000,0.000,0.000,0.000
14,2.2299,0.3990,0.0073,0.0087,0.0109,-0.0067,-0.38,1.16,-27.28,0,0.009,0.065,0.333,0.171,0.024,-0.003,0.999,0.000,0.000,0.000
14,2.2311,0.4000,0.0072,0.0151,0.0160,-0.0069,-0.37,1.13,-27.25,0,0.009,0.038,0.105,-0.167,0.023,-0.001,0.999,0.000,0.000,0.000
14,2.2313,0.4002,0.0071,0.0154,0.0163,-0.0069,-0.32,1.22,-27.23,0,0.009,0.037,-0.011,-0.189,0.019,-0.001,1.002,0.000,0.000,0.000
14,2.2315,0.4003,0.0071,0.0158,0.0165,-0.0069,-0.10,1.20,-27.20,0,0.009,-0.106,0.059,0.176,0.021,-0.002,1.001,0.000,0.000,0.000
14,2.2321,0.4000,0.0070,0.0184,0.0140,-0.0069,-0.06,1.20,-27.18,0,0.006,0.296,-0.055,-0.342,0.023,-0.003,1.002,0.000,0.000,0.000
14,2.2298,0.4001,0.0079,0.0057,0.0142,-0.0018,-0.12,1.23,-27.15,0,0.006,-0.202,0.170,0.150,0.022,-0.003,1.001,0.000,0.000,0.000
14,2.2281,0.3957,0.0079,-0.0039,-0.0104,-0.0012,-0.13,1.19,-27.12,0,0.006,-0.104,0.151,0.143,0.021,-0.003,1.001,0.000,0.000,0.000
14,2.2276,0.3948,0.0079,-0.0062,-0.0154,-0.0014,-0.17,1.18,-27.09,0,0.006,-0.060,-0.139,0.309,0.022,-0.001,1.001,0.000,0.000,0.000
14,2.2275,0.3961,0.0079,-0.0061,-0.0075,-0.0012,-0.13,1.19,-27.07,0,0.006,0.075,0.161,-0.141,0.022,-0.002,1.001,0.000,0.000,0.000
14,2.2282,0.3959,0.0071,-0.0021,-0.0076,-0.0050,-0.12,1.18,-27.04,0,0.008,-0.015,-0.110,-0.165,0.022,-0.001,1.002,0.000,0.000,0.000
14,2.2287,0.3964,0.0071,0.0007,-0.0045,-0.0048,-0.17,1.19,-27.02,0,0.008,-0.135,0.006,0.142,0.021,-0.002,1.002,0.000,0.000,0.000
14,2.2281,0.3958,0.0071,-0.0023,-0.0080,-0.0046,-0.18,1.16,-26.99,0,0.008,0.231,-0.117,-0.238,0.019,-0.003,0.999,0.000,0.000,0.000
14,2.2282,0.3955,0.0070,-0.0016,-0.0092,-0.0046,-0.15,1.22,-26.96,0,0.008,-0.076,-0.064,-0.092,0.022,-0.002,0.998,0.000,0.000,0.000
14,2.2285,0.3965,0.0070,0.0001,-0.0030,-0.0044,-0.39,1.13,-26.93,0,0.008,0.109,0.068,-0.122,0.021,-0.005,1.001,0.000,0.000,0.000
14,2.2291,0.3962,0.0069,0.0033,-0.0043,-0.0043,-0.38,1.12,-26.91,0,0.008,0.328,-0.062,-0.204,0.023,-0.004,1.001,0.000,0.000,0.000
14,2.2276,0.3963,0.0074,-0.0045,-0.0040,-0.0016,-0.22,1.14,-26.88,0,0.008,-0.137,-0.002,0.194,0.023,-0.004,1.001,0.000,0.000,0.000
14,2.2318,0.4003,0.0074,0.0188,0.0184,-0.0013,-0.41,1.13,-26.85,0,0.008,0.138,0.106,-0.046,0.021,-0.003,1.001,0.000,0.000,0.000
14,2.2322,0.4001,0.0074,0.0201,0.0167,-0.0010,-0.32,1.11,-26.83,0,0.008,-0.149,-0.052,0.285,0.021,-0.002,0.999,0.000,0.000,0.000
15,2.2303,0.3973,0.0076,0.0087,0.0007,-0.0000,-0.29,1.12,-26.80,0,0.008,-0.214,0.027,0.093,0.023,-0.001,1.000,0.000,0.000,0.000
15,2.2324,0.4010,0.0077,0.0198,0.0207,0.0005,-0.11,1.15,-26.77,0,0.008,-0.255,-0.072,0.144,0.021,-0.003,1.000,0.000,0.000,0.000
15,2.2322,0.3992,0.0078,0.0179,0.0099,0.0011,-0.11,1.15,-26.75,0,0.008,-0.234,-0.042,-0.243,0.023,-0.002,1.001,0.000,0.000,0.000
15,2.2317,0.3987,0.0079,0.0147,0.0068,0.0013,-0.19,1.12,-26.72,0,0.008,-0.013,-0.083,-0.121,0.024,-0.004,1.000,0.000,0.000,0.000
15,2.2294,0.3955,0.0079,0.0013,-0.0115,0.0019,-0.20,1.14,-26.69,0,0.008,-0.252,0.303,0.095,0.019,-0.006,0.997,0.000,0.000,0.000
15,2.2294,0.3953,0.0080,0.0013,-0.0116,0.0020,-0.16,1.19,-26.67,0,0.008,-0.047,0.139,0.005,0.022,-0.002,0.999,0.000,0.000,0.000
15,2.2308,0.3966,0.0080,0.0089,-0.0040,0.0022,-0.16,1.15,-26.64,0,0.008,-0.102,0.037,0.062,0.021,-0.001,0.999,0.000,0.000,0.000
15,2.2305,0.3970,0.0080,0.0071,-0.0015,0.0021,-0.16,1.16,-26.62,0,0.008,-0.143,-0.022,0.104,0.020,-0.003,1.000,0.000,0.000,0.000
15,2.2292,0.3964,0.0081,-0.0002,-0.0046,0.0021,-0.12,1.15,-26.59,0,0.008,-0.049,0.120,0.029,0.019,-0.003,1.001,0.000,0.000,0.000
15,2.2300,0.3960,0.0081,0.0043,-0.0065,0.0023,-0.16,1.16,-26.56,0,0.008,-0.058,-0.059,-0.231,0.022,-0.003,1.001,0.000,0.000,0.000
15,2.2298,0.3961,0.0081,0.0032,-0.0059,0.0023,-0.15,1.15,-26.54,0,0.008,-0.365,0.083,0.141,0.021,-0.003,0.998,0.000,0.000,0.000
15,2.2296,0.3953,0.0081,0.0018,-0.0105,0.0018,-0.15,1.17,-26.51,0,0.008,-0.004,-0.093,-0.043,0.018,-0.003,0.999,0.000,0.000,0.000
15,2.2297,0.3959,0.0081,0.0023,-0.0062,0.0017,-0.15,1.17,-26.48,0,0.008,-0.125,-0.224,-0.041,0.019,-0.002,0.999,0.000,0.000,0.000
15,2.2298,0.3957,0.0081,0.0028,-0.0073,0.0017,-0.11,1.17,-26.46,0,0.008,-0.187,-0.043,-0.097,0.023,-0.001,0.999,0.000,0.000,0.000
15,2.2294,0.3959,0.0081,0.0005,-0.0059,0.0017,-0.23,1.16,-26.43,0,0.008,-0.101,-0.207,-0.016,0.020,-0.005,1.001,0.000,0.000,0.000
15,2.2293,0.3957,0.0082,-0.0001,-0.0066,0.0018,-0.21,1.16,-26.40,0,0.008,-0.246,0.288,-0.067,0.020,-0.004,1.001,0.000,0.000,0.000
15,2.2290,0.3946,0.0082,-0.0016,-0.0120,0.0018,-0.14,1.18,-26.38,0,0.008,-0.079,-0.117,0.472,0.025,-0.001,1.000,0.000,0.000,0.000
15,2.2304,0.3970,0.0081,0.0062,0.0013,0.0015,-0.19,1.19,-26.35,0,0.008,0.327,0.093,-0.419,0.025,-0.001,1.000,0.000,0.000,0.000
15,2.2302,0.3966,0.0082,0.0047,-0.0007,0.0015,-0.16,1.16,-26.33,0,0.008,-0.224,-0.105,0.020,0.022,-0.002,1.000,0.000,0.000,0.000
16,2.2291,0.3953,0.0082,-0.0016,-0.0076,0.0014,0.01,1.19,-26.30,0,0.008,-0.129,-0.347,-0.174,0.022,-0.002,0.999,0.000,0.000,0.000
16,2.2293,0.3966,0.0082,-0.0003,-0.0002,0.0015,0.19,1.28,-26.28,0,0.008,-0.060,0.103,-0.070,0.023,-0.003,0.999,0.000,0.000,0.000
16,2.2298,0.3956,0.0081,0.0021,-0.0053,0.0011,0.16,1.25,-26.26,0,0.008,-0.245,-0.084,0.098,0.021,-0.004,0.999,0.000,0.000,0.000
16,2.2275,0.3924,0.0081,-0.0106,-0.0229,0.0010,0.10,1.27,-26.23,0,0.008,-0.238,0.125,-0.022,0.024,-0.003,1.000,0.000,0.000,0.000
16,2.2236,0.3892,0.0080,-0.0308,-0.0392,-0.0002,0.08,1.24,-26.20,0,0.008,0.059,-0.238,-0.126,0.021,-0.003,0.997,0.000,0.000,0.000
16,2.2243,0.3891,0.0080,-0.0256,-0.0380,0.0004,0.15,1.25,-26.18,0,0.008,-0.290,-0.098,0.050,0.020,-0.001,1.001,0.000,0.000,0.000
16,2.2241,0.3901,0.0082,-0.0255,-0.0308,0.0011,0.05,1.24,-26.15,0,0.008,0.107,-0.033,-0.032,0.022,-0.003,1.002,0.000,0.000,0.000
16,2.2247,0.3901,0.0082,-0.0208,-0.0299,0.0014,0.03,1.24,-26.12,0,0.008,0.113,0.353,-0.126,0.022,-0.000,1.000,0.000,0.000,0.000
16,2.2236,0.3883,0.0081,-0.0257,-0.0383,0.0003,0.05,1.23,-26.10,0,0.008,0.158,0.176,-0.005,0.022,0.000,1.000,0.000,0.000,0.000
16,2.2246,0.3898,0.0082,-0.0192,-0.0284,0.0011,0.00,1.27,-26.07,0,0.008,-0.076,-0.002,0.170,0.021,-0.002,1.000,0.000,0.000,0.000
16,2.2244,0.3899,0.0082,-0.0191,-0.0268,0.0012,0.03,1.22,-26.05,0,0.008,-0.003,-0.009,-0.106,0.021,-0.003,0.999,0.000,0.000,0.000
16,2.2243,0.3893,0.0082,-0.0187,-0.0291,0.0009,-0.02,1.24,-26.03,0,0.008,-0.334,0.129,0.302,0.021,-0.002,0.999,0.000,0.000,0.000
16,2.2237,0.3903,0.0082,-0.0214,-0.0222,0.0007,-0.04,1.23,-26.00,0,0.010,0.069,-0.254,0.121,0.021,-0.004,0.998,0.000,0.000,0.000
16,2.2242,0.3891,0.0082,-0.0174,-0.0277,0.0009,-0.04,1.24,-25.97,0,0.010,-0.054,-0.063,0.082,0.021,-0.003,1.001,0.000,0.000,0.000
16,2.2240,0.3901,0.0082,-0.0175,-0.0208,0.0012,-0.20,1.20,-25.94,0,0.010,0.281,0.170,0.004,0.020,-0.003,0.998,0.000,0.000,0.000
16,2.2242,0.3900,0.0083,-0.0155,-0.0201,0.0013,-0.36,1.19,-25.91,0,0.010,-0.232,0.098,-0.020,0.021,-0.002,1.003,0.000,0.000,0.000
16,2.2239,0.3899,0.0083,-0.0163,-0.0196,0.0014,-0.34,1.23,-25.89,0,0.010,-0.089,-0.162,0.270,0.021,-0.003,1.001,0.000,0.000,0.000
16,2.2261,0.3926,0.0084,-0.0033,-0.0037,0.0021,-0.34,1.23,-25.86,0,0.007,0.006,0.162,0.032,0.021,-0.001,0.999,0.000,0.000,0.000
16,2.2276,0.3957,0.0091,0.0050,0.0136,0.0054,-0.35,1.22,-25.84,0,0.007,0.080,-0.269,-0.169,0.020,0.000,1.000,0.000,0.000,0.000
17,2.2267,0.3957,0.0091,-0.0000,0.0130,0.0054,-0.28,1.21,-25.81,0,0.007,-0.129,0.061,-0.128,0.023,-0.001,1.000,0.000,0.000,0.000
17,2.2267,0.3958,0.0092,0.0000,0.0132,0.0055,-0.37,1.21,-25.78,0,0.007,-0.056,0.181,-0.048,0.022,-0.002,1.000,0.000,0.000,0.000
17,2.2269,0.3962,0.0092,0.0011,0.0149,0.0053,-0.34,1.21,-25.76,0,0.007,0.255,-0.115,0.087,0.022,-0.002,1.001,0.000,0.000,0.000
17,2.2264,0.3948,0.0084,-0.0013,0.0066,0.0011,-0.32,1.07,-25.74,0,0.008,0.057,0.145,0.022,0.022,-0.003,1.001,0.000,0.000,0.000
17,2.2273,0.3967,0.0084,0.0039,0.0168,0.0010,-0.46,1.26,-25.71,0,0.008,-0.252,-0.359,0.207,0.022,-0.004,1.001,0.000,0.000,0.000
17,2.2271,0.3961,0.0085,0.0024,0.0132,0.0011,-0.43,1.13,-25.68,0,0.008,-0.093,-0.213,0.000,0.022,-0.001,1.000,0.000,0.000,0.000
17,2.2296,0.3947,0.0085,0.0165,0.0050,0.0013,-0.45,1.14,-25.66,0,0.008,0.037,0.006,-0.064,0.021,-0.002,1.001,0.000,0.000,0.000
17,2.2273,0.3994,0.0085,0.0034,0.0314,0.0014,-0.46,1.17,-25.63,0,0.008,0.085,0.125,0.091,0.022,-0.002,1.000,0.000,0.000,0.000
17,2.2297,0.3978,0.0087,0.0170,0.0212,0.0022,-0.43,1.19,-25.60,0,0.010,0.229,0.176,-0.029,0.021,-0.003,1.001,0.000,0.000,0.000
17,2.2298,0.3985,0.0084,0.0169,0.0239,0.0007,-0.48,1.16,-25.58,0,0.010,-0.114,0.287,0.002,0.020,-0.004,0.998,0.000,0.000,0.000
17,2.2295,0.3993,0.0084,0.0148,0.0275,0.0008,-0.41,1.17,-25.55,0,0.010,-0.111,0.032,-0.128,0.022,-0.006,1.001,0.000,0.000,0.000
17,2.2290,0.3991,0.0084,0.0112,0.0252,0.0011,-0.41,1.17,-25.53,0,0.010,0.062,0.191,-0.156,0.023,-0.003,1.002,0.000,0.000,0.000
17,2.2300,0.4002,0.0084,0.0165,0.0306,0.0008,-0.41,1.17,-25.50,0,0.010,0.251,0.099,-0.047,0.022,-0.002,1.000,0.000,0.000,0.000
17,2.2293,0.3992,0.0091,0.0119,0.0239,0.0047,-0.41,1.16,-25.48,0,0.008,-0.122,-0.193,-0.231,0.022,-0.001,1.000,0.000,0.000,0.000
17,2.2294,0.3995,0.0092,0.0122,0.0242,0.0047,-0.39,1.15,-25.45,0,0.008,-0.052,0.196,0.188,0.020,-0.002,1.000,0.000,0.000,0.000
17,2.2295,0.3996,0.0092,0.0122,0.0242,0.0048,-0.34,1.12,-25.43,0,0.008,0.029,-0.196,-0.450,0.022,-0.003,0.998,0.000,0.000,0.000
17,2.2296,0.3999,0.0092,0.0123,0.0245,0.0047,-0.42,1.12,-25.40,0,0.008,-0.036,0.213,0.107,0.023,-0.002,0.999,0.000,0.000,0.000
17,2.2297,0.3996,0.0093,0.0123,0.0214,0.0050,-0.35,1.16,-25.38,0,0.008,-0.084,0.263,-0.062,0.021,-0.002,0.999,0.000,0.000,0.000
17,2.2300,0.3986,0.0094,0.0137,0.0152,0.0054,-0.37,1.15,-25.35,0,0.009,-0.132,-0.074,0.187,0.020,-0.000,1.002,0.000,0.000,0.000
18,2.2309,0.4004,0.0088,0.0182,0.0247,0.0018,-0.35,1.16,-25.33,0,0.009,-0.016,-0.139,-0.145,0.021,-0.003,1.001,0.000,0.000,0.000
18,2.2295,0.3996,0.0089,0.0099,0.0191,0.0022,-0.33,1.16,-25.30,0,0.009,-0.029,-0.038,0.037,0.021,-0.005,1.001,0.000,0.000,0.000
18,2.2299,0.4001,0.0089,0.0121,0.0211,0.0022,-0.46,1.15,-25.28,0,0.009,0.016,-0.157,-0.307,0.020,-0.002,1.000,0.000,0.000,0.000
18,2.2296,0.4000,0.0089,0.0101,0.0195,0.0021,-0.47,1.15,-25.25,0,0.009,-0.057,0.008,0.061,0.021,-0.003,0.998,0.000,0.000,0.000
18,2.2295,0.3998,0.0090,0.0093,0.0176,0.0022,-0.52,1.15,-25.23,0,0.008,0.033,-0.418,-0.037,0.020,-0.003,0.998,0.000,0.000,0.000
18,2.2311,0.4026,0.0089,0.0178,0.0326,0.0017,-0.61,1.17,-25.20,0,0.008,0.107,-0.050,-0.053,0.021,-0.003,0.999,0.000,0.000,0.000
18,2.2314,0.4032,0.0090,0.0186,0.0346,0.0018,-0.70,1.13,-25.17,0,0.008,0.160,-0.173,-0.255,0.022,-0.003,0.998,0.000,0.000,0.000
18,2.2320,0.4045,0.0089,0.0213,0.0404,0.0015,-0.64,1.14,-25.15,0,0.008,0.087,0.060,-0.089,0.022,-0.002,0.999,0.000,0.000,0.000
18,2.2327,0.4070,0.0088,0.0242,0.0522,0.0006,-0.68,1.16,-25.13,0,0.008,0.032,0.040,-0.304,0.022,-0.003,1.000,0.000,0.000,0.000
18,2.2345,0.4090,0.0086,0.0334,0.0606,-0.0007,-0.68,1.16,-25.10,0,0.010,-0.291,0.298,0.168,0.020,-0.003,1.001,0.000,0.000,0.000
18,2.2343,0.4084,0.0084,0.0304,0.0548,-0.0015,-0.62,1.12,-25.08,0,0.010,-0.093,-0.039,0.108,0.022,-0.001,1.000,0.000,0.000,0.000
18,2.2344,0.4101,0.0083,0.0298,0.0622,-0.0022,-0.57,1.14,-25.05,0,0.010,0.006,-0.104,0.065,0.021,-0.000,1.000,0.000,0.000,0.000
18,2.2347,0.4108,0.0083,0.0302,0.0630,-0.0023,-0.75,1.08,-25.03,0,0.010,-0.105,0.156,0.017,0.021,-0.002,1.000,0.000,0.000,0.000
18,2.2352,0.4097,0.0084,0.0318,0.0549,-0.0014,-0.67,1.12,-25.00,0,0.010,0.124,-0.224,0.328,0.022,-0.004,1.000,0.000,0.000,0.000
18,2.2346,0.4095,0.0091,0.0273,0.0513,0.0024,-0.71,1.12,-24.98,0,0.008,-0.149,-0.121,0.058,0.020,-0.002,0.999,0.000,0.000,0.000
18,2.2379,0.4130,0.0089,0.0441,0.0679,0.0008,0.00,0.00,0.00,0,0.008,0.048,0.024,-0.055,0.021,-0.000,1.003,0.000,0.000,0.000
18,2.2367,0.4125,0.0091,0.0357,0.0625,0.0021,0.00,-0.00,-0.00,0,0.008,0.056,0.150,0.137,0.021,-0.003,1.002,0.000,0.000,0.000
18,2.2374,0.4141,0.0091,0.0382,0.0682,0.0016,0.00,0.03,-0.00,0,0.008,-0.071,-0.066,-0.121,0.022,-0.003,0.999,0.000,0.000,0.000
18,0.0000,0.0000,0.0000,0.0000,0.0445,0.0000,0.07,0.01,-0.00,0,0.008,-0.179,0.096,0.327,0.024,-0.002,1.000,0.000,0.000,0.000
18,0.0000,0.0004,0.4398,0.0022,0.0441,-0.0000,0.04,-0.01,-0.00,0,0.010,0.176,-0.066,0.040,0.022,-0.002,0.999,0.000,0.000,0.000
19,-0.0000,0.0007,0.0082,0.0015,0.0382,-0.0001,0.20,0.01,-0.00,0,0.010,-0.319,0.001,0.048,0.021,-0.002,1.001,0.000,0.000,0.000
19,0.0000,0.0010,0.0083,0.0043,0.0338,-0.0001,0.14,0.02,-0.00,0,0.010,0.046,0.061,0.132,0.021,-0.003,1.003,0.000,0.000,0.000
19,0.0001,0.0014,0.0083,0.0072,0.0352,0.0001,-0.07,0.01,-0.00,0,0.010,0.075,0.148,-0.047,0.020,-0.003,1.000,0.000,0.000,0.000
19,0.0002,0.0015,0.0084,0.0087,0.0280,0.0005,0.24,0.04,-0.00,0,0.010,-0.156,0.131,-0.263,0.020,-0.002,0.999,0.000,0.000,0.000
19,0.0002,0.0018,0.0092,0.0103,0.0296,0.0011,0.55,0.12,-0.00,0,0.010,-0.048,-0.178,-0.129,0.022,-0.002,1.000,0.000,0.000,0.000
19,0.0004,0.0025,0.0092,0.0130,0.0367,0.0008,0.40,0.15,-0.00,0,0.010,0.193,0.236,0.013,0.024,-0.002,0.998,0.000,0.000,0.000
19,0.0005,0.0023,0.0093,0.0141,0.0257,0.0011,0.78,-0.00,-0.00,0,0.010,-0.376,-0.122,0.023,0.024,-0.003,0.999,0.000,0.000,0.000
19,0.0005,0.0019,0.0093,0.0136,0.0146,0.0014,0.34,0.15,-0.00,0,0.010,0.066,-0.029,-0.067,0.022,-0.002,1.000,0.000,0.000,0.000
19,0.0005,0.0024,0.0093,0.0142,0.0186,0.0016,0.38,0.30,-0.00,0,0.010,-0.021,-0.074,-0.142,0.021,-0.001,1.001,0.000,0.000,0.000
19,0.0010,0.0017,0.0094,0.0211,0.0051,0.0016,0.41,0.14,-0.01,0,0.009,-0.087,-0.300,0.016,0.022,-0.002,0.999,0.000,0.000,0.000
19,0.0009,0.0028,0.0097,0.0179,0.0182,0.0024,0.70,0.41,-0.01,0,0.009,0.049,-0.118,0.195,0.022,-0.003,0.999,0.000,0.000,0.000
19,0.0007,0.0029,0.0097,0.0147,0.0161,0.0025,0.45,0.40,-0.01,0,0.009,-0.235,0.051,-0.166,0.023,-0.003,0.998,0.000,0.000,0.000
19,0.0013,0.0029,0.0097,0.0223,0.0139,0.0022,-2.47,0.44,0.01,0,0.009,0.038,0.164,0.109,0.022,-0.001,1.001,0.000,0.000,0.000
19,0.0008,0.0022,0.0098,0.0150,0.0027,0.0025,-2.18,0.53,0.01,0,0.009,-0.009,-0.394,-0.176,0.021,-0.001,1.002,0.000,0.000,0.000
19,0.0010,0.0030,0.0095,0.0169,0.0103,0.0011,-1.76,0.52,0.00,0,0.009,-0.275,-0.138,0.395,0.021,-0.002,1.000,0.000,0.000,0.000
19,0.0010,0.0123,0.0095,0.0167,0.1173,-0.0051,-1.57,0.56,0.00,0,0.009,-0.009,0.075,0.043,0.022,-0.002,0.999,0.000,0.000,0.000
19,0.0009,0.0125,0.0097,0.0146,0.1103,-0.0029,-2.95,0.51,0.01,0,0.009,0.040,0.016,-0.275,0.020,-0.002,1.000,0.000,0.000,0.000
19,0.0011,0.0122,0.0099,0.0163,0.0975,-0.0001,-2.19,0.41,0.01,0,0.009,-0.053,0.127,-0.060,0.021,-0.005,1.000,0.000,0.000,0.000
19,0.0011,0.0125,0.0101,0.0160,0.0929,0.0010,-2.13,0.92,0.01,0,0.009,-0.005,0.021,0.096,0.023,-0.002,1.000,0.000,0.000,0.000
19,0.0015,0.0188,0.0091,0.0195,0.1520,-0.0092,-2.25,0.84,0.01,0,0.008,-0.148,0.097,-0.084,0.020,-0.000,0.999,0.000,0.000,0.000
20,0.0020,0.0172,0.0096,0.0246,0.1251,-0.0028,-2.26,0.82,0.01,0,0.008,-0.268,0.273,-0.045,0.020,-0.002,1.000,0.000,0.000,0.000
20,0.0001,0.0183,0.0097,0.0040,0.1263,-0.0020,-1.80,0.75,-0.00,0,0.008,-0.078,-0.092,0.120,0.020,-0.002,1.001,0.000,0.000,0.000
20,0.0005,0.0201,0.0096,0.0080,0.1350,-0.0031,-1.92,0.74,0.00,0,0.008,0.092,-0.009,-0.094,0.020,-0.002,1.000,0.000,0.000,0.000
20,0.0007,0.0215,0.0096,0.0097,0.1391,-0.0032,-1.52,0.80,-0.00,0,0.008,0.099,-0.068,-0.012,0.021,-0.002,1.001,0.000,0.000,0.000
20,0.0011,0.0206,0.0092,0.0133,0.1215,-0.0039,-1.42,0.83,-0.01,0,0.010,-0.174,0.030,0.125,0.023,-0.003,1.001,0.000,0.000,0.000
20,0.0013,0.0225,0.0091,0.0148,0.1301,-0.0047,-1.26,0.92,-0.01,0,0.010,-0.181,0.151,0.113,0.022,-0.001,0.999,0.000,0.000,0.000
20,0.0011,0.0216,0.0094,0.0123,0.1138,-0.0021,-0.76,0.75,-0.01,0,0.010,-0.091,0.002,-0.048,0.020,-0.003,1.000,0.000,0.000,0.000
20,0.0011,0.0222,0.0094,0.0117,0.1114,-0.0015,-0.62,0.82,-0.02,0,0.010,-0.034,-0.103,0.003,0.019,-0.005,1.001,0.000,0.000,0.000
20,0.0007,0.0224,0.0095,0.0074,0.1055,-0.0005,-0.80,0.91,-0.02,0,0.010,0.061,-0.259,0.017,0.020,-0.005,0.998,0.000,0.000,0.000
20,0.0017,0.0204,0.0099,0.0163,0.0817,0.0022,-0.50,0.92,-0.02,0,0.008,0.109,0.203,-0.300,0.022,-0.003,1.001,0.000,0.000,0.000
20,0.0015,0.0203,0.0100,0.0138,0.0755,0.0029,-0.43,0.93,-0.02,0,0.008,-0.116,-0.026,0.094,0.023,-0.003,1.002,0.000,0.000,0.000
20,0.0011,0.0223,0.0100,0.0098,0.0858,0.0027,-0.44,0.95,-0.02,0,0.008,-0.066,0.142,-0.115,0.021,-0.002,1.001,0.000,0.000,0.000
20,0.0010,0.0211,0.0101,0.0095,0.0707,0.0034,-0.09,0.93,-0.03,0,0.008,0.080,0.303,0.299,0.022,-0.003,1.001,0.000,0.000,0.000
20,0.0010,0.0212,0.0101,0.0091,0.0670,0.0036,-0.05,0.97,-0.03,0,0.008,-0.161,-0.260,0.001,0.022,-0.006,1.000,0.000,0.000,0.000
20,0.0010,0.0220,0.0093,0.0086,0.0680,-0.0014,0.04,0.98,-0.03,0,0.009,0.305,0.004,-0.362,0.022,-0.005,0.999,0.000,0.000,0.000
20,0.0012,0.0199,0.0093,0.0100,0.0474,-0.0010,0.09,1.04,-0.04,0,0.009,-0.022,0.149,-0.111,0.021,-0.000,0.999,0.000,0.000,0.000
20,0.0010,0.0200,0.0093,0.0080,0.0450,-0.0008,0.16,0.97,-0.04,0,0.009,0.017,0.044,-0.033,0.020,-0.003,1.001,0.000,0.000,0.000
20,0.0010,0.0198,0.0093,0.0079,0.0396,-0.0007,-0.21,0.93,-0.03,0,0.009,-0.361,0.163,0.201,0.019,-0.004,0.999,0.000,0.000,0.000
20,0.0005,0.0197,0.0093,0.0043,0.0362,-0.0006,0.21,1.06,-0.04,0,0.009,0.135,0.090,-0.054,0.020,-0.003,1.001,0.000,0.000,0.000
21,0.0012,0.0195,0.0093,0.0093,0.0312,-0.0006,0.12,1.01,-0.04,0,0.008,0.139,0.104,0.144,0.022,-0.001,1.001,0.000,0.000,0.000
21,0.0016,0.0231,0.0092,0.0123,0.0541,-0.0011,0.07,1.00,-0.04,0,0.008,0.154,0.018,-0.171,0.021,-0.004,1.000,0.000,0.000,0.000
21,0.0005,0.0197,0.0093,0.0039,0.0262,-0.0005,0.26,1.03,-0.04,0,0.008,-0.069,0.190,-0.096,0.021,-0.001,0.997,0.000,0.000,0.000
21,0.0010,0.0208,0.0093,0.0070,0.0318,-0.0004,0.33,0.97,-0.04,0,0.008,-0.070,0.131,-0.257,0.022,-0.002,0.998,0.000,0.000,0.000
21,0.0012,0.0217,0.0093,0.0083,0.0352,-0.0003,0.32,1.04,-0.04,0,0.008,0.101,-0.037,0.133,0.022,-0.001,1.000,0.000,0.000,0.000
21,0.0009,0.0200,0.0088,0.0063,0.0209,-0.0030,0.21,0.98,-0.04,0,0.010,0.097,0.084,0.036,0.021,-0.003,0.999,0.000,0.000,0.000
21,0.0016,0.0195,0.0087,0.0107,0.0156,-0.0030,0.23,1.09,-0.04,0,0.010,-0.035,0.041,-0.035,0.020,-0.001,0.999,0.000,0.000,0.000
31,0.0009,0.0197,0.0087,0.0057,0.0154,-0.0029,0.09,1.01,-0.03,0,0.010,0.061,0.107,-0.025,0.023,-0.002,0.998,0.000,0.000,0.000
41,0.0016,0.0211,0.0087,0.0102,0.0226,-0.0028,0.08,1.02,-0.04,0,0.010,0.070,0.081,0.220,0.023,-0.003,1.000,0.000,0.000,0.000
50,0.0004,0.0211,0.0087,0.0023,0.0205,-0.0030,0.38,1.10,-0.04,0,0.010,-0.164,-0.103,-0.014,0.023,-0.002,1.000,0.000,0.000,0.000
61,0.0014,0.0229,0.0087,0.0084,0.0304,-0.0031,0.38,1.08,-0.04,0,0.010,-0.257,-0.224,-0.092,0.019,-0.003,1.000,0.000,0.000,0.000
71,0.0013,0.0234,0.0092,0.0081,0.0310,-0.0000,0.38,1.08,-0.05,0,0.010,-0.109,-0.278,0.375,0.020,-0.003,1.001,0.000,0.000,0.000
80,0.0004,0.0201,0.0093,0.0020,0.0079,0.0004,0.38,1.07,-0.04,0,0.010,0.134,0.022,0.170,0.021,-0.003,1.000,0.000,0.000,0.000
91,0.0006,0.0201,0.0093,0.0035,0.0066,0.0003,0.35,1.09,-0.04,0,0.010,0.296,-0.186,-0.177,0.023,-0.002,1.001,0.000,0.000,0.000
100,0.0007,0.0201,0.0093,0.0038,0.0057,0.0002,0.35,1.09,-0.04,0,0.010,0.191,-0.198,-0.229,0.022,-0.002,1.000,0.000,0.000,0.000
111,0.0009,0.0201,0.0096,0.0054,0.0045,0.0017,0.30,1.09,-0.04,0,0.008,-0.010,0.182,-0.331,0.022,-0.002,1.001,0.000,0.000,0.000
120,0.0006,0.0206,0.0096,0.0039,0.0063,0.0018,0.40,1.13,-0.05,0,0.008,-0.025,0.095,-0.315,0.022,-0.001,1.002,0.000,0.000,0.000
131,0.0007,0.0207,0.0096,0.0039,0.0053,0.0018,0.47,0.74,-0.06,0,0.008,0.153,0.182,0.205,0.021,-0.002,1.000,0.000,0.000,0.000
141,0.0007,0.0215,0.0096,0.0037,0.0088,0.0020,0.81,0.77,-0.07,0,0.008,-0.030,-0.304,-0.099,0.020,-0.001,1.000,0.000,0.000,0.000
150,0.0001,0.0201,0.0097,0.0005,-0.0003,0.0020,0.86,0.74,-0.07,0,0.008,-0.024,0.077,0.193,0.021,-0.001,1.000,0.000,0.000,0.000
160,0.0058,0.0191,0.0097,0.0347,-0.0073,0.0020,1.27,0.77,-0.09,0,0.009,-0.148,-0.180,0.082,0.024,-0.001,1.000,0.000,0.000,0.000
171,0.0058,0.0140,0.0089,0.0330,-0.0380,-0.0023,1.13,0.83,-0.08,0,0.009,-0.064,0.260,0.183,0.022,-0.002,1.003,0.000,0.000,0.000
180,0.0065,0.0128,0.0088,0.0359,-0.0441,-0.0025,1.12,0.88,-0.08,0,0.009,-0.079,-0.185,-0.170,0.020,-0.005,1.002,0.000,0.000,0.000
191,0.0064,0.0060,0.0083,0.0341,-0.0823,-0.0056,1.01,0.90,-0.07,0,0.009,0.108,0.123,-0.182,0.019,-0.004,1.002,0.000,0.000,0.000
200,0.0058,0.0072,0.0086,0.0294,-0.0727,-0.0034,1.01,0.90,-0.07,0,0.009,-0.092,-0.109,-0.114,0.021,-0.002,1.000,0.000,0.000,0.000
211,0.0052,0.0066,0.0088,0.0249,-0.0741,-0.0022,1.04,0.86,-0.08,0,0.009,-0.102,-0.020,-0.312,0.023,-0.001,1.000,0.000,0.000,0.000
221,0.0052,0.0075,0.0089,0.0238,-0.0663,-0.0011,0.94,0.89,-0.07,0,0.009,-0.082,0.060,0.040,0.021,-0.003,1.000,0.000,0.000,0.000
231,0.0054,0.0068,0.0089,0.0245,-0.0682,-0.0010,0.90,0.85,-0.07,0,0.009,-0.274,-0.099,0.157,0.020,-0.004,1.000,0.000,0.000,0.000
241,0.0064,0.0057,0.0088,0.0293,-0.0727,-0.0012,0.97,0.93,-0.07,0,0.009,-0.039,0.041,0.019,0.021,-0.003,1.000,0.000,0.000,0.000
250,0.0061,0.0067,0.0090,0.0262,-0.0653,0.0003,0.85,0.98,-0.07,0,0.009,-0.036,0.079,-0.166,0.022,-0.001,0.999,0.000,0.000,0.000
260,0.0070,0.0066,0.0091,0.0305,-0.0640,0.0007,0.79,0.96,-0.07,0,0.010,0.074,0.329,0.248,0.021,-0.001,0.999,0.000,0.000,0.000
271,0.0059,0.0047,0.0090,0.0233,-0.0726,0.0003,0.72,0.91,-0.07,0,0.010,0.203,-0.117,-0.203,0.021,-0.002,0.999,0.000,0.000,0.000
280,0.0053,0.0062,0.0092,0.0195,-0.0624,0.0015,0.64,0.96,-0.06,0,0.010,-0.011,-0.099,0.160,0.020,-0.003,1.000,0.000,0.000,0.000
291,0.0058,0.0066,0.0093,0.0212,-0.0586,0.0020,0.61,0.90,-0.07,0,0.010,0.308,0.353,-0.101,0.020,-0.002,0.999,0.000,0.000,0.000
300,0.0070,0.0072,0.0094,0.0270,-0.0537,0.0024,0.61,1.02,-0.06,0,0.010,-0.342,-0.118,0.180,0.020,0.001,0.999,0.000,0.000,0.000
310,0.0062,0.0080,0.0097,0.0217,-0.0475,0.0043,0.55,1.03,-0.05,0,0.012,-0.281,0.085,0.283,0.020,-0.001,1.001,0.000,0.000,0.000
320,0.0076,0.0081,0.0098,0.0287,-0.0456,0.0042,0.55,1.03,-0.05,0,0.012,0.121,0.042,-0.265,0.023,-0.004,1.001,0.000,0.000,0.000
330,0.0056,0.0077,0.0099,0.0167,-0.0464,0.0046,0.85,1.03,-0.06,0,0.012,0.056,0.117,0.153,0.022,-0.003,0.999,0.000,0.000,0.000
340,0.0056,0.0083,0.0100,0.0160,-0.0421,0.0048,1.00,1.04,-0.07,0,0.012,-0.058,0.076,0.013,0.020,-0.003,1.000,0.000,0.000,0.000
350,0.0057,0.0079,0.0100,0.0161,-0.0433,0.0048,0.81,1.08,-0.06,0,0.012,-0.018,-0.168,-0.102,0.022,-0.002,1.001,0.000,0.000,0.000
360,0.0059,0.0015,0.0098,0.0167,-0.0756,0.0027,0.50,1.09,-0.05,0,0.008,0.163,0.190,-0.133,0.023,-0.004,0.999,0.000,0.000,0.000
370,0.0059,-0.0022,0.0106,0.0157,-0.0926,0.0062,0.42,1.09,-0.05,0,0.008,-0.322,-0.343,0.173,0.022,-0.002,0.997,0.000,0.000,0.000
380,0.0051,0.0006,0.0110,0.0109,-0.0750,0.0089,0.51,1.05,-0.05,0,0.008,-0.207,0.101,0.063,0.019,-0.002,1.001,0.000,0.000,0.000
391,0.0051,0.0060,0.0116,0.0106,-0.0445,0.0123,0.39,1.06,-0.05,0,0.008,-0.070,-0.248,-0.055,0.019,-0.002,1.001,0.000,0.000,0.000
401,0.0050,0.0073,0.0118,0.0101,-0.0363,0.0126,0.44,1.11,-0.05,0,0.008,0.240,-0.159,-0.228,0.019,-0.005,1.001,0.000,0.000,0.000
410,0.0060,0.0050,0.0103,0.0148,-0.0474,0.0037,0.39,1.12,-0.04,0,0.008,-0.020,-0.089,0.489,0.022,-0.004,0.999,0.000,0.000,0.000
420,0.0060,0.0071,0.0104,0.0143,-0.0352,0.0044,0.30,1.11,-0.04,0,0.008,-0.072,0.217,-0.122,0.022,-0.004,0.998,0.000,0.000,0.000
430,0.0050,0.0057,0.0104,0.0087,-0.0416,0.0041,0.44,1.11,-0.05,0,0.008,0.103,0.007,0.163,0.020,-0.002,0.999,0.000,0.000,0.000
440,0.0049,0.0063,0.0105,0.0082,-0.0375,0.0042,0.50,1.07,-0.05,0,0.008,-0.004,-0.060,0.115,0.021,-0.002,0.998,0.000,0.000,0.000
450,0.0052,0.0078,0.0106,0.0089,-0.0284,0.0047,0.70,1.08,-0.06,0,0.008,-0.406,-0.039,0.045,0.022,-0.002,0.999,0.000,0.000,0.000
460,0.0052,0.0045,0.0106,0.0083,-0.0450,0.0044,0.70,1.08,-0.06,0,0.006,0.312,0.086,-0.018,0.022,-0.001,1.000,0.000,0.000,0.000
470,0.0061,0.0030,0.0095,0.0128,-0.0518,-0.0015,0.55,1.07,-0.05,0,0.006,-0.119,0.093,0.203,0.022,-0.001,1.000,0.000,0.000,0.000
481,0.0061,-0.0019,0.0092,0.0124,-0.0756,-0.0033,0.69,1.14,-0.05,0,0.006,0.005,0.084,0.127,0.021,-0.000,0.999,0.000,0.000,0.000
491,0.0062,-0.0027,0.0092,0.0127,-0.0771,-0.0035,0.94,1.14,-0.06,0,0.006,-0.011,0.151,-0.144,0.023,-0.002,0.999,0.000,0.000,0.000
501,0.0064,-0.0003,0.0095,0.0133,-0.0621,-0.0015,0.84,1.14,-0.06,0,0.006,0.198,0.020,-0.046,0.022,-0.002,1.000,0.000,0.000,0.000
510,0.0051,-0.0038,0.0079,0.0064,-0.0780,-0.0102,0.88,1.15,-0.06,0,0.008,0.108,-0.042,-0.008,0.022,-0.003,1.000,0.000,0.000,0.000
521,0.0051,-0.0100,0.0074,0.0062,-0.1072,-0.0134,0.83,1.17,-0.06,0,0.008,0.092,-0.081,-0.190,0.022,-0.002,1.001,0.000,0.000,0.000
530,0.0051,-0.0091,0.0075,0.0061,-0.0988,-0.0117,0.79,1.10,-0.06,0,0.008,0.084,0.110,0.236,0.022,-0.003,1.001,0.000,0.000,0.000
540,0.0049,-0.0108,0.0073,0.0047,-0.1042,-0.0123,0.73,1.10,-0.06,0,0.008,-0.089,0.294,-0.112,0.020,-0.002,1.000,0.000,0.000,0.000
551,0.0044,-0.0107,0.0074,0.0020,-0.0996,-0.0113,0.62,1.19,-0.05,0,0.008,0.287,-0.104,-0.151,0.021,-0.002,1.001,0.000,0.000,0.000
560,0.0061,-0.0110,0.0074,0.0107,-0.0977,-0.0106,0.56,1.15,-0.05,0,0.008,0.077,0.140,-0.065,0.022,-0.003,0.999,0.000,0.000,0.000
571,0.0061,-0.0106,0.0077,0.0104,-0.0925,-0.0083,0.54,1.15,-0.05,0,0.008,-0.109,-0.150,0.232,0.022,-0.003,1.000,0.000,0.000,0.000
581,0.0041,-0.0091,0.0078,0.0003,-0.0811,-0.0066,0.47,1.17,-0.05,0,0.008,0.224,0.053,0.106,0.021,-0.004,0.999,0.000,0.000,0.000
590,0.0048,-0.0085,0.0079,0.0039,-0.0753,-0.0057,0.43,1.14,-0.05,0,0.008,0.088,-0.171,-0.180,0.021,-0.003,1.000,0.000,0.000,0.000
601,0.0048,-0.0089,0.0078,0.0039,-0.0744,-0.0054,0.39,1.15,-0.04,0,0.008,0.059,-0.064,0.093,0.021,-0.003,1.000,0.000,0.000,0.000
610,0.0046,-0.0081,0.0080,0.0024,-0.0677,-0.0042,0.39,1.16,-0.04,0,0.006,0.160,0.240,0.134,0.021,-0.002,0.999,0.000,0.000,0.000
620,0.0051,-0.0080,0.0079,0.0048,-0.0647,-0.0039,0.36,1.19,-0.04,0,0.006,0.241,-0.085,-0.173,0.021,-0.002,0.998,0.000,0.000,0.000
630,0.0051,-0.0077,0.0080,0.0048,-0.0608,-0.0036,0.35,1.11,-0.04,0,0.006,-0.059,-0.106,0.137,0.021,-0.002,0.999,0.000,0.000,0.000
639,0.0048,-0.0083,0.0079,0.0034,-0.0617,-0.0036,0.27,1.14,-0.04,0,0.006,0.039,0.030,0.220,0.020,-0.002,0.999,0.000,0.000,0.000
650,0.0041,-0.0083,0.0079,-0.0002,-0.0592,-0.0033,0.25,1.16,-0.04,0,0.006,0.052,0.243,0.111,0.020,-0.002,1.000,0.000,0.000,0.000
660,0.0060,-0.0087,0.0079,0.0094,-0.0591,-0.0031,0.25,1.16,-0.04,0,0.007,0.002,0.028,0.125,0.019,-0.002,1.002,0.000,0.000,0.000
670,0.0053,-0.0074,0.0071,0.0055,-0.0501,-0.0068,0.23,1.15,-0.03,0,0.007,-0.129,-0.129,0.132,0.019,-0.002,1.001,0.000,0.000,0.000
680,0.0048,-0.0074,0.0071,0.0029,-0.0479,-0.0068,0.25,1.18,-0.03,0,0.007,0.196,-0.047,-0.209,0.020,-0.004,0.999,0.000,0.000,0.000
690,0.0049,-0.0079,0.0070,0.0030,-0.0486,-0.0069,0.02,1.15,-0.03,0,0.007,-0.038,0.001,-0.103,0.021,-0.002,1.000,0.000,0.000,0.000
699,0.0051,-0.0078,0.0069,0.0040,-0.0462,-0.0068,0.05,1.16,-0.03,0,0.007,0.094,0.212,0.049,0.020,-0.001,0.998,0.000,0.000,0.000
709,0.0044,-0.0089,0.0069,0.0000,-0.0502,-0.0067,0.14,1.16,-0.03,0,0.009,0.059,0.100,0.291,0.021,-0.002,0.998,0.000,0.000,0.000
720,0.0051,-0.0039,0.0070,0.0036,-0.0223,-0.0051,0.09,1.16,-0.03,0,0.009,-0.174,-0.069,0.064,0.021,-0.003,0.998,0.000,0.000,0.000
730,0.0049,-0.0048,0.0070,0.0021,-0.0261,-0.0050,0.18,1.19,-0.03,0,0.009,-0.010,-0.000,-0.047,0.023,-0.002,0.999,0.000,0.000,0.000
740,0.0049,-0.0070,0.0069,0.0020,-0.0367,-0.0052,0.24,1.15,-0.04,0,0.009,-0.112,0.009,0.172,0.023,-0.001,1.003,0.000,0.000,0.000
750,0.0048,-0.0063,0.0069,0.0019,-0.0315,-0.0049,0.02,1.20,-0.02,0,0.009,-0.003,-0.026,-0.080,0.021,-0.001,1.000,0.000,0.000,0.000
759,0.0042,-0.0088,0.0068,-0.0018,-0.0428,-0.0055,-0.03,1.19,-0.02,0,0.007,-0.002,-0.003,0.088,0.023,-0.003,0.999,0.000,0.000,0.000
769,0.0051,-0.0109,0.0077,0.0030,-0.0518,-0.0011,-0.00,1.16,-0.02,0,0.007,-0.272,-0.138,0.094,0.023,-0.003,0.998,0.000,0.000,0.000
780,0.0039,-0.0060,0.0079,-0.0029,-0.0251,0.0006,-0.05,1.17,-0.02,0,0.007,0.102,0.115,0.060,0.020,-0.003,0.998,0.000,0.000,0.000
790,0.0039,-0.0051,0.0079,-0.0026,-0.0193,0.0006,-0.02,1.18,-0.02,0,0.007,0.130,-0.013,-0.249,0.021,-0.003,1.000,0.000,0.000,0.000
799,0.0046,-0.0060,0.0080,0.0013,-0.0229,0.0008,-0.02,1.20,-0.03,0,0.007,-0.117,0.228,0.057,0.021,-0.002,1.001,0.000,0.000,0.000
810,0.0044,-0.0050,0.0076,0.0001,-0.0170,-0.0011,-0.07,1.20,-0.02,0,0.007,-0.112,0.196,0.067,0.019,-0.004,0.999,0.000,0.000,0.000
820,0.0042,-0.0059,0.0076,-0.0009,-0.0208,-0.0012,-0.07,1.17,-0.02,0,0.007,-0.157,-0.112,0.017,0.022,-0.005,1.001,0.000,0.000,0.000
830,0.0037,-0.0061,0.0075,-0.0030,-0.0210,-0.0014,-0.10,1.17,-0.02,0,0.007,0.136,-0.177,-0.046,0.022,-0.001,1.000,0.000,0.000,0.000
839,0.0037,-0.0050,0.0075,-0.0028,-0.0145,-0.0013,-0.02,1.18,-0.03,0,0.007,0.089,0.342,-0.016,0.020,0.001,0.997,0.000,0.000,0.000
850,0.0042,-0.0052,0.0075,-0.0004,-0.0150,-0.0014,0.13,1.20,-0.03,0,0.007,-0.040,-0.155,-0.003,0.019,-0.001,1.000,0.000,0.000,0.000
860,0.0042,-0.0048,0.0075,-0.0003,-0.0120,-0.0013,0.06,1.28,-0.03,0,0.008,0.224,-0.227,-0.083,0.020,-0.003,1.001,0.000,0.000,0.000
870,0.0039,-0.0068,0.0073,-0.0014,-0.0218,-0.0026,0.03,1.27,-0.03,0,0.008,-0.347,0.012,0.059,0.020,-0.002,1.001,0.000,0.000,0.000
880,0.0035,-0.0105,0.0072,-0.0036,-0.0405,-0.0032,0.04,1.27,-0.03,0,0.008,0.265,0.017,-0.086,0.021,-0.001,1.001,0.000,0.000,0.000
891,0.0015,-0.0094,0.0072,-0.0137,-0.0330,-0.0027,0.02,1.23,-0.03,0,0.008,-0.129,-0.217,0.048,0.021,-0.003,1.001,0.000,0.000,0.000
900,0.0015,-0.0089,0.0072,-0.0130,-0.0290,-0.0026,0.01,1.24,-0.03,0,0.008,-0.016,0.380,0.024,0.021,-0.004,1.001,0.000,0.000,0.000
910,0.0015,-0.0096,0.0075,-0.0126,-0.0309,-0.0010,0.02,1.27,-0.03,0,0.007,0.005,0.193,0.085,0.022,-0.003,1.002,0.000,0.000,0.000
920,0.0022,-0.0093,0.0076,-0.0087,-0.0284,-0.0008,0.01,1.24,-0.03,0,0.007,-0.159,-0.244,-0.279,0.019,-0.003,1.001,0.000,0.000,0.000
930,0.0020,-0.0093,0.0076,-0.0096,-0.0270,-0.0006,-0.19,1.21,-0.02,0,0.007,0.098,-0.037,-0.082,0.023,-0.002,1.001,0.000,0.000,0.000
940,0.0011,-0.0100,0.0075,-0.0137,-0.0291,-0.0006,-0.39,1.23,-0.01,0,0.007,0.060,-0.226,-0.025,0.022,-0.002,1.000,0.000,0.000,0.000
950,0.0015,-0.0099,0.0075,-0.0108,-0.0277,-0.0003,-0.24,1.23,-0.02,0,0.007,-0.094,0.312,0.069,0.021,-0.003,0.999,0.000,0.000,0.000
960,0.0022,-0.0056,0.0077,-0.0069,-0.0039,0.0009,-0.34,1.27,-0.02,0,0.009,0.155,-0.098,-0.129,0.020,-0.004,1.001,0.000,0.000,0.000
971,0.0016,-0.0010,0.0074,-0.0098,0.0202,-0.0007,-0.32,1.24,-0.02,0,0.009,-0.475,-0.232,0.216,0.021,-0.003,1.002,0.000,0.000,0.000
980,0.0016,-0.0043,0.0075,-0.0094,0.0024,0.0003,-0.34,1.23,-0.01,0,0.009,-0.014,0.013,0.374,0.023,-0.003,1.000,0.000,0.000,0.000
991,0.0005,-0.0019,0.0075,-0.0146,0.0148,0.0001,-0.61,1.19,0.00,0,0.009,0.050,0.121,0.115,0.020,-0.005,1.001,0.000,0.000,0.000
1000,0.0009,-0.0021,0.0075,-0.0114,0.0132,0.0004,-0.56,1.21,-0.00,0,0.009,0.006,0.394,0.087,0.020,-0.002,1.000,0.000,0.000,0.000
1009,0.0009,-0.0015,0.0081,-0.0109,0.0162,0.0036,-0.43,1.20,-0.01,0,0.009,-0.095,-0.082,0.020,0.022,-0.002,0.999,0.000,0.000,0.000
1020,0.0018,0.0045,0.0080,-0.0058,0.0479,0.0027,-0.56,1.19,-0.00,0,0.009,0.204,0.026,-0.100,0.022,-0.002,0.999,0.000,0.000,0.000
1029,0.0011,0.0039,0.0081,-0.0089,0.0426,0.0033,-0.57,1.18,-0.00,0,0.009,-0.014,-0.045,-0.109,0.021,-0.004,1.001,0.000,0.000,0.000
1040,0.0011,0.0015,0.0084,-0.0083,0.0282,0.0048,-0.57,1.15,-0.00,0,0.009,-0.105,-0.161,0.152,0.020,-0.004,1.000,0.000,0.000,0.000
1049,0.0013,0.0049,0.0082,-0.0066,0.0451,0.0040,-0.57,1.16,-0.00,0,0.009,-0.235,0.004,0.035,0.019,-0.003,1.000,0.000,0.000,0.000
1060,0.0016,0.0055,0.0083,-0.0052,0.0467,0.0041,-0.49,1.16,-0.01,0,0.008,-0.143,-0.055,0.485,0.020,-0.002,0.998,0.000,0.000,0.000
1070,0.0020,0.0060,0.0086,-0.0026,0.0472,0.0057,-0.46,1.16,-0.00,0,0.008,0.151,-0.077,-0.182,0.019,-0.004,0.999,0.000,0.000,0.000
1079,0.0018,0.0066,0.0087,-0.0034,0.0488,0.0056,-0.44,1.17,-0.01,0,0.008,0.009,-0.092,0.036,0.021,-0.003,0.999,0.000,0.000,0.000
1090,0.0018,0.0051,0.0089,-0.0033,0.0385,0.0065,-0.40,1.15,-0.01,0,0.008,0.154,0.093,0.071,0.022,-0.002,0.999,0.000,0.000,0.000
1101,0.0018,0.0049,0.0090,-0.0031,0.0356,0.0068,-0.40,1.16,-0.01,0,0.008,0.071,0.003,-0.075,0.022,-0.002,0.999,0.000,0.000,0.000
1109,0.0016,0.0049,0.0086,-0.0041,0.0339,0.0047,-0.47,1.17,-0.00,0,0.009,-0.068,-0.026,0.051,0.021,-0.004,0.999,0.000,0.000,0.000
1120,0.0018,0.0042,0.0087,-0.0028,0.0290,0.0048,-0.43,1.16,-0.01,0,0.009,-0.008,0.079,0.228,0.022,-0.002,0.999,0.000,0.000,0.000
1130,0.0016,0.0046,0.0088,-0.0039,0.0301,0.0046,-0.49,1.13,-0.00,0,0.009,0.214,0.010,-0.083,0.023,-0.001,1.000,0.000,0.000,0.000
1139,0.0013,0.0065,0.0088,-0.0048,0.0392,0.0042,-0.77,1.13,0.01,0,0.009,-0.211,-0.017,-0.131,0.021,-0.001,1.002,0.000,0.000,0.000
1150,0.0013,0.0059,0.0089,-0.0044,0.0341,0.0046,-0.77,1.12,0.01,0,0.009,-0.093,-0.088,-0.431,0.021,-0.003,1.001,0.000,0.000,0.000
1159,0.0020,0.0078,0.0088,-0.0005,0.0431,0.0040,-0.70,1.16,0.00,0,0.010,0.065,-0.060,-0.333,0.021,-0.001,1.000,0.000,0.000,0.000
1170,0.0020,0.0144,0.0086,-0.0004,0.0779,0.0020,-0.85,1.13,0.01,0,0.010,0.021,-0.097,0.114,0.023,-0.004,0.999,0.000,0.000,0.000
1179,0.0022,0.0152,0.0086,0.0009,0.0791,0.0019,-0.86,1.13,0.01,0,0.010,-0.170,0.141,0.400,0.024,-0.005,0.999,0.000,0.000,0.000
1190,0.0011,0.0144,0.0089,-0.0045,0.0713,0.0032,-0.82,1.10,0.01,0,0.010,0.238,-0.034,0.125,0.025,-0.002,1.000,0.000,0.000,0.000
1200,0.0018,0.0185,0.0085,-0.0007,0.0910,0.0006,-0.78,1.14,0.00,0,0.010,0.061,-0.200,-0.148,0.022,-0.002,0.998,0.000,0.000,0.000
1209,0.0018,0.0198,0.0091,-0.0007,0.0943,0.0039,-0.75,1.11,0.00,0,0.010,-0.298,0.057,0.086,0.022,-0.003,0.998,0.000,0.000,0.000
1219,0.0024,0.0198,0.0092,0.0028,0.0906,0.0047,-0.71,1.14,0.00,0,0.010,-0.033,-0.356,0.170,0.022,-0.004,0.998,0.000,0.000,0.000
1230,0.0015,0.0199,0.0094,-0.0015,0.0869,0.0053,-0.85,1.14,0.00,0,0.010,0.004,0.176,-0.140,0.020,-0.003,0.998,0.000,0.000,0.000
1239,0.0022,0.0199,0.0096,0.0023,0.0831,0.0059,-0.84,1.19,-0.00,0,0.010,-0.138,0.301,0.150,0.021,-0.002,1.002,0.000,0.000,0.000
1249,0.0015,0.0199,0.0097,-0.0007,0.0796,0.0065,-0.80,1.12,0.00,0,0.010,-0.088,-0.074,-0.123,0.022,-0.003,1.002,0.000,0.000,0.000
1259,0.0016,0.0238,0.0094,-0.0003,0.0975,0.0040,-0.76,1.15,-0.00,0,0.009,0.077,0.003,0.052,0.021,-0.001,1.001,0.000,0.000,0.000
1270,0.0003,0.0247,0.0097,-0.0068,0.0980,0.0052,-0.59,1.12,-0.00,0,0.009,0.160,0.107,0.219,0.023,-0.002,0.999,0.000,0.000,0.000
1279,0.0018,0.0247,0.0099,0.0015,0.0939,0.0060,-0.37,1.16,-0.01,0,0.009,-0.100,-0.015,0.165,0.021,-0.002,1.000,0.000,0.000,0.000
1290,0.0011,0.0247,0.0101,-0.0018,0.0899,0.0065,-0.38,1.16,-0.01,0,0.009,0.085,0.024,-0.117,0.021,0.000,1.001,0.000,0.000,0.000
1300,0.0018,0.0219,0.0106,0.0016,0.0707,0.0094,-0.37,1.16,-0.01,0,0.009,0.046,-0.077,-0.047,0.021,-0.003,1.001,0.000,0.000,0.000
1309,0.0007,0.0175,0.0103,-0.0038,0.0440,0.0078,-0.37,1.16,-0.01,0,0.009,0.044,0.116,-0.041,0.021,-0.004,1.000,0.000,0.000,0.000
1320,0.0007,0.0181,0.0103,-0.0035,0.0454,0.0080,-0.31,1.18,-0.02,0,0.009,0.189,0.128,0.162,0.023,-0.005,0.999,0.000,0.000,0.000
1329,0.0007,0.0183,0.0104,-0.0032,0.0447,0.0080,-0.38,1.02,-0.00,0,0.009,0.045,-0.077,-0.393,0.022,-0.003,1.000,0.000,0.000,0.000
1339,0.0007,0.0188,0.0105,-0.0031,0.0451,0.0080,-0.51,1.00,-0.00,0,0.009,-0.065,0.141,0.003,0.021,-0.001,1.002,0.000,0.000,0.000
1349,0.0002,0.0179,0.0106,-0.0052,0.0384,0.0084,-0.34,1.04,-0.01,0,0.009,0.094,-0.051,0.076,0.022,-0.002,1.000,0.000,0.000,0.000
1359,0.0037,0.0200,0.0107,0.0139,0.0484,0.0084,-0.31,1.04,-0.01,0,0.008,0.065,-0.261,-0.336,0.021,-0.000,1.000,0.000,0.000,0.000
1369,0.0044,0.0234,0.0099,0.0170,0.0644,0.0039,-0.27,1.05,-0.01,0,0.008,0.148,-0.160,-0.159,0.022,-0.003,1.001,0.000,0.000,0.000
1380,0.0035,0.0202,0.0103,0.0119,0.0438,0.0058,-0.31,1.07,-0.01,0,0.008,-0.259,0.087,0.063,0.021,-0.003,1.000,0.000,0.000,0.000
1389,0.0035,0.0199,0.0103,0.0116,0.0405,0.0060,-0.22,1.07,-0.01,0,0.008,-0.280,0.017,0.135,0.021,-0.002,1.000,0.000,0.000,0.000
1399,0.0035,0.0193,0.0104,0.0112,0.0351,0.0063,-0.25,1.08,-0.01,0,0.008,0.078,0.180,-0.140,0.023,-0.004,1.000,0.000,0.000,0.000
1410,0.0031,0.0207,0.0095,0.0087,0.0413,0.0008,-0.20,1.08,-0.02,0,0.007,0.004,0.364,0.175,0.022,-0.001,0.998,0.000,0.000,0.000
1420,0.0033,0.0190,0.0095,0.0096,0.0303,0.0013,-0.21,1.08,-0.01,0,0.007,-0.275,0.114,0.168,0.020,-0.002,0.998,0.000,0.000,0.000
1429,0.0031,0.0198,0.0095,0.0082,0.0334,0.0014,-0.20,1.06,-0.01,0,0.007,0.113,0.139,0.195,0.021,-0.001,0.999,0.000,0.000,0.000
1439,0.0031,0.0190,0.0096,0.0080,0.0272,0.0017,-0.16,1.02,-0.01,0,0.007,-0.080,-0.154,0.216,0.022,-0.001,1.001,0.000,0.000,0.000
1449,0.0031,0.0196,0.0096,0.0078,0.0292,0.0016,-0.23,1.07,-0.01,0,0.007,0.080,0.030,-0.217,0.022,-0.002,1.003,0.000,0.000,0.000
1460,0.0035,0.0196,0.0096,0.0100,0.0277,0.0017,-0.15,1.08,-0.01,0,0.010,0.004,-0.436,-0.134,0.020,-0.005,0.999,0.000,0.000,0.000
1470,0.0046,0.0189,0.0085,0.0157,0.0227,-0.0040,-0.20,1.10,-0.02,0,0.010,0.075,0.085,-0.285,0.020,-0.003,0.999,0.000,0.000,0.000
1479,0.0037,0.0206,0.0084,0.0105,0.0308,-0.0042,-0.20,1.10,-0.02,0,0.010,0.031,0.363,-0.009,0.020,-0.002,1.000,0.000,0.000,0.000
0,0.0035,0.0191,0.0085,0.0090,0.0212,-0.0039,-0.19,1.09,-0.02,0,0.010,-0.056,-0.134,-0.262,0.022,-0.001,1.001,0.000,0.000,0.000
10,0.0031,0.0206,0.0084,0.0065,0.0281,-0.0041,-0.14,1.10,-0.02,60000,0.010,0.258,0.024,-0.025,0.022,-0.000,1.001,0.000,0.000,0.000
20,0.0032,0.0209,0.0090,0.0068,0.0285,-0.0002,-0.12,1.09,-0.02,60000,0.007,0.059,0.011,-0.145,0.020,-0.000,1.003,0.000,0.000,0.000
30,0.0034,0.0209,0.0091,0.0077,0.0267,-0.0001,-0.15,1.11,-0.02,60000,0.007,0.161,-0.106,-0.243,0.023,-0.011,0.996,0.000,0.000,0.000
40,0.0034,0.0200,0.0091,0.0074,0.0202,0.0000,-0.06,1.07,-0.02,60000,0.007,-0.209,-0.233,0.043,0.025,-0.012,0.999,0.000,0.000,0.000
50,0.0036,0.0200,0.0091,0.0083,0.0190,0.0000,-0.14,1.10,-0.02,60000,0.007,-0.426,-0.339,-0.035,0.018,-0.007,1.004,0.000,0.000,0.000
60,0.0031,0.0208,0.0091,0.0056,0.0229,0.0001,-0.10,1.09,-0.02,60000,0.007,-0.345,-0.548,-0.347,0.025,-0.013,0.997,0.000,0.000,0.000
69,0.0040,0.0188,0.0091,0.0104,0.0108,0.0007,-0.09,1.08,-0.02,60000,0.006,-0.057,0.122,-0.952,0.016,-0.010,1.002,0.000,0.000,0.000
79,0.0036,0.0208,0.0082,0.0077,0.0210,-0.0039,-0.05,1.12,-0.02,60000,0.006,0.302,0.195,-0.602,0.002,-0.020,1.008,0.000,0.000,0.000
89,0.0038,0.0199,0.0082,0.0087,0.0147,-0.0038,-0.07,1.12,-0.03,60000,0.006,0.818,-0.057,-0.544,-0.021,-0.016,1.010,0.000,0.000,0.000
99,0.0042,0.0199,0.0081,0.0108,0.0137,-0.0038,0.13,1.13,-0.03,60000,0.006,0.756,-0.026,0.327,-0.006,-0.004,0.974,0.000,0.000,0.000
109,0.0033,0.0192,0.0081,0.0036,0.0094,-0.0035,0.19,1.14,-0.03,60000,0.006,1.303,1.259,-1.693,0.016,-0.030,1.013,0.000,0.000,0.000
119,0.0034,0.0200,0.0072,0.0016,0.0134,-0.0086,0.16,1.14,-0.06,60000,0.007,0.427,-1.106,-8.431,0.002,-0.036,1.007,0.000,0.000,0.000
129,0.0033,0.0155,0.0072,-0.0005,-0.0115,-0.0081,0.24,1.17,-0.15,60000,0.007,-1.499,0.047,-8.541,-0.010,-0.015,1.000,0.000,0.000,0.000
140,0.0029,0.0141,0.0070,-0.0047,-0.0182,-0.0080,0.21,1.19,-0.22,60000,0.007,-1.279,-0.556,-3.041,-0.003,-0.020,0.995,0.000,0.000,0.000
150,0.0029,0.0148,0.0070,-0.0064,-0.0140,-0.0070,0.30,1.14,-0.28,60000,0.007,-1.742,1.663,-14.848,0.012,-0.021,1.020,0.000,0.000,0.000
159,0.0020,0.0129,0.0068,-0.0126,-0.0238,-0.0091,0.26,1.15,-0.46,60000,0.007,-0.070,-0.050,-21.970,0.017,-0.015,1.044,0.000,0.000,0.000
169,0.0015,0.0131,0.0068,-0.0163,-0.0218,-0.0085,0.26,1.16,-0.69,60000,0.005,-5.435,-1.714,-22.219,0.022,-0.013,1.101,0.000,0.000,0.000
180,0.0026,0.0109,0.0068,-0.0118,-0.0326,-0.0073,0.12,1.17,-0.89,60000,0.005,2.184,0.618,-17.956,0.002,-0.009,1.145,0.000,0.000,0.000
190,0.0022,0.0117,0.0067,-0.0154,-0.0269,-0.0070,0.00,1.13,-1.08,60000,0.005,1.599,-5.472,-18.614,-0.001,-0.007,1.122,0.000,0.000,0.000
200,0.0020,0.0115,0.0067,-0.0174,-0.0273,-0.0075,0.11,1.28,-1.27,60000,0.005,-2.617,-30.635,-17.662,-0.003,-0.015,1.106,0.000,0.000,0.000
209,0.0022,0.0138,0.0067,-0.0174,-0.0139,-0.0059,0.23,1.64,-1.43,60000,0.005,-7.242,-38.398,-10.977,0.014,-0.016,1.145,0.000,0.000,0.000
220,0.0028,0.0171,0.0061,-0.0156,0.0042,-0.0055,0.22,2.04,-1.54,60000,0.009,-28.819,-32.722,-7.382,0.024,-0.025,1.186,0.000,0.000,0.000
230,0.0019,0.0149,0.0060,-0.0212,-0.0077,0.0028,-0.01,2.39,-1.61,60000,0.009,-40.302,-22.412,-5.353,0.021,-0.011,1.187,0.000,0.000,0.000
239,0.0007,0.0116,0.0061,-0.0288,-0.0249,0.0161,-0.23,2.58,-1.67,60000,0.009,-35.755,-24.623,-3.170,0.008,-0.013,1.211,0.000,0.000,0.000
249,-0.0002,0.0088,0.0062,-0.0357,-0.0386,0.0280,-0.50,2.86,-1.70,60000,0.009,-36.983,-37.206,-1.288,0.001,-0.017,1.236,0.000,0.000,0.000
259,-0.0017,0.0064,0.0063,-0.0455,-0.0495,0.0371,-0.77,3.27,-1.71,59786,0.009,-37.407,-30.693,0.381,0.015,-0.012,1.237,0.000,0.000,0.000
270,-0.0014,0.0017,0.0064,-0.0459,-0.0719,0.0488,-1.21,3.54,-1.69,59607,0.000,-43.737,-20.771,3.941,0.013,-0.017,1.237,0.000,0.000,0.000
279,-0.0021,-0.0012,0.0080,-0.0522,-0.0822,0.0707,-1.57,3.79,-1.65,59694,0.000,-33.170,-13.724,3.977,0.009,-0.022,1.221,0.000,0.000,0.000
290,-0.0036,-0.0045,0.0084,-0.0631,-0.0945,0.0870,-1.93,3.88,-1.60,59261,0.000,-18.093,-14.328,4.089,0.016,-0.022,1.200,0.000,0.000,0.000
300,-0.0039,-0.0046,0.0095,-0.0681,-0.0878,0.1074,-2.08,4.04,-1.55,58961,0.000,-2.589,-17.223,5.094,0.013,-0.022,1.207,0.000,0.000,0.000
310,-0.0063,-0.0065,0.0104,-0.0845,-0.0906,0.1277,-2.17,4.15,-1.48,58544,0.000,1.514,-13.732,5.214,0.011,-0.014,1.213,0.000,0.000,0.000
319,-0.0061,-0.0059,0.0077,-0.0868,-0.0791,0.1304,-2.23,4.27,-1.41,58164,0.000,2.163,-14.342,5.245,0.011,-0.015,1.222,0.000,0.000,0.000
329,-0.0074,-0.0066,0.0091,-0.0969,-0.0745,0.1529,-2.17,4.39,-1.36,58100,0.000,2.742,-13.183,4.409,0.006,-0.019,1.201,0.000,0.000,0.000
339,-0.0069,-0.0058,0.0110,-0.0975,-0.0618,0.1768,-2.20,4.70,-1.30,57655,0.000,2.283,-13.121,5.398,-0.003,-0.019,1.189,0.000,0.000,0.000
350,-0.0075,-0.0046,0.0131,-0.1037,-0.0476,0.1972,-2.18,4.84,-1.25,57148,0.000,5.716,-15.249,4.757,-0.004,-0.014,1.174,0.000,0.000,0.000
359,-0.0084,-0.0061,0.0151,-0.1113,-0.0480,0.2171,-2.25,4.94,-1.16,56730,0.000,7.314,-11.813,4.975,-0.003,-0.021,1.180,0.000,0.000,0.000
370,-0.0139,-0.0053,0.0165,-0.1438,-0.0370,0.2317,-2.00,5.23,-1.17,56342,0.021,7.631,-9.750,3.999,0.009,-0.020,1.173,0.000,0.000,0.000
379,-0.0150,-0.0055,0.0115,-0.1525,-0.0319,0.2153,-1.92,5.15,-1.11,55358,0.021,1.332,-2.686,3.961,0.010,-0.014,1.153,0.000,0.000,0.000
389,-0.0155,-0.0024,0.0140,-0.1561,-0.0095,0.2367,-1.91,4.91,-1.05,55711,0.021,-2.291,2.712,4.234,0.010,-0.013,1.140,0.000,0.000,0.000
399,-0.0213,-0.0067,0.0156,-0.1890,-0.0272,0.2495,-2.00,4.84,-0.99,55271,0.021,-5.757,6.981,4.846,0.011,-0.016,1.130,0.000,0.000,0.000
410,-0.0196,-0.0076,0.0193,-0.1798,-0.0264,0.2732,-1.98,4.62,-0.95,55105,0.021,-8.149,10.049,5.196,0.017,-0.014,1.119,0.000,0.000,0.000
419,-0.0156,-0.0082,0.0239,-0.1578,-0.0244,0.3009,-2.09,4.70,-0.92,54604,0.042,-10.829,13.743,5.624,0.014,-0.014,1.103,0.000,0.000,0.000
429,-0.0166,-0.0071,0.0272,-0.1642,-0.0133,0.3186,-2.26,4.55,-0.85,53245,0.042,-17.375,8.499,7.020,0.012,-0.014,1.086,0.000,0.000,0.000
440,-0.0149,-0.0091,0.0311,-0.1552,-0.0193,0.3379,-2.49,4.61,-0.79,52890,0.042,-16.540,7.814,6.921,0.012,-0.012,1.073,0.000,0.000,0.000
450,-0.0211,-0.0087,0.0337,-0.1894,-0.0120,0.3461,-2.70,4.50,-0.69,52482,0.042,-13.598,6.059,7.339,0.009,-0.016,1.069,0.000,0.000,0.000
461,-0.0223,-0.0078,0.0374,-0.1942,-0.0025,0.3599,-2.86,4.48,-0.61,52380,0.042,-5.064,9.911,7.960,0.008,-0.013,1.069,0.000,0.000,0.000
470,-0.0278,-0.0067,0.0400,-0.2227,0.0079,0.3649,-2.91,4.35,-0.53,52097,0.073,-2.839,10.146,8.602,0.007,-0.014,1.067,0.000,0.000,0.000
480,-0.0301,-0.0058,0.0450,-0.2306,0.0176,0.3811,-2.95,4.18,-0.43,50938,0.073,12.366,11.399,6.600,0.003,-0.020,1.058,0.000,0.000,0.000
490,-0.0334,-0.0045,0.0486,-0.2445,0.0290,0.3875,-2.79,4.01,-0.36,50607,0.073,20.257,11.589,6.296,0.004,-0.023,1.045,0.000,0.000,0.000
500,-0.0356,-0.0042,0.0526,-0.2512,0.0343,0.3951,-2.56,3.93,-0.32,50491,0.073,26.351,10.188,5.733,0.017,-0.019,1.038,0.000,0.000,0.000
508,-0.0368,-0.0027,0.0570,-0.2512,0.0459,0.4040,-2.33,3.85,-0.26,50351,0.073,27.109,4.306,5.532,0.017,-0.018,1.028,0.000,0.000,0.000
519,-0.0390,-0.0027,0.0681,-0.2548,0.0491,0.4477,-2.06,3.76,-0.19,50165,0.097,26.186,-6.311,5.494,0.012,-0.024,1.016,0.000,0.000,0.000
528,-0.0427,-0.0025,0.0724,-0.2683,0.0528,0.4523,-1.65,3.92,-0.20,48435,0.097,24.096,-19.969,5.938,0.010,-0.024,0.998,0.000,0.000,0.000
539,-0.0456,-0.0012,0.0768,-0.2764,0.0614,0.4572,-1.41,4.11,-0.13,48389,0.097,20.529,-28.785,6.663,0.009,-0.020,0.986,0.000,0.000,0.000
549,-0.0466,-0.0004,0.0820,-0.2732,0.0664,0.4655,-1.24,4.40,-0.05,48322,0.097,17.832,-30.469,6.870,0.008,-0.021,0.978,0.000,0.000,0.000
558,-0.0508,-0.0036,0.0866,-0.2877,0.0489,0.4679,-1.04,4.67,0.03,48172,0.097,17.370,-30.164,6.404,0.005,-0.024,0.972,0.000,0.000,0.000
569,-0.0531,-0.0035,0.0916,-0.2910,0.0500,0.4724,-0.89,4.92,0.10,48193,0.123,14.631,-27.114,5.960,0.006,-0.023,0.964,0.000,0.000,0.000
579,-0.0561,-0.0023,0.0989,-0.2979,0.0562,0.4872,-0.73,5.10,0.17,47209,0.123,13.504,-20.808,5.043,0.008,-0.021,0.957,0.000,0.000,0.000
589,-0.0584,-0.0025,0.1040,-0.3010,0.0540,0.4888,-0.71,5.23,0.26,46942,0.123,7.072,-14.627,5.012,0.009,-0.025,0.955,0.000,0.000,0.000
599,-0.0605,-0.0018,0.1092,-0.3039,0.0564,0.4893,-0.65,5.31,0.32,46932,0.123,7.207,-8.690,4.369,0.012,-0.024,0.951,0.000,0.000,0.000
609,-0.0618,-0.0017,0.1147,-0.3023,0.0554,0.4910,-0.54,5.37,0.35,46942,0.123,11.815,-5.531,2.533,0.012,-0.022,0.946,0.000,0.000,0.000
619,-0.0641,0.0008,0.1233,-0.3057,0.0664,0.5080,-0.43,5.36,0.38,46914,0.147,10.783,-2.239,2.704,0.012,-0.023,0.939,0.000,0.000,0.000
629,-0.0661,0.0017,0.1286,-0.3083,0.0687,0.5060,-0.35,5.36,0.42,45730,0.147,8.353,-0.782,2.778,0.013,-0.023,0.934,0.000,0.000,0.000
639,-0.0690,0.0021,0.1337,-0.3159,0.0683,0.5018,-0.24,5.35,0.43,45783,0.147,9.529,0.890,2.504,0.015,-0.022,0.930,0.000,0.000,0.000
649,-0.0709,0.0023,0.1390,-0.3178,0.0664,0.4994,-0.15,5.33,0.46,45893,0.147,8.794,-2.649,2.014,0.010,-0.023,0.927,0.000,0.000,0.000
659,-0.0737,0.0031,0.1441,-0.3245,0.0682,0.4949,-0.06,5.36,0.48,45952,0.147,9.652,-4.420,1.338,0.015,-0.021,0.920,0.000,0.000,0.000
669,-0.0765,0.0033,0.1492,-0.3303,0.0659,0.4905,0.03,5.37,0.50,46070,0.171,10.221,-7.088,0.615,0.016,-0.020,0.914,0.000,0.000,0.000
679,-0.0790,0.0037,0.1532,-0.3351,0.0652,0.4800,0.15,5.45,0.50,45331,0.171,12.461,-12.554,0.380,0.014,-0.021,0.911,0.000,0.000,0.000
689,-0.0824,0.0044,0.1579,-0.3438,0.0654,0.4732,0.25,5.58,0.50,45569,0.171,7.583,-14.553,-0.320,0.015,-0.022,0.908,0.000,0.000,0.000
699,-0.0848,0.0053,0.1628,-0.3466,0.0665,0.4677,0.34,5.76,0.49,45752,0.171,8.877,-17.849,-0.031,0.014,-0.021,0.907,0.000,0.000,0.000
709,-0.0877,0.0056,0.1676,-0.3525,0.0648,0.4610,0.43,5.91,0.49,45898,0.171,10.487,-16.163,-0.226,0.015,-0.027,0.906,0.000,0.000,0.000
719,-0.0917,0.0063,0.1736,-0.3624,0.0648,0.4600,0.52,6.09,0.49,46070,0.193,10.304,-18.420,-1.113,0.013,-0.022,0.906,0.000,0.000,0.000
729,-0.0964,0.0067,0.1780,-0.3760,0.0629,0.4501,0.63,6.22,0.48,45366,0.193,9.440,-18.601,-1.453,0.012,-0.020,0.905,0.000,0.000,0.000
739,-0.0993,0.0076,0.1826,-0.3810,0.0635,0.4420,0.71,6.41,0.47,45631,0.193,8.513,-18.557,-1.604,0.010,-0.021,0.901,0.000,0.000,0.000
749,-0.1033,0.0085,0.1869,-0.3908,0.0640,0.4324,0.76,6.59,0.47,45839,0.193,7.235,-16.806,-1.454,0.011,-0.018,0.899,0.000,0.000,0.000
760,-0.1059,0.0088,0.1915,-0.3938,0.0617,0.4248,0.82,6.74,0.45,46095,0.193,6.484,-16.034,-2.683,0.012,-0.023,0.895,0.000,0.000,0.000
769,-0.1099,0.0099,0.1957,-0.4034,0.0628,0.4150,0.88,6.88,0.42,46283,0.213,4.539,-15.900,-3.256,0.016,-0.025,0.895,0.000,0.000,0.000
779,-0.1139,0.0113,0.1985,-0.4131,0.0656,0.3989,0.91,7.03,0.40,45831,0.213,5.189,-14.252,-3.463,0.017,-0.024,0.899,0.000,0.000,0.000
790,-0.1176,0.0121,0.2025,-0.4210,0.0650,0.3895,0.96,7.15,0.36,46216,0.213,3.988,-13.869,-3.358,0.016,-0.023,0.900,0.000,0.000,0.000
800,-0.1212,0.0129,0.2065,-0.4283,0.0643,0.3800,0.99,7.27,0.33,46460,0.213,3.370,-13.213,-3.679,0.018,-0.021,0.898,0.000,0.000,0.000
809,-0.1254,0.0139,0.2103,-0.4384,0.0646,0.3695,1.03,7.39,0.28,46702,0.213,1.407,-14.838,-3.737,0.018,-0.016,0.898,0.000,0.000,0.000
819,-0.1295,0.0148,0.2151,-0.4475,0.0641,0.3648,1.05,7.51,0.25,46976,0.220,2.509,-13.854,-4.079,0.014,-0.019,0.899,0.000,0.000,0.000
829,-0.1337,0.0156,0.2187,-0.4568,0.0636,0.3542,1.08,7.62,0.20,46885,0.220,2.756,-14.784,-3.957,0.016,-0.020,0.896,0.000,0.000,0.000
839,-0.1377,0.0161,0.2223,-0.4654,0.0613,0.3441,1.09,7.77,0.16,47159,0.220,2.634,-16.012,-4.138,0.019,-0.020,0.899,0.000,0.000,0.000
849,-0.1416,0.0170,0.2258,-0.4733,0.0609,0.3345,1.12,7.91,0.13,47427,0.220,2.899,-16.747,-3.288,0.021,-0.023,0.900,0.000,0.000,0.000
859,-0.1451,0.0172,0.2294,-0.4794,0.0578,0.3253,1.14,8.04,0.10,47683,0.220,4.844,-17.813,-3.551,0.019,-0.021,0.902,0.000,0.000,0.000
869,-0.1502,0.0183,0.2325,-0.4922,0.0583,0.3140,1.20,8.24,0.06,47922,0.250,3.931,-18.762,-3.827,0.018,-0.022,0.903,0.000,0.000,0.000
879,-0.1538,0.0191,0.2300,-0.4983,0.0576,0.2757,1.24,8.40,0.02,47184,0.250,5.213,-19.017,-3.400,0.021,-0.019,0.908,0.000,0.000,0.000
889,-0.1574,0.0199,0.2329,-0.5046,0.0573,0.2660,1.30,8.60,-0.03,48017,0.250,4.476,-18.938,-3.299,0.020,-0.018,0.908,0.000,0.000,0.000
899,-0.1632,0.0206,0.2354,-0.5199,0.0557,0.2544,1.35,8.78,-0.06,48282,0.250,4.699,-19.036,-3.946,0.021,-0.023,0.910,0.000,0.000,0.000
909,-0.1672,0.0212,0.2381,-0.5275,0.0542,0.2450,1.38,8.94,-0.10,48624,0.250,0.903,-18.466,-2.856,0.022,-0.022,0.915,0.000,0.000,0.000
920,-0.1739,0.0219,0.2454,-0.5458,0.0528,0.2585,1.41,9.11,-0.15,48886,0.260,1.710,-19.287,-3.910,0.018,-0.022,0.920,0.000,0.000,0.000
929,-0.1789,0.0225,0.2480,-0.5569,0.0513,0.2484,1.43,9.28,-0.19,48386,0.260,-0.230,-18.436,-2.974,0.019,-0.019,0.922,0.000,0.000,0.000
939,-0.1837,0.0234,0.2505,-0.5672,0.0508,0.2389,1.42,9.46,-0.21,48683,0.260,-0.050,-17.419,-2.701,0.022,-0.018,0.926,0.000,0.000,0.000
949,-0.1890,0.0236,0.2529,-0.5795,0.0474,0.2293,1.41,9.63,-0.24,48968,0.260,-2.980,-16.860,-3.366,0.023,-0.019,0.925,0.000,0.000,0.000
959,-0.1942,0.0243,0.2552,-0.5910,0.0461,0.2198,1.39,9.78,-0.28,49264,0.260,-2.791,-16.993,-3.150,0.023,-0.020,0.932,0.000,0.000,0.000
968,-0.2003,0.0250,0.2574,-0.6058,0.0450,0.2100,1.37,9.91,-0.32,49552,0.272,-4.162,-15.199,-2.700,0.025,-0.022,0.938,0.000,0.000,0.000
979,-0.2063,0.0260,0.2606,-0.6204,0.0450,0.2066,1.37,10.07,-0.37,49442,0.272,3.605,-16.992,-4.578,0.026,-0.021,0.942,0.000,0.000,0.000
989,-0.2117,0.0263,0.2627,-0.6323,0.0422,0.1985,1.40,10.18,-0.42,49631,0.272,1.086,-17.455,-3.482,0.027,-0.015,0.944,0.000,0.000,0.000
999,-0.2166,0.0268,0.2648,-0.6424,0.0404,0.1911,1.41,10.34,-0.45,49894,0.272,-4.593,-17.028,-2.384,0.030,-0.017,0.946,0.000,0.000,0.000
1009,-0.2230,0.0269,0.2667,-0.6576,0.0373,0.1825,1.36,10.51,-0.48,50142,0.272,-1.861,-18.182,-2.659,0.029,-0.021,0.952,0.000,0.000,0.000
1018,-0.2278,0.0276,0.2708,-0.6673,0.0363,0.1867,1.34,10.67,-0.51,50446,0.281,-2.956,-20.013,-2.714,0.032,-0.017,0.955,0.000,0.000,0.000
1029,-0.2341,0.0280,0.2727,-0.6819,0.0345,0.1794,1.32,10.80,-0.55,50150,0.281,-1.563,-22.234,-2.545,0.031,-0.017,0.958,0.000,0.000,0.000
1038,-0.2405,0.0286,0.2745,-0.6969,0.0331,0.1724,1.30,11.11,-0.57,50424,0.281,-2.525,-21.583,-2.780,0.029,-0.019,0.958,0.000,0.000,0.000
1049,-0.2464,0.0294,0.2763,-0.7097,0.0327,0.1663,1.29,11.30,-0.60,50735,0.281,-1.936,-21.994,-2.145,0.031,-0.021,0.961,0.000,0.000,0.000
1058,-0.2511,0.0296,0.2783,-0.7186,0.0302,0.1616,1.27,11.53,-0.63,50994,0.281,0.219,-27.287,-2.576,0.032,-0.020,0.964,0.000,0.000,0.000
1069,-0.2620,0.0304,0.2793,-0.7482,0.0301,0.1514,1.28,11.74,-0.66,51212,0.289,-0.013,-25.664,-2.475,0.030,-0.014,0.965,0.000,0.000,0.000
1078,-0.2686,0.0306,0.2814,-0.7632,0.0278,0.1483,1.29,11.96,-0.70,51389,0.289,1.725,-27.368,-2.513,0.034,-0.019,0.969,0.000,0.000,0.000
1089,-0.2760,0.0310,0.2829,-0.7805,0.0266,0.1424,1.29,12.19,-0.74,51619,0.289,-2.873,-30.468,-2.034,0.035,-0.023,0.973,0.000,0.000,0.000
1099,-0.2812,0.0315,0.2846,-0.7904,0.0252,0.1385,1.26,12.38,-0.78,51922,0.289,-6.701,-30.381,-2.277,0.034,-0.018,0.980,0.000,0.000,0.000
1109,-0.2869,0.0316,0.2863,-0.8021,0.0229,0.1346,1.21,12.58,-0.82,52134,0.289,-3.242,-28.672,-2.239,0.034,-0.014,0.985,0.000,0.000,0.000
1119,-0.2917,0.0320,0.2887,-0.8113,0.0217,0.1348,1.17,12.81,-0.85,52362,0.291,-5.411,-29.680,-1.811,0.034,-0.015,0.987,0.000,0.000,0.000
1129,-0.2949,0.0322,0.2905,-0.8155,0.0198,0.1324,1.13,13.03,-0.89,52431,0.291,-6.700,-28.359,-1.306,0.036,-0.015,0.991,0.000,0.000,0.000
1139,-0.2981,0.0325,0.2923,-0.8203,0.0182,0.1306,1.08,13.25,-0.91,52581,0.291,-4.453,-29.373,-0.986,0.038,-0.016,0.992,0.000,0.000,0.000
1148,-0.3038,0.0327,0.2939,-0.8331,0.0166,0.1275,1.05,13.45,-0.95,52727,0.291,-3.440,-27.395,-1.841,0.037,-0.017,0.998,0.000,0.000,0.000
1159,-0.3085,0.0323,0.2956,-0.8430,0.0130,0.1259,1.02,13.61,-0.99,52952,0.291,-2.040,-28.406,-1.636,0.038,-0.017,0.998,0.000,0.000,0.000
1168,-0.3143,0.0328,0.2973,-0.8564,0.0128,0.1242,1.00,13.87,-1.02,53113,0.291,-2.342,-30.750,-1.306,0.039,-0.016,1.003,0.000,0.000,0.000
1179,-0.3180,0.0328,0.2953,-0.8632,0.0106,0.1052,0.96,14.09,-1.03,53336,0.291,-0.917,-30.647,-1.299,0.042,-0.016,1.007,0.000,0.000,0.000
1189,-0.3207,0.0326,0.2970,-0.8676,0.0084,0.1054,0.98,14.28,-1.09,53839,0.291,-2.535,-31.238,-1.558,0.041,-0.016,1.006,0.000,0.000,0.000
1199,-0.3277,0.0324,0.2982,-0.8854,0.0062,0.1029,1.12,14.56,-1.24,53936,0.291,-1.476,-31.628,-0.858,0.044,-0.015,1.014,0.000,0.000,0.000
1210,-0.3321,0.0337,0.2997,-0.8953,0.0086,0.1030,1.10,14.80,-1.26,54213,0.291,-2.560,-31.320,0.064,0.046,-0.018,1.018,0.000,0.000,0.000
1219,-0.3339,0.0328,0.2968,-0.8975,0.0042,0.0808,1.07,15.05,-1.27,54374,0.297,-1.919,-30.829,-0.037,0.043,-0.019,1.020,0.000,0.000,0.000
1229,-0.3410,0.0259,0.2977,-0.9164,-0.0182,0.0788,1.04,15.40,-1.26,54704,0.297,-4.580,-32.021,0.124,0.046,-0.018,1.023,0.000,0.000,0.000
1238,-0.3461,0.0260,0.2989,-0.9292,-0.0189,0.0787,1.00,15.65,-1.28,54997,0.297,-4.036,-29.198,1.168,0.047,-0.018,1.029,0.000,0.000,0.000
1249,-0.3525,0.0261,0.3000,-0.9458,-0.0195,0.0780,0.99,15.58,-1.28,55194,0.297,-4.712,-28.214,0.865,0.050,-0.015,1.030,0.000,0.000,0.000
1259,-0.3645,0.0261,0.3005,-0.9784,-0.0199,0.0739,0.90,16.14,-1.27,55339,0.297,-4.643,-26.443,1.330,0.050,-0.019,1.033,0.000,0.000,0.000
1270,-0.3703,0.0259,0.3020,-0.9936,-0.0216,0.0757,0.90,16.04,-1.28,55898,0.302,-4.181,-26.287,1.492,0.048,-0.019,1.039,0.000,0.000,0.000
1280,-0.3651,0.0264,0.2989,-0.9783,-0.0201,0.0601,0.80,16.47,-1.27,55800,0.302,-4.533,-25.851,1.400,0.050,-0.015,1.039,0.000,0.000,0.000
1290,-0.3853,0.0260,0.3000,-1.0327,-0.0223,0.0566,0.80,16.35,-1.28,56110,0.302,-6.262,-25.886,2.111,0.051,-0.016,1.045,0.000,0.000,0.000
1300,-0.3794,0.0260,0.3006,-1.0166,-0.0224,0.0604,0.69,16.76,-1.27,56653,0.302,-4.369,-27.533,0.933,0.053,-0.019,1.048,0.000,0.000,0.000
1309,-0.3947,0.0260,0.3024,-1.0576,-0.0231,0.0618,0.69,16.66,-1.28,56569,0.302,-6.502,-27.401,1.750,0.053,-0.017,1.052,0.000,0.000,0.000
1319,-0.3870,0.0260,0.3013,-1.0362,-0.0231,0.0571,0.55,17.10,-1.26,56905,0.307,-7.104,-27.973,1.239,0.055,-0.018,1.058,0.000,0.000,0.000
1329,-0.4023,0.0256,0.3029,-1.0778,-0.0246,0.0587,0.55,16.99,-1.27,56775,0.307,-5.244,-28.525,1.583,0.056,-0.015,1.062,0.000,0.000,0.000
