time_ms,pos_x,pos_y,pos_z,vel_x,vel_y,vel_z,roll,pitch,yaw,thrust,range_z,gyro_x,gyro_y,gyro_z,acc_x,acc_y,acc_z,rate_roll,rate_pitch,rate_yaw
0,0.8723,0.1978,0.0118,0.0000,0.0072,-0.0069,-1.47,0.04,-37.80,0,0.013,-0.017,0.014,0.066,0.005,-0.028,0.999,0.000,0.000,0.000
0,0.8717,0.1960,0.0118,-0.0031,-0.0026,-0.0069,-1.50,0.03,-37.76,0,0.013,-0.288,-0.062,-0.469,0.001,-0.027,0.999,0.000,0.000,0.000
0,0.8724,0.1955,0.0117,0.0007,-0.0054,-0.0069,-1.50,0.07,-37.73,0,0.013,-0.017,-0.223,-0.050,-0.000,-0.026,1.000,0.000,0.000,0.000
0,0.8730,0.1959,0.0116,0.0039,-0.0034,-0.0068,-1.49,0.06,-37.69,0,0.013,-0.034,0.185,-0.299,0.003,-0.025,0.999,0.000,0.000,0.000
0,0.8723,0.1964,0.0122,0.0004,-0.0006,-0.0036,-1.53,0.10,-37.65,0,0.013,-0.208,-0.176,0.158,0.002,-0.028,1.000,0.000,0.000,0.000
0,0.8723,0.1961,0.0121,0.0008,-0.0025,-0.0035,-1.47,0.04,-37.62,0,0.013,-0.070,0.024,0.126,0.001,-0.027,1.001,0.000,0.000,0.000
0,0.8722,0.1976,0.0121,-0.0002,0.0054,-0.0036,-1.49,0.07,-37.58,0,0.013,-0.002,-0.053,-0.212,0.001,-0.027,1.001,0.000,0.000,0.000
0,0.8724,0.1955,0.0121,0.0011,-0.0059,-0.0034,-1.54,0.11,-37.55,0,0.013,-0.171,-0.108,0.003,0.002,-0.028,0.999,0.000,0.000,0.000
1,0.8722,0.1962,0.0121,-0.0003,-0.0018,-0.0033,-1.52,0.11,-37.51,0,0.013,-0.060,0.300,-0.071,0.004,-0.030,0.999,0.000,0.000,0.000
1,0.8723,0.1977,0.0120,0.0004,0.0063,-0.0033,-1.50,0.05,-37.47,0,0.013,-0.122,-0.013,0.013,0.004,-0.029,0.998,0.000,0.000,0.000
1,0.8720,0.1974,0.0124,-0.0010,0.0042,-0.0011,-1.48,0.07,-37.44,0,0.012,0.213,0.241,-0.414,0.003,-0.028,0.999,0.000,0.000,0.000
1,0.8728,0.1963,0.0124,0.0029,-0.0020,-0.0009,-1.47,0.04,-37.40,0,0.012,-0.315,-0.009,-0.387,0.003,-0.027,1.000,0.000,0.000,0.000
1,0.8722,0.1963,0.0124,-0.0004,-0.0024,-0.0007,-1.49,0.06,-37.37,0,0.012,-0.095,-0.255,-0.025,0.004,-0.025,1.000,0.000,0.000,0.000
1,0.8726,0.1957,0.0124,0.0016,-0.0056,-0.0008,-1.46,0.03,-37.33,0,0.012,-0.027,0.268,-0.219,0.001,-0.028,1.001,0.000,0.000,0.000
1,0.8723,0.1964,0.0122,0.0003,-0.0019,-0.0017,-1.48,0.03,-37.30,0,0.012,0.078,0.076,-0.143,0.001,-0.028,0.999,0.000,0.000,0.000
1,0.8725,0.1952,0.0122,0.0011,-0.0085,-0.0018,-1.46,0.05,-37.26,0,0.015,0.173,0.203,-0.219,0.002,-0.028,1.001,0.000,0.000,0.000
1,0.8727,0.1956,0.0122,0.0025,-0.0066,-0.0018,-1.48,0.04,-37.23,0,0.015,-0.014,-0.011,-0.187,0.004,-0.029,1.000,0.000,0.000,0.000
2,0.8722,0.1955,0.0122,-0.0006,-0.0068,-0.0017,-1.51,0.11,-37.19,0,0.015,0.111,-0.154,-0.440,0.001,-0.026,0.999,0.000,0.000,0.000
2,0.8726,0.1957,0.0122,0.0018,-0.0055,-0.0016,-1.53,0.10,-37.16,0,0.015,0.009,0.068,0.003,0.002,-0.025,0.999,0.000,0.000,0.000
2,0.8719,0.1972,0.0122,-0.0021,0.0033,-0.0016,-1.48,0.04,-37.12,0,0.015,-0.040,-0.015,-0.491,0.001,-0.028,1.000,0.000,0.000,0.000
2,0.8722,0.1976,0.0134,-0.0006,0.0050,0.0048,-1.51,0.10,-37.09,0,0.016,0.073,0.076,-0.123,0.000,-0.029,1.000,0.000,0.000,0.000
2,0.8727,0.1959,0.0135,0.0025,-0.0053,0.0050,-1.51,0.10,-37.05,0,0.016,-0.031,0.079,-0.096,0.002,-0.027,1.000,0.000,0.000,0.000
2,0.8719,0.1972,0.0135,-0.0021,0.0026,0.0051,-1.48,0.03,-37.02,0,0.016,-0.011,0.189,-0.342,-0.001,-0.026,1.000,0.000,0.000,0.000
2,0.8719,0.1973,0.0136,-0.0020,0.0026,0.0051,-1.52,0.03,-36.99,0,0.016,0.116,0.071,-0.065,0.001,-0.027,0.999,0.000,0.000,0.000
2,0.8729,0.1957,0.0146,0.0038,-0.0064,0.0105,-1.47,0.03,-36.95,0,0.016,-0.188,-0.035,-0.038,0.003,-0.028,1.001,0.000,0.000,0.000
2,0.8736,0.1966,0.0147,0.0071,-0.0012,0.0105,-1.45,0.06,-36.91,0,0.013,-0.052,0.269,0.034,0.002,-0.029,1.000,0.000,0.000,0.000
2,0.8729,0.1957,0.0149,0.0030,-0.0062,0.0106,-1.45,0.05,-36.88,0,0.013,-0.183,-0.013,-0.095,0.002,-0.028,1.000,0.000,0.000,0.000
3,0.8720,0.1956,0.0150,-0.0022,-0.0066,0.0107,-1.44,0.02,-36.84,0,0.013,-0.074,-0.080,-0.293,0.002,-0.026,1.001,0.000,0.000,0.000
3,0.8722,0.1955,0.0151,-0.0014,-0.0069,0.0107,-1.48,0.05,-36.81,0,0.013,-0.041,0.309,-0.208,0.002,-0.029,1.000,0.000,0.000,0.000
3,0.8726,0.1949,0.0152,0.0009,-0.0099,0.0107,-1.47,0.04,-36.77,0,0.013,-0.188,0.128,0.008,0.003,-0.028,0.998,0.000,0.000,0.000
3,0.8726,0.1960,0.0143,0.0007,-0.0039,0.0058,-1.54,0.10,-36.74,0,0.015,0.029,0.031,0.190,0.001,-0.028,1.000,0.000,0.000,0.000
3,0.8726,0.1957,0.0144,0.0009,-0.0056,0.0058,-1.51,0.08,-36.70,0,0.015,-0.055,-0.350,-0.166,0.002,-0.029,0.998,0.000,0.000,0.000
3,0.8723,0.1978,0.0145,-0.0007,0.0061,0.0060,-1.50,0.06,-36.67,0,0.015,0.051,0.111,-0.326,0.002,-0.027,1.003,0.000,0.000,0.000
3,0.8723,0.1970,0.0145,-0.0009,0.0015,0.0062,-1.53,0.10,-36.63,0,0.015,-0.162,0.170,-0.382,0.003,-0.026,1.000,0.000,0.000,0.000
3,0.8725,0.1966,0.0146,0.0003,-0.0011,0.0060,-1.54,0.10,-36.60,0,0.015,-0.142,-0.087,-0.323,0.002,-0.028,0.999,0.000,0.000,0.000
3,0.8722,0.1976,0.0148,-0.0014,0.0044,0.0069,-1.54,0.09,-36.57,0,0.014,-0.110,0.247,-0.243,0.002,-0.029,1.001,0.000,0.000,0.000
3,0.8724,0.1978,0.0149,-0.0007,0.0049,0.0068,-1.47,0.01,-36.53,0,0.014,-0.105,0.060,-0.162,0.003,-0.025,1.002,0.000,0.000,0.000
3,0.8723,0.1978,0.0150,-0.0008,0.0048,0.0069,-1.53,0.09,-36.50,0,0.014,0.065,0.053,-0.177,0.002,-0.026,0.999,0.000,0.000,0.000
3,0.8728,0.1955,0.0151,0.0021,-0.0082,0.0073,-1.45,0.09,-36.46,0,0.014,-0.138,0.182,-0.135,0.002,-0.026,0.998,0.000,0.000,0.000
3,0.8722,0.1976,0.0152,-0.0014,0.0036,0.0074,-1.46,0.05,-36.43,0,0.014,-0.235,0.224,0.027,-0.001,-0.027,1.001,0.000,0.000,0.000
4,0.8712,0.1962,0.0147,-0.0071,-0.0045,0.0049,-1.45,0.04,-36.39,0,0.010,0.145,-0.106,-0.432,0.001,-0.025,1.001,0.000,0.000,0.000
4,0.8720,0.1959,0.0148,-0.0022,-0.0062,0.0051,-1.49,0.02,-36.36,0,0.010,-0.119,-0.065,-0.301,0.003,-0.028,1.002,0.000,0.000,0.000
4,0.8721,0.1956,0.0149,-0.0016,-0.0076,0.0053,-1.48,0.02,-36.32,0,0.010,0.141,0.169,-0.237,0.003,-0.027,1.001,0.000,0.000,0.000
4,0.8729,0.1960,0.0149,0.0032,-0.0049,0.0051,-1.51,0.09,-36.29,0,0.010,0.091,-0.180,-0.106,0.002,-0.028,0.998,0.000,0.000,0.000
4,0.8728,0.1958,0.0129,0.0021,-0.0058,-0.0058,-1.50,0.04,-36.26,0,0.010,0.035,-0.124,-0.262,0.002,-0.029,0.998,0.000,0.000,0.000
4,0.8719,0.1972,0.0128,-0.0026,0.0021,-0.0056,-1.48,0.07,-36.22,0,0.011,-0.158,0.273,-0.210,0.001,-0.027,0.999,0.000,0.000,0.000
4,0.8727,0.1964,0.0128,0.0016,-0.0025,-0.0053,-1.49,0.01,-36.19,0,0.011,-0.303,0.181,-0.045,0.002,-0.029,1.002,0.000,0.000,0.000
4,0.8719,0.1964,0.0127,-0.0026,-0.0024,-0.0052,-1.48,0.06,-36.15,0,0.011,-0.042,-0.095,-0.254,0.001,-0.028,1.000,0.000,0.000,0.000
4,0.8730,0.1958,0.0127,0.0038,-0.0057,-0.0051,-1.55,0.10,-36.12,0,0.011,-0.136,-0.160,0.140,-0.000,-0.027,1.000,0.000,0.000,0.000
4,0.8721,0.1963,0.0127,-0.0017,-0.0032,-0.0052,-1.48,0.01,-36.08,0,0.011,0.212,0.106,0.020,0.001,-0.028,1.001,0.000,0.000,0.000
4,0.8724,0.1982,0.0119,-0.0001,0.0069,-0.0090,-1.48,0.04,-36.05,0,0.012,-0.140,-0.020,-0.121,0.003,-0.024,1.001,0.000,0.000,0.000
4,0.8729,0.1957,0.0118,0.0027,-0.0070,-0.0086,-1.53,0.07,-36.01,0,0.012,-0.196,0.054,0.059,0.005,-0.025,0.998,0.000,0.000,0.000
4,0.8724,0.1961,0.0118,-0.0003,-0.0049,-0.0085,-1.51,0.09,-35.97,0,0.012,0.038,0.038,-0.203,0.002,-0.026,1.000,0.000,0.000,0.000
4,0.8725,0.1973,0.0117,0.0002,0.0019,-0.0084,-1.50,0.07,-35.94,0,0.012,-0.128,-0.106,-0.060,0.001,-0.028,1.000,0.000,0.000,0.000
4,0.8719,0.1972,0.0118,-0.0032,0.0013,-0.0074,-1.46,0.02,-35.91,0,0.012,0.010,0.268,-0.447,0.001,-0.029,1.000,0.000,0.000,0.000
4,0.8721,0.1968,0.0117,-0.0018,-0.0010,-0.0073,-1.49,0.09,-35.87,0,0.013,-0.208,0.020,-0.191,0.002,-0.026,1.000,0.000,0.000,0.000
4,0.8725,0.1955,0.0116,0.0006,-0.0079,-0.0073,-1.48,0.04,-35.84,0,0.013,0.072,-0.158,-0.103,0.002,-0.026,1.002,0.000,0.000,0.000
4,0.8717,0.1969,0.0116,-0.0037,-0.0002,-0.0072,-1.45,0.02,-35.81,0,0.013,-0.033,0.271,-0.088,-0.000,-0.027,1.002,0.000,0.000,0.000
4,0.8724,0.1961,0.0115,0.0004,-0.0046,-0.0072,-1.54,0.09,-35.77,0,0.013,-0.187,-0.124,-0.035,0.001,-0.026,1.001,0.000,0.000,0.000
5,0.8724,0.1950,0.0114,0.0004,-0.0103,-0.0072,-1.54,0.09,-35.74,0,0.013,-0.075,0.229,-0.344,0.003,-0.026,0.998,0.000,0.000,0.000
5,0.8723,0.1977,0.0121,-0.0003,0.0046,-0.0037,-1.48,0.01,-35.70,0,0.014,-0.130,0.259,-0.012,0.001,-0.028,1.000,0.000,0.000,0.000
5,0.8723,0.1978,0.0120,-0.0001,0.0047,-0.0036,-1.51,0.01,-35.67,0,0.014,-0.267,0.396,-0.056,0.002,-0.028,1.002,0.000,0.000,0.000
5,0.8728,0.1955,0.0120,0.0028,-0.0080,-0.0031,-1.50,0.04,-35.63,0,0.014,0.064,0.062,0.035,-0.000,-0.025,1.001,0.000,0.000,0.000
5,0.8732,0.1960,0.0120,0.0047,-0.0047,-0.0029,-1.50,0.02,-35.60,0,0.014,-0.238,0.002,-0.157,0.000,-0.025,1.000,0.000,0.000,0.000
5,0.8726,0.1962,0.0128,0.0011,-0.0033,0.0016,-1.50,0.01,-35.57,0,0.014,-0.061,-0.113,-0.135,0.002,-0.026,0.998,0.000,0.000,0.000
5,0.8729,0.1960,0.0128,0.0030,-0.0047,0.0015,-1.47,0.03,-35.53,0,0.010,-0.150,-0.189,-0.144,0.001,-0.026,0.999,0.000,0.000,0.000
5,0.8731,0.1958,0.0129,0.0038,-0.0054,0.0017,-1.48,0.03,-35.50,0,0.010,0.154,0.153,-0.585,0.002,-0.026,1.000,0.000,0.000,0.000
5,0.8724,0.1956,0.0129,-0.0004,-0.0066,0.0019,-1.49,0.09,-35.46,0,0.010,0.063,0.153,-0.321,0.003,-0.031,1.000,0.000,0.000,0.000
5,0.8727,0.1956,0.0129,0.0013,-0.0059,0.0020,-1.46,0.01,-35.43,0,0.010,-0.078,-0.069,-0.235,0.002,-0.029,0.999,0.000,0.000,0.000
5,0.8716,0.1967,0.0129,-0.0050,0.0005,0.0020,-1.50,0.05,-35.40,0,0.010,-0.204,-0.312,-0.157,0.001,-0.026,0.999,0.000,0.000,0.000
5,0.8726,0.1951,0.0117,0.0010,-0.0083,-0.0046,-1.50,0.09,-35.36,0,0.014,-0.155,0.249,-0.233,0.002,-0.028,0.997,0.000,0.000,0.000
5,0.8724,0.1963,0.0116,-0.0001,-0.0012,-0.0046,-1.51,0.09,-35.33,0,0.014,0.091,-0.003,-0.119,0.002,-0.030,0.997,0.000,0.000,0.000
5,0.8717,0.1968,0.0116,-0.0040,0.0013,-0.0045,-1.51,0.09,-35.30,0,0.014,-0.173,0.072,0.192,0.002,-0.028,1.000,0.000,0.000,0.000
5,0.8718,0.1970,0.0115,-0.0032,0.0018,-0.0046,-1.49,0.05,-35.26,0,0.014,-0.346,-0.113,-0.098,0.003,-0.023,1.001,0.000,0.000,0.000
5,0.8718,0.1971,0.0126,-0.0031,0.0018,0.0011,-1.47,0.02,-35.23,0,0.014,-0.130,0.148,0.219,0.004,-0.026,1.001,0.000,0.000,0.000
5,0.8723,0.1962,0.0126,-0.0004,-0.0032,0.0010,-1.48,0.02,-35.20,0,0.015,0.056,0.149,-0.308,0.003,-0.027,0.999,0.000,0.000,0.000
5,0.8726,0.1954,0.0126,0.0011,-0.0075,0.0007,-1.49,0.01,-35.16,0,0.015,-0.072,0.235,-0.280,0.002,-0.026,1.000,0.000,0.000,0.000
5,0.8727,0.1957,0.0126,0.0017,-0.0061,0.0007,-1.55,0.09,-35.13,0,0.015,-0.226,-0.115,-0.074,0.001,-0.026,1.001,0.000,0.000,0.000
6,0.8730,0.1957,0.0126,0.0033,-0.0058,0.0006,-1.41,0.01,-35.10,0,0.015,0.125,-0.152,-0.383,0.001,-0.028,1.002,0.000,0.000,0.000
6,0.8723,0.1977,0.0126,-0.0002,0.0059,0.0008,-1.55,0.09,-35.06,0,0.015,0.021,0.106,-0.100,0.000,-0.027,1.001,0.000,0.000,0.000
6,0.8719,0.1942,0.0137,-0.0024,-0.0142,0.0067,-1.45,0.01,-35.03,0,0.013,-0.060,0.046,-0.213,0.000,-0.027,1.001,0.000,0.000,0.000
6,0.8723,0.1977,0.0138,0.0002,0.0059,0.0070,-1.46,0.04,-35.00,0,0.013,0.067,0.157,-0.436,0.001,-0.028,0.998,0.000,0.000,0.000
6,0.8725,0.1950,0.0139,0.0013,-0.0094,0.0073,-1.46,0.01,-34.97,0,0.013,-0.065,-0.184,-0.107,0.002,-0.027,0.998,0.000,0.000,0.000
6,0.8718,0.1955,0.0140,-0.0025,-0.0063,0.0074,-1.49,0.01,-34.94,0,0.013,-0.034,-0.020,-0.126,0.002,-0.025,1.000,0.000,0.000,0.000
6,0.8725,0.1950,0.0141,0.0014,-0.0087,0.0076,-1.52,0.01,-34.90,0,0.013,0.038,-0.081,-0.267,0.002,-0.029,1.003,0.000,0.000,0.000
6,0.8729,0.1955,0.0137,0.0031,-0.0056,0.0051,-1.54,0.10,-34.87,0,0.014,-0.013,0.057,-0.303,0.001,-0.030,1.000,0.000,0.000,0.000
6,0.8732,0.1960,0.0137,0.0049,-0.0026,0.0053,-1.47,0.04,-34.84,0,0.014,0.245,-0.282,-0.443,0.001,-0.029,1.000,0.000,0.000,0.000
6,0.8720,0.1976,0.0138,-0.0019,0.0061,0.0053,-1.51,0.09,-34.81,0,0.014,0.047,0.019,-0.317,0.001,-0.027,0.999,0.000,0.000,0.000
6,0.8721,0.1956,0.0139,-0.0014,-0.0056,0.0054,-1.53,0.09,-34.77,0,0.014,-0.173,0.224,-0.271,0.000,-0.028,1.001,0.000,0.000,0.000
6,0.8719,0.1970,0.0139,-0.0026,0.0025,0.0054,-1.47,0.02,-34.74,0,0.014,-0.033,0.033,-0.267,0.003,-0.029,1.000,0.000,0.000,0.000
6,0.8721,0.1973,0.0140,-0.0012,0.0041,0.0056,-1.50,0.09,-34.71,0,0.013,0.050,-0.211,0.011,0.001,-0.027,1.000,0.000,0.000,0.000
6,0.8726,0.1955,0.0141,0.0013,-0.0064,0.0059,-1.46,0.05,-34.68,0,0.013,-0.230,0.199,-0.187,0.002,-0.027,1.000,0.000,0.000,0.000
6,0.8717,0.1968,0.0142,-0.0035,0.0009,0.0060,-1.46,0.05,-34.64,0,0.013,0.208,0.239,-0.313,0.004,-0.026,0.999,0.000,0.000,0.000
6,0.8720,0.1957,0.0142,-0.0022,-0.0055,0.0061,-1.47,0.06,-34.61,0,0.013,-0.143,0.330,0.160,0.003,-0.028,0.998,0.000,0.000,0.000
6,0.8718,0.1955,0.0138,-0.0029,-0.0063,0.0035,-1.50,0.05,-34.58,0,0.013,0.002,0.033,0.013,0.002,-0.030,1.002,0.000,0.000,0.000
6,0.8718,0.1958,0.0138,-0.0032,-0.0047,0.0037,-1.52,0.08,-34.54,0,0.010,-0.100,-0.133,-0.028,0.000,-0.028,0.999,0.000,0.000,0.000
6,0.8722,0.1965,0.0139,-0.0005,-0.0011,0.0037,-1.51,0.05,-34.51,0,0.010,-0.274,-0.101,0.163,0.003,-0.025,1.001,0.000,0.000,0.000
7,0.8720,0.1972,0.0139,-0.0019,0.0027,0.0037,-1.47,0.05,-34.47,0,0.010,-0.415,0.276,-0.358,0.003,-0.025,1.001,0.000,0.000,0.000
7,0.8724,0.1966,0.0139,0.0004,-0.0003,0.0037,-1.55,0.08,-34.44,0,0.010,0.019,-0.140,-0.301,0.003,-0.028,1.001,0.000,0.000,0.000
7,0.8718,0.1958,0.0140,-0.0025,-0.0050,0.0037,-1.53,0.05,-34.41,0,0.010,-0.131,-0.112,-0.178,0.004,-0.026,1.001,0.000,0.000,0.000
7,0.8722,0.1975,0.0123,-0.0002,0.0039,-0.0053,-1.47,0.04,-34.38,0,0.011,0.077,0.023,-0.295,0.003,-0.025,0.998,0.000,0.000,0.000
7,0.8725,0.1968,0.0123,0.0011,-0.0001,-0.0051,-1.51,0.04,-34.35,0,0.011,0.123,0.162,-0.309,0.004,-0.025,1.000,0.000,0.000,0.000
7,0.8719,0.1957,0.0122,-0.0017,-0.0062,-0.0051,-1.50,0.01,-34.32,0,0.011,0.240,0.049,-0.223,0.002,-0.026,1.000,0.000,0.000,0.000
7,0.8724,0.1963,0.0122,0.0012,-0.0023,-0.0049,-1.54,0.08,-34.28,0,0.011,-0.211,0.077,0.081,0.002,-0.027,1.000,0.000,0.000,0.000
7,0.8729,0.1957,0.0117,0.0043,-0.0058,-0.0072,-1.54,0.08,-34.25,0,0.011,0.117,-0.118,-0.485,0.002,-0.030,1.000,0.000,0.000,0.000
7,0.8722,0.1974,0.0116,0.0001,0.0038,-0.0069,-1.51,0.05,-34.22,0,0.016,-0.159,0.168,-0.119,0.002,-0.028,1.000,0.000,0.000,0.000
7,0.8722,0.1975,0.0116,0.0004,0.0039,-0.0070,-1.45,0.03,-34.19,0,0.016,0.160,0.235,0.093,0.004,-0.028,0.999,0.000,0.000,0.000
7,0.8723,0.1966,0.0115,0.0014,-0.0012,-0.0070,-1.49,0.01,-34.15,0,0.016,-0.193,-0.243,-0.068,0.003,-0.026,0.998,0.000,0.000,0.000
7,0.8720,0.1953,0.0114,-0.0005,-0.0083,-0.0069,-1.52,0.08,-34.12,0,0.016,-0.119,-0.022,-0.449,0.000,-0.027,1.000,0.000,0.000,0.000
7,0.8728,0.1958,0.0114,0.0041,-0.0056,-0.0069,-1.49,0.02,-34.09,0,0.016,0.084,-0.080,-0.384,0.003,-0.028,0.998,0.000,0.000,0.000
7,0.8719,0.1972,0.0133,-0.0009,0.0023,0.0038,-1.46,0.01,-34.06,0,0.015,0.217,-0.097,-0.043,0.001,-0.026,0.998,0.000,0.000,0.000
7,0.8728,0.1959,0.0134,0.0037,-0.0055,0.0039,-1.48,0.01,-34.03,0,0.015,-0.228,0.058,0.151,-0.000,-0.026,1.000,0.000,0.000,0.000
7,0.8726,0.1952,0.0134,0.0027,-0.0090,0.0039,-1.46,0.02,-33.99,0,0.015,0.087,0.171,-0.101,0.001,-0.025,1.001,0.000,0.000,0.000
7,0.8728,0.1956,0.0135,0.0040,-0.0068,0.0038,-1.46,0.02,-33.96,0,0.015,0.028,0.087,-0.497,0.005,-0.024,1.002,0.000,0.000,0.000
7,0.8724,0.1954,0.0141,0.0017,-0.0077,0.0070,-1.51,0.05,-33.93,0,0.015,-0.013,-0.235,0.074,0.004,-0.026,1.000,0.000,0.000,0.000
8,0.8725,0.1953,0.0142,0.0017,-0.0080,0.0069,-1.51,0.05,-33.90,0,0.013,-0.169,0.259,-0.295,0.002,-0.026,0.999,0.000,0.000,0.000
8,0.8725,0.1966,0.0143,0.0021,-0.0005,0.0068,-1.51,0.04,-33.87,0,0.013,0.122,0.181,-0.220,0.000,-0.025,0.999,0.000,0.000,0.000
8,0.8727,0.1964,0.0143,0.0030,-0.0010,0.0068,-1.51,0.05,-33.83,0,0.013,-0.230,-0.076,0.115,0.000,-0.024,0.998,0.000,0.000,0.000
8,0.8727,0.1964,0.0144,0.0030,-0.0009,0.0068,-1.48,0.09,-33.80,0,0.013,-0.119,0.106,-0.020,0.002,-0.026,1.000,0.000,0.000,0.000
8,0.8726,0.1966,0.0145,0.0021,-0.0002,0.0070,-1.53,0.07,-33.77,0,0.013,-0.083,-0.003,0.031,0.003,-0.027,1.002,0.000,0.000,0.000
8,0.8714,0.1965,0.0139,-0.0042,-0.0007,0.0035,-1.49,0.02,-33.73,0,0.011,-0.302,0.026,-0.202,0.001,-0.027,1.000,0.000,0.000,0.000
8,0.8724,0.1972,0.0139,0.0017,0.0031,0.0035,-1.54,0.09,-33.70,0,0.011,0.074,0.253,-0.255,0.002,-0.026,1.000,0.000,0.000,0.000
8,0.8728,0.1958,0.0140,0.0041,-0.0045,0.0036,-1.46,0.04,-33.67,0,0.011,0.037,-0.137,-0.187,0.002,-0.028,0.999,0.000,0.000,0.000
8,0.8722,0.1976,0.0140,0.0002,0.0057,0.0036,-1.47,0.05,-33.64,0,0.011,-0.297,-0.141,0.078,0.001,-0.030,1.000,0.000,0.000,0.000
8,0.8721,0.1955,0.0141,-0.0000,-0.0061,0.0037,-1.47,0.05,-33.61,0,0.011,-0.189,-0.092,-0.281,0.001,-0.028,1.000,0.000,0.000,0.000
8,0.8722,0.1959,0.0128,0.0003,-0.0034,-0.0027,-1.50,0.02,-33.58,0,0.012,-0.138,-0.029,-0.202,0.001,-0.027,1.001,0.000,0.000,0.000
8,0.8722,0.1959,0.0128,0.0004,-0.0035,-0.0026,-1.50,0.03,-33.54,0,0.012,-0.158,0.077,-0.291,0.003,-0.024,1.001,0.000,0.000,0.000
8,0.8730,0.1959,0.0128,0.0049,-0.0034,-0.0026,-1.54,0.09,-33.51,0,0.012,0.111,0.250,-0.097,0.002,-0.024,0.999,0.000,0.000,0.000
8,0.8728,0.1960,0.0127,0.0037,-0.0027,-0.0026,-1.42,0.02,-33.48,0,0.012,-0.062,0.038,-0.072,0.001,-0.026,1.000,0.000,0.000,0.000
8,0.8722,0.1976,0.0127,-0.0001,0.0053,-0.0026,-1.46,0.02,-33.45,0,0.012,-0.043,0.011,0.047,0.002,-0.027,1.000,0.000,0.000,0.000
8,0.8721,0.1946,0.0124,-0.0006,-0.0109,-0.0040,-1.50,0.04,-33.42,0,0.012,-0.254,0.199,-0.024,0.001,-0.031,1.003,0.000,0.000,0.000
8,0.8725,0.1952,0.0124,0.0014,-0.0074,-0.0039,-1.49,0.02,-33.39,0,0.012,-0.124,0.072,-0.060,0.001,-0.027,1.001,0.000,0.000,0.000
8,0.8726,0.1962,0.0124,0.0022,-0.0018,-0.0037,-1.45,0.01,-33.35,0,0.012,-0.236,-0.125,-0.310,0.000,-0.027,1.001,0.000,0.000,0.000
8,0.8729,0.1958,0.0123,0.0036,-0.0039,-0.0037,-1.52,0.07,-33.32,0,0.012,0.215,0.101,-0.134,0.001,-0.027,1.001,0.000,0.000,0.000
9,0.8726,0.1949,0.0123,0.0019,-0.0083,-0.0037,-1.51,0.09,-33.29,0,0.012,-0.182,-0.143,-0.307,0.002,-0.026,1.002,0.000,0.000,0.000
9,0.8723,0.1969,0.0121,0.0005,0.0028,-0.0042,-1.48,0.02,-33.26,0,0.013,0.078,-0.020,0.022,0.003,-0.027,1.000,0.000,0.000,0.000
9,0.8718,0.1970,0.0121,-0.0022,0.0028,-0.0039,-1.48,0.05,-33.23,0,0.013,-0.323,0.113,0.163,0.002,-0.027,0.997,0.000,0.000,0.000
9,0.8728,0.1956,0.0121,0.0027,-0.0050,-0.0036,-1.55,0.09,-33.19,0,0.013,0.123,-0.139,-0.184,0.002,-0.028,1.000,0.000,0.000,0.000
9,0.8722,0.1960,0.0121,-0.0004,-0.0029,-0.0035,-1.49,0.03,-33.16,0,0.013,-0.218,0.053,-0.460,0.003,-0.028,1.000,0.000,0.000,0.000
9,0.8723,0.1977,0.0120,0.0002,0.0066,-0.0033,-1.46,0.02,-33.14,0,0.013,-0.093,-0.309,0.071,0.002,-0.026,0.998,0.000,0.000,0.000
9,0.8729,0.1959,0.0125,0.0031,-0.0036,-0.0007,-1.50,0.02,-33.10,0,0.015,-0.060,-0.100,-0.089,0.002,-0.025,0.999,0.000,0.000,0.000
9,0.8727,0.1952,0.0124,0.0022,-0.0070,-0.0005,-1.52,0.10,-33.07,0,0.015,-0.160,0.154,0.495,0.002,-0.026,0.999,0.000,0.000,0.000
9,0.8732,0.1959,0.0124,0.0046,-0.0030,-0.0007,-1.51,0.06,-33.04,0,0.015,0.180,0.058,-0.536,0.002,-0.029,1.000,0.000,0.000,0.000
9,0.8720,0.1972,0.0125,-0.0020,0.0038,-0.0007,-1.50,0.10,-33.01,0,0.015,-0.051,0.097,-0.234,0.003,-0.027,1.000,0.000,0.000,0.000
9,0.8726,0.1966,0.0135,0.0014,0.0002,0.0048,-1.47,0.03,-32.98,0,0.015,-0.097,-0.226,-0.078,0.001,-0.025,1.000,0.000,0.000,0.000
9,0.8719,0.1971,0.0135,-0.0024,0.0026,0.0047,-1.47,0.03,-32.94,0,0.013,0.308,0.004,-0.321,0.001,-0.024,1.000,0.000,0.000,0.000
9,0.8728,0.1957,0.0136,0.0026,-0.0047,0.0047,-1.46,0.05,-32.91,0,0.013,0.146,0.112,-0.043,0.002,-0.028,1.000,0.000,0.000,0.000
9,0.8728,0.1957,0.0136,0.0028,-0.0048,0.0046,-1.44,0.02,-32.88,0,0.013,-0.040,0.095,0.023,0.001,-0.029,0.999,0.000,0.000,0.000
9,0.8723,0.1957,0.0137,-0.0000,-0.0045,0.0047,-1.53,0.11,-32.85,0,0.013,0.293,0.084,-0.178,0.003,-0.028,0.998,0.000,0.000,0.000
9,0.8726,0.1950,0.0137,0.0017,-0.0084,0.0047,-1.46,0.03,-32.82,0,0.013,0.061,0.179,-0.004,0.004,-0.029,0.998,0.000,0.000,0.000
9,0.8720,0.1977,0.0135,-0.0014,0.0065,0.0031,-1.48,0.06,-32.79,0,0.012,0.120,-0.089,-0.050,0.001,-0.026,0.996,0.000,0.000,0.000
9,0.8727,0.1955,0.0135,0.0021,-0.0056,0.0034,-1.46,0.03,-32.76,0,0.012,-0.244,0.048,-0.126,0.002,-0.027,0.998,0.000,0.000,0.000
10,0.8724,0.1962,0.0136,0.0004,-0.0016,0.0035,-1.45,0.04,-32.72,0,0.012,-0.174,0.325,-0.037,0.001,-0.026,0.999,0.000,0.000,0.000
10,0.8727,0.1955,0.0136,0.0018,-0.0056,0.0034,-1.46,0.03,-32.69,0,0.012,0.104,-0.000,-0.145,0.001,-0.027,1.002,0.000,0.000,0.000
10,0.8724,0.1954,0.0130,0.0001,-0.0059,-0.0001,-1.50,0.10,-32.66,0,0.012,0.204,-0.143,-0.227,0.001,-0.028,1.001,0.000,0.000,0.000
10,0.8727,0.1955,0.0130,0.0018,-0.0056,-0.0003,-1.52,0.10,-32.63,0,0.014,-0.014,-0.067,-0.276,-0.001,-0.029,0.999,0.000,0.000,0.000
10,0.8719,0.1970,0.0130,-0.0026,0.0027,-0.0005,-1.45,0.03,-32.60,0,0.014,-0.071,-0.021,-0.345,0.000,-0.028,1.001,0.000,0.000,0.000
10,0.8722,0.1976,0.0130,-0.0006,0.0054,-0.0008,-1.49,0.06,-32.57,0,0.014,0.061,0.127,0.064,0.004,-0.028,1.002,0.000,0.000,0.000
10,0.8727,0.1955,0.0130,0.0019,-0.0060,-0.0006,-1.47,0.10,-32.54,0,0.014,-0.208,0.170,0.102,0.002,-0.026,0.999,0.000,0.000,0.000
10,0.8726,0.1966,0.0130,0.0013,-0.0001,-0.0004,-1.51,0.10,-32.51,0,0.014,-0.022,-0.311,-0.295,0.002,-0.024,0.999,0.000,0.000,0.000
10,0.8717,0.1967,0.0134,-0.0039,0.0003,0.0021,-1.48,0.03,-32.48,0,0.014,-0.320,0.125,0.044,0.003,-0.027,1.002,0.000,0.000,0.000
10,0.8721,0.1974,0.0135,-0.0015,0.0040,0.0021,-1.46,0.03,-32.45,0,0.014,0.092,-0.016,-0.247,0.003,-0.028,1.002,0.000,0.000,0.000
10,0.8730,0.1961,0.0135,0.0032,-0.0035,0.0023,-1.49,0.05,-32.42,0,0.014,-0.085,-0.161,0.116,0.004,-0.027,1.003,0.000,0.000,0.000
10,0.8728,0.1957,0.0135,0.0020,-0.0054,0.0026,-1.53,0.10,-32.38,0,0.014,-0.192,-0.079,-0.266,0.001,-0.026,0.999,0.000,0.000,0.000
10,0.8728,0.1965,0.0137,0.0019,-0.0012,0.0036,-1.45,0.02,-32.35,0,0.014,0.070,0.212,-0.304,0.003,-0.027,0.998,0.000,0.000,0.000
10,0.8723,0.1977,0.0138,-0.0005,0.0061,0.0035,-1.47,0.06,-32.32,0,0.014,-0.309,-0.168,0.186,0.001,-0.028,0.998,0.000,0.000,0.000
10,0.8728,0.1955,0.0138,0.0025,-0.0073,0.0038,-1.46,0.05,-32.29,0,0.014,-0.123,-0.044,0.071,0.001,-0.029,0.998,0.000,0.000,0.000
10,0.8724,0.1963,0.0139,-0.0002,-0.0028,0.0041,-1.44,0.03,-32.26,0,0.014,0.030,0.294,-0.129,0.001,-0.028,1.000,0.000,0.000,0.000
10,0.8723,0.1958,0.0139,-0.0003,-0.0055,0.0044,-1.47,0.10,-32.23,0,0.014,-0.067,0.034,-0.048,0.002,-0.028,0.999,0.000,0.000,0.000
10,0.8725,0.1952,0.0140,0.0004,-0.0084,0.0045,-1.45,0.04,-32.20,0,0.014,-0.096,-0.084,-0.240,0.004,-0.028,1.001,0.000,0.000,0.000
10,0.8716,0.1965,0.0140,-0.0044,-0.0009,0.0043,-1.45,0.03,-32.17,0,0.013,-0.342,-0.007,0.035,0.003,-0.027,0.999,0.000,0.000,0.000
11,0.8724,0.1955,0.0141,0.0004,-0.0066,0.0043,-1.53,0.10,-32.14,0,0.013,-0.064,-0.083,-0.442,0.001,-0.028,0.999,0.000,0.000,0.000
11,0.8726,0.1954,0.0141,0.0012,-0.0072,0.0041,-1.50,0.10,-32.11,0,0.013,0.222,-0.142,-0.436,0.002,-0.025,1.000,0.000,0.000,0.000
11,0.8723,0.1977,0.0142,-0.0003,0.0060,0.0042,-1.53,0.10,-32.08,0,0.013,-0.072,0.160,-0.281,0.003,-0.027,0.999,0.000,0.000,0.000
11,0.8720,0.1972,0.0142,-0.0021,0.0027,0.0043,-1.49,0.02,-32.05,0,0.013,-0.278,-0.034,0.101,0.002,-0.026,1.000,0.000,0.000,0.000
11,0.8723,0.1977,0.0138,-0.0002,0.0051,0.0016,-1.50,0.06,-32.02,0,0.016,-0.134,-0.269,-0.255,0.002,-0.025,1.002,0.000,0.000,0.000
11,0.8733,0.1962,0.0138,0.0052,-0.0039,0.0017,-1.45,0.05,-31.99,0,0.016,0.329,-0.043,-0.169,0.001,-0.026,0.999,0.000,0.000,0.000
11,0.8727,0.1968,0.0138,0.0017,-0.0005,0.0017,-1.44,0.03,-31.96,0,0.016,0.168,0.152,0.188,0.001,-0.029,1.000,0.000,0.000,0.000
11,0.8723,0.1958,0.0138,-0.0003,-0.0058,0.0018,-1.45,0.10,-31.92,0,0.016,-0.201,-0.038,0.093,0.001,-0.027,0.998,0.000,0.000,0.000
11,0.8727,0.1953,0.0138,0.0021,-0.0084,0.0017,-1.47,0.03,-31.89,0,0.016,-0.021,0.037,-0.134,0.000,-0.026,1.001,0.000,0.000,0.000
11,0.8714,0.1962,0.0148,-0.0055,-0.0033,0.0068,-1.45,0.03,-31.87,0,0.014,0.240,-0.105,-0.190,0.000,-0.026,1.000,0.000,0.000,0.000
11,0.8730,0.1957,0.0149,0.0036,-0.0059,0.0071,-1.44,0.03,-31.84,0,0.014,-0.021,0.104,0.125,0.001,-0.027,0.999,0.000,0.000,0.000
11,0.8728,0.1953,0.0150,0.0022,-0.0075,0.0071,-1.47,0.03,-31.81,0,0.014,-0.050,-0.123,-0.335,0.003,-0.025,1.000,0.000,0.000,0.000
11,0.8727,0.1952,0.0150,0.0014,-0.0083,0.0070,-1.47,0.03,-31.78,0,0.014,-0.099,0.116,0.235,0.002,-0.028,0.999,0.000,0.000,0.000
11,0.8730,0.1957,0.0151,0.0031,-0.0052,0.0070,-1.47,0.03,-31.74,0,0.014,-0.103,-0.322,-0.301,0.003,-0.028,0.999,0.000,0.000,0.000
11,0.8730,0.1956,0.0147,0.0030,-0.0053,0.0046,-1.47,0.03,-31.71,0,0.012,-0.144,0.185,0.043,0.002,-0.025,1.000,0.000,0.000,0.000
11,0.8730,0.1956,0.0148,0.0030,-0.0053,0.0047,-1.46,0.03,-31.68,0,0.012,-0.025,-0.154,-0.140,0.002,-0.026,1.001,0.000,0.000,0.000
11,0.8731,0.1955,0.0148,0.0029,-0.0055,0.0046,-1.50,0.08,-31.65,0,0.012,-0.134,-0.062,0.020,0.002,-0.026,1.000,0.000,0.000,0.000
11,0.8729,0.1953,0.0149,0.0022,-0.0063,0.0046,-1.50,0.04,-31.62,0,0.012,-0.077,-0.271,-0.253,0.000,-0.025,1.000,0.000,0.000,0.000
11,0.8726,0.1966,0.0149,0.0005,0.0009,0.0046,-1.48,0.04,-31.59,0,0.012,-0.134,0.112,0.149,0.002,-0.027,0.999,0.000,0.000,0.000
12,0.8734,0.1961,0.0137,0.0046,-0.0021,-0.0022,-1.53,0.12,-31.56,0,0.016,-0.199,-0.093,0.002,0.003,-0.028,1.000,0.000,0.000,0.000
12,0.8731,0.1957,0.0137,0.0032,-0.0042,-0.0021,-1.47,0.05,-31.53,0,0.016,0.231,-0.035,-0.288,0.002,-0.027,1.000,0.000,0.000,0.000
12,0.8722,0.1977,0.0136,-0.0020,0.0065,-0.0020,-1.47,0.04,-31.50,0,0.016,0.003,0.159,0.041,0.002,-0.028,1.000,0.000,0.000,0.000
12,0.8728,0.1957,0.0137,0.0015,-0.0045,-0.0017,-1.54,0.12,-31.47,0,0.016,0.012,0.067,0.072,0.002,-0.028,1.001,0.000,0.000,0.000
12,0.8730,0.1956,0.0146,0.0025,-0.0048,0.0032,-1.44,0.04,-31.44,0,0.016,0.041,0.112,-0.271,0.002,-0.027,0.999,0.000,0.000,0.000
12,0.8723,0.1978,0.0146,-0.0013,0.0075,0.0032,-1.50,0.08,-31.41,0,0.014,-0.006,0.031,-0.308,0.003,-0.027,1.002,0.000,0.000,0.000
12,0.8727,0.1950,0.0147,0.0007,-0.0082,0.0036,-1.50,0.12,-31.38,0,0.014,-0.129,0.024,0.015,0.002,-0.030,1.002,0.000,0.000,0.000
12,0.8726,0.1966,0.0148,0.0004,0.0006,0.0037,-1.51,0.09,-31.35,0,0.014,-0.180,-0.158,-0.113,0.002,-0.028,1.000,0.000,0.000,0.000
12,0.8719,0.1971,0.0148,-0.0037,0.0029,0.0037,-1.51,0.12,-31.32,0,0.014,-0.320,0.386,-0.205,0.001,-0.024,1.000,0.000,0.000,0.000
12,0.8726,0.1969,0.0148,-0.0001,0.0018,0.0039,-1.47,0.04,-31.29,0,0.014,0.008,0.083,0.048,0.002,-0.026,1.001,0.000,0.000,0.000
12,0.8720,0.1973,0.0145,-0.0030,0.0034,0.0019,-1.48,0.07,-31.26,0,0.012,0.032,-0.100,-0.445,0.002,-0.029,1.002,0.000,0.000,0.000
12,0.8728,0.1958,0.0145,0.0017,-0.0050,0.0022,-1.48,0.05,-31.24,0,0.012,0.036,-0.243,-0.349,0.003,-0.027,1.000,0.000,0.000,0.000
12,0.8724,0.1963,0.0146,-0.0008,-0.0023,0.0025,-1.50,0.05,-31.21,0,0.012,-0.111,0.046,-0.140,0.003,-0.027,1.002,0.000,0.000,0.000
12,0.8730,0.1959,0.0146,0.0021,-0.0043,0.0025,-1.51,0.11,-31.18,0,0.012,-0.230,0.182,0.080,-0.000,-0.027,1.001,0.000,0.000,0.000
12,0.8733,0.1965,0.0136,0.0037,-0.0011,-0.0030,-1.46,0.11,-31.15,0,0.012,0.219,0.035,-0.182,0.003,-0.026,0.998,0.000,0.000,0.000
12,0.8721,0.1974,0.0136,-0.0027,0.0041,-0.0029,-1.47,0.09,-31.12,0,0.015,-0.123,-0.112,0.031,0.003,-0.027,0.999,0.000,0.000,0.000
12,0.8716,0.1965,0.0135,-0.0056,-0.0012,-0.0026,-1.48,0.05,-31.09,0,0.015,-0.148,0.117,0.015,0.002,-0.025,1.000,0.000,0.000,0.000
12,0.8720,0.1965,0.0135,-0.0028,-0.0016,-0.0025,-1.45,0.11,-31.05,0,0.015,-0.004,-0.059,0.015,0.002,-0.026,0.997,0.000,0.000,0.000
13,0.8730,0.1961,0.0135,0.0030,-0.0036,-0.0023,-1.47,0.08,-31.02,0,0.015,-0.157,0.095,-0.351,0.002,-0.027,0.999,0.000,0.000,0.000
13,0.8714,0.1962,0.0135,-0.0065,-0.0033,-0.0021,-1.47,0.04,-31.00,0,0.015,-0.112,-0.293,-0.068,0.003,-0.026,1.001,0.000,0.000,0.000
13,0.8721,0.1962,0.0141,-0.0020,-0.0029,0.0013,-1.46,0.06,-30.97,0,0.012,0.029,0.202,-0.397,0.003,-0.027,1.000,0.000,0.000,0.000
13,0.8730,0.1957,0.0141,0.0030,-0.0059,0.0012,-1.47,0.11,-30.94,0,0.012,-0.162,-0.146,0.121,0.002,-0.027,1.000,0.000,0.000,0.000
13,0.8725,0.1957,0.0142,0.0004,-0.0054,0.0013,-1.46,0.04,-30.91,0,0.012,-0.144,-0.143,-0.275,0.003,-0.029,1.001,0.000,0.000,0.000
13,0.8716,0.1965,0.0142,-0.0050,-0.0006,0.0011,-1.51,0.11,-30.88,0,0.012,-0.211,0.117,-0.185,0.004,-0.026,0.999,0.000,0.000,0.000
13,0.8729,0.1955,0.0133,0.0027,-0.0066,-0.0037,-1.51,0.07,-30.85,0,0.012,-0.144,-0.228,0.077,0.002,-0.025,1.002,0.000,0.000,0.000
13,0.8720,0.1972,0.0133,-0.0023,0.0034,-0.0035,-1.49,0.08,-30.82,0,0.011,0.014,-0.114,-0.116,0.001,-0.027,0.999,0.000,0.000,0.000
13,0.8727,0.1968,0.0133,0.0018,0.0008,-0.0035,-1.50,0.09,-30.79,0,0.011,-0.208,-0.330,-0.099,0.001,-0.030,0.999,0.000,0.000,0.000
13,0.8723,0.1966,0.0132,-0.0004,-0.0007,-0.0034,-1.51,0.10,-30.76,0,0.011,0.256,-0.060,-0.297,0.001,-0.028,1.001,0.000,0.000,0.000
13,0.8724,0.1967,0.0132,0.0001,0.0001,-0.0033,-1.47,0.12,-30.73,0,0.011,-0.309,0.103,0.199,0.003,-0.027,1.001,0.000,0.000,0.000
13,0.8723,0.1970,0.0132,-0.0001,0.0016,-0.0033,-1.48,0.04,-30.70,0,0.011,-0.097,0.049,-0.332,0.002,-0.024,1.000,0.000,0.000,0.000
13,0.8717,0.1967,0.0122,-0.0038,-0.0003,-0.0082,-1.47,0.04,-30.67,0,0.012,-0.006,-0.078,0.055,0.001,-0.026,0.999,0.000,0.000,0.000
13,0.8731,0.1959,0.0121,0.0042,-0.0050,-0.0082,-1.45,0.07,-30.64,0,0.012,-0.074,0.098,-0.248,0.004,-0.027,1.000,0.000,0.000,0.000
13,0.8730,0.1957,0.0121,0.0032,-0.0060,-0.0083,-1.48,0.08,-30.62,0,0.012,-0.139,0.238,0.002,0.002,-0.025,1.000,0.000,0.000,0.000
13,0.8723,0.1956,0.0120,-0.0011,-0.0061,-0.0081,-1.50,0.04,-30.59,0,0.012,-0.010,-0.232,-0.353,0.002,-0.025,1.002,0.000,0.000,0.000
13,0.8724,0.1963,0.0119,-0.0003,-0.0024,-0.0079,-1.50,0.07,-30.56,0,0.012,-0.067,-0.047,-0.102,0.003,-0.025,1.001,0.000,0.000,0.000
13,0.8733,0.1962,0.0119,0.0048,-0.0025,-0.0077,-1.48,0.05,-30.53,0,0.015,0.097,0.241,0.090,0.003,-0.026,1.000,0.000,0.000,0.000
13,0.8729,0.1964,0.0118,0.0026,-0.0012,-0.0076,-1.47,0.05,-30.50,0,0.015,-0.156,0.003,-0.236,0.002,-0.027,1.000,0.000,0.000,0.000
14,0.8731,0.1959,0.0117,0.0034,-0.0043,-0.0076,-1.49,0.12,-30.47,0,0.015,-0.319,-0.087,-0.146,0.001,-0.028,0.999,0.000,0.000,0.000
14,0.8730,0.1957,0.0116,0.0028,-0.0050,-0.0075,-1.50,0.12,-30.44,0,0.015,0.018,0.045,0.226,0.002,-0.027,0.999,0.000,0.000,0.000
14,0.8718,0.1968,0.0116,-0.0038,0.0017,-0.0072,-1.49,0.09,-30.41,0,0.015,-0.233,-0.172,-0.082,0.002,-0.027,0.999,0.000,0.000,0.000
14,0.8719,0.1970,0.0130,-0.0028,0.0027,0.0010,-1.48,0.05,-30.38,0,0.014,0.113,0.180,-0.141,0.004,-0.025,1.001,0.000,0.000,0.000
14,0.8723,0.1966,0.0131,-0.0003,-0.0001,0.0011,-1.47,0.05,-30.35,0,0.014,0.068,0.095,-0.312,0.004,-0.025,1.000,0.000,0.000,0.000
14,0.8731,0.1959,0.0131,0.0040,-0.0040,0.0012,-1.49,0.08,-30.32,0,0.014,-0.182,0.250,0.066,0.005,-0.029,0.999,0.000,0.000,0.000
14,0.8730,0.1957,0.0131,0.0032,-0.0048,0.0011,-1.46,0.04,-30.29,0,0.014,-0.292,-0.053,-0.147,0.003,-0.027,1.001,0.000,0.000,0.000
14,0.8725,0.1965,0.0131,0.0004,-0.0006,0.0011,-1.45,0.04,-30.26,0,0.014,-0.056,-0.145,0.091,0.001,-0.026,0.999,0.000,0.000,0.000
14,0.8731,0.1954,0.0135,0.0035,-0.0064,0.0030,-1.47,0.07,-30.23,0,0.012,-0.280,0.016,-0.098,0.001,-0.025,0.999,0.000,0.000,0.000
14,0.8729,0.1951,0.0135,0.0025,-0.0081,0.0031,-1.47,0.06,-30.21,0,0.012,-0.115,-0.146,-0.047,-0.001,-0.026,0.999,0.000,0.000,0.000
14,0.8726,0.1958,0.0136,0.0009,-0.0042,0.0032,-1.53,0.13,-30.18,0,0.012,0.265,0.132,-0.213,0.001,-0.026,0.998,0.000,0.000,0.000
14,0.8727,0.1957,0.0136,0.0019,-0.0048,0.0031,-1.46,0.10,-30.15,0,0.012,-0.184,-0.460,-0.196,0.002,-0.027,0.999,0.000,0.000,0.000
14,0.8722,0.1976,0.0136,-0.0009,0.0058,0.0033,-1.47,0.10,-30.12,0,0.012,0.027,-0.146,-0.278,0.002,-0.029,1.002,0.000,0.000,0.000
14,0.8720,0.1959,0.0130,-0.0025,-0.0039,-0.0003,-1.47,0.06,-30.09,0,0.009,0.173,-0.111,-0.527,0.003,-0.027,0.999,0.000,0.000,0.000
14,0.8721,0.1960,0.0130,-0.0019,-0.0027,-0.0004,-1.47,0.09,-30.06,0,0.009,0.014,0.181,0.255,0.001,-0.028,0.998,0.000,0.000,0.000
14,0.8729,0.1956,0.0130,0.0027,-0.0053,-0.0005,-1.50,0.06,-30.03,0,0.009,-0.160,-0.134,-0.139,0.001,-0.028,1.000,0.000,0.000,0.000
14,0.8722,0.1959,0.0130,-0.0014,-0.0028,-0.0006,-1.45,0.13,-30.00,0,0.009,-0.083,-0.153,-0.083,0.005,-0.028,0.999,0.000,0.000,0.000
14,0.8733,0.1962,0.0114,0.0046,-0.0014,-0.0089,-1.45,0.06,-29.98,0,0.009,-0.108,-0.013,0.026,0.003,-0.026,1.000,0.000,0.000,0.000
14,0.8713,0.1960,0.0113,-0.0067,-0.0028,-0.0087,-1.48,0.06,-29.95,0,0.011,-0.097,0.445,-0.247,0.004,-0.025,1.000,0.000,0.000,0.000
15,0.8727,0.1952,0.0112,0.0013,-0.0073,-0.0086,-1.50,0.13,-29.92,0,0.011,0.160,-0.101,-0.260,0.003,-0.026,1.001,0.000,0.000,0.000
15,0.8730,0.1957,0.0112,0.0027,-0.0042,-0.0087,-1.48,0.10,-29.89,0,0.011,-0.108,-0.172,-0.093,0.001,-0.028,1.000,0.000,0.000,0.000
15,0.8719,0.1970,0.0111,-0.0035,0.0031,-0.0086,-1.52,0.13,-29.86,0,0.011,0.017,0.112,-0.044,0.001,-0.029,0.999,0.000,0.000,0.000
15,0.8722,0.1963,0.0110,-0.0015,-0.0009,-0.0086,-1.45,0.05,-29.84,0,0.011,0.214,-0.053,-0.055,0.001,-0.027,1.000,0.000,0.000,0.000
15,0.8721,0.1973,0.0110,-0.0020,0.0046,-0.0085,-1.50,0.06,-29.81,0,0.012,-0.217,-0.012,0.031,0.001,-0.026,1.002,0.000,0.000,0.000
15,0.8728,0.1953,0.0109,0.0021,-0.0067,-0.0083,-1.48,0.06,-29.78,0,0.012,-0.268,-0.073,-0.286,0.001,-0.028,1.002,0.000,0.000,0.000
15,0.8733,0.1962,0.0108,0.0048,-0.0017,-0.0081,-1.54,0.13,-29.75,0,0.012,-0.075,0.033,0.084,0.002,-0.026,1.001,0.000,0.000,0.000
15,0.8731,0.1958,0.0107,0.0034,-0.0037,-0.0080,-1.50,0.13,-29.72,0,0.012,0.031,-0.006,0.002,0.001,-0.029,1.000,0.000,0.000,0.000
15,0.8723,0.1977,0.0112,-0.0012,0.0065,-0.0053,-1.44,0.07,-29.70,0,0.012,-0.138,-0.116,-0.093,0.003,-0.030,1.001,0.000,0.000,0.000
15,0.8719,0.1970,0.0112,-0.0035,0.0023,-0.0051,-1.49,0.08,-29.67,0,0.012,-0.072,0.022,-0.217,0.003,-0.028,1.000,0.000,0.000,0.000
15,0.8724,0.1954,0.0111,-0.0009,-0.0069,-0.0048,-1.53,0.09,-29.64,0,0.012,0.160,0.155,-0.041,0.002,-0.026,0.999,0.000,0.000,0.000
15,0.8727,0.1963,0.0111,0.0008,-0.0013,-0.0046,-1.48,0.13,-29.61,0,0.012,-0.205,0.090,-0.113,0.001,-0.027,0.999,0.000,0.000,0.000
15,0.8729,0.1971,0.0110,0.0020,0.0031,-0.0045,-1.51,0.13,-29.59,0,0.012,-0.028,-0.183,-0.112,0.002,-0.027,0.999,0.000,0.000,0.000
15,0.8717,0.1966,0.0110,-0.0049,0.0001,-0.0043,-1.52,0.13,-29.56,0,0.012,-0.153,0.091,-0.221,0.002,-0.027,0.999,0.000,0.000,0.000
15,0.8720,0.1972,0.0114,-0.0031,0.0028,-0.0018,-1.49,0.09,-29.53,0,0.013,-0.213,-0.132,-0.267,0.003,-0.026,0.999,0.000,0.000,0.000
15,0.8722,0.1975,0.0114,-0.0018,0.0044,-0.0018,-1.45,0.05,-29.51,0,0.013,0.027,0.077,-0.336,0.003,-0.027,0.998,0.000,0.000,0.000
15,0.8723,0.1965,0.0114,-0.0009,-0.0016,-0.0018,-1.50,0.12,-29.48,0,0.013,0.038,-0.031,-0.448,0.001,-0.026,0.997,0.000,0.000,0.000
15,0.8728,0.1954,0.0114,0.0018,-0.0084,-0.0019,-1.52,0.12,-29.45,0,0.013,-0.209,0.154,0.125,0.001,-0.025,0.999,0.000,0.000,0.000
16,0.8719,0.1970,0.0120,-0.0035,0.0016,0.0017,-1.48,0.05,-29.42,0,0.013,-0.134,-0.062,-0.149,0.002,-0.027,1.001,0.000,0.000,0.000
16,0.8721,0.1974,0.0120,-0.0022,0.0034,0.0016,-1.46,0.09,-29.40,0,0.013,0.054,0.122,-0.422,0.001,-0.028,0.999,0.000,0.000,0.000
16,0.8731,0.1959,0.0121,0.0037,-0.0053,0.0016,-1.47,0.06,-29.40,0,0.013,0.020,-0.013,-0.233,0.002,-0.026,0.999,0.000,0.000,0.000
16,0.8722,0.1960,0.0121,-0.0014,-0.0049,0.0016,-1.47,0.05,-29.37,0,0.013,-0.263,-0.323,0.087,0.004,-0.027,1.000,0.000,0.000,0.000
16,0.8727,0.1957,0.0121,0.0016,-0.0063,0.0013,-1.54,0.09,-29.34,0,0.013,-0.084,-0.178,-0.312,0.003,-0.027,1.000,0.000,0.000,0.000
16,0.8729,0.1956,0.0121,0.0025,-0.0065,0.0013,-1.49,0.09,-29.32,0,0.013,-0.432,0.151,0.160,0.000,-0.027,0.997,0.000,0.000,0.000
16,0.8730,0.1973,0.0125,0.0029,0.0038,0.0035,-1.46,0.07,-29.29,0,0.011,-0.097,0.344,-0.198,0.001,-0.028,0.998,0.000,0.000,0.000
16,0.8725,0.1965,0.0126,-0.0001,-0.0013,0.0036,-1.48,0.09,-29.26,0,0.011,-0.241,-0.138,0.113,0.002,-0.026,1.000,0.000,0.000,0.000
16,0.8726,0.1955,0.0126,0.0007,-0.0068,0.0036,-1.49,0.07,-29.23,0,0.011,-0.184,-0.144,-0.059,0.001,-0.027,0.999,0.000,0.000,0.000
16,0.8723,0.1961,0.0127,-0.0010,-0.0031,0.0037,-1.49,0.07,-29.20,0,0.011,-0.089,-0.131,-0.053,0.001,-0.027,0.998,0.000,0.000,0.000
16,0.8729,0.1960,0.0127,0.0025,-0.0037,0.0037,-1.49,0.10,-29.17,0,0.011,-0.050,0.274,-0.093,0.002,-0.027,0.997,0.000,0.000,0.000
16,0.8730,0.1960,0.0120,0.0024,-0.0039,-0.0002,-1.49,0.07,-29.15,0,0.011,0.128,0.301,-0.413,0.001,-0.030,0.999,0.000,0.000,0.000
16,0.8724,0.1963,0.0120,-0.0009,-0.0021,-0.0004,-1.50,0.13,-29.12,0,0.011,-0.325,-0.249,-0.156,0.001,-0.027,1.000,0.000,0.000,0.000
16,0.8730,0.1960,0.0120,0.0022,-0.0036,-0.0004,-1.46,0.08,-29.09,0,0.011,0.024,0.022,-0.145,0.002,-0.026,1.001,0.000,0.000,0.000
16,0.8719,0.1970,0.0120,-0.0039,0.0025,-0.0004,-1.45,0.07,-29.06,0,0.011,-0.137,-0.153,-0.419,0.001,-0.026,1.002,0.000,0.000,0.000
16,0.8723,0.1956,0.0120,-0.0015,-0.0055,-0.0004,-1.45,0.08,-29.04,0,0.011,0.049,-0.078,0.050,0.002,-0.031,1.000,0.000,0.000,0.000
16,0.8726,0.1953,0.0116,-0.0000,-0.0075,-0.0030,-1.50,0.05,-29.01,0,0.013,-0.036,0.290,-0.428,0.000,-0.028,1.000,0.000,0.000,0.000
16,0.8724,0.1953,0.0115,-0.0012,-0.0069,-0.0031,-1.50,0.06,-28.98,0,0.013,-0.129,0.030,0.199,0.002,-0.028,1.000,0.000,0.000,0.000
16,0.8734,0.1959,0.0115,0.0044,-0.0034,-0.0031,-1.45,0.08,-28.95,0,0.013,-0.048,-0.163,0.103,0.001,-0.027,1.001,0.000,0.000,0.000
17,0.8732,0.1960,0.0115,0.0033,-0.0027,-0.0030,-1.50,0.08,-28.92,0,0.013,0.174,0.132,-0.175,0.001,-0.026,1.000,0.000,0.000,0.000
17,0.8724,0.1953,0.0115,-0.0016,-0.0064,-0.0027,-1.45,0.07,-28.90,0,0.013,-0.084,-0.404,-0.225,0.002,-0.027,0.999,0.000,0.000,0.000
17,0.8729,0.1962,0.0121,0.0011,-0.0014,0.0006,-1.49,0.09,-28.87,0,0.011,-0.155,0.239,0.066,-0.000,-0.029,0.997,0.000,0.000,0.000
17,0.8728,0.1952,0.0121,0.0001,-0.0075,0.0007,-1.47,0.12,-28.84,0,0.011,-0.134,0.003,0.120,0.001,-0.027,1.000,0.000,0.000,0.000
17,0.8728,0.1961,0.0121,0.0003,-0.0023,0.0008,-1.47,0.09,-28.81,0,0.011,-0.247,0.077,-0.045,0.003,-0.026,1.001,0.000,0.000,0.000
17,0.8721,0.1960,0.0121,-0.0039,-0.0026,0.0009,-1.49,0.11,-28.78,0,0.011,-0.077,-0.178,-0.178,0.000,-0.025,0.998,0.000,0.000,0.000
17,0.8724,0.1958,0.0121,-0.0018,-0.0035,0.0010,-1.51,0.14,-28.76,0,0.011,-0.075,-0.028,0.103,0.001,-0.027,0.999,0.000,0.000,0.000
17,0.8722,0.1962,0.0117,-0.0032,-0.0014,-0.0017,-1.48,0.07,-28.73,0,0.013,-0.168,0.118,-0.102,0.001,-0.028,0.998,0.000,0.000,0.000
17,0.8718,0.1968,0.0116,-0.0051,0.0022,-0.0020,-1.51,0.08,-28.70,0,0.013,-0.083,0.095,0.038,0.003,-0.027,1.000,0.000,0.000,0.000
17,0.8728,0.1956,0.0116,0.0002,-0.0047,-0.0018,-1.46,0.08,-28.68,0,0.013,-0.169,-0.047,-0.234,0.002,-0.028,0.999,0.000,0.000,0.000
17,0.8729,0.1963,0.0116,0.0010,-0.0010,-0.0018,-1.54,0.14,-28.65,0,0.013,0.151,0.151,0.066,0.001,-0.028,1.000,0.000,0.000,0.000
17,0.8724,0.1954,0.0122,-0.0017,-0.0056,0.0011,-1.53,0.13,-28.62,0,0.013,-0.234,-0.199,-0.305,0.003,-0.027,1.001,0.000,0.000,0.000
17,0.8721,0.1974,0.0122,-0.0033,0.0057,0.0010,-1.54,0.13,-28.59,0,0.014,0.135,0.028,-0.120,0.001,-0.025,0.999,0.000,0.000,0.000
17,0.8720,0.1972,0.0122,-0.0038,0.0044,0.0008,-1.49,0.06,-28.57,0,0.014,-0.070,-0.028,-0.212,0.002,-0.024,0.999,0.000,0.000,0.000
17,0.8722,0.1975,0.0122,-0.0025,0.0060,0.0007,-1.50,0.13,-28.54,0,0.014,-0.115,0.202,-0.154,0.003,-0.028,1.002,0.000,0.000,0.000
17,0.8731,0.1959,0.0122,0.0027,-0.0035,0.0009,-1.48,0.11,-28.51,0,0.014,-0.119,-0.389,-0.124,0.003,-0.027,0.999,0.000,0.000,0.000
17,0.8718,0.1968,0.0123,-0.0047,0.0018,0.0010,-1.55,0.12,-28.48,0,0.014,-0.058,0.266,0.016,0.001,-0.027,1.003,0.000,0.000,0.000
17,0.8720,0.1963,0.0130,-0.0035,-0.0013,0.0050,-1.51,0.06,-28.46,0,0.013,-0.159,-0.190,-0.079,0.002,-0.027,1.004,0.000,0.000,0.000
17,0.8723,0.1977,0.0131,-0.0016,0.0068,0.0050,-1.47,0.06,-28.43,0,0.013,-0.067,-0.178,0.090,0.003,-0.026,1.001,0.000,0.000,0.000
18,0.8732,0.1964,0.0131,0.0034,-0.0010,0.0051,-1.46,0.12,-28.40,0,0.013,-0.144,-0.041,-0.352,0.001,-0.027,1.002,0.000,0.000,0.000
18,0.8728,0.1957,0.0132,0.0012,-0.0050,0.0053,0.00,0.00,0.00,0,0.013,-0.003,0.134,-0.189,0.002,-0.029,1.000,0.000,0.000,0.000
18,0.8715,0.1962,0.0132,-0.0062,-0.0022,0.0048,-0.00,0.00,-0.00,0,0.013,0.077,0.077,-0.031,0.002,-0.027,1.000,0.000,0.000,0.000
18,0.0000,0.0000,0.0000,0.0092,0.0035,0.0000,-0.00,0.01,-0.00,0,0.014,-0.246,-0.070,-0.407,0.001,-0.025,1.001,0.000,0.000,0.000
18,0.0001,0.0000,0.0000,0.0093,0.0011,0.0003,-0.01,0.01,-0.00,0,0.014,0.004,0.176,-0.155,0.001,-0.024,1.000,0.000,0.000,0.000
18,0.0002,0.0000,0.6275,0.0089,-0.0014,0.0004,-0.03,0.02,-0.01,0,0.014,0.100,-0.275,-0.615,-0.000,-0.028,0.999,0.000,0.000,0.000
18,0.0003,-0.0000,0.6306,0.0088,-0.0043,0.0006,-0.08,0.04,-0.01,0,0.014,-0.252,0.181,-0.119,0.000,-0.027,0.999,0.000,0.000,0.000
18,0.0003,-0.0000,0.6579,0.0082,-0.0060,0.0006,0.12,-0.16,-0.01,0,0.014,0.082,0.012,-0.291,0.002,-0.027,0.998,0.000,0.000,0.000
18,0.0003,0.0000,0.0140,0.0058,-0.0060,0.0006,0.16,0.06,-0.01,0,0.013,-0.319,0.114,-0.060,0.002,-0.025,1.000,0.000,0.000,0.000
18,0.0007,-0.0005,0.0140,0.0143,-0.0166,0.0005,-0.10,-0.14,-0.01,0,0.013,-0.333,0.059,-0.113,0.000,-0.027,1.000,0.000,0.000,0.000
18,0.0004,-0.0007,0.0140,0.0059,-0.0209,0.0005,-0.00,-0.11,-0.01,0,0.013,-0.040,0.382,-0.069,0.002,-0.028,1.000,0.000,0.000,0.000
18,0.0009,-0.0004,0.0141,0.0133,-0.0142,0.0006,-0.01,-0.09,-0.01,0,0.013,-0.118,-0.113,-0.435,0.002,-0.026,1.003,0.000,0.000,0.000
18,0.0010,-0.0008,0.0141,0.0125,-0.0201,0.0004,-0.07,-0.11,-0.01,0,0.013,-0.143,-0.039,0.083,0.002,-0.027,1.002,0.000,0.000,0.000
18,0.0010,-0.0010,0.0135,0.0118,-0.0226,-0.0003,-0.23,0.12,-0.02,0,0.015,-0.132,0.174,0.119,0.001,-0.027,1.004,0.000,0.000,0.000
18,0.0012,-0.0011,0.0135,0.0128,-0.0230,-0.0003,-0.03,-0.07,-0.02,0,0.015,-0.036,-0.244,-0.347,0.003,-0.027,1.001,0.000,0.000,0.000
18,0.0007,-0.0009,0.0136,0.0050,-0.0199,-0.0000,-0.03,-0.07,-0.02,0,0.015,-0.129,0.164,0.150,0.004,-0.031,1.000,0.000,0.000,0.000
18,0.0013,-0.0016,0.0136,0.0117,-0.0292,-0.0002,-0.07,-0.03,-0.02,0,0.015,-0.163,0.121,-0.093,0.002,-0.030,0.999,0.000,0.000,0.000
18,0.0014,-0.0019,0.0136,0.0121,-0.0317,0.0001,-0.49,-0.00,-0.02,0,0.015,-0.162,0.011,-0.336,-0.000,-0.027,0.999,0.000,0.000,0.000
19,0.0015,-0.0022,0.0142,0.0112,-0.0331,0.0028,-0.60,0.23,-0.02,0,0.014,0.106,-0.199,0.197,0.001,-0.027,1.001,0.000,0.000,0.000
19,0.0015,-0.0012,0.0143,0.0103,-0.0199,0.0036,-0.44,0.03,-0.02,0,0.014,-0.235,0.134,-0.311,0.003,-0.027,1.000,0.000,0.000,0.000
19,0.0008,-0.0010,0.0143,0.0016,-0.0177,0.0038,-0.45,0.15,-0.02,0,0.014,0.166,0.110,0.091,0.002,-0.027,1.001,0.000,0.000,0.000
19,0.0015,-0.0018,0.0144,0.0094,-0.0259,0.0037,-0.72,0.46,-0.02,0,0.014,-0.100,-0.015,0.152,0.003,-0.027,1.001,0.000,0.000,0.000
19,0.0011,-0.0020,0.0144,0.0046,-0.0272,0.0037,-0.77,0.06,-0.03,0,0.014,-0.012,0.305,-0.234,0.003,-0.025,1.001,0.000,0.000,0.000
19,-0.0000,-0.0012,0.0143,-0.0083,-0.0181,0.0030,-0.81,0.45,-0.02,0,0.012,-0.197,-0.092,-0.057,0.002,-0.027,0.998,0.000,0.000,0.000
19,0.0016,-0.0012,0.0144,0.0079,-0.0177,0.0033,-0.86,0.29,-0.03,0,0.012,0.020,-0.014,-0.247,0.002,-0.029,0.997,0.000,0.000,0.000
19,-0.0001,-0.0012,0.0144,-0.0088,-0.0172,0.0035,-1.12,0.42,-0.03,0,0.012,-0.189,-0.012,-0.231,0.001,-0.029,0.999,0.000,0.000,0.000
19,0.0006,-0.0012,0.0145,-0.0025,-0.0166,0.0037,-0.74,0.40,-0.03,0,0.012,-0.017,-0.188,-0.125,0.002,-0.025,0.999,0.000,0.000,0.000
19,-0.0001,-0.0001,0.0145,-0.0083,-0.0062,0.0038,-0.96,0.34,-0.03,0,0.012,-0.087,-0.159,-0.110,0.003,-0.026,0.999,0.000,0.000,0.000
19,-0.0001,-0.0020,0.0135,-0.0079,-0.0237,-0.0026,-0.99,0.37,-0.03,0,0.012,0.090,0.079,-0.319,0.002,-0.027,1.000,0.000,0.000,0.000
19,0.0002,-0.0011,0.0135,-0.0057,-0.0150,-0.0026,-1.02,0.20,-0.03,0,0.012,-0.046,-0.031,-0.277,0.001,-0.026,1.001,0.000,0.000,0.000
19,-0.0001,-0.0011,0.0134,-0.0075,-0.0147,-0.0028,-0.93,0.09,-0.04,0,0.012,0.010,-0.125,-0.374,-0.000,-0.026,1.002,0.000,0.000,0.000
19,0.0008,-0.0011,0.0134,0.0004,-0.0144,-0.0027,-1.11,0.25,-0.04,0,0.012,0.117,0.125,-0.350,0.000,-0.028,0.998,0.000,0.000,0.000
19,0.0015,-0.0018,0.0134,0.0058,-0.0194,-0.0028,-0.99,0.06,-0.04,0,0.012,-0.125,-0.299,0.238,0.003,-0.028,1.000,0.000,0.000,0.000
19,0.0006,-0.0008,0.0128,-0.0021,-0.0111,-0.0061,-0.99,0.08,-0.04,0,0.012,-0.038,-0.162,-0.219,0.001,-0.027,1.000,0.000,0.000,0.000
19,0.0017,-0.0017,0.0127,0.0071,-0.0182,-0.0061,-1.02,0.16,-0.04,0,0.012,-0.267,-0.290,-0.215,0.002,-0.025,0.999,0.000,0.000,0.000
19,0.0017,-0.0019,0.0127,0.0064,-0.0192,-0.0059,-1.21,0.35,-0.04,0,0.012,0.077,0.172,-0.360,0.000,-0.024,1.002,0.000,0.000,0.000
20,0.0012,-0.0019,0.0126,0.0021,-0.0183,-0.0056,-1.29,0.34,-0.04,0,0.012,-0.289,-0.044,-0.022,0.003,-0.025,1.002,0.000,0.000,0.000
20,-0.0001,-0.0007,0.0126,-0.0090,-0.0088,-0.0056,-1.05,0.33,-0.05,0,0.012,-0.191,-0.113,-0.218,0.003,-0.028,1.000,0.000,0.000,0.000
20,-0.0001,-0.0003,0.0123,-0.0085,-0.0052,-0.0069,-1.20,0.23,-0.05,0,0.014,-0.015,0.238,0.002,0.003,-0.028,1.001,0.000,0.000,0.000
20,-0.0001,-0.0021,0.0122,-0.0082,-0.0191,-0.0068,-1.27,0.19,-0.04,0,0.014,0.039,0.184,-0.075,-0.000,-0.027,1.002,0.000,0.000,0.000
20,0.0006,-0.0012,0.0122,-0.0028,-0.0111,-0.0066,-1.33,0.22,-0.05,0,0.014,0.100,-0.037,-0.242,0.001,-0.025,1.000,0.000,0.000,0.000
20,0.0008,-0.0007,0.0121,-0.0012,-0.0071,-0.0064,-0.99,0.08,-0.05,0,0.014,-0.289,0.130,-0.015,0.001,-0.025,1.001,0.000,0.000,0.000
20,0.0006,-0.0002,0.0129,-0.0028,-0.0035,-0.0019,-1.26,0.19,-0.05,0,0.014,-0.211,-0.241,-0.254,0.003,-0.027,0.998,0.000,0.000,0.000
20,0.0017,-0.0032,0.0129,0.0057,-0.0253,-0.0017,-1.24,0.09,-0.05,0,0.012,-0.210,0.021,0.138,0.003,-0.028,1.000,0.000,0.000,0.000
21,0.0008,-0.0011,0.0129,-0.0013,-0.0094,-0.0011,-1.31,0.19,-0.05,0,0.012,-0.279,-0.254,0.348,0.002,-0.027,1.001,0.000,0.000,0.000
21,0.0017,-0.0013,0.0129,0.0051,-0.0107,-0.0009,-1.19,0.10,-0.05,0,0.012,0.003,0.294,-0.211,0.003,-0.027,0.999,0.000,0.000,0.000
21,0.0008,-0.0008,0.0129,-0.0018,-0.0069,-0.0008,-1.45,0.31,-0.05,0,0.012,-0.301,-0.006,-0.042,0.002,-0.026,0.999,0.000,0.000,0.000
21,0.0017,-0.0020,0.0129,0.0045,-0.0147,-0.0007,-1.38,0.09,-0.05,0,0.012,-0.094,0.203,0.174,0.001,-0.028,0.998,0.000,0.000,0.000
21,-0.0003,0.0003,0.0125,-0.0099,0.0018,-0.0028,-1.36,0.27,-0.05,0,0.012,-0.024,-0.066,-0.209,0.001,-0.027,0.998,0.000,0.000,0.000
21,0.0018,-0.0003,0.0126,0.0048,-0.0033,-0.0025,-1.30,0.09,-0.05,0,0.012,-0.136,0.130,0.183,0.000,-0.029,1.000,0.000,0.000,0.000
21,-0.0001,-0.0006,0.0126,-0.0080,-0.0049,-0.0023,-1.30,0.09,-0.05,0,0.012,0.013,0.192,-0.119,0.000,-0.028,1.002,0.000,0.000,0.000
21,0.0018,-0.0012,0.0126,0.0048,-0.0095,-0.0022,-1.29,0.10,-0.05,0,0.012,0.035,-0.068,-0.201,0.001,-0.026,1.002,0.000,0.000,0.000
31,0.0018,-0.0013,0.0123,0.0048,-0.0099,-0.0035,-1.32,0.10,-0.05,0,0.012,-0.300,0.016,0.170,0.002,-0.029,1.002,0.000,0.000,0.000
40,0.0018,-0.0016,0.0123,0.0044,-0.0113,-0.0036,-1.37,0.21,-0.06,0,0.014,-0.016,-0.027,0.008,0.002,-0.028,1.000,0.000,0.000,0.000
51,0.0018,-0.0013,0.0123,0.0041,-0.0093,-0.0037,-1.36,0.10,-0.06,0,0.014,0.165,0.165,-0.106,0.003,-0.028,0.996,0.000,0.000,0.000
62,0.0006,-0.0008,0.0122,-0.0045,-0.0059,-0.0036,-1.32,0.18,-0.06,0,0.014,-0.097,0.095,0.049,0.002,-0.027,1.000,0.000,0.000,0.000
71,0.0018,-0.0010,0.0122,0.0036,-0.0074,-0.0033,-1.39,0.22,-0.06,0,0.014,0.045,-0.209,0.011,0.001,-0.026,1.003,0.000,0.000,0.000
81,0.0008,-0.0015,0.0122,-0.0031,-0.0103,-0.0031,-1.39,0.12,-0.06,0,0.014,0.034,-0.005,-0.415,0.002,-0.026,1.002,0.000,0.000,0.000
91,0.0003,-0.0007,0.0129,-0.0061,-0.0053,0.0012,-1.43,0.10,-0.06,0,0.011,-0.067,-0.193,-0.246,0.004,-0.026,0.999,0.000,0.000,0.000
101,0.0016,-0.0007,0.0130,0.0018,-0.0052,0.0013,-1.35,0.25,-0.06,0,0.011,-0.075,-0.042,-0.298,0.003,-0.026,0.999,0.000,0.000,0.000
110,0.0018,-0.0002,0.0130,0.0033,-0.0022,0.0010,-1.34,0.12,-0.06,0,0.011,0.292,0.041,0.015,0.001,-0.029,0.999,0.000,0.000,0.000
121,-0.0001,-0.0014,0.0130,-0.0090,-0.0097,0.0012,-1.43,0.24,-0.06,0,0.011,-0.186,-0.098,-0.090,0.002,-0.028,0.998,0.000,0.000,0.000
131,0.0015,-0.0017,0.0122,0.0016,-0.0107,-0.0030,-1.43,0.24,-0.07,0,0.011,0.058,-0.224,-0.072,0.004,-0.028,1.001,0.000,0.000,0.000
141,-0.0001,-0.0005,0.0122,-0.0086,-0.0030,-0.0027,-1.39,0.09,-0.06,0,0.013,0.003,-0.050,-0.155,0.003,-0.024,1.002,0.000,0.000,0.000
150,-0.0002,-0.0005,0.0122,-0.0086,-0.0031,-0.0028,-1.39,0.09,-0.07,0,0.013,-0.188,0.144,-0.060,0.003,-0.026,1.000,0.000,0.000,0.000
161,0.0018,-0.0010,0.0122,0.0039,-0.0061,-0.0027,-1.43,0.24,-0.07,0,0.013,-0.109,0.260,-0.279,0.003,-0.028,1.000,0.000,0.000,0.000
171,0.0019,-0.0011,0.0121,0.0038,-0.0065,-0.0027,-1.33,0.25,-0.07,0,0.013,-0.347,-0.256,0.001,0.002,-0.028,0.999,0.000,0.000,0.000
181,-0.0003,-0.0005,0.0121,-0.0089,-0.0032,-0.0027,-1.39,0.09,-0.07,0,0.013,-0.282,0.019,-0.181,-0.000,-0.027,0.999,0.000,0.000,0.000
191,-0.0005,-0.0020,0.0125,-0.0099,-0.0122,-0.0005,-1.43,0.09,-0.07,0,0.015,-0.014,0.173,-0.265,0.002,-0.025,1.001,0.000,0.000,0.000
201,0.0019,-0.0012,0.0125,0.0044,-0.0069,-0.0001,-1.42,0.22,-0.07,0,0.015,-0.112,-0.143,-0.127,0.003,-0.023,1.000,0.000,0.000,0.000
211,0.0018,-0.0007,0.0125,0.0042,-0.0036,-0.0000,-1.41,0.11,-0.07,0,0.015,-0.188,0.162,-0.036,0.005,-0.025,1.002,0.000,0.000,0.000
221,-0.0002,-0.0009,0.0126,-0.0077,-0.0050,0.0001,-1.41,0.14,-0.07,0,0.015,0.083,-0.072,-0.157,0.006,-0.026,1.001,0.000,0.000,0.000
231,0.0016,-0.0012,0.0126,0.0027,-0.0064,0.0001,-1.46,0.11,-0.07,0,0.015,-0.032,-0.308,0.155,0.001,-0.025,0.998,0.000,0.000,0.000
240,0.0011,-0.0011,0.0137,-0.0005,-0.0060,0.0056,-1.46,0.10,-0.07,0,0.013,0.019,0.206,-0.332,-0.000,-0.025,0.999,0.000,0.000,0.000
251,0.0016,-0.0004,0.0137,0.0024,-0.0013,0.0057,-1.44,0.16,-0.07,0,0.013,-0.046,0.093,-0.237,0.001,-0.027,1.002,0.000,0.000,0.000
260,0.0018,-0.0004,0.0138,0.0037,-0.0011,0.0058,-1.50,0.21,-0.08,0,0.013,-0.086,0.043,0.105,0.001,-0.025,1.002,0.000,0.000,0.000
271,0.0008,-0.0006,0.0138,-0.0016,-0.0024,0.0060,-1.41,0.16,-0.08,0,0.013,-0.109,0.119,-0.265,0.001,-0.024,1.001,0.000,0.000,0.000
281,-0.0002,0.0004,0.0139,-0.0067,0.0030,0.0060,-1.42,0.09,-0.08,0,0.013,0.213,0.376,-0.308,0.002,-0.028,1.001,0.000,0.000,0.000
291,0.0006,-0.0011,0.0136,-0.0025,-0.0051,0.0040,-1.42,0.14,-0.08,0,0.011,-0.181,-0.026,-0.126,0.003,-0.029,1.002,0.000,0.000,0.000
301,0.0018,-0.0011,0.0136,0.0040,-0.0048,0.0041,-1.39,0.09,-0.08,0,0.011,-0.154,0.011,-0.025,0.003,-0.027,1.000,0.000,0.000,0.000
310,0.0009,-0.0011,0.0137,-0.0016,-0.0046,0.0044,-1.48,0.20,-0.08,0,0.011,-0.098,0.181,0.122,0.000,-0.027,1.000,0.000,0.000,0.000
320,0.0018,-0.0015,0.0137,0.0036,-0.0069,0.0046,-1.46,0.15,-0.08,0,0.011,-0.024,0.002,0.097,0.002,-0.025,1.001,0.000,0.000,0.000
330,-0.0001,-0.0001,0.0126,-0.0069,0.0012,-0.0013,-1.46,0.09,-0.08,0,0.011,-0.160,0.289,-0.099,0.004,-0.026,0.998,0.000,0.000,0.000
340,0.0006,-0.0003,0.0126,-0.0027,-0.0004,-0.0012,-1.46,0.09,-0.08,0,0.012,-0.219,-0.113,-0.009,-0.000,-0.024,1.001,0.000,0.000,0.000
351,0.0018,-0.0003,0.0126,0.0039,-0.0006,-0.0009,-1.45,0.09,-0.08,0,0.012,0.183,-0.057,-0.158,0.001,-0.027,1.002,0.000,0.000,0.000
361,0.0019,-0.0004,0.0126,0.0040,-0.0008,-0.0009,-1.39,0.09,-0.08,0,0.012,0.098,-0.132,-0.076,0.001,-0.027,1.001,0.000,0.000,0.000
371,0.0019,-0.0006,0.0126,0.0036,-0.0021,-0.0008,-1.38,0.09,-0.09,0,0.012,-0.142,-0.261,-0.310,0.003,-0.028,0.999,0.000,0.000,0.000
381,0.0018,-0.0018,0.0126,0.0034,-0.0086,-0.0008,-1.43,0.10,-0.09,0,0.012,-0.027,0.125,-0.185,0.003,-0.027,1.000,0.000,0.000,0.000
391,0.0019,-0.0019,0.0123,0.0035,-0.0088,-0.0022,-1.41,0.10,-0.09,0,0.012,-0.232,-0.083,-0.082,0.003,-0.028,0.999,0.000,0.000,0.000
400,0.0019,-0.0011,0.0123,0.0031,-0.0041,-0.0020,-1.41,0.11,-0.09,0,0.012,0.034,-0.090,0.064,0.003,-0.027,1.001,0.000,0.000,0.000
410,0.0019,-0.0014,0.0123,0.0029,-0.0054,-0.0017,-1.43,0.11,-0.09,0,0.012,-0.152,-0.229,-0.107,0.001,-0.025,1.000,0.000,0.000,0.000
420,0.0016,-0.0016,0.0123,0.0013,-0.0065,-0.0017,-1.47,0.15,-0.09,0,0.012,-0.070,0.001,-0.284,0.000,-0.027,1.000,0.000,0.000,0.000
431,0.0016,-0.0011,0.0122,0.0013,-0.0038,-0.0023,-1.45,0.11,-0.10,0,0.012,-0.101,0.108,-0.137,0.001,-0.028,1.000,0.000,0.000,0.000
441,0.0008,-0.0003,0.0121,-0.0026,0.0002,-0.0024,-1.45,0.14,-0.10,0,0.012,-0.102,-0.132,-0.057,0.002,-0.027,1.002,0.000,0.000,0.000
451,0.0018,-0.0008,0.0121,0.0028,-0.0026,-0.0024,-1.45,0.16,-0.10,0,0.012,0.118,-0.022,-0.344,0.002,-0.027,1.000,0.000,0.000,0.000
461,0.0011,-0.0008,0.0121,-0.0012,-0.0026,-0.0022,-1.44,0.20,-0.10,0,0.012,0.011,0.010,-0.165,-0.001,-0.026,0.998,0.000,0.000,0.000
471,0.0008,-0.0008,0.0121,-0.0025,-0.0024,-0.0021,-1.52,0.20,-0.10,0,0.012,-0.016,-0.125,-0.342,0.001,-0.024,1.002,0.000,0.000,0.000
481,-0.0001,-0.0010,0.0120,-0.0077,-0.0037,-0.0022,-1.51,0.10,-0.10,0,0.012,-0.042,-0.000,-0.205,0.005,-0.026,1.001,0.000,0.000,0.000
490,-0.0001,0.0007,0.0120,-0.0075,0.0051,-0.0023,-1.43,0.10,-0.10,0,0.017,-0.188,0.083,-0.388,0.003,-0.028,0.999,0.000,0.000,0.000
500,0.0018,0.0006,0.0120,0.0030,0.0047,-0.0019,-1.46,0.19,-0.11,0,0.017,-0.164,-0.065,0.069,0.004,-0.027,1.001,0.000,0.000,0.000
510,0.0018,-0.0010,0.0120,0.0027,-0.0045,-0.0019,-1.47,0.16,-0.11,0,0.017,-0.270,0.099,0.034,0.005,-0.024,1.000,0.000,0.000,0.000
521,-0.0001,-0.0005,0.0120,-0.0077,-0.0018,-0.0019,-1.42,0.16,-0.11,0,0.017,-0.065,0.109,0.023,0.004,-0.028,0.999,0.000,0.000,0.000
531,0.0006,-0.0003,0.0141,-0.0036,-0.0001,0.0096,-1.45,0.11,-0.10,0,0.017,0.098,0.096,-0.434,0.001,-0.027,0.998,0.000,0.000,0.000
541,0.0006,-0.0014,0.0142,-0.0032,-0.0065,0.0097,-1.44,0.19,-0.11,0,0.013,-0.154,0.048,-0.029,0.001,-0.025,1.001,0.000,0.000,0.000
551,0.0016,-0.0007,0.0143,0.0021,-0.0026,0.0097,-1.42,0.13,-0.11,0,0.013,0.107,0.148,-0.193,0.001,-0.028,1.002,0.000,0.000,0.000
561,-0.0001,-0.0009,0.0144,-0.0067,-0.0037,0.0098,-1.43,0.11,-0.10,0,0.013,-0.011,-0.028,-0.386,0.001,-0.026,0.999,0.000,0.000,0.000
571,0.0011,-0.0014,0.0145,0.0000,-0.0059,0.0099,-1.52,0.18,-0.11,0,0.013,-0.036,0.188,0.024,0.001,-0.026,1.000,0.000,0.000,0.000
580,0.0016,-0.0014,0.0146,0.0026,-0.0059,0.0097,-1.45,0.15,-0.11,0,0.013,-0.226,-0.104,-0.330,0.001,-0.024,1.001,0.000,0.000,0.000
590,-0.0000,0.0007,0.0140,-0.0062,0.0053,0.0059,-1.43,0.14,-0.11,0,0.014,-0.118,0.097,0.160,0.004,-0.025,0.998,0.000,0.000,0.000
601,0.0007,-0.0007,0.0141,-0.0023,-0.0022,0.0063,-1.48,0.12,-0.11,0,0.014,0.048,0.088,-0.144,0.006,-0.027,0.999,0.000,0.000,0.000
610,0.0007,-0.0011,0.0142,-0.0023,-0.0046,0.0064,-1.42,0.09,-0.11,0,0.014,0.053,0.113,-0.133,0.003,-0.027,1.001,0.000,0.000,0.000
621,0.0011,-0.0002,0.0142,0.0000,0.0004,0.0064,-1.42,0.09,-0.11,0,0.014,-0.405,0.179,0.143,0.002,-0.028,1.002,0.000,0.000,0.000
631,0.0018,-0.0016,0.0143,0.0035,-0.0068,0.0065,-1.51,0.18,-0.12,0,0.014,0.033,-0.290,-0.236,0.001,-0.028,1.002,0.000,0.000,0.000
640,0.0018,-0.0017,0.0142,0.0036,-0.0068,0.0059,-1.49,0.18,-0.12,0,0.011,-0.009,0.082,-0.018,-0.001,-0.027,1.000,0.000,0.000,0.000
650,-0.0000,0.0005,0.0143,-0.0063,0.0047,0.0059,-1.48,0.09,-0.12,0,0.011,-0.161,0.178,-0.151,0.001,-0.025,1.000,0.000,0.000,0.000
661,-0.0000,-0.0000,0.0144,-0.0058,0.0018,0.0060,-1.46,0.12,-0.12,0,0.011,0.116,-0.031,-0.374,0.004,-0.026,0.998,0.000,0.000,0.000
670,0.0018,-0.0002,0.0145,0.0043,0.0003,0.0063,-1.52,0.16,-0.12,0,0.011,-0.271,0.105,0.287,0.004,-0.027,0.999,0.000,0.000,0.000
681,0.0011,-0.0007,0.0145,0.0004,-0.0023,0.0066,-1.52,0.09,-0.12,0,0.011,0.024,0.202,-0.051,0.003,-0.027,1.000,0.000,0.000,0.000
690,0.0002,0.0007,0.0130,-0.0046,0.0048,-0.0013,-1.43,0.09,-0.12,0,0.015,-0.014,0.164,-0.127,0.001,-0.027,0.999,0.000,0.000,0.000
701,0.0018,0.0007,0.0130,0.0038,0.0046,-0.0012,-1.47,0.12,-0.12,0,0.015,0.041,0.236,0.130,0.002,-0.029,1.001,0.000,0.000,0.000
710,0.0018,-0.0012,0.0130,0.0036,-0.0052,-0.0012,-1.43,0.09,-0.12,0,0.015,0.059,-0.136,-0.004,0.004,-0.026,1.002,0.000,0.000,0.000
720,0.0011,-0.0003,0.0130,0.0000,-0.0003,-0.0012,-1.44,0.17,-0.12,0,0.015,-0.221,0.211,-0.315,0.003,-0.026,1.000,0.000,0.000,0.000
730,0.0018,-0.0012,0.0130,0.0037,-0.0052,-0.0012,-1.41,0.10,-0.12,0,0.015,-0.445,-0.046,-0.073,0.002,-0.029,1.001,0.000,0.000,0.000
741,0.0000,-0.0009,0.0139,-0.0058,-0.0038,0.0032,-1.45,0.13,-0.12,0,0.012,-0.044,0.086,-0.396,0.002,-0.028,0.999,0.000,0.000,0.000
751,0.0016,-0.0016,0.0140,0.0028,-0.0074,0.0034,-1.47,0.09,-0.12,0,0.012,-0.082,-0.081,-0.200,0.003,-0.027,0.999,0.000,0.000,0.000
760,0.0010,-0.0009,0.0140,-0.0007,-0.0038,0.0036,-1.49,0.17,-0.13,0,0.012,-0.038,0.173,0.074,0.004,-0.025,0.999,0.000,0.000,0.000
771,0.0019,-0.0005,0.0140,0.0041,-0.0013,0.0037,-1.42,0.07,-0.12,0,0.012,0.081,-0.058,-0.420,0.003,-0.027,1.000,0.000,0.000,0.000
780,0.0001,-0.0000,0.0141,-0.0053,0.0010,0.0038,-1.45,0.16,-0.13,0,0.012,0.052,-0.086,-0.035,0.002,-0.026,1.002,0.000,0.000,0.000
790,0.0021,-0.0016,0.0132,0.0054,-0.0076,-0.0005,-1.49,0.16,-0.13,0,0.012,-0.005,0.110,-0.168,0.001,-0.025,0.999,0.000,0.000,0.000
800,0.0001,-0.0009,0.0133,-0.0052,-0.0039,-0.0005,-1.47,0.08,-0.13,0,0.012,0.056,-0.368,0.136,0.002,-0.027,0.999,0.000,0.000,0.000
810,0.0001,-0.0001,0.0133,-0.0048,0.0008,-0.0005,-1.47,0.12,-0.13,0,0.012,-0.006,-0.043,-0.315,0.002,-0.025,1.001,0.000,0.000,0.000
821,0.0019,-0.0005,0.0133,0.0047,-0.0016,-0.0004,-1.45,0.09,-0.13,0,0.012,0.090,0.026,-0.402,0.003,-0.025,1.002,0.000,0.000,0.000
830,0.0012,-0.0005,0.0133,0.0011,-0.0017,-0.0003,-1.42,0.09,-0.13,0,0.012,-0.115,-0.064,-0.206,0.002,-0.026,1.002,0.000,0.000,0.000
840,0.0018,-0.0009,0.0127,0.0045,-0.0039,-0.0029,-1.49,0.12,-0.13,0,0.013,-0.134,0.073,-0.459,0.002,-0.025,1.001,0.000,0.000,0.000
850,0.0018,-0.0016,0.0127,0.0042,-0.0072,-0.0029,-1.48,0.17,-0.14,0,0.013,-0.093,0.024,-0.125,0.003,-0.028,0.997,0.000,0.000,0.000
860,0.0012,-0.0001,0.0127,0.0007,0.0010,-0.0028,-1.51,0.16,-0.14,0,0.013,-0.158,0.369,0.169,0.002,-0.029,1.001,0.000,0.000,0.000
871,0.0001,-0.0003,0.0126,-0.0050,-0.0001,-0.0026,-1.50,0.16,-0.14,0,0.013,-0.024,0.045,-0.183,0.001,-0.026,1.000,0.000,0.000,0.000
880,0.0001,0.0006,0.0126,-0.0047,0.0045,-0.0024,-1.42,0.10,-0.14,0,0.013,-0.206,0.111,-0.029,0.002,-0.029,0.998,0.000,0.000,0.000
890,0.0001,0.0003,0.0128,-0.0046,0.0032,-0.0013,-1.45,0.09,-0.14,0,0.013,-0.087,-0.176,-0.001,0.003,-0.028,0.997,0.000,0.000,0.000
901,0.0014,-0.0014,0.0128,0.0024,-0.0060,-0.0011,-1.42,0.10,-0.14,0,0.013,-0.180,-0.112,-0.160,0.004,-0.028,1.001,0.000,0.000,0.000
910,0.0016,-0.0009,0.0128,0.0035,-0.0038,-0.0012,-1.43,0.12,-0.14,0,0.013,0.125,-0.188,-0.268,0.005,-0.027,0.999,0.000,0.000,0.000
920,0.0016,-0.0016,0.0128,0.0033,-0.0072,-0.0011,-1.49,0.16,-0.14,0,0.013,-0.071,0.283,0.127,0.005,-0.027,1.000,0.000,0.000,0.000
930,0.0010,-0.0013,0.0129,-0.0003,-0.0058,-0.0006,-1.44,0.08,-0.14,0,0.013,-0.217,0.107,0.097,0.003,-0.027,1.000,0.000,0.000,0.000
940,0.0001,-0.0001,0.0129,-0.0048,0.0010,-0.0008,-1.44,0.08,-0.14,0,0.013,-0.068,0.025,-0.611,0.001,-0.028,1.000,0.000,0.000,0.000
950,0.0018,-0.0011,0.0129,0.0046,-0.0049,-0.0008,-1.42,0.10,-0.14,0,0.013,-0.036,-0.362,-0.315,0.003,-0.027,1.000,0.000,0.000,0.000
960,0.0019,-0.0012,0.0129,0.0049,-0.0053,-0.0007,-1.49,0.13,-0.15,0,0.013,-0.249,0.033,0.165,0.003,-0.026,1.001,0.000,0.000,0.000
970,0.0014,-0.0016,0.0129,0.0026,-0.0075,-0.0007,-1.44,0.14,-0.15,0,0.013,-0.208,0.116,0.167,0.001,-0.025,1.002,0.000,0.000,0.000
980,0.0008,-0.0003,0.0129,-0.0009,-0.0002,-0.0006,-1.48,0.16,-0.14,0,0.013,0.141,-0.141,0.002,0.002,-0.027,0.999,0.000,0.000,0.000
990,0.0005,-0.0014,0.0129,-0.0021,-0.0062,-0.0003,-1.47,0.09,-0.14,0,0.013,-0.239,-0.117,-0.222,0.002,-0.025,0.999,0.000,0.000,0.000
1001,0.0001,-0.0005,0.0129,-0.0044,-0.0014,-0.0002,-1.43,0.08,-0.14,0,0.013,-0.189,0.114,-0.233,0.002,-0.026,1.002,0.000,0.000,0.000
1010,0.0016,-0.0007,0.0129,0.0041,-0.0026,-0.0001,-1.47,0.13,-0.15,0,0.013,-0.010,-0.013,-0.189,0.004,-0.028,1.001,0.000,0.000,0.000
1020,0.0019,-0.0016,0.0129,0.0052,-0.0071,0.0002,-1.46,0.14,-0.15,0,0.013,-0.038,0.061,-0.279,0.002,-0.026,1.000,0.000,0.000,0.000
1031,0.0008,-0.0009,0.0130,-0.0012,-0.0032,0.0005,-1.44,0.09,-0.15,0,0.013,-0.077,0.080,-0.222,0.002,-0.026,1.001,0.000,0.000,0.000
1041,0.0008,-0.0009,0.0130,-0.0012,-0.0032,0.0004,-1.49,0.17,-0.15,0,0.011,0.068,-0.216,-0.092,0.002,-0.026,0.999,0.000,0.000,0.000
1050,0.0019,-0.0016,0.0130,0.0051,-0.0067,0.0005,-1.49,0.16,-0.16,0,0.011,-0.128,-0.010,-0.041,0.001,-0.027,1.001,0.000,0.000,0.000
1060,0.0001,-0.0005,0.0130,-0.0050,-0.0003,0.0008,-1.49,0.16,-0.16,0,0.011,-0.048,0.131,-0.033,0.003,-0.027,1.002,0.000,0.000,0.000
1070,0.0001,-0.0003,0.0130,-0.0047,0.0009,0.0009,-1.49,0.16,-0.15,0,0.011,0.127,0.025,-0.277,0.002,-0.028,1.000,0.000,0.000,0.000
1080,0.0000,-0.0002,0.0130,-0.0048,0.0009,0.0010,-1.49,0.06,-0.16,0,0.011,-0.163,-0.020,0.154,0.001,-0.026,0.999,0.000,0.000,0.000
1090,-0.0000,-0.0003,0.0121,-0.0049,0.0008,-0.0036,-1.48,0.12,-0.15,0,0.010,0.093,0.026,-0.222,0.001,-0.028,0.998,0.000,0.000,0.000
1101,0.0022,-0.0003,0.0121,0.0073,0.0007,-0.0035,-1.44,0.08,-0.15,0,0.010,0.047,0.118,-0.300,0.002,-0.027,1.000,0.000,0.000,0.000
1111,0.0010,-0.0005,0.0121,0.0003,-0.0007,-0.0032,-1.46,0.16,-0.16,0,0.010,-0.149,0.148,-0.298,0.000,-0.027,1.001,0.000,0.000,0.000
1120,0.0019,-0.0015,0.0121,0.0055,-0.0061,-0.0031,-1.43,0.08,-0.16,0,0.010,0.006,-0.031,0.015,0.001,-0.029,0.998,0.000,0.000,0.000
1130,0.0000,-0.0010,0.0112,-0.0052,-0.0034,-0.0077,-1.46,0.08,-0.16,0,0.010,-0.204,0.121,-0.207,0.003,-0.031,0.998,0.000,0.000,0.000
1140,0.0019,-0.0017,0.0111,0.0051,-0.0072,-0.0077,-1.48,0.08,-0.16,0,0.012,-0.065,-0.209,0.097,0.001,-0.027,1.000,0.000,0.000,0.000
1151,0.0019,-0.0010,0.0111,0.0048,-0.0032,-0.0078,-1.45,0.12,-0.16,0,0.012,-0.010,-0.113,-0.115,0.000,-0.026,1.000,0.000,0.000,0.000
1160,0.0019,-0.0008,0.0110,0.0045,-0.0020,-0.0076,-1.45,0.10,-0.16,0,0.012,0.101,0.017,-0.066,0.001,-0.025,0.999,0.000,0.000,0.000
1170,0.0010,-0.0015,0.0109,-0.0007,-0.0057,-0.0076,-1.52,0.16,-0.16,0,0.012,-0.079,0.449,0.186,0.004,-0.026,1.001,0.000,0.000,0.000
1180,0.0017,-0.0015,0.0109,0.0029,-0.0059,-0.0077,-1.44,0.09,-0.16,0,0.012,-0.011,0.281,-0.035,0.002,-0.028,1.000,0.000,0.000,0.000
1190,0.0000,0.0004,0.0113,-0.0057,0.0038,-0.0052,-1.44,0.11,-0.16,0,0.012,-0.141,-0.101,-0.147,0.002,-0.027,1.000,0.000,0.000,0.000
1200,0.0017,-0.0016,0.0113,0.0027,-0.0071,-0.0049,-1.45,0.08,-0.16,0,0.012,0.126,0.105,-0.307,0.002,-0.028,1.000,0.000,0.000,0.000
1210,0.0012,-0.0016,0.0112,0.0000,-0.0068,-0.0049,-1.45,0.12,-0.17,0,0.012,-0.235,0.190,0.429,0.002,-0.029,1.000,0.000,0.000,0.000
1220,0.0019,-0.0014,0.0112,0.0036,-0.0053,-0.0048,-1.46,0.09,-0.16,0,0.012,0.127,0.122,-0.223,0.003,-0.028,0.999,0.000,0.000,0.000
1230,0.0010,-0.0014,0.0111,-0.0012,-0.0051,-0.0048,-1.46,0.13,-0.17,0,0.012,-0.011,0.001,-0.192,0.001,-0.025,1.001,0.000,0.000,0.000
1240,0.0016,-0.0014,0.0115,0.0024,-0.0050,-0.0028,-1.48,0.13,-0.17,0,0.013,-0.048,-0.144,-0.117,0.000,-0.027,1.000,0.000,0.000,0.000
1250,0.0007,-0.0014,0.0115,-0.0024,-0.0049,-0.0028,-1.50,0.08,-0.17,0,0.013,-0.108,-0.155,-0.151,-0.001,-0.028,1.003,0.000,0.000,0.000
1261,0.0007,-0.0009,0.0114,-0.0023,-0.0026,-0.0027,-1.53,0.16,-0.17,0,0.013,-0.043,0.320,-0.162,0.002,-0.027,1.002,0.000,0.000,0.000
1270,0.0019,-0.0005,0.0114,0.0037,-0.0005,-0.0027,-1.54,0.16,-0.17,0,0.013,0.011,0.028,0.009,0.003,-0.028,1.000,0.000,0.000,0.000
1280,-0.0001,0.0004,0.0114,-0.0068,0.0042,-0.0027,-1.46,0.09,-0.17,0,0.013,-0.242,0.014,-0.341,0.000,-0.028,1.000,0.000,0.000,0.000
1290,-0.0001,0.0006,0.0121,-0.0066,0.0053,0.0009,-1.47,0.12,-0.17,0,0.011,0.215,0.381,-0.045,0.003,-0.028,1.002,0.000,0.000,0.000
1300,0.0014,-0.0011,0.0121,0.0015,-0.0043,0.0014,-1.47,0.08,-0.17,0,0.011,-0.283,0.066,-0.141,0.004,-0.026,1.000,0.000,0.000,0.000
1310,0.0008,-0.0009,0.0121,-0.0021,-0.0031,0.0016,-1.47,0.09,-0.18,0,0.011,-0.183,0.057,-0.183,0.003,-0.025,1.002,0.000,0.000,0.000
1320,0.0017,-0.0009,0.0122,0.0027,-0.0030,0.0018,-1.48,0.09,-0.18,0,0.011,-0.010,0.378,-0.031,0.000,-0.025,1.001,0.000,0.000,0.000
1329,0.0014,-0.0011,0.0117,0.0014,-0.0043,-0.0008,-1.50,0.08,-0.18,0,0.011,-0.128,0.134,-0.184,0.001,-0.026,0.998,0.000,0.000,0.000
1340,0.0014,-0.0009,0.0117,0.0013,-0.0031,-0.0007,-1.50,0.14,-0.18,0,0.014,-0.264,0.268,-0.277,0.002,-0.028,1.000,0.000,0.000,0.000
1349,0.0017,-0.0003,0.0117,0.0026,0.0004,-0.0005,-1.50,0.07,-0.18,0,0.014,0.070,0.067,-0.352,0.003,-0.030,1.002,0.000,0.000,0.000
1359,0.0002,-0.0003,0.0117,-0.0052,0.0005,-0.0004,-1.48,0.08,-0.18,0,0.014,-0.132,0.132,-0.162,0.003,-0.027,1.001,0.000,0.000,0.000
1370,0.0017,-0.0003,0.0117,0.0030,0.0006,-0.0001,-1.46,0.07,-0.19,0,0.014,0.023,-0.029,-0.454,0.004,-0.027,0.997,0.000,0.000,0.000
1380,0.0017,-0.0007,0.0117,0.0028,-0.0016,-0.0001,-1.47,0.10,-0.19,0,0.014,0.045,0.098,-0.013,0.003,-0.026,1.002,0.000,0.000,0.000
1390,0.0019,-0.0011,0.0127,0.0038,-0.0038,0.0048,-1.47,0.07,-0.19,0,0.014,-0.108,-0.189,-0.189,0.001,-0.028,1.001,0.000,0.000,0.000
1400,0.0012,-0.0009,0.0127,0.0003,-0.0027,0.0050,-1.49,0.14,-0.19,0,0.014,-0.025,-0.081,0.179,-0.001,-0.029,1.001,0.000,0.000,0.000
1410,0.0019,-0.0009,0.0128,0.0037,-0.0029,0.0052,-1.48,0.12,-0.19,0,0.014,0.020,-0.263,-0.245,0.000,-0.029,1.001,0.000,0.000,0.000
1419,0.0002,-0.0004,0.0129,-0.0053,-0.0006,0.0052,-1.52,0.14,-0.19,0,0.014,-0.069,-0.308,-0.006,0.001,-0.027,1.002,0.000,0.000,0.000
1431,0.0006,-0.0006,0.0134,-0.0026,-0.0016,0.0075,-1.45,0.10,-0.19,0,0.014,-0.136,0.072,-0.174,0.001,-0.026,0.999,0.000,0.000,0.000
1439,0.0002,0.0002,0.0134,-0.0047,0.0029,0.0077,-1.45,0.08,-0.19,0,0.013,-0.121,-0.188,-0.307,0.001,-0.027,0.998,0.000,0.000,0.000
1450,0.0012,-0.0013,0.0135,0.0010,-0.0055,0.0080,-1.47,0.07,-0.19,0,0.013,-0.003,0.003,-0.197,0.003,-0.026,1.000,0.000,0.000,0.000
1460,0.0016,-0.0013,0.0136,0.0030,-0.0056,0.0081,-1.45,0.07,-0.20,0,0.013,-0.329,-0.232,-0.099,-0.001,-0.026,0.997,0.000,0.000,0.000
1471,0.0018,-0.0009,0.0137,0.0039,-0.0032,0.0084,-1.49,0.15,-0.20,0,0.013,0.020,-0.283,-0.176,0.003,-0.028,0.999,0.000,0.000,0.000
1480,0.0019,-0.0015,0.0138,0.0037,-0.0065,0.0085,-1.45,0.14,-0.20,0,0.013,-0.174,-0.109,-0.087,0.004,-0.027,1.000,0.000,0.000,0.000
0,0.0002,-0.0006,0.0136,-0.0055,-0.0017,0.0066,-1.46,0.10,-0.20,0,0.013,0.109,-0.204,-0.444,0.004,-0.026,1.002,0.000,0.000,0.000
10,0.0004,-0.0015,0.0136,-0.0041,-0.0062,0.0066,-1.48,0.11,-0.20,60000,0.013,0.148,-0.229,-0.035,0.002,-0.028,1.000,0.000,0.000,0.000
21,0.0012,-0.0015,0.0137,0.0006,-0.0059,0.0066,-1.55,0.15,-0.20,60000,0.013,0.104,0.184,-0.236,0.000,-0.028,0.999,0.000,0.000,0.000
30,0.0010,-0.0008,0.0138,-0.0007,-0.0022,0.0064,-1.54,0.15,-0.20,60000,0.013,-0.046,0.045,-0.231,0.009,-0.025,0.997,0.000,0.000,0.000
39,0.0002,0.0006,0.0135,-0.0052,0.0060,0.0045,-1.47,0.07,-0.21,60000,0.013,-1.044,-0.573,-1.151,0.012,-0.030,1.000,0.000,0.000,0.000
50,0.0001,0.0007,0.0135,-0.0051,0.0060,0.0047,-1.48,0.09,-0.21,60000,0.011,-0.363,0.036,-1.240,-0.006,-0.028,1.001,0.000,0.000,0.000
59,0.0019,-0.0011,0.0136,0.0048,-0.0015,0.0050,-1.47,0.12,-0.22,60000,0.011,0.924,1.262,0.515,-0.017,-0.019,0.994,0.000,0.000,0.000
69,0.0017,-0.0011,0.0137,0.0031,0.0011,0.0050,-1.52,0.15,-0.22,60000,0.011,-0.022,0.043,-0.308,0.000,-0.035,1.000,0.000,0.000,0.000
80,0.0010,-0.0013,0.0137,-0.0008,0.0024,0.0048,-1.47,0.15,-0.22,60000,0.011,-3.025,-1.969,0.963,-0.004,-0.039,1.008,0.000,0.000,0.000
89,0.0001,0.0000,0.0138,-0.0056,0.0119,0.0046,-1.46,0.08,-0.22,60000,0.011,-0.140,-1.511,1.041,0.008,-0.048,1.006,0.000,0.000,0.000
100,0.0002,-0.0011,0.0126,-0.0054,0.0076,-0.0015,-1.46,0.12,-0.22,60000,0.012,0.845,1.511,0.859,0.023,-0.053,0.992,0.000,0.000,0.000
110,0.0019,-0.0015,0.0126,0.0040,0.0075,-0.0011,-1.46,0.10,-0.22,60000,0.012,-4.910,-3.228,-1.196,0.015,-0.043,1.002,0.000,0.000,0.000
119,0.0012,-0.0014,0.0126,-0.0001,0.0097,-0.0015,-1.52,0.13,-0.23,60000,0.012,-3.478,-3.065,-6.137,0.015,-0.049,1.029,0.000,0.000,0.000
129,0.0016,-0.0014,0.0126,0.0022,0.0116,-0.0015,-1.51,0.24,-0.29,60000,0.012,0.606,2.576,-5.609,-0.010,-0.036,1.000,0.000,0.000,0.000
139,0.0018,-0.0007,0.0126,0.0027,0.0173,-0.0008,-1.50,0.16,-0.34,60000,0.012,-1.934,0.475,-6.851,-0.031,-0.015,0.977,0.000,0.000,0.000
149,0.0000,-0.0013,0.0123,-0.0071,0.0157,-0.0020,-1.51,0.16,-0.42,60000,0.010,-10.848,-1.962,-13.886,-0.017,-0.006,0.998,0.000,0.000,0.000
160,0.0014,-0.0013,0.0123,0.0001,0.0173,-0.0029,-1.57,0.18,-0.55,60000,0.010,-2.871,1.045,-17.839,-0.006,-0.019,1.011,0.000,0.000,0.000
169,0.0014,-0.0011,0.0123,-0.0002,0.0199,-0.0005,-1.60,0.27,-0.73,60000,0.010,-3.057,-0.427,-18.203,0.007,-0.025,1.022,0.000,0.000,0.000
179,0.0015,-0.0010,0.0123,0.0004,0.0218,0.0002,-1.58,0.23,-0.91,60000,0.010,-3.711,0.252,-17.603,0.005,-0.020,1.059,0.000,0.000,0.000
190,-0.0000,-0.0003,0.0123,-0.0082,0.0271,-0.0017,-1.60,0.19,-1.08,60000,0.010,3.926,-3.849,-17.442,-0.000,-0.023,1.095,0.000,0.000,0.000
199,0.0008,-0.0011,0.0113,-0.0036,0.0244,-0.0073,-1.58,0.24,-1.25,60000,0.010,-5.419,-5.197,-11.374,0.017,-0.024,1.111,0.000,0.000,0.000
210,0.0019,-0.0010,0.0112,0.0021,0.0259,-0.0065,-1.68,0.31,-1.37,60000,0.010,-8.724,-12.521,-7.351,0.033,-0.035,1.133,0.000,0.000,0.000
219,0.0019,-0.0008,0.0112,0.0018,0.0287,-0.0052,-1.77,0.42,-1.44,60000,0.010,-9.440,-24.539,-4.007,0.033,-0.036,1.180,0.000,0.000,0.000
229,0.0019,0.0007,0.0111,0.0010,0.0378,-0.0012,-2.13,0.74,-1.47,60000,0.010,-15.244,-45.440,-0.285,0.021,-0.031,1.179,0.000,0.000,0.000
239,0.0019,0.0011,0.0111,0.0005,0.0409,0.0066,-2.30,1.20,-1.46,60000,0.010,-17.607,-66.482,0.584,0.021,-0.024,1.163,0.000,0.000,0.000
249,0.0002,0.0076,0.0104,-0.0091,0.0764,0.0117,-2.52,1.87,-1.43,60000,0.015,-22.900,-80.110,0.613,0.025,-0.023,1.172,0.000,0.000,0.000
259,-0.0002,0.0090,0.0105,-0.0124,0.0841,0.0233,-2.82,2.67,-1.38,59768,0.015,-28.870,-75.129,3.214,0.028,-0.017,1.193,0.000,0.000,0.000
269,-0.0009,0.0110,0.0107,-0.0176,0.0944,0.0379,-3.13,3.40,-1.30,59473,0.015,-23.820,-66.166,6.412,0.018,-0.020,1.185,0.000,0.000,0.000
279,-0.0015,0.0137,0.0109,-0.0235,0.1091,0.0535,-3.46,4.05,-1.19,59106,0.015,-17.614,-58.610,7.415,0.010,-0.012,1.211,0.000,0.000,0.000
290,-0.0015,0.0154,0.0114,-0.0276,0.1179,0.0694,-3.47,4.42,-1.10,58704,0.015,-15.764,-47.346,6.363,0.015,-0.006,1.221,0.000,0.000,0.000
300,-0.0014,0.0187,0.0135,-0.0322,0.1355,0.0911,-3.57,4.58,-1.00,58349,0.000,-17.202,-38.466,7.741,0.021,-0.003,1.206,0.000,0.000,0.000
309,0.0034,0.0155,0.0157,-0.0133,0.1184,0.1176,-3.68,4.94,-0.91,58398,0.000,1.703,-15.703,8.196,0.012,-0.011,1.224,0.000,0.000,0.000
319,0.0109,0.0148,0.0177,0.0185,0.1154,0.1411,-3.63,5.07,-0.82,57802,0.000,10.324,-2.418,7.147,0.007,-0.012,1.225,0.000,0.000,0.000
329,0.0112,0.0146,0.0195,0.0100,0.1158,0.1615,-3.52,5.12,-0.75,57247,0.000,20.556,4.796,6.927,0.005,-0.011,1.219,0.000,0.000,0.000
339,0.0122,0.0137,0.0126,0.0042,0.1135,0.1375,-3.29,4.86,-0.67,56855,0.000,42.864,17.972,5.684,0.007,-0.018,1.178,0.000,0.000,0.000
350,0.0120,0.0144,0.0141,-0.0072,0.1186,0.1577,-2.65,4.55,-0.67,57405,0.003,51.535,26.181,6.075,0.008,-0.014,1.164,0.000,0.000,0.000
359,0.0167,0.0149,0.0161,0.0079,0.1219,0.1807,-2.02,4.19,-0.64,56994,0.003,63.137,29.663,3.618,0.012,-0.019,1.151,0.000,0.000,0.000
370,0.0199,0.0107,0.0188,0.0150,0.0997,0.2077,-1.43,3.98,-0.61,56577,0.003,56.722,34.983,2.264,0.009,-0.024,1.141,0.000,0.000,0.000
379,0.0224,0.0088,0.0213,0.0183,0.0896,0.2314,-0.76,3.52,-0.61,56091,0.003,47.760,26.792,0.920,0.014,-0.023,1.126,0.000,0.000,0.000
389,0.0207,0.0101,0.0237,0.0002,0.0959,0.2504,-0.32,3.37,-0.60,55682,0.003,36.257,21.786,0.406,0.011,-0.021,1.122,0.000,0.000,0.000
400,0.0236,0.0078,0.0175,0.0071,0.0829,0.2228,0.10,3.10,-0.61,55353,0.028,28.313,16.635,0.446,0.007,-0.018,1.109,0.000,0.000,0.000
409,0.0205,0.0096,0.0198,-0.0164,0.0897,0.2377,0.45,2.91,-0.62,55049,0.028,20.891,7.773,1.052,0.007,-0.022,1.099,0.000,0.000,0.000
420,0.0216,0.0091,0.0223,-0.0159,0.0828,0.2525,0.69,2.83,-0.62,54800,0.028,14.397,5.707,1.377,0.014,-0.024,1.091,0.000,0.000,0.000
430,0.0220,0.0081,0.0250,-0.0191,0.0727,0.2658,0.70,2.82,-0.57,54506,0.028,6.644,3.515,2.465,0.013,-0.017,1.086,0.000,0.000,0.000
439,0.0217,0.0080,0.0279,-0.0251,0.0672,0.2786,0.70,2.94,-0.53,54236,0.028,-4.713,4.838,4.665,0.008,-0.014,1.090,0.000,0.000,0.000
449,0.0205,0.0114,0.0306,-0.0352,0.0810,0.2894,0.70,2.96,-0.50,53974,0.047,-4.032,2.026,6.386,0.010,-0.016,1.076,0.000,0.000,0.000
459,0.0164,0.0140,0.0334,-0.0606,0.0890,0.2983,0.69,2.86,-0.44,53096,0.047,-2.842,5.948,7.595,0.013,-0.015,1.061,0.000,0.000,0.000
469,0.0145,0.0140,0.0364,-0.0729,0.0830,0.3073,0.87,2.78,-0.44,52956,0.047,-2.520,8.078,10.723,0.017,-0.010,1.053,0.000,0.000,0.000
479,0.0155,0.0138,0.0400,-0.0693,0.0757,0.3181,0.76,2.80,-0.30,52794,0.047,-0.548,7.720,11.921,0.010,-0.005,1.044,0.000,0.000,0.000
489,0.0154,0.0095,0.0436,-0.0710,0.0470,0.3289,0.74,2.77,-0.18,52565,0.047,0.107,2.605,11.490,0.003,-0.004,1.035,0.000,0.000,0.000
499,0.0122,0.0118,0.0483,-0.0897,0.0555,0.3433,0.71,2.80,-0.05,52337,0.078,3.748,7.385,9.853,0.006,-0.007,1.034,0.000,0.000,0.000
509,0.0104,0.0124,0.0516,-0.0997,0.0543,0.3492,0.74,2.77,0.05,50966,0.078,16.316,15.479,6.951,0.005,-0.011,1.034,0.000,0.000,0.000
519,0.0077,0.0136,0.0549,-0.1142,0.0567,0.3531,0.86,2.72,0.15,50860,0.078,18.720,19.377,5.903,0.004,-0.014,1.023,0.000,0.000,0.000
529,0.0055,0.0145,0.0583,-0.1248,0.0574,0.3568,1.05,2.51,0.20,50803,0.078,15.408,19.861,5.945,0.005,-0.014,1.013,0.000,0.000,0.000
539,0.0014,0.0163,0.0684,-0.1448,0.0614,0.3954,1.17,2.37,0.28,50747,0.078,15.810,20.436,5.053,0.009,-0.012,1.003,0.000,0.000,0.000
549,0.0005,0.0167,0.0724,-0.1463,0.0589,0.3992,1.37,2.10,0.32,49987,0.101,15.744,16.683,3.982,0.014,-0.013,0.996,0.000,0.000,0.000
559,-0.0025,0.0183,0.0762,-0.1593,0.0621,0.4007,1.61,1.78,0.31,49090,0.101,14.293,12.756,3.029,0.012,-0.014,0.988,0.000,0.000,0.000
569,-0.0025,0.0180,0.0805,-0.1544,0.0555,0.4056,1.74,1.66,0.34,49071,0.101,7.463,8.005,2.393,0.012,-0.011,0.983,0.000,0.000,0.000
579,0.0010,0.0161,0.0813,-0.1342,0.0445,0.4106,1.81,1.59,0.37,48962,0.101,0.008,4.271,1.959,0.011,-0.009,0.973,0.000,0.000,0.000
589,-0.0003,0.0165,0.0854,-0.1376,0.0420,0.4122,1.78,1.70,0.42,48834,0.101,-2.430,0.518,0.964,0.010,-0.009,0.966,0.000,0.000,0.000
599,-0.0024,0.0173,0.0943,-0.1436,0.0404,0.4388,1.78,1.68,0.42,48806,0.119,-5.096,-2.494,0.827,0.008,-0.008,0.965,0.000,0.000,0.000
609,-0.0072,0.0185,0.0983,-0.1652,0.0417,0.4356,1.77,1.57,0.39,47629,0.119,-6.807,-8.948,0.863,0.010,-0.011,0.967,0.000,0.000,0.000
619,-0.0086,0.0183,0.1027,-0.1665,0.0358,0.4351,1.65,1.62,0.40,47710,0.119,-7.817,-12.203,1.152,0.009,-0.009,0.965,0.000,0.000,0.000
629,-0.0068,0.0177,0.1077,-0.1505,0.0271,0.4375,1.58,1.70,0.40,47721,0.119,-5.814,-13.753,0.629,0.008,-0.007,0.960,0.000,0.000,0.000
639,-0.0074,0.0194,0.1122,-0.1481,0.0320,0.4359,1.56,1.79,0.39,47658,0.119,-6.261,-13.757,0.501,0.008,-0.007,0.953,0.000,0.000,0.000
649,-0.0082,0.0197,0.1176,-0.1462,0.0293,0.4390,1.48,1.89,0.38,47697,0.137,-3.584,-14.612,1.560,0.010,-0.008,0.943,0.000,0.000,0.000
659,-0.0084,0.0192,0.1221,-0.1420,0.0220,0.4365,1.54,2.02,0.36,46995,0.137,1.133,-17.020,0.978,0.008,-0.009,0.938,0.000,0.000,0.000
669,-0.0089,0.0199,0.1265,-0.1397,0.0218,0.4337,1.40,2.20,0.40,47043,0.137,2.983,-17.959,0.966,0.008,-0.008,0.936,0.000,0.000,0.000
679,-0.0096,0.0181,0.1309,-0.1391,0.0087,0.4310,1.45,2.37,0.40,47105,0.137,7.709,-16.921,0.479,0.009,-0.008,0.927,0.000,0.000,0.000
690,-0.0111,0.0219,0.1353,-0.1423,0.0258,0.4270,1.50,2.52,0.41,47157,0.137,7.754,-14.980,0.743,0.010,-0.010,0.925,0.000,0.000,0.000
699,-0.0122,0.0218,0.1385,-0.1440,0.0219,0.4172,1.61,2.66,0.40,47259,0.160,8.348,-12.301,1.176,0.009,-0.011,0.923,0.000,0.000,0.000
709,-0.0134,0.0225,0.1426,-0.1465,0.0220,0.4119,1.70,2.77,0.40,46643,0.160,7.275,-12.205,0.398,0.008,-0.010,0.920,0.000,0.000,0.000
720,-0.0143,0.0218,0.1468,-0.1472,0.0151,0.4063,1.80,2.75,0.36,46759,0.160,4.474,-6.953,1.407,0.008,-0.010,0.913,0.000,0.000,0.000
729,-0.0154,0.0219,0.1508,-0.1490,0.0121,0.4003,1.73,2.97,0.44,46871,0.160,5.635,-4.551,1.296,0.007,-0.009,0.910,0.000,0.000,0.000
738,-0.0134,0.0213,0.1552,-0.1355,0.0064,0.3961,1.79,3.02,0.44,47000,0.160,3.268,-3.329,1.181,0.007,-0.015,0.908,0.000,0.000,0.000
749,-0.0187,0.0243,0.1593,-0.1592,0.0182,0.3886,1.82,3.03,0.45,47065,0.181,1.539,-1.301,1.285,0.010,-0.015,0.910,0.000,0.000,0.000
760,-0.0200,0.0242,0.1632,-0.1620,0.0143,0.3812,1.81,3.09,0.48,46516,0.181,-3.377,-1.738,3.023,0.009,-0.006,0.912,0.000,0.000,0.000
769,-0.0212,0.0243,0.1670,-0.1647,0.0116,0.3734,1.78,3.11,0.51,46672,0.181,-1.633,-2.468,1.999,0.006,-0.006,0.908,0.000,0.000,0.000
779,-0.0241,0.0249,0.1705,-0.1750,0.0109,0.3642,1.79,3.15,0.52,46834,0.181,0.083,-2.243,1.422,0.011,-0.008,0.905,0.000,0.000,0.000
790,-0.0258,0.0249,0.1741,-0.1796,0.0077,0.3552,1.75,3.11,0.53,47042,0.181,-1.857,-2.827,1.967,0.012,-0.009,0.903,0.000,0.000,0.000
799,-0.0281,0.0243,0.1790,-0.1866,0.0016,0.3532,1.74,3.21,0.57,47229,0.194,-0.142,-2.684,1.671,0.013,-0.009,0.906,0.000,0.000,0.000
808,-0.0286,0.0252,0.1826,-0.1845,0.0033,0.3450,1.73,3.21,0.58,46819,0.194,-0.481,-3.298,2.473,0.012,-0.010,0.910,0.000,0.000,0.000
818,-0.0322,0.0252,0.1859,-0.1978,0.0002,0.3350,1.69,3.23,0.61,46988,0.194,-1.388,-5.676,2.836,0.010,-0.011,0.909,0.000,0.000,0.000
829,-0.0335,0.0254,0.1893,-0.1993,-0.0018,0.3266,1.69,3.35,0.65,47213,0.194,5.219,-9.424,0.958,0.012,-0.010,0.904,0.000,0.000,0.000
840,-0.0353,0.0261,0.1931,-0.2032,-0.0010,0.3204,1.72,3.46,0.67,47394,0.194,3.994,-9.141,2.249,0.010,-0.012,0.905,0.000,0.000,0.000
849,-0.0393,0.0260,0.1961,-0.2167,-0.0039,0.3098,1.75,3.54,0.69,47533,0.212,5.526,-11.446,1.579,0.013,-0.013,0.905,0.000,0.000,0.000
859,-0.0419,0.0263,0.1991,-0.2235,-0.0052,0.3000,1.79,3.70,0.72,47137,0.212,4.287,-13.572,2.188,0.014,-0.014,0.909,0.000,0.000,0.000
868,-0.0436,0.0264,0.2021,-0.2265,-0.0072,0.2911,1.82,3.82,0.73,47359,0.212,2.343,-14.751,2.335,0.011,-0.012,0.912,0.000,0.000,0.000
879,-0.0472,0.0262,0.2049,-0.2376,-0.0104,0.2811,1.84,3.97,0.76,47552,0.212,1.216,-16.136,2.221,0.012,-0.006,0.909,0.000,0.000,0.000
890,-0.0490,0.0264,0.2077,-0.2401,-0.0115,0.2722,1.84,4.15,0.78,47787,0.212,-1.881,-16.663,2.224,0.014,-0.007,0.909,0.000,0.000,0.000
899,-0.0517,0.0262,0.2111,-0.2470,-0.0145,0.2661,1.83,4.31,0.79,47986,0.215,-2.066,-17.469,1.675,0.014,-0.011,0.907,0.000,0.000,0.000
908,-0.0549,0.0261,0.2136,-0.2558,-0.0175,0.2562,1.81,4.53,0.82,48027,0.215,-1.304,-17.350,1.703,0.014,-0.013,0.912,0.000,0.000,0.000
918,-0.0572,0.0257,0.2162,-0.2610,-0.0211,0.2469,1.79,4.69,0.83,48264,0.215,-2.479,-18.645,1.359,0.013,-0.012,0.915,0.000,0.000,0.000
929,-0.0611,0.0256,0.2185,-0.2725,-0.0236,0.2371,1.75,4.87,0.84,48475,0.215,-2.981,-20.844,1.561,0.015,-0.010,0.919,0.000,0.000,0.000
939,-0.0633,0.0256,0.2185,-0.2770,-0.0258,0.2161,1.71,5.05,0.84,48716,0.215,-4.018,-19.502,1.511,0.013,-0.009,0.918,0.000,0.000,0.000
949,-0.0658,0.0257,0.2207,-0.2826,-0.0270,0.2069,1.65,5.30,0.87,49169,0.227,-2.396,-16.462,1.370,0.013,-0.012,0.917,0.000,0.000,0.000
959,-0.0679,0.0256,0.2228,-0.2868,-0.0291,0.1981,1.63,5.47,0.88,48963,0.227,-2.909,-15.493,1.513,0.018,-0.011,0.921,0.000,0.000,0.000
969,-0.0720,0.0260,0.2246,-0.2991,-0.0292,0.1881,1.61,5.60,0.88,49168,0.227,-4.172,-18.483,2.367,0.015,-0.011,0.925,0.000,0.000,0.000
979,-0.0755,0.0258,0.2266,-0.3081,-0.0315,0.1783,1.58,5.81,0.90,49419,0.227,-2.765,-15.380,1.208,0.012,-0.008,0.930,0.000,0.000,0.000
989,-0.0775,0.0254,0.2285,-0.3120,-0.0345,0.1706,1.55,5.97,0.91,49662,0.227,-4.569,-16.792,1.920,0.017,-0.010,0.930,0.000,0.000,0.000
999,-0.0817,0.0248,0.2287,-0.3244,-0.0383,0.1543,1.50,6.16,0.93,49843,0.236,-3.208,-16.525,1.459,0.022,-0.009,0.932,0.000,0.000,0.000
1009,-0.0851,0.0244,0.2302,-0.3338,-0.0411,0.1456,1.46,6.32,0.93,49910,0.236,-3.771,-17.985,1.018,0.021,-0.012,0.936,0.000,0.000,0.000
1019,-0.0893,0.0242,0.2315,-0.3457,-0.0427,0.1366,1.43,6.47,0.93,50132,0.236,-2.815,-18.939,0.962,0.017,-0.012,0.944,0.000,0.000,0.000
1029,-0.0926,0.0241,0.2329,-0.3545,-0.0442,0.1287,1.43,6.73,0.94,50369,0.236,-2.007,-20.254,0.249,0.017,-0.011,0.945,0.000,0.000,0.000
1039,-0.0949,0.0239,0.2350,-0.3594,-0.0456,0.1260,1.39,6.88,0.94,50582,0.236,-1.942,-21.912,0.415,0.019,-0.012,0.947,0.000,0.000,0.000
1049,-0.1013,0.0222,0.2360,-0.3796,-0.0526,0.1168,1.36,7.11,0.94,50673,0.245,-2.723,-22.809,-0.587,0.019,-0.013,0.943,0.000,0.000,0.000
1059,-0.1037,0.0224,0.2372,-0.3845,-0.0526,0.1104,1.33,7.32,0.93,50635,0.245,-3.047,-24.525,-0.595,0.019,-0.010,0.951,0.000,0.000,0.000
1069,-0.1080,0.0221,0.2383,-0.3965,-0.0540,0.1031,1.31,7.55,0.91,50806,0.245,-4.651,-22.129,0.763,0.021,-0.009,0.955,0.000,0.000,0.000
1079,-0.1114,0.0219,0.2393,-0.4055,-0.0551,0.0971,1.28,7.83,0.92,51028,0.245,-5.456,-24.253,0.299,0.021,-0.013,0.955,0.000,0.000,0.000
1089,-0.1149,0.0214,0.2404,-0.4147,-0.0573,0.0914,1.21,8.03,0.91,51216,0.245,-4.344,-24.544,-0.325,0.022,-0.017,0.959,0.000,0.000,0.000
1099,-0.1212,0.0199,0.2427,-0.4338,-0.0630,0.0930,1.20,8.34,0.90,51393,0.258,-5.763,-26.830,-0.517,0.024,-0.014,0.966,0.000,0.000,0.000
1109,-0.1238,0.0204,0.2438,-0.4400,-0.0613,0.0879,1.13,8.57,0.88,51019,0.258,-3.954,-28.826,-2.166,0.021,-0.012,0.969,0.000,0.000,0.000
1119,-0.1308,0.0182,0.2444,-0.4612,-0.0690,0.0801,1.09,8.88,0.86,51180,0.258,-7.765,-29.885,-1.573,0.022,-0.014,0.970,0.000,0.000,0.000
1128,-0.1337,0.0184,0.2454,-0.4680,-0.0681,0.0761,1.03,9.15,0.83,51470,0.258,-6.807,-30.259,-2.434,0.026,-0.014,0.973,0.000,0.000,0.000
1139,-0.1395,0.0175,0.2460,-0.4851,-0.0709,0.0698,0.94,9.44,0.82,51620,0.258,-5.859,-28.240,-2.494,0.024,-0.011,0.977,0.000,0.000,0.000
1149,-0.1446,0.0164,0.2517,-0.5004,-0.0741,0.0904,0.89,9.71,0.78,51870,0.261,-9.036,-29.292,-3.262,0.024,-0.015,0.979,0.000,0.000,0.000
1158,-0.1495,0.0170,0.2526,-0.5141,-0.0716,0.0859,0.78,10.00,0.75,51464,0.261,-8.483,-30.861,-3.988,0.027,-0.015,0.984,0.000,0.000,0.000
1169,-0.1539,0.0162,0.2536,-0.5266,-0.0738,0.0820,0.71,10.32,0.71,51670,0.261,-8.625,-29.515,-4.731,0.024,-0.015,0.986,0.000,0.000,0.000
1179,-0.1589,0.0162,0.2544,-0.5408,-0.0731,0.0780,0.62,10.60,0.66,51862,0.261,-10.348,-29.511,-4.841,0.024,-0.014,0.987,0.000,0.000,0.000
1189,-0.1652,0.0147,0.2550,-0.5597,-0.0771,0.0731,0.53,10.92,0.61,52064,0.261,-13.022,-30.621,-4.296,0.025,-0.015,0.991,0.000,0.000,0.000
1199,-0.1707,0.0145,0.2579,-0.5759,-0.0767,0.0808,0.38,11.21,0.57,52319,0.263,-15.950,-34.371,-4.195,0.026,-0.012,0.996,0.000,0.000,0.000
1208,-0.1773,0.0131,0.2587,-0.5954,-0.0801,0.0765,0.25,11.57,0.52,52238,0.263,-15.286,-35.785,-3.823,0.027,-0.013,1.004,0.000,0.000,0.000
1219,-0.1822,0.0132,0.2595,-0.6096,-0.0785,0.0739,0.08,11.90,0.50,52502,0.263,-9.050,-32.565,-4.160,0.027,-0.013,1.005,0.000,0.000,0.000
1229,-0.1895,0.0119,0.2601,-0.6313,-0.0812,0.0698,0.00,12.25,0.44,52699,0.263,-10.570,-31.234,-3.602,0.033,-0.013,1.007,0.000,0.000,0.000
1238,-0.1952,0.0124,0.2615,-0.6479,-0.0776,0.0703,-0.12,12.54,0.42,52981,0.263,-13.556,-36.674,-2.788,0.035,-0.012,1.010,0.000,0.000,0.000
1249,-0.2023,0.0109,0.2621,-0.6689,-0.0805,0.0669,-0.23,12.90,0.38,53134,0.268,-10.167,-36.701,-1.798,0.035,-0.015,1.015,0.000,0.000,0.000
1259,-0.2078,0.0114,0.2629,-0.6852,-0.0769,0.0651,-0.38,13.24,0.40,53236,0.268,-6.446,-40.900,-0.755,0.035,-0.013,1.016,0.000,0.000,0.000
1268,-0.2144,0.0100,0.2636,-0.7048,-0.0790,0.0633,-0.41,13.68,0.37,53450,0.268,-3.611,-44.028,-0.524,0.034,-0.012,1.015,0.000,0.000,0.000
1279,-0.2199,0.0116,0.2644,-0.7213,-0.0713,0.0627,-0.46,14.10,0.37,53708,0.268,-3.161,-48.363,-0.463,0.033,-0.013,1.016,0.000,0.000,0.000
1289,-0.2280,0.0092,0.2649,-0.7455,-0.0763,0.0601,-0.50,14.60,0.38,53916,0.268,-2.101,-53.137,-1.465,0.036,-0.015,1.018,0.000,0.000,0.000
1298,-0.2340,0.0091,0.2661,-0.7636,-0.0738,0.0613,-0.54,15.10,0.38,54252,0.267,-1.964,-53.367,-0.929,0.032,-0.013,1.021,0.000,0.000,0.000
1309,-0.2425,0.0089,0.2666,-0.7894,-0.0714,0.0590,-0.57,15.65,0.38,54500,0.267,-0.229,-56.911,-2.049,0.035,-0.012,1.021,0.000,0.000,0.000
1319,-0.2489,0.0092,0.2674,-0.8089,-0.0678,0.0588,-0.57,16.17,0.36,54864,0.267,1.644,-54.372,-2.043,0.038,-0.011,1.020,0.000,0.000,0.000
1329,-0.2578,0.0090,0.2679,-0.8361,-0.0656,0.0563,-0.58,16.73,0.37,55133,0.267,0.974,-52.330,-2.318,0.035,-0.012,1.021,0.000,0.000,0.000
1338,-0.2641,0.0088,0.2687,-0.8557,-0.0633,0.0563,-0.59,17.21,0.37,55533,0.267,-1.002,-51.606,-2.031,0.039,-0.012,1.031,0.000,0.000,0.000
1349,-0.2731,0.0095,0.2674,-0.8832,-0.0588,0.0444,-0.63,17.71,0.38,55807,0.273,-3.969,-50.066,-1.990,0.043,-0.012,1.038,0.000,0.000,0.000
1359,-0.2802,0.0097,0.2680,-0.9057,-0.0556,0.0438,-0.70,18.17,0.39,56193,0.273,-1.949,-45.808,-3.340,0.043,-0.013,1.040,0.000,0.000,0.000
1369,-0.2886,0.0108,0.2685,-0.9323,-0.0498,0.0421,-0.72,18.71,0.36,56515,0.273,-3.392,-46.006,-3.231,0.044,-0.009,1.043,0.000,0.000,0.000
1378,-0.2959,0.0117,0.2693,-0.9557,-0.0448,0.0415,-0.75,19.10,0.33,56920,0.273,-4.297,-44.021,-3.608,0.046,-0.006,1.049,0.000,0.000,0.000
1388,-0.3091,0.0104,0.2691,-0.9959,-0.0463,0.0348,-0.86,19.56,0.35,57249,0.273,-7.094,-40.538,-4.098,0.046,-0.010,1.051,0.000,0.000,0.000
1399,-0.3156,0.0104,0.2691,-1.0173,-0.0440,0.0311,-0.90,19.94,0.30,57905,0.278,-3.986,-39.183,-3.742,0.045,-0.012,1.050,0.000,0.000,0.000
1409,-0.3273,0.0122,0.2692,-1.0537,-0.0364,0.0280,-0.98,20.30,0.30,58119,0.278,-0.959,-35.842,-2.885,0.045,-0.008,1.053,0.000,0.000,0.000
1419,-0.3364,0.0114,0.2697,-1.0825,-0.0364,0.0275,-0.92,20.75,0.22,58657,0.278,-0.113,-34.496,-3.191,0.048,-0.006,1.059,0.000,0.000,0.000
1428,-0.3437,0.0133,0.2705,-1.1066,-0.0288,0.0291,-0.92,21.07,0.23,59095,0.278,2.349,-30.052,-2.643,0.052,-0.010,1.060,0.000,0.000,0.000
1438,-0.3612,0.0100,0.2704,-1.1591,-0.0354,0.0237,-0.94,21.28,0.24,59411,0.278,5.685,-25.145,-3.024,0.048,-0.010,1.065,0.000,0.000,0.000
1448,-0.3722,0.0112,0.2707,-1.1930,-0.0296,0.0227,-0.94,21.51,0.30,60000,0.279,6.890,-20.736,-2.320,0.054,-0.012,1.072,0.000,0.000,0.000
1458,-0.3795,0.0129,0.2715,-1.2164,-0.0224,0.0252,-0.82,21.73,0.23,60000,0.279,7.672,-16.156,-2.557,0.051,-0.012,1.077,0.000,0.000,0.000
1469,-0.3913,0.0161,0.2718,-1.2519,-0.0111,0.0238,-0.85,21.83,0.32,60000,0.279,8.320,-16.123,-2.765,0.056,-0.013,1.083,0.000,0.000,0.000
1478,-0.4049,0.0140,0.2719,-1.2919,-0.0150,0.0212,-0.82,21.86,0.35,60000,0.279,10.514,-14.964,-3.198,0.058,-0.012,1.084,0.000,0.000,0.000
