time_ms,vel_x,vel_y,vel_z,roll,pitch,yaw,range_z,gyro_x,gyro_y,gyro_z
0,2.0231,0.2366,-0.0049,-0.89,-0.16,-1.22,0.014,-0.102,0.199,-0.012
0,2.0248,0.2375,-0.0048,-0.89,-0.16,-1.21,0.017,0.021,-0.046,0.003
0,2.0269,0.2386,-0.0046,-0.89,-0.16,-1.21,0.017,-0.183,-0.188,-0.074
0,1.8462,0.2994,0.0026,-0.91,-0.07,-1.21,0.017,-0.157,0.150,-0.176
0,1.8476,0.3005,0.0027,-0.91,-0.07,-1.21,0.017,-0.075,-0.081,0.065
0,1.8492,0.3014,0.0028,-0.91,-0.07,-1.21,0.017,0.096,0.134,-0.374
0,1.8511,0.3026,0.0028,-0.91,-0.07,-1.21,0.016,-0.114,-0.237,-0.119
0,1.8527,0.3039,0.0028,-0.91,-0.07,-1.21,0.016,-0.284,-0.068,-0.048
0,1.8390,0.3107,0.0042,-0.91,-0.06,-1.21,0.016,-0.012,0.075,0.122
0,1.8407,0.3118,0.0044,-0.91,-0.06,-1.21,0.016,-0.117,-0.205,-0.149
0,1.8424,0.3130,0.0046,-0.92,-0.06,-1.21,0.016,0.042,0.172,0.021
0,1.8440,0.3143,0.0049,-0.92,-0.06,-1.21,0.014,-0.157,0.078,-0.084
0,1.8456,0.3155,0.0051,-0.92,-0.06,-1.21,0.014,0.227,-0.171,-0.183
1,1.8445,0.3120,0.0007,-0.92,-0.06,-1.20,0.014,-0.356,-0.089,0.292
1,1.8459,0.3128,0.0008,-0.91,-0.06,-1.21,0.014,-0.068,0.207,-0.001
1,1.8475,0.3136,0.0012,-0.92,-0.06,-1.20,0.014,-0.360,-0.292,0.130
1,1.8475,0.3136,0.0012,-0.92,-0.06,-1.20,0.016,-0.002,0.025,0.028
1,1.8505,0.3157,0.0017,-0.92,-0.06,-1.20,0.016,0.010,-0.118,-0.083
1,1.8614,0.3152,0.0036,-0.92,-0.06,-1.20,0.016,-0.057,0.364,-0.013
1,1.8627,0.3163,0.0038,-0.92,-0.06,-1.20,0.016,0.012,-0.204,0.032
1,1.8642,0.3174,0.0039,-0.92,-0.06,-1.20,0.016,0.101,-0.035,-0.245
1,1.8658,0.3185,0.0041,-0.92,-0.06,-1.20,0.017,0.216,-0.129,-0.354
1,1.8675,0.3197,0.0044,-0.92,-0.06,-1.20,0.017,-0.311,-0.006,0.311
1,1.8693,0.3208,0.0045,-0.92,-0.06,-1.19,0.017,-0.139,0.017,0.145
1,1.8973,0.3188,0.0076,-0.91,-0.07,-1.20,0.017,-0.146,-0.024,0.175
1,1.8990,0.3199,0.0077,-0.91,-0.07,-1.19,0.017,-0.235,0.003,0.020
1,1.9007,0.3210,0.0079,-0.91,-0.07,-1.19,0.017,-0.305,0.144,0.143
1,1.9023,0.3219,0.0081,-0.91,-0.07,-1.19,0.017,0.207,0.119,-0.183
1,1.9103,0.3222,0.0093,-0.91,-0.07,-1.19,0.017,0.128,0.154,-0.175
2,1.9118,0.3233,0.0096,-0.91,-0.07,-1.19,0.017,-0.148,-0.260,-0.064
2,1.9135,0.3245,0.0098,-0.91,-0.07,-1.19,0.017,-0.113,0.032,0.006
2,1.9153,0.3255,0.0099,-0.91,-0.07,-1.19,0.018,-0.284,0.118,0.014
2,1.9170,0.3267,0.0102,-0.91,-0.07,-1.19,0.018,-0.080,0.210,0.112
2,1.9188,0.3277,0.0106,-0.91,-0.07,-1.18,0.018,0.096,0.279,-0.098
2,1.9277,0.3289,0.0125,-0.91,-0.07,-1.18,0.018,0.266,0.000,-0.307
2,1.9295,0.3298,0.0126,-0.91,-0.07,-1.18,0.018,-0.073,0.220,-0.290
2,1.9312,0.3307,0.0127,-0.91,-0.07,-1.18,0.014,-0.137,-0.096,0.176
2,1.9327,0.3320,0.0129,-0.91,-0.07,-1.18,0.014,-0.191,0.213,-0.063
2,1.9074,0.3292,0.0044,-0.91,-0.07,-1.18,0.014,-0.213,0.142,0.148
2,1.9090,0.3304,0.0044,-0.90,-0.07,-1.18,0.014,-0.052,-0.094,-0.369
2,1.9107,0.3316,0.0045,-0.91,-0.07,-1.18,0.014,-0.139,0.230,0.061
2,1.9125,0.3324,0.0047,-0.91,-0.07,-1.18,0.015,0.059,-0.221,-0.121
2,1.9142,0.3333,0.0049,-0.91,-0.07,-1.17,0.015,0.006,0.144,0.221
2,1.9159,0.3345,0.0052,-0.91,-0.07,-1.18,0.015,-0.023,-0.075,-0.029
2,1.9102,0.3296,0.0013,-0.90,-0.07,-1.17,0.015,0.084,-0.043,0.076
2,1.9119,0.3306,0.0014,-0.90,-0.07,-1.17,0.015,-0.138,-0.010,0.163
3,1.9135,0.3317,0.0016,-0.90,-0.07,-1.17,0.017,-0.064,0.371,-0.062
3,1.9148,0.3329,0.0018,-0.90,-0.07,-1.17,0.017,-0.044,-0.124,0.117
3,1.9186,0.3382,0.0038,-0.91,-0.07,-1.17,0.017,-0.263,-0.066,-0.243
3,1.9202,0.3391,0.0040,-0.90,-0.07,-1.17,0.017,-0.017,-0.079,0.342
3,1.9219,0.3401,0.0042,-0.91,-0.08,-1.17,0.017,0.058,0.170,-0.020
3,1.9235,0.3411,0.0044,-0.90,-0.07,-1.17,0.017,-0.203,0.229,0.214
3,1.9251,0.3420,0.0046,-0.90,-0.07,-1.17,0.016,-0.362,-0.352,-0.090
3,1.9266,0.3429,0.0047,-0.90,-0.07,-1.17,0.016,-0.073,-0.123,-0.115
3,1.9282,0.3397,0.0032,-0.90,-0.07,-1.17,0.016,-0.083,0.402,0.226
3,1.9297,0.3407,0.0032,-0.91,-0.07,-1.17,0.016,0.058,-0.152,0.205
3,1.9314,0.3416,0.0034,-0.91,-0.07,-1.16,0.014,0.179,-0.090,-0.033
3,1.9329,0.3425,0.0036,-0.91,-0.07,-1.16,0.014,0.032,-0.194,-0.301
3,1.9375,0.3272,-0.0019,-0.90,-0.08,-1.16,0.014,-0.262,0.120,0.120
3,1.9391,0.3283,-0.0017,-0.90,-0.08,-1.16,0.014,-0.157,-0.192,-0.320
3,1.9407,0.3294,-0.0015,-0.90,-0.08,-1.16,0.014,-0.045,-0.270,-0.090
3,1.9423,0.3302,-0.0013,-0.90,-0.08,-1.16,0.012,-0.163,0.097,-0.108
3,1.9439,0.3311,-0.0011,-0.91,-0.08,-1.16,0.012,0.116,0.229,-0.299
3,1.9454,0.3322,-0.0007,-0.91,-0.08,-1.16,0.012,-0.094,-0.060,0.255
3,1.9628,0.2991,-0.0083,-0.89,-0.10,-1.16,0.012,-0.087,-0.310,-0.031
3,1.9645,0.3003,-0.0077,-0.89,-0.10,-1.16,0.012,-0.047,-0.064,0.224
3,1.9662,0.3014,-0.0073,-0.89,-0.10,-1.15,0.017,-0.369,0.084,0.392
3,1.9678,0.3025,-0.0072,-0.89,-0.10,-1.15,0.017,-0.302,0.142,-0.106
3,1.9313,0.3641,0.0006,-0.92,-0.07,-1.15,0.017,-0.150,-0.104,0.111
3,1.9330,0.3654,0.0007,-0.92,-0.07,-1.15,0.017,0.038,-0.060,0.159
4,1.9348,0.3666,0.0009,-0.92,-0.07,-1.14,0.017,-0.000,-0.119,-0.137
4,1.9366,0.3676,0.0012,-0.92,-0.07,-1.14,0.016,-0.358,-0.256,0.428
4,1.9383,0.3686,0.0013,-0.92,-0.07,-1.14,0.016,0.022,0.186,-0.169
4,1.9399,0.3697,0.0014,-0.92,-0.07,-1.14,0.016,-0.011,0.149,-0.242
4,1.9358,0.3784,0.0034,-0.92,-0.07,-1.14,0.016,-0.223,-0.252,0.020
4,1.9374,0.3794,0.0035,-0.92,-0.07,-1.14,0.016,-0.107,-0.043,0.007
4,1.9390,0.3803,0.0036,-0.92,-0.07,-1.14,0.015,-0.090,-0.116,-0.107
4,1.9405,0.3815,0.0038,-0.92,-0.07,-1.13,0.015,-0.300,-0.412,0.087
4,1.9439,0.3815,0.0026,-0.92,-0.07,-1.13,0.015,0.033,0.068,-0.143
4,1.9455,0.3825,0.0027,-0.92,-0.07,-1.14,0.015,0.003,-0.161,-0.406
4,1.9471,0.3836,0.0029,-0.92,-0.06,-1.13,0.015,-0.354,0.078,0.166
4,1.9487,0.3846,0.0030,-0.92,-0.06,-1.14,0.012,0.149,0.066,0.133
4,1.9505,0.3857,0.0035,-0.92,-0.06,-1.14,0.012,-0.401,0.114,0.301
4,1.9520,0.3868,0.0039,-0.92,-0.06,-1.13,0.012,0.036,0.009,-0.030
4,1.9574,0.3932,-0.0037,-0.93,-0.08,-1.13,0.012,-0.094,0.142,-0.009
4,1.9591,0.3944,-0.0037,-0.93,-0.08,-1.13,0.012,-0.054,0.299,0.001
4,1.9606,0.3952,-0.0036,-0.93,-0.08,-1.13,0.013,-0.153,0.134,0.389
4,1.9621,0.3962,-0.0031,-0.93,-0.08,-1.13,0.013,-0.101,-0.201,-0.089
4,1.9670,0.4023,-0.0046,-0.93,-0.08,-1.13,0.013,-0.134,-0.096,0.124
4,1.9687,0.4034,-0.0043,-0.93,-0.08,-1.12,0.013,-0.255,-0.036,0.212
4,1.9703,0.4044,-0.0043,-0.93,-0.08,-1.12,0.013,0.041,-0.028,0.132
4,1.9718,0.4054,-0.0042,-0.93,-0.08,-1.12,0.012,-0.199,0.044,0.154
4,1.9733,0.4064,-0.0040,-0.93,-0.07,-1.12,0.012,-0.158,0.068,0.323
4,1.9750,0.4075,-0.0040,-0.93,-0.07,-1.12,0.012,-0.283,-0.114,-0.129
4,1.9843,0.4183,-0.0067,-0.94,-0.08,-1.11,0.012,-0.172,-0.308,-0.119
4,1.9859,0.4195,-0.0065,-0.94,-0.08,-1.11,0.012,0.257,0.153,-0.078
4,1.9875,0.4206,-0.0063,-0.94,-0.08,-1.11,0.016,-0.089,0.048,-0.325
4,1.9893,0.4217,-0.0062,-0.94,-0.08,-1.11,0.016,-0.018,-0.257,0.105
4,1.9577,0.3869,0.0016,-0.91,-0.05,-1.11,0.016,0.052,0.051,-0.022
4,1.9592,0.3879,0.0015,-0.91,-0.05,-1.11,0.016,-0.315,0.148,0.225
4,1.9607,0.3892,0.0016,-0.91,-0.05,-1.11,0.016,-0.062,0.031,-0.147
4,1.9626,0.3904,0.0021,-0.91,-0.05,-1.11,0.013,0.002,-0.147,-0.292
4,1.9642,0.3915,0.0024,-0.91,-0.05,-1.11,0.013,0.041,-0.023,-0.007
5,1.9675,0.3912,0.0002,-0.91,-0.05,-1.11,0.013,-0.210,0.043,-0.196
5,1.9690,0.3922,0.0004,-0.91,-0.05,-1.11,0.013,-0.145,0.116,0.201
5,1.9703,0.3932,0.0009,-0.91,-0.05,-1.11,0.013,-0.276,0.044,0.040
5,1.9719,0.3941,0.0012,-0.91,-0.05,-1.11,0.015,0.170,0.061,-0.096
5,1.9735,0.3952,0.0014,-0.91,-0.05,-1.11,0.015,-0.204,0.170,-0.208
5,1.9783,0.4082,0.0047,-0.91,-0.05,-1.10,0.015,-0.157,0.036,-0.194
5,1.9798,0.4093,0.0050,-0.91,-0.05,-1.10,0.015,-0.084,0.086,0.367
5,1.9813,0.4104,0.0051,-0.91,-0.05,-1.10,0.015,-0.106,-0.107,-0.194
5,1.9829,0.4116,0.0052,-0.91,-0.05,-1.10,0.015,-0.256,0.069,-0.113
5,1.9844,0.4128,0.0052,-0.91,-0.05,-1.10,0.015,0.082,-0.087,-0.099
5,1.9861,0.4138,0.0055,-0.91,-0.05,-1.10,0.015,-0.120,0.151,-0.098
5,1.9895,0.4207,0.0069,-0.91,-0.05,-1.10,0.015,-0.128,-0.094,0.261
5,1.9910,0.4216,0.0069,-0.91,-0.05,-1.10,0.015,-0.110,-0.056,0.035
5,1.9925,0.4227,0.0070,-0.91,-0.05,-1.10,0.015,-0.216,0.095,-0.020
5,1.9942,0.4239,0.0072,-0.91,-0.05,-1.10,0.015,0.099,0.218,-0.047
5,1.9956,0.4246,0.0073,-0.91,-0.05,-1.10,0.015,-0.077,-0.048,0.041
5,1.9973,0.4258,0.0073,-0.91,-0.05,-1.10,0.015,-0.308,0.219,0.331
5,1.9988,0.4270,0.0076,-0.91,-0.05,-1.10,0.015,-0.196,-0.232,0.214
5,2.0003,0.4282,0.0077,-0.91,-0.05,-1.10,0.015,-0.253,-0.068,-0.419
5,2.0020,0.4291,0.0079,-0.91,-0.05,-1.10,0.013,0.000,0.287,-0.047
5,2.0036,0.4301,0.0082,-0.92,-0.05,-1.09,0.013,0.253,0.123,0.014
5,2.0015,0.4054,0.0030,-0.91,-0.06,-1.10,0.013,-0.235,0.074,0.116
5,2.0031,0.4065,0.0032,-0.91,-0.06,-1.09,0.013,-0.060,-0.145,-0.046
5,2.0047,0.4076,0.0034,-0.91,-0.06,-1.09,0.017,-0.092,-0.034,0.124
5,2.0062,0.4088,0.0037,-0.91,-0.06,-1.09,0.017,-0.088,0.117,0.159
5,2.0060,0.4466,0.0094,-0.92,-0.05,-1.09,0.017,-0.040,-0.144,-0.287
5,2.0074,0.4475,0.0095,-0.92,-0.05,-1.09,0.017,-0.041,0.095,-0.056
5,2.0088,0.4485,0.0099,-0.92,-0.05,-1.09,0.017,-0.144,-0.178,0.222
5,2.0104,0.4495,0.0103,-0.92,-0.05,-1.08,0.015,-0.139,-0.109,0.101
5,2.0122,0.4504,0.0105,-0.92,-0.05,-1.08,0.015,-0.157,0.136,0.063
5,2.0140,0.4516,0.0107,-0.92,-0.05,-1.08,0.015,-0.080,0.073,-0.087
5,2.0168,0.4431,0.0085,-0.92,-0.05,-1.08,0.015,-0.207,-0.006,0.126
5,2.0184,0.4443,0.0087,-0.92,-0.05,-1.08,0.015,-0.298,-0.125,0.308
6,2.0199,0.4453,0.0090,-0.92,-0.05,-1.08,0.015,-0.103,0.106,0.082
6,2.0215,0.4462,0.0093,-0.92,-0.05,-1.07,0.015,-0.309,-0.082,-0.446
6,2.0250,0.4407,0.0075,-0.92,-0.05,-1.07,0.015,-0.297,-0.093,0.166
6,2.0265,0.4419,0.0077,-0.92,-0.05,-1.07,0.015,-0.017,0.030,0.129
6,2.0281,0.4431,0.0078,-0.93,-0.05,-1.07,0.015,-0.125,0.391,-0.102
6,2.0296,0.4443,0.0078,-0.93,-0.05,-1.07,0.015,-0.044,-0.044,0.162
6,2.0312,0.4454,0.0081,-0.93,-0.05,-1.07,0.015,-0.073,0.051,0.141
6,2.0329,0.4465,0.0084,-0.93,-0.05,-1.07,0.015,-0.201,0.169,-0.162
6,2.0373,0.4422,0.0064,-0.93,-0.05,-1.06,0.015,-0.458,-0.147,0.174
6,2.0389,0.4433,0.0065,-0.93,-0.05,-1.06,0.015,-0.125,0.079,-0.161
6,2.0405,0.4444,0.0066,-0.93,-0.05,-1.06,0.015,-0.029,0.012,-0.171
6,2.0421,0.4455,0.0068,-0.93,-0.05,-1.06,0.015,-0.207,0.279,0.258
6,2.0475,0.4414,0.0050,-0.93,-0.05,-1.06,0.015,-0.191,0.068,-0.122
6,2.0491,0.4424,0.0051,-0.93,-0.05,-1.06,0.015,-0.181,0.216,-0.058
6,2.0508,0.4434,0.0053,-0.93,-0.05,-1.06,0.015,0.122,0.019,0.073
6,2.0523,0.4446,0.0056,-0.93,-0.05,-1.06,0.015,-0.038,0.096,0.270
6,2.0536,0.4458,0.0058,-0.93,-0.06,-1.06,0.016,-0.141,-0.098,0.241
6,2.0551,0.4469,0.0059,-0.93,-0.06,-1.06,0.016,-0.364,-0.172,0.026
6,2.0558,0.4490,0.0064,-0.93,-0.06,-1.06,0.016,-0.305,-0.169,0.016
6,2.0572,0.4502,0.0066,-0.93,-0.05,-1.05,0.016,0.068,0.027,0.205
6,2.0589,0.4513,0.0069,-0.93,-0.05,-1.05,0.011,-0.476,-0.114,-0.030
6,2.0605,0.4524,0.0071,-0.93,-0.05,-1.05,0.011,-0.160,0.122,0.255
6,2.0914,0.4182,-0.0048,-0.92,-0.08,-1.05,0.011,-0.306,-0.063,0.031
6,2.0931,0.4191,-0.0046,-0.92,-0.08,-1.05,0.011,-0.336,0.365,0.334
6,2.0947,0.4200,-0.0044,-0.92,-0.08,-1.04,0.011,-0.220,0.068,-0.188
6,2.0966,0.4212,-0.0042,-0.93,-0.08,-1.04,0.017,0.047,0.176,-0.145
6,2.0981,0.4225,-0.0040,-0.93,-0.09,-1.04,0.017,-0.175,-0.255,0.200
6,2.0995,0.4237,-0.0038,-0.93,-0.09,-1.04,0.017,-0.011,-0.157,-0.465
6,2.0502,0.4659,0.0037,-0.94,-0.05,-1.04,0.017,-0.020,0.208,0.044
6,2.0517,0.4670,0.0037,-0.94,-0.05,-1.04,0.017,0.087,-0.083,-0.274
6,2.0533,0.4684,0.0039,-0.94,-0.05,-1.04,0.018,-0.108,0.114,-0.085
6,2.0550,0.4697,0.0041,-0.94,-0.05,-1.04,0.018,0.116,-0.249,-0.353
6,2.0345,0.4902,0.0102,-0.95,-0.03,-1.04,0.018,-0.129,-0.270,0.132
7,2.0359,0.4911,0.0105,-0.95,-0.03,-1.04,0.018,-0.043,0.202,-0.373
7,2.0372,0.4923,0.0108,-0.95,-0.03,-1.04,0.018,0.031,-0.067,0.057
7,2.0387,0.4937,0.0111,-0.95,-0.03,-1.03,0.018,-0.023,0.024,-0.173
7,2.0401,0.4949,0.0114,-0.95,-0.03,-1.04,0.013,-0.113,0.185,-0.189
7,2.0416,0.4961,0.0117,-0.95,-0.03,-1.04,0.013,-0.012,0.025,0.086
7,2.0325,0.4946,0.0029,-0.95,-0.04,-1.04,0.013,0.046,-0.033,-0.125
7,2.0341,0.4957,0.0032,-0.95,-0.04,-1.03,0.013,-0.117,0.071,-0.083
7,2.0355,0.4967,0.0033,-0.95,-0.04,-1.03,0.015,-0.237,-0.011,0.069
7,2.0369,0.4977,0.0036,-0.95,-0.04,-1.03,0.015,-0.172,-0.111,0.146
7,2.0348,0.5008,0.0026,-0.95,-0.04,-1.03,0.015,-0.204,-0.114,-0.493
7,2.0362,0.5021,0.0027,-0.95,-0.04,-1.03,0.015,-0.063,0.056,-0.048
7,2.0376,0.5032,0.0029,-0.95,-0.04,-1.03,0.015,-0.066,-0.162,-0.041
7,2.0393,0.5042,0.0032,-0.95,-0.04,-1.03,0.015,-0.076,0.118,-0.014
7,2.0408,0.5054,0.0035,-0.95,-0.04,-1.03,0.013,-0.264,-0.289,-0.072
7,2.0423,0.5065,0.0037,-0.95,-0.04,-1.03,0.013,-0.212,0.163,0.019
7,2.0223,0.5213,-0.0016,-0.96,-0.04,-1.03,0.013,-0.039,0.130,0.113
7,2.0237,0.5226,-0.0014,-0.96,-0.04,-1.03,0.013,0.045,0.045,-0.046
7,2.0250,0.5239,-0.0013,-0.96,-0.04,-1.03,0.017,-0.200,0.163,0.227
7,2.0266,0.5251,-0.0012,-0.96,-0.04,-1.03,0.017,-0.173,0.012,-0.090
7,2.0566,0.5000,0.0050,-0.95,-0.05,-1.03,0.017,-0.123,-0.176,-0.487
7,2.0584,0.5011,0.0053,-0.95,-0.05,-1.02,0.017,-0.203,0.259,0.249
7,2.0601,0.5024,0.0056,-0.95,-0.05,-1.02,0.017,0.020,0.133,-0.180
7,2.0618,0.5038,0.0058,-0.95,-0.05,-1.02,0.017,-0.317,0.000,-0.066
7,2.0634,0.5051,0.0059,-0.95,-0.05,-1.02,0.016,0.010,0.348,-0.042
7,2.0650,0.5064,0.0062,-0.95,-0.05,-1.02,0.016,-0.156,-0.080,-0.183
7,2.0684,0.5071,0.0073,-0.95,-0.05,-1.02,0.016,-0.284,0.056,0.278
7,2.0700,0.5084,0.0076,-0.95,-0.05,-1.02,0.016,0.017,0.002,-0.241
7,2.0716,0.5097,0.0077,-0.95,-0.05,-1.02,0.016,-0.053,-0.169,0.072
7,2.0732,0.5106,0.0077,-0.95,-0.05,-1.02,0.016,-0.331,-0.059,0.165
7,2.0743,0.5109,0.0074,-0.95,-0.05,-1.02,0.016,0.011,-0.104,0.140
7,2.0758,0.5119,0.0075,-0.95,-0.05,-1.01,0.016,-0.158,0.463,0.065
7,2.0773,0.5129,0.0077,-0.95,-0.05,-1.01,0.016,-0.152,-0.088,-0.089
7,2.0788,0.5140,0.0079,-0.95,-0.05,-1.01,0.018,-0.121,-0.040,0.177
8,2.0803,0.5151,0.0080,-0.95,-0.05,-1.01,0.018,-0.203,0.222,0.071
8,2.0820,0.5163,0.0081,-0.95,-0.05,-1.01,0.018,-0.366,0.089,0.291
8,2.0819,0.5273,0.0116,-0.96,-0.05,-1.01,0.018,-0.079,-0.258,-0.113
8,2.0834,0.5284,0.0118,-0.96,-0.06,-1.01,0.018,0.038,0.081,0.206
8,2.0852,0.5296,0.0120,-0.96,-0.06,-1.00,0.015,-0.199,-0.104,-0.202
8,2.0866,0.5308,0.0122,-0.96,-0.06,-1.00,0.015,0.088,0.134,0.056
8,2.0973,0.5111,0.0060,-0.95,-0.07,-1.00,0.015,-0.087,-0.082,0.064
8,2.0989,0.5123,0.0063,-0.95,-0.07,-1.00,0.015,-0.363,0.240,0.209
8,2.1006,0.5136,0.0065,-0.95,-0.07,-1.00,0.015,-0.105,-0.163,0.209
8,2.1025,0.5147,0.0067,-0.95,-0.07,-1.00,0.014,-0.259,0.222,-0.057
8,2.1042,0.5159,0.0068,-0.95,-0.07,-1.00,0.014,-0.234,-0.297,-0.050
8,2.1058,0.5170,0.0067,-0.95,-0.07,-1.00,0.014,-0.230,-0.064,0.399
8,2.1337,0.4840,0.0001,-0.94,-0.09,-1.00,0.014,-0.114,0.101,0.064
8,2.1354,0.4849,0.0002,-0.94,-0.09,-1.00,0.014,-0.284,-0.057,0.082
8,2.1373,0.4860,0.0006,-0.94,-0.09,-0.99,0.015,-0.083,0.167,0.010
8,2.1392,0.4871,0.0011,-0.94,-0.09,-0.99,0.015,-0.093,0.035,-0.098
8,2.1547,0.4739,-0.0002,-0.94,-0.10,-0.99,0.015,-0.117,0.253,0.007
8,2.1564,0.4749,-0.0000,-0.94,-0.10,-0.99,0.015,-0.010,0.095,0.128
8,2.1580,0.4762,0.0001,-0.94,-0.10,-0.99,0.015,-0.252,-0.165,0.315
8,2.1596,0.4773,0.0003,-0.94,-0.10,-0.99,0.014,-0.227,0.027,0.152
8,2.1614,0.4783,0.0004,-0.94,-0.10,-0.99,0.014,-0.013,0.117,0.212
8,2.1631,0.4793,0.0005,-0.94,-0.10,-0.98,0.014,0.053,-0.067,-0.199
8,2.2034,0.4421,-0.0026,-0.93,-0.12,-0.98,0.014,-0.182,-0.050,0.171
8,2.2050,0.4433,-0.0025,-0.93,-0.12,-0.98,0.014,-0.126,0.028,-0.208
8,2.2066,0.4443,-0.0022,-0.93,-0.12,-0.98,0.014,-0.166,0.364,-0.018
8,2.2083,0.4455,-0.0019,-0.93,-0.12,-0.98,0.014,-0.001,-0.340,0.005
8,2.2368,0.4201,-0.0032,-0.92,-0.13,-0.98,0.014,-0.034,-0.069,-0.086
8,2.2384,0.4212,-0.0029,-0.92,-0.14,-0.98,0.014,-0.182,0.124,-0.140
8,2.2403,0.4223,-0.0026,-0.92,-0.13,-0.98,0.014,-0.117,0.023,-0.162
8,2.2420,0.4233,-0.0023,-0.92,-0.13,-0.97,0.016,-0.084,-0.189,0.222
8,2.2438,0.4245,-0.0020,-0.92,-0.13,-0.97,0.016,-0.281,-0.086,-0.080
8,2.2455,0.4257,-0.0016,-0.92,-0.13,-0.97,0.016,0.232,-0.127,-0.197
8,2.1680,0.5064,0.0025,-0.95,-0.09,-0.97,0.016,-0.049,-0.287,-0.399
9,2.1697,0.5074,0.0027,-0.95,-0.09,-0.97,0.016,-0.243,-0.111,0.334
9,2.1714,0.5085,0.0030,-0.95,-0.09,-0.97,0.013,0.118,-0.232,-0.077
9,2.1729,0.5096,0.0032,-0.95,-0.09,-0.97,0.013,-0.069,-0.051,-0.160
9,2.2387,0.4499,-0.0016,-0.93,-0.13,-0.97,0.013,-0.180,-0.024,-0.073
9,2.2404,0.4510,-0.0013,-0.93,-0.12,-0.97,0.013,-0.138,0.177,-0.152
9,2.2422,0.4521,-0.0010,-0.93,-0.12,-0.97,0.013,-0.089,0.105,0.203
9,2.2443,0.4531,-0.0009,-0.93,-0.12,-0.97,0.012,-0.388,-0.145,0.162
9,2.2464,0.4541,-0.0008,-0.93,-0.12,-0.97,0.012,-0.082,-0.139,0.261
9,2.3183,0.3910,-0.0059,-0.90,-0.16,-0.97,0.012,-0.184,-0.014,0.196
9,2.3202,0.3919,-0.0058,-0.91,-0.16,-0.96,0.012,-0.317,-0.010,0.062
9,2.3220,0.3929,-0.0058,-0.91,-0.16,-0.96,0.012,0.016,0.019,-0.306
9,2.3238,0.3939,-0.0057,-0.91,-0.16,-0.96,0.013,-0.156,-0.127,0.050
9,2.3256,0.3949,-0.0053,-0.91,-0.16,-0.96,0.013,-0.169,-0.293,0.192
9,2.3268,0.3965,-0.0050,-0.91,-0.16,-0.96,0.013,-0.140,-0.024,0.099
9,2.3286,0.3975,-0.0047,-0.91,-0.16,-0.96,0.013,-0.492,-0.010,-0.283
9,2.3303,0.3985,-0.0044,-0.91,-0.15,-0.96,0.013,-0.250,0.060,0.075
9,2.3321,0.3995,-0.0043,-0.91,-0.16,-0.96,0.015,-0.100,-0.411,-0.166
9,2.3340,0.4006,-0.0041,-0.91,-0.15,-0.95,0.015,-0.105,0.056,0.052
9,2.2309,0.4989,0.0014,-0.95,-0.10,-0.95,0.015,-0.146,-0.012,0.242
9,2.2329,0.5001,0.0015,-0.95,-0.10,-0.95,0.015,-0.200,-0.036,0.273
9,2.2347,0.5013,0.0017,-0.95,-0.10,-0.95,0.015,-0.269,-0.152,-0.146
9,2.2363,0.5025,0.0019,-0.95,-0.10,-0.95,0.022,-0.165,0.254,-0.184
9,2.2378,0.5038,0.0020,-0.95,-0.10,-0.95,0.022,-0.127,-0.019,-0.104
9,2.0583,0.6571,0.0202,-1.00,0.00,-0.95,0.022,-0.186,0.218,0.202
9,2.0599,0.6583,0.0204,-1.00,0.00,-0.95,0.022,0.004,0.072,0.128
9,2.0614,0.6595,0.0207,-1.00,0.00,-0.95,0.022,0.134,0.142,0.008
9,2.0628,0.6608,0.0210,-1.01,0.00,-0.95,0.017,-0.411,-0.026,0.446
9,2.0642,0.6621,0.0212,-1.01,0.00,-0.95,0.017,-0.058,-0.119,-0.131
9,2.0655,0.6632,0.0214,-1.00,0.00,-0.94,0.017,-0.250,-0.090,0.112
9,2.0180,0.7031,0.0183,-1.03,0.02,-0.94,0.017,-0.051,0.117,0.289
9,2.0195,0.7045,0.0184,-1.03,0.02,-0.94,0.017,-0.017,0.272,-0.266
9,2.0211,0.7056,0.0186,-1.03,0.02,-0.94,0.017,-0.070,0.187,0.089
9,2.0226,0.7066,0.0187,-1.03,0.02,-0.94,0.017,0.201,-0.158,-0.284
9,1.9030,0.8105,0.0143,-1.07,0.06,-0.94,0.017,0.160,-0.026,-0.258
10,1.9041,0.8119,0.0146,-1.07,0.06,-0.93,0.017,0.024,0.072,-0.091
10,1.9054,0.8132,0.0149,-1.07,0.06,-0.93,0.017,-0.030,-0.067,0.030
10,1.9069,0.8146,0.0152,-1.07,0.06,-0.93,0.017,-0.066,-0.001,-0.213
10,1.9084,0.8160,0.0155,-1.07,0.06,-0.93,0.012,-0.131,0.208,-0.086
10,1.9097,0.8172,0.0158,-1.07,0.06,-0.93,0.012,-0.230,-0.268,-0.362
10,1.2567,1.4331,-0.0096,-1.35,0.32,-0.93,0.012,-0.210,0.036,-0.001
10,1.2576,1.4349,-0.0094,-1.35,0.32,-0.93,0.012,-0.100,0.035,0.196
10,1.2586,1.4366,-0.0091,-1.35,0.32,-0.93,0.017,-0.265,0.047,0.254
10,1.2596,1.4386,-0.0089,-1.35,0.32,-0.93,0.017,-0.366,-0.457,0.042
10,1.5123,1.1454,0.0003,-1.22,0.21,-0.93,0.017,-0.219,0.213,0.142
10,1.5135,1.1470,0.0008,-1.22,0.21,-0.93,0.017,-0.099,-0.110,0.003
10,1.5147,1.1486,0.0010,-1.22,0.22,-0.93,0.017,-0.113,0.193,0.294
10,1.5160,1.1502,0.0013,-1.22,0.21,-0.92,0.015,-0.173,0.003,-0.289
10,1.5169,1.1518,0.0013,-1.22,0.21,-0.92,0.015,-0.150,0.068,0.007
10,1.5179,1.1534,0.0015,-1.22,0.21,-0.92,0.015,0.083,0.209,0.211
10,1.3604,1.3320,-0.0033,-1.29,0.28,-0.92,0.015,-0.062,-0.220,-0.240
10,1.3614,1.3336,-0.0032,-1.29,0.28,-0.92,0.015,-0.059,0.365,0.090
10,1.3624,1.3352,-0.0031,-1.29,0.28,-0.92,0.012,-0.011,0.002,-0.154
10,1.3634,1.3368,-0.0028,-1.29,0.28,-0.92,0.012,-0.109,0.160,0.401
10,1.0226,1.7414,-0.0161,-1.47,0.42,-0.92,0.012,-0.064,0.228,-0.067
10,1.0234,1.7438,-0.0159,-1.46,0.42,-0.92,0.012,-0.292,0.241,0.197
10,1.0243,1.7460,-0.0159,-1.46,0.42,-0.92,0.012,0.042,-0.142,-0.226
10,1.0252,1.7480,-0.0157,-1.46,0.42,-0.92,0.015,-0.163,0.364,0.223
10,1.0259,1.7502,-0.0154,-1.46,0.42,-0.91,0.015,-0.088,-0.038,-0.038
10,1.2237,1.4416,-0.0065,-1.33,0.33,-0.92,0.015,0.059,0.261,0.068
10,1.2246,1.4432,-0.0063,-1.33,0.33,-0.91,0.015,-0.123,-0.264,-0.203
10,1.2256,1.4449,-0.0061,-1.33,0.33,-0.91,0.015,-0.180,0.204,-0.136
10,1.2267,1.4466,-0.0059,-1.33,0.33,-0.91,0.011,-0.039,0.002,0.018
10,1.2277,1.4483,-0.0058,-1.33,0.33,-0.91,0.011,-0.144,-0.128,-0.035
10,1.0484,1.6870,-0.0137,-1.43,0.40,-0.91,0.011,-0.157,0.068,0.130
10,1.0493,1.6891,-0.0134,-1.43,0.40,-0.91,0.011,-0.110,-0.020,0.081
10,1.0503,1.6910,-0.0131,-1.43,0.40,-0.91,0.011,-0.106,-0.125,-0.055
10,1.0510,1.6927,-0.0131,-1.43,0.40,-0.90,0.011,-0.174,-0.188,0.197
11,0.0000,0.0000,0.0000,0.00,0.00,0.00,0.016,-0.258,0.176,0.185
11,0.0016,-0.0004,0.0003,-0.00,0.00,-0.00,0.016,0.166,0.123,0.107
11,0.0033,-0.0010,0.0006,-0.00,0.00,0.00,0.016,0.174,0.008,0.003
11,0.0047,-0.0016,0.0007,-0.00,0.00,0.00,0.016,0.028,0.147,-0.126
11,0.0060,-0.0021,0.0011,-0.00,0.00,0.00,0.017,0.032,-0.028,0.124
11,0.0073,-0.0026,0.0013,-0.00,0.00,0.00,0.017,-0.320,0.023,0.236
11,0.0087,-0.0030,0.0019,-0.00,0.00,0.00,0.017,-0.079,-0.199,0.155
11,0.0101,-0.0034,0.0022,-0.00,-0.00,0.00,0.017,-0.029,-0.052,0.143
11,0.0116,-0.0041,0.0026,-0.01,0.00,0.00,0.017,-0.151,0.035,0.010
11,0.0130,-0.0048,0.0029,-0.01,0.00,0.01,0.017,-0.241,0.172,0.029
11,0.0143,-0.0053,0.0029,-0.01,0.00,0.01,0.017,0.211,-0.002,-0.069
11,0.0155,-0.0060,0.0030,-0.01,0.00,0.01,0.017,-0.273,-0.001,0.124
11,0.0169,-0.0067,0.0034,-0.01,0.00,0.01,0.017,-0.135,-0.083,0.238
11,0.0184,-0.0072,0.0034,-0.01,0.00,0.01,0.017,-0.193,0.143,-0.050
11,0.0200,-0.0077,0.0034,-0.01,0.00,0.01,0.014,-0.242,-0.026,0.012
11,0.0216,-0.0082,0.0034,-0.01,0.00,0.01,0.014,-0.192,0.307,0.268
11,0.0231,-0.0086,-0.0015,-0.01,-0.00,0.01,0.014,-0.125,-0.255,0.026
11,0.0246,-0.0091,-0.0014,-0.02,-0.00,0.01,0.014,0.029,-0.016,-0.033
11,0.0261,-0.0097,-0.0012,-0.02,-0.00,0.01,0.014,-0.285,-0.012,0.353
11,0.0274,-0.0102,-0.0010,-0.02,0.00,0.01,0.014,-0.042,0.108,0.382
11,0.0289,-0.0105,-0.0007,-0.02,-0.00,0.01,0.016,-0.196,-0.203,0.049
11,0.0305,-0.0111,-0.0005,-0.02,-0.00,0.01,0.016,0.166,0.106,-0.044
11,0.0323,-0.0118,-0.0000,-0.02,-0.00,0.01,0.016,-0.188,-0.057,0.019
11,0.0339,-0.0124,0.0002,-0.02,-0.00,0.01,0.016,0.113,-0.044,-0.220
11,0.0356,-0.0130,0.0004,-0.02,0.00,0.01,0.016,-0.195,0.361,0.091
11,0.0372,-0.0136,0.0007,-0.02,0.00,0.01,0.016,0.157,0.025,0.107
11,0.0387,-0.0143,0.0012,-0.02,0.00,0.01,0.016,-0.338,0.118,0.029
11,0.0401,-0.0147,0.0015,-0.02,0.00,0.01,0.016,-0.177,-0.057,0.100
11,0.0417,-0.0153,0.0015,-0.02,-0.00,0.01,0.016,-0.142,0.272,-0.022
11,0.0435,-0.0159,0.0016,-0.03,-0.00,0.01,0.016,-0.167,-0.063,-0.209
11,0.0451,-0.0165,0.0017,-0.03,-0.00,0.02,0.014,-0.106,0.194,-0.283
11,0.0466,-0.0172,0.0019,-0.03,-0.00,0.02,0.014,-0.312,-0.129,0.177
11,0.0482,-0.0178,-0.0028,-0.03,-0.00,0.01,0.014,0.146,-0.172,-0.460
11,0.0496,-0.0183,-0.0026,-0.03,-0.00,0.01,0.014,-0.017,-0.166,-0.162
12,0.0511,-0.0186,-0.0025,-0.03,-0.00,0.01,0.016,-0.067,0.204,0.100
12,0.0527,-0.0191,-0.0024,-0.03,-0.00,0.01,0.016,-0.152,0.154,-0.110
12,0.0541,-0.0194,-0.0001,-0.03,-0.00,0.01,0.016,0.285,-0.152,-0.025
12,0.0555,-0.0199,0.0002,-0.03,-0.00,0.01,0.016,-0.016,0.223,-0.309
12,0.0569,-0.0206,0.0004,-0.03,-0.00,0.01,0.016,-0.300,-0.073,0.125
12,0.0584,-0.0210,0.0005,-0.03,-0.00,0.01,0.016,-0.055,-0.297,-0.225
12,0.0600,-0.0214,0.0008,-0.03,-0.01,0.01,0.016,-0.037,0.147,-0.025
12,0.0615,-0.0219,0.0011,-0.03,-0.01,0.01,0.016,-0.131,0.281,0.069
12,0.0631,-0.0224,0.0026,-0.03,-0.01,0.01,0.016,-0.149,-0.043,0.163
12,0.0645,-0.0229,0.0029,-0.03,-0.01,0.01,0.016,-0.098,-0.038,0.159
12,0.0660,-0.0236,0.0030,-0.04,-0.01,0.01,0.017,-0.107,0.097,0.271
12,0.0674,-0.0242,0.0031,-0.04,-0.01,0.01,0.017,-0.340,0.157,0.226
12,0.0688,-0.0246,0.0060,-0.04,-0.01,0.01,0.017,-0.114,-0.189,-0.290
12,0.0704,-0.0251,0.0062,-0.04,-0.01,0.01,0.017,-0.192,0.063,0.023
12,0.0720,-0.0256,0.0064,-0.04,-0.01,0.01,0.017,-0.107,0.179,-0.316
12,0.0735,-0.0261,0.0066,-0.04,-0.01,0.01,0.017,-0.146,-0.218,-0.025
12,0.0748,-0.0264,0.0069,-0.05,-0.01,0.01,0.017,-0.009,0.254,-0.040
22,0.0762,-0.0268,0.0072,-0.05,-0.01,0.01,0.017,0.095,-0.066,0.213
32,0.0775,-0.0273,0.0081,-0.05,-0.01,0.01,0.017,0.075,0.096,-0.108
42,0.0789,-0.0277,0.0081,-0.05,-0.01,0.01,0.017,-0.036,0.249,-0.042
52,0.0803,-0.0283,0.0082,-0.05,-0.01,0.01,0.014,0.077,0.294,0.241
62,0.0817,-0.0289,0.0086,-0.05,-0.01,0.01,0.014,-0.150,-0.286,0.043
72,0.0837,-0.0295,0.0023,-0.05,-0.01,0.01,0.014,0.004,-0.067,-0.030
82,0.0852,-0.0300,0.0026,-0.05,-0.01,0.01,0.014,-0.138,0.078,-0.323
92,0.0867,-0.0304,0.0026,-0.05,-0.01,0.01,0.014,0.088,-0.190,-0.238
102,0.0881,-0.0308,0.0027,-0.05,-0.01,0.01,0.017,-0.394,0.008,0.053
112,0.0896,-0.0314,0.0029,-0.05,-0.01,0.01,0.017,-0.185,0.178,-0.052
122,0.0911,-0.0319,0.0032,-0.05,-0.01,0.01,0.017,-0.154,-0.074,0.068
132,0.0924,-0.0322,0.0055,-0.06,-0.01,0.01,0.017,-0.098,0.025,0.112
142,0.0940,-0.0327,0.0058,-0.06,-0.01,0.01,0.017,-0.072,0.131,0.070
152,0.0957,-0.0331,0.0061,-0.06,-0.01,0.01,0.015,0.024,0.079,0.208
162,0.0971,-0.0332,0.0063,-0.06,-0.01,0.01,0.015,-0.074,-0.132,0.011
173,0.0989,-0.0336,0.0028,-0.06,-0.01,0.01,0.015,-0.429,-0.085,0.268
182,0.1004,-0.0340,0.0030,-0.06,-0.02,0.01,0.015,-0.323,0.307,0.162
193,0.1019,-0.0342,0.0032,-0.06,-0.01,0.01,0.015,-0.022,-0.013,0.209
202,0.1036,-0.0346,0.0034,-0.06,-0.02,0.01,0.015,-0.159,0.055,0.156
212,0.1051,-0.0350,0.0034,-0.07,-0.02,0.01,0.016,-0.175,-0.116,-0.125
222,0.1065,-0.0355,0.0035,-0.07,-0.02,0.01,0.016,-0.134,-0.247,0.119
232,0.1080,-0.0358,0.0032,-0.07,-0.02,0.01,0.016,-0.161,0.324,-0.094
242,0.1095,-0.0359,0.0034,-0.07,-0.02,0.01,0.016,-0.284,0.004,0.035
252,0.1109,-0.0361,0.0037,-0.07,-0.02,0.01,0.014,-0.089,-0.095,0.270
262,0.1124,-0.0363,0.0037,-0.08,-0.02,0.01,0.014,-0.067,0.054,0.009
272,0.1142,-0.0370,-0.0012,-0.08,-0.02,0.01,0.014,-0.237,0.199,-0.022
282,0.1155,-0.0375,-0.0011,-0.08,-0.02,0.01,0.014,0.200,0.000,-0.020
292,0.1170,-0.0378,-0.0011,-0.08,-0.02,0.01,0.014,-0.374,-0.040,0.120
302,0.1184,-0.0383,-0.0010,-0.08,-0.02,0.02,0.014,-0.313,-0.061,0.138
312,0.1198,-0.0388,-0.0008,-0.08,-0.02,0.01,0.013,-0.008,0.035,0.091
322,0.1213,-0.0391,-0.0006,-0.08,-0.02,0.01,0.013,-0.099,0.172,-0.169
331,0.1236,-0.0397,-0.0055,-0.08,-0.02,0.01,0.013,0.083,-0.004,-0.118
342,0.1253,-0.0399,-0.0053,-0.08,-0.02,0.01,0.013,-0.062,-0.075,-0.039
352,0.1270,-0.0402,-0.0052,-0.09,-0.02,0.01,0.017,-0.272,-0.285,0.255
362,0.1286,-0.0406,-0.0051,-0.09,-0.02,0.01,0.017,-0.064,0.000,-0.051
372,0.1292,-0.0408,0.0014,-0.09,-0.01,0.01,0.017,-0.289,0.094,0.026
382,0.1306,-0.0413,0.0015,-0.09,-0.01,0.01,0.017,-0.353,0.057,0.016
392,0.1321,-0.0416,0.0016,-0.09,-0.01,0.01,0.017,0.022,0.034,-0.392
402,0.1337,-0.0418,0.0018,-0.09,-0.01,0.01,0.015,0.053,-0.046,0.215
412,0.1352,-0.0420,0.0020,-0.09,-0.02,0.01,0.015,0.223,-0.114,-0.160
422,0.1368,-0.0423,0.0013,-0.10,-0.02,0.01,0.015,-0.253,-0.244,-0.076
432,0.1385,-0.0427,0.0015,-0.10,-0.01,0.01,0.015,-0.065,0.102,-0.112
442,0.1401,-0.0431,0.0018,-0.10,-0.01,0.01,0.015,-0.184,-0.160,-0.278
452,0.1416,-0.0436,0.0021,-0.10,-0.01,0.01,0.016,-0.091,-0.033,0.074
462,0.1432,-0.0439,0.0023,-0.10,-0.01,0.01,0.016,0.179,0.323,-0.008
471,0.1444,-0.0442,0.0041,-0.10,-0.01,0.01,0.016,0.142,0.130,-0.053
482,0.1458,-0.0444,0.0042,-0.10,-0.01,0.01,0.016,0.042,-0.190,-0.166
492,0.1471,-0.0446,0.0044,-0.10,-0.02,0.01,0.016,-0.129,-0.007,-0.057
502,0.1485,-0.0448,0.0046,-0.10,-0.02,0.01,0.014,-0.115,-0.253,-0.035
512,0.1501,-0.0452,0.0047,-0.10,-0.01,0.01,0.014,-0.029,0.003,0.130
521,0.1515,-0.0456,0.0051,-0.10,-0.02,0.01,0.014,-0.003,-0.260,-0.185
531,0.1535,-0.0459,0.0012,-0.10,-0.01,0.01,0.014,-0.085,0.044,0.026
541,0.1551,-0.0461,0.0013,-0.10,-0.01,0.01,0.014,-0.204,0.065,-0.142
551,0.1568,-0.0464,0.0014,-0.10,-0.01,0.01,0.015,0.155,0.106,-0.224
561,0.1584,-0.0468,0.0015,-0.10,-0.01,0.00,0.015,-0.333,-0.072,0.139
572,0.1601,-0.0471,0.0016,-0.10,-0.01,0.01,0.015,-0.215,-0.178,0.130
582,0.1617,-0.0473,0.0020,-0.10,-0.01,0.00,0.015,-0.028,0.067,-0.011
591,0.1632,-0.0475,0.0023,-0.10,-0.01,0.00,0.015,-0.123,0.162,0.052
602,0.1646,-0.0476,0.0026,-0.10,-0.01,0.00,0.012,0.045,0.081,0.126
612,0.1662,-0.0478,0.0026,-0.10,-0.01,0.00,0.012,-0.110,0.027,-0.257
621,0.1678,-0.0480,0.0028,-0.11,-0.01,0.00,0.012,-0.209,-0.044,-0.013
632,0.1707,-0.0486,-0.0041,-0.10,-0.02,0.00,0.012,-0.079,0.367,0.172
642,0.1722,-0.0488,-0.0040,-0.11,-0.02,0.00,0.012,-0.275,0.015,0.021
652,0.1736,-0.0492,-0.0036,-0.11,-0.02,0.00,0.016,-0.172,0.059,0.079
661,0.1751,-0.0496,-0.0033,-0.11,-0.03,0.01,0.016,-0.188,-0.420,-0.205
671,0.1760,-0.0500,0.0017,-0.11,-0.03,0.01,0.016,-0.117,0.012,-0.210
682,0.1775,-0.0504,0.0019,-0.11,-0.03,0.01,0.016,-0.103,-0.182,-0.173
691,0.1789,-0.0508,0.0020,-0.11,-0.02,0.01,0.016,-0.287,-0.010,-0.038
701,0.1804,-0.0510,0.0022,-0.11,-0.02,0.00,0.015,0.087,-0.127,-0.034
712,0.1819,-0.0513,0.0025,-0.11,-0.02,0.00,0.015,-0.186,-0.223,0.081
721,0.1835,-0.0517,0.0027,-0.11,-0.02,0.00,0.015,-0.034,0.515,-0.039
731,0.1850,-0.0521,0.0036,-0.11,-0.02,-0.00,0.015,0.060,-0.110,0.160
741,0.1869,-0.0525,0.0037,-0.11,-0.02,-0.00,0.015,-0.211,0.001,-0.355
752,0.1885,-0.0529,0.0039,-0.12,-0.02,-0.00,0.014,-0.094,-0.108,-0.021
761,0.1901,-0.0531,0.0044,-0.12,-0.02,-0.00,0.014,0.063,-0.048,-0.077
772,0.1920,-0.0535,0.0027,-0.12,-0.02,-0.00,0.014,-0.182,0.138,0.061
781,0.1934,-0.0539,0.0027,-0.12,-0.02,-0.00,0.014,-0.211,0.077,-0.167
791,0.1947,-0.0543,0.0027,-0.12,-0.02,-0.00,0.014,0.012,0.176,0.010
801,0.1963,-0.0547,0.0029,-0.12,-0.02,-0.00,0.015,0.022,-0.061,0.162
812,0.1977,-0.0548,0.0031,-0.12,-0.02,-0.00,0.015,-0.088,0.010,0.003
821,0.1992,-0.0552,0.0033,-0.12,-0.02,-0.00,0.015,-0.188,0.104,0.306
832,0.2005,-0.0556,0.0039,-0.12,-0.02,-0.00,0.015,-0.282,-0.168,0.294
841,0.2020,-0.0561,0.0042,-0.12,-0.02,-0.00,0.015,-0.297,-0.167,0.125
851,0.2035,-0.0564,0.0044,-0.12,-0.02,-0.00,0.013,-0.251,0.181,0.136
862,0.2049,-0.0566,0.0043,-0.13,-0.02,0.00,0.013,0.152,0.078,0.115
871,0.2073,-0.0572,-0.0000,-0.13,-0.02,-0.00,0.013,-0.244,-0.121,0.190
882,0.2087,-0.0576,0.0001,-0.13,-0.02,0.00,0.013,0.010,-0.006,0.035
891,0.2102,-0.0578,0.0004,-0.13,-0.02,0.00,0.013,-0.251,-0.129,0.142
901,0.2116,-0.0579,0.0005,-0.13,-0.03,0.00,0.016,0.002,0.362,0.040
911,0.2132,-0.0582,0.0007,-0.13,-0.03,0.00,0.016,-0.282,-0.029,-0.302
922,0.2148,-0.0584,0.0008,-0.13,-0.02,0.00,0.016,-0.269,-0.100,0.007
932,0.2153,-0.0584,0.0051,-0.13,-0.03,-0.00,0.016,-0.172,0.124,-0.138
942,0.2168,-0.0586,0.0053,-0.14,-0.03,-0.00,0.016,-0.012,0.018,-0.124
952,0.2183,-0.0588,0.0055,-0.14,-0.03,-0.00,0.013,-0.083,0.170,0.104
961,0.2198,-0.0589,0.0055,-0.14,-0.03,-0.00,0.013,-0.310,0.281,0.355
971,0.2225,-0.0594,0.0007,-0.14,-0.02,-0.00,0.013,-0.188,-0.027,0.012
982,0.2242,-0.0597,0.0008,-0.14,-0.03,0.00,0.013,-0.287,-0.081,-0.160
992,0.2260,-0.0598,0.0010,-0.14,-0.03,0.00,0.013,-0.101,0.109,-0.484
1001,0.2276,-0.0601,0.0012,-0.14,-0.03,0.00,0.013,0.092,-0.069,0.041
1011,0.2291,-0.0604,0.0015,-0.14,-0.03,-0.00,0.015,0.067,0.229,0.131
1021,0.2308,-0.0606,0.0018,-0.14,-0.03,-0.00,0.015,-0.150,-0.128,0.487
1031,0.2319,-0.0607,0.0033,-0.14,-0.03,-0.00,0.015,-0.039,-0.108,-0.083
1041,0.2334,-0.0609,0.0034,-0.15,-0.03,-0.00,0.015,0.200,0.027,-0.087
1052,0.2350,-0.0613,0.0034,-0.15,-0.03,0.00,0.014,-0.203,0.101,0.051
1061,0.2367,-0.0617,0.0035,-0.14,-0.03,-0.00,0.014,0.143,-0.153,0.010
1072,0.2385,-0.0619,0.0021,-0.15,-0.03,-0.00,0.014,-0.119,0.225,0.291
1082,0.2400,-0.0622,0.0023,-0.15,-0.03,-0.00,0.014,0.127,-0.192,-0.071
1091,0.2416,-0.0624,0.0024,-0.15,-0.03,0.00,0.014,-0.148,-0.006,-0.055
1101,0.2432,-0.0627,0.0026,-0.15,-0.03,-0.00,0.014,-0.105,-0.082,-0.298
1111,0.2448,-0.0630,0.0032,-0.15,-0.03,-0.00,0.014,0.115,0.004,-0.129
1121,0.2464,-0.0634,0.0037,-0.15,-0.03,-0.00,0.014,-0.086,0.304,0.012
1132,0.2484,-0.0638,0.0025,-0.15,-0.03,-0.00,0.014,-0.276,0.040,-0.164
1141,0.2500,-0.0641,0.0028,-0.15,-0.03,-0.00,0.014,-0.058,0.109,-0.082
1151,0.2517,-0.0644,0.0031,-0.15,-0.04,-0.00,0.016,-0.143,0.059,0.123
1161,0.2533,-0.0647,0.0034,-0.15,-0.03,-0.00,0.016,0.040,-0.270,-0.104
1171,0.2540,-0.0649,0.0067,-0.15,-0.04,-0.00,0.016,-0.215,-0.135,0.106
1181,0.2555,-0.0652,0.0070,-0.15,-0.03,-0.00,0.016,-0.160,0.118,0.091
1192,0.2568,-0.0655,0.0072,-0.15,-0.03,-0.00,0.016,0.069,-0.186,0.024
1201,0.2582,-0.0657,0.0073,-0.15,-0.03,-0.00,0.016,-0.015,-0.187,-0.159
1211,0.2597,-0.0658,0.0076,-0.15,-0.03,-0.00,0.016,-0.104,0.173,0.103
1222,0.2610,-0.0659,0.0089,-0.16,-0.03,-0.00,0.016,-0.064,-0.210,-0.053
1231,0.2624,-0.0663,0.0091,-0.16,-0.03,-0.01,0.016,-0.184,0.177,0.137
1242,0.2637,-0.0666,0.0092,-0.16,-0.03,-0.01,0.016,-0.349,0.072,0.247
1251,0.2652,-0.0668,0.0094,-0.16,-0.03,-0.01,0.014,-0.107,0.057,0.069
1261,0.2668,-0.0668,0.0097,-0.16,-0.03,-0.00,0.014,-0.239,-0.114,0.082
1271,0.2697,-0.0673,0.0056,-0.16,-0.03,-0.00,0.014,-0.070,0.081,-0.220
1282,0.2714,-0.0676,0.0058,-0.16,-0.03,-0.00,0.014,-0.106,-0.246,-0.131
1291,0.2728,-0.0676,0.0061,-0.16,-0.04,-0.00,0.014,-0.202,0.059,0.137
1301,0.2743,-0.0676,0.0062,-0.16,-0.03,-0.00,0.016,-0.029,-0.065,-0.368
1312,0.2759,-0.0678,0.0064,-0.17,-0.03,-0.01,0.016,-0.144,-0.150,0.105
1322,0.2773,-0.0682,0.0075,-0.17,-0.03,-0.01,0.016,-0.185,0.088,0.174
1332,0.2790,-0.0685,0.0079,-0.17,-0.03,-0.01,0.016,0.069,-0.211,-0.241
1342,0.2805,-0.0686,0.0081,-0.17,-0.03,-0.00,0.016,-0.101,0.258,0.056
1351,0.2820,-0.0687,0.0084,-0.17,-0.03,-0.00,0.018,-0.243,-0.192,-0.091
1361,0.2834,-0.0689,0.0086,-0.17,-0.03,-0.00,0.018,-0.073,0.014,-0.030
1371,0.2837,-0.0690,0.0127,-0.17,-0.03,-0.01,0.018,0.073,0.059,-0.034
1381,0.2837,-0.0690,0.0127,-0.17,-0.03,-0.01,0.018,-0.078,0.105,-0.053
1391,0.2853,-0.0694,0.0129,-0.18,-0.03,-0.01,0.018,0.037,0.409,-0.096
1401,0.2867,-0.0699,0.0130,-0.18,-0.03,-0.01,0.015,-0.256,0.078,0.115
1411,0.2883,-0.0701,0.0130,-0.18,-0.03,-0.01,0.015,-0.236,-0.002,-0.065
1421,0.2897,-0.0702,0.0130,-0.18,-0.03,-0.01,0.015,-0.232,0.150,-0.189
1431,0.2931,-0.0708,0.0069,-0.18,-0.04,-0.01,0.015,0.046,-0.076,0.228
1441,0.2947,-0.0710,0.0071,-0.18,-0.04,-0.01,0.015,-0.124,-0.031,-0.012
1451,0.2964,-0.0712,0.0073,-0.18,-0.04,-0.01,0.017,0.086,-0.103,0.041
1460,0.2980,-0.0714,0.0075,-0.18,-0.04,-0.01,0.017,-0.069,0.155,0.070
1471,0.2992,-0.0717,0.0081,-0.18,-0.04,-0.01,0.017,-0.090,0.149,0.107
1481,0.3005,-0.0720,0.0083,-0.18,-0.04,-0.01,0.017,0.072,-0.077,-0.201
0,0.3020,-0.0722,0.0086,-0.18,-0.04,-0.01,0.017,-0.224,0.173,-0.015
10,0.3034,-0.0725,0.0089,-0.18,-0.04,-0.01,0.015,-0.575,-0.177,0.425
20,0.3049,-0.0727,0.0091,-0.18,-0.04,-0.01,0.015,-0.408,-0.010,-0.064
30,0.3064,-0.0727,0.0093,-0.19,-0.04,-0.01,0.015,-0.308,-0.033,0.405
39,0.3097,-0.0732,0.0039,-0.19,-0.04,-0.01,0.015,-0.511,0.162,1.113
50,0.3098,-0.0729,0.0041,-0.19,-0.04,-0.01,0.015,-0.368,0.385,0.179
60,0.3098,-0.0726,0.0043,-0.20,-0.04,-0.01,0.014,-0.744,0.397,0.309
70,0.3099,-0.0722,0.0047,-0.20,-0.04,-0.01,0.014,-0.738,-0.339,0.624
80,0.3119,-0.0722,-0.0002,-0.20,-0.05,-0.01,0.014,0.548,-0.290,-1.702
89,0.3119,-0.0719,-0.0001,-0.21,-0.05,-0.02,0.014,0.077,-0.724,1.285
100,0.3120,-0.0715,-0.0003,-0.21,-0.04,-0.01,0.014,3.645,3.457,5.995
110,0.3121,-0.0712,0.0001,-0.21,-0.05,-0.01,0.014,-0.908,2.345,7.529
120,0.3122,-0.0708,0.0008,-0.21,-0.04,-0.01,0.017,-3.102,-9.095,7.181
130,0.3122,-0.0704,0.0017,-0.20,-0.03,0.03,0.017,7.675,-15.184,7.478
139,0.3111,-0.0699,0.0033,-0.21,-0.03,0.09,0.017,-1.297,10.318,5.834
150,0.3112,-0.0696,0.0063,-0.21,-0.04,0.17,0.017,28.839,-5.637,3.379
159,0.3113,-0.0692,0.0098,-0.24,0.02,0.24,0.014,-15.590,1.451,1.804
170,0.3112,-0.0688,0.0058,-0.31,0.06,0.31,0.014,-30.998,-16.524,2.793
180,0.3127,-0.0685,0.0001,-0.14,-0.05,0.35,0.014,-0.641,-10.512,0.619
190,0.3128,-0.0682,0.0024,-0.11,-0.07,0.37,0.014,-0.878,-26.308,0.046
199,0.3130,-0.0680,0.0050,-0.35,0.01,0.39,0.014,-21.468,-48.996,-0.129
210,0.3129,-0.0673,0.0167,-0.57,0.19,0.41,0.014,-32.261,-60.292,0.523
220,0.3125,-0.0662,0.0315,-0.53,0.35,0.41,0.020,-35.227,-64.202,0.182
229,0.3117,-0.0652,0.0440,-0.65,0.75,0.42,0.020,-28.846,-62.621,-0.875
240,0.3082,-0.0637,0.0679,-0.93,1.32,0.42,0.020,-25.497,-55.007,-0.884
250,0.3053,-0.0618,0.0855,-1.27,1.94,0.44,0.020,-24.558,-51.662,-0.640
259,0.3007,-0.0588,0.1076,-1.62,2.65,0.45,0.004,-12.561,-44.942,-3.684
270,0.2949,-0.0554,0.1287,-1.89,3.24,0.47,0.004,-4.294,-29.230,-5.682
279,0.2934,-0.0497,0.1085,-2.14,3.74,0.48,0.004,7.043,-14.353,-6.169
290,0.2855,-0.0453,0.1278,-2.33,4.23,0.47,0.004,24.182,-3.453,-4.617
300,0.2765,-0.0405,0.1501,-2.40,4.60,0.44,0.004,32.963,4.426,-6.189
310,0.1138,-0.0124,0.1733,-2.44,5.20,0.40,0.008,35.171,16.007,-5.870
320,0.1045,-0.1066,0.1995,-2.01,5.28,0.34,0.008,29.460,25.881,-4.338
330,-0.0401,-0.0580,0.2201,-1.82,5.61,0.29,0.008,20.956,36.703,-4.655
340,-0.1738,-0.0741,0.1975,-1.41,5.84,0.23,0.008,10.701,42.677,-5.096
350,-0.1675,-0.0577,0.2194,-1.12,5.58,0.18,0.008,-1.759,43.302,-4.151
360,-0.1724,-0.0583,0.2392,-0.85,5.25,0.12,0.027,-7.712,40.966,-4.364
370,-0.1830,-0.0567,0.2581,-0.70,4.84,0.07,0.027,-16.323,37.979,-2.475
380,-0.1292,-0.0519,0.2803,-0.68,4.20,0.02,0.027,-15.210,27.962,-4.299
389,-0.1628,-0.0829,0.2943,-0.63,3.86,-0.05,0.027,-13.341,14.024,-4.735
400,-0.1719,-0.1183,0.3074,-0.63,3.48,-0.11,0.027,-12.001,0.204,-4.293
410,-0.1569,-0.1032,0.3267,-0.85,3.08,-0.14,0.038,-7.784,-1.307,-3.489
420,-0.1376,-0.1034,0.3442,-0.98,2.80,-0.19,0.038,-4.800,3.708,-2.907
430,-0.1511,-0.1009,0.3569,-1.10,2.78,-0.24,0.038,2.938,8.232,-3.475
439,-0.1642,-0.0976,0.3530,-1.19,2.83,-0.28,0.038,10.833,13.753,-3.590
450,-0.1684,-0.0965,0.3630,-1.26,2.82,-0.30,0.038,19.690,18.482,-3.140
460,-0.1615,-0.1275,0.3701,-1.11,2.70,-0.37,0.065,24.511,18.405,-3.145
470,-0.1562,-0.1187,0.3795,-1.06,2.54,-0.40,0.065,21.739,16.126,-2.901
480,-0.1492,-0.1131,0.3981,-0.92,2.30,-0.42,0.065,18.271,12.626,-1.927
489,-0.1742,-0.1012,0.4028,-0.73,2.22,-0.44,0.065,12.979,11.248,-1.076
499,-0.1777,-0.0860,0.4093,-0.58,2.04,-0.45,0.065,8.571,11.424,-0.281
509,-0.1773,-0.0866,0.4136,-0.36,1.87,-0.48,0.083,3.740,14.804,0.264
519,-0.1751,-0.0815,0.4172,-0.24,1.72,-0.48,0.083,-0.812,18.696,0.061
529,-0.1835,-0.0693,0.4180,-0.22,1.64,-0.48,0.083,-5.210,22.098,1.051
540,-0.1771,-0.0700,0.4185,-0.15,1.45,-0.48,0.083,-8.233,21.472,1.186
549,-0.1798,-0.0662,0.4176,-0.17,1.27,-0.47,0.083,-9.363,21.691,1.931
559,-0.1750,-0.0609,0.4179,-0.24,1.01,-0.46,0.112,-8.338,20.107,1.204
570,-0.1703,-0.0608,0.4177,-0.31,0.75,-0.45,0.112,-5.717,16.168,2.248
580,-0.1590,-0.0606,0.4342,-0.40,0.42,-0.43,0.112,-4.440,14.263,2.319
590,-0.1502,-0.0828,0.4323,-0.33,0.14,-0.44,0.112,-6.394,19.049,1.977
600,-0.1487,-0.0720,0.4312,-0.47,-0.05,-0.41,0.112,-6.425,27.648,2.872
609,-0.1378,-0.0894,0.4286,-0.38,-0.27,-0.40,0.127,-11.952,40.149,3.584
619,-0.1329,-0.0824,0.4264,-0.48,-0.48,-0.38,0.127,-17.975,49.239,3.502
629,-0.1326,-0.0808,0.4222,-0.55,-0.72,-0.35,0.127,-22.750,56.989,2.945
639,-0.1237,-0.0805,0.4120,-0.64,-1.13,-0.32,0.127,-26.036,62.828,2.830
649,-0.1301,-0.0656,0.4074,-0.89,-1.52,-0.29,0.127,-32.784,61.492,4.518
660,-0.1217,-0.0637,0.4021,-1.10,-2.12,-0.27,0.160,-32.320,57.789,5.109
669,-0.1206,-0.0622,0.3958,-1.35,-2.72,-0.26,0.160,-30.756,50.303,6.488
679,-0.1139,-0.0571,0.4136,-1.68,-3.36,-0.24,0.160,-27.004,42.272,6.791
690,-0.1047,-0.0536,0.4070,-2.00,-3.99,-0.21,0.160,-19.182,31.037,7.414
699,-0.1004,-0.0462,0.4004,-2.35,-4.51,-0.17,0.160,-13.455,19.313,8.025
709,-0.0912,-0.0435,0.3934,-2.61,-4.99,-0.13,0.174,-4.888,10.615,8.367
719,-0.0824,-0.0382,0.3863,-2.84,-5.35,-0.07,0.174,-1.488,-1.283,9.419
729,-0.0737,-0.0298,0.3790,-3.03,-5.62,-0.01,0.174,2.189,-6.348,10.662
740,-0.0675,-0.0195,0.3712,-3.14,-5.72,0.06,0.174,8.062,-11.093,10.016
749,-0.0562,-0.0155,0.3630,-3.15,-5.77,0.15,0.174,9.247,-16.083,10.297
759,-0.0477,-0.0070,0.3544,-3.15,-5.72,0.25,0.201,10.724,-14.881,9.860
770,-0.0370,-0.0022,0.3453,-3.08,-5.65,0.35,0.201,14.159,-15.196,9.675
779,-0.0284,0.0027,0.3573,-2.98,-5.50,0.46,0.201,13.278,-15.736,9.472
789,-0.0199,0.0075,0.3482,-2.88,-5.36,0.57,0.201,13.990,-13.799,8.105
800,-0.0086,0.0110,0.3391,-2.72,-5.24,0.68,0.201,12.206,-12.216,8.313
809,-0.0006,0.0154,0.3296,-2.58,-5.09,0.79,0.210,11.258,-12.330,8.291
820,0.0076,0.0181,0.3197,-2.42,-4.95,0.88,0.210,10.668,-13.904,7.826
830,0.0109,0.0293,0.3042,-2.34,-4.79,0.94,0.210,11.784,-14.841,8.239
839,0.0182,0.0382,0.2939,-2.25,-4.68,1.01,0.210,10.317,-15.816,8.619
849,0.0262,0.0403,0.2840,-2.12,-4.55,1.10,0.210,14.101,-21.542,6.795
859,0.0313,0.0529,0.2741,-2.08,-4.40,1.16,0.228,15.526,-23.326,7.394
870,0.0359,0.0596,0.2642,-1.99,-4.23,1.23,0.228,17.832,-25.995,6.348
880,0.0455,0.0616,0.2605,-1.84,-4.05,1.32,0.228,22.155,-30.313,6.336
889,0.0531,0.0617,0.2503,-1.67,-3.83,1.41,0.228,24.715,-34.277,4.648
899,0.0563,0.0656,0.2407,-1.50,-3.56,1.48,0.228,26.662,-34.038,4.306
909,0.0620,0.0771,0.2316,-1.35,-3.27,1.52,0.233,29.985,-34.689,2.502
919,0.0671,0.0764,0.2229,-1.08,-2.94,1.59,0.233,33.073,-34.439,1.254
930,0.0736,0.0868,0.2138,-0.88,-2.61,1.61,0.233,30.590,-33.088,1.629
940,0.0743,0.0898,0.1929,-0.61,-2.25,1.64,0.233,32.945,-30.462,-0.435
950,0.0761,0.0961,0.1834,-0.32,-1.88,1.64,0.233,34.703,-28.321,-1.250
959,0.0787,0.0986,0.1744,-0.02,-1.55,1.65,0.236,32.432,-29.537,-2.110
969,0.0859,0.0935,0.1660,0.35,-1.26,1.67,0.236,30.150,-26.444,-2.383
979,0.0841,0.0986,0.1382,0.63,-0.94,1.64,0.236,27.346,-26.480,-2.301
989,0.0827,0.1115,0.1303,0.85,-0.62,1.58,0.236,28.311,-23.537,-3.150
1000,0.0828,0.1104,0.1229,1.15,-0.34,1.55,0.236,25.086,-23.018,-3.710
1009,0.0899,0.1048,0.1159,1.48,-0.13,1.53,0.243,24.455,-22.207,-3.508
1019,0.0841,0.1094,0.1089,1.69,0.15,1.48,0.243,24.344,-22.427,-3.420
1029,0.0844,0.1089,0.1019,1.93,0.38,1.43,0.243,20.274,-21.737,-3.570
1039,0.0841,0.1004,0.0863,2.22,0.60,1.40,0.243,20.607,-22.439,-4.224
1049,0.0784,0.1095,0.0806,2.35,0.86,1.33,0.243,25.079,-23.066,-4.012
1060,0.0780,0.1010,0.0752,2.61,1.07,1.29,0.249,17.901,-21.924,-3.401
1069,0.0784,0.0985,0.0699,2.80,1.28,1.23,0.249,21.208,-18.916,-3.639
1079,0.0745,0.0966,0.0637,3.02,1.52,1.18,0.249,16.722,-17.644,-3.257
1089,0.0691,0.0938,0.0585,3.20,1.76,1.12,0.249,11.504,-17.325,-2.267
1099,0.0705,0.0852,0.0540,3.43,1.92,1.08,0.249,10.801,-10.787,-3.115
1109,0.0663,0.0755,0.0499,3.65,2.10,1.04,0.261,7.047,-10.454,-2.408
1120,0.0661,0.0730,0.0459,3.76,2.26,1.00,0.261,4.248,-7.845,-1.229
1129,0.0628,0.0651,0.0617,3.90,2.39,0.97,0.261,2.639,-5.849,-1.023
1139,0.0619,0.0563,0.0577,3.99,2.47,0.94,0.261,1.019,-2.343,-0.353
1149,0.0570,0.0478,0.0542,4.06,2.55,0.92,0.261,0.270,-1.566,-0.069
1159,0.0535,0.0397,0.0508,4.11,2.60,0.90,0.265,-2.650,-3.253,0.427
1169,0.0488,0.0401,0.0474,4.07,2.63,0.89,0.265,-3.942,1.085,0.448
1179,0.0433,0.0404,0.0587,4.03,2.67,0.88,0.265,-8.726,-2.329,2.417
1189,0.0389,0.0336,0.0555,4.01,2.69,0.88,0.265,-6.966,2.413,1.243
1199,0.0349,0.0268,0.0525,3.96,2.69,0.89,0.265,-10.398,-0.000,2.093
1209,0.0301,0.0195,0.0491,3.87,2.72,0.91,0.269,-13.297,3.820,3.038
1219,0.0257,0.0130,0.0457,3.80,2.71,0.92,0.269,-11.366,5.436,2.811
1229,0.0213,0.0062,0.0547,3.69,2.70,0.95,0.269,-12.471,2.986,3.378
1239,0.0169,0.0000,0.0517,3.57,2.67,0.97,0.269,-13.803,2.171,4.671
1249,0.0110,-0.0042,0.0487,3.44,2.64,1.00,0.269,-13.564,5.046,5.184
1260,0.0107,-0.0209,0.0457,3.39,2.60,1.04,0.266,-16.115,5.241,4.839
1269,0.0051,-0.0259,0.0427,3.25,2.57,1.08,0.266,-14.333,9.436,5.290
1279,0.0010,-0.0312,0.0348,3.11,2.53,1.13,0.266,-14.460,13.338,6.193
1289,-0.0055,-0.0333,0.0320,2.94,2.49,1.19,0.266,-14.938,13.662,6.147
1299,-0.0077,-0.0398,0.0289,2.80,2.38,1.24,0.266,-22.739,16.107,6.370
1309,-0.0057,-0.0576,0.0254,2.74,2.21,1.30,0.266,-23.940,16.153,7.346
1319,-0.0103,-0.0616,0.0221,2.59,2.09,1.37,0.263,-26.161,16.545,7.292
1329,-0.0158,-0.0601,0.0064,2.33,1.96,1.45,0.263,-26.546,15.835,7.419
1339,-0.0198,-0.0587,0.0037,2.05,1.80,1.53,0.263,-29.904,16.519,7.557
1349,-0.0247,-0.0651,0.0009,1.80,1.66,1.61,0.263,-24.761,16.023,7.024
1359,-0.0259,-0.0705,-0.0021,1.55,1.49,1.68,0.258,-27.523,15.142,7.326
1369,-0.0285,-0.0768,-0.0053,1.27,1.34,1.76,0.258,-25.170,13.932,7.718
1379,-0.0271,-0.0873,-0.0262,1.06,1.16,1.83,0.258,-21.654,14.277,6.886
1389,-0.0291,-0.0930,-0.0284,0.82,1.02,1.90,0.258,-22.229,14.742,7.536
1399,-0.0313,-0.0880,-0.0303,0.53,0.88,1.98,0.258,-23.380,14.501,7.748
1409,-0.0290,-0.1075,-0.0324,0.42,0.72,2.04,0.259,-24.532,14.352,8.322
1419,-0.0307,-0.1032,-0.0344,0.15,0.57,2.12,0.259,-25.307,13.367,8.163
1429,-0.0316,-0.1118,-0.0359,-0.04,0.42,2.20,0.259,-26.103,12.830,8.607
1439,-0.0291,-0.1129,-0.0419,-0.28,0.26,2.27,0.259,-23.369,12.256,8.132
1449,-0.0280,-0.1237,-0.0433,-0.46,0.12,2.35,0.259,-24.852,11.366,8.072
1459,-0.0253,-0.1239,-0.0445,-0.72,-0.03,2.43,0.254,-23.698,10.181,8.282
1469,-0.0312,-0.1174,-0.0453,-0.99,-0.12,2.52,0.254,-24.036,8.940,7.581
1479,-0.0302,-0.1085,-0.0545,-1.28,-0.24,2.60,0.254,-23.806,6.288,7.754
1489,-0.0267,-0.1228,-0.0551,-1.41,-0.36,2.67,0.254,-23.365,5.156,7.300
1499,-0.0276,-0.1151,-0.0555,-1.69,-0.45,2.74,0.254,-21.249,5.085,7.502
1509,-0.0271,-0.1053,-0.0557,-1.96,-0.52,2.82,0.252,-20.541,1.120,7.977
1519,-0.0224,-0.1185,-0.0558,-2.09,-0.59,2.88,0.252,-18.062,2.494,7.346
1528,-0.0219,-0.1116,-0.0551,-2.33,-0.64,2.95,0.252,-15.307,1.677,7.008
1539,-0.0178,-0.1177,-0.0560,-2.47,-0.68,3.03,0.252,-11.548,2.800,6.548
1549,-0.0140,-0.1138,-0.0556,-2.65,-0.72,3.10,0.252,-11.500,2.429,6.626
1559,-0.0174,-0.1054,-0.0550,-2.84,-0.72,3.17,0.252,-9.911,3.177,6.145
1569,-0.0138,-0.1020,-0.0541,-2.96,-0.76,3.24,0.252,-10.917,-0.391,6.144
1579,-0.0101,-0.1019,-0.0501,-3.04,-0.79,3.30,0.252,-7.003,3.787,5.083
1589,-0.0079,-0.0987,-0.0493,-3.13,-0.82,3.36,0.252,-6.763,-0.418,5.109
1598,-0.0083,-0.0889,-0.0483,-3.26,-0.82,3.42,0.252,-6.096,2.108,6.046
1608,-0.0080,-0.0813,-0.0470,-3.34,-0.85,3.47,0.249,-5.696,-1.854,5.644
1619,-0.0086,-0.0720,-0.0458,-3.43,-0.85,3.53,0.249,-2.852,0.350,4.731
1629,-0.0085,-0.0632,-0.0446,-3.51,-0.86,3.59,0.249,-3.379,-1.697,5.101
1639,0.0006,-0.0783,-0.0432,-3.43,-0.91,3.64,0.249,-1.972,-2.335,4.774
1649,0.0018,-0.0723,-0.0422,-3.47,-0.90,3.69,0.249,1.464,-4.663,4.144
1659,0.0009,-0.0636,-0.0406,-3.52,-0.87,3.74,0.249,3.013,-4.885,4.313
1668,0.0020,-0.0574,-0.0389,-3.55,-0.84,3.79,0.249,3.840,-5.334,4.289
1679,0.0031,-0.0504,-0.0325,-3.54,-0.79,3.84,0.249,7.518,-7.179,3.304
1689,0.0041,-0.0442,-0.0316,-3.50,-0.75,3.89,0.249,3.883,-7.045,3.205
1698,0.0049,-0.0380,-0.0303,-3.46,-0.70,3.93,0.249,6.760,-4.194,2.180
1709,0.0038,-0.0206,-0.0287,-3.46,-0.64,3.97,0.245,8.773,-4.815,1.674
1719,0.0059,-0.0256,-0.0270,-3.34,-0.58,4.00,0.245,9.258,-5.752,1.763
1729,0.0007,-0.0053,-0.0260,-3.36,-0.51,4.03,0.245,11.931,-4.868,0.806
1739,0.0002,0.0011,-0.0276,-3.28,-0.46,4.05,0.245,16.313,-4.498,0.304
1749,0.0036,0.0055,-0.0262,-3.17,-0.43,4.07,0.245,15.472,-4.300,-0.518
1760,0.0039,0.0111,-0.0247,-3.05,-0.39,4.08,0.244,20.095,-2.233,-1.816
1769,-0.0015,0.0316,-0.0237,-2.99,-0.31,4.08,0.244,19.026,-1.539,-2.133
1779,-0.0060,0.0403,-0.0239,-2.85,-0.24,4.07,0.244,22.633,0.304,-3.183
1788,-0.0040,0.0425,-0.0231,-2.65,-0.23,4.06,0.244,21.744,-0.639,-3.165
1799,-0.0020,0.0425,-0.0221,-2.43,-0.22,4.05,0.244,28.535,-1.828,-3.853
1809,-0.0025,0.0510,-0.0211,-2.24,-0.20,4.02,0.245,25.845,-0.836,-4.689
1819,-0.0045,0.0566,-0.0198,-2.03,-0.19,3.98,0.245,30.632,2.505,-5.260
1828,-0.0065,0.0626,-0.0188,-1.77,-0.16,3.94,0.245,33.056,0.707,-5.856
1838,-0.0064,0.0615,-0.0139,-1.48,-0.16,3.90,0.245,30.573,-1.740,-5.312
1848,-0.0018,0.0577,-0.0132,-1.14,-0.19,3.85,0.245,32.292,2.654,-5.909
1858,0.0022,0.0531,-0.0122,-0.78,-0.22,3.79,0.239,29.348,0.662,-5.690
1868,-0.0041,0.0736,-0.0113,-0.59,-0.18,3.73,0.239,26.972,1.801,-5.524
1878,-0.0039,0.0743,-0.0201,-0.27,-0.20,3.67,0.239,26.140,2.902,-6.098
1889,-0.0033,0.0749,-0.0200,0.02,-0.22,3.62,0.239,22.967,2.487,-5.977
1898,-0.0062,0.0786,-0.0199,0.28,-0.22,3.56,0.239,20.763,1.840,-6.347
1908,-0.0056,0.0805,-0.0198,0.52,-0.25,3.50,0.239,20.999,0.267,-6.499
1919,-0.0028,0.0740,-0.0194,0.78,-0.29,3.44,0.239,16.812,-2.648,-6.230
1928,-0.0022,0.0727,-0.0185,0.99,-0.30,3.38,0.239,18.015,-0.771,-7.148
1939,-0.0059,0.0830,-0.0211,1.12,-0.28,3.32,0.239,14.156,-2.325,-6.299
1948,-0.0094,0.0824,-0.0208,1.28,-0.24,3.25,0.239,19.647,-0.457,-6.809
1958,-0.0051,0.0768,-0.0203,1.48,-0.25,3.18,0.243,14.557,0.647,-6.829
1969,-0.0046,0.0743,-0.0192,1.63,-0.23,3.12,0.243,11.956,-1.648,-6.265
1978,-0.0019,0.0663,-0.0091,1.85,-0.24,3.05,0.243,12.141,-0.007,-6.512
1988,-0.0013,0.0605,-0.0083,2.01,-0.24,2.98,0.243,15.460,0.619,-7.895
1998,-0.0050,0.0687,-0.0077,2.06,-0.21,2.92,0.243,17.597,0.884,-7.644
2008,-0.0063,0.0696,-0.0070,2.15,-0.20,2.85,0.243,12.103,2.057,-7.106
2018,-0.0070,0.0610,-0.0063,2.33,-0.21,2.77,0.238,6.028,-1.686,-7.146
2028,-0.0042,0.0526,-0.0055,2.52,-0.23,2.70,0.238,5.634,-0.481,-7.596
2038,-0.0036,0.0483,-0.0095,2.64,-0.25,2.62,0.238,4.845,-0.631,-7.529
2049,-0.0030,0.0437,-0.0091,2.71,-0.24,2.55,0.238,3.606,0.374,-7.836
2058,-0.0005,0.0367,-0.0090,2.78,-0.25,2.48,0.240,1.100,0.085,-7.467
2068,0.0001,0.0320,-0.0086,2.82,-0.24,2.41,0.240,-3.119,0.896,-7.525
2078,0.0007,0.0271,-0.0054,2.86,-0.25,2.33,0.240,-1.135,2.597,-9.235
2088,0.0013,0.0230,-0.0046,2.87,-0.26,2.26,0.240,-3.482,3.461,-8.597
2098,-0.0016,0.0177,-0.0042,2.85,-0.25,2.18,0.240,-6.223,2.715,-8.355
2109,0.0050,0.0071,-0.0040,2.86,-0.32,2.10,0.240,-5.472,0.898,-9.128
2118,-0.0014,0.0057,-0.0034,2.80,-0.31,2.02,0.239,-8.327,-0.183,-9.182
2128,-0.0007,0.0009,-0.0029,2.75,-0.34,1.93,0.239,-9.289,-0.629,-8.715
2138,0.0082,-0.0194,-0.0029,2.78,-0.39,1.84,0.239,-11.390,-0.589,-8.604
2148,0.0069,-0.0227,-0.0023,2.68,-0.39,1.74,0.239,-13.853,-2.224,-8.814
2158,0.0054,-0.0249,-0.0021,2.57,-0.37,1.65,0.236,-16.340,-3.625,-8.810
2169,0.0039,-0.0267,-0.0019,2.44,-0.35,1.56,0.236,-16.568,-0.850,-8.508
2178,0.0046,-0.0307,-0.0080,2.30,-0.33,1.47,0.236,-18.566,-2.361,-8.931
2188,0.0027,-0.0328,-0.0078,2.14,-0.29,1.39,0.236,-21.076,-2.709,-8.305
2199,0.0011,-0.0325,-0.0076,1.94,-0.27,1.30,0.236,-21.931,-1.639,-8.114
2208,0.0071,-0.0590,-0.0077,1.89,-0.27,1.21,0.236,-21.872,-2.200,-8.379
2218,0.0076,-0.0623,-0.0072,1.68,-0.25,1.13,0.237,-23.190,-1.615,-7.782
2228,0.0057,-0.0631,-0.0072,1.45,-0.22,1.05,0.237,-19.282,0.120,-7.678
2238,0.0056,-0.0673,-0.0066,1.25,-0.20,0.96,0.237,-21.012,-2.355,-7.606
2249,0.0114,-0.0782,-0.0061,1.08,-0.22,0.88,0.237,-21.148,-1.952,-7.204
2258,0.0113,-0.0760,-0.0052,0.87,-0.22,0.80,0.238,-20.137,-2.290,-7.936
2268,0.0056,-0.0716,-0.0042,0.63,-0.16,0.73,0.238,-20.893,-1.699,-6.696
2278,0.0073,-0.0792,-0.0010,0.46,-0.15,0.65,0.238,-20.129,-1.049,-7.539
2288,0.0125,-0.0879,-0.0006,0.29,-0.16,0.57,0.238,-22.903,0.209,-6.235
2298,0.0085,-0.0821,0.0002,0.04,-0.12,0.50,0.238,-21.052,-0.347,-6.319
2308,0.0082,-0.0780,0.0013,-0.19,-0.10,0.43,0.235,-24.635,-2.849,-5.818
2318,0.0100,-0.0888,0.0021,-0.35,-0.11,0.37,0.235,-24.710,-3.353,-5.359
2328,0.0130,-0.0888,0.0028,-0.56,-0.12,0.30,0.235,-21.163,-3.261,-5.592
2338,0.0091,-0.0829,-0.0014,-0.83,-0.07,0.24,0.235,-17.749,-5.808,-6.752
2348,0.0049,-0.0752,-0.0004,-1.11,-0.01,0.19,0.235,-17.877,-8.083,-5.926
2358,0.0076,-0.0846,0.0005,-1.25,0.01,0.13,0.238,-16.102,-3.955,-6.177
2369,0.0097,-0.0838,0.0014,-1.42,0.06,0.07,0.238,-16.211,-4.382,-5.433
2378,0.0067,-0.0777,0.0059,-1.62,0.15,0.01,0.238,-13.544,-1.358,-4.344
2388,0.0056,-0.0718,0.0069,-1.80,0.20,-0.05,0.238,-10.453,-0.289,-5.027
2398,0.0045,-0.0705,0.0079,-1.95,0.24,-0.10,0.238,-8.770,1.193,-3.649
2408,0.0038,-0.0647,0.0091,-2.10,0.26,-0.14,0.238,-4.193,1.230,-4.588
2418,0.0063,-0.0703,0.0104,-2.15,0.25,-0.19,0.236,-6.044,2.053,-3.993
2428,0.0058,-0.0666,0.0116,-2.24,0.24,-0.23,0.236,-2.084,1.717,-4.726
2438,0.0021,-0.0615,0.0096,-2.30,0.25,-0.28,0.236,-0.721,3.928,-4.005
2448,0.0021,-0.0564,0.0108,-2.35,0.22,-0.32,0.236,-1.564,3.002,-3.915
2458,0.0002,-0.0500,0.0119,-2.40,0.21,-0.36,0.232,-1.227,3.009,-3.262
2468,0.0004,-0.0474,0.0128,-2.40,0.17,-0.40,0.232,-1.528,1.105,-3.174
2478,0.0037,-0.0530,0.0026,-2.36,0.12,-0.44,0.232,-0.886,1.832,-2.909
2488,0.0038,-0.0488,0.0031,-2.36,0.10,-0.48,0.232,-0.566,1.322,-2.408
2498,0.0037,-0.0496,0.0039,-2.34,0.08,-0.51,0.232,1.380,0.531,-2.326
2508,0.0036,-0.0456,0.0048,-2.34,0.06,-0.54,0.237,2.590,0.594,-2.477
2518,0.0036,-0.0415,0.0058,-2.33,0.05,-0.57,0.237,0.647,-0.650,-2.116
2528,0.0036,-0.0379,0.0065,-2.32,0.04,-0.60,0.237,1.988,-0.748,-1.792
2538,0.0036,-0.0339,0.0108,-2.29,0.03,-0.62,0.237,1.115,-0.538,-1.389
2548,0.0017,-0.0288,0.0119,-2.28,0.05,-0.64,0.237,1.905,-1.295,-1.118
2558,0.0017,-0.0249,0.0128,-2.26,0.05,-0.66,0.239,0.315,-2.584,-1.005
2568,0.0017,-0.0210,0.0134,-2.25,0.06,-0.68,0.239,0.750,-1.726,-1.327
2578,0.0016,-0.0170,0.0189,-2.23,0.07,-0.69,0.239,0.112,-3.905,-0.506
2588,0.0083,-0.0331,0.0196,-2.11,0.05,-0.69,0.239,3.488,0.605,-0.697
2598,0.0130,-0.0357,0.0204,-2.07,0.04,-0.70,0.239,4.037,-1.463,-0.969
2608,0.0130,-0.0322,0.0212,-2.05,0.07,-0.71,0.240,6.209,0.960,-0.934
2618,0.0129,-0.0283,0.0217,-2.02,0.07,-0.72,0.240,6.564,-0.118,-0.513
2628,0.0103,-0.0186,0.0254,-2.01,0.09,-0.73,0.240,7.725,-0.725,-0.472
2638,0.0102,-0.0152,0.0263,-1.94,0.09,-0.74,0.240,5.269,-0.212,0.106
2648,0.0155,-0.0182,0.0269,-1.84,0.06,-0.74,0.240,3.442,-0.335,-0.010
2658,0.0146,-0.0174,0.0269,-1.75,0.07,-0.75,0.240,3.499,-1.541,-1.324
2668,0.0159,-0.0144,0.0271,-1.69,0.07,-0.75,0.240,5.013,-1.714,-1.101
2678,0.0158,-0.0115,0.0269,-1.64,0.07,-0.75,0.240,3.945,-3.018,-1.860
2688,0.0158,-0.0087,0.0273,-1.61,0.09,-0.77,0.240,2.914,-1.080,-1.341
2698,0.0156,-0.0059,0.0277,-1.57,0.11,-0.78,0.240,5.351,-2.011,-2.145
2708,0.0163,-0.0034,0.0278,-1.54,0.13,-0.79,0.241,5.442,-1.184,-1.394
2718,0.0161,-0.0008,0.0281,-1.50,0.15,-0.81,0.241,6.188,-2.232,-2.257
2728,0.0159,0.0018,0.0287,-1.45,0.17,-0.82,0.241,7.145,-1.789,-1.380
2738,0.0157,0.0043,0.0269,-1.40,0.19,-0.84,0.241,6.597,-2.150,-0.078
2748,0.0154,0.0066,0.0267,-1.33,0.21,-0.86,0.241,6.653,-1.475,-0.590
2758,0.0269,-0.0104,0.0261,-1.15,0.16,-0.86,0.238,6.634,-0.660,-0.724
2768,0.0274,-0.0112,0.0260,-1.07,0.17,-0.87,0.238,9.056,0.396,-0.782
2778,0.0259,-0.0020,0.0165,-1.04,0.19,-0.87,0.238,11.142,-0.986,-1.734
2788,0.0256,-0.0002,0.0166,-0.96,0.20,-0.88,0.238,10.000,-0.769,-1.039
2797,0.0253,0.0015,0.0166,-0.87,0.21,-0.89,0.238,7.854,-1.214,-1.120
2808,0.0236,0.0033,0.0166,-0.78,0.22,-0.90,0.243,8.699,-2.059,-1.628
2818,0.0232,0.0046,0.0168,-0.69,0.23,-0.91,0.243,7.642,-1.751,-1.273
2828,0.0258,0.0041,0.0168,-0.60,0.23,-0.91,0.243,5.289,-2.541,-1.111
2838,0.0255,0.0052,0.0199,-0.53,0.25,-0.93,0.243,5.416,-3.204,-1.326
2848,0.0256,0.0046,0.0198,-0.45,0.27,-0.94,0.243,3.946,-3.490,-0.791
2858,0.0234,0.0063,0.0199,-0.42,0.31,-0.95,0.245,4.991,-3.942,-0.895
2867,0.0213,0.0037,0.0201,-0.36,0.36,-0.96,0.245,4.962,-3.595,-1.136
2877,0.0212,0.0034,0.0241,-0.33,0.40,-0.97,0.245,6.137,-2.866,-1.589
2888,0.0211,0.0031,0.0241,-0.29,0.44,-0.98,0.245,5.658,-2.152,-0.444
2897,0.0203,0.0036,0.0242,-0.25,0.47,-0.99,0.245,5.147,-2.202,-0.466
2907,0.0195,0.0040,0.0247,-0.19,0.49,-1.00,0.245,5.888,-0.598,-0.887
2917,0.0187,0.0044,0.0248,-0.15,0.50,-1.00,0.243,1.688,0.907,-0.388
2928,0.0187,0.0039,0.0249,-0.11,0.52,-1.01,0.243,4.810,-0.379,-0.611
2938,0.0179,0.0040,0.0196,-0.07,0.53,-1.01,0.243,2.776,1.813,-0.847
2948,0.0170,0.0042,0.0193,-0.04,0.52,-1.02,0.243,1.681,1.495,-0.466
2957,0.0161,0.0042,0.0191,-0.01,0.52,-1.02,0.244,3.400,2.366,-0.931
2968,0.0152,0.0043,0.0188,0.02,0.51,-1.03,0.244,2.056,3.401,-1.362
2978,0.0143,0.0042,0.0166,0.03,0.48,-1.03,0.244,1.261,1.872,-1.567
2987,0.0135,0.0042,0.0161,0.06,0.46,-1.04,0.244,1.773,1.466,-1.417
2998,0.0127,0.0041,0.0156,0.08,0.43,-1.05,0.244,2.762,0.972,-1.429
3008,0.0120,0.0040,0.0154,0.09,0.42,-1.07,0.244,0.527,0.630,-1.385
3017,0.0083,0.0033,0.0154,0.10,0.43,-1.08,0.243,0.099,0.693,-2.032
3029,0.0144,-0.0224,0.0155,0.25,0.37,-1.10,0.243,1.352,1.064,-1.991
3037,0.0158,-0.0217,0.0098,0.25,0.35,-1.11,0.243,0.573,0.633,-1.169
3047,0.0123,-0.0211,0.0097,0.25,0.36,-1.13,0.243,-1.514,0.701,-2.277
3057,0.0116,-0.0215,0.0098,0.26,0.35,-1.15,0.244,-4.489,0.588,-2.298
3067,0.0015,0.0010,0.0101,0.13,0.40,-1.17,0.244,-2.285,3.028,-2.312
3077,0.0054,-0.0181,0.0081,0.23,0.36,-1.19,0.244,-7.721,0.086,-2.396
3087,0.0047,-0.0185,0.0078,0.18,0.36,-1.21,0.244,-6.694,2.315,-2.885
3098,0.0041,-0.0188,0.0075,0.14,0.33,-1.24,0.244,-7.828,3.863,-1.057
3107,0.0034,-0.0190,0.0074,0.06,0.32,-1.26,0.240,-8.629,4.208,-0.908
3118,0.0008,-0.0168,0.0075,-0.02,0.31,-1.29,0.240,-6.154,4.922,-1.215
3128,-0.0013,-0.0146,0.0074,-0.11,0.28,-1.30,0.240,-5.603,4.833,-0.554
3137,0.0078,-0.0470,-0.0043,-0.01,0.18,-1.31,0.240,-3.583,5.344,-1.166
3147,0.0078,-0.0460,-0.0038,-0.08,0.13,-1.32,0.240,-0.829,6.831,-0.959
3158,0.0058,-0.0430,-0.0035,-0.15,0.10,-1.32,0.243,-3.079,4.330,-0.084
3167,0.0019,-0.0423,-0.0034,-0.18,0.07,-1.34,0.243,-3.210,4.234,0.541
3177,0.0009,-0.0403,-0.0027,-0.20,0.02,-1.35,0.243,-3.290,7.014,0.423
3188,0.0009,-0.0400,-0.0024,-0.22,-0.03,-1.35,0.243,-7.833,6.443,-0.227
3197,-0.0025,-0.0372,-0.0017,-0.27,-0.05,-1.34,0.243,-6.670,4.409,-0.223
3207,0.0049,-0.0557,-0.0013,-0.20,-0.17,-1.34,0.244,-11.939,4.164,-0.008
3218,0.0077,-0.0596,-0.0011,-0.27,-0.24,-1.34,0.244,-15.493,2.501,0.169
3227,0.0064,-0.0552,-0.0004,-0.38,-0.27,-1.34,0.244,-10.730,1.417,-0.939
3237,0.0050,-0.0541,0.0035,-0.52,-0.29,-1.34,0.244,-10.645,0.435,-0.244
3248,0.0021,-0.0468,0.0042,-0.69,-0.30,-1.34,0.244,-13.038,-1.739,0.711
3257,0.0026,-0.0442,0.0048,-0.80,-0.31,-1.35,0.244,-13.557,-2.311,0.270
3267,0.0012,-0.0393,0.0056,-0.93,-0.30,-1.35,0.244,-11.078,-1.459,0.448
3277,0.0047,-0.0532,0.0076,-0.98,-0.30,-1.35,0.244,-9.277,-2.844,-0.866
3287,0.0048,-0.0510,0.0085,-1.11,-0.27,-1.34,0.244,-11.443,-3.216,-0.412
3297,0.0085,-0.0493,0.0096,-1.22,-0.27,-1.34,0.244,-7.140,-3.132,-0.719
3307,0.0066,-0.0443,0.0104,-1.32,-0.23,-1.35,0.250,-5.589,-1.794,0.037
3317,0.0062,-0.0425,0.0115,-1.42,-0.20,-1.35,0.250,-5.199,-1.178,-0.117
3327,0.0042,-0.0376,0.0124,-1.49,-0.16,-1.36,0.250,-4.521,-2.590,-0.645
3337,0.0046,-0.0350,0.0265,-1.54,-0.15,-1.36,0.250,-7.898,-0.595,0.139
3347,0.0028,-0.0302,0.0276,-1.60,-0.13,-1.36,0.250,-3.515,-0.317,-0.390
3357,0.0031,-0.0274,0.0286,-1.65,-0.11,-1.36,0.245,-3.908,0.663,-0.189
3368,0.0033,-0.0246,0.0294,-1.71,-0.11,-1.36,0.245,-0.284,-0.533,-0.179
3377,0.0035,-0.0217,0.0240,-1.76,-0.10,-1.37,0.245,-0.516,-1.277,-1.186
3387,0.0111,-0.0311,0.0245,-1.71,-0.14,-1.37,0.245,3.678,0.010,-0.473
3397,0.0164,-0.0386,0.0250,-1.66,-0.16,-1.37,0.245,5.180,1.419,-0.087
3407,0.0124,-0.0268,0.0256,-1.70,-0.13,-1.38,0.248,5.428,0.648,-0.082
3417,0.0127,-0.0239,0.0260,-1.65,-0.14,-1.39,0.248,4.620,0.131,-0.454
3427,0.0163,-0.0287,0.0262,-1.56,-0.16,-1.39,0.248,3.721,-2.990,-0.413
3437,0.0166,-0.0261,0.0259,-1.51,-0.17,-1.39,0.248,2.852,-2.735,-0.647
3448,0.0146,-0.0138,0.0259,-1.51,-0.16,-1.40,0.248,2.701,-3.107,-0.159
3457,0.0120,-0.0130,0.0255,-1.47,-0.11,-1.40,0.249,1.728,-1.832,0.121
3467,0.0096,-0.0029,0.0249,-1.48,-0.06,-1.40,0.249,0.505,-5.894,-0.488
3477,0.0143,-0.0156,0.0242,-1.38,-0.06,-1.40,0.249,-0.913,-7.601,-1.422
3487,0.0120,0.0017,0.0242,-1.44,-0.02,-1.40,0.249,0.835,-7.241,-0.820
3497,0.0121,0.0042,0.0244,-1.44,0.05,-1.41,0.249,3.715,-5.445,-0.856
3507,0.0121,0.0066,0.0241,-1.44,0.13,-1.42,0.245,5.933,-5.077,-1.210
3517,0.0176,-0.0068,0.0236,-1.33,0.16,-1.42,0.245,6.707,-4.386,-1.334
3527,0.0174,-0.0045,0.0235,-1.29,0.21,-1.43,0.245,5.359,-7.041,-1.937
3537,0.0140,0.0105,0.0111,-1.31,0.28,-1.44,0.245,8.246,-4.678,-1.901
3547,0.0123,0.0132,0.0112,-1.25,0.34,-1.45,0.245,8.432,-3.561,-1.728
3557,0.0117,0.0154,0.0107,-1.20,0.41,-1.47,0.248,10.824,-0.844,-1.356
3568,0.0213,-0.0005,0.0104,-1.00,0.39,-1.49,0.248,9.867,-2.914,-1.623
3577,0.0212,-0.0004,0.0090,-0.90,0.41,-1.50,0.248,9.481,0.387,-0.979
3587,0.0102,0.0153,0.0094,-0.88,0.49,-1.52,0.248,8.762,-0.495,-0.643
3597,0.0106,0.0145,0.0097,-0.77,0.50,-1.53,0.248,7.592,-1.243,-0.574
3607,0.0098,0.0158,0.0099,-0.68,0.50,-1.54,0.245,6.478,-0.626,-1.051
3617,0.0124,0.0148,0.0103,-0.58,0.49,-1.54,0.245,4.708,-1.508,-1.060
3627,0.0116,0.0157,0.0015,-0.51,0.50,-1.55,0.245,3.462,-1.416,-1.060
3637,0.0108,0.0166,0.0022,-0.46,0.51,-1.56,0.245,3.290,-1.153,-0.670
3647,0.0134,0.0179,0.0026,-0.42,0.51,-1.58,0.245,4.805,-1.341,-0.160
3657,0.0125,0.0186,0.0031,-0.38,0.52,-1.58,0.247,4.150,-1.269,-0.181
3667,0.0116,0.0193,0.0040,-0.35,0.54,-1.59,0.247,3.555,-3.161,0.383
3677,0.0003,0.0395,0.0038,-0.41,0.60,-1.59,0.247,5.045,-3.155,0.689
3687,-0.0028,0.0484,0.0044,-0.42,0.63,-1.59,0.247,5.738,-2.306,0.289
3697,-0.0024,0.0384,0.0053,-0.31,0.65,-1.59,0.247,9.211,-0.701,0.790
3707,-0.0035,0.0390,0.0064,-0.26,0.68,-1.58,0.249,9.763,-0.049,1.792
3717,-0.0047,0.0449,0.0074,-0.23,0.70,-1.57,0.249,11.924,0.586,0.373
3727,-0.0059,0.0453,0.0084,-0.13,0.71,-1.56,0.249,14.261,2.868,0.946
3737,-0.0071,0.0456,0.0129,-0.03,0.70,-1.55,0.249,12.532,3.771,1.014
3747,-0.0083,0.0457,0.0137,0.09,0.69,-1.54,0.249,14.378,6.041,1.143
3757,-0.0095,0.0455,0.0147,0.23,0.66,-1.53,0.248,13.259,6.029,0.867
3767,-0.0106,0.0452,0.0155,0.37,0.61,-1.52,0.248,11.555,7.306,1.474
3777,-0.0117,0.0446,0.0144,0.50,0.56,-1.52,0.248,10.535,8.316,1.500
3787,-0.0127,0.0437,0.0147,0.63,0.49,-1.51,0.248,9.945,8.179,0.892
3798,-0.0136,0.0427,0.0155,0.74,0.42,-1.49,0.248,9.133,7.189,1.581
3806,-0.0145,0.0374,0.0166,0.87,0.33,-1.47,0.249,7.698,7.330,2.271
3817,-0.0151,0.0359,0.0173,0.96,0.26,-1.46,0.249,5.353,4.568,1.803
3827,-0.0156,0.0342,0.0176,1.06,0.18,-1.44,0.249,3.920,6.088,2.126
3838,-0.0160,0.0324,0.0173,1.12,0.12,-1.41,0.249,3.388,3.533,1.779
3847,-0.0195,0.0277,0.0180,1.19,0.08,-1.39,0.249,2.462,3.862,2.495
3857,-0.0175,0.0262,0.0185,1.22,0.02,-1.37,0.256,-0.518,2.707,1.696
3866,-0.0208,0.0223,0.0186,1.26,-0.00,-1.35,0.256,1.457,2.329,2.033
3877,-0.0209,0.0201,0.0313,1.28,-0.04,-1.33,0.256,-0.452,2.164,1.812
3887,-0.0209,0.0179,0.0319,1.27,-0.06,-1.31,0.256,0.248,3.463,1.502
3897,-0.0209,0.0157,0.0327,1.28,-0.09,-1.29,0.256,-2.549,5.490,1.523
3907,-0.0245,0.0135,0.0329,1.25,-0.09,-1.27,0.256,-8.892,4.034,2.460
3916,-0.0226,0.0085,0.0328,1.24,-0.14,-1.25,0.250,-1.567,8.029,1.181
3928,-0.0160,-0.0130,0.0326,1.32,-0.22,-1.23,0.250,-5.978,8.457,2.521
3937,-0.0141,-0.0151,0.0257,1.25,-0.28,-1.21,0.250,-3.947,8.306,1.281
3947,-0.0140,-0.0163,0.0259,1.22,-0.35,-1.19,0.250,-10.652,7.476,1.780
3957,-0.0155,-0.0165,0.0258,1.15,-0.43,-1.17,0.248,-6.275,6.209,0.942
3967,-0.0148,-0.0185,0.0255,1.10,-0.51,-1.16,0.248,-10.402,5.687,1.863
3977,-0.0231,-0.0196,0.0132,1.01,-0.53,-1.14,0.248,-13.362,4.891,1.470
3987,-0.0180,-0.0258,0.0134,0.94,-0.62,-1.13,0.248,-13.209,4.075,1.620
3997,-0.0175,-0.0245,0.0133,0.81,-0.66,-1.11,0.248,-12.325,1.938,1.476
4007,-0.0191,-0.0250,0.0131,0.68,-0.69,-1.09,0.248,-15.017,-0.656,1.614
4017,-0.0207,-0.0251,0.0129,0.55,-0.71,-1.08,0.252,-16.987,-2.552,1.123
4027,-0.0195,-0.0261,0.0132,0.41,-0.71,-1.06,0.252,-14.202,-1.321,1.642
4037,-0.0158,-0.0420,0.0128,0.31,-0.71,-1.05,0.252,-13.411,-1.379,1.263
4047,-0.0122,-0.0486,0.0131,0.19,-0.71,-1.03,0.252,-15.678,-0.939,1.524
4057,-0.0150,-0.0465,0.0132,0.03,-0.67,-1.01,0.252,-15.523,1.204,2.074
4067,-0.0138,-0.0466,0.0135,-0.11,-0.67,-1.00,0.252,-9.462,1.724,1.050
4077,-0.0063,-0.0630,0.0122,-0.17,-0.70,-0.98,0.252,-12.517,1.644,1.395
4087,-0.0005,-0.0660,0.0127,-0.29,-0.74,-0.97,0.252,-12.329,-0.205,1.483
4097,-0.0009,-0.0613,0.0133,-0.42,-0.75,-0.95,0.252,-13.859,0.046,1.343
4107,-0.0034,-0.0580,0.0134,-0.56,-0.74,-0.93,0.252,-12.075,-0.315,1.765
4117,0.0000,-0.0567,0.0136,-0.69,-0.75,-0.92,0.252,-13.748,-1.316,2.463
4126,0.0012,-0.0591,0.0110,-0.81,-0.75,-0.91,0.252,-12.066,0.316,1.718
4137,0.0061,-0.0611,0.0114,-0.92,-0.76,-0.89,0.252,-15.320,-1.924,2.104
4147,0.0108,-0.0648,0.0115,-1.03,-0.77,-0.86,0.252,-17.463,-5.890,2.402
4157,0.0122,-0.0630,0.0117,-1.15,-0.77,-0.85,0.254,-16.935,-8.377,1.669
4167,0.0126,-0.0578,0.0123,-1.34,-0.73,-0.83,0.254,-14.270,-6.140,1.050
4176,0.0105,-0.0507,0.0149,-1.53,-0.64,-0.81,0.254,-15.168,-9.369,1.157
4186,0.0063,-0.0435,0.0158,-1.72,-0.53,-0.79,0.254,-13.070,-9.626,1.265
4197,0.0151,-0.0558,0.0164,-1.78,-0.51,-0.77,0.254,-9.760,-8.105,1.046
4207,0.0196,-0.0579,0.0170,-1.88,-0.43,-0.76,0.256,-9.892,-9.875,1.210
4217,0.0203,-0.0546,0.0179,-2.00,-0.34,-0.75,0.256,-4.766,-9.207,1.001
4226,0.0207,-0.0496,0.0189,-2.10,-0.25,-0.73,0.256,-5.147,-5.625,1.908
4237,0.0212,-0.0460,0.0229,-2.18,-0.16,-0.72,0.256,-3.090,-5.526,1.296
4246,0.0215,-0.0422,0.0231,-2.23,-0.08,-0.70,0.256,-1.256,-5.866,1.799
4257,0.0202,-0.0385,0.0235,-2.26,-0.02,-0.68,0.252,-3.493,-5.826,1.949
4267,0.0225,-0.0331,0.0240,-2.28,0.02,-0.67,0.252,-0.884,-5.889,1.912
4277,0.0225,-0.0293,0.0180,-2.29,0.09,-0.64,0.252,1.039,-3.279,0.725
4287,0.0224,-0.0253,0.0183,-2.29,0.14,-0.63,0.252,3.885,-3.112,1.055
4296,0.0222,-0.0214,0.0187,-2.31,0.19,-0.61,0.252,-1.507,-5.859,1.292
4307,0.0219,-0.0174,0.0191,-2.29,0.22,-0.59,0.252,2.984,-4.404,1.378
4316,0.0199,-0.0116,0.0195,-2.28,0.29,-0.58,0.257,6.197,-6.058,1.958
4326,0.0159,0.0114,0.0193,-2.36,0.35,-0.57,0.257,8.926,-3.651,1.111
4337,0.0142,0.0167,0.0215,-2.32,0.40,-0.55,0.257,1.793,-5.219,2.124
4347,0.0178,0.0014,0.0218,-2.17,0.42,-0.53,0.257,13.179,-1.709,1.900
4356,0.0119,0.0213,0.0218,-2.19,0.50,-0.52,0.257,8.246,-2.309,2.550
4366,0.0111,0.0250,0.0221,-2.14,0.54,-0.49,0.257,17.430,-2.202,1.527
4376,0.0210,0.0073,0.0219,-1.90,0.51,-0.47,0.257,21.168,-2.140,2.004
4387,0.0114,0.0246,0.0218,-1.86,0.58,-0.45,0.257,16.874,-2.132,2.133
4397,0.0104,0.0277,0.0217,-1.68,0.61,-0.44,0.257,19.150,0.419,2.307
4407,0.0107,0.0258,0.0218,-1.44,0.61,-0.41,0.257,17.232,1.677,3.005
4416,0.0128,0.0267,0.0220,-1.26,0.61,-0.39,0.257,13.704,1.618,2.867
4426,0.0115,0.0348,0.0218,-1.11,0.61,-0.36,0.257,13.823,3.595,3.582
4436,0.0218,0.0155,0.0180,-0.84,0.53,-0.33,0.257,12.867,3.453,3.013
4447,0.0209,0.0170,0.0174,-0.71,0.50,-0.30,0.257,11.120,3.375,4.132
4456,0.0238,0.0151,0.0165,-0.56,0.44,-0.27,0.260,10.856,1.979,4.180
4466,0.0231,0.0161,0.0160,-0.44,0.41,-0.23,0.260,7.784,0.203,4.675
4477,0.0242,0.0163,0.0189,-0.32,0.37,-0.19,0.260,7.052,0.396,4.489
4486,0.0230,0.0123,0.0186,-0.20,0.35,-0.14,0.260,3.759,-1.890,5.401
4497,0.0237,0.0128,0.0180,-0.12,0.33,-0.10,0.260,3.069,-2.809,4.790
4507,0.0240,0.0095,0.0173,-0.03,0.33,-0.05,0.257,3.098,-3.514,5.287
4516,0.0235,0.0095,0.0168,0.01,0.35,0.01,0.257,-0.719,-6.270,5.066
4526,0.0234,0.0087,0.0093,0.04,0.39,0.06,0.257,-1.534,-6.838,5.701
4537,0.0227,0.0087,0.0092,0.05,0.43,0.11,0.257,-0.112,-4.943,6.293
4547,0.0221,0.0084,0.0088,0.04,0.49,0.16,0.257,2.482,-3.659,6.113
4557,0.0212,0.0083,0.0084,0.03,0.55,0.22,0.259,2.520,-1.990,6.246
4567,0.0208,0.0098,0.0080,0.03,0.60,0.29,0.259,0.563,-1.786,6.182
4576,0.0198,0.0097,0.0073,0.04,0.63,0.35,0.259,1.600,0.330,6.236
4586,0.0195,0.0070,0.0074,0.07,0.65,0.41,0.259,1.854,-1.964,6.102
4597,0.0192,0.0063,0.0077,0.07,0.68,0.48,0.259,1.644,0.203,5.930
4606,0.0192,0.0063,0.0077,0.07,0.68,0.48,0.259,2.845,-1.142,5.669
4616,0.0195,0.0057,0.0079,0.08,0.68,0.54,0.258,4.663,3.221,4.996
4627,0.0184,0.0055,0.0078,0.10,0.67,0.60,0.258,0.540,2.644,5.320
4636,0.0172,0.0053,0.0038,0.11,0.69,0.66,0.258,-0.290,3.059,5.215
4646,0.0268,-0.0120,0.0033,0.23,0.61,0.71,0.258,-3.300,-1.685,5.364
4657,0.0231,-0.0084,0.0029,0.21,0.59,0.77,0.257,-1.100,-2.005,5.029
4666,0.0258,-0.0170,0.0027,0.27,0.55,0.81,0.257,-2.173,0.531,4.453
4676,0.0233,-0.0144,-0.0015,0.26,0.55,0.86,0.257,-2.276,-0.046,4.471
4686,0.0215,-0.0156,-0.0013,0.24,0.58,0.91,0.257,-1.374,-5.673,4.812
4696,0.0259,-0.0234,-0.0016,0.25,0.55,0.96,0.257,-5.057,-5.999,5.002
4706,0.0219,-0.0242,-0.0020,0.25,0.56,1.00,0.257,-3.741,-2.956,3.688
4716,0.0209,-0.0233,-0.0027,0.21,0.60,1.05,0.258,-15.506,-6.645,5.405
4726,0.0199,-0.0237,-0.0030,0.18,0.66,1.10,0.258,-10.919,-4.783,4.659
4736,0.0154,-0.0220,-0.0029,0.12,0.72,1.14,0.258,-10.076,-8.167,3.811
4746,0.0142,-0.0222,-0.0026,0.02,0.77,1.19,0.258,-16.405,-5.317,4.767
4756,0.0129,-0.0223,-0.0022,-0.12,0.83,1.24,0.254,-10.643,-4.090,3.848
4766,0.0115,-0.0221,-0.0022,-0.23,0.89,1.28,0.254,-12.551,0.324,3.710
4776,0.0066,-0.0184,-0.0109,-0.38,0.98,1.33,0.254,-0.544,4.497,1.240
4786,0.0107,-0.0356,-0.0113,-0.40,0.99,1.36,0.254,-4.640,-0.224,3.007
4796,0.0110,-0.0419,-0.0115,-0.48,1.00,1.40,0.254,-3.566,2.565,2.424
4807,0.0093,-0.0411,-0.0114,-0.54,0.97,1.42,0.254,-2.160,5.702,1.968
4816,0.0053,-0.0379,-0.0111,-0.58,0.97,1.44,0.252,0.717,7.152,0.894
4826,0.0040,-0.0373,-0.0107,-0.63,0.96,1.47,0.252,-4.819,6.234,1.532
4836,-0.0005,-0.0346,-0.0162,-0.65,0.93,1.49,0.252,-6.103,5.483,1.534
4846,-0.0030,-0.0321,-0.0159,-0.67,0.86,1.50,0.252,-2.095,6.217,0.144
4856,-0.0053,-0.0296,-0.0159,-0.71,0.81,1.52,0.257,-10.694,5.887,1.545
4866,-0.0067,-0.0285,-0.0161,-0.74,0.74,1.53,0.257,-11.620,2.663,1.336
4876,-0.0107,-0.0256,-0.0095,-0.81,0.69,1.54,0.257,-12.749,5.059,1.271
4887,-0.0124,-0.0216,-0.0088,-0.89,0.66,1.55,0.257,-6.357,0.017,0.263
4896,-0.0082,-0.0368,-0.0080,-0.91,0.59,1.56,0.257,-8.570,4.963,-0.458
4906,-0.0082,-0.0414,-0.0071,-0.99,0.53,1.57,0.258,-0.369,7.363,-1.317
4916,-0.0092,-0.0397,-0.0061,-1.09,0.52,1.58,0.258,-5.937,3.136,-0.292
4926,-0.0101,-0.0379,-0.0054,-1.17,0.49,1.58,0.258,-2.785,9.810,-1.176
4936,-0.0115,-0.0346,0.0025,-1.23,0.42,1.57,0.258,-0.294,4.167,-1.311
4946,-0.0153,-0.0303,0.0026,-1.26,0.39,1.56,0.258,3.932,8.298,-2.487
4956,-0.0160,-0.0281,0.0029,-1.31,0.33,1.55,0.256,-1.837,9.337,-1.819
4966,-0.0190,-0.0252,0.0040,-1.34,0.27,1.54,0.256,-6.628,9.861,-1.007
4976,-0.0176,-0.0242,0.0043,-1.29,0.19,1.51,0.256,-1.656,6.680,-2.079
4986,-0.0197,-0.0203,0.0047,-1.30,0.11,1.49,0.256,-5.321,10.257,-2.477
4996,-0.0200,-0.0180,0.0049,-1.37,0.02,1.48,0.256,-4.186,7.133,-2.154
5006,-0.0220,-0.0149,0.0050,-1.42,-0.04,1.46,0.256,-3.456,6.816,-1.993
5016,-0.0133,-0.0306,0.0052,-1.36,-0.18,1.43,0.256,-0.423,8.519,-2.890
5026,-0.0112,-0.0361,0.0054,-1.35,-0.26,1.41,0.256,-0.620,3.289,-2.861
5036,-0.0108,-0.0338,0.0048,-1.38,-0.33,1.38,0.256,-1.557,2.848,-2.025
5046,-0.0124,-0.0304,0.0053,-1.41,-0.40,1.36,0.256,-1.642,2.888,-2.224
5056,-0.0118,-0.0280,0.0056,-1.41,-0.46,1.33,0.257,-0.760,1.655,-2.245
5066,-0.0120,-0.0246,0.0056,-1.42,-0.47,1.30,0.257,2.596,3.815,-3.653
5076,-0.0113,-0.0221,0.0064,-1.42,-0.50,1.27,0.257,0.217,5.796,-3.883
5086,-0.0138,-0.0186,0.0057,-1.42,-0.51,1.25,0.257,-2.550,0.981,-2.919
5096,-0.0096,-0.0161,0.0056,-1.43,-0.55,1.22,0.257,-1.877,5.613,-3.481
5106,-0.0087,-0.0136,0.0060,-1.41,-0.61,1.18,0.257,-3.531,4.418,-3.990
5116,-0.0092,-0.0105,0.0065,-1.42,-0.63,1.15,0.257,-1.141,2.966,-4.330
5126,-0.0081,-0.0080,0.0070,-1.44,-0.66,1.11,0.257,-2.303,-2.845,-3.635
5136,-0.0070,-0.0055,0.0070,-1.45,-0.71,1.07,0.257,-0.376,0.064,-4.301
5146,-0.0059,-0.0030,0.0067,-1.47,-0.74,1.03,0.257,1.557,-1.675,-4.329
5156,-0.0047,-0.0005,0.0064,-1.49,-0.73,0.99,0.254,1.691,-1.872,-4.521
5166,-0.0034,0.0021,0.0067,-1.51,-0.71,0.95,0.254,6.427,0.398,-5.755
5175,-0.0100,0.0239,-0.0004,-1.61,-0.67,0.90,0.254,5.766,-3.401,-5.275
5186,-0.0039,0.0054,-0.0000,-1.48,-0.66,0.86,0.254,8.377,-1.749,-5.614
5196,-0.0028,0.0080,-0.0003,-1.43,-0.66,0.81,0.254,7.420,-3.459,-5.807
5206,-0.0048,0.0285,-0.0007,-1.48,-0.62,0.75,0.254,10.185,-0.959,-6.073
5216,0.0050,0.0091,-0.0009,-1.28,-0.64,0.70,0.257,11.157,-1.990,-6.152
5226,-0.0018,0.0289,-0.0009,-1.30,-0.58,0.64,0.257,10.879,-1.765,-5.834
5236,-0.0008,0.0312,0.0022,-1.21,-0.54,0.58,0.257,11.285,-0.789,-6.147
5246,0.0001,0.0333,0.0028,-1.11,-0.51,0.52,0.257,10.172,0.152,-6.426
5256,0.0027,0.0317,0.0030,-0.98,-0.51,0.47,0.254,6.345,1.062,-6.485
5266,0.0032,0.0324,0.0028,-0.88,-0.49,0.41,0.254,11.415,-0.302,-6.885
5276,0.0082,0.0307,-0.0030,-0.76,-0.51,0.35,0.254,8.443,-0.218,-6.302
5286,0.0086,0.0316,-0.0028,-0.68,-0.51,0.28,0.254,5.328,-1.477,-6.333
5296,0.0049,0.0482,-0.0024,-0.66,-0.49,0.21,0.254,13.952,-3.046,-7.027
5306,0.0034,0.0543,-0.0019,-0.59,-0.48,0.14,0.254,6.264,-5.484,-6.388
5316,0.0042,0.0553,-0.0015,-0.53,-0.46,0.08,0.252,12.054,-6.729,-7.166
5325,0.0050,0.0562,-0.0014,-0.42,-0.44,0.01,0.252,10.389,-5.518,-7.005
5336,0.0088,0.0574,-0.0062,-0.34,-0.40,-0.05,0.252,11.108,-7.905,-6.684
5346,0.0121,0.0538,-0.0053,-0.21,-0.36,-0.12,0.252,13.117,-5.852,-6.953
5356,0.0133,0.0502,-0.0045,-0.09,-0.30,-0.19,0.257,11.162,-5.258,-6.555
5366,0.0080,0.0670,-0.0044,-0.07,-0.20,-0.26,0.257,11.720,-6.078,-6.062
5376,0.0050,0.0704,0.0018,0.02,-0.11,-0.33,0.257,11.192,-5.299,-6.297
5386,0.0080,0.0657,0.0022,0.17,-0.07,-0.40,0.257,11.037,-5.911,-6.672
5396,0.0089,0.0649,0.0029,0.30,-0.01,-0.46,0.257,12.721,-3.791,-5.783
5405,0.0117,0.0601,0.0037,0.45,0.03,-0.53,0.254,10.721,-3.999,-6.017
5416,0.0116,0.0594,0.0041,0.57,0.09,-0.59,0.254,11.787,-2.067,-5.536
5426,0.0122,0.0544,0.0045,0.73,0.12,-0.65,0.254,14.044,-1.386,-5.145
5436,0.0129,0.0492,0.0022,0.86,0.16,-0.71,0.254,12.769,-3.155,-5.800
5446,0.0121,0.0609,0.0035,0.91,0.19,-0.77,0.254,10.721,-2.765,-5.584
5456,0.0108,0.0494,0.0043,1.11,0.21,-0.82,0.255,7.943,-0.517,-4.651
5466,0.0058,0.0572,0.0044,1.18,0.26,-0.88,0.255,7.484,-0.960,-4.530
5476,0.0065,0.0534,0.0043,1.29,0.29,-0.94,0.255,5.837,-0.799,-4.072
5486,0.0094,0.0478,0.0046,1.38,0.29,-0.99,0.255,2.631,0.736,-3.846
5496,0.0065,0.0428,0.0048,1.48,0.31,-1.03,0.255,-0.153,-0.407,-4.084
5506,0.0059,0.0403,0.0050,1.53,0.32,-1.07,0.255,-1.468,-1.776,-2.590
5516,0.0071,0.0360,0.0051,1.58,0.30,-1.11,0.255,2.164,-1.455,-2.771
5526,0.0065,0.0333,0.0047,1.59,0.30,-1.15,0.255,2.091,-1.253,-3.006
5536,0.0056,0.0314,0.0052,1.57,0.31,-1.18,0.255,1.683,-0.728,-2.778
5546,0.0064,0.0273,0.0054,1.60,0.32,-1.21,0.255,-2.752,-1.607,-2.202
5556,0.0058,0.0246,0.0056,1.62,0.33,-1.24,0.254,-6.309,-3.486,-1.104
5565,0.0067,0.0191,0.0058,1.65,0.33,-1.27,0.254,-5.174,-3.030,-1.631
5576,0.0061,0.0163,0.0028,1.64,0.34,-1.29,0.254,-2.541,-1.913,-1.398
5586,0.0055,0.0135,0.0033,1.58,0.38,-1.31,0.254,-4.517,0.211,-1.586
5596,0.0047,0.0108,0.0037,1.52,0.42,-1.32,0.254,-3.337,0.024,-0.810
5606,0.0015,0.0084,0.0038,1.50,0.45,-1.34,0.256,-6.824,1.444,-0.845
5615,0.0007,0.0059,0.0039,1.45,0.45,-1.35,0.256,-6.567,3.168,-0.882
5625,0.0000,0.0060,0.0045,1.39,0.44,-1.36,0.256,-4.956,4.884,-1.020
5636,-0.0044,0.0026,0.0075,1.34,0.45,-1.37,0.256,-2.931,5.892,-0.977
5645,-0.0052,0.0003,0.0076,1.29,0.42,-1.37,0.256,-4.727,5.230,-1.119
5655,-0.0090,-0.0012,0.0076,1.23,0.40,-1.38,0.254,-7.755,1.467,-0.946
5665,-0.0098,-0.0033,0.0077,1.19,0.34,-1.39,0.254,-9.493,3.455,-0.352
5676,-0.0036,-0.0205,0.0040,1.22,0.25,-1.40,0.254,-8.907,4.515,-0.383
5686,-0.0056,-0.0223,0.0045,1.14,0.24,-1.40,0.254,-7.983,5.927,-0.299
5696,-0.0071,-0.0215,0.0048,1.03,0.21,-1.41,0.254,-9.428,4.550,-1.081
5705,-0.0122,-0.0208,0.0047,0.93,0.19,-1.41,0.256,-13.940,3.385,0.474
5716,-0.0126,-0.0223,0.0050,0.85,0.13,-1.42,0.256,-10.231,5.058,0.780
5725,-0.0156,-0.0209,0.0057,0.74,0.10,-1.42,0.256,-12.671,3.021,-0.006
5736,-0.0055,-0.0489,0.0072,0.77,0.00,-1.43,0.256,-15.110,2.856,0.497
5745,-0.0056,-0.0502,0.0070,0.65,-0.04,-1.42,0.256,-14.206,3.396,0.339
5756,-0.0067,-0.0470,0.0072,0.51,-0.07,-1.41,0.250,-13.601,2.310,0.595
5766,-0.0117,-0.0455,0.0075,0.36,-0.07,-1.41,0.250,-12.770,3.205,1.413
5775,-0.0115,-0.0460,-0.0053,0.22,-0.11,-1.40,0.250,-11.727,3.304,1.199
5785,-0.0166,-0.0420,-0.0053,0.06,-0.10,-1.39,0.250,-11.845,5.639,0.451
5795,-0.0098,-0.0582,-0.0057,0.01,-0.17,-1.39,0.250,-14.019,3.675,0.570
5806,-0.0087,-0.0618,-0.0057,-0.09,-0.21,-1.37,0.254,-15.990,2.399,0.221
5816,-0.0083,-0.0616,-0.0054,-0.20,-0.27,-1.37,0.254,-13.177,3.705,0.256
5825,-0.0110,-0.0583,-0.0049,-0.35,-0.30,-1.36,0.254,-15.679,1.322,0.190
5835,-0.0062,-0.0727,-0.0033,-0.42,-0.35,-1.36,0.254,-14.019,2.205,-0.217
5846,-0.0050,-0.0749,-0.0034,-0.54,-0.39,-1.36,0.254,-12.865,3.811,0.733
5855,-0.0039,-0.0707,-0.0031,-0.71,-0.41,-1.36,0.250,-14.249,2.710,0.507
5866,-0.0064,-0.0647,-0.0026,-0.89,-0.41,-1.36,0.250,-17.313,-1.130,0.218
5875,-0.0057,-0.0632,-0.0074,-1.02,-0.44,-1.36,0.250,-16.353,-1.450,0.121
5885,-0.0082,-0.0566,-0.0074,-1.19,-0.46,-1.35,0.250,-16.405,-1.173,-0.472
5895,-0.0092,-0.0498,-0.0074,-1.38,-0.45,-1.34,0.250,-15.783,-0.573,-0.948
5906,-0.0120,-0.0431,-0.0073,-1.57,-0.41,-1.34,0.252,-10.430,-0.014,-0.703
5916,-0.0058,-0.0551,-0.0071,-1.65,-0.43,-1.35,0.252,-9.249,0.652,-0.356
5925,-0.0049,-0.0575,-0.0066,-1.78,-0.42,-1.35,0.252,-10.168,-1.503,0.262
5935,-0.0040,-0.0542,-0.0061,-1.91,-0.43,-1.36,0.252,-4.961,-2.916,-0.373
5945,-0.0051,-0.0480,-0.0055,-2.03,-0.41,-1.36,0.252,-0.526,-1.185,-1.064
5956,-0.0062,-0.0417,-0.0049,-2.13,-0.38,-1.36,0.254,0.415,-2.587,-1.296
5965,-0.0054,-0.0380,-0.0046,-2.18,-0.36,-1.36,0.254,-1.301,-1.848,-1.044
5975,-0.0047,-0.0343,0.0009,-2.20,-0.35,-1.37,0.254,-0.602,-1.610,-0.909
5986,-0.0045,-0.0310,0.0016,-2.20,-0.33,-1.38,0.254,0.938,-0.807,-1.124
5996,-0.0038,-0.0273,0.0022,-2.21,-0.31,-1.39,0.254,-1.030,0.109,-0.669
6006,-0.0032,-0.0235,0.0026,-2.22,-0.30,-1.40,0.252,-0.019,-0.024,-0.764
6017,-0.0026,-0.0197,0.0028,-2.22,-0.29,-1.40,0.252,4.322,0.377,-1.476
6025,-0.0020,-0.0159,0.0014,-2.23,-0.29,-1.41,0.252,3.748,0.766,-1.640
6036,-0.0014,-0.0121,0.0018,-2.23,-0.29,-1.42,0.252,2.222,-0.551,-1.107
6045,-0.0008,-0.0083,0.0019,-2.21,-0.29,-1.43,0.252,1.037,-1.344,-0.440
6055,-0.0002,-0.0045,0.0020,-2.18,-0.29,-1.44,0.255,5.830,1.092,-0.625
6065,0.0004,-0.0008,0.0019,-2.15,-0.29,-1.45,0.255,9.454,-0.085,-1.520
6075,0.0031,0.0028,0.0076,-2.14,-0.29,-1.46,0.255,11.477,-1.598,-1.160
6086,0.0037,0.0064,0.0079,-2.09,-0.29,-1.46,0.255,10.504,-3.108,-0.844
6096,0.0108,0.0098,0.0080,-2.00,-0.33,-1.48,0.255,11.434,-4.830,-1.392
6106,0.0115,0.0133,0.0081,-1.89,-0.31,-1.49,0.252,11.677,-2.981,-0.912
6115,0.0047,0.0328,0.0084,-1.87,-0.23,-1.50,0.252,12.034,-1.508,0.102
6125,0.0038,0.0346,0.0089,-1.76,-0.18,-1.51,0.252,12.402,-3.438,-0.796
6135,0.0055,0.0337,0.0048,-1.62,-0.15,-1.52,0.252,12.991,-2.781,-0.562
6145,0.0117,0.0327,0.0049,-1.49,-0.16,-1.52,0.252,15.104,-3.279,-1.180
6155,0.0120,0.0353,0.0052,-1.37,-0.12,-1.52,0.250,16.198,-2.566,-0.903
6165,0.0157,0.0355,0.0056,-1.23,-0.09,-1.53,0.250,15.908,-1.653,-0.188
6175,0.0085,0.0531,-0.0022,-1.17,-0.01,-1.54,0.250,16.511,-2.963,-0.407
6185,0.0057,0.0605,-0.0023,-1.05,0.03,-1.55,0.250,16.122,-2.537,0.729
6195,0.0072,0.0589,-0.0020,-0.88,0.05,-1.55,0.250,15.249,-2.196,0.588
6205,0.0105,0.0549,-0.0018,-0.69,0.07,-1.55,0.250,17.098,-4.361,0.000
6216,0.0135,0.0507,-0.0020,-0.49,0.07,-1.55,0.250,17.833,-2.745,-0.043
6225,0.0049,0.0673,-0.0023,-0.41,0.15,-1.55,0.250,18.575,-1.609,0.096
6235,0.0021,0.0703,-0.0062,-0.24,0.20,-1.55,0.250,19.184,-1.303,-0.572
6245,0.0032,0.0670,-0.0059,-0.03,0.21,-1.55,0.250,18.499,0.314,0.031
6255,0.0045,0.0613,-0.0058,0.20,0.22,-1.55,0.250,18.430,-0.483,-0.768
6265,0.0022,0.0747,-0.0062,0.31,0.24,-1.56,0.250,17.940,-0.407,-1.017
6275,-0.0019,0.0764,-0.0058,0.49,0.26,-1.56,0.250,16.595,0.692,-1.437
6285,0.0013,0.0697,-0.0056,0.71,0.24,-1.57,0.250,14.625,-0.026,-0.731
6296,0.0008,0.0650,-0.0055,0.91,0.25,-1.58,0.250,12.290,0.033,-1.047
6305,0.0005,0.0679,-0.0054,1.05,0.25,-1.59,0.249,10.001,-0.539,-0.889
6315,0.0072,0.0540,-0.0052,1.26,0.20,-1.59,0.249,9.445,-2.037,-1.908
6325,-0.0055,0.0722,-0.0049,1.28,0.27,-1.61,0.249,5.561,-0.366,-1.087
6335,-0.0061,0.0700,-0.0081,1.39,0.27,-1.62,0.249,7.603,-2.357,-1.978
6345,-0.0050,0.0638,-0.0078,1.49,0.27,-1.63,0.249,7.385,-1.268,-0.996
6355,-0.0055,0.0612,-0.0076,1.55,0.28,-1.64,0.252,6.134,-2.155,-1.422
6365,-0.0025,0.0569,-0.0072,1.63,0.28,-1.66,0.252,5.315,-2.249,-1.421
6375,-0.0030,0.0541,0.0009,1.71,0.29,-1.67,0.252,3.604,-3.494,-0.922
6385,-0.0040,0.0503,0.0015,1.76,0.32,-1.69,0.252,3.332,1.167,-1.781
6395,-0.0010,0.0427,0.0023,1.85,0.32,-1.71,0.252,3.133,2.801,-1.586
6405,-0.0017,0.0392,0.0033,1.90,0.35,-1.72,0.250,-0.578,1.673,-0.357
6415,-0.0024,0.0359,0.0045,1.94,0.35,-1.74,0.250,-2.980,0.307,-0.242
6425,-0.0031,0.0326,0.0031,1.96,0.34,-1.75,0.250,-0.968,2.962,-0.607
6435,-0.0038,0.0292,0.0044,1.96,0.31,-1.75,0.250,-4.832,2.878,-0.738
6445,-0.0045,0.0259,0.0055,1.94,0.29,-1.76,0.250,-5.116,2.236,-1.271
6455,-0.0051,0.0225,0.0060,1.93,0.27,-1.76,0.250,-4.717,0.430,-1.840
6465,-0.0056,0.0192,0.0067,1.88,0.24,-1.77,0.250,-7.466,0.288,-0.693
6475,-0.0077,0.0162,0.0054,1.83,0.23,-1.78,0.250,-8.761,0.541,-1.206
6485,-0.0082,0.0131,0.0063,1.78,0.22,-1.80,0.250,-8.619,-0.314,-1.040
6495,-0.0126,0.0109,0.0071,1.70,0.24,-1.80,0.250,-10.330,0.472,-1.063
6505,-0.0131,0.0080,0.0079,1.62,0.23,-1.81,0.249,-11.387,-0.339,-0.691
6515,-0.0176,0.0068,0.0090,1.52,0.25,-1.82,0.249,-11.623,-1.036,-0.134
6525,-0.0181,0.0041,0.0103,1.41,0.26,-1.83,0.249,-11.925,-0.374,-0.271
6535,-0.0201,0.0037,0.0073,1.29,0.27,-1.84,0.249,-12.090,0.309,-0.875
6545,-0.0221,0.0032,0.0087,1.18,0.28,-1.84,0.249,-10.062,2.873,-1.156
6555,-0.0237,0.0031,0.0103,1.05,0.29,-1.85,0.246,-10.462,2.360,-0.491
6565,-0.0152,-0.0162,0.0117,1.03,0.23,-1.86,0.246,-10.561,3.542,-1.284
6574,-0.0147,-0.0171,0.0024,0.92,0.21,-1.87,0.246,-6.836,5.987,-1.024
6585,-0.0201,-0.0161,0.0036,0.80,0.22,-1.88,0.246,-9.671,5.927,-0.547
6595,-0.0206,-0.0175,0.0047,0.70,0.19,-1.89,0.246,-9.590,7.321,-0.622
6605,-0.0231,-0.0167,0.0058,0.61,0.15,-1.89,0.245,-9.321,7.713,-1.414
6615,-0.0234,-0.0177,0.0070,0.52,0.08,-1.90,0.245,-10.999,7.230,-0.592
6625,-0.0254,-0.0164,0.0085,0.42,0.02,-1.91,0.245,-10.979,6.588,-0.914
6635,-0.0272,-0.0144,0.0014,0.31,-0.04,-1.92,0.245,-11.614,5.773,-0.912
6645,-0.0291,-0.0144,0.0026,0.19,-0.10,-1.92,0.245,-11.461,4.104,-1.332
6655,-0.0306,-0.0122,0.0039,0.07,-0.15,-1.93,0.250,-9.854,4.230,-1.774
6664,-0.0286,-0.0180,0.0053,-0.02,-0.22,-1.94,0.250,-8.936,4.482,-1.942
6675,-0.0282,-0.0154,0.0123,-0.14,-0.26,-1.95,0.250,-8.122,4.692,-1.515
6684,-0.0298,-0.0128,0.0137,-0.26,-0.29,-1.97,0.250,-8.011,4.044,-1.415
6695,-0.0313,-0.0102,0.0153,-0.37,-0.32,-1.98,0.250,-5.703,4.668,-1.673
6705,-0.0308,-0.0078,0.0170,-0.46,-0.36,-1.99,0.250,-5.679,4.956,-1.531
6715,-0.0302,-0.0070,0.0189,-0.53,-0.40,-2.01,0.250,-4.806,5.271,-1.411
6725,-0.0263,-0.0264,0.0207,-0.48,-0.47,-2.03,0.250,-3.907,5.727,-1.360
6735,-0.0237,-0.0258,0.0257,-0.53,-0.53,-2.04,0.250,-2.755,6.447,-1.563
6745,-0.0213,-0.0307,0.0270,-0.54,-0.60,-2.06,0.250,-0.807,6.472,-1.450
6755,-0.0166,-0.0283,0.0286,-0.59,-0.68,-2.08,0.248,0.460,4.830,-1.640
6765,-0.0156,-0.0258,0.0301,-0.62,-0.74,-2.09,0.248,-1.577,3.056,-1.905
6774,-0.0165,-0.0255,0.0240,-0.63,-0.79,-2.11,0.248,-3.238,4.279,-1.888
6786,-0.0173,-0.0234,0.0254,-0.63,-0.83,-2.12,0.248,-6.323,0.605,-1.897
6795,-0.0158,-0.0224,0.0265,-0.65,-0.88,-2.14,0.248,-7.003,0.998,-1.852
6805,-0.0143,-0.0213,0.0275,-0.69,-0.91,-2.16,0.248,-7.361,-3.228,-1.345
6815,-0.0127,-0.0202,0.0285,-0.75,-0.92,-2.17,0.252,-7.495,-3.300,-2.543
6825,-0.0125,-0.0170,0.0296,-0.83,-0.91,-2.19,0.252,-9.784,-3.796,-1.902
6834,-0.0109,-0.0156,0.0321,-0.91,-0.88,-2.21,0.252,-7.767,-4.085,-1.989
6845,-0.0093,-0.0141,0.0332,-0.99,-0.85,-2.23,0.252,-4.052,-4.860,-2.388
6854,-0.0078,-0.0124,0.0346,-1.08,-0.81,-2.25,0.252,-5.315,-4.410,-2.444
6865,-0.0063,-0.0106,0.0355,-1.16,-0.76,-2.27,0.252,-1.236,-4.168,-2.113
6875,-0.0048,-0.0085,0.0355,-1.22,-0.71,-2.29,0.252,0.940,-4.832,-1.629
6885,-0.0062,-0.0074,0.0362,-1.26,-0.65,-2.32,0.252,2.789,-3.570,-1.635
6895,-0.0050,-0.0052,0.0369,-1.27,-0.61,-2.34,0.252,1.687,-4.965,-1.343
6905,-0.0039,-0.0031,0.0377,-1.26,-0.56,-2.35,0.255,5.146,-3.142,-1.537
6915,0.0093,-0.0219,0.0385,-1.11,-0.59,-2.37,0.255,5.816,-3.808,-1.746
6925,0.0104,-0.0201,0.0388,-1.08,-0.55,-2.39,0.255,5.344,-1.441,-2.452
6935,0.0105,-0.0093,0.0392,-1.08,-0.52,-2.41,0.255,1.174,-2.555,-1.393
6945,0.0115,-0.0075,0.0397,-1.03,-0.48,-2.42,0.255,2.438,-2.588,-2.021
6954,0.0140,-0.0065,0.0402,-0.97,-0.47,-2.44,0.257,-0.109,-1.659,-1.899
6965,0.0148,-0.0049,0.0406,-0.95,-0.45,-2.46,0.257,-1.766,-3.560,-2.493
6975,0.0157,-0.0033,0.0409,-0.93,-0.42,-2.48,0.257,-4.463,-6.375,-2.239
6984,0.0165,-0.0017,0.0413,-0.94,-0.39,-2.50,0.257,-2.458,-8.494,-1.863
6994,0.0176,0.0003,0.0416,-0.96,-0.34,-2.52,0.257,-2.259,-10.081,-1.718
7005,0.0162,0.0050,0.0417,-1.01,-0.27,-2.55,0.255,-2.563,-10.008,-1.676
7015,0.0189,0.0066,0.0422,-1.03,-0.20,-2.57,0.255,-0.640,-12.890,-1.635
7025,0.0193,0.0084,0.0428,-1.05,-0.10,-2.58,0.255,4.353,-10.563,-2.901
7035,0.0130,0.0311,0.0336,-1.19,0.05,-2.60,0.255,4.692,-8.842,-3.133
7044,0.0085,0.0430,0.0338,-1.24,0.20,-2.62,0.255,3.979,-8.896,-2.293
7055,0.0104,0.0422,0.0343,-1.18,0.29,-2.65,0.255,8.639,-8.258,-3.224
7065,0.0108,0.0438,0.0346,-1.13,0.36,-2.67,0.255,10.387,-2.964,-3.002
7075,0.0102,0.0456,0.0258,-1.09,0.44,-2.70,0.255,13.091,-3.638,-2.403
7084,0.0126,0.0437,0.0262,-0.98,0.49,-2.73,0.255,17.808,-0.608,-4.225
7095,0.0118,0.0455,0.0265,-0.87,0.52,-2.76,0.255,14.674,-1.234,-1.369
7104,0.0118,0.0428,0.0269,-0.72,0.55,-2.79,0.255,19.921,-0.161,-2.239
7114,0.0070,0.0629,0.0271,-0.65,0.58,-2.83,0.261,18.029,-1.280,-2.677
7124,0.0057,0.0674,0.0275,-0.50,0.60,-2.85,0.261,20.409,4.129,-3.299
7134,0.0044,0.0644,0.0331,-0.28,0.61,-2.87,0.261,14.625,2.402,-2.846
7145,0.0034,0.0649,0.0336,-0.10,0.61,-2.90,0.261,16.311,3.580,-3.590
7154,0.0070,0.0609,0.0339,0.12,0.55,-2.93,0.265,12.246,-0.264,-2.449
7164,0.0082,0.0558,0.0340,0.30,0.51,-2.96,0.265,14.904,3.025,-3.035
7174,0.0001,0.0692,0.0426,0.39,0.53,-3.00,0.265,15.230,1.770,-3.089
7184,-0.0009,0.0660,0.0432,0.53,0.52,-3.02,0.265,15.209,4.398,-3.187
7194,-0.0029,0.0681,0.0436,0.67,0.50,-3.06,0.265,13.060,1.021,-2.559
7204,-0.0038,0.0670,0.0440,0.83,0.49,-3.09,0.269,13.436,0.254,-3.568
7215,-0.0021,0.0604,0.0445,1.00,0.44,-3.12,0.269,10.636,4.215,-2.822
7225,-0.0029,0.0587,0.0451,1.13,0.43,-3.15,0.269,13.584,6.813,-2.856
7234,-0.0106,0.0748,0.0540,1.17,0.46,-3.18,0.269,6.793,1.362,-2.232
7244,-0.0105,0.0704,0.0540,1.30,0.41,-3.21,0.269,12.881,2.787,-4.369
7254,-0.0135,0.0714,0.0539,1.41,0.37,-3.23,0.270,9.105,3.277,-2.473
7264,-0.0143,0.0690,0.0541,1.49,0.35,-3.26,0.270,11.023,4.514,-2.766
7274,-0.0151,0.0665,0.0563,1.60,0.32,-3.30,0.270,11.695,7.282,-3.011
7285,-0.0158,0.0638,0.0562,1.69,0.28,-3.33,0.270,6.333,3.062,-2.088
7295,-0.0164,0.0610,0.0559,1.80,0.25,-3.35,0.270,6.170,3.901,-2.006
7304,-0.0174,0.0536,0.0556,1.93,0.18,-3.38,0.271,10.593,8.270,-2.445
7314,-0.0179,0.0504,0.0552,2.01,0.13,-3.40,0.271,7.648,6.225,-1.631
7324,-0.0183,0.0470,0.0546,2.08,0.09,-3.42,0.271,4.735,5.903,-1.109
7334,-0.0185,0.0442,0.0501,2.18,0.01,-3.44,0.271,4.668,6.161,-1.160
7344,-0.0190,0.0374,0.0492,2.28,-0.06,-3.45,0.271,4.278,7.871,-1.264
7355,-0.0192,0.0332,0.0479,2.34,-0.13,-3.46,0.274,0.600,6.003,-0.803
7364,-0.0192,0.0292,0.0468,2.39,-0.19,-3.47,0.274,-2.731,4.585,-0.031
7375,-0.0248,0.0438,0.0457,2.31,-0.22,-3.47,0.274,-3.914,3.332,-0.208
7385,-0.0230,0.0292,0.0446,2.37,-0.30,-3.48,0.274,-3.781,5.110,-0.934
7395,-0.0230,0.0245,0.0434,2.35,-0.35,-3.48,0.274,-6.836,4.165,-0.054
7404,-0.0213,0.0183,0.0422,2.32,-0.40,-3.49,0.273,-8.440,2.854,0.048
7414,-0.0235,0.0147,0.0410,2.26,-0.43,-3.49,0.273,-4.787,5.761,-0.986
7425,-0.0232,0.0116,0.0316,2.20,-0.47,-3.49,0.273,-7.774,3.647,0.310
7434,-0.0234,0.0090,0.0307,2.11,-0.50,-3.49,0.273,-6.895,4.809,0.073
7444,-0.0198,-0.0126,0.0293,2.15,-0.57,-3.50,0.273,-9.112,2.868,1.440
7454,-0.0142,-0.0227,0.0280,2.11,-0.64,-3.49,0.277,-9.302,4.142,1.197
7465,-0.0138,-0.0266,0.0271,2.05,-0.69,-3.49,0.277,-9.920,5.084,0.909
7474,-0.0155,-0.0276,0.0281,1.95,-0.71,-3.48,0.277,-11.970,3.665,1.202
7484,-0.0134,-0.0306,0.0272,1.87,-0.75,-3.47,0.277,-13.989,3.924,0.726
7495,-0.0149,-0.0308,0.0261,1.75,-0.79,-3.46,0.277,-17.340,3.903,1.541
7504,-0.0163,-0.0307,0.0252,1.61,-0.81,-3.44,0.274,-21.108,2.836,2.355
7515,-0.0114,-0.0488,0.0238,1.53,-0.87,-3.43,0.274,-22.534,1.298,2.674
7524,-0.0099,-0.0580,0.0226,1.38,-0.90,-3.41,0.274,-24.485,-2.295,3.604
7534,-0.0097,-0.0548,0.0122,1.14,-0.91,-3.38,0.274,-22.060,-0.855,3.347
7544,-0.0100,-0.0531,0.0113,0.88,-0.90,-3.35,0.274,-20.955,-1.962,3.304
7554,-0.0053,-0.0641,0.0105,0.69,-0.90,-3.32,0.279,-25.265,-5.594,4.988
7564,-0.0041,-0.0673,0.0097,0.48,-0.89,-3.28,0.279,-20.940,-1.375,4.011
7575,-0.0029,-0.0666,0.0136,0.26,-0.86,-3.25,0.279,-23.031,-4.093,5.806
7584,-0.0015,-0.0671,0.0129,0.02,-0.81,-3.20,0.279,-22.686,-4.635,5.969
7594,0.0028,-0.0787,0.0122,-0.13,-0.82,-3.16,0.279,-20.398,-1.867,5.089
7604,0.0051,-0.0818,0.0115,-0.35,-0.79,-3.10,0.279,-20.015,-4.166,6.512
7614,0.0064,-0.0813,0.0110,-0.56,-0.75,-3.04,0.272,-22.593,-7.278,6.217
7624,0.0053,-0.0762,0.0106,-0.79,-0.71,-2.99,0.272,-19.856,-6.193,6.848
7634,0.0105,-0.0859,-0.0045,-0.93,-0.69,-2.92,0.272,-20.189,-7.524,7.238
7645,0.0120,-0.0838,-0.0048,-1.15,-0.62,-2.85,0.272,-21.235,-7.240,6.924
7654,0.0118,-0.0797,-0.0052,-1.36,-0.55,-2.78,0.276,-18.123,-5.371,7.130
7664,0.0096,-0.0716,-0.0058,-1.60,-0.46,-2.71,0.276,-16.907,-5.299,7.346
7674,0.0076,-0.0634,-0.0050,-1.83,-0.37,-2.63,0.276,-14.835,-4.978,7.126
7684,0.0088,-0.0663,-0.0050,-1.98,-0.33,-2.56,0.276,-11.987,-4.802,6.933
7695,0.0135,-0.0658,-0.0048,-2.12,-0.30,-2.48,0.276,-10.462,-4.705,7.729
7704,0.0163,-0.0669,-0.0049,-2.24,-0.27,-2.41,0.276,-10.034,-4.077,8.506
7714,0.0170,-0.0631,-0.0050,-2.37,-0.24,-2.34,0.275,-9.165,-4.722,7.851
7724,0.0162,-0.0574,-0.0048,-2.49,-0.19,-2.26,0.275,-3.939,-4.945,6.651
7734,0.0167,-0.0531,-0.0054,-2.58,-0.15,-2.17,0.275,-3.437,-0.536,8.169
7744,0.0141,-0.0457,-0.0052,-2.68,-0.08,-2.09,0.275,-4.817,-4.801,9.012
7754,0.0144,-0.0411,-0.0049,-2.71,-0.05,-2.02,0.280,-0.972,-7.648,6.970
7764,0.0146,-0.0364,-0.0047,-2.74,-0.04,-1.93,0.280,1.687,-3.572,8.022
7774,0.0149,-0.0316,0.0060,-2.78,0.01,-1.84,0.280,0.968,-6.418,7.476
7784,0.0150,-0.0268,0.0062,-2.79,0.07,-1.77,0.280,-1.660,-7.956,9.340
7794,0.0159,-0.0214,0.0066,-2.77,0.11,-1.68,0.280,1.783,-5.510,7.880
7804,0.0161,-0.0160,0.0069,-2.76,0.17,-1.60,0.276,4.718,-8.067,8.508
7814,0.0179,-0.0105,0.0071,-2.78,0.24,-1.51,0.276,7.736,-4.476,7.842
7824,0.0182,-0.0054,0.0073,-2.75,0.29,-1.43,0.276,12.108,-5.865,7.174
7834,0.0270,-0.0210,0.0043,-2.59,0.30,-1.33,0.276,14.100,-6.240,5.605
7844,0.0247,-0.0113,0.0043,-2.54,0.37,-1.25,0.276,13.134,-5.415,6.612
7854,0.0224,-0.0066,0.0044,-2.43,0.44,-1.18,0.274,9.418,-3.351,7.968
7864,0.0258,-0.0029,0.0044,-2.28,0.47,-1.12,0.274,13.262,-0.307,6.025
7874,0.0249,-0.0028,-0.0020,-2.13,0.52,-1.05,0.274,8.551,1.146,6.967
7884,0.0241,0.0008,-0.0023,-2.03,0.54,-0.97,0.274,8.376,-0.487,6.773
7894,0.0262,0.0022,-0.0025,-1.90,0.52,-0.90,0.274,7.789,-0.999,6.813
7904,0.0243,0.0060,-0.0027,-1.82,0.53,-0.83,0.272,10.739,-2.598,5.604
7914,0.0234,0.0091,-0.0030,-1.74,0.53,-0.76,0.272,8.395,-4.935,6.148
7924,0.0198,0.0256,-0.0116,-1.73,0.57,-0.69,0.272,7.415,-5.222,5.971
7934,0.0138,0.0338,-0.0115,-1.65,0.63,-0.64,0.272,7.248,-6.326,5.784
7944,0.0134,0.0361,-0.0116,-1.57,0.67,-0.58,0.272,7.696,-6.162,5.057
7954,0.0146,0.0383,-0.0116,-1.49,0.71,-0.52,0.272,14.268,-2.707,4.218
7964,0.0139,0.0384,-0.0119,-1.40,0.76,-0.46,0.272,13.845,-2.341,5.357
7974,0.0130,0.0380,-0.0154,-1.30,0.81,-0.41,0.272,15.749,-1.095,4.728
7984,0.0049,0.0534,-0.0154,-1.23,0.89,-0.37,0.272,17.432,2.195,4.810
7994,0.0012,0.0592,-0.0151,-1.12,0.91,-0.31,0.272,20.083,0.162,5.086
8005,0.0011,0.0582,-0.0145,-0.93,0.92,-0.26,0.272,22.057,5.325,3.919
8014,0.0050,0.0553,-0.0139,-0.73,0.88,-0.21,0.272,16.697,2.009,4.363
8024,-0.0052,0.0678,-0.0134,-0.58,0.91,-0.18,0.272,20.161,2.045,4.491
8034,-0.0094,0.0725,-0.0133,-0.40,0.88,-0.14,0.272,21.877,7.901,3.614
8044,-0.0105,0.0702,-0.0130,-0.21,0.86,-0.09,0.272,21.316,7.143,3.396
8053,-0.0093,0.0652,-0.0125,0.03,0.81,-0.05,0.267,18.691,8.450,3.343
8064,-0.0091,0.0670,-0.0123,0.24,0.73,-0.02,0.267,19.339,11.293,3.080
8074,-0.0107,0.0645,-0.0216,0.46,0.65,0.01,0.267,17.509,9.315,2.812
8084,-0.0118,0.0637,-0.0214,0.65,0.56,0.05,0.267,16.770,8.251,2.334
8095,-0.0180,0.0737,-0.0210,0.79,0.48,0.07,0.267,12.239,5.110,3.386
8104,-0.0116,0.0549,-0.0200,1.06,0.35,0.10,0.267,10.544,5.995,2.263
8114,-0.0142,0.0615,-0.0194,1.17,0.28,0.13,0.272,10.374,8.925,1.995
8124,-0.0136,0.0576,-0.0188,1.28,0.23,0.16,0.272,8.121,4.467,2.346
8135,-0.0144,0.0519,-0.0102,1.41,0.15,0.19,0.272,6.703,1.880,2.403
8144,-0.0146,0.0495,-0.0095,1.51,0.09,0.21,0.272,7.552,6.828,1.242
8154,-0.0147,0.0469,-0.0087,1.58,0.05,0.23,0.270,6.606,3.244,1.618
8164,-0.0148,0.0441,-0.0079,1.65,0.02,0.25,0.270,4.555,1.789,1.721
8174,-0.0152,0.0386,-0.0061,1.74,-0.04,0.27,0.270,3.238,3.052,1.519
8183,-0.0141,0.0352,-0.0052,1.80,-0.07,0.29,0.270,3.104,4.446,0.577
8194,-0.0131,0.0283,-0.0043,1.88,-0.11,0.30,0.270,1.604,6.706,0.390
8203,-0.0195,0.0439,-0.0034,1.81,-0.10,0.32,0.270,-0.362,5.566,0.672
8213,-0.0163,0.0335,-0.0028,1.87,-0.16,0.33,0.270,-5.273,3.592,0.756
8224,-0.0160,0.0303,-0.0022,1.87,-0.21,0.34,0.270,-1.458,7.442,-1.120
8233,-0.0159,0.0243,-0.0005,1.88,-0.26,0.34,0.270,-5.877,4.378,-0.306
8244,-0.0179,0.0211,-0.0002,1.84,-0.30,0.34,0.270,-7.512,2.260,0.414
8254,-0.0173,0.0179,0.0002,1.82,-0.36,0.34,0.270,-7.420,2.001,0.284
8263,-0.0156,0.0133,0.0008,1.77,-0.40,0.34,0.270,-5.082,3.204,-0.670
8273,-0.0179,0.0110,0.0021,1.69,-0.40,0.34,0.270,-3.826,3.990,-0.996
8283,-0.0172,0.0080,0.0028,1.62,-0.41,0.34,0.270,-4.399,4.022,-0.371
8293,-0.0170,0.0055,0.0033,1.56,-0.45,0.34,0.270,-8.081,0.623,0.130
8303,-0.0162,0.0028,0.0040,1.53,-0.51,0.33,0.270,-5.927,4.362,-0.383
8314,-0.0162,0.0009,0.0048,1.47,-0.53,0.32,0.270,-7.428,1.831,0.180
8324,-0.0165,-0.0005,0.0059,1.39,-0.54,0.32,0.270,-9.477,1.972,0.130
8333,-0.0163,-0.0019,0.0068,1.33,-0.58,0.32,0.270,-6.123,4.622,-1.575
8343,-0.0152,-0.0042,0.0072,1.25,-0.59,0.33,0.270,-10.111,0.819,-0.508
8354,-0.0171,-0.0049,0.0076,1.15,-0.60,0.33,0.265,-11.704,-1.292,-0.457
8363,-0.0186,-0.0076,0.0079,1.09,-0.63,0.31,0.265,-13.626,-2.851,0.303
8374,-0.0176,-0.0093,-0.0034,0.99,-0.63,0.31,0.265,-11.341,-2.975,-0.086
8384,-0.0082,-0.0321,-0.0033,0.98,-0.66,0.30,0.265,-9.849,0.979,-0.389
8393,-0.0072,-0.0323,-0.0028,0.84,-0.64,0.31,0.265,-9.678,2.891,-0.391
8403,-0.0041,-0.0308,-0.0023,0.71,-0.64,0.31,0.265,-9.100,-1.549,0.019
8414,-0.0047,-0.0315,-0.0020,0.62,-0.64,0.30,0.270,-7.683,1.883,-0.322
8423,-0.0069,-0.0300,-0.0014,0.51,-0.64,0.29,0.270,-10.033,-1.320,0.177
8434,-0.0057,-0.0310,0.0037,0.42,-0.63,0.29,0.270,-11.343,-2.467,0.142
8444,-0.0061,-0.0312,0.0043,0.33,-0.62,0.29,0.270,-12.162,-1.707,-0.646
8453,-0.0011,-0.0463,0.0046,0.31,-0.64,0.29,0.267,-12.638,-1.051,-0.671
8464,0.0000,-0.0468,0.0051,0.19,-0.62,0.29,0.267,-14.144,-4.124,-0.561
8474,0.0043,-0.0509,0.0012,0.08,-0.61,0.29,0.267,-15.385,-6.256,-0.380
8483,0.0027,-0.0488,0.0019,-0.08,-0.56,0.29,0.267,-15.297,-4.802,-0.735
8493,0.0037,-0.0487,0.0026,-0.22,-0.53,0.28,0.267,-14.049,-0.709,0.017
8504,0.0046,-0.0483,0.0032,-0.37,-0.49,0.28,0.270,-13.640,-4.072,-0.997
8514,0.0023,-0.0434,0.0041,-0.54,-0.43,0.27,0.270,-16.435,-2.821,0.378
8523,0.0046,-0.0480,0.0046,-0.66,-0.41,0.27,0.270,-14.234,-3.551,-0.307
8533,0.0045,-0.0470,0.0091,-0.80,-0.36,0.27,0.270,-14.667,-7.804,0.073
8544,-0.0031,-0.0298,0.0099,-1.04,-0.29,0.27,0.270,-10.104,-4.710,-2.128
8553,0.0007,-0.0340,0.0109,-1.16,-0.26,0.27,0.269,-6.788,-4.566,-1.776
8563,0.0097,-0.0457,0.0119,-1.22,-0.24,0.27,0.269,-8.069,-4.097,-1.042
8574,0.0101,-0.0436,0.0114,-1.31,-0.20,0.25,0.269,-5.329,-5.998,-1.012
8583,0.0110,-0.0388,0.0119,-1.39,-0.15,0.23,0.269,-1.991,-0.805,-1.254
8594,0.0085,-0.0339,0.0123,-1.46,-0.10,0.21,0.269,-2.396,-1.112,-0.278
8604,0.0087,-0.0314,0.0126,-1.50,-0.05,0.21,0.269,-1.909,-0.251,-0.762
8614,0.0088,-0.0288,0.0131,-1.52,-0.03,0.19,0.268,0.122,-1.708,-1.867
8623,0.0103,-0.0248,0.0133,-1.54,-0.02,0.19,0.268,-0.615,-3.924,-2.081
8633,0.0103,-0.0222,0.0092,-1.56,-0.00,0.18,0.268,-1.783,-3.651,-1.526
8643,0.0097,-0.0204,0.0099,-1.57,0.02,0.16,0.268,-0.580,-4.364,-1.376
8653,0.0097,-0.0177,0.0103,-1.59,0.05,0.15,0.270,0.340,-4.885,-1.305
8663,0.0096,-0.0150,0.0107,-1.60,0.08,0.14,0.270,0.479,-4.643,-0.512
8673,0.0104,-0.0114,0.0122,-1.60,0.12,0.12,0.270,0.502,-5.609,-0.917
8683,0.0102,-0.0086,0.0128,-1.60,0.17,0.12,0.270,2.684,-5.067,-1.784
8693,0.0106,-0.0057,0.0135,-1.59,0.22,0.11,0.270,2.879,-5.499,-1.258
8703,0.0103,-0.0029,0.0143,-1.57,0.27,0.10,0.270,3.583,-5.651,-1.596
8713,0.0106,-0.0006,0.0148,-1.55,0.32,0.08,0.270,4.756,-4.730,-1.227
8723,0.0100,0.0021,0.0151,-1.52,0.37,0.07,0.270,4.813,-4.183,-0.953
8733,0.0094,0.0047,0.0143,-1.48,0.41,0.06,0.270,7.326,-2.196,-1.100
8743,0.0087,0.0072,0.0149,-1.43,0.45,0.05,0.270,7.560,-2.406,-1.393
8753,0.0079,0.0097,0.0156,-1.37,0.49,0.04,0.268,8.322,-1.368,-1.681
8763,0.0086,0.0102,0.0161,-1.29,0.50,0.03,0.268,7.346,-0.877,-1.237
8773,0.0091,0.0106,0.0103,-1.19,0.52,0.01,0.268,8.502,-0.386,-1.580
8783,0.0098,0.0105,0.0104,-1.09,0.52,-0.00,0.268,8.026,0.784,-1.253
8794,0.0089,0.0124,0.0105,-1.01,0.53,-0.02,0.268,8.193,0.900,-1.089
8803,0.0030,0.0323,0.0107,-1.02,0.56,-0.03,0.268,8.498,0.653,-1.158
8813,0.0019,0.0335,0.0110,-0.94,0.56,-0.04,0.270,7.405,0.771,-1.780
8823,0.0010,0.0352,0.0113,-0.86,0.56,-0.06,0.270,6.450,1.006,-1.490
8833,0.0000,0.0366,0.0109,-0.78,0.55,-0.07,0.270,9.853,0.111,-1.658
8843,-0.0009,0.0379,0.0111,-0.70,0.55,-0.08,0.270,9.858,0.085,-1.748
8853,0.0007,0.0362,0.0115,-0.61,0.53,-0.10,0.269,10.412,-0.140,-1.735
8863,-0.0002,0.0372,0.0121,-0.52,0.53,-0.12,0.269,12.005,1.798,-1.602
8873,-0.0011,0.0381,0.0091,-0.42,0.53,-0.13,0.269,13.811,2.171,-1.862
8883,-0.0066,0.0591,0.0095,-0.42,0.55,-0.15,0.269,14.419,2.885,-1.796
8893,-0.0116,0.0667,0.0099,-0.33,0.55,-0.17,0.269,14.705,3.691,-2.181
8903,-0.0126,0.0672,0.0103,-0.19,0.53,-0.19,0.269,13.437,4.241,-1.785
8913,-0.0123,0.0641,0.0106,-0.02,0.49,-0.20,0.269,14.480,6.081,-2.024
8923,-0.0131,0.0641,0.0110,0.12,0.45,-0.22,0.269,13.763,6.190,-1.506
8933,-0.0139,0.0639,0.0078,0.27,0.39,-0.24,0.269,16.396,6.172,-1.720
8943,-0.0146,0.0634,0.0084,0.41,0.33,-0.26,0.269,18.271,6.441,-1.917
8953,-0.0151,0.0627,0.0092,0.56,0.27,-0.27,0.273,16.552,7.639,-1.328
8963,-0.0156,0.0617,0.0097,0.74,0.22,-0.29,0.273,17.662,8.045,-1.658
8973,-0.0215,0.0773,0.0158,0.82,0.17,-0.31,0.273,15.752,7.212,-1.384
8983,-0.0168,0.0636,0.0163,1.06,0.07,-0.32,0.273,15.228,6.354,-1.035
8993,-0.0172,0.0652,0.0170,1.22,0.00,-0.33,0.273,11.857,7.071,-0.943
9003,-0.0198,0.0668,0.0178,1.35,-0.05,-0.35,0.273,11.276,5.728,-0.827
9013,-0.0197,0.0645,0.0184,1.48,-0.12,-0.35,0.272,9.301,6.829,-1.417
9023,-0.0223,0.0566,0.0192,1.63,-0.16,-0.36,0.272,8.483,5.670,-1.640
9033,-0.0200,0.0516,0.0190,1.74,-0.23,-0.37,0.272,6.125,3.510,-1.656
9043,-0.0196,0.0486,0.0194,1.82,-0.29,-0.38,0.272,6.321,2.581,-0.955
9053,-0.0191,0.0455,0.0197,1.91,-0.34,-0.39,0.276,7.483,3.398,-0.965
9063,-0.0186,0.0422,0.0199,1.98,-0.37,-0.40,0.276,0.956,2.592,-0.841
9073,-0.0180,0.0387,0.0264,2.04,-0.40,-0.41,0.276,0.161,2.765,-1.175
9083,-0.0184,0.0321,0.0264,2.09,-0.42,-0.42,0.276,1.412,3.137,-0.971
9093,-0.0177,0.0285,0.0265,2.11,-0.46,-0.43,0.276,-2.062,3.583,-0.647
9103,-0.0181,0.0238,0.0268,2.12,-0.48,-0.44,0.276,-3.262,1.736,-0.468
9113,-0.0173,0.0202,0.0269,2.11,-0.51,-0.44,0.272,-2.531,4.288,-0.806
9123,-0.0164,0.0166,0.0268,2.09,-0.54,-0.45,0.272,-4.260,2.067,-0.273
9133,-0.0196,0.0131,0.0184,2.05,-0.55,-0.45,0.272,-6.923,2.739,-0.479
9143,-0.0194,0.0094,0.0182,2.02,-0.59,-0.46,0.272,-9.515,1.642,-0.004
9153,-0.0197,0.0064,0.0180,1.97,-0.60,-0.46,0.274,-7.236,2.939,-0.521
9163,-0.0187,0.0031,0.0178,1.89,-0.62,-0.46,0.274,-8.345,2.522,-0.352
9173,-0.0166,-0.0033,0.0158,1.81,-0.65,-0.47,0.274,-8.683,3.027,-0.495
9183,-0.0238,-0.0024,0.0158,1.73,-0.63,-0.47,0.274,-9.278,2.719,-0.137
9193,-0.0213,-0.0106,0.0157,1.66,-0.67,-0.47,0.274,-11.129,2.993,-0.804
9204,-0.0202,-0.0135,0.0158,1.58,-0.70,-0.47,0.277,-9.712,3.491,-0.553
9213,-0.0224,-0.0159,0.0157,1.47,-0.71,-0.47,0.277,-13.230,2.983,-1.141
9223,-0.0212,-0.0185,0.0191,1.37,-0.75,-0.48,0.277,-11.432,3.672,-0.764
9234,-0.0184,-0.0277,0.0191,1.29,-0.79,-0.49,0.277,-12.568,3.831,-0.611
9244,-0.0223,-0.0193,0.0190,1.09,-0.80,-0.50,0.277,-13.731,2.484,-0.746
9253,-0.0215,-0.0184,0.0187,0.97,-0.85,-0.50,0.275,-14.233,3.204,-0.670
9263,-0.0144,-0.0374,0.0185,0.93,-0.91,-0.51,0.275,-12.792,2.584,-1.253
9273,-0.0119,-0.0438,0.0142,0.82,-0.94,-0.52,0.275,-18.691,1.001,-0.433
9283,-0.0093,-0.0431,0.0140,0.67,-0.97,-0.52,0.275,-15.632,-0.370,-0.906
9293,-0.0111,-0.0423,0.0137,0.51,-0.98,-0.53,0.275,-11.796,2.104,-0.839
9303,-0.0047,-0.0555,0.0134,0.40,-1.01,-0.54,0.275,-14.844,0.832,-1.460
9313,-0.0005,-0.0601,0.0136,0.29,-1.03,-0.55,0.276,-17.384,-3.633,-0.485
9323,0.0017,-0.0584,0.0136,0.15,-1.05,-0.56,0.276,-13.276,-2.800,-1.137
9333,0.0012,-0.0557,0.0111,-0.04,-1.02,-0.57,0.276,-14.076,-0.356,-0.849
9343,0.0029,-0.0556,0.0109,-0.19,-0.99,-0.58,0.276,-14.396,-4.591,-1.172
9352,0.0003,-0.0514,0.0110,-0.21,-0.97,-0.58,0.274,-17.607,-5.216,-1.408
9363,0.0056,-0.0546,0.0110,-0.32,-0.98,-0.58,0.274,-14.613,-3.188,-1.339
9373,0.0062,-0.0596,0.0044,-0.45,-0.94,-0.59,0.274,-18.438,-6.486,-1.353
9382,0.0106,-0.0640,0.0040,-0.59,-0.91,-0.61,0.274,-16.944,-9.473,-0.622
9393,0.0122,-0.0630,0.0039,-0.74,-0.87,-0.62,0.274,-15.929,-7.594,-0.409
9403,0.0137,-0.0617,0.0039,-0.91,-0.82,-0.63,0.277,-12.709,-7.125,0.427
9413,0.0131,-0.0570,0.0041,-1.10,-0.73,-0.64,0.277,-13.742,-6.980,0.344
9423,0.0144,-0.0551,0.0043,-1.28,-0.65,-0.64,0.277,-6.804,-9.168,0.304
9433,0.0197,-0.0693,0.0068,-1.31,-0.59,-0.63,0.277,-11.059,-8.469,0.007
9443,0.0228,-0.0729,0.0070,-1.42,-0.52,-0.62,0.277,-6.635,-6.843,0.536
9452,0.0236,-0.0663,0.0071,-1.54,-0.44,-0.62,0.272,-7.844,-8.216,-0.150
9463,0.0244,-0.0637,0.0072,-1.64,-0.35,-0.62,0.272,-3.959,-7.311,0.740
9473,0.0206,-0.0552,-0.0025,-1.75,-0.25,-0.61,0.272,-4.773,-5.535,1.024
9482,0.0230,-0.0533,-0.0021,-1.82,-0.18,-0.61,0.272,-9.064,-6.897,0.730
9493,0.0233,-0.0501,-0.0016,-1.88,-0.10,-0.61,0.272,-10.359,-7.969,0.001
9503,0.0241,-0.0444,-0.0012,-1.93,-0.04,-0.59,0.272,-7.066,-7.167,0.389
9512,0.0242,-0.0410,-0.0011,-2.00,0.01,-0.58,0.274,-7.387,-9.913,-0.213
9523,0.0241,-0.0345,-0.0009,-2.11,0.08,-0.58,0.274,-6.128,-7.853,0.483
9533,0.0340,-0.0472,-0.0022,-2.11,0.10,-0.57,0.274,-3.566,-9.694,0.027
9543,0.0329,-0.0509,-0.0016,-2.15,0.19,-0.56,0.274,-0.043,-6.415,0.104
9553,0.0302,-0.0406,-0.0010,-2.24,0.29,-0.56,0.274,1.664,-8.048,1.123
9564,0.0350,-0.0388,-0.0003,-2.28,0.34,-0.55,0.274,3.385,-6.476,1.054
9573,0.0228,-0.0181,-0.0002,-2.39,0.49,-0.55,0.274,3.636,-8.381,0.948
9582,0.0297,-0.0292,0.0009,-2.30,0.51,-0.54,0.274,5.126,-3.718,0.527
9593,0.0252,-0.0116,0.0017,-2.35,0.60,-0.53,0.274,4.587,-5.798,1.398
9603,0.0240,-0.0136,0.0023,-2.28,0.67,-0.52,0.275,6.631,-0.138,1.690
9613,0.0216,-0.0026,0.0030,-2.27,0.73,-0.50,0.275,4.437,-4.327,1.353
9623,0.0203,0.0014,0.0039,-2.21,0.78,-0.49,0.275,7.113,-4.786,1.941
9632,0.0222,0.0057,0.0060,-2.18,0.79,-0.48,0.275,11.767,-1.735,1.306
9643,0.0208,0.0095,0.0066,-2.12,0.82,-0.46,0.275,11.061,-1.041,1.588
9652,0.0220,0.0117,0.0070,-2.04,0.84,-0.44,0.273,16.751,-1.196,1.535
9662,0.0206,0.0152,0.0076,-1.95,0.86,-0.43,0.273,16.129,2.497,1.359
9673,0.0221,0.0159,0.0041,-1.83,0.86,-0.41,0.273,19.392,3.855,2.776
9683,0.0216,0.0159,0.0047,-1.67,0.86,-0.39,0.273,17.253,0.268,2.379
9692,0.0254,0.0154,0.0050,-1.51,0.83,-0.37,0.273,18.951,0.772,2.570
9703,0.0221,0.0218,0.0049,-1.35,0.82,-0.35,0.273,18.082,-0.067,2.842
9713,0.0199,0.0226,0.0050,-1.15,0.80,-0.33,0.273,14.552,1.183,3.619
9722,0.0217,0.0207,0.0051,-0.95,0.78,-0.29,0.273,15.881,1.753,2.466
9732,0.0215,0.0190,0.0021,-0.73,0.77,-0.27,0.273,14.886,0.609,2.511
9742,0.0217,0.0190,0.0024,-0.57,0.77,-0.23,0.273,16.413,2.372,3.243
9753,0.0108,0.0408,0.0025,-0.53,0.80,-0.21,0.276,15.346,1.373,3.077
9763,0.0094,0.0417,0.0027,-0.36,0.78,-0.19,0.276,12.745,-0.049,4.031
9773,0.0080,0.0424,0.0073,-0.20,0.76,-0.15,0.276,10.789,0.395,4.002
9782,0.0087,0.0408,0.0071,-0.02,0.73,-0.12,0.276,12.360,5.020,4.156
9792,0.0109,0.0375,0.0069,0.13,0.71,-0.08,0.276,10.304,2.262,3.341
9803,0.0097,0.0373,0.0068,0.25,0.71,-0.04,0.271,14.637,4.090,3.996
9813,0.0072,0.0413,0.0067,0.34,0.70,-0.00,0.271,12.276,4.025,4.400
9822,0.0079,0.0321,0.0068,0.50,0.64,0.03,0.271,13.516,3.393,4.608
9832,0.0110,0.0260,-0.0021,0.65,0.60,0.07,0.271,10.129,2.941,4.080
9843,0.0023,0.0409,-0.0020,0.69,0.60,0.12,0.271,9.834,2.135,4.942
9852,-0.0021,0.0436,-0.0023,0.79,0.60,0.16,0.276,7.768,1.569,4.405
9862,-0.0031,0.0423,-0.0024,0.90,0.58,0.20,0.276,6.389,-0.027,4.574
9873,-0.0042,0.0408,0.0038,1.00,0.57,0.25,0.276,3.275,2.438,4.324
9883,-0.0051,0.0391,0.0038,1.11,0.54,0.29,0.276,3.780,1.598,4.298
9893,-0.0020,0.0370,0.0038,1.17,0.51,0.34,0.276,3.808,1.691,4.224
9903,-0.0029,0.0350,0.0039,1.21,0.50,0.38,0.281,4.766,4.087,4.073
9912,-0.0050,0.0309,0.0043,1.28,0.49,0.42,0.281,5.114,4.694,4.076
9922,-0.0058,0.0287,0.0046,1.34,0.46,0.46,0.281,5.026,5.223,4.599
9932,-0.0077,0.0247,0.0189,1.40,0.42,0.50,0.281,4.977,6.204,4.827
9943,-0.0084,0.0223,0.0187,1.45,0.37,0.55,0.281,4.635,5.281,4.406
9953,-0.0090,0.0198,0.0189,1.50,0.31,0.60,0.278,0.894,4.273,4.637
9962,-0.0122,0.0154,0.0192,1.55,0.26,0.64,0.278,0.506,5.352,4.386
9972,-0.0126,0.0128,0.0186,1.61,0.20,0.69,0.278,2.431,6.509,4.294
9983,-0.0129,0.0100,0.0183,1.63,0.15,0.74,0.278,0.945,5.909,3.902
9993,-0.0137,0.0067,0.0180,1.63,0.10,0.79,0.278,0.819,5.070,3.357
10003,-0.0142,0.0032,0.0175,1.65,0.04,0.84,0.273,-9.072,6.511,4.699
10013,-0.0142,0.0004,0.0169,1.67,-0.02,0.88,0.273,-7.237,4.046,3.294
10022,-0.0148,-0.0023,0.0164,1.68,-0.09,0.92,0.273,-11.568,3.428,3.414
10032,-0.0194,-0.0031,0.0030,1.61,-0.12,0.96,0.273,-10.788,4.908,2.945
10043,-0.0197,-0.0045,0.0027,1.51,-0.16,1.00,0.273,-9.095,6.377,2.950
10052,-0.0221,-0.0045,0.0022,1.41,-0.18,1.04,0.277,-9.356,4.436,2.923
10062,-0.0220,-0.0049,0.0019,1.28,-0.23,1.08,0.277,-7.850,6.413,2.488
10072,-0.0198,-0.0112,0.0021,1.21,-0.30,1.11,0.277,-8.701,6.010,2.274
10082,-0.0193,-0.0132,0.0019,1.12,-0.35,1.14,0.277,-9.890,4.512,2.084
10092,-0.0232,-0.0154,0.0015,1.02,-0.37,1.17,0.277,-7.820,4.516,2.198
10102,-0.0227,-0.0153,0.0013,0.92,-0.42,1.19,0.277,-6.248,4.562,2.084
10112,-0.0225,-0.0149,0.0012,0.80,-0.48,1.22,0.272,-6.704,3.324,1.504
10122,-0.0175,-0.0343,0.0008,0.83,-0.55,1.24,0.272,-4.255,3.602,1.620
10132,-0.0129,-0.0432,-0.0098,0.81,-0.62,1.26,0.272,-6.280,4.759,1.563
10142,-0.0128,-0.0419,-0.0098,0.73,-0.66,1.28,0.272,-4.665,2.645,0.958
10152,-0.0166,-0.0409,-0.0098,0.67,-0.68,1.30,0.272,-11.142,1.295,0.466
10162,-0.0141,-0.0414,-0.0102,0.60,-0.72,1.31,0.272,-12.772,1.785,0.991
10172,-0.0128,-0.0423,-0.0157,0.55,-0.76,1.33,0.272,-12.866,4.078,2.472
10182,-0.0129,-0.0399,-0.0160,0.43,-0.77,1.33,0.272,-17.809,1.150,0.885
10192,-0.0083,-0.0565,-0.0165,0.39,-0.80,1.34,0.272,-17.081,-0.591,0.969
10202,-0.0061,-0.0546,-0.0165,0.24,-0.84,1.36,0.270,-18.434,-0.553,1.707
10212,-0.0043,-0.0581,-0.0164,0.09,-0.87,1.38,0.270,-17.730,-1.237,1.208
10222,-0.0028,-0.0582,-0.0161,-0.07,-0.86,1.38,0.270,-19.490,-2.645,1.765
10233,-0.0034,-0.0550,-0.0217,-0.26,-0.85,1.40,0.270,-17.320,-3.910,1.657
10242,-0.0061,-0.0499,-0.0214,-0.47,-0.82,1.41,0.270,-16.505,-6.445,1.314
10252,-0.0047,-0.0490,-0.0211,-0.65,-0.80,1.43,0.272,-14.947,-7.347,-0.157
10262,0.0025,-0.0687,-0.0209,-0.72,-0.80,1.45,0.272,-13.005,-8.173,-0.222
10272,0.0026,-0.0644,-0.0168,-0.90,-0.74,1.46,0.272,-12.349,-7.223,1.217
10282,0.0062,-0.0602,-0.0161,-1.07,-0.68,1.47,0.272,-8.783,-6.188,0.018
10292,0.0073,-0.0583,-0.0152,-1.21,-0.60,1.46,0.272,-9.088,-3.530,1.039
10302,0.0083,-0.0562,-0.0141,-1.34,-0.53,1.48,0.272,-7.756,-6.667,0.485
10312,0.0092,-0.0539,-0.0132,-1.43,-0.47,1.48,0.273,-7.662,-6.341,0.164
10322,0.0099,-0.0514,-0.0122,-1.52,-0.42,1.49,0.273,-8.392,-5.191,0.644
10332,0.0106,-0.0488,-0.0053,-1.60,-0.36,1.50,0.273,-8.037,-5.860,0.868
10342,0.0112,-0.0460,-0.0046,-1.68,-0.30,1.50,0.273,-8.202,-6.026,1.298
10352,0.0116,-0.0431,-0.0040,-1.76,-0.25,1.51,0.270,-6.554,-5.241,0.927
10362,0.0060,-0.0372,-0.0033,-1.85,-0.17,1.52,0.270,-4.841,-4.852,0.168
10372,0.0074,-0.0336,-0.0054,-1.93,-0.12,1.53,0.270,-5.606,-5.240,1.044
10382,0.0135,-0.0516,-0.0046,-1.88,-0.10,1.55,0.270,-4.870,-4.333,1.706
10392,0.0189,-0.0517,-0.0039,-1.92,-0.07,1.56,0.270,-1.911,-3.563,1.604
10402,0.0189,-0.0484,-0.0033,-1.98,-0.02,1.57,0.270,0.435,-5.106,0.828
10413,0.0189,-0.0450,-0.0025,-2.04,0.02,1.58,0.273,2.256,-5.843,1.209
10422,0.0194,-0.0395,-0.0014,-2.07,0.05,1.60,0.273,-0.092,-4.317,2.170
10432,0.0150,-0.0281,0.0049,-2.12,0.12,1.61,0.273,0.713,-6.179,0.764
10442,0.0199,-0.0322,0.0054,-2.06,0.15,1.63,0.273,-0.157,-4.817,0.617
10452,0.0195,-0.0286,0.0060,-2.05,0.20,1.65,0.267,0.103,-3.106,1.596
10462,0.0060,-0.0050,0.0066,-2.15,0.31,1.65,0.267,0.674,-4.462,0.027
10472,0.0064,-0.0013,-0.0037,-2.16,0.35,1.66,0.267,1.041,-5.493,1.560
10482,0.0057,0.0024,-0.0034,-2.17,0.40,1.68,0.267,2.391,-3.159,1.602
10492,0.0049,0.0061,-0.0031,-2.17,0.44,1.69,0.267,3.816,-1.194,1.504
10502,0.0052,0.0114,-0.0028,-2.18,0.48,1.70,0.271,9.496,-1.609,1.232
10512,0.0149,-0.0074,-0.0022,-2.04,0.45,1.73,0.271,12.730,-1.288,1.608
10523,0.0155,-0.0045,-0.0017,-2.00,0.47,1.74,0.271,16.151,2.660,1.407
10532,0.0089,0.0159,0.0015,-2.00,0.52,1.75,0.271,17.608,2.859,1.581
10542,0.0073,0.0183,0.0017,-1.88,0.54,1.76,0.271,20.162,1.347,0.521
10553,0.0066,0.0196,0.0018,-1.73,0.53,1.78,0.268,18.335,2.612,1.785
10562,0.0078,0.0167,0.0018,-1.51,0.48,1.79,0.268,17.545,6.076,2.607
10572,0.0001,0.0449,-0.0035,-1.46,0.51,1.79,0.268,15.310,4.590,2.691
10582,-0.0008,0.0474,-0.0038,-1.27,0.49,1.81,0.268,12.555,3.559,2.510
10593,0.0014,0.0448,-0.0043,-1.07,0.42,1.83,0.268,12.394,2.261,2.260
10602,0.0006,0.0466,-0.0043,-0.91,0.38,1.86,0.269,13.390,1.282,1.819
10613,0.0046,0.0443,-0.0042,-0.75,0.32,1.88,0.269,13.632,1.764,2.167
10622,0.0041,0.0438,-0.0046,-0.62,0.29,1.90,0.269,15.099,-0.637,2.030
10632,0.0016,0.0467,-0.0047,-0.50,0.28,1.92,0.269,16.599,1.346,1.821
10642,0.0076,0.0379,-0.0046,-0.31,0.24,1.95,0.269,16.671,1.911,2.670
10652,-0.0037,0.0520,-0.0045,-0.24,0.29,1.96,0.268,15.865,2.989,2.408
10662,-0.0045,0.0576,-0.0045,-0.10,0.28,1.98,0.268,15.870,1.723,2.006
10672,-0.0050,0.0577,-0.0067,0.08,0.27,2.00,0.268,15.222,1.541,1.787
10682,-0.0028,0.0529,-0.0066,0.27,0.25,2.03,0.268,15.092,0.844,1.466
10692,-0.0009,0.0500,-0.0068,0.44,0.23,2.05,0.268,12.573,2.077,2.211
10702,-0.0009,0.0529,-0.0069,0.57,0.22,2.07,0.264,12.098,2.548,1.429
10712,-0.0029,0.0494,-0.0068,0.74,0.21,2.08,0.264,11.537,1.976,2.048
10722,-0.0051,0.0538,-0.0165,0.84,0.20,2.10,0.264,9.106,4.044,2.216
10731,-0.0024,0.0432,-0.0165,1.01,0.16,2.12,0.264,8.848,3.496,1.869
10742,-0.0065,0.0532,-0.0167,1.06,0.16,2.14,0.264,7.459,1.530,1.837
10752,-0.0067,0.0514,-0.0168,1.15,0.12,2.16,0.263,7.392,3.215,1.732
10762,-0.0059,0.0484,-0.0167,1.26,0.09,2.18,0.263,5.778,5.368,1.573
10772,-0.0060,0.0462,-0.0227,1.33,0.07,2.20,0.263,1.034,2.953,1.852
10782,-0.0060,0.0439,-0.0227,1.41,0.04,2.22,0.263,3.543,2.303,1.769
10792,-0.0060,0.0415,-0.0226,1.47,-0.01,2.24,0.263,4.687,2.442,1.977
10801,-0.0058,0.0390,-0.0225,1.50,-0.05,2.25,0.264,2.590,-1.012,1.964
10812,-0.0056,0.0364,-0.0221,1.54,-0.08,2.27,0.264,3.112,1.960,1.700
10822,-0.0054,0.0338,-0.0215,1.59,-0.11,2.28,0.264,3.421,0.431,1.608
10832,-0.0051,0.0310,-0.0196,1.63,-0.11,2.30,0.264,2.534,2.207,1.058
10841,-0.0043,0.0284,-0.0191,1.66,-0.12,2.32,0.264,-3.336,1.672,2.805
10851,-0.0033,0.0219,-0.0187,1.72,-0.13,2.33,0.261,-0.282,-0.339,1.407
10862,-0.0030,0.0189,-0.0181,1.74,-0.15,2.35,0.261,-2.627,-0.057,1.339
10872,-0.0026,0.0160,-0.0213,1.73,-0.16,2.37,0.261,-1.456,0.905,1.419
10881,-0.0041,0.0123,-0.0210,1.73,-0.16,2.39,0.261,-6.599,0.860,1.526
10892,-0.0037,0.0094,-0.0205,1.71,-0.17,2.40,0.261,-5.590,-0.065,0.985
10901,-0.0033,0.0064,-0.0197,1.69,-0.17,2.41,0.261,-8.732,1.295,2.518
10912,-0.0029,0.0035,-0.0187,1.63,-0.19,2.43,0.262,-7.341,0.162,1.425
10922,-0.0072,0.0040,-0.0179,1.56,-0.17,2.44,0.262,-9.613,-0.428,2.115
10931,-0.0068,0.0013,-0.0150,1.48,-0.18,2.46,0.262,-7.894,0.478,0.918
10942,-0.0063,-0.0012,-0.0141,1.41,-0.19,2.47,0.262,-11.803,-2.407,2.274
10952,-0.0057,-0.0039,-0.0130,1.33,-0.19,2.49,0.260,-7.777,1.213,-0.078
10961,-0.0076,-0.0045,-0.0120,1.23,-0.18,2.50,0.260,-12.327,-0.488,1.386
10971,-0.0072,-0.0066,-0.0128,1.12,-0.16,2.52,0.260,-11.335,0.677,0.721
10981,-0.0007,-0.0304,-0.0119,1.16,-0.20,2.52,0.260,-7.639,2.545,-0.544
10992,-0.0027,-0.0290,-0.0107,1.02,-0.18,2.53,0.260,-8.597,2.022,-0.173
11001,-0.0023,-0.0307,-0.0097,0.92,-0.19,2.54,0.263,-10.548,1.392,-0.598
11012,-0.0019,-0.0323,-0.0089,0.83,-0.21,2.54,0.263,-15.649,-2.199,0.419
11022,-0.0034,-0.0328,-0.0080,0.74,-0.22,2.54,0.263,-15.223,-2.041,0.394
11032,-0.0030,-0.0342,-0.0004,0.64,-0.23,2.53,0.263,-16.478,-0.853,0.055
11041,-0.0055,-0.0305,0.0005,0.47,-0.20,2.53,0.263,-17.411,-1.394,-0.616
11051,-0.0021,-0.0480,0.0012,0.40,-0.19,2.54,0.261,-16.172,3.497,-1.913
11061,0.0031,-0.0524,0.0017,0.26,-0.21,2.54,0.261,-16.037,1.369,-1.350
11071,0.0035,-0.0528,0.0017,0.08,-0.20,2.53,0.261,-17.572,0.428,-0.965
11082,0.0018,-0.0499,0.0025,-0.09,-0.21,2.52,0.261,-15.708,0.726,-0.817
11092,-0.0023,-0.0445,0.0033,-0.28,-0.20,2.51,0.261,-14.474,-0.179,-0.875
11101,0.0060,-0.0613,0.0038,-0.36,-0.25,2.49,0.263,-12.992,0.037,-1.313
11112,0.0090,-0.0642,0.0044,-0.49,-0.27,2.48,0.263,-12.737,-1.296,-1.093
11121,0.0094,-0.0634,0.0052,-0.64,-0.28,2.47,0.263,-14.864,-2.966,-1.322
11132,0.0094,-0.0595,0.0095,-0.79,-0.27,2.46,0.263,-12.802,-2.762,-1.505
11141,0.0047,-0.0535,0.0098,-0.95,-0.24,2.45,0.263,-15.360,-3.558,-2.273
11151,0.0051,-0.0519,0.0101,-1.09,-0.21,2.43,0.260,-14.345,-3.184,-1.699
11161,0.0002,-0.0479,0.0105,-1.24,-0.16,2.42,0.260,-15.045,-2.923,-1.726
11172,0.0043,-0.0474,0.0051,-1.38,-0.14,2.40,0.260,-11.244,-3.032,-1.340
11182,0.0111,-0.0640,0.0054,-1.42,-0.15,2.38,0.260,-9.949,-1.610,-2.158
11191,0.0112,-0.0615,0.0057,-1.57,-0.12,2.37,0.260,-8.628,-1.116,-1.641
11202,0.0113,-0.0588,0.0058,-1.69,-0.08,2.35,0.259,-5.005,-0.258,-1.801
11212,0.0113,-0.0559,0.0060,-1.79,-0.07,2.33,0.259,-3.828,-0.367,-2.180
11221,0.0113,-0.0529,0.0063,-1.87,-0.05,2.31,0.259,-4.283,0.013,-2.148
11231,0.0113,-0.0497,0.0004,-1.93,-0.05,2.29,0.259,-3.341,0.075,-2.148
11242,0.0112,-0.0464,0.0005,-1.97,-0.04,2.27,0.259,-2.540,-2.712,-2.258
11251,0.0107,-0.0427,0.0005,-2.01,-0.04,2.26,0.263,-4.059,-0.036,-2.191
11261,0.0106,-0.0392,0.0006,-2.04,-0.04,2.23,0.263,-5.362,-3.888,-2.053
11272,0.0071,-0.0333,0.0060,-2.08,0.00,2.21,0.263,-3.925,-2.758,-2.812
11282,0.0089,-0.0278,0.0059,-2.13,-0.00,2.19,0.263,-2.142,-3.361,-2.395
11291,0.0088,-0.0241,0.0063,-2.18,0.04,2.17,0.263,-2.803,-3.752,-2.124
11302,0.0086,-0.0204,0.0069,-2.22,0.07,2.14,0.264,-0.697,-3.648,-2.188
11311,0.0124,-0.0271,0.0074,-2.19,0.08,2.12,0.264,3.060,-2.880,-3.250
11321,0.0159,-0.0238,0.0078,-2.22,0.10,2.10,0.264,2.500,-2.651,-2.508
11332,0.0156,-0.0199,0.0130,-2.22,0.13,2.08,0.264,4.339,-2.314,-3.188
11341,0.0153,-0.0161,0.0134,-2.20,0.16,2.05,0.264,6.040,-1.418,-2.916
11352,0.0149,-0.0123,0.0134,-2.18,0.19,2.03,0.264,7.502,-0.929,-2.530
11361,0.0159,-0.0090,0.0137,-2.13,0.20,2.00,0.264,8.449,-3.541,-2.851
11371,0.0169,-0.0063,0.0153,-2.06,0.21,1.97,0.264,8.074,-0.914,-2.506
11381,0.0203,-0.0041,0.0155,-1.98,0.21,1.94,0.264,8.650,-3.898,-2.422
11391,0.0184,0.0001,0.0153,-1.90,0.25,1.91,0.264,8.664,-1.757,-3.019
11401,0.0178,0.0033,0.0152,-1.82,0.26,1.89,0.261,10.779,-2.515,-3.013
11411,0.0182,0.0047,0.0152,-1.72,0.29,1.86,0.261,10.612,-3.817,-2.441
11421,0.0166,0.0080,0.0152,-1.63,0.31,1.83,0.261,9.481,-2.752,-2.759
11431,0.0194,0.0083,0.0078,-1.51,0.32,1.81,0.261,9.084,-2.439,-3.055
11441,0.0076,0.0349,0.0076,-1.53,0.41,1.78,0.261,9.075,-3.340,-2.723
11451,0.0068,0.0375,0.0074,-1.43,0.44,1.75,0.263,7.945,-4.383,-2.129
11461,0.0097,0.0391,0.0070,-1.33,0.45,1.72,0.263,9.642,-2.396,-2.802
11471,0.0121,0.0383,0.0058,-1.23,0.47,1.70,0.263,11.529,-3.310,-3.431
11481,0.0122,0.0375,0.0057,-1.13,0.50,1.67,0.263,13.331,-2.870,-2.925
11491,0.0113,0.0394,0.0057,-1.04,0.53,1.65,0.263,14.995,-0.713,-2.459
11501,0.0022,0.0676,0.0057,-1.06,0.60,1.62,0.262,18.659,-0.668,-2.225
11511,0.0008,0.0664,0.0063,-0.91,0.63,1.58,0.262,19.346,3.676,-1.694
11521,0.0018,0.0628,0.0069,-0.73,0.62,1.56,0.262,21.137,2.720,-1.970
11531,0.0027,0.0584,0.0038,-0.52,0.61,1.54,0.262,21.477,1.164,-1.825
11542,0.0043,0.0558,0.0041,-0.31,0.57,1.52,0.262,22.830,1.931,-2.104
11551,-0.0008,0.0667,0.0044,-0.15,0.56,1.50,0.260,20.668,3.607,-1.911
11561,-0.0038,0.0708,0.0046,0.04,0.56,1.48,0.260,19.392,7.749,-2.055
11571,-0.0042,0.0661,-0.0018,0.29,0.54,1.46,0.260,16.771,4.947,-1.020
11581,-0.0051,0.0656,-0.0018,0.50,0.50,1.44,0.260,14.194,3.976,-1.014
11591,-0.0047,0.0670,-0.0018,0.68,0.43,1.42,0.260,15.050,2.350,-1.391
11601,-0.0021,0.0646,-0.0016,0.85,0.36,1.42,0.260,13.040,5.227,-1.002
11611,-0.0021,0.0621,-0.0013,1.01,0.30,1.40,0.260,11.265,2.614,-1.549
11621,-0.0058,0.0632,-0.0013,1.15,0.28,1.38,0.260,9.761,5.573,-1.851
11631,-0.0062,0.0612,-0.0053,1.29,0.22,1.37,0.260,8.684,1.868,-1.909
11641,-0.0065,0.0590,-0.0054,1.41,0.19,1.36,0.260,7.464,0.199,-0.687
11651,-0.0068,0.0566,-0.0050,1.51,0.14,1.34,0.258,5.533,0.593,-1.120
11661,-0.0067,0.0524,-0.0047,1.60,0.11,1.32,0.258,5.271,-0.477,-0.564
11671,-0.0069,0.0497,-0.0106,1.68,0.11,1.31,0.258,4.560,3.892,-1.712
11681,-0.0070,0.0468,-0.0103,1.75,0.10,1.30,0.258,2.629,0.661,-1.399
11691,-0.0027,0.0434,-0.0102,1.80,0.07,1.29,0.258,2.372,1.896,-0.464
11701,-0.0044,0.0379,-0.0100,1.85,0.06,1.28,0.258,0.844,3.100,-0.616
11711,-0.0045,0.0347,-0.0097,1.88,0.05,1.26,0.259,0.705,2.842,-1.193
11722,-0.0045,0.0315,-0.0090,1.91,0.02,1.26,0.259,-0.948,3.079,-0.623
11731,-0.0064,0.0269,-0.0086,1.92,0.01,1.25,0.259,-1.416,-0.153,-0.523
11741,-0.0063,0.0236,-0.0082,1.93,-0.01,1.24,0.259,-4.317,-0.220,0.437
11751,-0.0074,0.0194,-0.0078,1.93,-0.03,1.23,0.260,-4.461,1.871,0.533
11761,-0.0073,0.0161,-0.0074,1.92,-0.05,1.23,0.260,-3.277,3.225,-0.407
11771,-0.0071,0.0127,-0.0037,1.88,-0.06,1.23,0.260,-5.059,2.294,-0.332
11781,-0.0112,0.0099,-0.0032,1.83,-0.04,1.24,0.260,-7.708,-0.002,0.197
11791,-0.0111,0.0067,-0.0025,1.79,-0.06,1.24,0.260,-10.026,0.859,0.724
11802,-0.0109,0.0036,-0.0017,1.73,-0.08,1.24,0.256,-10.286,1.267,0.370
11811,-0.0097,-0.0004,-0.0009,1.65,-0.09,1.24,0.256,-11.380,1.670,0.654
11822,-0.0110,-0.0014,-0.0004,1.56,-0.10,1.24,0.256,-10.613,3.124,0.324
11831,-0.0146,-0.0022,-0.0072,1.45,-0.10,1.25,0.256,-11.513,2.988,0.537
11841,-0.0155,-0.0025,-0.0069,1.33,-0.12,1.26,0.256,-10.658,3.028,0.899
11852,-0.0152,-0.0048,-0.0064,1.22,-0.15,1.26,0.258,-10.122,2.692,0.686
11861,-0.0111,-0.0247,-0.0060,1.20,-0.19,1.26,0.258,-10.138,2.442,0.521
11871,-0.0107,-0.0268,-0.0045,1.09,-0.22,1.27,0.258,-10.094,4.058,0.658
11882,-0.0116,-0.0256,-0.0043,0.97,-0.24,1.28,0.258,-9.004,3.682,0.593
11891,-0.0102,-0.0267,-0.0039,0.87,-0.27,1.29,0.258,-9.708,3.342,1.363
11901,-0.0173,-0.0253,-0.0034,0.76,-0.27,1.30,0.258,-11.471,3.054,1.387
11911,-0.0154,-0.0260,-0.0027,0.66,-0.31,1.31,0.259,-12.272,3.223,1.147
11922,-0.0178,-0.0244,-0.0021,0.55,-0.33,1.32,0.259,-14.955,2.039,1.735
11931,-0.0159,-0.0286,0.0017,0.45,-0.37,1.33,0.259,-14.797,1.373,1.693
11941,-0.0182,-0.0283,0.0025,0.32,-0.38,1.35,0.259,-14.066,1.610,1.284
11951,-0.0175,-0.0289,0.0030,0.17,-0.40,1.37,0.260,-13.423,0.507,1.611
11961,-0.0159,-0.0275,0.0033,0.02,-0.42,1.38,0.260,-12.275,1.603,1.790
11971,-0.0119,-0.0423,0.0074,-0.04,-0.45,1.40,0.260,-11.804,0.053,1.821
11982,-0.0104,-0.0464,0.0080,-0.16,-0.47,1.41,0.260,-10.756,-0.129,1.703
11991,-0.0096,-0.0461,0.0087,-0.28,-0.48,1.43,0.260,-8.866,0.458,1.028
12002,-0.0105,-0.0440,0.0094,-0.40,-0.47,1.45,0.259,-8.818,1.814,1.220
12011,-0.0092,-0.0421,0.0101,-0.51,-0.48,1.47,0.259,-11.023,0.468,1.661
12022,-0.0058,-0.0422,0.0103,-0.59,-0.51,1.48,0.259,-11.074,0.781,1.327
12032,-0.0104,-0.0344,0.0095,-0.71,-0.50,1.49,0.259,-12.000,-0.093,1.343
12041,-0.0011,-0.0473,0.0096,-0.74,-0.55,1.50,0.259,-12.192,0.746,1.656
12051,0.0021,-0.0501,0.0098,-0.83,-0.57,1.51,0.260,-14.949,-3.227,2.233
12061,0.0010,-0.0470,0.0097,-0.95,-0.56,1.53,0.260,-11.176,-2.708,1.311
12072,0.0019,-0.0453,0.0105,-1.07,-0.57,1.54,0.260,-8.963,-3.646,0.834
12081,0.0028,-0.0434,0.0106,-1.22,-0.54,1.56,0.260,-7.988,-3.119,1.425
12090,0.0053,-0.0417,0.0105,-1.34,-0.52,1.58,0.260,-6.602,-2.273,0.329
12101,0.0055,-0.0404,0.0107,-1.43,-0.48,1.59,0.260,-7.107,-3.536,1.056
12112,0.0055,-0.0371,0.0111,-1.52,-0.45,1.60,0.260,-6.329,-5.497,1.036
12121,0.0038,-0.0359,0.0104,-1.58,-0.41,1.61,0.260,-5.949,-6.442,0.567
12131,0.0038,-0.0348,0.0104,-1.63,-0.37,1.62,0.260,-5.129,-8.139,-0.372
12141,0.0051,-0.0278,0.0104,-1.72,-0.32,1.63,0.260,-4.531,-7.913,-0.893
12152,0.0079,-0.0284,0.0106,-1.76,-0.25,1.63,0.261,-3.784,-5.520,-0.565
12162,0.0048,-0.0163,0.0106,-1.86,-0.16,1.63,0.261,-2.416,-3.620,-0.213
12171,0.0056,-0.0194,0.0111,-1.87,-0.09,1.63,0.261,2.572,-2.605,-1.420
12181,0.0045,-0.0078,0.0107,-1.94,-0.03,1.62,0.261,3.986,-0.534,-1.097
12191,0.0130,-0.0180,0.0107,-1.89,-0.04,1.62,0.261,5.116,0.682,-1.066
12201,0.0087,-0.0093,0.0107,-1.90,0.01,1.61,0.261,7.739,1.288,-1.916
12211,0.0062,0.0023,0.0106,-1.91,0.03,1.60,0.262,7.661,-0.592,-1.726
12221,0.0061,0.0056,0.0106,-1.85,0.02,1.58,0.262,8.228,-1.391,-1.776
12231,0.0136,-0.0068,0.0120,-1.69,-0.03,1.57,0.262,9.751,-3.736,-2.413
12241,0.0072,0.0093,0.0115,-1.68,0.01,1.54,0.262,9.215,-1.265,-2.358
