time_ms,pos_x,pos_y,pos_z,vel_x,vel_y,vel_z,roll,pitch,yaw,thrust,vbat,gyro_x,gyro_y,gyro_z,acc_x,acc_y,acc_z,rate_roll,rate_pitch,rate_yaw
0,-2.0629,-2.4000,0.0084,0.0021,0.0096,-0.0021,0.09,0.70,-1.24,0,3.896,0.354,-0.181,0.071,0.013,-0.006,1.000,0.000,0.000,0.000
0,-2.0641,-2.4012,0.0091,-0.0050,-0.0017,0.0018,-0.02,0.70,-1.21,0,3.901,0.473,0.272,0.464,0.014,-0.009,1.001,0.000,0.000,0.000
0,-2.0639,-2.4012,0.0074,-0.0012,-0.0035,-0.0076,0.02,0.67,-1.22,0,3.896,0.706,0.030,-0.330,0.012,-0.008,0.997,0.000,0.000,0.000
0,-2.0638,-2.3928,0.0085,-0.0059,0.0344,-0.0004,-0.38,0.70,-1.16,0,3.896,0.556,0.398,-0.320,0.012,-0.008,0.999,0.000,0.000,0.000
0,-2.0640,-2.3936,0.0098,-0.0032,0.0203,0.0059,-0.22,0.67,-1.17,0,3.890,0.253,0.161,0.168,0.014,-0.008,1.000,0.000,0.000,0.000
0,-2.0640,-2.3951,0.0106,-0.0007,0.0057,0.0082,0.17,0.68,-1.18,0,3.901,0.471,0.191,0.220,0.015,-0.008,0.999,0.000,0.000,0.000
0,-2.0648,-2.3981,0.0117,-0.0037,-0.0128,0.0108,0.14,0.68,-1.16,0,3.896,0.473,0.310,0.054,0.015,-0.009,1.000,0.000,0.000,0.000
0,-2.0651,-2.3997,0.0113,-0.0039,-0.0221,0.0061,0.12,0.67,-1.15,0,3.896,0.442,0.057,0.072,0.013,-0.010,1.001,0.000,0.000,0.000
0,-2.0653,-2.4074,0.0098,-0.0052,-0.0625,-0.0028,0.42,0.66,-1.14,0,3.890,0.652,0.400,0.031,0.015,-0.010,1.002,0.000,0.000,0.000
0,-2.0655,-2.4066,0.0102,-0.0062,-0.0518,-0.0006,0.49,0.65,-1.14,0,3.901,0.448,0.056,-0.094,0.014,-0.011,1.000,0.000,0.000,0.000
0,-2.0657,-2.4176,0.0086,-0.0259,-0.1114,-0.0092,0.65,0.83,-0.94,0,3.890,0.431,-0.153,-0.054,0.013,-0.010,0.999,0.000,0.000,0.000
0,-2.0666,-2.4136,0.0100,-0.0209,-0.0695,0.0007,0.23,0.73,-1.02,0,3.901,0.202,-0.183,-0.029,0.012,-0.010,0.998,0.000,0.000,0.000
0,-2.0677,-2.4161,0.0096,-0.0177,-0.0704,-0.0018,0.14,0.71,-1.02,0,3.890,0.281,-0.026,0.110,0.013,-0.010,0.998,0.000,0.000,0.000
0,-2.0685,-2.4179,0.0103,-0.0109,-0.0668,0.0015,0.36,0.68,-1.05,0,3.896,0.577,0.327,-0.288,0.014,-0.007,1.000,0.000,0.000,0.000
0,-2.0692,-2.4233,0.0098,-0.0098,-0.0813,-0.0016,0.25,0.64,-1.07,0,3.890,0.587,-0.234,-0.022,0.015,-0.008,1.001,0.000,0.000,0.000
0,-2.0695,-2.4217,0.0106,-0.0087,-0.0591,0.0037,0.11,0.62,-1.07,0,3.901,0.248,0.320,0.040,0.016,-0.008,1.000,0.000,0.000,0.000
0,-2.0692,-2.4348,0.0089,-0.0088,-0.1233,-0.0075,0.73,0.70,-0.96,0,3.890,0.385,0.129,0.217,0.015,-0.008,0.998,0.000,0.000,0.000
0,-2.0695,-2.4408,0.0084,-0.0184,-0.1344,-0.0075,0.51,0.67,-0.98,0,3.901,0.663,0.267,0.230,0.016,-0.010,0.999,0.000,0.000,0.000
0,-2.0716,-2.4407,0.0098,-0.0042,-0.0972,0.0032,0.29,0.64,-1.02,0,3.896,0.507,0.076,-0.001,0.013,-0.007,1.002,0.000,0.000,0.000
0,-2.0722,-2.4415,0.0099,-0.0054,-0.0824,0.0034,0.07,0.62,-1.06,0,3.896,0.551,0.238,0.158,0.014,-0.010,0.996,0.000,0.000,0.000
0,-2.0734,-2.4388,0.0109,0.0037,-0.0443,0.0085,-0.44,0.57,-1.17,0,3.890,0.381,0.072,0.134,0.012,-0.008,1.001,0.000,0.000,0.000
0,-2.0749,-2.4335,0.0112,0.0034,-0.0074,0.0080,-0.46,0.59,-1.17,0,3.901,0.423,0.301,-0.120,0.014,-0.010,0.999,0.000,0.000,0.000
0,-2.0760,-2.4325,0.0114,0.0019,0.0020,0.0067,-0.28,0.54,-1.12,0,3.890,0.520,0.187,-0.058,0.015,-0.011,0.998,0.000,0.000,0.000
0,-2.0728,-2.4364,0.0103,0.0098,-0.0199,-0.0016,-0.32,0.55,-1.14,0,3.896,0.239,-0.040,0.145,0.013,-0.008,1.001,0.000,0.000,0.000
0,-2.0730,-2.4386,0.0092,0.0087,-0.0278,-0.0072,-0.31,0.57,-1.16,0,3.890,0.372,0.301,0.146,0.014,-0.009,0.998,0.000,0.000,0.000
0,-2.0730,-2.4375,0.0098,0.0124,-0.0149,-0.0020,-0.36,0.55,-1.18,0,3.896,0.335,0.106,-0.017,0.012,-0.011,1.000,0.000,0.000,0.000
0,-2.0747,-2.4387,0.0099,0.0086,-0.0159,-0.0018,-0.38,0.58,-1.23,0,3.890,0.381,0.108,0.109,0.014,-0.010,1.000,0.000,0.000,0.000
0,-2.0764,-2.4387,0.0095,0.0066,-0.0107,-0.0035,-0.38,0.57,-1.23,0,3.901,0.519,0.107,0.121,0.013,-0.008,0.999,0.000,0.000,0.000
0,-2.0767,-2.4368,0.0100,0.0103,0.0041,-0.0003,-0.33,0.54,-1.21,0,3.890,0.643,0.010,0.095,0.012,-0.010,1.002,0.000,0.000,0.000
0,-2.0759,-2.4406,0.0092,0.0082,-0.0185,-0.0049,-0.33,0.53,-1.21,0,3.901,0.412,0.366,-0.312,0.011,-0.010,0.999,0.000,0.000,0.000
0,-2.0777,-2.4400,0.0085,0.0065,-0.0091,-0.0069,-0.28,0.56,-1.23,0,3.896,0.332,0.265,-0.074,0.015,-0.008,1.001,0.000,0.000,0.000
50,-2.0780,-2.4374,0.0089,0.0103,0.0091,-0.0037,-0.58,0.55,-1.34,0,3.896,0.442,-0.076,-0.226,0.011,-0.008,1.001,0.000,0.000,0.000
101,-2.0735,-2.4350,0.0093,0.0230,0.0121,-0.0005,-0.51,0.58,-1.37,0,3.890,0.532,0.015,0.012,0.013,-0.009,0.999,0.000,0.000,0.000
152,-2.0791,-2.4312,0.0087,0.0141,0.0405,-0.0039,-0.93,0.54,-1.47,0,3.896,0.452,0.048,-0.116,0.012,-0.009,0.998,0.000,0.000,0.000
203,-2.0811,-2.4186,0.0081,0.0194,0.1023,-0.0071,-0.97,0.56,-1.54,0,3.890,0.620,0.085,0.207,0.014,-0.008,0.997,0.000,0.000,0.000
254,-2.0813,-2.4165,0.0090,0.0169,0.0928,-0.0011,-0.85,0.50,-1.42,0,3.901,0.410,-0.004,0.247,0.012,-0.010,1.000,0.000,0.000,0.000
305,-2.0788,-2.4095,0.0092,0.0239,0.1085,-0.0008,-1.01,0.53,-1.55,0,3.890,0.553,0.251,0.010,0.010,-0.008,0.996,0.000,0.000,0.000
356,-2.0816,-2.4072,0.0099,0.0175,0.1017,0.0024,-0.85,0.57,-1.58,0,3.896,0.334,0.122,-0.189,0.012,-0.008,0.999,0.000,0.000,0.000
407,-2.0819,-2.4072,0.0099,0.0135,0.0792,0.0021,-0.65,0.50,-1.45,0,3.890,0.681,0.130,-0.252,0.013,-0.009,1.000,0.000,0.000,0.000
458,-2.0824,-2.4057,0.0102,0.0111,0.0694,0.0031,-0.48,0.57,-1.53,0,3.901,0.244,0.104,0.042,0.012,-0.010,0.999,0.000,0.000,0.000
510,-2.0807,-2.4054,0.0104,0.0124,0.0518,0.0032,-0.53,0.55,-1.54,0,3.890,0.334,0.070,-0.121,0.014,-0.008,0.999,0.000,0.000,0.000
560,-2.0804,-2.4020,0.0104,0.0128,0.0529,0.0017,-0.41,0.55,-1.52,0,3.901,0.296,0.176,-0.076,0.013,-0.008,0.999,0.000,0.000,0.000
611,-2.0799,-2.4046,0.0100,0.0107,0.0232,-0.0005,-0.11,0.58,-1.49,0,3.890,0.509,0.237,-0.237,0.014,-0.006,1.000,0.000,0.000,0.000
662,-2.0808,-2.3981,0.0086,0.0118,0.0526,-0.0084,-0.42,0.56,-1.54,0,3.896,0.646,0.143,-0.058,0.011,-0.007,1.001,0.000,0.000,0.000
713,-2.0804,-2.3929,0.0080,0.0146,0.0651,-0.0099,-0.57,0.55,-1.56,0,3.890,0.395,0.318,-0.066,0.015,-0.007,1.000,0.000,0.000,0.000
764,-2.0804,-2.3879,0.0067,0.0142,0.0729,-0.0139,-0.37,0.56,-1.53,0,3.901,0.403,0.538,0.130,0.014,-0.008,0.999,0.000,0.000,0.000
815,-2.0796,-2.3894,0.0081,0.0123,0.0462,-0.0034,-0.22,0.57,-1.50,0,3.890,0.619,0.379,-0.169,0.014,-0.008,0.999,0.000,0.000,0.000
866,-2.0793,-2.3811,0.0081,0.0187,0.0793,-0.0038,-0.46,0.53,-1.54,0,3.901,0.497,0.298,0.139,0.014,-0.008,1.001,0.000,0.000,0.000
917,-2.0788,-2.3823,0.0080,0.0120,0.0495,-0.0032,-0.33,0.55,-1.51,0,3.890,0.448,0.520,0.022,0.012,-0.010,1.000,0.000,0.000,0.000
968,-2.0771,-2.3833,0.0089,0.0157,0.0256,0.0024,0.14,0.55,-1.44,0,3.896,0.568,0.304,0.127,0.011,-0.009,0.998,0.000,0.000,0.000
1019,-2.0759,-2.3905,0.0089,0.0062,-0.0270,0.0020,0.47,0.66,-1.31,0,3.890,0.467,0.038,0.029,0.014,-0.010,0.999,0.000,0.000,0.000
1070,-2.0772,-2.3937,0.0092,0.0371,-0.0211,0.0019,0.25,0.36,-1.63,0,3.896,0.206,0.086,-0.173,0.013,-0.007,1.000,0.000,0.000,0.000
1121,-2.0760,-2.3875,0.0098,0.0325,0.0084,0.0039,-0.10,0.45,-1.58,0,3.890,0.495,0.097,0.054,0.013,-0.009,0.999,0.000,0.000,0.000
1172,-2.0758,-2.3821,0.0100,0.0408,0.0357,0.0028,-0.17,0.41,-1.64,0,3.896,0.251,0.081,0.078,0.012,-0.012,0.999,0.000,0.000,0.000
1223,-2.0742,-2.3800,0.0098,0.0429,0.0375,0.0002,-0.18,0.48,-1.57,0,3.890,0.642,0.027,-0.051,0.013,-0.007,1.000,0.000,0.000,0.000
1274,-2.0714,-2.3790,0.0101,0.0320,0.0211,0.0014,-0.13,0.51,-1.51,0,3.896,0.528,0.216,-0.372,0.013,-0.009,0.998,0.000,0.000,0.000
1325,-2.0679,-2.3827,0.0106,0.0332,-0.0115,0.0037,0.26,0.48,-1.39,0,3.890,0.672,0.244,0.093,0.013,-0.010,1.000,0.000,0.000,0.000
1377,-2.0660,-2.3841,0.0101,0.0309,-0.0218,0.0004,0.37,0.48,-1.34,0,3.896,0.458,0.332,-0.146,0.014,-0.009,1.000,0.000,0.000,0.000
1427,-2.0629,-2.3884,0.0105,0.0258,-0.0496,0.0021,0.29,0.54,-1.28,0,3.890,0.576,0.529,-0.115,0.013,-0.009,1.000,0.000,0.000,0.000
1478,-2.0625,-2.3878,0.0101,0.0281,-0.0382,-0.0007,0.27,0.54,-1.26,0,3.896,0.422,-0.064,-0.306,0.013,-0.005,1.001,0.000,0.000,0.000
1529,-2.0610,-2.3880,0.0105,0.0250,-0.0374,0.0017,0.20,0.56,-1.23,0,3.890,0.999,0.129,-0.409,0.012,-0.007,0.999,0.000,0.000,0.000
1580,-2.0597,-2.3877,0.0113,0.0199,-0.0347,0.0053,0.15,0.60,-1.18,0,3.579,0.275,-0.010,-0.074,0.009,-0.013,0.996,0.000,0.000,0.000
1631,-2.0596,-2.3820,0.0121,0.0163,0.0036,0.0089,0.06,0.57,-1.25,0,3.637,-2.619,-4.192,4.782,0.036,-0.018,0.999,0.000,0.000,0.000
1682,-2.0586,-2.3853,0.0111,0.0058,-0.0146,0.0018,0.06,0.64,-1.17,0,3.669,-0.182,-0.724,-7.931,-0.000,0.010,0.990,0.000,0.000,0.000
1733,-2.0584,-2.3903,0.0102,0.0037,-0.0343,-0.0039,0.43,0.63,-1.23,0,3.674,-7.226,-5.984,-15.852,0.012,-0.025,1.027,0.000,0.000,0.000
1784,-2.0577,-2.3844,0.0091,-0.0630,-0.0284,-0.0099,-0.01,1.12,-1.60,0,3.690,5.698,4.539,-11.768,0.005,-0.019,0.950,0.000,0.000,0.000
1835,-2.0558,-2.3682,0.0095,-0.0707,0.0450,-0.0049,-0.42,1.07,-2.17,0,3.690,-1.574,-1.972,-6.736,0.005,-0.034,1.027,0.000,0.000,0.000
1886,-2.0572,-2.3654,0.0089,-0.0634,0.0532,-0.0103,-0.28,0.91,-2.63,0,3.690,-1.009,-2.288,-5.953,0.026,-0.020,1.003,0.000,0.000,0.000
1937,-2.0586,-2.3661,0.0080,-0.0524,0.0466,-0.0102,-0.21,0.82,-2.88,0,3.684,-2.766,0.962,-7.404,0.016,-0.017,1.015,0.000,0.000,0.000
1988,-2.0578,-2.3610,0.0094,-0.0494,0.0599,-0.0007,-0.33,0.72,-3.08,0,3.690,0.986,0.213,-2.765,0.001,-0.017,1.024,0.000,0.000,0.000
2039,-2.0543,-2.3510,0.0104,-0.0428,0.0870,-0.0000,-0.47,0.58,-3.18,0,3.679,-4.949,-8.105,-5.249,0.022,-0.022,0.967,0.000,0.000,0.000
2090,-2.0510,-2.3450,0.0104,-0.0292,0.0931,0.0039,-0.26,0.27,-3.27,0,3.684,-3.696,-6.295,-3.325,-0.002,-0.012,0.972,0.000,0.000,0.000
2141,-2.0490,-2.3414,0.0105,-0.0191,0.0860,0.0025,-0.09,0.07,-3.47,0,3.679,2.701,-0.016,-4.957,0.005,-0.017,1.009,0.000,0.000,0.000
2193,-2.0471,-2.3392,0.0102,-0.0128,0.0723,0.0032,0.15,-0.03,-3.54,0,3.674,4.670,6.591,-5.510,-0.000,-0.010,0.952,0.000,0.000,0.000
2243,-2.0475,-2.3360,0.0115,-0.0133,0.0711,0.0098,0.07,0.06,-3.78,0,3.674,-6.550,-10.890,1.497,0.003,-0.009,1.005,0.000,0.000,0.000
2294,-2.0495,-2.3323,0.0102,-0.0065,0.0818,-0.0068,-0.18,0.25,-4.01,0,3.674,-0.563,6.609,0.258,0.007,-0.010,0.975,0.000,0.000,0.000
2345,-2.0494,-2.3282,0.0096,-0.0089,0.0744,-0.0023,0.00,0.23,-3.84,0,3.663,-3.579,-21.092,2.796,0.018,0.006,0.976,0.000,0.000,0.000
2396,-2.0474,-2.3255,0.0093,-0.0027,0.0713,-0.0002,0.21,0.15,-3.63,0,3.669,2.321,17.971,7.743,0.002,-0.007,0.985,0.000,0.000,0.000
2447,-2.0398,-2.3252,0.0094,-0.0052,0.0319,-0.0057,0.48,0.18,-2.97,0,3.658,-11.704,-0.233,16.921,0.010,-0.019,1.014,0.000,0.000,0.000
2498,-2.0313,-2.3281,0.0091,0.0085,-0.0102,0.0054,1.04,-0.39,-1.98,0,3.658,-4.993,5.056,17.439,-0.010,-0.026,1.004,0.000,0.000,0.000
2549,-2.0216,-2.3308,0.0094,0.0057,-0.0550,0.0069,1.09,-0.24,-0.46,0,3.648,-2.838,-9.903,8.512,0.002,-0.018,0.994,0.000,0.000,0.000
2600,-2.0197,-2.3294,0.0123,-0.0180,-0.0618,0.0183,0.95,0.16,0.19,0,3.658,-15.408,4.300,7.909,-0.007,-0.010,1.018,0.000,0.000,0.000
2651,-2.0306,-2.3344,0.0140,-0.0034,-0.0405,0.0271,-0.32,0.44,0.18,0,3.648,14.090,16.674,-3.530,0.003,-0.019,1.025,0.000,0.000,0.000
2702,-2.0287,-2.3266,0.0100,-0.0668,-0.0269,0.0047,-0.25,0.24,0.87,0,3.648,-13.475,15.137,-10.155,0.002,-0.021,1.048,0.000,0.000,0.000
2753,-2.0335,-2.3236,0.0052,-0.1109,-0.0248,-0.0180,-0.04,-0.93,0.65,0,3.637,4.512,5.167,1.272,-0.004,-0.016,1.039,0.000,0.000,0.000
2804,-2.0381,-2.3252,0.0026,-0.1079,-0.0307,-0.0097,-0.35,-1.38,0.49,0,3.632,-3.936,5.406,3.581,-0.005,-0.020,1.037,0.000,0.000,0.000
2855,-2.0401,-2.3271,0.0019,-0.0634,-0.0237,0.0123,-0.27,-2.05,0.54,0,3.626,2.232,-18.599,5.746,-0.006,-0.022,1.026,0.000,0.000,0.000
2906,-2.0393,-2.3281,0.0020,-0.0167,-0.0145,0.0307,-0.38,-1.73,0.67,0,3.632,12.765,-5.917,1.693,0.002,-0.015,1.046,0.000,0.000,0.000
2957,-2.0488,-2.3321,0.0023,0.0249,0.0096,0.0404,-0.07,-1.80,0.36,0,3.621,-3.926,-18.795,11.912,-0.007,-0.014,1.046,0.000,0.000,0.000
3008,-2.0866,-2.3433,0.0063,0.0331,0.0538,0.0678,-0.27,-0.99,-0.93,0,3.626,14.778,-6.770,12.190,0.001,-0.010,1.029,0.000,0.000,0.000
3059,-2.0747,-2.3378,0.0133,0.0454,0.0457,0.0997,0.01,-0.57,0.31,0,3.626,7.854,-23.830,9.675,0.002,-0.014,1.006,0.000,0.000,0.000
3110,-2.0715,-2.3355,0.0242,0.0700,0.0545,0.1369,0.39,0.28,0.54,0,3.626,3.050,-16.346,13.291,0.002,-0.008,0.987,0.000,0.000,0.000
3161,-2.0646,-2.3327,0.0331,0.0729,0.0467,0.1553,0.56,1.20,1.16,0,3.626,1.353,1.967,12.937,0.003,-0.009,0.968,0.000,0.000,0.000
3212,-2.0729,-2.3284,0.0451,0.0340,0.0698,0.1688,0.46,1.68,1.48,0,3.632,17.741,15.949,8.806,-0.006,-0.013,0.959,0.000,0.000,0.000
3263,-2.0719,-2.3242,0.0568,0.0193,0.0695,0.1696,0.96,1.04,1.94,0,3.626,4.473,-18.628,4.163,0.004,-0.016,0.974,0.000,0.000,0.000
3314,-2.0725,-2.3234,0.0660,0.0158,0.0552,0.1553,1.65,1.16,2.11,0,3.626,-11.371,-6.401,-1.204,0.012,-0.009,0.969,0.000,0.000,0.000
3365,-2.0678,-2.3169,0.0738,0.0105,0.0544,0.1369,1.01,2.02,2.26,0,3.621,4.507,38.856,-4.363,-0.001,-0.002,0.955,0.000,0.000,0.000
3416,-2.0710,-2.3178,0.0807,-0.0018,0.0393,0.1175,1.00,1.05,2.76,0,3.611,-2.106,1.711,-9.108,0.006,-0.010,0.980,0.000,0.000,0.000
3467,-2.0639,-2.3076,0.0852,-0.0370,0.0349,0.0982,1.05,-0.15,1.95,0,3.605,-8.454,-18.904,-4.032,-0.002,-0.011,0.993,0.000,0.000,0.000
3519,-2.0688,-2.3093,0.0878,-0.0298,0.0226,0.0786,0.82,0.66,1.47,0,3.611,2.013,29.083,-4.115,-0.000,-0.010,0.996,0.000,0.000,0.000
3569,-2.0724,-2.3107,0.0904,-0.0282,0.0133,0.0675,0.74,-0.06,1.11,0,3.595,0.497,12.606,-3.341,0.002,-0.007,1.014,0.000,0.000,0.000
3620,-2.0791,-2.3157,0.0925,-0.0419,-0.0135,0.0639,0.97,-1.03,1.00,0,3.600,-16.405,-12.447,-3.615,0.009,-0.008,1.026,0.000,0.000,0.000
3671,-2.0815,-2.3171,0.0958,-0.0281,-0.0199,0.0722,0.32,-0.80,0.75,0,3.595,-8.164,3.174,-0.021,-0.003,-0.002,1.032,0.000,0.000,0.000
3722,-2.0828,-2.3172,0.1004,-0.0137,-0.0142,0.0944,-0.08,-0.78,0.71,0,3.595,7.175,-10.141,-1.516,0.009,-0.009,1.044,0.000,0.000,0.000
3773,-2.0826,-2.3219,0.1054,-0.0079,-0.0323,0.1132,0.03,-0.63,0.58,0,3.589,-6.961,11.094,-2.226,0.000,-0.011,1.048,0.000,0.000,0.000
3824,-2.0830,-2.3229,0.1084,0.0009,-0.0279,0.1193,-0.01,-0.75,0.53,0,3.595,-9.087,-3.413,0.512,0.008,-0.006,1.043,0.000,0.000,0.000
3875,-2.0858,-2.3238,0.1139,0.0005,-0.0210,0.1355,-0.57,-1.05,0.41,0,3.584,6.382,-11.205,0.057,-0.004,-0.012,1.056,0.000,0.000,0.000
3926,-2.0781,-2.3236,0.1215,0.0287,-0.0194,0.1598,-0.44,-0.50,0.42,0,3.595,3.871,-3.799,-0.709,0.001,-0.014,1.024,0.000,0.000,0.000
3977,-2.0824,-2.3236,0.1309,0.0301,0.0011,0.1874,-0.29,-0.23,0.14,0,3.595,8.412,-5.460,-1.275,0.004,-0.014,1.026,0.000,0.000,0.000
4028,-2.0845,-2.3225,0.1385,0.0307,0.0153,0.1890,0.06,-0.01,-0.03,0,3.595,4.177,-2.147,-1.454,0.004,-0.010,1.025,0.000,0.000,0.000
4079,-2.0856,-2.3209,0.1464,0.0291,0.0232,0.1930,0.20,0.09,-0.19,0,3.595,10.870,-1.245,-0.925,0.004,-0.011,1.021,0.000,0.000,0.000
4130,-2.0861,-2.3179,0.1575,0.0284,0.0336,0.2116,0.55,0.12,-0.26,0,3.600,6.928,-0.034,-0.930,0.002,-0.011,1.001,0.000,0.000,0.000
4181,-2.0847,-2.3151,0.1682,0.0288,0.0353,0.2177,0.85,0.18,-0.35,0,3.595,3.969,2.432,-1.293,0.004,-0.011,0.996,0.000,0.000,0.000
4232,-2.0847,-2.3106,0.1801,0.0261,0.0424,0.2225,1.00,0.06,-0.45,0,3.605,5.620,2.345,-1.063,0.001,-0.009,0.990,0.000,0.000,0.000
4283,-2.0840,-2.3065,0.1916,0.0246,0.0432,0.2225,1.11,-0.03,-0.51,0,3.600,4.136,-0.315,-0.194,0.004,-0.011,0.982,0.000,0.000,0.000
4334,-2.0823,-2.3038,0.2042,0.0273,0.0368,0.2238,1.31,-0.08,-0.56,0,3.605,1.283,1.374,0.111,0.006,-0.010,0.974,0.000,0.000,0.000
4385,-2.0819,-2.2984,0.2157,0.0247,0.0392,0.2152,1.39,-0.12,-0.58,0,3.600,-0.758,0.386,-0.008,0.003,-0.014,0.972,0.000,0.000,0.000
4436,-2.0807,-2.2966,0.2252,0.0248,0.0283,0.1973,1.39,-0.12,-0.56,0,3.605,-1.581,-0.213,0.314,0.000,-0.010,0.969,0.000,0.000,0.000
4487,-2.0795,-2.2950,0.2325,0.0251,0.0183,0.1713,1.34,-0.11,-0.55,0,3.595,-3.776,-2.331,0.326,0.005,-0.014,0.973,0.000,0.000,0.000
4538,-2.0781,-2.2944,0.2440,0.0264,0.0071,0.1737,1.19,-0.06,-0.53,0,3.605,-2.703,-1.189,0.486,0.005,-0.011,0.973,0.000,0.000,0.000
4589,-2.0764,-2.2903,0.2493,0.0312,0.0115,0.1455,0.95,-0.03,-0.55,0,3.595,-1.333,-1.042,-0.097,0.005,-0.008,0.977,0.000,0.000,0.000
4641,-2.0744,-2.2898,0.2556,0.0341,0.0050,0.1289,0.87,0.04,-0.54,0,3.600,-2.288,-3.357,0.326,0.005,-0.013,0.978,0.000,0.000,0.000
4691,-2.0729,-2.2883,0.2597,0.0326,0.0014,0.1079,0.76,0.17,-0.54,0,3.589,-1.349,0.689,0.110,0.004,-0.010,0.988,0.000,0.000,0.000
4742,-2.0698,-2.2914,0.2675,0.0396,-0.0108,0.1123,0.64,0.24,-0.56,0,3.600,-3.502,0.011,-0.048,0.006,-0.011,0.987,0.000,0.000,0.000
4793,-2.0678,-2.2920,0.2731,0.0376,-0.0159,0.1060,0.49,0.35,-0.53,0,3.589,-5.977,-2.536,1.487,0.003,-0.014,0.990,0.000,0.000,0.000
4844,-2.0668,-2.2934,0.2795,0.0315,-0.0217,0.1063,0.22,0.45,-0.48,0,3.600,-1.854,5.077,0.663,0.004,-0.010,0.987,0.000,0.000,0.000
4895,-2.0650,-2.2937,0.2862,0.0285,-0.0216,0.1082,0.04,0.32,-0.43,0,3.595,-1.498,-1.123,1.758,0.003,-0.010,0.982,0.000,0.000,0.000
4946,-2.0633,-2.2934,0.2913,0.0262,-0.0186,0.1004,-0.10,0.34,-0.34,0,3.600,0.527,1.147,1.180,0.004,-0.012,0.981,0.000,0.000,0.000
4997,-2.0621,-2.2934,0.2951,0.0232,-0.0157,0.0862,-0.13,0.34,-0.26,0,3.589,0.442,1.093,0.044,0.005,-0.013,0.982,0.000,0.000,0.000
5048,-2.0638,-2.2925,0.2994,0.0126,-0.0119,0.0783,-0.32,0.37,-0.13,0,3.600,4.595,4.968,0.071,0.003,-0.011,0.986,0.000,0.000,0.000
5099,-2.0604,-2.2738,0.3033,0.0100,0.0288,0.0714,-0.11,0.21,-0.15,0,3.589,10.302,2.314,-0.942,0.008,-0.013,0.990,0.000,0.000,0.000
5150,-2.0625,-2.2732,0.3088,0.0031,0.0280,0.0742,0.40,0.03,-0.20,0,3.595,0.899,0.606,-2.456,0.004,-0.015,0.982,0.000,0.000,0.000
5201,-2.0627,-2.2680,0.3121,0.0011,0.0325,0.0657,0.58,0.00,-0.28,0,3.589,1.662,4.082,-2.019,0.007,-0.012,0.986,0.000,0.000,0.000
5252,-2.0632,-2.2664,0.3147,-0.0002,0.0282,0.0556,0.64,-0.08,-0.38,0,3.595,3.973,1.339,-1.394,0.008,-0.013,0.986,0.000,0.000,0.000
5303,-2.0648,-2.2647,0.3156,-0.0027,0.0236,0.0397,0.83,-0.19,-0.47,0,3.584,-3.350,-0.380,-1.770,0.003,-0.011,0.992,0.000,0.000,0.000
5354,-2.0665,-2.2631,0.3189,-0.0046,0.0181,0.0405,0.77,-0.24,-0.57,0,3.589,1.018,0.355,-2.274,0.008,-0.013,0.993,0.000,0.000,0.000
5405,-2.0667,-2.2624,0.3202,-0.0027,0.0115,0.0343,0.78,-0.26,-0.69,0,3.584,-0.669,0.650,-2.122,0.007,-0.007,0.997,0.000,0.000,0.000
5456,-2.0688,-2.2612,0.3217,-0.0045,0.0062,0.0311,0.74,-0.25,-0.79,0,3.589,-1.074,2.116,-1.818,0.005,-0.010,0.997,0.000,0.000,0.000
5507,-2.0690,-2.2611,0.3242,-0.0023,-0.0001,0.0345,0.61,-0.28,-0.89,0,3.584,-2.092,-2.472,-2.085,0.007,-0.012,0.998,0.000,0.000,0.000
5558,-2.0721,-2.2616,0.3266,-0.0058,-0.0062,0.0362,0.52,-0.22,-0.97,0,3.589,-2.311,1.723,-0.957,0.006,-0.008,0.997,0.000,0.000,0.000
5609,-2.0723,-2.2620,0.3280,-0.0040,-0.0108,0.0319,0.40,-0.23,-1.04,0,3.584,-3.562,1.355,-1.146,0.008,-0.010,0.997,0.000,0.000,0.000
5660,-2.0746,-2.2606,0.3291,-0.0057,-0.0106,0.0281,0.24,-0.31,-1.11,0,3.589,-1.732,0.186,-1.533,0.006,-0.014,0.996,0.000,0.000,0.000
5711,-2.0747,-2.2611,0.3299,-0.0031,-0.0124,0.0240,0.21,-0.30,-1.15,0,3.579,-4.162,-1.382,-0.756,0.007,-0.013,1.000,0.000,0.000,0.000
5762,-2.0747,-2.2661,0.3308,-0.0007,-0.0216,0.0207,0.11,-0.24,-1.20,0,3.584,-1.453,1.203,-0.277,0.006,-0.014,1.001,0.000,0.000,0.000
5813,-2.0736,-2.2716,0.3311,0.0030,-0.0298,0.0173,-0.05,-0.20,-1.22,0,3.579,-5.136,-3.361,-0.016,0.004,-0.013,1.002,0.000,0.000,0.000
5864,-2.0737,-2.2711,0.3330,0.0043,-0.0258,0.0227,-0.21,-0.15,-1.26,0,3.584,-1.859,-1.393,-0.586,0.004,-0.011,1.002,0.000,0.000,0.000
5915,-2.0805,-2.2660,0.3342,-0.0053,-0.0128,0.0239,-0.37,-0.08,-1.32,0,3.579,0.577,2.194,-0.120,0.005,-0.010,0.999,0.000,0.000,0.000
5966,-2.0818,-2.2650,0.3368,-0.0056,-0.0070,0.0300,-0.32,-0.19,-1.37,0,3.584,7.030,0.988,-1.273,0.004,-0.014,0.998,0.000,0.000,0.000
6017,-2.0848,-2.2594,0.3396,-0.0075,0.0053,0.0367,-0.10,-0.29,-1.41,0,3.579,4.775,1.176,-0.181,0.005,-0.014,0.997,0.000,0.000,0.000
6068,-2.0850,-2.2583,0.3415,-0.0049,0.0072,0.0343,0.05,-0.28,-1.43,0,3.584,0.714,-0.576,0.273,0.008,-0.012,0.992,0.000,0.000,0.000
6119,-2.0851,-2.2508,0.3410,-0.0019,0.0184,0.0192,0.13,-0.29,-1.42,0,3.579,5.061,-1.341,0.990,0.005,-0.013,0.989,0.000,0.000,0.000
6170,-2.0841,-2.2432,0.3438,0.0046,0.0277,0.0251,0.31,-0.25,-1.40,0,3.584,1.315,-2.719,1.097,0.007,-0.015,0.995,0.000,0.000,0.000
6221,-2.0809,-2.2426,0.3451,0.0087,0.0232,0.0222,0.53,-0.19,-1.38,0,3.579,3.011,-1.122,0.118,0.005,-0.012,0.993,0.000,0.000,0.000
6272,-2.0798,-2.2389,0.3453,0.0111,0.0227,0.0148,0.63,-0.10,-1.34,0,3.579,-3.490,-3.479,0.651,0.005,-0.015,0.993,0.000,0.000,0.000
6323,-2.0811,-2.2347,0.3470,0.0091,0.0226,0.0162,0.66,0.05,-1.33,0,3.579,-4.053,-2.603,0.832,0.003,-0.011,0.995,0.000,0.000,0.000
6374,-2.0798,-2.2361,0.3466,0.0093,0.0130,0.0074,0.60,0.15,-1.31,0,3.579,-0.334,1.960,0.215,0.004,-0.011,0.996,0.000,0.000,0.000
6425,-2.0794,-2.2330,0.3456,0.0081,0.0123,-0.0015,0.53,0.11,-1.28,0,3.574,2.279,0.727,-0.865,0.006,-0.012,0.996,0.000,0.000,0.000
6476,-2.0779,-2.2328,0.3457,0.0088,0.0072,-0.0024,0.54,0.09,-1.28,0,3.579,-1.746,0.256,-0.187,0.006,-0.012,1.006,0.000,0.000,0.000
6527,-2.0785,-2.2282,0.3462,0.0061,0.0102,0.0008,0.35,0.18,-1.26,0,3.568,0.687,0.147,-0.220,0.006,-0.017,1.000,0.000,0.000,0.000
6578,-2.0783,-2.2283,0.3485,0.0043,0.0064,0.0135,0.40,0.12,-1.28,0,3.584,-1.828,0.216,0.073,0.009,-0.015,0.996,0.000,0.000,0.000
6630,-2.0781,-2.2280,0.3478,0.0033,0.0032,0.0059,0.31,0.10,-1.28,0,3.574,0.877,1.912,0.591,0.008,-0.010,1.001,0.000,0.000,0.000
6680,-2.0795,-2.2261,0.3476,0.0003,0.0036,0.0031,0.26,0.04,-1.27,0,3.579,2.493,0.672,-0.414,0.007,-0.014,0.997,0.000,0.000,0.000
6731,-2.0841,-2.2243,0.3470,-0.0070,0.0041,-0.0017,0.27,-0.04,-1.28,0,3.568,-0.831,0.310,-0.032,0.005,-0.016,1.000,0.000,0.000,0.000
6782,-2.0855,-2.2207,0.3460,-0.0083,0.0074,-0.0074,0.28,-0.14,-1.29,0,3.574,1.625,2.218,-0.556,0.005,-0.014,1.004,0.000,0.000,0.000
6833,-2.0871,-2.2192,0.3462,-0.0094,0.0075,-0.0038,0.37,-0.23,-1.31,0,3.568,-0.519,-1.390,-0.277,0.006,-0.016,1.004,0.000,0.000,0.000
6884,-2.0892,-2.2193,0.3456,-0.0095,0.0030,-0.0039,0.30,-0.19,-1.33,0,3.574,-3.051,0.019,0.363,0.006,-0.012,1.008,0.000,0.000,0.000
6935,-2.0910,-2.2125,0.3448,-0.0106,0.0120,-0.0053,0.14,-0.18,-1.32,0,3.568,1.933,0.408,0.334,0.005,-0.017,1.005,0.000,0.000,0.000
6987,-2.0920,-2.2096,0.3457,-0.0099,0.0143,0.0031,0.24,-0.22,-1.30,0,3.574,0.494,-2.126,-0.036,0.003,-0.015,1.003,0.000,0.000,0.000
7037,-2.0946,-2.2028,0.3482,-0.0112,0.0219,0.0175,0.36,-0.26,-1.30,0,3.568,1.583,1.072,-0.028,0.003,-0.013,1.000,0.000,0.000,0.000
7088,-2.0968,-2.1949,0.3487,-0.0117,0.0299,0.0154,0.30,-0.20,-1.28,0,3.579,6.333,1.790,0.060,0.005,-0.013,0.992,0.000,0.000,0.000
7139,-2.0940,-2.1955,0.3489,-0.0051,0.0238,0.0118,0.55,-0.26,-1.26,0,3.568,1.090,-0.739,0.451,0.006,-0.015,0.995,0.000,0.000,0.000
7190,-2.0936,-2.1868,0.3479,-0.0020,0.0313,0.0008,0.61,-0.24,-1.24,0,3.574,2.276,-0.914,0.160,0.005,-0.012,0.997,0.000,0.000,0.000
7241,-2.0989,-2.1767,0.3475,-0.0077,0.0400,-0.0035,0.67,-0.16,-1.20,0,3.563,1.925,-0.036,0.430,0.003,-0.015,0.997,0.000,0.000,0.000
7292,-2.0970,-2.1745,0.3493,-0.0028,0.0347,0.0049,0.78,-0.21,-1.16,0,3.568,4.395,-1.687,0.464,0.003,-0.013,1.000,0.000,0.000,0.000
7343,-2.0992,-2.1729,0.3480,-0.0045,0.0278,-0.0033,0.86,-0.12,-1.12,0,3.563,0.229,2.857,-0.065,0.007,-0.015,1.002,0.000,0.000,0.000
7394,-2.0992,-2.1719,0.3466,-0.0032,0.0196,-0.0103,0.87,-0.16,-1.10,0,3.568,-4.386,-1.865,1.208,-0.001,-0.015,1.005,0.000,0.000,0.000
7445,-2.1028,-2.1644,0.3455,-0.0076,0.0228,-0.0122,0.74,-0.18,-1.07,0,3.558,1.325,1.484,0.156,0.004,-0.015,1.008,0.000,0.000,0.000
7496,-2.1011,-2.1608,0.3472,-0.0027,0.0205,0.0020,0.68,-0.20,-1.04,0,3.568,2.048,1.796,-0.122,0.005,-0.013,1.002,0.000,0.000,0.000
7547,-2.1034,-2.1599,0.3464,-0.0049,0.0146,0.0004,0.66,-0.23,-1.01,0,3.563,-3.317,-1.309,0.574,0.007,-0.014,1.004,0.000,0.000,0.000
7598,-2.1051,-2.1549,0.3467,-0.0054,0.0160,0.0031,0.63,-0.28,-1.01,0,3.568,0.838,1.295,-0.394,0.006,-0.013,1.002,0.000,0.000,0.000
7649,-2.1063,-2.1532,0.3491,-0.0049,0.0122,0.0162,0.55,-0.27,-1.02,0,3.563,-0.323,1.033,0.449,0.007,-0.015,0.998,0.000,0.000,0.000
7700,-2.1064,-2.1527,0.3496,-0.0026,0.0075,0.0147,0.51,-0.33,-1.00,0,3.574,-3.840,-2.369,1.293,0.004,-0.014,0.995,0.000,0.000,0.000
7751,-2.1065,-2.1524,0.3494,-0.0000,0.0031,0.0089,0.43,-0.27,-0.99,0,3.563,-2.650,0.964,0.436,0.006,-0.013,0.995,0.000,0.000,0.000
7802,-2.1069,-2.1490,0.3508,0.0017,0.0054,0.0122,0.34,-0.25,-0.98,0,3.568,0.910,-0.259,0.317,0.004,-0.013,0.993,0.000,0.000,0.000
7853,-2.1070,-2.1473,0.3503,0.0034,0.0050,0.0045,0.33,-0.20,-0.96,0,3.563,-3.238,-2.736,-0.001,0.005,-0.015,0.994,0.000,0.000,0.000
7905,-2.1089,-2.1424,0.3512,0.0014,0.0109,0.0049,0.23,-0.16,-0.99,0,3.568,-1.518,-0.670,0.607,0.006,-0.015,0.994,0.000,0.000,0.000
7955,-2.1093,-2.1385,0.3512,0.0021,0.0150,0.0021,0.17,-0.08,-1.00,0,3.563,3.712,0.920,-0.532,0.002,-0.012,0.995,0.000,0.000,0.000
8006,-2.1118,-2.1286,0.3498,-0.0015,0.0297,-0.0083,0.26,-0.02,-1.01,0,3.568,4.650,3.386,0.595,0.004,-0.016,0.998,0.000,0.000,0.000
8057,-2.1122,-2.1283,0.3487,-0.0019,0.0252,-0.0130,0.49,-0.17,-1.00,0,3.558,-0.151,-1.297,0.701,0.002,-0.014,1.000,0.000,0.000,0.000
8108,-2.1145,-2.1266,0.3493,-0.0047,0.0217,-0.0079,0.47,-0.09,-0.97,0,3.563,5.400,0.346,0.783,0.006,-0.014,1.002,0.000,0.000,0.000
8159,-2.1147,-2.1060,0.3485,-0.0032,0.0515,-0.0096,0.58,-0.10,-0.94,0,3.558,9.941,0.660,0.111,0.007,-0.016,1.003,0.000,0.000,0.000
8210,-2.1159,-2.1046,0.3480,-0.0043,0.0443,-0.0087,0.90,-0.17,-0.92,0,3.563,0.218,-0.642,1.247,0.007,-0.011,1.002,0.000,0.000,0.000
8261,-2.1195,-2.0854,0.3490,-0.0086,0.0665,-0.0000,1.02,-0.10,-0.89,0,3.558,3.891,2.528,-0.285,0.002,-0.012,1.001,0.000,0.000,0.000
8312,-2.1190,-2.0859,0.3499,-0.0066,0.0513,0.0046,1.24,-0.19,-0.86,0,3.563,1.699,0.981,0.134,0.006,-0.016,0.994,0.000,0.000,0.000
8363,-2.1204,-2.0837,0.3501,-0.0071,0.0404,0.0041,1.29,-0.23,-0.86,0,3.558,-3.588,1.580,0.132,0.004,-0.012,0.994,0.000,0.000,0.000
8415,-2.1223,-2.0674,0.3488,-0.0080,0.0541,-0.0059,1.15,-0.17,-0.86,0,3.563,5.491,2.759,0.105,0.003,-0.012,0.998,0.000,0.000,0.000
8465,-2.1260,-2.0641,0.3482,-0.0130,0.0452,-0.0084,1.33,-0.26,-0.85,0,3.552,0.048,-0.557,-0.021,0.007,-0.014,0.998,0.000,0.000,0.000
8516,-2.1261,-2.0620,0.3486,-0.0101,0.0342,-0.0057,1.42,-0.27,-0.86,0,3.563,-7.095,-1.041,1.471,0.005,-0.015,1.002,0.000,0.000,0.000
8567,-2.1263,-2.0591,0.3491,-0.0072,0.0249,-0.0031,1.22,-0.28,-0.82,0,3.558,-5.165,-2.259,0.960,0.007,-0.012,0.998,0.000,0.000,0.000
8618,-2.1266,-2.0581,0.3493,-0.0049,0.0141,-0.0015,1.05,-0.23,-0.79,0,3.563,-5.193,-0.600,0.692,0.004,-0.010,0.994,0.000,0.000,0.000
8669,-2.1268,-2.0576,0.3496,-0.0030,0.0051,-0.0022,0.85,-0.15,-0.75,0,3.558,-4.978,1.025,0.184,0.005,-0.010,0.998,0.000,0.000,0.000
8720,-2.1290,-2.0579,0.3478,-0.0056,-0.0031,-0.0117,0.63,-0.18,-0.74,0,3.563,-1.957,-2.210,0.136,0.003,-0.013,0.996,0.000,0.000,0.000
8771,-2.1292,-2.0582,0.3461,-0.0041,-0.0084,-0.0186,0.47,-0.16,-0.73,0,3.552,-2.785,-0.554,-0.194,0.002,-0.012,1.005,0.000,0.000,0.000
8822,-2.1297,-2.0571,0.3445,-0.0033,-0.0095,-0.0231,0.28,-0.15,-0.75,0,3.558,-4.821,-1.046,-1.268,0.004,-0.017,1.007,0.000,0.000,0.000
8873,-2.1278,-2.0619,0.3431,0.0014,-0.0185,-0.0213,0.06,-0.13,-0.80,0,3.552,-1.890,-1.746,-0.851,0.006,-0.013,1.008,0.000,0.000,0.000
8924,-2.1283,-2.0614,0.3424,0.0014,-0.0165,-0.0170,-0.11,-0.06,-0.85,0,3.558,0.195,-1.137,-0.513,0.004,-0.010,1.007,0.000,0.000,0.000
8975,-2.1266,-2.0528,0.3413,0.0048,-0.0002,-0.0149,-0.17,-0.02,-0.90,0,3.552,5.059,-2.487,-1.048,0.003,-0.015,1.006,0.000,0.000,0.000
9026,-2.1230,-2.0538,0.3411,0.0106,-0.0004,-0.0088,-0.00,0.08,-0.95,0,3.558,-0.762,-3.485,-0.441,0.006,-0.016,1.011,0.000,0.000,0.000
9077,-2.1217,-2.0502,0.3408,0.0111,0.0055,-0.0043,-0.04,0.24,-0.98,0,3.552,5.084,0.312,-0.201,0.004,-0.012,1.006,0.000,0.000,0.000
9128,-2.1224,-2.0308,0.3399,0.0071,0.0363,-0.0046,0.14,0.21,-1.00,0,3.558,7.202,0.740,-0.586,0.007,-0.014,1.004,0.000,0.000,0.000
9179,-2.1205,-2.0333,0.3389,0.0079,0.0281,-0.0069,0.46,0.17,-1.02,0,3.552,4.528,-1.059,0.549,0.006,-0.013,1.006,0.000,0.000,0.000
9230,-2.1243,-2.0155,0.3414,-0.0010,0.0508,0.0088,0.66,0.17,-1.01,0,3.558,2.729,1.853,0.160,0.005,-0.016,0.998,0.000,0.000,0.000
9281,-2.1242,-2.0156,0.3425,-0.0023,0.0410,0.0129,0.91,0.10,-1.00,0,3.552,1.755,1.049,-0.814,0.005,-0.015,0.994,0.000,0.000,0.000
9332,-2.1237,-2.0061,0.3449,-0.0028,0.0456,0.0197,1.02,0.01,-1.03,0,3.558,-0.053,0.656,-0.219,0.005,-0.014,0.992,0.000,0.000,0.000
9383,-2.1262,-2.0001,0.3446,-0.0074,0.0435,0.0106,1.05,0.00,-1.05,0,3.552,4.357,6.399,-0.982,0.002,-0.017,0.991,0.000,0.000,0.000
9434,-2.1266,-1.9981,0.3438,-0.0075,0.0345,-0.0001,1.17,-0.17,-1.05,0,3.558,-1.906,-0.138,-0.019,0.004,-0.010,0.994,0.000,0.000,0.000
9486,-2.1265,-1.9966,0.3429,-0.0057,0.0245,-0.0072,1.14,-0.20,-1.05,0,3.547,-2.349,0.820,0.100,0.005,-0.018,0.998,0.000,0.000,0.000
9536,-2.1289,-1.9833,0.3404,-0.0091,0.0368,-0.0193,0.93,-0.16,-1.00,0,3.552,2.376,1.495,-0.702,0.005,-0.014,1.001,0.000,0.000,0.000
9588,-2.1300,-1.9814,0.3382,-0.0091,0.0291,-0.0255,0.97,-0.22,-1.02,0,3.542,0.407,2.096,-0.363,0.001,-0.011,1.006,0.000,0.000,0.000
9638,-2.1324,-1.9750,0.3381,-0.0114,0.0291,-0.0181,0.97,-0.25,-1.02,0,3.552,-0.409,0.999,-0.129,0.010,-0.012,1.008,0.000,0.000,0.000
9689,-2.1339,-1.9741,0.3357,-0.0113,0.0201,-0.0221,0.94,-0.32,-1.02,0,3.547,0.167,-0.540,-0.449,0.007,-0.013,1.009,0.000,0.000,0.000
9740,-2.1343,-1.9734,0.3365,-0.0087,0.0118,-0.0093,0.88,-0.29,-1.01,0,3.552,-3.430,0.176,-0.414,0.009,-0.010,1.010,0.000,0.000,0.000
9791,-2.1347,-1.9730,0.3365,-0.0063,0.0042,-0.0032,0.69,-0.27,-1.02,0,3.547,-4.417,-2.287,-0.104,0.005,-0.011,1.003,0.000,0.000,0.000
9842,-2.1371,-1.9722,0.3380,-0.0083,-0.0005,0.0075,0.50,-0.17,-1.03,0,3.552,-1.316,1.442,-0.831,0.005,-0.010,1.001,0.000,0.000,0.000
9893,-2.1355,-1.9762,0.3378,-0.0031,-0.0120,0.0057,0.42,-0.20,-1.05,0,3.547,-5.384,-0.476,0.743,0.009,-0.008,0.996,0.000,0.000,0.000
9945,-2.1351,-1.9717,0.3385,-0.0005,-0.0068,0.0075,0.31,-0.21,-1.03,0,3.552,-0.652,-1.385,-0.064,0.005,-0.012,0.995,0.000,0.000,0.000
9995,-2.1400,-1.9700,0.3385,-0.0077,-0.0062,0.0044,0.24,-0.13,-1.03,0,3.547,1.232,2.230,-0.242,0.008,-0.013,0.997,0.000,0.000,0.000
10046,-2.1381,-1.9697,0.3393,-0.0026,-0.0067,0.0058,0.13,-0.15,-1.03,0,3.552,1.852,-0.803,-0.107,0.009,-0.011,0.995,0.000,0.000,0.000
10097,-2.1400,-1.9670,0.3389,-0.0042,-0.0025,0.0003,0.11,-0.22,-1.04,0,3.547,0.085,0.047,0.080,0.005,-0.012,0.998,0.000,0.000,0.000
10148,-2.1402,-1.9663,0.3402,-0.0024,-0.0018,0.0037,0.05,-0.24,-1.03,0,3.552,3.440,-1.607,-0.709,0.007,-0.011,0.993,0.000,0.000,0.000
10199,-2.1378,-1.9670,0.3402,0.0034,-0.0034,0.0014,0.12,-0.16,-1.06,0,3.547,2.420,0.599,-1.072,0.003,-0.007,0.996,0.000,0.000,0.000
10250,-2.1432,-1.9365,0.3388,-0.0048,0.0477,-0.0095,-0.09,-0.05,-1.10,0,3.552,15.150,0.425,-0.526,0.007,-0.013,0.996,0.000,0.000,0.000
10301,-2.1409,-1.9366,0.3367,-0.0005,0.0435,-0.0185,0.45,-0.08,-1.13,0,3.542,1.807,-1.721,-0.740,0.001,-0.020,0.995,0.000,0.000,0.000
10352,-2.1407,-1.9203,0.3374,0.0002,0.0632,-0.0125,0.76,-0.05,-1.18,0,3.547,4.603,-1.986,-1.089,0.002,-0.010,0.998,0.000,0.000,0.000
10403,-2.1396,-1.9192,0.3368,0.0021,0.0532,-0.0128,0.91,0.05,-1.25,0,3.542,5.077,0.580,-1.382,0.004,-0.014,0.999,0.000,0.000,0.000
10454,-2.1401,-1.9108,0.3355,0.0005,0.0550,-0.0166,1.16,0.05,-1.32,0,3.547,-0.183,0.772,-1.866,0.005,-0.014,1.003,0.000,0.000,0.000
10505,-2.1394,-1.9051,0.3334,0.0010,0.0499,-0.0233,1.24,0.02,-1.41,0,3.542,3.504,2.798,-2.023,0.008,-0.012,1.005,0.000,0.000,0.000
10556,-2.1393,-1.9003,0.3315,0.0008,0.0431,-0.0254,1.34,-0.02,-1.48,0,3.547,-2.263,-0.466,-0.959,0.006,-0.013,1.004,0.000,0.000,0.000
10607,-2.1410,-1.8992,0.3310,-0.0024,0.0302,-0.0200,1.36,-0.04,-1.53,0,3.542,-5.001,0.204,-0.787,0.008,-0.012,1.004,0.000,0.000,0.000
10658,-2.1427,-1.8965,0.3303,-0.0052,0.0209,-0.0166,1.21,-0.01,-1.59,0,3.547,-4.686,1.608,-0.206,0.006,-0.015,1.004,0.000,0.000,0.000
10709,-2.1443,-1.8940,0.3310,-0.0079,0.0134,-0.0072,1.03,-0.05,-1.60,0,3.542,-0.865,1.546,0.201,0.009,-0.013,1.000,0.000,0.000,0.000
10760,-2.1501,-1.8853,0.3316,-0.0180,0.0189,-0.0020,0.79,-0.12,-1.56,0,3.547,-1.020,0.898,-0.054,0.008,-0.012,1.001,0.000,0.000,0.000
10811,-2.1521,-1.8834,0.3322,-0.0192,0.0131,0.0008,0.84,-0.21,-1.57,0,3.542,-1.466,1.866,-0.543,0.005,-0.015,0.997,0.000,0.000,0.000
10862,-2.1548,-1.8711,0.3321,-0.0213,0.0268,-0.0010,0.74,-0.28,-1.59,0,3.547,-1.450,0.908,-0.678,0.010,-0.011,0.998,0.000,0.000,0.000
10914,-2.1562,-1.8708,0.3306,-0.0197,0.0196,-0.0086,0.62,-0.35,-1.62,0,3.542,0.464,1.058,-0.990,0.006,-0.012,0.998,0.000,0.000,0.000
10964,-2.1591,-1.8701,0.3295,-0.0206,0.0139,-0.0121,0.60,-0.38,-1.64,0,3.542,-2.700,-1.878,-1.397,0.007,-0.011,0.998,0.000,0.000,0.000
11015,-2.1608,-1.8698,0.3316,-0.0186,0.0079,0.0006,0.60,-0.39,-1.70,0,3.542,0.332,3.840,-1.695,0.005,-0.007,0.995,0.000,0.000,0.000
11066,-2.1635,-1.8688,0.3313,-0.0188,0.0044,-0.0017,0.55,-0.51,-1.75,0,3.547,-0.990,-0.967,-1.200,0.005,-0.013,0.997,0.000,0.000,0.000
11117,-2.1630,-1.8725,0.3307,-0.0132,-0.0062,-0.0059,0.46,-0.54,-1.82,0,3.537,-5.858,-1.415,-0.507,0.008,-0.011,0.996,0.000,0.000,0.000
11168,-2.1646,-1.8727,0.3297,-0.0106,-0.0099,-0.0103,0.23,-0.51,-1.88,0,3.542,3.572,2.307,-1.064,0.008,-0.011,0.997,0.000,0.000,0.000
11219,-2.1642,-1.8659,0.3303,-0.0032,0.0025,-0.0059,0.21,-0.47,-1.89,0,3.537,0.992,-0.620,0.345,0.009,-0.014,0.996,0.000,0.000,0.000
11270,-2.1635,-1.8662,0.3309,0.0012,0.0010,-0.0030,0.18,-0.41,-1.90,0,3.542,-0.373,-5.067,0.242,0.006,-0.011,1.000,0.000,0.000,0.000
11321,-2.1624,-1.8651,0.3304,0.0066,0.0017,-0.0062,0.17,-0.26,-1.89,0,3.537,1.903,0.968,0.874,0.006,-0.011,0.996,0.000,0.000,0.000
11372,-2.1615,-1.8613,0.3291,0.0102,0.0084,-0.0125,0.20,-0.21,-1.90,0,3.542,1.317,-2.511,0.904,0.007,-0.013,0.997,0.000,0.000,0.000
11424,-2.1613,-1.8560,0.3291,0.0117,0.0171,-0.0112,0.19,-0.05,-1.88,0,3.537,7.584,-1.567,0.640,0.005,-0.015,0.996,0.000,0.000,0.000
11474,-2.1613,-1.8499,0.3282,0.0116,0.0263,-0.0135,0.42,0.08,-1.84,0,3.542,4.984,-0.247,0.875,0.007,-0.012,1.001,0.000,0.000,0.000
11525,-2.1582,-1.8514,0.3262,0.0154,0.0148,-0.0196,0.57,0.09,-1.79,0,3.531,0.688,-1.623,1.430,0.008,-0.013,1.003,0.000,0.000,0.000
11576,-2.1600,-1.8404,0.3249,0.0105,0.0305,-0.0200,0.76,0.13,-1.75,0,3.537,3.079,-1.285,1.191,0.008,-0.012,1.003,0.000,0.000,0.000
11627,-2.1597,-1.8384,0.3243,0.0088,0.0251,-0.0165,0.86,0.22,-1.68,0,3.531,0.047,0.965,1.429,0.009,-0.012,1.008,0.000,0.000,0.000
11678,-2.1599,-1.8355,0.3242,0.0061,0.0237,-0.0116,0.89,0.23,-1.61,0,3.542,-2.888,-0.176,2.163,0.003,-0.013,1.003,0.000,0.000,0.000
11730,-2.1591,-1.8303,0.3233,0.0050,0.0254,-0.0105,0.84,0.17,-1.52,0,3.531,1.922,-0.559,0.789,0.009,-0.012,1.007,0.000,0.000,0.000
11780,-2.1598,-1.8281,0.3229,0.0009,0.0206,-0.0080,0.87,0.17,-1.46,0,3.542,-1.184,0.268,0.797,0.006,-0.012,1.009,0.000,0.000,0.000
11831,-2.1600,-1.8267,0.3214,-0.0014,0.0145,-0.0102,0.82,0.21,-1.42,0,3.531,-1.223,3.038,0.059,0.007,-0.013,1.003,0.000,0.000,0.000
11882,-2.1608,-1.8253,0.3210,-0.0050,0.0094,-0.0076,0.82,0.09,-1.39,0,3.537,-2.832,0.017,0.762,0.004,-0.012,1.006,0.000,0.000,0.000
11933,-2.1628,-1.8226,0.3208,-0.0100,0.0075,-0.0052,0.66,0.05,-1.36,0,3.531,-0.292,2.800,1.179,0.004,-0.011,1.005,0.000,0.000,0.000
11985,-2.1640,-1.8223,0.3216,-0.0123,0.0021,0.0024,0.54,-0.04,-1.31,0,3.542,-2.315,2.959,1.990,0.007,-0.012,1.002,0.000,0.000,0.000
