time_ms,pos_x,pos_y,pos_z,vel_x,vel_y,vel_z,roll,pitch,yaw,thrust,vbat,gyro_x,gyro_y,gyro_z,acc_x,acc_y,acc_z,rate_roll,rate_pitch,rate_yaw
0,-0.0324,-0.0596,0.0095,-0.0024,0.0319,-0.0026,-0.30,0.48,0.07,0,3.716,0.190,0.021,-0.266,0.009,-0.003,0.000,0.000,0.000,0.000
0,-0.0324,-0.0592,0.0092,-0.0006,0.0288,-0.0034,-0.20,0.52,0.07,0,3.711,0.054,-0.001,0.130,0.009,-0.002,0.000,0.000,0.000,0.000
0,-0.0331,-0.0592,0.0095,-0.0035,0.0234,-0.0015,-0.46,0.45,0.06,0,3.721,0.168,-0.002,0.090,0.009,-0.004,0.000,0.000,0.000,0.000
0,-0.0323,-0.0477,0.0095,0.0028,0.0742,-0.0023,-1.01,0.48,0.05,0,3.711,0.219,0.133,-0.198,0.009,-0.002,0.000,0.000,0.000,0.000
0,-0.0331,-0.0423,0.0094,-0.0016,0.0825,-0.0009,-0.52,0.44,0.06,0,3.721,-0.079,-0.137,0.055,0.012,-0.001,0.000,0.000,0.000,0.000
0,-0.0329,-0.0439,0.0097,0.0012,0.0569,0.0014,-0.27,0.36,0.06,0,3.711,-0.076,0.139,-0.077,0.009,-0.002,0.000,0.000,0.000,0.000
0,-0.0329,-0.0508,0.0103,0.0011,0.0117,0.0048,0.06,0.46,0.07,0,3.716,-0.015,-0.228,-0.022,0.008,-0.003,0.000,0.000,0.000,0.000
0,-0.0327,-0.0486,0.0105,0.0025,0.0213,0.0040,-0.16,0.47,0.06,0,3.711,0.219,-0.160,-0.100,0.012,-0.002,0.000,0.000,0.000,0.000
0,-0.0333,-0.0450,0.0090,0.0004,0.0343,-0.0036,-0.61,0.52,0.05,0,3.716,0.040,-0.010,0.186,0.008,-0.005,0.000,0.000,0.000,0.000
0,-0.0339,-0.0337,0.0085,-0.0013,0.0809,-0.0059,-0.45,0.48,0.06,0,3.711,-0.035,0.116,0.374,0.010,-0.003,0.000,0.000,0.000,0.000
0,-0.0351,-0.0345,0.0095,-0.0066,0.0595,0.0007,-0.27,0.47,0.06,0,3.716,0.125,-0.074,0.165,0.010,-0.001,0.000,0.000,0.000,0.000
0,-0.0361,-0.0300,0.0104,-0.0105,0.0706,0.0036,-0.40,0.58,0.06,0,3.711,0.321,0.277,0.046,0.010,-0.004,0.000,0.000,0.000,0.000
0,-0.0360,-0.0307,0.0101,-0.0061,0.0514,0.0018,-0.10,0.54,0.07,0,3.716,0.232,-0.173,0.053,0.010,-0.004,0.000,0.000,0.000,0.000
0,-0.0362,-0.0313,0.0115,-0.0055,0.0343,0.0075,0.02,0.60,0.07,0,3.711,-0.264,-0.041,0.152,0.009,-0.003,0.000,0.000,0.000,0.000
0,-0.0363,-0.0298,0.0101,-0.0040,0.0342,-0.0007,-0.16,0.47,0.06,0,3.721,-0.207,0.283,0.192,0.010,-0.003,0.000,0.000,0.000,0.000
0,-0.0341,-0.0248,0.0115,0.0091,0.0541,0.0047,-0.24,0.43,0.06,0,3.711,0.141,-0.122,0.011,0.009,-0.004,0.000,0.000,0.000,0.000
0,-0.0339,-0.0241,0.0117,0.0090,0.0466,0.0040,0.17,0.35,0.05,0,3.721,0.020,-0.112,-0.480,0.011,-0.003,0.000,0.000,0.000,0.000
0,-0.0311,-0.0336,0.0120,0.0214,-0.0087,0.0050,0.45,0.35,0.05,0,3.711,0.094,-0.005,-0.129,0.010,-0.003,0.000,0.000,0.000,0.000
0,-0.0318,-0.0426,0.0110,0.0149,-0.0535,-0.0006,0.40,0.36,0.05,0,3.716,-0.036,0.024,0.173,0.009,-0.003,0.000,0.000,0.000,0.000
0,-0.0318,-0.0420,0.0118,0.0120,-0.0425,0.0030,0.68,0.41,0.06,0,3.711,-0.025,-0.070,0.047,0.008,-0.003,0.000,0.000,0.000,0.000
0,-0.0315,-0.0534,0.0106,0.0109,-0.0891,-0.0037,0.63,0.41,0.06,0,3.716,0.135,0.018,0.074,0.010,-0.003,0.000,0.000,0.000,0.000
0,-0.0289,-0.0559,0.0108,0.0243,-0.0875,-0.0017,0.64,0.23,0.02,0,3.711,0.030,0.104,-0.050,0.010,-0.004,0.000,0.000,0.000,0.000
0,-0.0242,-0.0516,0.0112,0.0433,-0.0461,0.0021,0.29,0.26,0.02,0,3.721,0.400,0.247,-0.145,0.009,-0.002,0.000,0.000,0.000,0.000
0,-0.0254,-0.0522,0.0109,0.0300,-0.0414,0.0008,0.44,0.27,0.02,0,3.711,0.107,0.136,-0.273,0.010,-0.002,0.000,0.000,0.000,0.000
0,-0.0230,-0.0550,0.0119,0.0347,-0.0424,0.0054,0.18,0.32,0.02,0,3.716,-0.112,0.305,-0.308,0.012,-0.003,0.000,0.000,0.000,0.000
0,-0.0224,-0.0534,0.0108,0.0313,-0.0252,-0.0001,0.01,0.36,0.02,0,3.711,0.108,0.060,-0.074,0.008,0.001,0.000,0.000,0.000,0.000
0,-0.0230,-0.0555,0.0110,0.0215,-0.0303,0.0001,0.04,0.42,0.03,0,3.721,0.073,0.038,-0.085,0.008,0.000,0.000,0.000,0.000,0.000
0,-0.0224,-0.0549,0.0100,0.0198,-0.0209,-0.0042,0.13,0.50,0.04,0,3.711,0.215,0.194,-0.023,0.010,-0.001,0.000,0.000,0.000,0.000
0,-0.0229,-0.0673,0.0089,0.0128,-0.0766,-0.0097,0.23,0.54,0.05,0,3.721,0.138,0.213,0.112,0.011,-0.003,0.000,0.000,0.000,0.000
0,-0.0225,-0.0692,0.0098,0.0125,-0.0729,-0.0036,0.16,0.57,0.05,0,3.711,-0.016,-0.154,0.079,0.011,-0.002,0.000,0.000,0.000,0.000
0,-0.0193,-0.0715,0.0106,0.0257,-0.0703,0.0009,0.21,0.45,0.04,0,3.716,-0.175,-0.011,0.245,0.010,-0.002,0.000,0.000,0.000,0.000
51,-0.0176,-0.0763,0.0097,0.0296,-0.0833,-0.0040,0.30,0.38,0.03,0,3.711,0.037,-0.047,0.146,0.010,-0.002,0.000,0.000,0.000,0.000
102,-0.0210,-0.0889,0.0095,0.0057,-0.1282,-0.0049,0.62,0.62,0.05,0,3.721,0.021,0.027,0.229,0.010,-0.003,0.000,0.000,0.000,0.000
153,-0.0212,-0.0894,0.0108,0.0028,-0.1089,0.0030,0.47,0.60,0.05,0,3.711,-0.068,-0.304,-0.067,0.012,-0.004,0.000,0.000,0.000,0.000
204,-0.0214,-0.0911,0.0113,0.0009,-0.0903,0.0057,0.50,0.61,0.04,0,3.721,0.191,-0.011,0.012,0.010,-0.002,0.000,0.000,0.000,0.000
255,-0.0219,-0.0958,0.0116,-0.0022,-0.0976,0.0057,0.17,0.57,0.05,0,3.711,-0.091,0.084,-0.155,0.011,-0.003,0.000,0.000,0.000,0.000
306,-0.0216,-0.0951,0.0121,-0.0017,-0.0699,0.0072,0.04,0.57,0.06,0,3.716,0.030,0.200,0.135,0.009,-0.006,0.000,0.000,0.000,0.000
357,-0.0216,-0.0950,0.0110,-0.0018,-0.0572,0.0014,-0.09,0.62,0.06,0,3.711,-0.144,0.319,0.149,0.011,-0.002,0.000,0.000,0.000,0.000
408,-0.0214,-0.0949,0.0113,-0.0009,-0.0437,0.0023,-0.17,0.62,0.07,0,3.721,-0.020,0.100,-0.095,0.009,-0.004,0.000,0.000,0.000,0.000
459,-0.0209,-0.0945,0.0098,0.0012,-0.0306,-0.0042,0.07,0.59,0.06,0,3.711,-0.055,0.238,-0.087,0.010,-0.003,0.000,0.000,0.000,0.000
509,-0.0205,-0.1096,0.0098,0.0025,-0.0903,-0.0044,-0.00,0.59,0.06,0,3.716,-0.007,-0.031,0.003,0.009,-0.005,0.000,0.000,0.000,0.000
561,-0.0207,-0.1082,0.0088,0.0007,-0.0670,-0.0080,-0.14,0.62,0.06,0,3.711,0.028,0.203,-0.224,0.011,-0.002,0.000,0.000,0.000,0.000
611,-0.0203,-0.1080,0.0103,0.0022,-0.0504,0.0015,0.04,0.40,0.06,0,3.716,-0.270,-0.216,-0.090,0.010,-0.003,0.000,0.000,0.000,0.000
663,-0.0148,-0.1165,0.0094,0.0288,-0.0804,-0.0041,0.28,0.44,0.06,0,3.711,-0.166,-0.040,0.037,0.012,-0.004,0.000,0.000,0.000,0.000
714,-0.0161,-0.1248,0.0094,0.0167,-0.1022,-0.0032,0.43,0.45,0.05,0,3.721,-0.238,-0.065,0.020,0.010,-0.002,0.000,0.000,0.000,0.000
765,-0.0143,-0.1372,0.0084,0.0228,-0.1399,-0.0074,0.38,0.48,0.05,0,3.711,-0.242,-0.207,0.189,0.011,-0.003,0.000,0.000,0.000,0.000
816,-0.0151,-0.1376,0.0100,0.0137,-0.1098,0.0030,0.18,0.50,0.05,0,3.716,-0.180,0.077,0.075,0.008,0.000,0.000,0.000,0.000,0.000
867,-0.0147,-0.1389,0.0116,0.0130,-0.0896,0.0098,-0.11,0.42,0.04,0,3.711,-0.041,0.179,-0.164,0.012,-0.003,0.000,0.000,0.000,0.000
918,-0.0108,-0.1316,0.0119,0.0290,-0.0304,0.0101,-0.50,0.39,0.04,0,3.721,-0.021,0.107,0.168,0.010,-0.003,0.000,0.000,0.000,0.000
968,-0.0099,-0.1313,0.0124,0.0270,-0.0193,0.0107,-0.49,0.49,0.03,0,3.711,-0.069,0.223,-0.269,0.010,-0.003,0.000,0.000,0.000,0.000
1020,-0.0103,-0.1303,0.0117,0.0195,-0.0058,0.0050,-0.48,0.45,0.03,0,3.721,-0.261,0.100,0.369,0.008,-0.005,0.000,0.000,0.000,0.000
1071,-0.0099,-0.1304,0.0116,0.0162,0.0002,0.0028,-0.50,0.58,0.02,0,3.711,-0.092,-0.141,-0.108,0.010,-0.002,0.000,0.000,0.000,0.000
1122,-0.0096,-0.1318,0.0120,0.0137,-0.0032,0.0034,-0.42,0.55,0.02,0,3.721,-0.023,-0.023,0.120,0.009,-0.004,0.000,0.000,0.000,0.000
1172,-0.0039,-0.1391,0.0121,0.0413,-0.0353,0.0019,-0.60,0.32,0.05,0,3.711,0.155,0.055,-0.169,0.011,-0.003,0.000,0.000,0.000,0.000
1223,-0.0042,-0.1282,0.0110,0.0304,0.0291,-0.0032,-0.79,0.39,0.03,0,3.716,-0.304,-0.086,0.136,0.010,-0.001,0.000,0.000,0.000,0.000
1275,-0.0037,-0.1253,0.0093,0.0262,0.0433,-0.0101,-0.84,0.49,0.02,0,3.711,-0.132,0.046,0.110,0.010,-0.003,0.000,0.000,0.000,0.000
1325,-0.0041,-0.1269,0.0100,0.0190,0.0280,-0.0040,-0.65,0.52,0.02,0,3.716,0.133,0.029,0.252,0.011,-0.002,0.000,0.000,0.000,0.000
1377,-0.0032,-0.1314,0.0096,0.0186,-0.0020,-0.0047,-0.38,0.51,0.03,0,3.711,-0.049,0.021,-0.124,0.009,-0.001,0.000,0.000,0.000,0.000
1427,-0.0028,-0.1348,0.0106,0.0158,-0.0163,0.0011,-0.32,0.57,0.02,0,3.721,-0.084,0.125,-0.122,0.009,-0.003,0.000,0.000,0.000,0.000
1479,-0.0022,-0.1337,0.0104,0.0149,-0.0052,-0.0009,-0.58,0.56,0.02,0,3.711,-0.132,-0.111,-0.137,0.010,-0.003,0.000,0.000,0.000,0.000
1530,-0.0022,-0.1249,0.0096,0.0112,0.0417,-0.0053,-0.68,0.55,0.02,0,3.716,0.248,-0.033,-0.234,0.011,-0.002,0.000,0.000,0.000,0.000
1580,-0.0021,-0.1245,0.0112,0.0082,0.0375,0.0035,-0.51,0.53,0.02,0,3.711,0.091,0.193,-0.342,0.009,-0.002,0.000,0.000,0.000,0.000
1632,-0.0015,-0.1257,0.0109,0.0086,0.0249,0.0011,-0.48,0.58,0.02,0,3.721,0.177,-0.022,-0.205,0.011,-0.002,0.000,0.000,0.000,0.000
1683,0.0012,-0.1264,0.0116,0.0219,0.0168,0.0040,-0.38,0.53,0.02,0,3.711,0.032,0.149,0.193,0.008,-0.006,0.000,0.000,0.000,0.000
1734,0.0009,-0.1180,0.0105,0.0158,0.0568,-0.0018,-0.62,0.56,0.02,0,3.289,-0.096,-0.682,-0.223,0.018,-0.007,0.000,0.000,0.000,0.000
1785,0.0019,-0.1136,0.0090,0.0160,0.0710,-0.0083,-0.78,0.52,0.02,0,3.357,0.463,0.323,1.360,0.011,-0.004,0.000,0.000,0.000,0.000
1836,0.0015,-0.1183,0.0078,0.0058,0.0325,-0.0102,-0.10,0.55,0.00,0,3.436,-0.616,1.268,-2.190,-0.004,-0.008,0.000,0.000,0.000,0.000
1887,-0.0014,-0.1313,0.0078,-0.0146,-0.0376,-0.0066,-0.09,0.71,-0.11,0,3.452,-2.575,-2.553,-7.234,-0.019,-0.008,0.000,0.000,0.000,0.000
1938,-0.0004,-0.1210,0.0092,-0.0113,0.0212,-0.0013,-0.17,0.64,-0.41,0,3.473,-1.323,-2.153,-22.553,0.012,0.003,0.000,0.000,0.000,0.000
1989,0.0007,-0.1229,0.0098,-0.0075,0.0092,0.0016,-0.38,0.69,-1.37,0,3.473,0.706,2.452,-30.187,-0.001,-0.005,0.000,0.000,0.000,0.000
2040,0.0003,-0.1223,0.0090,-0.0123,0.0120,-0.0043,-0.20,0.69,-2.68,0,3.479,-1.302,-2.405,-13.321,0.000,-0.001,0.000,0.000,0.000,0.000
2091,-0.0001,-0.1221,0.0088,-0.0153,0.0122,-0.0044,-0.31,0.73,-3.33,0,3.473,1.877,5.066,-5.354,0.013,-0.006,0.000,0.000,0.000,0.000
2141,-0.0003,-0.1220,0.0109,-0.0171,0.0116,0.0061,-0.01,0.68,-3.70,0,3.479,12.157,5.492,1.876,0.010,-0.011,0.000,0.000,0.000,0.000
2193,-0.0031,-0.1158,0.0102,-0.0321,0.0448,0.0040,-0.39,0.73,-3.67,0,3.463,0.307,-16.972,-2.196,-0.003,-0.037,0.000,0.000,0.000,0.000
2243,-0.0048,-0.1062,0.0081,-0.0373,0.0825,-0.0038,-0.48,0.52,-3.61,0,3.473,3.567,-3.805,-5.057,0.002,-0.010,0.000,0.000,0.000,0.000
2294,-0.0057,-0.0986,0.0077,-0.0364,0.1020,-0.0060,-0.55,0.28,-3.73,0,3.457,-6.470,6.462,5.337,-0.001,-0.007,0.000,0.000,0.000,0.000
2346,-0.0044,-0.0932,0.0084,-0.0237,0.1024,-0.0115,-0.36,0.15,-3.57,0,3.468,9.952,14.022,-3.765,0.004,-0.003,0.000,0.000,0.000,0.000
2397,-0.0038,-0.0921,0.0100,-0.0162,0.0851,0.0017,-0.03,0.16,-3.77,0,3.452,14.099,-4.995,-7.881,0.006,-0.001,0.000,0.000,0.000,0.000
2448,-0.0046,-0.0963,0.0111,-0.0164,0.0433,0.0153,0.63,-0.02,-4.16,0,3.457,2.106,3.170,4.531,-0.004,0.002,0.000,0.000,0.000,0.000
2499,-0.0027,-0.1036,0.0107,-0.0034,-0.0116,0.0046,1.30,-0.19,-4.11,0,3.442,1.555,-1.796,6.851,0.015,-0.008,0.000,0.000,0.000,0.000
2550,-0.0005,-0.1143,0.0087,0.0086,-0.0712,-0.0138,1.49,-0.15,-3.77,0,3.447,-7.457,-7.282,8.941,0.001,-0.007,0.000,0.000,0.000,0.000
2600,-0.0045,-0.1353,0.0051,-0.0152,-0.1702,-0.0276,1.38,0.35,-3.28,0,3.436,-9.837,-23.832,13.663,0.015,-0.003,0.000,0.000,0.000,0.000
2652,-0.0035,-0.1403,0.0067,-0.0092,-0.1608,-0.0110,0.57,0.55,-2.81,0,3.442,-11.424,-0.671,9.253,0.018,0.004,0.000,0.000,0.000,0.000
2704,-0.0043,-0.1447,0.0085,-0.0159,-0.1479,0.0069,0.09,0.59,-2.39,0,3.431,-8.151,0.259,11.038,0.011,-0.025,0.000,0.000,0.000,0.000
2755,-0.0048,-0.1586,0.0063,-0.0189,-0.1810,-0.0098,-0.21,0.52,-1.90,0,3.436,-17.508,-15.320,1.978,0.025,-0.018,0.000,0.000,0.000,0.000
2806,-0.0019,-0.1696,0.0076,-0.0022,-0.1845,0.0106,-1.19,0.46,-1.81,0,3.426,-40.419,28.444,4.692,0.022,-0.036,0.000,0.000,0.000,0.000
2857,0.0088,-0.1699,0.0099,0.0475,-0.1270,0.0250,-3.45,-0.61,-1.57,0,3.431,17.903,3.292,12.073,0.014,-0.030,0.000,0.000,0.000,0.000
2908,0.0226,-0.1615,0.0122,0.1104,-0.0243,0.0362,-3.41,-1.09,-1.05,0,3.421,11.800,-27.181,1.891,0.007,-0.031,0.000,0.000,0.000,0.000
2959,0.0301,-0.1393,0.0050,0.1304,0.1197,-0.0080,-3.65,-0.18,-0.93,0,3.405,64.153,-43.369,5.086,-0.001,-0.026,0.000,0.000,0.000,0.000
3010,0.0385,-0.1183,-0.0018,0.1409,0.2161,-0.0282,-2.12,1.42,-0.76,0,3.389,69.963,-20.368,11.896,0.011,-0.024,0.000,0.000,0.000,0.000
3061,0.0437,-0.0845,-0.0088,0.1203,0.3328,-0.0299,1.32,2.74,-0.40,0,3.399,34.174,-3.905,16.204,0.015,-0.016,0.000,0.000,0.000,0.000
3112,0.0367,-0.0709,-0.0032,0.0310,0.2995,0.0395,3.38,3.61,0.12,0,3.394,36.705,20.146,13.253,0.011,-0.009,0.000,0.000,0.000,0.000
3163,0.0331,-0.0669,0.0032,-0.0191,0.2093,0.0909,5.85,2.89,0.63,0,3.405,-20.590,30.771,12.468,-0.004,-0.011,0.000,0.000,0.000,0.000
3214,0.0274,-0.0643,0.0091,-0.0678,0.1226,0.1112,5.53,2.20,1.49,0,3.399,-6.871,36.426,5.024,0.004,-0.010,0.000,0.000,0.000,0.000
3265,0.0134,-0.0714,0.0149,-0.1369,0.0114,0.1235,5.62,0.87,1.96,0,3.405,-53.354,31.815,3.915,0.010,-0.008,0.000,0.000,0.000,0.000
3316,0.0101,-0.0768,0.0263,-0.1144,-0.0569,0.1381,3.66,-1.06,2.03,0,3.394,-46.538,3.900,3.790,0.011,-0.002,0.000,0.000,0.000,0.000
3367,0.0053,-0.0918,0.0347,-0.1003,-0.1441,0.1432,1.74,-1.48,2.15,0,3.405,-20.845,19.650,1.452,0.011,-0.002,0.000,0.000,0.000,0.000
3418,-0.0005,-0.1068,0.0442,-0.0911,-0.1933,0.1443,0.64,-2.52,2.32,0,3.389,-47.757,11.707,2.172,0.003,-0.001,0.000,0.000,0.000,0.000
3469,-0.0056,-0.1223,0.0536,-0.0736,-0.2242,0.1362,-0.91,-3.27,2.53,0,3.399,-26.389,1.503,2.563,0.004,0.005,0.000,0.000,0.000,0.000
3520,-0.0080,-0.1341,0.0640,-0.0421,-0.2146,0.1470,-2.70,-3.48,2.60,0,3.389,0.866,-16.880,1.122,0.008,-0.005,0.000,0.000,0.000,0.000
3571,-0.0095,-0.1400,0.0734,-0.0144,-0.1654,0.1522,-3.09,-2.89,2.52,0,3.394,-7.580,-6.402,3.708,0.008,-0.001,0.000,0.000,0.000,0.000
3622,-0.0119,-0.1378,0.0846,-0.0006,-0.0846,0.1642,-3.82,-2.51,2.43,0,3.384,16.867,-14.741,4.108,0.006,-0.005,0.000,0.000,0.000,0.000
3673,-0.0116,-0.1400,0.0911,0.0181,-0.0479,0.1504,-3.35,-1.91,2.60,0,3.389,18.861,-11.761,3.928,0.005,-0.009,0.000,0.000,0.000,0.000
3724,-0.0133,-0.1460,0.0978,0.0178,-0.0428,0.1346,-2.08,-1.19,2.91,0,3.373,-4.405,-9.433,-1.180,0.010,-0.012,0.000,0.000,0.000,0.000
3775,-0.0084,-0.1498,0.1016,0.0439,-0.0352,0.1113,-1.81,-1.01,3.05,0,3.373,9.969,-20.307,-2.158,0.015,-0.008,0.000,0.000,0.000,0.000
3826,-0.0021,-0.1520,0.1071,0.0693,-0.0237,0.1107,-1.50,-0.42,3.07,0,3.362,8.199,-14.451,-2.602,-0.002,-0.012,0.000,0.000,0.000,0.000
3877,0.0027,-0.1535,0.1089,0.0766,-0.0148,0.0979,-0.98,0.46,3.03,0,3.357,-0.921,-14.389,-3.344,0.002,-0.009,0.000,0.000,0.000,0.000
3928,0.0072,-0.1549,0.1089,0.0741,-0.0105,0.0860,-0.90,1.35,2.88,0,3.352,7.524,-4.157,-4.094,0.008,-0.012,0.000,0.000,0.000,0.000
3979,0.0099,-0.1537,0.1111,0.0587,0.0049,0.0911,-0.60,1.56,2.69,0,3.357,0.953,-4.740,-4.205,0.006,-0.013,0.000,0.000,0.000,0.000
4030,0.0125,-0.1519,0.1162,0.0435,0.0173,0.1149,-0.50,1.81,2.47,0,3.352,6.367,4.295,-3.537,0.007,-0.004,0.000,0.000,0.000,0.000
4081,0.0162,-0.1509,0.1229,0.0364,0.0217,0.1392,-0.31,1.64,2.30,0,3.357,7.403,1.872,-1.973,0.011,-0.008,0.000,0.000,0.000,0.000
4132,0.0185,-0.1500,0.1305,0.0255,0.0218,0.1649,0.09,1.45,2.20,0,3.352,1.305,5.793,-1.720,0.011,-0.015,0.000,0.000,0.000,0.000
4183,0.0186,-0.1504,0.1366,0.0092,0.0139,0.1762,0.18,1.03,2.14,0,3.362,-1.326,10.299,-3.243,0.011,-0.010,0.000,0.000,0.000,0.000
4234,0.0262,-0.1476,0.1469,0.0298,0.0205,0.2003,0.15,0.55,1.98,0,3.357,5.919,0.042,-5.461,0.014,-0.007,0.000,0.000,0.000,0.000
4285,0.0262,-0.1470,0.1569,0.0194,0.0168,0.2177,0.45,0.50,1.70,0,3.368,-1.320,-2.550,-6.532,0.009,-0.009,0.000,0.000,0.000,0.000
4336,0.0262,-0.1458,0.1689,0.0113,0.0145,0.2324,0.43,0.56,1.41,0,3.368,-1.747,3.666,-7.526,0.009,-0.012,0.000,0.000,0.000,0.000
4387,0.0248,-0.1453,0.1808,-0.0018,0.0105,0.2381,0.34,0.75,1.07,0,3.373,1.310,5.602,-7.626,0.008,-0.008,0.000,0.000,0.000,0.000
4438,0.0178,-0.1435,0.1928,-0.0318,0.0125,0.2385,0.37,0.35,0.66,0,3.373,3.816,12.868,-8.894,0.007,-0.010,0.000,0.000,0.000,0.000
4489,0.0184,-0.1427,0.2034,-0.0263,0.0110,0.2399,0.52,-0.40,0.26,0,3.384,3.099,3.861,-7.248,0.008,-0.008,0.000,0.000,0.000,0.000
4540,0.0284,-0.1446,0.2208,0.0191,-0.0030,0.2416,0.63,-0.96,-0.15,0,3.378,-2.597,-8.202,-6.476,0.010,-0.011,0.000,0.000,0.000,0.000
4590,0.0302,-0.1464,0.2342,0.0291,-0.0130,0.2316,0.49,-0.55,-0.47,0,3.384,-5.763,-6.847,-5.802,0.008,-0.013,0.000,0.000,0.000,0.000
4642,0.0292,-0.1434,0.2457,0.0248,-0.0036,0.2121,0.21,-0.00,-0.75,0,3.373,-3.095,-0.920,-4.027,0.005,-0.012,0.000,0.000,0.000,0.000
4693,0.0272,-0.1507,0.2506,0.0154,-0.0262,0.1673,0.08,0.06,-0.99,0,3.373,-4.351,0.578,-3.808,0.011,-0.009,0.000,0.000,0.000,0.000
4744,0.0283,-0.1522,0.2565,0.0161,-0.0272,0.1369,-0.13,0.01,-1.18,0,3.362,-4.715,-4.471,-2.791,0.010,-0.008,0.000,0.000,0.000,0.000
4795,0.0295,-0.1527,0.2611,0.0171,-0.0231,0.1114,-0.36,0.16,-1.32,0,3.368,-2.102,-0.932,-0.182,0.007,-0.006,0.000,0.000,0.000,0.000
4845,0.0342,-0.1529,0.2680,0.0271,-0.0172,0.1066,-0.45,0.09,-1.34,0,3.357,2.623,-4.172,1.975,0.006,-0.012,0.000,0.000,0.000,0.000
4897,0.0353,-0.1530,0.2706,0.0265,-0.0125,0.0927,-0.34,0.27,-1.28,0,3.368,-3.315,-0.249,3.102,0.003,-0.011,0.000,0.000,0.000,0.000
4948,0.0401,-0.1536,0.2768,0.0344,-0.0097,0.0930,-0.37,0.32,-1.16,0,3.357,0.436,-0.384,4.779,0.008,-0.008,0.000,0.000,0.000,0.000
4999,0.0417,-0.1531,0.2815,0.0316,-0.0043,0.0883,-0.39,0.32,-0.94,0,3.368,4.339,-3.577,3.755,0.009,-0.013,0.000,0.000,0.000,0.000
5050,0.0440,-0.1527,0.2866,0.0306,0.0004,0.0871,-0.28,0.48,-0.74,0,3.362,-0.091,-0.307,4.686,0.007,-0.012,0.000,0.000,0.000,0.000
5100,0.0452,-0.1516,0.2916,0.0260,0.0053,0.0857,-0.22,0.56,-0.53,0,3.368,1.673,-1.893,4.686,0.006,-0.015,0.000,0.000,0.000,0.000
5151,0.0475,-0.1513,0.2970,0.0239,0.0072,0.0849,-0.16,0.59,-0.29,0,3.357,3.537,-0.721,5.038,0.005,-0.015,0.000,0.000,0.000,0.000
5203,0.0465,-0.1511,0.3019,0.0126,0.0079,0.0766,-0.02,0.64,-0.05,0,3.362,-1.297,2.197,4.635,0.003,-0.009,0.000,0.000,0.000,0.000
5254,0.0508,-0.1484,0.3049,0.0175,0.0135,0.0702,0.00,0.57,0.14,0,3.357,-1.178,2.082,2.632,0.010,-0.008,0.000,0.000,0.000,0.000
5305,0.0508,-0.1473,0.3079,0.0109,0.0141,0.0624,0.08,0.49,0.26,0,3.362,-0.019,2.538,2.159,0.006,-0.013,0.000,0.000,0.000,0.000
5356,0.0493,-0.1455,0.3112,0.0016,0.0155,0.0547,0.11,0.43,0.35,0,3.352,3.295,0.600,-0.021,0.004,-0.012,0.000,0.000,0.000,0.000
5406,0.0487,-0.1451,0.3147,-0.0026,0.0143,0.0579,0.16,0.35,0.41,0,3.357,-1.463,2.453,1.599,0.004,-0.010,0.000,0.000,0.000,0.000
5458,0.0485,-0.1435,0.3158,-0.0057,0.0148,0.0467,0.20,0.27,0.45,0,3.352,-0.253,2.393,0.345,0.006,-0.011,0.000,0.000,0.000,0.000
5509,0.0483,-0.1421,0.3195,-0.0075,0.0146,0.0504,0.24,0.13,0.46,0,3.357,-0.871,2.149,-0.367,0.005,-0.013,0.000,0.000,0.000,0.000
5560,0.0486,-0.1398,0.3219,-0.0073,0.0157,0.0471,0.29,0.05,0.42,0,3.352,0.077,0.757,-0.023,0.010,-0.010,0.000,0.000,0.000,0.000
5611,0.0490,-0.1417,0.3245,-0.0062,0.0083,0.0444,0.26,0.00,0.42,0,3.357,0.610,2.201,0.231,0.007,-0.012,0.000,0.000,0.000,0.000
5662,0.0499,-0.1406,0.3267,-0.0036,0.0072,0.0395,0.29,-0.09,0.41,0,3.352,0.671,-0.375,-0.543,0.007,-0.010,0.000,0.000,0.000,0.000
5713,0.0450,-0.1443,0.3295,-0.0121,-0.0029,0.0384,0.23,-0.00,0.42,0,3.362,-1.976,1.771,-1.440,0.005,-0.012,0.000,0.000,0.000,0.000
5764,0.0403,-0.1409,0.3338,-0.0196,0.0019,0.0433,0.09,-0.13,0.37,0,3.347,0.647,4.552,-0.404,0.009,-0.011,0.000,0.000,0.000,0.000
5815,0.0403,-0.1417,0.3327,-0.0165,-0.0006,0.0222,0.06,-0.31,0.35,0,3.347,-0.303,-1.154,-0.623,0.010,-0.012,0.000,0.000,0.000,0.000
5866,0.0404,-0.1415,0.3312,-0.0121,-0.0006,0.0062,0.01,-0.30,0.32,0,3.341,1.258,2.655,-1.516,0.008,-0.012,0.000,0.000,0.000,0.000
5917,0.0383,-0.1404,0.3313,-0.0122,0.0014,0.0039,0.01,-0.30,0.25,0,3.347,0.398,-1.567,-2.008,0.006,-0.011,0.000,0.000,0.000,0.000
5968,0.0362,-0.1392,0.3308,-0.0124,0.0034,0.0019,-0.04,-0.27,0.16,0,3.341,4.557,2.374,-2.178,0.006,-0.013,0.000,0.000,0.000,0.000
6019,0.0356,-0.1395,0.3316,-0.0102,0.0028,0.0073,0.10,-0.27,0.06,0,3.352,0.943,-0.992,-2.521,0.005,-0.010,0.000,0.000,0.000,0.000
6070,0.0354,-0.1399,0.3332,-0.0077,0.0011,0.0160,0.17,-0.18,-0.06,0,3.341,0.562,-0.338,-2.115,0.007,-0.007,0.000,0.000,0.000,0.000
6121,0.0385,-0.1372,0.3339,0.0005,0.0046,0.0185,0.14,-0.15,-0.18,0,3.347,2.239,-1.814,-2.759,0.006,-0.013,0.000,0.000,0.000,0.000
6172,0.0382,-0.1372,0.3354,0.0014,0.0031,0.0228,0.16,-0.12,-0.30,0,3.341,0.844,-2.470,-1.916,0.005,-0.011,0.000,0.000,0.000,0.000
6223,0.0407,-0.1342,0.3373,0.0072,0.0069,0.0277,0.20,-0.03,-0.41,0,3.352,0.461,-2.196,-1.795,0.003,-0.010,0.000,0.000,0.000,0.000
6274,0.0399,-0.1343,0.3374,0.0055,0.0046,0.0221,0.19,0.07,-0.50,0,3.341,1.859,-0.301,-1.739,0.007,-0.011,0.000,0.000,0.000,0.000
6325,0.0397,-0.1345,0.3392,0.0041,0.0023,0.0250,0.31,0.15,-0.61,0,3.352,-1.734,0.602,-1.517,0.006,-0.015,0.000,0.000,0.000,0.000
6376,0.0422,-0.1398,0.3402,0.0067,-0.0093,0.0237,0.20,0.15,-0.71,0,3.341,-2.531,-0.993,-1.313,0.006,-0.011,0.000,0.000,0.000,0.000
6427,0.0410,-0.1443,0.3421,0.0027,-0.0182,0.0246,0.08,0.20,-0.78,0,3.347,-2.335,-0.565,-0.860,0.006,-0.010,0.000,0.000,0.000,0.000
6478,0.0395,-0.1454,0.3431,-0.0019,-0.0190,0.0220,-0.06,0.22,-0.82,0,3.341,-0.900,1.530,-0.179,0.005,-0.012,0.000,0.000,0.000,0.000
6529,0.0394,-0.1463,0.3440,-0.0037,-0.0185,0.0196,-0.16,0.13,-0.82,0,3.347,-1.529,-0.722,0.086,0.005,-0.008,0.000,0.000,0.000,0.000
6580,0.0365,-0.1457,0.3443,-0.0094,-0.0144,0.0152,-0.25,0.10,-0.80,0,3.341,-0.871,1.705,1.232,0.006,-0.009,0.000,0.000,0.000,0.000
6631,0.0401,-0.1468,0.3453,-0.0033,-0.0130,0.0155,-0.26,0.02,-0.75,0,3.347,-1.911,2.121,1.426,0.006,-0.012,0.000,0.000,0.000,0.000
6682,0.0325,-0.1553,0.3479,-0.0159,-0.0244,0.0208,-0.19,-0.00,-0.70,0,3.341,-4.138,2.223,0.630,0.005,-0.009,0.000,0.000,0.000,0.000
6733,0.0329,-0.1577,0.3493,-0.0138,-0.0247,0.0187,-0.30,-0.14,-0.65,0,3.341,0.796,2.332,1.991,0.006,-0.008,0.000,0.000,0.000,0.000
6784,0.0347,-0.1631,0.3490,-0.0086,-0.0295,0.0105,-0.37,-0.24,-0.57,0,3.336,-0.105,-1.917,-0.213,0.006,-0.010,0.000,0.000,0.000,0.000
6835,0.0331,-0.1635,0.3499,-0.0084,-0.0246,0.0113,-0.46,-0.18,-0.53,0,3.347,-3.190,0.233,0.796,0.006,-0.010,0.000,0.000,0.000,0.000
6886,0.0301,-0.1599,0.3520,-0.0116,-0.0127,0.0151,-0.53,-0.18,-0.53,0,3.336,4.051,-0.483,-1.225,0.007,-0.010,0.000,0.000,0.000,0.000
6937,0.0298,-0.1560,0.3516,-0.0098,-0.0007,0.0075,-0.47,-0.20,-0.55,0,3.341,2.015,1.325,0.701,0.009,-0.014,0.000,0.000,0.000,0.000
6988,0.0297,-0.1528,0.3511,-0.0075,0.0087,0.0024,-0.35,-0.20,-0.56,0,3.336,0.625,-0.034,-0.029,0.007,-0.010,0.000,0.000,0.000,0.000
7040,0.0251,-0.1533,0.3490,-0.0127,0.0100,-0.0082,-0.23,-0.20,-0.55,0,3.336,5.043,1.801,0.939,0.004,-0.010,0.000,0.000,0.000,0.000
7091,0.0263,-0.1501,0.3476,-0.0078,0.0163,-0.0122,0.02,-0.30,-0.52,0,3.331,3.167,-1.669,0.385,0.005,-0.010,0.000,0.000,0.000,0.000
7142,0.0278,-0.1472,0.3478,-0.0024,0.0198,-0.0067,0.12,-0.26,-0.50,0,3.341,-0.760,-2.137,0.328,0.004,-0.013,0.000,0.000,0.000,0.000
7193,0.0273,-0.1468,0.3492,-0.0011,0.0178,0.0028,0.09,-0.14,-0.48,0,3.331,-2.056,-0.190,1.698,0.002,-0.013,0.000,0.000,0.000,0.000
7244,0.0273,-0.1459,0.3514,0.0002,0.0170,0.0141,0.05,-0.11,-0.41,0,3.336,-0.161,-1.527,1.551,0.003,-0.009,0.000,0.000,0.000,0.000
7295,0.0271,-0.1456,0.3530,0.0007,0.0157,0.0221,0.01,-0.05,-0.33,0,3.331,2.899,-0.983,0.288,0.004,-0.013,0.000,0.000,0.000,0.000
7346,0.0272,-0.1467,0.3530,0.0012,0.0125,0.0213,0.01,-0.04,-0.26,0,3.336,1.360,0.183,1.123,0.005,-0.014,0.000,0.000,0.000,0.000
7397,0.0272,-0.1460,0.3531,0.0016,0.0124,0.0185,0.01,-0.06,-0.23,0,3.331,-0.408,-0.448,0.015,0.005,-0.019,0.000,0.000,0.000,0.000
7448,0.0269,-0.1459,0.3555,0.0014,0.0115,0.0260,-0.00,0.01,-0.22,0,3.336,-0.204,-0.807,-0.554,0.002,-0.011,0.000,0.000,0.000,0.000
7500,0.0190,-0.1458,0.3556,-0.0117,0.0107,0.0218,-0.04,0.04,-0.23,0,3.326,-0.727,1.125,0.025,0.002,-0.012,0.000,0.000,0.000,0.000
7550,0.0184,-0.1435,0.3573,-0.0122,0.0137,0.0246,-0.09,0.08,-0.24,0,3.336,0.836,2.793,0.625,0.001,-0.011,0.000,0.000,0.000,0.000
7602,0.0110,-0.1409,0.3574,-0.0235,0.0170,0.0193,-0.01,0.00,-0.23,0,3.326,-0.910,-1.189,-0.288,0.004,-0.013,0.000,0.000,0.000,0.000
7653,0.0085,-0.1425,0.3586,-0.0255,0.0133,0.0210,-0.02,0.01,-0.24,0,3.326,-1.037,-0.576,0.240,0.002,-0.011,0.000,0.000,0.000,0.000
7704,0.0116,-0.1452,0.3594,-0.0184,0.0079,0.0222,-0.06,0.01,-0.23,0,3.320,-0.470,1.510,0.339,0.005,-0.012,0.000,0.000,0.000,0.000
7755,0.0080,-0.1409,0.3603,-0.0229,0.0150,0.0237,-0.08,-0.04,-0.22,0,3.331,-0.982,-0.698,-0.230,0.003,-0.012,0.000,0.000,0.000,0.000
7806,0.0072,-0.1423,0.3614,-0.0220,0.0122,0.0271,-0.08,-0.04,-0.22,0,3.326,-0.179,-2.049,0.450,0.004,-0.011,0.000,0.000,0.000,0.000
7857,0.0031,-0.1451,0.3609,-0.0267,0.0075,0.0221,-0.11,0.03,-0.20,0,3.331,0.413,1.291,1.277,0.001,-0.010,0.000,0.000,0.000,0.000
7908,0.0020,-0.1450,0.3627,-0.0264,0.0079,0.0291,-0.12,-0.03,-0.16,0,3.320,-0.896,1.169,0.801,0.002,-0.016,0.000,0.000,0.000,0.000
7959,-0.0015,-0.1446,0.3648,-0.0297,0.0088,0.0358,-0.15,-0.08,-0.11,0,3.331,-0.111,-3.787,0.969,0.004,-0.012,0.000,0.000,0.000,0.000
8010,-0.0045,-0.1461,0.3683,-0.0318,0.0068,0.0474,-0.16,-0.02,-0.07,0,3.326,0.841,1.162,1.127,0.002,-0.015,0.000,0.000,0.000,0.000
8061,-0.0069,-0.1459,0.3699,-0.0331,0.0078,0.0457,-0.14,0.00,-0.02,0,3.331,-1.140,0.875,2.159,0.003,-0.006,0.000,0.000,0.000,0.000
8112,-0.0076,-0.1488,0.3732,-0.0313,0.0036,0.0511,-0.17,-0.07,0.06,0,3.326,-2.235,0.329,1.176,0.005,-0.012,0.000,0.000,0.000,0.000
8163,-0.0083,-0.1533,0.3765,-0.0294,-0.0030,0.0542,-0.20,-0.02,0.09,0,3.331,-0.052,2.644,0.849,0.005,-0.012,0.000,0.000,0.000,0.000
8213,-0.0164,-0.1499,0.3794,-0.0407,0.0046,0.0547,-0.18,0.07,0.09,0,3.320,1.224,1.220,-0.814,0.003,-0.013,0.000,0.000,0.000,0.000
8264,-0.0172,-0.1501,0.3816,-0.0390,0.0053,0.0515,-0.18,0.01,0.05,0,3.326,0.787,-0.389,-1.233,0.004,-0.010,0.000,0.000,0.000,0.000
8316,-0.0190,-0.1517,0.3838,-0.0387,0.0037,0.0492,-0.16,-0.01,-0.00,0,3.320,-1.695,-0.045,-1.099,0.004,-0.014,0.000,0.000,0.000,0.000
8366,-0.0213,-0.1529,0.3851,-0.0393,0.0025,0.0435,-0.15,-0.06,-0.03,0,3.326,-0.646,0.002,-0.726,0.005,-0.013,0.000,0.000,0.000,0.000
8418,-0.0244,-0.1526,0.3877,-0.0408,0.0044,0.0471,-0.23,0.03,-0.08,0,3.315,-0.310,0.339,-1.039,0.003,-0.014,0.000,0.000,0.000,0.000
8469,-0.0315,-0.1548,0.3890,-0.0492,0.0023,0.0437,-0.19,0.01,-0.13,0,3.320,-0.239,-0.695,0.019,0.005,-0.009,0.000,0.000,0.000,0.000
8520,-0.0331,-0.1530,0.3903,-0.0478,0.0067,0.0424,-0.19,-0.06,-0.12,0,3.315,-0.681,-1.428,-0.508,0.007,-0.013,0.000,0.000,0.000,0.000
8571,-0.0322,-0.1545,0.3921,-0.0416,0.0051,0.0436,-0.19,-0.09,-0.12,0,3.326,1.380,-1.086,-0.057,0.004,-0.015,0.000,0.000,0.000,0.000
8622,-0.0344,-0.1526,0.3958,-0.0411,0.0094,0.0525,-0.18,-0.06,-0.13,0,3.315,0.172,1.046,0.672,0.005,-0.012,0.000,0.000,0.000,0.000
8673,-0.0375,-0.1464,0.3978,-0.0424,0.0206,0.0511,-0.19,-0.08,-0.10,0,3.326,-0.651,-2.101,0.418,0.002,-0.014,0.000,0.000,0.000,0.000
8724,-0.0384,-0.1517,0.4030,-0.0396,0.0116,0.0647,-0.17,-0.08,-0.08,0,3.315,-1.095,-1.033,0.950,0.005,-0.012,0.000,0.000,0.000,0.000
8775,-0.0390,-0.1485,0.4054,-0.0368,0.0173,0.0621,-0.19,-0.05,-0.06,0,3.326,0.325,1.106,1.349,0.003,-0.011,0.000,0.000,0.000,0.000
8826,-0.0392,-0.1485,0.4099,-0.0337,0.0174,0.0688,-0.19,-0.07,-0.01,0,3.315,1.471,-1.982,0.959,0.005,-0.013,0.000,0.000,0.000,0.000
8877,-0.0413,-0.1469,0.4141,-0.0335,0.0201,0.0734,-0.15,-0.07,0.06,0,3.320,-1.173,-3.004,0.271,0.007,-0.015,0.000,0.000,0.000,0.000
8928,-0.0422,-0.1447,0.4162,-0.0318,0.0233,0.0675,-0.15,-0.05,0.08,0,3.315,1.044,1.619,0.731,0.004,-0.014,0.000,0.000,0.000,0.000
8979,-0.0438,-0.1435,0.4192,-0.0314,0.0246,0.0663,-0.13,-0.05,0.09,0,3.320,2.308,0.507,0.364,0.001,-0.012,0.000,0.000,0.000,0.000
9030,-0.0487,-0.1429,0.4250,-0.0365,0.0244,0.0776,-0.05,-0.04,0.12,0,3.310,0.983,2.297,0.900,0.003,-0.014,0.000,0.000,0.000,0.000
9081,-0.0480,-0.1423,0.4289,-0.0320,0.0237,0.0799,-0.02,-0.01,0.16,0,3.315,-2.216,-1.453,-0.262,0.004,-0.015,0.000,0.000,0.000,0.000
9132,-0.0614,-0.1384,0.4316,-0.0504,0.0284,0.0778,-0.10,0.04,0.16,0,3.310,-0.357,2.416,-0.637,0.005,-0.010,0.000,0.000,0.000,0.000
9183,-0.0647,-0.1375,0.4363,-0.0519,0.0284,0.0848,-0.09,-0.07,0.14,0,3.320,-0.752,-1.767,-0.407,0.003,-0.014,0.000,0.000,0.000,0.000
9233,-0.0665,-0.1315,0.4401,-0.0511,0.0369,0.0887,-0.12,-0.10,0.11,0,3.310,1.705,-0.315,-0.430,0.004,-0.013,0.000,0.000,0.000,0.000
9285,-0.0632,-0.1325,0.4421,-0.0409,0.0334,0.0800,-0.02,-0.15,0.08,0,3.315,0.610,-1.127,-0.758,0.002,-0.013,0.000,0.000,0.000,0.000
9336,-0.0620,-0.1315,0.4481,-0.0339,0.0321,0.0875,0.02,-0.06,0.04,0,3.310,0.122,-0.351,-0.910,0.001,-0.011,0.000,0.000,0.000,0.000
9387,-0.0649,-0.1312,0.4524,-0.0353,0.0299,0.0884,0.02,-0.02,-0.01,0,3.320,1.072,0.268,-0.194,0.004,-0.012,0.000,0.000,0.000,0.000
9438,-0.0633,-0.1325,0.4556,-0.0299,0.0256,0.0834,0.06,-0.08,-0.05,0,3.310,0.784,-1.829,-1.483,0.004,-0.015,0.000,0.000,0.000,0.000
9489,-0.0657,-0.1323,0.4605,-0.0309,0.0233,0.0872,0.10,-0.07,-0.10,0,3.315,-1.810,0.024,-0.536,0.002,-0.013,0.000,0.000,0.000,0.000
9539,-0.0584,-0.1319,0.4636,-0.0168,0.0215,0.0828,0.01,-0.05,-0.16,0,3.304,2.275,2.803,-0.239,0.005,-0.008,0.000,0.000,0.000,0.000
9591,-0.0608,-0.1310,0.4686,-0.0186,0.0209,0.0893,0.05,-0.08,-0.18,0,3.315,-0.221,0.032,-1.512,0.003,-0.009,0.000,0.000,0.000,0.000
9642,-0.0594,-0.1310,0.4734,-0.0143,0.0188,0.0936,0.08,-0.07,-0.23,0,3.310,-0.008,-0.833,0.099,0.003,-0.011,0.000,0.000,0.000,0.000
9693,-0.0581,-0.1273,0.4780,-0.0109,0.0230,0.0984,0.07,-0.07,-0.25,0,3.315,-0.574,2.491,-0.241,0.006,-0.014,0.000,0.000,0.000,0.000
9744,-0.0554,-0.1243,0.4844,-0.0054,0.0258,0.1041,0.08,-0.14,-0.28,0,3.304,-1.141,-3.092,-1.298,0.002,-0.011,0.000,0.000,0.000,0.000
9795,-0.0559,-0.1294,0.4894,-0.0047,0.0158,0.1033,0.05,-0.08,-0.32,0,3.304,-0.826,-0.002,-0.650,0.006,-0.015,0.000,0.000,0.000,0.000
9846,-0.0562,-0.1075,0.4934,-0.0040,0.0488,0.1013,-0.14,-0.05,-0.34,0,3.299,-2.906,4.708,0.401,0.005,-0.013,0.000,0.000,0.000,0.000
9897,-0.0554,-0.1082,0.4964,-0.0021,0.0449,0.0992,-0.22,-0.07,-0.35,0,3.315,6.076,2.572,0.656,0.004,-0.011,0.000,0.000,0.000,0.000
9948,-0.0555,-0.1044,0.5004,-0.0015,0.0490,0.0990,-0.19,-0.07,-0.31,0,3.299,-1.162,1.853,0.534,0.004,-0.015,0.000,0.000,0.000,0.000
9999,-0.0571,-0.1060,0.5047,-0.0034,0.0446,0.1049,-0.20,-0.12,-0.26,0,3.310,2.251,-2.711,1.600,0.002,-0.014,0.000,0.000,0.000,0.000
10050,-0.0555,-0.1039,0.5112,0.0002,0.0458,0.1150,-0.14,-0.01,-0.17,0,3.310,1.265,0.928,1.872,0.003,-0.011,0.000,0.000,0.000,0.000
10101,-0.0613,-0.1038,0.5196,-0.0088,0.0441,0.1240,-0.18,-0.03,-0.07,0,3.320,-0.754,2.770,1.886,0.006,-0.012,0.000,0.000,0.000,0.000
10151,-0.0605,-0.0980,0.5260,-0.0064,0.0507,0.1226,-0.16,-0.17,0.01,0,3.304,0.778,-2.957,0.136,0.004,-0.010,0.000,0.000,0.000,0.000
10203,-0.0612,-0.1046,0.5293,-0.0059,0.0383,0.1119,-0.15,-0.10,0.06,0,3.299,0.247,-3.198,0.329,0.003,-0.011,0.000,0.000,0.000,0.000
10254,-0.0599,-0.1014,0.5357,-0.0026,0.0411,0.1149,-0.05,-0.06,0.09,0,3.294,1.884,-3.505,0.716,0.002,-0.015,0.000,0.000,0.000,0.000
10304,-0.0629,-0.1057,0.5421,-0.0067,0.0312,0.1220,0.04,-0.07,0.12,0,3.304,-0.753,-0.419,0.830,0.004,-0.009,0.000,0.000,0.000,0.000
10356,-0.0499,-0.0998,0.5482,0.0145,0.0375,0.1291,0.03,-0.04,0.16,0,3.320,-2.623,1.258,1.371,0.004,-0.013,0.000,0.000,0.000,0.000
10407,-0.0537,-0.1040,0.5550,0.0080,0.0283,0.1323,0.05,-0.13,0.19,0,3.331,-2.321,0.588,1.073,0.003,-0.013,0.000,0.000,0.000,0.000
10458,-0.0469,-0.1047,0.5614,0.0188,0.0252,0.1216,-0.05,-0.13,0.22,0,3.326,0.573,2.350,1.386,0.006,-0.014,0.000,0.000,0.000,0.000
10509,-0.0471,-0.1152,0.5662,0.0182,0.0070,0.0988,-0.16,-0.23,0.28,0,3.336,1.257,2.156,1.139,0.000,-0.013,0.000,0.000,0.000,0.000
10560,-0.0443,-0.1130,0.5710,0.0228,0.0099,0.0741,-0.01,-0.29,0.33,0,3.331,-1.100,-2.289,0.099,0.004,-0.007,0.000,0.000,0.000,0.000
10610,-0.0451,-0.1112,0.5735,0.0221,0.0115,0.0397,-0.11,-0.24,0.39,0,3.336,-0.863,-0.724,0.452,0.003,-0.011,0.000,0.000,0.000,0.000
10662,-0.0462,-0.1102,0.5767,0.0207,0.0127,0.0128,-0.16,-0.30,0.45,0,3.331,1.095,0.056,0.880,0.007,-0.014,0.000,0.000,0.000,0.000
10713,-0.0462,-0.1110,0.5770,0.0211,0.0112,-0.0231,-0.08,-0.28,0.49,0,3.336,-1.112,0.649,1.083,0.005,-0.019,0.000,0.000,0.000,0.000
10764,-0.0490,-0.1003,0.5750,0.0172,0.0278,-0.0629,-0.13,-0.26,0.53,0,3.336,2.509,-0.443,1.444,0.003,-0.018,0.000,0.000,0.000,0.000
10815,-0.0460,-0.1130,0.5716,0.0227,0.0063,-0.1014,-0.07,-0.27,0.59,0,3.347,0.650,2.283,1.075,0.003,-0.012,0.000,0.000,0.000,0.000
10866,-0.0460,-0.1016,0.5652,0.0231,0.0238,-0.1472,-0.02,-0.33,0.65,0,3.341,1.657,-0.781,0.657,0.002,-0.009,0.000,0.000,0.000,0.000
10917,-0.0502,-0.1024,0.5576,0.0168,0.0211,-0.1920,0.06,-0.19,0.71,0,3.347,-0.305,1.827,1.966,0.002,-0.015,0.000,0.000,0.000,0.000
10968,-0.0479,-0.1028,0.5464,0.0204,0.0187,-0.2442,0.10,-0.18,0.76,0,3.336,-1.125,-0.347,0.064,0.004,-0.015,0.000,0.000,0.000,0.000
11019,-0.0474,-0.1066,0.5340,0.0208,0.0108,-0.2901,0.10,-0.14,0.78,0,3.336,1.885,-6.058,-1.114,0.002,-0.013,0.000,0.000,0.000,0.000
11070,-0.0481,-0.1071,0.5178,0.0190,0.0083,-0.3397,0.17,0.02,0.74,0,3.331,-1.970,0.183,-2.390,0.005,-0.014,0.000,0.000,0.000,0.000
11121,-0.0395,-0.1095,0.5011,0.0315,0.0027,-0.3766,0.10,-0.02,0.64,0,3.336,-0.197,-1.639,-2.341,0.004,-0.007,0.000,0.000,0.000,0.000
11172,-0.0415,-0.1139,0.4821,0.0261,-0.0056,-0.4121,0.02,-0.01,0.52,0,3.326,0.523,-0.398,-3.264,-0.000,-0.012,0.000,0.000,0.000,0.000
11223,-0.0339,-0.1165,0.4622,0.0362,-0.0097,-0.4406,0.03,-0.09,0.37,0,3.336,1.887,-2.615,-3.206,0.001,-0.016,0.000,0.000,0.000,0.000
11274,-0.0303,-0.1225,0.4389,0.0399,-0.0188,-0.4756,0.05,-0.10,0.22,0,3.331,2.365,-2.393,-2.579,0.002,-0.009,0.000,0.000,0.000,0.000
11325,-0.0410,-0.1082,0.4138,0.0195,0.0064,-0.5121,0.02,-0.01,0.09,0,3.347,-1.791,0.901,-0.722,-0.001,-0.012,0.000,0.000,0.000,0.000
11376,-0.0468,-0.1084,0.3858,0.0076,0.0054,-0.5575,0.03,0.12,0.03,0,3.347,-0.860,4.873,0.407,0.003,-0.010,0.000,0.000,0.000,0.000
11427,-0.0633,-0.1046,0.3577,-0.0214,0.0117,-0.5986,-0.04,-0.01,0.09,0,3.357,1.798,3.901,3.887,0.003,-0.016,0.000,0.000,0.000,0.000
11477,-0.0631,-0.1095,0.3236,-0.0194,0.0027,-0.6638,0.14,-0.22,0.28,0,3.352,3.018,-0.967,6.208,0.007,-0.012,0.000,0.000,0.000,0.000
11529,-0.0426,-0.0846,0.2911,0.0193,0.0441,-0.7150,-0.01,-0.43,0.59,0,3.362,-11.997,-2.763,8.692,-0.000,-0.004,0.000,0.000,0.000,0.000
11580,-0.0413,-0.0805,0.2526,0.0233,0.0475,-0.7886,-0.83,0.16,1.03,0,3.357,-2.030,-3.945,8.533,-0.002,-0.013,0.000,0.000,0.000,0.000
11631,-0.0601,-0.0733,0.2135,-0.0050,0.0568,-0.8472,-0.70,-0.06,1.48,0,3.373,10.469,-2.506,11.027,0.005,-0.016,0.000,0.000,0.000,0.000
11682,-0.0444,-0.0608,0.1609,0.0264,0.0821,-0.9551,-0.41,-0.20,2.02,0,3.362,-0.316,-10.357,9.784,0.001,-0.009,0.000,0.000,0.000,0.000
11733,-0.0351,-0.0569,0.1202,0.0450,0.0844,-0.9920,-0.30,0.19,2.52,0,3.373,-2.275,-22.185,6.509,0.008,-0.003,0.000,0.000,0.000,0.000
11783,-0.0387,-0.0708,0.0674,0.0140,0.0505,-1.0635,-0.32,1.40,2.82,0,3.362,80.405,386.120,-2.649,0.346,-0.212,0.000,0.000,0.000,0.000
11835,-0.0593,-0.0818,0.0178,-0.0873,0.0177,-0.8232,-0.51,0.63,2.54,0,3.357,-0.951,44.360,-9.605,-0.020,-0.013,0.000,0.000,0.000,0.000
11886,-0.0644,-0.0780,0.0072,-0.0783,0.0449,-0.0532,-1.02,-1.70,2.04,0,3.362,33.662,-10.019,-1.308,-0.003,-0.010,0.000,0.000,0.000,0.000
11937,-0.0678,-0.0730,0.0013,-0.0441,-0.0052,-0.1339,1.01,-1.70,1.96,0,3.362,-7.983,-23.809,5.863,0.002,-0.007,0.000,0.000,0.000,0.000
11988,-0.0728,-0.0750,0.0086,-0.0194,-0.0059,-0.1569,0.61,-0.67,2.13,0,3.347,-28.848,-12.798,6.797,-0.000,-0.001,0.000,0.000,0.000,0.000
