time_ms,pos_x,pos_y,pos_z,vel_x,vel_y,vel_z,roll,pitch,yaw,thrust,vbat,gyro_x,gyro_y,gyro_z,acc_x,acc_y,acc_z,rate_roll,rate_pitch,rate_yaw
0,0.0044,0.0321,0.0098,0.0127,-0.0317,0.0035,-0.02,0.56,0.30,0,3.964,0.022,-0.159,-0.236,0.011,-0.006,0.000,0.000,0.000,0.000
0,0.0044,0.0296,0.0101,0.0090,-0.0384,0.0040,-0.05,0.56,0.30,0,3.970,0.104,-0.548,0.319,0.010,-0.004,0.000,0.000,0.000,0.000
0,0.0048,0.0285,0.0103,0.0095,-0.0357,0.0050,-0.10,0.57,0.29,0,3.964,0.060,0.317,-0.234,0.013,-0.005,0.000,0.000,0.000,0.000
0,0.0049,0.0289,0.0087,0.0088,-0.0271,-0.0041,-0.15,0.57,0.28,0,3.975,0.164,0.028,-0.031,0.010,-0.006,0.000,0.000,0.000,0.000
0,0.0053,0.0279,0.0085,0.0098,-0.0267,-0.0035,0.13,0.53,0.30,0,3.964,0.071,-0.126,-0.147,0.011,-0.007,0.000,0.000,0.000,0.000
0,0.0068,0.0177,0.0079,0.0131,-0.0685,-0.0053,0.10,0.51,0.29,0,3.970,0.016,-0.017,-0.262,0.009,-0.004,0.000,0.000,0.000,0.000
0,0.0079,0.0131,0.0076,0.0158,-0.0791,-0.0061,0.25,0.53,0.33,0,3.964,0.263,0.268,0.138,0.011,-0.005,0.000,0.000,0.000,0.000
0,0.0075,0.0134,0.0092,0.0113,-0.0609,0.0051,0.36,0.44,0.29,0,3.970,0.053,0.254,0.217,0.012,-0.005,0.000,0.000,0.000,0.000
0,0.0116,0.0067,0.0097,0.0320,-0.0729,0.0079,-0.15,0.42,0.17,0,3.964,0.157,0.239,-0.202,0.011,-0.002,0.000,0.000,0.000,0.000
0,0.0117,0.0097,0.0100,0.0274,-0.0435,0.0074,-0.22,0.46,0.17,0,3.970,-0.134,-0.200,0.103,0.011,-0.002,0.000,0.000,0.000,0.000
0,0.0114,0.0140,0.0106,0.0228,-0.0121,0.0094,-0.39,0.50,0.13,0,3.964,-0.012,0.147,0.192,0.012,-0.005,0.000,0.000,0.000,0.000
0,0.0119,0.0154,0.0101,0.0214,-0.0005,0.0056,-0.42,0.55,0.11,0,3.970,0.287,0.285,-0.371,0.010,-0.004,0.000,0.000,0.000,0.000
0,0.0117,0.0146,0.0105,0.0158,-0.0038,0.0063,-0.41,0.58,0.11,0,3.964,0.238,0.173,-0.034,0.009,-0.003,0.000,0.000,0.000,0.000
0,0.0118,0.0143,0.0092,0.0134,-0.0030,-0.0009,-0.41,0.59,0.10,0,3.970,-0.030,-0.221,-0.160,0.012,-0.005,0.000,0.000,0.000,0.000
0,0.0124,0.0141,0.0092,0.0139,-0.0025,0.0001,-0.50,0.56,0.10,0,3.964,0.077,0.159,0.103,0.013,-0.004,0.000,0.000,0.000,0.000
0,0.0120,0.0164,0.0093,0.0101,0.0097,0.0018,-0.33,0.60,0.09,0,3.970,0.219,0.306,0.029,0.010,-0.006,0.000,0.000,0.000,0.000
0,0.0109,0.0072,0.0094,0.0018,-0.0390,0.0021,-0.14,0.70,0.03,0,3.964,0.061,-0.027,-0.014,0.012,-0.006,0.000,0.000,0.000,0.000
0,0.0101,0.0075,0.0101,-0.0017,-0.0291,0.0061,-0.56,0.74,0.03,0,3.970,-0.057,0.082,0.024,0.012,-0.004,0.000,0.000,0.000,0.000
0,0.0092,0.0145,0.0110,-0.0058,0.0090,0.0094,-0.54,0.73,0.03,0,3.964,0.003,0.088,-0.211,0.011,-0.004,0.000,0.000,0.000,0.000
0,0.0088,0.0166,0.0106,-0.0077,0.0173,0.0059,-0.78,0.68,0.11,0,3.970,0.177,0.113,-0.138,0.011,-0.004,0.000,0.000,0.000,0.000
0,0.0111,0.0254,0.0107,0.0011,0.0529,0.0053,-0.69,0.65,0.12,0,3.964,0.127,0.100,-0.137,0.008,-0.004,0.000,0.000,0.000,0.000
0,0.0101,0.0254,0.0101,-0.0031,0.0450,0.0023,-0.57,0.66,0.07,0,3.970,0.126,0.172,-0.118,0.012,-0.004,0.000,0.000,0.000,0.000
0,0.0113,0.0282,0.0102,0.0025,0.0503,0.0017,-0.57,0.73,-0.00,0,3.964,-0.207,0.119,-0.206,0.013,-0.003,0.000,0.000,0.000,0.000
0,0.0071,0.0277,0.0087,-0.0128,0.0429,-0.0045,-0.50,0.72,-0.00,0,3.970,-0.271,0.145,-0.142,0.012,-0.006,0.000,0.000,0.000,0.000
0,0.0087,0.0306,0.0085,-0.0042,0.0490,-0.0037,-0.15,0.72,-0.07,0,3.964,0.146,-0.057,0.195,0.011,-0.004,0.000,0.000,0.000,0.000
0,0.0059,0.0132,0.0096,-0.0109,-0.0398,0.0030,0.08,0.68,-0.10,0,3.970,0.043,0.239,-0.050,0.011,-0.004,0.000,0.000,0.000,0.000
0,0.0062,0.0181,0.0103,-0.0088,-0.0080,0.0058,-0.21,0.69,-0.05,0,3.964,0.094,-0.024,0.103,0.009,-0.007,0.000,0.000,0.000,0.000
0,0.0051,0.0211,0.0095,-0.0125,0.0063,0.0013,-0.27,0.67,-0.03,0,3.970,-0.022,-0.067,-0.155,0.011,-0.006,0.000,0.000,0.000,0.000
0,0.0050,0.0232,0.0097,-0.0108,0.0149,0.0022,-0.45,0.64,-0.01,0,3.964,0.054,-0.028,-0.141,0.010,-0.007,0.000,0.000,0.000,0.000
0,0.0038,0.0325,0.0104,-0.0146,0.0536,0.0061,-0.61,0.65,0.01,0,3.970,0.092,0.082,-0.021,0.014,-0.004,0.000,0.000,0.000,0.000
0,0.0044,0.0341,0.0109,-0.0091,0.0507,0.0075,-0.49,0.65,0.01,0,3.964,0.118,-0.072,-0.097,0.010,-0.004,0.000,0.000,0.000,0.000
51,0.0042,0.0339,0.0114,-0.0083,0.0405,0.0090,-0.42,0.62,0.01,0,3.970,0.305,0.285,0.124,0.012,-0.004,0.000,0.000,0.000,0.000
102,0.0043,0.0346,0.0120,-0.0054,0.0361,0.0103,-0.38,0.61,0.02,0,3.964,0.091,-0.132,-0.027,0.012,-0.005,0.000,0.000,0.000,0.000
153,0.0042,0.0343,0.0105,-0.0047,0.0277,0.0017,-0.34,0.59,0.02,0,3.970,-0.025,0.280,0.276,0.009,-0.006,0.000,0.000,0.000,0.000
204,0.0042,0.0325,0.0107,-0.0036,0.0108,0.0030,-0.28,0.58,0.03,0,3.964,0.027,-0.060,0.323,0.013,-0.004,0.000,0.000,0.000,0.000
255,0.0045,0.0341,0.0095,-0.0011,0.0155,-0.0033,-0.22,0.57,0.04,0,3.970,0.260,0.069,0.029,0.011,-0.006,0.000,0.000,0.000,0.000
306,0.0044,0.0348,0.0093,0.0003,0.0151,-0.0032,-0.60,0.58,-0.03,0,3.964,-0.155,0.049,-0.209,0.011,-0.001,0.000,0.000,0.000,0.000
358,0.0028,0.0441,0.0096,-0.0048,0.0544,-0.0005,-0.53,0.59,-0.02,0,3.970,0.003,-0.155,0.130,0.014,-0.006,0.000,0.000,0.000,0.000
409,0.0037,0.0452,0.0098,0.0008,0.0485,0.0012,-0.20,0.56,0.06,0,3.964,0.074,0.044,0.191,0.010,-0.004,0.000,0.000,0.000,0.000
460,0.0053,0.0334,0.0091,0.0049,-0.0220,-0.0015,0.07,0.54,0.13,0,3.970,0.026,-0.003,0.142,0.012,-0.005,0.000,0.000,0.000,0.000
511,0.0063,0.0325,0.0090,0.0099,-0.0231,-0.0006,0.07,0.54,0.14,0,3.964,0.146,0.006,-0.043,0.014,-0.006,0.000,0.000,0.000,0.000
562,0.0054,0.0333,0.0095,0.0053,-0.0171,0.0017,-0.23,0.62,0.10,0,3.970,0.106,-0.014,-0.039,0.013,-0.006,0.000,0.000,0.000,0.000
614,0.0039,0.0437,0.0096,0.0025,0.0365,0.0019,-0.33,0.57,0.04,0,3.964,0.160,0.154,0.091,0.013,-0.006,0.000,0.000,0.000,0.000
665,0.0040,0.0421,0.0087,0.0015,0.0187,-0.0012,-0.29,0.57,0.05,0,3.970,0.128,0.170,0.221,0.011,-0.005,0.000,0.000,0.000,0.000
716,0.0044,0.0431,0.0087,0.0040,0.0185,-0.0001,-0.24,0.57,0.07,0,3.964,0.179,0.047,-0.149,0.011,-0.004,0.000,0.000,0.000,0.000
767,0.0043,0.0432,0.0097,0.0032,0.0135,0.0051,-0.20,0.58,0.09,0,3.970,0.162,0.250,-0.189,0.013,-0.005,0.000,0.000,0.000,0.000
818,0.0041,0.0444,0.0099,0.0024,0.0159,0.0061,-0.13,0.55,0.09,0,3.964,0.014,0.192,0.075,0.010,-0.004,0.000,0.000,0.000,0.000
869,0.0048,0.0433,0.0104,0.0056,0.0071,0.0093,-0.11,0.57,0.11,0,3.970,0.180,0.200,-0.424,0.011,-0.003,0.000,0.000,0.000,0.000
920,0.0054,0.0422,0.0109,0.0084,-0.0008,0.0096,-0.19,0.54,0.07,0,3.964,0.221,0.002,-0.053,0.011,-0.003,0.000,0.000,0.000,0.000
972,0.0057,0.0446,0.0102,0.0095,0.0104,0.0041,-0.16,0.52,0.08,0,3.970,-0.189,0.021,0.040,0.011,-0.007,0.000,0.000,0.000,0.000
1023,0.0058,0.0424,0.0105,0.0069,-0.0061,0.0053,-0.25,0.53,0.06,0,3.964,0.113,0.259,0.257,0.011,-0.007,0.000,0.000,0.000,0.000
1074,0.0066,0.0445,0.0091,0.0117,0.0012,-0.0031,-0.07,0.58,0.12,0,3.970,-0.276,0.176,0.170,0.011,-0.003,0.000,0.000,0.000,0.000
1125,0.0066,0.0471,0.0091,0.0117,0.0157,-0.0022,-0.12,0.48,0.07,0,3.964,-0.157,-0.222,0.196,0.012,-0.005,0.000,0.000,0.000,0.000
1176,0.0067,0.0450,0.0079,0.0093,-0.0003,-0.0068,-0.17,0.53,0.08,0,3.970,0.023,-0.154,-0.153,0.012,-0.006,0.000,0.000,0.000,0.000
1228,0.0076,0.0439,0.0076,0.0119,-0.0088,-0.0058,0.12,0.59,0.18,0,3.964,-0.076,0.036,0.045,0.012,-0.006,0.000,0.000,0.000,0.000
1279,0.0075,0.0382,0.0081,0.0073,-0.0381,-0.0021,-0.01,0.58,0.16,0,3.970,0.021,0.035,-0.362,0.010,-0.004,0.000,0.000,0.000,0.000
1330,0.0076,0.0447,0.0084,0.0102,0.0048,-0.0001,-0.22,0.58,0.11,0,3.964,-0.200,0.073,0.308,0.014,-0.005,0.000,0.000,0.000,0.000
1381,0.0068,0.0437,0.0083,0.0033,-0.0030,-0.0017,-0.19,0.60,0.13,0,3.970,0.088,0.053,0.124,0.013,-0.001,0.000,0.000,0.000,0.000
1432,0.0074,0.0455,0.0082,0.0073,0.0072,-0.0009,-0.59,0.62,0.08,0,3.959,-0.175,0.085,0.189,0.010,-0.005,0.000,0.000,0.000,0.000
1483,0.0061,0.0537,0.0075,0.0007,0.0443,-0.0047,-0.40,0.59,0.09,0,3.970,0.137,-0.099,-0.124,0.011,-0.006,0.000,0.000,0.000,0.000
1535,0.0070,0.0505,0.0076,0.0038,0.0174,-0.0023,-0.33,0.58,0.10,0,3.579,0.246,-0.106,-0.422,0.017,-0.020,0.000,0.000,0.000,0.000
1586,0.0073,0.0520,0.0094,0.0029,0.0217,0.0082,-0.26,0.59,0.10,0,3.679,0.087,-0.214,-0.830,0.005,-0.016,0.000,0.000,0.000,0.000
1637,0.0071,0.0522,0.0099,-0.0036,0.0200,0.0107,-0.31,0.62,0.09,0,3.716,-1.277,-0.924,-3.047,-0.006,-0.000,0.000,0.000,0.000,0.000
1688,0.0076,0.0530,0.0097,-0.0052,0.0219,0.0079,-0.22,0.64,-0.04,0,3.737,-3.115,-3.109,-11.362,0.013,-0.002,0.000,0.000,0.000,0.000
1739,0.0077,0.0542,0.0102,-0.0076,0.0273,0.0093,-0.43,0.70,-0.64,0,3.743,2.290,3.371,-22.337,-0.017,0.011,0.000,0.000,0.000,0.000
1790,0.0048,0.0642,0.0087,-0.0248,0.0724,0.0023,-0.48,0.66,-1.74,0,3.753,-5.253,-4.627,-22.031,0.003,-0.032,0.000,0.000,0.000,0.000
1842,0.0067,0.0671,0.0092,-0.0163,0.0751,0.0063,-0.93,0.80,-2.77,0,3.748,5.398,4.402,-21.107,0.028,-0.004,0.000,0.000,0.000,0.000
1893,0.0039,0.0736,0.0102,-0.0292,0.0908,0.0098,-0.40,0.60,-3.78,0,3.753,4.004,1.211,-18.571,0.011,0.003,0.000,0.000,0.000,0.000
1944,0.0013,0.0704,0.0113,-0.0373,0.0582,0.0147,-0.11,0.57,-4.70,0,3.748,4.381,-0.397,-7.744,-0.000,-0.030,0.000,0.000,0.000,0.000
1996,-0.0002,0.0631,0.0109,-0.0381,0.0086,0.0106,0.47,0.22,-5.11,0,3.748,-3.275,-3.994,-0.367,0.009,-0.019,0.000,0.000,0.000,0.000
2047,-0.0014,0.0632,0.0114,-0.0366,0.0036,0.0095,0.21,0.62,-5.11,0,3.743,0.969,-1.723,5.180,0.013,-0.019,0.000,0.000,0.000,0.000
2098,-0.0083,0.0639,0.0124,-0.0649,0.0020,0.0127,0.43,0.55,-5.00,0,3.748,8.280,8.079,4.570,0.009,-0.011,0.000,0.000,0.000,0.000
2150,-0.0107,0.0600,0.0131,-0.0651,-0.0189,0.0136,0.73,0.26,-4.77,0,3.732,-17.184,-13.193,4.599,0.012,-0.010,0.000,0.000,0.000,0.000
2201,-0.0107,0.0608,0.0112,-0.0428,-0.0070,0.0005,0.00,0.54,-4.93,0,3.737,8.314,6.078,2.392,0.010,-0.026,0.000,0.000,0.000,0.000
2252,-0.0067,0.0591,0.0116,0.0005,-0.0013,0.0063,0.12,0.04,-5.26,0,3.727,0.016,0.516,6.628,0.002,-0.008,0.000,0.000,0.000,0.000
2303,-0.0058,0.0623,0.0115,0.0089,0.0191,0.0024,0.19,-0.12,-5.04,0,3.727,-10.662,-8.846,10.959,-0.012,-0.028,0.000,0.000,0.000,0.000
2355,-0.0035,0.0649,0.0114,0.0312,0.0372,0.0021,-0.44,0.24,-4.87,0,3.721,14.735,12.084,9.102,0.006,-0.015,0.000,0.000,0.000,0.000
2406,-0.0010,0.0614,0.0114,0.0264,0.0021,0.0092,0.38,-0.08,-3.99,0,3.727,0.636,8.025,16.914,0.013,-0.029,0.000,0.000,0.000,0.000
2457,0.0012,0.0583,0.0115,0.0262,-0.0240,0.0016,0.50,-0.42,-3.47,0,3.711,-13.855,-16.601,14.638,0.022,-0.016,0.000,0.000,0.000,0.000
2509,0.0013,0.0605,0.0107,0.0272,-0.0086,0.0034,-0.16,0.18,-2.95,0,3.716,19.016,6.910,16.270,0.012,-0.027,0.000,0.000,0.000,0.000
2560,0.0003,0.0670,0.0108,0.0288,0.0375,0.0017,0.10,-0.42,-2.54,0,3.711,14.340,7.094,9.691,0.006,-0.002,0.000,0.000,0.000,0.000
2611,0.0044,0.0725,0.0107,0.0594,0.0723,0.0090,0.58,-0.63,-2.70,0,3.706,4.179,-29.463,8.747,0.007,-0.006,0.000,0.000,0.000,0.000
2662,0.0184,0.0698,0.0108,0.1199,0.0271,0.0043,1.31,-0.17,-1.46,0,3.700,6.684,-27.204,5.714,0.011,-0.014,0.000,0.000,0.000,0.000
2713,0.0252,0.0686,0.0121,0.1025,-0.0106,0.0209,1.58,1.29,-1.16,0,3.706,-1.645,-34.352,12.914,0.016,-0.009,0.000,0.000,0.000,0.000
2764,0.0328,0.0640,0.0128,0.1020,-0.0438,0.0226,2.23,3.06,-0.05,0,3.690,-38.446,-11.923,10.773,0.025,-0.026,0.000,0.000,0.000,0.000
2815,0.0344,0.0559,0.0050,0.0333,-0.1128,-0.0121,0.82,4.62,1.43,0,3.684,-46.301,23.186,0.416,0.019,-0.007,0.000,0.000,0.000,0.000
2867,0.0151,0.0324,-0.0032,-0.1143,-0.2194,-0.0359,-0.75,4.55,1.11,0,3.669,-17.417,60.703,1.418,0.007,-0.025,0.000,0.000,0.000,0.000
2918,-0.0093,0.0155,-0.0064,-0.2468,-0.2506,-0.0147,-1.48,2.81,2.63,0,3.669,-6.489,52.158,3.159,0.012,-0.023,0.000,0.000,0.000,0.000
2969,-0.0219,0.0212,-0.0100,-0.3218,-0.2116,-0.0083,-2.38,0.40,4.50,0,3.669,-7.229,80.199,-0.537,-0.003,-0.025,0.000,0.000,0.000,0.000
3020,-0.0323,0.0258,0.0003,-0.3374,-0.1635,0.0725,-2.86,-3.21,5.61,0,3.679,-1.201,74.835,-3.874,-0.002,-0.022,0.000,0.000,0.000,0.000
3072,-0.0488,0.0337,0.0037,-0.3274,-0.0760,0.0899,-3.37,-7.13,6.06,0,3.679,11.070,16.774,-8.391,0.010,-0.019,0.000,0.000,0.000,0.000
3122,-0.0464,0.0444,0.0197,-0.2098,0.0015,0.1532,-3.10,-9.62,6.92,0,3.679,16.945,-55.154,-16.647,-0.003,-0.018,0.000,0.000,0.000,0.000
3173,-0.0272,0.0594,0.0267,-0.0600,0.0616,0.1478,-2.49,-8.17,7.44,0,3.679,22.683,-47.219,-17.453,-0.009,-0.015,0.000,0.000,0.000,0.000
3225,-0.0139,0.0721,0.0385,0.0794,0.1389,0.1651,-1.60,-6.05,6.82,0,3.679,38.374,-57.113,-16.977,0.005,-0.019,0.000,0.000,0.000,0.000
3275,0.0082,0.0871,0.0441,0.1668,0.1681,0.1374,0.08,-3.81,6.55,0,3.669,26.716,-37.396,-18.313,-0.012,-0.024,0.000,0.000,0.000,0.000
3327,0.0290,0.1012,0.0556,0.2374,0.1857,0.1424,1.58,-1.96,5.75,0,3.674,12.417,-65.692,-16.849,-0.002,-0.021,0.000,0.000,0.000,0.000
3378,0.0466,0.1119,0.0601,0.2811,0.1832,0.1140,2.26,0.46,5.25,0,3.669,10.828,-44.103,-16.310,-0.016,-0.020,0.000,0.000,0.000,0.000
3428,0.0615,0.1216,0.0700,0.2658,0.1597,0.1256,2.84,3.15,4.73,0,3.674,4.303,-38.296,-12.473,-0.006,-0.016,0.000,0.000,0.000,0.000
3479,0.0747,0.1288,0.0766,0.2339,0.1268,0.1241,3.22,5.08,4.54,0,3.658,4.464,-13.152,-10.095,-0.009,-0.013,0.000,0.000,0.000,0.000
3530,0.0836,0.1358,0.0822,0.1691,0.0927,0.1131,3.52,6.53,4.11,0,3.658,-6.860,31.043,-8.052,-0.002,-0.016,0.000,0.000,0.000,0.000
3581,0.0899,0.1388,0.0876,0.1128,0.0548,0.1000,3.35,5.30,3.91,0,3.642,-14.110,9.548,-8.045,0.009,-0.009,0.000,0.000,0.000,0.000
3633,0.0932,0.1411,0.0874,0.0595,0.0200,0.0768,2.70,4.64,3.74,0,3.648,-17.304,17.961,-7.085,0.006,-0.013,0.000,0.000,0.000,0.000
3683,0.0943,0.1416,0.0913,0.0127,-0.0086,0.0820,1.92,3.98,3.95,0,3.632,-12.090,26.685,-4.920,-0.001,-0.006,0.000,0.000,0.000,0.000
3734,0.0923,0.1402,0.0919,-0.0312,-0.0327,0.0763,1.26,2.89,3.64,0,3.637,-10.789,28.776,-4.610,0.006,-0.007,0.000,0.000,0.000,0.000
3786,0.0899,0.1407,0.0960,-0.0673,-0.0458,0.0945,0.82,1.46,3.68,0,3.632,-13.528,12.750,-4.421,0.008,-0.009,0.000,0.000,0.000,0.000
3836,0.0874,0.1397,0.0978,-0.0760,-0.0490,0.1023,0.13,0.76,3.53,0,3.632,-5.367,15.593,-4.343,0.012,-0.010,0.000,0.000,0.000,0.000
3888,0.0822,0.1386,0.1035,-0.0948,-0.0508,0.1310,-0.23,-0.03,3.62,0,3.632,-9.964,25.351,-4.125,0.008,-0.008,0.000,0.000,0.000,0.000
3939,0.0787,0.1378,0.1083,-0.0910,-0.0436,0.1498,-0.63,-1.19,3.51,0,3.648,-3.539,2.864,-2.757,0.007,-0.007,0.000,0.000,0.000,0.000
3989,0.0751,0.1367,0.1166,-0.0775,-0.0335,0.1814,-0.90,-1.56,3.36,0,3.637,0.526,5.888,-4.640,0.006,-0.006,0.000,0.000,0.000,0.000
4040,0.0707,0.1359,0.1270,-0.0676,-0.0215,0.2122,-0.87,-1.76,3.17,0,3.648,6.013,0.946,-5.690,0.009,-0.012,0.000,0.000,0.000,0.000
4091,0.0676,0.1354,0.1382,-0.0521,-0.0127,0.2342,-0.66,-1.89,2.84,0,3.642,2.804,-2.218,-5.237,0.006,-0.011,0.000,0.000,0.000,0.000
4143,0.0641,0.1357,0.1484,-0.0396,-0.0020,0.2415,-0.42,-1.88,2.54,0,3.648,1.517,1.833,-5.625,0.004,-0.012,0.000,0.000,0.000,0.000
4193,0.0643,0.1362,0.1609,-0.0166,0.0026,0.2478,-0.33,-2.01,2.35,0,3.642,4.644,-6.990,-4.032,0.000,-0.011,0.000,0.000,0.000,0.000
4245,0.0632,0.1368,0.1710,-0.0010,0.0093,0.2391,-0.07,-1.67,2.22,0,3.653,2.081,-8.530,-2.795,0.001,-0.014,0.000,0.000,0.000,0.000
4295,0.0604,0.1367,0.1829,0.0017,0.0106,0.2370,0.09,-0.97,1.71,0,3.642,0.312,-4.786,-2.019,0.001,-0.009,0.000,0.000,0.000,0.000
4346,0.0551,0.1343,0.1980,-0.0104,-0.0010,0.2489,0.14,-0.84,1.54,0,3.653,-1.864,3.141,-2.289,0.004,-0.015,0.000,0.000,0.000,0.000
4397,0.0533,0.1354,0.2103,-0.0052,0.0054,0.2403,0.05,-0.90,1.25,0,3.648,1.109,-1.172,-2.111,0.003,-0.011,0.000,0.000,0.000,0.000
4448,0.0522,0.1377,0.2234,0.0029,0.0156,0.2349,0.05,-0.90,1.18,0,3.658,3.044,-3.518,-2.212,-0.000,-0.012,0.000,0.000,0.000,0.000
4499,0.0545,0.1382,0.2347,0.0149,0.0129,0.2189,0.20,-0.70,1.08,0,3.642,-0.604,-9.010,-0.311,0.003,-0.010,0.000,0.000,0.000,0.000
4551,0.0583,0.1393,0.2419,0.0292,0.0118,0.1916,0.26,-0.46,1.14,0,3.653,-1.192,-3.449,-1.926,0.002,-0.010,0.000,0.000,0.000,0.000
4602,0.0623,0.1395,0.2513,0.0388,0.0074,0.1759,0.31,-0.28,1.15,0,3.642,-2.812,-8.494,-2.027,0.001,-0.010,0.000,0.000,0.000,0.000
4652,0.0660,0.1379,0.2526,0.0438,-0.0020,0.1297,0.28,0.05,1.03,0,3.642,-4.309,-5.724,-1.884,0.001,-0.009,0.000,0.000,0.000,0.000
4704,0.0692,0.1373,0.2576,0.0469,-0.0059,0.1203,0.16,0.37,0.95,0,3.637,-1.942,-3.818,-2.354,0.000,-0.012,0.000,0.000,0.000,0.000
4754,0.0734,0.1363,0.2630,0.0486,-0.0099,0.1119,0.11,0.53,0.88,0,3.642,-2.956,-3.184,-2.422,0.003,-0.009,0.000,0.000,0.000,0.000
4805,0.0762,0.1355,0.2685,0.0452,-0.0118,0.1074,0.01,0.62,0.78,0,3.637,-1.877,-0.750,-1.537,0.004,-0.010,0.000,0.000,0.000,0.000
4856,0.0797,0.1353,0.2765,0.0435,-0.0111,0.1164,-0.08,0.68,0.72,0,3.642,-0.608,-1.245,-1.255,0.003,-0.009,0.000,0.000,0.000,0.000
4907,0.0824,0.1344,0.2822,0.0395,-0.0114,0.1121,-0.14,0.70,0.66,0,3.637,0.460,0.531,-0.475,0.002,-0.011,0.000,0.000,0.000,0.000
4959,0.0828,0.1336,0.2864,0.0303,-0.0110,0.1005,-0.11,0.74,0.63,0,3.642,-1.758,2.300,-0.431,0.003,-0.010,0.000,0.000,0.000,0.000
5010,0.0861,0.1327,0.2912,0.0288,-0.0111,0.0941,-0.18,0.66,0.64,0,3.637,-0.558,1.611,0.819,0.003,-0.013,0.000,0.000,0.000,0.000
5061,0.0856,0.1326,0.2977,0.0189,-0.0086,0.0962,-0.21,0.58,0.67,0,3.642,-0.433,1.658,0.691,0.005,-0.011,0.000,0.000,0.000,0.000
5112,0.0891,0.1328,0.3023,0.0202,-0.0056,0.0900,-0.21,0.48,0.72,0,3.632,0.279,2.971,0.996,0.005,-0.006,0.000,0.000,0.000,0.000
5162,0.0928,0.1409,0.3058,0.0228,0.0153,0.0795,-0.34,0.28,0.83,0,3.642,4.113,1.607,1.408,0.003,-0.008,0.000,0.000,0.000,0.000
5214,0.0946,0.1423,0.3096,0.0220,0.0193,0.0731,-0.18,0.20,0.91,0,3.632,6.669,-2.278,1.539,0.006,-0.008,0.000,0.000,0.000,0.000
5264,0.0947,0.1453,0.3127,0.0181,0.0249,0.0664,0.20,0.29,0.97,0,3.637,1.637,2.381,1.823,0.005,-0.011,0.000,0.000,0.000,0.000
5315,0.0970,0.1446,0.3159,0.0186,0.0194,0.0617,0.37,0.25,1.05,0,3.632,-1.684,1.153,0.799,0.005,-0.010,0.000,0.000,0.000,0.000
5367,0.0966,0.1460,0.3172,0.0139,0.0174,0.0477,0.37,0.20,1.09,0,3.632,-0.261,-2.905,0.865,0.008,-0.011,0.000,0.000,0.000,0.000
5417,0.0967,0.1465,0.3196,0.0114,0.0137,0.0449,0.42,0.26,1.13,0,3.626,4.217,5.489,-0.434,0.003,-0.014,0.000,0.000,0.000,0.000
5469,0.0955,0.1457,0.3244,0.0060,0.0072,0.0543,0.57,0.15,1.13,0,3.637,-5.218,0.501,-0.711,0.006,-0.010,0.000,0.000,0.000,0.000
5519,0.0938,0.1459,0.3270,0.0009,0.0024,0.0503,0.35,0.09,1.12,0,3.626,1.500,4.449,-0.370,0.008,-0.010,0.000,0.000,0.000,0.000
5571,0.0930,0.1457,0.3278,-0.0013,-0.0011,0.0391,0.27,0.00,1.13,0,3.632,-0.268,3.246,-0.170,0.006,-0.009,0.000,0.000,0.000,0.000
5622,0.0916,0.1458,0.3297,-0.0040,-0.0029,0.0373,0.22,-0.12,1.13,0,3.626,-1.593,2.077,-0.547,0.006,-0.010,0.000,0.000,0.000,0.000
5674,0.0927,0.1394,0.3292,-0.0005,-0.0160,0.0251,0.21,-0.21,1.09,0,3.626,-4.066,-2.307,0.414,0.005,-0.011,0.000,0.000,0.000,0.000
5724,0.0915,0.1355,0.3304,-0.0011,-0.0231,0.0241,0.03,-0.17,1.10,0,3.621,-2.629,2.740,-0.613,0.004,-0.010,0.000,0.000,0.000,0.000
5776,0.0911,0.1353,0.3331,-0.0004,-0.0217,0.0318,-0.21,-0.11,1.08,0,3.632,-1.474,-0.318,-0.005,0.005,-0.011,0.000,0.000,0.000,0.000
5827,0.0914,0.1334,0.3347,0.0012,-0.0214,0.0321,-0.30,-0.16,1.09,0,3.621,-0.508,-1.906,-0.452,0.008,-0.012,0.000,0.000,0.000,0.000
5877,0.0914,0.1364,0.3356,0.0023,-0.0121,0.0309,-0.26,-0.18,1.07,0,3.626,-0.925,-3.764,-0.336,0.004,-0.011,0.000,0.000,0.000,0.000
5929,0.0916,0.1359,0.3372,0.0040,-0.0092,0.0308,-0.27,-0.11,1.06,0,3.621,0.806,-0.205,-0.327,0.006,-0.010,0.000,0.000,0.000,0.000
5979,0.0933,0.1369,0.3386,0.0077,-0.0045,0.0290,-0.20,-0.14,1.03,0,3.626,1.572,-4.787,-0.823,0.001,-0.015,0.000,0.000,0.000,0.000
6031,0.0952,0.1329,0.3400,0.0111,-0.0094,0.0280,-0.10,0.02,0.97,0,3.621,0.166,-0.711,-1.242,0.002,-0.009,0.000,0.000,0.000,0.000
6082,0.0934,0.1348,0.3401,0.0072,-0.0047,0.0216,-0.23,0.05,0.94,0,3.626,2.453,-1.966,-0.539,0.004,-0.011,0.000,0.000,0.000,0.000
6132,0.0977,0.1343,0.3412,0.0129,-0.0046,0.0221,-0.12,0.16,0.90,0,3.621,0.548,-0.691,-0.335,0.003,-0.014,0.000,0.000,0.000,0.000
6183,0.0989,0.1390,0.3425,0.0124,0.0035,0.0246,-0.04,0.20,0.86,0,3.621,2.117,1.171,-0.594,0.003,-0.009,0.000,0.000,0.000,0.000
6234,0.0994,0.1447,0.3438,0.0106,0.0124,0.0240,0.16,0.19,0.82,0,3.621,-1.007,-0.032,0.046,0.005,-0.010,0.000,0.000,0.000,0.000
6286,0.0988,0.1375,0.3450,0.0071,-0.0012,0.0229,0.22,0.20,0.80,0,3.621,-2.112,1.578,-1.577,0.005,-0.012,0.000,0.000,0.000,0.000
6337,0.1004,0.1435,0.3461,0.0075,0.0073,0.0217,0.05,0.15,0.78,0,3.616,-0.440,-0.921,-0.760,0.005,-0.012,0.000,0.000,0.000,0.000
6387,0.1001,0.1454,0.3463,0.0051,0.0095,0.0166,0.08,0.13,0.75,0,3.621,2.415,-1.647,-1.069,0.003,-0.011,0.000,0.000,0.000,0.000
6438,0.1002,0.1338,0.3471,0.0040,-0.0111,0.0162,0.16,0.12,0.72,0,3.616,-3.813,1.302,-0.058,0.003,-0.010,0.000,0.000,0.000,0.000
6489,0.0989,0.1387,0.3470,0.0005,-0.0035,0.0105,0.09,0.09,0.72,0,3.621,-1.828,2.465,-0.307,0.003,-0.010,0.000,0.000,0.000,0.000
6540,0.1006,0.1367,0.3476,0.0025,-0.0070,0.0109,-0.10,0.07,0.71,0,3.616,0.595,0.264,0.003,0.004,-0.010,0.000,0.000,0.000,0.000
6591,0.1008,0.1359,0.3475,0.0021,-0.0077,0.0085,-0.06,0.03,0.71,0,3.616,2.242,-1.453,-0.325,0.006,-0.007,0.000,0.000,0.000,0.000
6643,0.1000,0.1575,0.3480,-0.0000,0.0317,0.0099,-0.17,0.13,0.72,0,3.611,6.714,4.531,0.540,0.005,-0.009,0.000,0.000,0.000,0.000
6693,0.0992,0.1606,0.3480,-0.0024,0.0358,0.0094,0.11,0.05,0.71,0,3.616,7.249,-1.743,0.151,0.003,-0.011,0.000,0.000,0.000,0.000
6744,0.0971,0.1607,0.3485,-0.0065,0.0316,0.0111,0.54,0.00,0.70,0,3.611,-1.291,-1.091,0.830,0.003,-0.013,0.000,0.000,0.000,0.000
6795,0.1002,0.1636,0.3488,-0.0002,0.0298,0.0106,0.62,0.01,0.71,0,3.616,0.998,-0.519,-0.571,0.004,-0.011,0.000,0.000,0.000,0.000
6846,0.0990,0.1690,0.3494,-0.0023,0.0312,0.0121,0.65,-0.01,0.68,0,3.611,3.892,3.276,-1.013,0.002,-0.010,0.000,0.000,0.000,0.000
6898,0.0999,0.1678,0.3502,-0.0004,0.0208,0.0131,0.78,-0.08,0.64,0,3.616,-1.582,-2.776,-0.982,0.008,-0.011,0.000,0.000,0.000,0.000
6948,0.0995,0.1720,0.3508,-0.0003,0.0202,0.0138,-0.04,0.04,-0.00,0,3.605,1.046,0.625,1.280,0.002,-0.011,0.000,0.000,0.000,0.000
7000,0.0000,-0.0000,0.3505,-0.0001,-0.0009,-0.0002,-0.08,0.05,0.07,0,3.616,2.666,1.266,0.788,0.004,-0.010,0.000,0.000,0.000,0.000
7051,-0.0001,-0.0001,0.3505,-0.0013,-0.0004,0.0019,0.06,0.00,0.13,0,3.611,0.980,2.591,0.344,0.003,-0.013,0.000,0.000,0.000,0.000
7101,-0.0001,-0.0004,0.3522,-0.0014,-0.0042,0.0082,0.19,0.00,0.18,0,3.611,-1.463,-1.704,0.802,0.002,-0.010,0.000,0.000,0.000,0.000
7153,0.0000,-0.0008,0.3526,0.0005,-0.0069,0.0084,0.19,-0.11,0.21,0,3.611,-2.475,0.076,0.272,0.007,-0.011,0.000,0.000,0.000,0.000
7203,0.0001,-0.0016,0.3541,0.0018,-0.0109,0.0135,0.17,-0.12,0.22,0,3.611,-2.931,-0.768,0.157,0.003,-0.007,0.000,0.000,0.000,0.000
7254,-0.0002,-0.0048,0.3548,0.0001,-0.0282,0.0135,0.21,-0.13,0.22,0,3.605,-5.319,-2.560,0.519,0.004,-0.011,0.000,0.000,0.000,0.000
7305,0.0000,-0.0070,0.3541,0.0019,-0.0342,0.0070,0.04,-0.07,0.24,0,3.611,-9.205,0.291,0.681,0.004,-0.008,0.000,0.000,0.000,0.000
7357,0.0009,-0.0111,0.3544,0.0064,-0.0464,0.0061,-0.05,-0.17,0.26,0,3.605,-5.644,-1.785,0.916,0.002,-0.009,0.000,0.000,0.000,0.000
7408,0.0010,-0.0169,0.3535,0.0064,-0.0601,-0.0000,-0.33,-0.08,0.30,0,3.605,3.187,3.405,0.726,0.003,-0.008,0.000,0.000,0.000,0.000
7459,0.0019,-0.0207,0.3535,0.0092,-0.0615,0.0008,-0.23,-0.09,0.33,0,3.605,-2.274,2.527,0.416,0.005,-0.010,0.000,0.000,0.000,0.000
7510,0.0013,-0.0249,0.3526,0.0064,-0.0640,-0.0023,-0.10,-0.13,0.35,0,3.605,-13.068,-2.137,0.032,0.004,-0.011,0.000,0.000,0.000,0.000
7560,-0.0004,-0.0269,0.3525,0.0003,-0.0577,-0.0007,-0.79,0.05,0.35,0,3.605,-5.449,1.942,-0.396,0.001,-0.009,0.000,0.000,0.000,0.000
7611,-0.0009,-0.0338,0.3522,-0.0018,-0.0636,0.0013,-1.04,0.03,0.35,0,3.605,-0.418,3.374,0.106,0.003,-0.012,0.000,0.000,0.000,0.000
7663,0.0000,-0.0374,0.3524,0.0011,-0.0559,0.0042,-1.12,-0.08,0.31,0,3.605,-5.393,-4.519,-0.599,0.005,-0.012,0.000,0.000,0.000,0.000
7713,0.0011,-0.0385,0.3541,0.0045,-0.0420,0.0110,-1.30,-0.04,0.30,0,3.605,1.322,-1.119,-0.718,0.001,-0.007,0.000,0.000,0.000,0.000
7764,0.0031,-0.0398,0.3546,0.0093,-0.0290,0.0102,-1.34,0.05,0.28,0,3.605,5.550,0.670,-0.640,0.005,-0.012,0.000,0.000,0.000,0.000
7815,0.0050,-0.0414,0.3546,0.0127,-0.0193,0.0065,-1.07,-0.00,0.24,0,3.611,2.851,-4.037,-0.604,0.002,-0.016,0.000,0.000,0.000,0.000
7866,0.0043,-0.0354,0.3548,0.0090,0.0058,0.0032,-0.93,0.16,0.20,0,3.605,4.544,-2.178,-0.723,0.004,-0.013,0.000,0.000,0.000,0.000
7917,0.0046,-0.0328,0.3543,0.0072,0.0179,-0.0012,-0.64,0.23,0.15,0,3.605,7.894,0.078,-1.819,0.005,-0.011,0.000,0.000,0.000,0.000
7968,0.0056,-0.0297,0.3542,0.0068,0.0275,-0.0028,-0.37,0.20,0.09,0,3.600,6.774,-1.633,-0.960,0.005,-0.011,0.000,0.000,0.000,0.000
8019,0.0068,-0.0192,0.3539,0.0071,0.0483,-0.0040,0.05,0.19,0.05,0,3.605,9.085,-0.722,-0.500,0.006,-0.013,0.000,0.000,0.000,0.000
8070,0.0067,-0.0153,0.3538,0.0045,0.0504,-0.0036,0.44,0.22,-0.01,0,3.605,4.261,1.109,-0.282,0.005,-0.012,0.000,0.000,0.000,0.000
8121,0.0094,-0.0122,0.3550,0.0078,0.0476,0.0009,0.70,0.18,-0.06,0,3.605,3.311,1.103,-0.818,0.004,-0.010,0.000,0.000,0.000,0.000
8173,0.0074,-0.0096,0.3551,0.0018,0.0415,-0.0001,0.92,0.12,-0.10,0,3.600,0.181,-1.032,-1.072,0.005,-0.012,0.000,0.000,0.000,0.000
8224,0.0073,-0.0090,0.3550,0.0004,0.0309,-0.0017,0.98,0.08,-0.16,0,3.605,0.849,0.015,-1.596,0.006,-0.012,0.000,0.000,0.000,0.000
8275,0.0091,-0.0088,0.3549,0.0029,0.0205,-0.0028,0.97,0.06,-0.24,0,3.600,-3.712,1.603,-1.427,0.005,-0.012,0.000,0.000,0.000,0.000
8325,0.0092,-0.0079,0.3534,0.0024,0.0124,-0.0106,0.84,0.03,-0.30,0,3.600,-3.728,-0.345,-1.569,0.001,-0.009,0.000,0.000,0.000,0.000
8376,0.0085,-0.0109,0.3528,0.0006,-0.0006,-0.0115,0.67,0.06,-0.36,0,3.600,-3.817,-1.194,0.081,0.007,-0.010,0.000,0.000,0.000,0.000
8427,0.0087,-0.0123,0.3513,0.0004,-0.0082,-0.0166,0.50,0.06,-0.38,0,3.600,-7.657,-3.393,-0.043,0.007,-0.009,0.000,0.000,0.000,0.000
8478,0.0079,-0.0175,0.3505,-0.0016,-0.0202,-0.0151,0.23,0.09,-0.37,0,3.595,-6.022,-0.708,0.508,0.004,-0.011,0.000,0.000,0.000,0.000
8529,0.0090,-0.0181,0.3487,-0.0006,-0.0209,-0.0192,-0.03,0.11,-0.36,0,3.595,-3.093,-0.958,0.857,0.001,-0.007,0.000,0.000,0.000,0.000
8580,0.0080,-0.0227,0.3478,-0.0030,-0.0262,-0.0173,-0.15,0.08,-0.31,0,3.589,-4.305,2.563,-0.216,0.005,-0.011,0.000,0.000,0.000,0.000
8631,0.0089,-0.0304,0.3450,-0.0018,-0.0350,-0.0246,-0.37,0.02,-0.32,0,3.595,-6.397,-1.174,-1.503,0.007,-0.008,0.000,0.000,0.000,0.000
8682,0.0090,-0.0318,0.3438,-0.0016,-0.0307,-0.0212,-0.68,0.01,-0.34,0,3.595,0.536,0.672,0.175,0.004,-0.010,0.000,0.000,0.000,0.000
8734,0.0093,-0.0359,0.3463,-0.0009,-0.0291,-0.0012,-0.71,-0.07,-0.34,0,3.600,0.386,-0.013,-0.878,0.007,-0.010,0.000,0.000,0.000,0.000
8785,0.0092,-0.0359,0.3463,-0.0005,-0.0212,0.0025,-0.67,-0.05,-0.37,0,3.595,-0.409,-0.610,-1.103,0.005,-0.008,0.000,0.000,0.000,0.000
8835,0.0087,-0.0329,0.3469,-0.0008,-0.0091,0.0079,-0.69,-0.02,-0.41,0,3.600,2.009,1.675,-0.883,0.003,-0.012,0.000,0.000,0.000,0.000
8886,0.0107,-0.0333,0.3473,0.0027,-0.0034,0.0090,-0.58,-0.06,-0.45,0,3.595,3.138,-2.773,-0.471,0.003,-0.008,0.000,0.000,0.000,0.000
8938,0.0101,-0.0315,0.3450,0.0020,0.0040,-0.0046,-0.41,-0.01,-0.47,0,3.595,3.034,0.388,0.350,0.004,-0.011,0.000,0.000,0.000,0.000
8988,0.0100,-0.0252,0.3448,0.0017,0.0170,-0.0049,-0.28,0.02,-0.47,0,3.589,4.988,0.498,0.622,0.004,-0.008,0.000,0.000,0.000,0.000
9039,0.0113,-0.0208,0.3452,0.0036,0.0248,-0.0015,-0.10,0.03,-0.47,0,3.595,5.928,1.787,-0.094,0.007,-0.011,0.000,0.000,0.000,0.000
9090,0.0129,-0.0189,0.3451,0.0057,0.0260,-0.0017,0.19,0.00,-0.46,0,3.589,3.513,-0.309,-0.633,0.006,-0.012,0.000,0.000,0.000,0.000
9142,0.0115,-0.0178,0.3445,0.0029,0.0236,-0.0052,0.36,-0.00,-0.46,0,3.595,1.777,-2.784,-0.368,0.005,-0.011,0.000,0.000,0.000,0.000
9193,0.0138,-0.0096,0.3442,0.0063,0.0325,-0.0049,0.43,0.07,-0.48,0,3.589,4.767,1.412,-0.377,0.003,-0.013,0.000,0.000,0.000,0.000
9243,0.0155,-0.0040,0.3439,0.0080,0.0350,-0.0057,0.65,0.04,-0.49,0,3.595,4.079,-1.024,0.658,0.004,-0.014,0.000,0.000,0.000,0.000
9295,0.0135,-0.0031,0.3436,0.0038,0.0283,-0.0056,0.87,0.07,-0.47,0,3.584,-0.921,-0.171,-0.254,0.003,-0.009,0.000,0.000,0.000,0.000
9345,0.0163,-0.0035,0.3434,0.0073,0.0185,-0.0047,0.88,0.09,-0.46,0,3.595,-3.615,1.632,0.431,0.005,-0.010,0.000,0.000,0.000,0.000
9397,0.0185,-0.0025,0.3432,0.0095,0.0113,-0.0036,0.74,0.07,-0.44,0,3.584,-2.159,-1.358,0.936,0.009,-0.010,0.000,0.000,0.000,0.000
9448,0.0190,-0.0021,0.3424,0.0088,0.0051,-0.0032,0.61,0.12,-0.41,0,3.595,-2.923,-5.245,0.578,0.006,-0.012,0.000,0.000,0.000,0.000
9499,0.0209,-0.0046,0.3423,0.0101,-0.0043,-0.0010,0.51,0.25,-0.38,0,3.584,-3.173,0.442,0.353,0.004,-0.008,0.000,0.000,0.000,0.000
9549,0.0211,-0.0095,0.3413,0.0078,-0.0160,-0.0046,0.32,0.22,-0.36,0,3.589,-5.888,-1.264,0.043,0.003,-0.014,0.000,0.000,0.000,0.000
9600,0.0209,-0.0097,0.3411,0.0049,-0.0174,-0.0047,0.08,0.24,-0.36,0,3.584,-1.500,-1.006,0.858,0.007,-0.010,0.000,0.000,0.000,0.000
9651,0.0212,-0.0119,0.3402,0.0031,-0.0202,-0.0071,-0.02,0.23,-0.32,0,3.589,-3.323,0.854,0.144,0.005,-0.009,0.000,0.000,0.000,0.000
9702,0.0211,-0.0163,0.3398,0.0007,-0.0253,-0.0068,-0.15,0.24,-0.32,0,3.584,-3.631,-0.912,0.952,0.005,-0.012,0.000,0.000,0.000,0.000
9753,0.0219,-0.0163,0.3410,0.0001,-0.0220,0.0015,-0.33,0.14,-0.28,0,3.589,-0.628,2.548,-0.094,0.004,-0.009,0.000,0.000,0.000,0.000
9805,0.0213,-0.0230,0.3411,-0.0022,-0.0282,0.0027,-0.38,0.11,-0.26,0,3.584,-0.853,3.491,-0.131,0.008,-0.012,0.000,0.000,0.000,0.000
9856,0.0217,-0.0252,0.3390,-0.0022,-0.0264,-0.0070,-0.39,0.06,-0.26,0,3.589,-0.867,1.983,0.389,0.004,-0.013,0.000,0.000,0.000,0.000
9907,0.0185,-0.0269,0.3386,-0.0073,-0.0240,-0.0061,-0.42,-0.06,-0.27,0,3.579,-0.706,4.048,0.244,0.006,-0.009,0.000,0.000,0.000,0.000
9958,0.0176,-0.0301,0.3378,-0.0075,-0.0237,-0.0056,-0.43,-0.18,-0.28,0,3.584,0.486,2.932,0.342,0.005,-0.013,0.000,0.000,0.000,0.000
10008,0.0169,-0.0268,0.3376,-0.0067,-0.0123,-0.0029,-0.46,-0.24,-0.28,0,3.579,0.464,1.983,0.256,0.006,-0.009,0.000,0.000,0.000,0.000
10060,0.0154,-0.0272,0.3376,-0.0068,-0.0082,0.0016,-0.41,-0.28,-0.27,0,3.589,1.906,-0.917,-0.044,0.004,-0.012,0.000,0.000,0.000,0.000
10111,0.0133,-0.0222,0.3378,-0.0078,0.0045,0.0059,-0.34,-0.18,-0.27,0,3.579,4.864,3.503,-0.874,0.006,-0.013,0.000,0.000,0.000,0.000
10161,0.0132,-0.0208,0.3356,-0.0058,0.0091,-0.0045,-0.12,-0.24,-0.30,0,3.584,3.996,1.145,0.069,0.004,-0.015,0.000,0.000,0.000,0.000
10212,0.0131,-0.0195,0.3354,-0.0036,0.0116,-0.0021,0.01,-0.24,-0.31,0,3.579,1.857,-1.326,0.012,0.008,-0.012,0.000,0.000,0.000,0.000
10264,0.0127,-0.0139,0.3373,-0.0019,0.0198,0.0093,0.10,-0.23,-0.32,0,3.589,4.780,-0.320,0.298,0.005,-0.011,0.000,0.000,0.000,0.000
10314,0.0127,-0.0087,0.3378,0.0001,0.0260,0.0110,0.31,-0.25,-0.32,0,3.579,3.800,-2.005,-0.045,0.005,-0.013,0.000,0.000,0.000,0.000
10365,0.0154,-0.0081,0.3368,0.0066,0.0223,0.0040,0.47,-0.16,-0.31,0,3.584,0.332,-2.265,1.838,0.007,-0.013,0.000,0.000,0.000,0.000
10416,0.0174,-0.0027,0.3370,0.0106,0.0260,0.0032,0.48,-0.05,-0.26,0,3.579,0.375,-3.094,0.619,0.003,-0.010,0.000,0.000,0.000,0.000
10467,0.0185,-0.0011,0.3379,0.0118,0.0226,0.0054,0.49,0.11,-0.23,0,3.584,2.542,-1.200,0.486,0.004,-0.009,0.000,0.000,0.000,0.000
10518,0.0191,-0.0001,0.3381,0.0108,0.0184,0.0050,0.58,0.23,-0.21,0,3.579,1.452,1.990,-0.457,0.004,-0.011,0.000,0.000,0.000,0.000
10569,0.0206,-0.0001,0.3390,0.0107,0.0121,0.0075,0.54,0.24,-0.21,0,3.584,-0.263,-0.839,-0.852,0.004,-0.010,0.000,0.000,0.000,0.000
10620,0.0211,0.0003,0.3393,0.0086,0.0075,0.0049,0.44,0.28,-0.20,0,3.579,-1.764,-0.482,0.700,0.005,-0.014,0.000,0.000,0.000,0.000
10672,0.0210,-0.0008,0.3401,0.0053,0.0013,0.0048,0.32,0.29,-0.18,0,3.584,0.037,2.026,-1.323,0.005,-0.008,0.000,0.000,0.000,0.000
10722,0.0211,-0.0040,0.3403,0.0027,-0.0071,0.0027,0.28,0.25,-0.19,0,3.579,-4.435,1.580,-0.105,0.004,-0.008,0.000,0.000,0.000,0.000
10773,0.0195,-0.0048,0.3384,-0.0025,-0.0100,-0.0097,0.14,0.21,-0.23,0,3.584,-0.685,2.497,-0.100,0.005,-0.010,0.000,0.000,0.000,0.000
10824,0.0180,-0.0053,0.3378,-0.0065,-0.0108,-0.0119,0.04,0.12,-0.24,0,3.574,-2.995,2.086,-0.634,0.005,-0.010,0.000,0.000,0.000,0.000
10875,0.0156,-0.0088,0.3356,-0.0111,-0.0158,-0.0189,-0.14,0.04,-0.26,0,3.579,-1.194,2.225,-1.040,0.007,-0.011,0.000,0.000,0.000,0.000
10927,0.0118,-0.0092,0.3346,-0.0169,-0.0142,-0.0177,-0.22,-0.08,-0.32,0,3.574,-0.713,5.078,-1.843,0.006,-0.010,0.000,0.000,0.000,0.000
10978,0.0096,-0.0090,0.3315,-0.0186,-0.0108,-0.0259,-0.26,-0.23,-0.41,0,3.579,2.019,-0.850,-1.527,0.006,-0.014,0.000,0.000,0.000,0.000
11028,0.0097,-0.0110,0.3303,-0.0151,-0.0109,-0.0226,-0.18,-0.24,-0.48,0,3.574,0.816,-0.478,-1.440,0.004,-0.014,0.000,0.000,0.000,0.000
11079,0.0073,-0.0114,0.3313,-0.0159,-0.0092,-0.0096,-0.15,-0.17,-0.54,0,3.579,0.436,1.284,-1.672,0.003,-0.013,0.000,0.000,0.000,0.000
11130,0.0050,-0.0097,0.3309,-0.0169,-0.0045,-0.0077,-0.14,-0.21,-0.62,0,3.574,1.707,1.581,-1.562,0.008,-0.013,0.000,0.000,0.000,0.000
11181,0.0018,-0.0101,0.3282,-0.0194,-0.0036,-0.0178,-0.09,-0.27,-0.71,0,3.574,0.800,0.665,-2.051,0.004,-0.013,0.000,0.000,0.000,0.000
11233,0.0009,-0.0102,0.3273,-0.0171,-0.0029,-0.0159,-0.04,-0.27,-0.81,0,3.568,0.705,-1.842,-1.431,0.003,-0.013,0.000,0.000,0.000,0.000
11283,-0.0030,-0.0105,0.3250,-0.0198,-0.0028,-0.0192,0.01,-0.26,-0.88,0,3.574,2.391,-0.854,-1.603,0.004,-0.012,0.000,0.000,0.000,0.000
11335,-0.0028,-0.0107,0.3242,-0.0158,-0.0029,-0.0159,0.04,-0.25,-0.98,0,3.574,-0.597,-0.227,-1.485,0.007,-0.010,0.000,0.000,0.000,0.000
11386,-0.0025,-0.0105,0.3241,-0.0120,-0.0028,-0.0103,-0.03,-0.24,-1.02,0,3.574,1.770,-2.441,-0.490,0.003,-0.013,0.000,0.000,0.000,0.000
11436,-0.0020,-0.0026,0.3237,-0.0084,0.0106,-0.0086,0.00,-0.17,-1.07,0,3.574,1.269,-0.144,-0.945,0.004,-0.008,0.000,0.000,0.000,0.000
11487,0.0022,-0.0031,0.3265,0.0009,0.0086,0.0068,0.05,-0.15,-1.11,0,3.579,1.994,0.764,-0.669,0.005,-0.014,0.000,0.000,0.000,0.000
11538,-0.0006,0.0028,0.3268,-0.0028,0.0171,0.0067,0.16,-0.14,-1.15,0,3.568,1.756,-1.295,-1.019,0.004,-0.011,0.000,0.000,0.000,0.000
11590,-0.0008,0.0037,0.3250,-0.0016,0.0158,-0.0041,0.27,-0.12,-1.20,0,3.574,-1.618,-1.157,0.191,0.005,-0.012,0.000,0.000,0.000,0.000
11640,0.0004,0.0040,0.3247,0.0015,0.0128,-0.0054,0.25,-0.08,-1.22,0,3.568,0.151,-1.544,-0.106,0.004,-0.013,0.000,0.000,0.000,0.000
11692,0.0019,0.0039,0.3262,0.0045,0.0096,0.0025,0.24,-0.02,-1.21,0,3.579,-0.866,0.314,0.829,0.007,-0.010,0.000,0.000,0.000,0.000
11742,0.0021,0.0043,0.3263,0.0046,0.0075,0.0020,0.21,-0.01,-1.18,0,3.568,-2.366,1.457,1.887,0.004,-0.012,0.000,0.000,0.000,0.000
11793,0.0022,0.0050,0.3262,0.0046,0.0064,0.0013,0.10,-0.03,-1.13,0,3.579,0.466,-0.750,1.450,0.006,-0.008,0.000,0.000,0.000,0.000
11845,-0.0017,0.0056,0.3263,-0.0021,0.0063,0.0012,0.05,-0.06,-1.05,0,3.568,-0.040,2.421,2.276,0.006,-0.013,0.000,0.000,0.000,0.000
11895,-0.0034,0.0057,0.3232,-0.0044,0.0055,-0.0135,0.05,-0.12,-0.95,0,3.574,-2.343,0.606,0.428,0.007,-0.013,0.000,0.000,0.000,0.000
11946,-0.0036,0.0060,0.3225,-0.0033,0.0051,-0.0129,0.04,-0.13,-0.89,0,3.563,-1.582,0.698,0.966,0.007,-0.012,0.000,0.000,0.000,0.000
11997,-0.0089,0.0003,0.3212,-0.0105,-0.0048,-0.0128,-0.05,-0.19,-0.84,0,3.574,0.306,1.064,-0.392,0.004,-0.012,0.000,0.000,0.000,0.000
