time_ms,pos_x,pos_y,pos_z,vel_x,vel_y,vel_z,roll,pitch,yaw,thrust,vbat,gyro_x,gyro_y,gyro_z,acc_x,acc_y,acc_z,rate_roll,rate_pitch,rate_yaw
0,-0.5660,-10.7935,0.0089,0.0057,-0.0038,-0.0002,-0.14,0.72,-0.22,0,4.117,0.120,0.657,-0.032,0.015,-0.006,0.000,0.000,0.000,0.000
0,-0.5662,-10.7918,0.0094,0.0041,0.0037,0.0025,-0.06,0.72,-0.22,0,4.112,-0.038,0.105,0.018,0.013,-0.003,0.000,0.000,0.000,0.000
0,-0.5666,-10.7918,0.0089,0.0019,0.0036,-0.0003,-0.08,0.72,-0.22,0,4.117,-0.085,0.074,-0.127,0.014,-0.003,0.000,0.000,0.000,0.000
0,-0.5661,-10.7927,0.0099,0.0044,-0.0017,0.0050,-0.13,0.73,-0.23,0,4.112,-0.222,0.268,-0.167,0.014,-0.004,0.000,0.000,0.000,0.000
0,-0.5641,-10.8031,0.0103,0.0142,-0.0567,0.0059,0.29,0.65,-0.19,0,4.117,0.064,0.070,-0.021,0.017,-0.004,0.000,0.000,0.000,0.000
0,-0.5630,-10.8027,0.0103,0.0182,-0.0448,0.0048,0.15,0.67,-0.20,0,4.112,0.147,0.365,0.210,0.015,-0.004,0.000,0.000,0.000,0.000
0,-0.5631,-10.8026,0.0105,0.0157,-0.0381,0.0048,0.12,0.66,-0.21,0,4.117,0.177,0.278,0.145,0.014,-0.003,0.000,0.000,0.000,0.000
0,-0.5627,-10.8018,0.0106,0.0153,-0.0273,0.0049,0.02,0.67,-0.22,0,4.112,0.063,0.359,0.211,0.015,-0.004,0.000,0.000,0.000,0.000
0,-0.5614,-10.8051,0.0111,0.0195,-0.0397,0.0063,0.07,0.65,-0.21,0,4.117,0.082,0.223,-0.084,0.014,-0.004,0.000,0.000,0.000,0.000
0,-0.5616,-10.8059,0.0109,0.0157,-0.0369,0.0043,0.07,0.67,-0.20,0,4.112,0.274,0.095,-0.231,0.018,-0.003,0.000,0.000,0.000,0.000
0,-0.5616,-10.8048,0.0108,0.0133,-0.0242,0.0031,-0.02,0.70,-0.21,0,4.117,0.246,0.186,-0.044,0.014,-0.005,0.000,0.000,0.000,0.000
0,-0.5616,-10.8049,0.0092,0.0115,-0.0204,-0.0044,-0.09,0.70,-0.23,0,4.112,0.633,0.078,-0.386,0.013,-0.007,0.000,0.000,0.000,0.000
0,-0.5616,-10.8054,0.0105,0.0090,-0.0195,0.0029,-0.04,0.71,-0.22,0,4.117,0.197,-0.066,-0.294,0.015,-0.005,0.000,0.000,0.000,0.000
0,-0.5612,-10.8053,0.0090,0.0097,-0.0156,-0.0040,-0.09,0.73,-0.23,0,4.112,0.227,0.111,0.172,0.018,-0.003,0.000,0.000,0.000,0.000
0,-0.5603,-10.8058,0.0099,0.0137,-0.0152,0.0020,-0.15,0.75,-0.24,0,4.117,0.054,0.099,0.058,0.013,-0.004,0.000,0.000,0.000,0.000
0,-0.5612,-10.8062,0.0105,0.0072,-0.0149,0.0054,-0.13,0.75,-0.24,0,4.112,0.253,-0.219,-0.176,0.017,-0.002,0.000,0.000,0.000,0.000
0,-0.5615,-10.8053,0.0101,0.0046,-0.0070,0.0022,-0.18,0.75,-0.25,0,4.117,0.475,0.130,-0.038,0.013,-0.004,0.000,0.000,0.000,0.000
0,-0.5610,-10.8019,0.0111,0.0061,0.0119,0.0068,-0.26,0.76,-0.26,0,4.112,0.308,0.288,-0.143,0.015,-0.002,0.000,0.000,0.000,0.000
0,-0.5614,-10.8022,0.0109,0.0038,0.0084,0.0044,-0.23,0.75,-0.26,0,4.117,0.252,-0.093,0.075,0.014,-0.004,0.000,0.000,0.000,0.000
0,-0.5608,-10.8022,0.0107,0.0068,0.0059,0.0033,-0.07,0.71,-0.24,0,4.112,0.356,0.380,0.517,0.014,-0.005,0.000,0.000,0.000,0.000
0,-0.5614,-10.8007,0.0092,0.0025,0.0138,-0.0038,-0.18,0.77,-0.27,0,4.117,0.211,0.191,0.349,0.014,-0.003,0.000,0.000,0.000,0.000
0,-0.5614,-10.8030,0.0090,0.0018,-0.0001,-0.0036,-0.16,0.76,-0.26,0,4.112,0.127,0.260,-0.070,0.015,-0.005,0.000,0.000,0.000,0.000
0,-0.5608,-10.8034,0.0104,0.0053,-0.0025,0.0043,-0.13,0.75,-0.26,0,4.117,0.196,0.397,0.136,0.015,-0.004,0.000,0.000,0.000,0.000
0,-0.5614,-10.8024,0.0113,0.0020,0.0027,0.0085,-0.17,0.75,-0.26,0,4.112,0.122,0.163,-0.185,0.015,-0.004,0.000,0.000,0.000,0.000
0,-0.5611,-10.8026,0.0106,0.0035,0.0010,0.0031,-0.12,0.74,-0.26,0,4.117,0.016,0.178,0.386,0.016,-0.003,0.000,0.000,0.000,0.000
0,-0.5611,-10.8031,0.0109,0.0034,-0.0019,0.0043,-0.14,0.76,-0.26,0,4.112,0.274,0.097,-0.157,0.014,-0.005,0.000,0.000,0.000,0.000
0,-0.5616,-10.8024,0.0116,0.0012,0.0003,0.0072,-0.13,0.75,-0.27,0,4.117,0.167,0.022,-0.187,0.016,-0.003,0.000,0.000,0.000,0.000
0,-0.5613,-10.8027,0.0103,0.0025,-0.0013,0.0003,-0.13,0.74,-0.26,0,4.112,0.209,0.001,-0.237,0.015,-0.004,0.000,0.000,0.000,0.000
0,-0.5594,-10.8014,0.0107,0.0128,0.0057,0.0032,-0.14,0.65,-0.26,0,4.117,0.145,0.270,-0.159,0.015,-0.003,0.000,0.000,0.000,0.000
0,-0.5592,-10.8012,0.0110,0.0122,0.0054,0.0041,-0.21,0.66,-0.26,0,4.112,-0.035,-0.164,0.308,0.017,-0.006,0.000,0.000,0.000,0.000
0,-0.5587,-10.8023,0.0093,0.0134,-0.0018,-0.0047,-0.19,0.70,-0.27,0,4.117,0.127,0.093,0.100,0.013,-0.003,0.000,0.000,0.000,0.000
50,-0.5590,-10.8016,0.0095,0.0099,0.0003,-0.0019,-0.14,0.70,-0.27,0,4.112,0.318,0.273,-0.023,0.015,-0.004,0.000,0.000,0.000,0.000
101,-0.5589,-10.8005,0.0087,0.0086,0.0055,-0.0046,-0.12,0.68,-0.27,0,4.112,0.510,0.354,-0.122,0.015,-0.005,0.000,0.000,0.000,0.000
152,-0.5590,-10.8010,0.0079,0.0071,0.0019,-0.0072,-0.10,0.71,-0.27,0,4.112,-0.018,0.102,-0.281,0.016,-0.005,0.000,0.000,0.000,0.000
203,-0.5592,-10.8103,0.0089,0.0053,-0.0506,0.0003,0.21,0.72,-0.23,0,4.117,0.227,0.032,0.040,0.015,-0.003,0.000,0.000,0.000,0.000
254,-0.5599,-10.8092,0.0092,0.0013,-0.0358,0.0015,0.15,0.72,-0.24,0,4.112,0.433,0.235,-0.077,0.016,-0.005,0.000,0.000,0.000,0.000
305,-0.5560,-10.8026,0.0089,0.0204,0.0083,0.0006,-0.24,0.60,-0.31,0,4.117,0.301,0.062,-0.036,0.013,-0.004,0.000,0.000,0.000,0.000
356,-0.5561,-10.8021,0.0090,0.0164,0.0079,0.0013,-0.20,0.64,-0.30,0,4.112,0.224,-0.028,-0.263,0.014,-0.006,0.000,0.000,0.000,0.000
407,-0.5563,-10.8023,0.0087,0.0120,0.0049,-0.0005,-0.13,0.64,-0.29,0,4.117,0.013,0.124,0.066,0.017,-0.003,0.000,0.000,0.000,0.000
458,-0.5568,-10.7972,0.0087,0.0074,0.0311,-0.0004,-0.41,0.73,-0.35,0,4.112,0.281,0.017,0.139,0.014,-0.003,0.000,0.000,0.000,0.000
509,-0.5564,-10.7937,0.0089,0.0082,0.0438,0.0007,-0.60,0.74,-0.39,0,4.117,0.071,0.041,-0.341,0.014,-0.007,0.000,0.000,0.000,0.000
560,-0.5574,-10.7904,0.0077,0.0022,0.0517,-0.0048,-0.47,0.76,-0.38,0,4.112,0.254,0.038,-0.248,0.014,-0.006,0.000,0.000,0.000,0.000
611,-0.5570,-10.7898,0.0078,0.0045,0.0424,-0.0019,-0.36,0.76,-0.37,0,4.117,0.346,0.097,-0.051,0.016,-0.002,0.000,0.000,0.000,0.000
663,-0.5578,-10.7891,0.0079,0.0001,0.0362,-0.0007,-0.23,0.77,-0.38,0,4.112,-0.076,0.220,0.096,0.015,-0.002,0.000,0.000,0.000,0.000
713,-0.5558,-10.7913,0.0085,0.0106,0.0157,0.0032,0.11,0.73,-0.33,0,4.112,0.184,0.095,-0.075,0.012,-0.005,0.000,0.000,0.000,0.000
764,-0.5567,-10.7969,0.0089,0.0050,-0.0149,0.0052,0.05,0.74,-0.34,0,4.112,0.172,0.110,-0.048,0.014,-0.005,0.000,0.000,0.000,0.000
815,-0.5571,-10.7962,0.0083,0.0024,-0.0109,0.0010,0.02,0.74,-0.34,0,4.117,0.026,0.080,0.331,0.014,-0.003,0.000,0.000,0.000,0.000
866,-0.5569,-10.7954,0.0087,0.0041,-0.0061,0.0035,0.06,0.75,-0.34,0,4.112,0.269,0.133,0.080,0.015,-0.005,0.000,0.000,0.000,0.000
917,-0.5569,-10.8011,0.0075,0.0029,-0.0373,-0.0026,0.28,0.67,-0.34,0,4.117,0.235,0.275,-0.038,0.015,-0.005,0.000,0.000,0.000,0.000
969,-0.5550,-10.8039,0.0077,0.0119,-0.0448,-0.0009,0.18,0.70,-0.34,0,4.112,0.101,0.144,-0.138,0.013,-0.004,0.000,0.000,0.000,0.000
1019,-0.5540,-10.8102,0.0082,0.0157,-0.0701,0.0020,0.39,0.68,-0.32,0,4.112,0.063,0.142,-0.109,0.013,-0.006,0.000,0.000,0.000,0.000
1070,-0.5528,-10.8130,0.0083,0.0196,-0.0725,0.0024,0.31,0.70,-0.31,0,4.112,0.016,0.268,0.179,0.014,-0.003,0.000,0.000,0.000,0.000
1121,-0.5537,-10.8110,0.0095,0.0120,-0.0508,0.0084,0.19,0.68,-0.33,0,4.117,0.222,-0.040,-0.115,0.014,-0.003,0.000,0.000,0.000,0.000
1172,-0.5535,-10.8135,0.0092,0.0116,-0.0539,0.0051,0.09,0.71,-0.32,0,4.112,0.400,0.473,0.376,0.013,-0.002,0.000,0.000,0.000,0.000
1223,-0.5500,-10.8215,0.0082,0.0277,-0.0841,-0.0014,0.48,0.63,-0.31,0,4.117,0.091,0.102,0.053,0.013,-0.002,0.000,0.000,0.000,0.000
1274,-0.5509,-10.8240,0.0083,0.0191,-0.0821,0.0001,0.31,0.65,-0.32,0,4.112,0.484,0.244,-0.288,0.015,-0.007,0.000,0.000,0.000,0.000
1325,-0.5481,-10.8365,0.0083,0.0294,-0.1327,-0.0015,0.72,0.60,-0.26,0,4.112,0.050,0.416,0.175,0.016,-0.003,0.000,0.000,0.000,0.000
1376,-0.5499,-10.8331,0.0114,0.0148,-0.0873,0.0172,0.46,0.64,-0.27,0,4.112,-0.112,0.258,0.175,0.015,-0.003,0.000,0.000,0.000,0.000
1427,-0.5495,-10.8388,0.0114,0.0132,-0.0980,0.0135,0.31,0.71,-0.23,0,4.117,0.215,-0.217,0.090,0.016,-0.006,0.000,0.000,0.000,0.000
1478,-0.5502,-10.8396,0.0115,0.0070,-0.0839,0.0118,0.17,0.75,-0.22,0,4.112,-0.024,-0.210,0.003,0.015,-0.005,0.000,0.000,0.000,0.000
1529,-0.5488,-10.8438,0.0109,0.0131,-0.0877,0.0059,0.26,0.72,-0.22,0,4.117,0.259,-0.035,0.053,0.013,-0.002,0.000,0.000,0.000,0.000
1580,-0.5490,-10.8448,0.0105,0.0099,-0.0743,0.0037,0.07,0.74,-0.23,0,4.112,0.116,0.166,0.315,0.017,-0.003,0.000,0.000,0.000,0.000
1631,-0.5490,-10.8432,0.0112,0.0085,-0.0507,0.0075,-0.02,0.74,-0.24,0,4.112,0.119,0.146,-0.238,0.018,-0.004,0.000,0.000,0.000,0.000
1682,-0.5485,-10.8454,0.0087,0.0102,-0.0502,-0.0056,-0.08,0.74,-0.24,0,4.112,0.151,0.294,0.171,0.015,-0.004,0.000,0.000,0.000,0.000
1733,-0.5489,-10.8455,0.0074,0.0069,-0.0406,-0.0092,-0.24,0.76,-0.25,0,3.764,0.039,-0.463,-0.822,0.017,0.003,0.000,0.000,0.000,0.000
1784,-0.5491,-10.8455,0.0074,0.0033,-0.0313,-0.0060,-0.22,0.79,-0.25,0,3.838,-1.637,-0.713,0.711,0.012,-0.013,0.000,0.000,0.000,0.000
1835,-0.5490,-10.8450,0.0081,-0.0025,-0.0202,-0.0005,-0.34,0.82,-0.25,0,3.885,4.169,4.061,-10.427,-0.031,0.007,0.000,0.000,0.000,0.000
1886,-0.5489,-10.8445,0.0081,-0.0076,-0.0103,-0.0006,-0.34,0.86,-0.52,0,3.896,11.770,9.252,-31.474,0.026,0.018,0.000,0.000,0.000,0.000
1937,-0.5498,-10.8454,0.0066,-0.0163,-0.0087,-0.0061,-0.26,0.75,-1.51,0,3.906,-2.486,-2.727,-36.408,-0.008,-0.010,0.000,0.000,0.000,0.000
1988,-0.5491,-10.8426,0.0068,-0.0152,0.0077,-0.0031,-0.21,0.75,-3.06,0,3.911,1.253,0.655,-28.159,0.008,-0.019,0.000,0.000,0.000,0.000
2039,-0.5474,-10.8462,0.0064,-0.0091,-0.0093,-0.0031,-0.10,0.66,-4.41,0,3.911,0.249,0.759,-7.837,0.009,-0.020,0.000,0.000,0.000,0.000
2090,-0.5468,-10.8393,0.0075,-0.0076,0.0299,0.0016,-0.34,0.60,-4.86,0,3.906,-7.395,-11.196,-9.666,0.004,-0.014,0.000,0.000,0.000,0.000
2141,-0.5489,-10.8456,0.0075,-0.0212,-0.0065,-0.0002,-0.25,0.68,-5.36,0,3.911,-2.740,-0.964,-2.487,0.004,-0.012,0.000,0.000,0.000,0.000
2192,-0.5476,-10.8462,0.0084,-0.0141,-0.0100,0.0053,-0.25,0.68,-5.45,0,3.906,2.592,-5.145,4.691,0.015,-0.020,0.000,0.000,0.000,0.000
2243,-0.5481,-10.8406,0.0075,-0.0170,0.0242,0.0023,-0.48,0.55,-5.31,0,3.901,2.184,-0.648,-2.367,0.019,-0.015,0.000,0.000,0.000,0.000
2294,-0.5475,-10.8322,0.0081,-0.0130,0.0619,0.0046,-0.51,0.26,-5.24,0,3.901,-0.388,-4.771,1.586,0.018,0.000,0.000,0.000,0.000,0.000
2345,-0.5527,-10.8250,0.0077,-0.0385,0.0919,0.0022,-0.92,0.62,-5.43,0,3.901,-0.989,-5.366,0.350,0.009,-0.011,0.000,0.000,0.000,0.000
2396,-0.5522,-10.8178,0.0104,-0.0306,0.1059,0.0148,-0.50,0.42,-5.18,0,3.896,13.598,12.875,-2.558,0.018,-0.009,0.000,0.000,0.000,0.000
2447,-0.5533,-10.8206,0.0096,-0.0323,0.0634,0.0103,0.13,0.06,-5.13,0,3.901,-4.610,-12.528,10.121,0.004,-0.013,0.000,0.000,0.000,0.000
2499,-0.5539,-10.8210,0.0108,-0.0277,0.0401,0.0080,0.21,0.18,-4.99,0,3.890,13.733,10.323,11.078,-0.000,-0.006,0.000,0.000,0.000,0.000
2549,-0.5583,-10.8239,0.0111,-0.0422,0.0045,0.0181,0.75,-0.01,-4.22,0,3.890,-12.386,-6.870,13.538,0.017,0.010,0.000,0.000,0.000,0.000
2600,-0.5606,-10.8270,0.0104,-0.0441,-0.0210,-0.0038,0.56,0.25,-3.50,0,3.885,0.026,1.088,5.852,-0.001,-0.003,0.000,0.000,0.000,0.000
2651,-0.5576,-10.8405,0.0110,-0.0191,-0.1007,0.0065,1.07,-0.04,-3.02,0,3.880,-11.831,-2.679,2.121,0.011,-0.006,0.000,0.000,0.000,0.000
2702,-0.5586,-10.8440,0.0107,-0.0193,-0.0982,0.0003,0.89,0.21,-2.92,0,3.874,2.349,1.431,1.524,0.010,-0.002,0.000,0.000,0.000,0.000
2753,-0.5596,-10.8607,0.0082,-0.0239,-0.1777,-0.0044,0.92,0.35,-2.49,0,3.880,-3.885,-8.942,6.167,0.008,-0.010,0.000,0.000,0.000,0.000
2804,-0.5615,-10.8635,0.0081,-0.0306,-0.1488,-0.0007,0.17,0.69,-2.37,0,3.869,-24.708,17.951,13.128,-0.005,-0.026,0.000,0.000,0.000,0.000
2855,-0.5606,-10.8636,0.0097,-0.0206,-0.1031,0.0079,-1.00,0.13,-2.12,0,3.869,-24.674,-11.435,7.760,0.011,-0.017,0.000,0.000,0.000,0.000
2906,-0.5613,-10.8555,0.0129,-0.0182,-0.0218,0.0277,-2.66,0.50,-1.86,0,3.869,0.852,2.839,10.951,-0.005,-0.031,0.000,0.000,0.000,0.000
2957,-0.5645,-10.8432,0.0129,-0.0307,0.0713,0.0308,-3.45,0.52,-1.33,0,3.864,31.898,18.864,12.999,0.010,-0.017,0.000,0.000,0.000,0.000
3008,-0.5630,-10.8339,0.0105,-0.0203,0.1229,0.0157,-2.39,-0.27,-0.43,0,3.853,53.461,-12.194,19.033,0.003,-0.025,0.000,0.000,0.000,0.000
3059,-0.5653,-10.8189,0.0047,-0.0222,0.1988,-0.0038,-0.13,0.05,0.08,0,3.853,42.584,9.588,10.240,0.004,-0.016,0.000,0.000,0.000,0.000
3110,-0.5662,-10.8074,0.0024,-0.0219,0.2091,-0.0011,1.89,-0.23,0.34,0,3.848,23.316,0.998,12.675,-0.000,-0.011,0.000,0.000,0.000,0.000
3161,-0.5755,-10.7967,0.0007,-0.0549,0.2077,0.0016,3.26,-0.02,0.61,0,3.843,-1.835,7.541,5.886,-0.002,-0.005,0.000,0.000,0.000,0.000
3212,-0.5846,-10.7903,0.0007,-0.0878,0.1557,0.0144,3.40,-0.17,1.06,0,3.843,-6.269,31.631,10.856,0.001,-0.002,0.000,0.000,0.000,0.000
3263,-0.5741,-10.7901,0.0020,-0.0046,0.1269,0.0285,3.09,-1.84,1.10,0,3.838,-14.668,-4.091,11.618,-0.008,0.001,0.000,0.000,0.000,0.000
3314,-0.5795,-10.7807,0.0055,-0.0153,0.1010,0.0522,2.46,-2.01,1.52,0,3.838,-10.696,-20.353,7.973,0.004,-0.004,0.000,0.000,0.000,0.000
3365,-0.5793,-10.7774,0.0117,-0.0008,0.0696,0.0853,1.92,-1.00,2.40,0,3.843,-3.730,-22.626,6.736,0.018,-0.003,0.000,0.000,0.000,0.000
3416,-0.5807,-10.7723,0.0199,-0.0007,0.0576,0.1156,1.65,0.07,2.98,0,3.838,11.878,1.789,4.894,0.010,-0.005,0.000,0.000,0.000,0.000
3467,-0.5852,-10.7721,0.0298,-0.0288,-0.0183,0.1343,2.45,0.48,5.00,0,3.838,-33.075,15.698,6.245,0.012,-0.003,0.000,0.000,0.000,0.000
3518,-0.5840,-10.7766,0.0409,-0.0159,-0.0456,0.1502,1.78,-0.24,5.09,0,3.838,-19.716,16.042,1.813,0.010,-0.008,0.000,0.000,0.000,0.000
3569,-0.5871,-10.7785,0.0496,-0.0239,-0.0657,0.1560,0.37,-1.12,5.78,0,3.838,11.821,2.610,3.149,0.006,-0.008,0.000,0.000,0.000,0.000
3621,-0.5856,-10.7882,0.0581,-0.0008,-0.0996,0.1515,0.81,-1.41,5.89,0,3.832,-19.197,-0.384,5.398,0.006,-0.010,0.000,0.000,0.000,0.000
3671,-0.5846,-10.7950,0.0661,0.0143,-0.1115,0.1436,0.36,-1.37,6.32,0,3.832,-38.219,-32.677,4.277,-0.000,-0.002,0.000,0.000,0.000,0.000
3722,-0.5800,-10.8066,0.0735,0.0418,-0.1482,0.1342,-1.29,-0.21,6.49,0,3.827,-11.851,-16.240,2.807,0.005,-0.005,0.000,0.000,0.000,0.000
3773,-0.5788,-10.8116,0.0821,0.0365,-0.1227,0.1392,-2.40,0.99,6.53,0,3.827,-10.296,31.687,-4.197,-0.003,-0.004,0.000,0.000,0.000,0.000
3824,-0.5780,-10.8132,0.0881,0.0249,-0.0812,0.1283,-2.69,-0.33,6.44,0,3.822,-0.523,-14.530,-8.032,0.017,0.004,0.000,0.000,0.000,0.000
3876,-0.5734,-10.8204,0.0930,0.0415,-0.0849,0.1258,-2.53,-0.21,6.42,0,3.822,2.741,3.580,-12.702,-0.001,-0.004,0.000,0.000,0.000,0.000
3927,-0.5677,-10.8235,0.1002,0.0563,-0.0701,0.1246,-2.26,-0.09,6.11,0,3.816,-3.658,-4.266,-9.830,-0.002,-0.003,0.000,0.000,0.000,0.000
3978,-0.5638,-10.8258,0.1047,0.0601,-0.0511,0.1240,-2.22,-0.01,5.76,0,3.816,8.409,-23.030,-13.691,0.003,-0.009,0.000,0.000,0.000,0.000
4030,-0.5609,-10.8291,0.1076,0.0567,-0.0386,0.1128,-1.85,0.91,5.20,0,3.811,4.751,-0.779,-14.524,-0.003,-0.007,0.000,0.000,0.000,0.000
4081,-0.5601,-10.8295,0.1096,0.0387,-0.0142,0.1023,-1.79,1.33,4.30,0,3.806,7.292,-1.693,-15.408,0.005,-0.010,0.000,0.000,0.000,0.000
4132,-0.5572,-10.8284,0.1157,0.0310,0.0022,0.1211,-1.40,1.25,3.66,0,3.806,12.514,9.790,-14.567,0.000,-0.006,0.000,0.000,0.000,0.000
4183,-0.5570,-10.8299,0.1211,0.0159,0.0087,0.1355,-0.94,0.97,3.08,0,3.811,10.130,6.275,-12.382,0.002,-0.009,0.000,0.000,0.000,0.000
4234,-0.5555,-10.8255,0.1289,0.0102,0.0254,0.1585,-0.36,0.64,2.36,0,3.806,12.906,3.030,-11.327,0.001,-0.011,0.000,0.000,0.000,0.000
4285,-0.5558,-10.8225,0.1360,0.0013,0.0343,0.1726,0.17,0.47,1.83,0,3.811,0.652,5.704,-9.564,0.004,-0.009,0.000,0.000,0.000,0.000
4336,-0.5564,-10.8195,0.1444,-0.0046,0.0369,0.1804,0.29,0.24,1.40,0,3.806,8.760,7.148,-6.999,0.004,-0.007,0.000,0.000,0.000,0.000
4387,-0.5584,-10.8183,0.1533,-0.0128,0.0333,0.1899,0.43,-0.25,1.37,0,3.811,9.264,3.972,-6.582,0.006,-0.009,0.000,0.000,0.000,0.000
4438,-0.5551,-10.8088,0.1596,0.0014,0.0534,0.1897,0.94,-0.54,0.97,0,3.811,8.136,0.238,-4.678,0.003,-0.012,0.000,0.000,0.000,0.000
4489,-0.5565,-10.8058,0.1696,-0.0006,0.0475,0.1988,1.34,-0.56,0.74,0,3.816,-1.880,2.443,-2.437,0.007,-0.013,0.000,0.000,0.000,0.000
4540,-0.5571,-10.8040,0.1798,0.0018,0.0350,0.2028,1.38,-0.67,0.58,0,3.811,-1.275,4.121,-1.791,0.005,-0.011,0.000,0.000,0.000,0.000
4591,-0.5549,-10.7966,0.1882,0.0154,0.0453,0.1951,1.15,-0.85,0.50,0,3.816,0.982,-2.568,-1.677,0.008,-0.007,0.000,0.000,0.000,0.000
4642,-0.5544,-10.7945,0.2005,0.0210,0.0358,0.2065,1.26,-0.67,0.44,0,3.811,1.196,-2.895,-0.628,0.006,-0.008,0.000,0.000,0.000,0.000
4693,-0.5522,-10.7979,0.2129,0.0308,0.0063,0.2020,1.31,-0.51,0.33,0,3.816,-3.856,-3.759,-0.082,0.004,-0.010,0.000,0.000,0.000,0.000
4744,-0.5576,-10.7986,0.2210,0.0101,-0.0116,0.1953,1.29,-0.14,0.59,0,3.816,-3.181,-2.074,-0.452,0.004,-0.013,0.000,0.000,0.000,0.000
4795,-0.5592,-10.7981,0.2321,0.0047,-0.0198,0.1933,1.09,-0.03,0.55,0,3.816,-10.945,5.187,0.537,0.004,-0.008,0.000,0.000,0.000,0.000
4847,-0.5578,-10.7995,0.2393,0.0088,-0.0288,0.1697,0.56,-0.26,0.53,0,3.811,-6.327,3.017,0.467,0.005,-0.006,0.000,0.000,0.000,0.000
4897,-0.5587,-10.8019,0.2485,0.0066,-0.0375,0.1626,0.38,-0.37,0.62,0,3.816,-4.356,-1.026,0.982,0.006,-0.008,0.000,0.000,0.000,0.000
4948,-0.5585,-10.8063,0.2535,0.0088,-0.0482,0.1364,0.14,-0.32,0.71,0,3.811,-9.868,0.541,1.781,0.007,-0.010,0.000,0.000,0.000,0.000
4999,-0.5586,-10.8081,0.2574,0.0099,-0.0478,0.1131,-0.29,-0.33,0.77,0,3.806,-3.182,-2.487,0.230,0.008,-0.010,0.000,0.000,0.000,0.000
5050,-0.5575,-10.8121,0.2634,0.0141,-0.0501,0.1096,-0.46,-0.26,0.84,0,3.806,-1.703,-3.765,0.596,0.005,-0.013,0.000,0.000,0.000,0.000
5101,-0.5566,-10.8153,0.2680,0.0166,-0.0482,0.1014,-0.57,-0.13,0.85,0,3.806,-6.634,0.329,0.258,0.006,-0.007,0.000,0.000,0.000,0.000
5152,-0.5559,-10.8179,0.2738,0.0172,-0.0442,0.1003,-0.73,-0.07,0.89,0,3.806,-2.496,-2.911,0.969,0.006,-0.008,0.000,0.000,0.000,0.000
5203,-0.5545,-10.8205,0.2799,0.0189,-0.0392,0.1031,-0.81,0.02,0.90,0,3.811,2.885,2.145,0.331,0.003,-0.013,0.000,0.000,0.000,0.000
5254,-0.5536,-10.8231,0.2868,0.0187,-0.0344,0.1086,-0.67,0.05,0.91,0,3.806,0.449,0.958,1.302,0.005,-0.010,0.000,0.000,0.000,0.000
5305,-0.5524,-10.8240,0.2921,0.0189,-0.0270,0.1026,-0.66,-0.01,0.94,0,3.811,-0.918,-2.864,0.260,0.006,-0.013,0.000,0.000,0.000,0.000
5356,-0.5516,-10.8245,0.2975,0.0185,-0.0197,0.0980,-0.64,0.09,0.96,0,3.806,2.682,0.752,0.157,0.006,-0.013,0.000,0.000,0.000,0.000
5407,-0.5510,-10.8250,0.3020,0.0170,-0.0134,0.0909,-0.55,0.13,0.96,0,3.806,1.366,1.649,-0.383,0.009,-0.015,0.000,0.000,0.000,0.000
5458,-0.5502,-10.8255,0.3052,0.0159,-0.0088,0.0778,-0.42,0.06,0.95,0,3.801,1.987,0.880,-0.800,0.009,-0.010,0.000,0.000,0.000,0.000
5509,-0.5492,-10.8260,0.3087,0.0160,-0.0055,0.0698,-0.32,0.07,0.93,0,3.806,-0.761,0.353,0.296,0.005,-0.013,0.000,0.000,0.000,0.000
5560,-0.5508,-10.8263,0.3117,0.0104,-0.0030,0.0619,-0.25,0.07,0.92,0,3.801,3.022,1.729,-0.328,0.003,-0.014,0.000,0.000,0.000,0.000
5611,-0.5504,-10.8267,0.3160,0.0093,-0.0016,0.0634,-0.17,0.03,0.89,0,3.806,3.860,-0.031,-1.126,0.006,-0.013,0.000,0.000,0.000,0.000
5662,-0.5479,-10.8271,0.3173,0.0132,-0.0009,0.0494,-0.07,0.02,0.87,0,3.801,1.385,0.948,0.113,0.005,-0.012,0.000,0.000,0.000,0.000
5713,-0.5510,-10.8274,0.3193,0.0055,-0.0006,0.0432,-0.09,0.01,0.87,0,3.801,-0.349,0.188,0.179,0.004,-0.014,0.000,0.000,0.000,0.000
5764,-0.5507,-10.8282,0.3221,0.0055,-0.0015,0.0436,-0.12,-0.05,0.89,0,3.795,3.788,0.954,-0.578,0.004,-0.010,0.000,0.000,0.000,0.000
5815,-0.5493,-10.8282,0.3250,0.0080,-0.0008,0.0454,0.01,-0.08,0.87,0,3.801,-1.588,-0.654,-0.301,0.007,-0.011,0.000,0.000,0.000,0.000
5866,-0.5482,-10.8245,0.3275,0.0099,0.0062,0.0455,-0.10,-0.08,0.84,0,3.795,6.474,1.318,-1.040,0.005,-0.006,0.000,0.000,0.000,0.000
5917,-0.5461,-10.8091,0.3284,0.0140,0.0363,0.0382,-0.13,-0.12,0.83,0,3.795,9.026,0.936,-1.902,0.004,-0.010,0.000,0.000,0.000,0.000
5968,-0.5464,-10.8057,0.3300,0.0131,0.0403,0.0348,0.12,-0.11,0.77,0,3.795,5.367,-1.830,-1.166,0.009,-0.014,0.000,0.000,0.000,0.000
6019,-0.5465,-10.8041,0.3317,0.0126,0.0385,0.0348,0.42,0.00,0.69,0,3.795,4.450,-1.497,-0.953,0.009,-0.011,0.000,0.000,0.000,0.000
6070,-0.5475,-10.7961,0.3327,0.0096,0.0461,0.0295,0.58,0.11,0.67,0,3.790,0.404,-0.516,0.006,0.006,-0.012,0.000,0.000,0.000,0.000
6121,-0.5475,-10.7926,0.3316,0.0080,0.0435,0.0163,0.72,0.11,0.65,0,3.795,3.047,3.222,-0.616,0.005,-0.011,0.000,0.000,0.000,0.000
6172,-0.5511,-10.7924,0.3333,-0.0000,0.0340,0.0214,0.88,0.12,0.61,0,3.790,-3.320,-1.116,0.305,0.003,-0.014,0.000,0.000,0.000,0.000
6223,-0.5520,-10.7903,0.3335,-0.0026,0.0276,0.0185,0.89,0.10,0.59,0,3.795,-0.130,6.636,0.275,0.008,-0.008,0.000,0.000,0.000,0.000
6274,-0.5533,-10.7898,0.3358,-0.0052,0.0186,0.0274,0.83,-0.14,0.61,0,3.790,-4.273,0.095,1.004,0.007,-0.009,0.000,0.000,0.000,0.000
6325,-0.5573,-10.7890,0.3374,-0.0109,0.0114,0.0310,0.70,-0.13,0.65,0,3.795,-2.392,-0.636,0.049,0.008,-0.009,0.000,0.000,0.000,0.000
6376,-0.5588,-10.7899,0.3361,-0.0113,0.0032,0.0194,0.60,-0.24,0.70,0,3.785,-2.032,4.184,0.216,0.007,-0.008,0.000,0.000,0.000,0.000
6427,-0.5622,-10.7949,0.3377,-0.0140,-0.0108,0.0239,0.45,-0.35,0.71,0,3.790,-8.680,-1.635,-0.425,0.011,-0.006,0.000,0.000,0.000,0.000
6479,-0.5641,-10.7971,0.3392,-0.0134,-0.0172,0.0271,0.06,-0.33,0.71,0,3.790,-6.177,-0.638,-0.208,0.009,-0.009,0.000,0.000,0.000,0.000
6529,-0.5661,-10.8001,0.3411,-0.0130,-0.0217,0.0329,-0.16,-0.35,0.69,0,3.790,-5.181,2.203,0.236,0.006,-0.008,0.000,0.000,0.000,0.000
6580,-0.5665,-10.8033,0.3427,-0.0099,-0.0240,0.0342,-0.30,-0.36,0.68,0,3.790,-2.564,-3.104,-0.039,0.004,-0.010,0.000,0.000,0.000,0.000
6631,-0.5703,-10.8066,0.3436,-0.0128,-0.0250,0.0304,-0.44,-0.31,0.70,0,3.795,-1.961,3.202,0.917,0.006,-0.011,0.000,0.000,0.000,0.000
6682,-0.5707,-10.8082,0.3463,-0.0096,-0.0220,0.0358,-0.46,-0.41,0.73,0,3.790,-0.985,2.282,-0.180,0.009,-0.017,0.000,0.000,0.000,0.000
6733,-0.5700,-10.8109,0.3488,-0.0046,-0.0207,0.0383,-0.52,-0.39,0.73,0,3.790,-5.197,1.535,-0.184,0.006,-0.012,0.000,0.000,0.000,0.000
6784,-0.5702,-10.8119,0.3497,-0.0012,-0.0162,0.0305,-0.66,-0.40,0.72,0,3.790,-0.600,-1.434,-0.519,0.005,-0.012,0.000,0.000,0.000,0.000
6835,-0.5702,-10.8126,0.3495,0.0019,-0.0109,0.0199,-0.60,-0.32,0.67,0,3.790,1.546,0.506,-0.439,0.008,-0.008,0.000,0.000,0.000,0.000
6886,-0.5686,-10.8101,0.3504,0.0068,-0.0009,0.0167,-0.51,-0.17,0.65,0,3.785,4.655,-1.810,0.107,0.006,-0.013,0.000,0.000,0.000,0.000
6937,-0.5654,-10.8020,0.3512,0.0132,0.0168,0.0147,-0.36,-0.14,0.62,0,3.790,7.282,-4.958,-0.628,0.008,-0.012,0.000,0.000,0.000,0.000
6989,-0.5640,-10.8009,0.3526,0.0154,0.0199,0.0165,-0.14,0.01,0.61,0,3.785,1.995,0.478,1.195,0.006,-0.013,0.000,0.000,0.000,0.000
7039,-0.5643,-10.7915,0.3515,0.0135,0.0346,0.0060,-0.05,0.08,0.64,0,3.785,11.068,-0.848,0.278,0.003,-0.012,0.000,0.000,0.000,0.000
7090,-0.5636,-10.7868,0.3515,0.0128,0.0392,0.0034,0.36,0.14,0.67,0,3.785,3.227,0.377,1.679,0.006,-0.017,0.000,0.000,0.000,0.000
7141,-0.5648,-10.7853,0.3514,0.0086,0.0349,0.0024,0.65,0.20,0.73,0,3.774,-55.359,51.253,4.994,-0.004,-0.027,0.000,0.000,0.000,0.000
7192,-0.5619,-10.7815,0.3513,0.0115,0.0332,-0.0007,-0.85,-1.20,0.90,0,3.774,-174.775,167.682,8.648,0.000,-0.022,0.000,0.000,0.000,0.000
7243,-0.5622,-10.7726,0.3505,0.0308,0.0643,-0.0086,-8.71,-8.42,0.58,0,3.779,-84.042,94.865,14.254,0.019,-0.006,0.000,0.000,0.000,0.000
7294,-0.5598,-10.7565,0.3539,0.1147,0.1727,0.0077,-14.56,-14.57,0.00,0,3.774,2.808,1.668,16.074,0.007,-0.019,0.000,0.000,0.000,0.000
7345,-0.5568,-10.7453,0.3576,0.2310,0.3017,0.0051,-14.90,-15.77,0.58,0,3.779,-25.867,12.513,12.403,-0.006,-0.030,0.000,0.000,0.000,0.000
7396,-0.5410,-10.7263,0.3605,0.3609,0.4325,-0.0112,-15.50,-16.18,1.17,0,3.774,-50.615,35.204,9.296,-0.007,-0.030,0.000,0.000,0.000,0.000
7447,-0.5186,-10.7048,0.3577,0.4920,0.5626,-0.0579,-17.66,-17.88,1.39,0,3.774,-5.396,11.171,6.099,-0.010,-0.028,0.000,0.000,0.000,0.000
7498,-0.4909,-10.6770,0.3549,0.6317,0.7089,-0.0951,-18.61,-18.97,1.39,0,3.764,3.876,-9.012,5.986,-0.017,-0.039,0.000,0.000,0.000,0.000
7549,-0.4593,-10.6368,0.3534,0.7792,0.8769,-0.1157,-18.47,-18.76,1.56,0,3.764,-10.504,2.367,4.619,-0.026,-0.045,0.000,0.000,0.000,0.000
7600,-0.4075,-10.5792,0.3477,0.9435,1.0579,-0.1478,-18.63,-18.86,2.22,0,3.748,-4.285,1.824,-1.189,-0.030,-0.048,0.000,0.000,0.000,0.000
7652,-0.3646,-10.5301,0.3399,1.0737,1.2104,-0.1744,-18.68,-19.05,3.39,0,3.748,-2.432,-34.624,-9.239,-0.035,-0.058,0.000,0.000,0.000,0.000
7702,-0.3170,-10.4708,0.3383,1.1952,1.3692,-0.1579,-18.25,-17.80,5.25,0,3.748,-3.662,-56.870,-21.566,-0.050,-0.063,0.000,0.000,0.000,0.000
7753,-0.2682,-10.3970,0.3321,1.2842,1.5329,-0.1591,-17.59,-15.36,8.53,0,3.748,-6.790,-54.065,-34.976,-0.056,-0.075,0.000,0.000,0.000,0.000
7804,-0.2407,-10.3403,0.3228,1.3122,1.6497,-0.1625,-17.48,-12.13,9.72,0,3.743,-11.230,-45.309,-46.336,-0.065,-0.086,0.000,0.000,0.000,0.000
7855,-0.2225,-10.2700,0.3144,1.2931,1.7601,-0.1569,-17.39,-9.46,12.14,0,3.737,-11.293,-35.359,-60.826,-0.062,-0.103,0.000,0.000,0.000,0.000
7906,-0.2433,-10.2358,0.3070,1.2047,1.7741,-0.1400,-17.02,-6.59,13.70,0,3.743,-13.194,-17.443,-67.614,-0.064,-0.108,0.000,0.000,0.000,0.000
7957,-0.2471,-10.2122,0.3006,1.1362,1.7862,-0.1189,-17.45,-4.08,10.86,0,3.737,-0.586,38.382,-59.148,-0.069,-0.108,0.000,0.000,0.000,0.000
8008,-0.1975,-10.1365,0.2923,1.1318,1.9286,-0.1132,-18.05,-4.04,6.35,0,3.732,-4.264,51.943,-52.611,-0.040,-0.138,0.000,0.000,0.000,0.000
8059,-0.1550,-10.0866,0.2873,1.1336,2.0219,-0.0865,-18.02,-5.39,2.50,0,3.737,6.284,50.302,-50.254,-0.051,-0.138,0.000,0.000,0.000,0.000
8110,-0.1486,-10.0498,0.2869,1.1194,2.0270,-0.0386,-17.20,-6.85,1.61,0,3.743,11.136,76.934,-48.719,-0.026,-0.157,0.000,0.000,0.000,0.000
8161,-0.1305,-10.0126,0.2867,1.1397,2.0430,-0.0044,-17.12,-9.28,-3.07,0,3.457,-1999.994,37.717,116.175,0.015,-0.939,0.000,0.000,0.000,0.000
8212,0.1397,-9.9508,0.2266,1.2284,1.9463,-1.5634,-95.53,-9.37,-7.72,0,3.399,-292.775,-91.342,76.085,0.008,-0.050,0.000,0.000,0.000,0.000
8263,0.2354,-9.8747,0.1445,1.2891,2.0029,-2.0848,-117.10,-7.16,-10.57,0,3.547,332.688,10.885,117.014,-0.072,-0.003,0.000,0.000,0.000,0.000
8314,0.8211,-10.2590,0.1107,2.0928,2.1672,-2.0979,-104.34,4.71,-25.58,0,3.605,817.609,190.364,147.975,-0.068,-0.149,0.000,0.000,0.000,0.000
8365,1.1984,-10.3331,0.0471,2.7249,2.6258,-2.3094,-62.11,1.47,-45.56,0,3.690,750.818,361.694,-190.914,-2.771,-6.070,0.000,0.000,0.000,0.000
8416,4.1781,-12.3910,0.4455,3.7078,-1.1541,-0.0950,-15.61,-13.03,-115.89,0,3.558,-934.615,1108.047,-898.216,-0.247,-0.064,0.000,0.000,0.000,0.000
8467,6.1696,-12.2132,0.8005,4.9820,-4.6888,2.4838,-77.77,-17.66,131.29,0,3.653,-319.917,1416.122,-789.440,-0.121,0.105,0.000,0.000,0.000,0.000
8518,4.8560,-14.3756,0.1560,1.2236,-2.3072,-3.2875,-101.13,39.87,55.86,0,3.510,912.034,-265.035,-1241.958,0.961,1.962,0.000,0.000,0.000,0.000
8569,5.1024,-14.7433,-0.0700,0.5795,-2.2328,-4.7945,46.72,82.87,-73.52,0,3.600,500.074,-700.334,-584.471,-0.041,0.028,0.000,0.000,0.000,0.000
8620,4.9404,-14.6894,-0.3044,0.5036,-2.5819,-5.4680,177.37,27.22,-158.44,0,3.642,-105.218,-932.737,-409.592,-0.065,-0.108,0.000,0.000,0.000,0.000
8671,4.1212,-13.8184,-0.1807,2.4564,-4.5358,-3.3562,-157.60,-26.24,-125.63,0,3.621,-371.752,-661.323,-229.144,-0.056,1.481,0.000,0.000,0.000,0.000
8722,4.5523,-14.1193,-0.0716,3.1881,-5.1719,-2.2467,-154.69,-37.53,-83.64,0,3.690,-219.631,57.588,-430.508,-0.061,0.050,0.000,0.000,0.000,0.000
8773,5.2032,-14.8169,0.1781,3.8247,-4.8807,-0.8483,-167.02,-22.73,-57.15,0,3.700,90.464,-177.759,-340.593,-0.026,0.062,0.000,0.000,0.000,0.000
8824,5.6551,-15.3418,0.2352,4.0362,-4.2687,-0.7350,-163.22,-21.78,-35.68,0,3.648,332.254,-377.879,-248.098,-0.068,0.036,0.000,0.000,0.000,0.000
8875,5.9915,-15.7067,0.2496,4.0451,-3.9693,-1.0476,-140.85,-30.19,-13.41,0,3.716,306.011,-166.420,-290.184,-0.046,0.083,0.000,0.000,0.000,0.000
8926,6.2877,-16.0185,0.2511,3.9773,-3.6069,-1.4036,-120.65,-24.36,4.86,0,3.669,652.581,-387.345,-187.641,-0.097,0.224,0.000,0.000,0.000,0.000
8977,6.4311,-16.1635,0.1426,3.6865,-3.1652,-2.3449,-88.59,-18.17,26.22,0,3.648,283.348,-342.232,-120.541,-0.089,0.037,0.000,0.000,0.000,0.000
9028,6.6742,-16.3628,0.0092,3.4312,-2.6079,-2.8170,-78.76,-10.56,44.75,0,3.616,93.149,-226.912,-83.182,-0.116,0.149,0.000,0.000,0.000,0.000
9079,6.9595,-16.5640,0.0125,3.3838,-2.2626,-2.5630,-77.68,-2.46,55.98,0,3.658,-105.605,5.947,-185.455,-0.016,0.303,0.000,0.000,0.000,0.000
9130,7.2196,-16.6590,-0.0395,3.2194,-1.7000,-2.4573,-81.40,-1.48,65.19,0,3.684,-109.438,15.431,70.922,-0.130,1.082,0.000,0.000,0.000,0.000
9181,7.4736,-16.6559,-0.0247,3.1075,-1.0857,-2.0227,-86.76,-7.42,74.99,0,3.642,-253.583,117.474,77.313,-0.055,0.891,0.000,0.000,0.000,0.000
9232,7.6184,-16.7050,-0.1369,2.6388,-0.9487,-2.4993,-95.59,-10.64,69.51,0,3.658,1.767,98.984,-81.791,0.460,3.287,0.000,0.000,0.000,0.000
9283,7.7269,-16.7534,-0.2712,2.1084,-0.7853,-3.0126,-61.04,-5.49,85.91,0,3.494,-379.206,-204.324,212.079,0.150,0.117,0.000,0.000,0.000,0.000
9334,7.8067,-16.6963,-0.1338,3.8264,-1.2544,-2.8502,-83.13,-20.35,84.53,0,3.521,-319.804,-214.858,-1163.783,-2.346,0.784,0.000,0.000,0.000,0.000
9385,7.8164,-16.6853,-0.0427,3.0860,-1.3651,-2.1304,-95.40,13.20,110.56,0,3.505,-411.400,-1066.483,-228.474,-0.356,0.155,0.000,0.000,0.000,0.000
9436,7.9134,-16.4843,-0.1000,2.3251,-0.7733,-2.5888,-121.96,16.19,158.21,0,3.558,-174.042,-629.502,-566.499,-0.041,-0.083,0.000,0.000,0.000,0.000
9487,7.6167,-16.2102,-0.1531,1.0528,-0.4514,-2.9134,-148.11,19.55,-155.63,0,3.494,-958.947,-175.201,-523.347,-0.145,-0.119,0.000,0.000,0.000,0.000
9538,7.1955,-16.5406,-0.3117,0.3796,-2.0367,-3.9820,162.02,18.34,-121.43,0,3.653,179.844,-467.421,-301.538,-0.154,-0.063,0.000,0.000,0.000,0.000
9589,7.0244,-16.5340,-0.4241,0.1130,-2.0242,-4.3994,174.19,10.53,-103.29,0,3.706,-545.475,-281.407,-221.006,-0.046,-0.034,0.000,0.000,0.000,0.000
9640,6.9104,-16.6935,-0.5974,0.1581,-2.1496,-4.8016,151.51,3.61,-90.33,0,3.600,-650.832,232.281,-183.452,-0.043,-0.047,0.000,0.000,0.000,0.000
9691,6.7246,-17.1979,-0.6537,0.4809,-2.7743,-4.4389,116.39,10.34,-73.90,0,3.695,-990.720,230.670,-77.827,-0.037,-0.107,0.000,0.000,0.000,0.000
9742,6.6724,-17.4119,-0.8595,-0.1916,-3.0687,-5.1499,67.09,10.58,-59.44,0,3.626,-324.795,-148.980,-14.078,0.042,-0.273,0.000,0.000,0.000,0.000
9793,5.7173,-19.2645,-0.5467,-0.3227,-5.2538,-1.9767,14.22,37.04,-46.73,0,3.552,-1024.966,-59.714,-211.384,-0.050,-0.228,0.000,0.000,0.000,0.000
9844,5.0488,-20.6977,-0.1014,-1.6295,-6.2824,0.3067,-47.92,54.06,-43.32,0,3.489,-1685.247,-1239.079,-410.603,-0.500,1.524,0.000,0.000,0.000,0.000
9895,4.3074,-22.4053,0.4313,-3.1609,-6.4342,4.3681,-145.70,66.41,10.33,0,3.637,-305.026,-383.880,164.292,-0.581,-0.163,0.000,0.000,0.000,0.000
9946,0.0000,0.0000,0.0000,0.0000,0.0000,0.0000,-7.74,1.05,3.41,0,3.347,-31.427,324.674,65.991,-0.041,-0.181,0.000,0.000,0.000,0.000
9997,0.0006,-0.0027,0.6050,0.0076,-0.0555,-0.5160,1.13,-9.30,6.46,0,3.975,-244.970,99.029,-283.354,-0.285,-0.103,0.000,0.000,0.000,0.000
10048,-0.0054,-0.0092,0.5646,-0.2582,-0.2194,-1.5270,-2.87,-15.39,-4.46,0,3.980,0.863,150.237,-263.564,-0.411,-0.314,0.000,0.000,0.000,0.000
10099,-0.0241,-0.0215,0.5288,-0.4955,-0.3148,-2.2153,-6.39,-10.25,-15.67,0,3.991,22.634,2.096,-86.072,0.011,-0.155,0.000,0.000,0.000,0.000
10150,-0.0577,-0.0419,0.4769,-0.7110,-0.4663,-2.7403,-10.33,-10.52,-21.06,0,3.991,26.466,7.461,-4.653,0.170,0.013,0.000,0.000,0.000,0.000
10201,-0.1042,-0.0718,0.4279,-0.8136,-0.5674,-3.1127,-15.21,-13.60,-22.67,0,3.996,5.878,1.812,-0.072,0.002,0.016,0.000,0.000,0.000,0.000
10252,-0.1586,-0.1103,0.4018,-0.8893,-0.6086,-3.2884,-21.23,-17.11,-24.02,0,3.996,-0.622,-0.056,1.063,0.008,-0.004,0.000,0.000,0.000,0.000
10304,-0.2133,-0.1517,0.3693,-0.9477,-0.6373,-3.4774,-24.99,-18.69,-24.71,0,4.001,-0.641,-0.094,-0.028,0.008,-0.002,0.000,0.000,0.000,0.000
10355,-0.2620,-0.1954,0.3458,-0.9705,-0.6664,-3.5765,-27.23,-19.51,-24.79,0,3.996,-2.261,-0.531,-0.730,0.013,-0.009,0.000,0.000,0.000,0.000
10407,-0.3069,-0.2386,0.3192,-0.9808,-0.6964,-3.6656,-28.13,-20.05,-24.35,0,4.006,1.607,0.170,0.260,0.010,-0.012,0.000,0.000,0.000,0.000
10457,-0.3423,-0.2838,0.2989,-1.0075,-0.7572,-3.6806,-26.61,-18.90,-22.99,0,4.001,0.006,-0.104,-0.017,0.008,-0.006,0.000,0.000,0.000,0.000
10509,-0.3766,-0.3259,0.2844,-0.9625,-0.7612,-3.6644,-26.27,-18.47,-22.12,0,4.006,-0.537,-0.089,0.029,0.010,-0.013,0.000,0.000,0.000,0.000
10559,-0.3994,-0.3653,0.2781,-0.9345,-0.7700,-3.6164,-28.24,-19.60,-22.20,0,4.006,-0.105,-0.086,-0.721,0.007,-0.010,0.000,0.000,0.000,0.000
10611,-0.4080,-0.3926,0.2736,-0.8327,-0.7278,-3.5846,-28.56,-19.57,-21.87,0,4.012,0.381,0.044,-0.223,0.009,-0.007,0.000,0.000,0.000,0.000
10661,-0.3999,-0.4081,0.2665,-0.7365,-0.6735,-3.5748,-30.39,-20.57,-22.28,0,4.006,0.239,-0.523,-0.193,0.012,-0.008,0.000,0.000,0.000,0.000
10712,-0.3689,-0.4072,0.2590,-0.5900,-0.5955,-3.5728,-31.19,-21.01,-22.47,0,4.012,0.430,0.366,0.015,0.009,-0.007,0.000,0.000,0.000,0.000
10763,-0.3205,-0.3973,0.2524,-0.4971,-0.5510,-3.5469,-29.63,-19.74,-22.00,0,4.012,-0.012,0.182,0.096,0.008,-0.008,0.000,0.000,0.000,0.000
10814,-0.2654,-0.3860,0.2542,-0.4758,-0.5544,-3.4716,-27.41,-17.95,-21.45,0,4.017,-0.360,-0.096,-0.105,0.009,-0.008,0.000,0.000,0.000,0.000
10865,-0.1874,-0.3563,0.2582,-0.3400,-0.4817,-3.3933,-27.20,-17.68,-21.48,0,4.012,-0.121,0.016,-0.132,0.010,-0.006,0.000,0.000,0.000,0.000
10916,-0.0848,-0.3070,0.2730,-0.1286,-0.3505,-3.2746,-28.15,-18.32,-21.82,0,4.017,-0.323,-0.261,-0.066,0.011,-0.008,0.000,0.000,0.000,0.000
10967,0.0487,-0.2364,0.2851,0.1247,-0.1998,-3.2130,-28.20,-18.30,-21.95,0,4.012,0.483,0.092,0.096,0.011,-0.008,0.000,0.000,0.000,0.000
11018,0.1921,-0.1616,0.2939,0.2956,-0.1077,-3.1868,-27.89,-18.08,-22.07,0,4.017,0.072,0.156,-0.309,0.011,-0.008,0.000,0.000,0.000,0.000
11069,0.3378,-0.0867,0.3000,0.3900,-0.0642,-3.1833,-26.25,-16.87,-21.88,0,4.017,0.274,0.214,-0.131,0.009,-0.007,0.000,0.000,0.000,0.000
11120,0.4744,-0.0187,0.2987,0.4239,-0.0554,-3.2286,-24.37,-15.44,-21.61,0,4.017,0.153,0.019,-0.138,0.011,-0.005,0.000,0.000,0.000,0.000
11171,0.5953,0.0405,0.2875,0.4112,-0.0668,-3.3553,-21.90,-13.46,-21.18,0,4.017,-0.318,0.185,0.106,0.010,-0.008,0.000,0.000,0.000,0.000
11222,0.7942,0.1498,0.3026,0.6628,0.0847,-3.2894,-22.42,-13.80,-21.07,0,4.022,0.085,-0.056,-0.067,0.008,-0.008,0.000,0.000,0.000,0.000
11273,1.0067,0.2676,0.2889,0.9178,0.2314,-3.4230,-22.63,-13.94,-20.93,0,4.017,-1.669,-0.382,-0.069,0.007,-0.006,0.000,0.000,0.000,0.000
11324,1.2065,0.3760,0.3110,1.0585,0.3226,-3.3017,-20.16,-11.87,-20.37,0,4.022,-1.465,0.267,-0.082,0.010,-0.009,0.000,0.000,0.000,0.000
11375,1.3473,0.4440,0.3082,1.0287,0.2960,-3.3723,-18.18,-10.24,-19.98,0,4.022,-0.377,0.082,-0.258,0.010,-0.014,0.000,0.000,0.000,0.000
11426,1.5978,0.5871,0.3316,1.2829,0.4644,-3.2616,-17.22,-9.40,-19.58,0,4.022,0.538,0.029,-0.047,0.008,-0.013,0.000,0.000,0.000,0.000
11477,1.8115,0.7071,0.3271,1.4219,0.5536,-3.3596,-16.38,-8.67,-19.24,0,4.022,0.809,0.358,-0.233,0.010,-0.011,0.000,0.000,0.000,0.000
11528,2.0805,0.8623,0.3478,1.6525,0.7068,-3.2865,-16.05,-8.35,-18.85,0,4.028,0.801,0.281,0.031,0.009,-0.009,0.000,0.000,0.000,0.000
11579,2.3867,1.0431,0.3331,1.9421,0.8900,-3.4409,-15.77,-8.09,-18.55,0,4.022,0.736,0.457,0.286,0.010,-0.010,0.000,0.000,0.000,0.000
11630,2.7233,1.2425,0.3451,2.2259,1.0741,-3.3936,-14.69,-7.19,-18.23,0,4.028,1.156,0.083,-0.183,0.010,-0.005,0.000,0.000,0.000,0.000
11681,3.0490,1.4365,0.3278,2.4556,1.2187,-3.5300,-12.97,-5.75,-17.96,0,4.022,0.506,0.221,-0.192,0.011,-0.007,0.000,0.000,0.000,0.000
11732,3.3640,1.6203,0.3461,2.5928,1.3085,-3.4015,-11.31,-4.28,-17.64,0,4.028,0.555,0.204,-0.201,0.011,-0.006,0.000,0.000,0.000,0.000
11783,3.7180,1.8360,0.3324,2.8311,1.4714,-3.4928,-10.35,-3.41,-17.34,0,4.028,0.212,0.195,-0.199,0.010,-0.008,0.000,0.000,0.000,0.000
11834,4.0857,2.0606,0.3549,3.0432,1.6277,-3.3448,-9.18,-2.29,-16.95,0,4.033,-0.180,-0.095,-0.140,0.013,-0.009,0.000,0.000,0.000,0.000
11885,4.4508,2.2841,0.3441,3.2595,1.7723,-3.4429,-7.30,-0.63,-16.72,0,4.028,0.212,0.157,-0.217,0.009,-0.007,0.000,0.000,0.000,0.000
11936,4.7929,2.4937,0.3676,3.3740,1.8607,-3.3134,-4.84,1.51,-16.55,0,4.033,0.137,0.227,-0.331,0.010,-0.011,0.000,0.000,0.000,0.000
11987,5.1765,2.7347,0.3556,3.6001,2.0200,-3.4377,-3.87,2.45,-16.27,0,4.028,0.005,-0.098,0.173,0.011,-0.008,0.000,0.000,0.000,0.000
