time_ms,pos_x,pos_y,pos_z,vel_x,vel_y,vel_z,roll,pitch,yaw,thrust,vbat,gyro_x,gyro_y,gyro_z,acc_x,acc_y,acc_z,rate_roll,rate_pitch,rate_yaw
0,-0.0178,-0.2487,0.0068,0.0146,0.0947,0.0016,-1.29,0.83,-0.08,0,3.753,0.357,-0.510,-0.388,0.020,-0.009,0.000,0.000,0.000,0.000
0,-0.0187,-0.2499,0.0075,0.0082,0.0704,0.0056,-1.16,0.93,-0.09,0,3.758,0.149,-0.003,0.062,0.019,-0.007,0.000,0.000,0.000,0.000
0,-0.0206,-0.2449,0.0066,-0.0009,0.0803,-0.0000,-1.02,0.95,-0.09,0,3.753,-0.072,-0.003,0.030,0.019,-0.010,0.000,0.000,0.000,0.000
0,-0.0206,-0.2459,0.0071,-0.0008,0.0611,0.0029,-0.89,0.94,-0.09,0,3.758,-0.162,-0.167,-0.206,0.019,-0.010,0.000,0.000,0.000,0.000
0,-0.0202,-0.2476,0.0075,0.0024,0.0397,0.0047,-0.70,0.94,-0.08,0,3.753,0.126,-0.006,0.020,0.017,-0.007,0.000,0.000,0.000,0.000
0,-0.0204,-0.2473,0.0075,0.0013,0.0335,0.0035,-0.64,0.94,-0.09,0,3.758,-0.071,-0.067,0.122,0.019,-0.009,0.000,0.000,0.000,0.000
0,-0.0201,-0.2471,0.0075,0.0027,0.0271,0.0029,-0.60,0.95,-0.09,0,3.753,-0.106,-0.008,-0.345,0.018,-0.010,0.000,0.000,0.000,0.000
0,-0.0201,-0.2475,0.0080,0.0024,0.0192,0.0046,-0.47,0.96,-0.09,0,3.758,0.052,0.072,0.068,0.019,-0.008,0.000,0.000,0.000,0.000
0,-0.0192,-0.2390,0.0080,0.0072,0.0566,0.0032,-0.82,0.91,-0.09,0,3.753,-0.106,-0.339,0.062,0.019,-0.008,0.000,0.000,0.000,0.000
0,-0.0190,-0.2375,0.0087,0.0074,0.0528,0.0064,-0.75,0.91,-0.09,0,3.758,-0.072,-0.087,0.088,0.019,-0.007,0.000,0.000,0.000,0.000
0,-0.0191,-0.2374,0.0070,0.0054,0.0435,-0.0025,-0.65,0.91,-0.08,0,3.753,-0.170,0.123,-0.132,0.020,-0.011,0.000,0.000,0.000,0.000
0,-0.0180,-0.2370,0.0075,0.0096,0.0359,0.0013,-0.65,0.95,-0.08,0,3.758,-0.058,0.108,0.124,0.018,-0.008,0.000,0.000,0.000,0.000
0,-0.0191,-0.2354,0.0075,0.0037,0.0362,0.0009,-0.56,0.95,-0.08,0,3.753,-0.141,-0.141,0.248,0.019,-0.009,0.000,0.000,0.000,0.000
0,-0.0209,-0.2207,0.0075,-0.0057,0.1009,-0.0014,-0.96,1.02,-0.08,0,3.758,-0.008,-0.190,0.107,0.017,-0.009,0.000,0.000,0.000,0.000
0,-0.0209,-0.2129,0.0083,-0.0042,0.1200,0.0006,-1.10,1.02,-0.08,0,3.753,-0.033,0.053,-0.053,0.019,-0.010,0.000,0.000,0.000,0.000
0,-0.0193,-0.2100,0.0081,0.0049,0.1116,0.0002,-1.00,0.94,-0.08,0,3.758,-0.216,0.066,0.266,0.019,-0.009,0.000,0.000,0.000,0.000
0,-0.0195,-0.2087,0.0071,0.0037,0.0949,-0.0038,-0.83,0.94,-0.08,0,3.753,0.084,0.067,0.356,0.019,-0.008,0.000,0.000,0.000,0.000
0,-0.0195,-0.2100,0.0078,0.0037,0.0688,0.0009,-0.62,0.94,-0.08,0,3.758,0.052,-0.207,-0.262,0.022,-0.007,0.000,0.000,0.000,0.000
0,-0.0188,-0.2130,0.0082,0.0072,0.0406,0.0029,-0.46,0.92,-0.08,0,3.753,-0.127,0.093,-0.165,0.017,-0.009,0.000,0.000,0.000,0.000
0,-0.0188,-0.2154,0.0088,0.0053,0.0190,0.0058,-0.28,0.95,-0.08,0,3.758,0.022,-0.174,-0.121,0.019,-0.009,0.000,0.000,0.000,0.000
0,-0.0227,-0.2116,0.0092,-0.0155,0.0326,0.0062,-0.38,1.08,-0.07,0,3.753,0.093,-0.046,-0.194,0.016,-0.008,0.000,0.000,0.000,0.000
0,-0.0226,-0.2129,0.0084,-0.0122,0.0182,0.0009,-0.30,1.05,-0.07,0,3.758,0.106,0.110,-0.349,0.018,-0.008,0.000,0.000,0.000,0.000
0,-0.0223,-0.2127,0.0074,-0.0082,0.0131,-0.0044,-0.22,1.01,-0.08,0,3.753,-0.116,-0.319,-0.154,0.018,-0.011,0.000,0.000,0.000,0.000
0,-0.0227,-0.2128,0.0085,-0.0090,0.0073,0.0018,-0.27,1.01,-0.08,0,3.758,0.076,-0.157,0.092,0.016,-0.007,0.000,0.000,0.000,0.000
0,-0.0225,-0.2126,0.0084,-0.0056,0.0043,0.0011,-0.18,1.00,-0.08,0,3.753,0.106,0.084,0.111,0.017,-0.007,0.000,0.000,0.000,0.000
0,-0.0255,-0.2296,0.0076,-0.0203,-0.0849,-0.0042,0.34,1.08,-0.08,0,3.758,0.196,0.212,0.013,0.019,-0.006,0.000,0.000,0.000,0.000
0,-0.0254,-0.2285,0.0086,-0.0153,-0.0653,0.0016,0.24,1.04,-0.09,0,3.753,0.102,-0.338,-0.103,0.016,-0.006,0.000,0.000,0.000,0.000
0,-0.0256,-0.2284,0.0091,-0.0128,-0.0530,0.0036,0.13,1.01,-0.09,0,3.758,-0.226,0.144,0.359,0.016,-0.008,0.000,0.000,0.000,0.000
0,-0.0255,-0.2305,0.0083,-0.0090,-0.0539,-0.0010,-0.01,1.00,-0.08,0,3.748,0.162,0.453,0.120,0.018,-0.008,0.000,0.000,0.000,0.000
0,-0.0259,-0.2214,0.0084,-0.0089,0.0001,0.0004,-0.51,0.89,-0.09,0,3.758,0.029,0.095,-0.173,0.020,-0.011,0.000,0.000,0.000,0.000
0,-0.0253,-0.2179,0.0080,-0.0048,0.0161,-0.0015,-0.52,0.95,-0.08,0,3.753,-0.097,0.048,-0.228,0.020,-0.008,0.000,0.000,0.000,0.000
50,-0.0250,-0.2197,0.0080,-0.0012,0.0041,-0.0010,-0.46,0.93,-0.09,0,3.758,-0.123,0.018,0.452,0.018,-0.006,0.000,0.000,0.000,0.000
101,-0.0247,-0.2176,0.0066,0.0011,0.0125,-0.0073,-0.48,0.92,-0.08,0,3.753,0.129,0.037,-0.004,0.018,-0.007,0.000,0.000,0.000,0.000
153,-0.0250,-0.2186,0.0085,0.0006,0.0058,0.0027,-0.48,0.92,-0.09,0,3.758,0.058,0.035,-0.198,0.017,-0.008,0.000,0.000,0.000,0.000
204,-0.0250,-0.2177,0.0079,0.0016,0.0086,-0.0011,-0.41,0.91,-0.09,0,3.753,0.046,0.100,-0.072,0.016,-0.009,0.000,0.000,0.000,0.000
256,-0.0250,-0.2184,0.0075,0.0016,0.0028,-0.0033,-0.40,0.92,-0.10,0,3.764,-0.135,0.071,-0.038,0.016,-0.007,0.000,0.000,0.000,0.000
306,-0.0245,-0.2274,0.0060,0.0037,-0.0448,-0.0099,-0.04,0.91,-0.09,0,3.753,0.195,0.050,0.111,0.019,-0.008,0.000,0.000,0.000,0.000
357,-0.0245,-0.2288,0.0077,0.0040,-0.0444,0.0003,-0.15,0.91,-0.09,0,3.758,-0.182,-0.021,-0.080,0.017,-0.008,0.000,0.000,0.000,0.000
408,-0.0247,-0.2291,0.0077,0.0029,-0.0373,0.0002,-0.22,0.92,-0.09,0,3.753,0.089,-0.120,0.177,0.017,-0.010,0.000,0.000,0.000,0.000
459,-0.0252,-0.2281,0.0090,0.0008,-0.0249,0.0066,-0.30,0.91,-0.09,0,3.758,0.130,0.292,0.146,0.019,-0.007,0.000,0.000,0.000,0.000
511,-0.0247,-0.2281,0.0083,0.0032,-0.0196,0.0020,-0.33,0.92,-0.09,0,3.753,-0.164,-0.052,-0.044,0.021,-0.006,0.000,0.000,0.000,0.000
562,-0.0247,-0.2291,0.0092,0.0037,-0.0205,0.0056,-0.38,0.94,-0.09,0,3.758,-0.049,-0.073,-0.174,0.019,-0.007,0.000,0.000,0.000,0.000
612,-0.0251,-0.2288,0.0089,0.0022,-0.0156,0.0029,-0.34,0.91,-0.09,0,3.753,-0.148,0.118,0.013,0.018,-0.009,0.000,0.000,0.000,0.000
663,-0.0242,-0.2225,0.0081,0.0069,0.0203,-0.0015,-0.77,0.90,-0.09,0,3.758,0.153,-0.234,-0.026,0.019,-0.007,0.000,0.000,0.000,0.000
714,-0.0249,-0.2197,0.0089,0.0022,0.0295,0.0021,-0.66,0.93,-0.09,0,3.753,0.230,0.001,-0.167,0.019,-0.012,0.000,0.000,0.000,0.000
766,-0.0223,-0.2073,0.0070,0.0159,0.0877,-0.0089,-1.04,0.83,-0.09,0,3.758,-0.012,0.180,-0.258,0.018,-0.009,0.000,0.000,0.000,0.000
817,-0.0233,-0.1968,0.0060,0.0084,0.1254,-0.0136,-1.33,0.91,-0.10,0,3.753,0.124,0.050,-0.191,0.016,-0.009,0.000,0.000,0.000,0.000
868,-0.0232,-0.1972,0.0073,0.0073,0.1002,-0.0035,-1.06,0.90,-0.10,0,3.758,-0.237,-0.148,0.336,0.018,-0.009,0.000,0.000,0.000,0.000
918,-0.0230,-0.1971,0.0093,0.0075,0.0800,0.0077,-0.86,0.95,-0.11,0,3.753,-0.057,0.025,0.398,0.018,-0.009,0.000,0.000,0.000,0.000
970,-0.0233,-0.1976,0.0088,0.0056,0.0610,0.0043,-0.68,0.93,-0.10,0,3.758,0.101,0.178,0.118,0.018,-0.006,0.000,0.000,0.000,0.000
1021,-0.0235,-0.1979,0.0096,0.0040,0.0470,0.0075,-0.63,0.95,-0.10,0,3.753,-0.104,-0.022,0.134,0.018,-0.008,0.000,0.000,0.000,0.000
1071,-0.0239,-0.1978,0.0088,0.0018,0.0365,0.0019,-0.54,0.94,-0.10,0,3.758,0.030,-0.156,-0.323,0.017,-0.007,0.000,0.000,0.000,0.000
1122,-0.0231,-0.1963,0.0099,0.0061,0.0345,0.0062,-0.44,0.96,-0.10,0,3.753,-0.016,-0.261,0.322,0.018,-0.008,0.000,0.000,0.000,0.000
1174,-0.0233,-0.1970,0.0102,0.0037,0.0222,0.0066,-0.35,0.97,-0.10,0,3.758,-0.083,-0.026,0.128,0.017,-0.008,0.000,0.000,0.000,0.000
1224,-0.0237,-0.2095,0.0091,0.0008,-0.0523,-0.0005,0.12,0.99,-0.10,0,3.758,-0.169,-0.126,0.029,0.018,-0.008,0.000,0.000,0.000,0.000
1275,-0.0229,-0.2177,0.0076,0.0052,-0.0864,-0.0078,0.30,0.96,-0.10,0,3.758,0.031,0.285,0.140,0.017,-0.008,0.000,0.000,0.000,0.000
1326,-0.0218,-0.2193,0.0080,0.0102,-0.0780,-0.0048,0.20,0.93,-0.11,0,3.753,0.235,0.022,0.196,0.020,-0.009,0.000,0.000,0.000,0.000
1378,-0.0228,-0.2210,0.0081,0.0034,-0.0719,-0.0027,0.01,0.97,-0.10,0,3.758,0.104,0.030,-0.324,0.018,-0.007,0.000,0.000,0.000,0.000
1428,-0.0226,-0.2188,0.0092,0.0037,-0.0478,0.0029,-0.15,0.97,-0.10,0,3.753,0.025,-0.164,-0.179,0.017,-0.011,0.000,0.000,0.000,0.000
1480,-0.0226,-0.2189,0.0088,0.0022,-0.0391,0.0004,-0.24,0.96,-0.10,0,3.758,-0.016,0.052,-0.356,0.019,-0.007,0.000,0.000,0.000,0.000
1531,-0.0290,-0.2250,0.0087,-0.0334,-0.0657,-0.0014,-0.05,1.25,-0.07,0,3.758,0.094,-0.146,-0.051,0.019,-0.006,0.000,0.000,0.000,0.000
1581,-0.0293,-0.2250,0.0081,-0.0280,-0.0527,-0.0035,-0.09,1.19,-0.08,0,3.758,-0.077,0.193,0.082,0.018,-0.010,0.000,0.000,0.000,0.000
1632,-0.0292,-0.2251,0.0081,-0.0205,-0.0415,-0.0026,-0.26,1.14,-0.08,0,3.753,0.159,-0.047,-0.210,0.019,-0.010,0.000,0.000,0.000,0.000
1684,-0.0286,-0.2232,0.0090,-0.0129,-0.0218,0.0025,-0.61,1.07,-0.07,0,3.758,-0.049,0.442,-0.037,0.017,-0.008,0.000,0.000,0.000,0.000
1735,-0.0292,-0.2183,0.0092,-0.0125,0.0062,0.0030,-0.63,1.05,-0.07,0,3.336,0.437,-1.210,-0.156,0.026,-0.011,0.000,0.000,0.000,0.000
1786,-0.0284,-0.2137,0.0092,-0.0096,0.0309,0.0017,-0.92,1.01,-0.07,0,3.410,0.012,0.385,0.322,0.021,-0.016,0.000,0.000,0.000,0.000
1836,-0.0270,-0.2032,0.0082,-0.0072,0.0828,-0.0039,-1.07,0.93,-0.06,0,3.473,0.287,-0.187,-5.427,0.013,-0.004,0.000,0.000,0.000,0.000
1888,-0.0265,-0.1882,0.0070,-0.0100,0.1487,-0.0103,-1.37,0.85,-0.17,0,3.489,1.718,0.442,-1.395,0.015,-0.028,0.000,0.000,0.000,0.000
1938,-0.0265,-0.1875,0.0081,-0.0143,0.1278,-0.0026,-1.17,0.85,-0.25,0,3.510,-1.082,1.700,-0.840,0.000,-0.007,0.000,0.000,0.000,0.000
1989,-0.0269,-0.1869,0.0095,-0.0192,0.1079,0.0028,-0.94,0.80,-0.30,0,3.521,2.880,-1.512,-8.631,0.009,0.003,0.000,0.000,0.000,0.000
2040,-0.0268,-0.1897,0.0101,-0.0207,0.0744,0.0060,-0.55,0.75,-0.68,0,3.516,-0.381,2.811,-6.923,0.005,-0.005,0.000,0.000,0.000,0.000
2092,-0.0289,-0.1939,0.0097,-0.0328,0.0412,0.0037,-0.09,0.76,-1.05,0,3.521,-9.793,3.035,-1.933,0.008,-0.003,0.000,0.000,0.000,0.000
2142,-0.0281,-0.1993,0.0104,-0.0269,0.0094,0.0022,-0.12,0.69,-1.17,0,3.521,-0.875,4.089,-1.010,0.000,-0.015,0.000,0.000,0.000,0.000
2194,-0.0288,-0.1987,0.0099,-0.0292,0.0115,-0.0053,-0.12,0.61,-1.12,0,3.516,-5.942,1.466,-4.577,0.027,-0.003,0.000,0.000,0.000,0.000
2245,-0.0282,-0.1984,0.0094,-0.0238,0.0120,-0.0060,-0.05,0.50,-1.23,0,3.510,2.780,2.381,3.788,-0.004,-0.009,0.000,0.000,0.000,0.000
2295,-0.0283,-0.1927,0.0086,-0.0233,0.0396,-0.0077,-0.35,0.53,-1.12,0,3.510,0.372,-2.724,0.936,0.020,-0.015,0.000,0.000,0.000,0.000
2347,-0.0292,-0.1896,0.0095,-0.0260,0.0466,-0.0012,-0.23,0.50,-1.00,0,3.505,2.486,-0.303,0.329,0.023,-0.012,0.000,0.000,0.000,0.000
2397,-0.0280,-0.1832,0.0104,-0.0165,0.0708,0.0033,-0.34,0.41,-0.95,0,3.500,12.888,-3.762,2.101,0.012,-0.026,0.000,0.000,0.000,0.000
2448,-0.0281,-0.1830,0.0108,-0.0156,0.0562,0.0148,0.37,0.38,-0.76,0,3.500,19.230,-1.462,3.850,0.019,0.000,0.000,0.000,0.000,0.000
2499,-0.0270,-0.1822,0.0102,-0.0086,0.0456,0.0085,0.90,0.34,-0.53,0,3.494,9.147,-3.831,2.206,0.008,-0.023,0.000,0.000,0.000,0.000
2550,-0.0275,-0.1889,0.0095,-0.0112,-0.0124,-0.0018,2.11,0.30,-0.29,0,3.484,7.253,3.418,-0.174,0.011,-0.006,0.000,0.000,0.000,0.000
2602,-0.0295,-0.2120,0.0080,-0.0215,-0.1429,-0.0102,3.23,0.29,-0.07,0,3.484,-29.952,1.192,6.424,0.008,-0.011,0.000,0.000,0.000,0.000
2652,-0.0306,-0.2332,0.0048,-0.0243,-0.2373,-0.0355,2.21,0.03,0.30,0,3.473,-26.356,-3.861,5.437,0.003,-0.015,0.000,0.000,0.000,0.000
2703,-0.0296,-0.2408,0.0083,-0.0136,-0.2348,-0.0171,1.02,-0.03,0.46,0,3.479,9.808,-23.890,15.289,0.004,-0.008,0.000,0.000,0.000,0.000
2754,-0.0255,-0.2536,0.0069,0.0119,-0.2527,-0.0062,0.55,-0.02,0.81,0,3.473,-15.283,8.812,8.055,0.012,-0.020,0.000,0.000,0.000,0.000
2805,-0.0219,-0.2620,0.0091,0.0275,-0.2346,0.0244,-0.43,-0.06,1.41,0,3.473,-32.705,10.364,-1.117,0.014,-0.036,0.000,0.000,0.000,0.000
2856,-0.0259,-0.2852,0.0103,-0.0005,-0.2846,0.0296,-2.06,-0.24,1.73,0,3.468,6.131,18.977,-2.092,-0.011,-0.037,0.000,0.000,0.000,0.000
2907,-0.0295,-0.2875,0.0110,-0.0160,-0.2094,0.0306,-2.84,-0.57,1.54,0,3.468,-12.899,6.810,-5.572,-0.011,-0.037,0.000,0.000,0.000,0.000
2958,-0.0328,-0.2768,0.0085,-0.0208,-0.0882,0.0147,-3.63,-1.01,1.19,0,3.447,1.564,11.090,-9.657,0.005,-0.027,0.000,0.000,0.000,0.000
3010,-0.0351,-0.2593,0.0036,-0.0147,0.0464,-0.0129,-4.75,-2.01,0.32,0,3.442,86.144,-23.231,-7.789,-0.004,-0.037,0.000,0.000,0.000,0.000
3060,-0.0336,-0.2330,-0.0027,0.0162,0.1945,-0.0233,-1.67,-1.50,-0.02,0,3.436,67.994,-29.359,-10.341,-0.002,-0.038,0.000,0.000,0.000,0.000
3111,-0.0322,-0.2287,-0.0005,0.0271,0.1805,0.0102,1.69,-0.13,-0.56,0,3.436,-15.744,2.000,-4.744,0.006,-0.025,0.000,0.000,0.000,0.000
3163,-0.0281,-0.2165,0.0005,0.0407,0.1794,0.0414,2.12,-0.06,-0.80,0,3.436,15.817,19.973,-1.625,0.002,-0.017,0.000,0.000,0.000,0.000
3213,-0.0325,-0.2167,0.0034,0.0088,0.1207,0.0777,2.31,-0.72,-0.86,0,3.442,19.790,-4.955,-0.716,-0.002,-0.024,0.000,0.000,0.000,0.000
3264,-0.0312,-0.2163,0.0125,0.0173,0.0696,0.1281,3.64,-0.72,-0.90,0,3.436,-49.967,-12.322,5.102,0.009,-0.008,0.000,0.000,0.000,0.000
3316,-0.0299,-0.2176,0.0209,0.0229,0.0182,0.1434,2.10,-0.17,-0.74,0,3.447,-19.641,-7.638,7.217,0.001,0.002,0.000,0.000,0.000,0.000
3367,-0.0266,-0.2163,0.0325,0.0334,0.0060,0.1709,0.77,-0.00,-0.53,0,3.447,-3.475,6.662,10.090,0.008,-0.006,0.000,0.000,0.000,0.000
3418,-0.0197,-0.2187,0.0445,0.0554,-0.0121,0.1855,0.73,0.09,0.05,0,3.447,-4.442,-10.381,8.623,0.007,-0.006,0.000,0.000,0.000,0.000
3468,-0.0209,-0.2268,0.0576,0.0354,-0.0511,0.1934,0.48,0.44,0.53,0,3.442,-14.000,-12.300,4.429,0.004,-0.001,0.000,0.000,0.000,0.000
3519,-0.0192,-0.2319,0.0681,0.0305,-0.0678,0.1853,0.05,1.10,0.79,0,3.447,-2.863,8.460,4.983,0.002,-0.007,0.000,0.000,0.000,0.000
3571,-0.0183,-0.2376,0.0809,0.0185,-0.0783,0.1868,-0.22,0.87,1.05,0,3.442,-13.642,1.502,5.627,0.008,-0.014,0.000,0.000,0.000,0.000
3621,-0.0175,-0.2430,0.0889,0.0128,-0.0831,0.1574,-0.64,0.52,1.29,0,3.436,-14.518,2.934,3.979,0.001,-0.006,0.000,0.000,0.000,0.000
3672,-0.0170,-0.2444,0.0961,0.0073,-0.0623,0.1373,-1.65,0.82,1.52,0,3.431,-0.310,19.796,1.711,0.007,-0.009,0.000,0.000,0.000,0.000
3724,-0.0162,-0.2471,0.1030,0.0053,-0.0505,0.1234,-1.37,-0.14,1.55,0,3.426,-0.284,-6.446,0.617,0.014,-0.007,0.000,0.000,0.000,0.000
3775,-0.0171,-0.2540,0.1059,0.0012,-0.0580,0.1010,-1.52,0.02,1.62,0,3.415,-8.141,4.529,2.509,0.000,-0.008,0.000,0.000,0.000,0.000
3825,-0.0161,-0.2532,0.1068,0.0049,-0.0294,0.0842,-1.75,-0.19,1.70,0,3.410,12.276,4.708,0.509,0.010,-0.012,0.000,0.000,0.000,0.000
3877,-0.0158,-0.2529,0.1100,0.0062,-0.0084,0.0854,-1.35,-0.36,1.76,0,3.399,9.237,-7.983,1.340,0.012,-0.017,0.000,0.000,0.000,0.000
3927,-0.0114,-0.2508,0.1143,0.0262,0.0123,0.0998,-0.84,-0.29,1.87,0,3.405,1.348,-1.460,-0.927,0.010,-0.013,0.000,0.000,0.000,0.000
3979,-0.0109,-0.2478,0.1191,0.0241,0.0297,0.1154,-0.73,-0.09,1.84,0,3.405,9.704,-2.933,-1.049,0.004,-0.010,0.000,0.000,0.000,0.000
4029,-0.0087,-0.2468,0.1246,0.0290,0.0327,0.1314,-0.38,-0.03,1.81,0,3.405,14.830,-6.696,-1.941,0.006,-0.014,0.000,0.000,0.000,0.000
4081,-0.0059,-0.2428,0.1311,0.0344,0.0447,0.1502,0.38,0.28,1.76,0,3.399,2.468,-2.285,-1.751,0.007,-0.010,0.000,0.000,0.000,0.000
4131,-0.0049,-0.2397,0.1383,0.0283,0.0454,0.1686,0.55,0.47,1.67,0,3.405,4.519,-2.164,-2.201,0.009,-0.012,0.000,0.000,0.000,0.000
4183,-0.0038,-0.2380,0.1484,0.0238,0.0385,0.1966,0.74,0.50,1.58,0,3.410,4.615,-4.835,-3.190,0.007,-0.012,0.000,0.000,0.000,0.000
4234,-0.0006,-0.2365,0.1556,0.0285,0.0306,0.2008,0.97,0.69,1.44,0,3.410,-0.377,3.433,-2.567,0.006,-0.010,0.000,0.000,0.000,0.000
4284,0.0003,-0.2343,0.1671,0.0207,0.0250,0.2202,0.94,0.63,1.31,0,3.415,-0.661,1.049,-2.485,0.003,-0.011,0.000,0.000,0.000,0.000
4336,0.0035,-0.2324,0.1775,0.0253,0.0205,0.2240,0.94,0.44,1.19,0,3.415,-1.265,-1.088,-1.255,0.005,-0.015,0.000,0.000,0.000,0.000
4386,-0.0030,-0.2255,0.1911,-0.0066,0.0359,0.2366,0.64,0.60,1.16,0,3.421,3.730,8.852,-1.780,0.006,-0.011,0.000,0.000,0.000,0.000
4437,-0.0013,-0.2253,0.2014,-0.0035,0.0250,0.2251,0.76,0.22,1.08,0,3.421,-0.548,4.324,-1.400,0.005,-0.012,0.000,0.000,0.000,0.000
4488,-0.0002,-0.2250,0.2152,-0.0001,0.0158,0.2284,0.84,-0.08,1.00,0,3.421,-4.427,-0.372,-2.659,0.005,-0.010,0.000,0.000,0.000,0.000
4540,0.0013,-0.2258,0.2260,0.0062,0.0045,0.2125,0.63,-0.11,0.90,0,3.421,-4.682,0.840,-0.965,0.005,-0.010,0.000,0.000,0.000,0.000
4591,-0.0003,-0.2265,0.2334,0.0008,-0.0029,0.1832,0.45,0.20,0.85,0,3.415,-6.713,5.252,-0.895,0.007,-0.008,0.000,0.000,0.000,0.000
4642,-0.0113,-0.2273,0.2452,-0.0327,-0.0083,0.1843,0.24,-0.04,0.77,0,3.421,-3.788,8.649,-0.341,0.006,-0.006,0.000,0.000,0.000,0.000
4692,-0.0121,-0.2277,0.2518,-0.0292,-0.0100,0.1591,0.07,-0.42,0.75,0,3.415,-2.533,3.755,1.163,0.006,-0.008,0.000,0.000,0.000,0.000
4743,-0.0132,-0.2294,0.2573,-0.0245,-0.0137,0.1354,-0.08,-0.68,0.77,0,3.415,-2.511,-0.652,1.661,0.006,-0.009,0.000,0.000,0.000,0.000
4795,-0.0105,-0.2326,0.2647,-0.0090,-0.0205,0.1277,-0.12,-0.66,0.85,0,3.410,-4.030,-3.404,1.303,0.003,-0.008,0.000,0.000,0.000,0.000
4845,-0.0092,-0.2336,0.2707,0.0007,-0.0190,0.1175,-0.32,-0.53,0.94,0,3.410,-3.219,-3.844,0.372,0.004,-0.007,0.000,0.000,0.000,0.000
4897,-0.0087,-0.2359,0.2777,0.0059,-0.0196,0.1148,-0.56,-0.38,1.02,0,3.410,0.820,-4.702,0.325,0.006,-0.010,0.000,0.000,0.000,0.000
4947,-0.0037,-0.2365,0.2818,0.0210,-0.0141,0.0993,-0.62,-0.33,1.06,0,3.405,0.587,-5.601,0.890,0.003,-0.010,0.000,0.000,0.000,0.000
4998,-0.0012,-0.2350,0.2867,0.0268,-0.0036,0.0910,-0.53,-0.07,1.09,0,3.405,-0.881,-4.376,1.319,0.001,-0.010,0.000,0.000,0.000,0.000
5049,0.0024,-0.2355,0.2909,0.0322,0.0002,0.0846,-0.53,0.27,1.11,0,3.405,7.127,-3.983,-0.340,0.001,-0.013,0.000,0.000,0.000,0.000
5100,0.0054,-0.2340,0.2957,0.0347,0.0072,0.0873,-0.35,0.39,1.13,0,3.405,4.346,-5.225,-0.228,0.003,-0.013,0.000,0.000,0.000,0.000
5151,0.0059,-0.2344,0.2985,0.0285,0.0076,0.0744,-0.09,0.65,1.12,0,3.405,-1.205,-0.869,-0.111,0.001,-0.008,0.000,0.000,0.000,0.000
5202,0.0079,-0.2327,0.3035,0.0249,0.0115,0.0749,-0.15,0.62,1.14,0,3.405,2.496,0.166,0.382,0.004,-0.013,0.000,0.000,0.000,0.000
5254,0.0119,-0.2306,0.3065,0.0262,0.0163,0.0661,-0.01,0.62,1.14,0,3.405,6.578,-2.824,0.068,0.005,-0.008,0.000,0.000,0.000,0.000
5304,0.0128,-0.2288,0.3103,0.0204,0.0183,0.0628,0.23,0.67,1.16,0,3.405,0.304,9.277,2.004,0.006,-0.011,0.000,0.000,0.000,0.000
5355,0.0121,-0.2277,0.3139,0.0112,0.0167,0.0587,0.29,0.48,1.22,0,3.405,0.965,1.431,1.158,0.006,-0.012,0.000,0.000,0.000,0.000
5407,0.0128,-0.2259,0.3168,0.0076,0.0165,0.0525,0.38,0.33,1.24,0,3.399,3.379,4.141,0.951,0.005,-0.013,0.000,0.000,0.000,0.000
5457,0.0132,-0.2250,0.3199,0.0049,0.0134,0.0496,0.46,0.24,1.28,0,3.399,-0.876,2.411,1.417,0.008,-0.013,0.000,0.000,0.000,0.000
5509,0.0128,-0.2237,0.3229,0.0017,0.0109,0.0455,0.47,0.09,1.35,0,3.399,2.352,-1.715,0.434,0.001,-0.015,0.000,0.000,0.000,0.000
5559,0.0120,-0.2228,0.3236,-0.0007,0.0079,0.0315,0.59,0.12,1.37,0,3.399,-1.306,0.877,-0.258,0.007,-0.010,0.000,0.000,0.000,0.000
5610,0.0130,-0.2217,0.3257,0.0006,0.0046,0.0282,0.52,0.11,1.41,0,3.399,-2.428,0.561,0.805,0.005,-0.009,0.000,0.000,0.000,0.000
5661,0.0122,-0.2257,0.3295,-0.0018,-0.0077,0.0363,0.37,0.11,1.47,0,3.399,-1.585,2.043,1.989,0.007,-0.012,0.000,0.000,0.000,0.000
5712,0.0135,-0.2258,0.3319,0.0002,-0.0103,0.0340,0.30,-0.03,1.59,0,3.399,-6.044,1.132,3.129,0.005,-0.010,0.000,0.000,0.000,0.000
5763,0.0123,-0.2268,0.3307,-0.0019,-0.0135,0.0135,0.07,-0.07,1.72,0,3.394,-5.461,0.570,1.875,0.008,-0.013,0.000,0.000,0.000,0.000
5814,0.0125,-0.2294,0.3308,-0.0009,-0.0176,0.0060,-0.21,-0.12,1.87,0,3.389,0.065,2.481,1.649,0.006,-0.008,0.000,0.000,0.000,0.000
5865,0.0140,-0.2354,0.3310,0.0029,-0.0254,0.0039,-0.33,-0.28,1.98,0,3.389,-5.149,-0.378,1.410,0.006,-0.011,0.000,0.000,0.000,0.000
5917,0.0132,-0.2338,0.3316,0.0032,-0.0173,0.0056,-0.58,-0.30,2.03,0,3.389,-2.539,-3.215,-0.226,0.006,-0.013,0.000,0.000,0.000,0.000
5967,0.0135,-0.2352,0.3320,0.0056,-0.0133,0.0081,-0.60,-0.12,2.02,0,3.394,-1.107,1.062,-0.354,0.009,-0.013,0.000,0.000,0.000,0.000
6019,0.0148,-0.2485,0.3328,0.0084,-0.0302,0.0117,-0.65,-0.14,1.99,0,3.389,-2.543,0.748,0.057,0.008,-0.012,0.000,0.000,0.000,0.000
6069,0.0150,-0.2479,0.3319,0.0089,-0.0209,0.0053,-0.80,-0.18,1.99,0,3.389,-0.074,-0.310,0.481,0.009,-0.012,0.000,0.000,0.000,0.000
6120,0.0151,-0.2505,0.3331,0.0097,-0.0172,0.0107,-0.76,-0.16,2.01,0,3.389,1.907,-1.076,-0.459,0.002,-0.016,0.000,0.000,0.000,0.000
6172,0.0162,-0.2499,0.3335,0.0117,-0.0083,0.0100,-0.68,-0.07,1.98,0,3.389,2.018,-3.305,-1.449,0.002,-0.012,0.000,0.000,0.000,0.000
6222,0.0181,-0.2416,0.3341,0.0144,0.0122,0.0115,-0.60,0.07,1.91,0,3.384,6.427,-2.154,-2.382,0.005,-0.014,0.000,0.000,0.000,0.000
6273,0.0184,-0.2404,0.3345,0.0130,0.0179,0.0119,-0.36,0.14,1.80,0,3.389,4.116,-1.345,-3.121,0.003,-0.014,0.000,0.000,0.000,0.000
6325,0.0188,-0.2370,0.3352,0.0112,0.0250,0.0142,-0.11,0.22,1.66,0,3.384,3.115,-0.544,-3.802,0.001,-0.011,0.000,0.000,0.000,0.000
6376,0.0209,-0.2316,0.3338,0.0120,0.0331,0.0052,0.02,0.24,1.45,0,3.384,6.124,-4.181,-5.698,0.004,-0.010,0.000,0.000,0.000,0.000
6426,0.0200,-0.2281,0.3360,0.0075,0.0358,0.0151,0.30,0.34,1.19,0,3.384,4.012,-1.653,-4.982,0.005,-0.009,0.000,0.000,0.000,0.000
6478,0.0207,-0.2274,0.3375,0.0053,0.0313,0.0196,0.51,0.43,0.95,0,3.384,1.572,-0.368,-4.435,0.004,-0.011,0.000,0.000,0.000,0.000
6528,0.0206,-0.2193,0.3380,0.0013,0.0385,0.0180,0.51,0.41,0.75,0,3.384,2.790,-0.512,-2.847,0.002,-0.011,0.000,0.000,0.000,0.000
6579,0.0204,-0.2154,0.3386,-0.0024,0.0377,0.0170,0.64,0.40,0.62,0,3.389,2.255,1.594,-3.044,0.003,-0.013,0.000,0.000,0.000,0.000
6630,0.0218,-0.2146,0.3403,-0.0032,0.0305,0.0198,0.79,0.36,0.48,0,3.384,-5.265,3.190,-2.671,0.004,-0.005,0.000,0.000,0.000,0.000
6681,0.0196,-0.2115,0.3409,-0.0096,0.0267,0.0172,0.63,0.23,0.31,0,3.384,-3.354,5.996,-2.466,0.001,-0.007,0.000,0.000,0.000,0.000
6732,0.0177,-0.2148,0.3411,-0.0137,0.0135,0.0144,0.52,0.01,0.20,0,3.384,0.910,-1.404,-1.977,0.005,-0.011,0.000,0.000,0.000,0.000
6784,0.0160,-0.2173,0.3416,-0.0157,0.0037,0.0147,0.50,-0.02,0.15,0,3.384,-7.196,0.234,-0.480,0.003,-0.011,0.000,0.000,0.000,0.000
6835,0.0157,-0.2194,0.3419,-0.0148,-0.0043,0.0122,0.26,-0.01,0.10,0,3.378,-5.265,1.924,-0.042,0.003,-0.009,0.000,0.000,0.000,0.000
6885,0.0140,-0.2218,0.3433,-0.0163,-0.0103,0.0161,0.07,-0.08,0.06,0,3.384,-2.061,-1.843,-1.379,0.002,-0.009,0.000,0.000,0.000,0.000
6936,0.0119,-0.2219,0.3451,-0.0177,-0.0103,0.0203,-0.04,-0.08,0.01,0,3.384,-0.260,1.049,-1.550,0.001,-0.009,0.000,0.000,0.000,0.000
6988,0.0106,-0.2233,0.3467,-0.0176,-0.0116,0.0209,-0.12,-0.13,-0.06,0,3.384,-2.279,2.241,-1.413,0.003,-0.007,0.000,0.000,0.000,0.000
7039,0.0088,-0.2233,0.3475,-0.0182,-0.0095,0.0163,-0.20,-0.21,-0.12,0,3.378,0.117,4.208,-2.116,0.005,-0.014,0.000,0.000,0.000,0.000
7090,0.0034,-0.2280,0.3473,-0.0243,-0.0150,0.0089,-0.19,-0.24,-0.19,0,3.378,0.018,4.666,-1.598,0.003,-0.005,0.000,0.000,0.000,0.000
7140,0.0026,-0.2282,0.3483,-0.0215,-0.0126,0.0081,-0.22,-0.35,-0.28,0,3.378,3.256,-0.442,-2.347,0.004,-0.010,0.000,0.000,0.000,0.000
7191,0.0024,-0.2266,0.3480,-0.0173,-0.0069,0.0019,-0.19,-0.35,-0.36,0,3.378,2.613,-6.256,-1.333,0.004,-0.008,0.000,0.000,0.000,0.000
7242,0.0028,-0.2292,0.3480,-0.0124,-0.0088,-0.0005,-0.11,-0.15,-0.40,0,3.373,-2.138,-2.449,-0.295,0.008,-0.014,0.000,0.000,0.000,0.000
7293,0.0022,-0.2295,0.3493,-0.0112,-0.0076,0.0061,-0.06,-0.07,-0.45,0,3.378,2.082,3.784,-0.031,0.006,-0.012,0.000,0.000,0.000,0.000
7344,0.0019,-0.2295,0.3485,-0.0104,-0.0064,-0.0003,-0.02,-0.09,-0.49,0,3.373,0.566,-3.456,-1.490,0.003,-0.007,0.000,0.000,0.000,0.000
7396,0.0018,-0.2298,0.3487,-0.0091,-0.0061,-0.0008,-0.04,0.01,-0.53,0,3.373,1.067,-2.578,-2.003,0.002,-0.008,0.000,0.000,0.000,0.000
7446,0.0013,-0.2301,0.3479,-0.0092,-0.0057,-0.0046,-0.01,0.05,-0.60,0,3.373,-1.333,0.726,-1.278,0.004,-0.009,0.000,0.000,0.000,0.000
7498,0.0011,-0.2297,0.3482,-0.0092,-0.0045,-0.0026,-0.07,0.04,-0.67,0,3.378,1.631,-1.873,-1.672,0.005,-0.008,0.000,0.000,0.000,0.000
7549,0.0007,-0.2276,0.3485,-0.0093,-0.0002,-0.0008,-0.03,0.02,-0.73,0,3.373,-1.768,-0.044,-0.979,0.006,-0.010,0.000,0.000,0.000,0.000
7599,0.0007,-0.2256,0.3482,-0.0083,0.0031,-0.0021,-0.02,-0.09,-0.77,0,3.378,-2.673,-3.443,0.042,0.005,-0.009,0.000,0.000,0.000,0.000
7650,0.0003,-0.2255,0.3476,-0.0074,0.0034,-0.0049,-0.11,-0.05,-0.80,0,3.373,-0.666,-1.123,0.884,0.001,-0.009,0.000,0.000,0.000,0.000
7701,0.0006,-0.2258,0.3466,-0.0057,0.0033,-0.0099,-0.11,-0.07,-0.78,0,3.373,-4.721,-2.665,0.031,0.007,-0.010,0.000,0.000,0.000,0.000
7752,0.0015,-0.2212,0.3441,-0.0032,0.0109,-0.0199,-0.20,-0.10,-0.77,0,3.368,1.966,0.674,-0.276,0.005,-0.014,0.000,0.000,0.000,0.000
7803,0.0033,-0.2214,0.3438,0.0006,0.0114,-0.0180,-0.13,-0.06,-0.81,0,3.373,-2.392,-4.676,-1.691,0.006,-0.009,0.000,0.000,0.000,0.000
7854,0.0005,-0.2227,0.3432,-0.0034,0.0096,-0.0187,-0.16,0.03,-0.87,0,3.373,1.790,2.410,-0.418,0.005,-0.004,0.000,0.000,0.000,0.000
7905,0.0025,-0.2225,0.3433,-0.0004,0.0105,-0.0144,-0.14,0.00,-0.91,0,3.373,-1.815,-1.908,-0.313,0.003,-0.013,0.000,0.000,0.000,0.000
7957,0.0043,-0.2202,0.3430,0.0026,0.0141,-0.0152,-0.09,0.00,-0.94,0,3.368,-0.691,0.678,1.585,0.004,-0.008,0.000,0.000,0.000,0.000
8007,0.0051,-0.2187,0.3420,0.0040,0.0161,-0.0160,-0.04,-0.09,-0.92,0,3.368,1.995,-0.195,1.587,0.003,-0.010,0.000,0.000,0.000,0.000
8058,0.0054,-0.2190,0.3404,0.0048,0.0148,-0.0190,-0.01,-0.15,-0.87,0,3.368,-0.524,3.000,2.021,0.004,-0.013,0.000,0.000,0.000,0.000
8109,0.0104,-0.2114,0.3395,0.0130,0.0251,-0.0185,-0.02,-0.16,-0.80,0,3.373,-0.894,-3.077,1.268,0.007,-0.011,0.000,0.000,0.000,0.000
8161,0.0120,-0.2096,0.3394,0.0156,0.0259,-0.0163,-0.01,-0.05,-0.75,0,3.368,-2.058,2.935,0.466,0.005,-0.006,0.000,0.000,0.000,0.000
8212,0.0114,-0.2063,0.3386,0.0141,0.0289,-0.0172,-0.05,-0.15,-0.71,0,3.373,-0.513,0.882,0.260,0.004,-0.010,0.000,0.000,0.000,0.000
8262,0.0126,-0.2021,0.3382,0.0165,0.0339,-0.0156,-0.11,-0.22,-0.67,0,3.368,4.447,0.737,-0.188,0.007,-0.008,0.000,0.000,0.000,0.000
8313,0.0163,-0.1996,0.3371,0.0230,0.0357,-0.0171,0.06,-0.25,-0.65,0,3.368,-1.299,0.667,0.425,0.003,-0.011,0.000,0.000,0.000,0.000
8364,0.0145,-0.1990,0.3349,0.0205,0.0336,-0.0236,0.03,-0.18,-0.63,0,3.362,-0.489,1.484,0.889,0.005,-0.011,0.000,0.000,0.000,0.000
8416,0.0171,-0.2004,0.3322,0.0242,0.0286,-0.0325,-0.06,-0.15,-0.59,0,3.368,-0.678,-2.007,-0.911,0.005,-0.010,0.000,0.000,0.000,0.000
8466,0.0214,-0.1954,0.3303,0.0300,0.0347,-0.0339,-0.10,-0.16,-0.58,0,3.362,1.665,0.354,0.492,0.009,-0.008,0.000,0.000,0.000,0.000
8517,0.0255,-0.1945,0.3304,0.0354,0.0343,-0.0243,-0.10,-0.13,-0.56,0,3.368,2.539,-3.893,-1.142,0.004,-0.007,0.000,0.000,0.000,0.000
8568,0.0277,-0.1953,0.3284,0.0370,0.0311,-0.0263,-0.09,0.01,-0.58,0,3.362,-0.453,0.506,-1.674,0.005,-0.005,0.000,0.000,0.000,0.000
8620,0.0298,-0.1979,0.3263,0.0372,0.0251,-0.0283,-0.03,0.05,-0.64,0,3.362,-3.400,-0.846,-1.225,0.008,-0.007,0.000,0.000,0.000,0.000
8670,0.0338,-0.1987,0.3250,0.0405,0.0221,-0.0274,-0.09,-0.01,-0.73,0,3.362,2.002,1.093,-0.444,0.002,-0.007,0.000,0.000,0.000,0.000
8722,0.0344,-0.1992,0.3245,0.0381,0.0200,-0.0234,0.01,0.01,-0.80,0,3.362,1.061,-0.229,-1.370,0.004,-0.009,0.000,0.000,0.000,0.000
8772,0.0393,-0.1990,0.3233,0.0431,0.0183,-0.0242,0.10,0.07,-0.86,0,3.362,-1.791,-0.924,-0.382,0.008,-0.012,0.000,0.000,0.000,0.000
8823,0.0411,-0.1945,0.3228,0.0419,0.0239,-0.0201,0.02,0.06,-0.89,0,3.362,3.118,2.177,-0.241,0.005,-0.010,0.000,0.000,0.000,0.000
8874,0.0446,-0.1933,0.3221,0.0439,0.0233,-0.0184,0.10,-0.01,-0.89,0,3.357,-1.470,-0.695,0.406,0.007,-0.015,0.000,0.000,0.000,0.000
8925,0.0464,-0.1948,0.3223,0.0432,0.0178,-0.0135,0.11,-0.04,-0.88,0,3.362,1.483,-2.577,-1.269,0.004,-0.010,0.000,0.000,0.000,0.000
8976,0.0476,-0.1978,0.3212,0.0416,0.0099,-0.0159,0.14,0.01,-0.89,0,3.357,0.346,1.224,0.793,0.003,-0.011,0.000,0.000,0.000,0.000
9028,0.0480,-0.1986,0.3210,0.0387,0.0066,-0.0133,0.13,0.00,-0.89,0,3.362,0.494,2.601,0.161,0.006,-0.013,0.000,0.000,0.000,0.000
9079,0.0522,-0.2000,0.3204,0.0424,0.0016,-0.0136,0.15,-0.00,-0.88,0,3.352,-1.003,-1.987,1.049,0.005,-0.011,0.000,0.000,0.000,0.000
9130,0.0547,-0.2000,0.3193,0.0433,0.0003,-0.0158,0.14,-0.00,-0.85,0,3.362,2.391,3.924,0.546,0.007,-0.013,0.000,0.000,0.000,0.000
9180,0.0570,-0.2012,0.3176,0.0434,-0.0036,-0.0203,0.26,-0.11,-0.83,0,3.357,-1.844,0.921,0.405,0.003,-0.011,0.000,0.000,0.000,0.000
9231,0.0598,-0.1992,0.3170,0.0454,-0.0022,-0.0189,0.26,-0.11,-0.81,0,3.362,1.997,-2.556,-0.660,0.002,-0.008,0.000,0.000,0.000,0.000
9282,0.0627,-0.2009,0.3153,0.0475,-0.0074,-0.0238,0.28,-0.03,-0.82,0,3.357,1.146,3.118,-0.589,0.004,-0.010,0.000,0.000,0.000,0.000
9334,0.0635,-0.2023,0.3153,0.0449,-0.0121,-0.0185,0.31,-0.13,-0.85,0,3.357,-0.583,-0.877,-1.367,0.003,-0.011,0.000,0.000,0.000,0.000
9385,0.0647,-0.2058,0.3153,0.0435,-0.0207,-0.0157,0.23,-0.07,-0.88,0,3.352,-0.815,-1.022,-1.696,0.006,-0.012,0.000,0.000,0.000,0.000
9436,0.0677,-0.2098,0.3146,0.0457,-0.0287,-0.0145,0.21,-0.05,-0.93,0,3.357,2.183,0.485,-0.913,0.004,-0.014,0.000,0.000,0.000,0.000
9486,0.0722,-0.2092,0.3128,0.0507,-0.0261,-0.0186,0.23,-0.02,-0.99,0,3.352,-1.799,-0.121,-1.750,0.004,-0.012,0.000,0.000,0.000,0.000
9538,0.0760,-0.2105,0.3118,0.0532,-0.0279,-0.0186,0.16,-0.01,-1.05,0,3.357,-1.828,-1.057,-1.242,0.002,-0.005,0.000,0.000,0.000,0.000
9588,0.0764,-0.2161,0.3125,0.0483,-0.0385,-0.0104,0.12,-0.03,-1.07,0,3.352,0.418,-1.758,-0.611,0.003,-0.010,0.000,0.000,0.000,0.000
9640,0.0786,-0.2229,0.3110,0.0479,-0.0501,-0.0132,0.12,-0.03,-1.07,0,3.362,-1.344,0.570,1.044,0.005,-0.014,0.000,0.000,0.000,0.000
9690,0.0817,-0.2206,0.3118,0.0496,-0.0399,-0.0074,0.05,-0.00,-1.03,0,3.352,-2.997,1.553,1.704,0.004,-0.012,0.000,0.000,0.000,0.000
9741,0.0857,-0.2249,0.3106,0.0534,-0.0456,-0.0130,-0.03,-0.06,-0.98,0,3.352,1.575,-2.171,0.490,0.003,-0.011,0.000,0.000,0.000,0.000
9793,0.0868,-0.2289,0.3089,0.0500,-0.0492,-0.0189,-0.08,-0.09,-0.89,0,3.347,0.768,-2.522,1.360,0.006,-0.011,0.000,0.000,0.000,0.000
9844,0.0876,-0.2362,0.3083,0.0465,-0.0605,-0.0154,0.01,-0.02,-0.79,0,3.341,-0.461,0.948,2.222,0.005,-0.014,0.000,0.000,0.000,0.000
9895,0.0905,-0.2380,0.3068,0.0491,-0.0591,-0.0169,-0.09,-0.08,-0.67,0,3.341,0.997,-1.977,1.702,0.001,-0.014,0.000,0.000,0.000,0.000
9946,0.0938,-0.2329,0.3056,0.0516,-0.0400,-0.0118,-0.09,-0.02,-0.57,0,3.347,0.465,-0.536,1.354,0.003,-0.011,0.000,0.000,0.000,0.000
9996,0.0939,-0.2359,0.3051,0.0459,-0.0415,-0.0045,-0.18,-0.04,-0.44,0,3.352,0.459,-2.352,2.360,0.003,-0.011,0.000,0.000,0.000,0.000
10047,0.0993,-0.2354,0.3064,0.0538,-0.0338,0.0100,-0.17,0.00,-0.32,0,3.357,0.113,1.530,3.106,0.006,-0.013,0.000,0.000,0.000,0.000
10099,0.1020,-0.2351,0.3080,0.0541,-0.0266,0.0161,-0.23,0.03,-0.21,0,3.352,-1.138,5.435,2.994,0.006,-0.014,0.000,0.000,0.000,0.000
10149,0.1058,-0.2335,0.3076,0.0567,-0.0175,0.0077,-0.27,-0.10,-0.11,0,3.352,2.252,-0.134,2.417,0.004,-0.011,0.000,0.000,0.000,0.000
10200,0.1077,-0.2392,0.3071,0.0536,-0.0268,-0.0007,-0.15,0.02,-0.02,0,3.341,1.133,0.442,2.248,0.002,-0.011,0.000,0.000,0.000,0.000
10251,0.1120,-0.2390,0.3041,0.0576,-0.0220,-0.0181,-0.11,-0.05,0.07,0,3.347,0.286,-0.434,1.319,0.004,-0.011,0.000,0.000,0.000,0.000
10302,0.1155,-0.2342,0.3028,0.0596,-0.0049,-0.0195,-0.18,-0.01,0.12,0,3.347,1.680,-2.103,0.128,0.000,-0.013,0.000,0.000,0.000,0.000
10353,0.1176,-0.2358,0.3029,0.0587,-0.0078,-0.0118,-0.04,0.09,0.15,0,3.357,0.793,-0.765,-0.145,0.002,-0.014,0.000,0.000,0.000,0.000
10404,0.1219,-0.2335,0.3052,0.0623,0.0006,0.0031,-0.05,0.08,0.15,0,3.362,-1.943,2.745,-0.199,0.003,-0.014,0.000,0.000,0.000,0.000
10455,0.1227,-0.2357,0.3043,0.0557,-0.0045,-0.0054,-0.16,-0.01,0.14,0,3.373,-0.010,1.691,-1.107,0.003,-0.012,0.000,0.000,0.000,0.000
10507,0.1261,-0.2326,0.3042,0.0574,0.0053,-0.0156,-0.19,-0.15,0.10,0,3.378,0.389,-0.485,-1.231,0.008,-0.014,0.000,0.000,0.000,0.000
10558,0.1280,-0.2325,0.3032,0.0552,0.0056,-0.0360,-0.07,-0.05,0.03,0,3.389,-0.043,3.741,-1.715,0.006,-0.017,0.000,0.000,0.000,0.000
10608,0.1340,-0.2302,0.2998,0.0650,0.0123,-0.0720,-0.08,-0.16,-0.07,0,3.389,1.346,0.458,-2.647,0.005,-0.017,0.000,0.000,0.000,0.000
10660,0.1379,-0.2282,0.2950,0.0682,0.0177,-0.1135,-0.18,-0.23,-0.19,0,3.394,1.756,-1.071,-2.416,0.004,-0.012,0.000,0.000,0.000,0.000
10710,0.1391,-0.2307,0.2876,0.0632,0.0091,-0.1637,-0.12,-0.22,-0.27,0,3.389,0.167,-0.498,0.190,0.002,-0.015,0.000,0.000,0.000,0.000
10762,0.1473,-0.2267,0.2774,0.0787,0.0199,-0.2214,-0.13,-0.21,-0.28,0,3.389,2.156,-1.051,0.898,0.003,-0.010,0.000,0.000,0.000,0.000
10812,0.1530,-0.2258,0.2643,0.0857,0.0204,-0.2818,-0.13,-0.26,-0.23,0,3.384,0.424,-0.597,3.199,0.001,-0.016,0.000,0.000,0.000,0.000
10863,0.1562,-0.2235,0.2491,0.0838,0.0245,-0.3386,-0.03,-0.18,-0.10,0,3.384,-1.004,-0.740,4.762,0.006,-0.015,0.000,0.000,0.000,0.000
10914,0.1634,-0.2272,0.2314,0.0939,0.0102,-0.3962,0.03,-0.13,0.11,0,3.378,-0.308,-0.043,5.037,0.004,-0.017,0.000,0.000,0.000,0.000
10966,0.1749,-0.2247,0.2092,0.1159,0.0160,-0.4567,0.02,-0.24,0.33,0,3.384,-2.484,1.771,4.544,0.006,-0.014,0.000,0.000,0.000,0.000
11017,0.1776,-0.2246,0.1846,0.1084,0.0131,-0.5129,-0.06,-0.16,0.55,0,3.373,1.414,0.820,6.955,0.004,-0.012,0.000,0.000,0.000,0.000
11067,0.1724,-0.2357,0.1603,0.0781,-0.0237,-0.5506,0.22,-0.05,0.87,0,3.373,-3.296,1.663,8.728,0.004,-0.015,0.000,0.000,0.000,0.000
11118,0.1786,-0.2371,0.1296,0.0858,-0.0255,-0.6084,0.19,-0.08,1.32,0,3.368,-4.930,0.194,10.949,0.007,-0.009,0.000,0.000,0.000,0.000
11170,0.1782,-0.2432,0.1009,0.0702,-0.0439,-0.6365,0.06,0.07,1.86,0,3.378,-0.845,-0.225,11.186,0.002,-0.014,0.000,0.000,0.000,0.000
11220,0.1761,-0.2456,0.0656,0.0432,-0.0394,-0.6694,-0.31,0.40,2.45,0,3.378,-4.500,-8.824,5.719,-0.005,-0.009,0.000,0.000,0.000,0.000
11271,0.1652,-0.2471,0.0352,-0.0485,-0.0332,-0.6712,-0.35,1.61,2.82,0,3.373,67.177,105.336,41.357,-0.128,-0.079,0.000,0.000,0.000,0.000
11322,0.1567,-0.2545,0.0045,-0.0973,-0.1034,0.1814,2.22,-1.66,3.82,0,3.389,-23.369,8.783,13.210,0.011,-0.024,0.000,0.000,0.000,0.000
11374,0.1587,-0.2599,0.0157,0.0012,-0.0997,0.1462,1.52,-2.68,4.52,0,3.389,-46.576,-45.682,4.791,-0.002,-0.009,0.000,0.000,0.000,0.000
11425,0.1581,-0.2655,0.0281,0.0011,-0.0611,0.1338,-1.25,-0.90,4.69,0,3.394,37.001,-14.989,1.690,-0.017,-0.002,0.000,0.000,0.000,0.000
11476,0.1577,-0.2691,0.0455,0.0422,-0.0537,0.1371,0.00,-0.22,4.76,0,3.405,5.115,-0.688,-2.121,-0.009,-0.020,0.000,0.000,0.000,0.000
11526,0.1596,-0.2719,0.0628,0.0545,-0.0546,0.1188,0.46,-0.20,4.68,0,3.405,-28.532,-5.968,-1.487,0.002,-0.008,0.000,0.000,0.000,0.000
11577,0.1619,-0.2757,0.0725,0.0558,-0.0429,0.0662,-0.94,-0.16,4.58,0,3.410,-2.890,-6.919,-7.330,-0.012,-0.010,0.000,0.000,0.000,0.000
11628,0.1639,-0.2777,0.0784,0.0738,-0.0369,0.0076,-1.28,0.17,4.30,0,3.410,21.970,-5.458,-7.780,-0.001,-0.020,0.000,0.000,0.000,0.000
11679,0.1672,-0.2797,0.0816,0.0789,-0.0221,-0.0567,-0.44,0.37,3.94,0,3.410,-0.699,5.781,-8.093,-0.014,-0.017,0.000,0.000,0.000,0.000
11730,0.1708,-0.2810,0.0786,0.0817,-0.0089,-0.1398,-0.39,0.11,3.55,0,3.405,-15.860,-1.160,-8.935,-0.005,-0.018,0.000,0.000,0.000,0.000
11782,0.1755,-0.2815,0.0737,0.0703,-0.0039,-0.2133,-1.21,0.30,3.08,0,3.410,14.838,6.679,-10.435,-0.021,0.000,0.000,0.000,0.000,0.000
11832,0.1791,-0.2816,0.0604,0.0479,0.0039,-0.3062,-0.91,0.55,2.49,0,3.399,7.240,24.498,-2.475,-0.006,-0.023,0.000,0.000,0.000,0.000
11883,0.1813,-0.2820,0.0428,0.0171,0.0344,-0.3876,-0.89,-0.30,2.30,0,3.405,20.090,-15.341,0.578,-0.013,-0.019,0.000,0.000,0.000,0.000
11934,0.1808,-0.2801,0.0193,0.0231,0.0791,-0.4565,0.00,-0.23,2.43,0,3.373,-35.240,24.712,26.419,0.018,-0.031,0.000,0.000,0.000,0.000
11986,0.1824,-0.2760,0.0139,0.0438,0.0759,0.2937,-1.95,-0.65,3.34,0,3.394,34.352,-6.441,14.183,-0.008,-0.023,0.000,0.000,0.000,0.000
