time_ms,pos_x,pos_y,pos_z,vel_x,vel_y,vel_z,roll,pitch,yaw,thrust,vbat,gyro_x,gyro_y,gyro_z,acc_x,acc_y,acc_z,rate_roll,rate_pitch,rate_yaw
0,-0.0025,0.0041,0.0086,0.0037,-0.0175,0.0021,-0.71,0.71,-0.05,0,3.769,-0.008,0.097,0.054,0.014,-0.011,0.000,0.000,0.000,0.000
0,-0.0025,0.0107,0.0081,0.0035,0.0172,-0.0007,-0.68,0.72,-0.05,0,3.769,-0.012,0.142,-0.137,0.014,-0.008,0.000,0.000,0.000,0.000
0,-0.0036,0.0031,0.0085,-0.0024,-0.0235,0.0015,-0.63,0.71,-0.06,0,3.769,-0.108,0.171,-0.069,0.017,-0.008,0.000,0.000,0.000,0.000
0,-0.0036,0.0100,0.0081,-0.0019,0.0162,-0.0008,-0.70,0.74,-0.06,0,3.769,0.001,0.069,-0.062,0.014,-0.009,0.000,0.000,0.000,0.000
0,-0.0010,0.0041,0.0081,0.0138,-0.0181,0.0003,-0.49,0.60,-0.05,0,3.774,0.024,0.054,-0.002,0.016,-0.010,0.000,0.000,0.000,0.000
0,-0.0010,0.0040,0.0086,0.0110,-0.0144,0.0029,-0.51,0.63,-0.05,0,3.764,-0.103,-0.082,-0.044,0.014,-0.008,0.000,0.000,0.000,0.000
0,-0.0006,0.0040,0.0080,0.0115,-0.0116,0.0002,-0.47,0.66,-0.05,0,3.769,0.118,0.355,-0.280,0.014,-0.009,0.000,0.000,0.000,0.000
0,-0.0001,0.0045,0.0076,0.0124,-0.0059,-0.0019,-0.53,0.67,-0.06,0,3.769,-0.025,0.040,0.267,0.015,-0.007,0.000,0.000,0.000,0.000
0,0.0003,-0.0085,0.0088,0.0125,-0.0712,0.0034,-0.05,0.65,-0.05,0,3.769,0.207,0.299,0.008,0.012,-0.010,0.000,0.000,0.000,0.000
0,0.0000,-0.0091,0.0080,0.0093,-0.0646,-0.0007,-0.15,0.66,-0.05,0,3.769,0.160,0.007,0.028,0.012,-0.008,0.000,0.000,0.000,0.000
0,0.0003,-0.0090,0.0087,0.0078,-0.0487,0.0030,-0.35,0.70,-0.04,0,3.774,0.065,0.208,-0.334,0.013,-0.009,0.000,0.000,0.000,0.000
0,0.0002,-0.0080,0.0077,0.0063,-0.0354,-0.0020,-0.43,0.70,-0.05,0,3.769,0.293,-0.064,-0.238,0.013,-0.008,0.000,0.000,0.000,0.000
0,0.0004,-0.0079,0.0079,0.0065,-0.0268,-0.0000,-0.48,0.73,-0.05,0,3.769,0.031,-0.106,-0.055,0.014,-0.008,0.000,0.000,0.000,0.000
0,-0.0000,-0.0089,0.0080,0.0037,-0.0263,0.0002,-0.49,0.69,-0.05,0,3.769,0.088,-0.097,-0.074,0.017,-0.009,0.000,0.000,0.000,0.000
0,0.0004,-0.0091,0.0085,0.0053,-0.0225,0.0031,-0.56,0.71,-0.05,0,3.769,0.082,-0.045,0.072,0.014,-0.011,0.000,0.000,0.000,0.000
0,0.0004,-0.0091,0.0080,0.0053,-0.0186,-0.0010,-0.54,0.73,-0.05,0,3.769,0.046,0.022,0.318,0.012,-0.009,0.000,0.000,0.000,0.000
0,0.0002,-0.0069,0.0072,0.0032,-0.0028,-0.0047,-0.68,0.76,-0.06,0,3.774,-0.106,0.033,-0.174,0.015,-0.008,0.000,0.000,0.000,0.000
0,-0.0002,-0.0061,0.0074,0.0015,0.0022,-0.0021,-0.65,0.76,-0.05,0,3.764,0.193,-0.041,-0.079,0.014,-0.007,0.000,0.000,0.000,0.000
0,0.0036,-0.0015,0.0076,0.0210,0.0270,0.0003,-0.80,0.58,-0.05,0,3.769,-0.014,0.028,0.093,0.016,-0.011,0.000,0.000,0.000,0.000
0,0.0038,0.0046,0.0076,0.0174,0.0553,0.0001,-1.03,0.70,-0.06,0,3.769,0.124,-0.264,0.249,0.014,-0.009,0.000,0.000,0.000,0.000
0,0.0046,0.0057,0.0089,0.0189,0.0512,0.0060,-0.97,0.69,-0.07,0,3.769,-0.072,0.093,0.056,0.013,-0.008,0.000,0.000,0.000,0.000
0,0.0044,0.0006,0.0095,0.0147,0.0120,0.0081,-0.62,0.68,-0.06,0,3.769,-0.086,0.215,-0.049,0.015,-0.006,0.000,0.000,0.000,0.000
0,0.0056,-0.0042,0.0077,0.0176,-0.0156,-0.0032,-0.17,0.68,-0.06,0,3.774,-0.237,0.135,-0.101,0.016,-0.007,0.000,0.000,0.000,0.000
0,0.0066,-0.0193,0.0068,0.0200,-0.0895,-0.0068,0.05,0.67,-0.05,0,3.764,0.099,-0.052,-0.138,0.013,-0.006,0.000,0.000,0.000,0.000
0,0.0070,-0.0172,0.0065,0.0181,-0.0597,-0.0061,-0.18,0.72,-0.05,0,3.769,-0.163,0.034,-0.267,0.013,-0.008,0.000,0.000,0.000,0.000
0,0.0074,-0.0168,0.0067,0.0169,-0.0460,-0.0037,-0.33,0.76,-0.05,0,3.764,-0.207,-0.109,-0.119,0.014,-0.009,0.000,0.000,0.000,0.000
0,0.0069,-0.0176,0.0072,0.0122,-0.0419,-0.0000,-0.40,0.75,-0.05,0,3.769,0.065,-0.194,-0.404,0.014,-0.008,0.000,0.000,0.000,0.000
0,0.0069,-0.0157,0.0081,0.0101,-0.0238,0.0040,-0.46,0.74,-0.06,0,3.769,0.121,-0.269,-0.042,0.013,-0.009,0.000,0.000,0.000,0.000
0,0.0059,-0.0172,0.0088,0.0022,-0.0258,0.0061,-0.50,0.79,-0.05,0,3.774,0.072,0.184,-0.012,0.011,-0.010,0.000,0.000,0.000,0.000
0,0.0073,-0.0162,0.0087,0.0082,-0.0154,0.0042,-0.53,0.76,-0.06,0,3.764,-0.071,-0.040,0.165,0.013,-0.007,0.000,0.000,0.000,0.000
0,0.0059,-0.0151,0.0096,-0.0012,-0.0046,0.0075,-0.59,0.81,-0.05,0,3.769,0.267,0.323,0.338,0.014,-0.010,0.000,0.000,0.000,0.000
50,0.0059,-0.0166,0.0088,-0.0010,-0.0097,0.0018,-0.59,0.82,-0.05,0,3.764,0.038,0.007,0.112,0.015,-0.006,0.000,0.000,0.000,0.000
102,0.0057,-0.0183,0.0077,-0.0014,-0.0145,-0.0042,-0.30,0.83,-0.05,0,3.769,0.060,-0.267,0.126,0.017,-0.010,0.000,0.000,0.000,0.000
152,0.0050,-0.0239,0.0067,-0.0038,-0.0368,-0.0083,-0.39,0.81,-0.04,0,3.769,0.020,0.217,0.161,0.014,-0.010,0.000,0.000,0.000,0.000
203,0.0052,-0.0233,0.0076,-0.0024,-0.0260,-0.0020,-0.46,0.79,-0.05,0,3.774,0.193,0.080,-0.020,0.013,-0.009,0.000,0.000,0.000,0.000
254,0.0055,-0.0213,0.0078,-0.0008,-0.0099,-0.0005,-0.46,0.80,-0.05,0,3.764,-0.150,0.271,0.020,0.013,-0.006,0.000,0.000,0.000,0.000
305,0.0057,-0.0253,0.0085,0.0000,-0.0254,0.0029,-0.50,0.80,-0.04,0,3.769,-0.076,0.032,0.200,0.014,-0.008,0.000,0.000,0.000,0.000
356,0.0055,-0.0233,0.0066,-0.0011,-0.0091,-0.0066,-0.49,0.80,-0.05,0,3.764,0.131,-0.099,-0.019,0.013,-0.009,0.000,0.000,0.000,0.000
407,0.0064,-0.0285,0.0057,0.0037,-0.0336,-0.0097,-0.50,0.78,-0.05,0,3.769,-0.067,-0.032,0.136,0.013,-0.008,0.000,0.000,0.000,0.000
458,0.0064,-0.0265,0.0061,0.0036,-0.0161,-0.0054,-0.62,0.75,-0.05,0,3.769,-0.350,-0.085,0.183,0.014,-0.010,0.000,0.000,0.000,0.000
509,0.0061,-0.0232,0.0078,0.0017,0.0028,0.0043,-0.69,0.76,-0.05,0,3.774,0.009,0.222,-0.044,0.012,-0.008,0.000,0.000,0.000,0.000
560,0.0065,-0.0226,0.0081,0.0035,0.0060,0.0043,-0.67,0.75,-0.05,0,3.764,0.082,-0.173,0.141,0.016,-0.010,0.000,0.000,0.000,0.000
611,0.0061,-0.0250,0.0092,0.0005,-0.0070,0.0089,-0.50,0.76,-0.04,0,3.769,-0.012,0.277,-0.136,0.012,-0.008,0.000,0.000,0.000,0.000
662,0.0063,-0.0249,0.0094,0.0019,-0.0039,0.0082,-0.53,0.71,-0.04,0,3.764,0.052,0.212,0.078,0.014,-0.010,0.000,0.000,0.000,0.000
714,0.0072,-0.0259,0.0091,0.0055,-0.0079,0.0046,-0.61,0.75,-0.05,0,3.769,0.118,-0.161,0.102,0.016,-0.008,0.000,0.000,0.000,0.000
765,0.0067,-0.0240,0.0088,0.0031,0.0033,0.0027,-0.60,0.75,-0.04,0,3.764,0.151,0.095,0.014,0.012,-0.008,0.000,0.000,0.000,0.000
815,0.0068,-0.0259,0.0081,0.0031,-0.0058,-0.0010,-0.48,0.73,-0.04,0,3.769,0.192,0.367,-0.201,0.012,-0.008,0.000,0.000,0.000,0.000
866,0.0062,-0.0282,0.0071,-0.0008,-0.0154,-0.0057,-0.50,0.77,-0.04,0,3.764,0.149,0.002,-0.392,0.013,-0.008,0.000,0.000,0.000,0.000
917,0.0066,-0.0272,0.0088,0.0011,-0.0071,0.0040,-0.45,0.75,-0.04,0,3.769,0.055,0.136,-0.217,0.014,-0.008,0.000,0.000,0.000,0.000
968,0.0066,-0.0272,0.0095,0.0018,-0.0047,0.0059,-0.53,0.74,-0.05,0,3.764,-0.047,0.006,-0.257,0.013,-0.009,0.000,0.000,0.000,0.000
1019,0.0072,-0.0229,0.0071,0.0048,0.0194,-0.0078,-0.84,0.74,-0.06,0,3.769,0.230,-0.086,-0.302,0.015,-0.010,0.000,0.000,0.000,0.000
1070,0.0066,-0.0198,0.0068,0.0013,0.0299,-0.0072,-0.73,0.74,-0.06,0,3.769,-0.142,0.077,-0.040,0.015,-0.007,0.000,0.000,0.000,0.000
1121,0.0075,-0.0224,0.0074,0.0057,0.0105,-0.0025,-0.51,0.73,-0.06,0,3.769,-0.117,-0.099,0.301,0.013,-0.010,0.000,0.000,0.000,0.000
1172,0.0075,-0.0237,0.0076,0.0055,0.0026,-0.0006,-0.63,0.74,-0.06,0,3.764,0.107,-0.079,-0.076,0.014,-0.006,0.000,0.000,0.000,0.000
1223,0.0076,-0.0218,0.0083,0.0053,0.0108,0.0034,-0.61,0.74,-0.06,0,3.769,0.005,0.254,0.157,0.016,-0.011,0.000,0.000,0.000,0.000
1274,0.0061,-0.0136,0.0072,-0.0026,0.0495,-0.0030,-0.79,0.78,-0.06,0,3.764,-0.012,0.199,-0.029,0.013,-0.009,0.000,0.000,0.000,0.000
1325,0.0054,-0.0108,0.0084,-0.0056,0.0543,0.0030,-0.90,0.76,-0.05,0,3.769,0.142,-0.069,0.230,0.013,-0.008,0.000,0.000,0.000,0.000
1377,0.0057,-0.0117,0.0082,-0.0034,0.0416,0.0015,-0.87,0.77,-0.06,0,3.764,0.106,0.295,0.195,0.011,-0.008,0.000,0.000,0.000,0.000
1428,0.0059,-0.0171,0.0080,-0.0012,0.0051,0.0005,-0.42,0.75,-0.06,0,3.774,-0.141,0.379,-0.025,0.011,-0.010,0.000,0.000,0.000,0.000
1478,0.0059,-0.0171,0.0080,-0.0013,0.0042,0.0005,-0.44,0.75,-0.06,0,3.764,-0.153,0.078,-0.099,0.012,-0.008,0.000,0.000,0.000,0.000
1529,0.0055,-0.0184,0.0085,-0.0029,-0.0028,0.0027,-0.44,0.75,-0.05,0,3.769,0.172,0.122,-0.141,0.011,-0.007,0.000,0.000,0.000,0.000
1580,0.0055,-0.0180,0.0075,-0.0030,-0.0007,-0.0027,-0.43,0.78,-0.05,0,3.764,0.037,-0.184,-0.262,0.015,-0.010,0.000,0.000,0.000,0.000
1631,0.0075,-0.0243,0.0076,0.0076,-0.0329,-0.0016,-0.07,0.70,-0.06,0,3.769,-0.068,0.025,0.072,0.013,-0.009,0.000,0.000,0.000,0.000
1682,0.0076,-0.0280,0.0067,0.0072,-0.0436,-0.0052,-0.11,0.70,-0.06,0,3.764,0.027,-0.057,0.099,0.014,-0.011,0.000,0.000,0.000,0.000
1734,0.0081,-0.0284,0.0072,0.0088,-0.0379,-0.0022,-0.20,0.72,-0.06,0,3.336,0.473,-0.280,0.449,0.016,-0.009,0.000,0.000,0.000,0.000
1785,0.0073,-0.0285,0.0080,0.0010,-0.0301,0.0023,-0.32,0.70,-0.06,0,3.421,0.691,-0.594,-0.100,0.011,-0.018,0.000,0.000,0.000,0.000
1835,0.0077,-0.0277,0.0068,-0.0033,-0.0172,-0.0046,-0.34,0.75,-0.06,0,3.473,1.264,-0.237,-8.765,0.013,0.007,0.000,0.000,0.000,0.000
1886,0.0083,-0.0219,0.0076,-0.0044,0.0189,-0.0012,-0.53,0.77,-0.28,0,3.494,-0.711,-1.231,-4.004,0.014,-0.007,0.000,0.000,0.000,0.000
1937,0.0081,-0.0141,0.0065,-0.0093,0.0592,-0.0053,-0.72,0.73,-0.43,0,3.516,1.377,0.028,5.962,-0.023,-0.027,0.000,0.000,0.000,0.000
1988,0.0084,-0.0150,0.0068,-0.0109,0.0475,-0.0044,-0.48,0.67,-0.36,0,3.516,2.007,1.198,10.834,0.016,-0.020,0.000,0.000,0.000,0.000
2039,0.0053,-0.0123,0.0064,-0.0293,0.0560,-0.0055,-0.64,0.85,0.26,0,3.516,2.341,-4.411,16.610,0.011,-0.024,0.000,0.000,0.000,0.000
2091,0.0024,-0.0066,0.0045,-0.0418,0.0751,-0.0124,-0.75,0.79,0.85,0,3.516,-2.421,0.152,0.934,0.009,-0.005,0.000,0.000,0.000,0.000
2142,-0.0025,-0.0191,0.0054,-0.0621,-0.0002,-0.0016,-0.19,0.93,1.09,0,3.521,-1.173,1.186,0.931,0.002,-0.010,0.000,0.000,0.000,0.000
2193,-0.0035,-0.0202,0.0061,-0.0591,-0.0051,-0.0001,-0.20,0.74,1.10,0,3.510,2.448,1.560,5.108,0.018,-0.009,0.000,0.000,0.000,0.000
2243,-0.0045,-0.0262,0.0052,-0.0562,-0.0326,-0.0044,0.13,0.73,1.33,0,3.516,-5.280,2.100,-1.847,0.025,-0.006,0.000,0.000,0.000,0.000
2295,-0.0052,-0.0286,0.0051,-0.0519,-0.0376,-0.0016,0.05,0.64,1.19,0,3.510,4.626,-3.998,-3.836,0.013,-0.025,0.000,0.000,0.000,0.000
2345,-0.0078,-0.0222,0.0053,-0.0582,0.0028,0.0014,-0.17,0.64,1.02,0,3.505,2.323,0.889,6.473,0.007,-0.010,0.000,0.000,0.000,0.000
2396,-0.0077,-0.0160,0.0047,-0.0491,0.0366,-0.0036,-0.54,0.50,1.26,0,3.500,-8.933,6.544,2.732,-0.013,-0.032,0.000,0.000,0.000,0.000
2447,-0.0080,-0.0082,0.0057,-0.0431,0.0724,0.0031,-0.91,0.38,1.49,0,3.505,-3.953,3.927,8.056,0.015,-0.025,0.000,0.000,0.000,0.000
2498,-0.0077,-0.0038,0.0067,-0.0346,0.0787,0.0077,-0.65,0.27,1.83,0,3.494,-3.024,7.766,-0.385,0.006,-0.009,0.000,0.000,0.000,0.000
2549,-0.0092,0.0122,0.0059,-0.0365,0.1437,0.0049,-1.12,0.13,1.92,0,3.494,29.551,-4.414,-5.554,0.007,-0.011,0.000,0.000,0.000,0.000
2600,-0.0058,0.0215,0.0058,-0.0124,0.1618,0.0157,0.01,0.12,1.63,0,3.494,9.738,-2.123,-4.401,0.029,-0.012,0.000,0.000,0.000,0.000
2652,-0.0077,0.0116,0.0087,-0.0198,0.0752,0.0189,1.29,0.22,1.40,0,3.489,-6.845,25.758,-2.460,0.007,0.006,0.000,0.000,0.000,0.000
2702,-0.0061,0.0141,0.0079,-0.0088,0.0585,0.0106,1.40,-0.71,1.24,0,3.479,4.501,2.171,2.466,-0.006,0.007,0.000,0.000,0.000,0.000
2753,-0.0066,0.0069,0.0083,-0.0014,-0.0007,0.0114,1.89,-1.36,1.33,0,3.484,-16.023,-16.123,1.247,0.003,-0.001,0.000,0.000,0.000,0.000
2804,0.0107,-0.0126,0.0071,0.0923,-0.1096,-0.0058,2.36,-1.22,1.39,0,3.468,-41.239,11.854,-8.116,0.004,-0.011,0.000,0.000,0.000,0.000
2855,0.0151,-0.0313,0.0058,0.1017,-0.1916,-0.0149,1.45,-1.72,1.36,0,3.468,-29.887,-24.198,-4.282,-0.001,-0.004,0.000,0.000,0.000,0.000
2907,0.0245,-0.0578,0.0017,0.1398,-0.2809,-0.0214,0.04,-1.35,1.17,0,3.463,-21.586,-28.920,-2.391,0.000,-0.014,0.000,0.000,0.000,0.000
2957,0.0416,-0.0682,0.0031,0.1960,-0.2631,0.0068,-1.49,0.09,0.82,0,3.463,-53.792,8.605,-5.611,-0.005,-0.021,0.000,0.000,0.000,0.000
3008,0.0525,-0.0730,0.0034,0.2009,-0.2068,0.0183,-4.45,0.09,0.37,0,3.457,19.198,-30.774,2.985,0.006,-0.023,0.000,0.000,0.000,0.000
3060,0.0567,-0.0613,0.0046,0.1729,-0.0630,0.0385,-4.56,1.47,0.11,0,3.463,56.022,-44.814,-0.607,0.004,-0.025,0.000,0.000,0.000,0.000
3110,0.0509,-0.0460,0.0043,0.0941,0.0609,0.0461,-2.76,3.94,-0.04,0,3.447,24.262,32.444,3.935,0.007,-0.019,0.000,0.000,0.000,0.000
3161,0.0459,-0.0359,0.0038,0.0210,0.1158,0.0488,-1.61,2.99,0.21,0,3.447,27.216,31.140,3.271,0.003,-0.015,0.000,0.000,0.000,0.000
3213,0.0368,-0.0196,0.0038,-0.0492,0.1858,0.0598,-0.89,2.09,0.21,0,3.442,69.517,22.136,3.338,0.004,-0.025,0.000,0.000,0.000,0.000
3264,0.0207,0.0014,0.0052,-0.1297,0.2375,0.0707,2.03,1.26,0.38,0,3.442,23.463,42.777,3.199,0.003,-0.028,0.000,0.000,0.000,0.000
3314,0.0116,0.0113,0.0159,-0.1492,0.2078,0.1132,3.76,-0.63,0.56,0,3.442,-5.200,26.974,3.610,0.003,-0.013,0.000,0.000,0.000,0.000
3365,-0.0005,0.0193,0.0261,-0.1640,0.1654,0.1428,3.84,-2.11,0.76,0,3.457,-4.649,11.463,3.967,0.002,-0.017,0.000,0.000,0.000,0.000
3416,0.0032,0.0146,0.0391,-0.0826,0.0694,0.1777,4.13,-3.20,0.81,0,3.452,-15.367,-5.288,-0.963,0.006,-0.010,0.000,0.000,0.000,0.000
3467,-0.0029,0.0151,0.0490,-0.0685,0.0239,0.1760,3.64,-2.95,0.91,0,3.452,-12.850,1.364,1.830,0.003,-0.010,0.000,0.000,0.000,0.000
3518,-0.0023,0.0096,0.0600,-0.0264,-0.0336,0.1762,3.01,-3.08,1.04,0,3.452,-29.323,-23.329,-3.346,0.014,-0.014,0.000,0.000,0.000,0.000
3569,-0.0014,0.0037,0.0685,0.0021,-0.0737,0.1711,1.99,-2.30,0.89,0,3.447,-33.182,4.846,-6.165,0.002,-0.006,0.000,0.000,0.000,0.000
3620,0.0017,-0.0039,0.0772,0.0361,-0.1034,0.1467,0.37,-2.20,0.60,0,3.436,-23.580,-10.639,-2.143,0.007,-0.001,0.000,0.000,0.000,0.000
3672,0.0050,-0.0107,0.0836,0.0586,-0.1169,0.1418,-0.71,-1.90,0.46,0,3.436,-7.519,-24.050,-4.349,0.003,-0.011,0.000,0.000,0.000,0.000
3722,0.0106,-0.0182,0.0919,0.0844,-0.1125,0.1336,-1.18,-0.82,0.27,0,3.431,-10.798,-27.180,-2.162,-0.006,-0.007,0.000,0.000,0.000,0.000
3773,0.0139,-0.0215,0.0960,0.0884,-0.0991,0.1238,-1.76,0.46,0.20,0,3.431,-5.245,-13.502,1.261,0.005,-0.008,0.000,0.000,0.000,0.000
3825,0.0201,-0.0254,0.1013,0.0882,-0.0743,0.1176,-2.03,1.11,0.26,0,3.421,0.525,-12.122,0.084,-0.001,-0.008,0.000,0.000,0.000,0.000
3875,0.0240,-0.0275,0.1044,0.0831,-0.0576,0.1125,-2.03,1.83,0.31,0,3.415,10.603,2.476,-1.725,0.002,-0.012,0.000,0.000,0.000,0.000
3926,0.0280,-0.0267,0.1065,0.0696,-0.0251,0.1017,-1.81,1.74,0.29,0,3.410,8.736,-1.198,-2.870,-0.002,-0.012,0.000,0.000,0.000,0.000
3978,0.0306,-0.0276,0.1099,0.0523,-0.0097,0.1084,-1.28,1.99,0.19,0,3.415,11.740,15.801,-1.661,0.000,-0.010,0.000,0.000,0.000,0.000
4028,0.0331,-0.0268,0.1160,0.0368,0.0066,0.1284,-0.80,1.30,0.12,0,3.410,9.481,-12.264,0.463,0.005,-0.016,0.000,0.000,0.000,0.000
4079,0.0352,-0.0266,0.1217,0.0271,0.0118,0.1474,-0.25,1.64,0.14,0,3.415,4.242,11.854,1.966,-0.006,-0.011,0.000,0.000,0.000,0.000
4130,0.0362,-0.0258,0.1295,0.0128,0.0152,0.1714,-0.08,1.24,0.24,0,3.415,5.862,8.401,1.473,0.007,-0.011,0.000,0.000,0.000,0.000
4182,0.0375,-0.0272,0.1370,0.0058,0.0065,0.1873,0.23,0.76,0.30,0,3.421,6.366,4.225,0.601,0.002,-0.013,0.000,0.000,0.000,0.000
4232,0.0368,-0.0269,0.1470,-0.0049,0.0046,0.2071,0.49,0.63,0.32,0,3.421,-6.448,6.624,0.515,0.008,-0.011,0.000,0.000,0.000,0.000
4284,0.0346,-0.0240,0.1562,-0.0181,0.0126,0.2147,0.22,0.33,0.41,0,3.426,-0.008,3.451,1.569,0.002,-0.012,0.000,0.000,0.000,0.000
4334,0.0341,-0.0241,0.1674,-0.0187,0.0074,0.2266,0.24,0.16,0.48,0,3.426,-0.458,5.641,2.299,0.006,-0.012,0.000,0.000,0.000,0.000
4385,0.0297,-0.0230,0.1792,-0.0322,0.0081,0.2330,0.40,-0.10,0.59,0,3.436,-4.701,4.703,2.677,0.004,-0.013,0.000,0.000,0.000,0.000
4437,0.0299,-0.0241,0.1926,-0.0247,-0.0004,0.2387,0.31,-0.38,0.73,0,3.436,-2.286,2.785,1.812,0.007,-0.009,0.000,0.000,0.000,0.000
4488,0.0251,-0.0198,0.2068,-0.0350,0.0128,0.2439,0.09,-0.40,0.86,0,3.447,3.491,1.092,0.371,0.007,-0.008,0.000,0.000,0.000,0.000
4539,0.0238,-0.0209,0.2215,-0.0301,0.0065,0.2446,0.26,-0.50,0.88,0,3.447,-0.145,3.622,-1.241,0.005,-0.014,0.000,0.000,0.000,0.000
4591,0.0233,-0.0212,0.2261,-0.0232,0.0025,0.1936,0.34,-0.90,0.82,0,3.442,-2.748,-3.300,-3.565,0.005,-0.015,0.000,0.000,0.000,0.000
4641,0.0316,-0.0218,0.2405,0.0124,-0.0022,0.1992,0.34,-0.77,0.65,0,3.442,3.123,-9.756,-3.750,0.006,-0.015,0.000,0.000,0.000,0.000
4692,0.0329,-0.0230,0.2458,0.0200,-0.0085,0.1623,0.47,-0.30,0.45,0,3.442,-4.649,-3.257,-3.343,0.002,-0.012,0.000,0.000,0.000,0.000
4743,0.0330,-0.0226,0.2528,0.0200,-0.0095,0.1428,0.31,-0.02,0.27,0,3.436,-1.844,-1.927,-3.290,0.006,-0.013,0.000,0.000,0.000,0.000
4794,0.0308,-0.0239,0.2605,0.0110,-0.0141,0.1339,0.25,0.06,0.13,0,3.431,0.085,0.254,-2.230,0.011,-0.016,0.000,0.000,0.000,0.000
4845,0.0330,-0.0297,0.2662,0.0149,-0.0297,0.1180,0.22,0.09,0.03,0,3.421,-3.985,-3.374,-1.462,0.001,-0.014,0.000,0.000,0.000,0.000
4896,0.0321,-0.0309,0.2725,0.0100,-0.0306,0.1103,0.02,0.22,-0.04,0,3.431,-2.968,-1.314,0.190,0.005,-0.017,0.000,0.000,0.000,0.000
4947,0.0321,-0.0326,0.2788,0.0069,-0.0312,0.1046,-0.14,0.31,-0.05,0,3.421,-4.032,1.881,-0.472,0.006,-0.018,0.000,0.000,0.000,0.000
4999,0.0303,-0.0339,0.2829,-0.0008,-0.0296,0.0903,-0.31,0.26,-0.07,0,3.426,-1.553,2.635,0.079,0.007,-0.015,0.000,0.000,0.000,0.000
5050,0.0299,-0.0358,0.2870,-0.0039,-0.0279,0.0799,-0.41,0.12,-0.06,0,3.421,-0.340,3.056,0.179,0.005,-0.016,0.000,0.000,0.000,0.000
5101,0.0232,-0.0402,0.2907,-0.0205,-0.0318,0.0721,-0.42,0.06,-0.04,0,3.421,-4.270,4.264,0.694,0.006,-0.014,0.000,0.000,0.000,0.000
5151,0.0217,-0.0406,0.2956,-0.0219,-0.0257,0.0731,-0.56,-0.15,-0.03,0,3.415,0.213,2.524,0.149,0.007,-0.015,0.000,0.000,0.000,0.000
5202,0.0201,-0.0407,0.2988,-0.0217,-0.0187,0.0671,-0.61,-0.32,-0.04,0,3.421,1.955,2.755,0.141,0.005,-0.016,0.000,0.000,0.000,0.000
5253,0.0184,-0.0389,0.3012,-0.0207,-0.0075,0.0594,-0.53,-0.44,-0.04,0,3.421,4.077,-1.615,-0.126,0.004,-0.014,0.000,0.000,0.000,0.000
5304,0.0168,-0.0385,0.3041,-0.0188,-0.0016,0.0565,-0.41,-0.40,-0.05,0,3.421,3.909,-1.105,-0.957,0.007,-0.016,0.000,0.000,0.000,0.000
5356,0.0167,-0.0369,0.3088,-0.0140,0.0053,0.0632,-0.27,-0.39,-0.06,0,3.421,3.590,-0.944,-0.935,0.005,-0.017,0.000,0.000,0.000,0.000
5407,0.0209,-0.0337,0.3121,-0.0005,0.0138,0.0612,-0.18,-0.34,-0.10,0,3.426,4.800,0.173,-0.331,0.005,-0.013,0.000,0.000,0.000,0.000
5459,0.0146,-0.0307,0.3158,-0.0099,0.0203,0.0599,-0.02,-0.32,-0.12,0,3.421,4.594,1.632,-0.751,0.002,-0.014,0.000,0.000,0.000,0.000
5509,0.0146,-0.0291,0.3185,-0.0063,0.0215,0.0537,0.18,-0.36,-0.15,0,3.421,-0.246,-0.708,-0.785,0.002,-0.013,0.000,0.000,0.000,0.000
5561,0.0158,-0.0259,0.3203,-0.0003,0.0242,0.0445,0.19,-0.40,-0.17,0,3.415,3.488,-3.253,-0.554,0.006,-0.012,0.000,0.000,0.000,0.000
5612,0.0172,-0.0227,0.3217,0.0058,0.0262,0.0379,0.30,-0.33,-0.20,0,3.415,5.282,-0.669,-0.092,0.003,-0.016,0.000,0.000,0.000,0.000
5663,0.0176,-0.0204,0.3224,0.0086,0.0251,0.0303,0.55,-0.23,-0.20,0,3.415,-0.280,-2.436,-0.104,0.001,-0.016,0.000,0.000,0.000,0.000
5713,0.0179,-0.0168,0.3228,0.0103,0.0250,0.0239,0.59,-0.16,-0.21,0,3.415,0.013,-4.531,-1.500,0.005,-0.014,0.000,0.000,0.000,0.000
5765,0.0207,-0.0163,0.3238,0.0155,0.0187,0.0240,0.56,-0.02,-0.27,0,3.410,4.808,-3.515,-1.846,0.004,-0.015,0.000,0.000,0.000,0.000
5815,0.0225,-0.0145,0.3263,0.0173,0.0155,0.0320,0.70,0.14,-0.36,0,3.415,-8.441,-3.074,-1.750,0.003,-0.019,0.000,0.000,0.000,0.000
5866,0.0251,-0.0124,0.3275,0.0193,0.0124,0.0310,0.53,0.23,-0.47,0,3.410,-4.208,-2.076,-0.390,0.004,-0.012,0.000,0.000,0.000,0.000
5917,0.0263,-0.0150,0.3279,0.0176,0.0025,0.0278,0.42,0.31,-0.54,0,3.410,-1.733,0.017,-1.017,0.002,-0.013,0.000,0.000,0.000,0.000
5968,0.0296,-0.0142,0.3310,0.0193,0.0006,0.0365,0.27,0.39,-0.58,0,3.410,-1.697,1.148,0.432,0.001,-0.015,0.000,0.000,0.000,0.000
6019,0.0303,-0.0170,0.3314,0.0154,-0.0066,0.0307,0.15,0.43,-0.58,0,3.415,-2.637,-1.953,1.002,0.003,-0.013,0.000,0.000,0.000,0.000
6070,0.0310,-0.0174,0.3339,0.0116,-0.0080,0.0365,0.17,0.45,-0.57,0,3.410,-3.901,2.386,-0.808,0.005,-0.012,0.000,0.000,0.000,0.000
6121,0.0324,-0.0183,0.3352,0.0094,-0.0100,0.0351,-0.01,0.42,-0.57,0,3.410,-1.418,0.907,0.160,0.002,-0.011,0.000,0.000,0.000,0.000
6172,0.0311,-0.0199,0.3370,0.0028,-0.0115,0.0348,-0.16,0.42,-0.55,0,3.410,0.948,2.175,0.132,0.003,-0.012,0.000,0.000,0.000,0.000
6223,0.0300,-0.0211,0.3387,-0.0028,-0.0115,0.0341,-0.16,0.34,-0.52,0,3.410,-0.328,2.623,0.398,0.005,-0.012,0.000,0.000,0.000,0.000
6274,0.0280,-0.0193,0.3411,-0.0085,-0.0060,0.0359,-0.20,0.22,-0.50,0,3.410,-0.922,3.593,1.197,0.006,-0.016,0.000,0.000,0.000,0.000
6325,0.0254,-0.0240,0.3428,-0.0138,-0.0118,0.0328,-0.25,0.03,-0.47,0,3.415,-4.023,2.667,0.754,0.010,-0.015,0.000,0.000,0.000,0.000
6376,0.0240,-0.0240,0.3441,-0.0149,-0.0086,0.0286,-0.38,-0.09,-0.43,0,3.410,0.064,-0.076,-0.025,0.005,-0.013,0.000,0.000,0.000,0.000
6427,0.0191,-0.0289,0.3460,-0.0212,-0.0130,0.0283,-0.38,-0.11,-0.41,0,3.415,-0.261,2.851,0.245,0.006,-0.010,0.000,0.000,0.000,0.000
6478,0.0180,-0.0291,0.3471,-0.0202,-0.0091,0.0228,-0.39,-0.23,-0.40,0,3.410,1.967,2.343,0.776,0.008,-0.013,0.000,0.000,0.000,0.000
6529,0.0171,-0.0276,0.3478,-0.0178,-0.0027,0.0174,-0.38,-0.43,-0.36,0,3.410,2.607,-1.351,0.324,0.006,-0.014,0.000,0.000,0.000,0.000
6580,0.0163,-0.0276,0.3462,-0.0141,0.0005,0.0034,-0.37,-0.41,-0.31,0,3.405,2.270,-1.262,1.469,0.006,-0.013,0.000,0.000,0.000,0.000
6632,0.0158,-0.0243,0.3467,-0.0105,0.0087,0.0028,-0.24,-0.31,-0.25,0,3.410,1.804,1.520,1.945,0.007,-0.016,0.000,0.000,0.000,0.000
6683,0.0156,-0.0223,0.3479,-0.0074,0.0129,0.0080,-0.09,-0.31,-0.17,0,3.405,3.226,-1.293,1.956,0.006,-0.013,0.000,0.000,0.000,0.000
6733,0.0155,-0.0191,0.3472,-0.0044,0.0178,0.0028,0.02,-0.33,-0.05,0,3.405,2.115,0.204,2.806,0.006,-0.011,0.000,0.000,0.000,0.000
6784,0.0171,-0.0166,0.3491,0.0013,0.0200,0.0113,0.17,-0.30,0.07,0,3.405,3.007,-0.878,3.629,0.004,-0.011,0.000,0.000,0.000,0.000
6835,0.0199,-0.0094,0.3504,0.0082,0.0283,0.0156,0.33,-0.27,0.23,0,3.410,2.269,-1.983,3.117,0.004,-0.014,0.000,0.000,0.000,0.000
6887,0.0223,-0.0053,0.3518,0.0133,0.0294,0.0172,0.47,-0.12,0.38,0,3.405,2.746,-0.967,2.219,0.008,-0.011,0.000,0.000,0.000,0.000
6937,0.0244,-0.0046,0.3525,0.0163,0.0242,0.0148,0.59,-0.04,0.49,0,3.410,-0.196,-2.518,2.491,0.001,-0.014,0.000,0.000,0.000,0.000
6988,0.0301,-0.0029,0.3523,0.0238,0.0202,0.0082,0.53,0.18,0.61,0,3.405,-0.127,2.258,1.823,0.004,-0.016,0.000,0.000,0.000,0.000
7040,0.0342,-0.0025,0.3515,0.0265,0.0151,0.0006,0.50,0.30,0.72,0,3.405,-0.914,1.751,1.782,0.003,-0.010,0.000,0.000,0.000,0.000
7090,0.0354,-0.0018,0.3517,0.0239,0.0108,0.0011,0.51,0.28,0.81,0,3.405,-1.978,-2.380,0.245,0.008,-0.016,0.000,0.000,0.000,0.000
7142,0.0366,-0.0014,0.3514,0.0216,0.0064,-0.0012,0.43,0.36,0.86,0,3.479,-3.737,0.144,0.868,0.002,-0.013,0.000,0.000,0.000,0.000
7192,0.0388,-0.0058,0.3505,0.0203,-0.0044,-0.0185,0.30,0.43,0.91,0,3.484,-4.587,6.618,-0.126,0.006,-0.016,0.000,0.000,0.000,0.000
7243,0.0387,-0.0117,0.3476,0.0157,-0.0154,-0.0791,0.19,0.17,0.90,0,3.484,-1.550,4.252,-1.543,0.009,-0.012,0.000,0.000,0.000,0.000
7294,0.0381,-0.0124,0.3427,0.0125,-0.0166,-0.1544,0.13,0.01,0.82,0,3.473,-4.783,-2.135,-1.145,0.007,-0.020,0.000,0.000,0.000,0.000
7345,0.0356,-0.0121,0.3336,0.0077,-0.0155,-0.2404,-0.02,0.09,0.75,0,3.479,-0.573,0.207,-0.866,-0.002,-0.019,0.000,0.000,0.000,0.000
7396,0.0352,-0.0114,0.3208,0.0059,-0.0129,-0.3316,-0.21,0.10,0.69,0,3.473,1.726,1.483,0.217,0.004,-0.007,0.000,0.000,0.000,0.000
7447,0.0306,0.0085,0.3035,-0.0024,0.0199,-0.4290,-0.30,0.16,0.71,0,3.473,1.813,-3.506,1.853,0.004,-0.015,0.000,0.000,0.000,0.000
7498,0.0155,0.0131,0.2793,-0.0259,0.0270,-0.5310,-0.23,0.25,0.79,0,3.473,0.852,0.167,3.074,0.003,-0.010,0.000,0.000,0.000,0.000
7550,0.0462,0.0267,0.2528,0.0236,0.0484,-0.6253,-0.20,-0.08,0.92,0,3.473,0.031,0.557,5.292,0.008,-0.014,0.000,0.000,0.000,0.000
7600,0.0368,0.0503,0.2147,0.0066,0.0845,-0.7507,-0.40,-0.01,1.15,0,3.484,2.176,-1.933,6.545,0.008,-0.007,0.000,0.000,0.000,0.000
7651,0.0254,0.0350,0.1785,-0.0131,0.0550,-0.8347,-0.24,0.15,1.45,0,3.484,-1.280,3.053,4.220,-0.000,-0.003,0.000,0.000,0.000,0.000
7702,0.0014,0.0736,0.1335,-0.0539,0.1164,-0.9399,-0.51,0.12,1.73,0,3.479,-2.862,4.433,4.638,0.003,-0.011,0.000,0.000,0.000,0.000
7753,0.0051,0.0433,0.0885,-0.0459,0.0530,-1.0097,-0.58,0.04,1.95,0,3.479,17.360,-20.297,3.488,0.001,-0.014,0.000,0.000,0.000,0.000
7804,0.0057,0.0469,0.0287,-0.0433,0.0596,-1.1087,-0.42,0.70,2.14,0,3.442,-17.102,36.844,7.506,0.020,-0.019,0.000,0.000,0.000,0.000
7855,0.0131,0.0558,0.0026,-0.0094,0.0712,-0.2040,-0.93,-2.46,2.69,0,3.479,21.029,-19.658,3.535,0.001,-0.022,0.000,0.000,0.000,0.000
7907,0.0240,0.0562,-0.0073,0.0293,0.0749,-0.3140,-0.62,-1.64,2.79,0,3.468,20.108,-28.891,5.241,-0.009,-0.017,0.000,0.000,0.000,0.000
7957,0.0224,0.0635,-0.0013,0.0084,0.0878,-0.3041,0.50,0.06,2.98,0,3.473,-10.314,-0.377,5.707,0.000,-0.018,0.000,0.000,0.000,0.000
8009,0.0232,0.0722,0.0148,0.0006,0.0931,-0.2569,0.08,0.54,3.24,0,3.473,0.417,2.054,2.854,0.002,-0.020,0.000,0.000,0.000,0.000
8059,0.0246,0.0800,0.0323,-0.0199,0.0978,-0.2175,-0.10,0.33,3.44,0,3.473,2.271,-2.662,1.131,-0.004,-0.027,0.000,0.000,0.000,0.000
8110,0.0244,0.0883,0.0452,-0.0229,0.0873,-0.2039,0.18,0.69,3.56,0,3.473,9.135,-5.548,2.654,0.011,-0.015,0.000,0.000,0.000,0.000
8161,0.0225,0.0961,0.0540,-0.0167,0.0688,-0.2184,0.78,0.74,3.68,0,3.473,-3.773,-0.682,0.229,0.003,-0.021,0.000,0.000,0.000,0.000
8212,0.0190,0.0978,0.0577,-0.0044,0.0683,-0.2443,0.61,0.73,3.71,0,3.473,-0.793,2.978,1.470,0.006,-0.025,0.000,0.000,0.000,0.000
8263,0.0152,0.1082,0.0458,0.0144,0.0228,-0.3390,0.59,0.41,3.77,0,3.468,-0.519,-19.917,-0.479,-0.001,-0.012,0.000,0.000,0.000,0.000
8314,0.0201,0.1046,0.0313,-0.0177,0.0461,-0.4142,0.43,1.46,3.81,0,3.473,15.114,37.287,-2.075,0.002,-0.017,0.000,0.000,0.000,0.000
8366,0.0274,0.1261,0.0017,-0.0692,-0.0650,-0.5184,1.04,0.36,3.66,0,3.436,-8.262,-25.697,2.006,-0.001,-0.001,0.000,0.000,0.000,0.000
8417,0.0200,0.1107,0.0059,-0.0529,-0.0062,0.2383,-0.26,1.13,3.88,0,3.473,0.933,-0.909,-7.659,0.003,-0.014,0.000,0.000,0.000,0.000
8467,0.0142,0.1026,0.0095,-0.0372,0.0611,0.1209,-0.33,1.25,3.48,0,3.473,15.960,31.878,-4.632,-0.002,-0.018,0.000,0.000,0.000,0.000
8519,0.0059,0.1098,0.0086,0.0088,0.0351,0.0201,0.37,-0.30,3.15,0,3.473,-9.799,6.741,-5.764,0.010,-0.025,0.000,0.000,0.000,0.000
8569,0.0071,0.1109,0.0059,0.0040,0.0388,-0.0726,0.11,-0.98,2.92,0,3.473,8.465,-6.975,-2.922,0.006,-0.026,0.000,0.000,0.000,0.000
8620,0.0077,0.1103,-0.0014,0.0070,0.0651,-0.1600,0.08,-0.65,2.80,0,3.473,14.609,-12.318,-2.966,0.010,-0.019,0.000,0.000,0.000,0.000
8671,0.0066,0.1096,-0.0090,0.0288,0.1132,-0.2265,0.08,-0.39,2.60,0,3.468,77.282,-88.643,-18.703,0.193,-0.114,0.000,0.000,0.000,0.000
8722,0.0072,0.1125,-0.0132,0.0531,0.1642,0.0109,0.23,0.96,2.12,0,3.468,0.192,-32.971,-14.321,0.023,-0.022,0.000,0.000,0.000,0.000
8773,0.0103,0.1215,-0.0003,0.0398,0.1531,0.0827,0.79,2.67,1.32,0,3.473,-35.739,21.977,-16.148,0.010,0.009,0.000,0.000,0.000,0.000
8824,0.0118,0.1299,0.0028,0.0278,0.1021,0.0192,-0.41,1.75,0.41,0,3.457,-10.933,17.503,-1.172,0.110,-0.002,0.000,0.000,0.000,0.000
8875,0.0129,0.1356,0.0058,0.0349,0.0374,0.0447,-0.29,-0.78,-0.19,0,3.473,30.375,14.271,-2.287,0.008,-0.014,0.000,0.000,0.000,0.000
8926,0.0148,0.1372,0.0086,0.0339,0.0081,0.0582,0.15,-0.73,-0.30,0,3.463,-10.256,17.130,-9.616,-0.029,-0.016,0.000,0.000,0.000,0.000
8977,0.0164,0.1380,0.0094,0.0341,0.0231,0.0555,-0.21,-0.84,-0.58,0,3.468,-16.503,10.753,4.256,0.005,-0.014,0.000,0.000,0.000,0.000
9028,0.0177,0.1408,0.0098,0.0288,0.0513,0.0465,-0.15,-0.62,-0.45,0,3.468,1.121,4.531,12.415,-0.009,-0.023,0.000,0.000,0.000,0.000
9080,0.0190,0.1460,0.0088,0.0282,0.0945,0.0342,-0.63,-0.51,-0.04,0,3.473,-4.975,5.020,7.593,0.011,-0.002,0.000,0.000,0.000,0.000
9130,0.0199,0.1524,0.0087,0.0248,0.1124,0.0261,-0.47,-0.57,0.48,0,3.473,-0.791,-0.851,0.577,-0.002,-0.026,0.000,0.000,0.000,0.000
9181,0.0206,0.1547,0.0106,0.0244,0.0794,0.0364,-0.15,-0.50,0.48,0,3.473,-8.817,2.886,-8.501,-0.006,-0.016,0.000,0.000,0.000,0.000
9233,0.0210,0.1570,0.0113,0.0191,0.0627,0.0295,-0.07,-0.46,0.27,0,3.468,-4.923,6.400,6.840,-0.003,-0.023,0.000,0.000,0.000,0.000
9283,0.0229,0.1614,0.0117,0.0289,0.0743,0.0206,-0.41,-0.26,0.57,0,3.468,1.070,2.770,5.403,-0.001,-0.022,0.000,0.000,0.000,0.000
9334,0.0193,0.1662,0.0105,-0.0078,0.0838,0.0106,-0.22,-0.21,0.98,0,3.468,1.089,-0.609,1.808,0.036,-0.017,0.000,0.000,0.000,0.000
9385,0.0191,0.1722,0.0100,-0.0061,0.1020,0.0012,-0.42,-0.21,1.21,0,3.473,0.793,1.257,-3.451,0.002,-0.006,0.000,0.000,0.000,0.000
9436,0.0187,0.1740,0.0079,-0.0054,0.0787,-0.0039,-0.23,-0.25,1.27,0,3.468,4.061,-4.530,-2.239,0.016,-0.026,0.000,0.000,0.000,0.000
9487,0.0186,0.1769,0.0070,-0.0021,0.0721,-0.0095,0.04,-0.11,1.40,0,3.473,-1.050,8.503,-6.164,0.017,-0.029,0.000,0.000,0.000,0.000
9538,0.0198,0.1731,0.0071,0.0089,0.0226,-0.0108,0.39,-0.34,1.32,0,3.473,8.244,-6.788,0.702,0.010,-0.029,0.000,0.000,0.000,0.000
9589,0.0206,0.1663,0.0071,0.0145,-0.0297,-0.0040,0.76,-0.19,1.55,0,3.473,-7.222,6.266,2.119,0.023,-0.003,0.000,0.000,0.000,0.000
9640,0.0208,0.1660,0.0059,0.0134,-0.0271,-0.0067,0.37,-0.40,1.74,0,3.468,7.459,-11.566,-3.691,0.014,-0.021,0.000,0.000,0.000,0.000
9691,0.0210,0.1658,0.0058,0.0125,-0.0232,-0.0002,0.57,-0.13,1.72,0,3.473,-2.575,-0.184,-0.919,0.013,-0.009,0.000,0.000,0.000,0.000
9742,0.0214,0.1654,0.0067,0.0127,-0.0206,0.0011,0.33,-0.24,1.77,0,3.468,-10.788,8.144,6.434,0.004,-0.013,0.000,0.000,0.000,0.000
9793,0.0215,0.1657,0.0070,0.0123,-0.0155,0.0049,0.20,-0.32,2.17,0,3.473,9.425,-8.307,4.779,0.007,-0.024,0.000,0.000,0.000,0.000
9845,0.0215,0.1644,0.0063,0.0111,-0.0205,0.0039,0.27,-0.13,2.52,0,3.473,-1.575,5.869,-1.627,-0.005,-0.015,0.000,0.000,0.000,0.000
9896,0.0214,0.1707,0.0064,0.0080,0.0191,0.0036,-0.52,-0.41,2.51,0,3.473,5.638,-7.373,2.659,-0.024,-0.037,0.000,0.000,0.000,0.000
9947,0.0206,0.1768,0.0067,0.0034,0.0476,0.0057,-0.13,0.02,2.56,0,3.468,-8.038,4.253,1.861,-0.010,-0.003,0.000,0.000,0.000,0.000
9997,0.0135,0.1823,0.0053,-0.0366,0.0673,-0.0019,-0.35,0.25,2.59,0,3.468,-7.676,3.135,-5.701,0.002,-0.029,0.000,0.000,0.000,0.000
10048,0.0109,0.1954,0.0040,-0.0425,0.1277,-0.0099,-0.75,0.32,2.64,0,3.468,-0.295,3.526,-4.942,-0.012,-0.022,0.000,0.000,0.000,0.000
10099,0.0016,0.2039,0.0038,-0.0839,0.1459,-0.0122,-0.81,0.62,2.28,0,3.468,3.552,-3.919,0.019,0.026,-0.011,0.000,0.000,0.000,0.000
10150,-0.0023,0.2100,0.0044,-0.0874,0.1456,-0.0037,-0.98,0.56,2.24,0,3.468,3.043,-2.475,-7.657,0.004,-0.026,0.000,0.000,0.000,0.000
10201,-0.0026,0.2235,0.0040,-0.0694,0.1847,-0.0052,-0.99,0.42,2.02,0,3.473,-2.582,1.108,-2.841,-0.001,-0.018,0.000,0.000,0.000,0.000
10252,-0.0044,0.2265,0.0064,-0.0644,0.1582,0.0089,-0.59,0.27,1.86,0,3.473,-2.246,0.958,3.935,-0.022,-0.022,0.000,0.000,0.000,0.000
10303,-0.0037,0.2203,0.0077,-0.0473,0.0903,0.0148,-0.31,0.24,1.77,0,3.479,1.661,2.089,5.120,-0.007,-0.011,0.000,0.000,0.000,0.000
10354,-0.0054,0.2234,0.0081,-0.0455,0.0841,0.0131,-0.17,0.10,1.81,0,3.473,5.526,-3.845,1.517,0.013,-0.011,0.000,0.000,0.000,0.000
10405,-0.0055,0.2272,0.0074,-0.0358,0.0841,0.0089,-0.16,0.12,1.87,0,3.479,1.788,-2.440,-6.414,0.008,0.006,0.000,0.000,0.000,0.000
10456,-0.0061,0.2301,0.0083,-0.0304,0.0787,0.0157,-0.10,-0.01,1.61,0,3.473,6.602,-4.906,-2.888,-0.014,-0.005,0.000,0.000,0.000,0.000
10507,-0.0056,0.2311,0.0085,-0.0204,0.0650,0.0103,-0.26,-0.05,1.61,0,3.479,-2.570,2.812,11.471,-0.013,-0.014,0.000,0.000,0.000,0.000
10558,-0.0142,0.2424,0.0078,-0.0592,0.1058,0.0072,-0.68,0.19,1.79,0,3.489,-3.947,4.390,-8.629,0.031,-0.030,0.000,0.000,0.000,0.000
10609,-0.0261,0.2564,0.0052,-0.1059,0.1493,-0.0072,-0.72,0.66,1.55,0,3.500,-1.155,-0.613,7.091,0.002,-0.020,0.000,0.000,0.000,0.000
10660,-0.0376,0.2669,0.0043,-0.1398,0.1702,-0.0112,-0.84,0.88,1.96,0,3.494,4.408,-0.709,0.594,0.019,-0.012,0.000,0.000,0.000,0.000
10711,-0.0439,0.2711,0.0065,-0.1397,0.1514,0.0049,-0.64,0.48,2.13,0,3.500,1.692,-1.685,2.183,0.025,-0.014,0.000,0.000,0.000,0.000
10762,-0.0401,0.2782,0.0099,-0.0871,0.1525,0.0251,-0.43,0.31,2.28,0,3.500,1.758,-4.758,5.246,0.010,-0.019,0.000,0.000,0.000,0.000
10813,-0.0481,0.2844,0.0104,-0.1085,0.1503,0.0178,-0.40,0.31,2.53,0,3.500,5.516,-2.286,2.502,0.023,-0.006,0.000,0.000,0.000,0.000
10864,-0.0472,0.2823,0.0121,-0.0796,0.1054,0.0235,-0.08,0.09,2.73,0,3.489,-4.087,0.415,7.045,0.000,-0.020,0.000,0.000,0.000,0.000
10915,-0.0494,0.2802,0.0100,-0.0732,0.0690,0.0099,0.11,0.10,2.91,0,3.494,5.954,0.569,9.606,-0.008,-0.013,0.000,0.000,0.000,0.000
10967,-0.0511,0.2792,0.0089,-0.0645,0.0455,0.0059,0.30,0.02,3.25,0,3.489,3.122,0.220,3.811,0.002,-0.024,0.000,0.000,0.000,0.000
11018,-0.0589,0.2790,0.0082,-0.0868,0.0294,0.0034,0.37,0.25,3.53,0,3.494,0.654,-3.655,4.878,0.010,-0.006,0.000,0.000,0.000,0.000
11068,-0.0620,0.2836,0.0075,-0.0817,0.0401,0.0010,0.41,0.14,3.82,0,3.494,-3.451,-0.476,9.331,-0.019,-0.023,0.000,0.000,0.000,0.000
11119,-0.0686,0.2814,0.0068,-0.0954,0.0174,-0.0030,0.31,0.26,4.20,0,3.494,-3.912,1.811,4.850,-0.006,-0.020,0.000,0.000,0.000,0.000
11170,-0.0699,0.2928,0.0054,-0.0803,0.0644,-0.0109,0.08,0.17,4.42,0,3.489,-4.236,0.072,2.336,0.015,-0.001,0.000,0.000,0.000,0.000
11221,-0.0723,0.2983,0.0059,-0.0728,0.0750,-0.0008,-0.11,0.03,4.59,0,3.494,0.802,-1.603,-1.831,0.020,-0.009,0.000,0.000,0.000,0.000
11272,-0.0748,0.3114,0.0052,-0.0679,0.1211,-0.0060,-0.19,0.00,4.75,0,3.494,-3.154,-0.816,2.392,0.014,-0.021,0.000,0.000,0.000,0.000
11323,-0.0812,0.3149,0.0051,-0.0853,0.1111,-0.0075,-0.08,0.17,4.80,0,3.500,-5.684,-4.174,4.570,-0.007,-0.031,0.000,0.000,0.000,0.000
11374,-0.0837,0.3214,0.0053,-0.0786,0.1196,-0.0015,-0.13,0.11,4.85,0,3.505,2.022,-2.100,2.365,-0.017,-0.029,0.000,0.000,0.000,0.000
11425,-0.0895,0.3224,0.0074,-0.0893,0.0964,0.0091,-0.16,0.35,4.90,0,3.510,3.979,1.907,2.286,-0.006,-0.033,0.000,0.000,0.000,0.000
11477,-0.0958,0.3257,0.0079,-0.0976,0.0885,0.0077,0.04,0.18,4.94,0,3.510,-1.805,2.729,2.250,-0.014,-0.037,0.000,0.000,0.000,0.000
11527,-0.0973,0.3258,0.0088,-0.0834,0.0678,0.0115,0.24,0.02,4.96,0,3.516,1.818,6.456,-0.488,0.007,-0.018,0.000,0.000,0.000,0.000
11578,-0.0969,0.3181,0.0098,-0.0623,0.0118,0.0115,0.52,-0.06,4.97,0,3.516,-2.285,6.883,-1.170,0.006,-0.012,0.000,0.000,0.000,0.000
11629,-0.0962,0.3173,0.0082,-0.0435,-0.0006,0.0024,0.64,-0.26,4.89,0,3.521,-1.448,-1.636,-4.113,0.021,-0.004,0.000,0.000,0.000,0.000
11680,-0.0964,0.3172,0.0080,-0.0332,-0.0059,0.0021,0.50,-0.16,4.83,0,3.521,0.854,2.547,-0.711,-0.021,-0.035,0.000,0.000,0.000,0.000
11731,-0.0988,0.3205,0.0072,-0.0336,0.0055,0.0006,0.57,-0.27,4.72,0,3.521,-0.229,1.551,-9.402,0.009,-0.003,0.000,0.000,0.000,0.000
11783,-0.0993,0.3197,0.0071,-0.0258,-0.0029,-0.0005,0.58,-0.39,4.33,0,3.516,-0.811,-2.746,-6.131,-0.006,-0.022,0.000,0.000,0.000,0.000
11835,-0.0977,0.3204,0.0062,-0.0097,-0.0029,-0.0032,0.51,-0.44,4.05,0,3.516,-0.566,-1.500,-9.710,0.005,-0.019,0.000,0.000,0.000,0.000
11886,-0.0989,0.3191,0.0064,-0.0087,-0.0116,-0.0014,0.50,-0.44,3.57,0,3.516,2.303,-0.435,-2.961,0.015,-0.017,0.000,0.000,0.000,0.000
11937,-0.0985,0.3169,0.0066,-0.0013,-0.0241,0.0010,0.47,-0.21,3.49,0,3.510,-2.251,1.404,-4.880,0.000,-0.021,0.000,0.000,0.000,0.000
11988,-0.1061,0.3224,0.0074,-0.0322,0.0046,0.0046,0.31,-0.19,3.19,0,3.505,2.421,-1.015,-5.198,0.010,0.000,0.000,0.000,0.000,0.000
