time_ms,pos_x,pos_y,pos_z,vel_x,vel_y,vel_z,roll,pitch,yaw,thrust,vbat,gyro_x,gyro_y,gyro_z,acc_x,acc_y,acc_z,rate_roll,rate_pitch,rate_yaw
0,-0.1168,0.0877,0.0127,0.0296,-0.0295,0.0078,0.22,-0.34,-0.11,0,3.859,0.166,-0.082,-0.175,-0.003,-0.000,0.000,0.000,0.000,0.000
0,-0.1166,0.0873,0.0119,0.0246,-0.0252,0.0039,0.12,-0.23,-0.10,0,3.853,0.113,0.166,0.111,-0.003,-0.000,0.000,0.000,0.000,0.000
0,-0.1164,0.0867,0.0122,0.0202,-0.0224,0.0054,0.05,-0.19,-0.10,0,3.859,-0.013,-0.007,-0.243,0.001,0.001,0.000,0.000,0.000,0.000
0,-0.1164,0.0873,0.0109,0.0165,-0.0141,-0.0003,0.18,-0.14,-0.10,0,3.853,-0.013,0.378,0.244,-0.002,-0.001,0.000,0.000,0.000,0.000
0,-0.1159,0.0864,0.0124,0.0146,-0.0123,0.0077,-0.02,-0.16,-0.11,0,3.864,0.091,-0.396,-0.115,-0.001,-0.001,0.000,0.000,0.000,0.000
0,-0.1164,0.0873,0.0116,0.0092,-0.0044,0.0031,-0.02,-0.11,-0.11,0,3.853,0.285,-0.241,-0.174,0.001,-0.002,0.000,0.000,0.000,0.000
0,-0.1164,0.0864,0.0120,0.0074,-0.0065,0.0048,-0.08,-0.11,-0.11,0,3.859,-0.176,-0.245,0.172,-0.001,-0.000,0.000,0.000,0.000,0.000
0,-0.1163,0.0873,0.0118,0.0061,-0.0003,0.0032,0.01,-0.09,-0.11,0,3.853,0.238,-0.022,-0.117,-0.003,0.001,0.000,0.000,0.000,0.000
0,-0.1168,0.0860,0.0100,0.0020,-0.0049,-0.0043,0.01,-0.06,-0.11,0,3.859,0.185,0.029,0.267,-0.001,-0.001,0.000,0.000,0.000,0.000
0,-0.1166,0.0872,0.0098,0.0023,0.0031,-0.0032,-0.21,-0.05,-0.10,0,3.853,0.081,-0.200,-0.098,-0.001,-0.002,0.000,0.000,0.000,0.000
0,-0.1173,0.0903,0.0104,-0.0019,0.0168,0.0008,-0.20,-0.09,-0.10,0,3.864,0.211,-0.378,-0.041,-0.002,0.001,0.000,0.000,0.000,0.000
0,-0.1168,0.0939,0.0092,-0.0006,0.0320,-0.0036,-0.06,-0.09,-0.10,0,3.853,0.029,0.198,-0.142,-0.000,-0.001,0.000,0.000,0.000,0.000
0,-0.1147,0.0879,0.0081,0.0096,-0.0024,-0.0062,0.22,-0.20,-0.10,0,3.859,0.195,0.114,0.007,-0.001,-0.002,0.000,0.000,0.000,0.000
0,-0.1120,0.0856,0.0095,0.0200,-0.0114,0.0019,0.20,-0.23,-0.09,0,3.853,0.092,-0.101,0.010,-0.002,0.001,0.000,0.000,0.000,0.000
0,-0.1188,0.0825,0.0106,-0.0186,-0.0234,0.0072,0.10,0.09,-0.11,0,3.859,-0.248,-0.166,0.037,0.002,0.001,0.000,0.000,0.000,0.000
0,-0.1191,0.0832,0.0123,-0.0167,-0.0156,0.0136,-0.01,0.11,-0.10,0,3.853,0.155,-0.087,0.058,-0.002,-0.000,0.000,0.000,0.000,0.000
0,-0.1221,0.0850,0.0128,-0.0283,-0.0050,0.0142,-0.01,0.05,-0.10,0,3.864,0.414,-0.098,-0.294,-0.001,0.002,0.000,0.000,0.000,0.000
0,-0.1203,0.0848,0.0122,-0.0159,-0.0042,0.0102,-0.02,0.06,-0.09,0,3.853,0.027,0.131,0.317,-0.005,-0.000,0.000,0.000,0.000,0.000
0,-0.1210,0.0863,0.0100,-0.0170,0.0043,-0.0003,-0.01,0.00,-0.09,0,3.859,0.128,-0.289,-0.009,-0.000,0.000,0.000,0.000,0.000,0.000
0,-0.1198,0.0853,0.0106,-0.0083,-0.0004,0.0029,-0.03,0.01,-0.09,0,3.853,0.195,0.096,-0.204,-0.001,-0.001,0.000,0.000,0.000,0.000
0,-0.1188,0.0851,0.0100,-0.0003,-0.0015,0.0002,-0.04,-0.04,-0.09,0,3.864,0.077,-0.141,-0.117,0.000,0.000,0.000,0.000,0.000,0.000
0,-0.1212,0.0853,0.0080,-0.0112,-0.0006,-0.0072,-0.21,-0.05,-0.07,0,3.853,0.176,0.221,-0.178,-0.001,-0.001,0.000,0.000,0.000,0.000
0,-0.1214,0.0958,0.0075,-0.0096,0.0487,-0.0073,-0.29,-0.04,-0.07,0,3.859,0.172,0.261,0.103,-0.004,0.001,0.000,0.000,0.000,0.000
0,-0.1210,0.0961,0.0081,-0.0060,0.0420,-0.0025,-0.21,-0.12,-0.06,0,3.853,-0.184,0.060,0.518,-0.001,0.002,0.000,0.000,0.000,0.000
0,-0.1210,0.0957,0.0081,-0.0052,0.0321,-0.0009,-0.06,-0.13,-0.06,0,3.859,0.012,0.186,-0.120,-0.000,-0.001,0.000,0.000,0.000,0.000
0,-0.1212,0.0962,0.0097,-0.0050,0.0286,0.0068,-0.00,-0.09,-0.07,0,3.853,0.018,-0.005,-0.124,-0.003,-0.001,0.000,0.000,0.000,0.000
0,-0.1203,0.0908,0.0113,-0.0003,-0.0022,0.0131,-0.03,-0.09,-0.07,0,3.859,0.140,0.118,0.151,-0.003,0.002,0.000,0.000,0.000,0.000
0,-0.1212,0.0925,0.0110,-0.0048,0.0059,0.0095,0.20,-0.12,-0.07,0,3.853,0.235,0.047,0.327,-0.003,0.001,0.000,0.000,0.000,0.000
0,-0.1212,0.0906,0.0120,-0.0038,-0.0036,0.0124,0.17,-0.17,-0.07,0,3.859,0.091,0.093,0.137,-0.001,0.001,0.000,0.000,0.000,0.000
0,-0.1210,0.0897,0.0127,-0.0018,-0.0064,0.0132,0.13,-0.10,-0.06,0,3.853,0.075,0.337,0.217,-0.002,-0.000,0.000,0.000,0.000,0.000
0,-0.1212,0.0893,0.0114,-0.0020,-0.0077,0.0055,0.11,-0.15,-0.06,0,3.859,0.135,0.107,0.370,-0.001,0.002,0.000,0.000,0.000,0.000
50,-0.1203,0.0897,0.0100,0.0030,-0.0043,-0.0005,0.09,-0.16,-0.06,0,3.853,-0.157,-0.235,-0.055,-0.003,-0.001,0.000,0.000,0.000,0.000
102,-0.1207,0.0884,0.0100,0.0006,-0.0102,0.0001,0.17,-0.17,-0.06,0,3.859,0.327,0.063,-0.027,-0.001,0.003,0.000,0.000,0.000,0.000
152,-0.1199,0.0895,0.0091,0.0048,-0.0031,-0.0025,-0.03,-0.10,-0.06,0,3.853,-0.172,-0.042,0.011,0.000,-0.000,0.000,0.000,0.000,0.000
204,-0.1209,0.0918,0.0091,-0.0006,0.0081,-0.0005,-0.03,-0.13,-0.06,0,3.859,-0.086,0.008,-0.094,0.000,-0.002,0.000,0.000,0.000,0.000
254,-0.1222,0.0911,0.0101,-0.0067,0.0026,0.0040,-0.03,-0.08,-0.06,0,3.853,0.051,-0.312,0.102,-0.004,0.001,0.000,0.000,0.000,0.000
305,-0.1215,0.0922,0.0118,-0.0024,0.0069,0.0114,0.02,-0.14,-0.06,0,3.859,0.078,0.059,0.188,-0.002,0.002,0.000,0.000,0.000,0.000
357,-0.1209,0.0903,0.0112,0.0018,-0.0040,0.0075,-0.02,-0.12,-0.06,0,3.853,0.087,0.000,-0.070,-0.002,0.000,0.000,0.000,0.000,0.000
407,-0.1209,0.0924,0.0125,0.0023,0.0063,0.0122,0.09,-0.24,-0.06,0,3.859,0.248,0.171,0.095,-0.003,0.001,0.000,0.000,0.000,0.000
458,-0.1192,0.0903,0.0123,0.0100,-0.0055,0.0090,0.01,-0.12,-0.06,0,3.853,0.319,0.014,0.131,-0.002,0.002,0.000,0.000,0.000,0.000
509,-0.1188,0.0892,0.0117,0.0111,-0.0106,0.0050,0.06,-0.25,-0.06,0,3.859,0.096,0.043,0.034,-0.002,0.001,0.000,0.000,0.000,0.000
561,-0.1185,0.0899,0.0121,0.0107,-0.0062,0.0066,0.07,-0.18,-0.06,0,3.853,0.002,0.060,-0.032,-0.002,-0.001,0.000,0.000,0.000,0.000
611,-0.1187,0.0899,0.0109,0.0076,-0.0060,0.0005,0.13,-0.18,-0.05,0,3.859,-0.212,-0.227,0.032,-0.002,-0.000,0.000,0.000,0.000,0.000
663,-0.1185,0.0903,0.0120,0.0079,-0.0027,0.0056,0.18,-0.15,-0.05,0,3.853,0.297,-0.125,0.044,0.001,-0.003,0.000,0.000,0.000,0.000
714,-0.1187,0.0901,0.0108,0.0053,-0.0031,-0.0001,0.05,-0.14,-0.05,0,3.859,-0.156,0.090,-0.011,-0.004,0.001,0.000,0.000,0.000,0.000
764,-0.1188,0.0899,0.0109,0.0042,-0.0035,0.0013,0.20,-0.17,-0.05,0,3.853,-0.200,0.502,0.428,-0.004,0.001,0.000,0.000,0.000,0.000
815,-0.1185,0.0844,0.0121,0.0033,-0.0303,0.0067,0.16,-0.13,-0.05,0,3.859,0.151,-0.012,-0.304,-0.002,-0.001,0.000,0.000,0.000,0.000
866,-0.1168,0.0845,0.0130,0.0118,-0.0266,0.0103,0.29,-0.18,-0.05,0,3.853,0.223,-0.061,0.105,-0.003,0.001,0.000,0.000,0.000,0.000
917,-0.1168,0.0841,0.0126,0.0092,-0.0229,0.0072,0.24,-0.12,-0.05,0,3.859,0.418,0.042,0.166,-0.001,-0.002,0.000,0.000,0.000,0.000
968,-0.1170,0.0841,0.0137,0.0069,-0.0181,0.0115,0.20,-0.12,-0.06,0,3.853,0.103,0.083,0.257,0.000,-0.001,0.000,0.000,0.000,0.000
1019,-0.1166,0.0840,0.0119,0.0075,-0.0156,0.0015,0.08,-0.13,-0.06,0,3.859,-0.027,0.439,0.346,-0.003,0.002,0.000,0.000,0.000,0.000
1071,-0.1166,0.0838,0.0106,0.0060,-0.0135,-0.0035,0.00,-0.09,-0.05,0,3.853,0.057,0.133,0.116,-0.002,-0.001,0.000,0.000,0.000,0.000
1121,-0.1168,0.0833,0.0117,0.0041,-0.0133,0.0033,0.04,-0.13,-0.05,0,3.864,0.149,-0.037,0.051,-0.001,-0.001,0.000,0.000,0.000,0.000
1173,-0.1166,0.0840,0.0111,0.0045,-0.0083,0.0001,-0.03,-0.11,-0.05,0,3.853,0.377,0.065,-0.206,-0.001,0.001,0.000,0.000,0.000,0.000
1223,-0.1170,0.0837,0.0111,0.0015,-0.0083,0.0017,0.15,-0.07,-0.06,0,3.859,0.151,0.043,-0.184,-0.005,-0.000,0.000,0.000,0.000,0.000
1274,-0.1167,0.0841,0.0113,0.0020,-0.0036,0.0028,0.03,-0.07,-0.06,0,3.853,0.098,0.110,0.132,0.000,-0.000,0.000,0.000,0.000,0.000
1325,-0.1176,0.0828,0.0113,-0.0027,-0.0092,0.0036,0.02,-0.16,-0.05,0,3.864,0.166,0.146,-0.082,-0.002,0.004,0.000,0.000,0.000,0.000
1377,-0.1165,0.0840,0.0114,0.0025,-0.0010,0.0039,0.16,-0.15,-0.05,0,3.853,0.302,0.126,0.263,-0.001,0.002,0.000,0.000,0.000,0.000
1428,-0.1169,0.0810,0.0124,-0.0001,-0.0147,0.0087,0.02,-0.13,-0.05,0,3.864,0.217,-0.098,-0.025,-0.001,0.001,0.000,0.000,0.000,0.000
1479,-0.1167,0.0804,0.0127,0.0006,-0.0151,0.0094,0.15,-0.16,-0.05,0,3.853,0.004,-0.058,0.067,-0.003,0.000,0.000,0.000,0.000,0.000
1530,-0.1169,0.0833,0.0124,-0.0013,0.0050,0.0067,-0.09,-0.08,-0.05,0,3.494,0.893,-0.340,-0.364,0.005,0.008,0.000,0.000,0.000,0.000
1581,-0.1169,0.0835,0.0125,-0.0007,0.0050,0.0056,-0.04,-0.13,-0.05,0,3.563,0.653,0.099,0.054,-0.008,-0.005,0.000,0.000,0.000,0.000
1631,-0.1167,0.0829,0.0105,0.0008,0.0006,-0.0041,0.03,-0.01,-0.05,0,3.616,-0.389,-0.525,1.327,-0.005,-0.004,0.000,0.000,0.000,0.000
1682,-0.1170,0.0842,0.0127,0.0004,0.0073,0.0072,-0.06,-0.05,-0.04,0,3.626,0.592,-1.552,-3.857,0.007,-0.011,0.000,0.000,0.000,0.000
1733,-0.1159,0.0844,0.0117,0.0069,0.0066,0.0023,0.03,-0.11,-0.19,0,3.642,-0.646,-2.975,7.238,0.001,-0.015,0.000,0.000,0.000,0.000
1784,-0.1173,0.0832,0.0095,-0.0009,-0.0010,-0.0065,0.03,-0.03,0.08,0,3.637,1.712,-0.128,1.577,-0.014,-0.018,0.000,0.000,0.000,0.000
1835,-0.1135,0.0801,0.0090,0.0182,-0.0168,-0.0057,0.26,-0.13,0.27,0,3.642,-1.239,-0.383,-3.223,-0.020,-0.017,0.000,0.000,0.000,0.000
1886,-0.1148,0.0750,0.0087,0.0086,-0.0388,-0.0046,0.38,-0.06,0.08,0,3.642,-1.260,0.293,3.748,-0.000,0.012,0.000,0.000,0.000,0.000
1937,-0.1149,0.0721,0.0102,0.0057,-0.0460,0.0029,0.27,0.10,0.23,0,3.648,4.062,-2.777,3.757,-0.011,-0.001,0.000,0.000,0.000,0.000
1989,-0.1144,0.0685,0.0097,0.0083,-0.0566,-0.0017,0.42,0.18,0.39,0,3.632,3.137,-0.312,-4.228,-0.005,-0.010,0.000,0.000,0.000,0.000
2040,-0.1185,0.0625,0.0106,-0.0130,-0.0763,0.0015,0.75,0.18,0.11,0,3.637,-1.092,-1.189,-3.631,-0.010,-0.002,0.000,0.000,0.000,0.000
2091,-0.1211,0.0550,0.0092,-0.0245,-0.0969,-0.0046,0.85,0.09,-0.08,0,3.632,0.920,-1.831,2.481,-0.012,-0.010,0.000,0.000,0.000,0.000
2143,-0.1158,0.0386,0.0090,0.0047,-0.1556,-0.0036,0.99,0.05,0.07,0,3.632,-1.527,-0.153,5.472,-0.008,-0.001,0.000,0.000,0.000,0.000
2193,-0.1158,0.0321,0.0102,0.0029,-0.1544,0.0035,0.87,-0.08,0.40,0,3.626,-12.703,-3.815,8.169,0.003,-0.002,0.000,0.000,0.000,0.000
2244,-0.1109,0.0225,0.0102,0.0262,-0.1664,0.0121,0.32,-0.06,0.69,0,3.632,-4.922,4.002,5.377,-0.016,-0.027,0.000,0.000,0.000,0.000
2295,-0.1105,0.0172,0.0123,0.0224,-0.1509,0.0144,-0.35,-0.01,1.03,0,3.621,-12.240,12.843,11.070,-0.004,-0.015,0.000,0.000,0.000,0.000
2346,-0.1107,0.0221,0.0132,0.0164,-0.0864,0.0182,-1.07,-0.07,1.51,0,3.626,-2.894,2.773,10.090,-0.016,-0.023,0.000,0.000,0.000,0.000
2397,-0.1042,0.0305,0.0147,0.0459,-0.0149,0.0251,-2.02,-0.33,1.96,0,3.616,2.725,-8.703,10.889,-0.002,-0.018,0.000,0.000,0.000,0.000
2449,-0.1000,0.0456,0.0123,0.0564,0.0749,0.0095,-2.59,-0.07,2.50,0,3.611,8.612,-24.218,14.099,-0.003,-0.029,0.000,0.000,0.000,0.000
2499,-0.0975,0.0667,0.0101,0.0547,0.1757,0.0012,-2.60,0.92,3.28,0,3.605,28.481,-41.319,0.731,0.010,-0.014,0.000,0.000,0.000,0.000
2550,-0.0947,0.0885,0.0092,0.0457,0.2558,-0.0050,-1.64,2.56,3.54,0,3.605,20.530,-16.212,-6.618,0.031,-0.011,0.000,0.000,0.000,0.000
2602,-0.0936,0.1051,0.0122,0.0210,0.2828,0.0223,-0.79,3.01,3.05,0,3.589,28.043,9.035,-2.853,0.022,-0.004,0.000,0.000,0.000,0.000
2652,-0.0994,0.1164,0.0142,-0.0303,0.2715,0.0374,1.38,3.24,2.76,0,3.600,17.338,1.280,-3.171,0.026,-0.020,0.000,0.000,0.000,0.000
2704,-0.0983,0.1194,0.0111,-0.0395,0.2098,0.0291,3.53,3.57,1.81,0,3.584,-9.709,-6.910,2.112,0.009,0.009,0.000,0.000,0.000,0.000
2754,-0.1174,0.1019,0.0057,-0.1417,0.0546,-0.0022,4.76,4.34,-0.12,0,3.579,-15.842,42.147,3.254,0.014,-0.024,0.000,0.000,0.000,0.000
2805,-0.1451,0.0703,-0.0084,-0.2739,-0.1289,-0.0675,5.25,3.83,-0.80,0,3.558,-97.973,68.545,6.122,-0.003,-0.013,0.000,0.000,0.000,0.000
2856,-0.1825,0.0291,-0.0301,-0.4193,-0.3153,-0.1484,2.45,1.58,-1.43,0,3.552,-84.480,102.585,7.334,-0.012,-0.010,0.000,0.000,0.000,0.000
2907,-0.2152,-0.0029,-0.0339,-0.4803,-0.3954,-0.1042,-2.10,-2.74,-0.96,0,3.542,-55.295,57.661,10.414,-0.002,-0.010,0.000,0.000,0.000,0.000
2959,-0.2427,-0.0257,-0.0190,-0.4544,-0.3780,0.0348,-5.35,-6.74,-0.93,0,3.579,-31.603,49.278,9.075,-0.002,-0.015,0.000,0.000,0.000,0.000
3009,-0.2536,-0.0362,0.0054,-0.3177,-0.2763,0.1746,-7.82,-9.96,-1.12,0,3.589,3.892,-19.941,9.381,0.007,-0.007,0.000,0.000,0.000,0.000
3060,-0.2497,-0.0332,0.0235,-0.1312,-0.1266,0.2231,-8.89,-10.52,-1.40,0,3.595,54.729,-69.732,7.733,-0.006,-0.020,0.000,0.000,0.000,0.000
3112,-0.2504,-0.0328,0.0366,-0.0267,-0.0338,0.2063,-7.24,-8.25,-0.80,0,3.584,60.024,-64.573,6.168,-0.016,-0.026,0.000,0.000,0.000,0.000
3162,-0.2244,-0.0082,0.0403,0.1610,0.1292,0.1509,-4.70,-5.56,-0.72,0,3.584,39.941,-58.537,6.852,-0.012,-0.029,0.000,0.000,0.000,0.000
3213,-0.2085,0.0029,0.0491,0.2277,0.1775,0.1323,-2.28,-2.79,-0.07,0,3.568,35.345,-59.166,2.953,-0.020,-0.027,0.000,0.000,0.000,0.000
3264,-0.1911,0.0154,0.0523,0.2674,0.2054,0.0971,-0.64,0.03,0.38,0,3.563,35.462,-68.177,0.383,-0.017,-0.026,0.000,0.000,0.000,0.000
3316,-0.1711,0.0319,0.0528,0.2943,0.2371,0.0618,0.85,3.02,0.18,0,3.547,36.801,-33.490,3.978,-0.014,-0.022,0.000,0.000,0.000,0.000
3366,-0.1459,0.0529,0.0522,0.3133,0.2685,0.0408,2.36,5.15,0.21,0,3.547,25.651,-6.975,4.609,-0.009,-0.021,0.000,0.000,0.000,0.000
3418,-0.1263,0.0701,0.0532,0.2895,0.2645,0.0311,3.70,5.52,0.44,0,3.542,11.883,-35.662,5.717,0.009,-0.019,0.000,0.000,0.000,0.000
3469,-0.1132,0.0789,0.0675,0.2299,0.2038,0.0999,4.97,7.20,0.45,0,3.558,0.879,11.314,6.949,-0.010,-0.018,0.000,0.000,0.000,0.000
3519,-0.1145,0.0782,0.0778,0.1151,0.1121,0.1309,5.30,7.83,0.56,0,3.547,-33.060,36.516,5.777,0.005,-0.016,0.000,0.000,0.000,0.000
3570,-0.1113,0.0771,0.0839,0.0536,0.0411,0.1247,4.14,5.98,0.57,0,3.542,-24.189,24.841,4.570,0.010,-0.013,0.000,0.000,0.000,0.000
3621,-0.1100,0.0783,0.0853,0.0056,0.0095,0.1093,2.59,4.58,1.25,0,3.537,-7.501,18.902,1.008,0.004,-0.016,0.000,0.000,0.000,0.000
3673,-0.1101,0.0770,0.0868,-0.0263,-0.0187,0.1070,2.22,3.63,0.93,0,3.526,-21.976,28.910,3.207,0.008,-0.018,0.000,0.000,0.000,0.000
3724,-0.1137,0.0769,0.0835,-0.0657,-0.0311,0.0865,1.14,2.38,1.55,0,3.516,-18.757,12.189,0.610,0.010,-0.006,0.000,0.000,0.000,0.000
3774,-0.1172,0.0767,0.0783,-0.0863,-0.0341,0.0728,0.15,1.48,1.73,0,3.510,-1.616,38.816,1.379,0.008,-0.014,0.000,0.000,0.000,0.000
3826,-0.1198,0.0769,0.0763,-0.0883,-0.0278,0.0875,-0.12,-0.38,1.83,0,3.510,-6.150,13.563,2.995,0.003,-0.020,0.000,0.000,0.000,0.000
3876,-0.1238,0.0749,0.0760,-0.0826,-0.0309,0.1098,-0.20,-1.06,1.86,0,3.510,-7.539,-2.264,3.331,0.015,-0.010,0.000,0.000,0.000,0.000
3927,-0.1254,0.0707,0.0799,-0.0606,-0.0413,0.1506,-0.48,-1.12,1.86,0,3.510,-6.475,10.500,2.450,0.007,-0.008,0.000,0.000,0.000,0.000
3978,-0.1299,0.0681,0.0858,-0.0587,-0.0408,0.1869,-0.77,-1.53,1.99,0,3.526,2.000,0.027,0.685,0.007,-0.011,0.000,0.000,0.000,0.000
4029,-0.1333,0.0668,0.1011,-0.0469,-0.0294,0.2545,-0.71,-1.76,2.07,0,3.526,0.334,-5.472,-0.336,0.007,-0.015,0.000,0.000,0.000,0.000
4080,-0.1340,0.0650,0.1146,-0.0258,-0.0238,0.2905,-0.75,-1.55,2.04,0,3.542,-1.899,-0.233,-0.477,0.004,-0.015,0.000,0.000,0.000,0.000
4131,-0.1351,0.0625,0.1341,-0.0130,-0.0237,0.3327,-0.76,-1.52,2.04,0,3.542,1.384,4.833,-2.780,0.002,-0.011,0.000,0.000,0.000,0.000
4182,-0.1344,0.0614,0.1519,0.0040,-0.0170,0.3456,-0.72,-1.68,1.93,0,3.552,1.973,-4.243,-3.590,0.006,-0.016,0.000,0.000,0.000,0.000
4234,-0.1337,0.0609,0.1692,0.0188,-0.0097,0.3436,-0.59,-1.54,1.85,0,3.552,0.028,-7.207,-4.385,0.007,-0.014,0.000,0.000,0.000,0.000
4284,-0.1312,0.0590,0.1847,0.0357,-0.0105,0.3257,-0.55,-1.22,1.62,0,3.558,-0.553,-9.782,-4.070,0.001,-0.014,0.000,0.000,0.000,0.000
4336,-0.1303,0.0588,0.2027,0.0403,-0.0048,0.3167,-0.56,-0.76,1.38,0,3.552,2.911,-6.484,-4.969,-0.001,-0.016,0.000,0.000,0.000,0.000
4386,-0.1327,0.0636,0.2166,0.0291,0.0193,0.2877,-0.58,-0.24,0.88,0,3.558,5.138,-3.765,-6.067,0.002,-0.015,0.000,0.000,0.000,0.000
4437,-0.1313,0.0656,0.2330,0.0305,0.0268,0.2738,-0.42,-0.04,0.52,0,3.552,10.097,1.042,-6.387,0.001,-0.014,0.000,0.000,0.000,0.000
4488,-0.1301,0.0700,0.2448,0.0304,0.0390,0.2396,0.03,-0.06,0.21,0,3.552,6.534,-0.159,-5.741,0.003,-0.020,0.000,0.000,0.000,0.000
4539,-0.1296,0.0746,0.2577,0.0277,0.0473,0.2173,0.34,-0.04,-0.12,0,3.547,3.579,-4.867,-5.522,-0.000,-0.017,0.000,0.000,0.000,0.000
4590,-0.1301,0.0804,0.2680,0.0223,0.0562,0.1911,0.42,0.07,-0.47,0,3.552,5.050,-0.372,-3.506,-0.000,-0.016,0.000,0.000,0.000,0.000
4641,-0.1292,0.0817,0.2790,0.0210,0.0484,0.1753,0.65,0.06,-0.75,0,3.547,3.890,0.082,-1.178,-0.002,-0.017,0.000,0.000,0.000,0.000
4692,-0.1304,0.0878,0.2873,0.0143,0.0533,0.1506,0.87,-0.02,-0.90,0,3.552,2.365,1.862,0.177,0.000,-0.014,0.000,0.000,0.000,0.000
4743,-0.1322,0.0952,0.2961,0.0079,0.0595,0.1348,1.05,-0.12,-0.90,0,3.542,5.318,4.064,2.161,-0.001,-0.010,0.000,0.000,0.000,0.000
4794,-0.1331,0.1005,0.3026,0.0052,0.0578,0.1139,1.15,-0.19,-0.84,0,3.547,2.485,1.264,4.996,0.001,-0.011,0.000,0.000,0.000,0.000
4845,-0.1333,0.1045,0.3079,0.0059,0.0515,0.0943,1.30,-0.28,-0.62,0,3.531,-2.974,-3.150,7.773,0.004,-0.011,0.000,0.000,0.000,0.000
4896,-0.1325,0.1057,0.3097,0.0090,0.0378,0.0665,1.18,-0.19,-0.32,0,3.542,-7.112,-0.853,7.646,-0.001,-0.007,0.000,0.000,0.000,0.000
4948,-0.1344,0.1113,0.3133,0.0053,0.0373,0.0565,1.00,-0.19,0.07,0,3.531,-3.588,-2.833,10.440,0.007,-0.007,0.000,0.000,0.000,0.000
4998,-0.1372,0.1149,0.3139,-0.0006,0.0336,0.0374,0.83,-0.10,0.53,0,3.531,-2.647,0.294,10.386,0.002,-0.005,0.000,0.000,0.000,0.000
5049,-0.1378,0.1168,0.3149,-0.0013,0.0297,0.0307,0.73,-0.11,1.01,0,3.526,-3.386,-1.013,10.664,0.002,-0.010,0.000,0.000,0.000,0.000
5101,-0.1393,0.1193,0.3161,-0.0035,0.0261,0.0261,0.59,-0.09,1.52,0,3.531,-1.555,2.177,9.305,0.002,-0.006,0.000,0.000,0.000,0.000
5151,-0.1366,0.1170,0.3167,0.0038,0.0132,0.0223,0.52,-0.12,1.97,0,3.526,-3.479,1.333,7.041,0.003,-0.006,0.000,0.000,0.000,0.000
5202,-0.1452,0.1248,0.3182,-0.0141,0.0244,0.0248,0.33,-0.06,2.34,0,3.531,-1.401,3.152,5.710,0.002,-0.008,0.000,0.000,0.000,0.000
5253,-0.1474,0.1286,0.3183,-0.0167,0.0271,0.0217,0.29,-0.17,2.67,0,3.521,1.791,3.009,5.922,0.003,-0.005,0.000,0.000,0.000,0.000
5304,-0.1488,0.1311,0.3216,-0.0168,0.0276,0.0339,0.36,-0.29,2.91,0,3.531,-1.343,2.145,3.531,0.003,-0.010,0.000,0.000,0.000,0.000
5356,-0.1502,0.1320,0.3217,-0.0143,0.0228,0.0273,0.46,-0.50,3.11,0,3.521,-1.424,-1.474,2.119,0.005,-0.004,0.000,0.000,0.000,0.000
5407,-0.1503,0.1324,0.3204,-0.0106,0.0197,0.0174,0.31,-0.38,3.24,0,3.526,2.933,0.028,1.572,0.004,-0.009,0.000,0.000,0.000,0.000
5457,-0.1509,0.1344,0.3196,-0.0073,0.0191,0.0137,0.34,-0.35,3.33,0,3.521,2.030,-0.972,0.118,0.002,-0.008,0.000,0.000,0.000,0.000
5509,-0.1514,0.1359,0.3210,-0.0044,0.0176,0.0218,0.44,-0.32,3.37,0,3.526,-2.608,-1.365,0.029,0.004,-0.004,0.000,0.000,0.000,0.000
5559,-0.1477,0.1351,0.3236,0.0058,0.0110,0.0336,0.42,-0.32,3.35,0,3.521,-0.782,-1.398,-1.372,0.000,-0.006,0.000,0.000,0.000,0.000
5611,-0.1453,0.1357,0.3239,0.0126,0.0078,0.0318,0.34,-0.17,3.27,0,3.526,-1.912,-0.913,-1.327,0.004,-0.006,0.000,0.000,0.000,0.000
5661,-0.1406,0.1364,0.3260,0.0218,0.0056,0.0368,0.20,0.02,3.15,0,3.521,2.399,-2.279,-4.251,0.001,-0.008,0.000,0.000,0.000,0.000
5713,-0.1501,0.1480,0.3277,0.0032,0.0236,0.0382,0.30,0.11,3.00,0,3.526,2.978,1.415,-3.233,-0.001,-0.008,0.000,0.000,0.000,0.000
5763,-0.1529,0.1521,0.3311,-0.0031,0.0268,0.0461,0.42,0.09,2.81,0,3.521,3.530,2.835,-3.317,0.002,-0.012,0.000,0.000,0.000,0.000
5814,-0.1527,0.1538,0.3327,-0.0029,0.0240,0.0427,0.57,-0.04,2.65,0,3.526,1.356,0.052,-2.701,0.000,-0.005,0.000,0.000,0.000,0.000
5865,-0.1528,0.1549,0.3362,-0.0023,0.0192,0.0483,0.69,-0.12,2.50,0,3.516,1.366,-0.215,-2.473,0.002,-0.009,0.000,0.000,0.000,0.000
5916,-0.1512,0.1550,0.3358,0.0018,0.0122,0.0334,0.74,-0.12,2.37,0,3.521,-0.241,0.006,-1.866,0.002,-0.006,0.000,0.000,0.000,0.000
5967,-0.1530,0.1554,0.3384,-0.0003,0.0059,0.0362,0.67,-0.09,2.27,0,3.516,-1.136,0.883,-1.430,0.002,-0.009,0.000,0.000,0.000,0.000
6018,-0.1530,0.1555,0.3413,0.0007,0.0002,0.0397,0.60,-0.13,2.19,0,3.521,-1.307,0.051,-2.478,0.000,-0.009,0.000,0.000,0.000,0.000
6070,-0.1551,0.1557,0.3418,-0.0017,-0.0044,0.0318,0.53,-0.10,2.08,0,3.516,-2.027,-0.958,-2.532,-0.001,-0.012,0.000,0.000,0.000,0.000
6120,-0.1555,0.1532,0.3418,-0.0013,-0.0122,0.0224,0.45,-0.07,1.95,0,3.521,-2.231,1.050,-3.640,0.002,-0.008,0.000,0.000,0.000,0.000
6171,-0.1495,0.1423,0.3429,0.0092,-0.0325,0.0207,0.17,-0.03,1.79,0,3.510,-5.798,-1.379,-2.589,0.003,-0.009,0.000,0.000,0.000,0.000
6223,-0.1536,0.1444,0.3424,0.0030,-0.0293,0.0148,0.07,-0.07,1.63,0,3.516,-3.846,-1.308,-2.781,0.001,-0.009,0.000,0.000,0.000,0.000
6273,-0.1526,0.1454,0.3429,0.0048,-0.0262,0.0158,-0.14,-0.00,1.50,0,3.516,-0.317,4.073,-3.860,0.002,-0.008,0.000,0.000,0.000,0.000
6324,-0.1525,0.1417,0.3442,0.0048,-0.0293,0.0197,-0.01,-0.25,1.33,0,3.521,-1.774,2.019,-2.362,0.002,-0.008,0.000,0.000,0.000,0.000
6375,-0.1446,0.1295,0.3475,0.0182,-0.0456,0.0306,-0.04,-0.34,1.17,0,3.516,-8.950,-5.187,-3.142,0.000,-0.008,0.000,0.000,0.000,0.000
6426,-0.1408,0.1283,0.3476,0.0250,-0.0435,0.0232,-0.33,-0.09,1.02,0,3.516,-1.200,-4.937,-2.485,-0.001,-0.011,0.000,0.000,0.000,0.000
6477,-0.1419,0.1282,0.3463,0.0221,-0.0376,0.0118,-0.39,0.13,0.90,0,3.510,2.670,-0.966,-2.619,0.003,-0.012,0.000,0.000,0.000,0.000
6528,-0.1383,0.1260,0.3457,0.0247,-0.0351,0.0059,-0.34,0.20,0.79,0,3.516,-1.757,-0.921,-3.607,0.004,-0.011,0.000,0.000,0.000,0.000
6580,-0.1397,0.1255,0.3471,0.0188,-0.0302,0.0132,-0.40,0.25,0.62,0,3.510,2.192,-0.564,-3.971,0.000,-0.011,0.000,0.000,0.000,0.000
6630,-0.1384,0.1262,0.3488,0.0170,-0.0236,0.0204,-0.35,0.27,0.43,0,3.516,4.149,0.903,-5.219,0.002,-0.012,0.000,0.000,0.000,0.000
6682,-0.1389,0.1237,0.3484,0.0128,-0.0228,0.0166,-0.29,0.35,0.19,0,3.510,-0.050,4.682,-5.059,0.003,-0.008,0.000,0.000,0.000,0.000
6732,-0.1382,0.1251,0.3505,0.0109,-0.0176,0.0244,-0.12,0.09,-0.05,0,3.516,3.319,4.460,-3.557,0.004,-0.012,0.000,0.000,0.000,0.000
6783,-0.1407,0.1245,0.3519,0.0056,-0.0162,0.0268,0.01,-0.06,-0.25,0,3.505,-0.386,0.802,-2.626,0.001,-0.009,0.000,0.000,0.000,0.000
6834,-0.1419,0.1243,0.3516,0.0036,-0.0151,0.0189,-0.04,-0.07,-0.39,0,3.516,-1.535,3.754,-1.379,0.003,-0.009,0.000,0.000,0.000,0.000
6886,-0.1434,0.1243,0.3532,0.0015,-0.0138,0.0218,-0.10,-0.15,-0.46,0,3.510,0.735,3.001,-1.312,0.005,-0.007,0.000,0.000,0.000,0.000
6936,0.0000,0.0000,0.0000,0.0000,0.0000,0.0000,0.03,-0.05,-0.03,0,3.473,2.868,0.657,-2.347,0.009,-0.008,0.000,0.000,0.000,0.000
6987,-0.0000,-0.0000,0.3541,-0.0000,-0.0003,0.0087,0.11,-0.14,-0.15,0,3.505,2.728,-0.190,-1.541,0.003,-0.011,0.000,0.000,0.000,0.000
7038,0.0000,0.0000,0.3558,0.0015,-0.0006,0.0222,0.20,-0.10,-0.23,0,3.510,2.002,5.621,-1.275,0.002,-0.007,0.000,0.000,0.000,0.000
7090,0.0001,-0.0001,0.3580,0.0024,-0.0024,0.0307,0.32,-0.34,-0.29,0,3.510,-1.032,3.609,-1.156,-0.001,-0.007,0.000,0.000,0.000,0.000
7140,0.0005,-0.0003,0.3590,0.0060,-0.0051,0.0306,0.35,-0.40,-0.33,0,3.516,-0.129,-2.418,-0.671,0.002,-0.007,0.000,0.000,0.000,0.000
7191,0.0007,-0.0006,0.3623,0.0085,-0.0077,0.0373,0.22,-0.32,-0.35,0,3.510,-0.873,0.523,-1.268,0.001,-0.008,0.000,0.000,0.000,0.000
7242,0.0012,-0.0010,0.3632,0.0112,-0.0094,0.0272,0.17,-0.46,-0.39,0,3.516,-0.571,-2.607,-1.864,0.001,-0.011,0.000,0.000,0.000,0.000
7293,0.0020,-0.0020,0.3647,0.0148,-0.0130,0.0218,0.09,-0.42,-0.50,0,3.510,1.184,-2.548,-2.613,-0.001,-0.010,0.000,0.000,0.000,0.000
7344,0.0038,-0.0013,0.3672,0.0224,-0.0073,0.0224,0.10,-0.36,-0.61,0,3.516,-0.088,-4.167,-0.940,0.003,-0.005,0.000,0.000,0.000,0.000
7396,0.0048,-0.0022,0.3690,0.0237,-0.0104,0.0192,0.53,-0.53,-0.71,0,3.505,-0.181,-0.496,-1.283,0.003,-0.007,0.000,0.000,0.000,0.000
7447,0.0138,-0.0112,0.3676,0.0554,-0.0446,0.0008,0.53,-0.46,-0.74,0,3.510,-7.015,-3.603,1.172,-0.002,-0.009,0.000,0.000,0.000,0.000
7497,0.0187,-0.0147,0.3671,0.0662,-0.0524,-0.0079,0.25,-0.35,-0.70,0,3.505,-0.399,3.816,3.111,0.005,-0.007,0.000,0.000,0.000,0.000
7548,0.0225,-0.0166,0.3681,0.0706,-0.0517,-0.0064,0.05,-0.39,-0.58,0,3.510,5.065,3.602,3.143,-0.004,-0.003,0.000,0.000,0.000,0.000
7599,0.0225,-0.0134,0.3687,0.0632,-0.0351,-0.0059,-0.02,-0.41,-0.42,0,3.500,5.889,0.514,3.718,-0.003,-0.004,0.000,0.000,0.000,0.000
7651,0.0213,-0.0066,0.3669,0.0538,-0.0111,-0.0163,0.37,-0.54,-0.18,0,3.505,7.721,-1.026,3.397,-0.001,-0.008,0.000,0.000,0.000,0.000
7701,0.0284,-0.0127,0.3651,0.0690,-0.0286,-0.0228,0.64,-0.52,-0.03,0,3.500,-0.831,-2.465,3.360,0.002,-0.010,0.000,0.000,0.000,0.000
7752,0.0322,-0.0116,0.3640,0.0736,-0.0271,-0.0230,0.65,-0.33,0.16,0,3.505,1.877,1.381,2.922,-0.001,-0.011,0.000,0.000,0.000,0.000
7803,0.0357,-0.0125,0.3629,0.0756,-0.0312,-0.0222,0.65,-0.32,0.32,0,3.500,4.660,1.267,2.114,-0.002,-0.003,0.000,0.000,0.000,0.000
7854,0.0415,-0.0117,0.3614,0.0833,-0.0314,-0.0229,0.81,-0.35,0.45,0,3.500,1.299,-2.778,1.845,-0.000,-0.007,0.000,0.000,0.000,0.000
7905,0.0460,-0.0137,0.3591,0.0873,-0.0391,-0.0271,0.80,-0.24,0.54,0,3.494,1.400,-2.453,1.640,0.000,-0.006,0.000,0.000,0.000,0.000
7956,0.0509,-0.0150,0.3573,0.0910,-0.0451,-0.0265,0.88,-0.22,0.62,0,3.500,-2.056,-5.268,1.991,-0.002,-0.008,0.000,0.000,0.000,0.000
8007,0.0570,-0.0183,0.3564,0.0961,-0.0551,-0.0221,0.70,0.05,0.68,0,3.494,-4.248,-0.969,2.042,-0.002,-0.005,0.000,0.000,0.000,0.000
8058,0.0569,-0.0155,0.3543,0.0862,-0.0504,-0.0239,0.52,0.17,0.78,0,3.500,3.637,2.531,2.540,-0.003,-0.005,0.000,0.000,0.000,0.000
8109,0.0632,-0.0185,0.3535,0.0893,-0.0566,-0.0189,0.65,0.11,0.91,0,3.494,1.146,2.981,4.037,-0.001,-0.004,0.000,0.000,0.000,0.000
8160,0.0609,-0.0150,0.3525,0.0757,-0.0501,-0.0147,0.69,-0.01,1.09,0,3.500,-0.653,3.242,6.484,-0.004,-0.004,0.000,0.000,0.000,0.000
8211,0.0659,-0.0203,0.3531,0.0785,-0.0611,-0.0059,0.69,-0.23,1.36,0,3.494,0.748,5.332,8.473,-0.001,-0.010,0.000,0.000,0.000,0.000
8262,0.0681,-0.0207,0.3518,0.0779,-0.0620,-0.0069,0.68,-0.41,1.73,0,3.500,-1.022,1.796,8.627,-0.005,-0.007,0.000,0.000,0.000,0.000
8313,0.0681,-0.0201,0.3522,0.0747,-0.0610,-0.0016,0.63,-0.49,2.15,0,3.494,-6.581,-2.235,9.669,0.001,-0.013,0.000,0.000,0.000,0.000
8364,0.0704,-0.0189,0.3516,0.0759,-0.0578,-0.0022,0.30,-0.39,2.66,0,3.500,-5.361,-0.860,10.450,-0.002,-0.010,0.000,0.000,0.000,0.000
8415,0.0637,-0.0136,0.3507,0.0604,-0.0449,-0.0041,0.08,-0.38,3.17,0,3.489,1.414,2.837,7.527,0.001,-0.006,0.000,0.000,0.000,0.000
8466,0.0765,-0.0229,0.3502,0.0797,-0.0565,-0.0047,0.00,-0.46,3.61,0,3.500,-2.008,-2.374,6.081,0.002,-0.005,0.000,0.000,0.000,0.000
8517,0.0771,-0.0214,0.3509,0.0776,-0.0489,-0.0004,-0.13,-0.38,3.92,0,3.494,2.472,0.112,5.175,0.000,-0.006,0.000,0.000,0.000,0.000
8568,0.0796,-0.0189,0.3499,0.0780,-0.0394,-0.0043,-0.11,-0.29,4.20,0,3.494,3.143,3.974,3.652,-0.003,-0.004,0.000,0.000,0.000,0.000
8619,0.0719,-0.0054,0.3487,0.0610,-0.0127,-0.0086,-0.02,-0.34,4.41,0,3.489,10.424,4.094,1.793,-0.000,-0.005,0.000,0.000,0.000,0.000
8670,0.0696,-0.0029,0.3495,0.0555,-0.0076,-0.0028,0.37,-0.59,4.54,0,3.494,6.699,4.436,1.398,-0.000,-0.010,0.000,0.000,0.000,0.000
8721,0.0753,-0.0052,0.3501,0.0657,-0.0141,-0.0005,0.77,-0.79,4.60,0,3.494,0.301,-2.220,0.213,-0.002,-0.007,0.000,0.000,0.000,0.000
8772,0.0787,-0.0056,0.3505,0.0730,-0.0196,-0.0006,0.74,-0.74,4.60,0,3.494,-0.214,-2.576,-0.368,-0.003,-0.006,0.000,0.000,0.000,0.000
8824,0.0713,0.0133,0.3486,0.0605,0.0072,-0.0110,0.73,-0.58,4.58,0,3.489,9.099,0.578,-0.533,-0.003,-0.006,0.000,0.000,0.000,0.000
8875,0.0753,0.0122,0.3478,0.0668,-0.0007,-0.0129,1.04,-0.58,4.57,0,3.494,0.087,1.822,1.026,0.000,-0.007,0.000,0.000,0.000,0.000
8925,0.0822,0.0112,0.3472,0.0783,-0.0109,-0.0134,1.14,-0.58,4.58,0,3.484,-2.919,-0.373,1.160,-0.003,-0.000,0.000,0.000,0.000,0.000
8976,0.0782,0.0202,0.3449,0.0711,-0.0046,-0.0210,1.01,-0.56,4.64,0,3.489,1.112,-1.462,2.370,0.002,-0.004,0.000,0.000,0.000,0.000
9027,0.0801,0.0184,0.3424,0.0735,-0.0151,-0.0256,1.02,-0.50,4.74,0,3.484,-1.690,-1.280,1.569,-0.003,-0.007,0.000,0.000,0.000,0.000
9078,0.0930,0.0059,0.3411,0.0941,-0.0432,-0.0242,1.13,-0.55,4.84,0,3.484,-9.195,-5.421,2.042,-0.004,-0.005,0.000,0.000,0.000,0.000
9129,0.1010,0.0011,0.3399,0.1043,-0.0561,-0.0213,0.79,-0.34,4.93,0,3.484,-7.826,-5.583,1.611,-0.005,-0.004,0.000,0.000,0.000,0.000
9181,0.1020,0.0075,0.3391,0.0999,-0.0465,-0.0171,0.64,-0.22,5.00,0,3.489,0.508,0.529,0.286,0.001,-0.005,0.000,0.000,0.000,0.000
9231,0.1327,-0.0252,0.3382,0.1452,-0.1019,-0.0134,0.54,-0.13,5.01,0,3.484,-10.798,-9.854,-1.478,0.001,-0.005,0.000,0.000,0.000,0.000
9283,0.1323,-0.0209,0.3419,0.1330,-0.0899,0.0075,0.09,0.27,4.95,0,3.494,-9.753,-5.687,-3.064,0.000,0.000,0.000,0.000,0.000,0.000
9333,0.1397,-0.0304,0.3403,0.1312,-0.0979,-0.0005,-0.45,0.59,4.81,0,3.484,-4.465,0.948,-4.564,0.003,-0.002,0.000,0.000,0.000,0.000
9384,0.1472,-0.0359,0.3390,0.1279,-0.0955,-0.0064,-0.74,0.62,4.59,0,3.489,-5.526,-0.072,-5.168,0.003,-0.001,0.000,0.000,0.000,0.000
9435,0.1489,-0.0356,0.3387,0.1143,-0.0811,-0.0061,-0.95,0.64,4.31,0,3.484,-4.376,0.681,-6.535,0.000,-0.001,0.000,0.000,0.000,0.000
9486,0.1439,-0.0252,0.3376,0.0888,-0.0469,-0.0109,-1.28,0.69,4.00,0,3.484,3.067,6.402,-5.638,0.000,-0.004,0.000,0.000,0.000,0.000
9537,0.1526,-0.0328,0.3357,0.0911,-0.0474,-0.0167,-0.99,0.26,3.71,0,3.479,4.153,5.694,-7.258,0.001,-0.006,0.000,0.000,0.000,0.000
9588,0.1706,-0.0506,0.3346,0.1136,-0.0674,-0.0171,-0.86,0.02,3.38,0,3.484,-9.271,1.683,-5.850,-0.001,-0.005,0.000,0.000,0.000,0.000
9639,0.1700,-0.0466,0.3325,0.1025,-0.0473,-0.0199,-1.26,-0.09,3.07,0,3.479,-7.063,1.247,-6.258,0.001,-0.001,0.000,0.000,0.000,0.000
9690,0.1782,-0.0544,0.3316,0.1111,-0.0508,-0.0174,-1.61,-0.23,2.74,0,3.484,-7.488,-5.365,-5.908,0.005,-0.001,0.000,0.000,0.000,0.000
9741,0.1804,-0.0478,0.3326,0.1055,-0.0197,-0.0045,-2.07,0.02,2.46,0,3.479,-1.575,-4.470,-5.550,-0.002,-0.008,0.000,0.000,0.000,0.000
9792,0.1820,-0.0451,0.3338,0.0975,0.0043,0.0064,-2.24,0.25,2.19,0,3.484,2.060,-0.984,-5.224,-0.001,-0.005,0.000,0.000,0.000,0.000
9843,0.1815,-0.0320,0.3347,0.0833,0.0488,0.0111,-2.14,0.42,1.92,0,3.479,16.706,4.408,-4.831,0.001,-0.007,0.000,0.000,0.000,0.000
9894,0.1834,-0.0245,0.3333,0.0744,0.0774,0.0024,-1.56,0.34,1.69,0,3.484,24.828,1.663,-3.403,-0.002,-0.007,0.000,0.000,0.000,0.000
9945,0.1870,-0.0209,0.3333,0.0708,0.0898,0.0030,-0.48,0.24,1.51,0,3.479,27.351,-0.824,-1.947,0.004,-0.012,0.000,0.000,0.000,0.000
9996,0.1920,-0.0130,0.3312,0.0703,0.0978,-0.0061,0.87,0.27,1.39,0,3.484,33.283,-2.176,-1.588,0.001,-0.007,0.000,0.000,0.000,0.000
10047,0.1936,-0.0014,0.3314,0.0660,0.1068,-0.0036,2.54,0.35,1.32,0,3.473,33.795,-0.682,-1.046,0.001,-0.004,0.000,0.000,0.000,0.000
10098,0.1983,-0.0009,0.3311,0.0664,0.0763,-0.0031,4.14,0.42,1.27,0,3.479,26.500,2.673,-0.634,-0.003,-0.004,0.000,0.000,0.000,0.000
10149,0.2036,0.0025,0.3289,0.0686,0.0406,-0.0114,5.55,0.28,1.23,0,3.473,14.364,4.079,-0.966,0.005,-0.004,0.000,0.000,0.000,0.000
10200,0.2061,0.0070,0.3295,0.0658,0.0004,-0.0050,6.19,0.12,1.22,0,3.484,-3.810,9.871,0.102,0.002,-0.003,0.000,0.000,0.000,0.000
10251,0.2070,0.0106,0.3336,0.0616,-0.0430,0.0141,6.22,-0.36,1.23,0,3.479,-19.157,8.952,-0.881,0.002,-0.004,0.000,0.000,0.000,0.000
10303,0.2061,0.0085,0.3365,0.0566,-0.0930,0.0220,5.41,-0.91,1.24,0,3.489,-44.291,25.020,-1.432,0.002,-0.001,0.000,0.000,0.000,0.000
10353,0.2118,0.0001,0.3381,0.0714,-0.1439,0.0190,3.37,-2.06,1.27,0,3.473,-59.270,31.737,-1.178,0.001,0.001,0.000,0.000,0.000,0.000
10404,0.2144,-0.0051,0.3348,0.0861,-0.1654,-0.0028,0.36,-3.61,1.27,0,3.479,-62.116,32.047,-1.353,0.003,0.002,0.000,0.000,0.000,0.000
10455,0.2205,-0.0236,0.3317,0.1193,-0.1904,-0.0166,-2.73,-5.26,1.18,0,3.473,-55.775,22.990,0.340,0.000,0.007,0.000,0.000,0.000,0.000
10506,0.2282,-0.0329,0.3321,0.1655,-0.1654,-0.0115,-5.57,-6.50,1.09,0,3.484,-25.612,2.515,0.474,-0.002,-0.001,0.000,0.000,0.000,0.000
10557,0.2371,-0.0430,0.3361,0.2182,-0.1228,0.0077,-7.02,-6.72,1.11,0,3.479,0.768,-25.614,1.239,-0.007,-0.002,0.000,0.000,0.000,0.000
10608,0.2487,-0.0449,0.3397,0.2723,-0.0544,0.0181,-7.08,-5.63,1.27,0,3.484,33.389,-45.290,0.368,-0.006,-0.004,0.000,0.000,0.000,0.000
10660,0.2598,-0.0422,0.3405,0.3092,0.0154,0.0120,-5.62,-3.43,1.51,0,3.473,42.383,-46.989,-2.920,-0.011,-0.007,0.000,0.000,0.000,0.000
10711,0.2809,-0.0407,0.3365,0.3490,0.0625,-0.0133,-3.61,-1.13,1.63,0,3.473,49.613,-60.537,-3.553,-0.013,-0.008,0.000,0.000,0.000,0.000
10761,0.2990,-0.0397,0.3301,0.3590,0.0862,-0.0378,-1.26,1.86,1.60,0,3.457,43.621,-53.822,-3.298,-0.011,-0.010,0.000,0.000,0.000,0.000
10812,0.3107,-0.0287,0.3230,0.3300,0.1106,-0.0549,1.08,4.58,1.41,0,3.463,34.321,-25.602,-4.038,-0.013,-0.012,0.000,0.000,0.000,0.000
10863,0.3288,-0.0250,0.3162,0.2974,0.0964,-0.0632,2.96,6.01,1.15,0,3.457,26.516,-16.020,-3.650,-0.008,-0.007,0.000,0.000,0.000,0.000
10914,0.3432,-0.0226,0.3146,0.2470,0.0647,-0.0449,4.42,6.88,0.91,0,3.473,15.920,-10.319,-3.003,-0.007,-0.009,0.000,0.000,0.000,0.000
10965,0.3536,-0.0213,0.3201,0.1833,0.0204,0.0017,5.43,7.39,0.71,0,3.473,-2.243,12.866,-2.468,-0.005,-0.007,0.000,0.000,0.000,0.000
11016,0.3630,-0.0198,0.3253,0.1241,-0.0244,0.0291,5.63,6.88,0.58,0,3.479,-12.067,28.337,-3.725,0.001,-0.002,0.000,0.000,0.000,0.000
11068,0.3725,-0.0276,0.3274,0.0770,-0.0854,0.0304,5.05,5.70,0.51,0,3.468,-31.112,33.715,-1.732,0.001,-0.003,0.000,0.000,0.000,0.000
11118,0.3788,-0.0422,0.3248,0.0386,-0.1510,0.0088,3.81,4.01,0.45,0,3.468,-36.850,35.477,-2.611,0.004,-0.002,0.000,0.000,0.000,0.000
11170,0.3824,-0.0529,0.3202,0.0108,-0.1889,-0.0152,1.99,2.20,0.43,0,3.457,-34.441,32.081,-1.113,0.003,0.002,0.000,0.000,0.000,0.000
11220,0.3821,-0.0627,0.3140,-0.0093,-0.2060,-0.0340,0.27,0.68,0.40,0,3.463,-28.547,22.184,0.054,0.000,0.004,0.000,0.000,0.000,0.000
11271,0.3852,-0.0838,0.3081,-0.0062,-0.2350,-0.0427,-1.01,-0.57,0.34,0,3.452,-25.811,19.009,0.651,0.004,0.003,0.000,0.000,0.000,0.000
11322,0.3869,-0.0965,0.3050,0.0036,-0.2294,-0.0339,-2.22,-1.63,0.34,0,3.463,-14.360,16.225,0.649,0.004,0.004,0.000,0.000,0.000,0.000
11374,0.3860,-0.1006,0.3039,0.0144,-0.1922,-0.0151,-3.08,-2.41,0.38,0,3.457,-1.671,8.921,0.923,0.000,-0.001,0.000,0.000,0.000,0.000
11424,0.3885,-0.1171,0.3057,0.0396,-0.1824,0.0121,-3.27,-2.83,0.40,0,3.468,4.458,1.262,1.971,-0.001,-0.001,0.000,0.000,0.000,0.000
11475,0.3887,-0.1212,0.3093,0.0583,-0.1424,0.0377,-3.19,-2.86,0.48,0,3.468,7.797,-3.130,1.897,-0.000,-0.005,0.000,0.000,0.000,0.000
11526,0.3909,-0.1232,0.3142,0.0796,-0.1027,0.0582,-2.92,-2.73,0.60,0,3.473,12.360,-7.017,2.327,-0.000,-0.005,0.000,0.000,0.000,0.000
11577,0.3922,-0.1202,0.3179,0.0939,-0.0573,0.0646,-2.37,-2.41,0.74,0,3.473,9.864,-10.179,3.653,0.001,-0.009,0.000,0.000,0.000,0.000
11628,0.3878,-0.1139,0.3214,0.0882,-0.0124,0.0646,-1.96,-1.70,0.87,0,3.479,20.334,-4.763,2.979,-0.002,-0.009,0.000,0.000,0.000,0.000
11679,0.3965,-0.1175,0.3245,0.1127,-0.0047,0.0603,-1.01,-1.44,1.01,0,3.468,16.264,-8.752,1.691,-0.001,-0.011,0.000,0.000,0.000,0.000
11730,0.3994,-0.1120,0.3263,0.1173,0.0178,0.0485,-0.08,-1.15,1.13,0,3.473,9.038,-12.704,1.403,-0.003,-0.012,0.000,0.000,0.000,0.000
11781,0.4057,-0.1115,0.3261,0.1272,0.0181,0.0301,0.32,-0.53,1.18,0,3.468,7.148,-9.151,1.622,-0.005,-0.010,0.000,0.000,0.000,0.000
11833,0.4131,-0.1103,0.3268,0.1345,0.0166,0.0212,0.68,-0.05,1.26,0,3.473,5.003,-6.309,0.897,-0.004,-0.010,0.000,0.000,0.000,0.000
11883,0.4197,-0.1073,0.3287,0.1344,0.0160,0.0198,0.85,0.38,1.28,0,3.463,5.624,-6.664,0.093,-0.004,-0.003,0.000,0.000,0.000,0.000
11934,0.4204,-0.1000,0.3266,0.1174,0.0247,0.0024,1.12,0.72,1.29,0,3.468,9.976,-0.650,-1.419,-0.003,-0.005,0.000,0.000,0.000,0.000
11985,0.4278,-0.0993,0.3263,0.1153,0.0143,-0.0011,1.47,0.78,1.28,0,3.463,1.987,1.069,-0.966,-0.003,-0.007,0.000,0.000,0.000,0.000
